File: 01_Data/Rebond_Foam_Carpet_Pad/Cone/Rebond_Foam_Carpet_Pad_Cone_HF25Scan_220413_R2.csv
Names,Time,Stack TC,Smoke TC,Exh Press,Smoke Comp,Smoke Meas,CO Meter,CO2 Meter,O2 Meter,Sample Mass,Ext Coeff,Start Test,Flame Verif
Chan Gain,,500,500,1,1,1,1,1,1,1,1,1.0,1.0
Offset,,0,0,0.132909,0,0,0,0,0,0,0,0.0,0.0
Gain,,1,1,25.011,13.171,13.8983,1,1,1,1.00092,1.00459,1.0,1.0
Units,sec,C,C,Pa,%,%,%,%,%,g,/m,,
Baseline,,23.5021,23.7019,151.745,100.601,95.7745,0.000645105,0.0548222,21.0171,-833.907,0.433296,,
2,0.25,22.3848,22.937,151.414,99.8512,95.0526,0.000521976,0.0627613,21.0058,-352.332,0.434004,0.0,0.0
4,0.75,20.6004,21.2467,151.931,99.8568,95.1116,0.000491924,0.0624997,21.0073,-352.513,0.429037,0.0,0.0
6,1.25,20.8991,21.4254,155.188,99.8451,94.9385,0.000463744,0.0622372,21.0085,-352.432,0.444056,0.0,0.0
8,1.75,21.0955,20.9316,151.042,99.8403,94.7837,0.000437464,0.061979,21.0094,-352.302,0.458011,0.0,0.0
10,2.25,20.3559,21.1964,152.923,99.8262,94.1865,0.000416177,0.06177,21.0102,-352.312,0.512468,0.0,0.0
12,2.75,20.7028,21.0956,150.631,99.827,93.9134,0.000396505,0.0615067,21.0108,-352.402,0.538132,0.0,0.0
14,3.25,20.5906,20.6361,150.593,99.8226,93.711,0.00038057,0.061209,21.0113,-352.443,0.556747,0.0,0.0
16,3.75,20.8209,20.8467,151.237,99.819,93.1787,0.000367663,0.0609679,21.0117,-352.392,0.606625,0.0,0.0
18,4.25,20.8481,20.8284,154.48,99.8021,92.9094,0.000397328,0.0606902,21.012,-352.362,0.630643,0.0,0.0
20,4.75,20.4484,20.5151,153.18,99.8069,92.5298,0.000421357,0.0604654,21.0123,-352.372,0.667148,0.0,0.0
22,5.25,20.572,20.666,152.235,99.7953,92.6091,0.000492748,0.0603244,21.0125,-352.422,0.658567,0.0,0.0
24,5.75,20.6292,20.7976,149.236,99.8094,92.1553,0.000597311,0.0602101,21.0118,-352.443,0.703101,0.0,0.0
26,6.25,20.8276,20.9915,153.589,99.7792,91.8177,0.000766932,0.0601176,21.0112,-352.432,0.732782,0.0,0.0
28,6.75,21.0144,21.2798,150.375,99.7937,91.3685,0.000980757,0.0631943,21.005,-352.422,0.777275,0.0,0.0
30,7.25,20.9402,20.8704,155.898,99.7732,91.6124,0.00126193,0.0656864,21,-352.503,0.751974,0.0,0.0
32,7.75,20.7455,20.791,144.379,99.782,92.0073,0.00158687,0.0722211,20.976,-352.543,0.714854,0.0,1.0
34,8.25,20.3989,20.898,145.798,99.7684,90.387,0.00197038,0.0815787,20.9566,-352.693,0.87021,0.0,1.0
36,8.75,21.1596,21.2081,141.655,99.7696,87.0651,0.00238931,0.0950183,20.9241,-352.553,1.20028,0.0,1.0
38,9.25,20.9009,21.3695,146.259,99.7651,86.0018,0.00285494,0.111178,20.8977,-352.703,1.30818,0.0,1.0
40,9.75,20.8758,21.311,141.687,99.7635,84.8193,0.00334577,0.128807,20.8649,-352.713,1.43004,0.0,1.0
42,10.25,21.1619,21.1104,140.316,99.7567,83.8323,0.00374335,0.147173,20.8383,-352.683,1.53258,0.0,1.0
44,10.75,21.4734,21.3475,145.091,99.7547,84.0066,0.00424408,0.16588,20.8167,-352.673,1.5141,0.0,1.0
46,11.25,21.7359,21.6131,141.292,99.7442,81.8011,0.00481051,0.18448,20.7904,-352.773,1.74763,0.0,1.0
48,11.75,21.8111,21.3685,137.878,99.7583,80.5876,0.00538954,0.202796,20.7691,-352.853,1.88058,0.0,1.0
50,12.25,22.088,21.935,140.662,99.735,81.9105,0.00596677,0.220558,20.7443,-352.883,1.73503,0.0,1.0
52,12.75,22.2344,22.2102,137.497,99.7434,78.7676,0.00653517,0.234946,20.7243,-352.903,2.08056,0.0,1.0
54,13.25,22.2566,21.9779,139.952,99.7253,80.4926,0.00708634,0.24988,20.7041,-352.933,1.88806,0.0,1.0
56,13.75,22.5565,22.1083,140.762,99.7426,79.8594,0.00753279,0.26493,20.6841,-352.983,1.95919,0.0,1.0
58,14.25,22.7868,22.814,135.521,99.7137,78.8338,0.00805757,0.27712,20.6626,-353.043,2.07053,0.0,0.0
60,14.75,22.8692,22.5695,134.637,99.7145,80.1054,0.00848264,0.292779,20.6404,-353.073,1.9296,0.0,0.0
62,15.25,23.3672,23.5609,134.729,99.7,78.0665,0.00894847,0.305462,20.6224,-353.133,2.15551,0.0,0.0
64,15.75,24.2476,23.8227,137.152,99.7045,78.3973,0.00914707,0.320492,20.611,-353.203,2.11864,0.0,0.0
66,16.25,24.1643,23.9904,135.106,99.6912,78.2943,0.00969763,0.332667,20.5832,-353.233,2.12906,0.0,0.0
68,16.75,24.8408,23.837,137.099,99.6924,79.2439,0.00988749,0.34652,20.5734,-353.303,2.02292,0.0,0.0
70,17.25,24.5744,24.7406,136.171,99.6763,77.8532,0.0102122,0.357742,20.5566,-353.343,2.17753,0.0,0.0
72,17.75,25.1379,24.7602,134.407,99.6707,78.6086,0.0105531,0.369667,20.543,-353.403,2.09194,0.0,0.0
74,18.25,24.747,25.0914,135.501,99.6667,75.8669,0.0108994,0.379327,20.5285,-353.453,2.40442,0.0,0.0
76,18.75,26.0602,25.6572,139.658,99.6683,77.7348,0.0112295,0.383445,20.5167,-353.483,2.19022,0.0,0.0
78,19.25,26.0774,24.8804,132.324,99.6626,76.929,0.0115416,0.397403,20.5053,-353.584,2.28156,0.0,0.0
80,19.75,26.0287,25.327,136.844,99.6598,78.4983,0.0118406,0.401158,20.4944,-353.594,2.10335,0.0,0.0
82,20.25,26.6808,26.4274,136.328,99.6538,78.7066,0.0121246,0.408919,20.482,-353.634,2.07947,0.0,0.0
84,20.75,26.6639,26.9866,133.652,99.6454,79.6473,0.0123894,0.416411,20.472,-353.694,1.97402,0.0,0.0
86,21.25,27.1664,27.0398,133.717,99.6389,76.8098,0.0126353,0.422479,20.4608,-353.774,2.29313,0.0,0.0
88,21.75,27.3657,27.2421,130.745,99.6373,75.6438,0.0128699,0.429385,20.4517,-353.834,2.42778,0.0,0.0
90,22.25,27.7018,27.6943,140.812,99.6305,78.8397,0.013092,0.434978,20.4444,-353.884,2.06251,0.0,0.0
92,22.75,28.3803,27.9887,135.206,99.6241,77.6958,0.0132719,0.441442,20.4363,-353.904,2.19074,0.0,0.0
94,23.25,27.9832,28.6909,126.729,99.6168,76.0412,0.0134176,0.446679,20.4279,-354.014,2.37979,0.0,0.0
96,23.75,28.6641,29.1396,130.995,99.6164,75.8576,0.0136789,0.452441,20.4218,-354.074,2.40106,0.0,0.0
98,24.25,29.2033,28.9806,134.984,99.6044,76.6087,0.0138906,0.457109,20.4175,-354.134,2.31316,0.0,0.0
100,24.75,29.2375,29.5744,133.206,99.6092,75.1404,0.014062,0.461724,20.4135,-354.184,2.48414,0.0,0.0
102,25.25,30.0633,29.5837,137.773,99.5995,76.3347,0.0143097,0.465463,20.4099,-354.224,2.34431,0.0,0.0
104,25.75,30.2684,30.1196,134.542,99.5895,76.6842,0.0146082,0.468491,20.407,-354.314,2.30317,0.0,0.0
106,26.25,30.7439,30.3953,131.448,99.5827,74.0592,0.0148499,0.473337,20.4006,-354.364,2.6095,0.0,0.0
108,26.75,30.5961,31.3772,134.1,99.5823,75.8839,0.0150589,0.477263,20.3979,-354.404,2.39498,0.0,0.0
110,27.25,30.8472,31.556,132.922,99.5807,76.9285,0.0154161,0.480443,20.3933,-354.484,2.27436,0.0,0.0
112,27.75,31.5849,31.696,130.428,99.577,74.9431,0.0158349,0.489385,20.3758,-354.534,2.50445,0.0,0.0
114,28.25,31.8755,32.0826,128.472,99.5686,75.2455,0.0162906,0.496628,20.3617,-354.655,2.46822,0.0,0.0
116,28.75,31.9256,32.9442,130.165,99.5686,76.7343,0.0167807,0.507789,20.3365,-354.695,2.29557,0.0,0.0
118,29.25,32.6426,32.5871,129.989,99.5597,75.1845,0.0172866,0.521594,20.3161,-354.785,2.47459,0.0,0.0
120,29.75,33.0227,33.1081,128.696,99.567,76.2156,0.0178026,0.527479,20.2756,-354.825,2.3552,0.0,0.0
122,30.25,33.4789,33.6543,122.62,99.5549,76.5527,0.0183161,0.544981,20.2429,-354.905,2.31523,0.0,0.0
124,30.75,34.1631,33.8335,123.715,99.5545,76.2436,0.0188154,0.56585,20.192,-354.965,2.35086,0.0,0.0
126,31.25,34.5664,34.5739,127.413,99.5465,72.1014,0.0192948,0.590781,20.1508,-355.065,2.8424,0.0,0.0
128,31.75,35.0481,35.1394,117.549,99.5473,75.0063,0.0196831,0.6182,20.0909,-355.195,2.49439,0.0,0.0
130,32.25,35.7532,35.8115,117.609,99.5356,75.0852,0.0200657,0.64888,20.0423,-355.265,2.4841,0.0,0.0
132,32.75,36.2289,36.4441,116.931,99.5352,76.6325,0.0204368,0.681355,19.9907,-355.365,2.30431,0.0,0.0
134,33.25,36.8772,37.0789,107.818,99.526,75.4283,0.0207538,0.7155,19.9377,-355.455,2.44306,0.0,0.0
136,33.75,37.5414,38.1564,113.93,99.5244,74.0987,0.0210252,0.750216,19.8948,-355.525,2.59965,0.0,0.0
138,34.25,38.7691,38.6304,112.596,99.5272,74.7111,0.0212415,0.787412,19.8392,-355.665,2.52736,0.0,0.0
140,34.75,39.4757,39.5756,110.005,99.5083,75.9836,0.0214135,0.82571,19.7942,-355.776,2.37687,0.0,0.0
142,35.25,40.0683,40.5479,109.628,99.5151,75.0246,0.02154,0.856731,19.7326,-355.886,2.4894,0.0,0.0
144,35.75,41.2464,41.3402,114.449,99.497,78.637,0.021631,0.89975,19.6826,-355.936,2.07339,0.0,0.0
146,36.25,42.404,42.3014,106.602,99.5107,77.099,0.0216948,0.934596,19.6173,-356.046,2.24865,0.0,0.0
148,36.75,42.9406,43.8409,100.491,99.5087,76.0009,0.0217375,0.975832,19.5645,-356.176,2.37489,0.0,0.0
150,37.25,44.1647,44.5937,93.1881,99.5015,76.7283,0.0217721,1.00923,19.504,-356.336,2.29031,0.0,0.0
152,37.75,45.052,45.9953,106.55,99.4838,77.0702,0.0218015,1.04299,19.4549,-356.446,2.24957,0.0,0.0
154,38.25,46.2053,47.0204,105.526,99.4898,77.9758,0.0218253,1.07637,19.408,-356.506,2.14716,0.0,0.0
156,38.75,47.3143,48.2589,99.9317,99.4802,77.2568,0.0218446,1.10836,19.3635,-356.646,2.22793,0.0,0.0
158,39.25,48.4481,49.432,94.3651,99.4878,79.5926,0.0218549,1.13873,19.3445,-356.816,1.96613,0.0,0.0
160,39.75,49.7468,50.7919,104.43,99.4773,76.7894,0.0218801,1.16334,19.2885,-356.897,2.28116,0.0,0.0
162,40.25,50.8673,51.789,109.702,99.4858,79.8322,0.021865,1.19191,19.2719,-356.967,1.93946,0.0,0.0
164,40.75,51.9008,53.1451,110.162,99.4753,80.1198,0.021839,1.21506,19.2391,-357.077,1.90685,0.0,0.0
166,41.25,52.8999,54.347,102.159,99.4786,77.1563,0.0217556,1.23946,19.2085,-357.227,2.23926,0.0,0.0
168,41.75,54.0149,55.7351,103.959,99.4741,79.3025,0.0216321,1.25922,19.1838,-357.287,1.9971,0.0,0.0
170,42.25,55.5007,57.2196,99.0448,99.4721,80.6758,0.0214494,1.26765,19.1633,-357.427,1.84562,0.0,0.0
172,42.75,56.4796,58.2463,104.954,99.4685,79.7186,0.0212272,1.29137,19.1467,-357.527,1.95049,0.0,0.0
174,43.25,57.5655,59.4665,103.126,99.4637,80.0121,0.0210472,1.29776,19.1332,-357.657,1.91767,0.0,0.0
176,43.75,58.2473,60.9167,94.4437,99.4408,80.9626,0.0207185,1.30851,19.1223,-357.807,1.81158,0.0,0.0
178,44.25,59.6394,62.0738,107.446,99.4613,80.6648,0.0204523,1.31707,19.1135,-357.918,1.84586,0.0,0.0
180,44.75,60.794,63.4624,100.106,99.4384,81.9958,0.0201421,1.3232,19.1063,-357.968,1.69962,0.0,0.0
182,45.25,61.5999,64.5069,102.666,99.4327,81.9406,0.0198059,1.32745,19.1006,-358.068,1.70504,0.0,0.0
184,45.75,62.7418,65.6801,97.667,99.4287,82.1201,0.0195336,1.33,19.0959,-358.198,1.68541,0.0,0.0
186,46.25,63.8495,66.7342,106.885,99.4327,82.389,0.019313,1.33127,19.0956,-358.298,1.65696,0.0,0.0
188,46.75,64.7382,67.9773,105.365,99.409,81.6997,0.0189896,1.33229,19.0954,-358.388,1.72889,0.0,0.0
190,47.25,65.5271,69.0459,107.088,99.4078,81.1233,0.0185974,1.33203,19.0952,-358.478,1.79118,0.0,0.0
192,47.75,66.5603,70.3748,107.949,99.3994,83.4625,0.0182021,1.33182,19.0972,-358.588,1.53993,0.0,0.0
194,48.25,67.1747,71.2453,102.141,99.3994,81.827,0.0178122,1.33065,19.0989,-358.678,1.71432,0.0,0.0
196,48.75,68.0339,72.2215,103.064,99.3966,83.7093,0.0174363,1.32881,19.1033,-358.788,1.51365,0.0,0.0
198,49.25,69.0601,72.8498,100.11,99.401,82.8644,0.0170778,1.32732,19.1069,-358.888,1.60344,0.0,0.0
200,49.75,69.9575,73.813,108.327,99.3732,84.0215,0.0167309,1.32611,19.1151,-358.988,1.47878,0.0,0.0
202,50.25,70.5806,75.5123,95.062,99.3724,83.4536,0.0163992,1.32187,19.1217,-359.099,1.53848,0.0,0.0
204,50.75,71.519,76.1249,106.512,99.364,84.0949,0.0161305,1.31549,19.1422,-359.159,1.47027,0.0,0.0
206,51.25,72.6224,76.545,107.06,99.3692,83.8086,0.0158007,1.30669,19.1588,-359.249,1.50078,0.0,0.0
208,51.75,72.9582,77.6947,105.89,99.3503,82.9297,0.0155336,1.29629,19.189,-359.359,1.592,0.0,0.0
210,52.25,74.2609,78.4168,108.145,99.3499,83.3072,0.0152209,1.283,19.2135,-359.469,1.55195,0.0,0.0
212,52.75,74.654,79.4465,102.191,99.3507,85.7605,0.0149677,1.26785,19.242,-359.539,1.29626,0.0,0.0
214,53.25,75.3411,80.3041,108.961,99.3431,84.4503,0.0147626,1.25011,19.2728,-359.619,1.43125,0.0,0.0
216,53.75,75.5738,81.093,109.951,99.3351,84.7468,0.0145095,1.23081,19.308,-359.739,1.39965,0.0,0.0
218,54.25,76.3571,81.9088,111.953,99.3399,84.8638,0.0143044,1.20789,19.3458,-359.799,1.38792,0.0,0.0
220,54.75,76.7192,82.1789,109.606,99.3142,84.9283,0.014106,1.18277,19.3764,-359.859,1.37894,0.0,0.0
222,55.25,77.4507,83.1369,111.855,99.315,85.461,0.0139452,1.16242,19.4264,-359.919,1.32391,0.0,0.0
224,55.75,77.974,83.6178,118.875,99.3073,84.723,0.013815,1.13622,19.4669,-359.979,1.39966,0.0,0.0
226,56.25,78.3171,83.9688,119.412,99.3037,85.3546,0.0136772,1.10627,19.5167,-360.039,1.3339,0.0,0.0
228,56.75,78.6166,84.3904,114.353,99.2933,85.9971,0.0135656,1.082,19.5724,-360.12,1.26688,0.0,0.0
230,57.25,78.7843,84.9783,121.567,99.2888,83.3675,0.0134429,1.0482,19.6314,-360.18,1.54016,0.0,0.0
232,57.75,78.9615,85.1833,122.638,99.282,83.7386,0.0133434,1.00809,19.6917,-360.2,1.50041,0.0,0.0
234,58.25,79.0847,85.5712,124.662,99.2695,82.8895,0.0132343,0.975606,19.7405,-360.26,1.58912,0.0,0.0
236,58.75,79.1986,85.4562,129.805,99.2651,79.171,0.0131202,0.927929,19.8133,-360.28,1.99319,0.0,0.0
238,59.25,79.0971,85.7008,131.07,99.2607,80.0498,0.0129871,0.889311,19.886,-360.34,1.89552,0.0,0.0
240,59.75,79.0154,85.5165,132.187,99.2599,76.1905,0.0128425,0.838534,19.9573,-360.36,2.33087,0.0,0.0
242,60.25,78.8096,85.221,130.641,99.2543,76.0107,0.0127255,0.797405,20.015,-360.44,2.3512,0.0,0.0
244,60.75,78.6872,85.6491,130.85,99.2506,78.2069,0.0124454,0.754355,20.0734,-360.45,2.09987,0.0,0.0
246,61.25,79.0355,85.4967,134.648,99.2402,77.183,0.0122186,0.710722,20.1312,-360.43,2.21507,0.0,0.0
248,61.75,77.8047,84.9065,138.134,99.245,78.9263,0.0118684,0.667698,20.1915,-360.46,2.01869,0.0,0.0
250,62.25,78.0991,84.4404,138.292,99.2314,78.4622,0.0115847,0.625935,20.2526,-360.48,2.06943,0.0,0.0
252,62.75,77.5467,84.6229,140.956,99.2189,82.6218,0.011207,0.584205,20.312,-360.49,1.61312,0.0,0.0
254,63.25,77.1604,83.3953,143.335,99.2173,85.6795,0.0109011,0.543292,20.3692,-360.51,1.29274,0.0,0.0
256,63.75,76.8053,83.42,143.411,99.2129,88.2604,0.0105579,0.510152,20.4277,-360.51,1.03082,0.0,0.0
258,64.25,76.6739,83.1885,143.912,99.2137,89.7792,0.0102799,0.46889,20.4859,-360.52,0.880537,0.0,0.0
260,64.75,75.4134,83.0511,145.401,99.2032,91.7854,0.00999767,0.435467,20.5406,-360.52,0.684859,0.0,0.0
262,65.25,74.87,81.3513,148.104,99.1972,93.018,0.00976904,0.398487,20.5915,-360.5,0.566774,0.0,0.0
264,65.75,74.376,81.1827,145.971,99.1892,93.535,0.0095565,0.368534,20.6328,-360.5,0.517214,0.0,0.0
266,66.25,73.8269,80.7403,146.071,99.1855,94.0079,0.00935973,0.340061,20.6769,-360.51,0.472449,0.0,0.0
268,66.75,73.6809,80.8553,149.465,99.1771,94.6908,0.00920035,0.313208,20.7126,-360.5,0.407919,0.0,0.0
270,67.25,73.0794,79.9881,149.419,99.1618,94.6077,0.00899913,0.284794,20.7457,-360.5,0.414302,0.0,0.0
272,67.75,72.2051,79.2838,144.818,99.1606,94.8957,0.00883615,0.261779,20.7763,-360.51,0.387411,0.0,0.0
274,68.25,72.3007,78.2983,145.495,99.1546,94.5551,0.00865164,0.238394,20.8011,-360.51,0.418559,0.0,0.0
276,68.75,71.6075,78.6435,149.932,99.1445,94.7718,0.00845494,0.219452,20.8211,-360.52,0.39749,0.0,0.0
278,69.25,70.9407,77.7978,144.666,99.1445,94.5602,0.00829562,0.204108,20.8423,-360.53,0.417192,0.0,0.0
280,69.75,69.7294,77.3023,150.175,99.1441,94.5148,0.00816657,0.186761,20.8594,-360.51,0.421386,0.0,0.0
282,70.25,69.4071,75.974,150.106,99.1264,94.4724,0.0078671,0.172709,20.874,-360.51,0.423769,0.0,0.0
284,70.75,69.369,75.7584,147.692,99.1357,94.4792,0.00762453,0.159935,20.8866,-360.53,0.423959,0.0,0.0
286,71.25,67.9216,74.8202,151.948,99.1192,94.3422,0.00726656,0.148335,20.8989,-360.51,0.435281,0.0,0.0
288,71.75,67.2794,74.4995,149.503,99.1072,94.3948,0.00697661,0.138939,20.9107,-360.51,0.429297,0.0,0.0
290,72.25,66.8697,73.8322,148.158,99.1011,94.5729,0.00660085,0.131328,20.9219,-360.52,0.412147,0.0,0.0
292,72.75,66.6865,73.5391,152.241,99.0995,94.4071,0.00629648,0.123104,20.9324,-360.51,0.42747,0.0,0.0
294,73.25,66.0194,73.3711,148.271,99.1011,94.424,0.00592817,0.116442,20.9417,-360.51,0.42603,0.0,0.0
296,73.75,65.6598,72.4502,149.64,99.0802,94.4329,0.00562984,0.110499,20.9498,-360.51,0.423339,0.0,0.0
298,74.25,64.8127,72.2008,148.804,99.0714,94.463,0.00538819,0.105192,20.9564,-360.5,0.419743,0.0,0.0
300,74.75,64.7257,70.885,148.79,99.0714,94.4999,0.00504882,0.100188,20.9622,-360.5,0.416301,0.0,0.0
302,75.25,64.1651,71.3414,150.324,99.0621,94.4923,0.00477393,0.0961351,20.9673,-360.51,0.416191,0.0,0.0
304,75.75,63.996,70.3263,151.148,99.0561,94.273,0.00447473,0.0922856,20.9721,-360.51,0.436128,0.0,0.0
306,76.25,62.8419,69.4713,146.214,99.0513,94.368,0.00423237,0.0891675,20.9767,-360.5,0.426823,0.0,0.0
308,76.75,62.7214,69.5958,154.822,99.0585,94.3549,0.00399456,0.0863803,20.9803,-360.5,0.428694,0.0,0.0
310,77.25,62.3377,68.8988,149.465,99.0336,94.6399,0.00376459,0.0838874,20.9842,-360.51,0.399898,0.0,0.0
312,77.75,61.9885,68.3919,151.055,99.0501,94.3485,0.00354854,0.0818682,20.9873,-360.52,0.428538,0.0,0.0
314,78.25,61.0539,67.9723,149.226,99.0396,94.3574,0.00334674,0.0798052,20.9899,-360.51,0.426776,0.0,0.0
316,78.75,60.8744,67.2354,150.144,99.042,94.4974,0.00318328,0.0781343,20.9919,-360.51,0.413928,0.0,0.0
318,79.25,60.2774,67.3704,148.867,99.0509,94.329,0.00299808,0.0765633,20.9938,-360.53,0.430432,0.0,0.0
320,79.75,60.106,66.4422,150.021,99.0252,94.3943,0.00284806,0.0750951,20.9956,-360.52,0.422042,0.0,0.0
322,80.25,59.4023,66.0597,150.974,99.0107,94.4334,0.00269466,0.0739059,20.9972,-360.51,0.417113,0.0,0.0
324,80.75,59.6635,65.5999,148.968,99.0256,94.4643,0.00257041,0.0726673,20.9988,-360.5,0.415548,0.0,0.0
326,81.25,58.6365,65.5878,153.14,99.0039,94.3222,0.00246976,0.0716641,21,-360.51,0.426881,0.0,0.0
328,81.75,58.1674,64.7802,147.663,99.0075,94.3837,0.00236985,0.0706589,21.0015,-360.51,0.421458,0.0,0.0
330,82.25,57.8506,64.4715,148.027,98.9874,94.4329,0.00228892,0.0698447,21.0027,-360.51,0.415078,0.0,0.0
332,82.75,57.1631,64.3015,151.017,99.0063,94.3481,0.00222215,0.0689377,21.0036,-360.51,0.424678,0.0,0.0
334,83.25,57.0227,63.6881,149.607,98.9862,94.4393,0.00216806,0.0682031,21.0044,-360.51,0.414376,0.0,0.0
336,83.75,56.6977,63.3669,150.196,98.9894,94.4011,0.00211689,0.0674995,21.0052,-360.51,0.418226,0.0,0.0
338,84.25,56.4514,62.8129,148.816,98.9793,94.2561,0.00207545,0.066832,21.0061,-360.51,0.430882,0.0,0.0
340,84.75,56.4613,62.335,145.19,98.9765,94.2688,0.00202474,0.0662913,21.0071,-360.51,0.429442,0.0,0.0
342,85.25,56.071,62.1017,148.391,98.9625,94.2726,0.00198365,0.065661,21.0081,-360.5,0.427832,0.0,0.0
344,85.75,55.5317,61.7078,149.819,98.9701,94.2866,0.00192467,0.0651505,21.0089,-360.51,0.427205,0.0,0.0
346,86.25,55.2161,61.4562,148.697,98.9516,94.3782,0.0018769,0.0646408,21.0096,-360.5,0.417,0.0,0.0
348,86.75,54.8395,61.0215,148.929,98.9588,94.4673,0.00182404,0.064228,21.0101,-360.5,0.409332,0.0,0.0
350,87.25,54.5492,60.7791,148.834,98.9399,94.318,0.00176847,0.06377,21.011,-360.51,0.421587,0.0,0.0
352,87.75,54.0991,60.4462,151.27,98.95,94.3651,0.00172346,0.0633991,21.0117,-360.51,0.418084,0.0,0.0
354,88.25,53.691,59.8778,149.976,98.9347,94.6246,0.00167233,0.0629476,21.0122,-360.51,0.392516,0.0,0.0
356,88.75,53.5762,59.4506,149.949,98.9432,94.2896,0.00163092,0.062582,21.0127,-360.52,0.424529,0.0,0.0
358,89.25,53.177,59.2084,150.088,98.9335,94.2518,0.00159416,0.062228,21.0131,-360.51,0.427198,0.0,0.0
360,89.75,52.9707,58.6902,148.704,98.9319,94.3761,0.00156149,0.0618893,21.0134,-360.52,0.415444,0.0,0.0
362,90.25,52.0438,58.1266,148.168,98.915,94.3481,0.00153631,0.0616149,21.0136,-360.52,0.416554,0.0,0.0
364,90.75,52.4676,58.3379,151.506,98.9259,94.3282,0.00151707,0.0613515,21.0138,-360.51,0.419383,0.0,0.0
366,91.25,51.4924,57.9182,153.422,98.9106,94.2692,0.00150278,0.0611382,21.014,-360.51,0.423531,0.0,0.0
368,91.75,51.3182,56.9556,150.076,98.9319,94.2391,0.00149236,0.0609365,21.0141,-360.51,0.428245,0.0,0.0
370,92.25,50.6332,57.6461,149.357,98.9006,94.2013,0.00148392,0.0607471,21.0142,-360.52,0.428982,0.0,0.0
372,92.75,50.969,56.2092,147.289,98.9118,94.2739,0.00147708,0.0605937,21.0143,-360.51,0.423203,0.0,0.0
374,93.25,50.6928,56.458,146.972,98.8973,94.3176,0.00148744,0.0603872,21.0141,-360.51,0.41783,0.0,0.0
376,93.75,50.1663,56.2123,146.892,98.8977,94.3218,0.00150584,0.0602199,21.0134,-360.51,0.417471,0.0,0.0
378,94.25,50.211,55.8686,149.818,98.8869,94.0847,0.00151485,0.0599884,21.0132,-360.52,0.438682,0.0,0.0
380,94.75,49.5802,55.5584,149.549,98.8953,94.2064,0.00153026,0.0598009,21.0129,-360.52,0.42804,0.0,0.0
382,95.25,49.2719,55.0591,149.716,98.8853,94.2158,0.00154853,0.059649,21.0127,-360.53,0.426272,0.0,0.0
384,95.75,48.0735,55.2528,150.232,98.901,94.2747,0.00157709,0.05943,21.0125,-360.52,0.422156,0.0,0.0
386,96.25,48.5264,54.4031,149.661,98.8825,94.1857,0.0015867,0.0592526,21.0124,-360.52,0.428839,0.0,0.0
388,96.75,48.0836,54.5084,150.311,98.8865,94.2272,0.00160314,0.0589889,21.0127,-360.51,0.425308,0.0,0.0
390,97.25,48.2094,54.1718,153.846,98.8813,94.1831,0.00161646,0.058918,21.0129,-360.52,0.428969,0.0,0.0
392,97.75,47.6348,53.5058,149.623,98.8913,94.1742,0.00162969,0.058804,21.0131,-360.53,0.430699,0.0,0.0
394,98.25,47.7053,53.0073,149.351,98.8656,94.3456,0.00164041,0.0587181,21.0133,-360.52,0.412386,0.0,0.0
396,98.75,47.1373,52.9076,148.787,98.8817,94.1097,0.0016442,0.0585828,21.0134,-360.52,0.435873,0.0,0.0
398,99.25,46.8574,52.1197,151.689,98.8692,94.2204,0.00164726,0.0585236,21.0135,-360.53,0.424403,0.0,0.0
400,99.75,46.4708,52.2305,147.891,98.8837,94.346,0.00164009,0.0584225,21.0136,-360.52,0.413958,0.0,0.0
402,100.25,46.6791,52.3492,150.031,98.8656,94.2149,0.00162559,0.0583405,21.0137,-360.52,0.424596,0.0,0.0
404,100.75,45.7669,52.276,147.174,98.8616,94.1687,0.0015984,0.0582742,21.0138,-360.53,0.428564,0.0,0.0
406,101.25,46.1446,51.5967,151.144,98.8596,94.2633,0.00156248,0.0582204,21.0138,-360.53,0.419537,0.0,0.0
408,101.75,45.8197,52.038,148.42,98.8507,94.1678,0.00153338,0.0581769,21.0138,-360.51,0.427675,0.0,0.0
410,102.25,45.5198,51.5178,146.726,98.8592,94.2696,0.00147317,0.0581827,21.0139,-360.52,0.418906,0.0,0.0
412,102.75,45.5999,51.0557,147.208,98.8507,94.2251,0.0014244,0.0581874,21.0139,-360.52,0.422319,0.0,0.0
414,103.25,45.482,50.5807,148.318,98.8652,94.1254,0.00137526,0.0582129,21.0139,-360.51,0.432934,0.0,0.0
416,103.75,44.8257,50.4925,145.711,98.8431,94.0822,0.00132678,0.058253,21.0139,-360.51,0.435015,0.0,0.0
418,104.25,44.9369,50.4661,149.301,98.837,94.1929,0.00128238,0.0582855,21.0139,-360.52,0.424115,0.0,0.0
420,104.75,44.7302,49.7281,155.703,98.8471,94.1203,0.00124179,0.0583119,21.014,-360.52,0.431799,0.0,0.0
422,105.25,43.8202,49.6347,146.983,98.8387,94.1793,0.00121213,0.0583332,21.014,-360.52,0.425528,0.0,0.0
424,105.75,44.1892,49.6485,151.563,98.8443,94.125,0.00119099,0.0583649,21.014,-360.52,0.431112,0.0,0.0
426,106.25,43.4771,49.3596,150.261,98.8379,94.1632,0.00118542,0.0584036,21.014,-360.51,0.426965,0.0,0.0
428,106.75,43.3165,48.4864,150.253,98.8379,94.1619,0.00119133,0.0584277,21.014,-360.52,0.427085,0.0,0.0
430,107.25,43.0883,48.6012,149.692,98.8322,94.3668,0.00121475,0.0584407,21.014,-360.51,0.407431,0.0,0.0
432,107.75,43.2217,48.564,149.673,98.819,94.0762,0.0012505,0.058408,21.014,-360.52,0.433421,0.0,0.0
434,108.25,43.2205,48.4652,148.312,98.827,94.0487,0.00127946,0.0583425,21.014,-360.52,0.436721,0.0,0.0
436,108.75,42.5075,47.9191,148.121,98.8186,94.2408,0.00130291,0.0582318,21.014,-360.52,0.417984,0.0,0.0
438,109.25,42.1786,47.6725,148.252,98.8234,94.1946,0.00136471,0.0580901,21.014,-360.52,0.422738,0.0,0.0
440,109.75,41.5706,47.5024,150.179,98.8194,94.1674,0.00141476,0.0579609,21.0144,-360.52,0.424919,0.0,0.0
442,110.25,41.7991,46.914,147.325,98.8294,94.0923,0.00144951,0.0578433,21.0148,-360.52,0.432843,0.0,0.0
444,110.75,41.6279,47.1463,147.54,98.8129,94.3354,0.00147244,0.0577481,21.0151,-360.53,0.408643,0.0,0.0
446,111.25,41.5103,46.9476,148.608,98.8214,94.1678,0.00147622,0.0576277,21.0153,-360.53,0.42506,0.0,0.0
448,111.75,41.752,46.8912,147.833,98.8141,94.2251,0.00146595,0.0574912,21.0155,-360.53,0.419057,0.0,0.0
450,112.25,41.3259,46.4857,147.3,98.8246,94.0932,0.00144092,0.0573518,21.0157,-360.53,0.432334,0.0,0.0
452,112.75,41.4759,46.2548,149.061,98.8141,94.1997,0.00140561,0.0572129,21.016,-360.52,0.421437,0.0,0.0
454,113.25,41.0941,46.0093,147.047,98.8182,94.1386,0.00136286,0.0571004,21.0165,-360.52,0.427511,0.0,0.0
456,113.75,41.0074,45.7224,148.054,98.8117,94.0669,0.00131552,0.0569682,21.0169,-360.53,0.433651,0.0,0.0
458,114.25,40.5007,45.3411,150.43,98.8153,94.2238,0.00127718,0.0568611,21.0173,-360.53,0.419284,0.0,0.0
460,114.75,40.2365,45.2583,148.639,98.8085,94.1551,0.00122237,0.0567744,21.0175,-360.52,0.425103,0.0,0.0
462,115.25,40.3388,44.8959,149.916,98.8157,94.1123,0.00115661,0.0567041,21.0177,-360.52,0.429758,0.0,0.0
464,115.75,39.6135,44.8795,149.825,98.8077,94.2387,0.00110334,0.0566255,21.0179,-360.52,0.417214,0.0,0.0
466,116.25,39.6188,44.3062,144.141,98.8157,94.2913,0.0010448,0.0565425,21.0181,-360.53,0.413014,0.0,0.0
468,116.75,39.5562,44.0123,148.434,98.8045,94.2773,0.000983539,0.0564341,21.0182,-360.53,0.413319,0.0,0.0
470,117.25,39.3477,43.9277,154.691,98.823,94.1907,0.00092943,0.0563463,21.0183,-360.52,0.42306,0.0,0.0
472,117.75,39.1627,43.891,150.675,98.8089,94.2081,0.000904238,0.0562751,21.0183,-360.53,0.420177,0.0,0.0
474,118.25,39.2581,44.1117,149.954,98.8174,94.2226,0.00086116,0.0561815,21.0184,-360.52,0.419582,0.0,0.0
476,118.75,38.9404,43.5969,150.031,98.8037,94.2281,0.000828189,0.0560732,21.0184,-360.52,0.417847,0.0,0.0
478,119.25,38.6533,43.3889,150.235,98.8137,94.181,0.000803213,0.0559855,21.0185,-360.5,0.423148,0.0,0.0
480,119.75,38.4563,43.3743,148.029,98.8025,94.1721,0.000791314,0.0558928,21.0185,-360.51,0.422977,0.0,0.0
482,120.25,38.7858,42.7159,148.749,98.8161,94.1046,0.000789174,0.0557983,21.0185,-360.51,0.430509,0.0,0.0
484,120.75,38.1565,42.8508,147.561,98.8025,94.1471,0.000800267,0.055758,21.0186,-360.51,0.425319,0.0,0.0
486,121.25,37.5746,43.0988,150.706,98.8194,94.1225,0.000820796,0.0556617,21.0186,-360.51,0.429127,0.0,0.0
488,121.75,38.1624,42.6444,146.998,98.7969,94.0987,0.000843841,0.0555837,21.0186,-360.52,0.429345,0.0,0.0
490,122.25,37.8152,42.8072,153.26,98.8177,94.2145,0.000868281,0.0555205,21.0186,-360.51,0.420372,0.0,0.0
492,122.75,37.7939,42.4094,146.709,98.8113,94.1275,0.000888078,0.0554693,21.0186,-360.51,0.427934,0.0,0.0
494,123.25,37.5124,41.8928,149.497,98.8133,94.1729,0.000903472,0.0554495,21.0186,-360.52,0.423867,0.0,0.0
496,123.75,37.7178,41.9501,148.505,98.8013,94.1555,0.000915363,0.0554529,21.0186,-360.52,0.424417,0.0,0.0
498,124.25,37.8691,41.9933,152.563,98.8298,94.195,0.000928845,0.0554557,21.0186,-360.52,0.423272,0.0,0.0
500,124.75,37.7213,41.8624,152.018,98.8033,94.1318,0.000943231,0.0554168,21.0186,-360.52,0.42682,0.0,0.0
502,125.25,36.8838,41.3672,151.947,98.8165,94.2565,0.000965156,0.0553853,21.0186,-360.51,0.416338,0.0,0.0
504,125.75,36.4351,40.4258,148.408,98.8105,94.1852,0.00099216,0.0553671,21.0187,-360.52,0.422464,0.0,0.0
506,126.25,36.6586,41.4555,147.011,98.8246,94.209,0.00102174,0.0553587,21.0187,-360.52,0.421496,0.0,0.0
508,126.75,36.3445,40.933,146.588,98.8089,94.4228,0.00105264,0.0553304,21.0187,-360.52,0.400125,0.0,0.0
510,127.25,36.0066,40.7349,151.517,98.8198,94.3752,0.00108088,0.0552879,21.0187,-360.53,0.405528,0.0,0.0
512,127.75,36.4577,40.718,148.738,98.8117,94.2268,0.00109444,0.0552536,21.0187,-360.53,0.418683,0.0,0.0
514,128.25,36.2841,40.4533,152.016,98.8366,94.1449,0.00111763,0.0551984,21.0187,-360.52,0.428565,0.0,0.0
516,128.75,35.6854,40.2866,152.224,98.8125,94.265,0.00113641,0.0551536,21.0187,-360.53,0.415186,0.0,0.0
518,129.25,35.4995,40.1447,148.674,98.8282,94.047,0.00115162,0.0551311,21.0187,-360.53,0.436987,0.0,0.0
520,129.75,35.657,39.4437,149.286,98.8165,94.4088,0.00116395,0.0551128,21.0187,-360.53,0.402112,0.0,0.0
522,130.25,36.0576,39.6889,148.703,98.8286,94.3587,0.00116172,0.0550707,21.0187,-360.53,0.407861,0.0,0.0
524,130.75,35.4753,39.539,148.213,98.8161,94.0245,0.00115992,0.0550527,21.0187,-360.52,0.438019,0.0,0.0
526,131.25,35.7108,38.7543,148.494,98.8298,94.0444,0.00115602,0.0549809,21.0187,-360.52,0.437369,0.0,0.0
528,131.75,34.7112,39.3168,150.588,98.837,94.2815,0.00115286,0.0549227,21.0187,-360.53,0.415826,0.0,0.0
530,132.25,34.9738,39.3921,148.629,98.8439,94.0839,0.00115151,0.0549116,21.0187,-360.52,0.434928,0.0,0.0
532,132.75,35.1625,39.2011,148.352,98.8403,94.1225,0.0011663,0.0549351,21.0187,-360.53,0.430991,0.0,0.0
534,133.25,34.6291,38.7742,149.583,98.8519,94.2408,0.00117828,0.054954,21.0187,-360.53,0.420959,0.0,0.0
536,133.75,34.5773,38.0001,146.278,98.8503,94.1636,0.00120019,0.054901,21.0187,-360.53,0.428036,0.0,0.0
538,134.25,34.898,38.2584,148.766,98.8415,94.2998,0.00121794,0.054858,21.0187,-360.53,0.414516,0.0,0.0
540,134.75,34.4582,38.4955,147.956,98.8435,94.2204,0.00123598,0.0548015,21.0187,-360.54,0.422109,0.0,0.0
542,135.25,34.0759,38.1797,149.251,98.8467,94.2599,0.00125059,0.0547673,21.0187,-360.53,0.418708,0.0,0.0
544,135.75,34.7677,38.0591,152.53,98.8455,94.0758,0.00126731,0.0547086,21.0187,-360.53,0.435827,0.0,0.0
546,136.25,33.9262,38.0202,145.69,98.8596,94.0906,0.00128086,0.0547022,21.0187,-360.51,0.43569,0.0,0.0
548,136.75,34.2885,37.8145,148.674,98.8575,94.1907,0.00129183,0.0547042,21.0187,-360.53,0.426141,0.0,0.0
550,137.25,34.3511,37.5988,148.282,98.8672,94.2298,0.00130972,0.0547122,21.0187,-360.53,0.423351,0.0,0.0
552,137.75,33.8715,37.6656,147.958,98.8628,94.346,0.00133231,0.0547044,21.0187,-360.54,0.412096,0.0,0.0
554,138.25,33.5013,36.7887,151.293,98.8692,94.1119,0.0013519,0.0546851,21.0187,-360.5,0.434564,0.0,0.0
556,138.75,33.3975,37.7754,151.481,98.8744,94.139,0.00136893,0.0546694,21.0187,-360.51,0.432488,0.0,0.0
558,139.25,33.6334,37.0611,155.196,98.8809,94.1738,0.00138272,0.0546567,21.0187,-360.51,0.429807,0.0,0.0
560,139.75,33.9257,37.0867,152.075,98.876,94.0843,0.00138533,0.0546465,21.0187,-360.52,0.437756,0.0,0.0
562,140.25,33.5184,37.2538,149.189,98.878,94.2777,0.00138745,0.0546381,21.0187,-360.53,0.419837,0.0,0.0
564,140.75,33.0461,36.8581,147.649,98.8813,94.3023,0.0013684,0.0546314,21.0187,-360.52,0.417824,0.0,0.0
566,141.25,33.3236,37.0718,149.947,98.8869,94.3146,0.00135296,0.0546259,21.0187,-360.53,0.417177,0.0,0.0
568,141.75,33.2454,37.0685,151.328,98.8941,94.2785,0.00132825,0.0545999,21.0187,-360.53,0.421191,0.0,0.0
570,142.25,33.2244,36.7861,149.555,98.8937,94.2175,0.00129725,0.0545594,21.0187,-360.52,0.426866,0.0,0.0
572,142.75,33.2725,36.7593,147.739,98.9046,94.2018,0.0012593,0.0545265,21.0187,-360.52,0.4293,0.0,0.0
574,143.25,33.1755,36.5298,149.305,98.9026,94.2544,0.001217,0.0545273,21.0187,-360.53,0.424203,0.0,0.0
576,143.75,33.1513,36.2021,149.718,98.907,94.2709,0.00118273,0.0545279,21.0187,-360.53,0.423051,0.0,0.0
578,144.25,32.4044,36.1643,149.005,98.9267,94.1852,0.00114279,0.0545421,21.0187,-360.53,0.432818,0.0,0.0
580,144.75,32.799,35.8961,150.954,98.9219,94.2259,0.00109945,0.0545536,21.0187,-360.52,0.42858,0.0,0.0
582,145.25,32.8135,36.063,153.023,98.9243,94.1161,0.00106436,0.0545629,21.0187,-360.54,0.439074,0.0,0.0
584,145.75,33.1111,36.3104,153.418,98.9367,94.0979,0.00102618,0.0545705,21.0187,-360.54,0.441892,0.0,0.0
586,146.25,31.9976,35.7739,148.826,98.9255,94.2302,0.000998459,0.0545766,21.0187,-360.54,0.428505,0.0,0.0
588,146.75,32.3159,35.2334,145.976,98.9359,94.3142,0.000978893,0.0544857,21.0187,-360.54,0.421586,0.0,0.0
590,147.25,32.2664,35.136,150.094,98.9387,94.3515,0.000963045,0.0544121,21.0187,-360.55,0.418349,0.0,0.0
592,147.75,32.1385,35.3328,146.673,98.9608,94.1992,0.000962398,0.0543669,21.0187,-360.54,0.434552,0.0,0.0
594,148.25,31.9929,35.0544,150.809,98.9468,94.3519,0.000961874,0.0543433,21.0182,-360.54,0.419026,0.0,0.0
596,148.75,31.8336,34.8447,150.278,98.9556,94.1954,0.000972424,0.0543097,21.0179,-360.55,0.434443,0.0,0.0
598,149.25,31.7353,35.1191,149.616,98.9629,94.2722,0.000980969,0.0542696,21.0176,-360.53,0.427908,0.0,0.0
600,149.75,31.5234,34.9497,148.845,98.9641,94.2777,0.000980574,0.054237,21.0173,-360.54,0.4275,0.0,0.0
602,150.25,31.6177,34.5685,148.54,98.983,94.3087,0.000980254,0.0542107,21.0171,-360.53,0.426289,0.0,0.0
604,150.75,31.6961,34.5895,150.687,98.9862,94.2064,0.000979996,0.0541893,21.017,-360.54,0.436131,0.0,0.0
606,151.25,31.7172,34.8274,152.962,98.9882,94.181,0.000959063,0.0541721,21.0169,-360.55,0.43869,0.0,0.0
608,151.75,31.3531,34.3775,152.688,98.9898,94.206,0.000942108,0.0541581,21.0168,-360.54,0.436492,0.0,0.0
610,152.25,31.6885,34.1913,150.83,98.9922,94.3006,0.00093094,0.054133,21.0167,-360.54,0.427864,0.0,0.0
612,152.75,30.8175,34.1277,151.02,99.0155,94.2175,0.000924203,0.0541128,21.0166,-360.55,0.437711,0.0,0.0
614,153.25,31.4208,33.7117,149.416,98.9914,94.4041,0.000922836,0.0540963,21.0172,-360.54,0.418127,0.0,0.0
616,153.75,30.9961,33.6306,146.106,99.0163,94.2989,0.000926516,0.0540967,21.0173,-360.55,0.43017,0.0,0.0
618,154.25,31.0371,33.7763,149.929,99.0006,94.2141,0.00093281,0.054097,21.0176,-360.55,0.436705,0.0,0.0
620,154.75,30.8675,34.2958,143.339,99.0239,94.1356,0.000936688,0.054111,21.0178,-360.54,0.446122,0.0,0.0
622,155.25,30.8163,33.5007,149.718,99.0268,94.3905,0.00093983,0.0541223,21.0179,-360.55,0.422542,0.0,0.0
624,155.75,30.9098,33.9046,150.091,99.0344,94.237,0.000937498,0.0541602,21.0181,-360.55,0.437568,0.0,0.0
626,156.25,31.0076,33.292,149.82,99.0372,94.3744,0.000935609,0.0542411,21.0182,-360.54,0.424978,0.0,0.0
628,156.75,30.7648,33.7623,149.186,99.0457,94.4151,0.000931642,0.0542844,21.0183,-360.54,0.421927,0.0,0.0
630,157.25,30.5063,33.4446,152.973,99.0441,94.3888,0.000928428,0.0543586,21.0184,-360.53,0.424239,0.0,0.0
632,157.75,30.5635,33.1694,149.229,99.0517,94.223,0.000925825,0.0544187,21.018,-360.52,0.440415,0.0,0.0
634,158.25,30.6711,33.1701,150.18,99.0505,94.4953,0.000938346,0.0543989,21.0177,-360.52,0.414878,0.0,0.0
636,158.75,29.6654,33.3767,148.076,99.0734,94.335,0.000948488,0.0543828,21.0174,-360.53,0.431879,0.0,0.0
638,159.25,30.5468,33.5171,151.708,99.0633,94.3341,0.000971339,0.0543562,21.0172,-360.53,0.431064,0.0,0.0
640,159.75,30.1659,33.2311,150.544,99.0714,94.3137,0.000989849,0.0543345,21.017,-360.54,0.433683,0.0,0.0
642,160.25,30.2187,33.178,150.753,99.0674,94.4007,0.00100484,0.0543387,21.0169,-360.56,0.425204,0.0,0.0
644,160.75,30.517,32.804,148.009,99.083,94.3108,0.00103651,0.0543614,21.0168,-360.56,0.434997,0.0,0.0
646,161.25,29.7366,32.4069,150.184,99.0754,94.3833,0.00106216,0.0543799,21.0167,-360.55,0.427542,0.0,0.0
648,161.75,29.8084,32.0662,147.446,99.0927,94.5169,0.00108807,0.0544359,21.0166,-360.53,0.416614,0.0,0.0
650,162.25,30.0302,32.1158,150.574,99.0915,94.6022,0.00111369,0.0544813,21.0166,-360.54,0.408561,0.0,0.0
652,162.75,29.7361,32.5489,147.855,99.1152,94.606,0.00113766,0.0545317,21.0165,-360.53,0.410315,0.0,0.0
654,163.25,29.4588,32.1659,152.059,99.1027,94.4465,0.00115996,0.0545726,21.0165,-360.55,0.424075,0.0,0.0
656,163.75,29.6327,32.6115,150.007,99.1204,94.2938,0.00117802,0.0546057,21.0165,-360.54,0.439906,0.0,0.0
658,164.25,29.2566,31.7901,147.942,99.116,94.3935,0.00120365,0.0546462,21.0164,-360.52,0.430203,0.0,0.0
660,164.75,29.3863,32.2688,152.237,99.1273,94.3668,0.0012244,0.054679,21.0164,-360.51,0.433698,0.0,0.0
662,165.25,29.9896,32.4892,147.513,99.1461,94.343,0.00124122,0.0547192,21.0164,-360.52,0.437595,0.0,0.0
664,165.75,29.5012,32.3334,149.618,99.151,94.4736,0.00126461,0.0547518,21.0159,-360.52,0.425831,0.0,0.0
666,166.25,29.2659,31.6255,150.454,99.1518,94.6208,0.00128355,0.0547927,21.0156,-360.52,0.412184,0.0,0.0
668,166.75,29.2306,31.6923,152.01,99.1658,94.5712,0.00130012,0.0548387,21.0153,-360.52,0.418058,0.0,0.0
670,167.25,29.6693,32.0286,144.706,99.1638,94.5716,0.00131354,0.054876,21.015,-360.52,0.417838,0.0,0.0
672,167.75,29.8757,31.6509,151.95,99.1847,94.5233,0.00132075,0.0549199,21.0148,-360.52,0.424203,0.0,0.0
674,168.25,29.4712,31.179,149.122,99.1912,94.4847,0.00131565,0.0549555,21.0147,-360.53,0.428374,0.0,0.0
676,168.75,29.2515,31.3319,150.477,99.2016,94.4406,0.0013017,0.0549843,21.0146,-360.54,0.433416,0.0,0.0
678,169.25,29.0196,31.4149,146.615,99.2044,94.5814,0.0012724,0.0550213,21.0144,-360.53,0.420537,0.0,0.0
680,169.75,28.7432,31.4168,148.48,99.2145,94.4792,0.00123249,0.0550513,21.0144,-360.54,0.430959,0.0,0.0
682,170.25,29.1202,30.9308,150.727,99.2293,94.5508,0.00120016,0.0550893,21.0143,-360.54,0.425596,0.0,0.0
684,170.75,29.0665,31.2992,149.246,99.2354,94.5156,0.00112521,0.05512,21.0142,-360.54,0.429413,0.0,0.0
686,171.25,29.2256,31.5749,147.908,99.2358,94.4923,0.0010645,0.0551723,21.0142,-360.54,0.431624,0.0,0.0
688,171.75,28.8387,31.0106,150.157,99.2603,94.5474,0.00101533,0.0552147,21.0142,-360.55,0.428661,0.0,0.0
690,172.25,28.2808,30.3659,149.75,99.2587,94.7112,0.000929238,0.055249,21.0141,-360.53,0.413272,0.0,0.0
692,172.75,27.9433,30.9304,148.923,99.2719,94.5402,0.000859503,0.0552768,21.0141,-360.54,0.430367,0.0,0.0
694,173.25,28.7652,31.3335,150.429,99.2591,94.4635,0.000823706,0.055313,21.0143,-360.55,0.436384,0.0,0.0
696,173.75,28.4186,30.4441,148.541,99.2724,94.5801,0.000794711,0.0553424,21.0147,-360.54,0.426687,0.0,0.0
698,174.25,28.707,30.9975,150.225,99.286,94.5186,0.000791098,0.0553387,21.015,-360.53,0.433633,0.0,0.0
700,174.75,28.3026,30.9772,152.852,99.2892,94.589,0.000806056,0.0553358,21.0153,-360.54,0.427357,0.0,0.0
702,175.25,28.6266,30.3753,148.603,99.3045,94.6577,0.000829079,0.0553334,21.0155,-360.53,0.422313,0.0,0.0
704,175.75,28.8036,30.8014,148.123,99.3069,94.6145,0.000857543,0.0553171,21.0156,-360.55,0.426555,0.0,0.0
706,176.25,28.4426,30.8179,148.596,99.3117,94.6068,0.000885734,0.0552909,21.0158,-360.56,0.427694,0.0,0.0
708,176.75,28.6497,30.6025,148.997,99.3194,94.8113,0.00091319,0.0552552,21.0159,-360.56,0.40935,0.0,0.0
710,177.25,28.3421,30.7209,151.335,99.3033,94.7845,0.000936071,0.0552134,21.016,-360.56,0.410408,0.0,0.0
712,177.75,28.6727,30.6031,148.171,99.3302,94.6229,0.000955183,0.0551651,21.016,-360.56,0.427833,0.0,0.0
714,178.25,28.5966,30.0928,146.392,99.3427,94.7082,0.000970663,0.055113,21.0161,-360.56,0.421003,0.0,0.0
716,178.75,28.6148,30.2193,146.281,99.3479,94.5364,,0.0550708,,-360.57,0.437464,0.0,0.0
718,179.25,28.1959,30.8904,152.742,99.3483,94.4291,,0.0549955,,-360.57,0.447507,0.0,0.0
720,179.75,28.2917,30.5772,148.173,99.356,94.7167,,0.0549202,,-360.56,0.42139,0.0,0.0
722,180.25,28.5204,30.1447,148.813,99.366,94.7337,,0.0548461,,-360.55,0.420703,0.0,0.0
724,180.75,28.3563,29.8726,148.965,99.3716,94.5699,,0.0547862,,-360.56,0.436444,0.0,0.0
726,181.25,28.4441,30.1767,150.225,99.3825,94.5241,,0.0547239,,-360.53,0.441676,0.0,0.0
728,181.75,27.9174,29.6717,150.238,99.3825,94.6119,,,,-360.52,0.433495,0.0,0.0
730,182.25,28.1204,30.334,150.408,99.3881,94.5687,,,,-360.51,0.438025,0.0,0.0
732,182.75,28.3854,30.0111,149.972,99.3982,94.6827,,,,-360.54,0.428291,0.0,0.0
734,183.25,27.2881,29.4328,152.201,99.4138,94.5924,,,,-360.54,0.438093,0.0,0.0
736,183.75,28.0141,30.1801,145.31,99.4138,94.6857,,,,-360.54,0.429403,0.0,0.0
738,184.25,27.1142,29.4833,149.785,99.4247,94.5653,,,,-360.53,0.441583,0.0,0.0
740,184.75,28.0022,29.3175,147.301,99.4263,94.6425,,,,-360.52,0.434536,0.0,0.0
742,185.25,28.0751,29.446,148.106,99.4452,94.757,,,,-360.52,0.425553,0.0,0.0
744,185.75,27.8947,29.4312,150.877,99.448,94.6365,,,,-360.54,0.437011,0.0,0.0
746,186.25,26.9932,29.5404,150.115,99.4685,94.7489,,,,-360.52,0.428368,0.0,0.0
748,186.75,27.9776,29.2643,148.274,99.4601,94.8783,,,,-360.5,0.415597,0.0,0.0
750,187.25,27.3781,29.0099,148.535,99.4802,94.6751,,,,-360.51,0.436267,0.0,0.0
752,187.75,27.4211,28.8406,150.624,99.4918,94.6242,,,,-360.51,0.442038,0.0,0.0
754,188.25,28.1308,29.5317,148.646,99.5123,94.6874,,,,-360.49,0.437971,0.0,0.0
756,188.75,27.4132,28.9231,146.405,99.4986,94.7642,,,,-360.5,0.429618,0.0,0.0
758,189.25,27.6678,29.6316,153.263,99.5047,94.9466,,,,-360.5,0.41321,0.0,0.0