File: 01_Data/Rebond_Foam_Carpet_Pad/Cone/Rebond_Foam_Carpet_Pad_Cone_HF25Scan_220413_R3.csv
Names,Time,Stack TC,Smoke TC,Exh Press,Smoke Comp,Smoke Meas,CO Meter,CO2 Meter,O2 Meter,Sample Mass,Ext Coeff,Start Test,Flame Verif
Chan Gain,,500,500,1,1,1,1,1,1,1,1,1.0,1.0
Offset,,0,0,0.132909,0,0,0,0,0,0,0,0.0,0.0
Gain,,1,1,25.011,13.171,13.8983,1,1,1,1.00092,1.00459,1.0,1.0
Units,sec,C,C,Pa,%,%,%,%,%,g,/m,,
Baseline,,22.8887,23.0155,151.54,100.1,95.2568,0.000619318,0.053875,21.02,-833.968,0.437069,,
2,0.25,23.0956,23.3321,152.044,100.253,95.428,0.000555919,0.0578777,21.012,-353.564,0.43464,0.0,0.0
4,0.75,21.5932,21.522,149.512,100.254,95.3686,0.000600941,0.0578855,21.0126,-353.604,0.440266,0.0,0.0
6,1.25,21.6047,21.8231,149.838,100.261,95.2307,0.000637409,0.0578847,21.0137,-353.594,0.453613,0.0,0.0
8,1.75,21.2972,21.7415,152.328,100.268,95.0102,0.000671437,0.0578775,21.0147,-353.584,0.474682,0.0,0.0
10,2.25,21.1238,21.9897,149.367,100.264,94.8371,0.000703038,0.0578717,21.0149,-353.574,0.490323,0.0,0.0
12,2.75,21.4898,21.3852,154.804,100.286,94.6895,0.000730559,0.057867,21.0152,-353.604,0.506062,0.0,0.0
14,3.25,21.1317,21.5882,151.637,100.28,94.2128,0.000754583,0.0577673,21.0154,-353.614,0.549976,0.0,0.0
16,3.75,21.16,20.9021,153.862,100.283,93.6962,0.000774043,0.0576865,21.0155,-353.624,0.598713,0.0,0.0
18,4.25,21.4863,21.0889,149.945,100.29,93.7212,0.000810525,0.0576066,21.0154,-353.614,0.59696,0.0,0.0
20,4.75,21.687,21.3185,150.238,100.299,92.9276,0.000840076,0.0575289,21.0151,-353.604,0.672671,0.0,0.0
22,5.25,21.2066,21.4477,149.233,100.302,93.3119,0.000913487,0.0579641,21.0149,-353.614,0.636553,0.0,0.0
24,5.75,21.6773,21.6879,152.407,100.305,92.3351,0.00101748,0.0587649,21.0125,-353.624,0.729569,0.0,0.0
26,6.25,21.1499,21.1681,152.545,100.302,92.9382,0.00110171,0.0594136,21.0105,-353.634,0.671949,0.0,0.0
28,6.75,21.4986,21.5395,149.368,100.32,92.6549,0.001312,0.0643675,21.0038,-353.734,0.700443,0.0,0.0
30,7.25,21.8094,21.5153,152.619,100.312,92.235,0.00148234,0.0683802,20.9938,-353.714,0.739763,0.0,0.0
32,7.75,21.4204,21.895,145.768,100.313,92.1048,0.00180238,0.0772814,20.977,-353.804,0.752319,0.0,1.0
34,8.25,21.8258,21.891,142.642,100.323,89.1133,0.0020616,0.0895773,20.9557,-353.744,1.04413,0.0,1.0
36,8.75,21.4284,21.5467,143.079,100.331,87.53,0.00248551,0.099537,20.9289,-353.724,1.20278,0.0,1.0
38,9.25,21.613,21.525,144.684,100.337,88.1238,0.00282888,0.118752,20.8985,-353.834,1.14373,0.0,1.0
40,9.75,21.7678,21.4797,139.601,100.355,86.3365,0.0032524,0.134317,20.874,-353.864,1.32592,0.0,1.0
42,10.25,21.8414,21.8763,141.739,100.34,86.8064,0.00372631,0.15595,20.8426,-353.944,1.27671,0.0,1.0
44,10.75,22.2409,22.1334,142.735,100.356,85.576,0.00423946,0.173473,20.8171,-353.974,1.40392,0.0,1.0
46,11.25,22.5507,22.322,135.554,100.352,84.7158,0.00477147,0.194697,20.7874,-354.004,1.49263,0.0,1.0
48,11.75,22.6708,22.7254,137.608,100.368,84.027,0.0052024,0.211888,20.7633,-354.064,1.56598,0.0,1.0
50,12.25,23.0395,22.8002,140.061,100.367,81.656,0.00569755,0.229305,20.7438,-354.074,1.81811,0.0,1.0
52,12.75,22.926,22.4566,139.116,100.379,81.9067,0.00623012,0.246555,20.7195,-354.144,1.79215,0.0,1.0
54,13.25,23.0113,22.8887,132.429,100.366,80.5897,0.00666149,0.260527,20.6999,-354.154,1.93387,0.0,0.0
56,13.75,22.9997,22.5425,136.744,100.387,82.9594,0.00720895,0.277464,20.6798,-354.234,1.68036,0.0,0.0
58,14.25,23.2394,23.0532,136.973,100.38,82.9297,0.0076524,0.291183,20.6598,-354.274,1.68287,0.0,0.0
60,14.75,24.0017,23.7945,133.904,100.391,82.2906,0.00814672,0.306953,20.6405,-354.304,1.75201,0.0,0.0
62,15.25,24.1396,23.9173,134.181,100.383,81.6908,0.00854713,0.319727,20.6222,-354.354,1.81576,0.0,0.0
64,15.75,24.7068,24.403,133.046,100.403,80.3416,0.00897376,0.330074,20.6048,-354.374,1.96425,0.0,0.0
66,16.25,25.0873,24.572,141.89,100.398,79.4925,0.00931932,0.342151,20.5884,-354.444,2.05749,0.0,0.0
68,16.75,25.0241,24.9879,131.921,100.428,79.0174,0.00968511,0.351933,20.5737,-354.504,2.11292,0.0,0.0
70,17.25,26.2361,25.4539,134.134,100.403,79.2495,0.0099814,0.361672,20.5605,-354.534,2.08487,0.0,0.0
72,17.75,25.9259,25.5364,134.031,100.424,77.7552,0.0103023,0.369561,20.5487,-354.615,2.25444,0.0,0.0
74,18.25,26.3456,25.4006,133.971,100.425,78.7426,0.0105623,0.377508,20.5381,-354.624,2.14338,0.0,0.0
76,18.75,26.1273,25.7182,136.241,100.433,79.7219,0.0107728,0.383945,20.5295,-354.685,2.03516,0.0,0.0
78,19.25,26.9164,26.7685,134.225,100.427,78.0903,0.0110386,0.390348,20.5216,-354.715,2.21683,0.0,0.0
80,19.75,27.2941,26.9729,137.283,100.438,77.9168,0.0112539,0.395535,20.5144,-354.805,2.23738,0.0,0.0
82,20.25,27.3437,26.5414,136.751,100.435,78.0406,0.0115032,0.400419,20.508,-354.855,2.22314,0.0,0.0
84,20.75,27.5136,27.4488,138.911,100.465,79.1069,0.0117051,0.404375,20.5025,-354.905,2.10616,0.0,0.0
86,21.25,28.4031,28.0882,132.17,100.434,79.1481,0.0119255,0.407822,20.4977,-354.935,2.0989,0.0,0.0
88,21.75,28.5142,28.5623,135.625,100.455,78.257,0.012104,0.410833,20.4935,-354.965,2.20055,0.0,0.0
90,22.25,28.7562,28.7066,134.368,100.452,77.222,0.012325,0.413271,20.4901,-355.035,2.31754,0.0,0.0
92,22.75,28.3737,28.3587,131.769,100.463,78.6701,0.012504,0.41596,20.486,-355.075,2.15482,0.0,0.0
94,23.25,29.3561,28.9844,137.273,100.465,78.9356,0.0126489,0.418779,20.4813,-355.145,2.1253,0.0,0.0
96,23.75,29.8011,29.7093,130.041,100.472,75.9479,0.0128709,0.422242,20.4776,-355.185,2.46595,0.0,0.0
98,24.25,29.842,29.7352,134.675,100.489,78.606,0.0131449,0.426109,20.4711,-355.265,2.16432,0.0,0.0
100,24.75,30.0437,29.9174,132.361,100.484,76.5371,0.0134299,0.430735,20.4658,-355.345,2.39888,0.0,0.0
102,25.25,30.53,30.5436,138.643,100.482,78.2981,0.0137176,0.435827,20.4566,-355.365,2.19824,0.0,0.0
104,25.75,30.4614,30.6959,130.541,100.495,78.1441,0.0139506,0.439951,20.4492,-355.425,2.21678,0.0,0.0
106,26.25,30.858,31.2802,130.85,100.499,74.8218,0.0142075,0.445978,20.4431,-355.465,2.59992,0.0,0.0
108,26.75,31.3248,31.5907,134.783,100.505,77.3879,0.0144769,0.453278,20.4316,-355.545,2.30329,0.0,0.0
110,27.25,31.7311,31.7056,132.462,100.501,79.6269,0.0147255,0.459191,20.4223,-355.595,2.05159,0.0,0.0
112,27.75,31.8547,31.9207,128.543,100.509,77.8672,0.0149541,0.468146,20.4063,-355.695,2.24927,0.0,0.0
114,28.25,32.4331,32.5531,134.31,100.509,79.0641,0.0151622,0.4754,20.3934,-355.706,2.11481,0.0,0.0
116,28.75,32.4072,33.1362,130.279,100.521,80.9206,0.0153512,0.486771,20.374,-355.776,1.91134,0.0,0.0
118,29.25,33.3095,33.4729,126.097,100.522,80.6924,0.0155188,0.495982,20.3584,-355.876,1.9363,0.0,0.0
120,29.75,33.3538,33.754,126.051,100.527,78.3456,0.0156676,0.507703,20.3293,-355.956,2.19688,0.0,0.0
122,30.25,33.6684,34.0999,123.543,100.526,81.1738,0.0157881,0.521031,20.3057,-355.986,1.88423,0.0,0.0
124,30.75,33.928,34.5361,122.106,100.545,79.9819,0.0159108,0.531827,20.2794,-356.056,2.01623,0.0,0.0
126,31.25,34.4826,34.8824,129.039,100.543,82.6757,0.0160101,0.548855,20.2516,-356.136,1.72419,0.0,0.0
128,31.75,34.8764,35.27,122.49,100.552,82.9654,0.0161116,0.562648,20.2291,-356.186,1.69418,0.0,0.0
130,32.25,35.5223,35.8274,118.447,100.558,80.2055,0.0161938,0.582518,20.1967,-356.276,1.9928,0.0,0.0
132,32.75,36.2081,36.6536,114.786,100.564,81.0029,0.0162604,0.598612,20.1704,-356.346,1.90619,0.0,0.0
134,33.25,36.7346,37.2307,115.273,100.563,78.5835,0.0163275,0.623167,20.1491,-356.436,2.17329,0.0,0.0
136,33.75,37.1705,37.7469,122.299,100.557,79.5154,0.0163937,0.643056,20.1173,-356.516,2.06892,0.0,0.0
138,34.25,37.9774,38.3729,117.179,100.565,79.1044,0.0164473,0.664729,20.0915,-356.616,2.11522,0.0,0.0
140,34.75,38.5465,39.0999,118.875,100.571,81.5004,0.0164973,0.687291,20.0511,-356.686,1.85286,0.0,0.0
142,35.25,39.239,39.5417,117.302,100.573,82.3627,0.0165378,0.705566,20.0184,-356.756,1.76026,0.0,0.0
144,35.75,39.8893,40.311,105.92,100.58,81.7833,0.0165561,0.73184,19.9842,-356.847,1.82307,0.0,0.0
146,36.25,40.6851,41.1452,111.778,100.581,80.8612,0.016571,0.753122,19.9496,-356.927,1.92306,0.0,0.0
148,36.75,41.2611,42.0377,112.475,100.593,79.5358,0.0165383,0.777612,19.9092,-357.017,2.06976,0.0,0.0
150,37.25,42.0103,42.5114,109.528,100.586,80.4935,0.0165118,0.803975,19.8653,-357.117,1.96365,0.0,0.0
152,37.75,42.6247,43.4183,118.284,100.591,80.4693,0.0164168,0.82533,19.8184,-357.197,1.96675,0.0,0.0
154,38.25,43.6997,44.2107,114.887,100.6,81.7375,0.0163399,0.855632,19.7701,-357.337,1.8298,0.0,0.0
156,38.75,44.4307,45.0393,106.981,100.601,83.1092,0.0161923,0.880177,19.723,-357.437,1.68318,0.0,0.0
158,39.25,45.2956,46.221,104.488,100.604,82.3644,0.0160728,0.911255,19.6778,-357.487,1.76279,0.0,0.0
160,39.75,46.4949,46.8609,102.444,100.611,84.5071,0.0159141,0.936427,19.6411,-357.597,1.5371,0.0,0.0
162,40.25,47.2008,48.0449,107.447,100.604,84.8257,0.0157298,0.96599,19.599,-357.717,1.50328,0.0,0.0
164,40.75,48.1463,49.2489,100.342,100.613,83.9176,0.0155805,0.989936,19.5649,-357.847,1.59897,0.0,0.0
166,41.25,48.9365,50.0546,110.735,100.614,85.987,0.0153579,1.0171,19.5322,-357.9375,1.38437,0.0,0.0
168,41.75,50.0309,51.4469,99.6477,100.612,85.8733,0.0151775,1.0391,19.5011,-357.998,1.39588,0.0,0.0
170,42.25,50.7338,52.4028,115.154,100.619,88.0793,0.0149547,1.06085,19.4758,-358.108,1.17297,0.0,0.0
172,42.75,51.8606,53.6569,105.022,100.617,87.6611,0.0147742,1.082,19.447,-358.218,1.21473,0.0,0.0
174,43.25,53.0359,54.7057,103.137,100.629,86.4692,0.014591,1.09914,19.4178,-358.338,1.33635,0.0,0.0
176,43.75,53.9489,55.4468,102.385,100.627,87.2174,0.0144095,1.12035,19.3889,-358.398,1.26025,0.0,0.0
178,44.25,54.6591,56.6734,101.598,100.627,87.9872,0.0142365,1.13753,19.3655,-358.528,1.18288,0.0,0.0
180,44.75,55.8203,57.8733,101.227,100.629,87.1712,0.014073,1.15405,19.339,-358.628,1.26517,0.0,0.0
182,45.25,57.0624,59.073,100.224,100.651,88.9428,0.0139406,1.16975,19.3175,-358.738,1.08974,0.0,0.0
184,45.75,57.7371,60.2382,105.278,100.638,89.6494,0.0137854,1.18435,19.3002,-358.838,1.01888,0.0,0.0
186,46.25,58.6595,61.2213,101.638,100.641,89.5031,0.0136597,1.19787,19.2861,-358.938,1.03352,0.0,0.0
188,46.75,60.0809,62.6473,95.8077,100.639,89.0908,0.0135579,1.2091,19.2747,-359.069,1.0741,0.0,0.0
190,47.25,60.9558,63.7096,105.048,100.651,90.6491,0.0134502,1.21845,19.2655,-359.149,0.922279,0.0,0.0
192,47.75,61.7204,64.8201,101.217,100.645,88.2468,0.0133404,1.22603,19.2592,-359.269,1.15847,0.0,0.0
194,48.25,62.5587,65.4355,107.133,100.654,87.3811,0.0132384,1.22911,19.2542,-359.289,1.24612,0.0,0.0
196,48.75,64.2053,67.0356,102.486,100.652,87.3676,0.0131442,1.23161,19.2554,-359.399,1.24731,0.0,0.0
198,49.25,65.2815,68.3342,99.647,100.668,87.6233,0.0130489,1.23363,19.2564,-359.479,1.22293,0.0,0.0
200,49.75,65.7679,68.9509,106.354,100.659,88.6777,0.0129545,1.22944,19.2688,-359.579,1.11681,0.0,0.0
202,50.25,66.4024,70.1657,109.494,100.67,87.8812,0.0128577,1.22082,19.2788,-359.649,1.19721,0.0,0.0
204,50.75,67.4671,71.2695,108.899,100.668,89.0467,0.012761,1.20632,19.321,-359.789,1.08092,0.0,0.0
206,51.25,67.9082,71.8115,107.465,100.674,88.1463,0.0126826,1.18782,19.3552,-359.839,1.17102,0.0,0.0
208,51.75,68.6127,72.8794,111.103,100.657,89.0315,0.0125954,1.17283,19.3955,-359.929,1.08152,0.0,0.0
210,52.25,69.649,73.5795,119.672,100.675,87.0287,0.0125034,1.14597,19.4394,-359.979,1.28357,0.0,0.0
212,52.75,70.101,74.1794,112.091,100.682,87.6394,0.012418,1.12422,19.475,-360.029,1.22261,0.0,0.0
214,53.25,70.7931,75.3949,115.65,100.688,86.518,0.012339,1.08987,19.5265,-360.069,1.33659,0.0,0.0
216,53.75,70.7007,75.4138,118.988,100.681,86.1405,0.0122751,1.06204,19.5682,-360.17,1.37449,0.0,0.0
218,54.25,71.3449,75.6048,123.332,100.689,85.4559,0.0122414,1.03044,19.6136,-360.27,1.44554,0.0,0.0
220,54.75,71.8898,76.5515,118.138,100.686,84.9555,0.012214,0.996682,19.6609,-360.27,1.49702,0.0,0.0
222,55.25,71.4651,76.2222,129.946,100.709,86.009,0.0122163,0.961214,19.6992,-360.34,1.39041,0.0,0.0
224,55.75,71.6917,77.355,125.314,100.684,84.1063,0.0122401,0.925174,19.7546,-360.36,1.58537,0.0,0.0
226,56.25,72.9496,77.7726,124.991,100.698,81.254,0.0122622,0.895982,19.7994,-360.46,1.8906,0.0,0.0
228,56.75,72.3404,77.3379,130.142,100.696,81.3748,0.0122824,0.855804,19.8566,-360.46,1.8774,0.0,0.0
230,57.25,73.1977,78.0031,123.421,100.711,77.5372,0.0122554,0.82326,19.9029,-360.47,2.30433,0.0,0.0
232,57.75,72.7503,77.5132,128.405,100.701,77.3472,0.0121945,0.788807,19.9666,-360.54,2.32511,0.0,0.0
234,58.25,72.3386,78.2409,131.827,100.707,80.3047,0.0120519,0.753618,20.0182,-360.58,1.99493,0.0,0.0
236,58.75,72.7999,77.6757,131.431,100.702,80.4697,0.0118524,0.717264,20.0838,-360.62,1.97642,0.0,0.0
238,59.25,72.02,78.044,131.937,100.713,79.6825,0.0115744,0.680752,20.1371,-360.66,2.06404,0.0,0.0
240,59.75,72.2755,77.7584,138.923,100.71,80.7675,0.0112445,0.651177,20.2005,-360.67,1.94458,0.0,0.0
242,60.25,71.6483,77.5741,136.456,100.718,81.7298,0.0109773,0.613424,20.252,-360.67,1.84094,0.0,0.0
244,60.75,71.3518,77.9097,135.841,100.721,84.0177,0.0105785,0.582844,20.2936,-360.7,1.59786,0.0,0.0
246,61.25,70.8683,77.0347,135.411,100.713,87.2899,0.0100915,0.545254,20.3478,-360.69,1.26049,0.0,0.0
248,61.75,70.8288,77.1345,140.356,100.717,87.1623,0.00958222,0.514807,20.3916,-360.69,1.27378,0.0,0.0
250,62.25,71.3227,76.7074,143.822,100.722,89.5404,0.0090665,0.479392,20.4431,-360.72,1.03699,0.0,0.0
252,62.75,70.341,76.5514,138.224,100.725,90.5524,0.00864877,0.450706,20.4847,-360.71,0.938227,0.0,0.0
254,63.25,70.664,76.5605,144.561,100.718,92.6303,0.00817748,0.416081,20.5255,-360.72,0.737669,0.0,0.0
256,63.75,69.4626,75.3433,142.438,100.716,93.6856,0.00779574,0.388035,20.5648,-360.72,0.637633,0.0,0.0
258,64.25,69.6194,75.6526,146.165,100.723,94.9156,0.00739899,0.36027,20.6046,-360.72,0.523357,0.0,0.0
260,64.75,69.1014,74.5292,142.723,100.727,95.092,0.00707763,0.333238,20.644,-360.71,0.507343,0.0,0.0
262,65.25,68.5937,74.4294,146.132,100.734,95.7058,0.00674122,0.311342,20.6758,-360.7,0.451213,0.0,0.0
264,65.75,67.7136,74.1597,143.886,100.732,96.1134,0.00646872,0.286954,20.7114,-360.7,0.413586,0.0,0.0
266,66.25,67.5666,73.2856,146.46,100.734,95.8275,0.0061683,0.2672,20.7432,-360.71,0.440047,0.0,0.0
268,66.75,67.3151,72.6148,145.234,100.716,96.0502,0.00592497,0.246894,20.7718,-360.71,0.417976,0.0,0.0
270,67.25,66.7721,72.8317,144.969,100.726,96.0769,0.00572787,0.230446,20.7949,-360.73,0.416439,0.0,0.0
272,67.75,66.4804,71.6914,148.813,100.723,96.2232,0.00545891,0.213983,20.8155,-360.71,0.402712,0.0,0.0
274,68.25,65.4057,71.248,148.293,100.735,96.2538,0.00524105,0.200648,20.8338,-360.71,0.401005,0.0,0.0
276,68.75,65.5606,70.5861,144.75,100.725,96.2101,0.00499272,0.188298,20.8487,-360.73,0.404091,0.0,0.0
278,69.25,64.8348,70.4242,148.452,100.727,96.2673,0.00479157,0.176901,20.8607,-360.72,0.399095,0.0,0.0
280,69.75,63.8787,70.9126,153.238,100.72,95.9827,0.00462864,0.167669,20.8749,-360.72,0.424517,0.0,0.0
282,70.25,64.2917,69.6221,148.278,100.733,96.0188,0.00445696,0.157807,20.8864,-360.74,0.422368,0.0,0.0
284,70.75,62.8954,69.8763,146.018,100.719,96.1257,0.00428217,0.149819,20.8951,-360.73,0.411298,0.0,0.0
286,71.25,62.4559,69.1542,150.121,100.718,95.9467,0.00411959,0.142285,20.904,-360.73,0.427687,0.0,0.0
288,71.75,62.4992,68.0796,152.381,100.699,96.0336,0.0039879,0.135226,20.9129,-360.73,0.418052,0.0,0.0
290,72.25,61.73,67.9043,148.174,100.715,96.1193,0.00387084,0.129508,20.9201,-360.73,0.411565,0.0,0.0
292,72.75,62.2173,66.8326,150.261,100.709,96.0141,0.00376666,0.123731,20.9278,-360.73,0.420686,0.0,0.0
294,73.25,60.8782,67.0583,147.468,100.707,96.0086,0.00367384,0.11802,20.9339,-360.74,0.421017,0.0,0.0
296,73.75,60.5787,66.8008,147.062,100.705,95.8373,0.00359105,0.112817,20.942,-360.73,0.436618,0.0,0.0
298,74.25,60.1631,66.7367,146.387,100.704,96.0332,0.003524,0.108082,20.9486,-360.73,0.418513,0.0,0.0
300,74.75,60.285,65.3262,151.254,100.698,95.9344,0.00345475,0.103765,20.9539,-360.72,0.427059,0.0,0.0
302,75.25,59.2277,65.7577,148.499,100.702,95.8827,0.00338523,0.0998348,20.9591,-360.74,0.432164,0.0,0.0
304,75.75,58.9522,64.9938,151.813,100.687,95.9289,0.00331271,0.0966514,20.9633,-360.73,0.426615,0.0,0.0
306,76.25,58.5801,64.2744,149.54,100.695,95.8419,0.00323937,0.0932149,20.968,-360.73,0.435273,0.0,0.0
308,76.75,58.2621,63.9012,147.552,100.684,95.8072,0.00317997,0.0904314,20.9718,-360.72,0.437488,0.0,0.0
310,77.25,57.9136,63.8266,146.996,100.677,95.9883,0.00310108,0.0874033,20.9754,-360.73,0.420247,0.0,0.0
312,77.75,57.2144,63.0269,148.347,100.682,95.962,0.00299504,0.0849506,20.9801,-360.73,0.423119,0.0,0.0
314,78.25,56.8325,62.1964,150.061,100.674,95.777,0.00295712,0.082601,20.9819,-360.73,0.439414,0.0,0.0
316,78.75,56.2391,62.1303,151.505,100.671,95.8347,0.00287481,0.0803713,20.9848,-360.75,0.433826,0.0,0.0
318,79.25,55.3977,61.8542,149.455,100.658,96.0591,0.00279242,0.0785652,20.9881,-360.74,0.412128,0.0,0.0
320,79.75,55.8839,60.9997,149.33,100.649,95.9302,0.00270565,0.0766478,20.9908,-360.73,0.423156,0.0,0.0
322,80.25,55.6558,60.3784,147.013,100.648,95.9721,0.00261733,0.0750947,20.9934,-360.74,0.419193,0.0,0.0
324,80.75,54.8029,60.196,154.22,100.669,95.8818,0.00254579,0.0728294,20.9955,-360.74,0.429357,0.0,0.0
326,81.25,54.1569,60.1977,147.842,100.639,95.8513,0.00246461,0.07222,20.9972,-360.74,0.429525,0.0,0.0
328,81.75,53.8437,59.5892,150.948,100.638,95.9174,0.00237793,0.0708892,20.9986,-360.73,0.423374,0.0,0.0
330,82.25,53.5763,59.3216,148.964,100.619,95.8852,0.00229805,0.0698113,20.9997,-360.73,0.424646,0.0,0.0
332,82.75,53.3012,59.3586,150.651,100.63,95.8636,0.00222464,0.0687869,21.0009,-360.74,0.42762,0.0,0.0
334,83.25,52.8277,58.332,148.221,100.621,95.8831,0.00213011,0.0679572,21.002,-360.74,0.425053,0.0,0.0
336,83.75,52.3325,57.7881,149.763,100.614,95.7936,0.00209855,0.0671912,21.0031,-360.74,0.432683,0.0,0.0
338,84.25,52.6016,57.5723,148.787,100.611,95.6812,0.00204458,0.0664861,21.0043,-360.72,0.442747,0.0,0.0
340,84.75,52.0796,57.648,148.974,100.6,95.9056,0.00196781,0.0658499,21.0053,-360.73,0.421156,0.0,0.0
342,85.25,51.5115,57.0362,149.663,100.59,95.9123,0.00190563,0.065276,21.0062,-360.74,0.419618,0.0,0.0
344,85.75,50.9916,57.2897,150.912,100.596,95.8559,0.00180758,0.0648111,21.0069,-360.72,0.425294,0.0,0.0
346,86.25,50.8624,56.4413,147.367,100.581,95.8016,0.00172816,0.0642981,21.0075,-360.72,0.428984,0.0,0.0
348,86.75,50.8888,55.8374,146.911,100.581,95.8572,0.00163812,0.0638825,21.008,-360.7,0.423945,0.0,0.0
350,87.25,50.5561,55.7246,147.545,100.58,95.7312,0.00154205,0.0635184,21.0084,-360.71,0.435392,0.0,0.0
352,87.75,49.8416,56.0319,149.055,100.565,95.9123,0.00146423,0.0632235,21.0087,-360.71,0.417434,0.0,0.0
354,88.25,49.7819,54.9776,148.428,100.559,95.7397,0.00136095,0.0629413,21.0089,-360.71,0.432815,0.0,0.0
356,88.75,49.7499,55.1463,150.354,100.563,95.9437,0.00131692,0.0626736,21.0091,-360.71,0.414409,0.0,0.0
358,89.25,49.3272,54.9799,149.555,100.547,95.8254,0.00119856,0.0624208,21.0093,-360.72,0.423805,0.0,0.0
360,89.75,49.1732,54.4549,149.851,100.558,95.8475,0.001165,0.0621834,21.0094,-360.72,0.422799,0.0,0.0
362,90.25,49.2753,53.9331,149.452,100.534,95.822,0.00111146,0.0619839,21.0095,-360.72,0.423061,0.0,0.0
364,90.75,48.7647,53.6274,150.099,100.543,95.6816,0.00107155,0.0618159,21.01,-360.72,0.436685,0.0,0.0
366,91.25,48.4553,54.033,150.542,100.527,95.7826,0.00104756,0.0616797,21.0105,-360.73,0.426019,0.0,0.0
368,91.75,48.0194,52.9539,149.877,100.529,95.6252,0.00103564,0.0616145,21.0108,-360.73,0.440685,0.0,0.0
370,92.25,47.9995,53.0034,147.571,100.507,95.8576,0.00102599,0.0614553,21.0111,-360.73,0.417354,0.0,0.0
372,92.75,47.7474,52.1764,150.623,100.525,95.6867,0.00103101,0.0614197,21.0114,-360.73,0.434703,0.0,0.0
374,93.25,47.0855,51.8945,149.1,100.515,95.6087,0.00104663,0.0613588,21.0116,-360.73,0.440976,0.0,0.0
376,93.75,46.8696,52.3774,147.533,100.513,95.7075,0.00105928,0.0612806,21.0118,-360.72,0.431731,0.0,0.0
378,94.25,46.5051,52.0335,149.616,100.496,95.7109,0.00107694,0.0611913,21.012,-360.72,0.429904,0.0,0.0
380,94.75,46.3794,51.4551,148.708,100.513,95.6082,0.00109125,0.0611189,21.0122,-360.72,0.440839,0.0,0.0
382,95.25,46.1661,51.4537,149.4,100.487,95.6133,0.00110669,0.0610459,21.0123,-360.72,0.438115,0.0,0.0
384,95.75,45.8676,50.9436,152.811,100.494,95.8033,0.00112267,0.0609737,21.0122,-360.73,0.421253,0.0,0.0
386,96.25,45.7685,50.5508,151.66,100.476,95.7308,0.00113882,0.0609152,21.0122,-360.72,0.426306,0.0,0.0
388,96.75,45.1688,50.1685,149.4,100.481,95.8606,0.0011548,0.0607985,21.0121,-360.71,0.41486,0.0,0.0
390,97.25,45.2253,49.9739,150.21,100.462,95.7813,0.00116774,0.0607039,21.0121,-360.72,0.420462,0.0,0.0
392,97.75,44.7893,49.9321,148.361,100.461,95.6748,0.00117944,0.060584,21.0121,-360.72,0.430122,0.0,0.0
394,98.25,44.1476,49.6483,147.216,100.456,95.6875,0.00118892,0.0604479,21.012,-360.74,0.428526,0.0,0.0
396,98.75,44.2343,49.5242,148.654,100.452,95.6048,0.00119294,0.0603376,21.012,-360.73,0.435864,0.0,0.0
398,99.25,43.9943,49.0184,147.091,100.454,95.5879,0.00119619,0.0601249,21.012,-360.74,0.437605,0.0,0.0
400,99.75,43.8042,48.7048,149.113,100.439,95.643,0.00119394,0.0599526,21.012,-360.72,0.431182,0.0,0.0
402,100.25,43.4227,48.4408,148.044,100.416,95.6706,0.00119212,0.0597856,21.012,-360.73,0.426632,0.0,0.0
404,100.75,43.5243,48.5113,153.748,100.43,95.5438,0.00118332,0.0596503,21.012,-360.74,0.439521,0.0,0.0
406,101.25,42.6974,47.4898,148.059,100.416,95.5841,0.0011762,0.0594859,21.012,-360.74,0.434606,0.0,0.0
408,101.75,42.708,47.7749,145.554,100.418,95.6078,0.00117042,0.0593527,21.012,-360.74,0.432593,0.0,0.0
410,102.25,42.4433,47.3999,149.665,100.404,95.6863,0.00114501,0.0592037,21.0122,-360.74,0.424129,0.0,0.0
412,102.75,42.8336,47.5799,151.697,100.408,95.8356,0.00112442,0.059083,21.0126,-360.73,0.410743,0.0,0.0
414,103.25,42.1243,47.2239,150.448,100.404,95.5344,0.00109677,0.0589578,21.0129,-360.74,0.438124,0.0,0.0
416,103.75,42.1915,46.7371,150.812,100.391,95.7397,0.00107437,0.0588564,21.0132,-360.74,0.418044,0.0,0.0
418,104.25,41.7846,46.8994,148.584,100.373,95.5166,0.00105683,0.0587743,21.0134,-360.74,0.437015,0.0,0.0
420,104.75,41.8996,46.0729,147.416,100.381,95.6735,0.00104315,0.0586666,21.0136,-360.74,0.423255,0.0,0.0
422,105.25,41.6729,46.2297,150.787,100.36,95.6545,0.00103592,0.0585794,21.0137,-360.74,0.423177,0.0,0.0
424,105.75,41.3288,45.2426,148.102,100.362,95.6142,0.00103353,0.0584128,21.014,-360.74,0.427032,0.0,0.0
426,106.25,41.5337,46.1322,148.119,100.35,95.6299,0.00103544,0.0582779,21.0142,-360.75,0.424597,0.0,0.0
428,106.75,41.0018,44.9152,151.507,100.355,95.5573,0.00104046,0.058147,21.0144,-360.75,0.431671,0.0,0.0
430,107.25,40.8988,45.2594,147.585,100.334,95.6006,0.00104452,0.0580214,21.0145,-360.76,0.425848,0.0,0.0
432,107.75,40.497,45.25,148.825,100.354,95.6405,0.00105026,0.0578913,21.0146,-360.76,0.423903,0.0,0.0
434,108.25,40.3582,44.9822,149.853,100.321,95.5739,0.0010549,0.0577603,21.0147,-360.75,0.427216,0.0,0.0
436,108.75,40.3067,44.5549,148.239,100.328,95.397,0.00105481,0.0576109,21.0148,-360.76,0.444139,0.0,0.0
438,109.25,39.871,44.9062,148.448,100.328,95.4241,0.00105127,0.0574509,21.0149,-360.75,0.441597,0.0,0.0
440,109.75,40.0259,44.5781,148.382,100.319,95.4381,0.0010407,0.0572853,21.0149,-360.75,0.439492,0.0,0.0
442,110.25,39.7061,43.9426,154.082,100.307,95.5357,0.0010252,0.0571187,21.0154,-360.75,0.4295,0.0,0.0
444,110.75,39.6182,43.6323,148.396,100.308,95.5395,0.00100367,0.0569838,21.0158,-360.75,0.429219,0.0,0.0
446,111.25,38.8983,43.73,147.712,100.295,95.5718,0.000978149,0.0568601,21.0161,-360.75,0.425081,0.0,0.0
448,111.75,39.409,43.834,149.451,100.298,95.4653,0.000951062,0.0567469,21.0164,-360.76,0.435149,0.0,0.0
450,112.25,38.2179,42.8534,150.564,100.294,95.4233,0.00092335,0.0566119,21.0166,-360.76,0.438709,0.0,0.0
452,112.75,38.9498,43.7276,149.329,100.302,95.5544,0.000897698,0.0564637,21.0168,-360.76,0.42732,0.0,0.0
454,113.25,38.5912,42.7343,147.947,100.273,95.4797,0.000874034,0.0563292,21.0169,-360.77,0.431629,0.0,0.0
456,113.75,38.7521,42.7044,149.169,100.277,95.6778,0.000854867,0.0562073,21.017,-360.76,0.413756,0.0,0.0
458,114.25,38.0095,42.1666,148.769,100.254,95.383,0.00084665,0.0561086,21.0171,-360.76,0.438898,0.0,0.0
460,114.75,37.6526,42.1782,151.322,100.251,95.5552,0.000839995,0.0559464,21.0172,-360.75,0.42272,0.0,0.0
462,115.25,38.1816,42.094,152.523,100.239,95.6354,0.000834604,0.0558151,21.0172,-360.75,0.414306,0.0,0.0
464,115.75,37.7774,42.0319,149.229,100.25,95.6362,0.000837403,0.0556676,21.0173,-360.75,0.415218,0.0,0.0
466,116.25,37.666,41.8933,150.333,100.238,95.4483,0.000843853,0.0555482,21.0172,-360.74,0.431453,0.0,0.0
468,116.75,37.1194,41.5137,146.298,100.224,95.5009,0.000854882,0.0554651,21.017,-360.74,0.425361,0.0,0.0
470,117.25,37.2149,41.6278,150.209,100.214,95.4517,0.000865034,0.0553978,21.0167,-360.75,0.429018,0.0,0.0
472,117.75,37.5415,41.4726,151.114,100.197,95.4895,0.000873257,0.0553433,21.0165,-360.75,0.42405,0.0,0.0
474,118.25,36.4428,40.3788,149.593,100.19,95.5366,0.000873824,0.0552772,21.0165,-360.75,0.41907,0.0,0.0
476,118.75,37.1372,40.551,149.132,100.173,95.6019,0.000874282,0.0551725,21.0167,-360.75,0.411597,0.0,0.0
478,119.25,36.6707,40.7785,148.002,100.183,95.3461,0.000873436,0.0551443,21.0169,-360.75,0.436087,0.0,0.0
480,119.75,36.4443,40.8087,147.802,100.17,95.3427,0.00087275,0.0550414,21.017,-360.76,0.435198,0.0,0.0
482,120.25,35.9854,40.2143,154.316,100.159,95.5158,0.000877069,0.054958,21.0171,-360.75,0.418299,0.0,0.0
484,120.75,36.1216,40.3058,146.351,100.148,95.313,0.000880567,0.0548631,21.0172,-360.75,0.436069,0.0,0.0
486,121.25,35.9887,40.2096,150.635,100.135,95.3949,0.000890715,0.0547863,21.0171,-360.76,0.427337,0.0,0.0
488,121.75,35.796,40.3229,149.753,100.126,95.2757,0.000898934,0.0547096,21.0167,-360.76,0.437575,0.0,0.0
490,122.25,35.3893,39.0981,151.465,100.122,95.207,0.000905592,0.0546345,21.0165,-360.74,0.443614,0.0,0.0
492,122.75,35.4774,39.1036,149.635,100.111,95.4144,0.000907328,0.0545809,21.0162,-360.75,0.423412,0.0,0.0
494,123.25,35.7182,39.8656,148.901,100.109,95.3393,0.000908734,0.054544,21.0161,-360.75,0.430172,0.0,0.0
496,123.75,35.3006,39.5792,148.809,100.092,95.2723,0.00090256,0.0545278,21.0159,-360.75,0.434847,0.0,0.0
498,124.25,34.953,38.719,151.694,100.073,95.3521,0.000897559,0.0545146,21.0158,-360.75,0.425811,0.0,0.0
500,124.75,35.2421,39.1458,148.893,100.067,95.2872,0.00088966,0.0544896,21.0157,-360.74,0.43135,0.0,0.0
502,125.25,35.1272,39.1143,153.234,100.059,95.2464,0.00088447,0.0544563,21.0157,-360.75,0.434409,0.0,0.0
504,125.75,35.1209,39.2599,151.236,100.046,95.2693,0.000875595,0.0544293,21.0156,-360.75,0.431086,0.0,0.0
506,126.25,35.1533,38.6349,148.906,100.043,95.3762,0.000873281,0.0544075,21.0155,-360.74,0.420958,0.0,0.0
508,126.75,34.6298,38.0351,152.49,100.036,95.3037,0.000878462,0.0543898,21.0155,-360.75,0.427024,0.0,0.0
510,127.25,34.7592,38.5419,150.38,100.031,95.1739,0.00088901,0.0543618,21.0154,-360.75,0.438607,0.0,0.0
512,127.75,34.3915,38.2426,143.326,100.013,95.386,0.000897553,0.0543391,21.0154,-360.75,0.417436,0.0,0.0
514,128.25,34.563,38.2479,145.954,100.008,95.4029,0.000922763,0.0543295,21.0154,-360.76,0.415443,0.0,0.0
516,128.75,34.7255,38.4516,154.265,99.979,95.1544,0.000943183,0.0542992,21.0154,-360.76,0.435845,0.0,0.0
518,129.25,34.1779,38.2473,148.741,99.9758,95.1612,0.000959723,0.0542748,21.0154,-360.76,0.434933,0.0,0.0
520,129.75,33.9876,38.2235,156.152,99.9689,95.1336,0.000973121,0.0542549,21.0153,-360.76,0.436885,0.0,0.0
522,130.25,33.6221,37.8695,150.428,99.9766,95.2163,0.000976272,0.0542389,21.0153,-360.75,0.4299,0.0,0.0
524,130.75,34.2143,37.6795,155.449,99.9468,95.1972,0.000971893,0.0542122,21.0153,-360.75,0.429044,0.0,0.0
526,131.25,34.249,36.9212,149.5,99.9452,95.2396,0.000968346,0.0541905,21.0153,-360.75,0.424977,0.0,0.0
528,131.75,33.3681,36.9225,146.986,99.9376,95.0895,0.000941098,0.0542018,21.0153,-360.75,0.438208,0.0,0.0
530,132.25,33.3255,37.3638,148.013,99.934,95.1192,0.000919027,0.0542369,21.0153,-360.75,0.435137,0.0,0.0
532,132.75,33.1101,37.1443,149.614,99.9054,95.0594,0.000885314,0.0542654,21.0153,-360.75,0.438163,0.0,0.0
534,133.25,33.4731,36.604,148.003,99.9155,95.1213,0.000858007,0.0543021,21.0153,-360.75,0.43331,0.0,0.0
536,133.75,33.1344,36.7643,150.861,99.9086,95.1455,0.00083467,0.0543318,21.0153,-360.75,0.430468,0.0,0.0
538,134.25,33.4677,36.4242,150.955,99.907,95.2354,0.000815768,0.0543422,21.0153,-360.74,0.422002,0.0,0.0
540,134.75,32.6291,36.58,148.357,99.891,95.168,0.000816291,0.0543506,21.0153,-360.75,0.426827,0.0,0.0
542,135.25,33.344,36.3936,147.307,99.8769,94.9826,0.000816715,0.0543574,21.0153,-360.76,0.442764,0.0,0.0
544,135.75,32.6311,36.2427,149.158,99.8697,95.1379,0.000817059,0.054363,21.0153,-360.77,0.427736,0.0,0.0
546,136.25,33.1321,36.0777,151.537,99.8757,95.0602,0.000833086,0.0543537,21.0153,-360.76,0.43546,0.0,0.0
548,136.75,33.1045,36.1025,145.393,99.8532,95.0819,0.000846068,0.0543463,21.0153,-360.75,0.431469,0.0,0.0
550,137.25,33.1589,35.8442,147.79,99.8463,94.9644,0.000860239,0.0543474,21.0153,-360.76,0.441761,0.0,0.0
552,137.75,32.2025,35.3146,145.874,99.8407,95.1841,0.000871718,0.0543549,21.0153,-360.75,0.420901,0.0,0.0
554,138.25,32.9139,35.3437,149.006,99.8287,95.2566,0.000881016,0.0543609,21.0155,-360.76,0.413124,0.0,0.0
556,138.75,32.2244,35.3559,150.267,99.8182,95.0225,0.000888547,0.0543521,21.0156,-360.76,0.433886,0.0,0.0
558,139.25,32.0075,35.4238,148.01,99.8045,94.9572,0.00090684,0.0543449,21.0161,-360.76,0.43874,0.0,0.0
560,139.75,32.0083,34.6861,149.006,99.7993,94.9288,0.000924224,0.0543323,21.0165,-360.76,0.440916,0.0,0.0
562,140.25,31.7179,34.7969,148.59,99.7933,95.0157,0.000940616,0.054316,21.0168,-360.76,0.432316,0.0,0.0
564,140.75,31.832,35.4813,150.098,99.7828,95.0997,0.000953893,0.0543028,21.017,-360.75,0.423607,0.0,0.0
566,141.25,31.8721,35.1257,154.791,99.7692,94.9911,0.000976845,0.0542776,21.0177,-360.76,0.432468,0.0,0.0
568,141.75,31.6575,34.8372,147.623,99.7543,95.0827,0.000995436,0.0542443,21.0182,-360.76,0.422659,0.0,0.0
570,142.25,31.6397,34.5365,150.332,99.7611,94.9665,0.0010166,0.0542173,21.0186,-360.76,0.434041,0.0,0.0
572,142.75,31.5872,34.965,150.584,99.739,94.8172,0.00103373,0.0541955,21.019,-360.76,0.445953,0.0,0.0
574,143.25,31.6507,34.5748,148.99,99.7531,95.1213,0.00104055,0.0541778,21.0193,-360.77,0.418976,0.0,0.0
576,143.75,31.9004,35.0527,149.478,99.7342,94.958,0.00103972,0.054136,21.0195,-360.77,0.432448,0.0,0.0
578,144.25,31.4293,34.86,149.335,99.7326,94.95,0.00103905,0.0541022,21.0197,-360.77,0.433054,0.0,0.0
580,144.75,31.0682,34.0577,150.451,99.7205,94.983,0.00103484,0.0540612,21.0198,-360.78,0.428919,0.0,0.0
582,145.25,31.103,34.2974,146.044,99.7221,94.9478,0.00103144,0.0540279,21.0199,-360.77,0.432328,0.0,0.0
584,145.75,30.8124,34.11,147.371,99.7157,95.0827,0.00103965,0.0539938,21.02,-360.76,0.41925,0.0,0.0
586,146.25,30.9988,33.978,149.308,99.7145,94.9631,0.00104631,0.0539597,21.0201,-360.76,0.430236,0.0,0.0
588,146.75,31.1518,33.6818,147.295,99.6848,94.9584,0.00106644,0.053932,21.0201,-360.76,0.428039,0.0,0.0
590,147.25,31.0604,33.8182,150.071,99.6884,95.0806,0.00108274,0.0539233,21.02,-360.77,0.417031,0.0,0.0
592,147.75,31.2259,33.904,149.778,99.6932,94.9682,0.00110205,0.0539162,21.0197,-360.76,0.42788,0.0,0.0
594,148.25,30.2859,33.7867,151.266,99.6671,94.9088,0.00111769,0.0539379,21.0192,-360.77,0.431082,0.0,0.0
596,148.75,31.4234,33.3162,146.864,99.6558,94.9436,0.00112913,0.0539554,21.0189,-360.78,0.42686,0.0,0.0
598,149.25,30.0495,33.482,149.102,99.6622,95.0161,0.00113841,0.0539404,21.0186,-360.77,0.420698,0.0,0.0
600,149.75,30.691,33.3863,149.923,99.6502,94.919,0.00114592,0.053902,21.0183,-360.78,0.428645,0.0,0.0
602,150.25,30.1324,33.0907,149.425,99.645,94.9466,0.00114815,0.0538853,21.0181,-360.77,0.425623,0.0,0.0
604,150.75,30.2881,32.7506,150.186,99.6365,94.894,0.00114648,0.0538847,21.018,-360.77,0.429759,0.0,0.0
606,151.25,30.5258,33.5383,153.282,99.6196,94.9508,0.00114064,0.0539059,21.0178,-360.77,0.422991,0.0,0.0
608,151.75,30.1833,32.6119,145.75,99.6152,94.888,0.00113186,0.0539424,21.0177,-360.78,0.428427,0.0,0.0
610,152.25,30.3811,33.1079,148.847,99.6128,94.7506,0.00111897,0.0539721,21.0176,-360.77,0.440986,0.0,0.0
612,152.75,30.3473,33.359,147.807,99.6012,94.8711,0.00110333,0.0540371,21.0176,-360.77,0.428758,0.0,0.0
614,153.25,30.1314,32.5492,148.606,99.5975,94.8885,0.00108874,0.0540898,21.0175,-360.77,0.426823,0.0,0.0
616,153.75,29.9051,32.4735,146.872,99.5831,94.8261,0.00107519,0.0541469,21.0175,-360.77,0.431334,0.0,0.0
618,154.25,29.6,32.7452,149.243,99.5786,94.7464,0.00106941,0.0542061,21.0174,-360.78,0.438357,0.0,0.0
620,154.75,29.5477,32.15,151.665,99.5654,94.8181,0.00105709,0.0542613,21.0174,-360.77,0.430518,0.0,0.0
622,155.25,29.7031,32.193,145.98,99.5509,94.8482,0.00104582,0.0543125,21.0174,-360.77,0.426439,0.0,0.0
624,155.75,30.0131,32.3893,154.169,99.5364,94.846,0.00103554,0.0543395,21.0174,-360.76,0.425355,0.0,0.0
626,156.25,29.4349,32.5098,149.574,99.5392,94.863,0.00102722,0.0543484,21.0173,-360.76,0.424028,0.0,0.0
628,156.75,29.274,32.1627,153.653,99.5216,94.6696,0.00102047,0.0543701,21.0173,-360.76,0.440447,0.0,0.0
630,157.25,29.0555,31.7323,147.658,99.5115,94.5894,0.00100342,0.0544006,21.0173,-360.75,0.447022,0.0,0.0
632,157.75,29.1275,31.6303,151.131,99.5047,94.8138,0.000979159,0.0544136,21.0174,-360.76,0.425539,0.0,0.0
634,158.25,29.3319,31.9753,147.087,99.4882,94.6565,0.000960795,0.0544495,21.0175,-360.75,0.438716,0.0,0.0
636,158.75,29.3207,31.7962,154.753,99.4986,94.9169,0.000947074,0.0544786,21.0176,-360.76,0.415431,0.0,0.0
638,159.25,29.2469,31.5424,152.594,99.4717,94.5665,0.000946868,0.0544738,21.0177,-360.76,0.445632,0.0,0.0
640,159.75,29.1841,31.4062,149.695,99.4725,94.7014,0.000956518,0.0544442,21.0178,-360.77,0.433143,0.0,0.0
642,160.25,28.9628,31.1555,151.461,99.4689,94.7515,0.000964335,0.0544203,21.0179,-360.77,0.428167,0.0,0.0
644,160.75,29.4225,31.8846,149.384,99.4601,94.7273,0.000970666,0.054401,21.0179,-360.77,0.429632,0.0,0.0
646,161.25,28.7675,31.5305,146.0625,99.4496,94.8533,0.00100873,0.0543853,21.018,-360.77,0.416996,0.0,0.0
648,161.75,28.4844,31.3771,146.997,99.4343,94.7379,0.00103957,0.054351,21.0179,-360.78,0.426366,0.0,0.0
650,162.25,28.8981,31.6225,153.685,99.4372,94.6429,0.00107431,0.0543037,21.0178,-360.78,0.435457,0.0,0.0
652,162.75,29.1126,31.3892,149.372,99.4231,94.5771,0.00110246,0.0542798,21.0178,-360.76,0.440334,0.0,0.0
654,163.25,28.992,31.4492,149.45,99.4034,94.7561,0.0011338,0.0542735,21.0177,-360.77,0.421927,0.0,0.0
656,163.75,28.6625,31.4116,151.534,99.3982,94.6412,0.00115918,0.0542683,21.0177,-360.77,0.432159,0.0,0.0
658,164.25,28.3563,30.986,149.114,99.3837,94.6348,0.00117975,0.0542642,21.0176,-360.77,0.43147,0.0,0.0
660,164.75,28.7154,30.673,147.964,99.3789,94.6887,0.00120373,0.0542471,21.0176,-360.77,0.426027,0.0,0.0
662,165.25,28.7088,31.0796,149.017,99.3692,94.8465,0.00122316,0.0542333,21.0176,-360.76,0.4105,0.0,0.0
664,165.75,28.1193,30.6836,150.046,99.3616,94.5033,0.00122437,0.0542084,21.0176,-360.77,0.441761,0.0,0.0
666,166.25,28.4418,30.9825,150.131,99.3475,94.4524,0.00122644,0.0541882,21.0175,-360.77,0.445261,0.0,0.0
668,166.75,28.6335,31.12,149.28,99.3419,94.5907,0.00122812,0.0541575,21.0175,-360.77,0.43187,0.0,0.0
670,167.25,28.6863,30.6363,153.821,99.3186,94.3875,0.00121746,0.0541196,21.0175,-360.77,0.44875,0.0,0.0
672,167.75,28.5139,30.481,145.04,99.333,94.5258,0.00120882,0.0540889,21.0175,-360.77,0.437133,0.0,0.0
674,168.25,28.9073,30.7007,151.096,99.2945,94.5156,0.00121403,0.0540353,21.0173,-360.77,0.434658,0.0,0.0
676,168.75,28.2023,29.8045,150.963,99.2965,94.5831,0.00121825,0.0539988,21.017,-360.77,0.428552,0.0,0.0
678,169.25,28.391,30.3401,151.512,99.2724,94.5721,0.00124854,0.0539363,21.0168,-360.78,0.427438,0.0,0.0
680,169.75,28.1977,30.4793,151.376,99.2663,94.561,0.00127307,0.053872,21.0166,-360.76,0.427931,0.0,0.0
682,170.25,28.3734,30.2248,150.776,99.2535,94.4274,0.00130324,0.05382,21.0164,-360.78,0.439249,0.0,0.0
684,170.75,28.2808,30.5203,149.565,99.2354,94.3451,0.00133693,0.053777,21.0163,-360.77,0.445324,0.0,0.0
686,171.25,28.7813,29.9651,150.909,99.2285,94.4181,0.00136422,0.0537415,21.0162,-360.78,0.437907,0.0,0.0
688,171.75,27.9224,30.2284,147.588,99.235,94.4317,0.001368,0.05372,21.0161,-360.78,0.437211,0.0,0.0
690,172.25,28.6794,30.3743,148.029,99.1988,94.3973,0.00137106,0.053709,21.016,-360.77,0.437205,0.0,0.0
692,172.75,27.9441,30.0534,149.935,99.2016,94.3736,0.00134788,0.0536728,21.016,-360.78,0.439672,0.0,0.0
694,173.25,27.9952,29.4939,146.562,99.1803,94.4249,0.00132911,0.0536434,21.0159,-360.78,0.432988,0.0,0.0
696,173.75,27.9787,29.771,149.642,99.1835,94.4155,0.00129438,0.0536196,21.0159,-360.77,0.434145,0.0,0.0
698,174.25,28.1623,29.5646,150.46,99.1674,94.2807,0.00126624,0.0536277,21.0159,-360.77,0.445314,0.0,0.0
700,174.75,27.6957,29.8704,150.629,99.1687,94.4452,0.00123511,0.0536343,21.0158,-360.76,0.430054,0.0,0.0
702,175.25,27.5999,29.6781,148.926,99.1413,94.5186,0.00120237,0.0536756,21.0158,-360.76,0.42078,0.0,0.0
704,175.75,27.6555,29.9656,145.578,99.1554,94.4613,0.00117714,0.0537415,21.0158,-360.78,0.42737,0.0,0.0
706,176.25,27.8086,29.7212,148.718,99.1285,94.346,0.00115786,0.0537949,21.0158,-360.77,0.435746,0.0,0.0
708,176.75,27.4817,29.6971,149.67,99.1361,94.3519,0.00115123,0.0538381,21.0158,-360.77,0.43587,0.0,0.0
710,177.25,27.22,29.7846,145.391,99.1152,94.3443,0.00115396,0.0538587,21.0158,-360.78,0.434725,0.0,0.0
712,177.75,27.9055,29.5595,149.558,99.1148,94.4575,0.00115616,0.0538624,21.0158,-360.76,0.424119,0.0,0.0
714,178.25,28.0494,29.5963,150.298,99.0951,94.5127,0.00117783,0.0538511,21.0158,-360.77,0.417224,0.0,0.0
716,178.75,27.8985,29.3521,148.759,99.0959,94.2658,0.00121326,0.0538289,21.0158,-360.77,0.440342,0.0,0.0
718,179.25,27.4581,29.2272,149.494,99.075,94.388,0.00125161,0.0538181,21.0158,-360.76,0.427071,0.0,0.0
720,179.75,27.5662,29.3693,151.699,99.0718,94.4168,0.00129136,0.0538159,21.0159,-360.76,0.424094,0.0,0.0
722,180.25,27.4027,29.2574,152.234,99.0682,94.2913,0.00133192,0.0538141,21.0161,-360.76,0.435496,0.0,0.0
724,180.75,27.719,29.1068,145.044,99.0485,94.298,0.0013723,0.053786,21.0162,-360.78,0.43311,0.0,0.0
726,181.25,27.5744,29.31,150.022,99.0436,94.2841,0.00140501,0.0537632,21.0162,-360.77,0.43399,0.0,0.0
728,181.75,27.2431,29.0349,148.626,99.0416,94.3405,0.00144985,0.0537448,21.0163,-360.77,0.428539,0.0,0.0
730,182.25,27.4127,28.9453,147.845,99.0236,94.2679,0.00148617,0.0536751,21.0164,-360.76,0.433708,0.0,0.0
732,182.75,27.1985,29.108,149.587,99.0207,94.3087,0.00152783,0.0536187,21.0164,-360.76,0.429651,0.0,0.0
734,183.25,27.193,29.1501,151.14,99.0131,94.2595,0.00156158,0.0535593,21.0164,-360.77,0.433571,0.0,0.0
736,183.75,27.1371,28.4428,148.921,99.001,94.293,0.00158891,0.0535112,21.0165,-360.77,0.429365,0.0,0.0
738,184.25,27.3368,28.57,150.473,98.9854,94.326,0.00161362,0.0535269,21.0168,-360.78,0.424879,0.0,0.0
740,184.75,26.9624,28.6435,149.533,99.0022,94.2281,0.00163596,0.0535397,21.0174,-360.79,0.435539,0.0,0.0
742,185.25,27.0109,28.711,146.096,98.9854,94.2429,0.00165406,0.0535774,21.0178,-360.78,0.432648,0.0,0.0
744,185.75,26.7664,28.36,153.762,98.9737,94.301,0.0016528,0.053608,21.0182,-360.78,0.426179,0.0,0.0
746,186.25,26.8516,29.0671,152.763,98.9665,94.2226,,0.0536327,,-360.78,0.43287,0.0,0.0
748,186.75,26.5852,27.5784,148.19,98.9681,94.2077,,0.0536528,,-360.78,0.434402,0.0,0.0
750,187.25,26.8035,28.7946,148.277,98.954,94.2259,,0.053669,,-360.78,0.431443,0.0,0.0
752,187.75,26.9109,28.9472,151.035,98.956,94.3392,,0.0536821,,-360.78,0.421038,0.0,0.0
754,188.25,26.8288,28.5262,151.753,98.9303,94.2925,,0.0537065,,-360.78,0.423106,0.0,0.0
756,188.75,26.7501,28.4987,151.807,98.9315,94.1114,,0.0537262,,-360.78,0.440155,0.0,0.0
758,189.25,26.4565,28.4891,151.41,98.9174,94.2497,,,,-360.78,0.425964,0.0,0.0
760,189.75,26.7952,28.6255,147.865,98.919,94.2713,,,,-360.78,0.424085,0.0,0.0
762,190.25,26.8019,28.2619,150.903,98.903,94.3918,,,,-360.78,0.4114,0.0,0.0
764,190.75,26.9726,27.6611,150.738,98.903,94.0987,,,,-360.78,0.438804,0.0,0.0
766,191.25,26.158,28.3158,150.595,98.8989,94.1916,,,,-360.78,0.429752,0.0,0.0
768,191.75,26.4401,28.1686,148.914,98.8925,94.1666,,,,-360.78,0.43152,0.0,0.0
770,192.25,26.6669,27.69,145.747,98.8869,94.1445,,,,-360.79,0.433082,0.0,0.0
772,192.75,26.3886,27.7118,149.721,98.8756,94.212,,,,-360.78,0.42577,0.0,0.0
774,193.25,26.4804,28.0146,152.622,98.8688,94.1661,,,,-360.77,0.429446,0.0,0.0
776,193.75,26.4359,27.9716,149.5,98.8636,94.2446,,,,-360.78,0.42164,0.0,0.0
778,194.25,26.6807,27.6678,149.055,98.8648,94.1377,,,,-360.79,0.431747,0.0,0.0
780,194.75,25.9538,27.4327,151.097,98.8676,94.1937,,,,-360.79,0.426759,0.0,0.0
782,195.25,26.2722,27.8667,149.523,98.8519,94.1178,,,,-360.77,0.432468,0.0,0.0
784,195.75,26.6163,28.4756,148.565,98.8499,94.1131,,,,-360.77,0.432724,0.0,0.0
786,196.25,26.1135,27.3058,149.004,98.8527,94.0902,,,,-360.77,0.43512,0.0,0.0
788,196.75,25.8421,26.9429,148.184,98.8475,94.1835,,,,-360.77,0.42592,0.0,0.0