File: 01_Data/Rebond_Foam_Carpet_Pad/Cone/Rebond_Foam_Carpet_Pad_Cone_HF50Scan_220414_R2.csv
Names,Time,Stack TC,Smoke TC,Exh Press,Smoke Comp,Smoke Meas,CO Meter,CO2 Meter,O2 Meter,Sample Mass,Ext Coeff,Start Test,Flame Verif
Chan Gain,,500,500,1,1,1,1,1,1,1,1,1.0,1.0
Offset,,0,0,0.134258,0,0,0,0,0,0,0,0.0,0.0
Gain,,1,1,25.011,13.171,13.8983,1,1,1,1.00092,1.00459,1.0,1.0
Units,sec,C,C,Pa,%,%,%,%,%,g,/m,,
Baseline,,34.5335,35.5237,148.229,100.501,100.349,0.00126309,0.0472457,21.0269,-833.061,0.0134107,,
2,0.25,34.9495,35.9165,147.022,101.599,96.8281,0.00292552,0.0775373,20.9579,-352.412,0.423826,0.0,0.0
4,0.75,34.9901,36.1897,137.803,101.581,92.4641,0.00383816,0.0950433,20.9372,-352.392,0.828684,0.0,0.0
6,1.25,34.1638,35.1533,136.921,101.577,88.0568,0.00457739,0.109223,20.9099,-352.292,1.25871,0.0,1.0
8,1.75,33.3356,34.8024,134.477,101.58,85.7762,0.00570965,0.136066,20.8753,-352.503,1.49023,0.0,1.0
10,2.25,33.8141,34.6816,141.021,101.577,83.6605,0.00662677,0.157808,20.8359,-352.553,1.70998,0.0,1.0
12,2.75,33.5938,33.5157,132.562,101.578,83.4078,0.00790391,0.184968,20.7925,-352.513,1.73679,0.0,1.0
14,3.25,34.0847,34.979,130.389,101.576,81.2616,0.00893839,0.21556,20.747,-352.663,1.96626,0.0,1.0
16,3.75,33.9873,35.1066,125.452,101.582,82.0191,0.0102679,0.240341,20.7102,-352.743,1.88506,0.0,1.0
18,4.25,34.8933,35.6325,128.965,101.566,79.146,0.0113447,0.270651,20.6488,-352.753,2.19793,0.0,1.0
20,4.75,35.5123,35.7507,127.675,101.566,78.2171,0.0128612,0.304416,20.599,-352.823,2.30196,0.0,1.0
22,5.25,35.7034,36.2369,126.046,101.565,79.1426,0.0139628,0.338509,20.5136,-352.933,2.1982,0.0,1.0
24,5.75,36.1625,36.5699,125.257,101.551,76.3924,0.0144324,0.372192,20.4906,-353.033,2.50861,0.0,1.0
26,6.25,36.3067,36.6302,118.186,101.549,74.8341,0.0155514,0.404204,20.446,-353.083,2.69009,0.0,1.0
28,6.75,35.738,35.732,124.404,101.56,78.8953,0.0164578,0.43439,20.4049,-353.143,2.22536,0.0,1.0
30,7.25,35.9326,36.5699,121.108,101.551,80.1533,0.0173369,0.461762,20.3717,-353.243,2.08515,0.0,1.0
32,7.75,36.7851,36.7806,123.596,101.535,75.1908,0.0181793,0.497138,20.339,-353.323,2.64696,0.0,1.0
34,8.25,37.0528,37.5819,123.479,101.532,78.5403,0.0189461,0.516991,20.3125,-353.413,2.26262,0.0,1.0
36,8.75,37.5122,38.1904,127.581,101.528,80.9312,0.0196434,0.526294,20.291,-353.453,1.99809,0.0,1.0
38,9.25,38.4348,38.3751,122.798,101.528,79.2087,0.0202082,0.542202,20.2716,-353.523,2.18759,0.0,1.0
40,9.75,39.0606,39.2948,123.979,101.52,76.1282,0.0206656,0.557055,20.2539,-353.624,2.53649,0.0,1.0
42,10.25,39.3398,40.1465,125.987,101.515,76.076,0.0212979,0.570856,20.2393,-353.724,2.54208,0.0,0.0
44,10.75,39.8168,40.6679,121.214,101.512,75.0738,0.0218101,0.582035,20.2273,-353.774,2.65874,0.0,0.0
46,11.25,40.5403,41.4727,125.279,101.496,75.2761,0.022365,0.59551,20.2128,-353.834,2.63359,0.0,0.0
48,11.75,40.7601,41.9884,118.32,101.503,76.0031,0.0229405,0.606425,20.1969,-353.924,2.54949,0.0,0.0
50,12.25,41.6954,41.4378,123.218,101.495,76.1579,0.0235614,0.615266,20.184,-353.994,2.53089,0.0,0.0
52,12.75,42.4639,43.197,123.845,101.492,74.5843,0.0242036,0.630115,20.1633,-354.064,2.71463,0.0,0.0
54,13.25,42.6971,43.656,121.212,101.494,75.039,0.024897,0.642142,20.1466,-354.194,2.66118,0.0,0.0
56,13.75,43.3129,44.1034,118.28,101.483,72.9399,0.0256147,0.658556,20.1089,-354.264,2.91033,0.0,0.0
58,14.25,43.8277,44.7783,112.688,101.48,70.8849,0.026196,0.677857,20.0785,-354.344,3.16188,0.0,0.0
60,14.75,44.6143,45.3803,113.197,101.465,69.7546,0.0269537,0.703273,20.0538,-354.434,3.30218,0.0,0.0
62,15.25,44.6075,46.4001,111.739,101.455,70.6741,0.0278256,0.732665,19.9963,-354.564,3.18593,0.0,0.0
64,15.75,45.2441,46.4517,113.999,101.451,70.2245,0.0287138,0.768896,19.9498,-354.685,3.24178,0.0,0.0
66,16.25,46.3237,47.3362,108.842,101.447,68.7914,0.0295971,0.809424,19.8715,-354.805,3.42321,0.0,0.0
68,16.75,47.0313,48.2091,102.749,101.45,67.9795,0.0305201,0.842252,19.8082,-354.925,3.52807,0.0,0.0
70,17.25,47.5301,48.7431,96.9128,101.433,69.5468,0.0314544,0.907334,19.7122,-355.085,3.32575,0.0,0.0
72,17.75,48.8527,49.8057,96.8387,101.432,69.6473,0.0324032,0.960051,19.6346,-355.245,3.31288,0.0,0.0
74,18.25,49.6053,50.7337,112.034,101.419,67.8332,0.0333444,1.02792,19.487,-355.355,3.54433,0.0,0.0
76,18.75,50.8856,52.115,93.7131,101.424,67.8082,0.0342743,1.10554,19.3674,-355.555,3.54804,0.0,0.0
78,19.25,51.9969,53.2919,93.6437,101.405,69.5955,0.0351782,1.16842,19.2077,-355.706,3.31709,0.0,0.0
80,19.75,53.0273,54.3834,90.1212,101.403,69.5446,0.0360284,1.25885,19.0784,-355.816,3.32343,0.0,0.0
82,20.25,54.4184,55.8825,77.7759,101.388,69.7406,0.0368232,1.35446,18.9112,-355.976,3.29731,0.0,0.0
84,20.75,55.8727,57.3857,90.3959,101.392,70.7984,0.0374669,1.45202,18.7758,-356.186,3.16496,0.0,0.0
86,21.25,57.76,59.0539,86.7108,101.386,70.974,0.0377414,1.55415,18.7181,-356.386,3.14261,0.0,0.0
88,21.75,59.3427,61.0518,81.0069,101.386,71.2208,0.0383422,1.65767,18.587,-356.556,3.11205,0.0,0.0
90,22.25,61.0449,63.0071,69.7684,101.377,73.0459,0.0388288,1.76695,18.4517,-356.706,2.88827,0.0,0.0
92,22.75,62.825,65.0063,85.0225,101.362,73.4832,0.0391543,1.87833,18.3073,-356.957,2.83442,0.0,0.0
94,23.25,64.8513,67.2383,69.9333,101.34,75.5153,0.0394179,1.96855,18.1592,-357.057,2.59204,0.0,0.0
96,23.75,66.9816,69.9323,76.9844,101.349,77.7543,0.0394637,2.09503,18.0066,-357.277,2.33536,0.0,0.0
98,24.25,69.0552,72.3599,83.4471,101.331,77.5181,0.0395009,2.14896,17.8536,-357.497,2.3606,0.0,0.0
100,24.75,71.3646,74.7287,86.2903,101.333,77.619,0.0393103,2.24116,17.7297,-357.657,2.34934,0.0,0.0
102,25.25,73.8521,77.5665,73.939,101.324,78.4385,0.0391559,2.36224,17.5795,-357.857,2.25603,0.0,0.0
104,25.75,76.2549,80.351,68.4754,101.326,81.8902,0.0390308,2.46032,17.4577,-358.078,1.87668,0.0,0.0
106,26.25,78.8718,83.4944,64.7888,101.309,82.2473,0.0385847,2.54569,17.3592,-358.208,1.83683,0.0,0.0
108,26.75,81.4236,86.3948,76.644,101.307,81.1148,0.0380695,2.62017,17.2793,-358.348,1.9589,0.0,0.0
110,27.25,83.9437,89.6702,91.1279,101.301,80.3094,0.0375138,2.67586,17.2146,-358.528,2.04628,0.0,0.0
112,27.75,86.6548,92.502,71.8598,101.292,78.3613,0.0370636,2.71678,17.1622,-358.718,2.26191,0.0,0.0
114,28.25,89.5452,95.8445,74.7847,101.286,79.2995,0.0364359,2.74993,17.1198,-358.898,2.15651,0.0,0.0
116,28.75,91.53,98.9505,74.4618,101.286,77.3446,0.0356908,2.73754,17.1558,-359.019,2.37643,0.0,0.0
118,29.25,93.5542,101.612,79.8398,101.258,75.0572,0.0351306,2.7275,17.1712,-359.159,2.63853,0.0,0.0
120,29.75,96.0014,104.519,73.6703,101.257,76.2376,0.0341727,2.66658,17.2795,-359.279,2.50099,0.0,0.0
122,30.25,98.2638,107.086,87.0497,101.237,75.405,0.0333969,2.61723,17.3672,-359.409,2.59604,0.0,0.0
124,30.75,99.5321,109.587,100.462,101.242,73.6325,0.0321276,2.53895,17.4863,-359.469,2.80604,0.0,0.0
126,31.25,101.527,111.547,102.268,101.222,74.8829,0.0310995,2.44105,17.6261,-359.559,2.65594,0.0,0.0
128,31.75,102.782,113.335,98.0165,101.226,75.2926,0.0299251,2.32056,17.7393,-359.649,2.60817,0.0,0.0
130,32.25,104.095,114.87,101.831,101.202,75.752,0.0286663,2.24968,17.831,-359.689,2.55247,0.0,0.0
132,32.75,105.004,116.742,104.43,101.215,78.2786,0.0276467,2.12847,18.0252,-359.739,2.26453,0.0,0.0
134,33.25,105.779,117.068,109.54,101.186,80.387,0.0263302,1.96785,18.1825,-359.809,2.02773,0.0,0.0
136,33.75,105.848,118.507,122.804,101.193,83.0286,0.0248222,1.83774,18.4017,-359.839,1.74344,0.0,0.0
138,34.25,106.372,119.128,123.885,101.173,81.6739,0.0233819,1.67195,18.5793,-359.859,1.88666,0.0,0.0
140,34.75,106.514,119.302,124.338,101.175,84.4808,0.0220183,1.53767,18.8033,-359.899,1.5891,0.0,0.0
142,35.25,106.792,119.667,128.035,101.153,87.7663,0.0209138,1.42889,18.9847,-359.939,1.25093,0.0,0.0
144,35.75,106.542,119.271,130.955,101.155,89.4883,0.0200191,1.34078,19.1317,-359.929,1.07991,0.0,0.0
146,36.25,106.626,119.422,133.078,101.136,94.3205,0.018875,1.19899,19.2948,-359.909,0.614821,0.0,0.0
148,36.75,105.943,118.557,134.087,101.147,97.7311,0.0179483,1.08414,19.4665,-359.909,0.302786,0.0,0.0
150,37.25,105.472,118.628,137.8,101.118,100.255,0.0170601,0.96467,19.6343,-359.919,0.0755298,0.0,0.0
152,37.75,104.499,118.271,138.079,101.121,100.3,0.0163406,0.867897,19.7959,-359.929,0.0718243,0.0,0.0
154,38.25,103.995,117.667,140.716,101.113,102.172,0.0157152,0.767715,19.9395,-359.919,-0.0918133,0.0,0.0
156,38.75,103.241,116.714,145.064,101.112,102.487,0.0152085,0.686567,20.0671,-359.929,-0.118983,0.0,0.0
158,39.25,102.657,115.956,140.796,101.093,101.738,0.0148072,0.620838,20.1834,-359.929,-0.0560254,0.0,0.0
160,39.75,101.594,115.607,142.525,101.094,103.172,0.0144821,0.550689,20.2893,-359.929,-0.179335,0.0,0.0
162,40.25,101.143,114.532,144.669,101.077,101.633,0.014246,0.493867,20.3806,-359.919,-0.0483112,0.0,0.0
164,40.75,100.832,113.177,142.285,101.074,101.438,0.0140548,0.441066,20.4596,-359.949,-0.0316236,0.0,0.0
166,41.25,100.024,112.307,142.551,101.051,101.98,0.0139478,0.398297,20.5276,-359.939,-0.0806926,0.0,0.0
168,41.75,98.8527,111.798,141.638,101.066,102.158,0.0138612,0.358441,20.5863,-359.929,-0.0947404,0.0,0.0
170,42.25,98.394,111.053,142.206,101.034,102.792,0.013791,0.326159,20.6338,-359.929,-0.152038,0.0,0.0
172,42.75,97.1882,110.608,144.74,101.041,102.808,0.0138576,0.296167,20.6756,-359.929,-0.152824,0.0,0.0
174,43.25,96.8639,109.443,140.858,101.024,102.982,0.0139115,0.271874,20.7124,-359.929,-0.169117,0.0,0.0
176,43.75,96.249,108.762,145.738,101.02,101.89,0.0140334,0.249315,20.7445,-359.939,-0.075547,0.0,0.0
178,44.25,95.0281,107.866,147.436,101.003,101.728,0.0142025,0.231043,20.7725,-359.959,-0.0630311,0.0,0.0
180,44.75,94.3283,106.896,145.62,101.006,102.205,0.0144546,0.214685,20.7952,-359.959,-0.103952,0.0,0.0
182,45.25,93.6484,106.189,144.45,100.984,101.973,0.0147622,0.200035,20.8162,-359.959,-0.0859272,0.0,0.0
184,45.75,93.2725,105.356,143.257,100.987,102.219,0.0150115,0.188169,20.8333,-359.959,-0.106808,0.0,0.0
186,46.25,92.8336,105.02,140.713,100.971,101.474,0.015445,0.17711,20.8492,-359.969,-0.0437308,0.0,0.0
188,46.75,91.6716,103.749,146.943,100.964,102.742,0.0157962,0.166849,20.864,-359.969,-0.153884,0.0,0.0
190,47.25,91.4727,103.02,139.234,100.951,102.715,0.016238,0.157567,20.8771,-359.959,-0.152678,0.0,0.0
192,47.75,90.3938,102.425,146.062,100.956,102.465,0.0165958,0.149174,20.8888,-359.979,-0.130726,0.0,0.0
194,48.25,90.0294,102.39,144.636,100.939,102.791,0.0169746,0.141638,20.8995,-359.969,-0.16017,0.0,0.0
196,48.75,88.9795,101.093,143.438,100.941,102.864,0.0172814,0.13487,20.9092,-359.969,-0.166319,0.0,0.0
198,49.25,88.2587,99.8874,144.382,100.924,102.131,0.0175243,0.129388,20.917,-359.969,-0.104779,0.0,0.0
200,49.75,87.3043,98.8815,146.741,100.918,101.936,0.017716,0.123703,20.9247,-359.989,-0.088527,0.0,0.0
202,50.25,86.8014,98.6345,142.412,100.911,101.573,0.0178713,0.119099,20.9309,-359.979,-0.0575728,0.0,0.0
204,50.75,86.3521,97.8219,141.86,100.901,102.102,0.0179095,0.114644,20.9369,-359.979,-0.104256,0.0,0.0
206,51.25,85.9014,97.2971,144.434,100.903,102.12,0.0179405,0.111036,20.9417,-359.979,-0.105581,0.0,0.0
208,51.75,85.1732,96.4467,143.924,100.89,101.299,0.0178506,0.107791,20.946,-359.979,-0.0356683,0.0,0.0
210,52.25,84.5047,95.8567,148.025,100.88,102.065,0.0177777,0.104872,20.95,-359.969,-0.102966,0.0,0.0
212,52.75,83.8717,95.516,145.846,100.877,101.26,0.0176437,0.102508,20.9532,-359.979,-0.0333222,0.0,0.0
214,53.25,83.4984,94.8217,145.719,100.868,101.542,0.0174676,0.100079,20.9567,-359.979,-0.0586773,0.0,0.0
216,53.75,82.7137,94.3317,143.264,100.871,102.382,0.0172579,0.0981115,20.9595,-359.989,-0.131015,0.0,0.0
218,54.25,81.9319,93.4633,144.505,100.843,102.165,0.0170277,0.0961289,20.9629,-359.989,-0.1148,0.0,0.0
220,54.75,81.7913,92.9602,145.394,100.84,102.061,0.016784,0.0945231,20.9656,-359.999,-0.10604,0.0,0.0
222,55.25,81.0108,92.3436,148.364,100.838,101.319,0.016535,0.0927784,20.9678,-359.999,-0.0419305,0.0,0.0
224,55.75,80.2881,91.3025,140.767,100.822,102.374,0.0163333,0.0913653,20.97,-360.009,-0.134572,0.0,0.0
226,56.25,80.1624,91.1176,147.69,100.823,102.924,0.01617,0.0899003,20.9718,-360.009,-0.181729,0.0,0.0
228,56.75,79.7798,90.5796,143.685,100.811,102.205,0.0160377,0.0884252,20.9732,-359.999,-0.120976,0.0,0.0
230,57.25,79.0127,90.0811,146.02,100.814,102.179,0.0157008,0.0869392,20.9743,-360.009,-0.1185,0.0,0.0
232,57.75,78.8597,89.328,144.406,100.799,102.05,0.0154279,0.0854733,20.9752,-359.999,-0.108706,0.0,0.0
234,58.25,78.0638,88.9786,145.343,100.798,102.536,0.0151548,0.0842859,20.9759,-360.029,-0.150687,0.0,0.0
236,58.75,77.5795,88.1656,144.75,100.803,102.597,0.0148869,0.0833242,20.9773,-360.019,-0.155442,0.0,0.0
238,59.25,77.3675,87.8327,143.471,100.805,102.206,0.0146118,0.0821089,20.9785,-360.009,-0.121648,0.0,0.0
240,59.75,76.7481,87.1637,142.899,100.81,102.104,0.0143368,0.0807319,20.9799,-360.019,-0.112374,0.0,0.0
242,60.25,76.4639,87.0964,147.139,100.831,102.431,0.0140603,0.0796166,20.981,-360.019,-0.138724,0.0,0.0
244,60.75,75.9111,86.1726,141.912,100.833,101.68,0.0137879,0.0784155,20.9837,-360.019,-0.0736893,0.0,0.0
246,61.25,75.1053,86.0118,141.885,100.846,101.784,0.0135171,0.0771748,20.9859,-360.019,-0.0816034,0.0,0.0
248,61.75,74.7262,85.3605,147.423,100.85,102.263,0.0132524,0.0759305,20.9881,-360.039,-0.122685,0.0,0.0
250,62.25,74.3414,84.6111,143.751,100.87,102.758,0.0129866,0.0747072,20.9899,-360.029,-0.163479,0.0,0.0
252,62.75,74.1727,84.1633,146.782,100.877,101.953,0.0128489,0.0735208,20.9912,-360.039,-0.0935374,0.0,0.0
254,63.25,73.5167,84.2523,147.159,100.891,101.825,0.0126134,0.0723837,20.9933,-360.049,-0.0812302,0.0,0.0
256,63.75,72.9974,83.5872,142.709,100.896,101.846,0.0124227,0.071289,20.995,-360.049,-0.082537,0.0,0.0
258,64.25,72.6299,82.948,146.007,100.913,102.039,0.0121233,0.0702458,20.9966,-360.039,-0.0977449,0.0,0.0
260,64.75,72.339,82.4514,144.86,100.927,102.574,0.0118807,0.0692562,20.9981,-360.059,-0.142621,0.0,0.0
262,65.25,71.3482,82.0616,146.966,100.928,100.946,0.0116024,0.0683244,20.9995,-360.049,-0.00154489,0.0,0.0
264,65.75,71.9948,81.4394,139.549,100.926,101.701,0.0113769,0.0679271,21.0008,-360.049,-0.0674527,0.0,0.0
266,66.25,70.9173,80.699,145.323,100.958,101.805,0.0111101,0.0670888,21.002,-360.049,-0.0736088,0.0,0.0
268,66.75,70.9744,80.6593,142.768,100.949,101.299,0.0108939,0.0662665,21.0032,-360.059,-0.0305436,0.0,0.0
270,67.25,70.1757,80.1113,144.366,100.967,101.833,0.0106739,0.0656005,21.0042,-360.059,-0.0752944,0.0,0.0
272,67.75,69.6137,79.8486,143.987,100.966,102.967,0.0104552,0.064772,21.005,-360.059,-0.172968,0.0,0.0
274,68.25,69.0394,79.2627,143.895,100.985,102.945,0.0102433,0.0641008,21.0057,-360.059,-0.169397,0.0,0.0
276,68.75,68.7074,78.6154,143.939,100.983,102.062,0.0100404,0.0633926,21.0064,-360.059,-0.0936542,0.0,0.0
278,69.25,69.0426,78.5031,143.466,100.997,102.393,0.00987597,0.0628189,21.0073,-360.069,-0.120945,0.0,0.0
280,69.75,68.0637,77.9367,140.24,100.992,103.054,0.00968315,0.0622307,21.0079,-360.059,-0.178127,0.0,0.0
282,70.25,68.1706,77.5685,145.122,101.009,101.919,0.00952696,0.0617543,21.0085,-360.069,-0.0790225,0.0,0.0
284,70.75,67.3945,77.243,145.359,101.007,101.998,0.00937375,0.0612745,21.0089,-360.069,-0.086055,0.0,0.0
286,71.25,67.0993,76.7704,143.363,101.02,102.143,0.00922564,0.0608015,21.0093,-360.079,-0.0974549,0.0,0.0
288,71.75,66.8794,76.2487,144.756,101.015,101.541,0.00908767,0.0604184,21.0096,-360.069,-0.0457602,0.0,0.0
290,72.25,66.9314,76.16,143.789,101.05,101.857,0.00895973,0.0599161,21.0102,-360.079,-0.0700556,0.0,0.0
292,72.75,66.676,75.4502,144.933,101.037,100.982,0.00883212,0.0595092,21.0108,-360.079,0.00485197,0.0,0.0
294,73.25,65.7678,74.7524,146.272,101.048,101.285,0.00870719,0.0590152,21.0117,-360.09,-0.0206623,0.0,0.0
296,73.75,65.4919,74.7804,148.821,101.037,102.258,0.00858006,0.0586151,21.0124,-360.09,-0.105787,0.0,0.0
298,74.25,65.717,74.652,147.498,101.064,101.804,0.00845374,0.0582189,21.0132,-360.079,-0.0642765,0.0,0.0
300,74.75,65.1827,74.2606,146.507,101.067,102.77,0.00835142,0.0578331,21.0141,-360.09,-0.147272,0.0,0.0
302,75.25,64.9728,73.9352,147.528,101.075,102.49,0.0082117,0.0574557,21.0148,-360.09,-0.122463,0.0,0.0
304,75.75,63.9916,73.8484,145.656,101.073,101.661,0.00809852,0.0570916,21.0154,-360.09,-0.051161,0.0,0.0
306,76.25,63.7982,72.9411,143.727,101.092,102.28,0.00796526,0.0567535,21.0161,-360.09,-0.102921,0.0,0.0
308,76.75,63.7577,72.6221,143.383,101.076,101.576,0.00785732,0.0564406,21.0171,-360.09,-0.0434521,0.0,0.0
310,77.25,63.3323,71.8129,144.489,101.115,101.907,0.00776989,0.0561873,21.0178,-360.09,-0.0687802,0.0,0.0
312,77.75,62.8985,72.5282,144.73,101.091,102.469,0.00764746,0.0558732,21.0184,-360.099,-0.119309,0.0,0.0
314,78.25,62.7721,71.6675,142.292,101.118,102.631,0.0075483,0.0556189,21.0189,-360.09,-0.130885,0.0,0.0
316,78.75,62.578,71.1437,144.886,101.114,102.006,0.00744548,0.0552623,21.0193,-360.09,-0.0773553,0.0,0.0
318,79.25,62.3049,70.946,145.823,101.13,102.599,0.00734195,0.0549735,21.0196,-360.09,-0.127138,0.0,0.0
320,79.75,62.0903,70.4795,144.549,101.11,102.026,0.00725809,0.0547395,21.0199,-360.09,-0.079499,0.0,0.0
322,80.25,61.7032,70.3983,143.26,101.14,102.355,0.00714921,0.0544816,21.0201,-360.09,-0.105256,0.0,0.0
324,80.75,61.4449,70.0524,144.684,101.133,102.746,0.00702415,0.0542727,21.0198,-360.099,-0.139453,0.0,0.0
326,81.25,61.3164,69.3666,143.607,101.153,101.882,0.00689582,0.0540818,21.0196,-360.099,-0.0632517,0.0,0.0
328,81.75,61.1263,69.0419,144.343,101.137,102.878,0.00676753,0.0539078,21.0194,-360.11,-0.150373,0.0,0.0
330,82.25,60.774,69.3083,143.399,101.149,102.018,0.00663859,0.0537669,21.0193,-360.11,-0.0753717,0.0,0.0
332,82.75,60.0975,68.9032,144.016,101.141,103.005,0.00651162,0.0536527,21.0192,-360.11,-0.160987,0.0,0.0
334,83.25,60.3508,68.5546,145.586,101.17,102.143,0.00638575,0.0534918,21.0191,-360.11,-0.084352,0.0,0.0
336,83.75,60.1019,68.2078,144.229,101.153,102.218,0.00626307,0.0533615,21.0195,-360.11,-0.0922942,0.0,0.0
338,84.25,59.5462,67.8106,145.707,101.175,102.322,0.0061637,0.0531328,21.0197,-360.11,-0.0992879,0.0,0.0
340,84.75,59.7286,67.6871,144.385,101.164,102.695,0.00606022,0.0529116,21.02,-360.11,-0.132356,0.0,0.0
342,85.25,59.5907,67.1843,142.732,101.181,102.137,0.00595569,0.0527,21.0202,-360.099,-0.0828588,0.0,0.0
344,85.75,58.8593,67.325,144.172,101.169,101.799,0.00586578,0.0525143,21.0203,-360.11,-0.0547299,0.0,0.0
346,86.25,58.4595,66.9835,142.38,101.192,102.568,0.00578821,0.0523508,21.0205,-360.12,-0.119014,0.0,0.0
348,86.75,58.439,65.99,146.071,101.187,102.691,0.00572539,0.0522184,21.0206,-360.12,-0.130033,0.0,0.0
350,87.25,57.9612,65.9068,144.295,101.194,102.943,0.0056745,0.0520702,21.0211,-360.12,-0.150923,0.0,0.0
352,87.75,57.7327,66.2119,141.544,101.202,102.455,0.00563722,0.0519501,21.0215,-360.12,-0.108476,0.0,0.0
354,88.25,57.3303,65.4907,145.046,101.213,102.087,0.00561057,0.0518529,21.0219,-360.12,-0.0758453,0.0,0.0
356,88.75,57.0543,65.4753,148.347,101.205,102.332,0.00558899,0.0517467,21.0222,-360.12,-0.097645,0.0,0.0
358,89.25,57.3045,65.4856,145.632,101.215,102.597,0.00557899,0.0516608,21.0224,-360.12,-0.119569,0.0,0.0
360,89.75,56.6349,65.0895,145.03,101.221,103.273,0.00557089,0.0515638,21.0226,-360.12,-0.176853,0.0,0.0
362,90.25,56.6641,64.4505,143.748,101.233,102.038,0.00555559,0.0514708,21.0227,-360.12,-0.0698115,0.0,0.0
364,90.75,56.2244,64.3794,144.948,101.228,102.819,0.00554321,0.0513826,21.0228,-360.13,-0.137447,0.0,0.0
366,91.25,56.5791,63.5375,147.74,101.225,102.116,0.00553317,0.0513111,21.0229,-360.12,-0.0771789,0.0,0.0
368,91.75,56.1263,63.5751,145.991,101.237,102.442,0.00549137,0.0512396,21.023,-360.13,-0.104301,0.0,0.0
370,92.25,56.145,63.6041,142.399,101.243,101.861,0.00545751,0.0511816,21.0231,-360.12,-0.0536122,0.0,0.0
372,92.75,55.7159,63.332,144.103,101.251,102.185,0.00538107,0.0510843,21.0231,-360.13,-0.0809386,0.0,0.0
374,93.25,55.5844,62.9219,144.222,101.267,103.418,0.00536051,0.0509601,21.0232,-360.13,-0.185269,0.0,0.0
376,93.75,55.3534,63.1059,144.181,101.265,101.832,0.00530915,0.0508596,21.0232,-360.13,-0.0492286,0.0,0.0
378,94.25,54.7596,62.2084,142.299,101.276,101.832,0.00526756,0.0507234,21.0232,-360.13,-0.0482848,0.0,0.0
380,94.75,54.6996,61.9679,143.128,101.285,102.336,0.00523262,0.0506132,21.0233,-360.13,-0.0910486,0.0,0.0
382,95.25,54.8593,62.0698,145.837,101.288,102.436,0.00520432,0.0505023,21.0237,-360.13,-0.0992762,0.0,0.0
384,95.75,54.6615,61.2288,145.328,101.293,102.679,0.00517882,0.0503931,21.0241,-360.13,-0.119704,0.0,0.0
386,96.25,54.288,61.6473,147.284,101.297,102.49,0.00515584,0.050319,21.0244,-360.14,-0.103247,0.0,0.0
388,96.75,54.509,61.631,143.694,101.31,102.253,0.00512674,0.0502719,21.0247,-360.13,-0.0816845,0.0,0.0
390,97.25,54.117,61.0344,147.014,101.304,102.841,0.00509374,0.0502194,21.0247,-360.14,-0.13269,0.0,0.0
392,97.75,53.875,60.8035,144.637,101.321,102.762,0.00506701,0.0501639,21.0247,-360.15,-0.12446,0.0,0.0
394,98.25,53.4976,60.3081,145.528,101.327,102.901,0.00501788,0.050097,21.0247,-360.14,-0.135821,0.0,0.0
396,98.75,53.4695,60.9566,149.295,101.342,102.607,0.00495334,0.050023,21.0248,-360.15,-0.109318,0.0,0.0
398,99.25,52.7366,59.5793,144.729,101.336,103.134,0.00487557,0.0499847,21.0248,-360.15,-0.154936,0.0,0.0
400,99.75,53.2194,59.8766,146.408,101.346,102.223,0.00478964,0.0499731,21.0248,-360.14,-0.0758713,0.0,0.0
402,100.25,52.9781,60.0318,146.294,101.34,102.709,0.00472004,0.0499637,21.0248,-360.15,-0.118235,0.0,0.0
404,100.75,53.0698,59.6598,148.522,101.364,101.723,0.00463017,0.0499834,21.0248,-360.15,-0.0311208,0.0,0.0
406,101.25,52.5936,59.8266,146.52,101.356,103.258,0.00455737,0.0499993,21.0248,-360.15,-0.163872,0.0,0.0
408,101.75,52.4547,59.1659,146.312,101.37,102.418,0.00444498,0.0500122,21.0248,-360.16,-0.090684,0.0,0.0
410,102.25,51.7228,59.0459,145.033,101.368,103.116,0.00438754,0.0500364,21.0248,-360.16,-0.150653,0.0,0.0
412,102.75,52.0065,58.7518,148.366,101.377,101.995,0.00436305,0.0500559,21.0248,-360.16,-0.0535239,0.0,0.0
414,103.25,52.2838,59.0795,144.748,101.373,102.235,0.00430754,0.0500444,21.0251,-360.16,-0.0745903,0.0,0.0
416,103.75,51.796,58.5493,144.755,101.395,101.88,0.00426259,0.0500351,21.0255,-360.15,-0.0420851,0.0,0.0
418,104.25,51.7684,57.7918,147.154,101.386,102.404,0.00422245,0.0500003,21.0259,-360.16,-0.0880469,0.0,0.0
420,104.75,51.6465,57.9441,143.847,101.394,102.242,0.00418994,0.04996,21.0262,-360.16,-0.0733583,0.0,0.0
422,105.25,51.6052,57.7248,145.046,101.394,101.883,0.00416361,0.0498962,21.0264,-360.16,-0.0424487,0.0,0.0
424,105.75,51.1848,57.4885,144.98,101.415,102.624,0.00414476,0.0498486,21.0266,-360.17,-0.104453,0.0,0.0
426,106.25,50.6489,57.0796,142.496,101.406,101.469,0.00412949,0.0497672,21.0267,-360.17,-0.005448,0.0,0.0
428,106.75,50.8255,57.1393,143.989,101.426,101.933,0.0041258,0.0496602,21.0269,-360.17,-0.0439467,0.0,0.0
430,107.25,50.2832,56.4367,144.122,101.41,102.651,0.0041228,0.0495736,21.027,-360.16,-0.107132,0.0,0.0
432,107.75,50.462,56.5544,145.432,101.437,102.526,0.00412038,0.0494675,21.027,-360.17,-0.0941516,0.0,0.0
434,108.25,50.0499,56.2861,146.682,101.433,102.944,0.00411841,0.0493492,21.0271,-360.17,-0.130302,0.0,0.0
436,108.75,50.4479,56.1142,145.857,101.441,102.506,0.00411421,0.0492534,21.0274,-360.17,-0.0920538,0.0,0.0
438,109.25,50.1562,56.4782,143.198,101.442,101.671,0.00410846,0.0491484,21.0278,-360.17,-0.0198953,0.0,0.0
440,109.75,50.2594,56.3468,144.531,101.449,101.847,0.0041012,0.0490634,21.0282,-360.17,-0.0344364,0.0,0.0
442,110.25,49.7044,55.8203,145.274,101.436,102.306,0.00409297,0.0489802,21.0285,-360.17,-0.0752096,0.0,0.0
444,110.75,49.7095,55.6809,141.526,101.461,102.626,0.00408239,0.0488998,21.0287,-360.17,-0.100549,0.0,0.0
446,111.25,49.5094,55.3371,148.342,101.444,102.303,0.0040703,0.0487916,21.0289,-360.18,-0.0742921,0.0,0.0
448,111.75,49.5169,54.9333,147.35,101.483,101.588,0.00406051,0.0486652,21.0291,-360.18,-0.00909151,0.0,0.0
450,112.25,49.4851,55.3085,142.949,101.459,103.153,0.00404476,0.0485627,21.0292,-360.18,-0.145948,0.0,0.0
452,112.75,48.8533,55.0696,145.741,101.466,103.013,0.00402496,0.0484934,21.0297,-360.18,-0.133353,0.0,0.0
454,113.25,49.2338,55.4251,144.236,101.459,101.863,0.00399785,0.0484301,21.0302,-360.18,-0.0350665,0.0,0.0
456,113.75,49.2592,55.1011,143.121,101.472,101.964,0.00396593,0.0483723,21.0305,-360.18,-0.0425696,0.0,0.0
458,114.25,49.1526,54.1617,142.312,101.461,102.604,0.0039316,0.0483255,21.0308,-360.18,-0.098762,0.0,0.0
460,114.75,48.6954,54.2916,147.822,101.478,102.769,0.00389618,0.0482193,21.0311,-360.19,-0.11142,0.0,0.0
462,115.25,48.714,54.437,146.207,101.472,103.375,0.00386424,0.0481333,21.0313,-360.18,-0.163725,0.0,0.0
464,115.75,48.3372,54.2592,142.064,101.501,102.907,0.00383544,0.0480636,21.0314,-360.18,-0.121243,0.0,0.0
466,116.25,48.3585,54.0208,145.029,101.471,102.455,0.00381211,0.0480072,21.0315,-360.19,-0.0850558,0.0,0.0
468,116.75,48.3657,53.7433,147.349,101.486,102.783,0.00378076,0.0479615,21.0316,-360.18,-0.111884,0.0,0.0
470,117.25,48.2239,53.7595,144.366,101.468,102.494,0.00375082,0.0478835,21.0317,-360.19,-0.088692,0.0,0.0
472,117.75,47.874,53.2648,144.632,101.48,102.401,0.00372247,0.0478203,21.032,-360.19,-0.0796548,0.0,0.0
474,118.25,48.1599,53.5131,144.279,101.477,103.078,0.0036995,0.0477692,21.0321,-360.18,-0.137891,0.0,0.0
476,118.75,47.4165,53.2785,150.805,101.486,102.2,0.0036809,0.0477277,21.0323,-360.19,-0.0618134,0.0,0.0
478,119.25,47.7379,52.8284,145.134,101.477,101.42,0.00366954,0.0476539,21.0324,-360.19,0.00493386,0.0,0.0
480,119.75,47.5345,53.2029,144.421,101.497,102.61,0.00366034,0.0475941,21.0325,-360.19,-0.0961294,0.0,0.0
482,120.25,47.707,52.8478,143.544,101.478,103.01,0.00365614,0.047532,21.0326,-360.19,-0.132088,0.0,0.0
484,120.75,47.2669,53.1636,146.73,101.494,103.043,0.00365566,0.0474817,21.0327,-360.19,-0.133522,0.0,0.0
486,121.25,47.3531,52.7561,146.036,101.476,102.42,0.00364415,0.0474482,21.0327,-360.18,-0.0816097,0.0,0.0
488,121.75,47.0743,52.6672,145.888,101.485,102.341,0.00363483,0.0474275,21.0328,-360.19,-0.0740877,0.0,0.0
490,122.25,47.0813,52.2759,142.755,101.481,102.074,0.00361245,0.0474107,21.0326,-360.19,-0.0513993,0.0,0.0
492,122.75,46.6941,51.9891,145.343,101.492,103.186,0.00359433,0.0473289,21.0322,-360.2,-0.14584,0.0,0.0
494,123.25,46.9305,52.0504,145.44,101.477,102.316,0.00356359,0.0472626,21.0319,-360.21,-0.0725962,0.0,0.0
496,123.75,46.8802,51.95,143.844,101.484,103.062,0.00353869,0.0472089,21.0316,-360.19,-0.135991,0.0,0.0
498,124.25,46.8504,51.3191,145.225,101.48,102.854,0.00350001,0.0471654,21.0314,-360.2,-0.118517,0.0,0.0
500,124.75,46.8168,51.4334,143.958,101.482,102.392,0.00346867,0.0471373,21.0313,-360.2,-0.078606,0.0,0.0
502,125.25,46.6724,51.4475,148.605,101.473,102.408,0.00344329,0.0471211,21.0311,-360.21,-0.0807976,0.0,0.0
504,125.75,46.5927,51.9014,147.677,101.483,101.56,0.00342273,0.0471223,21.031,-360.21,-0.00662589,0.0,0.0
506,126.25,46.1675,51.064,147.427,101.476,102.916,0.00336044,0.0471362,21.031,-360.21,-0.124169,0.0,0.0
508,126.75,46.0163,51.2398,145.496,101.475,102.439,0.00330999,0.0471475,21.0305,-360.21,-0.0833238,0.0,0.0
510,127.25,46.125,50.8516,144.579,101.469,101.915,0.0032536,0.0471566,21.0301,-360.22,-0.038668,0.0,0.0
512,127.75,45.7733,51.1321,141.391,101.499,102.871,0.00319396,0.047164,21.0298,-360.21,-0.118328,0.0,0.0
514,128.25,45.7136,50.7654,142.877,101.478,103.028,0.00313398,0.04717,21.0295,-360.22,-0.133577,0.0,0.0
516,128.75,45.98,50.5815,145.704,101.488,101.982,0.0030749,0.0470929,21.0296,-360.22,-0.0427496,0.0,0.0
518,129.25,45.7504,50.2818,144.695,101.469,101.603,0.00301928,0.0470305,21.0296,-360.22,-0.0115636,0.0,0.0
520,129.75,45.6935,50.9537,144.316,101.47,102.546,0.00296722,0.0469799,21.0297,-360.22,-0.0930023,0.0,0.0
522,130.25,45.7566,50.1459,147.463,101.457,101.918,0.00292506,0.0469929,21.0297,-360.21,-0.0399727,0.0,0.0
524,130.75,45.3414,50.2689,144.759,101.454,102.438,0.00288845,0.0470034,21.0297,-360.22,-0.0850642,0.0,0.0
526,131.25,45.4373,49.9134,147.829,101.468,101.962,0.00285879,0.0470255,21.0298,-360.22,-0.0427718,0.0,0.0
528,131.75,45.4361,49.9552,147.255,101.458,104.011,0.00283231,0.0470434,21.0298,-360.22,-0.218944,0.0,0.0
530,132.25,45.2597,49.5707,144.805,101.455,103.17,0.00281086,0.047017,21.0298,-360.23,-0.147712,0.0,0.0
532,132.75,45.0888,49.8515,145.226,101.453,102.705,0.00279348,0.0469956,21.0298,-360.22,-0.108125,0.0,0.0
534,133.25,44.7866,49.7175,146.042,101.455,102.329,0.00275235,0.0469373,21.0298,-360.23,-0.0755762,0.0,0.0
536,133.75,44.8497,49.7301,149.216,101.443,102.761,0.00271904,0.0468901,21.0298,-360.23,-0.113764,0.0,0.0
538,134.25,45.053,49.1782,143.291,101.459,102.119,0.0026687,0.0468382,21.0299,-360.23,-0.0571297,0.0,0.0
540,134.75,45.0416,48.9671,146.047,101.439,102.261,0.00262793,0.0467962,21.0299,-360.23,-0.0710917,0.0,0.0
542,135.25,44.9069,49.355,144.327,101.442,102.411,0.00257525,0.0467334,21.0299,-360.23,-0.0838111,0.0,0.0
544,135.75,44.801,48.9832,146.765,101.424,102.56,0.00253258,0.0466567,21.0299,-360.23,-0.0981857,0.0,0.0
546,136.25,43.9586,48.7885,149.17,101.43,102.117,0.00249679,0.0465945,21.0299,-360.23,-0.0594588,0.0,0.0
548,136.75,44.695,48.5857,143.021,101.41,102.929,0.00246779,0.0465579,21.0299,-360.23,-0.13102,0.0,0.0
550,137.25,44.5977,48.6489,144.555,101.416,102.379,0.00245789,0.0465281,21.0299,-360.24,-0.0832734,0.0,0.0
552,137.75,44.2922,48.8254,142.841,101.396,103.365,0.00246208,0.046545,21.0299,-360.24,-0.169457,0.0,0.0
554,138.25,44.3057,48.4347,148.762,101.396,102.117,0.00246548,0.0465587,21.0299,-360.24,-0.0624275,0.0,0.0
556,138.75,43.9719,48.5772,148.155,101.391,102.491,0.0025002,0.0465698,21.0299,-360.24,-0.0951051,0.0,0.0
558,139.25,44.1174,48.1892,146.372,101.401,102.608,0.00252832,0.0465787,21.0299,-360.24,-0.104259,0.0,0.0
560,139.75,43.8802,48.1883,145.698,101.382,102.24,0.00255822,0.0465932,21.0299,-360.24,-0.0742238,0.0,0.0
562,140.25,43.579,47.7219,146.275,101.382,102.324,0.00258884,0.0466114,21.0299,-360.24,-0.0814957,0.0,0.0
564,140.75,44.2426,48.0311,144.688,101.358,101.97,0.00261365,0.0466261,21.0299,-360.24,-0.0530367,0.0,0.0
566,141.25,43.5479,48.1029,142.472,101.372,103.164,0.00263005,0.046597,21.0299,-360.24,-0.154398,0.0,0.0
568,141.75,43.9836,47.9982,145.718,101.34,102.898,0.00264334,0.0465735,21.0299,-360.24,-0.13445,0.0,0.0
570,142.25,43.4785,47.6546,144.448,101.355,102.552,0.00265287,0.0465545,21.0299,-360.24,-0.103467,0.0,0.0
572,142.75,43.7901,47.5817,141.197,101.328,102.41,0.00266059,0.0465391,21.0299,-360.23,-0.0935889,0.0,0.0
574,143.25,43.6675,48.0711,144.392,101.34,101.453,0.0026607,0.0465266,21.0299,-360.24,-0.00988759,0.0,0.0
576,143.75,43.837,47.2743,146.683,101.32,102.629,0.00266078,0.0465574,21.0299,-360.24,-0.113137,0.0,0.0
578,144.25,43.8833,47.6831,145.169,101.311,102.268,0.00265347,0.0465824,21.0299,-360.24,-0.0828238,0.0,0.0
580,144.75,43.4158,47.1932,145.98,101.293,102.836,0.00264755,0.0466026,21.0299,-360.24,-0.133199,0.0,0.0
582,145.25,43.356,47.248,147.247,101.299,102.039,0.00264029,0.046619,21.0299,-360.24,-0.064113,0.0,0.0
584,145.75,42.9942,47.1986,151.277,101.279,102.375,0.00263442,0.0465777,21.0299,-360.25,-0.0948264,0.0,0.0
586,146.25,43.404,47.4042,144.421,101.282,101.668,0.00262966,0.0465442,21.0299,-360.24,-0.0335078,0.0,0.0
588,146.75,43.5531,46.6325,149.59,101.251,102.645,0.00261965,0.0465171,21.0299,-360.25,-0.120465,0.0,0.0
590,147.25,42.9882,46.6409,141.566,101.264,102.976,0.00261155,0.0464951,21.0299,-360.24,-0.147738,0.0,0.0
592,147.75,42.9366,47.2118,142.907,101.231,102.162,0.00259761,0.0464364,21.0299,-360.24,-0.0806423,0.0,0.0
594,148.25,43.3765,47.0181,146.423,101.235,101.198,0.00258632,0.0463888,21.0299,-360.24,0.0032612,0.0,0.0
596,148.75,42.7705,46.7487,144.779,101.207,102.348,0.00257717,0.0463072,21.0299,-360.24,-0.0988587,0.0,0.0
598,149.25,43.1574,46.9285,144.562,101.207,102.8,0.00254388,0.0462023,21.0299,-360.24,-0.13763,0.0,0.0
600,149.75,43.0284,46.4916,146.288,101.187,102.166,0.0025169,0.0461173,21.0298,-360.25,-0.0848579,0.0,0.0
602,150.25,42.8587,46.3031,144.935,101.19,101.919,0.00247909,0.0460621,21.0298,-360.25,-0.0632221,0.0,0.0
604,150.75,42.936,46.18,144.695,101.163,102.332,0.00244846,0.0460174,21.0298,-360.24,-0.101286,0.0,0.0
606,151.25,42.9629,46.4144,148.009,101.172,101.724,0.00241913,0.0459812,21.03,-360.25,-0.0479489,0.0,0.0
608,151.75,42.5876,46.7755,145.324,101.137,101.696,0.0023913,0.0459666,21.0304,-360.25,-0.0484971,0.0,0.0
610,152.25,42.6768,46.5131,147.437,101.133,100.681,0.00236811,0.0459681,21.0307,-360.25,0.0394743,0.0,0.0
612,152.75,42.6758,45.7647,143.615,101.112,102.211,0.00234875,0.0459621,21.031,-360.24,-0.0953181,0.0,0.0
614,153.25,42.2845,46.3326,147.709,101.11,101.813,0.00233307,0.0459507,21.0312,-360.24,-0.0610559,0.0,0.0
616,153.75,42.7524,46.2831,143.668,101.09,101.123,0.00232159,0.0459552,21.0314,-360.25,-0.00294662,0.0,0.0
618,154.25,42.5356,46.0283,143.305,101.088,101.45,0.00231229,0.0459588,21.0315,-360.25,-0.0315377,0.0,0.0
620,154.75,42.2393,45.6779,147.672,101.072,100.919,0.00231187,0.045969,21.0316,-360.26,0.0134173,0.0,0.0
622,155.25,42.1145,46.264,146.097,101.088,101.868,0.00231792,0.0459836,21.0317,-360.25,-0.0676808,0.0,0.0
624,155.75,42.1447,45.6742,143.978,101.075,101.827,0.00232994,0.0459955,21.0318,-360.24,-0.0652421,0.0,0.0
626,156.25,42.4037,45.8419,148.225,101.102,102.765,0.00234607,0.0459778,21.0318,-360.25,-0.143752,0.0,0.0
628,156.75,42.2414,45.5599,142.431,101.098,101.861,,0.0459635,,-360.24,-0.0662174,0.0,0.0
630,157.25,41.9094,45.2481,142.216,101.112,101.616,,0.0459303,,-360.24,-0.0437567,0.0,0.0
632,157.75,42.3612,45.4465,145.07,101.115,101.944,,0.0458841,,-360.25,-0.0719337,0.0,0.0
634,158.25,42.1795,45.2252,148.016,101.121,102.239,,0.0458179,,-360.25,-0.0968888,0.0,0.0
636,158.75,42.1905,45.392,144.364,101.127,102.467,,0.0457385,,-360.25,-0.116082,0.0,0.0
638,159.25,41.9304,44.9782,143.482,101.134,103.278,,0.0456885,,-360.25,-0.184884,0.0,0.0
640,159.75,41.9574,45.0868,143.819,101.126,102.827,,,,-360.26,-0.146995,0.0,0.0
642,160.25,42.3725,45.6076,145.317,101.158,102.381,,,,-360.26,-0.105905,0.0,0.0
644,160.75,41.8568,45.2773,145.125,101.149,102.021,,,,-360.26,-0.0756615,0.0,0.0
646,161.25,42.0443,45.031,147.472,101.156,101.382,,,,-360.26,-0.0196484,0.0,0.0
648,161.75,41.5213,45.2113,148.971,101.162,102.642,,,,-360.25,-0.12798,0.0,0.0
650,162.25,41.4252,44.2218,146.289,101.172,102.793,,,,-360.26,-0.140129,0.0,0.0
652,162.75,41.8643,44.7816,148.896,101.168,101.945,,,,-360.26,-0.0674924,0.0,0.0
654,163.25,41.4523,44.6646,147.313,101.18,101.773,,,,-360.25,-0.0515081,0.0,0.0
656,163.75,42.0636,44.4119,145.288,101.18,101.556,,,,-360.25,-0.032649,0.0,0.0
658,164.25,41.7102,44.8535,145.691,101.194,102.276,,,,-360.26,-0.0936616,0.0,0.0
660,164.75,41.8981,44.2259,146.476,101.19,102.191,,,,-360.26,-0.0867345,0.0,0.0
662,165.25,41.6951,44.3382,145.989,101.205,101.927,,,,-360.26,-0.0626232,0.0,0.0
664,165.75,41.7341,44.6399,146.617,101.217,102.584,,,,-360.27,-0.118265,0.0,0.0
666,166.25,41.8296,44.6876,143.885,101.219,101.938,,,,-360.25,-0.062354,0.0,0.0
668,166.75,41.3887,44.4201,146.045,101.221,101.062,,,,-360.26,0.0137928,0.0,0.0
670,167.25,41.2633,44.3528,138.97,101.227,102.455,,,,-360.25,-0.106236,0.0,0.0
671,167.5,41.6636,44.1687,146.575,101.216,103.032,,,,-360.27,-0.156762,0.0,0.0