File: 01_Data/Rebond_Foam_Carpet_Pad/Cone/Rebond_Foam_Carpet_Pad_Cone_HF50Scan_220414_R3.csv
Names,Time,Stack TC,Smoke TC,Exh Press,Smoke Comp,Smoke Meas,CO Meter,CO2 Meter,O2 Meter,Sample Mass,Ext Coeff,Start Test,Flame Verif
Chan Gain,,500,500,1,1,1,1,1,1,1,1,1.0,1.0
Offset,,0,0,0.134258,0,0,0,0,0,0,0,0.0,0.0
Gain,,1,1,25.011,13.171,13.8983,1,1,1,1.00092,1.00459,1.0,1.0
Units,sec,C,C,Pa,%,%,%,%,%,g,/m,,
Baseline,,38.0836,38.8625,147.53,101.086,101.331,0.00115364,0.046437,21.0298,-833.5,-0.0212249,,
2,0.25,37.7942,38.7461,147.929,101.312,99.9311,0.00252582,0.0718989,21.0104,-353.544,0.120959,0.0,0.0
4,0.75,38.3242,38.8802,141.015,101.313,96.742,0.00309151,0.083456,21.0092,-353.724,0.406807,0.0,0.0
6,1.25,36.6518,38.2347,141.135,101.323,92.0089,0.00377129,0.0928172,20.9917,-353.814,0.84975,0.0,1.0
8,1.75,36.3518,37.3981,134.548,101.324,88.3045,0.00458182,0.111188,20.9775,-353.814,1.21196,0.0,1.0
10,2.25,36.1501,36.9987,137.066,101.33,83.3496,0.00547227,0.135777,20.9322,-353.754,1.72132,0.0,1.0
12,2.75,36.6295,37.2649,131.082,101.327,81.3651,0.00643712,0.155695,20.8955,-353.934,1.93344,0.0,1.0
14,3.25,36.653,36.8209,129.989,101.352,78.1984,0.00743788,0.181388,20.835,-354.024,2.28542,0.0,1.0
16,3.75,37.1863,37.5683,135.917,101.346,75.12,0.00846961,0.210803,20.786,-354.034,2.63882,0.0,1.0
18,4.25,37.1509,37.1689,128.235,101.361,76.8263,0.00950432,0.23463,20.7262,-354.064,2.44225,0.0,1.0
20,4.75,37.7499,38.0059,128.365,101.365,75.6574,0.0105237,0.267519,20.6778,-354.194,2.57768,0.0,1.0
22,5.25,38.1973,38.362,125.074,101.375,73.2016,0.0115127,0.294159,20.627,-354.244,2.86934,0.0,1.0
24,5.75,37.9704,38.7562,134.082,101.371,76.6499,0.0123137,0.3248,20.5859,-354.284,2.46332,0.0,1.0
26,6.25,37.7434,38.52,131.282,101.383,78.2527,0.0131684,0.34962,20.5526,-354.324,2.28199,0.0,1.0
28,6.75,37.9831,37.7977,131.445,101.389,76.266,0.0140459,0.377467,20.5136,-354.454,2.5092,0.0,1.0
30,7.25,37.9469,38.1696,125.196,101.408,73.0811,0.014895,0.403515,20.482,-354.524,2.88675,0.0,1.0
32,7.75,38.8168,38.506,126.434,101.393,76.2686,0.0157072,0.427756,20.447,-354.584,2.50922,0.0,1.0
34,8.25,39.2468,39.1871,127.619,101.405,75.1726,0.0163651,0.447391,20.4187,-354.645,2.63786,0.0,1.0
36,8.75,39.7731,40.0477,125.378,101.416,75.5577,0.0172066,0.469108,20.3922,-354.765,2.59377,0.0,1.0
38,9.25,39.8335,40.1842,124.891,101.431,75.5123,0.0178883,0.486699,20.3676,-354.815,2.60036,0.0,1.0
40,9.75,40.6869,40.8137,123.239,101.417,74.5041,0.0187015,0.503797,20.3423,-354.885,2.71758,0.0,1.0
42,10.25,40.7013,42.0918,127.417,101.43,74.706,0.0193601,0.520211,20.317,-354.975,2.69489,0.0,0.0
44,10.75,41.8058,41.4765,128.79,101.428,76.9022,0.020148,0.533507,20.2964,-355.045,2.43931,0.0,0.0
46,11.25,41.6795,41.4233,120.308,101.442,71.7145,0.0207863,0.550726,20.2673,-355.105,3.05606,0.0,0.0
48,11.75,42.2371,42.8697,120.48,101.453,69.9395,0.0218685,0.564674,20.2231,-355.195,3.27787,0.0,0.0
50,12.25,42.8598,43.1173,122.435,101.458,75.0339,0.0222138,0.581842,20.2046,-355.295,2.65867,0.0,0.0
52,12.75,43.2008,43.8091,118.205,101.458,70.9481,0.0228044,0.60103,20.1729,-355.395,3.15211,0.0,0.0
54,13.25,44.1228,44.6357,118.776,101.475,75.3982,0.0239711,0.624214,20.1231,-355.485,2.61752,0.0,0.0
56,13.75,44.6221,45.0486,110.715,101.471,71.3621,0.0243612,0.64987,20.1014,-355.585,3.102,0.0,0.0
58,14.25,45.1661,45.9235,116.417,101.487,68.0563,0.0252587,0.670651,20.0643,-355.645,3.5213,0.0,0.0
60,14.75,46.0509,46.6134,112.316,101.48,67.7403,0.0261933,0.728361,19.9946,-355.756,3.56175,0.0,0.0
62,15.25,46.2827,47.2235,112.407,101.49,65.7952,0.0271988,0.743885,19.9382,-355.846,3.81933,0.0,0.0
64,15.75,47.2549,48.0467,111.968,101.5,67.4956,0.0282369,0.803708,19.8461,-356.006,3.59535,0.0,0.0
66,16.25,48.1042,48.8555,110.125,101.496,69.1358,0.0293207,0.872823,19.7716,-356.136,3.38342,0.0,0.0
68,16.75,48.8304,49.8597,111.991,101.512,68.4325,0.0304173,0.891415,19.6399,-356.266,3.47491,0.0,0.0
70,17.25,50.1817,51.0901,99.9789,101.516,67.5546,0.0315335,0.967567,19.5332,-356.426,3.58902,0.0,0.0
72,17.75,51.4668,51.554,99.8331,101.525,64.8672,0.0326428,1.05201,19.3764,-356.556,3.94758,0.0,0.0
74,18.25,52.3927,52.9882,90.0899,101.538,65.1726,0.0337143,1.1409,19.2494,-356.746,3.9073,0.0,0.0
76,18.75,54.057,55.0193,87.8588,101.531,67.2555,0.0347377,1.21289,19.0716,-356.947,3.6294,0.0,0.0
78,19.25,55.5353,56.4069,84.5325,101.534,65.8249,0.0355666,1.32083,18.9276,-357.157,3.81919,0.0,0.0
80,19.75,56.2473,57.7329,78.6239,101.543,69.0972,0.0363569,1.43958,18.811,-357.267,3.39243,0.0,0.0
82,20.25,57.5815,58.9615,87.3581,101.551,72.2931,0.0371038,1.56397,18.7166,-357.407,2.99472,0.0,0.0
84,20.75,59.8336,61.524,76.0242,101.564,75.0555,0.0377088,1.66472,18.5576,-357.647,2.66538,0.0,0.0
86,21.25,62.1769,62.937,74.3061,101.565,76.641,0.0381989,1.81024,18.4289,-357.857,2.48124,0.0,0.0
88,21.75,64.0155,65.7621,79.4574,101.574,78.2239,0.0384545,1.92812,18.2819,-357.988,2.30186,0.0,0.0
90,22.25,65.9582,67.8887,76.2715,101.579,77.0414,0.0386616,2.05524,18.1246,-358.238,2.43651,0.0,0.0
92,22.75,68.181,70.5551,70.8576,101.584,78.0525,0.0386348,2.18668,17.9612,-358.428,2.32205,0.0,0.0
94,23.25,71.0408,73.2789,70.5248,101.585,78.718,0.0386131,2.29315,17.7965,-358.568,2.24731,0.0,0.0
96,23.75,73.6749,76.2118,82.1335,101.596,78.3062,0.0383485,2.37939,17.6631,-358.758,2.29448,0.0,0.0
98,24.25,76.6957,80.2401,74.6694,101.603,76.7423,0.0381342,2.47904,17.555,-358.988,2.4729,0.0,0.0
100,24.75,79.3841,83.3475,69.7478,101.619,78.4966,0.0376405,2.55976,17.4675,-359.119,2.27506,0.0,0.0
102,25.25,82.3545,86.5002,82.8647,101.612,78.4041,0.0372406,2.61698,17.3966,-359.269,2.28485,0.0,0.0
104,25.75,84.3852,89.3937,83.0708,101.627,76.367,0.0365392,2.65598,17.3622,-359.439,2.5182,0.0,0.0
106,26.25,86.8659,92.6161,85.0454,101.633,77.407,0.0359711,2.65532,17.355,-359.609,2.39946,0.0,0.0
108,26.75,89.0727,95.4012,81.5335,101.648,78.5407,0.0351451,2.65479,17.3492,-359.769,2.27265,0.0,0.0
110,27.25,91.0686,97.8099,96.2106,101.633,77.0193,0.0341468,2.60915,17.4101,-359.819,2.44377,0.0,0.0
112,27.75,93.3661,100.844,93.3697,101.652,76.8463,0.0330171,2.57218,17.4594,-359.909,2.46523,0.0,0.0
114,28.25,95.3575,103.264,87.5451,101.656,78.2714,0.0318131,2.48355,17.5478,-360.049,2.30365,0.0,0.0
116,28.75,97.1839,105.483,94.1497,101.674,80.4141,0.0308378,2.41176,17.6628,-360.15,2.06722,0.0,0.0
118,29.25,99.1281,107.469,102.744,101.668,76.5731,0.0293433,2.31128,17.8068,-360.16,2.49797,0.0,0.0
120,29.75,100.2,109.484,109.174,101.683,75.9882,0.0281327,2.1918,17.969,-360.26,2.56686,0.0,0.0
122,30.25,101.347,110.818,109.211,101.685,78.9831,0.0264951,2.09502,18.1674,-360.38,2.22636,0.0,0.0
124,30.75,101.776,112.076,112.559,101.705,80.035,0.0251686,1.93332,18.3883,-360.37,2.11148,0.0,0.0
126,31.25,102.594,113.249,113.177,101.687,78.8707,0.023522,1.80235,18.5672,-360.4,2.23912,0.0,0.0
128,31.75,103.203,113.354,125.16,101.709,85.9836,0.0221883,1.64305,18.7929,-360.45,1.48006,0.0,0.0
130,32.25,103.111,113.816,127.03,101.699,85.542,0.0208302,1.51401,18.9757,-360.46,1.52463,0.0,0.0
132,32.75,103.223,114.439,131.924,101.719,88.6111,0.01948,1.38246,19.1934,-360.49,1.21574,0.0,0.0
134,33.25,103.128,114.193,132.112,101.714,95.7775,0.0183864,1.25156,19.3698,-360.5,0.529927,0.0,0.0
136,33.75,102.755,113.994,137.383,101.733,96.8633,0.0173107,1.12928,19.5126,-360.51,0.432223,0.0,0.0
138,34.25,102.35,113.73,132.045,101.728,97.0083,0.0162687,1.01561,19.6742,-360.5,0.41862,0.0,0.0
140,34.75,101.805,113.333,139.01,101.749,98.9174,0.0154246,0.923533,19.8052,-360.52,0.248694,0.0,0.0
142,35.25,101.622,112.914,137.821,101.742,99.1104,0.014692,0.82235,19.9286,-360.51,0.230892,0.0,0.0
144,35.75,100.562,112.206,138.09,101.746,101.161,0.0140986,0.740392,20.0442,-360.5,0.0507638,0.0,0.0
146,36.25,99.7258,111.435,141.231,101.74,102.617,0.013681,0.663902,20.1515,-360.51,-0.0756249,0.0,0.0
148,36.75,99.3104,110.785,145.069,101.755,101.55,0.0133427,0.59285,20.2507,-360.53,0.0177461,0.0,0.0
150,37.25,98.7968,109.974,142.397,101.755,102.393,0.0131809,0.535298,20.3429,-360.52,-0.05512,0.0,0.0
152,37.75,97.7634,109.366,139.567,101.768,103.052,0.0130498,0.476927,20.4285,-360.51,-0.11048,0.0,0.0
154,38.25,97.5289,108.918,142.294,101.762,104.49,0.0130573,0.429646,20.5032,-360.52,-0.233139,0.0,0.0
156,38.75,97.0132,108.232,138.53,101.773,103.871,0.0131125,0.384201,20.5685,-360.53,-0.179749,0.0,0.0
158,39.25,96.126,107.298,143.573,101.775,103.242,0.0132015,0.34739,20.6252,-360.55,-0.126049,0.0,0.0
160,39.75,95.1591,106.446,145.847,101.798,103.113,0.0132735,0.312729,20.6745,-360.54,-0.11316,0.0,0.0
162,40.25,94.9526,106.134,141.38,101.783,103.452,0.0133318,0.284653,20.7145,-360.53,-0.143361,0.0,0.0
164,40.75,94.0288,105.287,140.003,101.807,103.822,0.0134609,0.258534,20.7499,-360.53,-0.172722,0.0,0.0
166,41.25,93.2861,104.459,144.327,101.793,103.398,0.0135655,0.237379,20.7813,-360.54,-0.137938,0.0,0.0
168,41.75,92.7372,103.596,142.568,101.816,102.973,0.0136697,0.217863,20.8084,-360.54,-0.0995524,0.0,0.0
170,42.25,91.9501,103.27,142.012,101.804,104.591,0.0137541,0.202055,20.8318,-360.54,-0.237995,0.0,0.0
172,42.75,91.1703,102.194,142.322,101.82,103.161,0.013817,0.188013,20.8508,-360.54,-0.115377,0.0,0.0
174,43.25,90.9985,101.653,144.648,101.82,103.622,0.013863,0.175527,20.8662,-360.54,-0.154636,0.0,0.0
176,43.75,90.0497,100.598,143.116,101.835,102.395,0.0139002,0.165412,20.8813,-360.54,-0.0483408,0.0,0.0
178,44.25,89.8753,100.625,145.184,101.828,103.549,0.013901,0.155797,20.8935,-360.55,-0.1477,0.0,0.0
180,44.75,88.4727,99.9689,143.091,101.841,104.196,0.0138752,0.148009,20.9012,-360.54,-0.201497,0.0,0.0
182,45.25,88.8379,99.1541,139.037,101.836,103.088,0.0138642,0.141205,20.9075,-360.55,-0.107682,0.0,0.0
184,45.75,86.8856,98.676,144.324,101.851,103.314,0.0137947,0.135249,20.9111,-360.56,-0.125626,0.0,0.0
186,46.25,86.8408,97.0245,146.083,101.847,103.281,0.0137385,0.130424,20.9172,-360.57,-0.123259,0.0,0.0
188,46.75,85.9887,97.0832,142.88,101.866,103.365,0.013632,0.126516,20.9229,-360.56,-0.128751,0.0,0.0
190,47.25,86.2234,96.4788,144.124,101.865,103.997,0.0135458,0.121881,20.9281,-360.55,-0.182499,0.0,0.0
192,47.75,85.6915,95.937,141.392,101.872,103.201,0.0134364,0.118126,20.9324,-360.56,-0.11426,0.0,0.0
194,48.25,84.7481,95.3268,143.894,101.875,102.505,0.0133123,0.116026,20.9376,-360.58,-0.0543129,0.0,0.0
196,48.75,84.8464,94.4255,146.234,101.88,104.176,0.0131737,0.112435,20.9418,-360.58,-0.196366,0.0,0.0
198,49.25,84.2593,94.4409,143.37,101.869,103.123,0.0130272,0.108607,20.9466,-360.57,-0.107836,0.0,0.0
200,49.75,82.6055,93.8225,141.662,101.891,102.736,0.0129085,0.105506,20.9504,-360.57,-0.0727736,0.0,0.0
202,50.25,83.0039,92.8672,139.786,101.887,103.776,0.0127273,0.102564,20.954,-360.58,-0.161876,0.0,0.0
204,50.75,82.0848,92.7076,143.41,101.9,103.095,0.0125805,0.0997915,20.9574,-360.59,-0.102769,0.0,0.0
206,51.25,82.0193,91.795,143.599,101.887,103.693,0.0123973,0.0975462,20.9605,-360.58,-0.154817,0.0,0.0
208,51.75,79.7608,89.7137,142.307,101.907,103.388,0.0122489,0.0949924,20.9635,-360.58,-0.127194,0.0,0.0
210,52.25,79.3802,88.6163,144.18,101.914,104.01,0.0120773,0.0929238,20.9667,-360.59,-0.179407,0.0,0.0
212,52.75,79.0941,88.6207,144.356,101.903,103.597,0.0119384,0.0907497,20.9698,-360.6,-0.14531,0.0,0.0
214,53.25,78.4239,88.0033,144.76,101.899,102.375,0.0117981,0.0889887,20.9724,-360.59,-0.0409906,0.0,0.0
216,53.75,78.281,88.0142,143.465,101.919,102.336,0.0116596,0.0872856,20.9749,-360.6,-0.0359283,0.0,0.0
218,54.25,77.8265,87.7632,141.616,101.906,103.152,0.0115474,0.0856572,20.9769,-360.59,-0.10714,0.0,0.0
220,54.75,77.2402,86.6828,144.708,101.924,103.421,0.0114261,0.0840182,20.9791,-360.59,-0.128412,0.0,0.0
222,55.25,76.9273,86.0244,141.428,101.923,103.653,0.0113006,0.0824027,20.9812,-360.59,-0.148333,0.0,0.0
224,55.75,76.2812,85.4522,145.398,101.915,103.414,0.0111529,0.0808109,20.983,-360.59,-0.128703,0.0,0.0
226,56.25,75.4683,85.2709,147.112,101.922,103.367,0.0110333,0.0792667,20.9852,-360.59,-0.124029,0.0,0.0
228,56.75,75.1358,84.7046,145.787,101.92,103.721,0.0109061,0.0780159,20.9871,-360.59,-0.154344,0.0,0.0
230,57.25,75.1715,83.9181,148.05,101.924,103.071,0.0107758,0.0763138,20.9891,-360.59,-0.0986143,0.0,0.0
232,57.75,74.5962,83.9675,143.257,101.919,102.959,0.0106394,0.0749351,20.9906,-360.59,-0.089489,0.0,0.0
234,58.25,74.2941,83.8033,141.699,101.93,103.25,0.0105011,0.0735576,20.9928,-360.59,-0.113421,0.0,0.0
236,58.75,73.7101,82.8343,139.869,101.92,103.867,0.0103563,0.0722072,20.9946,-360.59,-0.166767,0.0,0.0
238,59.25,73.2342,82.4667,144.917,101.942,103.991,0.0102094,0.0709108,20.9964,-360.61,-0.175392,0.0,0.0
240,59.75,72.7057,81.913,144.729,101.934,103.692,0.0100529,0.0696783,20.998,-360.61,-0.150678,0.0,0.0
242,60.25,72.6021,81.598,144.067,101.932,103.288,0.00996841,0.0685065,20.9988,-360.6,-0.116397,0.0,0.0
244,60.75,72.3714,81.7588,145.118,101.938,102.271,0.00982397,0.0674012,21.0003,-360.61,-0.0286701,0.0,0.0
246,61.25,72.1345,80.4422,139.424,101.937,103.18,0.00970698,0.0665059,21.0016,-360.6,-0.106748,0.0,0.0
248,61.75,71.4498,80.2664,141.555,101.937,102.554,0.00949922,0.0654786,21.0026,-360.61,-0.0531889,0.0,0.0
250,62.25,70.8504,80.3372,145.925,101.95,102.996,0.00933093,0.064531,21.0034,-360.61,-0.0899368,0.0,0.0
252,62.75,70.8049,79.4718,142.32,101.936,103.206,0.00912879,0.0636595,21.0046,-360.61,-0.109134,0.0,0.0
254,63.25,70.2099,78.8049,141.957,101.942,103.152,0.00896505,0.0632879,21.006,-360.62,-0.103941,0.0,0.0
256,63.75,69.7897,79.0052,144.753,101.94,103.614,0.00879784,0.0626525,21.0072,-360.62,-0.143486,0.0,0.0
258,64.25,69.9548,78.0542,145.307,101.945,103.258,0.00863127,0.0618232,21.0086,-360.62,-0.112858,0.0,0.0
260,64.75,68.8245,77.524,139.643,101.946,103.985,0.00847575,0.0611515,21.01,-360.63,-0.174507,0.0,0.0
262,65.25,68.8354,77.5497,145.569,101.955,103.359,0.00833125,0.0604018,21.0114,-360.62,-0.120494,0.0,0.0
264,65.75,68.5264,77.0091,143.153,101.942,104.119,0.00820159,0.0597945,21.0124,-360.62,-0.186134,0.0,0.0
266,66.25,68.0403,76.5291,144.225,101.952,103.191,0.00808522,0.0592161,21.0133,-360.62,-0.106404,0.0,0.0
268,66.75,67.513,76.3643,144.842,101.947,103.069,0.00799096,0.0586697,21.014,-360.63,-0.0964905,0.0,0.0
270,67.25,67.3984,75.6882,140.615,101.952,103.747,0.00793154,0.0581479,21.0145,-360.63,-0.153799,0.0,0.0
272,67.75,67.0146,75.8869,146.439,101.938,102.758,0.00782993,0.0576538,21.0146,-360.63,-0.0706687,0.0,0.0
274,68.25,66.8002,74.853,143.847,101.955,102.485,0.00774763,0.0572103,21.0148,-360.62,-0.0457169,0.0,0.0
276,68.75,66.4767,74.7234,143.547,101.94,102.962,0.00764785,0.0568122,21.015,-360.62,-0.0878665,0.0,0.0
278,69.25,66.253,74.6833,143.479,101.952,103.521,0.00753722,0.0564897,21.0152,-360.61,-0.134573,0.0,0.0
280,69.75,65.3962,74.0413,146.77,101.942,103.594,0.00741653,0.0561276,21.0153,-360.63,-0.14165,0.0,0.0
282,70.25,65.5668,74.0477,143.97,101.952,102.788,0.0072908,0.0557436,21.0159,-360.63,-0.0719618,0.0,0.0
284,70.75,65.3281,73.0716,146.92,101.94,102.921,0.00718895,0.0555798,21.0163,-360.63,-0.0843796,0.0,0.0
286,71.25,64.7009,72.8587,144.047,101.955,102.581,0.00704882,0.055204,21.0167,-360.64,-0.0539578,0.0,0.0
288,71.75,64.5598,72.5962,143.071,101.936,103.841,0.00693532,0.0548996,21.0169,-360.64,-0.163111,0.0,0.0
290,72.25,64.3123,72.2668,145.163,101.95,102.908,0.00680829,0.0545811,21.0173,-360.65,-0.0824209,0.0,0.0
292,72.75,63.9561,72.0754,143.128,101.947,103.146,0.0067054,0.0542582,21.0178,-360.66,-0.10305,0.0,0.0
294,73.25,63.7932,71.4803,145.768,101.945,102.708,0.00660202,0.0539607,21.0181,-360.65,-0.0656422,0.0,0.0
296,73.75,63.2578,71.3138,141.405,101.932,102.787,0.00651829,0.0536873,21.0184,-360.65,-0.0736623,0.0,0.0
298,74.25,62.9845,71.1142,142.968,101.944,103.871,0.00644256,0.0534659,21.0187,-360.65,-0.165007,0.0,0.0
300,74.75,62.7401,70.6177,145.701,101.939,103.561,0.0063741,0.05319,21.0188,-360.65,-0.139116,0.0,0.0
302,75.25,62.5747,70.2315,146.681,101.938,103.224,0.00631865,0.0529666,21.019,-360.64,-0.11048,0.0,0.0
304,75.75,62.382,69.9319,145.033,101.934,103.274,0.00626498,0.0527309,21.0194,-360.65,-0.115135,0.0,0.0
306,76.25,61.1554,70.0851,145.104,101.943,103.289,0.00622151,0.05254,21.0199,-360.65,-0.115532,0.0,0.0
308,76.75,61.7022,69.4368,146.17,101.928,102.936,0.00617378,0.052317,21.0203,-360.65,-0.0866936,0.0,0.0
310,77.25,61.3618,69.4758,146.337,101.932,102.31,0.00613513,0.0521363,21.0206,-360.66,-0.0326247,0.0,0.0
312,77.75,61.3581,69.4369,143.375,101.92,103.203,0.00608381,0.05199,21.0209,-360.67,-0.110269,0.0,0.0
314,78.25,61.1222,68.6484,141.97,101.934,102.411,0.00604225,0.0518168,21.0211,-360.66,-0.0411769,0.0,0.0
316,78.75,61.0698,68.618,144.467,101.929,102.951,0.00597484,0.0516765,21.0213,-360.67,-0.0879307,0.0,0.0
318,79.25,60.5094,67.9018,144.722,101.943,103.345,0.00592025,0.0515629,21.0214,-360.66,-0.120343,0.0,0.0
320,79.75,59.9242,68.1321,143.736,101.924,103.186,0.00582735,0.0514708,21.0215,-360.67,-0.108509,0.0,0.0
322,80.25,60.4431,67.6143,145.301,101.929,103.818,0.0057521,0.0513963,21.0216,-360.66,-0.161791,0.0,0.0
324,80.75,59.6441,67.0149,145.81,101.917,102.942,0.00564253,0.0513359,21.0217,-360.66,-0.0881747,0.0,0.0
326,81.25,59.5761,66.9797,143.207,101.928,103.765,0.00555378,0.0512596,21.0217,-360.66,-0.157397,0.0,0.0
328,81.75,59.829,66.8386,142.489,101.928,102.911,0.0054819,0.0511978,21.0218,-360.67,-0.0846214,0.0,0.0
330,82.25,58.9508,66.5655,145.883,101.918,103.141,0.00537885,0.0510931,21.0221,-360.66,-0.10512,0.0,0.0
332,82.75,59.0078,66.3805,145.185,101.903,103.239,0.00529538,0.0510083,21.0225,-360.68,-0.114807,0.0,0.0
334,83.25,58.7851,65.9013,144.19,101.914,103.407,0.0052228,0.0508986,21.0229,-360.68,-0.128229,0.0,0.0
336,83.75,58.5992,65.9124,142.936,101.906,103.597,0.005164,0.0508097,21.0231,-360.67,-0.145102,0.0,0.0
338,84.25,58.2071,65.5363,141.613,101.918,102.523,0.00511763,0.0507162,21.0234,-360.67,-0.0520898,0.0,0.0
340,84.75,57.7578,65.3583,146.407,101.893,103.714,0.00508006,0.0506209,21.0231,-360.68,-0.156096,0.0,0.0
342,85.25,57.5319,64.7051,141.805,101.908,103.214,0.00505487,0.0505438,21.0229,-360.68,-0.112182,0.0,0.0
344,85.75,57.1685,64.679,145.869,101.891,102.966,0.00503918,0.050467,21.0227,-360.68,-0.0924338,0.0,0.0
346,86.25,57.0875,64.275,146.175,101.895,102.815,0.0050304,0.0503918,21.0226,-360.68,-0.079225,0.0,0.0
348,86.75,57.0399,63.9031,142.328,101.892,102.726,0.00502683,0.0502733,21.0225,-360.69,-0.0718659,0.0,0.0
350,87.25,56.5865,63.8078,147.083,101.899,103.147,0.00502,0.0501256,21.0224,-360.69,-0.10726,0.0,0.0
352,87.75,56.7546,63.751,141.554,101.892,103.968,0.00501094,0.0500131,21.0223,-360.69,-0.177725,0.0,0.0
354,88.25,56.9088,63.2232,144.095,101.895,103.342,0.0050036,0.0499285,21.0223,-360.69,-0.12426,0.0,0.0
356,88.75,55.9853,63.0442,147.608,101.875,102.891,0.00496158,0.04986,21.0222,-360.68,-0.087397,0.0,0.0
358,89.25,55.8979,62.8012,146.037,101.884,103.86,0.00492754,0.0498044,21.0222,-360.69,-0.16932,0.0,0.0
360,89.75,55.4129,62.369,144.05,101.875,103.063,0.00489997,0.0497451,21.0221,-360.7,-0.102204,0.0,0.0
362,90.25,56.0424,62.0269,143.812,101.872,103.883,0.0048267,0.0496841,21.0225,-360.69,-0.172306,0.0,0.0
364,90.75,55.3552,61.972,144.861,101.861,103.959,0.00476736,0.0496346,21.0232,-360.69,-0.179647,0.0,0.0
366,91.25,55.634,61.6505,146.926,101.867,102.018,0.00470034,0.0495399,21.0238,-360.69,-0.0131195,0.0,0.0
368,91.75,55.2524,62.1518,144.201,101.865,102.795,0.00462901,0.0494632,21.0243,-360.7,-0.0801228,0.0,0.0
370,92.25,54.9979,61.4619,145.516,101.854,102.35,0.00457124,0.0494011,21.0246,-360.7,-0.0427659,0.0,0.0
372,92.75,54.5158,61.4188,144.317,101.846,103.098,0.00449096,0.0493436,21.025,-360.7,-0.107644,0.0,0.0
374,93.25,54.79,60.8277,143.412,101.846,103.213,0.00442594,0.0492905,21.0252,-360.71,-0.117466,0.0,0.0
376,93.75,54.2196,61.4324,144.627,101.852,102.657,0.0043646,0.0492332,21.0254,-360.7,-0.0694462,0.0,0.0
378,94.25,54.071,60.9859,143.176,101.841,102.875,0.00431491,0.0491738,21.0256,-360.71,-0.0890088,0.0,0.0
380,94.75,53.8723,60.5647,144.304,101.847,102.513,0.00428086,0.0491041,21.0257,-360.71,-0.0574046,0.0,0.0
382,95.25,53.6696,60.1433,142.794,101.836,104.693,0.00425328,0.0490283,21.0258,-360.71,-0.24389,0.0,0.0
384,95.75,53.7268,60.0856,143.466,101.846,102.756,0.00423094,0.0489668,21.0259,-360.7,-0.0783415,0.0,0.0
386,96.25,53.9783,59.2817,142.207,101.834,102.919,0.00422263,0.0489034,21.0259,-360.71,-0.0933765,0.0,0.0
388,96.75,53.7832,59.6139,147.467,101.83,103.197,0.00422372,0.048852,21.026,-360.71,-0.117552,0.0,0.0
390,97.25,53.2463,59.7161,141.19,101.831,103.872,0.00423754,0.0488176,21.026,-360.71,-0.174848,0.0,0.0
392,97.75,53.1434,59.3585,143.222,101.823,102.758,0.00424302,0.0487962,21.0261,-360.71,-0.0805405,0.0,0.0
394,98.25,52.6226,59.129,144.718,101.832,102.487,0.00425173,0.0487788,21.0261,-360.71,-0.0565022,0.0,0.0
396,98.75,52.6286,58.6168,144.361,101.826,103.736,0.00425819,0.0487238,21.0261,-360.72,-0.163777,0.0,0.0
398,99.25,52.5613,58.5954,143.97,101.822,103.034,0.00426343,0.0486792,21.0261,-360.72,-0.104256,0.0,0.0
400,99.75,52.293,58.967,148.937,101.812,103.178,0.00424784,0.0486602,21.0262,-360.72,-0.117416,0.0,0.0
402,100.25,52.4354,58.0932,142.504,101.812,103.495,0.00423521,0.0485554,21.0262,-360.72,-0.144435,0.0,0.0
404,100.75,52.1472,58.0638,144.783,101.817,102.639,0.00419152,0.0485272,21.0262,-360.73,-0.0708005,0.0,0.0
406,101.25,52.0105,57.8492,147.489,101.801,102.234,0.00415614,0.0484381,21.0262,-360.73,-0.0374183,0.0,0.0
408,101.75,51.8502,57.6335,143.4,101.802,103.954,0.00408911,0.0483658,21.0262,-360.72,-0.18433,0.0,0.0
410,102.25,51.8098,57.1192,143.876,101.789,103.192,0.00406053,0.048239,21.0262,-360.73,-0.120701,0.0,0.0
412,102.75,51.7668,57.2868,145.107,101.791,103.032,0.00401167,0.0481364,21.0262,-360.74,-0.106719,0.0,0.0
414,103.25,51.3257,57.8297,146.457,101.781,102.969,0.00392634,0.0480532,21.0262,-360.73,-0.102255,0.0,0.0
416,103.75,51.342,57.0905,142.524,101.79,102.553,0.00385722,0.0479858,21.0262,-360.74,-0.0657713,0.0,0.0
418,104.25,51.3419,57.0738,142.847,101.777,103.712,0.00379474,0.0479449,21.0262,-360.74,-0.166004,0.0,0.0
420,104.75,50.7703,56.7192,144.43,101.778,103.123,0.00373827,0.0479117,21.0262,-360.74,-0.1157,0.0,0.0
422,105.25,50.703,56.9883,144.631,101.772,103.194,0.00369253,0.0478976,21.0262,-360.74,-0.12227,0.0,0.0
424,105.75,50.8326,56.4514,145.947,101.786,103.414,0.00365425,0.0479144,21.0262,-360.74,-0.139796,0.0,0.0
426,106.25,50.8058,55.9606,142.628,101.764,103.107,0.00362324,0.047928,21.0262,-360.74,-0.115469,0.0,0.0
428,106.75,50.686,56.2904,148.514,101.764,102.73,0.00361171,0.0479318,21.0265,-360.73,-0.0832199,0.0,0.0
430,107.25,50.4161,56.1099,141.781,101.758,102.859,0.00360238,0.0479285,21.0269,-360.74,-0.094829,0.0,0.0
432,107.75,50.3448,55.4748,143.74,101.756,102.801,0.0036047,0.0479258,21.0272,-360.75,-0.090096,0.0,0.0
434,108.25,49.9825,55.2782,141.606,101.742,102.638,0.00360658,0.0478962,21.0275,-360.75,-0.077305,0.0,0.0
436,108.75,49.7894,55.7747,144.464,101.754,103.052,0.00360687,0.0478723,21.0277,-360.75,-0.111696,0.0,0.0
438,109.25,49.9597,55.3247,147.887,101.729,102.377,0.0036071,0.0478803,21.0278,-360.74,-0.0559599,0.0,0.0
440,109.75,49.6324,55.2188,142.728,101.741,103.387,0.00360729,0.0478867,21.028,-360.75,-0.141417,0.0,0.0
442,110.25,49.5115,55.4753,140.397,101.73,103.236,0.00358397,0.0478237,21.0281,-360.74,-0.129549,0.0,0.0
444,110.75,49.4229,54.4953,145.323,101.729,102.739,0.00356508,0.0477726,21.0282,-360.74,-0.087049,0.0,0.0
446,111.25,49.6268,54.5862,146.903,101.719,102.369,0.00352262,0.0477096,21.0285,-360.74,-0.0561026,0.0,0.0
448,111.75,49.2505,54.3382,141.92,101.726,103.541,0.00348822,0.0476393,21.029,-360.74,-0.155783,0.0,0.0
450,112.25,49.2874,54.5122,145.437,101.701,103.946,0.00344218,0.0475823,21.0293,-360.75,-0.192348,0.0,0.0
452,112.75,48.7348,54.4891,143.801,101.713,102.162,0.00338852,0.0475361,21.0296,-360.75,-0.0387877,0.0,0.0
454,113.25,48.9906,53.6476,145.417,101.704,103.739,0.00334506,0.0474987,21.0299,-360.77,-0.174574,0.0,0.0
456,113.75,49.0535,54.2787,144.847,101.71,102.998,0.00327938,0.0474138,21.0301,-360.76,-0.110919,0.0,0.0
458,114.25,48.8672,54.0847,148.162,101.692,103.314,0.00319874,0.047345,21.0301,-360.76,-0.139443,0.0,0.0
460,114.75,48.7286,54.1454,145.643,101.696,102.85,0.00313343,0.0472821,21.0301,-360.76,-0.0994653,0.0,0.0
462,115.25,48.5844,53.695,142.564,101.668,103.635,0.00305345,0.0472247,21.0302,-360.75,-0.168914,0.0,0.0
464,115.75,48.886,52.8075,147.002,101.675,102.501,0.00298866,0.0471782,21.0302,-360.77,-0.0713528,0.0,0.0
466,116.25,48.3491,53.6196,143.981,101.673,102.619,0.00292777,0.0471549,21.0302,-360.76,-0.0815864,0.0,0.0
468,116.75,48.1548,53.3759,142.841,101.666,103.455,0.00287088,0.047149,21.0302,-360.75,-0.153783,0.0,0.0
470,117.25,47.7779,53.0322,144.038,101.656,102.772,0.00282479,0.0471442,21.0302,-360.76,-0.0962218,0.0,0.0
472,117.75,48.1113,53.3195,145.92,101.663,103.153,0.00278992,0.0471266,21.0302,-360.76,-0.128195,0.0,0.0
474,118.25,47.9791,52.736,145.661,101.649,103.063,0.00276168,0.0471124,21.0302,-360.76,-0.121659,0.0,0.0
476,118.75,48.2028,52.435,143.573,101.647,102.613,0.00275233,0.0471009,21.0302,-360.76,-0.0833784,0.0,0.0
478,119.25,47.6282,52.4911,140.393,101.628,102.713,0.00274476,0.0470916,21.0302,-360.75,-0.0935708,0.0,0.0
480,119.75,47.6426,53.2332,146.139,101.633,103.091,0.00275093,0.047084,21.0303,-360.76,-0.125518,0.0,0.0
482,120.25,47.407,52.4672,142.98,101.619,102.973,0.00275593,0.0471189,21.0303,-360.76,-0.116653,0.0,0.0
484,120.75,47.1747,52.2266,143.499,101.619,103.246,0.00276121,0.0471471,21.0303,-360.74,-0.139994,0.0,0.0
486,121.25,47.5297,51.9268,145.819,101.598,102.924,0.00276549,0.0471426,21.0303,-360.76,-0.114253,0.0,0.0
488,121.75,47.3064,51.7536,145.165,101.608,102.752,0.00276403,0.047139,21.0303,-360.76,-0.0986967,0.0,0.0
490,122.25,47.6672,51.7842,147.293,101.585,102.409,0.00276285,0.047093,21.0303,-360.77,-0.0711722,0.0,0.0
492,122.75,46.5276,51.8521,144.776,101.597,101.645,0.00275205,0.0470169,21.0303,-360.77,-0.0041825,0.0,0.0
494,123.25,46.92,51.3874,144.746,101.566,102.282,0.0027433,0.0469481,21.0303,-360.76,-0.0618551,0.0,0.0
496,123.75,46.6348,50.7054,144.778,101.566,102.384,0.00273621,0.0468859,21.0303,-360.76,-0.0706936,0.0,0.0
498,124.25,46.6577,51.3295,145.322,101.559,102.026,0.0027071,0.0468427,21.0303,-360.77,-0.0404571,0.0,0.0
500,124.75,46.7035,51.1684,144.872,101.544,102.727,0.00268353,0.0468142,21.0303,-360.76,-0.102131,0.0,0.0
502,125.25,46.8268,51.086,144.189,101.53,102.339,0.00264632,0.0467983,21.0303,-360.76,-0.0699248,0.0,0.0
504,125.75,46.5428,51.1782,147.287,101.533,102.042,0.00259988,0.0467918,21.0303,-360.77,-0.0441146,0.0,0.0
506,126.25,46.9141,51.2138,148.268,101.529,102.633,0.00256227,0.0467866,21.0303,-360.77,-0.0953042,0.0,0.0
508,126.75,46.563,50.7742,146.833,101.514,103.203,0.00249006,0.0467687,21.0303,-360.77,-0.145407,0.0,0.0
510,127.25,46.2587,50.4382,141.125,101.498,103.426,0.00243158,0.0467543,21.0303,-360.77,-0.165796,0.0,0.0
512,127.75,46.3113,50.6993,144.576,101.492,102.425,0.0023609,0.0467138,21.0303,-360.77,-0.0806534,0.0,0.0
514,128.25,45.8495,50.4517,144.728,101.485,103.195,0.00230364,0.0466552,21.0303,-360.77,-0.147195,0.0,0.0
516,128.75,45.8914,50.3057,142.555,101.469,102.177,0.00224379,0.0466077,21.0303,-360.77,-0.061268,0.0,0.0
518,129.25,45.9561,50.2743,146.468,101.452,103.777,0.0021953,0.0466102,21.0303,-360.77,-0.199645,0.0,0.0
520,129.75,46.4561,50.0782,144.364,101.441,103.545,0.0021499,0.0466122,21.0303,-360.77,-0.180901,0.0,0.0
522,130.25,46.0595,50.2959,145.84,101.45,102.693,0.00211312,0.0466411,21.0303,-360.77,-0.107314,0.0,0.0
524,130.75,45.6856,49.7946,144.328,101.425,102.016,0.00208334,0.0466645,21.0303,-360.77,-0.0511974,0.0,0.0
526,131.25,45.7595,49.9023,144.136,101.427,102.757,0.00204696,0.0466699,21.0303,-360.77,-0.114834,0.0,0.0
528,131.75,46.0922,49.6128,144.744,101.414,102.423,0.00201749,0.0466742,21.0303,-360.76,-0.0872442,0.0,0.0
530,132.25,45.5316,49.8185,145.196,101.409,101.707,0.00198382,0.0466504,21.0303,-360.78,-0.025845,0.0,0.0
532,132.75,45.6024,49.7386,146.375,101.397,102.549,0.00195655,0.0466311,21.0303,-360.78,-0.0995429,0.0,0.0
534,133.25,45.2842,49.4893,143.379,101.397,103.229,0.00193201,0.0466083,21.0303,-360.78,-0.157845,0.0,0.0
536,133.75,45.3641,49.3306,145.098,101.379,102.381,0.00191213,0.0465834,21.0303,-360.77,-0.0866687,0.0,0.0
538,134.25,45.2212,49.2545,147.946,101.377,102.91,0.00190093,0.0465632,21.0305,-360.77,-0.13225,0.0,0.0
540,134.75,45.8586,49.2614,145.717,101.352,102.057,0.00189185,0.0465195,21.0309,-360.77,-0.0611453,0.0,0.0
542,135.25,45.3647,49.1816,149.18,101.347,102.425,0.00189353,0.0464841,21.0312,-360.78,-0.0932613,0.0,0.0
544,135.75,45.2911,49.5538,144.469,101.34,102.434,0.00190302,0.0464124,21.0315,-360.78,-0.0945854,0.0,0.0
546,136.25,45.3524,48.7078,145.588,101.344,103.264,0.0019107,0.0463155,21.0317,-360.77,-0.165389,0.0,0.0
548,136.75,44.8997,49.0984,143.883,101.306,103.087,0.00193757,0.0462507,21.0319,-360.77,-0.153569,0.0,0.0
550,137.25,44.9198,48.5559,144.949,101.31,102.119,0.00197792,0.0461982,21.0321,-360.77,-0.0701265,0.0,0.0
552,137.75,44.7245,48.6395,144.75,101.288,102.479,0.00201061,0.0461556,21.0325,-360.77,-0.103068,0.0,0.0
554,138.25,44.5588,48.868,144.601,101.291,102.723,0.00203708,0.0461212,21.0328,-360.77,-0.123699,0.0,0.0
556,138.75,45.042,48.5214,142.218,101.261,102.83,0.0021064,0.0460933,21.033,-360.78,-0.135488,0.0,0.0
558,139.25,44.8873,48.7502,142.871,101.262,102.341,0.00216255,0.0460778,21.0332,-360.79,-0.093444,0.0,0.0
560,139.75,44.7044,48.3736,143.853,101.249,102.029,0.00223014,0.0460718,21.0333,-360.79,-0.0676427,0.0,0.0
562,140.25,44.9347,48.4306,142.104,101.239,102.839,0.0022849,0.0460669,21.0334,-360.78,-0.138175,0.0,0.0
564,140.75,44.6281,48.4591,141.82,101.243,103.181,0.00232925,0.046063,21.0335,-360.79,-0.167106,0.0,0.0
566,141.25,44.4071,47.4273,151.227,101.222,102.233,0.00236517,0.0460598,21.0336,-360.79,-0.0875551,0.0,0.0
568,141.75,44.5501,48.4216,143.14,101.199,102.708,0.00238075,0.0460572,21.0337,-360.79,-0.1304,0.0,0.0
570,142.25,44.4762,48.0055,145.459,101.198,102.642,0.00239337,0.0460551,21.0337,-360.79,-0.124864,0.0,0.0
572,142.75,44.5118,47.8589,143.144,101.179,102.238,0.00239842,0.0460534,21.0338,-360.79,-0.0917746,0.0,0.0
574,143.25,44.6882,47.9862,137.767,101.176,102.039,0.00239786,0.0460656,21.0338,-360.79,-0.0748208,0.0,0.0
576,143.75,44.5272,48.0463,144.334,101.15,101.44,0.00239869,0.0460756,21.0338,-360.78,-0.0252218,0.0,0.0
578,144.25,43.7405,47.642,139.22,101.158,102.026,0.00240053,0.0460764,21.0338,-360.79,-0.0752954,0.0,0.0
580,144.75,44.4835,47.3346,144.05,101.122,102.427,0.00240203,0.0460707,21.0339,-360.79,-0.112964,0.0,0.0
582,145.25,44.3601,47.9535,146.302,101.124,101.868,0.00242043,0.0460588,21.0336,-360.79,-0.0645627,0.0,0.0
584,145.75,44.4547,47.4941,150.431,101.107,102.535,0.00243534,0.0460428,21.0333,-360.79,-0.123561,0.0,0.0
586,146.25,43.9657,47.2153,141.039,101.105,102.368,0.00245066,0.0460226,21.0329,-360.79,-0.109397,0.0,0.0
588,146.75,44.0919,47.0418,149.584,101.075,102.928,0.00246597,0.0459997,21.0327,-360.79,-0.160054,0.0,0.0
590,147.25,43.8404,47.5823,145.215,101.08,103.197,0.00247126,0.0459597,21.0325,-360.8,-0.182592,0.0,0.0
592,147.75,43.5668,46.9683,146.423,101.049,101.856,0.00246914,0.0459079,21.0323,-360.79,-0.0701244,0.0,0.0
594,148.25,43.9618,47.392,145.059,101.057,102.51,0.00246742,0.0458659,21.0322,-360.79,-0.125825,0.0,0.0
596,148.75,43.8098,46.947,145.675,101.026,102.173,0.00244638,0.0458463,21.0321,-360.79,-0.0994547,0.0,0.0
598,149.25,44.177,47.2139,146.149,101.027,102.72,0.00242933,0.0458433,21.032,-360.78,-0.146485,0.0,0.0
600,149.75,43.8659,47.1507,147.274,100.987,101.684,0.00240816,0.0458337,21.0319,-360.78,-0.0606482,0.0,0.0
602,150.25,44.0297,47.2139,140.632,101.004,101.681,0.00239101,0.0458195,21.0318,-360.8,-0.0588481,0.0,0.0
604,150.75,43.2497,46.7321,144.833,100.978,101.24,0.00237834,0.0458079,21.0318,-360.8,-0.0228875,0.0,0.0
606,151.25,43.8785,46.845,140.877,100.988,102.562,0.00236809,0.045744,21.0318,-360.79,-0.136304,0.0,0.0
608,151.75,43.6278,46.8602,144.14,100.95,101.438,0.00235655,0.0456923,21.0317,-360.8,-0.0424582,0.0,0.0
610,152.25,43.4975,47.0864,145.726,100.957,101.304,0.00234429,0.045623,21.0317,-360.79,-0.0302458,0.0,0.0
612,152.75,43.703,46.4145,144.505,100.934,102.108,0.00233907,0.045567,21.0317,-360.79,-0.101925,0.0,0.0
614,153.25,43.2563,45.8476,143.234,100.94,101.698,0.00231172,0.0455352,21.0317,-360.79,-0.065929,0.0,0.0
616,153.75,43.2683,46.6435,144.826,100.916,101.8,0.00228957,0.0455095,21.0317,-360.8,-0.0768541,0.0,0.0
618,154.25,43.3639,46.6308,147.153,100.914,101.752,0.002252,0.0454958,21.0316,-360.79,-0.0728763,0.0,0.0
620,154.75,43.3501,46.4485,145.862,100.882,102.303,0.00222157,0.0454912,21.0316,-360.79,-0.123276,0.0,0.0
622,155.25,43.6325,45.7929,147.945,100.895,102.67,0.00217486,0.0454875,21.0316,-360.78,-0.153663,0.0,0.0
624,155.75,43.2068,46.1645,141.885,100.879,101.355,0.00213702,0.0455649,21.0316,-360.78,-0.0414481,0.0,0.0
626,156.25,43.2674,46.0098,144.353,100.862,101.94,0.00209992,0.0456972,21.0316,-360.78,-0.0936664,0.0,0.0
628,156.75,43.0614,45.7031,147.171,100.836,101.977,0.00206406,0.0458547,21.0312,-360.78,-0.099102,0.0,0.0
630,157.25,43.0132,46.1651,143.655,100.836,101.744,0.00203308,0.0460276,21.0308,-360.78,-0.0789923,0.0,0.0
632,157.75,43.0125,46.0577,147.784,100.819,102.666,0.00200625,0.0463041,21.0305,-360.78,-0.160043,0.0,0.0
634,158.25,43.0468,45.7673,141.726,100.811,101.734,0.00198452,0.0465281,21.0303,-360.78,-0.0802887,0.0,0.0
636,158.75,43.221,45.7898,143.43,100.798,101.749,0.00196111,0.0467958,21.0301,-360.77,-0.0826992,0.0,0.0
638,159.25,42.9549,45.9944,145.649,100.793,102.209,0.00193693,0.0470902,21.0299,-360.79,-0.122923,0.0,0.0
640,159.75,43.1753,45.8768,146.045,100.775,101.569,,0.0474365,,-360.79,-0.0691847,0.0,0.0
642,160.25,43.114,45.1815,143.366,100.773,101.812,,0.0478141,,-360.79,-0.0903847,0.0,0.0
644,160.75,42.4477,45.8252,141.762,100.772,102.148,,0.04812,,-360.79,-0.119517,0.0,0.0
646,161.25,42.6183,45.7417,149.973,100.743,101.399,,0.0485116,,-360.79,-0.0571937,0.0,0.0
648,161.75,42.584,45.2135,143.261,100.74,101.319,,0.0489583,,-360.8,-0.050507,0.0,0.0
650,162.25,42.738,45.3271,141.941,100.726,101.073,,0.0493201,,-360.79,-0.0303138,0.0,0.0
652,162.75,42.5128,45.3412,141.29,100.72,101.237,,,,-360.79,-0.045143,0.0,0.0
654,163.25,42.7573,45.1568,145.018,100.709,102.2,,,,-360.79,-0.129502,0.0,0.0
656,163.75,42.637,45.4978,146.843,100.707,101.171,,,,-360.8,-0.0404692,0.0,0.0
658,164.25,42.4053,45.4568,142.151,100.693,102.78,,,,-360.8,-0.180799,0.0,0.0
660,164.75,42.6127,45.199,146.436,100.688,102.168,,,,-360.8,-0.128624,0.0,0.0
662,165.25,42.3624,44.5024,146.663,100.67,100.908,,,,-360.8,-0.0208413,0.0,0.0
664,165.75,42.1632,45.043,146.159,100.66,101.092,,,,-360.8,-0.0377833,0.0,0.0
666,166.25,42.395,44.7474,145.753,100.653,102.99,,,,-360.81,-0.202299,0.0,0.0
668,166.75,42.5468,44.8602,145.294,100.645,102.291,,,,-360.81,-0.142884,0.0,0.0
670,167.25,42.3447,45.3992,144.798,100.639,101.09,,,,-360.81,-0.0393923,0.0,0.0
672,167.75,42.3471,44.4618,143.57,100.641,101.915,,,,-360.8,-0.110874,0.0,0.0
674,168.25,42.4414,45.1736,145.653,100.625,101.277,,,,-360.8,-0.0569489,0.0,0.0
676,168.75,42.1325,44.8803,141.741,100.616,102.555,,,,-360.81,-0.168225,0.0,0.0
678,169.25,42.2265,44.8213,142.28,100.602,102.374,,,,-360.81,-0.153881,0.0,0.0
680,169.75,42.7465,44.6306,141.443,100.603,101.221,,,,-360.8,-0.05398,0.0,0.0
682,170.25,42.2098,44.5268,144.615,100.589,101.419,,,,-360.81,-0.0724394,0.0,0.0