File: 01_Data/Rebond_Foam_Carpet_Pad/Cone/Rebond_Foam_Carpet_Pad_Cone_HF50Scan_220414_R1.csv
Names,Time,Stack TC,Smoke TC,Exh Press,Smoke Comp,Smoke Meas,CO Meter,CO2 Meter,O2 Meter,Sample Mass,Ext Coeff,Start Test,Flame Verif
Chan Gain,,500,500,1,1,1,1,1,1,1,1,1.0,1.0
Offset,,0,0,0.134258,0,0,0,0,0,0,0,0.0,0.0
Gain,,1,1,25.011,13.171,13.8983,1,1,1,1.00092,1.00459,1.0,1.0
Units,sec,C,C,Pa,%,%,%,%,%,g,/m,,
Baseline,,29.4139,30.27,150.589,101.544,100.573,0.00142752,0.0475958,21.0264,-832.359,0.0847568,,
2,0.25,29.1147,29.9999,152.017,101.565,97.1339,0.00236567,0.0759464,20.9856,-350.461,0.393074,0.0,0.0
4,0.75,29.0199,30.077,143.333,101.543,95.6663,0.00267967,0.0839912,20.9672,-350.411,0.52531,0.0,0.0
6,1.25,28.6541,29.8376,140.847,101.563,92.4653,0.00329864,0.0975243,20.941,-350.431,0.826993,0.0,0.0
8,1.75,27.3933,29.177,144.172,101.548,89.2775,0.00380001,0.114801,20.9097,-350.491,1.13484,0.0,1.0
10,2.25,27.9104,28.1004,141.359,101.557,85.5836,0.00451047,0.135097,20.8843,-350.521,1.50797,0.0,1.0
12,2.75,27.9035,28.2065,132.891,101.546,84.8515,0.00535986,0.146734,20.8469,-350.601,1.58277,0.0,1.0
14,3.25,27.9057,28.6941,136.302,101.562,85.2765,0.00626545,0.166634,20.8166,-350.701,1.54014,0.0,1.0
16,3.75,27.9809,29.1519,134.348,101.553,81.7706,0.0071948,0.193695,20.7774,-350.671,1.90925,0.0,1.0
18,4.25,28.4191,28.8003,138.237,101.569,79.8318,0.00815243,0.215614,20.7456,-350.721,2.1221,0.0,1.0
20,4.75,28.5101,28.7511,131.037,101.552,80.2195,0.00911248,0.239239,20.7056,-350.781,2.07798,0.0,1.0
22,5.25,29.0101,29.3505,132.473,101.567,78.637,0.00989013,0.263657,20.6732,-350.841,2.25481,0.0,1.0
24,5.75,28.8394,29.6827,132.057,101.549,78.3414,0.0108817,0.283436,20.6398,-350.911,2.28643,0.0,1.0
26,6.25,29.5928,29.8728,132.328,101.572,75.2901,0.0116848,0.30812,20.6061,-350.981,2.63851,0.0,1.0
28,6.75,30.4423,30.689,130.186,101.567,76.5863,0.0124976,0.328114,20.5789,-351.041,2.48774,0.0,1.0
30,7.25,29.9628,30.1177,134.937,101.564,76.9574,0.013302,0.350996,20.5457,-351.111,2.44483,0.0,1.0
32,7.75,30.087,30.5261,135.715,101.55,77.1181,0.0139536,0.36953,20.5188,-351.151,2.42522,0.0,1.0
34,8.25,30.3674,30.7853,125.191,101.565,76.1329,0.0146542,0.391038,20.493,-351.231,2.53989,0.0,0.0
36,8.75,30.732,31.2354,121.818,101.561,77.5211,0.0152216,0.408459,20.4684,-351.311,2.38024,0.0,0.0
38,9.25,31.5249,31.7877,130.659,101.569,80.1368,0.0156813,0.424921,20.4485,-351.392,2.08857,0.0,0.0
40,9.75,31.818,31.7309,131.83,101.558,82.1133,0.0161582,0.440372,20.4279,-351.432,1.87285,0.0,0.0
42,10.25,32.3606,32.5692,127.876,101.566,81.9521,0.0165445,0.452887,20.4113,-351.492,1.8909,0.0,0.0
44,10.75,32.92,32.9694,130.817,101.553,81.1034,0.0168958,0.466095,20.3954,-351.562,1.98148,0.0,0.0
46,11.25,33.335,33.6738,128.002,101.563,78.704,0.0171804,0.476793,20.3805,-351.642,2.24703,0.0,0.0
48,11.75,34,34.2202,135.512,101.548,82.1463,0.0174361,0.486104,20.3679,-351.682,1.86847,0.0,0.0
50,12.25,34.2632,34.6241,127.321,101.567,77.0655,0.0176432,0.494227,20.3573,-351.752,2.43273,0.0,0.0
52,12.75,35.089,35.2387,131.153,101.553,82.1447,0.0178615,0.500807,20.3465,-351.842,1.8691,0.0,0.0
54,13.25,35.4353,35.7435,131.978,101.561,78.5687,0.0180383,0.506836,20.3378,-351.902,2.26198,0.0,0.0
56,13.75,35.4436,36.4367,127.764,101.558,79.2702,0.0182799,0.511719,20.3279,-351.972,2.18337,0.0,0.0
58,14.25,36.0199,36.8511,126.575,101.562,76.6923,0.0184757,0.51752,20.3173,-352.012,2.4751,0.0,0.0
60,14.75,36.7869,37.0335,126.39,101.556,80.5355,0.0188051,0.522219,20.3036,-352.072,2.04365,0.0,0.0
62,15.25,36.6555,37.3144,125.916,101.565,78.5276,0.0190719,0.530316,20.2879,-352.142,2.26691,0.0,0.0
64,15.75,36.6556,37.87,130.568,101.552,75.4691,0.0192881,0.536875,20.2752,-352.232,2.61591,0.0,0.0
66,16.25,37.7016,37.8748,133.034,101.559,77.6118,0.0197342,0.549784,20.2564,-352.292,2.36975,0.0,0.0
68,16.75,38.2599,39.0162,128.123,101.545,77.7001,0.0200955,0.560241,20.2337,-352.372,2.35852,0.0,0.0
70,17.25,38.8512,39.1644,125.68,101.555,77.6873,0.0205161,0.580007,20.2152,-352.463,2.36084,0.0,0.0
72,17.75,39.3496,39.9786,120.205,101.554,75.0712,0.0209719,0.596018,20.2003,-352.543,2.66263,0.0,0.0
74,18.25,39.9108,40.2833,114.009,101.55,73.795,0.0213411,0.6196,20.1678,-352.643,2.81338,0.0,0.0
76,18.75,40.2419,40.4891,120.2,101.559,74.3786,0.0216402,0.648254,20.1414,-352.723,2.7448,0.0,0.0
78,19.25,40.5658,41.4426,118.13,101.554,72.875,0.0222768,0.671463,20.099,-352.813,2.92431,0.0,0.0
80,19.75,40.8956,42.2424,111.555,101.548,72.5849,0.0229339,0.716818,20.0647,-352.933,2.9589,0.0,0.0
82,20.25,41.7943,43.0538,109.659,101.548,70.9621,0.0235935,0.753556,19.9887,-353.023,3.15815,0.0,0.0
84,20.75,42.4477,43.6026,108.522,101.541,71.5237,0.0241277,0.783314,19.9272,-353.153,3.08813,0.0,0.0
86,21.25,43.5932,44.315,104.625,101.548,72.3898,0.0248916,0.830855,19.8474,-353.293,2.98262,0.0,0.0
88,21.75,44.4526,44.9424,106.644,101.544,71.6221,0.0255104,0.890456,19.7557,-353.403,3.07623,0.0,0.0
90,22.25,45.3195,45.9558,99.6392,101.543,71.9482,0.0263106,0.938734,19.6399,-353.544,3.03615,0.0,0.0
92,22.75,46.3962,47.1713,106.216,101.541,72.4428,0.0269587,1.01891,19.5088,-353.674,2.97561,0.0,0.0
94,23.25,47.3762,48.5963,96.535,101.521,72.3368,0.0274837,1.08385,19.4025,-353.824,2.98674,0.0,0.0
96,23.75,48.5007,49.6207,94.413,101.54,72.5514,0.0282478,1.17384,19.2865,-353.974,2.96231,0.0,0.0
98,24.25,49.744,50.8646,91.4302,101.542,75.1213,0.0288668,1.24673,19.1654,-354.104,2.65574,0.0,0.0
100,24.75,51.2601,52.1404,86.059,101.533,76.8433,0.0295555,1.34658,19.0379,-354.294,2.45522,0.0,0.0
102,25.25,52.7708,54.2182,91.2172,101.53,75.106,0.0301133,1.42745,18.9079,-354.444,2.65645,0.0,0.0
104,25.75,54.3733,55.392,90.7203,101.531,76.0306,0.0306528,1.51601,18.7757,-354.624,2.54877,0.0,0.0
106,26.25,56.1282,57.4994,90.3891,101.529,78.159,0.0310898,1.60849,18.6443,-354.775,2.3053,0.0,0.0
108,26.75,58.3126,59.9648,84.2546,101.536,79.7631,0.0314593,1.6834,18.5084,-354.985,2.12683,0.0,0.0
110,27.25,59.7655,61.721,85.4201,101.524,79.8479,0.0317586,1.78305,18.3716,-355.115,2.11645,0.0,0.0
112,27.75,61.7482,64.1576,85.4522,101.535,78.7719,0.0319564,1.86377,18.2609,-355.295,2.23696,0.0,0.0
114,28.25,64.0363,66.5777,73.5268,101.524,82.8581,0.0320765,1.95371,18.1471,-355.465,1.79035,0.0,0.0
116,28.75,65.9043,68.4989,78.7453,101.523,81.7795,0.0320906,2.02657,18.055,-355.645,1.90571,0.0,0.0
118,29.25,68.2137,71.1181,74.0321,101.516,81.7693,0.0320272,2.09707,17.9803,-355.816,1.90622,0.0,0.0
120,29.75,70.2574,73.8651,79.4277,101.526,80.6971,0.0319759,2.15418,17.9199,-355.936,2.02337,0.0,0.0
122,30.25,72.367,76.5711,91.3096,101.511,81.2934,0.0319343,2.19821,17.8709,-356.086,1.95723,0.0,0.0
124,30.75,74.9491,78.9965,89.09,101.523,79.1256,0.0314861,2.23186,17.8312,-356.236,2.19646,0.0,0.0
126,31.25,76.628,81.5459,88.0779,101.498,80.2962,0.0311229,2.24457,17.7991,-356.386,2.06488,0.0,0.0
128,31.75,79.4311,84.0749,84.795,101.515,79.4191,0.0304817,2.24177,17.823,-356.526,2.16313,0.0,0.0
130,32.25,80.966,86.6068,86.9406,101.492,79.0883,0.0299622,2.23951,17.8423,-356.626,2.19786,0.0,0.0
132,32.75,82.8717,89.0073,91.5386,101.503,78.816,0.0291464,2.21115,17.9262,-356.756,2.22927,0.0,0.0
134,33.25,84.4365,91.3542,97.2005,101.49,77.4969,0.0284855,2.16432,17.9941,-356.847,2.37681,0.0,0.0
136,33.75,86.5183,93.4242,94.7138,101.505,79.1256,0.0275777,2.12638,18.0967,-356.927,2.19489,0.0,0.0
138,34.25,88.3028,95.5283,102.732,101.489,79.4297,0.0268423,2.04189,18.2227,-357.057,2.15969,0.0,0.0
140,34.75,89.3299,96.654,101.154,101.496,81.3222,0.0258774,1.97345,18.3606,-357.107,1.95278,0.0,0.0
142,35.25,89.6833,98.3622,107.564,101.484,80.3548,0.0250958,1.87526,18.5046,-357.197,2.0572,0.0,0.0
144,35.75,91.4762,100.061,108.01,101.48,79.0747,0.0241486,1.79572,18.6796,-357.227,2.1984,0.0,0.0
146,36.25,92.1956,100.918,114.524,101.484,77.1046,0.0237449,1.6891,18.7542,-357.307,2.42108,0.0,0.0
148,36.75,93.0206,101.722,115.248,101.483,78.131,0.0224991,1.60274,18.9362,-357.397,2.30444,0.0,0.0
150,37.25,93.3299,102.82,117.613,101.475,79.6749,0.0219994,1.49054,19.0159,-357.467,2.13131,0.0,0.0
152,37.75,93.6928,103.112,118.929,101.475,81.2221,0.0211448,1.39966,19.1521,-357.497,1.96179,0.0,0.0
154,38.25,94.4588,103.413,124.593,101.454,80.6313,0.0202306,1.29379,19.3328,-357.517,2.02434,0.0,0.0
156,38.75,94.6262,104.36,126.771,101.47,83.4307,0.0192902,1.20803,19.396,-357.577,1.72495,0.0,0.0
158,39.25,94.037,103.538,127.424,101.452,84.6607,0.0183243,1.15615,19.5042,-357.637,1.59445,0.0,0.0
160,39.75,93.9743,103.789,132.956,101.455,85.4288,0.0173582,1.02961,19.6252,-357.637,1.51513,0.0,0.0
162,40.25,93.6543,103.036,127.63,101.447,87.2904,0.0163789,0.995574,19.7232,-357.697,1.32444,0.0,0.0
164,40.75,92.8307,102.481,132.002,101.457,88.5378,0.0154086,0.924228,19.8026,-357.727,1.20031,0.0,0.0
166,41.25,93.3191,102.894,136.193,101.44,90.3315,0.0146226,0.854612,19.9065,-357.757,1.02203,0.0,0.0
168,41.75,93.2317,103.369,132.492,101.453,90.4897,0.013986,0.788729,19.9908,-357.767,1.00776,0.0,0.0
170,42.25,92.2826,102.141,134.512,101.426,92.238,0.0130643,0.726819,20.0801,-357.777,0.83682,0.0,0.0
172,42.75,92.4559,102.275,136.012,101.441,91.7871,0.0122483,0.676672,20.1525,-357.787,0.881292,0.0,0.0
174,43.25,91.3796,101.342,135.107,101.427,94.7243,0.0115249,0.619114,20.2365,-357.827,0.602462,0.0,0.0
176,43.75,91.3571,101.077,135.318,101.438,96.3662,0.0109389,0.572492,20.3045,-357.807,0.452041,0.0,0.0
178,44.25,90.3042,100.558,146.355,101.424,99.364,0.010449,0.534729,20.3596,-357.817,0.180822,0.0,0.0
180,44.75,90.3029,100.281,148.841,101.432,99.895,0.0100384,0.486055,20.4247,-357.817,0.134517,0.0,0.0
182,45.25,89.7525,99.6916,144.424,101.418,100.756,0.00975773,0.44663,20.4775,-357.817,0.057664,0.0,0.0
184,45.75,89.0571,98.7663,148.772,101.427,101.756,0.00957723,0.405344,20.538,-357.807,-0.0284999,0.0,0.0
186,46.25,88.5082,98.5915,146.876,101.409,101.987,0.00951528,0.371902,20.587,-357.807,-0.0500675,0.0,0.0
188,46.75,87.8157,97.939,146.058,101.416,101.644,0.00954096,0.336929,20.6355,-357.817,-0.0198121,0.0,0.0
190,47.25,87.2486,96.9469,149.085,101.399,102.066,0.00956175,0.308601,20.6749,-357.817,-0.0578265,0.0,0.0
192,47.75,86.7511,96.491,145.298,101.416,102.708,0.0097496,0.282442,20.711,-357.817,-0.111559,0.0,0.0
194,48.25,86.0907,95.7384,149.385,101.381,102.269,0.00990175,0.258362,20.744,-357.817,-0.0768154,0.0,0.0
196,48.75,84.98,95.129,148.213,101.394,101.276,0.0101059,0.238858,20.7708,-357.817,0.0102427,0.0,0.0
198,49.25,84.5113,94.6244,145.987,101.383,102.649,0.0103441,0.219514,20.7969,-357.827,-0.10929,0.0,0.0
200,49.75,84.3197,93.9698,144.752,101.392,101.089,0.010575,0.203846,20.818,-357.827,0.0263219,0.0,0.0
202,50.25,83.5579,93.2161,148.871,101.368,102.586,0.010796,0.188703,20.837,-357.837,-0.105264,0.0,0.0
204,50.75,82.8364,92.322,146.12,101.383,101.591,0.0109751,0.176437,20.8541,-357.837,-0.0180445,0.0,0.0
206,51.25,82.4035,91.7939,143.499,101.363,101.94,0.0111201,0.164712,20.868,-357.837,-0.0499819,0.0,0.0
208,51.75,81.7478,91.1013,145.711,101.373,101.897,0.0112891,0.155215,20.8814,-357.837,-0.0454407,0.0,0.0
210,52.25,80.8627,90.4835,148.048,101.363,101.866,0.0114259,0.146696,20.8923,-357.847,-0.0436363,0.0,0.0
212,52.75,80.1595,89.8166,146.021,101.381,101.892,0.0115715,0.13905,20.9023,-357.847,-0.0443712,0.0,0.0
214,53.25,80.3061,89.5678,148.885,101.352,101.526,0.0116895,0.132858,20.9114,-357.857,-0.0151739,0.0,0.0
216,53.75,79.6226,89.152,149.252,101.359,101.431,0.0118199,0.127114,20.9197,-357.847,-0.00625952,0.0,0.0
218,54.25,78.3837,88.0608,147.086,101.351,102.437,0.0119255,0.121805,20.9273,-357.847,-0.0939334,0.0,0.0
220,54.75,78.0243,87.5215,145.781,101.356,101.335,0.0120213,0.117506,20.9335,-357.857,0.00186444,0.0,0.0
222,55.25,77.3322,87.0882,146.72,101.342,101.936,0.012099,0.113159,20.9394,-357.857,-0.0515033,0.0,0.0
224,55.75,77.637,86.5295,148.486,101.347,101.634,0.0121449,0.109638,20.9441,-357.857,-0.0249405,0.0,0.0
226,56.25,77.1793,86.1519,146.587,101.327,102.544,0.0121668,0.106132,20.9493,-357.857,-0.105184,0.0,0.0
228,56.75,75.676,85.2808,146.22,101.333,101.342,0.0121581,0.103292,20.9535,-357.867,-0.000787384,0.0,0.0
230,57.25,76.1995,84.9991,147.726,101.326,101.527,0.0121273,0.10067,20.9578,-357.867,-0.0175187,0.0,0.0
232,57.75,74.737,84.329,147.368,101.33,101.57,0.0121023,0.0982571,20.9613,-357.877,-0.0207808,0.0,0.0
234,58.25,74.9307,83.7699,148.024,101.323,101.731,0.0120421,0.0960542,20.9643,-357.867,-0.0354188,0.0,0.0
236,58.75,74.426,83.2911,147.746,101.324,101.744,0.0119574,0.0940464,20.967,-357.877,-0.0364514,0.0,0.0
238,59.25,74.0231,82.951,148.25,101.321,101.581,0.0118564,0.0921939,20.9692,-357.877,-0.0225062,0.0,0.0
240,59.75,73.1417,81.7757,151.763,101.319,102.984,0.0117453,0.09049,20.9714,-357.877,-0.143636,0.0,0.0
242,60.25,72.6195,81.6213,144.727,101.312,101.207,0.0116371,0.0891098,20.9732,-357.877,0.00916609,0.0,0.0
244,60.75,72.4365,81.1625,146.723,101.318,101.268,0.0115331,0.0875626,20.9751,-357.887,0.00433644,0.0,0.0
246,61.25,71.7848,80.3975,145.318,101.307,102.344,0.0114387,0.0863094,20.9771,-357.887,-0.0897113,0.0,0.0
248,61.75,71.2732,80.276,145.824,101.303,101.813,0.0113937,0.0850978,20.9781,-357.887,-0.0442186,0.0,0.0
250,62.25,70.7945,79.831,144.361,101.3,101.927,0.0113167,0.0839395,20.98,-357.897,-0.0543673,0.0,0.0
252,62.75,70.4236,78.8471,143.411,101.294,102.123,0.0112556,0.0827976,20.9817,-357.897,-0.0718537,0.0,0.0
254,63.25,70.5289,78.8746,145.543,101.297,102.611,0.0112061,0.0816893,20.9833,-357.897,-0.113528,0.0,0.0
256,63.75,69.938,78.2426,149.197,101.301,102.074,0.0111647,0.0807917,20.9846,-357.908,-0.0670134,0.0,0.0
258,64.25,68.8973,77.7346,145.743,101.298,102.734,0.0111312,0.0797607,20.9859,-357.908,-0.12405,0.0,0.0
260,64.75,68.7303,77.006,147.865,101.281,101.736,0.0111041,0.0793213,20.9871,-357.908,-0.0394942,0.0,0.0
262,65.25,68.0545,77.162,147.416,101.292,101.385,0.0110821,0.0784462,20.9882,-357.908,-0.00811674,0.0,0.0
264,65.75,68.125,76.338,148.153,101.289,101.509,0.0110028,0.0776264,20.9888,-357.918,-0.0191193,0.0,0.0
266,66.25,67.6297,75.7624,147.194,101.286,102.512,0.0109386,0.0768243,20.9891,-357.918,-0.105979,0.0,0.0
268,66.75,67.3585,75.9195,148.435,101.278,101.666,0.0108457,0.0760505,20.9894,-357.918,-0.0336397,0.0,0.0
270,67.25,66.9469,75.2091,149.162,101.285,101.533,0.0107704,0.0754238,20.9905,-357.928,-0.0215316,0.0,0.0
272,67.75,66.4663,74.7128,145.825,101.28,102.095,0.0106775,0.0749161,20.9916,-357.918,-0.0706623,0.0,0.0
274,68.25,66.1531,74.3001,148.048,101.286,101.817,0.0106022,0.0740225,20.9927,-357.918,-0.0460907,0.0,0.0
276,68.75,65.5039,73.6956,146.364,101.282,101.505,0.0105285,0.0732987,20.9939,-357.918,-0.0193794,0.0,0.0
278,69.25,65.0508,73.6493,146.923,101.287,101.529,0.0104687,0.0725892,20.995,-357.928,-0.0210951,0.0,0.0
280,69.75,64.8765,73.1613,148.049,101.28,102.68,0.010415,0.0719036,20.9959,-357.928,-0.120933,0.0,0.0
282,70.25,64.1654,72.3032,148.016,101.283,102.176,0.0103666,0.0712614,20.9967,-357.928,-0.0773707,0.0,0.0
284,70.75,63.7263,72.4175,151.884,101.267,100.746,0.0103017,0.0706629,20.9975,-357.9375,0.0454846,0.0,0.0
286,71.25,63.7287,71.9111,149.068,101.27,101.558,0.0102829,0.0701202,20.9979,-357.928,-0.0249953,0.0,0.0
288,71.75,62.854,70.9078,147.073,101.26,101.474,0.0102506,0.0696284,20.9984,-357.9375,-0.0186509,0.0,0.0
290,72.25,62.6309,70.4742,146.423,101.263,102.076,0.0102244,0.0692084,20.9989,-357.9375,-0.0705204,0.0,0.0
292,72.75,62.1857,70.4052,145.498,101.252,101.678,0.0101918,0.0688486,20.9992,-357.948,-0.0370501,0.0,0.0
294,73.25,62.2292,69.4527,149.492,101.254,101.956,0.0101653,0.0685572,20.9995,-357.948,-0.0608491,0.0,0.0
296,73.75,61.7061,69.4909,146.483,101.252,101.857,0.0101312,0.0679274,21,-357.948,-0.0525136,0.0,0.0
298,74.25,61.3451,69.1496,147.997,101.251,100.881,0.0101035,0.0677579,21.0006,-357.948,0.0322584,0.0,0.0
300,74.75,60.5399,68.5323,147.294,101.245,101.974,0.0100708,0.0673235,21.001,-357.948,-0.0632289,0.0,0.0
302,75.25,60.5572,67.8994,147.65,101.256,101.892,0.0100444,0.0668414,21.0014,-357.948,-0.0551379,0.0,0.0
304,75.75,60.393,68.0395,143.755,101.236,102.166,0.0100217,0.0664508,21.0017,-357.958,-0.0805516,0.0,0.0
306,76.25,60.0943,67.6285,146.757,101.244,101.011,0.0100034,0.0658872,21.0024,-357.948,0.0202618,0.0,0.0
308,76.75,59.4392,67.4078,144.435,101.231,101.695,0.00998847,0.0654306,21.0035,-357.958,-0.0403041,0.0,0.0
310,77.25,59.2512,67.207,149.299,101.246,101.148,0.00997642,0.0649234,21.0047,-357.958,0.00853013,0.0,0.0
312,77.75,58.8218,66.331,147.321,101.243,102.148,0.00995263,0.064389,21.0057,-357.958,-0.0784554,0.0,0.0
314,78.25,58.9945,66.3405,152.443,101.248,101.007,0.00993336,0.0637365,21.0066,-357.958,0.0209818,0.0,0.0
316,78.75,58.5255,66.1202,146.579,101.234,101.165,0.00991776,0.063208,21.0072,-357.968,0.00603935,0.0,0.0
318,79.25,57.5963,65.3662,150.153,101.241,101.317,0.00985289,0.0626644,21.0078,-357.958,-0.00662168,0.0,0.0
320,79.75,57.4225,64.9532,147.845,101.222,101.889,0.00980035,0.06212,21.0082,-357.958,-0.057853,0.0,0.0
322,80.25,57.6083,64.8607,146.676,101.239,101.326,0.00972164,0.0615925,21.0086,-357.978,-0.00753425,0.0,0.0
324,80.75,57.4809,64.4899,149.138,101.222,101.792,0.00962536,0.0610873,21.0093,-357.968,-0.0495218,0.0,0.0
326,81.25,56.9459,64.1546,145.504,101.242,101.985,0.00951199,0.060678,21.0099,-357.978,-0.0644283,0.0,0.0
328,81.75,56.411,64.1761,147.509,101.228,101.008,0.00938832,0.0602094,21.0103,-357.978,0.0191948,0.0,0.0
330,82.25,56.0618,63.3885,147.397,101.247,101.422,0.00928815,0.0598298,21.0105,-357.978,-0.0152039,0.0,0.0
332,82.75,56.4383,63.8114,148.653,101.227,101.408,0.00915503,0.059443,21.011,-357.978,-0.0157384,0.0,0.0
334,83.25,55.5974,62.9337,144.682,101.236,101.494,0.00898658,0.0590583,21.0115,-357.978,-0.0224483,0.0,0.0
336,83.75,55.1421,62.3167,148.175,101.228,101.06,0.00893201,0.0586597,21.0122,-357.978,0.01468,0.0,0.0
338,84.25,55.3937,62.3159,148.174,101.238,101.408,0.0088387,0.0582586,21.013,-357.988,-0.0147924,0.0,0.0
340,84.75,54.9959,62.0133,148.99,101.227,101.574,0.00872643,0.0579338,21.0136,-357.988,-0.0301715,0.0,0.0
342,85.25,54.5308,61.8422,151.991,101.242,101.305,0.00863549,0.0575199,21.0141,-357.998,-0.00555311,0.0,0.0
344,85.75,54.4311,61.9192,146.957,101.226,101.646,0.00852126,0.0571847,21.0145,-357.998,-0.0365316,0.0,0.0
346,86.25,54.3212,61.7465,147.635,101.236,101.111,0.00839223,0.0568447,21.0148,-357.988,0.0109426,0.0,0.0
348,86.75,53.6884,61.5872,145.81,101.231,102.145,0.00825452,0.0565694,21.0151,-357.998,-0.0792138,0.0,0.0
350,87.25,53.5922,60.7262,147.239,101.233,101.997,0.00811311,0.0562778,21.0153,-357.998,-0.0662243,0.0,0.0
352,87.75,53.0018,59.9697,145.775,101.223,102.117,0.00799857,0.0560417,21.0159,-357.998,-0.0774619,0.0,0.0
354,88.25,53.1508,60.2666,145.389,101.244,101.937,0.00790579,0.0557928,21.0165,-357.998,-0.0601442,0.0,0.0
356,88.75,53.4892,60.2762,144.895,101.231,101.718,0.00773247,0.0555393,21.0167,-358.008,-0.042217,0.0,0.0
358,89.25,53.1714,59.3845,150.005,101.243,101.69,0.00759208,0.0553339,21.0168,-357.998,-0.0388505,0.0,0.0
360,89.75,52.9239,59.6201,152.627,101.216,102.232,0.00742937,0.0550718,21.0169,-357.998,-0.0880782,0.0,0.0
362,90.25,52.3334,59.476,146.664,101.243,102.028,0.00729758,0.0548595,21.017,-358.008,-0.0681307,0.0,0.0
364,90.75,52.6472,59.0678,146.803,101.226,101.68,0.00717032,0.0546875,21.017,-358.008,-0.0394008,0.0,0.0
366,91.25,51.4848,58.4261,146.123,101.239,101.916,0.00704877,0.054425,21.0175,-358.008,-0.0587307,0.0,0.0
368,91.75,51.8562,58.1003,152.037,101.232,100.989,0.00693053,0.0542124,21.0179,-358.018,0.0211359,0.0,0.0
370,92.25,51.7792,58.1217,150.837,101.245,101.638,0.00681694,0.0539855,21.0183,-358.018,-0.0341168,0.0,0.0
372,92.75,51.3271,58.0435,146.172,101.226,101.425,0.00672493,0.0538017,21.0187,-358.018,-0.0173182,0.0,0.0
374,93.25,51.1631,57.4223,147.275,101.242,102.247,0.00663261,0.0535844,21.0191,-358.028,-0.0870485,0.0,0.0
376,93.75,50.586,57.7527,148.323,101.231,101.614,0.00654181,0.0534084,21.0196,-358.018,-0.0332094,0.0,0.0
378,94.25,51.0912,57.1682,149.099,101.258,101.476,0.00646365,0.0532446,21.0202,-358.018,-0.0189751,0.0,0.0
380,94.75,50.7962,57.0126,149.825,101.235,100.663,0.0063962,0.0530928,21.0207,-358.018,0.049923,0.0,0.0
382,95.25,50.553,56.5494,151.971,101.24,101.211,0.00634155,0.0529699,21.0211,-358.028,0.00250088,0.0,0.0
384,95.75,50.232,56.4298,147.533,101.24,101.505,0.00630105,0.05282,21.0214,-358.028,-0.0230186,0.0,0.0
386,96.25,49.9184,56.4974,148.972,101.249,101.168,0.00626824,0.0526532,21.0217,-358.028,0.00700195,0.0,0.0
388,96.75,49.8777,56.5319,150.292,101.233,101.612,0.00623666,0.0525181,21.0219,-358.028,-0.0328509,0.0,0.0
390,97.25,49.5565,55.8199,147.169,101.244,101.677,0.00621108,0.0523676,21.0221,-358.038,-0.0375691,0.0,0.0
392,97.75,49.7924,55.8385,152.412,101.243,101.486,0.00617159,0.0522457,21.0222,-358.038,-0.0211146,0.0,0.0
394,98.25,49.5127,55.3728,145.006,101.248,101.55,0.00613961,0.052147,21.0223,-358.038,-0.0262927,0.0,0.0
396,98.75,48.8665,55.2166,149.776,101.245,101.216,0.0060662,0.052067,21.0226,-358.038,0.00251349,0.0,0.0
398,99.25,49.287,55.0107,148.653,101.238,101.716,0.00600673,0.0520022,21.0231,-358.038,-0.0415125,0.0,0.0
400,99.75,48.4855,55.0626,147.755,101.244,102.029,0.00595857,0.0519498,21.0235,-358.048,-0.0680624,0.0,0.0
402,100.25,48.372,54.7713,145.923,101.244,101.874,0.00583968,0.0518526,21.0238,-358.038,-0.0547167,0.0,0.0
404,100.75,48.359,54.4282,144.595,101.234,102.092,0.00574338,0.0517738,21.0241,-358.038,-0.0743218,0.0,0.0
406,101.25,48.1655,53.9184,148.943,101.243,102.438,0.00561314,0.0516554,21.0243,-358.038,-0.103413,0.0,0.0
408,101.75,48.0699,54.4395,147.687,101.246,101.69,0.00550764,0.0515594,21.0244,-358.048,-0.0386405,0.0,0.0
410,102.25,47.6395,53.999,147.593,101.239,101.554,0.00541367,0.0514385,21.0246,-358.048,-0.0273591,0.0,0.0
412,102.75,47.6048,53.9982,148.143,101.248,101.885,0.00532989,0.0513018,21.0245,-358.048,-0.0552484,0.0,0.0
414,103.25,47.5802,53.583,149.253,101.243,100.634,0.00526792,0.051191,21.0245,-358.048,0.0531491,0.0,0.0
416,103.75,46.8966,53.3165,144.495,101.247,101.721,0.00522303,0.0511012,21.0244,-358.058,-0.0411463,0.0,0.0
418,104.25,47.4657,53.339,147.102,101.248,101.609,0.00518667,0.0510285,21.0244,-358.048,-0.0312989,0.0,0.0
420,104.75,46.9634,53.1855,148.248,101.254,100.574,0.00517092,0.0509405,21.0244,-358.058,0.0593702,0.0,0.0
422,105.25,47.2057,52.6018,150.489,101.241,101.922,0.00515816,0.0508429,21.0244,-358.058,-0.0590342,0.0,0.0
424,105.75,46.9822,52.4191,146.875,101.262,101.241,0.00514035,0.0507639,21.0244,-358.058,0.00180457,0.0,0.0
426,106.25,46.5772,52.2016,147.728,101.256,101.894,0.00512592,0.0506452,21.0243,-358.058,-0.0553911,0.0,0.0
428,106.75,46.5048,52.714,145.743,101.27,101.316,0.00511424,0.0505491,21.0243,-358.058,-0.00402906,0.0,0.0
430,107.25,46.118,51.7753,148.652,101.254,101.737,0.00505749,0.0504712,21.0246,-358.068,-0.041911,0.0,0.0
432,107.75,46.3653,51.9492,147.826,101.276,101.368,0.00501153,0.0504082,21.025,-358.058,-0.00796638,0.0,0.0
434,108.25,46.384,51.3935,148.434,101.265,101.68,0.00494074,0.0503161,21.0253,-358.058,-0.0360791,0.0,0.0
436,108.75,46.2143,51.4946,146.006,101.266,102.395,0.00488341,0.0502415,21.0255,-358.068,-0.0976599,0.0,0.0
438,109.25,45.6983,51.487,145.117,101.268,101.97,0.00480716,0.0501811,21.0257,-358.068,-0.0608682,0.0,0.0
440,109.75,45.49,51.3282,149.768,101.261,101.357,0.0047454,0.0500638,21.0259,-358.078,-0.00841063,0.0,0.0
442,110.25,45.0684,50.8995,146.377,101.26,101.535,0.00467427,0.0499688,21.026,-358.058,-0.0238839,0.0,0.0
444,110.75,45.0087,50.7351,145.432,101.281,102.576,0.00461666,0.0499351,21.0262,-358.068,-0.11194,0.0,0.0
446,111.25,45.1853,50.5681,147.558,101.287,101.226,0.00457,0.0499465,21.0262,-358.068,0.00537272,0.0,0.0
448,111.75,44.9266,50.1968,144.421,101.291,102.067,0.0045322,0.0499342,21.0263,-358.068,-0.0672669,0.0,0.0
450,112.25,44.5294,50.2194,150.611,101.285,102.244,0.00445942,0.0499049,21.0264,-358.068,-0.083046,0.0,0.0
452,112.75,45.1176,50.1669,146.984,101.292,101.471,0.00440048,0.0498264,21.0264,-358.058,-0.0155585,0.0,0.0
454,113.25,44.331,50.0248,145.124,101.291,102.043,0.00433043,0.0497629,21.0265,-358.068,-0.0651802,0.0,0.0
456,113.75,44.5956,49.5004,146.948,101.304,101.171,0.00427369,0.0497114,21.0265,-358.048,0.011571,0.0,0.0
458,114.25,44.3516,49.3252,148.354,101.286,101.882,0.00422773,0.0496266,21.0265,-358.048,-0.0517052,0.0,0.0
460,114.75,44.2853,49.0388,149.222,101.301,101.358,0.00417812,0.049519,21.0265,-358.048,-0.00491561,0.0,0.0
462,115.25,44.2605,49.1116,149.646,101.295,101.287,0.00413794,0.0494319,21.0266,-358.048,0.000720613,0.0,0.0
464,115.75,43.7778,49.1437,150.416,101.319,101.748,0.0040992,0.0493477,21.0266,-358.058,-0.0372727,0.0,0.0
466,116.25,43.3545,48.8898,144.596,101.304,101.431,0.00406782,0.0492795,21.0266,-358.048,-0.0110466,0.0,0.0
468,116.75,43.673,48.6088,146.316,101.307,101.361,0.00403374,0.0492242,21.0266,-358.058,-0.0046849,0.0,0.0
470,117.25,43.721,48.8286,149.273,101.288,101.994,0.00400613,0.0491521,21.0266,-358.058,-0.0612109,0.0,0.0
472,117.75,43.6488,48.9459,146.013,101.301,101.74,0.00397758,0.0490938,21.0266,-358.068,-0.0380782,0.0,0.0
474,118.25,43.4299,48.4185,154.563,101.296,101.535,0.00395446,0.0490321,21.0266,-358.078,-0.0207713,0.0,0.0
476,118.75,43.2365,48.297,148.838,101.312,101.042,0.00393325,0.0489692,21.0266,-358.088,0.0235061,0.0,0.0
478,119.25,42.9945,47.5154,149.255,101.303,101.444,0.00391412,0.0489046,21.0266,-358.088,-0.0122563,0.0,0.0
480,119.75,42.6928,47.9501,146.41,101.319,101.681,0.00389687,0.0488522,21.0266,-358.088,-0.031397,0.0,0.0
482,120.25,42.9846,47.9114,147.582,101.303,101.877,0.00388289,0.0488372,21.0266,-358.078,-0.0497246,0.0,0.0
484,120.75,42.4795,47.6434,146.45,101.331,101.663,0.00386116,0.048825,21.0266,-358.078,-0.0288029,0.0,0.0
486,121.25,43.2334,48.0068,148.182,101.32,102.215,0.00383418,0.0487741,21.0271,-358.078,-0.0774481,0.0,0.0
488,121.75,42.4573,46.9713,145.74,101.343,101.265,0.00380712,0.0487329,21.0274,-358.088,0.0068361,0.0,0.0
490,122.25,42.1717,47.0644,148.596,101.313,101.423,0.00378051,0.0486859,21.0277,-358.088,-0.00950689,0.0,0.0
492,122.75,41.6988,46.6851,145.888,101.336,101.446,0.00376917,0.0486478,21.0278,-358.088,-0.00954107,0.0,0.0
494,123.25,42.3693,47.2258,148.091,101.32,101.452,0.00375173,0.0485896,21.0281,-358.088,-0.0115273,0.0,0.0
496,123.75,42.5082,46.7984,146.501,101.335,101.29,0.00373935,0.0485425,21.0282,-358.088,0.00392274,0.0,0.0
498,124.25,42.0319,47.0052,147.844,101.324,100.839,0.00372868,0.0484828,21.0284,-358.088,0.0422944,0.0,0.0
500,124.75,41.7032,47.1548,147.839,101.335,101.324,0.00371945,0.048415,21.0285,-358.088,0.000973759,0.0,0.0
502,125.25,42.0859,46.9288,148.588,101.326,102.504,0.00370807,0.0483601,21.0286,-358.088,-0.10186,0.0,0.0
504,125.75,41.7258,46.401,147.735,101.333,101.24,0.00369534,0.0483295,21.0287,-358.088,0.00806834,0.0,0.0
506,126.25,41.6544,46.3684,146.269,101.315,101.77,0.00367787,0.0482772,21.0287,-358.088,-0.0395327,0.0,0.0
508,126.75,41.7518,46.4357,146.94,101.345,101.103,0.00365729,0.0482348,21.0288,-358.098,0.0210845,0.0,0.0
510,127.25,41.6533,45.795,144.119,101.325,101.673,0.00364061,0.0481731,21.0288,-358.098,-0.0302079,0.0,0.0
512,127.75,41.287,45.82,146.13,101.339,101.369,0.003605,0.0481448,21.0288,-358.098,-0.00266079,0.0,0.0
514,128.25,41.3448,45.6255,147.619,101.311,101.922,0.00355627,0.0481412,21.0289,-358.098,-0.0530219,0.0,0.0
516,128.75,41.2056,45.4986,146.924,101.339,101.799,0.00349992,0.0481743,21.0289,-358.098,-0.0399326,0.0,0.0
518,129.25,41.0207,45.6036,147.879,101.321,101.708,0.00343908,0.0482334,21.0289,-358.108,-0.0336075,0.0,0.0
520,129.75,41.2698,45.223,147.384,101.339,100.811,0.00340341,0.0482813,21.0289,-358.108,0.0460688,0.0,0.0
522,130.25,41.0649,45.449,146.049,101.315,101.189,0.00334241,0.0483416,21.0289,-358.108,0.0109982,0.0,0.0
524,130.75,41.0548,45.2653,148.285,101.343,101.343,0.00329105,0.0484099,21.0289,-358.108,-6.09292e-05,0.0,0.0
526,131.25,40.6123,45.4323,149.888,101.336,101.332,0.0032477,0.0484652,21.0289,-358.108,0.000377121,0.0,0.0
528,131.75,40.8123,44.813,147.192,101.341,102.145,0.00321389,0.04851,21.0289,-358.108,-0.0695955,0.0,0.0
530,132.25,40.8981,45.1418,145.954,101.332,101.637,0.00318767,0.0485463,21.0289,-358.108,-0.026455,0.0,0.0
532,132.75,40.7143,45.0624,150.795,101.343,101.85,0.00316643,0.0485618,21.0289,-358.108,-0.0439525,0.0,0.0
534,133.25,40.3958,44.8519,150.297,101.344,101.872,0.00315037,0.0485882,21.029,-358.108,-0.0458256,0.0,0.0
536,133.75,40.2484,45.1679,149.847,101.344,101.403,0.00313736,0.0485141,21.029,-358.108,-0.00518942,0.0,0.0
538,134.25,40.7806,44.679,148.915,101.338,100.998,0.00312683,0.0484396,21.029,-358.108,0.0296267,0.0,0.0
540,134.75,40.1502,44.1946,144.313,101.345,101.451,0.00311829,0.0483664,21.029,-358.108,-0.00921244,0.0,0.0
542,135.25,40.1304,44.1423,147.835,101.344,101.651,0.00310029,0.048307,21.029,-358.108,-0.0267258,0.0,0.0
544,135.75,40.3025,43.9961,146.247,101.353,101.441,0.00308571,0.048259,21.0291,-358.108,-0.0076683,0.0,0.0
546,136.25,39.9237,43.9496,144.821,101.354,102.269,0.00307513,0.0482201,21.0292,-358.108,-0.0791566,0.0,0.0
548,136.75,40.0652,43.8338,148.613,101.343,102.78,0.00306656,0.0481885,21.0289,-358.108,-0.124065,0.0,0.0
550,137.25,40.2097,43.8961,149.586,101.347,101.642,0.00306286,0.048163,21.0286,-358.118,-0.0256026,0.0,0.0
552,137.75,40.1946,43.6778,147.998,101.355,100.942,0.00306278,0.0481157,21.0283,-358.118,0.0359461,0.0,0.0
554,138.25,39.6126,43.3404,146.782,101.349,101.581,0.00306402,0.0480774,21.0281,-358.118,-0.0201316,0.0,0.0
556,138.75,39.5979,43.7541,150.228,101.352,102.271,0.00306618,0.0480392,21.028,-358.118,-0.0795472,0.0,0.0
558,139.25,40.0001,43.7229,150.048,101.36,101.7,0.00306599,0.0480018,21.0278,-358.118,-0.0295554,0.0,0.0
560,139.75,39.423,43.5933,152.995,101.354,101.443,0.00306409,0.0479715,21.0277,-358.118,-0.00767356,0.0,0.0
562,140.25,39.2363,43.6953,153.949,101.358,100.893,0.00305347,0.0479469,21.0277,-358.128,0.0404876,0.0,0.0
564,140.75,39.6382,43.2285,149.364,101.356,101.356,0.00303669,0.0479271,21.0276,-358.118,-1.41817e-05,0.0,0.0
566,141.25,39.2168,43.1004,145.604,101.365,101.679,0.0030231,0.0479109,21.0275,-358.108,-0.0272648,0.0,0.0
568,141.75,39.5669,42.7918,150.158,101.366,101.528,0.0029946,0.0478979,21.0275,-358.128,-0.0140259,0.0,0.0
570,142.25,39.2765,42.9659,147.619,101.363,101.822,0.00295576,0.0478464,21.0279,-358.128,-0.0397828,0.0,0.0
572,142.75,39.0521,42.65,147.564,101.37,101.861,0.00291071,0.0478046,21.0282,-358.128,-0.0425284,0.0,0.0
574,143.25,39.1816,42.7183,146.936,101.375,102.451,0.00286197,0.0477708,21.0285,-358.128,-0.0931111,0.0,0.0
576,143.75,39.1622,42.241,146.316,101.358,101.599,0.0028225,0.0477434,21.0287,-358.128,-0.0209445,0.0,0.0
578,144.25,38.9532,43.0018,145.53,101.372,102.375,0.00276848,0.0477213,21.0289,-358.138,-0.0867504,0.0,0.0
580,144.75,38.8127,42.358,148.094,101.367,100.444,0.00271631,0.0477033,21.029,-358.138,0.0806069,0.0,0.0
582,145.25,39.2632,41.5845,147.277,101.373,102.157,0.00266649,0.0476815,21.0291,-358.138,-0.0679317,0.0,0.0
584,145.75,39.2297,42.8986,152.198,101.376,102.335,0.00262614,0.0476575,21.029,-358.128,-0.0829325,0.0,0.0
586,146.25,38.4605,42.0052,152.322,101.382,101.428,0.00257134,0.047638,21.029,-358.138,-0.00400804,0.0,0.0
588,146.75,38.6736,42.2965,148.223,101.367,101.654,0.00252696,0.0475812,21.0289,-358.128,-0.0249215,0.0,0.0
590,147.25,38.6834,42.2751,149.247,101.391,101.695,0.00248487,0.0475352,21.0289,-358.138,-0.0263533,0.0,0.0
592,147.75,38.5193,42.0802,146.362,101.381,101.492,0.00245078,0.0474836,21.0289,-358.138,-0.00964255,0.0,0.0
594,148.25,38.6265,41.7737,148.478,101.389,101.791,0.00242316,0.0474418,21.0288,-358.138,-0.0349015,0.0,0.0
596,148.75,38.244,42.0393,147.667,101.392,101.842,0.00240816,0.0474079,21.0288,-358.138,-0.0390288,0.0,0.0
598,149.25,37.9532,41.9066,146.841,101.405,101.424,0.00239601,0.0473805,21.0288,-358.138,-0.00161371,0.0,0.0
600,149.75,37.8989,41.3695,145.615,101.389,101.097,0.00240336,0.0473583,21.0288,-358.138,0.0253394,0.0,0.0
602,150.25,38.5699,41.8155,148.731,101.4,101.483,0.00240932,0.0473403,21.0288,-358.138,-0.00718834,0.0,0.0
604,150.75,38.2184,41.3295,148.432,101.399,101.296,0.00242888,0.0473257,21.0288,-358.138,0.00892682,0.0,0.0
606,151.25,37.9875,40.9399,147.343,101.408,102.542,0.00244474,0.0472894,21.0288,-358.138,-0.0980142,0.0,0.0
608,151.75,37.7885,41.168,144.508,101.405,101.313,0.0024634,0.0472796,21.0288,-358.138,0.00804525,0.0,0.0
610,152.25,38.0959,41.3041,148.026,101.421,101.711,0.00248375,0.0472356,21.0288,-358.138,-0.0251644,0.0,0.0
612,152.75,38.0749,41.271,147.277,101.416,101.709,0.00250147,0.0472,21.0285,-358.138,-0.0254019,0.0,0.0
614,153.25,37.708,41.0472,149.777,101.427,101.511,0.00251582,0.0471639,21.0281,-358.138,-0.00731714,0.0,0.0
616,153.75,38.0424,41.0491,144.957,101.423,101.548,0.00252622,0.0471283,21.0278,-358.138,-0.0109046,0.0,0.0
618,154.25,37.5279,41.1485,150.463,101.434,101.491,0.00253464,0.0471137,21.0276,-358.138,-0.00492139,0.0,0.0
620,154.75,37.5586,40.5521,147.929,101.428,102.143,0.00254146,0.0471149,21.0273,-358.138,-0.0619736,0.0,0.0
622,155.25,37.7137,40.5855,147.065,101.437,100.968,0.00254892,0.0471087,21.0272,-358.138,0.0408494,0.0,0.0
624,155.75,37.0171,40.4504,147.593,101.449,101.269,0.00255672,0.0470972,21.027,-358.138,0.0156176,0.0,0.0
626,156.25,37.7217,40.8877,145.983,101.452,101.885,0.00256303,0.0470332,21.0269,-358.138,-0.0375312,0.0,0.0
628,156.75,37.2523,40.7635,150.882,101.449,101.958,0.00256323,0.0469814,21.0268,-358.148,-0.0440813,0.0,0.0
630,157.25,37.6932,40.5464,145.719,101.453,102.072,0.00256339,0.0469395,21.0267,-358.138,-0.053553,0.0,0.0
632,157.75,37.7489,40.7823,149.354,101.45,100.579,0.00256352,0.0469465,21.0267,-358.148,0.0760141,0.0,0.0
634,158.25,37.1575,40.3143,147.69,101.46,101.838,0.00254396,0.0469521,21.027,-358.148,-0.0327233,0.0,0.0
636,158.75,37.1848,40.5413,146.573,101.455,101.65,0.00252811,0.0469567,21.0275,-358.158,-0.0168682,0.0,0.0
638,159.25,37.2922,40.2776,145.254,101.466,102.083,0.00249317,0.0469604,21.028,-358.158,-0.0533881,0.0,0.0
640,159.75,36.8199,40.0822,144.49,101.464,102.75,0.00246487,0.0469634,21.0284,-358.158,-0.11104,0.0,0.0
642,160.25,37.3105,40.1991,146.301,101.469,101.169,0.00242107,0.0469658,21.0287,-358.148,0.0260422,0.0,0.0
644,160.75,37.7027,40.212,146.693,101.457,101.377,0.0023856,0.0469405,21.0289,-358.158,0.00698095,0.0,0.0
646,161.25,37.1449,40.3943,151.818,101.481,101.724,0.00233969,0.04692,21.0293,-358.158,-0.0211014,0.0,0.0
648,161.75,37.0863,40.0276,144.819,101.467,101.989,0.0023025,0.0469033,21.0299,-358.158,-0.0452222,0.0,0.0
650,162.25,37.2815,39.9318,147.244,101.492,101.191,0.00227237,0.0468899,21.0304,-358.168,0.0261114,0.0,0.0
652,162.75,36.8414,39.9055,149.466,101.484,102.328,0.00223326,0.0468862,21.0307,-358.158,-0.0729531,0.0,0.0
654,163.25,37.2738,39.416,148.539,101.493,101.357,0.00220157,0.0468896,21.031,-358.168,0.011784,0.0,0.0
656,163.75,36.6893,39.9952,146.613,101.481,102.024,0.00217713,0.0469061,21.0313,-358.148,-0.0470079,0.0,0.0
658,164.25,37.2516,40.0077,151.076,101.494,101.699,0.00215734,0.0469194,21.0315,-358.168,-0.0177834,0.0,0.0
660,164.75,37.128,39.6073,148.396,101.487,100.971,0.00214712,0.0469014,21.0316,-358.168,0.0449902,0.0,0.0
662,165.25,37.0038,40.0615,146.045,101.507,101.209,0.00214406,0.046861,21.0313,-358.168,0.0259228,0.0,0.0
664,165.75,37.2539,39.6346,150.301,101.504,102.211,0.00214417,0.0468283,21.031,-358.168,-0.0611231,0.0,0.0
666,166.25,36.8746,39.4856,147.983,101.517,101.32,0.00214658,0.0468291,21.0313,-358.168,0.0171233,0.0,0.0
668,166.75,36.9506,38.9324,148.034,101.497,101.999,0.00214854,0.0468298,21.0315,-358.168,-0.0435197,0.0,0.0
670,167.25,36.8768,39.3747,150.89,101.526,101.232,0.00214889,0.0468303,21.0316,-358.168,0.0255677,0.0,0.0
672,167.75,37.0201,39.1316,148.367,101.501,102.832,0.00214905,0.0468307,21.0317,-358.168,-0.114775,0.0,0.0
674,168.25,36.174,39.2355,146.008,101.538,101.824,0.00215544,0.0468167,21.0318,-358.168,-0.0247788,0.0,0.0
676,168.75,36.7277,39.354,151.22,101.512,101.461,0.00216062,0.0467924,21.0319,-358.158,0.00446769,0.0,0.0
678,169.25,36.2821,39.0585,141.525,101.525,101.053,0.00216481,0.0467727,21.032,-358.158,0.0410575,0.0,0.0
680,169.75,36.7535,39.6376,145.963,101.509,102.592,0.00218417,0.0467704,21.032,-358.168,-0.0935523,0.0,0.0
682,170.25,36.1861,39.3249,148.277,101.532,101.191,0.00219984,0.0467686,21.0321,-358.178,0.0296016,0.0,0.0
684,170.75,36.3576,39.2501,146.487,101.521,101.304,0.00222727,0.0467678,21.0321,-358.178,0.0188761,0.0,0.0
686,171.25,36.4612,39.1045,148.399,101.534,101.407,0.00224949,0.0467664,21.0322,-358.168,0.0110664,0.0,0.0
688,171.75,36.3998,39.2788,150.167,101.518,100.413,0.00227239,0.0467725,21.0322,-358.168,0.0964201,0.0,0.0
690,172.25,36.1316,39.1708,147.071,101.533,101.816,0.00229095,0.0467839,21.0322,-358.168,-0.024498,0.0,0.0
692,172.75,35.8734,38.9044,148.413,101.531,101.507,0.00229738,0.0467931,21.0322,-358.178,0.00202198,0.0,0.0
694,173.25,36.0904,38.6034,146.761,101.533,101.512,0.0022942,0.046746,21.0322,-358.178,0.00182348,0.0,0.0
696,173.75,36.3132,38.9853,152.174,101.535,101.106,0.00228406,0.0467078,21.0322,-358.168,0.037236,0.0,0.0
698,174.25,36.6851,38.5377,147.999,101.539,101.394,0.00227584,0.0466554,21.0322,-358.178,0.0125928,0.0,0.0
700,174.75,36.4155,38.7444,148.859,101.537,102.077,0.00224956,0.0465935,21.0323,-358.168,-0.0467354,0.0,0.0
702,175.25,36.031,38.389,149.222,101.54,101.673,0.00222827,0.0465707,21.0323,-358.168,-0.0115636,0.0,0.0
704,175.75,36.514,38.7949,144.535,101.522,101.454,0.00221102,0.0465522,21.0323,-358.178,0.00589238,0.0,0.0
706,176.25,36.2081,38.6433,148.206,101.549,101.869,0.00216517,0.0465508,21.0323,-358.188,-0.0276921,0.0,0.0
708,176.75,36.1853,38.4729,147.57,101.542,101.181,0.00212804,0.0465497,21.0323,-358.188,0.0313949,0.0,0.0
710,177.25,36.0164,38.3536,149.454,101.541,101.531,0.00209473,0.0465079,21.0323,-358.178,0.000831956,0.0,0.0
712,177.75,35.8131,38.4819,144.837,101.541,101.452,0.00206485,0.0464741,21.0323,-358.178,0.00768,0.0,0.0
714,178.25,35.9674,38.4881,144.416,101.535,101.313,0.00204129,0.0464466,21.0323,-358.178,0.0192483,0.0,0.0
716,178.75,35.9583,38.6013,145.897,101.542,100.904,0.00202279,0.0463834,21.0323,-358.178,0.0555493,0.0,0.0
718,179.25,35.8793,38.624,148.767,101.547,101.715,0.00200974,0.0463323,21.0323,-358.178,-0.0145357,0.0,0.0
720,179.75,36.1156,38.3407,147.042,101.54,101.459,,0.0463124,,-358.178,0.00705758,0.0,0.0
722,180.25,35.9519,37.9697,148.393,101.542,102.148,,0.0463157,,-358.178,-0.052429,0.0,0.0
724,180.75,35.7854,38.121,149.396,101.548,100.986,,0.0463183,,-358.188,0.0489285,0.0,0.0
726,181.25,35.335,37.8549,146.448,101.542,102.797,,0.0462932,,-358.168,-0.108271,0.0,0.0
728,181.75,35.7856,38.048,146.091,101.551,102.069,,0.0462656,,-358.178,-0.0448537,0.0,0.0
730,182.25,35.9817,38.1324,144.769,101.549,101.331,,0.0462368,,-358.178,0.0189223,0.0,0.0
732,182.75,35.9231,37.9456,147.27,101.55,101.193,,,,-358.178,0.0310578,0.0,0.0
734,183.25,35.9993,37.6112,144.108,101.536,100.426,,,,-358.178,0.0967993,0.0,0.0
736,183.75,36.0503,38.004,151.695,101.544,101.192,,,,-358.178,0.0306454,0.0,0.0
738,184.25,35.971,37.9336,146.304,101.533,101.084,,,,-358.188,0.0390905,0.0,0.0
740,184.75,36.0623,37.3949,144.642,101.544,101.03,,,,-358.178,0.0446924,0.0,0.0
742,185.25,35.5506,37.6418,149.704,101.531,102.102,,,,-358.178,-0.049488,0.0,0.0
744,185.75,35.4913,37.6515,150.052,101.544,101.069,,,,-358.178,0.0412907,0.0,0.0
746,186.25,35.6287,38.0787,148.756,101.531,100.863,,,,-358.178,0.0581316,0.0,0.0
748,186.75,35.9395,37.871,144.711,101.543,101.613,,,,-358.168,-0.00602562,0.0,0.0
750,187.25,35.6516,37.7209,150.299,101.529,103.149,,,,-358.188,-0.139479,0.0,0.0
752,187.75,35.6503,38.1927,151.618,101.549,101.843,,,,-358.188,-0.0254167,0.0,0.0
754,188.25,35.7058,37.2732,146.009,101.526,102.648,,,,-358.188,-0.0968235,0.0,0.0
756,188.75,35.6253,37.7255,145.912,101.536,101.806,,,,-358.188,-0.0234457,0.0,0.0
758,189.25,35.5653,37.0371,146.327,101.526,101.584,,,,-358.188,-0.00498971,0.0,0.0
760,189.75,35.3851,37.4872,145.814,101.535,100.793,,,,-358.208,0.0645974,0.0,0.0
762,190.25,35.706,37.4661,151.872,101.515,101.065,,,,-358.198,0.0391846,0.0,0.0