File: 01_Data/Rebond_Foam_Carpet_Pad/Cone/Rebond_Foam_Carpet_Pad_Cone_HF75Scan_220414_R3.csv
Names,Time,Stack TC,Smoke TC,Exh Press,Smoke Comp,Smoke Meas,CO Meter,CO2 Meter,O2 Meter,Sample Mass,Ext Coeff,Start Test,Flame Verif
Chan Gain,,500,500,1,1,1,1,1,1,1,1,1.0,1.0
Offset,,0,0,0.134258,0,0,0,0,0,0,0,0.0,0.0
Gain,,1,1,25.011,13.171,13.8983,1,1,1,1.00092,1.00459,1.0,1.0
Units,sec,C,C,Pa,%,%,%,%,%,g,/m,,
Baseline,,51.1232,52.3944,141.103,101.096,102.421,0.00102007,0.0471249,21.0277,-835.581,-0.114603,,
2,0.25,50.569,51.6069,140.393,101.358,98.9293,0.00342736,0.067667,21.0103,-354.474,0.213734,0.0,0.0
4,0.75,50.472,51.3141,134.456,101.356,89.8708,0.00440325,0.0842017,21.0037,-354.705,1.05985,0.0,1.0
6,1.25,48.7269,49.6759,128.1,101.371,80.8714,0.00549059,0.110013,20.9663,-354.474,1.99095,0.0,1.0
8,1.75,48.7354,49.9615,129.314,101.353,75.548,0.00675162,0.130921,20.9359,-354.604,2.58939,0.0,1.0
10,2.25,48.5311,49.7513,123.372,101.362,72.4038,0.00811529,0.172176,20.8698,-354.805,2.96482,0.0,1.0
12,2.75,49.4884,49.6129,129.456,101.341,70.974,0.00960217,0.205593,20.8163,-354.805,3.13873,0.0,1.0
14,3.25,49.3299,50.1035,119.669,101.361,73.7314,0.0111506,0.244221,20.7359,-354.785,2.80461,0.0,1.0
16,3.75,49.7502,50.0851,117.943,101.344,74.5673,0.0127621,0.285913,20.6708,-354.945,2.70372,0.0,1.0
18,4.25,50.0381,50.6054,120.944,101.358,71.0622,0.0143889,0.329193,20.59,-355.025,3.12922,0.0,1.0
20,4.75,50.6002,50.9941,115.553,101.345,68.7163,0.0159979,0.372809,20.5245,-355.075,3.42392,0.0,1.0
22,5.25,50.5384,51.7598,118.914,101.351,67.569,0.0175633,0.417623,20.4576,-355.155,3.57286,0.0,1.0
24,5.75,51.5588,52.2971,117.338,101.341,71.5385,0.0188313,0.46246,20.3909,-355.315,3.06888,0.0,1.0
26,6.25,50.2704,51.2171,122.006,101.356,70.1626,0.0202328,0.498777,20.3369,-355.385,3.24135,0.0,0.0
28,6.75,50.6474,51.6573,113.784,101.341,67.102,0.0217049,0.546791,20.2673,-355.485,3.6331,0.0,0.0
30,7.25,52.327,52.1467,111.4,101.358,64.1512,0.0228974,0.593549,20.2109,-355.625,4.03082,0.0,0.0
32,7.75,52.2837,53.3162,116.073,101.338,65.827,0.0242974,0.638504,20.1535,-355.725,3.8019,0.0,0.0
34,8.25,53.4788,53.7504,106.783,101.353,65.4928,0.0254314,0.674917,20.0964,-355.826,3.84805,0.0,0.0
36,8.75,54.3291,54.5977,111.971,101.334,65.5242,0.0266488,0.71388,20.0378,-355.916,3.84219,0.0,0.0
38,9.25,55.2397,55.6556,105.439,101.355,66.6923,0.0276349,0.753961,19.979,-355.996,3.68829,0.0,0.0
40,9.75,55.8823,56.273,108.121,101.339,68.016,0.0286977,0.786427,19.9185,-356.136,3.51366,0.0,0.0
42,10.25,56.8547,57.313,104.309,101.344,68.9139,0.0297276,0.821929,19.8579,-356.226,3.39854,0.0,0.0
44,10.75,57.4462,58.3653,108.032,101.327,68.9691,0.0302468,0.858969,19.817,-356.386,3.38999,0.0,0.0
46,11.25,58.3294,59.6146,109.992,101.344,66.4433,0.0311346,0.896254,19.7472,-356.496,3.72024,0.0,0.0
48,11.75,59.837,60.4653,100.174,101.326,67.1771,0.0322621,0.933009,19.6736,-356.626,3.62195,0.0,0.0
50,12.25,60.8422,61.7467,107.656,101.342,64.3455,0.0331754,0.982832,19.5989,-356.696,4.00285,0.0,0.0
52,12.75,61.6126,62.6638,99.0919,101.322,61.508,0.0339152,1.02319,19.5383,-356.857,4.39853,0.0,0.0
54,13.25,62.5873,63.7116,107.206,101.339,60.2071,0.0352957,1.08274,19.4473,-356.957,4.58837,0.0,0.0
56,13.75,63.3995,64.8687,92.7903,101.314,57.9922,0.0367697,1.10813,19.3736,-357.187,4.91646,0.0,0.0
58,14.25,65.2651,66.1726,95.3954,101.334,58.7506,0.0382837,1.18714,19.2599,-357.307,4.80375,0.0,0.0
60,14.75,65.5079,67.3812,92.9346,101.318,60.5698,0.0395101,1.25115,19.1678,-357.457,4.5336,0.0,0.0
62,15.25,66.6109,68.8154,96.8204,101.313,61.5105,0.0411427,1.33467,19.0566,-357.657,4.3974,0.0,0.0
64,15.75,68.4286,70.0265,91.6271,101.303,60.2114,0.0424651,1.43084,18.9335,-357.807,4.5846,0.0,0.0
66,16.25,69.8047,71.6911,94.8695,101.32,58.8304,0.0440533,1.50873,18.7629,-357.968,4.79054,0.0,0.0
68,16.75,70.8163,73.1762,84.6614,101.302,63.37,0.0453397,1.65618,18.5609,-358.218,4.13398,0.0,0.0
70,17.25,73.5188,75.0614,76.3074,101.321,63.2313,0.0465193,1.77562,18.3973,-358.508,4.15489,0.0,0.0
72,17.75,74.8229,76.9917,82.3556,101.301,64.8663,0.0475986,1.95866,18.1484,-358.648,3.92817,0.0,0.0
74,18.25,76.8265,79.3914,81.7007,101.299,66.6664,0.0485245,2.10693,17.9468,-358.848,3.68678,0.0,0.0
76,18.75,79.2569,81.903,76.7669,101.295,70.0222,0.049321,2.32267,17.6546,-359.179,3.25369,0.0,0.0
78,19.25,81.7289,84.4683,79.0155,101.297,72.2617,0.0499662,2.49742,17.4179,-359.339,2.97647,0.0,0.0
80,19.75,83.8485,88.2412,54.6937,101.29,72.8203,0.050475,2.69634,17.2262,-359.649,2.90799,0.0,0.0
82,20.25,86.8629,90.6372,73.468,101.285,69.8839,0.0508748,2.90911,17.0709,-359.909,3.27023,0.0,0.0
84,20.75,89.1103,94.6427,69.1525,101.269,74.5207,0.0511987,3.08145,16.8054,-360.18,2.70276,0.0,0.0
86,21.25,93.1344,97.6316,58.2246,101.275,74.5393,0.0513634,3.3167,16.5904,-360.29,2.70104,0.0,0.0
88,21.75,95.9264,101.852,62.0784,101.264,78.0708,0.051409,3.50725,16.2811,-360.64,2.29216,0.0,0.0
90,22.25,99.3272,106.074,59.136,101.248,76.0777,0.0512895,3.714,16.0306,-360.91,2.51868,0.0,0.0
92,22.75,103.186,110.225,60.7587,101.26,73.1965,0.0510519,3.88147,15.8276,-361.08,2.85999,0.0,0.0
94,23.25,105.987,115.136,66.9069,101.252,68.5101,0.0505866,4.01711,15.6632,-361.281,3.44236,0.0,0.0
96,23.75,109.955,118.894,73.7687,101.244,70.0782,0.0499642,4.09017,15.5301,-361.521,3.2422,0.0,0.0
98,24.25,113.326,123.363,70.7408,101.237,68.2349,0.0491084,4.11621,15.4222,-361.701,3.4765,0.0,0.0
100,24.75,116.293,127.437,77.9408,101.224,66.2741,0.0480986,4.1373,15.5675,-361.881,3.73229,0.0,0.0
102,25.25,118.988,131.827,77.1096,101.219,65.9254,0.0467915,4.0322,15.6851,-361.941,3.77831,0.0,0.0
104,25.75,122.096,135.229,75.6098,101.221,64.5431,0.0452926,3.94707,15.9541,-362.091,3.96522,0.0,0.0
106,26.25,124.387,138.296,84.7065,101.212,63.8043,0.0440785,3.74633,16.1719,-362.201,4.06591,0.0,0.0
108,26.75,126.056,141.201,89.061,101.214,65.2909,0.0421814,3.58373,16.3484,-362.292,3.86312,0.0,0.0
110,27.25,127.953,143.651,93.3803,101.196,67.7929,0.0398224,3.33218,16.6569,-362.382,3.5302,0.0,0.0
112,27.75,129.306,145.095,99.14,101.181,69.4263,0.0379117,3.12842,16.9068,-362.432,3.31907,0.0,0.0
114,28.25,129.858,146.764,112.339,101.161,76.1227,0.0356967,2.85842,17.1793,-362.462,2.50588,0.0,0.0
116,28.75,130.429,147.835,113.235,101.165,79.9124,0.033302,2.63971,17.463,-362.492,2.07813,0.0,0.0
118,29.25,130.639,148.39,116.536,101.149,83.4514,0.0308295,2.35806,17.6928,-362.542,1.69486,0.0,0.0
120,29.75,130.396,148.441,121.008,101.154,87.5868,0.0283474,2.12992,17.9924,-362.552,1.26907,0.0,0.0
122,30.25,130.331,148.305,123.382,101.14,94.7659,0.0259757,1.94513,18.3064,-362.572,0.57366,0.0,0.0
124,30.75,130.147,147.94,127.78,101.132,97.2073,0.0237297,1.71195,18.6251,-362.562,0.348814,0.0,0.0
126,31.25,129.172,147.417,131.688,101.117,99.6825,0.0214242,1.52308,18.9185,-362.542,0.125897,0.0,0.0
128,31.75,128.524,146.866,132.267,101.11,102.88,0.0195567,1.34702,19.1878,-362.552,-0.152973,0.0,0.0
130,32.25,127.704,145.936,129.068,101.11,102.711,0.0177151,1.18365,19.4236,-362.562,-0.138359,0.0,0.0
132,32.75,127.458,145.239,135.691,101.1,102.887,0.0162234,1.03933,19.6304,-362.562,-0.154396,0.0,0.0
134,33.25,126.203,144.431,135.496,101.08,103.169,0.0150151,0.911656,19.798,-362.562,-0.180271,0.0,0.0
136,33.75,125.363,142.828,129.541,101.077,102.174,0.0137253,0.800704,19.9462,-362.562,-0.0951497,0.0,0.0
138,34.25,124.358,142.185,133.371,101.054,104.024,0.0126806,0.704055,20.0774,-362.542,-0.255214,0.0,0.0
140,34.75,123.298,140.857,136.394,101.064,103.725,0.0116942,0.617276,20.1914,-362.542,-0.229078,0.0,0.0
142,35.25,121.974,140.47,133.273,101.033,104.055,0.0108953,0.546985,20.2908,-362.562,-0.259696,0.0,0.0
144,35.75,121.564,139.068,137.181,101.031,104.277,0.0101286,0.486343,20.3774,-362.562,-0.278672,0.0,0.0
146,36.25,120.918,138.236,135.053,101.008,104.217,0.00950758,0.433889,20.453,-362.572,-0.275686,0.0,0.0
148,36.75,119.185,136.496,136.444,100.995,104.631,0.00891172,0.391401,20.5197,-362.552,-0.311708,0.0,0.0
150,37.25,117.695,134.785,137.238,100.986,103.941,0.00842907,0.352449,20.5785,-362.562,-0.254131,0.0,0.0
152,37.75,116.493,133.951,136.826,100.991,104.109,0.00799929,0.320898,20.629,-362.552,-0.268009,0.0,0.0
154,38.25,115.885,133.308,133.868,101.014,104.248,0.00761621,0.292633,20.6725,-362.562,-0.277636,0.0,0.0
156,38.75,115.311,132.522,141.802,101.018,103.755,0.0072921,0.269738,20.7077,-362.552,-0.235595,0.0,0.0
158,39.25,114.496,131.585,135.677,101.004,103.858,0.00701713,0.250098,20.7405,-362.562,-0.245608,0.0,0.0
160,39.75,113.448,130.321,137.891,101.024,104.55,0.00679441,0.233203,20.767,-362.572,-0.302392,0.0,0.0
162,40.25,112.889,128.987,138.826,101.034,104.808,0.00661861,0.218564,20.7902,-362.582,-0.323154,0.0,0.0
164,40.75,112.295,128.435,135.288,101.04,104.008,0.00648035,0.205849,20.8105,-362.582,-0.255076,0.0,0.0
166,41.25,111.521,127.282,136.957,101.025,103.303,0.00637297,0.195549,20.8269,-362.592,-0.196516,0.0,0.0
168,41.75,110.553,126.736,138.72,101.048,104.16,0.00629014,0.185904,20.8424,-362.602,-0.267302,0.0,0.0
170,42.25,110.046,125.681,138.25,101.05,103.978,0.0062191,0.178092,20.8549,-362.602,-0.251683,0.0,0.0
172,42.75,109.39,125.59,139.457,101.06,103.65,0.006158,0.170609,20.8651,-362.602,-0.222975,0.0,0.0
174,43.25,108.33,124.792,137.814,101.063,102.998,0.00610851,0.164548,20.8747,-362.612,-0.167095,0.0,0.0
176,43.75,107.836,123.733,137.935,101.074,104.496,0.00606843,0.159055,20.8825,-362.592,-0.293363,0.0,0.0
178,44.25,107.07,123.274,134.347,101.067,103.248,0.00601971,0.154081,20.8892,-362.612,-0.188165,0.0,0.0
180,44.75,106.353,121.812,137.093,101.098,103.821,0.00597959,0.150052,20.8951,-362.622,-0.234203,0.0,0.0
182,45.25,105.905,121.511,141.399,101.091,103.528,0.0059465,0.145938,20.9006,-362.632,-0.209959,0.0,0.0
184,45.75,105.481,120.729,133.909,101.105,104.588,0.0059197,0.142606,20.9057,-362.632,-0.298423,0.0,0.0
186,46.25,104.434,120.184,138.921,101.094,104.261,0.00589924,0.139906,20.9102,-362.642,-0.271843,0.0,0.0
188,46.75,104.449,118.955,138.203,101.106,103.817,0.00588266,0.136617,20.9144,-362.632,-0.233177,0.0,0.0
190,47.25,103.354,118.536,137.65,101.104,104.202,0.00586464,0.133953,20.9177,-362.652,-0.265947,0.0,0.0
192,47.75,102.666,117.651,135.777,101.126,104.07,0.00584589,0.131175,20.9211,-362.642,-0.252893,0.0,0.0
194,48.25,102.31,117.105,138.675,101.118,103.479,0.00583071,0.128925,20.9245,-362.652,-0.203388,0.0,0.0
196,48.75,101.316,116.288,136.203,101.142,103.745,0.00581508,0.126468,20.9273,-362.652,-0.223867,0.0,0.0
198,49.25,100.633,115.428,136.814,101.138,104.82,0.00579943,0.124479,20.9304,-362.652,-0.315113,0.0,0.0
200,49.75,100.441,114.825,137.166,101.141,103.739,0.00578477,0.122512,20.9329,-362.662,-0.223434,0.0,0.0
202,50.25,99.7603,113.872,140.472,101.135,103.268,0.00577113,0.120599,20.9356,-362.662,-0.183981,0.0,0.0
204,50.75,99.2023,113.648,139.075,101.149,103.08,0.00575416,0.11905,20.9378,-362.682,-0.166637,0.0,0.0
206,51.25,98.1579,111.858,134.565,101.163,103.369,0.0057351,0.117067,20.9404,-362.682,-0.190103,0.0,0.0
208,51.75,97.784,112.204,135.525,101.16,104.304,0.00571242,0.11546,20.9425,-362.692,-0.269719,0.0,0.0
210,52.25,96.9322,112.018,138.743,101.166,104.248,0.00568755,0.113871,20.9451,-362.692,-0.264533,0.0,0.0
212,52.75,96.755,110.61,138.601,101.182,104.426,0.00566609,0.112325,20.9473,-362.692,-0.278143,0.0,0.0
214,53.25,96.6426,110.043,139.846,101.184,103.487,0.00564753,0.111073,20.9494,-362.702,-0.198259,0.0,0.0
216,53.75,95.5806,109.437,138.484,101.202,104.217,0.00563249,0.109584,20.9512,-362.702,-0.258693,0.0,0.0
218,54.25,95.3761,108.863,131.884,101.186,103.806,0.0056236,0.108171,20.9526,-362.702,-0.225308,0.0,0.0
220,54.75,94.0318,108.65,136.799,101.207,103.679,0.00561935,0.106842,20.9542,-362.702,-0.21268,0.0,0.0
222,55.25,94.3468,107.609,137.288,101.205,102.87,0.00561854,0.105544,20.9555,-362.712,-0.143731,0.0,0.0
224,55.75,93.3785,107.47,140.77,101.219,104.335,0.00562024,0.104295,20.957,-362.712,-0.267225,0.0,0.0
226,56.25,92.6973,106.608,140.874,101.222,104.025,0.0056236,0.103283,20.9582,-362.732,-0.240719,0.0,0.0
228,56.75,92.6011,105.804,138.563,101.237,104.017,0.00562809,0.102045,20.9596,-362.732,-0.238742,0.0,0.0
230,57.25,92.1505,105.843,134.044,101.241,104.493,0.00563239,0.101043,20.9608,-362.722,-0.278652,0.0,0.0
232,57.75,91.7811,104.992,137.924,101.243,104.6,0.00563646,0.10023,20.9626,-362.722,-0.287415,0.0,0.0
234,58.25,90.905,104.416,134.801,101.247,103.937,0.00563975,0.0991407,20.9641,-362.742,-0.231072,0.0,0.0
236,58.75,90.8167,103.54,138.13,101.271,104.189,0.00563868,0.098258,20.9655,-362.752,-0.250308,0.0,0.0
238,59.25,89.7658,103.268,140.771,101.258,104.281,0.00563781,0.0971395,20.9669,-362.752,-0.259243,0.0,0.0
240,59.75,89.6033,102.607,135.233,101.276,103.6,0.00563447,0.0962335,20.968,-362.742,-0.199918,0.0,0.0
242,60.25,89.3598,101.796,134.077,101.278,103.818,0.00562941,0.0950964,20.9694,-362.762,-0.218198,0.0,0.0
244,60.75,88.7533,101.333,138.411,101.303,104.309,0.0056253,0.0941754,20.9705,-362.752,-0.257657,0.0,0.0
246,61.25,88.0752,101.434,138.538,101.299,103.743,0.00561081,0.0930822,20.9714,-362.762,-0.210111,0.0,0.0
248,61.75,87.7068,100.92,140.302,101.313,104.531,0.00558902,0.0921967,20.9725,-362.752,-0.275574,0.0,0.0
250,62.25,87.0523,99.805,135.006,101.311,103.337,0.00556612,0.0912603,20.9735,-362.752,-0.174409,0.0,0.0
252,62.75,86.784,99.7374,138.597,101.33,104.319,0.00554284,0.0903046,20.9747,-362.772,-0.256139,0.0,0.0
254,63.25,86.4688,99.6186,140.24,101.329,103.782,0.00552333,0.0895305,20.9756,-362.762,-0.210839,0.0,0.0
256,63.75,86.2095,98.3076,138.043,101.335,103.974,0.00550694,0.0885291,20.9773,-362.752,-0.226507,0.0,0.0
258,64.25,85.9278,97.951,141.441,101.352,103.271,0.00549169,0.087718,20.9787,-362.752,-0.165342,0.0,0.0
260,64.75,85.2813,97.514,134.329,101.348,103.283,0.00547756,0.0868569,20.9798,-362.752,-0.166634,0.0,0.0
262,65.25,85.0059,97.1873,141.987,101.362,103.076,0.00546809,0.0859757,20.9807,-362.762,-0.147769,0.0,0.0
264,65.75,84.5654,96.5033,138.158,101.383,104.872,0.00546219,0.0850943,20.9814,-362.762,-0.298159,0.0,0.0
266,66.25,84.0377,96.2948,135.973,101.385,103.527,0.00545741,0.0842296,20.9829,-362.752,-0.184167,0.0,0.0
268,66.75,83.9245,95.8997,140.142,101.39,103.524,0.00547062,0.0833618,20.9841,-362.762,-0.183532,0.0,0.0
270,67.25,83.4686,95.4332,137.984,101.388,103.783,0.00549669,0.0825082,20.9846,-362.772,-0.205774,0.0,0.0
272,67.75,83.2116,94.6272,135.149,101.409,104.237,0.0055178,0.0816931,20.985,-362.782,-0.242408,0.0,0.0
274,68.25,82.6907,94.3638,136.486,101.42,104.737,0.00554805,0.0809216,20.9853,-362.782,-0.283569,0.0,0.0
276,68.75,82.711,94.0868,140.008,101.421,103.666,0.00558438,0.0802966,20.9856,-362.772,-0.192928,0.0,0.0
278,69.25,81.8438,93.7199,138.112,101.425,103.264,0.00561381,0.079616,20.9858,-362.782,-0.15837,0.0,0.0
280,69.75,81.5968,93.5768,138.457,101.442,105.246,0.00564389,0.0789076,20.9862,-362.802,-0.324438,0.0,0.0
282,70.25,81.0387,92.8315,139.189,101.453,102.725,0.00566826,0.0783338,20.9868,-362.782,-0.109871,0.0,0.0
284,70.75,81.2633,92.0386,134.847,101.462,104.303,0.00567051,0.0774963,20.9874,-362.792,-0.243355,0.0,0.0
286,71.25,80.7482,91.7456,131.429,101.483,104.098,0.00567233,0.076818,20.9882,-362.802,-0.224179,0.0,0.0
288,71.75,79.8675,91.5213,138.461,101.474,103.393,0.00565383,0.0762686,20.989,-362.782,-0.165105,0.0,0.0
290,72.25,80.0622,90.8445,136.937,101.483,104.307,0.00564594,0.0755063,20.9895,-362.792,-0.241862,0.0,0.0
292,72.75,79.3059,90.8539,137.943,101.492,104.612,0.00562786,0.0748889,20.9903,-362.792,-0.266893,0.0,0.0
294,73.25,79.3602,90.5553,136.118,101.513,104.341,0.00560907,0.0741269,20.991,-362.802,-0.242147,0.0,0.0
296,73.75,78.5356,89.6274,139.597,101.506,103.952,0.00559123,0.0735097,20.9915,-362.802,-0.20983,0.0,0.0
298,74.25,78.7129,89.5008,136.53,101.52,103.09,0.00557441,0.0728168,20.9919,-362.802,-0.135208,0.0,0.0
300,74.75,78.2672,89.6097,135.003,101.518,104.137,0.00556078,0.0722557,20.9923,-362.802,-0.224411,0.0,0.0
302,75.25,77.7423,88.5899,136.894,101.539,104.584,0.00554318,0.0719295,20.9926,-362.792,-0.260382,0.0,0.0
304,75.75,77.74,88.4875,135.537,101.543,103.929,0.00552302,0.0713716,20.9937,-362.802,-0.20468,0.0,0.0
306,76.25,77.0168,87.9393,138.623,101.546,102.987,0.0054988,0.0708329,20.9946,-362.802,-0.124161,0.0,0.0
308,76.75,76.9739,87.294,135.099,101.563,104.081,0.0054721,0.0703182,20.9953,-362.802,-0.215836,0.0,0.0
310,77.25,76.9023,87.4896,134.807,101.571,104.04,0.00544785,0.0699013,20.9959,-362.802,-0.211619,0.0,0.0
312,77.75,76.5524,86.6677,139.816,101.559,104.243,0.00542584,0.0693985,20.9968,-362.802,-0.229857,0.0,0.0
314,78.25,75.9141,86.698,138.921,101.583,103.618,0.00540933,0.0689913,20.9976,-362.812,-0.174825,0.0,0.0
316,78.75,75.9718,85.9762,139.588,101.576,104.015,0.00539714,0.0685238,20.9982,-362.802,-0.20908,0.0,0.0
318,79.25,76.0534,86.0622,138.533,101.601,104.145,0.00538726,0.0680214,20.9987,-362.812,-0.217873,0.0,0.0
320,79.75,75.4717,85.531,138.187,101.606,104.773,0.00537677,0.0676145,20.9991,-362.812,-0.270481,0.0,0.0
322,80.25,75.1904,85.0777,139.665,101.609,104.201,0.00536826,0.0671473,20.9994,-362.812,-0.221983,0.0,0.0
324,80.75,74.8101,85.1711,138.997,101.602,104.462,0.00534525,0.066769,20.9998,-362.822,-0.244607,0.0,0.0
326,81.25,74.2362,84.5304,136.295,101.619,104.089,0.00532662,0.0663525,21.0003,-362.832,-0.211565,0.0,0.0
328,81.75,74.5881,83.663,135.633,101.624,104.661,0.00531152,0.0659212,21.0007,-362.832,-0.259491,0.0,0.0
330,82.25,73.8159,83.9571,138.435,101.645,103.958,0.00524325,0.0654872,21.0012,-362.822,-0.198268,0.0,0.0
332,82.75,73.9994,84.1187,136.938,101.633,103.172,0.00518796,0.0651357,21.0019,-362.832,-0.132403,0.0,0.0
334,83.25,73.817,83.603,143.513,101.665,103.586,0.00510213,0.0647348,21.0024,-362.822,-0.16501,0.0,0.0
336,83.75,73.349,83.2094,138.577,101.654,104.187,0.00503261,0.0643057,21.0028,-362.832,-0.216825,0.0,0.0
338,84.25,72.9281,83.0525,135.564,101.659,104.503,0.00494771,0.0639581,21.0032,-362.812,-0.243128,0.0,0.0
340,84.75,72.9774,82.6454,138.616,101.664,104.539,0.00487895,0.0635255,21.0034,-362.822,-0.245786,0.0,0.0
342,85.25,72.6998,81.8908,137.056,101.694,103.151,0.00481084,0.0631751,21.0037,-362.832,-0.125296,0.0,0.0
344,85.75,72.2247,81.4125,137.444,101.679,103.742,0.00475566,0.0627902,21.0039,-362.832,-0.176988,0.0,0.0
346,86.25,71.7459,81.3796,141.445,101.697,103.426,0.00470836,0.0623873,21.004,-362.832,-0.148609,0.0,0.0
348,86.75,72.0254,81.2411,138.8,101.702,103.686,0.00466769,0.0620033,21.0046,-362.832,-0.170244,0.0,0.0
350,87.25,71.7125,81.2655,136.463,101.719,104.469,0.00463475,0.0616402,21.005,-362.822,-0.235042,0.0,0.0
352,87.75,71.5467,80.8238,136.897,101.697,104.972,0.00460807,0.0613028,21.0058,-362.832,-0.279322,0.0,0.0
354,88.25,70.7245,80.2832,135.667,101.721,104.882,0.00458645,0.0609905,21.0065,-362.832,-0.26961,0.0,0.0
356,88.75,71.2381,80.3905,140.703,101.715,103.998,0.00456633,0.0606581,21.007,-362.832,-0.195622,0.0,0.0
358,89.25,70.6738,79.7059,141.286,101.736,103.317,0.00454768,0.0603175,21.0075,-362.832,-0.135831,0.0,0.0
360,89.75,70.8449,79.198,136.948,101.726,104.321,0.00453258,0.0599982,21.0078,-362.832,-0.221919,0.0,0.0
362,90.25,70.7727,79.441,135.231,101.744,103.644,0.00452034,0.0597007,21.0081,-362.832,-0.163125,0.0,0.0
364,90.75,70.2214,78.9104,140.403,101.754,104.43,0.00445337,0.0594596,21.0089,-362.842,-0.228826,0.0,0.0
366,91.25,69.5183,78.4156,141.443,101.759,103.862,0.00439913,0.0591685,21.0099,-362.832,-0.180247,0.0,0.0
368,91.75,70.0003,78.3813,138.955,101.761,104.047,0.00430936,0.0589326,21.0108,-362.842,-0.195785,0.0,0.0
370,92.25,69.4362,77.7646,135.512,101.763,103.729,0.00423664,0.0587416,21.0115,-362.852,-0.168664,0.0,0.0
372,92.75,69.2487,77.7839,136.447,101.777,103.837,0.00415626,0.0585002,21.0121,-362.842,-0.176523,0.0,0.0
374,93.25,68.3027,77.3604,138.494,101.783,105.294,0.0040718,0.0582269,21.0126,-362.852,-0.298856,0.0,0.0
376,93.75,68.5593,77.1183,137.964,101.784,103.709,0.00398843,0.0580055,21.0129,-362.852,-0.16516,0.0,0.0
378,94.25,68.5194,77.2412,138.72,101.804,103.962,0.00390743,0.0577468,21.0137,-362.852,-0.184803,0.0,0.0
380,94.75,68.4052,76.844,138.862,101.8,104.004,0.00383532,0.0574659,21.0143,-362.852,-0.188745,0.0,0.0
382,95.25,68.0567,76.525,135.981,101.81,104.967,0.00377106,0.0571734,21.0148,-362.842,-0.26915,0.0,0.0
384,95.75,67.9179,76.3658,137.262,101.807,103.725,0.00371901,0.0568782,21.0152,-362.842,-0.164441,0.0,0.0
386,96.25,67.4178,75.6431,137.759,101.82,103.915,0.00367295,0.0565886,21.0155,-362.852,-0.179456,0.0,0.0
388,96.75,67.8054,75.9483,136.062,101.814,104.948,0.00363213,0.0563086,21.0158,-362.842,-0.267163,0.0,0.0
390,97.25,66.8774,75.48,138.494,101.827,104.575,0.00359516,0.0560818,21.016,-362.842,-0.23469,0.0,0.0
392,97.75,67.3295,74.8335,137.514,101.83,102.931,0.00356171,0.0557886,21.0162,-362.832,-0.0947414,0.0,0.0
394,98.25,66.9505,75.5517,139.744,101.835,104.599,0.00353007,0.055551,21.0163,-362.842,-0.235996,0.0,0.0
396,98.75,66.5964,74.7916,137.558,101.834,104.282,0.00350034,0.0552218,21.0164,-362.842,-0.209401,0.0,0.0
398,99.25,66.7829,74.3723,137.96,101.846,104.637,0.00346977,0.0549551,21.0165,-362.862,-0.238307,0.0,0.0
400,99.75,66.5614,74.4649,140.622,101.845,103.795,0.00343916,0.0547246,21.017,-362.842,-0.167113,0.0,0.0
402,100.25,66.2393,73.8719,139.974,101.858,104.465,0.00340397,0.054525,21.0174,-362.852,-0.222644,0.0,0.0
404,100.75,65.9276,74.3684,142.802,101.853,103.649,0.00336612,0.0543633,21.0178,-362.862,-0.153987,0.0,0.0
406,101.25,65.9133,73.6063,138.245,101.862,105.156,0.00333547,0.0541366,21.0181,-362.852,-0.280494,0.0,0.0
408,101.75,65.9318,73.4591,137.272,101.856,104.472,0.00329436,0.0539313,21.0183,-362.852,-0.223425,0.0,0.0
410,102.25,65.6467,73.4265,139.815,101.863,104.794,0.00324643,0.0537456,21.0185,-362.872,-0.249983,0.0,0.0
412,102.75,65.4667,73.3802,137.799,101.865,103.731,0.00320761,0.0535591,21.0186,-362.862,-0.159936,0.0,0.0
414,103.25,65.131,72.5052,139.713,101.867,104.394,0.00314044,0.0533757,21.0191,-362.852,-0.215936,0.0,0.0
416,103.75,64.9411,72.7291,136.242,101.879,104.712,0.00308603,0.0532272,21.0197,-362.852,-0.241739,0.0,0.0
418,104.25,64.9096,72.4645,138.283,101.879,104.909,0.00301857,0.0530784,21.0202,-362.862,-0.258252,0.0,0.0
420,104.75,65.2982,71.8862,135.711,101.883,105.73,0.00296393,0.0529324,21.0206,-362.862,-0.326575,0.0,0.0
422,105.25,64.7464,71.9012,137.742,101.885,103.798,0.00290122,0.0528141,21.021,-362.872,-0.163888,0.0,0.0
424,105.75,64.719,72.3578,137.929,101.897,104.296,0.00285042,0.0526635,21.0213,-362.862,-0.20502,0.0,0.0
426,106.25,64.398,71.6031,140.138,101.901,104.321,0.00279821,0.0525416,21.0215,-362.872,-0.20682,0.0,0.0
428,106.75,64.5512,71.2164,139.536,101.894,103.299,0.00275592,0.052414,21.0217,-362.872,-0.12064,0.0,0.0
430,107.25,64.4054,71.128,141.509,101.892,105.02,0.00271429,0.0522848,21.0218,-362.882,-0.266504,0.0,0.0
432,107.75,63.5737,70.8212,140.241,101.907,104.083,0.00268057,0.0521513,21.0219,-362.872,-0.186248,0.0,0.0
434,108.25,64.0517,70.8378,136.944,101.919,104.405,0.00265079,0.0520173,21.022,-362.862,-0.212383,0.0,0.0
436,108.75,63.7711,70.98,138.874,101.912,104.115,0.00262668,0.0518951,21.0221,-362.872,-0.188488,0.0,0.0
438,109.25,63.6467,70.3322,137.466,101.901,104.055,0.00260714,0.0517961,21.0222,-362.882,-0.184327,0.0,0.0
440,109.75,63.0424,70.0413,138.007,101.906,103.797,0.00259255,0.0517569,21.0222,-362.862,-0.161974,0.0,0.0
442,110.25,62.8262,70.4606,138.947,101.915,104.131,0.00258073,0.0517252,21.0223,-362.872,-0.189574,0.0,0.0
444,110.75,62.9123,69.351,136.505,101.919,104.937,0.00256501,0.0516721,21.0225,-362.862,-0.257197,0.0,0.0
446,111.25,62.3004,69.6674,137.888,101.916,104.271,0.00255228,0.0516291,21.023,-362.862,-0.20127,0.0,0.0
448,111.75,62.1949,69.6016,139.539,101.929,104.301,0.00252644,0.0515512,21.0233,-362.882,-0.202703,0.0,0.0
450,112.25,62.4721,68.9863,141.382,101.924,103.821,0.00249155,0.0514491,21.0236,-362.862,-0.162532,0.0,0.0
452,112.75,62.3306,69.3746,137.469,101.928,103.974,0.00246329,0.0513665,21.0238,-362.862,-0.1751,0.0,0.0
454,113.25,62.5128,69.1224,140.755,101.927,104.66,0.0024404,0.0512859,21.024,-362.882,-0.233142,0.0,0.0
456,113.75,61.9907,68.4176,137.572,101.925,104.884,0.00237645,0.0512206,21.0241,-362.892,-0.252152,0.0,0.0
458,114.25,61.8174,68.5205,142.631,101.929,104.926,0.00231755,0.0511461,21.024,-362.872,-0.255332,0.0,0.0
460,114.75,62.0845,68.3338,140.683,101.927,104.634,0.00226345,0.0510664,21.024,-362.862,-0.230963,0.0,0.0
462,115.25,61.9167,68.3924,137.895,101.932,104.564,0.00221318,0.0510017,21.024,-362.872,-0.224685,0.0,0.0
464,115.75,62.0203,68.3167,138.951,101.94,104.251,0.00216666,0.0509494,21.024,-362.862,-0.197465,0.0,0.0
466,116.25,61.0672,67.3286,137.171,101.923,104.281,0.00212897,0.0508524,21.024,-362.862,-0.201541,0.0,0.0
468,116.75,61.6869,67.6861,136.537,101.936,105.151,0.00208748,0.0507737,21.024,-362.872,-0.273565,0.0,0.0
470,117.25,61.707,68.0524,134.893,101.926,104.673,0.00204401,0.0506691,21.024,-362.872,-0.234318,0.0,0.0
472,117.75,60.8866,67.3771,142.39,101.948,103.925,0.00200042,0.0505843,21.024,-362.862,-0.169299,0.0,0.0
474,118.25,60.6999,67.7368,138.849,101.926,103.764,0.00195756,0.0504882,21.024,-362.862,-0.157532,0.0,0.0
476,118.75,60.6,67.1703,145.321,101.942,104.335,0.00191448,0.0504105,21.024,-362.872,-0.204388,0.0,0.0
478,119.25,61.2147,66.955,135.032,101.942,104.577,0.00187204,0.0503065,21.0239,-362.882,-0.224925,0.0,0.0
480,119.75,61.0071,67.3671,135.451,101.946,105.35,0.00183316,0.0502222,21.0239,-362.872,-0.289458,0.0,0.0
482,120.25,60.8962,66.7939,136.812,101.92,104.599,0.00179761,0.0501324,21.0239,-362.872,-0.228695,0.0,0.0
484,120.75,60.6909,66.4819,137.152,101.938,104.522,0.00176366,0.0500402,21.0239,-362.862,-0.220589,0.0,0.0
486,121.25,60.6097,66.3891,137.085,101.926,104.511,0.00173152,0.0499512,21.0239,-362.872,-0.220702,0.0,0.0
488,121.75,60.2745,66.539,138.972,101.936,103.871,0.00170549,0.0498661,21.0239,-362.862,-0.165701,0.0,0.0
490,122.25,60.4171,66.627,139.504,101.924,103.809,0.00167095,0.0497828,21.0239,-362.872,-0.161488,0.0,0.0
492,122.75,60.0689,66.1826,136.956,101.924,103.772,0.00164298,0.0497024,21.0239,-362.872,-0.158354,0.0,0.0
494,123.25,60.3636,66.1274,141.191,101.922,104.588,0.00162032,0.0496589,21.0239,-362.862,-0.227556,0.0,0.0
496,123.75,60.3152,65.9117,137.351,101.932,104.009,0.00160196,0.049643,21.0239,-362.862,-0.177736,0.0,0.0
498,124.25,60.1622,65.8192,140.136,101.92,104.818,0.0015871,0.0496302,21.0239,-362.872,-0.247042,0.0,0.0
500,124.75,59.8049,65.2261,136.157,101.917,104.881,0.00159218,0.0496198,21.0239,-362.872,-0.252668,0.0,0.0
502,125.25,59.4742,65.4966,139.666,101.914,104.536,0.00159629,0.0496113,21.0239,-362.862,-0.223891,0.0,0.0
504,125.75,59.9412,65.4224,138.744,101.921,104.166,0.001609,0.0495973,21.0239,-362.872,-0.191996,0.0,0.0
506,126.25,59.3914,65.1556,137.825,101.905,104.909,0.00163072,0.0495795,21.0239,-362.862,-0.256062,0.0,0.0
508,126.75,59.4193,64.9118,134.572,101.912,104.441,0.00166301,0.0495651,21.0239,-362.882,-0.215981,0.0,0.0
510,127.25,59.778,64.8689,140.792,101.903,104.313,0.00168916,0.0495807,21.0239,-362.862,-0.206002,0.0,0.0
512,127.75,59.2481,65.064,137.895,101.908,104.143,0.0017128,0.0495933,21.0239,-362.872,-0.191205,0.0,0.0
514,128.25,59.0104,64.8003,141.12,101.896,103.699,0.00173194,0.0496396,21.0239,-362.892,-0.154555,0.0,0.0
516,128.75,58.9771,64.2251,134.328,101.899,103.86,0.00173275,0.0497094,21.0239,-362.872,-0.167928,0.0,0.0
518,129.25,59.1005,64.6376,139.903,101.901,104.306,0.00173341,0.0497607,21.0239,-362.882,-0.205496,0.0,0.0
520,129.75,59.0269,64.241,139.169,101.903,104.535,0.00173394,0.0498485,21.0239,-362.892,-0.224721,0.0,0.0
522,130.25,58.8168,63.8008,136.878,101.892,103.9,0.00170012,0.049934,21.0239,-362.902,-0.172007,0.0,0.0
524,130.75,58.6063,63.9623,141.771,101.879,104.967,0.00167272,0.0500162,21.0239,-362.892,-0.26306,0.0,0.0
526,131.25,58.6526,63.8954,138.327,101.867,104.302,0.00163096,0.0501238,21.0239,-362.902,-0.208199,0.0,0.0
528,131.75,58.5779,63.6695,142.267,101.877,104.581,0.00159713,0.0502109,21.0239,-362.902,-0.230808,0.0,0.0
530,132.25,58.3633,63.6977,138.259,101.855,104.076,0.00155751,0.0502671,21.0239,-362.902,-0.190122,0.0,0.0
532,132.75,58.3085,63.1906,140.5,101.863,104.1,0.00152542,0.0502997,21.0239,-362.892,-0.191437,0.0,0.0
534,133.25,58.1289,63.5255,138.819,101.854,103.696,0.00149943,0.0503261,21.0239,-362.892,-0.157954,0.0,0.0
536,133.75,58.1331,63.1154,134.364,101.854,104.579,0.00146371,0.0503201,21.0239,-362.902,-0.23268,0.0,0.0
538,134.25,58.3704,62.7734,138.442,101.848,104.61,0.00143478,0.0503153,21.0239,-362.892,-0.235846,0.0,0.0
540,134.75,57.7815,62.738,137.834,101.849,104.933,0.0014028,0.0502977,21.0239,-362.902,-0.262855,0.0,0.0
542,135.25,57.8028,63.2485,140.224,101.842,104.376,0.00137689,0.0502835,21.0239,-362.902,-0.216589,0.0,0.0
544,135.75,57.9834,62.8309,138.452,101.842,103.816,0.00135591,0.0502647,21.0239,-362.902,-0.169192,0.0,0.0
546,136.25,57.6916,62.9261,141.641,101.831,104.002,0.00133441,0.0502431,21.0239,-362.892,-0.185886,0.0,0.0
548,136.75,57.631,62.6863,136.979,101.836,104.873,0.00131295,0.0502256,21.0236,-362.902,-0.258943,0.0,0.0
550,137.25,57.5373,62.393,143.988,101.832,102.838,0.00129557,0.0502387,21.0234,-362.902,-0.0866459,0.0,0.0
552,137.75,57.7498,62.3346,138.447,101.815,103.792,0.00127782,0.0502493,21.0231,-362.902,-0.169471,0.0,0.0
554,138.25,57.346,61.8905,135.4,101.807,103.082,0.00126345,0.050258,21.023,-362.902,-0.109678,0.0,0.0
556,138.75,57.2509,62.0704,135.44,101.807,104.17,0.00125181,0.0502649,21.0228,-362.922,-0.202195,0.0,0.0
558,139.25,57.1887,62.2787,137.271,101.799,103.846,0.00124238,0.0502706,21.0227,-362.902,-0.175365,0.0,0.0
560,139.75,57.3988,62.1019,137.193,101.791,103.938,0.0012341,0.0502752,21.0226,-362.912,-0.184009,0.0,0.0
562,140.25,57.0698,61.9676,142.772,101.788,103.95,0.00122682,0.0502105,21.0226,-362.902,-0.185223,0.0,0.0
564,140.75,57.1277,61.7637,141.147,101.776,104.203,0.00122156,0.0501582,21.0225,-362.902,-0.207637,0.0,0.0
566,141.25,57.3634,61.4447,138.049,101.77,103.222,0.00121788,0.0500338,21.0229,-362.892,-0.124907,0.0,0.0
568,141.75,57.1494,61.6163,139.572,101.759,103.36,0.00121104,0.049933,21.0232,-362.912,-0.137572,0.0,0.0
570,142.25,56.5796,61.6372,141.679,101.759,104.66,0.00120203,0.0498298,21.0235,-362.912,-0.247715,0.0,0.0
572,142.75,56.7945,61.6077,140.309,101.752,103.884,0.00119474,0.0497268,21.0237,-362.922,-0.18278,0.0,0.0
574,143.25,56.6072,61.3823,139.687,101.743,103.826,0.00116931,0.0495931,21.0239,-362.912,-0.178616,0.0,0.0
576,143.75,56.6647,61.1767,137.693,101.74,103.316,0.00114871,0.0494394,21.024,-362.922,-0.135447,0.0,0.0
578,144.25,56.8219,61.291,137.815,101.732,103.36,0.00113202,0.0492934,21.0241,-362.902,-0.139906,0.0,0.0
580,144.75,56.8623,61.3754,141.355,101.729,103.903,,0.0491557,,-362.912,-0.186313,0.0,0.0
582,145.25,56.0711,61.0947,137.884,101.724,104.151,,0.0490298,,-362.912,-0.207786,0.0,0.0
584,145.75,56.7618,60.8429,139.424,101.713,103.838,,0.0489149,,-362.912,-0.182201,0.0,0.0
586,146.25,56.494,60.6653,136.298,101.707,104.099,,0.0488218,,-362.902,-0.204832,0.0,0.0
588,146.75,55.8667,60.845,135.424,101.701,104.033,,0.0487392,,-362.922,-0.199858,0.0,0.0
590,147.25,55.8956,60.699,142.79,101.69,103.574,,0.0486658,,-362.922,-0.161767,0.0,0.0
592,147.75,56.4315,60.5235,137.06,101.682,103.511,,,,-362.922,-0.157086,0.0,0.0
594,148.25,56.5456,60.183,135.776,101.684,104.003,,,,-362.902,-0.198699,0.0,0.0
596,148.75,56.0524,60.0672,140.61,101.667,104.213,,,,-362.902,-0.217968,0.0,0.0
598,149.25,56.1007,60.5861,136.528,101.666,103.961,,,,-362.922,-0.196778,0.0,0.0
600,149.75,56.1086,60.3615,138.591,101.673,103.626,,,,-362.912,-0.167669,0.0,0.0
602,150.25,56.1252,60.0354,139.234,101.669,104.343,,,,-362.912,-0.228798,0.0,0.0
604,150.75,55.952,59.8566,136.521,101.634,104.341,,,,-362.912,-0.23165,0.0,0.0
606,151.25,55.8063,60.0878,137.082,101.652,103.164,,,,-362.912,-0.130149,0.0,0.0
608,151.75,56.1499,59.9026,140.306,101.632,103.724,,,,-362.912,-0.17955,0.0,0.0
610,152.25,56.0004,59.6754,139.262,101.623,103.658,,,,-362.902,-0.174658,0.0,0.0
612,152.75,55.8337,59.4546,140.273,101.61,103.309,,,,-362.912,-0.146121,0.0,0.0
614,153.25,55.3753,59.2162,138.336,101.612,102.675,,,,-362.902,-0.0917252,0.0,0.0
616,153.75,55.8098,59.5014,139.292,101.611,103.995,,,,-362.922,-0.204323,0.0,0.0
618,154.25,56.0099,59.1508,137.961,101.602,103.692,,,,-362.912,-0.179355,0.0,0.0
620,154.75,55.7581,59.4012,139.117,101.586,103.04,,,,-362.902,-0.125208,0.0,0.0
622,155.25,55.8286,59.9467,141.072,101.58,104.166,,,,-362.902,-0.221551,0.0,0.0