File: 01_Data/Rebond_Foam_Carpet_Pad/Cone/Rebond_Foam_Carpet_Pad_Cone_HF75Scan_220414_R1.csv
Names,Time,Stack TC,Smoke TC,Exh Press,Smoke Comp,Smoke Meas,CO Meter,CO2 Meter,O2 Meter,Sample Mass,Ext Coeff,Start Test,Flame Verif
Chan Gain,,500,500,1,1,1,1,1,1,1,1,1.0,1.0
Offset,,0,0,0.134258,0,0,0,0,0,0,0,0.0,0.0
Gain,,1,1,25.011,13.171,13.8983,1,1,1,1.00092,1.00459,1.0,1.0
Units,sec,C,C,Pa,%,%,%,%,%,g,/m,,
Baseline,,47.2105,49.0224,142.635,101.728,103.113,0.00139751,0.0464243,21.0244,-834.846,-0.119065,,
2,0.25,45.5872,47.3717,137.035,100.906,93.4269,0.00400457,0.0922434,20.9735,-352.182,0.678622,0.0,0.0
4,0.75,45.6019,47.3715,135.675,100.903,84.6136,0.00547523,0.105612,20.9536,-352.262,1.55153,0.0,1.0
6,1.25,44.9107,46.6172,130.024,100.903,78.9729,0.00666646,0.128543,20.9281,-352.292,2.15945,0.0,1.0
8,1.75,44.2891,45.7654,129.096,100.893,73.012,0.00854978,0.15801,20.8772,-352.473,2.8502,0.0,1.0
10,2.25,44.0637,45.4345,125.838,100.89,70.8646,0.0105272,0.181877,20.836,-352.392,3.11303,0.0,1.0
12,2.75,44.5167,46.4773,125.597,100.879,67.6449,0.0125357,0.20121,20.7557,-352.453,3.52176,0.0,1.0
14,3.25,44.9224,46.4736,122.798,100.875,67.1397,0.0141625,0.253012,20.6908,-352.613,3.58747,0.0,1.0
16,3.75,45.5289,46.9174,119.543,100.856,64.4647,0.0164089,0.294971,20.6121,-352.693,3.94418,0.0,1.0
18,4.25,45.4813,47.1684,120.134,100.865,64.0906,0.0182285,0.351617,20.5249,-352.733,3.99621,0.0,1.0
20,4.75,46.3793,47.7625,123.706,100.846,64.997,0.0200782,0.3975,20.4542,-352.843,3.87084,0.0,1.0
22,5.25,46.8087,48.2269,115.808,100.854,64.6984,0.0219147,0.45624,20.3643,-353.003,3.91208,0.0,1.0
24,5.75,46.69,48.1907,109.617,100.84,63.6766,0.0234022,0.503819,20.2915,-353.093,4.05113,0.0,1.0
26,6.25,46.3457,47.6158,117.495,100.836,64.6534,0.0248797,0.561762,20.2325,-353.193,3.91666,0.0,1.0
28,6.75,47.1545,48.8906,112.132,100.815,64.4757,0.0263218,0.608695,20.1602,-353.333,3.93909,0.0,1.0
30,7.25,47.9033,49.1096,112.674,100.825,66.2724,0.0276202,0.655518,20.1017,-353.493,3.69777,0.0,1.0
32,7.75,48.7033,50.1799,102.6,100.799,63.7254,0.0287894,0.701372,20.0337,-353.544,4.04084,0.0,1.0
34,8.25,50.0583,50.9004,110.447,100.809,64.5962,0.0298367,0.738513,19.9787,-353.634,3.92208,0.0,1.0
36,8.75,50.8783,52.0867,108.447,100.792,65.5581,0.0307753,0.774725,19.9189,-353.774,3.79031,0.0,0.0
38,9.25,51.8302,53.4027,111.223,100.801,65.2782,0.0316673,0.809572,19.8705,-353.904,3.82883,0.0,0.0
40,9.75,52.7297,53.8525,107.876,100.78,65.542,0.0325083,0.843088,19.8139,-353.954,3.79149,0.0,0.0
42,10.25,53.9543,55.1203,104.889,100.796,68.589,0.0334041,0.874997,19.7681,-354.054,3.39242,0.0,0.0
44,10.75,54.2677,56.3802,110.857,100.767,64.6169,0.0343227,0.907828,19.7037,-354.174,3.91559,0.0,0.0
46,11.25,55.3657,56.7252,110.743,100.767,63.4302,0.0353218,0.940706,19.6312,-354.334,4.07891,0.0,0.0
48,11.75,56.2727,57.7936,104.392,100.757,65.7664,0.0363604,0.978945,19.554,-354.464,3.75934,0.0,0.0
50,12.25,57.1685,59.2894,100.999,100.766,62.7393,0.0372018,1.02036,19.4916,-354.554,4.17539,0.0,0.0
52,12.75,57.8915,59.9689,98.3569,100.745,60.1673,0.0388409,1.0721,19.4132,-354.755,4.54236,0.0,0.0
54,13.25,59.0004,60.7914,98.2203,100.762,58.5979,0.0401686,1.13038,19.3249,-354.895,4.77674,0.0,0.0
56,13.75,59.9802,62.2704,97.4715,100.737,58.0368,0.0417564,1.20059,19.2533,-355.035,4.85938,0.0,0.0
58,14.25,61.6028,63.6844,96.006,100.737,61.6772,0.0435036,1.27816,19.1253,-355.185,4.32327,0.0,0.0
60,14.75,62.5483,64.5352,90.715,100.723,58.6955,0.0449188,1.341,19.0216,-355.375,4.75874,0.0,0.0
62,15.25,63.9047,65.7571,78.8025,100.734,59.1786,0.0468697,1.45789,18.8955,-355.585,4.68742,0.0,0.0
64,15.75,65.5921,67.8664,82.5304,100.725,59.1794,0.0484499,1.55257,18.7555,-355.806,4.68652,0.0,0.0
66,16.25,67.1288,69.882,85.8102,100.722,62.7507,0.0504413,1.67876,18.5695,-355.976,4.16988,0.0,0.0
68,16.75,68.7045,71.5787,79.9711,100.704,63.8581,0.0520542,1.82551,18.3536,-356.176,4.01413,0.0,0.0
70,17.25,70.4854,73.438,66.8794,100.711,66.7886,0.0549775,1.94439,18.1034,-356.546,3.61938,0.0,0.0
72,17.75,72.7882,75.8208,71.6133,100.691,68.1403,0.0573453,2.14392,17.8329,-356.666,3.44109,0.0,0.0
74,18.25,75.6492,78.9896,59.4604,100.702,67.3365,0.0597708,2.30553,17.7176,-356.887,3.54663,0.0,0.0
76,18.75,77.8093,81.5022,68.2106,100.678,70.9562,0.0639185,2.54936,17.3642,-357.167,3.08308,0.0,0.0
78,19.25,80.3799,84.9412,71.8949,100.692,69.2677,0.067278,2.74687,17.0781,-357.477,3.29652,0.0,0.0
80,19.75,83.862,88.2264,58.9887,100.67,74.8914,0.0740711,2.96187,16.7641,-357.687,2.60677,0.0,0.0
82,20.25,86.4987,91.8098,57.2782,100.676,76.7894,0.0795735,3.18554,16.4358,-357.9375,2.3867,0.0,0.0
84,20.75,89.7041,95.3341,58.3842,100.666,77.0299,0.0848621,3.42039,16.1699,-358.278,2.35827,0.0,0.0
86,21.25,92.7405,99.3221,71.0469,100.665,76.9209,0.0898945,3.54594,15.9028,-358.498,2.37068,0.0,0.0
88,21.75,96.2755,103.743,53.3313,100.655,78.1195,0.0935806,3.76062,15.6864,-358.698,2.23354,0.0,0.0
90,22.25,100.043,108.174,66.1772,100.651,76.0671,0.0962154,3.98511,15.5112,-359.019,2.46784,0.0,0.0
92,22.75,103.184,112.753,49.6775,100.633,78.5768,0.0983495,4.16694,15.3692,-359.249,2.18021,0.0,0.0
94,23.25,107.401,117.497,60.8549,100.633,73.8272,0.0978043,4.27979,15.2542,-359.419,2.72964,0.0,0.0
96,23.75,110.707,122.319,64.6659,100.627,69.5345,0.0953164,4.34021,15.1586,-359.599,3.25694,0.0,0.0
98,24.25,114.709,127.001,66.4428,100.628,69.6867,0.0933011,4.31882,15.0811,-359.789,3.23781,0.0,0.0
100,24.75,117.817,132.094,70.7576,100.61,66.1269,0.0879333,4.23819,15.1396,-359.889,3.69829,0.0,0.0
102,25.25,121.148,136.165,86.2414,100.606,66.6617,0.0835854,4.17289,15.2961,-360.009,3.62694,0.0,0.0
104,25.75,123.645,139.925,84.1401,100.603,65.5971,0.0783102,3.99844,15.4229,-360.049,3.76857,0.0,0.0
106,26.25,125.992,142.967,94.9954,100.594,70.2661,0.0724594,3.74775,15.7845,-360.11,3.16182,0.0,0.0
108,26.75,127.973,145.996,108.631,100.578,72.4886,0.0677202,3.54469,16.0774,-360.17,2.88607,0.0,0.0
110,27.25,129.113,147.421,109.759,100.581,77.3909,0.0609788,3.2421,16.4389,-360.23,2.30965,0.0,0.0
112,27.75,129.479,148.765,113.248,100.572,81.6815,0.0555183,2.997,16.8437,-360.27,1.83334,0.0,0.0
114,28.25,129.909,149.779,119.5,100.579,87.1228,0.0502786,2.67559,17.1715,-360.28,1.26563,0.0,0.0
116,28.75,129.873,150.118,122.874,100.557,87.2921,0.0452994,2.41524,17.5761,-360.32,1.24659,0.0,0.0
118,29.25,129.726,150.079,123.953,100.556,88.8347,0.0406537,2.20436,17.9038,-360.34,1.09215,0.0,0.0
120,29.75,129.185,149.658,123.721,100.545,91.5297,0.0363394,1.94679,18.2695,-360.36,0.827798,0.0,0.0
122,30.25,128.36,149.246,126.37,100.545,95.5671,0.0324779,1.73815,18.5658,-360.35,0.447486,0.0,0.0
124,30.75,128.003,148.58,130.83,100.541,97.4554,0.0290199,1.54405,18.8801,-360.36,0.274643,0.0,0.0
126,31.25,127.191,147.813,131.575,100.529,98.8245,0.0259697,1.36424,19.1348,-360.35,0.150716,0.0,0.0
128,31.75,125.964,147.224,133.157,100.527,100.543,0.0232746,1.20498,19.3803,-360.38,-0.0013936,0.0,0.0
130,32.25,125.571,146.457,132.41,100.517,100.315,0.020917,1.06372,19.5791,-360.38,0.0177859,0.0,0.0
132,32.75,124.71,144.913,133.515,100.515,101.021,0.0188501,0.939737,19.7669,-360.39,-0.0442455,0.0,0.0
134,33.25,123.821,144.081,136.711,100.508,102.147,0.017176,0.830701,19.919,-360.39,-0.142604,0.0,0.0
136,33.75,122.741,143.166,136.909,100.513,102.224,0.0155225,0.735938,20.0521,-360.4,-0.148804,0.0,0.0
138,34.25,122.042,142.07,135.723,100.508,102.985,0.0141832,0.653381,20.1687,-360.4,-0.214578,0.0,0.0
140,34.75,120.955,141.136,135.95,100.507,102.609,0.0130259,0.582085,20.2632,-360.4,-0.182396,0.0,0.0
142,35.25,120.08,139.916,137.225,100.496,102.004,0.0124981,0.520353,20.31,-360.42,-0.131252,0.0,0.0
144,35.75,118.916,138.672,138.465,100.494,102.775,0.0115957,0.47035,20.3902,-360.41,-0.197757,0.0,0.0
146,36.25,118.481,137.867,135.716,100.484,102.551,0.0108202,0.423197,20.46,-360.43,-0.179486,0.0,0.0
148,36.75,117.517,136.66,139.702,100.488,102.293,0.0101522,0.385003,20.521,-360.42,-0.156875,0.0,0.0
150,37.25,116.233,136.008,135.563,100.471,102.829,0.00956697,0.351676,20.5748,-360.42,-0.204419,0.0,0.0
152,37.75,115.667,134.856,140.393,100.477,102.866,0.00909296,0.322531,20.6224,-360.44,-0.207052,0.0,0.0
154,38.25,115.126,134.012,134.264,100.469,103.136,0.00868011,0.310105,20.6638,-360.45,-0.230871,0.0,0.0
156,38.75,113.917,132.636,134.583,100.477,103.513,0.0083457,0.285707,20.6999,-360.45,-0.262289,0.0,0.0
158,39.25,113.493,131.894,137.349,100.468,102.269,0.00805221,0.265945,20.731,-360.46,-0.156591,0.0,0.0
160,39.75,112.152,130.494,133.893,100.468,102.401,0.00781449,0.248721,20.7579,-360.45,-0.167948,0.0,0.0
162,40.25,110.631,129.372,137.127,100.46,102.405,0.00762193,0.233676,20.7796,-360.46,-0.168983,0.0,0.0
164,40.75,109.342,127.817,138.567,100.471,102.269,0.00741827,0.220774,20.7982,-360.46,-0.156379,0.0,0.0
166,41.25,108.606,127.056,135.618,100.462,103.208,0.0072533,0.20968,20.8141,-360.48,-0.237666,0.0,0.0
168,41.75,107.952,125.974,139.458,100.452,103.32,0.00709209,0.20002,20.8281,-360.47,-0.248067,0.0,0.0
170,42.25,107.394,125.083,138.32,100.44,102.902,0.00696152,0.191588,20.8405,-360.48,-0.213348,0.0,0.0
172,42.75,106.651,124.275,138.844,100.448,102.362,0.00684823,0.184759,20.8513,-360.48,-0.166318,0.0,0.0
174,43.25,106.241,123.326,137.811,100.435,103.925,0.00675647,0.177793,20.8607,-360.48,-0.301054,0.0,0.0
176,43.75,105.698,122.526,138.675,100.451,103.554,0.00669342,0.172151,20.8694,-360.48,-0.268082,0.0,0.0
178,44.25,103.891,122.024,136.299,100.45,103.417,0.00664235,0.166409,20.8776,-360.49,-0.256522,0.0,0.0
180,44.75,104.101,121.019,137.962,100.455,103.903,0.006606,0.161759,20.8842,-360.49,-0.297349,0.0,0.0
182,45.25,103.566,120.235,138.111,100.433,103.122,0.00657655,0.157505,20.89,-360.52,-0.232813,0.0,0.0
184,45.75,102.432,119.562,141.968,100.434,102.013,0.0065527,0.153621,20.8951,-360.5,-0.137414,0.0,0.0
186,46.25,101.937,118.557,137.137,100.44,103.401,0.00652613,0.149637,20.8993,-360.51,-0.256067,0.0,0.0
188,46.75,101.074,118.126,139.313,100.425,103.131,0.00649807,0.146409,20.9042,-360.5,-0.234281,0.0,0.0
190,47.25,100.377,117.095,138.715,100.422,102.434,0.00647534,0.143044,20.9082,-360.52,-0.17478,0.0,0.0
192,47.75,99.9434,116.658,137.261,100.431,102.73,0.0064576,0.140318,20.9115,-360.52,-0.199508,0.0,0.0
194,48.25,99.1396,116.021,139.149,100.421,102.453,0.00644381,0.13811,20.915,-360.54,-0.176528,0.0,0.0
196,48.75,98.4851,114.86,137.481,100.436,103.209,0.00643199,0.135585,20.9179,-360.53,-0.240029,0.0,0.0
198,49.25,98.2642,114.356,139.852,100.44,102.551,0.00642182,0.132878,20.9211,-360.54,-0.183329,0.0,0.0
200,49.75,97.8397,113.658,135.605,100.431,102.843,0.00641358,0.130684,20.9237,-360.54,-0.20918,0.0,0.0
202,50.25,96.3848,113.095,140.39,100.407,103.441,0.00640064,0.12833,20.9267,-360.55,-0.262355,0.0,0.0
204,50.75,95.9169,111.748,139.102,100.425,102.29,0.00639016,0.125902,20.93,-360.57,-0.16219,0.0,0.0
206,51.25,95.4553,111.377,142.322,100.426,103.015,0.00637541,0.123935,20.9334,-360.56,-0.224381,0.0,0.0
208,51.75,94.6451,110.875,135.196,100.435,103.392,0.00636346,0.121598,20.9368,-360.56,-0.25573,0.0,0.0
210,52.25,94.7435,110.194,142.177,100.415,103.18,0.00635628,0.119704,20.94,-360.56,-0.239366,0.0,0.0
212,52.75,93.7503,109.565,142.723,100.433,102.858,0.00635179,0.11747,20.9426,-360.56,-0.210241,0.0,0.0
214,53.25,93.4118,108.851,142.156,100.416,101.796,0.00634934,0.115659,20.9455,-360.56,-0.120294,0.0,0.0
216,53.75,92.4352,108.362,139.112,100.431,103.663,0.00634735,0.113549,20.9479,-360.56,-0.279117,0.0,0.0
218,54.25,92.2373,107.869,138.431,100.413,103.135,0.00635168,0.11184,20.9499,-360.56,-0.235736,0.0,0.0
220,54.75,92.1556,107.338,137.804,100.423,102.655,0.00636053,0.109868,20.9524,-360.57,-0.193771,0.0,0.0
222,55.25,90.96,106.149,138.651,100.425,103.22,0.00637759,0.108271,20.9544,-360.58,-0.241924,0.0,0.0
224,55.75,90.6777,105.801,141.073,100.427,103.585,0.00640032,0.106489,20.9564,-360.6,-0.272833,0.0,0.0
226,56.25,90.5789,105.583,138.987,100.42,102.507,0.00642995,0.105045,20.9581,-360.6,-0.181302,0.0,0.0
228,56.75,89.2576,104.329,139.704,100.456,103.219,0.00646406,0.10336,20.9597,-360.59,-0.239172,0.0,0.0
230,57.25,89.0916,103.665,137.732,100.424,103.163,0.00649168,0.101995,20.9612,-360.58,-0.237175,0.0,0.0
232,57.75,88.4312,103.516,141.553,100.435,102.566,0.00651908,0.10056,20.9629,-360.58,-0.184992,0.0,0.0
234,58.25,87.7631,102.364,139.655,100.426,103.122,0.00654127,0.0991005,20.9647,-360.6,-0.233485,0.0,0.0
236,58.75,87.5742,102.225,139.517,100.444,102.079,0.00655422,0.0976549,20.9664,-360.61,-0.142245,0.0,0.0
238,59.25,87.0886,101.273,133.029,100.432,102.977,0.00656471,0.096247,20.9679,-360.62,-0.220516,0.0,0.0
240,59.75,86.7202,101.622,139.71,100.442,102.783,0.00656192,0.0951065,20.9697,-360.61,-0.20303,0.0,0.0
242,60.25,85.6795,100.373,134.945,100.431,103.143,0.00655966,0.0936134,20.9715,-360.61,-0.234766,0.0,0.0
244,60.75,85.7011,99.986,138.406,100.454,102.274,0.00655783,0.092404,20.973,-360.62,-0.158191,0.0,0.0
246,61.25,85.4181,99.5968,137.839,100.437,102.815,0.00652876,0.0912053,20.9744,-360.62,-0.206216,0.0,0.0
248,61.75,84.9223,99.2478,142.874,100.448,102.532,0.00650522,0.0900374,20.9758,-360.63,-0.180984,0.0,0.0
250,62.25,84.7395,98.2258,141.764,100.452,102.087,0.00646735,0.0888798,20.9774,-360.64,-0.142273,0.0,0.0
252,62.75,84.1245,97.8236,141.006,100.454,102.619,0.00643668,0.0877518,20.9791,-360.63,-0.187853,0.0,0.0
254,63.25,83.6997,97.737,139.585,100.461,102.903,0.00640656,0.0866342,20.9805,-360.63,-0.211622,0.0,0.0
256,63.75,83.3629,97.2148,139.12,100.479,102.849,0.00637742,0.0855453,20.9816,-360.63,-0.205458,0.0,0.0
258,64.25,82.5168,96.5532,140.073,100.462,102.698,0.00634788,0.0846632,20.983,-360.64,-0.194026,0.0,0.0
260,64.75,82.4726,96.0728,140.064,100.465,102.759,0.00631862,0.083745,20.9845,-360.64,-0.19902,0.0,0.0
262,65.25,82.2921,95.4155,141.446,100.474,102.011,0.00628365,0.0828177,20.9858,-360.63,-0.13374,0.0,0.0
264,65.75,81.5557,94.9472,139.107,100.475,102.304,0.00625532,0.081863,20.9868,-360.64,-0.158987,0.0,0.0
266,66.25,82.0003,94.6954,137.739,100.478,102.375,0.00621986,0.0809064,20.9876,-360.65,-0.16484,0.0,0.0
268,66.75,81.2717,94.3175,138.824,100.488,103.58,0.00619114,0.079928,20.9891,-360.65,-0.267005,0.0,0.0
270,67.25,80.4838,93.3885,134.123,100.483,103.415,0.00616787,0.0789524,20.9904,-360.65,-0.253451,0.0,0.0
272,67.75,80.0528,93.5948,137.698,100.489,103.038,0.00612533,0.0780025,20.9914,-360.65,-0.220769,0.0,0.0
274,68.25,79.2429,92.6542,141.719,100.484,103.413,0.00606955,0.0770892,20.9922,-360.67,-0.2532,0.0,0.0
276,68.75,79.1197,92.2216,143.029,100.497,103.276,0.00602437,0.0762261,20.9929,-360.67,-0.240391,0.0,0.0
278,69.25,78.9431,91.6061,141.288,100.502,103.909,0.00598777,0.0754159,20.9934,-360.67,-0.293729,0.0,0.0
280,69.75,78.533,91.383,139.423,100.503,102.239,0.00591565,0.0747597,20.994,-360.65,-0.150929,0.0,0.0
282,70.25,78.4,91.1174,137.756,100.509,102.202,0.00585724,0.0738837,20.9945,-360.66,-0.147219,0.0,0.0
284,70.75,78.2963,90.5752,136.505,100.514,102.979,0.00575415,0.0731741,20.9951,-360.65,-0.213504,0.0,0.0
286,71.25,77.1672,90.2869,136.59,100.511,103.209,0.00572642,0.0725993,20.9953,-360.65,-0.233473,0.0,0.0
288,71.75,77.0898,88.8806,138.778,100.524,103.633,0.00565655,0.0721338,20.9956,-360.66,-0.268449,0.0,0.0
290,72.25,76.8235,89.3192,138.871,100.525,103.649,0.00559996,0.0712335,20.9962,-360.67,-0.269678,0.0,0.0
292,72.75,76.451,88.8298,139.36,100.534,102.83,0.0055267,0.0705043,20.997,-360.67,-0.198959,0.0,0.0
294,73.25,76.3108,88.773,138.623,100.532,103.027,0.00546735,0.0696661,20.9979,-360.67,-0.216054,0.0,0.0
296,73.75,75.913,87.8455,139.424,100.537,103.606,0.00538815,0.0686977,20.9988,-360.67,-0.264943,0.0,0.0
298,74.25,75.4616,87.618,140.687,100.543,102.396,0.00532399,0.0682997,20.9997,-360.66,-0.160955,0.0,0.0
300,74.75,75.0114,87.1319,137.554,100.547,103.138,0.00527203,0.0676191,21.0005,-360.68,-0.224217,0.0,0.0
302,75.25,75.245,86.4317,142.363,100.559,103.198,0.00519882,0.0669087,21.0014,-360.68,-0.228302,0.0,0.0
304,75.75,74.9426,86.4093,142.87,100.574,103.306,0.00513953,0.0661902,21.0023,-360.68,-0.236231,0.0,0.0
306,76.25,74.2482,85.8035,139.629,100.581,102.85,0.00508528,0.0654021,21.003,-360.68,-0.196581,0.0,0.0
308,76.75,73.7069,86.1044,138.16,100.572,102.938,0.00504134,0.0647638,21.0036,-360.68,-0.204875,0.0,0.0
310,77.25,73.4373,85.3248,135.68,100.583,102.869,0.00500948,0.0641023,21.0043,-360.68,-0.198041,0.0,0.0
312,77.75,73.0972,84.7745,138.986,100.583,102.935,0.00498367,0.0634365,21.0051,-360.68,-0.203741,0.0,0.0
314,78.25,73.1212,84.1351,140.861,100.586,103.39,0.00496866,0.0628971,21.0058,-360.67,-0.242335,0.0,0.0
316,78.75,72.6926,84.2155,140.604,100.595,102.544,0.00496181,0.0621859,21.0063,-360.69,-0.169108,0.0,0.0
318,79.25,72.5252,84.1595,137.758,100.624,103.046,0.00495625,0.0616098,21.0067,-360.69,-0.209659,0.0,0.0
320,79.75,72.4385,83.465,141.694,100.606,103.129,0.00495549,0.0609375,21.0073,-360.7,-0.218206,0.0,0.0
322,80.25,72.3072,82.9637,141.683,100.628,102.751,0.00495487,0.0603929,21.0079,-360.71,-0.183989,0.0,0.0
324,80.75,71.5807,82.7094,138.516,100.615,102.36,0.00494566,0.0598581,21.0087,-360.7,-0.151513,0.0,0.0
326,81.25,71.5451,82.637,137.098,100.627,104.059,0.00494173,0.0593404,21.0092,-360.71,-0.295534,0.0,0.0
328,81.75,70.9383,82.1371,138.926,100.625,102.666,0.00493501,0.0589211,21.0099,-360.71,-0.176886,0.0,0.0
330,82.25,71.1303,81.4489,141.714,100.651,103.594,0.00488109,0.0583349,21.0106,-360.7,-0.253967,0.0,0.0
332,82.75,70.5377,81.1467,140.123,100.645,104.2,0.00483741,0.0578601,21.0111,-360.71,-0.305867,0.0,0.0
334,83.25,70.1172,80.9829,141.922,100.655,102.718,0.00476105,0.0573248,21.0115,-360.71,-0.178794,0.0,0.0
336,83.75,70.1599,80.5019,140.174,100.649,103.53,0.0046992,0.0568912,21.0122,-360.71,-0.248695,0.0,0.0
338,84.25,69.3887,80.5903,142.288,100.659,103.929,0.00463016,0.0567064,21.0129,-360.71,-0.281756,0.0,0.0
340,84.75,69.7379,80.3982,139.461,100.659,103.312,0.0045572,0.0562397,21.0138,-360.71,-0.229167,0.0,0.0
342,85.25,68.8361,80.2857,139.585,100.683,102.993,0.00448441,0.0558617,21.0146,-360.72,-0.199842,0.0,0.0
344,85.75,68.7275,79.5141,140.526,100.669,102.856,0.00441311,0.0554547,21.0152,-360.73,-0.18938,0.0,0.0
346,86.25,68.8297,78.8859,140.309,100.692,102.388,0.00434298,0.0550343,21.0157,-360.72,-0.147201,0.0,0.0
348,86.75,68.6638,78.7405,138.824,100.683,103.236,0.00427502,0.0546361,21.0161,-360.72,-0.220649,0.0,0.0
350,87.25,68.183,78.5694,139.839,100.704,101.912,0.00421997,0.0542618,21.0165,-360.73,-0.105094,0.0,0.0
352,87.75,68.3732,78.2066,141.851,100.7,103.179,0.004163,0.0539009,21.0167,-360.73,-0.214354,0.0,0.0
354,88.25,68.0707,77.8383,137.908,100.725,102.671,0.00411686,0.0535568,21.0169,-360.72,-0.168705,0.0,0.0
356,88.75,67.8717,77.8022,141.466,100.717,103.681,0.00407948,0.0532205,21.0171,-360.73,-0.255556,0.0,0.0
358,89.25,67.695,77.2135,139.955,100.728,103.188,0.00404921,0.0528963,21.0175,-360.73,-0.212653,0.0,0.0
360,89.75,67.1499,77.0707,140.905,100.725,103.79,0.00402469,0.0525905,21.018,-360.73,-0.264113,0.0,0.0
362,90.25,67.0788,76.8148,139.221,100.742,103.768,0.00399368,0.0523039,21.0184,-360.71,-0.260799,0.0,0.0
364,90.75,67.0597,76.2531,139.808,100.737,102.786,0.00396857,0.0520718,21.0188,-360.71,-0.177473,0.0,0.0
366,91.25,66.2203,76.3105,141.882,100.769,103.87,0.0039339,0.0518262,21.019,-360.72,-0.267083,0.0,0.0
368,91.75,66.0647,75.7606,137.239,100.768,103.702,0.00389293,0.0515755,21.0193,-360.72,-0.252857,0.0,0.0
370,92.25,65.8981,75.9022,142.109,100.767,103.282,0.00385975,0.0513724,21.0194,-360.73,-0.217243,0.0,0.0
372,92.75,66.0269,75.8813,141.095,100.771,103.598,0.0038062,0.0511576,21.0196,-360.73,-0.243777,0.0,0.0
374,93.25,65.7874,75.0101,141.75,100.799,102.694,0.00373883,0.0509382,21.0205,-360.73,-0.16406,0.0,0.0
376,93.75,65.4914,75.2204,139.729,100.778,102.694,0.00366801,0.050739,21.0212,-360.73,-0.165887,0.0,0.0
378,94.25,65.4786,74.4509,137.929,100.8,103.464,0.00359603,0.0505582,21.0218,-360.74,-0.229874,0.0,0.0
380,94.75,65.8529,74.5505,143.065,100.793,103.931,0.0035228,0.0504117,21.0222,-360.74,-0.27012,0.0,0.0
382,95.25,65.0504,74.2666,139.37,100.81,103.131,0.00345004,0.0501924,21.0226,-360.73,-0.200592,0.0,0.0
384,95.75,64.8493,73.7638,138.367,100.811,103.542,0.0033911,0.0499242,21.0229,-360.74,-0.235569,0.0,0.0
386,96.25,64.7737,73.9111,138.042,100.824,103.173,0.00333428,0.0496781,21.0232,-360.73,-0.202984,0.0,0.0
388,96.75,64.698,73.5525,143.288,100.827,103.293,0.00328008,0.049453,21.0238,-360.75,-0.212878,0.0,0.0
390,97.25,64.3372,72.8535,141.622,100.849,103.715,0.003231,0.049249,21.0244,-360.75,-0.246948,0.0,0.0
392,97.75,63.9805,72.9418,139.807,100.846,102.442,0.00318656,0.0490644,21.0248,-360.74,-0.138338,0.0,0.0
394,98.25,63.8946,72.8046,139.006,100.86,103.52,0.00315057,0.0489149,21.0251,-360.74,-0.229406,0.0,0.0
396,98.75,63.6916,72.3307,142.194,100.86,103.004,0.00310171,0.0486845,21.0254,-360.73,-0.185356,0.0,0.0
398,99.25,63.975,72.4803,142.403,100.879,102.811,0.00306214,0.0484979,21.0256,-360.73,-0.167216,0.0,0.0
400,99.75,63.3047,72.1703,138.722,100.86,102.425,0.00301259,0.0483539,21.0258,-360.74,-0.135651,0.0,0.0
402,100.25,63.4993,72.0318,139.749,100.891,103.151,0.00295671,0.0482438,21.026,-360.73,-0.195199,0.0,0.0
404,100.75,62.9042,71.4698,140.416,100.897,103.219,0.00289139,0.0481545,21.0261,-360.74,-0.200506,0.0,0.0
406,101.25,62.492,71.4824,140.355,100.893,103.6,0.00282041,0.0480823,21.0262,-360.74,-0.233348,0.0,0.0
408,101.75,62.7496,70.7756,140.453,100.899,103.22,0.00275129,0.0480237,21.0263,-360.74,-0.200366,0.0,0.0
410,102.25,61.8982,70.4482,138.431,100.926,102.491,0.00268482,0.047926,21.0268,-360.75,-0.135619,0.0,0.0
412,102.75,62.1843,70.8526,140.337,100.917,103.333,0.00263098,0.0478016,21.0272,-360.74,-0.208485,0.0,0.0
414,103.25,62.4598,70.5027,138.914,100.934,103.228,0.00257638,0.0476865,21.0275,-360.75,-0.197964,0.0,0.0
416,103.75,61.6584,70.4613,141.674,100.932,102.733,0.00252227,0.0475802,21.0278,-360.77,-0.15582,0.0,0.0
418,104.25,61.8172,69.7323,145.085,100.938,103.195,0.00247198,0.0474942,21.028,-360.77,-0.194862,0.0,0.0
420,104.75,61.5841,69.6861,137.515,100.947,103.657,0.00242543,0.0474245,21.0282,-360.75,-0.233444,0.0,0.0
422,105.25,61.5028,69.9614,141.35,100.955,103.373,0.00238191,0.0473681,21.0283,-360.76,-0.208586,0.0,0.0
424,105.75,61.0197,69.2827,141.245,100.963,103.519,0.00234143,0.0472951,21.0284,-360.76,-0.220242,0.0,0.0
426,106.25,61.1183,69.4692,137.864,100.965,103.267,0.00229895,0.0472359,21.0285,-360.76,-0.1987,0.0,0.0
428,106.75,61.2027,68.6761,138.98,100.972,103.126,0.00225584,0.0471305,21.0286,-360.75,-0.186043,0.0,0.0
430,107.25,60.8043,68.6042,137.973,100.975,103.211,0.00220736,0.0469934,21.0287,-360.76,-0.193009,0.0,0.0
432,107.75,60.6598,68.6388,138.817,101.001,103.591,0.00213396,0.046868,21.0294,-360.75,-0.223116,0.0,0.0
434,108.25,61.0088,68.2683,140.619,101,103.66,0.00211422,0.0467535,21.0296,-360.76,-0.229066,0.0,0.0
436,108.75,61.0777,68.3987,144.292,101.012,102.985,0.00205473,0.0466608,21.0299,-360.76,-0.170495,0.0,0.0
438,109.25,60.4335,68.1257,137.444,101.008,103.978,0.00200655,0.0465856,21.0302,-360.76,-0.255401,0.0,0.0
440,109.75,59.88,67.6116,138.755,101.014,103.569,0.00196752,0.046496,21.0304,-360.77,-0.220117,0.0,0.0
442,110.25,60.025,67.6008,137.982,101.036,102.894,0.00192366,0.0463976,21.0305,-360.76,-0.160549,0.0,0.0
444,110.75,59.8772,67.4841,139.716,101.034,103.189,0.00188814,0.0462624,21.0307,-360.77,-0.186005,0.0,0.0
446,111.25,60.1947,66.9247,139.703,101.043,103.848,0.00186916,0.0462124,21.0308,-360.77,-0.241343,0.0,0.0
448,111.75,59.7629,67.3627,140.433,101.054,103.507,0.00185378,0.0461269,21.0309,-360.77,-0.211413,0.0,0.0
450,112.25,59.6854,67.4512,138.662,101.059,103.471,0.0018452,0.0460721,21.031,-360.77,-0.207815,0.0,0.0
452,112.75,59.25,66.8013,137.307,101.073,103.559,0.00184172,0.0460405,21.031,-360.78,-0.214099,0.0,0.0
454,113.25,59.5483,66.4073,138.647,101.086,103.46,0.00184013,0.046015,21.0311,-360.76,-0.204636,0.0,0.0
456,113.75,59.0967,66.378,143.596,101.098,103.465,0.00183885,0.0459728,21.0311,-360.76,-0.20391,0.0,0.0
458,114.25,59.286,66.0379,140.771,101.102,103.277,0.00183168,0.0459192,21.0311,-360.76,-0.187507,0.0,0.0
460,114.75,58.9234,65.7764,138.207,101.104,103.753,0.00182588,0.0458902,21.0312,-360.75,-0.22788,0.0,0.0
462,115.25,58.6643,65.9876,140.263,101.108,103.096,0.00182118,0.0458796,21.0312,-360.75,-0.171551,0.0,0.0
464,115.75,58.7044,65.4876,138.032,101.121,103.187,0.00180023,0.0458638,21.031,-360.74,-0.17822,0.0,0.0
466,116.25,58.3725,65.5369,140.452,101.125,103.412,0.00178326,0.0458446,21.0306,-360.77,-0.197011,0.0,0.0
468,116.75,58.5959,65.1886,143.706,101.137,103.543,0.00176951,0.0458426,21.0303,-360.76,-0.207192,0.0,0.0
470,117.25,58.8825,65.4011,137.05,101.143,103.962,0.00173636,0.0458411,21.03,-360.75,-0.242225,0.0,0.0
472,117.75,58.1698,64.6733,140.265,101.151,103.695,0.0017095,0.0458398,21.0298,-360.76,-0.218916,0.0,0.0
474,118.25,58.2723,64.4514,136.827,101.142,103.789,0.00168407,0.0458101,21.0296,-360.78,-0.227684,0.0,0.0
476,118.75,58.2553,64.5841,136.723,101.167,102.49,0.00166348,0.0457601,21.0295,-360.76,-0.114513,0.0,0.0
478,119.25,58.3084,64.7607,140.825,101.164,103.555,0.00165517,0.0457196,21.0296,-360.76,-0.205787,0.0,0.0
480,119.75,58.1189,64.1409,140.643,101.193,103.532,0.00165597,0.0456732,21.0299,-360.77,-0.201351,0.0,0.0
482,120.25,57.6111,64.5631,138.509,101.18,103.935,0.00166306,0.0456356,21.0302,-360.76,-0.236774,0.0,0.0
484,120.75,57.5922,64.1536,139.697,101.203,103.443,0.0016746,0.0455779,21.0304,-360.77,-0.192892,0.0,0.0
486,121.25,57.3583,64.1216,136.779,101.192,103.748,0.00167944,0.0455311,21.0306,-360.77,-0.219743,0.0,0.0
488,121.75,57.1728,63.8422,139.909,101.207,103.632,0.0016793,0.0455068,21.0307,-360.78,-0.208643,0.0,0.0
490,122.25,57.5861,64.0813,138.532,101.205,103.803,0.00167919,0.0454872,21.0308,-360.77,-0.223376,0.0,0.0
492,122.75,56.756,63.6838,142.753,101.227,103.456,0.00165708,0.0454569,21.0309,-360.77,-0.191912,0.0,0.0
494,123.25,57.0769,63.1929,139.24,101.241,104.079,0.00163917,0.0454195,21.031,-360.77,-0.243636,0.0,0.0
496,123.75,56.9063,63.3842,139.428,101.243,104.603,0.00161308,0.0453892,21.031,-360.78,-0.287772,0.0,0.0
498,124.25,56.6416,63.2349,141.601,101.231,103.458,0.00159647,0.0453646,21.0311,-360.77,-0.191708,0.0,0.0
500,124.75,57.2524,62.9817,139.987,101.252,103.796,0.00157064,0.0453447,21.0311,-360.76,-0.218706,0.0,0.0
502,125.25,56.0009,63.2175,139.155,101.248,103.737,0.00155203,0.0453422,21.0309,-360.78,-0.214084,0.0,0.0
504,125.75,56.9472,62.6638,139.926,101.272,102.973,0.00153696,0.0453402,21.0305,-360.78,-0.146784,0.0,0.0
506,126.25,56.5695,62.4898,139.829,101.254,103.423,0.00154921,0.0453243,21.0302,-360.79,-0.186785,0.0,0.0
508,126.75,56.1841,62.8417,138.709,101.276,104.252,0.00157653,0.0452984,21.03,-360.78,-0.255232,0.0,0.0
510,127.25,56.34,62.3227,140.511,101.276,103.178,0.0016143,0.0452873,21.0298,-360.78,-0.163914,0.0,0.0
512,127.75,56.3568,62.6114,136.118,101.289,104.142,0.0016578,0.0452548,21.0296,-360.79,-0.244823,0.0,0.0
514,128.25,56.3237,62.1315,142.365,101.284,103.807,0.00170463,0.0452285,21.0295,-360.77,-0.216843,0.0,0.0
516,128.75,56.2607,62.5198,139.13,101.301,103.244,0.00174063,0.0452481,21.0294,-360.77,-0.167429,0.0,0.0
518,129.25,56.2405,62.0192,138.627,101.288,103.935,0.00176805,0.045264,21.0293,-360.78,-0.227325,0.0,0.0
520,129.75,55.5042,62.1241,143.724,101.311,103.636,0.00179026,0.0452769,21.0292,-360.78,-0.199944,0.0,0.0
522,130.25,55.7965,61.5305,140.194,101.307,103.685,0.00180824,0.0452873,21.0292,-360.78,-0.20451,0.0,0.0
524,130.75,55.5481,61.7285,142.273,101.324,103.134,0.00174929,0.0452821,21.0291,-360.78,-0.15602,0.0,0.0
526,131.25,55.8729,61.5143,138.708,101.311,103.695,0.00170154,0.0452779,21.0291,-360.79,-0.204883,0.0,0.0
528,131.75,55.1385,61.4008,139.758,101.33,103.509,0.00162879,0.0452608,21.0291,-360.79,-0.187508,0.0,0.0
530,132.25,55.7455,61.0065,142.009,101.328,102.741,0.00153919,0.045247,21.0292,-360.78,-0.122082,0.0,0.0
532,132.75,55.6721,60.6376,138.849,101.347,104.288,0.00144094,0.0451676,21.0293,-360.79,-0.252091,0.0,0.0
534,133.25,55.4876,60.8698,140.706,101.335,104.139,0.00133824,0.0451033,21.0294,-360.79,-0.240516,0.0,0.0
536,133.75,55.3274,61.0717,137.008,101.344,104.456,0.00124223,0.0450512,21.0295,-360.79,-0.266518,0.0,0.0
538,134.25,55.7641,60.8161,138.923,101.343,103.895,0.00115292,0.0450022,21.0295,-360.79,-0.219155,0.0,0.0
540,134.75,55.1257,60.5602,141.872,101.366,103.517,0.00107609,0.0449563,21.0296,-360.79,-0.18505,0.0,0.0
542,135.25,55.3506,60.6714,138.862,101.357,102.972,0.00100982,0.0449192,21.0296,-360.78,-0.139299,0.0,0.0
544,135.75,55.4523,60.836,137.972,101.38,103.678,0.000958067,0.0448892,21.0297,-360.8,-0.197573,0.0,0.0
546,136.25,54.5624,59.7248,143.302,101.377,103.294,0.000917875,0.0448864,21.0297,-360.8,-0.165129,0.0,0.0
548,136.75,55.4444,60.3209,141.788,101.373,103.454,0.00088532,0.0449035,21.0297,-360.8,-0.179074,0.0,0.0
550,137.25,55.3497,60.0395,138.667,101.389,103.765,0.000875623,0.0449101,21.0297,-360.81,-0.204085,0.0,0.0
552,137.75,54.8214,60.117,140.004,101.401,104.302,0.000882775,0.0449091,21.0297,-360.8,-0.248522,0.0,0.0
554,138.25,54.9308,59.7775,137.353,101.394,103.244,0.000888568,0.0449082,21.0297,-360.8,-0.15932,0.0,0.0
556,138.75,54.4379,59.7178,140.646,101.403,103.943,0.000918298,0.0449075,21.0298,-360.79,-0.218012,0.0,0.0
558,139.25,54.8627,59.9479,139.769,101.407,103.522,0.000964912,0.044907,21.0296,-360.79,-0.181885,0.0,0.0
560,139.75,54.6957,59.5415,139.162,101.428,103.44,0.00101167,0.0448656,21.0295,-360.8,-0.173132,0.0,0.0
562,140.25,54.1948,59.7364,141.512,101.416,102.733,0.00105763,0.0448321,21.0294,-360.8,-0.113632,0.0,0.0
564,140.75,54.5844,59.2642,144.295,101.424,103.149,0.00109486,0.0448049,21.0293,-360.8,-0.148695,0.0,0.0
566,141.25,54.0986,59.3017,145.886,101.419,103.021,0.00113366,0.0447973,21.0295,-360.81,-0.138128,0.0,0.0
568,141.75,53.5645,59.2248,143.642,101.433,103.823,0.00116509,0.0448041,21.0298,-360.81,-0.205247,0.0,0.0
570,142.25,54.1554,59.2056,140.587,101.435,103.584,0.00119055,0.0448095,21.0301,-360.81,-0.184709,0.0,0.0
572,142.75,54.0744,59.1911,140.421,101.441,104.647,0.00121117,0.0448139,21.0297,-360.81,-0.274185,0.0,0.0
574,143.25,54.0689,58.6853,137.269,101.444,104.198,0.0012298,0.0448175,21.0294,-360.8,-0.236106,0.0,0.0
576,143.75,54.1683,58.9655,137.896,101.451,103.547,0.00124662,0.0447931,21.0291,-360.82,-0.180208,0.0,0.0
578,144.25,53.8669,58.6809,137.769,101.446,102.846,0.00126025,0.0447734,21.0289,-360.81,-0.120829,0.0,0.0
580,144.75,53.2872,58.9386,142.123,101.47,103.457,0.00127836,0.0447211,21.0288,-360.81,-0.170912,0.0,0.0
582,145.25,53.9037,58.8147,139.602,101.459,103.705,0.0012994,0.0446462,21.0286,-360.82,-0.192998,0.0,0.0
584,145.75,53.8678,58.1533,140.484,101.467,103.448,0.00131901,0.0445854,21.0285,-360.82,-0.170396,0.0,0.0
586,146.25,53.414,58.3586,140.047,101.472,103.796,0.00133722,0.0445226,21.0284,-360.82,-0.199555,0.0,0.0
588,146.75,53.6432,58.5357,138.267,101.475,103.624,0.00135518,0.0444717,21.0284,-360.81,-0.184645,0.0,0.0
590,147.25,53.4731,58.3793,136.402,101.478,103.425,0.00137262,0.0444441,21.0283,-360.81,-0.167503,0.0,0.0
592,147.75,53.6388,58.3709,140.419,101.489,103.475,0.00138803,0.0444218,21.0283,-360.8,-0.170789,0.0,0.0
594,148.25,53.5293,58.3721,142.202,101.502,102.842,,0.0444037,,-360.82,-0.115614,0.0,0.0
596,148.75,53.2622,57.9998,143.502,101.498,104.782,,0.044389,,-360.79,-0.280614,0.0,0.0
598,149.25,53.2706,57.5885,140.741,101.508,103.803,,0.0443772,,-360.8,-0.196956,0.0,0.0
600,149.75,53.2853,57.8372,140.114,101.506,103.66,,0.0443539,,-360.82,-0.185023,0.0,0.0
602,150.25,53.6321,57.5029,140.189,101.514,103.513,,0.0443351,,-360.82,-0.171841,0.0,0.0
604,150.75,53.358,57.4544,138.232,101.521,102.976,,0.0443198,,-360.8,-0.125417,0.0,0.0
606,151.25,52.7653,57.3504,143.309,101.521,103.39,,,,-360.76,-0.160771,0.0,0.0
608,151.75,52.3875,57.1679,138.249,101.523,102.488,,,,-360.76,-0.0833641,0.0,0.0
610,152.25,52.9595,57.0305,141.068,101.533,103.666,,,,-360.78,-0.183189,0.0,0.0
612,152.75,52.8908,57.0618,139.635,101.534,104.579,,,,-360.78,-0.260406,0.0,0.0
614,153.25,52.9159,57.1489,137.043,101.545,102.528,,,,-360.79,-0.0849078,0.0,0.0
616,153.75,53.3158,56.975,139.172,101.549,103.579,,,,-360.78,-0.174434,0.0,0.0
618,154.25,53.1367,57.1145,138.799,101.55,103.789,,,,-360.78,-0.192174,0.0,0.0
620,154.75,52.7206,56.7258,139.495,101.561,103.21,,,,-360.78,-0.141975,0.0,0.0
622,155.25,52.4851,57.0225,139.43,101.563,103.424,,,,-360.78,-0.159999,0.0,0.0
624,155.75,52.4276,56.4879,138.418,101.555,103.588,,,,-360.8,-0.174707,0.0,0.0
626,156.25,52.6935,56.5603,136.444,101.573,102.929,,,,-360.78,-0.116815,0.0,0.0
628,156.75,52.6335,56.8937,139.956,101.565,103.403,,,,-360.8,-0.158016,0.0,0.0
630,157.25,51.7581,56.2866,139.127,101.588,103.422,,,,-360.78,-0.157691,0.0,0.0
632,157.75,52.4024,56.4289,137.35,101.571,103.706,,,,-360.77,-0.183336,0.0,0.0
634,158.25,52.2688,56.415,139.181,101.586,104.548,,,,-360.77,-0.253263,0.0,0.0
636,158.75,52.078,56.0446,140.495,101.586,103.524,,,,-360.76,-0.166499,0.0,0.0
637,159,51.9881,56.2559,134.325,101.579,104.567,,,,-360.77,-0.255499,0.0,0.0