File: 01_Data/Rebond_Foam_Carpet_Pad/Cone/Rebond_Foam_Carpet_Pad_Cone_HF25Scan_220413_R1.csv
Names,Time,Stack TC,Smoke TC,Exh Press,Smoke Comp,Smoke Meas,CO Meter,CO2 Meter,O2 Meter,Sample Mass,Ext Coeff,Start Test,Flame Verif
Chan Gain,,500,500,1,1,1,1,1,1,1,1,1.0,1.0
Offset,,0,0,0.132909,0,0,0,0,0,0,0,0.0,0.0
Gain,,1,1,25.011,13.171,13.8983,1,1,1,1.00092,1.00459,1.0,1.0
Units,sec,C,C,Pa,%,%,%,%,%,g,/m,,
Baseline,,21.9445,22.439,151.154,99.5335,94.859,0.000913108,0.0562125,21.011,-833.836,0.4239,,
2,0.25,21.279,21.6934,150.392,100.08,95.3626,0.000644876,0.0667257,21.0006,-351.612,0.425468,0.0,0.0
4,0.75,20.2433,21.1233,149.73,100.106,95.4118,0.000645089,0.0663571,21.0011,-351.772,0.423223,0.0,0.0
6,1.25,20.2823,20.956,152.726,100.085,95.3096,0.000648721,0.0657975,21.0016,-351.832,0.430829,0.0,0.0
8,1.75,20.5483,20.7319,154.121,100.088,95.0238,0.000663199,0.0653443,21.0019,-351.662,0.457513,0.0,0.0
10,2.25,20.1732,21.4111,150.306,100.079,94.8304,0.000685309,0.0648398,21.0022,-351.652,0.474723,0.0,0.0
12,2.75,19.7426,20.8596,147.851,100.1,94.3222,0.000720535,0.0643075,21.0024,-351.712,0.523873,0.0,0.0
14,3.25,20.1399,20.2446,150.263,100.084,93.9159,0.000764653,0.0638042,21.0026,-351.752,0.560572,0.0,0.0
16,3.75,20.3867,20.499,150.164,100.092,93.6419,0.000800389,0.0633314,21.0028,-351.722,0.586957,0.0,0.0
18,4.25,20.5251,20.4522,152.326,100.09,93.5736,0.000917311,0.0633968,21.0015,-351.732,0.593208,0.0,0.0
20,4.75,20.1265,20.644,152.304,100.094,93.3323,0.00101202,0.0638532,20.9992,-351.752,0.616319,0.0,0.0
22,5.25,20.384,20.5039,152.353,100.088,92.5506,0.00108873,0.0662359,20.9915,-351.762,0.689906,0.0,0.0
24,5.75,20.4232,20.4292,149.274,100.095,91.4381,0.00127929,0.0699776,20.9799,-351.742,0.797113,0.0,0.0
26,6.25,20.3769,20.3329,148.313,100.083,92.2902,0.00154922,0.0730084,20.9705,-351.792,0.714383,0.0,1.0
28,6.75,19.9658,20.6078,145.849,100.098,90.8459,0.00186718,0.083828,20.9457,-351.822,0.854611,0.0,1.0
30,7.25,20.232,20.1288,139.136,100.077,89.0675,0.00221411,0.0925918,20.9256,-351.922,1.02703,0.0,1.0
32,7.75,20.2061,20.6432,139.557,100.098,88.8096,0.00259952,0.0996906,20.8961,-351.962,1.05442,0.0,1.0
34,8.25,20.2805,20.936,141.053,100.085,88.4648,0.00300565,0.117949,20.8722,-351.982,1.08757,0.0,1.0
36,8.75,20.4644,20.7845,141.317,100.092,85.6867,0.00343036,0.132738,20.8431,-351.962,1.36935,0.0,1.0
38,9.25,20.9677,21.0268,139.459,100.099,84.6429,0.00386054,0.149533,20.8195,-352.032,1.47796,0.0,1.0
40,9.75,20.7579,21.1082,144.093,100.1,85.5166,0.00430651,0.167471,20.7912,-352.082,1.38756,0.0,1.0
42,10.25,21.4179,21.6938,137.887,100.09,83.5448,0.00475551,0.185193,20.7682,-352.112,1.59221,0.0,1.0
44,10.75,21.4116,21.6556,139.752,100.097,82.7894,0.00521719,0.20242,20.7435,-352.152,1.67293,0.0,1.0
46,11.25,21.2484,21.4106,138.456,100.082,83.6915,0.00567934,0.218722,20.7234,-352.192,1.57611,0.0,1.0
48,11.75,21.2671,21.6748,140.8,100.098,83.2033,0.00605369,0.234039,20.7046,-352.232,1.62901,0.0,1.0
50,12.25,21.9317,21.7817,135.144,100.094,83.6296,0.00649542,0.248478,20.687,-352.272,1.5837,0.0,1.0
52,12.75,21.828,22.1703,139.229,100.101,84.1173,0.0069779,0.262004,20.6728,-352.302,1.53305,0.0,1.0
54,13.25,22.8678,22.4151,133.124,100.08,82.7987,0.00744635,0.274663,20.6565,-352.342,1.67041,0.0,1.0
56,13.75,22.7072,22.4619,140.56,100.097,82.5154,0.0078957,0.286451,20.6432,-352.402,1.70211,0.0,0.0
58,14.25,23.5896,22.8149,135.726,100.085,81.9182,0.00825966,0.295999,20.629,-352.453,1.76505,0.0,0.0
60,14.75,23.5897,22.9739,133.218,100.097,81.3969,0.00869107,0.307319,20.6174,-352.493,1.82237,0.0,0.0
62,15.25,24.0903,23.3355,136.585,100.096,82.4449,0.0090405,0.316488,20.608,-352.543,1.70952,0.0,0.0
64,15.75,23.8067,23.5496,134.101,100.096,80.049,0.00932355,0.325418,20.6005,-352.593,1.96945,0.0,0.0
66,16.25,24.3311,24.0212,134.336,100.091,78.7825,0.0096101,0.334004,20.589,-352.663,2.10956,0.0,0.0
68,16.75,24.3075,24.3937,133.02,100.098,80.5592,0.00989376,0.340959,20.5798,-352.683,1.91364,0.0,0.0
70,17.25,24.8771,24.9965,135.151,100.092,81.6586,0.0101411,0.347965,20.5743,-352.743,1.79366,0.0,0.0
72,17.75,25.2855,24.6541,140.8,100.096,83.2534,0.0103572,0.35364,20.5699,-352.783,1.62353,0.0,0.0
74,18.25,25.3853,25.2509,134.197,100.083,81.072,0.0105485,0.35885,20.5659,-352.823,1.85641,0.0,0.0
76,18.75,25.6135,25.8203,133.709,100.101,81.6149,0.010718,0.363071,20.5626,-352.883,1.79915,0.0,0.0
78,19.25,26.1581,25.7582,136.267,100.086,79.0989,0.0108553,0.36649,20.5593,-352.933,2.07378,0.0,0.0
80,19.75,26.0737,26.2019,134.645,100.088,80.2458,0.0110031,0.369846,20.5559,-352.993,1.9471,0.0,0.0
82,20.25,26.3078,26.4949,136.905,100.082,80.0078,0.0111557,0.373093,20.5532,-352.983,1.97278,0.0,0.0
84,20.75,26.652,26.4408,137.328,100.088,76.9379,0.0112793,0.37611,20.5493,-353.063,2.31803,0.0,0.0
86,21.25,26.8821,26.7449,140.865,100.076,78.6921,0.0114476,0.378902,20.5461,-353.103,2.11833,0.0,0.0
88,21.75,27.1805,27.3734,136.536,100.085,79.1977,0.0116166,0.381164,20.5431,-353.163,2.06274,0.0,0.0
90,22.25,27.4981,27.3791,134.987,100.078,81.3545,0.0117827,0.383783,20.5406,-353.203,1.8253,0.0,0.0
92,22.75,28.2642,28.0006,137.492,100.083,81.9228,0.0119173,0.385904,20.5355,-353.283,1.76437,0.0,0.0
94,23.25,27.7981,28.0692,138.463,100.084,80.1079,0.0120896,0.388277,20.5314,-353.283,1.96194,0.0,0.0
96,23.75,28.2202,28.169,132.788,100.078,78.8177,0.0122292,0.390789,20.5271,-353.363,2.10446,0.0,0.0
98,24.25,28.4859,28.248,136.664,100.078,77.2551,0.0124057,0.393401,20.5228,-353.393,2.28095,0.0,0.0
100,24.75,28.8027,28.4067,136.166,100.072,78.2642,0.0125486,0.396036,20.518,-353.453,2.16603,0.0,0.0
102,25.25,29.3031,29.4219,133.065,100.063,79.6859,0.012719,0.398813,20.5128,-353.463,2.00664,0.0,0.0
104,25.75,29.6819,29.6969,131.581,100.065,81.1942,0.0129061,0.401641,20.5086,-353.564,1.84155,0.0,0.0
106,26.25,29.9263,30.3367,136.628,100.06,80.3191,0.0130576,0.403931,20.5026,-353.594,1.93661,0.0,0.0
108,26.75,29.894,30.1962,137.692,100.08,78.7591,0.0132763,0.408244,20.4954,-353.684,2.11118,0.0,0.0
110,27.25,29.9444,30.6478,136.728,100.056,78.8372,0.0135397,0.411737,20.4897,-353.734,2.10033,0.0,0.0
112,27.75,30.5454,30.8293,133.468,100.052,78.3375,0.0138245,0.419477,20.4766,-353.744,2.15604,0.0,0.0
114,28.25,30.6491,31.5758,133.629,100.057,78.4393,0.0141195,0.425747,20.466,-353.814,2.14498,0.0,0.0
116,28.75,31.0357,31.8315,132.661,100.057,79.0391,0.0144178,0.430825,20.4473,-353.894,2.0779,0.0,0.0
118,29.25,32.0605,31.6642,135.38,100.049,77.4032,0.0147128,0.442506,20.4321,-353.934,2.26146,0.0,0.0
120,29.75,31.8054,31.9945,131.449,100.052,77.5295,0.0149939,0.451966,20.4035,-353.994,2.2474,0.0,0.0
122,30.25,31.9866,32.5327,126.029,100.058,77.9066,0.0152596,0.463857,20.3803,-354.024,2.20518,0.0,0.0
124,30.75,32.4037,32.7457,127.797,100.051,77.6165,0.0154976,0.477293,20.3469,-354.124,2.23738,0.0,0.0
126,31.25,32.7405,33.1034,131.959,100.04,79.2265,0.0157109,0.492155,20.3199,-354.204,2.05553,0.0,0.0
128,31.75,33.6636,33.7341,128.008,100.036,80.0418,0.0158955,0.507774,20.2838,-354.294,1.96501,0.0,0.0
130,32.25,33.466,33.8556,127.033,100.044,80.4591,0.0160556,0.525268,20.2547,-354.354,1.91988,0.0,0.0
132,32.75,34.2665,34.545,121.317,100.045,82.4797,0.0161853,0.543796,20.2233,-354.414,1.70138,0.0,0.0
134,33.25,35.1809,35.0881,112.143,100.037,78.6281,0.0162959,0.563607,20.1911,-354.494,2.12207,0.0,0.0
136,33.75,35.2317,35.7344,112.499,100.026,79.4628,0.0163905,0.583977,20.1649,-354.574,2.02806,0.0,0.0
138,34.25,35.6593,36.2724,117.055,100.021,81.5267,0.0164567,0.605056,20.131,-354.634,1.80164,0.0,0.0
140,34.75,36.5312,36.6836,114.854,100.016,79.5688,0.0165009,0.626252,20.1034,-354.745,2.01542,0.0,0.0
142,35.25,37.3499,37.6755,119.968,100.008,81.9067,0.0165368,0.64342,20.0746,-354.785,1.75956,0.0,0.0
144,35.75,37.8033,38.3391,113.631,100.014,78.564,0.0165132,0.667356,20.0455,-354.905,2.12727,0.0,0.0
146,36.25,38.6257,38.8122,116.229,99.9955,79.7661,0.0164941,0.686744,20.0125,-354.975,1.9918,0.0,0.0
148,36.75,38.7688,39.6857,119.219,100.001,79.7029,0.0164441,0.708275,19.9775,-355.045,1.99928,0.0,0.0
150,37.25,39.8591,40.6189,116.651,99.9955,79.4399,0.0163725,0.730959,19.9409,-355.115,2.0279,0.0,0.0
152,37.75,40.5526,41.4027,115.683,99.993,80.8646,0.0162813,0.749333,19.904,-355.215,1.87105,0.0,0.0
154,38.25,41.2194,41.8696,112.384,99.991,82.1145,0.0161777,0.773457,19.8741,-355.315,1.7357,0.0,0.0
156,38.75,41.855,42.4335,111.499,99.9914,82.6375,0.0160937,0.792997,19.8499,-355.435,1.6798,0.0,0.0
158,39.25,42.7753,43.6685,118.359,99.9834,82.5764,0.0159782,0.818198,19.8175,-355.515,1.6856,0.0,0.0
160,39.75,43.6203,44.783,112.406,99.9762,83.3734,0.0158418,0.83861,19.7912,-355.615,1.60032,0.0,0.0
162,40.25,43.987,44.7204,111.988,99.9822,83.1198,0.0157313,0.863766,19.7643,-355.685,1.6277,0.0,0.0
164,40.75,45.2039,46.0818,110.532,99.9472,82.9034,0.015602,0.884142,19.7374,-355.786,1.64758,0.0,0.0
166,41.25,45.515,46.9427,105.482,99.9525,84.091,0.0154613,0.90867,19.709,-355.886,1.5227,0.0,0.0
168,41.75,46.6387,48.0756,105.462,99.9344,82.4895,0.0153473,0.928537,19.6802,-355.986,1.69056,0.0,0.0
170,42.25,47.3641,48.948,115.474,99.9436,83.2572,0.0151872,0.94463,19.6483,-356.086,1.60975,0.0,0.0
172,42.75,48.3253,50.0855,101.359,99.9303,83.949,0.0150575,0.957665,19.6146,-356.196,1.53566,0.0,0.0
174,43.25,49.5775,50.4011,106.752,99.9315,84.8846,0.0148822,0.985417,19.576,-356.296,1.43809,0.0,0.0
176,43.75,50.6536,51.9168,101.773,99.9239,86.5901,0.0147402,1.0079,19.5344,-356.386,1.26212,0.0,0.0
178,44.25,51.2034,52.5604,105.772,99.9223,86.7593,0.0145498,1.02611,19.4965,-356.506,1.24477,0.0,0.0
180,44.75,51.8435,53.7061,109.25,99.9175,86.9795,0.0143955,1.05289,19.4621,-356.596,1.22201,0.0,0.0
182,45.25,52.7804,55.1108,112.752,99.905,88.8308,0.0142371,1.07459,19.4342,-356.706,1.03531,0.0,0.0
184,45.75,54.1284,56.2627,104.399,99.9119,88.5026,0.0140787,1.09763,19.4103,-356.786,1.06854,0.0,0.0
186,46.25,55.7103,57.4823,97.6342,99.903,88.7142,0.0139504,1.11629,19.3909,-356.877,1.04671,0.0,0.0
188,46.75,56.0491,58.5566,103.341,99.909,87.7862,0.0137856,1.13412,19.3752,-356.987,1.13992,0.0,0.0
190,47.25,57.5237,59.5457,99.6951,99.897,87.7701,0.0136521,1.14855,19.3625,-357.077,1.14047,0.0,0.0
192,47.75,58.0191,60.4228,106.316,99.8881,87.5754,0.0135072,1.16019,19.3522,-357.177,1.15926,0.0,0.0
194,48.25,59.0571,62.1212,105.175,99.8994,87.9885,0.0133568,1.16956,19.3439,-357.277,1.11878,0.0,0.0
196,48.75,60.4043,63.2115,100.442,99.8825,88.2078,0.0132125,1.17716,19.3371,-357.367,1.09536,0.0,0.0
198,49.25,60.8822,64.2086,105.387,99.8857,88.1628,0.0130754,1.18037,19.3396,-357.487,1.10013,0.0,0.0
200,49.75,61.8423,65.187,102.563,99.8845,88.3834,0.0129644,1.18297,19.3416,-357.557,1.07801,0.0,0.0
202,50.25,62.7656,66.2736,102.364,99.8934,89.5621,0.0128164,1.18147,19.3491,-357.657,0.962043,0.0,0.0
204,50.75,63.7548,67.1813,104.125,99.8773,89.0056,0.0126966,1.17702,19.3603,-357.737,1.01555,0.0,0.0
206,51.25,64.6707,68.0362,106.221,99.8777,89.3407,0.0125338,1.16807,19.3806,-357.807,0.982471,0.0,0.0
208,51.75,65.3394,69.0125,111.684,99.8652,87.4426,0.012402,1.15599,19.4071,-357.887,1.1706,0.0,0.0
210,52.25,66.4978,69.912,102.746,99.8664,88.2354,0.0122374,1.14622,19.4391,-358.008,1.09118,0.0,0.0
212,52.75,66.6601,70.6155,114.632,99.8556,86.6592,0.0120857,1.1267,19.4744,-358.068,1.24906,0.0,0.0
214,53.25,67.8691,71.2562,110.692,99.8592,88.1319,0.0119465,1.11089,19.5256,-358.088,1.10089,0.0,0.0
216,53.75,67.6103,72.0167,110.779,99.8548,87.8447,0.0118337,1.08483,19.567,-358.158,1.12925,0.0,0.0
218,54.25,68.6122,72.6017,115.651,99.8552,86.9307,0.011739,1.06373,19.6005,-358.238,1.22146,0.0,0.0
220,54.75,68.7419,73.6141,113.759,99.8463,88.3333,0.0116592,1.03267,19.6494,-358.298,1.07963,0.0,0.0
222,55.25,69.5164,74.0511,115.625,99.8536,87.1538,0.0116142,1.00751,19.689,-358.358,1.19873,0.0,0.0
224,55.75,69.5859,74.4152,116.865,99.8532,84.6106,0.0116043,0.973474,19.7161,-358.408,1.45967,0.0,0.0
226,56.25,69.7526,74.8575,121.068,99.8431,85.1722,0.0115874,0.945903,19.7625,-358.468,1.40048,0.0,0.0
228,56.75,69.9573,75.1135,117.801,99.8351,81.3714,0.0116007,0.909059,19.8,-358.518,1.80206,0.0,0.0
230,57.25,70.6731,75.4684,121.922,99.8391,83.4031,0.0116359,0.879216,19.8477,-358.578,1.5851,0.0,0.0
232,57.75,70.0541,75.31,123.066,99.8311,83.4039,0.0116684,0.847498,19.8863,-358.618,1.5843,0.0,0.0
234,58.25,70.3442,76.1558,129.673,99.8282,80.3259,0.0116984,0.815016,19.9285,-358.628,1.91541,0.0,0.0
236,58.75,70.879,75.7256,125.53,99.8202,79.7504,0.0117228,0.801169,19.9726,-358.678,1.97807,0.0,0.0
238,59.25,70.5137,75.9571,133.51,99.8198,78.715,0.0116666,0.770439,20.0192,-358.718,2.09319,0.0,0.0
240,59.75,70.424,75.8293,126.507,99.8077,79.207,0.0116211,0.739202,20.0668,-358.758,2.03722,0.0,0.0
242,60.25,70.5273,75.525,133.364,99.8102,78.3482,0.0114484,0.713901,20.1151,-358.788,2.13351,0.0,0.0
244,60.75,70.3782,75.502,130.408,99.8009,80.029,0.0113085,0.68016,20.1631,-358.808,1.94563,0.0,0.0
246,61.25,70.2334,75.9688,131.608,99.7953,77.1135,0.0110729,0.65283,20.2019,-358.858,2.27217,0.0,0.0
248,61.75,69.9723,75.5478,131.386,99.7897,77.787,0.0107721,0.61914,20.2334,-358.918,2.19504,0.0,0.0
250,62.25,69.8177,75.7452,136.16,99.7889,81.9101,0.0105284,0.591851,20.2684,-358.928,1.73983,0.0,0.0
252,62.75,69.5241,75.0132,137.771,99.7816,84.5101,0.010331,0.559603,20.3054,-358.938,1.46383,0.0,0.0
254,63.25,69.5022,75.1512,137.441,99.7756,85.1319,0.00991373,0.533482,20.3414,-358.968,1.39869,0.0,0.0
256,63.75,69.1927,74.8741,137.363,99.7708,85.5794,0.00957571,0.506817,20.3761,-358.988,1.35207,0.0,0.0
258,64.25,68.9384,74.6625,138.549,99.7732,86.2402,0.00918957,0.480262,20.4104,-359.009,1.2845,0.0,0.0
260,64.75,68.1339,73.958,137.161,99.7539,87.2526,0.0088768,0.458752,20.4439,-359.019,1.17994,0.0,0.0
262,65.25,68.1994,73.9238,141.416,99.7519,85.8818,0.00856427,0.441329,20.4801,-359.019,1.31931,0.0,0.0
264,65.75,67.9432,73.4521,141.51,99.7543,88.8084,0.00831111,0.413739,20.5176,-359.039,1.02424,0.0,0.0
266,66.25,67.3353,73.223,145.381,99.7499,89.9782,0.00808289,0.39139,20.548,-359.029,0.90853,0.0,0.0
268,66.75,67.1916,72.8918,144.597,99.7362,91.4207,0.00787718,0.365887,20.5893,-359.039,0.767169,0.0,0.0
270,67.25,66.8746,72.1804,143.287,99.7302,92.3593,0.00770195,0.345229,20.6228,-359.059,0.67662,0.0,0.0
272,67.75,66.504,72.1812,145.069,99.7286,93.6258,0.00755228,0.324902,20.6588,-359.049,0.55646,0.0,0.0
274,68.25,66.4376,72.1002,145.688,99.7181,94.0962,0.00743104,0.305202,20.688,-359.039,0.511374,0.0,0.0
276,68.75,66.1716,71.4224,144.021,99.7125,94.3031,0.00733152,0.283576,20.7116,-359.049,0.491514,0.0,0.0
278,69.25,65.1465,71.0697,141.679,99.7125,94.4745,0.00724972,0.266059,20.7387,-359.059,0.475516,0.0,0.0
280,69.75,64.9219,70.8953,146.389,99.7077,94.5301,0.00717883,0.248673,20.7606,-359.049,0.469909,0.0,0.0
282,70.25,64.9375,70.4196,144.986,99.7113,94.4278,0.00711724,0.231714,20.7854,-359.039,0.479763,0.0,0.0
284,70.75,64.1395,69.7619,147.103,99.698,94.6348,0.0070515,0.217977,20.8056,-359.039,0.459297,0.0,0.0
286,71.25,63.7809,69.4111,147.497,99.694,95.0106,0.00698397,0.204255,20.8272,-359.049,0.424017,0.0,0.0
288,71.75,63.1493,69.1339,148.004,99.6811,94.6395,0.00692927,0.190804,20.8447,-359.049,0.457369,0.0,0.0
290,72.25,62.8531,68.7926,150.86,99.684,94.8528,0.00682101,0.179909,20.8609,-359.029,0.437776,0.0,0.0
292,72.75,62.3843,68.1323,151.064,99.6787,95.2698,0.00673332,0.167876,20.876,-359.049,0.398663,0.0,0.0
294,73.25,61.9398,67.9116,150.156,99.6683,94.9406,0.0066439,0.15813,20.8824,-359.049,0.428237,0.0,0.0
296,73.75,61.407,67.3254,151.441,99.6723,95.1994,0.00649099,0.14841,20.896,-359.039,0.404609,0.0,0.0
298,74.25,61.1468,66.96,144.427,99.6598,95.0687,0.00632115,0.140537,20.9071,-359.049,0.415609,0.0,0.0
300,74.75,60.6656,66.5045,149.491,99.6558,94.9678,0.00614218,0.132804,20.9167,-359.029,0.424615,0.0,0.0
302,75.25,60.3904,65.804,148.484,99.6602,95.2112,0.00599721,0.12654,20.9251,-359.029,0.402444,0.0,0.0
304,75.75,60.0469,65.602,150.425,99.6522,94.9941,0.00580119,0.120887,20.932,-359.029,0.421856,0.0,0.0
306,76.25,59.4142,64.9369,147.675,99.6413,95.0734,0.00557167,0.118202,20.9384,-359.019,0.41354,0.0,0.0
308,76.75,59.2352,64.7551,152.274,99.6422,95.154,0.00538576,0.113194,20.9436,-359.029,0.406146,0.0,0.0
310,77.25,58.8627,64.2262,150.668,99.6373,94.8961,0.00510993,0.108763,20.9485,-359.029,0.429633,0.0,0.0
312,77.75,58.495,63.993,147.896,99.643,95.0344,0.00488652,0.105173,20.9531,-359.039,0.417301,0.0,0.0
314,78.25,57.8422,63.5677,148.635,99.6305,94.9296,0.00465674,0.101516,20.9568,-359.039,0.425919,0.0,0.0
316,78.75,57.5311,63.0576,148.806,99.6305,95.19,0.0044267,0.0985535,20.9607,-359.039,0.401777,0.0,0.0
318,79.25,57.0579,62.4886,145.947,99.6112,95.0929,0.00421244,0.0957966,20.9639,-359.039,0.409067,0.0,0.0
320,79.75,56.584,62.411,150.025,99.612,94.9389,0.00401375,0.093242,20.9678,-359.039,0.423416,0.0,0.0
322,80.25,56.0285,62.0347,151.418,99.6064,94.9966,0.00383984,0.0911727,20.9709,-359.039,0.417567,0.0,0.0
324,80.75,56.1496,61.4058,149.587,99.6144,95.0577,0.00368729,0.0889431,20.9744,-359.049,0.412613,0.0,0.0
326,81.25,55.0204,60.5416,147.327,99.6032,95.0526,0.00355919,0.0871371,20.9771,-359.039,0.41209,0.0,0.0
328,81.75,54.2118,60.4614,150.544,99.612,94.9245,0.00345134,0.085427,20.9794,-359.049,0.424755,0.0,0.0
330,82.25,53.9522,59.6142,151.971,99.6072,95.0937,0.00336398,0.0838192,20.9812,-359.039,0.408633,0.0,0.0
332,82.75,54.2853,59.5286,148.569,99.5991,94.7553,0.00328829,0.0823424,20.9832,-359.039,0.439342,0.0,0.0
334,83.25,53.7719,59.5684,153.63,99.5911,94.8545,0.00322699,0.0809892,20.9852,-359.039,0.429405,0.0,0.0
336,83.75,53.2027,58.8375,150.682,99.5991,94.8846,0.00317214,0.0797262,20.9868,-359.039,0.427319,0.0,0.0
338,84.25,53.0589,58.6291,147.529,99.5815,95.1586,0.00312305,0.0785527,20.9885,-359.039,0.400344,0.0,0.0
340,84.75,52.8504,58.3361,149.799,99.5963,94.975,0.00306903,0.0776022,20.9899,-359.039,0.418685,0.0,0.0
342,85.25,51.6635,57.2453,149.4,99.5827,95.1124,0.00301245,0.0764187,20.9911,-359.039,0.404734,0.0,0.0
344,85.75,51.3543,57.3681,153.604,99.5875,94.9194,0.00296661,0.0754601,20.9925,-359.039,0.42306,0.0,0.0
346,86.25,51.8436,57.086,154.146,99.5706,94.9334,0.00291007,0.0744733,20.9936,-359.039,0.420266,0.0,0.0
348,86.75,51.7807,56.3652,152.585,99.5831,94.905,0.00284679,0.0734848,20.994,-359.039,0.424007,0.0,0.0
350,87.25,51.0757,56.2096,147.662,99.5738,94.7934,0.00281981,0.0725175,20.9941,-359.039,0.433551,0.0,0.0
352,87.75,50.5613,55.7798,147.36,99.5875,94.8753,0.00275893,0.0715841,20.9949,-359.039,0.427155,0.0,0.0
354,88.25,50.1836,55.4689,148.447,99.5698,94.9241,0.00270961,0.0708279,20.9959,-359.049,0.42106,0.0,0.0
356,88.75,49.9671,55.1544,149.963,99.5718,95.0064,0.00266589,0.070049,20.9969,-359.049,0.413603,0.0,0.0
358,89.25,49.6543,54.473,148.609,99.5674,94.9258,0.00263048,0.0692682,20.9977,-359.039,0.420689,0.0,0.0
360,89.75,49.433,54.4352,148.379,99.5847,94.835,0.0026018,0.0685344,20.9983,-359.039,0.43065,0.0,0.0
362,90.25,48.915,54.2299,150.079,99.5666,94.9517,0.0025675,0.0681736,20.9991,-359.049,0.418216,0.0,0.0
364,90.75,48.8162,54.2637,144.415,99.5847,94.8706,0.00253973,0.0675566,21,-359.039,0.42734,0.0,0.0
366,91.25,48.3085,53.8808,148.234,99.5642,95.0267,0.002516,0.0667966,21.0006,-359.049,0.411038,0.0,0.0
368,91.75,47.8005,53.3266,149.367,99.5762,94.8193,0.00249678,0.066181,21.0016,-359.029,0.43136,0.0,0.0
370,92.25,48.2292,53.1053,149.516,99.5678,94.7655,0.00247753,0.0656823,21.0027,-359.039,0.435621,0.0,0.0
372,92.75,47.2877,52.4672,148.103,99.573,94.8181,0.00246193,0.06499,21.0037,-359.039,0.431194,0.0,0.0
374,93.25,47.0594,51.7087,148.238,99.5718,94.7273,0.00243579,0.0644292,21.0046,-359.049,0.439527,0.0,0.0
376,93.75,46.7885,52.2078,152.924,99.5746,94.9182,0.00241462,0.0638594,21.0052,-359.039,0.422038,0.0,0.0
378,94.25,46.9437,51.9865,152.021,99.5606,94.8507,0.00237537,0.0632938,21.006,-359.039,0.427057,0.0,0.0
380,94.75,46.5071,52.124,149.704,99.561,94.8902,0.00234359,0.0627707,21.0069,-359.039,0.423428,0.0,0.0
382,95.25,46.1932,51.1432,147.505,99.5473,95.0072,0.00230751,0.0622885,21.0076,-359.049,0.411354,0.0,0.0
384,95.75,46.214,50.8173,150.016,99.561,94.9852,0.00226898,0.0618618,21.0081,-359.049,0.41461,0.0,0.0
386,96.25,45.4916,50.463,147.964,99.5533,94.8821,0.00223778,0.0614836,21.0086,-359.049,0.4235,0.0,0.0
388,96.75,45.5856,50.6771,148.535,99.563,94.8774,0.00219411,0.0611268,21.0089,-359.049,0.424788,0.0,0.0
390,97.25,45.1864,50.198,150.739,99.5597,94.7705,0.00215874,0.0607923,21.0092,-359.049,0.434437,0.0,0.0
392,97.75,44.9162,49.8877,150.143,99.565,94.8672,0.00212691,0.0604709,21.0095,-359.049,0.425912,0.0,0.0
394,98.25,44.5377,49.2153,146.818,99.5638,94.8791,0.00209827,0.060165,21.0097,-359.049,0.424701,0.0,0.0
396,98.75,44.2092,49.4368,146.611,99.5678,94.768,0.00206067,0.0599173,21.0099,-359.049,0.435384,0.0,0.0
398,99.25,44.3634,49.265,149.857,99.5766,94.8787,0.00203603,0.0596069,21.0103,-359.059,0.425879,0.0,0.0
400,99.75,43.5713,48.6267,148.016,99.6052,94.8982,0.00202553,0.0593555,21.0104,-359.049,0.426592,0.0,0.0
402,100.25,43.9058,48.978,151.415,99.6007,94.8537,0.00199655,0.0591014,21.0107,-359.059,0.430338,0.0,0.0
404,100.75,43.1185,48.387,150.877,99.6261,94.992,0.00197307,0.0588501,21.011,-359.059,0.419741,0.0,0.0
406,101.25,43.5712,47.9291,154.144,99.6249,94.8079,0.00194058,0.0586465,21.0112,-359.049,0.436728,0.0,0.0
408,101.75,42.8267,47.7792,147.054,99.643,94.8113,0.00191427,0.0583517,21.0113,-359.049,0.438013,0.0,0.0
410,102.25,42.5928,47.1721,148.043,99.6438,94.9105,0.00189173,0.0582009,21.0114,-359.059,0.428863,0.0,0.0
412,102.75,41.7669,46.7421,145.904,99.6811,95.1493,0.00187347,0.0581439,21.0115,-359.059,0.410026,0.0,0.0
414,103.25,42.2927,47.378,150.36,99.6679,95.056,0.00185868,0.0580464,21.0116,-359.049,0.417498,0.0,0.0
416,103.75,41.8473,46.6694,150.318,99.6759,95.0827,0.00185527,0.0579241,21.0117,-359.059,0.415732,0.0,0.0
418,104.25,41.6817,46.2807,149.589,99.6751,94.9674,0.00185251,0.0577861,21.0117,-359.059,0.42636,0.0,0.0
420,104.75,41.3069,46.1296,150.544,99.6968,94.9886,0.00186498,0.057631,21.012,-359.059,0.426312,0.0,0.0
422,105.25,41.3284,46.1983,148.307,99.7048,94.9173,0.00187508,0.0574665,21.0124,-359.059,0.433636,0.0,0.0
424,105.75,41.1173,45.9755,151.234,99.7141,95.2744,0.00189796,0.057326,21.0128,-359.069,0.401358,0.0,0.0
426,106.25,40.7669,45.9737,148.853,99.7173,95.1989,0.0019165,0.0572057,21.0131,-359.059,0.408629,0.0,0.0
428,106.75,40.7877,45.2316,151.276,99.7322,94.8304,0.0019499,0.0571083,21.0133,-359.059,0.444127,0.0,0.0
430,107.25,40.5417,45.6855,149.829,99.7406,94.9754,0.00197696,0.0569746,21.0135,-359.059,0.431403,0.0,0.0
432,107.75,40.3539,45.4881,146.3,99.7374,95.0895,0.00201973,0.0568663,21.0136,-359.069,0.42054,0.0,0.0
434,108.25,40.4618,45.0725,149.793,99.745,95.0819,0.00205438,0.0567511,21.0138,-359.059,0.421921,0.0,0.0
436,108.75,39.9737,44.4643,149.807,99.776,95.2685,0.0020944,0.0566579,21.0139,-359.059,0.407376,0.0,0.0
438,109.25,39.3807,44.5499,149.995,99.7732,95.2486,0.00213424,0.0565679,21.014,-359.069,0.408972,0.0,0.0
440,109.75,39.562,44.3921,150.462,99.7985,95.0666,0.00216041,0.0564821,21.0138,-359.059,0.428058,0.0,0.0
442,110.25,39.7824,44.652,152.738,99.7949,95.0942,0.00220516,0.056427,21.0138,-359.059,0.425184,0.0,0.0
444,110.75,39.4175,43.6472,149.707,99.8017,95.0208,0.0022414,0.0563953,21.0137,-359.059,0.432589,0.0,0.0
446,111.25,39.5716,44.1645,149.083,99.8013,95.1205,0.00229164,0.0563697,21.0136,-359.059,0.423315,0.0,0.0
448,111.75,38.9676,43.3203,151.495,99.8387,95.1264,0.00233234,0.0563328,21.0135,-359.059,0.426065,0.0,0.0
450,112.25,38.4171,43.6082,149.223,99.8447,95.1714,0.00237585,0.0563054,21.0135,-359.059,0.422433,0.0,0.0
452,112.75,38.9558,43.1247,146.156,99.8435,95.232,0.00238756,0.0562831,21.0135,-359.059,0.416712,0.0,0.0
454,113.25,38.2197,43.0848,149.245,99.856,95.1116,0.00240389,0.0562808,21.0134,-359.059,0.428966,0.0,0.0
456,113.75,38.7444,42.4354,151.036,99.8672,95.1849,0.00241712,0.056277,21.0134,-359.059,0.423163,0.0,0.0
458,114.25,38.5161,42.5047,151.423,99.8737,95.1972,0.00243029,0.0562738,21.0134,-359.059,0.422592,0.0,0.0
460,114.75,38.3456,42.2311,149.45,99.8829,95.1883,0.00244096,0.0562712,21.0133,-359.059,0.424232,0.0,0.0
462,115.25,37.1387,42.1019,149.656,99.8833,95.1035,0.00245451,0.0562683,21.0133,-359.059,0.432124,0.0,0.0
464,115.75,37.6691,42.3898,151.234,99.8938,95.1222,0.00246549,0.0562891,21.0133,-359.059,0.431317,0.0,0.0
466,116.25,37.4564,42.1303,149.624,99.8966,95.3325,0.00247316,0.0563248,21.0133,-359.059,0.412098,0.0,0.0
468,116.75,37.3866,41.866,150.675,99.9054,95.3228,0.00247937,0.0563825,21.0133,-359.059,0.413779,0.0,0.0
470,117.25,37.1678,41.5707,148.197,99.911,95.1548,0.0024844,0.0564551,21.0133,-359.069,0.429816,0.0,0.0
472,117.75,36.9359,41.4418,149.942,99.9139,95.1862,0.00246759,0.0565717,21.0133,-359.069,0.427159,0.0,0.0
474,118.25,36.4409,41.2855,146.479,99.9247,95.1429,0.00245397,0.0567181,21.0133,-359.059,0.432122,0.0,0.0
476,118.75,36.0659,40.8238,151.743,99.932,95.2019,0.00243131,0.0569015,21.0133,-359.069,0.427301,0.0,0.0
478,119.25,36.8287,40.6596,148.433,99.9484,95.2859,0.00240248,0.0571086,21.0133,-359.069,0.420984,0.0,0.0
480,119.75,36.2089,40.3767,147.897,99.944,95.2409,0.00237913,0.0572763,21.0133,-359.069,0.424753,0.0,0.0
482,120.25,36.7277,40.6902,146.369,99.9661,95.2579,0.00233813,0.0575081,21.013,-359.069,0.425132,0.0,0.0
484,120.75,35.8704,40.1931,148.825,99.9693,95.3499,0.00230491,0.0576958,21.0126,-359.059,0.416905,0.0,0.0
486,121.25,36.3828,39.8207,148.895,99.989,95.3491,0.00225471,0.0578551,21.0123,-359.069,0.41872,0.0,0.0
488,121.75,36.0377,40.0503,149.926,99.9955,95.3771,0.00220114,0.0579907,21.0121,-359.069,0.416699,0.0,0.0
490,122.25,35.2646,39.7283,147.681,99.9995,95.3173,0.00214614,0.0581004,21.0119,-359.069,0.422582,0.0,0.0
492,122.75,35.2673,39.1006,149.572,100.001,95.1345,0.00210159,0.0581894,21.0117,-359.069,0.439676,0.0,0.0
494,123.25,34.6202,39.5509,151.638,100.016,95.3762,0.00203856,0.0582614,21.0115,-359.069,0.41855,0.0,0.0
496,123.75,35.1718,39.1706,150.494,100.008,95.3143,0.00198751,0.0582375,21.0114,-359.059,0.423635,0.0,0.0
498,124.25,35.2512,38.7517,148.839,100.029,95.2676,0.00192748,0.0582181,21.0113,-359.059,0.42979,0.0,0.0
500,124.75,35.4312,38.8796,146.77,100.03,95.1357,0.00186204,0.058175,21.0117,-359.049,0.442037,0.0,0.0
502,125.25,34.9529,39.4763,146.349,100.056,95.3516,0.00180324,0.0581401,21.012,-359.049,0.424363,0.0,0.0
504,125.75,34.8531,38.7523,149.283,100.059,95.2766,0.00175041,0.0581392,21.0122,-359.049,0.431587,0.0,0.0
506,126.25,34.6867,38.5924,147.106,100.066,95.3376,0.00170696,0.0581385,21.0124,-359.049,0.426577,0.0,0.0
508,126.75,34.8334,38.0009,148.12,100.058,95.3376,0.0016712,0.0580874,21.0126,-359.059,0.42587,0.0,0.0
510,127.25,34.4807,38.0957,149.273,100.079,95.3003,0.00164158,0.0580006,21.0127,-359.059,0.431126,0.0,0.0
512,127.75,34.535,38.0421,148.773,100.08,95.4144,0.00161701,0.0579303,21.0128,-359.059,0.420687,0.0,0.0
514,128.25,34.4348,37.4735,149.456,100.09,95.4513,0.00159647,0.0577911,21.0129,-359.059,0.4182,0.0,0.0
516,128.75,33.8853,37.6661,149.6,100.091,95.3686,0.00157925,0.0576784,21.013,-359.059,0.425875,0.0,0.0
518,129.25,33.9221,37.6738,150.011,100.117,95.4789,0.0015653,0.0575871,21.013,-359.069,0.417991,0.0,0.0
520,129.75,33.3982,37.1537,146.372,100.101,95.4059,0.00156623,0.057477,21.0131,-359.059,0.423311,0.0,0.0
522,130.25,33.7267,37.3518,151.552,100.121,95.2829,0.00156699,0.0573554,21.0131,-359.069,0.436484,0.0,0.0
524,130.75,33.8842,37.4027,149.501,100.12,95.3728,0.0015676,0.0572353,21.0131,-359.069,0.42803,0.0,0.0
526,131.25,33.579,37.2463,149.075,100.136,95.3304,0.00158097,0.0571186,21.0132,-359.079,0.433366,0.0,0.0
528,131.75,33.2225,37.1658,150.661,100.126,95.4776,0.00160339,0.057024,21.0132,-359.079,0.418957,0.0,0.0
530,132.25,33.1026,36.9815,146.917,100.144,95.5578,0.00162156,0.0568652,21.0132,-359.069,0.413082,0.0,0.0
532,132.75,33.2972,36.6536,149.121,100.143,95.313,0.00163885,0.0567366,21.0132,-359.079,0.435645,0.0,0.0
534,133.25,33.5324,36.6334,150.297,100.164,95.4967,0.00165517,0.0566324,21.0132,-359.079,0.420485,0.0,0.0
536,133.75,32.8681,36.2131,146.664,100.153,95.3974,0.00166839,0.0565069,21.0134,-359.079,0.428658,0.0,0.0
538,134.25,32.8958,36.6151,153.03,100.163,95.3173,0.00166686,0.0564053,21.0136,-359.079,0.436986,0.0,0.0
540,134.75,33.2222,36.6909,151.323,100.169,95.3665,0.00165468,0.0563085,21.0137,-359.079,0.432969,0.0,0.0
542,135.25,32.8601,36.6044,147.954,100.181,95.408,0.00163496,0.0562172,21.0138,-359.069,0.43019,0.0,0.0
544,135.75,32.9071,35.5616,148.447,100.186,95.3542,0.0016119,0.0561432,21.0141,-359.079,0.435555,0.0,0.0
546,136.25,32.4037,36.0614,147.827,100.198,95.4034,0.00158686,0.0560617,21.0146,-359.069,0.432105,0.0,0.0
548,136.75,32.5766,36.0728,150.815,100.191,95.4042,0.00156143,0.0559761,21.015,-359.069,0.431425,0.0,0.0
550,137.25,32.3913,35.3369,148.623,100.205,95.4526,0.0015362,0.0558997,21.0153,-359.079,0.428199,0.0,0.0
552,137.75,32.218,35.5874,150.344,100.208,95.5518,0.00151576,0.0558312,21.0155,-359.079,0.419252,0.0,0.0
554,138.25,32.3011,35.4034,151.997,100.216,95.4793,0.00150043,0.0557614,21.0157,-359.069,0.426686,0.0,0.0
556,138.75,31.711,35.0304,150.52,100.221,95.6286,0.00148801,0.0556918,21.0159,-359.079,0.413342,0.0,0.0
558,139.25,31.0796,34.8717,151.723,100.232,95.5459,0.00148825,0.0556283,21.016,-359.079,0.42192,0.0,0.0
560,139.75,31.5686,35.2843,152.881,100.229,95.6146,0.0014977,0.0555703,21.0162,-359.079,0.415302,0.0,0.0
562,140.25,31.6778,34.6601,147.581,100.235,95.5107,0.00151566,0.0555234,21.0162,-359.069,0.42545,0.0,0.0
564,140.75,32.0211,34.9416,153.411,100.227,95.6214,0.00153948,0.0555128,21.0163,-359.079,0.414572,0.0,0.0
566,141.25,31.3349,34.5167,147.739,100.241,95.5446,0.00155878,0.0555041,21.0164,-359.089,0.42285,0.0,0.0
568,141.75,31.3825,34.1978,152.483,100.25,95.5374,0.00158419,0.0554755,21.0162,-359.079,0.424293,0.0,0.0
570,142.25,30.8411,34.2679,152.102,100.267,95.4369,0.00160478,0.0554329,21.0158,-359.079,0.435088,0.0,0.0
572,142.75,31.4207,33.9709,149.56,100.252,95.5086,0.001608,0.05542,21.0155,-359.069,0.42713,0.0,0.0
574,143.25,31.1695,34.3281,149.535,100.263,95.5692,0.0016106,0.055429,21.0153,-359.069,0.42249,0.0,0.0
576,143.75,31.4167,34.2784,150.396,100.264,95.6078,0.00159681,0.0554363,21.0151,-359.079,0.419003,0.0,0.0
578,144.25,30.8968,33.7289,149.99,100.276,95.5734,0.00158564,0.0554833,21.0149,-359.079,0.42323,0.0,0.0
580,144.75,31.2739,34.0691,152.668,100.272,95.6943,0.00157659,0.0555214,21.0148,-359.079,0.411738,0.0,0.0
582,145.25,30.2067,33.8041,150.957,100.286,95.6549,0.00154726,0.055581,21.0147,-359.079,0.416607,0.0,0.0
584,145.75,30.6783,33.6958,146.762,100.297,95.5013,0.0015235,0.0556553,21.0146,-359.089,0.431717,0.0,0.0
586,146.25,30.8953,33.6031,151.396,100.299,95.6774,0.00148592,0.0557155,21.0146,-359.089,0.415736,0.0,0.0
588,146.75,30.3307,33.3335,151.741,100.308,95.6625,0.00145549,0.0557642,21.0145,-359.089,0.417846,0.0,0.0
590,147.25,30.2641,33.3225,143.434,100.305,95.5849,0.00140886,0.0558037,21.0145,-359.079,0.424752,0.0,0.0
592,147.75,30.5058,33.7283,148.479,100.326,95.5773,0.00137109,0.0558356,21.0144,-359.089,0.427327,0.0,0.0
594,148.25,30.575,32.7904,151.012,100.319,95.7753,0.00132706,0.0558615,21.0144,-359.089,0.408448,0.0,0.0
596,148.75,30.2726,32.9157,150.577,100.324,95.6163,0.00129141,0.0558414,21.0144,-359.089,0.423518,0.0,0.0
598,149.25,30.3862,33.1925,153.607,100.323,95.8351,0.0012552,0.0558251,21.0144,-359.089,0.403266,0.0,0.0
600,149.75,30.0879,33.2565,147.855,100.337,95.484,0.00122588,0.0557903,21.0143,-359.089,0.436852,0.0,0.0
602,150.25,29.7578,33.1983,148.067,100.333,95.4844,0.00120084,0.0557427,21.0143,-359.089,0.43653,0.0,0.0
604,150.75,29.8722,32.6112,152.166,100.333,95.5607,0.0011794,0.0557329,21.0143,-359.089,0.429452,0.0,0.0
606,151.25,29.7312,32.794,153.889,100.357,95.5302,0.00116204,0.0557509,21.0143,-359.099,0.434352,0.0,0.0
608,151.75,29.7973,32.8004,148.487,100.348,95.6668,0.00114798,0.0557799,21.0143,-359.089,0.42095,0.0,0.0
610,152.25,29.8598,32.4129,149.767,100.344,95.6668,0.00114635,0.0558164,21.0143,-359.089,0.420597,0.0,0.0
612,152.75,29.7616,32.8848,150.116,100.353,95.4284,0.00114502,0.0558604,21.0143,-359.089,0.44343,0.0,0.0
614,153.25,29.7839,32.6236,148.244,100.352,95.5684,0.00115006,0.055909,21.0143,-359.089,0.430372,0.0,0.0
616,153.75,29.6332,32.3574,149.438,100.375,95.7189,0.00115413,0.0559484,21.0143,-359.099,0.418581,0.0,0.0
618,154.25,29.68,32.17,150.522,100.362,95.668,0.00115988,0.0559254,21.0143,-359.089,0.422103,0.0,0.0
620,154.75,29.4387,32.1378,146.927,100.377,95.6863,0.00116453,0.0559069,21.0143,-359.079,0.42173,0.0,0.0
622,155.25,29.2404,32.4371,149.212,100.374,95.6676,0.00116708,0.0558919,21.0143,-359.079,0.423237,0.0,0.0
624,155.75,29.5536,32.2151,148.038,100.386,95.6536,0.00116914,0.055866,21.0143,-359.079,0.42555,0.0,0.0
626,156.25,28.8782,31.7682,152.805,100.377,95.5204,0.00117081,0.055845,21.0143,-359.089,0.437051,0.0,0.0
628,156.75,29.1657,31.5578,150.895,100.389,95.5573,0.00116381,0.0558281,21.0143,-359.089,0.434636,0.0,0.0
630,157.25,29.0185,31.7011,149.301,100.385,95.7236,0.00115063,0.0558143,21.0143,-359.089,0.418999,0.0,0.0
632,157.75,29.4621,31.6154,150.869,100.395,95.7495,0.00113482,0.0557758,21.0144,-359.099,0.417499,0.0,0.0
634,158.25,28.7317,31.7764,151.347,100.393,95.601,0.00111739,0.0557446,21.0144,-359.099,0.431031,0.0,0.0
636,158.75,29.1885,31.584,151.135,100.407,95.6316,0.00110327,0.0557193,21.0145,-359.099,0.429451,0.0,0.0
638,159.25,28.47,31.4358,151.041,100.392,95.6795,0.00109376,0.0556844,21.0145,-359.099,0.423695,0.0,0.0
640,159.75,28.9851,31.6748,149.812,100.431,95.5734,0.00108779,0.0556432,21.0145,-359.089,0.436889,0.0,0.0
642,160.25,28.7512,30.9629,148.524,100.404,95.6863,0.00109515,0.0556026,21.0145,-359.099,0.424094,0.0,0.0
644,160.75,28.6878,31.141,150.798,100.415,95.5175,0.0011121,0.0555632,21.0145,-359.089,0.440606,0.0,0.0
646,161.25,28.5055,31.1198,147.971,100.405,95.8284,0.00112969,0.0555313,21.0145,-359.089,0.411159,0.0,0.0
648,161.75,28.4434,30.9202,150.369,100.418,95.6379,0.0011474,0.0554644,21.0145,-359.089,0.429818,0.0,0.0
650,162.25,28.4812,31.2041,150.193,100.413,95.7075,0.00116175,0.0554102,21.0146,-359.089,0.422952,0.0,0.0
652,162.75,28.2315,30.48,147.6,100.436,95.5599,0.00116238,0.0553519,21.0146,-359.099,0.438563,0.0,0.0
654,163.25,28.7698,30.7966,152.669,100.419,95.6659,0.00116289,0.0552917,21.0146,-359.089,0.427274,0.0,0.0
656,163.75,28.5456,30.0963,154.702,100.437,95.9039,0.00115477,0.0552429,21.0146,-359.089,0.407006,0.0,0.0
658,164.25,28.1835,30.9626,149.864,100.42,95.7049,0.00114819,0.0551213,21.0146,-359.099,0.423751,0.0,0.0
660,164.75,27.9711,30.4125,151.108,100.427,95.6125,0.00114041,0.0550227,21.0146,-359.099,0.432939,0.0,0.0
662,165.25,28.3331,30.9164,153.572,100.426,95.6396,0.00113412,0.0549292,21.0146,-359.099,0.430296,0.0,0.0
664,165.75,28.3197,30.6219,149.118,100.428,95.6867,0.00112902,0.0548535,21.0146,-359.109,0.426135,0.0,0.0
666,166.25,28.3668,30.2758,147.771,100.43,95.6337,0.00112813,0.0548282,21.0146,-359.099,0.431231,0.0,0.0
668,166.75,28.5783,30.3365,147.533,100.439,95.5039,0.00112661,0.0548401,21.0146,-359.099,0.44401,0.0,0.0
670,167.25,27.9752,30.2845,151.578,100.426,95.7211,0.00112666,0.0548497,21.0146,-359.099,0.422866,0.0,0.0
672,167.75,27.6155,30.2018,146.563,100.432,95.7304,0.00112786,0.0548575,21.0146,-359.089,0.422537,0.0,0.0
674,168.25,27.9071,30.0843,153.258,100.446,95.8424,0.0011314,0.0548639,21.0146,-359.089,0.41347,0.0,0.0
676,168.75,27.9334,29.6458,156.439,100.436,95.8869,0.00113658,0.0548416,21.0146,-359.089,0.408493,0.0,0.0
678,169.25,27.4325,30.2559,152.93,100.418,95.7766,0.0011472,0.0548321,21.0146,-359.099,0.417047,0.0,0.0
680,169.75,28.1142,29.8042,154.906,100.442,95.7872,0.00116158,0.0548087,21.0146,-359.099,0.418153,0.0,0.0
682,170.25,27.842,29.5635,149.976,100.437,95.6273,0.00119155,0.0547833,21.0146,-359.099,0.432452,0.0,0.0
684,170.75,27.1731,29.5666,149.564,100.437,95.6439,0.00121583,0.054777,21.0146,-359.099,0.430928,0.0,0.0
686,171.25,27.4734,29.4046,147.629,100.441,95.6629,0.00124256,0.054785,21.0146,-359.089,0.429487,0.0,0.0
688,171.75,27.8218,30.1086,151.288,100.448,95.976,0.00127058,0.054813,21.0146,-359.099,0.401371,0.0,0.0
690,172.25,27.9159,29.6889,152.711,100.44,95.5768,0.00129328,0.0548552,21.0146,-359.099,0.437387,0.0,0.0
692,172.75,27.6589,29.3029,147.874,100.446,95.5866,0.00130781,0.0548749,21.0146,-359.099,0.436981,0.0,0.0
694,173.25,27.6729,29.4654,149.222,100.441,95.7215,0.0013161,0.054878,21.0146,-359.099,0.424098,0.0,0.0
696,173.75,27.0439,29.5173,154.325,100.435,95.6663,0.00131446,0.0548876,21.0146,-359.099,0.428646,0.0,0.0
698,174.25,27.2258,29.0466,151.391,100.434,95.6545,0.00130562,0.0549019,21.0146,-359.099,0.429704,0.0,0.0
700,174.75,27.2816,29.3596,151.664,100.44,95.7092,0.00129009,0.0549135,21.0146,-359.099,0.425124,0.0,0.0
702,175.25,27.1221,29.0945,148.509,100.434,95.5955,0.00127001,0.0549092,21.0146,-359.109,0.435067,0.0,0.0
704,175.75,27.2185,29.2649,150.17,100.448,95.6231,0.00124731,0.0549057,21.0146,-359.109,0.433796,0.0,0.0
706,176.25,27.228,28.8472,147.303,100.433,95.5421,0.00122314,0.0549029,21.0146,-359.099,0.439925,0.0,0.0
708,176.75,27.308,28.9406,152.513,100.423,95.6252,0.001201,0.0548596,21.0146,-359.109,0.431413,0.0,0.0
710,177.25,26.4593,28.5984,151.266,100.423,95.6171,0.00118076,0.0548244,21.0146,-359.099,0.432156,0.0,0.0
712,177.75,26.7302,28.8372,150.55,100.439,95.7308,0.00116371,0.0547686,21.0146,-359.099,0.423098,0.0,0.0
714,178.25,27.1642,29.0919,147.665,100.43,95.5921,0.00114933,0.0547234,21.0146,-359.099,0.435028,0.0,0.0
716,178.75,26.8462,29.1897,149.941,100.43,95.654,0.00113768,0.0547004,21.0146,-359.099,0.429391,0.0,0.0
718,179.25,26.5977,28.6586,147.381,100.423,95.7393,0.00112824,0.0546891,21.0146,-359.099,0.420871,0.0,0.0
720,179.75,26.8339,29.0582,151.235,100.43,95.7953,0.00111206,0.0546863,21.0148,-359.099,0.416354,0.0,0.0
722,180.25,26.9639,28.5609,148.505,100.413,95.6642,0.00109896,0.0546769,21.0151,-359.099,0.426972,0.0,0.0
724,180.75,26.8257,28.2422,153.482,100.42,95.626,0.0010798,0.0546628,21.0154,-359.089,0.431088,0.0,0.0
726,181.25,26.4317,28.0893,147.179,100.408,95.7944,0.00106429,0.0546514,21.0156,-359.089,0.414528,0.0,0.0
728,181.75,26.5768,28.7112,147.736,100.422,95.5879,0.00104654,0.0546421,21.0158,-359.099,0.434712,0.0,0.0
730,182.25,26.8002,28.7345,150.462,100.409,95.7151,0.0010275,0.0547031,21.0159,-359.099,0.421861,0.0,0.0
732,182.75,26.6272,28.2501,150.054,100.406,95.8933,0.00101207,0.0547525,21.0161,-359.099,0.405228,0.0,0.0
734,183.25,26.8895,28.4323,149.99,100.404,95.5993,0.00098861,0.0547564,21.0162,-359.099,0.432104,0.0,0.0
736,183.75,26.7205,28.6879,152.455,100.406,95.6078,0.000969605,0.0547272,21.0165,-359.109,0.431499,0.0,0.0
738,184.25,26.773,28.2317,152.503,100.408,95.6082,0.000949336,0.0546895,21.0166,-359.109,0.431637,0.0,0.0
740,184.75,26.7381,28.1756,145.115,100.394,95.6154,0.000932918,0.0546464,21.0168,-359.099,0.429737,0.0,0.0
742,185.25,26.4548,28.1083,149.435,100.396,95.5624,0.000923275,0.0546186,21.0169,-359.089,0.434836,0.0,0.0
744,185.75,26.4307,27.7467,149.996,100.394,95.4611,0.000915464,0.0546027,21.017,-359.099,0.444013,0.0,0.0
746,186.25,26.3901,28.0616,149.543,100.383,95.5807,0.000909137,0.0545897,21.0171,-359.099,0.431956,0.0,0.0
748,186.75,26.4036,28.408,147.962,100.381,95.5183,0.000914983,0.0545792,21.0172,-359.109,0.437529,0.0,0.0
750,187.25,26.3241,28.2352,150.245,100.381,95.7164,0.000919718,0.0545707,21.0172,-359.109,0.419345,0.0,0.0
752,187.75,26.8659,27.9071,148.091,100.369,95.6235,0.000932088,0.0545639,21.0172,-359.119,0.426843,0.0,0.0
754,188.25,26.5582,27.5922,152.456,100.377,95.4649,0.000942108,0.0545583,21.0173,-359.099,0.442179,0.0,0.0
756,188.75,26.163,28.0757,150.739,100.35,95.4657,0.00096364,0.0545538,21.0173,-359.099,0.439665,0.0,0.0
758,189.25,25.9603,27.4892,148.876,100.378,95.7474,0.00098108,0.0545501,21.0173,-359.099,0.416177,0.0,0.0
760,189.75,26.6086,28.1051,148.114,100.352,95.7563,,0.0545472,,-359.109,0.413063,0.0,0.0
762,190.25,26.0291,27.4736,152.989,100.349,95.6748,,0.0545585,,-359.099,0.420314,0.0,0.0
764,190.75,26.0906,27.7325,147.899,100.339,95.5688,,0.0545676,,-359.089,0.429238,0.0,0.0
766,191.25,26.3042,27.4968,153.654,100.34,95.6014,,0.054575,,-359.089,0.426264,0.0,0.0
768,191.75,26.2284,28.0597,145.97,100.327,95.7728,,0.054581,,-359.089,0.409353,0.0,0.0
770,192.25,26.2526,27.5536,151.102,100.334,95.5718,,0.0545722,,-359.099,0.428542,0.0,0.0
772,192.75,26.1175,27.2092,149.804,100.327,95.5166,,,,-359.079,0.433026,0.0,0.0
774,193.25,25.9647,27.3805,149.098,100.324,95.534,,,,-359.089,0.431105,0.0,0.0
776,193.75,25.5872,27.2733,149.867,100.32,95.5548,,,,-359.089,0.428835,0.0,0.0
778,194.25,26.0495,27.4516,149.712,100.315,95.6277,,,,-359.089,0.421686,0.0,0.0
780,194.75,25.9083,27.267,147.994,100.301,95.5251,,,,-359.109,0.429914,0.0,0.0
782,195.25,26.3442,27.5625,155.11,100.311,95.4466,,,,-359.109,0.438038,0.0,0.0
784,195.75,26.0015,27.0544,148.141,100.284,95.5921,,,,-359.119,0.422287,0.0,0.0
786,196.25,25.4892,27.0821,149.004,100.29,95.5187,,,,-359.109,0.429511,0.0,0.0
788,196.75,26.1302,27.2717,151.401,100.28,95.5997,,,,-359.099,0.421158,0.0,0.0
790,197.25,25.7886,27.1173,152.88,100.276,95.4606,,,,-359.119,0.433673,0.0,0.0
792,197.75,25.2858,26.742,150.529,100.261,95.3783,,,,-359.119,0.439966,0.0,0.0
794,198.25,25.7346,27.1164,148.256,100.249,95.5124,,,,-359.119,0.426531,0.0,0.0
796,198.75,25.1179,26.7233,152.533,100.245,95.4203,,,,-359.119,0.434709,0.0,0.0
798,199.25,25.9563,27.713,150.677,100.24,95.5824,,,,-359.129,0.419264,0.0,0.0
800,199.75,26.034,26.6752,150.758,100.221,95.4199,,,,-359.129,0.432627,0.0,0.0
802,200.25,25.5486,26.7178,150.469,100.225,95.4275,,,,-359.129,0.432241,0.0,0.0