File: 01_Data/Rebond_Foam_Carpet_Pad/Cone/Rebond_Foam_Carpet_Pad_Cone_HF75Scan_220414_R2.csv
Names,Time,Stack TC,Smoke TC,Exh Press,Smoke Comp,Smoke Meas,CO Meter,CO2 Meter,O2 Meter,Sample Mass,Ext Coeff,Start Test,Flame Verif
Chan Gain,,500,500,1,1,1,1,1,1,1,1,1.0,1.0
Offset,,0,0,0.134258,0,0,0,0,0,0,0,0.0,0.0
Gain,,1,1,25.011,13.171,13.8983,1,1,1,1.00092,1.00459,1.0,1.0
Units,sec,C,C,Pa,%,%,%,%,%,g,/m,,
Baseline,,49.0235,50.3999,141.386,101.618,102.977,0.00115488,0.0449082,21.0282,-835.318,-0.11689,,
2,0.25,49.0457,50.4969,135.581,101.867,92.322,0.00487854,0.0801547,20.9184,-354.474,0.867028,0.0,1.0
4,0.75,48.8906,50.1833,130.629,101.886,85.3211,0.00573925,0.108727,20.8776,-354.464,1.5636,0.0,1.0
6,1.25,47.3467,48.7105,129.216,101.887,78.9649,0.00643643,0.131871,20.8445,-354.645,2.2459,0.0,1.0
8,1.75,46.518,48.6065,128.331,101.888,74.7938,0.00819404,0.172005,20.7861,-354.645,2.72419,0.0,1.0
10,2.25,47.096,48.4881,125.649,101.863,74.7849,0.00961771,0.204514,20.7388,-354.695,2.72308,0.0,1.0
12,2.75,47.431,48.5365,122.65,101.873,72.126,0.0117533,0.252051,20.7005,-354.795,3.04294,0.0,1.0
14,3.25,47.8653,49.1647,116.552,101.868,68.7455,0.0134832,0.290556,20.6361,-354.905,3.46556,0.0,1.0
16,3.75,48.1201,49.3303,119.768,101.87,71.5203,0.0152862,0.337105,20.5839,-355.025,3.11704,0.0,1.0
18,4.25,48.8223,49.6229,112.144,101.862,66.1714,0.0171082,0.388633,20.5059,-355.105,3.80134,0.0,1.0
20,4.75,49.4175,50.6073,112.027,101.865,66.35,0.0188284,0.430372,20.4428,-355.255,3.77787,0.0,1.0
22,5.25,49.8842,50.687,109.329,101.852,70.5626,0.0204415,0.492947,20.3493,-355.355,3.23424,0.0,1.0
24,5.75,48.8504,49.7877,114.809,101.864,70.8328,0.0217482,0.543633,20.2736,-355.405,3.20161,0.0,1.0
26,6.25,49.7629,50.5116,111.435,101.85,67.432,0.0231239,0.593084,20.1882,-355.505,3.63401,0.0,1.0
28,6.75,50.3119,50.9553,117.24,101.863,68.3129,0.024374,0.640694,20.1191,-355.635,3.52074,0.0,1.0
30,7.25,51.094,52.0385,107.212,101.838,67.7713,0.0255088,0.679259,20.0479,-355.716,3.5887,0.0,1.0
32,7.75,52.0195,53.1509,103.504,101.854,66.0217,0.026428,0.719751,19.9903,-355.816,3.82061,0.0,1.0
34,8.25,53.1636,54.1187,113.451,101.839,69.5497,0.0273849,0.75255,19.9436,-355.926,3.36053,0.0,1.0
36,8.75,53.8438,55.0536,109.651,101.855,68.5517,0.0283509,0.787145,19.9057,-356.046,3.48929,0.0,1.0
38,9.25,55.0411,55.7224,114.068,101.835,67.6988,0.0291335,0.820407,19.8631,-356.156,3.59792,0.0,1.0
40,9.75,55.512,56.2727,109.061,101.833,71.7213,0.0301191,0.852063,19.8285,-356.236,3.0891,0.0,0.0
42,10.25,56.9202,58.6773,103.021,101.824,68.4775,0.0312342,0.877705,19.7922,-356.356,3.4962,0.0,0.0
44,10.75,57.5679,58.9536,106.787,101.834,67.7399,0.0324258,0.918918,19.7628,-356.486,3.5925,0.0,0.0
46,11.25,58.1895,60.0662,101.267,101.81,67.9842,0.0336505,0.9523,19.7091,-356.606,3.55865,0.0,0.0
48,11.75,59.3561,61.0657,94.7435,101.824,64.2933,0.0349438,0.979339,19.6656,-356.696,4.05177,0.0,0.0
50,12.25,60.0163,61.7548,95.6999,101.802,63.0849,0.0362623,1.00124,19.6303,-356.827,4.21706,0.0,0.0
52,12.75,61.7892,63.0918,106.153,101.819,61.8931,0.0373304,1.07664,19.5321,-356.977,4.38663,0.0,0.0
54,13.25,62.8812,64.7812,89.9807,101.811,59.9425,0.0389226,1.16124,19.4525,-357.197,4.66817,0.0,0.0
56,13.75,63.8867,65.7612,93.2658,101.804,59.4958,0.0402123,1.25094,19.3368,-357.377,4.73345,0.0,0.0
58,14.25,65.1092,67.1737,91.9805,101.784,58.5576,0.0422262,1.3236,19.1374,-357.537,4.87174,0.0,0.0
60,14.75,66.3855,68.4875,85.2896,101.797,62.5666,0.0428504,1.44612,18.9868,-357.687,4.28937,0.0,0.0
62,15.25,67.8634,70.1144,86.9604,101.778,62.7057,0.0439178,1.58306,18.8995,-357.897,4.26813,0.0,0.0
64,15.75,69.7227,71.8645,84.4897,101.784,64.161,0.0449834,1.72792,18.7503,-358.118,4.06644,0.0,0.0
66,16.25,71.0096,73.7801,76.5173,101.768,63.6779,0.0460275,1.84526,18.4625,-358.328,4.13166,0.0,0.0
68,16.75,72.79,75.7991,69.0593,101.777,68.8635,0.0470135,2.05003,18.1526,-358.518,3.4426,0.0,0.0
70,17.25,75.1443,78.2501,66.1948,101.754,70.4375,0.0478121,2.2866,17.8327,-358.828,3.24146,0.0,0.0
72,17.75,77.0387,80.6156,63.6508,101.785,69.6167,0.0484799,2.40381,17.5082,-359.059,3.34739,0.0,0.0
74,18.25,79.8772,83.7428,78.2545,101.768,71.9139,0.0490397,2.60424,17.1866,-359.329,3.05981,0.0,0.0
76,18.75,83.1866,86.8018,72.7513,101.751,75.8661,0.0494585,2.76659,16.926,-359.549,2.58692,0.0,0.0
78,19.25,85.8013,90.4504,73.1024,101.742,73.3615,0.0496207,2.95079,16.7766,-359.759,2.88192,0.0,0.0
80,19.75,89.9049,94.2124,71.8148,101.744,72.6311,0.0497754,3.14741,16.5212,-360.099,2.97026,0.0,0.0
82,20.25,92.2746,97.5658,68.4815,101.721,70.9698,0.0497905,3.32396,16.3143,-360.25,3.17226,0.0,0.0
84,20.75,95.153,101.302,56.2378,101.738,72.7147,0.0498026,3.48252,16.1467,-360.53,2.95965,0.0,0.0
86,21.25,98.5278,105.627,75.2381,101.713,70.25,0.0493833,3.59874,16.0109,-360.7,3.26136,0.0,0.0
88,21.75,101.523,109.557,78.9972,101.724,72.5476,0.0490436,3.68189,15.901,-360.88,2.9787,0.0,0.0
90,22.25,104.97,113.438,64.1301,101.7,71.3498,0.0482623,3.71733,15.8119,-361.03,3.12332,0.0,0.0
92,22.75,107.274,117.07,82.9059,101.695,69.1285,0.0471739,3.69734,15.8724,-361.17,3.40164,0.0,0.0
94,23.25,110.651,121.449,78.1805,101.683,68.6064,0.0462924,3.68114,15.9214,-361.311,3.46737,0.0,0.0
96,23.75,113.823,125.221,88.0473,101.687,67.4506,0.0445184,3.54783,16.049,-361.431,3.61747,0.0,0.0
98,24.25,115.975,128.425,80.2879,101.685,68.5322,0.0437621,3.43985,16.1451,-361.571,3.47708,0.0,0.0
100,24.75,118.425,131.426,97.4547,101.669,69.5328,0.041867,3.28247,16.3093,-361.651,3.34799,0.0,0.0
102,25.25,119.993,133.617,104.985,101.663,69.7699,0.0397902,3.09207,16.6051,-361.691,3.31744,0.0,0.0
104,25.75,121.107,135.637,103.96,101.663,71.606,0.0376903,2.93785,16.8446,-361.751,3.08853,0.0,0.0
106,26.25,122.267,136.916,104.451,101.647,75.3855,0.0356135,2.68693,17.1972,-361.851,2.6339,0.0,0.0
108,26.75,122.362,137.578,109.986,101.637,77.8981,0.0335112,2.4837,17.5449,-361.911,2.34414,0.0,0.0
110,27.25,122.635,138.435,110.736,101.624,79.54,0.0314303,2.39705,17.8824,-361.961,2.15915,0.0,0.0
112,27.75,122.885,138.832,115.166,101.626,83.2746,0.0290369,2.16758,18.198,-361.961,1.75499,0.0,0.0
114,28.25,122.6,139.091,114.548,101.614,82.5679,0.0270982,1.95582,18.4918,-362.031,1.82904,0.0,0.0
116,28.75,122.513,138.692,125.385,101.618,84.8944,0.0255279,1.76101,18.7297,-362.071,1.58453,0.0,0.0
118,29.25,122.005,138.696,122.473,101.594,84.9779,0.0234164,1.5848,18.9486,-362.061,1.57384,0.0,0.0
120,29.75,122.442,138.157,123.473,101.59,87.9512,0.0217061,1.42551,19.1493,-362.091,1.27036,0.0,0.0
122,30.25,121.416,138.017,124.491,101.594,91.0084,0.0197915,1.2824,19.3328,-362.131,0.969599,0.0,0.0
124,30.75,121.206,137.475,124.31,101.567,93.9821,0.0182406,1.1538,19.5003,-362.161,0.68393,0.0,0.0
126,31.25,120.356,136.234,125.863,101.555,96.3925,0.0166083,1.03628,19.636,-362.171,0.459722,0.0,0.0
128,31.75,119.775,136.059,129.565,101.566,97.8193,0.0152861,0.929073,19.7639,-362.181,0.331215,0.0,0.0
130,32.25,119.034,135.134,135.327,101.549,99.3882,0.0142151,0.842233,19.8839,-362.181,0.189534,0.0,0.0
132,32.75,118.852,135.024,129.121,101.534,101.538,0.0129952,0.74966,19.9985,-362.181,-0.000387117,0.0,0.0
134,33.25,118,134.166,132.861,101.529,102.715,0.0120071,0.674676,20.1069,-362.171,-0.102296,0.0,0.0
136,33.75,117.062,133.182,134.395,101.505,103.711,0.0111365,0.600614,20.1948,-362.171,-0.189453,0.0,0.0
138,34.25,116.514,132.414,141.043,101.502,103.809,0.010368,0.540624,20.2878,-362.161,-0.198126,0.0,0.0
140,34.75,115.538,131.817,133.773,101.505,104.202,0.00974559,0.492032,20.3631,-362.181,-0.231052,0.0,0.0
142,35.25,114.713,130.904,137.327,101.487,104.286,0.00917859,0.445822,20.4325,-362.181,-0.239758,0.0,0.0
144,35.75,114.502,129.741,135.57,101.471,104.737,0.00871932,0.402226,20.4962,-362.201,-0.279206,0.0,0.0
146,36.25,113.101,128.952,136.261,101.459,103.423,0.00834731,0.366914,20.5479,-362.191,-0.168963,0.0,0.0
148,36.75,112.399,127.864,134.067,101.444,104.194,0.00798702,0.33216,20.596,-362.201,-0.235747,0.0,0.0
150,37.25,111.614,126.746,136.204,101.432,104.315,0.00769518,0.304009,20.6407,-362.201,-0.247013,0.0,0.0
152,37.75,110.795,126.245,140.798,101.421,103.375,0.00741368,0.279312,20.6802,-362.211,-0.168125,0.0,0.0
154,38.25,109.719,125.456,137.672,101.429,104.531,0.00718567,0.257601,20.7152,-362.211,-0.265405,0.0,0.0
156,38.75,108.974,123.153,137.098,101.396,103.69,0.00708847,0.23872,20.7301,-362.221,-0.197148,0.0,0.0
158,39.25,108.147,122.21,137.004,101.395,103.445,0.00688846,0.222261,20.76,-362.231,-0.176324,0.0,0.0
160,39.75,107.478,122.119,135.532,101.379,103.718,0.00671591,0.208929,20.7843,-362.231,-0.20103,0.0,0.0
162,40.25,106.458,121.138,137.447,101.377,103.748,0.00656667,0.196285,20.807,-362.241,-0.203763,0.0,0.0
164,40.75,105.667,120.504,135.997,101.352,103.349,0.00644579,0.186044,20.8255,-362.241,-0.171963,0.0,0.0
166,41.25,105.3,119.939,140.732,101.348,103.858,0.00634662,0.177067,20.8418,-362.251,-0.215569,0.0,0.0
168,41.75,104.641,118.602,138.343,101.33,103.891,0.0062663,0.172917,20.8563,-362.241,-0.219949,0.0,0.0
170,42.25,103.578,118.402,135.858,101.351,103.071,0.00620749,0.16582,20.8688,-362.241,-0.148314,0.0,0.0
172,42.75,102.549,117.575,135.46,101.311,103.216,0.00615985,0.158908,20.8795,-362.251,-0.164095,0.0,0.0
174,43.25,102.285,116.511,140.061,101.319,103.518,0.0061206,0.15331,20.8882,-362.241,-0.189211,0.0,0.0
176,43.75,101.865,116.147,138.719,101.288,102.807,0.00608822,0.14787,20.8961,-362.251,-0.131216,0.0,0.0
178,44.25,101.032,115.452,138.952,101.289,103.7,0.006062,0.143463,20.9025,-362.261,-0.207345,0.0,0.0
180,44.75,100.045,113.54,135.295,101.265,104.595,0.0060295,0.139103,20.9087,-362.261,-0.285168,0.0,0.0
182,45.25,100.369,113.815,136.603,101.271,104.168,0.00600318,0.135572,20.9145,-362.271,-0.248586,0.0,0.0
184,45.75,98.7466,113.242,139.168,101.233,104.218,0.0059812,0.132289,20.9192,-362.261,-0.256142,0.0,0.0
186,46.25,98.4938,112.521,138.74,101.246,103.862,0.0059628,0.12925,20.9239,-362.261,-0.224881,0.0,0.0
188,46.75,98.0557,111.943,140.211,101.219,102.842,0.00595382,0.126788,20.9277,-362.271,-0.140108,0.0,0.0
190,47.25,97.2686,111.046,136.653,101.222,103.972,0.00595188,0.124379,20.9317,-362.282,-0.23619,0.0,0.0
192,47.75,96.9489,110.233,136.848,101.198,104.463,0.00595821,0.122056,20.9349,-362.271,-0.279821,0.0,0.0
194,48.25,96.2805,109.664,134.687,101.205,102.727,0.00597044,0.119886,20.9385,-362.292,-0.131549,0.0,0.0
196,48.75,95.7627,108.658,141.285,101.17,104.168,0.00598694,0.117869,20.9413,-362.292,-0.257334,0.0,0.0
198,49.25,95.2155,108.551,136.375,101.188,102.864,0.00600622,0.116051,20.944,-362.282,-0.144729,0.0,0.0
200,49.75,93.9351,107.779,138.721,101.151,103.831,0.00602185,0.114412,20.9463,-362.292,-0.230443,0.0,0.0
202,50.25,93.8956,107.237,137.663,101.148,103.588,0.00603384,0.112922,20.9481,-362.292,-0.210073,0.0,0.0
204,50.75,93.4309,106.698,137.635,101.124,103.905,0.00604297,0.11157,20.95,-362.302,-0.239086,0.0,0.0
206,51.25,93.4626,106.061,137.613,101.145,104.05,0.00603785,0.110305,20.9515,-362.302,-0.249488,0.0,0.0
208,51.75,92.4246,105.946,138.314,101.111,104.256,0.00602244,0.109128,20.9532,-362.282,-0.269942,0.0,0.0
210,52.25,92.5348,104.684,138.853,101.121,103.449,0.00599286,0.108175,20.9546,-362.292,-0.200648,0.0,0.0
212,52.75,91.6723,104.463,138.995,101.088,103.997,0.0059535,0.106928,20.9561,-362.302,-0.250043,0.0,0.0
214,53.25,91.2476,103.428,134.796,101.088,104.159,0.0059111,0.105917,20.9574,-362.302,-0.263726,0.0,0.0
216,53.75,90.576,103.429,136.441,101.071,103.51,0.00586729,0.104827,20.9593,-362.322,-0.210124,0.0,0.0
218,54.25,90.19,103.156,142.224,101.075,103.356,0.0058318,0.103699,20.9609,-362.312,-0.196618,0.0,0.0
220,54.75,89.8345,102.331,137.631,101.047,104.031,0.00581429,0.10258,20.9621,-362.322,-0.256457,0.0,0.0
222,55.25,89.2619,101.595,137.25,101.055,103.55,0.00580012,0.101489,20.9634,-362.312,-0.214919,0.0,0.0
224,55.75,88.5184,101.299,140.616,101.02,104.928,0.00578863,0.100392,20.9646,-362.312,-0.334468,0.0,0.0
226,56.25,88.4935,100.226,138.548,101.053,103.556,0.00580104,0.0993126,20.9656,-362.332,-0.21567,0.0,0.0
228,56.75,87.8362,99.9891,141.269,101.01,103.243,0.00583063,0.0982477,20.9661,-362.342,-0.192674,0.0,0.0
230,57.25,87.7005,99.3611,137.632,101.016,104.181,0.00585459,0.0972137,20.9666,-362.332,-0.271866,0.0,0.0
232,57.75,87.0992,98.8133,140.9,100.996,103.437,0.00589402,0.0963762,20.9671,-362.332,-0.210464,0.0,0.0
234,58.25,86.4698,98.6207,137.854,100.989,103.48,0.00592596,0.0956978,20.9678,-362.332,-0.214746,0.0,0.0
236,58.75,86.1003,98.1894,139.606,100.968,103.906,0.00595558,0.0948336,20.9686,-362.342,-0.252759,0.0,0.0
238,59.25,85.6125,97.4191,139.199,100.974,103.378,0.00597957,0.0938506,20.9695,-362.332,-0.207335,0.0,0.0
240,59.75,84.9456,96.9146,140.509,100.944,102.179,0.00599275,0.0930542,20.9706,-362.352,-0.107088,0.0,0.0
242,60.25,84.9156,96.7445,138.579,100.952,103.418,0.00600343,0.0919233,20.972,-362.352,-0.212734,0.0,0.0
244,60.75,84.1818,96.052,139.684,100.927,102.757,0.00599081,0.0910073,20.9733,-362.352,-0.15835,0.0,0.0
246,61.25,83.5966,95.6679,138.488,100.929,103.189,0.00598059,0.0900171,20.9746,-362.342,-0.195196,0.0,0.0
248,61.75,83.6073,94.649,135.941,100.916,103.166,0.00594606,0.0889917,20.9761,-362.362,-0.194328,0.0,0.0
250,62.25,83.2736,94.7604,138.543,100.908,102.868,0.00591809,0.087957,20.9778,-362.362,-0.169524,0.0,0.0
252,62.75,82.9638,94.2242,135.396,100.901,102.726,0.00587795,0.0869351,20.9794,-362.362,-0.157974,0.0,0.0
254,63.25,82.3408,93.9244,139.644,100.898,103.026,0.00584543,0.0859325,20.9808,-362.352,-0.183979,0.0,0.0
256,63.75,82.0059,93.2263,141.279,100.879,103.598,0.0058204,0.0849631,20.982,-362.372,-0.234327,0.0,0.0
258,64.25,81.7457,92.4429,137.634,100.873,103.537,0.00580132,0.0840104,20.983,-362.362,-0.229726,0.0,0.0
260,64.75,81.1512,91.9865,137.54,100.866,104.169,0.00578586,0.083088,20.9838,-362.362,-0.283913,0.0,0.0
262,65.25,80.6985,91.8591,139.723,100.87,103.433,0.00577399,0.0820921,20.9847,-362.382,-0.221088,0.0,0.0
264,65.75,80.1596,91.6452,141.368,100.849,102.408,0.00576497,0.0812854,20.9856,-362.372,-0.135175,0.0,0.0
266,66.25,80.146,91.9229,139.472,100.857,103.342,0.00575368,0.0805229,20.9864,-362.372,-0.214511,0.0,0.0
268,66.75,79.7557,90.6579,139.252,100.833,103.845,0.00574095,0.079807,20.9871,-362.382,-0.259373,0.0,0.0
270,67.25,79.5588,90.5355,138.565,100.828,104.209,0.00572144,0.0792272,20.9877,-362.372,-0.290693,0.0,0.0
272,67.75,78.9398,90.0296,136.439,100.82,102.568,0.00569735,0.0784952,20.9887,-362.372,-0.151488,0.0,0.0
274,68.25,78.9269,89.3362,139.413,100.804,103.376,0.00566668,0.0779023,20.9895,-362.372,-0.221969,0.0,0.0
276,68.75,78.245,89.1907,137.537,100.802,102.887,0.00563178,0.0772845,20.9905,-362.372,-0.180429,0.0,0.0
278,69.25,78.0724,88.6385,140.671,100.79,103.633,0.00559498,0.0766602,20.9914,-362.372,-0.24519,0.0,0.0
280,69.75,77.9244,88.3007,137.655,100.777,102.838,0.00555748,0.0761545,20.9925,-362.382,-0.178394,0.0,0.0
282,70.25,77.0197,87.9114,137.613,100.782,103.065,0.00552712,0.0754415,20.9935,-362.392,-0.197324,0.0,0.0
284,70.75,77.218,87.7692,138.805,100.768,103.844,0.00548743,0.074864,20.9942,-362.382,-0.264994,0.0,0.0
286,71.25,76.8574,86.8792,136.508,100.756,104.163,0.0054417,0.0741756,20.9948,-362.392,-0.293039,0.0,0.0
288,71.75,76.2664,86.6383,142.532,100.744,102.15,0.00538892,0.0735092,20.9953,-362.392,-0.122126,0.0,0.0
290,72.25,75.9948,86.6115,139.862,100.737,102.962,0.00533201,0.0728716,20.9962,-362.412,-0.192551,0.0,0.0
292,72.75,75.6597,85.9617,139.534,100.737,103.261,0.00527084,0.0723551,20.9969,-362.412,-0.218143,0.0,0.0
294,73.25,75.3812,86.0968,141.033,100.73,102.663,0.00520774,0.0716889,20.9974,-362.412,-0.167484,0.0,0.0
296,73.75,74.8352,85.5868,135.816,100.725,102.481,0.00514811,0.0711493,20.9979,-362.422,-0.152345,0.0,0.0
298,74.25,74.9416,85.2514,139.234,100.71,102.616,0.00509215,0.0705673,20.9987,-362.392,-0.165238,0.0,0.0
300,74.75,74.3103,84.9541,136.86,100.716,103.144,0.00506371,0.0699655,20.999,-362.422,-0.209941,0.0,0.0
302,75.25,74.6173,84.3733,138.807,100.696,103.711,0.00501509,0.0693839,20.9996,-362.442,-0.260014,0.0,0.0
304,75.75,74.6197,83.6183,138.758,100.699,103.624,0.0049757,0.0688281,21.0005,-362.432,-0.252307,0.0,0.0
306,76.25,74.0257,83.5536,140.045,100.678,103.152,0.00494139,0.0683055,21.0013,-362.432,-0.213864,0.0,0.0
308,76.75,73.4489,83.1378,136.86,100.674,103.419,0.00491359,0.0678171,21.0019,-362.422,-0.237013,0.0,0.0
310,77.25,73.278,82.732,134.364,100.664,103.704,0.00489108,0.0673201,21.0024,-362.432,-0.262183,0.0,0.0
312,77.75,73.2876,82.6638,137.221,100.679,104.433,0.00486539,0.0670603,21.0028,-362.422,-0.322654,0.0,0.0
314,78.25,72.8625,82.554,140.858,100.653,103.267,0.00484457,0.0665509,21.003,-362.432,-0.225859,0.0,0.0
316,78.75,72.447,81.6848,139.629,100.648,102.335,0.00482772,0.0660797,21.0031,-362.422,-0.146473,0.0,0.0
318,79.25,72.1128,81.4826,139.004,100.638,102.47,0.00479771,0.065698,21.0032,-362.432,-0.158959,0.0,0.0
320,79.75,71.9382,81.396,140.348,100.637,101.634,0.00475869,0.0651545,21.003,-362.432,-0.0868405,0.0,0.0
322,80.25,72.0541,81.0322,140.726,100.624,102.976,0.00472055,0.0647143,21.0029,-362.442,-0.203564,0.0,0.0
324,80.75,71.7069,80.7523,138.952,100.622,101.454,0.00468377,0.0643578,21.0028,-362.442,-0.0725729,0.0,0.0
326,81.25,70.9315,80.5841,140.382,100.615,103.398,0.00465268,0.0640689,21.0027,-362.452,-0.240452,0.0,0.0
328,81.75,70.5089,80.3609,142.733,100.618,103.29,0.00462631,0.0636905,21.0026,-362.442,-0.230983,0.0,0.0
330,82.25,70.8537,80.0134,134.358,100.61,103.191,0.00461365,0.0632538,21.0028,-362.442,-0.223179,0.0,0.0
332,82.75,70.3329,79.7126,141.055,100.598,102.022,0.00460339,0.062864,21.0031,-362.442,-0.123841,0.0,0.0
334,83.25,69.9824,78.8151,141.748,100.586,102.372,0.0046075,0.0625158,21.0036,-362.452,-0.155035,0.0,0.0
336,83.75,70.249,79.1198,138.276,100.592,102.706,0.00461083,0.0621904,21.0043,-362.432,-0.1833,0.0,0.0
338,84.25,70.0887,78.8642,134.878,100.574,102.691,0.00461353,0.0618878,21.0048,-362.442,-0.183613,0.0,0.0
340,84.75,69.5273,78.696,133.934,100.571,103.01,0.00462442,0.0615705,21.0052,-362.452,-0.211151,0.0,0.0
342,85.25,69.2648,78.3851,137.906,100.55,102.99,0.00463323,0.0612485,21.0055,-362.452,-0.211313,0.0,0.0
344,85.75,68.9413,78.0207,138.448,100.56,102.736,0.00462546,0.0609155,21.0058,-362.442,-0.18863,0.0,0.0
346,86.25,68.6506,77.6025,143.07,100.546,103.493,0.00461917,0.0605808,21.006,-362.462,-0.254603,0.0,0.0
348,86.75,68.9191,77.6099,139.254,100.557,102.441,0.00458921,0.0602447,21.0062,-362.452,-0.163555,0.0,0.0
350,87.25,69.0719,77.1364,141.342,100.546,102.223,0.00454255,0.059914,21.0068,-362.452,-0.145804,0.0,0.0
352,87.75,68.5674,76.6424,141.716,100.535,102.635,0.00450476,0.0596462,21.0073,-362.452,-0.182151,0.0,0.0
354,88.25,68.0255,76.6096,137.542,100.534,102.826,0.00442084,0.0593332,21.0078,-362.462,-0.198596,0.0,0.0
356,88.75,67.6755,76.4902,137.032,100.543,102.074,0.00435287,0.0590798,21.0082,-362.452,-0.133243,0.0,0.0
358,89.25,67.6123,75.965,140.363,100.528,102.687,0.00426686,0.0588384,21.0088,-362.452,-0.1873,0.0,0.0
360,89.75,67.7808,75.6422,143.983,100.532,102.586,0.00419718,0.0586104,21.0095,-362.462,-0.178246,0.0,0.0
362,90.25,67.6306,75.6227,142.644,100.511,102.951,0.00412466,0.0583612,21.0101,-362.452,-0.211427,0.0,0.0
364,90.75,67.1304,75.7622,141.36,100.522,102.977,0.00406592,0.0581013,21.0106,-362.452,-0.212619,0.0,0.0
366,91.25,66.9204,75.0054,140.984,100.5,102.063,0.00401833,0.0578908,21.0109,-362.452,-0.136061,0.0,0.0
368,91.75,66.5132,75.1822,135.144,100.5,102.552,0.00397237,0.0575696,21.0112,-362.452,-0.178114,0.0,0.0
370,92.25,66.8618,74.7943,139.536,100.498,102.773,0.00393514,0.0573094,21.0115,-362.452,-0.197222,0.0,0.0
372,92.75,66.4133,74.3537,138.919,100.502,102.924,0.00390127,0.057077,21.0117,-362.442,-0.209807,0.0,0.0
374,93.25,66.6428,74.7104,136.693,100.485,102.67,0.00387384,0.0568693,21.0118,-362.442,-0.189615,0.0,0.0
376,93.75,66.3825,74.531,136.385,100.493,102.685,0.00384836,0.0567011,21.0122,-362.442,-0.190149,0.0,0.0
378,94.25,65.9204,73.4463,139.394,100.484,102.355,0.0038248,0.0564963,21.0127,-362.452,-0.162559,0.0,0.0
380,94.75,65.6054,73.6082,139.418,100.482,103.403,0.00380571,0.0563305,21.0131,-362.452,-0.252544,0.0,0.0
382,95.25,65.4764,73.648,139.312,100.483,101.866,0.00379025,0.0561168,21.0135,-362.452,-0.120461,0.0,0.0
384,95.75,65.1839,72.9746,135.302,100.47,102.063,0.00377903,0.0558725,21.0137,-362.462,-0.138633,0.0,0.0
386,96.25,64.8969,72.7788,140.602,100.476,102.546,0.00377111,0.0556241,21.0139,-362.462,-0.179717,0.0,0.0
388,96.75,65.1269,72.8003,136.919,100.485,102.356,0.00376405,0.0553775,21.0141,-362.472,-0.162564,0.0,0.0
390,97.25,65.0494,72.1818,137.501,100.465,102.908,0.00375774,0.0551273,21.0147,-362.482,-0.211742,0.0,0.0
392,97.75,64.3629,72.2353,140.314,100.477,102.666,0.00375263,0.0548793,21.0152,-362.462,-0.189957,0.0,0.0
394,98.25,64.6833,72.262,144.143,100.472,102.08,0.00373292,0.0546424,21.0156,-362.482,-0.139886,0.0,0.0
396,98.75,64.6866,72.2316,140.413,100.469,103.064,0.00370294,0.0544181,21.0159,-362.462,-0.22478,0.0,0.0
398,99.25,64.0151,71.4862,137.493,100.46,102.719,0.00366176,0.0542076,21.0161,-362.472,-0.195951,0.0,0.0
400,99.75,64.1544,71.7544,139.723,100.469,101.752,0.00361318,0.0540112,21.0162,-362.472,-0.111892,0.0,0.0
402,100.25,63.6747,71.4249,139.388,100.454,103.482,0.00356409,0.0538521,21.0162,-362.472,-0.261627,0.0,0.0
404,100.75,63.8774,70.8647,138.504,100.469,102.518,0.00351556,0.0535993,21.0162,-362.482,-0.177983,0.0,0.0
406,101.25,63.2259,70.4342,140.709,100.462,102.294,0.00347625,0.0533946,21.0163,-362.482,-0.159274,0.0,0.0
408,101.75,62.9575,71.0757,137.51,100.465,102.16,0.00343596,0.0531496,21.0163,-362.482,-0.147474,0.0,0.0
410,102.25,62.8247,70.7157,140.248,100.466,102.271,0.00339574,0.0528799,21.0169,-362.492,-0.156912,0.0,0.0
412,102.75,62.8426,70.2922,136.808,100.473,102.852,0.00336185,0.052647,21.0175,-362.462,-0.206206,0.0,0.0
414,103.25,62.7257,69.9084,139.705,100.46,103.215,0.00333324,0.0524454,21.0179,-362.462,-0.238385,0.0,0.0
416,103.75,62.7473,69.6557,138.897,100.468,103.297,0.00330876,0.0522821,21.0182,-362.482,-0.244702,0.0,0.0
418,104.25,62.091,69.6269,138.93,100.469,102.695,0.00328777,0.0521499,21.0185,-362.492,-0.193066,0.0,0.0
420,104.75,62.5738,69.2418,141.217,100.457,103.314,0.00327077,0.051947,21.0188,-362.482,-0.247138,0.0,0.0
422,105.25,62.3655,69.0808,138.766,100.466,102.927,0.00324791,0.0517827,21.0189,-362.472,-0.213234,0.0,0.0
424,105.75,62.0734,68.9991,137.424,100.473,103.556,0.00322121,0.0515676,21.0191,-362.482,-0.266395,0.0,0.0
426,106.25,62.2626,68.6583,137.673,100.471,102.027,0.00319959,0.0513934,21.0192,-362.492,-0.135449,0.0,0.0
428,106.75,61.7239,69.1138,143.444,100.483,102.702,0.00317098,0.0512112,21.0193,-362.492,-0.192521,0.0,0.0
430,107.25,61.7582,68.2795,137.646,100.483,102.515,0.00314781,0.0510637,21.0194,-362.482,-0.17635,0.0,0.0
432,107.75,62.0915,68.2689,139.469,100.48,102.242,0.00312288,0.0508938,21.0195,-362.472,-0.15323,0.0,0.0
434,108.25,61.4214,67.9595,138.018,100.489,102.568,0.00310269,0.0507109,21.0195,-362.472,-0.180449,0.0,0.0
436,108.75,61.6751,67.9838,142.802,100.499,101.777,0.00307771,0.0505628,21.0195,-362.482,-0.111379,0.0,0.0
438,109.25,61.2544,67.4009,137.941,100.502,102.59,0.00305747,0.0503881,21.02,-362.492,-0.181253,0.0,0.0
440,109.75,61.1473,67.6712,138.673,100.494,102.242,0.00303136,0.0502466,21.0204,-362.502,-0.151959,0.0,0.0
442,110.25,60.3634,67.5229,139.564,100.506,102.788,0.00300145,0.0501184,21.0207,-362.492,-0.197861,0.0,0.0
444,110.75,60.8009,67.5471,140.723,100.511,102.613,0.00296557,0.0500145,21.021,-362.492,-0.182408,0.0,0.0
446,111.25,60.8909,67.0294,140.74,100.511,102.841,0.00292601,0.0499591,21.0212,-362.502,-0.201911,0.0,0.0
448,111.75,60.5822,67.2041,139.723,100.513,102.799,0.00289396,0.0499401,21.0214,-362.502,-0.198172,0.0,0.0
450,112.25,60.7652,66.9464,138.227,100.522,102.796,0.00284665,0.0499248,21.0215,-362.502,-0.197107,0.0,0.0
452,112.75,60.6843,66.6617,142.959,100.524,102.557,0.00278909,0.049967,21.0216,-362.502,-0.176434,0.0,0.0
454,113.25,60.4822,66.6302,137.121,100.541,102.59,0.00272631,0.0500012,21.0217,-362.522,-0.177763,0.0,0.0
456,113.75,60.2018,66.2549,141.886,100.532,102.239,0.0026609,0.0500289,21.0218,-362.502,-0.14832,0.0,0.0
458,114.25,59.9073,66.043,143.27,100.552,103.023,0.0025937,0.0500513,21.0218,-362.512,-0.213894,0.0,0.0
460,114.75,59.9385,65.5853,136.476,100.54,103.312,0.00252648,0.0500832,21.0219,-362.512,-0.239697,0.0,0.0
462,115.25,59.5587,66.0741,138.372,100.55,102.258,0.00247203,0.050109,21.0219,-362.512,-0.148414,0.0,0.0
464,115.75,60.0006,66.0233,139.787,100.539,103.165,0.00241197,0.050137,21.0219,-362.512,-0.227167,0.0,0.0
466,116.25,60.0634,65.1933,135.215,100.56,102.09,0.00236332,0.0501663,21.022,-362.502,-0.133084,0.0,0.0
468,116.75,59.4145,65.7746,136.82,100.56,103.425,0.0023092,0.0501827,21.0218,-362.522,-0.247552,0.0,0.0
470,117.25,59.0049,65.4012,137.347,100.572,102.945,0.00226536,0.0501896,21.0214,-362.512,-0.205491,0.0,0.0
472,117.75,59.7681,64.9852,136.905,100.576,104.229,0.00222372,0.0501952,21.0211,-362.502,-0.314433,0.0,0.0
474,118.25,59.2136,65.1408,140.979,100.584,102.77,0.00218999,0.0502407,21.0208,-362.502,-0.189499,0.0,0.0
476,118.75,58.8899,65.022,138.79,100.588,102.74,0.00216267,0.0502776,21.0206,-362.512,-0.186565,0.0,0.0
478,119.25,59.2136,64.6093,138.493,100.605,102.031,0.00212706,0.0503621,21.0204,-362.512,-0.123977,0.0,0.0
480,119.75,59.046,64.4862,138.075,100.599,102.72,0.00209821,0.0504306,21.0203,-362.512,-0.183833,0.0,0.0
482,120.25,59.1453,64.672,138.537,100.617,102.355,0.00206968,0.0505681,21.0202,-362.512,-0.150937,0.0,0.0
484,120.75,58.912,64.3466,138.754,100.616,103.256,0.00204193,0.0506794,21.0201,-362.502,-0.228228,0.0,0.0
486,121.25,58.6591,64.3939,140.319,100.629,102.775,0.00201494,0.0507696,21.02,-362.532,-0.185956,0.0,0.0
488,121.75,58.3742,64.3782,135.872,100.623,101.416,0.00198902,0.0509111,21.02,-362.542,-0.0691497,0.0,0.0
490,122.25,58.5263,63.7398,139.626,100.644,102.534,0.0019635,0.0510256,21.0199,-362.522,-0.163975,0.0,0.0
492,122.75,58.1155,63.913,141.106,100.645,101.759,0.00193878,0.0511184,21.0199,-362.532,-0.0969785,0.0,0.0
494,123.25,58.3679,63.548,138.251,100.668,102.217,0.00191875,0.0513167,21.0199,-362.522,-0.134588,0.0,0.0
496,123.75,57.9383,63.5512,141.142,100.662,102.77,0.00189273,0.0514773,21.0198,-362.502,-0.182671,0.0,0.0
498,124.25,58.2995,62.6424,136.387,100.684,102.926,0.00187165,0.0516894,21.0198,-362.512,-0.194072,0.0,0.0
500,124.75,57.8377,63.0366,137.94,100.671,102.807,0.00185458,0.0518613,21.0198,-362.512,-0.184988,0.0,0.0
502,125.25,58.061,63.5444,138.175,100.687,102.678,0.00184197,0.0519868,21.0197,-362.512,-0.172559,0.0,0.0
504,125.75,57.881,63.3002,138.753,100.703,102.484,0.00183176,0.0520884,21.0195,-362.532,-0.1545,0.0,0.0
506,126.25,57.5248,62.8991,141.615,100.713,103.383,0.0018235,0.0521981,21.0193,-362.522,-0.230528,0.0,0.0
508,126.75,57.3621,63.0304,136.649,100.698,103.04,0.00183517,0.052287,21.0192,-362.532,-0.202641,0.0,0.0
510,127.25,57.678,62.9639,138.924,100.726,103.245,0.00184462,0.052359,21.0191,-362.532,-0.217681,0.0,0.0
512,127.75,57.873,62.7881,137.415,100.719,103.183,0.00186454,0.0523078,21.0191,-362.532,-0.212955,0.0,0.0
514,128.25,57.4474,62.4414,141.19,100.741,103.137,0.00188067,0.0522664,21.019,-362.522,-0.207108,0.0,0.0
516,128.75,57.3445,61.6772,138.737,100.743,102.828,0.00190143,0.0521969,21.0189,-362.522,-0.180476,0.0,0.0
518,129.25,57.679,62.5563,138.473,100.757,103.288,0.00192517,0.0521082,21.0189,-362.522,-0.21863,0.0,0.0
520,129.75,57.2714,62.1173,139.623,100.76,102.564,0.00194762,0.0520363,21.0189,-362.542,-0.156431,0.0,0.0
522,130.25,56.7498,62.1597,137.693,100.785,102.607,0.00196872,0.0518687,21.0194,-362.522,-0.157825,0.0,0.0
524,130.75,56.7419,61.9548,138.488,100.777,101.716,0.0019858,0.051733,21.0199,-362.542,-0.0817322,0.0,0.0
526,131.25,56.9966,61.9944,138.706,100.798,101.9,0.00199106,0.051541,21.0203,-362.532,-0.0958745,0.0,0.0
528,131.75,57.194,61.6593,142.96,100.8,102.235,0.00199532,0.0513855,21.0206,-362.542,-0.124629,0.0,0.0
530,132.25,56.6011,61.688,138.814,100.824,102.956,0.0019718,0.0512599,21.0209,-362.522,-0.184416,0.0,0.0
532,132.75,56.1146,61.3172,139.068,100.822,101.918,0.00195276,0.0511585,21.0211,-362.512,-0.0953069,0.0,0.0
534,133.25,57.1476,61.3867,137.496,100.837,102.647,0.00191542,0.0510764,21.0212,-362.532,-0.156788,0.0,0.0
536,133.75,56.4232,61.315,138.225,100.842,103.226,0.00186546,0.0509142,21.0214,-362.542,-0.20586,0.0,0.0
538,134.25,56.5983,61.2353,140.377,100.853,102.402,0.00182049,0.0507828,21.0215,-362.542,-0.134347,0.0,0.0
540,134.75,56.7222,61.3487,141.522,100.859,102.702,0.00178,0.0506354,21.0215,-362.522,-0.159588,0.0,0.0
542,135.25,56.5118,61.1858,139.849,100.873,103.429,0.00174721,0.050516,21.0216,-362.522,-0.220552,0.0,0.0
544,135.75,56.4066,61.0044,138.491,100.882,102.334,0.00172554,0.0504121,21.0217,-362.522,-0.125906,0.0,0.0
546,136.25,55.7393,60.6663,141.715,100.891,102.67,0.00170799,0.0503214,21.0217,-362.522,-0.154048,0.0,0.0
548,136.75,56.2573,60.826,140.346,100.894,102.225,0.00170478,0.050248,21.0218,-362.522,-0.11546,0.0,0.0
550,137.25,56.0679,60.234,138.567,100.905,102.64,0.00170799,0.0501749,21.0218,-362.542,-0.150199,0.0,0.0
552,137.75,56.1916,60.6663,141.163,100.914,103.535,0.0017158,0.0501156,21.0218,-362.532,-0.226001,0.0,0.0
554,138.25,55.9288,60.1849,139.491,100.927,102.87,0.00172342,0.0501087,21.0218,-362.522,-0.168019,0.0,0.0
556,138.75,55.6573,60.4213,138.232,100.94,103.186,0.00173075,0.050103,21.0219,-362.522,-0.193853,0.0,0.0
558,139.25,56.0028,60.2234,136.755,100.941,103.684,0.00173668,0.0500711,21.0219,-362.522,-0.236241,0.0,0.0
560,139.75,56.1844,60.2032,139.63,100.964,103.648,0.00173921,0.0500452,21.0219,-362.522,-0.231213,0.0,0.0
562,140.25,55.3612,60.07,138.166,100.971,103.341,0.00172029,0.049997,21.0219,-362.522,-0.204434,0.0,0.0
564,140.75,55.6199,60.0899,139.078,100.981,102.92,0.00170496,0.0499579,21.0219,-362.532,-0.16764,0.0,0.0
566,141.25,55.8017,60.0021,138.191,100.985,103.356,0.00167516,0.0498989,21.0219,-362.542,-0.204509,0.0,0.0
568,141.75,55.4547,59.5632,140.255,100.995,104.1,0.00163538,0.0498511,21.0219,-362.542,-0.26687,0.0,0.0
570,142.25,55.0424,59.6062,139.006,101.002,102.978,0.00159287,0.0498124,21.0219,-362.542,-0.17072,0.0,0.0
572,142.75,55.0505,59.6688,138.426,101.018,103.147,0.00154917,0.0497958,21.0224,-362.552,-0.183786,0.0,0.0
574,143.25,54.9923,59.4799,138.498,101.032,103.196,0.00151378,0.0497676,21.0227,-362.562,-0.186762,0.0,0.0
576,143.75,54.8923,59.8287,139.313,101.038,102.658,0.00148144,0.0497376,21.023,-362.562,-0.140188,0.0,0.0
578,144.25,55.2014,58.9749,139.3,101.047,103.635,0.00145525,0.0497068,21.0232,-362.552,-0.222834,0.0,0.0
580,144.75,55.0364,59.8739,138.769,101.054,102.371,0.00144014,0.0496818,21.0234,-362.552,-0.114068,0.0,0.0
582,145.25,55.3471,58.7023,137.573,101.066,102.296,0.00142791,0.0496069,21.0236,-362.552,-0.106588,0.0,0.0
584,145.75,54.7555,59.2789,135.424,101.082,103.663,0.00142166,0.0495463,21.0237,-362.542,-0.222167,0.0,0.0
586,146.25,55.1215,59.2762,140.452,101.093,103.274,0.00141661,0.0494971,21.0238,-362.552,-0.188096,0.0,0.0
588,146.75,54.3794,59.2523,139.44,101.105,103.082,,0.0494574,,-362.552,-0.170669,0.0,0.0
590,147.25,54.6572,58.8335,139.869,101.108,103.012,,0.0493978,,-362.552,-0.164406,0.0,0.0
592,147.75,54.5062,58.8667,138.353,101.122,102.596,,0.0493496,,-362.552,-0.127511,0.0,0.0
594,148.25,54.7475,58.0758,139.715,101.123,103.603,,0.0492832,,-362.542,-0.213579,0.0,0.0
596,148.75,55.0089,58.2705,139.565,101.14,103.475,,0.0492294,,-362.552,-0.201099,0.0,0.0
598,149.25,54.3403,58.5806,138.243,101.14,102.839,,0.0491714,,-362.552,-0.146821,0.0,0.0
600,149.75,54.3884,58.3813,139.849,101.171,102.912,,,,-362.552,-0.150376,0.0,0.0
602,150.25,55.1514,58.922,138.246,101.163,103.295,,,,-362.552,-0.183773,0.0,0.0
604,150.75,54.767,58.3102,141.178,101.178,102.839,,,,-362.542,-0.14346,0.0,0.0
606,151.25,54.4405,57.5896,136.217,101.178,103.225,,,,-362.542,-0.176505,0.0,0.0
608,151.75,54.3574,57.7348,140.735,101.194,102.476,,,,-362.532,-0.110965,0.0,0.0
610,152.25,54.3678,58.003,136.902,101.195,102.575,,,,-362.532,-0.119354,0.0,0.0
612,152.75,53.9785,58.2696,140.938,101.211,104.007,,,,-362.532,-0.240189,0.0,0.0
614,153.25,53.7052,58.0454,143.32,101.214,102.761,,,,-362.522,-0.133691,0.0,0.0
616,153.75,54.1578,57.5578,137.074,101.226,103.529,,,,-362.542,-0.198229,0.0,0.0
618,154.25,53.8472,57.2358,139.822,101.23,102.989,,,,-362.522,-0.151765,0.0,0.0
620,154.75,53.6247,57.3521,140.01,101.244,103.133,,,,-362.532,-0.162871,0.0,0.0
622,155.25,54.2678,57.5895,140.655,101.25,103.054,,,,-362.532,-0.155709,0.0,0.0
624,155.75,53.728,57.7693,140.764,101.262,102.813,,,,-362.542,-0.133964,0.0,0.0
626,156.25,54.1185,57.6703,136.102,101.268,102.976,,,,-362.542,-0.147387,0.0,0.0
628,156.75,54.0671,57.5659,143.277,101.284,102.926,,,,-362.552,-0.141742,0.0,0.0
630,157.25,53.9119,56.9381,136.27,101.285,103.451,,,,-362.532,-0.186549,0.0,0.0