File: 01_Data/Cotton_Ball/STA/N2/3K_min/Cotton_Ball_STA_N2_3KData_210713_R1.csv
##Temp./Â°C,Time/min,Mass loss(subtr.2)/mg,DSC(subtr.2)/(mW/mg),Sensit./(uV/mW)
48.937,10.01,-0.03477,0.01333288,0.58411
49.637,12.238,-0.03499019,0.02562701,0.58444
50.337,12.87975,-0.03619813,0.03040115,0.58477
51.037,13.3919,-0.0340141,0.0353355,0.5851
51.737,13.8391,-0.03723956,0.03418861,0.58543
52.437,14.24955,-0.03883826,0.03865116,0.58575
53.137,14.63441,-0.03936148,0.04118451,0.58608
53.837,14.99795,-0.03915791,0.04280387,0.5864
54.537,15.3444,-0.03926834,0.0439164,0.58673
55.237,15.67774,-0.03816678,0.04939695,0.58705
55.937,15.9999,-0.03914921,0.04810501,0.58737
56.637,16.31371,-0.04727272,0.05124618,0.58769
57.337,16.61897,-0.03140144,0.04854489,0.588
58.037,16.91666,-0.04077623,0.05236862,0.58832
58.737,17.2094,-0.04233212,0.05535546,0.58863
59.437,17.4952,-0.04231823,0.05861491,0.58895
60.137,17.77665,-0.04233606,0.05981536,0.58926
60.837,18.05401,-0.04167696,0.05978975,0.58957
61.537,18.3285,-0.04433665,0.06129274,0.58988
62.237,18.59948,-0.04431924,0.06023136,0.59019
62.937,18.8669,-0.04669391,0.0621705,0.5905
63.637,19.1315,-0.04697463,0.06318648,0.5908
64.337,19.3937,-0.04693975,0.06354258,0.59111
65.037,19.65397,-0.04957846,0.06518213,0.59141
65.737,19.9127,-0.0482601,0.06203586,0.59171
66.437,20.16832,-0.05011889,0.06283014,0.59202
67.137,20.42297,-0.05149853,0.06397092,0.59231
67.837,20.6763,-0.05268423,0.06550796,0.59261
68.537,20.9289,-0.05148657,0.06504849,0.59291
69.237,21.18094,-0.05276203,0.06371941,0.59321
69.937,21.4318,-0.05414397,0.06437213,0.5935
70.637,21.67994,-0.05307977,0.06387276,0.59379
71.337,21.92698,-0.05690435,0.06811487,0.59409
72.037,22.1731,-0.05749701,0.0672908,0.59438
72.737,22.4181,-0.05844557,0.0679677,0.59467
73.437,22.66254,-0.05747,0.07010355,0.59495
74.137,22.9064,-0.05903535,0.07067068,0.59524
74.837,23.14965,-0.05911018,0.07093091,0.59553
75.537,23.39246,-0.06174908,0.07436194,0.59581
76.237,23.63472,-0.06241014,0.07545389,0.59609
76.937,23.8763,-0.06389216,0.0738746,0.59637
77.637,24.1175,-0.06517577,0.0720975,0.59665
78.337,24.3579,-0.06495306,0.07556545,0.59693
79.037,24.5977,-0.06504,0.07778421,0.59721
79.737,24.83709,-0.0676689,0.07683561,0.59749
80.437,25.07585,-0.06708301,0.07564722,0.59776
81.137,25.31428,-0.06997842,0.07541636,0.59804
81.837,25.5518,-0.06832864,0.0752752,0.59831
82.537,25.7892,-0.07119242,0.07291091,0.59858
83.237,26.02575,-0.07124111,0.07336064,0.59885
83.937,26.26231,-0.07150992,0.07310107,0.59912
84.637,26.49803,-0.07252141,0.07348702,0.59939
85.337,26.7328,-0.07106617,0.07244272,0.59965
86.037,26.9673,-0.07503277,0.07019365,0.59992
86.737,27.2009,-0.07470001,0.07425309,0.60018
87.437,27.43485,-0.07451365,0.07150088,0.60044
88.137,27.6688,-0.07722013,0.07218857,0.6007
88.837,27.9026,-0.07799655,0.0743857,0.60096
89.537,28.1352,-0.08061348,0.07230429,0.60122
90.237,28.3668,-0.08029007,0.06746231,0.60148
90.937,28.59993,-0.08127552,0.07096145,0.60173
91.637,28.83287,-0.07996423,0.06905998,0.60199
92.337,29.06483,-0.08155695,0.06846528,0.60224
93.037,29.29445,-0.08425773,0.06744052,0.60249
93.737,29.5239,-0.08467113,0.06666536,0.60274
94.437,29.7525,-0.08698428,0.06806998,0.60299
95.137,29.9817,-0.08676321,0.06483932,0.60324
95.837,30.2113,-0.08675812,0.06220725,0.60349
96.537,30.44088,-0.0872,0.06715756,0.60373
97.237,30.67,-0.08995249,0.07020803,0.60398
97.937,30.89798,-0.09213806,0.06442554,0.60422
98.637,31.12592,-0.08945381,0.06416902,0.60446
99.337,31.35424,-0.09084237,0.06715925,0.6047
100.037,31.58215,-0.09179133,0.06410463,0.60494
100.737,31.8103,-0.09170485,0.06440585,0.60518
101.437,32.03864,-0.09146464,0.06617678,0.60541
102.137,32.26733,-0.09272354,0.06564486,0.60565
102.837,32.49497,-0.09507453,0.06504173,0.60588
103.537,32.72221,-0.09960322,0.06616804,0.60611
104.237,32.94927,-0.09864593,0.06310351,0.60634
104.937,33.17666,-0.09550529,0.06360373,0.60657
105.637,33.4037,-0.09044548,0.06160116,0.6068
106.337,33.63043,-0.09776767,0.0632951,0.60703
107.037,33.85653,-0.09888502,0.0607438,0.60725
107.737,34.08258,-0.0988121,0.05974518,0.60748
108.437,34.30938,-0.1034,0.06045704,0.6077
109.137,34.53654,-0.10645,0.05942128,0.60792
109.837,34.76388,-0.09299342,0.06194615,0.60814
110.537,34.99,-0.08303567,0.0592685,0.60836
111.237,35.21638,-0.10037,0.05715108,0.60858
111.937,35.4423,-0.10177,0.05701351,0.6088
112.637,35.66895,-0.10199,0.05485443,0.60901
113.337,35.89456,-0.10023,0.05601246,0.60923
114.037,36.1204,-0.10322,0.05566289,0.60944
114.737,36.34594,-0.10222,0.05635528,0.60965
115.437,36.57168,-0.10453,0.05654618,0.60986
116.137,36.7969,-0.10453,0.05507104,0.61007
116.837,37.02192,-0.10581,0.05169633,0.61028
117.537,37.24743,-0.10433,0.05522887,0.61048
118.237,37.47398,-0.10453,0.05356943,0.61069
118.937,37.7005,-0.10713,0.05238489,0.61089
119.637,37.9268,-0.10573,0.05019137,0.61109
120.337,38.15215,-0.10584,0.05475601,0.61129
121.037,38.3782,-0.10403,0.05382758,0.61149
121.737,38.6037,-0.10485,0.05477513,0.61169
122.437,38.82975,-0.10716,0.05399321,0.61189
123.137,39.05513,-0.10722,0.05392304,0.61209
123.837,39.28069,-0.10453,0.05342917,0.61228
124.537,39.5061,-0.10623,0.05385114,0.61247
125.237,39.73087,-0.10946,0.05095679,0.61266
125.937,39.95539,-0.11079,0.05404771,0.61286
126.637,40.18002,-0.11001,0.05317646,0.61304
127.337,40.4049,-0.11002,0.0521102,0.61323
128.037,40.63004,-0.10904,0.05078717,0.61342
128.737,40.85491,-0.11133,0.05192846,0.6136
129.437,41.07943,-0.11002,0.05406862,0.61379
130.137,41.3035,-0.11002,0.04947088,0.61397
130.837,41.52682,-0.11002,0.04861657,0.61415
131.537,41.7509,-0.11065,0.04948015,0.61433
132.237,41.97508,-0.11065,0.05072404,0.61451
132.937,42.19957,-0.11462,0.05308787,0.61469
133.637,42.4234,-0.1121,0.05006153,0.61486
134.337,42.64717,-0.11291,0.05065786,0.61504
135.037,42.87014,-0.11319,0.0501381,0.61521
135.737,43.0929,-0.11319,0.04962703,0.61539
136.437,43.31601,-0.11027,0.05151929,0.61556
137.137,43.5395,-0.11392,0.05309743,0.61573
137.837,43.7633,-0.11583,0.0518057,0.61589
138.537,43.98661,-0.11448,0.0508441,0.61606
139.237,44.2089,-0.11221,0.04958128,0.61623
139.937,44.43085,-0.11638,0.05324721,0.61639
140.637,44.6528,-0.11638,0.05488758,0.61655
141.337,44.87466,-0.11769,0.05344343,0.61672
142.037,45.0967,-0.11521,0.05099757,0.61688
142.737,45.31868,-0.11657,0.05659817,0.61704
143.437,45.54142,-0.11659,0.05487631,0.61719
144.137,45.76328,-0.11656,0.05175252,0.61735
144.837,45.9842,-0.12018,0.05333887,0.61751
145.537,46.20514,-0.11758,0.05138377,0.61766
146.237,46.4257,-0.11821,0.04909253,0.61781
146.937,46.64758,-0.11634,0.05085999,0.61796
147.637,46.86826,-0.11548,0.05031561,0.61811
148.337,47.09005,-0.11725,0.05062661,0.61826
149.037,47.31119,-0.11725,0.04995993,0.61841
149.737,47.53252,-0.11856,0.05157373,0.61856
150.437,47.75288,-0.11868,0.05225754,0.6187
151.137,47.97322,-0.11826,0.0534092,0.61885
151.837,48.19388,-0.11523,0.05293305,0.61899
152.537,48.41355,-0.12049,0.05308028,0.61913
153.237,48.6334,-0.11906,0.05291694,0.61927
153.937,48.85362,-0.12011,0.05160414,0.61941
154.637,49.07435,-0.12075,0.0523211,0.61955
155.337,49.29487,-0.11944,0.05364657,0.61968
156.037,49.5149,-0.11934,0.05070216,0.61982
156.737,49.73445,-0.12062,0.05565379,0.61995
157.437,49.9542,-0.12076,0.05543707,0.62008
158.137,50.17481,-0.12076,0.05513188,0.62021
158.837,50.39577,-0.12344,0.05636279,0.62034
159.537,50.61728,-0.12208,0.05467011,0.62047
160.237,50.83818,-0.12142,0.06044751,0.6206
160.937,51.058,-0.12227,0.05969438,0.62072
161.637,51.27731,-0.12142,0.05689809,0.62085
162.337,51.49651,-0.12139,0.05854889,0.62097
163.037,51.71672,-0.12252,0.05747407,0.62109
163.737,51.93676,-0.12121,0.0611272,0.62121
164.437,52.1563,-0.12295,0.05925106,0.62133
165.137,52.37545,-0.12196,0.06024043,0.62145
165.837,52.5947,-0.1217,0.06050636,0.62156
166.537,52.8138,-0.12164,0.05933386,0.62168
167.237,53.0332,-0.12292,0.06049519,0.62179
167.937,53.2527,-0.12295,0.06006712,0.62191
168.637,53.4724,-0.12032,0.06114064,0.62202
169.337,53.69214,-0.12088,0.0588665,0.62213
170.037,53.9123,-0.12669,0.06420528,0.62224
170.737,54.1322,-0.1212,0.06127793,0.62234
171.437,54.3517,-0.12272,0.06388872,0.62245
172.137,54.5712,-0.12274,0.06410662,0.62255
172.837,54.79121,-0.12459,0.06220525,0.62266
173.537,55.01098,-0.12491,0.06043152,0.62276
174.237,55.231,-0.12329,0.05861579,0.62286
174.937,55.45058,-0.12648,0.06138905,0.62296
175.637,55.6708,-0.1245,0.06503751,0.62306
176.337,55.8905,-0.12307,0.06346481,0.62316
177.037,56.11,-0.1245,0.06155309,0.62325
177.737,56.3294,-0.12548,0.06476386,0.62335
178.437,56.54843,-0.12625,0.06580938,0.62344
179.137,56.7676,-0.1245,0.06780172,0.62353
179.837,56.9871,-0.12381,0.06692612,0.62362
180.537,57.20649,-0.12383,0.06797362,0.62371
181.237,57.4266,-0.12844,0.06973636,0.6238
181.937,57.64524,-0.1258,0.0690197,0.62389
182.637,57.8641,-0.12549,0.07043206,0.62397
183.337,58.0837,-0.12548,0.07267705,0.62406
184.037,58.3036,-0.12678,0.06921397,0.62414
184.737,58.52284,-0.12691,0.06967741,0.62422
185.437,58.7417,-0.12683,0.07138178,0.6243
186.137,58.9603,-0.12581,0.0674037,0.62438
186.837,59.17946,-0.12725,0.06686984,0.62446
187.537,59.399,-0.1272,0.0715458,0.62454
188.237,59.6176,-0.12657,0.06691245,0.62461
188.937,59.8371,-0.12616,0.06847248,0.62469
189.637,60.05672,-0.12855,0.06858487,0.62476
190.337,60.27681,-0.12778,0.06562685,0.62483
191.037,60.49606,-0.12976,0.06829425,0.6249
191.737,60.7148,-0.12796,0.06936589,0.62497
192.437,60.93314,-0.12691,0.07086665,0.62504
193.137,61.1523,-0.12821,0.06806239,0.62511
193.837,61.37152,-0.12696,0.07218105,0.62517
194.537,61.59121,-0.12822,0.07065101,0.62524
195.237,61.8102,-0.12691,0.07407688,0.6253
195.937,62.029,-0.1278,0.07344046,0.62536
196.637,62.2476,-0.12723,0.07077504,0.62542
197.337,62.4663,-0.1272,0.07085905,0.62548
198.037,62.68504,-0.12685,0.07031494,0.62554
198.737,62.904,-0.12798,0.06960751,0.62559
199.437,63.1228,-0.12921,0.07036743,0.62565
200.137,63.3416,-0.12928,0.07172442,0.6257
200.837,63.56,-0.12921,0.07352718,0.62575
201.537,63.7789,-0.12789,0.07437697,0.62581
202.237,63.99742,-0.12933,0.07205785,0.62586
202.937,64.21637,-0.12888,0.07210906,0.62591
203.637,64.4353,-0.12883,0.07205496,0.62595
204.337,64.65419,-0.13152,0.07402269,0.626
205.037,64.87301,-0.12756,0.07572074,0.62604
205.737,65.09181,-0.13019,0.07592447,0.62609
206.437,65.31076,-0.13119,0.07764499,0.62613
207.137,65.52975,-0.12855,0.07874128,0.62617
207.837,65.74843,-0.13086,0.08174558,0.62621
208.537,65.96678,-0.13217,0.07723282,0.62625
209.237,66.18481,-0.1335,0.07891473,0.62629
209.937,66.40304,-0.13335,0.08090109,0.62632
210.637,66.6216,-0.13441,0.07872534,0.62636
211.337,66.8405,-0.13469,0.08097083,0.62639
212.037,67.05972,-0.13336,0.08007137,0.62643
212.737,67.2787,-0.1328,0.08453892,0.62646
213.437,67.49799,-0.1348,0.08269368,0.62649
214.137,67.71701,-0.13348,0.08145983,0.62652
214.837,67.9358,-0.13604,0.0816946,0.62654
215.537,68.15477,-0.13611,0.08363828,0.62657
216.237,68.3739,-0.13623,0.0830915,0.6266
216.937,68.59305,-0.1375,0.08372741,0.62662
217.637,68.81178,-0.13903,0.0851188,0.62664
218.337,69.03004,-0.14007,0.0814804,0.62666
219.037,69.24817,-0.1376,0.08491538,0.62668
219.737,69.46575,-0.13403,0.08556701,0.6267
220.437,69.6837,-0.13677,0.08407162,0.62672
221.137,69.90201,-0.13854,0.08637095,0.62674
221.837,70.12069,-0.13996,0.08870287,0.62675
222.537,70.34005,-0.13788,0.09020863,0.62677
223.237,70.55922,-0.13921,0.09120747,0.62678
223.937,70.7786,-0.1393,0.09071999,0.62679
224.637,70.99706,-0.14204,0.08867944,0.6268
225.337,71.21562,-0.14115,0.09117309,0.62681
226.037,71.4341,-0.14106,0.08882457,0.62682
226.737,71.65358,-0.14336,0.08932889,0.62682
227.437,71.87255,-0.14334,0.08958726,0.62683
228.137,72.0919,-0.14467,0.091715,0.62683
228.837,72.31048,-0.14534,0.09373255,0.62684
229.537,72.529,-0.14689,0.09204062,0.62684
230.237,72.74752,-0.15005,0.09000726,0.62684
230.937,72.96604,-0.1483,0.09070907,0.62684
231.637,73.1847,-0.14962,0.09178758,0.62683
232.337,73.40301,-0.15093,0.09305506,0.62683
233.037,73.6221,-0.15207,0.09617375,0.62683
233.737,73.84189,-0.15224,0.09640726,0.62682
234.437,74.06178,-0.15504,0.09882781,0.62681
235.137,74.28111,-0.1547,0.09716227,0.62681
235.837,74.5009,-0.15609,0.09690034,0.6268
236.537,74.72075,-0.15774,0.09816733,0.62679
237.237,74.94038,-0.15906,0.09827897,0.62677
237.937,75.15971,-0.15906,0.10204,0.62676
238.637,75.37872,-0.16191,0.1021,0.62675
239.337,75.59747,-0.16166,0.10346,0.62673
240.037,75.81658,-0.16663,0.09885333,0.62671
240.737,76.03583,-0.16629,0.10153,0.6267
241.437,76.25505,-0.17017,0.10153,0.62668
242.137,76.47442,-0.16838,0.09943086,0.62666
242.837,76.69317,-0.17067,0.10269,0.62664
243.537,76.91248,-0.17492,0.10456,0.62661
244.237,77.1316,-0.17462,0.10155,0.62659
244.937,77.35114,-0.17747,0.09931045,0.62656
245.637,77.5702,-0.17846,0.10014,0.62654
246.337,77.7891,-0.18044,0.09945072,0.62651
247.037,78.00758,-0.18327,0.09933835,0.62648
247.737,78.22609,-0.18472,0.09979009,0.62645
248.437,78.44473,-0.18748,0.09830617,0.62642
249.137,78.66375,-0.19146,0.10148,0.62639
249.837,78.88328,-0.19435,0.09933798,0.62635
250.537,79.10271,-0.19438,0.0979999,0.62632
251.237,79.32186,-0.20023,0.09468432,0.62628
251.937,79.54096,-0.20149,0.10184,0.62625
252.637,79.7597,-0.20412,0.10228,0.62621
253.337,79.9785,-0.20686,0.09949979,0.62617
254.037,80.19723,-0.2096,0.09857991,0.62613
254.737,80.41671,-0.21534,0.09908663,0.62609
255.437,80.63592,-0.21607,0.09860119,0.62604
256.137,80.85393,-0.22381,0.09888326,0.626
256.837,81.07265,-0.22341,0.09800691,0.62595
257.537,81.2912,-0.22913,0.09794117,0.62591
258.237,81.51134,-0.23177,0.09759257,0.62586
258.937,81.7308,-0.237,0.09545735,0.62581
259.637,81.9503,-0.24032,0.09380225,0.62576
260.337,82.16923,-0.24425,0.09526348,0.62571
261.037,82.3886,-0.24887,0.09274417,0.62566
261.737,82.60809,-0.25581,0.08984521,0.6256
262.437,82.8278,-0.26092,0.09388242,0.62555
263.137,83.0476,-0.26226,0.08582634,0.62549
263.837,83.2666,-0.26914,0.08936437,0.62543
264.537,83.48589,-0.27453,0.08983804,0.62538
265.237,83.70476,-0.27449,0.08813741,0.62532
265.937,83.9251,-0.28836,0.08558924,0.62526
266.637,84.1447,-0.29245,0.08695746,0.62519
267.337,84.3652,-0.29951,0.08874947,0.62513
268.037,84.5852,-0.30589,0.08414084,0.62507
268.737,84.8056,-0.31056,0.08777228,0.625
269.437,85.0253,-0.31851,0.08528825,0.62493
270.137,85.24497,-0.32572,0.08509153,0.62487
270.837,85.46467,-0.33467,0.08534,0.6248
271.537,85.6845,-0.34129,0.08390489,0.62473
272.237,85.90374,-0.34799,0.08183643,0.62466
272.937,86.12265,-0.359,0.08102383,0.62458
273.637,86.34164,-0.36496,0.08189832,0.62451
274.337,86.5615,-0.37294,0.08096561,0.62444
275.037,86.7812,-0.38411,0.08293178,0.62436
275.737,87.00076,-0.39315,0.08021833,0.62428
276.437,87.2204,-0.40379,0.08080088,0.6242
277.137,87.44022,-0.41506,0.08107795,0.62413
277.837,87.66,-0.42383,0.08250769,0.62404
278.537,87.87941,-0.43193,0.08326221,0.62396
279.237,88.09931,-0.4436,0.08151653,0.62388
279.937,88.31939,-0.4586,0.08341763,0.6238
280.637,88.53913,-0.46648,0.08225542,0.62371
281.337,88.75888,-0.48195,0.08290052,0.62363
282.037,88.97811,-0.492,0.08043146,0.62354
282.737,89.19829,-0.50388,0.08151073,0.62345
283.437,89.4182,-0.51928,0.08092345,0.62336
284.137,89.63837,-0.53068,0.08039809,0.62327
284.837,89.85806,-0.543,0.08080419,0.62318
285.537,90.07765,-0.56155,0.07815764,0.62308
286.237,90.29703,-0.57329,0.0772506,0.62299
286.937,90.51698,-0.58793,0.07713447,0.62289
287.637,90.73731,-0.60418,0.07672507,0.6228
288.337,90.95738,-0.6202,0.07742421,0.6227
289.037,91.17769,-0.63723,0.07640767,0.6226
289.737,91.39783,-0.65467,0.07798227,0.6225
290.437,91.61806,-0.67302,0.07616562,0.6224
291.137,91.83821,-0.69201,0.07691349,0.6223
291.837,92.05835,-0.70865,0.07803354,0.6222
292.537,92.27825,-0.72898,0.07582667,0.62209
293.237,92.49884,-0.74933,0.07734589,0.62199
293.937,92.71882,-0.76834,0.07258424,0.62188
294.637,92.93994,-0.7892,0.07562019,0.62177
295.337,93.16006,-0.82374,0.0779541,0.62166
296.037,93.3805,-0.83337,0.07263772,0.62155
296.737,93.60116,-0.85434,0.0716471,0.62144
297.437,93.82172,-0.88256,0.07295471,0.62133
298.137,94.042,-0.90812,0.0740998,0.62122
298.837,94.26297,-0.93469,0.07159064,0.6211
299.537,94.48397,-0.96311,0.07172657,0.62099
300.237,94.7051,-0.99121,0.06870701,0.62087
300.937,94.92615,-1.01826,0.06844623,0.62075
301.637,95.14596,-1.04791,0.06750288,0.62063
302.337,95.36681,-1.0805,0.0664081,0.62051
303.037,95.587,-1.10964,0.06748245,0.62039
303.737,95.80855,-1.14553,0.06666997,0.62027
304.437,96.0296,-1.1814,0.06863444,0.62015
305.137,96.2514,-1.21779,0.07123158,0.62002
305.837,96.47287,-1.24886,0.06604769,0.6199
306.537,96.69404,-1.29077,0.06664169,0.61977
307.237,96.9149,-1.33083,0.06602452,0.61964
307.937,97.13507,-1.3657,0.06548523,0.61952
308.637,97.3552,-1.41294,0.06628068,0.61939
309.337,97.57563,-1.45435,0.06663194,0.61926
310.037,97.79695,-1.501,0.06414774,0.61912
310.737,98.0184,-1.54497,0.06542102,0.61899
311.437,98.23925,-1.59101,0.06545595,0.61886
312.137,98.46005,-1.63785,0.06620488,0.61872
312.837,98.6815,-1.68536,0.06440468,0.61859
313.537,98.90325,-1.73429,0.06449149,0.61845
314.237,99.12493,-1.78235,0.06815822,0.61831
314.937,99.3464,-1.8406,0.07101497,0.61817
315.637,99.5673,-1.88679,0.07070246,0.61803
316.337,99.7881,-1.94085,0.07024548,0.61789
317.037,100.009,-1.99295,0.07348984,0.61775
317.737,100.229,-2.04521,0.07431784,0.6176
318.437,100.451,-2.09723,0.07724953,0.61746
319.137,100.673,-2.15316,0.07950412,0.61731
319.837,100.8955,-2.20717,0.08431048,0.61716
320.537,101.118,-2.2581,0.08640399,0.61702
321.237,101.34,-2.31441,0.08738545,0.61687
321.937,101.5618,-2.36628,0.08677422,0.61672
322.637,101.784,-2.41682,0.09181289,0.61657
323.337,102.006,-2.47029,0.09880332,0.61641
324.037,102.229,-2.52273,0.09988291,0.61626
324.737,102.45,-2.57203,0.10031,0.61611
325.437,102.672,-2.62199,0.10206,0.61595
326.137,102.894,-2.66785,0.10659,0.61579
326.837,103.118,-2.71623,0.10607,0.61564
327.537,103.34,-2.76165,0.10988,0.61548
328.237,103.562,-2.80356,0.10847,0.61532
328.937,103.784,-2.84861,0.11016,0.61516
329.637,104.006,-2.88925,0.10927,0.615
330.337,104.228,-2.92192,0.11065,0.61483
331.037,104.45,-2.96584,0.10976,0.61467
331.737,104.6726,-3.0035,0.10908,0.6145
332.437,104.895,-3.03611,0.10824,0.61434
333.137,105.117,-3.07175,0.10366,0.61417
333.837,105.34,-3.10862,0.10405,0.614
334.537,105.563,-3.13393,0.10353,0.61384
335.237,105.785,-3.16237,0.09795355,0.61367
335.937,106.007,-3.19214,0.09753212,0.61349
336.637,106.23,-3.21643,0.0961806,0.61332
337.337,106.453,-3.23702,0.09140955,0.61315
338.037,106.676,-3.2652,0.0895444,0.61298
338.737,106.899,-3.28515,0.08216441,0.6128
339.437,107.122,-3.3024,0.08096181,0.61262
340.137,107.345,-3.32204,0.07514402,0.61245
340.837,107.567,-3.33795,0.07111037,0.61227
341.537,107.788,-3.35424,0.06782821,0.61209
342.237,108.011,-3.3701,0.06529671,0.61191
342.937,108.233,-3.38103,0.06102702,0.61173
343.637,108.456,-3.39755,0.05753253,0.61155
344.337,108.678,-3.41008,0.05433017,0.61136
345.037,108.9,-3.4155,0.05450655,0.61118
345.737,109.122,-3.42503,0.05091122,0.61099
346.437,109.344,-3.43416,0.04750026,0.61081
347.137,109.567,-3.44283,0.0466753,0.61062
347.837,109.788,-3.45425,0.04414016,0.61043
348.537,110.01,-3.45798,0.04235716,0.61024
349.237,110.232,-3.46639,0.03810454,0.61005
349.937,110.456,-3.47156,0.03714785,0.60986
350.637,110.679,-3.46879,0.0391882,0.60967
351.337,110.903,-3.48217,0.03782876,0.60948
352.037,111.126,-3.48635,0.0344095,0.60928
352.737,111.35,-3.49087,0.0340925,0.60909
353.437,111.5739,-3.4949,0.0364374,0.60889
354.137,111.798,-3.49712,0.03461956,0.60869
354.837,112.022,-3.50123,0.03336316,0.6085
355.537,112.246,-3.50385,0.03376248,0.6083
356.237,112.47,-3.50797,0.03582112,0.6081
356.937,112.693,-3.50975,0.03250817,0.6079
357.637,112.917,-3.51543,0.03793506,0.60769
358.337,113.14,-3.5171,0.03633338,0.60749
359.037,113.364,-3.52057,0.03588378,0.60729
359.737,113.587,-3.52454,0.03475317,0.60708
360.437,113.811,-3.52719,0.03474552,0.60688
361.137,114.034,-3.53104,0.03155164,0.60667
361.837,114.259,-3.53244,0.03025868,0.60646
362.537,114.483,-3.53545,0.03108815,0.60625
363.237,114.708,-3.53913,0.03112957,0.60604
363.937,114.932,-3.54341,0.03155849,0.60583
364.637,115.155,-3.54473,0.03208414,0.60562
365.337,115.378,-3.54966,0.03117077,0.60541
366.037,115.602,-3.55208,0.0283342,0.60519
366.737,115.8259,-3.55329,0.02889821,0.60498
367.437,116.05,-3.55734,0.02504056,0.60476
368.137,116.274,-3.5614,0.0239442,0.60455
368.837,116.499,-3.56271,0.02502891,0.60433
369.537,116.724,-3.56664,0.025529,0.60411
370.237,116.948,-3.56791,0.02513252,0.60389
370.937,117.172,-3.56962,0.02427262,0.60367
371.637,117.397,-3.57514,0.02174377,0.60345
372.337,117.622,-3.57634,0.02309542,0.60323
373.037,117.847,-3.57905,0.02249285,0.60301
373.737,118.071,-3.58235,0.02277393,0.60278
374.437,118.295,-3.58583,0.021411,0.60256
375.137,118.519,-3.58695,0.0241363,0.60233
375.837,118.744,-3.59134,0.02175799,0.60211
376.537,118.968,-3.59127,0.0227338,0.60188
377.237,119.192,-3.59674,0.02414471,0.60165
377.937,119.417,-3.59872,0.02537455,0.60142
378.637,119.643,-3.60077,0.02612666,0.60119
379.337,119.869,-3.60319,0.02353717,0.60096
380.037,120.0954,-3.60716,0.02290647,0.60073
380.737,120.321,-3.60802,0.02170563,0.60049
381.437,120.545,-3.60935,0.02230884,0.60026
382.137,120.7706,-3.61382,0.0222102,0.60002
382.837,120.9951,-3.61933,0.02195159,0.59979
383.537,121.22,-3.61799,0.01852216,0.59955
384.237,121.444,-3.62189,0.02219649,0.59931
384.937,121.669,-3.62457,0.02343245,0.59907
385.637,121.894,-3.62591,0.02478165,0.59883
386.337,122.12,-3.62853,0.02120462,0.59859
387.037,122.346,-3.62984,0.0134123,0.59835
387.737,122.572,-3.6351,0.01305585,0.59811
388.437,122.797,-3.63653,0.01442806,0.59787
389.137,123.0231,-3.63783,0.01200573,0.59762
389.837,123.249,-3.64045,0.008694117,0.59738
390.537,123.474,-3.64062,0.00775938,0.59713
391.237,123.7,-3.64794,0.004126653,0.59689
391.937,123.926,-3.64795,0.00206799,0.59664
392.637,124.151,-3.65036,0.00903555,0.59639
393.337,124.377,-3.6531,0.006677672,0.59614
394.037,124.602,-3.65474,0.007730506,0.59589
394.737,124.828,-3.65598,0.00767106,0.59564
395.437,125.053,-3.66143,0.008750036,0.59539
396.137,125.28,-3.66275,0.00873188,0.59513
396.837,125.507,-3.6667,0.00648937,0.59488
397.537,125.732,-3.66621,0.01684626,0.59462
398.237,125.958,-3.66937,0.01638021,0.59437
398.937,126.183,-3.67339,0.01839572,0.59411
399.637,126.41,-3.67269,0.02059714,0.59386
400.337,126.636,-3.67646,0.01646576,0.5936
401.037,126.8615,-3.67834,0.01315413,0.59334
401.737,127.087,-3.68237,0.02388024,0.59308
402.437,127.313,-3.68457,0.0302266,0.59282
403.137,127.54,-3.6849,0.03605124,0.59256
403.837,127.767,-3.68861,0.03393515,0.59229
404.537,127.994,-3.69015,0.03430283,0.59203
405.237,128.2217,-3.69315,0.03420679,0.59177
405.937,128.449,-3.69346,0.0366951,0.5915
406.637,128.676,-3.69861,0.03450914,0.59124
407.337,128.902,-3.69787,0.03549882,0.59097
408.037,129.129,-3.70136,0.03536207,0.5907
408.737,129.3567,-3.70363,0.03746909,0.59043
409.437,129.584,-3.70691,0.03401385,0.59016
410.137,129.81,-3.70804,0.03347845,0.58989
410.837,130.036,-3.70996,0.03910557,0.58962
411.537,130.263,-3.71341,0.03548387,0.58935
412.237,130.488,-3.71355,0.0326456,0.58908
412.937,130.713,-3.71642,0.03534683,0.5888
413.637,130.9385,-3.7188,0.0346251,0.58853
414.337,131.165,-3.72283,0.03545449,0.58826
415.037,131.391,-3.72508,0.03326971,0.58798
415.737,131.617,-3.72538,0.03256499,0.5877
416.437,131.844,-3.72614,0.03282459,0.58743
417.137,132.072,-3.73088,0.03175852,0.58715
417.837,132.3,-3.73403,0.0328638,0.58687
418.537,132.527,-3.73364,0.03391081,0.58659
419.237,132.7537,-3.73525,0.03696037,0.58631
419.937,132.98,-3.74084,0.03395274,0.58603
420.637,133.207,-3.74348,0.03332102,0.58574
421.337,133.434,-3.74315,0.03594576,0.58546
422.037,133.661,-3.74612,0.03631724,0.58518
422.737,133.888,-3.74867,0.03538258,0.58489
423.437,134.116,-3.74963,0.03611691,0.58461
424.137,134.344,-3.75298,0.03730624,0.58432
424.837,134.572,-3.75511,0.03974949,0.58403
425.537,134.8004,-3.75554,0.03853044,0.58374
426.237,135.028,-3.75828,0.03770737,0.58345
426.937,135.256,-3.7596,0.03691156,0.58317
427.637,135.484,-3.76113,0.03613397,0.58287
428.337,135.711,-3.76629,0.03572521,0.58258
429.037,135.939,-3.76925,0.03604932,0.58229
429.737,136.167,-3.76827,0.03595685,0.582
430.437,136.395,-3.77068,0.03840607,0.58171
431.137,136.6222,-3.77397,0.038036,0.58141
431.837,136.85,-3.77604,0.03550898,0.58112
432.537,137.078,-3.77654,0.03728755,0.58082
433.237,137.3058,-3.77945,0.04150512,0.58052
433.937,137.534,-3.7797,0.04614228,0.58023
434.637,137.763,-3.78417,0.04786577,0.57993
435.337,137.991,-3.78424,0.04554506,0.57963
436.037,138.219,-3.78823,0.04630983,0.57933
436.737,138.447,-3.79048,0.04510426,0.57903
437.437,138.676,-3.79218,0.04640798,0.57873
438.137,138.906,-3.79316,0.04137268,0.57843
438.837,139.136,-3.79592,0.04377058,0.57812
439.537,139.365,-3.79645,0.0435638,0.57782
440.237,139.595,-3.79834,0.04113547,0.57751
440.937,139.823,-3.80139,0.04623588,0.57721
441.637,140.052,-3.80188,0.04292502,0.5769
442.337,140.281,-3.80403,0.04596493,0.5766
443.037,140.51,-3.80666,0.04554465,0.57629
443.737,140.739,-3.80807,0.04394732,0.57598
444.437,140.968,-3.80938,0.04379302,0.57567
445.137,141.197,-3.80923,0.04159438,0.57536
445.837,141.426,-3.81319,0.04561604,0.57505
446.537,141.656,-3.81521,0.04632069,0.57474
447.237,141.886,-3.81617,0.04554204,0.57443
447.937,142.115,-3.81653,0.04944339,0.57412
448.637,142.345,-3.81785,0.04653461,0.5738
449.337,142.574,-3.81868,0.04941542,0.57349
450.037,142.802,-3.81947,0.05073194,0.57318
450.737,143.031,-3.82048,0.04828421,0.57286
451.437,143.26,-3.82442,0.04526905,0.57254
452.137,143.489,-3.82444,0.04572012,0.57223
452.837,143.717,-3.82706,0.0427125,0.57191
453.537,143.947,-3.82721,0.04308305,0.57159
454.237,144.176,-3.83009,0.04576566,0.57127
454.937,144.406,-3.83147,0.04718963,0.57095
455.637,144.635,-3.8367,0.04854597,0.57063
456.337,144.864,-3.83671,0.05442224,0.57031
457.037,145.092,-3.83639,0.05520845,0.56999
457.737,145.321,-3.83955,0.05643193,0.56967
458.437,145.5505,-3.83722,0.05752165,0.56934
459.137,145.781,-3.84274,0.05757191,0.56902
459.837,146.012,-3.84228,0.05702808,0.5687
460.537,146.2429,-3.84451,0.05584065,0.56837
461.237,146.473,-3.84593,0.05710165,0.56804
461.937,146.702,-3.84867,0.05511845,0.56772
462.637,146.931,-3.84991,0.05370201,0.56739
463.337,147.161,-3.85141,0.0516331,0.56706
464.037,147.39,-3.85076,0.05367608,0.56673
464.737,147.62,-3.85404,0.04990459,0.5664
465.437,147.85,-3.85535,0.05295434,0.56607
466.137,148.0803,-3.8568,0.05434897,0.56574
466.837,148.31,-3.85601,0.05091649,0.56541
467.537,148.541,-3.86018,0.05018489,0.56508
468.237,148.772,-3.86013,0.04748069,0.56475
468.937,149.004,-3.86272,0.04859713,0.56441
469.637,149.235,-3.86276,0.04643921,0.56408
470.337,149.465,-3.86412,0.04492834,0.56374
471.037,149.694,-3.86621,0.04395748,0.56341
471.737,149.923,-3.86995,0.04330008,0.56307
472.437,150.153,-3.86505,0.04311896,0.56273
473.137,150.383,-3.87046,0.04520657,0.5624
473.837,150.614,-3.87125,0.03964523,0.56206
474.537,150.844,-3.87257,0.03533174,0.56172
475.237,151.076,-3.87362,0.03275689,0.56138
475.937,151.306,-3.87552,0.03078742,0.56104
476.637,151.537,-3.87521,0.02845089,0.5607
477.337,151.7682,-3.8795,0.02536861,0.56036
478.037,151.999,-3.87935,0.02847603,0.56002
478.737,152.23,-3.87938,0.02886125,0.55967
479.437,152.461,-3.8807,0.02955238,0.55933
480.137,152.693,-3.88301,0.0315494,0.55899
480.837,152.925,-3.88377,0.03329802,0.55864
481.537,153.157,-3.88731,0.03407768,0.5583
482.237,153.387,-3.88771,0.0286896,0.55795
482.937,153.617,-3.88772,0.02587958,0.5576
483.637,153.847,-3.88639,0.02742768,0.55726
484.337,154.077,-3.8921,0.02343371,0.55691
485.037,154.3089,-3.89088,0.02345404,0.55656
485.737,154.5408,-3.89195,0.02318098,0.55621
486.437,154.772,-3.89178,0.02253811,0.55586
487.137,155.0032,-3.89715,0.02179456,0.55551
487.837,155.234,-3.89604,0.01952354,0.55516
488.537,155.464,-3.89552,0.01433002,0.55481
489.237,155.696,-3.89999,0.01952124,0.55446
489.937,155.927,-3.90048,0.01726547,0.5541
490.637,156.158,-3.89879,0.01724225,0.55375
491.337,156.3898,-3.90274,0.01327033,0.55339
492.037,156.622,-3.90629,0.008315628,0.55304
492.737,156.855,-3.90416,0.005304237,0.55269
493.437,157.088,-3.90811,0.005482422,0.55233
494.137,157.32,-3.9068,0.009868794,0.55197
494.837,157.552,-3.90954,0.009647596,0.55162
495.537,157.784,-3.90723,0.007070133,0.55126
496.237,158.015,-3.9119,0.00529941,0.5509
496.937,158.247,-3.90976,0.00884876,0.55054
497.637,158.48,-3.91105,0.009536575,0.55018
498.337,158.712,-3.91097,0.01024123,0.54982
499.037,158.944,-3.91337,0.01209956,0.54946
499.737,159.176,-3.91295,0.00989434,0.5491
500.437,159.407,-3.91722,0.01130432,0.54874
501.137,159.6392,-3.91723,0.01125204,0.54838
501.837,159.871,-3.91722,0.01439291,0.54801
502.537,160.102,-3.91952,0.01094097,0.54765
503.237,160.332,-3.92107,0.01241244,0.54729
503.937,160.564,-3.92112,0.0155165,0.54692
504.637,160.796,-3.92226,0.01421085,0.54656
505.337,161.029,-3.92073,0.0133326,0.54619
506.037,161.262,-3.92205,0.01370965,0.54582
506.737,161.496,-3.92336,0.01555727,0.54546
507.437,161.729,-3.92332,0.01833534,0.54509
508.137,161.962,-3.92194,0.01890298,0.54472
508.837,162.196,-3.92544,0.01746715,0.54435
509.537,162.429,-3.92588,0.01591262,0.54398
510.237,162.6615,-3.92588,0.02174131,0.54361
510.937,162.8943,-3.92717,0.02135112,0.54324
511.637,163.126,-3.92842,0.02431815,0.54287
512.337,163.358,-3.92918,0.02343665,0.5425
513.037,163.59,-3.92918,0.02266725,0.54213
513.737,163.823,-3.93222,0.02515182,0.54176
514.437,164.055,-3.92983,0.02506235,0.54138
515.137,164.287,-3.93146,0.03093419,0.54101
515.837,164.52,-3.93411,0.02751534,0.54064
516.537,164.753,-3.9316,0.03091614,0.54026
517.237,164.986,-3.93829,0.02946067,0.53989
517.937,165.219,-3.93565,0.03277583,0.53951
518.637,165.453,-3.93571,0.03777463,0.53913
519.337,165.687,-3.93367,0.03502468,0.53876
520.037,165.921,-3.93663,0.03818449,0.53838
520.737,166.155,-3.93265,0.04050449,0.538
521.437,166.388,-3.93807,0.03354591,0.53762
522.137,166.621,-3.94121,0.0355698,0.53725
522.837,166.855,-3.93949,0.03158928,0.53687
523.537,167.089,-3.94047,0.0171802,0.53649
524.237,167.324,-3.94047,0.01826361,0.53611
524.937,167.558,-3.94014,0.01342695,0.53573
525.637,167.793,-3.93915,0.01784738,0.53534
526.337,168.027,-3.94323,0.01609774,0.53496
527.037,168.26,-3.94498,0.01382222,0.53458
527.737,168.492,-3.9438,0.01673749,0.5342
528.437,168.724,-3.9476,0.01669802,0.53381
529.137,168.958,-3.94628,0.02487481,0.53343
529.837,169.19,-3.94727,0.01776929,0.53305
530.537,169.422,-3.94729,0.02236531,0.53266
531.237,169.6537,-3.95132,0.02077791,0.53228
531.937,169.886,-3.95001,0.01872188,0.53189
532.637,170.121,-3.95395,0.0231046,0.5315
533.337,170.356,-3.9502,0.02508769,0.53112
534.037,170.592,-3.9528,0.02082111,0.53073
534.737,170.826,-3.95145,0.02267476,0.53034
535.437,171.06,-3.95287,0.02317128,0.52995
536.137,171.295,-3.95547,0.02483329,0.52956
536.837,171.53,-3.95297,0.02429111,0.52918
537.537,171.765,-3.95365,0.02336766,0.52879
538.237,171.999,-3.95495,0.02341568,0.5284
538.937,172.234,-3.95458,0.02597392,0.528
539.637,172.468,-3.95727,0.02764565,0.52761
540.337,172.702,-3.9566,0.02304154,0.52722
541.037,172.936,-3.95642,0.02934502,0.52683
541.737,173.17,-3.95737,0.02680684,0.52644
542.437,173.403,-3.95963,0.02666869,0.52604
543.137,173.635,-3.96042,0.02860733,0.52565
543.837,173.868,-3.96102,0.02986651,0.52526
544.537,174.1022,-3.95824,0.02829753,0.52486
545.237,174.337,-3.95824,0.02991749,0.52447
545.937,174.572,-3.96131,0.02777394,0.52407
546.637,174.806,-3.96261,0.02858674,0.52368
547.337,175.042,-3.96273,0.03103591,0.52328
548.037,175.277,-3.96145,0.03056785,0.52288
548.737,175.512,-3.96384,0.02911574,0.52249
549.437,175.746,-3.96449,0.03058681,0.52209
550.137,175.981,-3.96362,0.03031525,0.52169
550.837,176.216,-3.96496,0.03115088,0.52129
551.537,176.451,-3.96613,0.02669014,0.52089
552.237,176.686,-3.96614,0.02420298,0.5205
552.937,176.921,-3.96713,0.02723827,0.5201
553.637,177.155,-3.96713,0.02829885,0.5197
554.337,177.389,-3.96713,0.02754104,0.5193
555.037,177.624,-3.96713,0.02568971,0.51889
555.737,177.86,-3.96834,0.02696071,0.51849
556.437,178.097,-3.9675,0.02891383,0.51809
557.137,178.335,-3.96866,0.02800088,0.51769
557.837,178.571,-3.97129,0.02832002,0.51729
558.537,178.807,-3.96997,0.02574462,0.51688
559.237,179.042,-3.97261,0.02461622,0.51648
559.937,179.279,-3.97248,0.02393876,0.51608
560.637,179.516,-3.97103,0.02846154,0.51567
561.337,179.753,-3.97394,0.02912833,0.51527
562.037,179.988,-3.97349,0.02833991,0.51486
562.737,180.2233,-3.9725,0.03072394,0.51446
563.437,180.458,-3.97251,0.03210486,0.51405
564.137,180.692,-3.97579,0.02956394,0.51365
564.837,180.926,-3.97612,0.03409649,0.51324
565.537,181.16,-3.97634,0.03373597,0.51283
566.237,181.395,-3.97766,0.03335076,0.51242
566.937,181.631,-3.97766,0.03581104,0.51202
567.637,181.867,-3.97741,0.03042485,0.51161
568.337,182.102,-3.97601,0.03301316,0.5112
569.037,182.338,-3.9747,0.03720654,0.51079
569.737,182.574,-3.97736,0.0374861,0.51038
570.437,182.809,-3.97667,0.03902599,0.50997
571.137,183.043,-3.97978,0.03815328,0.50956
571.837,183.277,-3.97769,0.03533794,0.50915
572.537,183.512,-3.97623,0.03892609,0.50874
573.237,183.749,-3.97894,0.0377058,0.50833
573.937,183.986,-3.98006,0.0412173,0.50792
574.637,184.222,-3.978,0.04183513,0.5075
575.337,184.4591,-3.98116,0.0395419,0.50709
576.037,184.6967,-3.97886,0.04174968,0.50668
576.737,184.934,-3.97996,0.04454782,0.50627
577.437,185.171,-3.98007,0.04103172,0.50585
578.137,185.4072,-3.98138,0.04132102,0.50544
578.837,185.643,-3.98533,0.04024196,0.50503
579.537,185.878,-3.98314,0.04005591,0.50461
580.237,186.115,-3.98139,0.03953131,0.5042
580.937,186.352,-3.98265,0.0393219,0.50378
581.637,186.59,-3.98544,0.03694039,0.50337
582.337,186.827,-3.98531,0.03940887,0.50295
583.037,187.063,-3.98673,0.03887059,0.50253
583.737,187.299,-3.98545,0.03943453,0.50212
584.437,187.537,-3.98517,0.0394849,0.5017
585.137,187.774,-3.98538,0.03764555,0.50128
585.837,188.011,-3.98807,0.04223327,0.50086
586.537,188.248,-3.98545,0.04114176,0.50045
587.237,188.485,-3.98778,0.04119774,0.50003
587.937,188.722,-3.9861,0.0428883,0.49961
588.637,188.959,-3.99005,0.03977786,0.49919
589.337,189.196,-3.98723,0.04357278,0.49877
590.037,189.432,-3.98764,0.03989712,0.49835
590.737,189.668,-3.98875,0.04124708,0.49793
591.437,189.905,-3.98762,0.04329158,0.49751
592.137,190.143,-3.98698,0.0406317,0.49709
592.837,190.38,-3.9906,0.04195643,0.49667
593.537,190.616,-3.98796,0.04386801,0.49625
594.237,190.853,-3.98998,0.04007841,0.49583
594.937,191.09,-3.99071,0.0419061,0.49541
595.637,191.326,-3.9895,0.03881246,0.49498
596.337,191.562,-3.99081,0.04316769,0.49456
597.037,191.8,-3.98817,0.04057683,0.49414
597.737,192.038,-3.99148,0.03968431,0.49372
598.437,192.278,-3.99574,0.03460832,0.49329
599.137,192.518,-3.99233,0.04139699,0.49287
599.837,192.758,-3.99096,0.04125528,0.49244
600.537,192.996,-3.99082,0.03812289,0.49202
601.237,193.233,-3.9928,0.03537836,0.4916
601.937,193.47,-3.99314,0.03204673,0.49117
602.637,193.707,-3.99468,0.03517501,0.49075
603.337,193.945,-3.99652,0.03316571,0.49032
604.037,194.182,-3.99246,0.0308302,0.48989
604.737,194.42,-3.99696,0.03171223,0.48947
605.437,194.657,-3.99575,0.03228824,0.48904
606.137,194.893,-3.99443,0.0335122,0.48862
606.837,195.13,-3.99312,0.03515379,0.48819
607.537,195.368,-3.9971,0.03220498,0.48776
608.237,195.605,-3.99575,0.03387215,0.48733
608.937,195.844,-3.99421,0.03851304,0.48691
609.637,196.083,-3.99319,0.03484192,0.48648
610.337,196.323,-3.99455,0.03538529,0.48605
611.037,196.563,-3.99586,0.03984861,0.48562
611.737,196.802,-3.99376,0.03500495,0.48519
612.437,197.039,-3.99705,0.03169471,0.48476
613.137,197.277,-3.99695,0.03456403,0.48433
613.837,197.515,-3.99364,0.03568226,0.4839
614.537,197.753,-3.99981,0.03337596,0.48347
615.237,197.991,-3.99729,0.03217269,0.48304
615.937,198.23,-3.99663,0.03191808,0.48261
616.637,198.47,-3.99684,0.03194925,0.48218
617.337,198.709,-3.99519,0.03366222,0.48175
618.037,198.948,-3.99803,0.03685152,0.48132
618.737,199.1862,-3.99535,0.03388759,0.48089
619.437,199.424,-3.99778,0.03276647,0.48046
620.137,199.662,-3.99618,0.03501283,0.48003
620.837,199.8997,-3.99674,0.02799493,0.4796
621.537,200.138,-3.99674,0.03054219,0.47916
622.237,200.376,-3.997,0.02643887,0.47873
622.937,200.614,-3.99686,0.0278025,0.4783
623.637,200.852,-3.99583,0.0268821,0.47786
624.337,201.0902,-3.99849,0.02537078,0.47743
625.037,201.328,-3.99751,0.02234056,0.477
625.737,201.565,-3.99882,0.01997283,0.47656
626.437,201.804,-3.99692,0.01896588,0.47613
627.137,202.044,-3.99751,0.01722113,0.4757
627.837,202.283,-3.99883,0.01444329,0.47526
628.537,202.522,-3.99749,0.0194791,0.47483
629.237,202.761,-3.99883,0.017159,0.47439
629.937,202.999,-3.99619,0.01800638,0.47396
630.637,203.237,-3.99796,0.01158087,0.47352
631.337,203.476,-3.99707,0.00808703,0.47309
632.037,203.714,-3.9991,0.00701059,0.47265
632.737,203.953,-3.9984,0.01006138,0.47221
633.437,204.193,-3.99718,0.003727463,0.47178
634.137,204.434,-3.99779,-0.001318243,0.47134
634.837,204.675,-4.00108,-0.006121151,0.47091
635.537,204.916,-3.99709,-0.005597271,0.47047
636.237,205.157,-3.99967,-0.01086689,0.47003
636.937,205.395,-3.99925,-0.0103815,0.4696
637.637,205.633,-3.9997,-0.00949172,0.46916
638.337,205.87,-3.99871,-0.01536345,0.46872
639.037,206.107,-4.00003,-0.01244959,0.46828
639.737,206.344,-4.00041,-0.01706143,0.46784
640.437,206.581,-3.99937,-0.02113072,0.46741
641.137,206.8196,-3.99906,-0.01510051,0.46697
641.837,207.058,-3.99773,-0.01490828,0.46653
642.537,207.298,-4.00047,-0.01333299,0.46609
643.237,207.538,-3.99982,-0.01742153,0.46565
643.937,207.778,-3.99949,-0.01881629,0.46521
644.637,208.019,-3.99855,-0.01434753,0.46477
645.337,208.2579,-4.00088,-0.00787464,0.46433
646.037,208.497,-4.00263,-0.00644539,0.4639
646.737,208.737,-4.00257,-0.00439839,0.46346
647.437,208.978,-4.00124,-0.00686855,0.46302
648.137,209.219,-3.9986,-0.01148657,0.46258
648.837,209.458,-3.99956,-0.005273853,0.46214
649.537,209.6961,-3.99938,-0.01460177,0.46169
650.237,209.935,-4.00049,-0.01728727,0.46125
650.937,210.174,-4.00178,-0.0151531,0.46081
651.637,210.414,-4.00169,-0.01902314,0.46037
652.337,210.653,-4.00298,-0.01530666,0.45993
653.037,210.893,-4.00228,-0.01529656,0.45949
653.737,211.133,-4.00312,-0.01451203,0.45905
654.437,211.373,-4.00016,-0.01887865,0.45861
655.137,211.612,-4.00277,-0.01606495,0.45817
655.837,211.851,-4.0031,-0.01840107,0.45772
656.537,212.09,-4.00409,-0.01703709,0.45728
657.237,212.331,-4.00409,-0.01982068,0.45684
657.937,212.5716,-4.00167,-0.01747087,0.4564
658.637,212.813,-4.00232,-0.01990803,0.45595
659.337,213.054,-4.00357,-0.02383971,0.45551
660.037,213.294,-4.00311,-0.02315082,0.45507
660.737,213.534,-4.00447,-0.02168998,0.45463
661.437,213.773,-4.0075,-0.02403632,0.45418
662.137,214.012,-4.01283,-0.02070966,0.45374
662.837,214.251,-4.00442,-0.02521511,0.4533
663.537,214.489,-4.00548,-0.03044158,0.45285
664.237,214.728,-4.00376,-0.02494963,0.45241
664.937,214.968,-4.00475,-0.02556032,0.45197
665.637,215.208,-4.00506,-0.02147132,0.45152
666.337,215.449,-4.00518,-0.0252999,0.45108
667.037,215.689,-4.00518,-0.02409893,0.45063
667.737,215.93,-4.00322,-0.0224274,0.45019
668.437,216.171,-4.00387,-0.01954864,0.44975
669.137,216.412,-4.00948,-0.02678605,0.4493
669.837,216.653,-4.00455,-0.02523844,0.44886
670.537,216.8945,-4.00585,-0.02265507,0.44841
671.237,217.136,-4.00608,-0.01849146,0.44797
671.937,217.3776,-4.0047,-0.02538978,0.44752
672.637,217.619,-4.0075,-0.02456041,0.44708
673.337,217.859,-4.00748,-0.0210203,0.44663
674.037,218.098,-4.00618,-0.01929518,0.44619
674.737,218.339,-4.01295,-0.03187504,0.44574
675.437,218.5797,-4.00694,-0.02550004,0.4453
676.137,218.821,-4.0076,-0.02770162,0.44485
676.837,219.0606,-4.00695,-0.02723184,0.44441
677.537,219.3005,-4.00956,-0.02446642,0.44396
678.237,219.541,-4.00596,-0.02249221,0.44351
678.937,219.782,-4.00675,-0.02474928,0.44307
679.637,220.023,-4.00815,-0.02661375,0.44262
680.337,220.264,-4.00804,-0.02351519,0.44218
681.037,220.504,-4.00805,-0.02568822,0.44173
681.737,220.743,-4.00901,-0.02444369,0.44128
682.437,220.984,-4.00989,-0.0299082,0.44084
683.137,221.227,-4.00946,-0.03556295,0.44039
683.837,221.4706,-4.00727,-0.03257706,0.43994
684.537,221.713,-4.01001,-0.04030536,0.4395
685.237,221.953,-4.00869,-0.04247613,0.43905
685.937,222.193,-4.00959,-0.04605896,0.4386
686.637,222.432,-4.00906,-0.05049085,0.43816
687.337,222.67,-4.0087,-0.0501056,0.43771
688.037,222.909,-4.00738,-0.05418813,0.43726
688.737,223.149,-4.00895,-0.05378388,0.43682
689.437,223.39,-4.01002,-0.05256422,0.43637
690.137,223.632,-4.0087,-0.05151245,0.43592
690.837,223.874,-4.00869,-0.0533174,0.43547
691.537,224.1158,-4.01001,-0.05082843,0.43503
692.237,224.357,-4.01011,-0.05049333,0.43458
692.937,224.599,-4.01002,-0.04951264,0.43413
693.637,224.84,-4.00991,-0.04161162,0.43368
694.337,225.082,-4.00858,-0.04132867,0.43324
695.037,225.324,-4.00847,-0.04060746,0.43279
695.737,225.567,-4.01027,-0.03993877,0.43234
696.437,225.81,-4.01188,-0.04373579,0.43189
697.137,226.052,-4.00661,-0.04133144,0.43145
697.837,226.293,-4.00933,-0.04398211,0.431
698.537,226.533,-4.00939,-0.04555829,0.43055
699.237,226.774,-4.01116,-0.04431198,0.4301
699.937,227.016,-4.00917,-0.04335159,0.42965
700.637,227.26,-4.00768,-0.0358173,0.42921
701.337,227.502,-4.00904,-0.0445725,0.42876
702.037,227.743,-4.01043,-0.04537508,0.42831
702.737,227.982,-4.00954,-0.04215513,0.42786
703.437,228.222,-4.01045,-0.03845602,0.42741
704.137,228.462,-4.01165,-0.03783103,0.42696
704.837,228.704,-4.01035,-0.03983287,0.42652
705.537,228.946,-4.00968,-0.04202269,0.42607
706.237,229.187,-4.01166,-0.03919953,0.42562
706.937,229.43,-4.01101,-0.04040884,0.42517
707.637,229.6726,-4.00902,-0.03282553,0.42472
708.337,229.916,-4.01015,-0.03453906,0.42427
709.037,230.16,-4.00946,-0.02789149,0.42383
709.737,230.403,-4.01083,-0.01638522,0.42338
710.437,230.645,-4.00986,-0.02103618,0.42293
711.137,230.8866,-4.01227,-0.01943149,0.42248
711.837,231.127,-4.01101,-0.0194134,0.42203
712.537,231.368,-4.01246,-0.02266293,0.42158
713.237,231.608,-4.0111,-0.01284568,0.42113
713.937,231.85,-4.0098,-0.01950743,0.42069
714.637,232.093,-4.00755,-0.024029,0.42024
715.337,232.336,-4.01034,-0.01552851,0.41979
716.037,232.579,-4.00967,-0.01357217,0.41934
716.737,232.821,-4.011,-0.01215845,0.41889
717.437,233.062,-4.01051,-0.01435251,0.41844
718.137,233.304,-4.01187,-0.01005811,0.41799
718.837,233.547,-4.01056,-0.01196008,0.41755
719.537,233.79,-4.01319,-0.01070345,0.4171
720.237,234.033,-4.00927,-0.01661329,0.41665
720.937,234.276,-4.01056,-0.01626244,0.4162
721.637,234.517,-4.01061,-0.02203217,0.41575
722.337,234.76,-4.01034,-0.02012578,0.4153
723.037,235.003,-4.01032,-0.01793266,0.41485
723.737,235.248,-4.01067,-0.01612582,0.4144
724.437,235.4932,-4.01486,-0.01472452,0.41396
725.137,235.738,-4.01202,-0.01191581,0.41351
725.837,235.981,-4.01166,-0.01307065,0.41306
726.537,236.223,-4.01181,-0.009744235,0.41261
727.237,236.466,-4.01171,-0.01247217,0.41216
727.937,236.708,-4.01342,-0.01114681,0.41171
728.637,236.951,-4.01363,-0.008829449,0.41126
729.337,237.193,-4.01363,-0.0140392,0.41082
730.037,237.435,-4.01239,-0.01697747,0.41037
730.737,237.678,-4.01374,-0.009987299,0.40992
731.437,237.922,-4.01341,-0.008282806,0.40947
732.137,238.164,-4.0111,-0.00389826,0.40902
732.837,238.4055,-4.01232,-0.007439239,0.40857
733.537,238.647,-4.01366,-0.003551955,0.40812
734.237,238.89,-4.01363,-0.00605254,0.40768
734.937,239.132,-4.01214,-0.003556964,0.40723
735.637,239.374,-4.01307,-0.004168028,0.40678
736.337,239.616,-4.01572,-0.005204684,0.40633
737.037,239.859,-4.0138,-0.002751886,0.40588
737.737,240.103,-4.01439,-0.004906473,0.40543
738.437,240.3458,-4.01363,-0.00315606,0.40499
739.137,240.588,-4.01495,-0.004353381,0.40454
739.837,240.832,-4.01363,0.006763612,0.40409
740.537,241.075,-4.01697,0.007603927,0.40364
741.237,241.319,-4.0144,0.01271899,0.40319
741.937,241.562,-4.0144,0.012289,0.40274
742.637,241.807,-4.01564,0.01402378,0.4023
743.337,242.052,-4.01309,0.01477057,0.40185
744.037,242.295,-4.01572,0.01774097,0.4014
744.737,242.539,-4.01648,0.01668884,0.40095
745.437,242.782,-4.01588,0.01785796,0.40051
746.137,243.025,-4.0144,0.02377719,0.40006
746.837,243.268,-4.01593,0.0336508,0.39961
746.937,243.303,-4.01552,0.02837031,0.39955