File: 01_Data/Fiberglass_Insulation1/MCC/Fiberglass_Insulation1_MCC_30K_min_220124_R2.txt
Sample ID:	C:\MCC\MCC Cal\Test\Fiberglas_Inaulation1_MCC_30K_min_220124_R2.txt
Sample Weight (mg):	4.78
Heating Rate (C/s):	0.5
Combustor Temp (C):	900
N2 Flow Rate (cc/min):	80
O2 Flow Rate (cc/min):	20
Calibration File:	C:\MCC\MCC Cal\Coeff1 JN10440_30_210304.txt.txt
T Correction Coefficients:	0	1.024463	0
Time Shift (s):	14
*
Time (s)	Temperature (C)	N2 flow rate (cc/min)	O2 flow rate (cc/min)	Flow Rate (cc/min)	Oxygen (%)	HRR (W/g)	Heating rate (C/s)
-0.001	113.134	80.005	19.993	103.752	20.131	0.223	-0.019
1.999	113.144	80.005	19.994	103.748	20.137	-0.163	0.008
3.999	113.175	80.006	19.997	103.750	20.133	0.098	0.037
6.000	113.168	80.008	19.995	103.745	20.132	0.141	0.017
7.999	113.140	79.992	19.997	103.744	20.134	0.032	-0.021
9.999	113.148	79.992	19.994	103.736	20.132	0.126	0.018
11.999	113.100	80.016	19.994	103.743	20.132	0.120	-0.022
13.999	113.105	80.014	19.993	103.771	20.130	0.315	-0.032
15.999	113.139	80.013	19.994	103.789	20.126	0.536	0.012
17.999	113.130	80.011	19.994	103.811	20.126	0.574	-0.018
20.000	113.176	80.011	19.992	103.836	20.121	0.876	-0.008
21.999	113.269	80.021	19.992	103.854	20.119	1.058	0.053
23.999	113.279	80.003	19.994	103.847	20.117	1.191	-0.008
25.999	113.410	79.997	19.992	103.819	20.120	0.964	0.014
27.999	113.503	80.013	19.993	103.828	20.118	1.086	0.077
29.999	113.630	79.987	19.995	103.828	20.118	1.083	0.060
31.999	113.798	80.011	19.993	103.805	20.119	1.010	0.067
33.999	113.921	80.006	19.994	103.807	20.123	0.755	0.062
35.999	114.073	80.010	19.994	103.792	20.119	1.027	0.072
37.999	114.188	80.005	19.997	103.828	20.119	0.997	0.064
40.000	114.397	80.005	19.994	103.835	20.115	1.282	0.113
41.999	114.569	80.006	19.994	103.864	20.115	1.329	0.086
43.999	114.739	80.007	19.994	103.873	20.110	1.638	0.065
45.999	114.976	80.006	19.997	103.899	20.110	1.646	0.073
47.999	115.206	80.006	19.995	103.907	20.108	1.790	0.127
49.999	115.478	80.005	19.994	103.879	20.108	1.766	0.123
52.000	115.745	80.011	19.992	103.883	20.107	1.864	0.106
53.999	116.020	80.006	19.992	103.870	20.108	1.765	0.148
56.000	116.330	80.015	19.993	103.869	20.111	1.577	0.135
57.999	116.637	80.002	19.993	103.869	20.113	1.470	0.119
59.999	116.941	80.002	19.994	103.868	20.113	1.432	0.137
61.999	117.300	80.004	19.995	103.882	20.112	1.477	0.153
63.999	117.637	80.001	19.993	103.904	20.112	1.504	0.148
65.999	117.992	79.998	19.993	103.898	20.107	1.851	0.179
67.999	118.358	80.003	19.993	103.906	20.106	1.946	0.157
69.999	118.743	80.004	19.993	103.909	20.106	1.931	0.189
71.999	119.135	80.011	19.992	103.910	20.106	1.880	0.203
73.999	119.586	80.006	19.993	103.909	20.108	1.760	0.190
75.999	120.005	80.010	19.993	103.923	20.107	1.835	0.211
77.999	120.465	80.013	19.992	103.937	20.104	2.055	0.212
79.999	120.920	80.005	19.993	103.941	20.101	2.239	0.232
81.999	121.378	80.008	19.993	103.942	20.101	2.262	0.210
83.999	121.901	80.007	19.993	103.946	20.098	2.425	0.268
85.999	122.436	80.009	19.994	103.955	20.100	2.346	0.292
87.999	122.962	80.006	19.993	103.952	20.097	2.538	0.254
89.999	123.543	80.008	19.995	103.964	20.096	2.568	0.287
91.999	124.105	80.008	19.993	103.972	20.098	2.457	0.311
93.999	124.703	80.007	19.994	103.977	20.095	2.639	0.316
95.999	125.303	80.007	19.994	103.982	20.094	2.711	0.308
97.999	125.951	80.004	19.995	103.982	20.092	2.865	0.296
99.999	126.609	80.007	19.993	103.980	20.090	2.969	0.346
101.999	127.305	80.016	19.993	103.975	20.096	2.611	0.323
103.999	127.983	80.010	19.993	103.976	20.094	2.750	0.325
105.999	128.669	80.011	19.994	103.974	20.094	2.754	0.342
107.999	129.396	80.009	19.994	103.982	20.091	2.935	0.368
109.999	130.138	80.006	19.993	103.983	20.091	2.903	0.382
111.999	130.857	80.005	19.994	103.989	20.094	2.709	0.352
113.999	131.604	80.005	19.995	103.983	20.096	2.608	0.377
115.999	132.409	80.008	19.993	103.986	20.093	2.811	0.424
117.999	133.157	80.008	19.993	103.987	20.094	2.741	0.364
119.999	133.952	80.008	19.992	104.001	20.092	2.844	0.380
121.999	134.742	80.009	19.993	103.980	20.091	2.912	0.390
123.999	135.596	80.004	19.994	103.986	20.091	2.908	0.452
125.999	136.428	80.004	19.994	103.985	20.093	2.814	0.402
127.999	137.270	80.007	19.995	103.986	20.092	2.839	0.438
129.999	138.131	80.006	19.993	103.986	20.092	2.846	0.414
131.999	138.998	80.004	19.995	103.987	20.094	2.713	0.442
133.999	139.890	80.004	19.995	103.983	20.090	3.008	0.427
135.999	140.747	80.008	19.994	103.982	20.090	3.019	0.435
137.999	141.628	80.004	19.993	103.984	20.089	3.062	0.428
139.999	142.522	80.005	19.993	103.984	20.091	2.946	0.436
141.999	143.472	80.006	19.992	103.982	20.091	2.901	0.504
143.999	144.398	80.004	19.993	103.987	20.094	2.743	0.445
145.999	145.277	80.006	19.994	103.984	20.092	2.863	0.449
147.999	146.213	80.005	19.993	103.988	20.093	2.809	0.466
149.999	147.149	80.009	19.994	103.986	20.097	2.542	0.496
151.999	148.087	80.008	19.993	103.994	20.094	2.698	0.450
153.999	149.058	80.007	19.992	103.988	20.094	2.696	0.501
155.999	150.001	80.008	19.993	103.983	20.093	2.816	0.498
157.999	150.973	80.007	19.993	103.984	20.094	2.743	0.482
159.999	151.929	80.008	19.992	103.984	20.097	2.553	0.461
161.999	152.900	80.010	19.993	103.983	20.091	2.912	0.499
163.999	153.879	80.010	19.994	103.987	20.100	2.296	0.486
165.999	154.846	80.006	19.994	103.983	20.095	2.632	0.508
167.999	155.759	80.003	19.996	103.982	20.092	2.884	0.451
169.999	156.759	80.004	19.994	103.980	20.092	2.839	0.503
171.999	157.774	80.008	19.994	103.983	20.095	2.638	0.511
173.999	158.747	80.000	19.993	103.984	20.098	2.459	0.457
175.999	159.735	80.006	19.992	103.971	20.096	2.568	0.503
177.999	160.703	80.000	19.997	103.980	20.096	2.589	0.536
179.999	161.747	80.010	19.992	103.977	20.097	2.536	0.504
181.999	162.717	80.009	19.993	103.982	20.098	2.455	0.517
183.999	163.698	80.011	19.992	103.986	20.098	2.440	0.489
185.999	164.719	80.010	19.992	103.985	20.096	2.559	0.513
187.999	165.783	80.009	19.992	103.981	20.096	2.623	0.514
189.999	166.788	80.015	19.994	103.985	20.101	2.273	0.536
191.999	167.775	80.010	19.993	103.981	20.099	2.420	0.526
193.999	168.795	79.998	19.994	103.978	20.098	2.436	0.531
195.999	169.788	80.002	19.993	103.982	20.098	2.449	0.521
197.999	170.786	80.000	19.995	103.985	20.096	2.566	0.489
199.999	171.819	80.009	19.995	103.971	20.097	2.534	0.507
201.999	172.806	80.008	19.995	103.979	20.099	2.412	0.482
203.999	173.830	80.006	19.994	103.976	20.097	2.507	0.516
205.999	174.867	80.006	19.993	103.969	20.099	2.398	0.525
207.999	175.840	79.987	19.996	103.961	20.097	2.498	0.511
209.999	176.835	80.006	19.995	103.964	20.100	2.295	0.467
211.999	177.880	80.004	19.993	103.955	20.095	2.637	0.519
213.999	178.882	80.013	19.993	103.949	20.098	2.428	0.509
215.999	179.908	80.008	19.994	103.957	20.099	2.383	0.523
217.999	180.907	80.006	19.994	103.946	20.100	2.351	0.495
219.999	181.946	80.013	19.993	103.945	20.098	2.453	0.502
221.999	182.930	80.006	19.994	103.941	20.097	2.500	0.508
223.999	183.914	80.008	19.994	103.942	20.101	2.254	0.495
225.999	184.928	80.008	19.996	103.947	20.099	2.413	0.484
227.999	185.996	80.005	19.995	103.946	20.100	2.331	0.510
229.999	187.031	80.005	19.995	103.941	20.102	2.165	0.523
232.000	188.017	80.010	19.993	103.943	20.102	2.177	0.503
233.999	189.044	80.008	19.994	103.942	20.100	2.297	0.522
235.999	190.022	80.007	19.994	103.949	20.102	2.205	0.508
237.999	191.064	80.008	19.993	103.948	20.101	2.242	0.504
239.999	192.047	80.009	19.993	103.941	20.102	2.186	0.481
241.999	193.036	80.011	19.993	103.946	20.099	2.407	0.515
243.999	194.076	80.010	19.993	103.946	20.103	2.120	0.517
245.999	195.030	80.008	19.993	103.939	20.099	2.368	0.490
247.999	196.038	80.012	19.993	103.942	20.101	2.238	0.466
249.999	196.997	80.019	19.994	103.949	20.103	2.113	0.475
251.999	197.990	80.007	19.994	103.927	20.100	2.325	0.498
253.999	198.990	80.008	19.994	103.922	20.101	2.233	0.502
255.999	199.982	80.008	19.993	103.939	20.099	2.358	0.492
257.999	201.007	80.009	19.993	103.942	20.100	2.291	0.540
259.999	202.000	80.011	19.992	103.939	20.100	2.296	0.507
261.999	202.973	80.005	19.994	103.932	20.098	2.452	0.492
263.999	203.963	80.028	19.993	103.935	20.100	2.349	0.480
265.999	204.950	80.007	19.993	103.932	20.100	2.315	0.467
268.000	205.936	80.007	19.993	103.934	20.101	2.252	0.474
269.999	206.947	80.008	19.993	103.929	20.102	2.195	0.489
271.999	207.951	80.005	19.992	103.917	20.101	2.283	0.534
273.999	208.906	80.006	19.994	103.921	20.102	2.193	0.513
275.999	209.907	80.009	19.993	103.926	20.100	2.300	0.482
277.999	210.922	80.007	19.992	103.937	20.103	2.144	0.507
279.999	211.884	80.003	19.994	103.935	20.101	2.270	0.506
281.999	212.875	80.012	19.993	103.933	20.101	2.253	0.521
283.999	213.856	80.009	19.993	103.933	20.100	2.319	0.499
285.999	214.854	80.008	19.995	103.934	20.102	2.174	0.493
288.000	215.834	80.005	19.993	103.934	20.101	2.276	0.501
289.999	216.827	80.008	19.993	103.924	20.101	2.236	0.494
291.999	217.780	80.009	19.994	103.912	20.101	2.281	0.484
293.999	218.798	80.005	19.995	103.919	20.099	2.386	0.501
295.999	219.778	80.009	19.995	103.919	20.103	2.148	0.499
297.999	220.715	80.005	19.994	103.926	20.097	2.529	0.470
299.999	221.705	80.007	19.993	103.924	20.096	2.576	0.515
301.999	222.658	80.006	19.995	103.926	20.098	2.450	0.494
303.999	223.668	80.006	19.992	103.923	20.099	2.377	0.478
305.999	224.636	80.009	19.994	103.916	20.098	2.432	0.476
308.000	225.625	80.004	19.994	103.928	20.101	2.277	0.533
309.999	226.640	80.005	19.994	103.926	20.100	2.328	0.497
311.999	227.576	80.005	19.994	103.925	20.100	2.302	0.483
313.999	228.594	80.002	19.995	103.916	20.102	2.185	0.493
315.999	229.608	80.005	19.995	103.930	20.098	2.467	0.519
317.999	230.630	80.004	19.995	103.922	20.099	2.386	0.513
319.999	231.613	80.006	19.995	103.908	20.099	2.360	0.479
321.999	232.587	80.007	19.994	103.924	20.098	2.435	0.467
323.999	233.585	80.007	19.995	103.911	20.104	2.069	0.503
325.999	234.600	80.009	19.994	103.913	20.100	2.302	0.491
327.999	235.598	80.007	19.993	103.916	20.100	2.340	0.519
329.999	236.607	80.009	19.993	103.906	20.102	2.204	0.527
331.999	237.611	80.007	19.993	103.905	20.100	2.315	0.505
333.999	238.571	80.010	19.992	103.909	20.099	2.356	0.501
335.999	239.584	80.009	19.996	103.911	20.098	2.480	0.506
337.999	240.575	80.009	19.997	103.927	20.101	2.285	0.504
339.999	241.565	80.007	19.996	103.921	20.101	2.279	0.495
341.999	242.614	80.009	19.994	103.905	20.100	2.313	0.524
343.999	243.629	80.010	19.993	103.907	20.098	2.439	0.516
345.999	244.603	80.005	19.995	103.905	20.099	2.367	0.515
348.000	245.594	80.012	19.993	103.910	20.098	2.472	0.508
349.999	246.584	80.008	19.994	103.902	20.098	2.450	0.507
351.999	247.578	80.009	19.993	103.902	20.095	2.656	0.504
353.999	248.574	80.010	19.993	103.903	20.096	2.568	0.489
355.999	249.602	80.008	19.993	103.904	20.100	2.345	0.515
357.999	250.624	80.007	19.993	103.903	20.098	2.423	0.501
359.999	251.647	80.008	19.993	103.905	20.094	2.717	0.495
361.999	252.635	80.006	19.993	103.907	20.095	2.647	0.502
364.000	253.625	80.005	19.993	103.908	20.099	2.396	0.501
365.999	254.571	80.004	19.993	103.903	20.097	2.489	0.488
367.999	255.608	80.007	19.993	103.895	20.099	2.380	0.531
369.999	256.627	80.008	19.993	103.905	20.095	2.656	0.504
371.999	257.594	80.007	19.994	103.909	20.094	2.718	0.497
374.000	258.604	80.006	19.992	103.909	20.098	2.459	0.490
375.999	259.593	80.007	19.994	103.911	20.095	2.683	0.454
377.999	260.572	80.008	19.994	103.909	20.097	2.536	0.484
380.000	261.585	80.007	19.995	103.904	20.097	2.497	0.497
381.999	262.598	80.008	19.994	103.905	20.098	2.450	0.529
383.999	263.565	80.007	19.993	103.903	20.096	2.619	0.516
385.999	264.537	80.006	19.994	103.908	20.094	2.696	0.510
387.999	265.559	80.007	19.994	103.906	20.096	2.619	0.509
389.999	266.528	80.007	19.994	103.908	20.095	2.686	0.491
392.000	267.542	80.006	19.994	103.908	20.097	2.549	0.484
393.999	268.519	80.006	19.994	103.901	20.095	2.624	0.479
395.999	269.561	80.007	19.993	103.901	20.095	2.637	0.508
397.999	270.575	80.007	19.993	103.900	20.096	2.583	0.512
400.000	271.567	80.007	19.992	103.899	20.095	2.635	0.508
401.999	272.558	80.006	19.993	103.895	20.096	2.562	0.477
403.999	273.561	80.008	19.994	103.889	20.098	2.483	0.516
405.999	274.538	80.006	19.995	103.891	20.093	2.821	0.483
407.999	275.503	80.008	19.994	103.896	20.095	2.686	0.508
409.999	276.500	80.008	19.994	103.886	20.094	2.746	0.472
411.999	277.467	80.006	19.994	103.887	20.095	2.638	0.487
413.999	278.439	80.007	19.995	103.889	20.094	2.707	0.465
415.999	279.465	80.005	19.995	103.891	20.092	2.885	0.483
417.999	280.442	80.008	19.995	103.892	20.096	2.600	0.495
419.999	281.427	80.007	19.995	103.888	20.093	2.827	0.476
421.999	282.339	80.008	19.993	103.897	20.090	3.007	0.471
423.999	283.388	80.008	19.994	103.901	20.091	2.953	0.500
425.999	284.348	80.009	19.993	103.905	20.087	3.199	0.480
427.999	285.367	80.009	19.992	103.903	20.090	2.970	0.506
429.999	286.420	80.009	19.993	103.902	20.091	2.955	0.517
432.000	287.379	80.009	19.992	103.902	20.089	3.045	0.515
433.999	288.342	80.010	19.993	103.901	20.091	2.928	0.452
436.000	289.370	80.009	19.993	103.905	20.093	2.807	0.495
437.999	290.349	80.008	19.992	103.906	20.095	2.639	0.503
439.999	291.382	80.006	19.995	103.904	20.092	2.838	0.522
441.999	292.423	80.008	19.994	103.905	20.092	2.862	0.507
443.999	293.398	80.001	19.996	103.906	20.093	2.795	0.485
446.000	294.458	80.004	19.992	103.900	20.091	2.941	0.533
447.999	295.491	80.007	19.994	103.900	20.093	2.801	0.513
449.999	296.497	80.005	19.994	103.900	20.094	2.730	0.508
451.999	297.466	80.005	19.994	103.882	20.092	2.876	0.455
453.999	298.512	80.007	19.993	103.886	20.095	2.628	0.487
455.999	299.543	80.007	19.992	103.898	20.095	2.652	0.497
457.999	300.545	80.007	19.993	103.883	20.097	2.551	0.505
459.999	301.585	80.009	19.993	103.901	20.096	2.575	0.516
461.999	302.619	80.007	19.993	103.902	20.101	2.273	0.541
463.999	303.654	80.008	19.992	103.891	20.098	2.470	0.505
465.999	304.628	80.008	19.995	103.897	20.094	2.753	0.497
467.999	305.693	80.005	19.992	103.895	20.094	2.752	0.539
469.999	306.744	80.004	19.994	103.897	20.099	2.403	0.546
471.999	307.699	80.006	19.994	103.893	20.097	2.532	0.465
474.000	308.760	80.005	19.995	103.899	20.095	2.692	0.537
475.999	309.787	80.006	19.994	103.891	20.100	2.326	0.507
477.999	310.827	80.005	19.994	103.884	20.097	2.530	0.548
479.999	311.860	80.008	19.995	103.893	20.098	2.451	0.516
481.999	312.863	80.009	19.994	103.900	20.098	2.464	0.518
483.999	313.875	80.005	19.993	103.892	20.097	2.549	0.507
486.000	314.945	80.008	19.994	103.889	20.098	2.438	0.511
487.999	315.956	80.002	19.995	103.889	20.101	2.245	0.496
489.999	316.976	80.007	19.994	103.869	20.099	2.374	0.505
492.000	318.029	80.007	19.994	103.871	20.099	2.402	0.516
493.999	319.070	80.008	19.993	103.874	20.100	2.348	0.514
495.999	320.041	80.005	19.994	103.870	20.098	2.483	0.486
498.000	321.068	80.007	19.994	103.884	20.096	2.562	0.524
499.999	322.081	80.007	19.993	103.873	20.099	2.382	0.520
501.999	323.102	80.006	19.994	103.879	20.098	2.434	0.519
503.999	324.106	80.009	19.994	103.876	20.095	2.625	0.483
505.999	325.106	80.007	19.995	103.867	20.092	2.849	0.484
508.000	326.127	80.007	19.993	103.868	20.095	2.627	0.514
509.999	327.088	80.008	19.993	103.870	20.096	2.579	0.481
511.999	328.137	80.010	19.994	103.872	20.094	2.708	0.506
513.999	329.110	80.009	19.993	103.871	20.098	2.447	0.487
515.999	330.119	80.007	19.992	103.871	20.099	2.410	0.512
517.999	331.110	80.007	19.992	103.871	20.096	2.560	0.491
519.999	332.134	80.007	19.993	103.872	20.098	2.460	0.502
521.999	333.110	80.008	19.994	103.867	20.097	2.502	0.484
523.999	334.139	80.008	19.993	103.868	20.098	2.460	0.488
525.999	335.147	80.008	19.995	103.866	20.102	2.197	0.549
527.999	336.158	80.007	19.994	103.868	20.102	2.186	0.516
529.999	337.153	80.007	19.993	103.871	20.103	2.119	0.515
531.999	338.161	80.007	19.993	103.867	20.104	2.044	0.515
534.000	339.183	80.007	19.994	103.867	20.102	2.194	0.486
535.999	340.167	80.006	19.993	103.867	20.102	2.173	0.504
537.999	341.142	80.007	19.994	103.866	20.100	2.312	0.487
539.999	342.161	80.007	19.993	103.868	20.104	2.025	0.494
541.999	343.148	80.006	19.994	103.865	20.098	2.426	0.487
543.999	344.167	80.009	19.993	103.865	20.101	2.260	0.528
545.999	345.114	80.006	19.993	103.870	20.100	2.331	0.480
547.999	346.124	80.007	19.993	103.868	20.099	2.370	0.486
550.000	347.094	80.008	19.993	103.867	20.101	2.229	0.481
551.999	348.090	80.007	19.993	103.867	20.100	2.308	0.497
553.999	349.089	80.006	19.992	103.868	20.101	2.282	0.479
555.999	350.089	80.007	19.993	103.873	20.102	2.188	0.526
557.999	351.039	80.007	19.992	103.872	20.100	2.308	0.477
559.999	352.026	80.007	19.993	103.866	20.103	2.141	0.471
561.999	353.040	80.006	19.993	103.858	20.102	2.162	0.507
563.999	354.044	80.007	19.993	103.864	20.101	2.278	0.514
565.999	355.035	80.008	19.994	103.867	20.105	2.002	0.467
567.999	356.017	80.008	19.993	103.865	20.102	2.201	0.462
569.999	357.028	80.008	19.995	103.868	20.102	2.183	0.497
571.999	358.043	80.007	19.995	103.868	20.103	2.141	0.500
574.000	359.043	80.007	19.994	103.864	20.105	1.965	0.475
575.999	360.042	80.007	19.994	103.865	20.105	1.969	0.496
577.999	361.023	80.008	19.993	103.868	20.106	1.903	0.531
579.999	362.052	80.008	19.994	103.873	20.102	2.200	0.500
582.000	363.040	80.007	19.994	103.867	20.101	2.219	0.501
583.999	364.035	80.007	19.993	103.869	20.101	2.269	0.506
585.999	365.067	80.008	19.995	103.866	20.100	2.299	0.523
587.999	366.067	80.006	19.994	103.869	20.101	2.265	0.507
589.999	367.068	80.010	19.994	103.821	20.101	2.229	0.516
591.999	368.097	80.011	19.993	103.844	20.100	2.291	0.510
593.999	369.065	80.009	19.994	103.902	20.102	2.186	0.489
595.999	370.110	80.009	19.994	103.862	20.102	2.184	0.471
597.999	371.096	80.009	19.995	103.864	20.102	2.196	0.473
600.000	372.132	80.006	19.995	103.864	20.103	2.126	0.501
601.999	373.125	80.005	19.995	103.864	20.102	2.211	0.518
603.999	374.148	80.007	19.995	103.865	20.104	2.036	0.498
605.999	375.173	80.006	19.994	103.865	20.101	2.256	0.496
607.999	376.209	80.006	19.993	103.865	20.102	2.210	0.514
609.999	377.209	80.007	19.995	103.862	20.102	2.196	0.522
611.999	378.245	80.006	19.994	103.865	20.098	2.434	0.476
613.999	379.303	80.004	19.993	103.866	20.100	2.348	0.525
615.999	380.327	80.007	19.993	103.864	20.101	2.258	0.510
617.999	381.339	80.007	19.995	103.859	20.104	2.064	0.512
619.999	382.334	80.006	19.996	103.863	20.101	2.228	0.497
621.999	383.371	80.006	19.993	103.867	20.101	2.259	0.512
623.999	384.424	80.004	19.995	103.862	20.102	2.207	0.517
625.999	385.430	80.008	19.993	103.866	20.101	2.224	0.497
627.999	386.435	80.007	19.994	103.870	20.102	2.192	0.505
629.999	387.457	80.007	19.993	103.869	20.101	2.263	0.468
631.999	388.541	80.005	19.994	103.866	20.103	2.100	0.578
633.999	389.481	80.005	19.994	103.868	20.105	1.967	0.499
635.999	390.523	80.006	19.994	103.863	20.103	2.134	0.511
637.999	391.507	80.005	19.993	103.862	20.101	2.224	0.502
639.999	392.550	80.006	19.993	103.860	20.100	2.318	0.481
642.000	393.597	80.007	19.992	103.862	20.101	2.270	0.529
643.999	394.626	80.007	19.993	103.866	20.098	2.430	0.506
645.999	395.694	80.009	19.994	103.862	20.102	2.193	0.559
647.999	396.708	80.008	19.994	103.866	20.099	2.415	0.527
649.999	397.658	80.007	19.994	103.866	20.102	2.173	0.513
651.999	398.733	80.009	19.994	103.858	20.101	2.265	0.522
653.999	399.707	80.007	19.994	103.855	20.104	2.077	0.497
655.999	400.714	80.008	19.994	103.856	20.103	2.146	0.497
657.999	401.722	80.007	19.995	103.834	20.103	2.113	0.507
659.999	402.769	80.007	19.994	103.846	20.101	2.244	0.519
661.999	403.684	80.009	19.995	103.852	20.098	2.433	0.447
663.999	404.693	80.006	19.993	103.849	20.102	2.188	0.485
665.999	405.713	80.009	19.995	103.842	20.104	2.062	0.515
667.999	406.680	80.010	19.994	103.844	20.104	2.051	0.471
669.999	407.654	80.007	19.994	103.845	20.104	2.052	0.495
671.999	408.629	80.010	19.994	103.837	20.104	2.047	0.478
673.999	409.597	80.012	19.994	103.854	20.103	2.118	0.505
675.999	410.571	80.009	19.994	103.839	20.108	1.805	0.492
677.999	411.533	80.008	19.994	103.838	20.103	2.097	0.481
679.999	412.468	80.007	19.995	103.829	20.102	2.159	0.475
681.999	413.409	80.007	19.994	103.833	20.103	2.148	0.472
683.999	414.336	80.006	19.995	103.835	20.103	2.133	0.463
685.999	415.270	80.005	19.994	103.834	20.106	1.930	0.454
687.999	416.185	80.005	19.993	103.833	20.103	2.120	0.478
689.999	417.134	80.005	19.996	103.830	20.104	2.052	0.479
691.999	418.045	80.006	19.995	103.831	20.103	2.090	0.454
694.000	418.958	80.004	19.995	103.837	20.103	2.099	0.434
695.999	419.878	80.006	19.995	103.836	20.100	2.295	0.440
697.999	420.809	80.005	19.994	103.835	20.101	2.268	0.450
699.999	421.763	80.007	19.996	103.834	20.103	2.141	0.486
701.999	422.643	80.008	19.993	103.834	20.102	2.173	0.458
703.999	423.609	80.006	19.993	103.833	20.103	2.098	0.484
705.999	424.484	80.006	19.995	103.842	20.099	2.396	0.454
707.999	425.416	80.007	19.995	103.847	20.101	2.266	0.461
709.999	426.344	80.006	19.993	103.835	20.100	2.321	0.486
711.999	427.242	80.006	19.994	103.837	20.099	2.383	0.454
713.999	428.200	80.007	19.994	103.844	20.101	2.227	0.489
715.999	429.147	80.007	19.995	103.841	20.103	2.146	0.475
717.999	430.092	80.007	19.993	103.844	20.103	2.133	0.489
719.999	430.998	80.006	19.994	103.839	20.102	2.171	0.453
721.999	431.960	80.007	19.995	103.835	20.106	1.900	0.473
723.999	432.914	80.006	19.995	103.842	20.105	1.949	0.473
725.999	433.898	80.006	19.995	103.833	20.103	2.098	0.493
727.999	434.908	80.007	19.993	103.834	20.104	2.036	0.516
729.999	435.842	80.008	19.995	103.842	20.101	2.240	0.481
731.999	436.788	80.007	19.995	103.835	20.102	2.197	0.497
733.999	437.733	80.008	19.995	103.837	20.102	2.208	0.481
735.999	438.734	80.008	19.995	103.843	20.101	2.252	0.488
737.999	439.694	80.009	19.994	103.838	20.103	2.141	0.486
740.000	440.682	80.007	19.995	103.843	20.101	2.268	0.462
741.999	441.643	80.008	19.994	103.839	20.103	2.090	0.493
743.999	442.652	80.009	19.994	103.831	20.103	2.135	0.516
745.999	443.612	80.007	19.994	103.842	20.103	2.148	0.465
747.999	444.609	80.007	19.994	103.861	20.104	2.019	0.481
749.999	445.643	80.006	19.992	103.842	20.107	1.844	0.491
751.999	446.590	80.007	19.995	103.858	20.104	2.015	0.491
753.999	447.645	80.008	19.994	103.846	20.108	1.790	0.509
756.000	448.636	80.009	19.994	103.843	20.107	1.873	0.483
757.999	449.635	80.008	19.993	103.836	20.105	1.970	0.489
759.999	450.647	80.006	19.992	103.831	20.105	2.000	0.488
761.999	451.673	80.006	19.996	103.844	20.105	2.000	0.479
763.999	452.725	80.005	19.994	103.843	20.104	2.013	0.495
765.999	453.797	80.007	19.993	103.850	20.106	1.908	0.554
767.999	454.813	80.006	19.995	103.850	20.104	2.035	0.537
769.999	455.868	80.006	19.992	103.846	20.105	1.983	0.527
771.999	456.886	80.006	19.994	103.847	20.105	2.009	0.515
773.999	457.893	80.005	19.994	103.841	20.104	2.047	0.514
775.999	458.931	80.006	19.995	103.833	20.108	1.775	0.513
777.999	459.980	80.006	19.995	103.829	20.109	1.720	0.515
779.999	461.004	80.006	19.996	103.832	20.109	1.703	0.517
781.999	462.042	80.006	19.995	103.829	20.110	1.643	0.512
783.999	463.073	80.007	19.995	103.832	20.113	1.446	0.530
785.999	464.103	80.008	19.994	103.847	20.110	1.668	0.528
787.999	465.141	80.006	19.996	103.839	20.110	1.621	0.516
789.999	466.187	80.008	19.995	103.834	20.115	1.291	0.535
791.999	467.198	80.006	19.995	103.828	20.108	1.795	0.528
793.999	468.246	80.005	19.994	103.831	20.112	1.474	0.505
795.999	469.288	80.005	19.994	103.836	20.108	1.767	0.532
797.999	470.349	80.007	19.994	103.833	20.111	1.544	0.538
800.000	471.382	80.006	19.994	103.836	20.112	1.491	0.510
801.999	472.407	80.008	19.994	103.825	20.113	1.467	0.508
803.999	473.443	80.008	19.994	103.828	20.111	1.602	0.518
806.000	474.505	80.008	19.993	103.827	20.111	1.583	0.522
807.999	475.538	80.009	19.993	103.827	20.111	1.572	0.506
809.999	476.560	80.009	19.993	103.827	20.113	1.435	0.550
811.999	477.619	80.008	19.994	103.828	20.114	1.366	0.523
813.999	478.605	80.007	19.994	103.829	20.114	1.353	0.529
815.999	479.633	80.007	19.994	103.829	20.115	1.281	0.503
817.999	480.656	80.006	19.994	103.830	20.115	1.300	0.472
819.999	481.670	80.007	19.994	103.826	20.115	1.330	0.518
821.999	482.696	80.007	19.995	103.829	20.115	1.309	0.494
823.999	483.712	80.006	19.995	103.830	20.116	1.218	0.542
825.999	484.729	80.008	19.995	103.830	20.114	1.338	0.511
827.999	485.774	80.007	19.995	103.821	20.117	1.191	0.502
829.999	486.786	80.011	19.993	103.823	20.115	1.300	0.518
831.999	487.826	80.008	19.994	103.830	20.119	1.039	0.498
833.999	488.812	80.008	19.994	103.829	20.118	1.107	0.503
835.999	489.857	80.009	19.994	103.831	20.118	1.110	0.501
837.999	490.827	80.009	19.992	103.829	20.119	1.000	0.473
839.999	491.869	80.008	19.994	103.825	20.117	1.156	0.500
842.000	492.886	80.008	19.993	103.822	20.116	1.238	0.525
843.999	493.908	80.005	19.995	103.814	20.118	1.124	0.522
846.000	494.968	80.008	19.994	103.819	20.120	0.928	0.526
847.999	495.959	80.005	19.995	103.824	20.118	1.110	0.519
849.999	496.944	80.008	19.996	103.820	20.120	0.987	0.498
851.999	497.942	80.005	19.993	103.827	20.117	1.184	0.487
853.999	498.982	80.006	19.995	103.829	20.115	1.268	0.527
855.999	499.970	80.007	19.995	103.830	20.118	1.099	0.502
857.999	501.016	80.007	19.993	103.814	20.116	1.210	0.486
859.999	502.009	80.007	19.994	103.827	20.119	1.011	0.524
861.999	503.005	80.007	19.994	103.813	20.119	1.017	0.494
863.999	503.984	80.009	19.993	103.821	20.119	1.049	0.497
865.999	504.989	80.005	19.993	103.822	20.117	1.168	0.524
867.999	506.008	80.006	19.994	103.812	20.117	1.144	0.529
869.999	507.015	80.005	19.996	103.803	20.118	1.093	0.529
871.999	508.006	80.005	19.994	103.799	20.117	1.161	0.510
873.999	509.042	80.007	19.996	103.819	20.117	1.170	0.511
875.999	510.081	80.005	19.995	103.811	20.118	1.127	0.532
877.999	511.104	80.005	19.994	103.805	20.118	1.106	0.509
879.999	512.115	80.005	19.996	103.797	20.118	1.114	0.505
881.999	513.161	80.005	19.995	103.791	20.120	0.945	0.532
883.999	514.206	80.007	19.995	103.792	20.120	0.977	0.544
885.999	515.195	80.006	19.996	103.810	20.118	1.078	0.509
887.999	516.247	80.008	19.994	103.807	20.120	0.928	0.515
889.999	517.295	80.007	19.995	103.801	20.115	1.307	0.517
891.999	518.360	80.008	19.993	103.803	20.116	1.228	0.517
893.999	519.331	80.008	19.993	103.795	20.115	1.271	0.473
895.999	520.400	80.007	19.993	103.807	20.117	1.135	0.531
897.999	521.412	80.007	19.995	103.806	20.117	1.167	0.506
899.999	522.444	80.007	19.994	103.803	20.117	1.161	0.525
901.999	523.490	80.006	19.994	103.842	20.121	0.889	0.528
903.999	524.523	80.008	19.993	103.930	20.119	1.052	0.513
905.999	525.577	80.007	19.994	103.838	20.120	0.964	0.522
907.999	526.564	80.007	19.993	103.822	20.115	1.288	0.510
909.999	527.599	80.007	19.993	103.812	20.115	1.320	0.502
911.999	528.669	80.008	19.993	103.792	20.115	1.294	0.516
913.999	529.669	80.007	19.993	103.795	20.115	1.313	0.536
915.999	530.734	80.007	19.993	103.792	20.116	1.200	0.524
917.999	531.730	80.009	19.993	103.795	20.116	1.209	0.515
919.999	532.771	80.007	19.994	103.791	20.115	1.271	0.516
921.999	533.796	80.007	19.993	103.796	20.117	1.180	0.515
923.999	534.794	80.006	19.994	103.795	20.115	1.307	0.527
925.999	535.854	80.006	19.994	103.791	20.116	1.261	0.528
927.999	536.899	80.006	19.994	103.785	20.118	1.071	0.497
929.999	537.855	80.006	19.994	103.786	20.115	1.271	0.459
931.999	538.933	80.006	19.994	103.794	20.115	1.275	0.525
933.999	539.930	80.006	19.994	103.819	20.115	1.328	0.504
935.999	540.955	80.006	19.995	103.822	20.116	1.208	0.530
938.000	541.922	80.006	19.993	103.804	20.111	1.543	0.491
939.999	542.958	80.007	19.993	103.768	20.115	1.302	0.492
941.999	543.945	80.005	19.995	103.794	20.118	1.065	0.491
943.999	544.950	80.006	19.995	103.788	20.116	1.223	0.502
945.999	545.951	80.006	19.997	103.803	20.116	1.202	0.514
947.999	546.966	80.006	19.994	103.797	20.115	1.271	0.509
949.999	548.003	80.007	19.994	103.797	20.121	0.885	0.509
951.999	549.005	80.006	19.994	103.802	20.115	1.324	0.502
954.000	550.050	80.006	19.994	103.799	20.116	1.222	0.536
955.999	551.092	80.005	19.995	103.793	20.122	0.853	0.501
957.999	552.117	80.005	19.994	103.792	20.116	1.245	0.547
959.999	553.126	80.004	19.994	103.795	20.120	0.941	0.495
961.999	554.195	80.004	19.995	103.784	20.119	0.999	0.533
963.999	555.217	80.007	19.994	103.768	20.118	1.070	0.508
965.999	556.238	80.005	19.995	103.777	20.121	0.866	0.485
967.999	557.223	80.007	19.994	103.767	20.125	0.611	0.498
969.999	558.280	80.007	19.993	103.768	20.122	0.795	0.547
971.999	559.255	80.006	19.995	103.782	20.123	0.780	0.481
973.999	560.266	80.006	19.995	103.763	20.120	0.973	0.470
975.999	561.291	80.008	19.994	103.766	20.124	0.658	0.518
977.999	562.300	80.006	19.994	103.769	20.125	0.626	0.489
980.000	563.296	80.006	19.993	103.754	20.126	0.583	0.529
981.999	564.285	80.006	19.994	103.727	20.124	0.707	0.505
983.999	565.291	80.007	19.993	103.748	20.124	0.701	0.526
985.999	566.263	80.006	19.994	103.766	20.123	0.743	0.506
987.999	567.254	80.006	19.993	103.781	20.124	0.705	0.506
989.999	568.252	80.007	19.993	103.785	20.127	0.512	0.512
991.999	569.282	80.008	19.995	103.785	20.127	0.456	0.470
993.999	570.285	80.009	19.992	103.787	20.126	0.527	0.507
995.999	571.296	80.010	19.993	103.785	20.130	0.268	0.540
997.999	572.329	80.008	19.994	103.782	20.124	0.703	0.541
999.999	573.350	80.008	19.995	103.787	20.124	0.664	0.503
1001.999	574.341	80.007	19.993	103.784	20.127	0.486	0.513
1003.999	575.404	80.007	19.994	103.782	20.129	0.371	0.499
1005.999	576.394	80.004	19.995	103.786	20.129	0.383	0.484
1007.999	577.439	80.006	19.994	103.790	20.127	0.501	0.499
1009.999	578.460	80.007	19.993	103.790	20.131	0.210	0.508
1011.999	579.477	80.006	19.993	103.791	20.128	0.388	0.524
1013.999	580.503	80.005	19.994	103.792	20.130	0.296	0.496
1015.999	581.570	80.006	19.993	103.791	20.129	0.377	0.522
1017.999	582.600	80.006	19.992	103.791	20.127	0.482	0.523
1019.999	583.649	80.007	19.992	103.792	20.131	0.246	0.503
1021.999	584.686	80.008	19.994	103.793	20.129	0.341	0.521
1023.999	585.758	80.006	19.993	103.792	20.130	0.268	0.530
1025.999	586.788	80.007	19.994	103.791	20.131	0.208	0.532
1027.999	587.794	80.006	19.993	103.792	20.132	0.122	0.487
1029.999	588.805	80.008	19.994	103.792	20.130	0.315	0.514
1031.999	589.869	80.005	19.995	103.789	20.133	0.056	0.522
1033.999	590.927	80.006	19.993	103.788	20.132	0.143	0.547
1035.999	591.913	80.005	19.994	103.787	20.133	0.099	0.504
1037.999	592.988	80.005	19.995	103.787	20.134	0.017	0.504
1039.999	594.016	80.005	19.996	103.788	20.133	0.101	0.487
1041.999	595.056	80.005	19.994	103.788	20.136	-0.150	0.500
1043.999	596.091	80.006	19.994	103.788	20.136	-0.150	0.510
1045.999	597.105	80.007	19.995	103.786	20.135	-0.054	0.497
1047.999	598.135	80.007	19.994	103.784	20.134	0.032	0.529
1049.999	599.125	80.007	19.995	103.787	20.134	-0.009	0.481
1051.999	600.138	80.008	19.995	103.788	20.136	-0.150	0.505
1053.999	601.139	80.008	19.995	103.785	20.134	0.000	0.483
1055.999	602.182	80.006	19.995	103.785	20.135	-0.024	0.511
1057.999	603.192	80.007	19.995	103.783	20.133	0.083	0.522
1059.999	604.174	80.008	19.995	103.783	20.138	-0.249	0.519
1062.000	605.229	80.007	19.994	103.787	20.135	-0.053	0.517
1063.999	606.239	80.006	19.995	103.787	20.138	-0.238	0.519
1065.999	607.297	80.005	19.996	103.789	20.139	-0.328	0.546
1067.999	608.298	80.008	19.995	103.790	20.140	-0.388	0.514
1069.999	609.279	80.007	19.996	103.789	20.138	-0.242	0.546
1071.999	610.280	80.009	19.994	103.790	20.139	-0.304	0.513
1073.999	611.301	80.009	19.994	103.786	20.140	-0.379	0.549
1075.999	612.324	80.009	19.993	103.787	20.140	-0.375	0.527
1077.999	613.343	80.007	19.992	103.787	20.140	-0.418	0.524
1079.999	614.377	80.007	19.994	103.788	20.143	-0.564	0.498
1081.999	615.409	80.009	19.993	103.788	20.140	-0.418	0.509
1083.999	616.430	80.005	19.994	103.791	20.139	-0.302	0.556
1085.999	617.530	80.005	19.993	103.791	20.140	-0.388	0.554
1087.999	618.512	80.007	19.993	103.788	20.131	0.223	0.493
1089.999	619.596	80.007	19.993	103.789	20.131	0.231	0.578
1091.999	620.676	80.005	19.993	103.791	20.136	-0.124	0.529
1093.999	621.685	80.007	19.994	103.791	20.144	-0.664	0.531
1096.000	622.755	80.006	19.994	103.787	20.144	-0.653	0.541
1097.999	623.741	80.006	19.993	103.788	20.139	-0.294	0.557
1099.999	624.841	80.007	19.994	103.787	20.144	-0.692	0.394
1102.000	625.687	80.008	19.994	103.789	20.142	-0.546	0.100
1103.999	626.324	80.005	19.994	103.791	20.142	-0.510	0.161
1105.999	628.075	80.010	19.993	103.787	20.148	-0.958	0.741
1108.000	629.652	80.007	19.994	103.781	20.144	-0.683	0.719
1109.999	630.439	80.005	19.994	103.790	20.145	-0.716	0.691
1111.999	631.326	80.007	19.993	103.787	20.148	-0.960	0.531
1113.999	632.737	80.007	19.994	103.789	20.149	-0.981	0.651
1116.000	633.801	80.006	19.994	103.788	20.144	-0.684	0.579
1117.999	634.855	80.006	19.994	103.788	20.148	-0.928	0.559
1119.999	636.016	80.005	19.993	103.784	20.145	-0.756	0.522
1121.999	637.038	80.006	19.994	103.783	20.144	-0.697	0.500
1123.999	638.124	80.005	19.995	103.787	20.146	-0.769	0.518
1125.999	639.354	80.005	19.997	103.788	20.146	-0.831	0.610
1127.999	640.285	80.007	19.994	103.784	20.146	-0.825	0.438
1129.999	641.084	80.006	19.994	103.780	20.146	-0.776	0.408
1131.999	642.424	80.009	19.994	103.770	20.143	-0.617	0.572
1134.000	643.471	80.007	19.995	103.785	20.146	-0.767	0.633
1135.999	644.501	80.007	19.993	103.784	20.148	-0.956	0.560
1137.999	645.542	80.008	19.992	103.777	20.147	-0.900	0.519
1139.999	646.550	80.007	19.995	103.770	20.146	-0.827	0.521
1141.999	647.605	80.007	19.994	103.767	20.150	-1.059	0.546
1143.999	648.618	80.006	19.994	103.773	20.149	-0.986	0.524
1145.999	649.623	80.006	19.995	103.770	20.147	-0.874	0.522
1147.999	650.644	80.007	19.993	103.766	20.148	-0.960	0.514
1149.999	651.689	80.007	19.994	103.777	20.152	-1.221	0.495
1151.999	652.691	80.008	19.995	103.774	20.151	-1.153	0.502
1153.999	653.799	80.008	19.994	103.771	20.152	-1.226	0.567
1155.999	654.834	80.007	19.994	103.774	20.155	-1.384	0.536
1157.999	655.901	80.008	19.994	103.784	20.151	-1.112	0.563
1159.999	656.946	80.008	19.994	103.782	20.151	-1.131	0.511
1161.999	658.019	80.008	19.994	103.785	20.155	-1.412	0.552
1163.999	659.080	80.007	19.994	103.782	20.153	-1.280	0.520
1165.999	660.207	80.005	19.994	103.775	20.152	-1.179	0.540
1167.999	661.228	80.006	19.994	103.781	20.150	-1.082	0.524
1169.999	662.320	80.007	19.994	103.771	20.154	-1.340	0.558
1171.999	663.363	80.006	19.993	103.767	20.155	-1.397	0.535
1173.999	664.419	80.006	19.994	103.755	20.153	-1.288	0.518
1175.999	665.476	80.007	19.994	103.760	20.156	-1.500	0.512
1177.999	666.554	80.007	19.993	103.774	20.153	-1.260	0.512
1179.999	667.575	80.006	19.994	103.768	20.151	-1.121	0.493
1181.999	668.611	80.006	19.995	103.758	20.157	-1.528	0.500
1183.999	669.629	80.007	19.995	103.760	20.156	-1.466	0.514
1186.000	670.707	80.007	19.995	103.765	20.157	-1.569	0.538
1187.999	671.666	80.006	19.994	103.775	20.157	-1.556	0.494
1189.999	672.697	80.007	19.994	103.766	20.157	-1.545	0.495
1192.000	673.712	80.004	19.994	103.770	20.156	-1.453	0.518
1193.999	674.759	80.004	19.994	103.782	20.157	-1.569	0.501
1195.999	675.805	80.006	19.995	103.776	20.158	-1.598	0.508
1198.000	676.871	80.006	19.994	103.780	20.157	-1.537	0.544
1199.999	677.860	80.006	19.993	103.770	20.160	-1.770	0.481
1202.000	678.928	80.005	19.994	103.776	20.160	-1.732	0.526
1204.000	679.897	80.007	19.992	103.773	20.163	-1.981	0.514
1205.999	680.946	80.008	19.994	103.781	20.160	-1.740	0.519
1207.999	681.996	80.008	19.994	103.776	20.161	-1.845	0.520
1209.999	682.982	80.008	19.994	103.769	20.164	-2.023	0.504
1212.000	683.998	80.007	19.993	103.770	20.164	-2.015	0.536
1213.999	684.987	80.006	19.993	103.759	20.163	-1.981	0.100
1215.999	685.950	80.006	19.993	103.759	20.165	-2.055	0.479
1217.999	686.938	80.007	19.994	103.760	20.164	-1.996	0.473
1219.999	687.882	80.007	19.994	103.770	20.165	-2.100	0.460
1221.999	688.857	80.006	19.994	103.760	20.166	-2.122	0.462
1223.999	689.835	80.007	19.994	103.754	20.168	-2.281	0.477
1225.999	690.850	80.007	19.994	103.761	20.168	-2.283	0.479
1227.999	691.870	80.009	19.994	103.764	20.167	-2.203	0.498
1229.999	692.849	80.009	19.995	103.763	20.166	-2.180	0.505
1231.999	693.862	80.007	19.995	103.767	20.166	-2.122	0.427
1233.999	694.827	80.008	19.994	103.756	20.168	-2.274	0.438
1235.999	695.854	80.007	19.994	103.759	20.169	-2.344	0.498
1237.999	696.856	80.008	19.994	103.751	20.167	-2.231	0.471
1239.999	697.814	80.006	19.994	103.750	20.163	-1.952	0.485
1242.000	698.813	80.005	19.994	103.751	20.166	-2.141	0.497
1243.999	699.797	80.005	19.995	103.753	20.167	-2.212	0.493
1245.999	700.796	80.005	19.995	103.770	20.170	-2.402	0.475
1247.999	701.777	80.006	19.994	103.785	20.167	-2.237	0.471
1249.999	702.756	80.006	19.995	103.772	20.167	-2.229	0.506
1251.999	703.708	80.005	19.995	103.772	20.165	-2.094	0.488
1253.999	704.713	80.007	19.994	103.769	20.169	-2.353	0.457
1256.000	705.731	80.006	19.993	103.771	20.170	-2.428	0.511
1257.999	706.714	80.007	19.995	103.783	20.172	-2.546	0.486
1259.999	707.716	80.005	19.994	103.781	20.171	-2.465	0.517
1261.999	708.676	80.006	19.993	103.762	20.172	-2.533	0.515
1263.999	709.668	80.006	19.993	103.759	20.171	-2.510	0.484
1265.999	710.615	80.005	19.995	103.757	20.171	-2.475	0.462
1268.000	711.643	80.006	19.994	103.763	20.171	-2.465	0.499
1269.999	712.600	80.006	19.993	103.757	20.171	-2.461	0.491
1271.999	713.601	80.006	19.993	103.755	20.170	-2.454	0.504
1273.999	714.567	80.004	19.993	103.756	20.173	-2.615	0.493
1275.999	715.548	80.005	19.995	103.757	20.174	-2.669	0.516
1277.999	716.556	80.006	19.993	103.759	20.172	-2.568	0.512
1279.999	717.521	80.007	19.993	103.757	20.175	-2.735	0.481
1282.000	718.506	80.006	19.995	103.755	20.172	-2.574	0.482
1283.999	719.486	80.007	19.994	103.759	20.174	-2.688	0.496
1286.000	720.512	80.008	19.993	103.757	20.176	-2.816	0.538
1287.999	721.441	80.006	19.993	103.754	20.173	-2.643	0.455
1289.999	722.429	80.008	19.994	103.756	20.175	-2.767	0.484
1291.999	723.422	80.007	19.993	103.748	20.176	-2.799	0.481
1293.999	724.395	80.007	19.993	103.748	20.180	-3.123	0.474
1295.999	725.384	80.006	19.993	103.753	20.174	-2.698	0.495
1297.999	726.412	80.005	19.995	103.751	20.180	-3.129	0.490
1299.999	727.376	80.007	19.995	103.751	20.178	-2.960	0.486
1301.999	728.400	80.006	19.995	103.756	20.178	-2.980	0.537
1303.999	729.385	80.008	19.994	103.746	20.178	-2.965	0.467
1305.999	730.446	80.007	19.995	103.762	20.176	-2.855	0.524
1307.999	731.510	80.008	19.995	103.752	20.179	-3.035	0.530
1309.999	732.449	80.008	19.995	103.749	20.178	-2.992	0.490
1311.999	733.492	80.009	19.995	103.749	20.179	-3.065	0.498
1313.999	734.506	80.009	19.994	103.749	20.177	-2.909	0.505
1315.999	735.532	80.010	19.994	103.749	20.177	-2.892	0.492
1317.999	736.554	80.007	19.994	103.751	20.181	-3.172	0.504
1320.000	737.555	80.007	19.993	103.754	20.178	-2.992	0.532
1321.999	738.618	80.007	19.994	103.752	20.179	-3.042	0.511
1323.999	739.603	80.006	19.994	103.755	20.179	-3.067	0.504
1325.999	740.645	80.004	19.995	103.753	20.182	-3.230	0.512
1327.999	741.662	80.006	19.996	103.752	20.183	-3.318	0.491
1329.999	742.706	80.005	19.995	103.750	20.181	-3.198	0.507
1331.499	743.492	80.000	19.995	103.751	20.178	-2.941	0.519