File: 01_Data/PETG/MCC/PETG_MCC_30K_min_210927_R1.txt
Sample ID:	C:\MCC\MCC Cal\Test\PETG_MCC_30K_min_210927_R1.txt
Sample Weight (mg):	4.56
Heating Rate (C/s):	0.5
Combustor Temp (C):	900
N2 Flow Rate (cc/min):	80
O2 Flow Rate (cc/min):	20
Calibration File:	C:\MCC\MCC Cal\Coeff1 JN10440_30_210304.txt.txt
T Correction Coefficients:	0	1.024463	0
Time Shift (s):	14
*
Time (s)	Temperature (C)	N2 flow rate (cc/min)	O2 flow rate (cc/min)	Flow Rate (cc/min)	Oxygen (%)	HRR (W/g)	Heating rate (C/s)
0.000	108.561	79.996	19.994	100.064	20.128	0.159	0.007
2.000	108.601	79.998	19.996	100.066	20.133	-0.189	0.013
4.000	108.554	79.997	19.995	100.065	20.129	0.080	0.008
6.000	108.551	79.998	19.995	100.067	20.128	0.178	-0.029
8.000	108.588	79.999	19.996	100.064	20.131	-0.015	0.004
10.000	108.543	79.997	19.995	100.068	20.131	-0.015	-0.005
12.000	108.545	79.998	19.995	100.074	20.128	0.176	0.019
14.001	108.554	79.998	19.994	100.095	20.128	0.189	0.031
16.000	108.553	79.997	19.995	100.116	20.124	0.462	0.014
18.000	108.601	79.998	19.994	100.137	20.121	0.653	0.017
20.000	108.673	79.999	19.994	100.145	20.119	0.807	0.056
22.000	108.788	79.999	19.994	100.162	20.113	1.179	0.091
24.000	108.876	79.998	19.993	100.191	20.114	1.146	0.089
26.000	109.033	79.998	19.995	100.210	20.108	1.580	0.073
28.000	109.223	79.997	19.995	100.221	20.106	1.708	0.085
30.000	109.425	79.998	19.995	100.230	20.100	2.088	0.101
32.000	109.622	79.999	19.995	100.261	20.103	1.920	0.113
34.000	109.872	79.999	19.996	100.256	20.098	2.216	0.136
36.000	110.143	79.999	19.996	100.262	20.097	2.326	0.127
38.001	110.470	79.999	19.996	100.272	20.091	2.684	0.153
40.000	110.811	80.001	19.995	100.281	20.091	2.684	0.183
42.000	111.178	80.000	19.995	100.298	20.090	2.815	0.207
44.000	111.578	80.000	19.996	100.297	20.086	3.057	0.236
46.000	112.066	79.999	19.995	100.303	20.084	3.175	0.233
48.000	112.513	79.999	19.996	100.304	20.085	3.108	0.233
50.000	113.018	79.999	19.995	100.306	20.085	3.104	0.233
52.000	113.559	79.998	19.995	100.315	20.084	3.210	0.260
54.000	114.155	80.000	19.995	100.319	20.086	3.023	0.304
56.000	114.763	79.999	19.995	100.317	20.086	3.085	0.274
58.000	115.379	80.000	19.995	100.308	20.087	3.021	0.333
60.000	116.013	79.999	19.996	100.321	20.082	3.300	0.339
62.000	116.679	80.000	19.995	100.303	20.085	3.107	0.325
64.000	117.368	80.000	19.995	100.304	20.082	3.342	0.340
66.000	118.037	80.000	19.996	100.306	20.086	3.038	0.313
68.000	118.750	80.000	19.996	100.309	20.083	3.267	0.347
70.000	119.501	79.998	19.996	100.305	20.088	2.938	0.372
72.000	120.240	79.999	19.996	100.304	20.080	3.453	0.384
74.000	120.969	79.999	19.996	100.315	20.085	3.113	0.394
76.000	121.761	79.999	19.996	100.313	20.083	3.231	0.395
78.000	122.561	79.998	19.995	100.326	20.087	2.975	0.378
80.000	123.370	79.998	19.996	100.327	20.086	3.044	0.426
82.001	124.168	79.998	19.994	100.331	20.085	3.106	0.411
84.000	125.033	79.999	19.995	100.324	20.085	3.145	0.383
86.000	125.896	79.998	19.994	100.319	20.081	3.406	0.430
88.000	126.752	79.999	19.995	100.316	20.083	3.278	0.428
90.000	127.571	79.999	19.995	100.317	20.083	3.280	0.417
92.000	128.493	79.999	19.995	100.323	20.080	3.469	0.436
94.000	129.422	79.999	19.996	100.321	20.081	3.374	0.463
96.000	130.314	79.997	19.994	100.317	20.082	3.336	0.425
98.000	131.199	79.999	19.995	100.316	20.081	3.420	0.429
100.000	132.094	79.998	19.995	100.313	20.086	3.055	0.442
102.000	133.039	79.998	19.996	100.311	20.082	3.299	0.459
104.000	134.009	80.000	19.995	100.315	20.081	3.381	0.471
106.000	134.927	79.998	19.996	100.312	20.079	3.542	0.465
108.000	135.904	80.000	19.995	100.305	20.078	3.613	0.450
110.000	136.900	79.998	19.995	100.310	20.078	3.630	0.487
112.001	137.857	79.999	19.994	100.312	20.081	3.392	0.457
114.001	138.808	80.000	19.995	100.309	20.080	3.473	0.486
116.000	139.829	79.999	19.995	100.308	20.080	3.454	0.523
118.000	140.802	79.999	19.996	100.309	20.082	3.351	0.504
120.000	141.796	80.000	19.994	100.304	20.080	3.439	0.525
122.000	142.810	80.000	19.995	100.303	20.081	3.416	0.540
124.000	143.765	80.000	19.995	100.309	20.083	3.293	0.475
126.000	144.813	79.999	19.994	100.313	20.086	3.066	0.488
128.000	145.786	79.998	19.994	100.303	20.085	3.107	0.516
130.000	146.837	79.999	19.995	100.301	20.083	3.296	0.498
132.000	147.839	79.999	19.995	100.302	20.080	3.459	0.495
134.000	148.872	80.000	19.997	100.302	20.083	3.251	0.532
136.000	149.899	79.999	19.995	100.302	20.082	3.332	0.513
138.000	150.902	79.999	19.995	100.295	20.084	3.219	0.515
140.000	151.951	79.999	19.996	100.298	20.084	3.189	0.508
142.000	152.967	80.001	19.995	100.299	20.084	3.225	0.505
144.000	153.942	80.000	19.995	100.298	20.082	3.317	0.510
146.000	154.970	79.999	19.995	100.297	20.085	3.101	0.493
148.000	155.938	80.000	19.995	100.296	20.086	3.045	0.485
150.000	156.998	80.000	19.996	100.295	20.085	3.132	0.514
152.000	157.999	80.000	19.995	100.292	20.083	3.277	0.491
154.000	159.049	79.999	19.997	100.292	20.085	3.121	0.519
156.000	160.014	79.997	19.996	100.293	20.088	2.925	0.466
158.000	161.012	79.997	19.996	100.284	20.086	3.080	0.503
160.000	162.060	79.999	19.996	100.263	20.084	3.162	0.505
162.000	163.058	79.996	19.996	100.264	20.082	3.310	0.512
164.000	164.105	79.998	19.995	100.271	20.085	3.151	0.558
166.000	165.097	79.998	19.995	100.274	20.081	3.379	0.504
168.000	166.137	80.000	19.995	100.264	20.083	3.256	0.512
170.000	167.161	79.999	19.995	100.260	20.085	3.123	0.511
172.000	168.135	79.999	19.995	100.261	20.085	3.147	0.470
174.000	169.114	79.998	19.995	100.264	20.088	2.904	0.480
176.000	170.130	79.999	19.995	100.267	20.090	2.762	0.509
178.000	171.133	80.000	19.996	100.264	20.086	3.043	0.504
180.000	172.144	79.999	19.995	100.262	20.086	3.035	0.524
182.000	173.146	79.998	19.995	100.266	20.087	2.999	0.503
184.000	174.148	79.998	19.994	100.265	20.089	2.840	0.524
186.000	175.129	79.999	19.995	100.266	20.087	2.954	0.476
188.000	176.148	79.998	19.996	100.265	20.089	2.818	0.494
190.000	177.121	79.995	19.997	100.267	20.089	2.829	0.494
192.000	178.123	79.996	19.995	100.261	20.087	2.984	0.482
194.000	179.092	79.997	19.996	100.261	20.089	2.819	0.504
196.000	180.122	79.996	19.995	100.261	20.090	2.750	0.507
198.000	181.113	79.998	19.995	100.261	20.088	2.894	0.481
200.000	182.108	79.999	19.997	100.265	20.091	2.733	0.490
202.000	183.083	80.000	19.995	100.263	20.087	2.956	0.489
204.000	184.126	80.000	19.995	100.259	20.093	2.570	0.505
206.000	185.081	80.000	19.996	100.257	20.088	2.911	0.523
208.000	186.132	79.998	19.995	100.253	20.088	2.943	0.535
210.000	187.133	79.999	19.994	100.258	20.086	3.029	0.527
212.000	188.119	79.998	19.996	100.252	20.090	2.776	0.492
214.000	189.084	79.999	19.994	100.255	20.091	2.724	0.497
216.000	190.077	79.998	19.995	100.260	20.094	2.529	0.536
218.000	191.050	80.000	19.995	100.259	20.091	2.703	0.480
220.000	192.014	79.998	19.995	100.245	20.092	2.669	0.458
222.000	192.997	79.999	19.996	100.257	20.093	2.548	0.490
224.000	193.997	79.998	19.995	100.253	20.090	2.793	0.509
226.001	194.971	80.000	19.995	100.245	20.089	2.823	0.478
228.000	195.972	80.000	19.996	100.250	20.092	2.658	0.507
230.000	196.994	80.000	19.996	100.239	20.089	2.816	0.488
232.000	197.939	80.001	19.995	100.236	20.092	2.664	0.468
234.000	198.932	80.000	19.997	100.247	20.090	2.748	0.513
236.000	199.897	79.998	19.996	100.240	20.090	2.754	0.490
238.000	200.915	79.998	19.994	100.237	20.090	2.791	0.514
240.000	201.899	79.998	19.994	100.256	20.094	2.480	0.502
242.000	202.834	79.999	19.996	100.250	20.091	2.711	0.475
244.000	203.836	79.997	19.997	100.253	20.089	2.817	0.507
246.000	204.799	79.999	19.995	100.259	20.091	2.739	0.470
248.000	205.794	79.999	19.997	100.242	20.090	2.750	0.478
250.000	206.805	79.995	19.995	100.245	20.092	2.658	0.518
252.000	207.753	79.997	19.996	100.240	20.090	2.811	0.476
254.000	208.783	79.997	19.997	100.247	20.091	2.681	0.510
256.000	209.725	79.998	19.996	100.233	20.091	2.733	0.518
258.000	210.743	79.997	19.995	100.253	20.086	3.081	0.495
260.000	211.724	79.997	19.996	100.239	20.086	3.069	0.476
262.000	212.696	79.996	19.995	100.229	20.091	2.701	0.508
264.000	213.676	79.997	19.996	100.236	20.091	2.704	0.495
266.000	214.657	79.997	19.995	100.246	20.091	2.710	0.470
268.000	215.673	79.997	19.995	100.230	20.092	2.624	0.513
270.000	216.606	79.997	19.995	100.232	20.090	2.759	0.469
272.000	217.584	79.998	19.995	100.231	20.094	2.534	0.482
274.000	218.584	79.998	19.994	100.224	20.093	2.596	0.503
276.000	219.632	79.998	19.996	100.227	20.090	2.800	0.515
278.000	220.585	79.998	19.995	100.225	20.089	2.822	0.474
280.000	221.597	79.999	19.995	100.223	20.089	2.854	0.494
282.000	222.605	79.998	19.996	100.224	20.091	2.720	0.493
284.000	223.554	80.000	19.995	100.228	20.092	2.656	0.472
286.000	224.548	80.001	19.994	100.227	20.094	2.506	0.475
288.000	225.523	80.000	19.995	100.227	20.096	2.364	0.500
290.000	226.562	80.000	19.995	100.240	20.096	2.341	0.513
292.000	227.510	80.000	19.995	100.232	20.093	2.556	0.493
294.000	228.553	80.000	19.995	100.233	20.097	2.268	0.499
296.000	229.585	80.000	19.996	100.229	20.095	2.409	0.519
298.000	230.581	80.000	19.995	100.225	20.097	2.270	0.481
300.000	231.620	80.000	19.995	100.221	20.094	2.506	0.507
302.000	232.630	79.999	19.997	100.220	20.093	2.554	0.514
304.000	233.602	80.002	19.995	100.224	20.096	2.373	0.504
306.000	234.626	80.000	19.996	100.225	20.094	2.519	0.494
308.000	235.646	80.000	19.995	100.219	20.097	2.285	0.509
310.000	236.640	80.002	19.995	100.222	20.097	2.324	0.517
312.000	237.666	80.000	19.996	100.221	20.098	2.261	0.492
314.000	238.640	80.000	19.995	100.216	20.097	2.268	0.509
316.000	239.650	80.000	19.994	100.219	20.097	2.313	0.492
318.000	240.645	79.998	19.996	100.219	20.098	2.214	0.484
320.000	241.686	79.997	19.995	100.220	20.099	2.180	0.515
322.000	242.730	79.997	19.996	100.222	20.096	2.401	0.529
324.000	243.690	79.997	19.994	100.222	20.098	2.203	0.500
326.000	244.721	79.997	19.996	100.224	20.097	2.287	0.520
328.000	245.738	79.998	19.995	100.223	20.098	2.227	0.520
330.000	246.721	79.997	19.995	100.223	20.096	2.350	0.490
332.000	247.695	79.997	19.997	100.223	20.098	2.247	0.511
334.000	248.703	79.997	19.997	100.212	20.099	2.167	0.480
336.000	249.697	79.997	19.996	100.221	20.095	2.418	0.494
338.000	250.756	79.998	19.995	100.212	20.099	2.182	0.550
340.000	251.751	79.997	19.996	100.214	20.098	2.203	0.486
342.000	252.722	79.998	19.996	100.215	20.097	2.289	0.492
344.000	253.748	79.997	19.996	100.214	20.098	2.202	0.485
346.000	254.707	79.998	19.996	100.213	20.101	2.002	0.511
348.000	255.703	79.998	19.997	100.212	20.097	2.303	0.481
350.000	256.708	79.998	19.996	100.206	20.099	2.142	0.502
352.000	257.699	79.997	19.997	100.213	20.100	2.088	0.472
354.000	258.735	79.998	19.996	100.202	20.098	2.223	0.533
356.000	259.661	79.997	19.996	100.202	20.098	2.233	0.478
358.000	260.636	79.998	19.995	100.204	20.096	2.343	0.475
360.000	261.610	79.999	19.997	100.196	20.099	2.159	0.484
362.000	262.593	80.000	19.997	100.192	20.100	2.092	0.461
364.000	263.587	80.000	19.996	100.207	20.099	2.156	0.518
366.000	264.605	80.001	19.996	100.213	20.099	2.159	0.502
368.000	265.572	80.000	19.995	100.218	20.102	1.946	0.491
370.000	266.516	80.000	19.995	100.207	20.100	2.098	0.454
372.000	267.532	79.998	19.996	100.202	20.097	2.296	0.507
374.000	268.493	79.998	19.995	100.214	20.098	2.247	0.477
376.000	269.492	79.998	19.995	100.210	20.099	2.176	0.507
378.000	270.504	79.998	19.994	100.208	20.101	1.991	0.475
380.000	271.503	79.999	19.995	100.200	20.101	2.055	0.509
382.000	272.530	80.000	19.996	100.207	20.100	2.069	0.518
384.000	273.516	79.998	19.995	100.196	20.101	2.030	0.498
386.000	274.495	79.999	19.994	100.197	20.099	2.180	0.525
388.000	275.524	80.002	19.995	100.203	20.100	2.109	0.511
390.000	276.512	80.000	19.995	100.215	20.100	2.092	0.518
392.000	277.516	80.001	19.994	100.199	20.098	2.255	0.514
394.000	278.506	80.002	19.994	100.204	20.101	2.051	0.491
396.000	279.523	80.001	19.994	100.206	20.097	2.281	0.489
398.000	280.501	80.001	19.995	100.193	20.098	2.264	0.496
400.000	281.496	80.001	19.995	100.202	20.099	2.168	0.500
402.000	282.532	79.999	19.995	100.206	20.098	2.204	0.513
404.000	283.485	79.998	19.995	100.198	20.099	2.136	0.514
406.000	284.505	79.998	19.995	100.198	20.099	2.180	0.489
408.000	285.535	79.998	19.995	100.203	20.100	2.094	0.521
410.000	286.534	79.998	19.996	100.193	20.102	1.976	0.534
412.000	287.538	79.999	19.996	100.186	20.101	2.056	0.511
414.000	288.524	79.999	19.996	100.189	20.099	2.135	0.474
416.000	289.536	80.000	19.996	100.199	20.099	2.129	0.504
418.000	290.562	79.998	19.995	100.205	20.101	2.043	0.491
420.000	291.592	80.000	19.995	100.205	20.101	1.994	0.496
422.000	292.579	79.998	19.996	100.192	20.099	2.146	0.482
424.000	293.612	79.999	19.997	100.197	20.102	1.970	0.498
426.000	294.635	79.997	19.997	100.191	20.105	1.781	0.496
428.000	295.642	80.000	19.996	100.187	20.101	2.026	0.514
430.000	296.626	80.000	19.996	100.191	20.101	2.015	0.503
432.000	297.640	79.996	19.996	100.187	20.101	2.004	0.504
434.000	298.655	79.997	19.996	100.187	20.097	2.297	0.502
436.000	299.684	79.997	19.997	100.185	20.102	1.953	0.528
438.000	300.656	79.994	19.997	100.188	20.100	2.080	0.499
440.000	301.722	79.997	19.996	100.187	20.101	2.054	0.519
442.000	302.709	79.997	19.996	100.185	20.101	2.034	0.521
444.000	303.704	79.999	19.996	100.184	20.101	2.050	0.496
446.000	304.689	79.999	19.996	100.183	20.101	2.058	0.484
448.000	305.682	79.998	19.996	100.184	20.100	2.075	0.504
450.000	306.737	79.999	19.996	100.184	20.102	1.974	0.518
452.000	307.737	80.000	19.995	100.183	20.102	1.981	0.509
454.000	308.734	79.999	19.994	100.188	20.102	1.983	0.503
456.000	309.779	79.998	19.995	100.185	20.103	1.861	0.543
458.000	310.766	79.999	19.995	100.188	20.101	2.000	0.500
460.000	311.789	79.998	19.995	100.187	20.098	2.200	0.517
462.000	312.809	79.998	19.995	100.186	20.098	2.204	0.543
464.000	313.839	79.998	19.996	100.188	20.097	2.267	0.483
466.000	314.845	79.999	19.996	100.184	20.098	2.224	0.503
468.000	315.843	80.000	19.995	100.180	20.100	2.116	0.503
470.000	316.857	80.000	19.995	100.183	20.101	2.011	0.524
472.000	317.845	79.999	19.995	100.185	20.099	2.157	0.482
474.000	318.869	80.000	19.993	100.182	20.101	2.035	0.495
476.000	319.842	80.000	19.995	100.181	20.099	2.132	0.474
478.000	320.884	80.000	19.995	100.182	20.101	2.039	0.524
480.000	321.881	80.001	19.995	100.181	20.099	2.159	0.502
482.000	322.875	79.999	19.995	100.180	20.101	1.998	0.497
484.000	323.923	79.998	19.996	100.181	20.101	2.039	0.490
486.000	324.879	79.998	19.994	100.180	20.105	1.758	0.492
488.000	325.913	79.997	19.996	100.172	20.098	2.247	0.523
490.000	326.919	79.998	19.996	100.180	20.095	2.430	0.536
492.000	327.911	80.000	19.995	100.179	20.109	1.465	0.495
494.000	328.913	79.999	19.994	100.181	20.103	1.899	0.502
496.000	329.950	79.999	19.995	100.180	20.098	2.264	0.545
498.000	330.987	79.998	19.994	100.182	20.102	1.983	0.504
500.000	332.033	79.998	19.996	100.176	20.098	2.246	0.552
502.000	333.115	79.999	19.995	100.177	20.101	2.014	0.404
504.000	334.047	80.000	19.994	100.182	20.101	1.994	0.409
506.000	335.146	79.998	19.996	100.182	20.100	2.080	0.308
508.000	335.930	79.998	19.998	100.179	20.098	2.230	0.448
510.000	336.954	79.998	19.996	100.171	20.099	2.129	0.471
512.000	337.980	79.999	19.998	100.151	20.100	2.095	0.506
514.000	339.086	79.998	19.996	100.172	20.096	2.380	0.547
516.000	340.007	79.998	19.995	100.178	20.099	2.161	0.509
518.000	341.050	79.998	19.996	100.182	20.096	2.351	0.469
520.000	341.959	79.998	19.996	100.182	20.098	2.209	0.496
522.000	343.039	79.998	19.996	100.183	20.096	2.355	0.508
524.000	343.974	79.997	19.995	100.180	20.097	2.333	0.469
526.000	345.012	79.998	19.996	100.186	20.098	2.215	0.519
528.000	345.962	79.996	19.996	100.179	20.102	1.964	0.493
530.000	347.016	79.999	19.996	100.182	20.098	2.217	0.528
532.000	347.997	79.999	19.996	100.183	20.097	2.331	0.515
534.000	349.010	79.999	19.997	100.181	20.098	2.215	0.518
536.000	350.045	79.999	19.997	100.181	20.095	2.421	0.507
538.000	351.041	79.999	19.995	100.179	20.095	2.409	0.474
540.000	352.032	80.000	19.994	100.178	20.096	2.383	0.524
542.000	353.086	79.998	19.996	100.178	20.097	2.318	0.468
544.000	354.059	80.000	19.998	100.177	20.097	2.295	0.477
546.000	355.084	79.998	19.995	100.175	20.092	2.649	0.489
548.000	356.088	79.999	19.996	100.181	20.092	2.608	0.516
550.000	357.071	79.999	19.996	100.177	20.092	2.667	0.482
552.000	358.142	80.000	19.995	100.179	20.095	2.463	0.557
554.000	359.123	79.999	19.995	100.179	20.096	2.338	0.516
556.000	360.130	79.999	19.994	100.177	20.092	2.621	0.497
558.000	361.146	80.001	19.995	100.180	20.092	2.673	0.515
560.000	362.146	80.000	19.995	100.178	20.094	2.486	0.521
562.000	363.114	80.000	19.995	100.164	20.091	2.696	0.480
564.000	364.167	79.999	19.996	100.168	20.091	2.679	0.537
566.000	365.198	79.999	19.996	100.178	20.091	2.692	0.516
568.000	366.247	79.998	19.994	100.181	20.089	2.881	0.530
570.000	367.224	79.999	19.994	100.172	20.085	3.102	0.496
572.000	368.227	79.997	19.996	100.181	20.084	3.199	0.500
574.000	369.269	79.996	19.995	100.175	20.083	3.274	0.518
576.000	370.231	79.997	19.994	100.182	20.081	3.377	0.486
578.000	371.285	79.998	19.994	100.184	20.079	3.538	0.510
580.000	372.316	79.998	19.994	100.182	20.076	3.726	0.516
582.000	373.350	79.999	19.995	100.183	20.074	3.902	0.498
584.000	374.379	79.998	19.994	100.185	20.072	3.990	0.511
586.000	375.332	79.999	19.993	100.186	20.068	4.279	0.486
588.000	376.362	79.999	19.994	100.184	20.069	4.245	0.464
590.000	377.417	79.999	19.995	100.183	20.065	4.507	0.504
592.000	378.451	79.998	19.994	100.182	20.060	4.840	0.521
594.000	379.480	79.998	19.995	100.185	20.061	4.785	0.510
596.000	380.519	79.997	19.994	100.187	20.052	5.360	0.508
598.000	381.556	79.998	19.995	100.186	20.047	5.745	0.548
600.000	382.585	79.997	19.995	100.183	20.042	6.091	0.517
602.000	383.599	79.997	19.998	100.180	20.036	6.498	0.540
604.000	384.596	79.998	19.996	100.186	20.031	6.832	0.482
606.000	385.652	79.998	19.996	100.182	20.027	7.096	0.507
608.000	386.666	79.999	19.996	100.182	20.020	7.560	0.505
610.000	387.707	79.999	19.995	100.189	20.014	8.017	0.511
612.000	388.739	80.000	19.996	100.190	20.003	8.764	0.511
614.000	389.780	80.000	19.996	100.208	19.997	9.179	0.519
616.000	390.773	79.998	19.994	100.215	19.987	9.830	0.519
618.000	391.839	79.999	19.995	100.195	19.979	10.401	0.516
620.000	392.893	79.999	19.996	100.202	19.972	10.892	0.508
622.000	393.909	79.999	19.997	100.213	19.961	11.618	0.517
624.000	394.969	79.999	19.996	100.217	19.954	12.139	0.518
626.000	395.995	79.999	19.996	100.219	19.941	12.989	0.521
628.000	396.980	79.998	19.997	100.213	19.927	13.945	0.470
630.000	398.023	79.998	19.997	100.219	19.911	15.054	0.505
632.000	399.066	79.998	19.995	100.219	19.902	15.694	0.516
634.000	400.089	79.999	19.996	100.221	19.885	16.820	0.527
636.000	401.077	79.999	19.995	100.233	19.866	18.163	0.515
638.000	402.063	80.001	19.995	100.250	19.851	19.203	0.471
640.000	403.065	79.999	19.995	100.262	19.826	20.891	0.473
642.000	404.104	80.002	19.994	100.270	19.802	22.568	0.533
644.000	405.116	79.999	19.995	100.261	19.778	24.196	0.486
646.000	406.104	80.000	19.997	100.282	19.753	25.946	0.524
648.000	407.109	79.998	19.995	100.287	19.729	27.543	0.496
650.000	408.103	79.996	19.994	100.299	19.701	29.468	0.509
652.000	409.084	79.998	19.995	100.305	19.672	31.492	0.497
654.000	410.138	79.997	19.995	100.306	19.644	33.409	0.501
656.000	411.120	79.998	19.994	100.321	19.617	35.246	0.503
658.000	412.102	79.997	19.994	100.326	19.587	37.352	0.517
660.000	413.105	79.997	19.995	100.347	19.559	39.286	0.498
662.000	414.135	79.998	19.997	100.364	19.513	42.419	0.476
664.000	415.100	79.998	19.995	100.379	19.472	45.260	0.502
666.000	416.103	79.998	19.994	100.396	19.431	48.067	0.514
668.000	417.102	80.000	19.996	100.400	19.392	50.788	0.487
670.000	418.106	79.998	19.994	100.413	19.349	53.717	0.493
672.000	419.111	80.000	19.995	100.411	19.308	56.580	0.500
674.000	420.111	79.999	19.994	100.439	19.269	59.222	0.498
676.000	421.121	79.997	19.996	100.455	19.224	62.361	0.511
678.000	422.111	80.000	19.995	100.478	19.170	66.091	0.506
680.000	423.152	79.999	19.994	100.495	19.127	69.082	0.521
682.000	424.157	79.999	19.996	100.501	19.084	72.052	0.536
684.000	425.161	79.998	19.995	100.510	19.038	75.209	0.514
686.000	426.171	79.998	19.995	100.530	18.986	78.823	0.478
688.000	427.150	79.999	19.995	100.556	18.927	82.890	0.480
690.000	428.179	79.996	19.996	100.581	18.865	87.184	0.507
692.000	429.169	79.998	19.996	100.607	18.813	90.807	0.475
694.000	430.164	79.999	19.995	100.612	18.747	95.353	0.477
696.001	431.145	79.996	19.996	100.636	18.687	99.540	0.474
698.000	432.188	79.999	19.996	100.654	18.620	104.138	0.526
700.000	433.188	79.999	19.995	100.677	18.546	109.282	0.506
702.000	434.203	80.003	19.995	100.695	18.481	113.812	0.528
704.000	435.140	79.997	19.996	100.714	18.406	119.045	0.475
706.000	436.193	80.001	19.996	100.754	18.333	124.113	0.509
708.000	437.199	79.998	19.995	100.771	18.256	129.444	0.500
710.000	438.144	80.000	19.995	100.791	18.180	134.757	0.486
712.000	439.151	80.000	19.995	100.831	18.102	140.169	0.494
714.000	440.136	79.999	19.995	100.862	18.014	146.187	0.500
716.000	441.135	80.000	19.998	100.896	17.925	152.352	0.488
718.000	442.089	79.998	19.996	100.929	17.833	158.764	0.479
720.000	443.050	80.000	19.995	100.959	17.749	164.622	0.450
722.000	444.047	80.000	19.997	100.975	17.672	169.975	0.508
724.000	445.007	80.000	19.995	100.968	17.626	173.182	0.481
726.000	446.024	80.000	19.996	100.951	17.587	175.800	0.495
728.000	446.978	80.001	19.996	100.967	17.542	178.973	0.462
730.000	447.965	80.000	19.995	101.037	17.509	181.260	0.475
732.000	448.993	79.997	19.995	101.048	17.481	183.206	0.532
734.000	449.997	79.999	19.997	101.049	17.462	184.545	0.488
736.000	451.032	79.996	19.995	101.038	17.454	185.020	0.492
738.000	452.032	79.998	19.995	101.034	17.459	184.651	0.548
740.000	453.027	79.999	19.994	101.043	17.458	184.710	0.535
742.000	454.006	79.997	19.996	101.046	17.459	184.595	0.488
744.000	455.012	79.998	19.996	101.064	17.470	183.808	0.502
746.000	456.021	79.999	19.996	101.056	17.488	182.489	0.507
748.000	457.004	79.998	19.996	101.031	17.517	180.451	0.530
750.000	458.051	79.998	19.995	101.007	17.544	178.484	0.501
752.000	459.043	79.998	19.997	100.998	17.592	175.067	0.524
754.000	460.085	80.000	19.995	100.973	17.648	171.176	0.527
756.000	461.039	80.000	19.994	100.948	17.720	166.158	0.463
758.000	462.030	79.998	19.996	100.913	17.805	160.216	0.519
760.000	463.044	79.998	19.997	100.872	17.897	153.820	0.500
762.000	464.057	79.999	19.995	100.834	17.999	146.746	0.519
764.000	465.018	80.001	19.996	100.797	18.111	138.900	0.499
766.000	465.943	79.997	19.995	100.751	18.230	130.664	0.491
768.000	467.031	79.997	19.994	100.715	18.363	121.528	0.521
770.000	467.971	79.998	19.994	100.662	18.501	112.019	0.499
772.000	468.988	79.998	19.995	100.617	18.651	101.650	0.491
774.000	469.971	79.999	19.997	100.571	18.808	90.834	0.500
776.000	470.997	79.998	19.994	100.522	18.956	80.638	0.506
778.000	471.991	79.999	19.995	100.476	19.098	70.900	0.488
780.000	473.001	79.999	19.994	100.460	19.228	61.939	0.507
782.000	474.032	80.000	19.995	100.438	19.344	54.002	0.504
784.000	475.051	79.999	19.996	100.410	19.442	47.225	0.528
786.000	476.042	79.996	19.995	100.377	19.523	41.687	0.533
788.000	477.035	79.997	19.997	100.340	19.593	36.905	0.509
790.000	478.043	79.997	19.995	100.312	19.654	32.658	0.521
792.000	479.003	79.998	19.996	100.299	19.704	29.242	0.479
794.000	480.059	79.998	19.995	100.282	19.751	26.021	0.530
796.000	481.074	80.000	19.995	100.268	19.788	23.496	0.535
798.000	482.105	79.998	19.996	100.259	19.819	21.352	0.511
800.000	483.105	79.998	19.995	100.236	19.849	19.323	0.516
802.000	484.128	80.001	19.995	100.221	19.878	17.297	0.508
804.000	485.116	80.002	19.995	100.222	19.899	15.883	0.490
806.000	486.234	80.001	19.995	100.220	19.918	14.601	0.548
808.000	487.221	79.999	19.996	100.218	19.935	13.387	0.527
810.000	488.273	79.998	19.995	100.212	19.954	12.095	0.540
812.000	489.319	79.997	19.996	100.197	19.965	11.339	0.537
814.000	490.346	79.996	19.995	100.194	19.976	10.607	0.510
816.000	491.400	79.996	19.996	100.194	19.985	9.945	0.527
818.000	492.412	79.998	19.997	100.193	19.994	9.333	0.531
820.000	493.429	79.996	19.996	100.192	20.009	8.347	0.500
822.000	494.507	79.998	19.996	100.186	20.009	8.332	0.540
824.000	495.563	79.997	19.997	100.183	20.017	7.812	0.509
826.000	496.573	79.995	19.995	100.184	20.023	7.391	0.485
828.000	497.627	79.997	19.994	100.186	20.022	7.408	0.522
830.000	498.672	79.998	19.996	100.184	20.030	6.921	0.538
832.000	499.696	79.997	19.996	100.183	20.033	6.684	0.508
834.000	500.696	79.998	19.995	100.180	20.040	6.208	0.515
836.000	501.703	79.997	19.996	100.179	20.040	6.182	0.510
838.000	502.771	79.995	19.995	100.179	20.042	6.060	0.525
840.000	503.748	79.998	19.995	100.178	20.043	6.011	0.502
842.000	504.780	79.997	19.995	100.174	20.042	6.079	0.503
844.000	505.826	79.997	19.997	100.178	20.042	6.084	0.502
846.000	506.801	79.997	19.994	100.175	20.052	5.381	0.500
848.000	507.876	79.996	19.994	100.177	20.054	5.249	0.516
850.000	508.869	79.995	19.994	100.153	20.051	5.433	0.526
852.000	509.886	79.996	19.995	100.166	20.051	5.450	0.540
854.000	510.862	79.998	19.996	100.166	20.050	5.495	0.510
856.000	511.884	79.997	19.995	100.169	20.052	5.384	0.491
858.000	512.887	79.998	19.994	100.177	20.054	5.219	0.538
860.000	513.893	79.998	19.994	100.165	20.056	5.077	0.542
862.000	514.952	79.999	19.995	100.146	20.059	4.926	0.513
864.000	515.949	79.999	19.995	100.155	20.059	4.924	0.513
866.000	516.954	79.999	19.993	100.148	20.064	4.576	0.534
868.000	517.982	79.999	19.993	100.151	20.057	5.015	0.498
870.000	518.964	79.999	19.995	100.143	20.062	4.720	0.495
872.000	520.037	79.998	19.994	100.147	20.055	5.179	0.514
874.000	521.017	79.998	19.995	100.143	20.056	5.120	0.486
876.000	522.044	79.999	19.996	100.142	20.061	4.736	0.484
878.000	523.084	79.997	19.995	100.142	20.066	4.450	0.513
880.000	524.116	79.997	19.995	100.140	20.062	4.671	0.541
882.000	525.094	80.000	19.995	100.135	20.059	4.879	0.487
884.000	526.112	79.998	19.996	100.138	20.062	4.699	0.501
886.000	527.086	79.999	19.996	100.135	20.065	4.480	0.482
888.000	528.108	80.002	19.994	100.140	20.066	4.432	0.489
890.000	529.111	80.019	20.001	100.143	20.061	4.737	0.517
892.000	530.135	80.002	19.998	100.144	20.060	4.827	0.527
894.000	531.172	80.001	19.996	100.138	20.059	4.926	0.511
896.000	532.155	79.997	19.996	100.138	20.065	4.497	0.524
898.000	533.205	79.998	19.996	100.144	20.061	4.742	0.521
900.000	534.210	79.998	19.997	100.145	20.065	4.501	0.538
902.000	535.254	79.997	19.997	100.143	20.063	4.639	0.519
904.000	536.298	79.995	19.996	100.144	20.062	4.716	0.535
906.000	537.298	79.997	19.997	100.143	20.065	4.477	0.508
908.000	538.336	79.996	19.995	100.143	20.061	4.791	0.532
910.000	539.350	79.999	19.997	100.139	20.065	4.481	0.496
912.000	540.374	79.998	19.996	100.140	20.064	4.587	0.515
914.000	541.412	79.996	19.996	100.139	20.067	4.365	0.531
916.000	542.439	79.996	19.994	100.143	20.062	4.686	0.503
918.000	543.465	79.996	19.995	100.140	20.067	4.353	0.515
920.000	544.511	80.000	19.997	100.142	20.061	4.731	0.537
922.000	545.563	79.999	19.993	100.144	20.062	4.712	0.505
924.000	546.591	80.001	19.996	100.144	20.063	4.635	0.497
926.000	547.606	80.000	19.995	100.137	20.062	4.714	0.537
928.000	548.640	79.998	19.996	100.123	20.068	4.312	0.513
930.000	549.683	79.997	19.995	100.132	20.070	4.153	0.508
932.000	550.689	79.998	19.994	100.132	20.059	4.873	0.537
934.000	551.743	79.997	19.995	100.134	20.058	4.970	0.536
936.000	552.741	79.998	19.994	100.135	20.059	4.927	0.499
938.000	553.780	79.997	19.994	100.126	20.064	4.579	0.543
940.000	554.788	79.999	19.996	100.134	20.063	4.611	0.512
942.000	555.807	80.000	19.995	100.140	20.061	4.740	0.508
944.000	556.846	80.000	19.996	100.131	20.063	4.600	0.519
946.000	557.856	80.001	19.995	100.138	20.062	4.721	0.506
948.000	558.875	79.997	19.996	100.135	20.065	4.486	0.518
950.000	559.869	79.999	19.995	100.138	20.058	4.978	0.506
952.000	560.893	80.001	19.995	100.139	20.061	4.759	0.508
954.000	561.921	80.000	19.995	100.141	20.066	4.400	0.524
956.000	562.919	79.999	19.995	100.128	20.065	4.492	0.497
958.000	563.962	80.000	19.997	100.137	20.059	4.923	0.496
960.000	564.934	79.998	19.995	100.143	20.060	4.862	0.520
962.000	565.978	79.999	19.995	100.143	20.064	4.566	0.510
964.000	566.973	80.001	19.995	100.137	20.060	4.826	0.540
966.000	567.935	79.999	19.995	100.142	20.054	5.224	0.481
968.000	568.962	80.001	19.995	100.134	20.057	5.032	0.487
970.000	569.981	80.001	19.995	100.129	20.060	4.858	0.527
972.000	570.951	80.000	19.996	100.142	20.057	5.052	0.496
974.000	571.994	80.001	19.995	100.136	20.059	4.927	0.525
976.000	573.005	79.998	19.996	100.137	20.060	4.810	0.542
978.000	574.059	79.998	19.996	100.140	20.058	4.967	0.524
980.000	575.094	79.997	19.995	100.145	20.061	4.758	0.510
982.000	576.095	79.997	19.995	100.142	20.056	5.120	0.504
984.000	577.127	79.997	19.996	100.138	20.052	5.379	0.492
986.000	578.153	79.998	19.996	100.143	20.052	5.358	0.529
988.000	579.209	79.999	19.995	100.144	20.050	5.499	0.510
990.000	580.187	79.998	19.996	100.133	20.050	5.512	0.485
992.000	581.234	80.001	19.995	100.123	20.047	5.741	0.549
994.000	582.224	79.999	19.996	100.134	20.054	5.218	0.499
996.000	583.224	79.997	19.996	100.121	20.050	5.548	0.483
998.000	584.240	79.999	19.996	100.131	20.047	5.730	0.496
1000.000	585.232	79.999	19.997	100.132	20.046	5.769	0.494
1002.000	586.263	79.995	19.997	100.120	20.048	5.683	0.552
1004.000	587.265	79.997	19.996	100.123	20.050	5.544	0.496
1006.000	588.304	79.997	19.996	100.131	20.047	5.698	0.500
1008.000	589.318	79.997	19.995	100.140	20.052	5.356	0.541
1010.000	590.345	80.000	19.997	100.142	20.047	5.728	0.498
1012.000	591.353	79.997	19.995	100.142	20.050	5.496	0.491
1014.000	592.346	79.997	19.996	100.133	20.047	5.752	0.500
1016.000	593.390	79.998	19.995	100.142	20.049	5.559	0.525
1018.000	594.441	79.997	19.996	100.140	20.048	5.645	0.550
1020.000	595.479	79.998	19.994	100.138	20.049	5.607	0.514
1022.000	596.560	79.998	19.996	100.142	20.050	5.525	0.523
1024.000	597.555	80.000	19.995	100.137	20.049	5.578	0.498
1026.000	598.590	79.998	19.995	100.130	20.046	5.806	0.506
1028.000	599.586	80.001	19.996	100.118	20.047	5.740	0.499
1030.000	600.618	79.997	19.994	100.128	20.045	5.868	0.513
1032.000	601.661	80.000	19.995	100.129	20.046	5.774	0.504
1034.000	602.674	80.000	19.995	100.130	20.043	6.027	0.492
1036.000	603.680	80.000	19.995	100.145	20.041	6.126	0.510
1038.000	604.741	79.999	19.995	100.132	20.049	5.567	0.530
1040.000	605.700	79.999	19.995	100.137	20.046	5.768	0.518
1042.000	606.752	80.000	19.995	100.129	20.047	5.745	0.534
1044.000	607.772	80.000	19.995	100.139	20.048	5.637	0.509
1046.000	608.777	80.000	19.995	100.141	20.043	6.003	0.532
1048.000	609.800	80.001	19.994	100.146	20.043	6.005	0.524
1050.001	610.787	80.000	19.994	100.144	20.047	5.730	0.478
1052.000	611.831	80.002	19.995	100.132	20.043	5.980	0.527
1054.000	612.831	80.002	19.996	100.139	20.043	5.980	0.498
1056.000	613.898	80.003	19.995	100.115	20.040	6.195	0.531
1058.000	614.910	80.000	19.995	100.131	20.042	6.064	0.510
1060.001	615.910	79.999	19.995	100.140	20.040	6.179	0.479
1062.000	616.937	80.001	19.995	100.141	20.043	5.984	0.530
1064.000	617.972	79.998	19.995	100.139	20.046	5.774	0.511
1066.000	618.981	79.998	19.994	100.137	20.045	5.849	0.503
1068.000	620.002	79.998	19.996	100.134	20.043	5.969	0.529
1070.000	621.043	79.999	19.995	100.133	20.045	5.891	0.535
1072.000	622.045	79.998	19.996	100.130	20.047	5.731	0.511
1074.000	623.088	79.998	19.995	100.138	20.050	5.524	0.513
1076.000	624.085	79.997	19.995	100.136	20.041	6.153	0.512
1078.000	625.107	79.999	19.995	100.131	20.046	5.805	0.517
1080.000	626.085	80.001	19.997	100.128	20.044	5.931	0.501
1082.000	627.105	80.000	19.996	100.122	20.049	5.585	0.484
1084.000	628.113	79.999	19.995	100.142	20.047	5.716	0.510
1086.000	629.085	79.999	19.996	100.131	20.046	5.759	0.513
1088.000	630.094	79.999	19.995	100.112	20.044	5.903	0.482
1090.000	631.113	79.998	19.994	100.124	20.046	5.802	0.519
1092.000	632.088	79.998	19.996	100.122	20.043	5.989	0.474
1094.000	633.161	79.998	19.996	100.129	20.047	5.700	0.517
1096.000	634.179	79.998	19.996	100.141	20.045	5.828	0.539
1098.001	635.221	79.997	19.997	100.138	20.046	5.798	0.521
1100.000	636.190	79.997	19.996	100.141	20.044	5.953	0.492
1102.001	637.214	79.999	19.997	100.136	20.047	5.697	0.522
1104.000	638.207	79.998	19.996	100.130	20.046	5.825	0.504
1106.000	639.195	79.999	19.997	100.117	20.047	5.740	0.509
1108.000	640.188	79.999	19.995	100.123	20.043	5.988	0.495
1110.000	641.213	80.000	19.996	100.128	20.045	5.892	0.495
1112.001	642.226	80.000	19.994	100.120	20.043	6.030	0.502
1114.000	643.228	79.999	19.994	100.138	20.045	5.837	0.494
1116.000	644.239	80.000	19.996	100.135	20.049	5.611	0.505
1118.000	645.225	80.001	19.995	100.124	20.044	5.941	0.517
1120.000	646.244	79.999	19.994	100.131	20.043	5.995	0.513
1122.000	647.257	80.001	19.996	100.137	20.044	5.905	0.531
1124.000	648.275	80.000	19.995	100.118	20.042	6.050	0.516
1126.000	649.317	80.000	19.994	100.126	20.047	5.751	0.547
1128.000	650.296	80.000	19.996	100.127	20.044	5.940	0.516
1130.000	651.309	80.001	19.996	100.139	20.044	5.940	0.494
1132.000	652.343	80.000	19.996	100.130	20.043	5.984	0.506
1134.000	653.344	80.002	19.995	100.122	20.047	5.718	0.510
1136.000	654.389	80.002	19.996	100.119	20.046	5.789	0.522
1138.000	655.454	80.003	19.995	100.134	20.044	5.948	0.526
1140.001	656.445	80.000	19.995	100.127	20.047	5.697	0.474
1142.000	657.473	80.001	19.995	100.134	20.048	5.668	0.514
1144.000	658.481	80.000	19.996	100.139	20.049	5.559	0.502
1146.000	659.511	79.999	19.997	100.129	20.045	5.832	0.545
1148.000	660.515	79.999	19.995	100.130	20.048	5.626	0.509
1150.000	661.542	79.999	19.995	100.135	20.048	5.628	0.512
1152.000	662.561	79.999	19.996	100.118	20.046	5.782	0.514
1154.000	663.588	80.000	19.995	100.118	20.051	5.458	0.495
1156.001	664.650	79.998	19.996	100.132	20.050	5.503	0.528
1158.000	665.672	79.998	19.995	100.125	20.052	5.391	0.493
1160.001	666.714	79.999	19.995	100.125	20.053	5.332	0.534
1162.000	667.768	80.000	19.995	100.130	20.048	5.665	0.526
1164.000	668.778	79.999	19.996	100.142	20.052	5.394	0.522
1166.000	669.823	80.000	19.995	100.131	20.048	5.662	0.510
1168.000	670.860	79.999	19.996	100.131	20.046	5.793	0.491
1170.000	671.897	79.998	19.995	100.123	20.050	5.531	0.542
1172.000	672.917	79.999	19.995	100.118	20.048	5.649	0.523
1174.000	673.954	79.998	19.996	100.129	20.047	5.735	0.496
1176.000	675.023	79.998	19.994	100.122	20.047	5.750	0.520
1178.001	676.092	79.998	19.995	100.131	20.050	5.512	0.541
1180.000	677.130	79.997	19.995	100.143	20.051	5.463	0.530
1182.001	678.129	80.000	19.997	100.129	20.054	5.254	0.532
1184.000	679.109	79.997	19.995	100.137	20.051	5.473	0.484
1186.000	680.160	79.999	19.996	100.140	20.053	5.336	0.564
1188.000	681.148	79.998	19.996	100.129	20.045	5.871	0.471
1190.000	682.163	80.000	19.996	100.127	20.048	5.624	0.502
1192.000	683.183	80.000	19.997	100.127	20.050	5.552	0.502
1194.000	684.197	80.001	19.995	100.129	20.050	5.549	0.498
1196.000	685.230	80.001	19.996	100.125	20.053	5.343	0.516
1198.000	686.182	80.000	19.996	100.123	20.051	5.425	0.483
1200.000	687.200	79.999	19.996	100.129	20.050	5.542	0.529
1202.000	688.182	80.000	19.995	100.140	20.050	5.494	0.481
1204.000	689.212	80.002	19.995	100.131	20.049	5.561	0.486
1206.000	690.208	80.001	19.995	100.114	20.050	5.488	0.531
1208.000	691.219	80.000	19.994	100.112	20.047	5.717	0.548
1210.000	692.214	80.002	19.995	100.118	20.047	5.734	0.498
1212.000	693.222	80.002	19.995	100.136	20.048	5.670	0.505
1214.000	694.275	80.000	19.995	100.138	20.047	5.709	0.542
1216.000	695.248	80.000	19.995	100.137	20.047	5.719	0.455
1218.000	696.257	80.003	19.996	100.121	20.046	5.762	0.488
1220.000	697.271	80.001	19.995	100.106	20.052	5.379	0.491
1222.000	698.313	80.000	19.995	100.113	20.044	5.923	0.520
1224.000	699.306	80.000	19.994	100.112	20.042	6.100	0.540
1226.000	700.317	79.999	19.995	100.113	20.048	5.631	0.507
1228.000	701.348	79.999	19.994	100.130	20.045	5.829	0.518
1230.000	702.394	79.999	19.995	100.121	20.043	6.001	0.520
1232.000	703.410	79.999	19.994	100.130	20.045	5.854	0.529
1234.000	704.364	79.999	19.995	100.138	20.044	5.962	0.469
1236.000	705.382	79.999	19.995	100.135	20.045	5.885	0.497
1238.000	706.390	80.000	19.994	100.142	20.046	5.795	0.472
1240.000	707.397	79.998	19.993	100.140	20.045	5.846	0.501
1242.001	708.425	79.999	19.994	100.132	20.046	5.788	0.515
1244.000	709.430	79.998	19.995	100.114	20.046	5.774	0.511
1246.000	710.466	80.000	19.995	100.122	20.046	5.824	0.523
1248.000	711.481	79.999	19.995	100.112	20.042	6.070	0.496
1250.000	712.475	79.999	19.994	100.117	20.047	5.700	0.508
1252.000	713.536	79.999	19.994	100.121	20.047	5.711	0.518
1254.000	714.556	79.999	19.996	100.125	20.043	5.978	0.508
1256.000	715.570	79.999	19.995	100.130	20.045	5.873	0.491
1258.000	716.646	80.000	19.995	100.134	20.047	5.718	0.550
1260.000	717.633	80.000	19.996	100.140	20.048	5.628	0.473
1262.001	718.619	79.999	19.997	100.140	20.048	5.651	0.481
1264.001	719.669	79.999	19.996	100.138	20.047	5.730	0.537
1266.000	720.652	80.001	19.996	100.129	20.042	6.050	0.509
1268.000	721.712	79.999	19.996	100.141	20.043	5.969	0.536
1270.000	722.740	80.000	19.995	100.136	20.044	5.924	0.515
1272.000	723.796	80.000	19.995	100.139	20.047	5.728	0.554
1274.000	724.812	80.001	19.995	100.130	20.045	5.874	0.504
1276.000	725.866	80.001	19.996	100.113	20.043	6.009	0.531
1278.000	726.860	80.000	19.994	100.109	20.045	5.852	0.490
1280.000	727.883	80.000	19.995	100.115	20.043	5.964	0.518
1282.000	728.897	80.000	19.997	100.110	20.044	5.910	0.514
1284.000	729.895	79.999	19.996	100.116	20.041	6.109	0.512
1286.000	730.933	79.999	19.995	100.125	20.042	6.051	0.502
1288.000	731.926	79.998	19.996	100.128	20.043	5.996	0.489
1290.000	732.918	79.999	19.995	100.122	20.044	5.916	0.464
1292.000	733.923	80.000	19.995	100.135	20.045	5.875	0.509
1294.000	734.927	79.999	19.994	100.129	20.044	5.959	0.513
1296.000	735.899	80.001	19.995	100.134	20.045	5.861	0.475
1298.001	736.871	80.002	19.993	100.130	20.044	5.963	0.476
1300.000	737.939	80.000	19.994	100.128	20.042	6.096	0.547
1302.000	738.915	80.002	19.994	100.134	20.041	6.132	0.506
1304.000	739.938	80.001	19.994	100.136	20.039	6.276	0.517
1306.000	740.920	80.001	19.994	100.121	20.039	6.248	0.490
1308.000	741.951	79.999	19.995	100.121	20.040	6.236	0.534
1310.000	742.941	79.999	19.995	100.143	20.041	6.117	0.499
1311.500	743.691	79.998	19.995	100.147	20.042	6.039	0.491