File: 01_Data/PETG/MCC/PETG_MCC_30K_min_210927_R3.txt
Sample ID:	C:\MCC\MCC Cal\Test\PETG_MCC_30K_min_210927_R3.txt
Sample Weight (mg):	4.56
Heating Rate (C/s):	0.5
Combustor Temp (C):	900
N2 Flow Rate (cc/min):	80
O2 Flow Rate (cc/min):	20
Calibration File:	C:\MCC\MCC Cal\Coeff1 JN10440_30_210304.txt.txt
T Correction Coefficients:	0	1.024463	0
Time Shift (s):	14
*
Time (s)	Temperature (C)	N2 flow rate (cc/min)	O2 flow rate (cc/min)	Flow Rate (cc/min)	Oxygen (%)	HRR (W/g)	Heating rate (C/s)
0.000	107.369	80.000	19.996	99.982	20.151	-0.075	0.000
2.000	107.342	80.000	19.995	99.982	20.150	-0.009	-0.017
4.000	107.368	80.000	19.996	99.981	20.147	0.172	0.018
6.000	107.386	80.001	19.995	99.981	20.149	0.032	0.008
8.000	107.376	80.002	19.995	99.983	20.150	-0.024	0.012
10.000	107.381	80.002	19.995	99.983	20.146	0.254	0.013
12.000	107.336	80.002	19.994	99.991	20.149	0.060	-0.020
14.000	107.370	80.000	19.994	99.998	20.149	0.030	0.008
16.000	107.321	80.000	19.997	100.011	20.151	-0.052	-0.020
18.000	107.364	79.998	19.996	100.015	20.149	0.086	-0.014
20.000	107.420	79.998	19.996	100.033	20.144	0.389	0.024
22.000	107.432	79.999	19.997	100.071	20.143	0.451	0.027
24.000	107.471	80.000	19.996	100.085	20.137	0.902	0.022
26.000	107.568	80.000	19.996	100.091	20.133	1.141	0.040
28.000	107.695	79.999	19.995	100.125	20.130	1.332	0.051
30.000	107.828	79.998	19.994	100.144	20.126	1.648	0.037
32.000	108.017	79.998	19.995	100.150	20.120	2.051	0.091
34.000	108.216	79.999	19.996	100.173	20.115	2.360	0.096
36.000	108.452	79.999	19.995	100.170	20.118	2.210	0.107
38.000	108.693	79.999	19.995	100.177	20.112	2.573	0.117
40.000	108.946	79.999	19.995	100.182	20.113	2.504	0.151
42.000	109.267	79.999	19.996	100.190	20.111	2.668	0.137
44.000	109.630	80.000	19.995	100.216	20.113	2.533	0.171
46.000	109.959	79.999	19.997	100.199	20.112	2.582	0.172
48.000	110.351	79.998	19.994	100.198	20.113	2.505	0.198
50.000	110.783	80.000	19.995	100.205	20.115	2.388	0.210
52.001	111.174	79.999	19.995	100.211	20.115	2.395	0.200
54.001	111.659	79.999	19.996	100.196	20.112	2.611	0.232
56.000	112.128	79.998	19.996	100.207	20.110	2.721	0.234
58.000	112.649	79.999	19.995	100.205	20.107	2.933	0.262
60.000	113.157	80.000	19.995	100.209	20.108	2.852	0.249
62.000	113.706	80.001	19.993	100.220	20.105	3.041	0.250
64.000	114.308	80.001	19.995	100.221	20.104	3.116	0.306
66.000	114.828	80.002	19.994	100.220	20.105	3.084	0.278
68.000	115.420	80.001	19.995	100.219	20.109	2.807	0.274
70.000	116.029	80.000	19.995	100.218	20.107	2.912	0.294
72.000	116.661	80.001	19.997	100.219	20.105	3.099	0.326
74.000	117.284	80.000	19.995	100.221	20.103	3.238	0.311
76.001	117.953	79.999	19.995	100.219	20.106	3.004	0.325
78.000	118.632	79.999	19.996	100.231	20.105	3.045	0.312
80.000	119.339	79.999	19.997	100.222	20.104	3.158	0.336
82.000	120.016	79.998	19.996	100.225	20.103	3.193	0.359
84.000	120.784	80.001	19.995	100.225	20.105	3.043	0.381
86.000	121.466	80.000	19.996	100.229	20.102	3.268	0.350
88.001	122.221	80.001	19.996	100.235	20.103	3.182	0.388
90.000	123.004	80.001	19.996	100.234	20.102	3.285	0.389
92.000	123.819	80.001	19.995	100.238	20.099	3.515	0.419
94.000	124.596	80.001	19.995	100.232	20.101	3.335	0.404
96.000	125.365	80.001	19.994	100.230	20.097	3.605	0.391
98.001	126.175	80.001	19.995	100.221	20.103	3.215	0.437
100.000	126.969	79.999	19.994	100.223	20.097	3.597	0.396
102.000	127.778	79.998	19.996	100.240	20.099	3.513	0.416
104.000	128.590	79.998	19.996	100.236	20.099	3.510	0.435
106.000	129.472	79.999	19.996	100.232	20.099	3.453	0.427
108.000	130.286	79.999	19.996	100.232	20.100	3.406	0.426
110.000	131.128	79.997	19.996	100.228	20.100	3.406	0.414
112.000	132.019	80.000	19.997	100.226	20.103	3.242	0.410
114.000	132.882	79.998	19.997	100.254	20.101	3.328	0.431
116.000	133.737	79.998	19.996	100.224	20.102	3.289	0.438
118.000	134.584	79.998	19.996	100.223	20.099	3.468	0.401
120.000	135.490	79.999	19.995	100.219	20.100	3.413	0.441
122.000	136.384	79.999	19.995	100.239	20.100	3.413	0.434
124.000	137.308	80.000	19.994	100.241	20.101	3.350	0.437
126.000	138.186	80.000	19.995	100.235	20.100	3.391	0.453
128.000	139.150	79.999	19.995	100.228	20.101	3.361	0.472
130.000	140.059	80.000	19.996	100.219	20.101	3.371	0.436
132.000	141.013	79.999	19.995	100.219	20.098	3.539	0.463
134.000	141.908	79.999	19.996	100.221	20.097	3.600	0.461
136.000	142.852	80.000	19.995	100.230	20.100	3.448	0.475
138.000	143.804	79.998	19.995	100.220	20.098	3.546	0.465
140.000	144.751	80.000	19.996	100.237	20.100	3.432	0.454
142.000	145.723	80.001	19.995	100.240	20.098	3.537	0.477
144.000	146.683	79.999	19.995	100.243	20.100	3.442	0.485
146.000	147.623	79.999	19.995	100.242	20.100	3.393	0.498
148.000	148.570	80.001	19.996	100.226	20.096	3.722	0.474
150.000	149.617	80.001	19.994	100.221	20.098	3.547	0.518
152.000	150.585	80.000	19.994	100.217	20.098	3.526	0.492
154.000	151.561	79.999	19.996	100.223	20.100	3.436	0.499
156.000	152.544	80.000	19.994	100.227	20.102	3.286	0.479
158.000	153.530	79.999	19.995	100.223	20.099	3.498	0.495
160.000	154.484	79.999	19.994	100.224	20.102	3.266	0.457
162.000	155.492	80.002	19.995	100.236	20.102	3.301	0.465
164.000	156.485	80.000	19.995	100.224	20.100	3.445	0.454
166.000	157.525	80.001	19.994	100.225	20.102	3.271	0.523
168.000	158.544	80.000	19.994	100.222	20.100	3.402	0.530
170.000	159.526	80.001	19.996	100.225	20.100	3.430	0.499
172.000	160.516	80.000	19.995	100.217	20.104	3.134	0.518
174.000	161.506	80.001	19.997	100.216	20.103	3.198	0.502
176.000	162.563	80.000	19.997	100.217	20.101	3.377	0.513
178.000	163.571	80.001	19.996	100.222	20.104	3.132	0.506
180.000	164.551	80.000	19.995	100.215	20.105	3.080	0.523
182.000	165.597	79.999	19.996	100.212	20.104	3.145	0.494
184.000	166.621	80.000	19.996	100.214	20.102	3.253	0.523
186.000	167.632	80.000	19.996	100.205	20.102	3.276	0.485
188.000	168.647	79.999	19.996	100.210	20.102	3.291	0.510
190.000	169.632	80.000	19.995	100.202	20.103	3.199	0.493
192.000	170.669	80.000	19.996	100.199	20.101	3.353	0.509
194.000	171.666	79.998	19.996	100.196	20.103	3.244	0.517
196.000	172.638	79.998	19.996	100.190	20.106	2.997	0.488
198.000	173.665	79.998	19.996	100.200	20.101	3.314	0.498
200.000	174.676	79.998	19.996	100.188	20.105	3.104	0.524
202.000	175.677	79.998	19.997	100.197	20.105	3.044	0.481
204.000	176.687	79.998	19.997	100.194	20.107	2.954	0.521
206.000	177.700	79.998	19.998	100.191	20.104	3.132	0.489
208.000	178.686	79.998	19.996	100.191	20.104	3.173	0.510
210.000	179.663	79.997	19.997	100.202	20.103	3.227	0.496
212.000	180.679	80.000	19.994	100.206	20.103	3.212	0.482
214.000	181.667	79.998	19.996	100.191	20.109	2.799	0.512
216.000	182.706	80.000	19.995	100.191	20.110	2.733	0.496
218.000	183.691	79.997	19.996	100.202	20.109	2.778	0.494
220.000	184.657	79.999	19.994	100.190	20.111	2.677	0.503
222.000	185.686	79.997	19.996	100.187	20.108	2.894	0.491
224.000	186.720	79.998	19.995	100.183	20.108	2.870	0.503
226.000	187.706	80.000	19.995	100.186	20.111	2.690	0.502
228.000	188.749	80.001	19.997	100.185	20.106	3.002	0.496
230.000	189.728	80.000	19.997	100.183	20.107	2.944	0.506
232.000	190.694	79.999	19.995	100.182	20.106	2.982	0.478
234.000	191.710	79.999	19.995	100.182	20.111	2.645	0.528
236.000	192.691	79.998	19.996	100.183	20.109	2.781	0.485
238.000	193.669	79.999	19.995	100.181	20.111	2.647	0.485
240.000	194.669	80.001	19.995	100.179	20.110	2.697	0.477
242.000	195.634	80.001	19.995	100.178	20.113	2.521	0.526
244.000	196.612	80.001	19.995	100.179	20.114	2.435	0.504
246.000	197.561	80.000	19.995	100.175	20.112	2.611	0.479
248.000	198.571	80.001	19.996	100.167	20.111	2.643	0.498
250.000	199.529	80.002	19.993	100.177	20.110	2.709	0.464
252.000	200.508	80.002	19.994	100.171	20.109	2.789	0.507
254.000	201.485	80.002	19.996	100.164	20.108	2.856	0.494
256.000	202.444	80.003	19.996	100.175	20.107	2.903	0.474
258.000	203.410	80.002	19.994	100.171	20.107	2.929	0.484
260.000	204.372	80.002	19.994	100.175	20.107	2.933	0.465
262.000	205.334	79.999	19.995	100.171	20.108	2.892	0.476
264.000	206.338	79.997	19.996	100.153	20.110	2.714	0.503
266.000	207.285	79.999	19.996	100.177	20.107	2.965	0.488
268.000	208.298	79.999	19.996	100.173	20.108	2.888	0.503
270.000	209.219	79.999	19.996	100.172	20.110	2.735	0.457
272.000	210.230	79.999	19.996	100.176	20.111	2.630	0.508
274.000	211.201	79.998	19.996	100.180	20.111	2.692	0.488
276.000	212.168	79.999	19.994	100.169	20.106	2.980	0.473
278.000	213.151	79.999	19.997	100.166	20.104	3.139	0.495
280.000	214.116	79.999	19.995	100.164	20.110	2.738	0.472
282.000	215.090	80.000	19.996	100.170	20.111	2.694	0.504
284.000	216.054	80.000	19.996	100.171	20.112	2.611	0.485
286.000	217.065	80.000	19.995	100.179	20.110	2.716	0.478
288.000	218.043	80.000	19.995	100.170	20.112	2.618	0.488
290.000	218.980	79.999	19.997	100.162	20.108	2.871	0.492
292.000	219.983	79.997	19.997	100.173	20.112	2.605	0.483
294.000	220.927	79.997	19.996	100.178	20.109	2.803	0.474
296.000	221.937	79.997	19.996	100.168	20.110	2.757	0.509
298.000	222.961	79.999	19.996	100.163	20.107	2.948	0.485
300.000	223.948	79.997	19.995	100.159	20.105	3.056	0.488
302.000	224.909	79.999	19.996	100.157	20.110	2.712	0.476
304.000	225.915	80.000	19.996	100.153	20.108	2.843	0.496
306.000	226.894	80.001	19.996	100.157	20.108	2.879	0.474
308.000	227.941	80.002	19.995	100.170	20.110	2.751	0.530
310.000	228.939	80.000	19.995	100.176	20.109	2.800	0.522
312.000	229.915	80.002	19.995	100.164	20.110	2.742	0.494
314.000	230.929	80.003	19.996	100.162	20.110	2.727	0.554
316.000	231.922	80.001	19.996	100.164	20.108	2.845	0.499
318.000	232.946	80.002	19.995	100.159	20.112	2.579	0.477
320.000	233.957	79.999	19.996	100.157	20.109	2.785	0.480
322.000	234.995	80.000	19.998	100.153	20.109	2.803	0.505
324.000	235.968	80.001	19.995	100.148	20.109	2.820	0.501
326.000	237.005	80.000	19.994	100.156	20.109	2.796	0.495
328.000	238.015	80.002	19.995	100.154	20.113	2.526	0.507
330.000	239.034	80.001	19.995	100.158	20.109	2.788	0.520
332.000	240.016	80.002	19.995	100.141	20.111	2.685	0.509
334.000	241.007	80.002	19.995	100.145	20.108	2.840	0.509
336.000	242.007	80.002	19.995	100.149	20.111	2.627	0.516
338.000	243.028	80.003	19.993	100.141	20.111	2.642	0.514
340.000	244.046	80.001	19.995	100.145	20.116	2.343	0.530
342.000	245.028	80.002	19.995	100.147	20.114	2.481	0.505
344.000	246.013	80.001	19.995	100.138	20.113	2.513	0.489
346.000	247.081	80.001	19.995	100.142	20.114	2.440	0.521
348.000	248.041	80.001	19.995	100.136	20.114	2.470	0.503
350.000	249.041	80.000	19.995	100.143	20.116	2.349	0.500
352.000	250.070	79.999	19.995	100.141	20.113	2.513	0.524
354.000	251.090	79.999	19.996	100.144	20.114	2.474	0.521
356.000	252.096	79.999	19.995	100.148	20.115	2.411	0.508
358.000	253.107	79.999	19.995	100.143	20.115	2.407	0.495
360.000	254.090	79.999	19.996	100.141	20.113	2.498	0.487
362.000	255.056	80.000	19.996	100.143	20.112	2.579	0.482
364.000	256.073	80.001	19.995	100.143	20.111	2.655	0.492
366.000	257.062	80.000	19.996	100.149	20.111	2.630	0.492
368.000	258.037	79.999	19.995	100.147	20.113	2.525	0.503
370.000	259.043	79.999	19.996	100.134	20.112	2.592	0.512
372.000	260.049	80.000	19.996	100.146	20.114	2.444	0.493
374.000	260.997	80.000	19.996	100.140	20.113	2.493	0.479
376.000	261.999	80.000	19.996	100.155	20.111	2.676	0.508
378.000	262.977	79.999	19.996	100.152	20.115	2.360	0.509
380.000	263.973	79.998	19.996	100.143	20.116	2.326	0.510
382.000	264.964	79.999	19.996	100.148	20.115	2.380	0.472
384.000	265.979	79.999	19.996	100.140	20.115	2.377	0.511
386.000	266.944	80.000	19.997	100.140	20.117	2.268	0.477
388.000	267.938	80.000	19.996	100.146	20.117	2.221	0.497
390.000	268.940	80.000	19.996	100.149	20.121	1.990	0.498
392.000	269.909	80.002	19.996	100.138	20.116	2.349	0.487
394.000	270.942	80.001	19.996	100.137	20.114	2.489	0.515
396.000	271.990	80.001	19.996	100.136	20.118	2.197	0.523
398.000	272.908	80.001	19.996	100.138	20.115	2.366	0.502
400.000	273.945	80.002	19.994	100.140	20.115	2.397	0.496
402.000	274.945	80.002	19.994	100.141	20.112	2.624	0.477
404.000	275.958	80.000	19.995	100.143	20.115	2.403	0.501
406.000	276.915	80.001	19.994	100.144	20.114	2.448	0.477
408.000	277.859	80.001	19.994	100.145	20.113	2.506	0.460
410.000	278.880	80.000	19.995	100.143	20.112	2.582	0.496
412.000	279.872	80.001	19.995	100.143	20.110	2.708	0.496
414.000	280.906	80.003	19.995	100.143	20.112	2.610	0.506
416.000	281.844	80.002	19.994	100.141	20.113	2.526	0.519
418.000	282.849	80.002	19.995	100.140	20.111	2.663	0.500
420.000	283.852	80.002	19.994	100.142	20.115	2.418	0.488
422.000	284.845	80.002	19.995	100.139	20.114	2.470	0.510
424.000	285.839	79.999	19.994	100.132	20.113	2.502	0.486
426.000	286.824	80.000	19.995	100.139	20.114	2.440	0.510
428.000	287.803	80.000	19.995	100.141	20.112	2.584	0.482
430.000	288.806	80.000	19.995	100.141	20.113	2.500	0.462
432.000	289.825	80.000	19.993	100.137	20.114	2.472	0.528
434.000	290.853	79.999	19.995	100.129	20.114	2.465	0.496
436.000	291.871	79.999	19.994	100.135	20.115	2.401	0.521
438.000	292.873	80.000	19.995	100.139	20.114	2.448	0.508
440.000	293.896	80.001	19.994	100.134	20.114	2.421	0.487
442.000	294.893	80.000	19.995	100.137	20.113	2.541	0.508
444.000	295.914	80.000	19.994	100.142	20.116	2.341	0.548
446.000	296.916	80.000	19.995	100.140	20.114	2.446	0.508
448.000	297.891	80.001	19.996	100.132	20.115	2.388	0.484
450.000	298.928	80.000	19.995	100.130	20.116	2.313	0.524
452.001	299.894	80.001	19.996	100.121	20.113	2.498	0.468
454.000	300.919	79.999	19.995	100.134	20.116	2.330	0.523
456.000	301.904	79.999	19.996	100.136	20.112	2.604	0.488
458.000	302.883	79.999	19.996	100.127	20.113	2.518	0.513
460.000	303.919	79.999	19.997	100.129	20.119	2.137	0.498
462.000	304.965	79.998	19.996	100.121	20.118	2.193	0.524
464.000	305.984	80.000	19.995	100.137	20.114	2.460	0.523
466.000	307.007	80.000	19.996	100.126	20.114	2.425	0.523
468.000	308.037	80.001	19.996	100.124	20.118	2.185	0.529
470.000	309.022	79.999	19.995	100.120	20.113	2.539	0.508
472.000	310.031	80.000	19.995	100.118	20.116	2.301	0.511
474.000	311.042	80.001	19.995	100.109	20.114	2.445	0.483
476.000	312.089	80.003	19.996	100.117	20.112	2.599	0.516
478.000	313.114	79.999	19.996	100.110	20.110	2.745	0.531
480.000	314.143	80.001	19.996	100.113	20.110	2.754	0.527
482.000	315.210	79.999	19.997	100.113	20.111	2.669	0.500
484.000	316.168	79.999	19.996	100.119	20.114	2.488	0.493
486.000	317.170	79.999	19.995	100.107	20.112	2.615	0.507
488.000	318.228	80.000	19.996	100.125	20.115	2.387	0.482
490.000	319.179	79.999	19.994	100.111	20.111	2.634	0.482
492.000	320.211	80.000	19.994	100.112	20.111	2.679	0.508
494.000	321.229	79.999	19.994	100.105	20.112	2.585	0.505
496.000	322.237	80.002	19.994	100.103	20.112	2.591	0.544
498.000	323.259	80.003	19.994	100.107	20.115	2.382	0.475
500.000	324.285	80.003	19.995	100.118	20.116	2.346	0.500
502.000	325.285	80.002	19.996	100.128	20.110	2.758	0.540
504.000	326.268	80.001	19.994	100.121	20.112	2.608	0.513
506.000	327.231	80.000	19.994	100.106	20.109	2.825	0.488
508.000	328.334	80.001	19.995	100.115	20.108	2.892	0.534
510.000	329.258	80.000	19.995	100.107	20.110	2.746	0.467
512.000	330.370	80.000	19.995	100.113	20.113	2.501	0.472
514.000	331.228	80.000	19.995	100.121	20.112	2.587	0.523
516.000	332.584	80.001	19.995	100.112	20.112	2.606	0.688
518.000	333.287	79.999	19.995	100.113	20.112	2.596	0.423
520.000	334.348	79.999	19.994	100.108	20.114	2.454	0.436
522.000	335.370	80.001	19.994	100.107	20.113	2.535	0.539
524.000	336.418	80.000	19.994	100.119	20.113	2.507	0.481
526.000	337.440	79.999	19.996	100.112	20.112	2.576	0.518
528.000	338.470	80.000	19.996	100.109	20.110	2.757	0.499
530.000	339.505	80.000	19.995	100.102	20.111	2.653	0.507
532.000	340.543	80.000	19.995	100.107	20.112	2.567	0.534
534.000	341.562	80.001	19.995	100.122	20.117	2.273	0.514
536.000	342.596	79.999	19.994	100.113	20.111	2.688	0.528
538.000	343.579	79.999	19.995	100.109	20.115	2.374	0.510
540.000	344.607	79.998	19.995	100.106	20.113	2.544	0.495
542.000	345.606	79.998	19.995	100.107	20.113	2.544	0.494
544.000	346.650	79.999	19.996	100.109	20.108	2.894	0.487
546.000	347.666	79.998	19.996	100.107	20.112	2.602	0.525
548.000	348.707	79.998	19.996	100.110	20.112	2.602	0.523
550.000	349.751	80.000	19.997	100.108	20.107	2.918	0.522
552.000	350.761	79.999	19.995	100.106	20.108	2.862	0.494
554.000	351.806	80.000	19.995	100.109	20.108	2.890	0.516
556.000	352.841	80.000	19.994	100.105	20.110	2.733	0.532
558.000	353.841	80.001	19.995	100.106	20.105	3.047	0.480
560.000	354.892	80.002	19.996	100.102	20.110	2.718	0.530
562.000	355.916	80.002	19.995	100.100	20.110	2.718	0.512
564.000	356.958	80.001	19.995	100.101	20.108	2.843	0.548
566.000	357.969	80.000	19.995	100.105	20.113	2.542	0.499
568.000	359.015	80.000	19.995	100.102	20.111	2.654	0.513
570.000	360.000	79.999	19.998	100.101	20.110	2.744	0.534
572.000	361.023	79.999	19.996	100.104	20.109	2.768	0.501
574.000	362.065	80.001	19.996	100.099	20.107	2.914	0.522
576.000	363.081	80.001	19.996	100.103	20.107	2.946	0.521
578.000	364.107	80.001	19.995	100.101	20.107	2.937	0.491
580.000	365.147	80.001	19.996	100.106	20.104	3.150	0.534
582.000	366.178	80.001	19.996	100.107	20.106	2.989	0.526
584.000	367.153	80.002	19.996	100.101	20.104	3.131	0.470
586.000	368.165	80.001	19.994	100.108	20.102	3.257	0.480
588.000	369.197	80.001	19.994	100.103	20.103	3.182	0.542
590.000	370.196	79.999	19.995	100.100	20.100	3.389	0.513
592.000	371.207	79.999	19.995	100.103	20.097	3.619	0.487
594.000	372.198	79.999	19.994	100.102	20.098	3.582	0.503
596.000	373.268	79.998	19.994	100.108	20.095	3.784	0.524
598.000	374.297	79.999	19.995	100.119	20.092	3.974	0.521
600.000	375.323	79.999	19.995	100.113	20.087	4.305	0.527
602.000	376.356	79.999	19.995	100.106	20.084	4.525	0.515
604.000	377.384	79.999	19.995	100.107	20.084	4.530	0.531
606.000	378.405	79.998	19.995	100.113	20.079	4.859	0.495
608.000	379.453	79.998	19.994	100.113	20.072	5.310	0.500
610.000	380.468	79.999	19.996	100.110	20.067	5.648	0.512
612.000	381.521	79.999	19.994	100.122	20.064	5.895	0.515
614.000	382.567	79.999	19.996	100.132	20.057	6.344	0.507
616.000	383.560	79.998	19.996	100.131	20.054	6.575	0.529
618.000	384.632	79.999	19.995	100.128	20.051	6.767	0.523
620.000	385.643	79.999	19.995	100.131	20.048	6.964	0.509
622.000	386.646	79.998	19.995	100.123	20.043	7.349	0.502
624.000	387.732	80.000	19.996	100.128	20.042	7.411	0.556
626.000	388.757	79.998	19.995	100.130	20.030	8.198	0.502
628.000	389.831	79.999	19.995	100.135	20.026	8.518	0.521
630.000	390.869	79.999	19.995	100.134	20.014	9.320	0.516
632.000	391.906	79.999	19.995	100.143	20.003	10.074	0.537
634.000	392.952	80.000	19.995	100.142	19.994	10.704	0.535
636.000	393.955	80.001	19.995	100.144	19.986	11.215	0.508
638.000	395.056	80.000	19.996	100.145	19.973	12.142	0.529
640.000	396.065	80.001	19.995	100.144	19.963	12.810	0.489
642.000	397.075	79.999	19.995	100.149	19.955	13.383	0.521
644.000	398.108	80.000	19.995	100.152	19.940	14.385	0.520
646.000	399.101	80.000	19.995	100.174	19.925	15.387	0.490
648.000	400.139	80.000	19.995	100.170	19.913	16.217	0.492
650.000	401.150	80.001	19.995	100.175	19.897	17.338	0.511
652.000	402.162	80.001	19.996	100.180	19.879	18.550	0.517
654.000	403.226	80.000	19.996	100.193	19.860	19.882	0.523
656.000	404.217	80.000	19.995	100.198	19.840	21.275	0.483
658.000	405.231	80.001	19.994	100.198	19.817	22.798	0.497
660.000	406.250	80.001	19.995	100.213	19.792	24.571	0.490
662.000	407.213	80.003	19.995	100.220	19.768	26.166	0.482
664.000	408.277	80.001	19.995	100.225	19.743	27.915	0.525
666.000	409.315	80.001	19.996	100.250	19.717	29.687	0.534
668.000	410.303	80.001	19.995	100.259	19.688	31.662	0.493
670.000	411.272	79.999	19.997	100.261	19.654	34.015	0.490
672.000	412.306	79.999	19.996	100.267	19.617	36.563	0.499
674.000	413.300	79.999	19.995	100.286	19.586	38.728	0.532
676.000	414.251	79.998	19.995	100.300	19.551	41.148	0.498
678.000	415.246	79.999	19.996	100.296	19.511	43.883	0.495
680.000	416.287	79.999	19.996	100.310	19.479	46.055	0.540
682.000	417.235	79.997	19.994	100.332	19.439	48.796	0.492
684.000	418.263	79.998	19.994	100.347	19.403	51.324	0.502
686.000	419.257	79.998	19.994	100.365	19.363	54.068	0.489
688.000	420.231	80.000	19.995	100.377	19.311	57.634	0.515
690.000	421.215	80.000	19.995	100.379	19.266	60.748	0.477
692.000	422.186	79.999	19.995	100.393	19.224	63.643	0.471
694.000	423.215	79.998	19.995	100.402	19.180	66.669	0.494
696.000	424.211	80.001	19.996	100.421	19.129	70.231	0.493
698.000	425.237	80.001	19.995	100.448	19.071	74.233	0.490
700.000	426.211	79.998	19.995	100.457	19.017	77.924	0.511
702.000	427.193	80.000	19.995	100.486	18.961	81.839	0.483
704.000	428.173	79.999	19.995	100.491	18.903	85.854	0.506
706.000	429.176	79.999	19.995	100.524	18.841	90.094	0.488
708.000	430.128	80.000	19.996	100.542	18.781	94.255	0.486
710.000	431.123	79.999	19.995	100.556	18.716	98.809	0.510
712.000	432.104	80.000	19.995	100.592	18.646	103.629	0.454
714.000	433.151	80.000	19.996	100.610	18.578	108.325	0.500
716.000	434.148	80.001	19.996	100.632	18.505	113.468	0.557
718.000	435.155	80.002	19.995	100.648	18.435	118.285	0.520
720.000	436.127	80.001	19.995	100.672	18.359	123.575	0.480
722.000	437.131	80.002	19.995	100.718	18.275	129.430	0.514
724.000	438.090	80.002	19.994	100.742	18.197	134.835	0.471
726.000	439.107	80.001	19.994	100.781	18.104	141.207	0.511
728.000	440.050	79.999	19.995	100.808	18.018	147.174	0.507
730.000	441.031	79.999	19.995	100.834	17.927	153.514	0.492
732.000	442.010	80.000	19.995	100.868	17.836	159.876	0.480
734.000	443.001	79.999	19.996	100.889	17.756	165.482	0.488
736.000	444.008	79.999	19.995	100.905	17.708	168.750	0.505
738.000	445.019	80.001	19.994	100.884	17.662	171.859	0.489
740.000	446.026	79.999	19.996	100.905	17.613	175.224	0.508
742.000	447.026	80.001	19.995	100.953	17.556	179.259	0.512
744.000	448.004	80.001	19.994	101.008	17.498	183.312	0.494
746.000	449.019	80.002	19.994	101.032	17.455	186.280	0.513
748.000	450.037	80.001	19.994	100.991	17.440	187.246	0.491
750.000	451.080	80.002	19.995	100.961	17.437	187.475	0.508
752.000	452.091	79.999	19.995	100.979	17.434	187.651	0.504
754.000	453.103	79.999	19.996	101.004	17.434	187.626	0.541
756.000	454.076	79.999	19.997	101.025	17.444	186.887	0.482
758.000	455.154	80.000	19.997	101.006	17.454	186.136	0.533
760.000	456.118	79.999	19.996	101.002	17.470	184.984	0.504
762.000	457.178	79.999	19.998	101.000	17.495	183.132	0.508
764.000	458.170	79.999	19.996	100.983	17.527	180.882	0.516
766.000	459.267	80.000	19.997	100.963	17.576	177.413	0.542
768.000	460.237	80.000	19.996	100.930	17.631	173.548	0.508
770.000	461.209	79.999	19.996	100.902	17.711	167.994	0.485
772.000	462.265	80.000	19.996	100.854	17.803	161.587	0.543
774.000	463.258	80.000	19.995	100.818	17.905	154.481	0.501
776.000	464.267	80.002	19.996	100.779	18.017	146.693	0.514
778.000	465.234	79.999	19.996	100.740	18.137	138.397	0.495
780.000	466.224	80.000	19.994	100.687	18.264	129.619	0.493
782.000	467.241	80.000	19.995	100.633	18.402	120.093	0.507
784.000	468.238	79.999	19.995	100.586	18.548	110.021	0.502
786.000	469.231	79.998	19.996	100.538	18.703	99.376	0.494
788.000	470.238	79.998	19.995	100.504	18.856	88.801	0.514
790.000	471.242	79.998	19.993	100.462	19.009	78.287	0.514
792.000	472.285	79.999	19.995	100.429	19.154	68.326	0.522
794.000	473.330	79.999	19.994	100.396	19.281	59.593	0.522
796.000	474.381	80.000	19.996	100.373	19.393	51.905	0.535
798.000	475.384	80.001	19.995	100.340	19.484	45.677	0.517
800.000	476.455	80.002	19.996	100.312	19.566	40.052	0.531
802.000	477.477	80.001	19.996	100.277	19.638	35.056	0.503
804.000	478.539	80.001	19.996	100.246	19.696	31.122	0.551
806.000	479.534	80.000	19.995	100.222	19.743	27.854	0.512
808.000	480.582	80.000	19.995	100.196	19.785	25.029	0.511
810.000	481.607	80.000	19.995	100.192	19.824	22.314	0.504
812.000	482.679	79.999	19.995	100.182	19.853	20.328	0.538
814.000	483.672	80.001	19.995	100.180	19.880	18.474	0.503
816.000	484.653	79.999	19.995	100.185	19.903	16.890	0.503
818.000	485.726	80.001	19.995	100.179	19.925	15.418	0.556
820.000	486.746	80.001	19.995	100.156	19.945	14.057	0.498
822.000	487.755	80.000	19.995	100.150	19.963	12.803	0.507
824.000	488.747	80.003	19.995	100.142	19.972	12.180	0.480
826.000	489.808	80.001	19.996	100.151	19.987	11.140	0.521
828.000	490.830	80.001	19.995	100.150	19.997	10.493	0.529
830.000	491.829	80.001	19.996	100.142	20.008	9.717	0.474
832.000	492.844	80.001	19.994	100.140	20.017	9.119	0.519
834.000	493.939	80.000	19.996	100.138	20.026	8.491	0.552
836.000	494.925	79.998	19.996	100.123	20.032	8.099	0.523
838.000	495.971	79.998	19.995	100.113	20.036	7.791	0.517
840.000	496.955	79.998	19.994	100.117	20.038	7.641	0.494
842.000	497.944	80.000	19.994	100.120	20.048	6.994	0.499
844.000	498.954	79.999	19.995	100.114	20.049	6.914	0.479
846.000	500.001	80.000	19.994	100.117	20.051	6.791	0.537
848.000	500.985	80.000	19.995	100.114	20.055	6.526	0.519
850.000	502.036	79.999	19.996	100.114	20.063	5.954	0.527
852.000	503.001	79.999	19.996	100.132	20.060	6.167	0.478
854.000	504.015	79.999	19.995	100.106	20.064	5.866	0.516
856.000	505.046	79.999	19.996	100.105	20.064	5.887	0.508
858.000	506.065	79.999	19.996	100.111	20.066	5.746	0.496
860.000	507.083	79.998	19.997	100.119	20.061	6.066	0.531
862.000	508.110	79.999	19.994	100.111	20.067	5.649	0.524
864.000	509.146	79.999	19.996	100.112	20.066	5.709	0.532
866.000	510.126	80.000	19.995	100.112	20.069	5.503	0.507
868.000	511.132	79.999	19.996	100.105	20.069	5.561	0.488
870.000	512.154	80.000	19.996	100.109	20.070	5.488	0.478
872.000	513.192	80.000	19.996	100.110	20.069	5.516	0.519
874.000	514.173	79.999	19.994	100.108	20.069	5.548	0.532
876.000	515.268	80.000	19.995	100.108	20.073	5.282	0.520
878.000	516.328	79.999	19.994	100.106	20.069	5.529	0.523
880.000	517.348	80.000	19.995	100.105	20.074	5.172	0.548
882.000	518.399	80.001	19.994	100.102	20.074	5.164	0.523
884.000	519.476	80.001	19.996	100.102	20.075	5.120	0.537
886.000	520.501	80.001	19.994	100.095	20.076	5.062	0.496
888.000	521.505	80.001	19.994	100.097	20.079	4.839	0.520
890.000	522.523	80.003	19.995	100.093	20.075	5.134	0.514
892.000	523.609	80.000	19.995	100.094	20.074	5.165	0.541
894.000	524.622	80.000	19.995	100.097	20.081	4.722	0.483
896.000	525.696	80.000	19.997	100.102	20.081	4.714	0.506
898.000	526.727	79.999	19.995	100.098	20.077	4.968	0.534
900.000	527.782	80.000	19.995	100.096	20.081	4.709	0.520
902.000	528.811	80.002	19.994	100.099	20.082	4.675	0.523
904.000	529.802	80.003	19.994	100.101	20.082	4.652	0.483
906.000	530.825	80.001	19.994	100.100	20.082	4.624	0.479
908.000	531.869	80.003	19.995	100.087	20.082	4.676	0.533
910.000	532.916	80.003	19.994	100.096	20.080	4.807	0.499
912.000	533.953	80.002	19.994	100.095	20.083	4.549	0.497
914.000	534.999	80.001	19.994	100.093	20.084	4.525	0.539
916.000	536.018	80.000	19.996	100.092	20.079	4.873	0.535
918.000	537.026	79.999	19.997	100.091	20.084	4.526	0.499
920.000	538.038	79.999	19.997	100.089	20.081	4.736	0.500
922.000	539.100	80.000	19.996	100.088	20.084	4.523	0.517
924.000	540.121	79.999	19.996	100.095	20.082	4.659	0.510
926.000	541.127	80.000	19.996	100.104	20.081	4.724	0.514
928.000	542.187	79.999	19.996	100.104	20.081	4.685	0.516
930.000	543.193	79.998	19.996	100.102	20.078	4.918	0.497
932.000	544.210	79.999	19.995	100.093	20.079	4.868	0.511
934.000	545.193	79.998	19.995	100.087	20.082	4.657	0.495
936.000	546.206	80.000	19.995	100.076	20.078	4.949	0.504
938.000	547.240	79.998	19.994	100.082	20.078	4.899	0.510
940.000	548.241	79.999	19.995	100.088	20.079	4.851	0.512
942.000	549.290	79.999	19.995	100.091	20.079	4.876	0.522
944.000	550.305	79.997	19.995	100.072	20.079	4.870	0.523
946.000	551.305	79.998	19.996	100.076	20.076	5.058	0.510
948.000	552.344	79.998	19.996	100.088	20.079	4.853	0.495
950.000	553.359	79.997	19.996	100.079	20.080	4.810	0.509
952.000	554.370	79.997	19.995	100.087	20.078	4.932	0.507
954.000	555.415	79.999	19.997	100.087	20.079	4.878	0.525
956.000	556.451	79.999	19.995	100.077	20.075	5.126	0.513
958.000	557.446	80.000	19.995	100.067	20.075	5.104	0.501
960.000	558.442	79.999	19.995	100.066	20.078	4.930	0.480
962.000	559.484	80.001	19.995	100.073	20.075	5.132	0.520
964.000	560.500	80.001	19.995	100.085	20.079	4.863	0.481
966.000	561.544	80.001	19.994	100.076	20.078	4.932	0.517
968.000	562.533	80.002	19.994	100.075	20.080	4.774	0.495
970.000	563.574	80.001	19.995	100.084	20.077	4.973	0.511
972.000	564.558	80.000	19.995	100.087	20.074	5.182	0.522
974.000	565.572	80.000	19.995	100.083	20.078	4.897	0.540
976.000	566.596	79.999	19.996	100.072	20.074	5.173	0.507
978.000	567.609	79.999	19.996	100.071	20.073	5.262	0.505
980.000	568.596	80.000	19.996	100.078	20.073	5.255	0.515
982.000	569.647	80.001	19.997	100.085	20.075	5.142	0.514
984.000	570.656	80.001	19.995	100.084	20.073	5.233	0.515
986.000	571.657	80.002	19.995	100.085	20.072	5.350	0.496
988.000	572.679	80.002	19.993	100.088	20.070	5.453	0.505
990.000	573.674	80.002	19.995	100.068	20.072	5.296	0.497
992.000	574.721	80.001	19.995	100.082	20.070	5.490	0.534
994.000	575.701	80.001	19.995	100.092	20.069	5.516	0.514
996.000	576.743	80.001	19.994	100.072	20.068	5.572	0.517
998.000	577.758	80.001	19.995	100.075	20.072	5.313	0.515
1000.000	578.778	79.999	19.994	100.072	20.073	5.242	0.527
1002.000	579.742	79.998	19.994	100.074	20.070	5.489	0.517
1004.000	580.757	79.998	19.995	100.067	20.069	5.506	0.480
1006.000	581.752	79.999	19.994	100.082	20.072	5.350	0.499
1008.000	582.763	79.998	19.995	100.094	20.071	5.413	0.473
1010.000	583.776	79.998	19.996	100.084	20.072	5.361	0.509
1012.000	584.817	79.998	19.995	100.079	20.070	5.467	0.537
1014.000	585.828	80.000	19.995	100.089	20.068	5.631	0.522
1016.000	586.785	80.000	19.995	100.083	20.063	5.948	0.522
1018.000	587.879	80.001	19.996	100.063	20.067	5.647	0.506
1020.000	588.916	80.001	19.995	100.068	20.063	5.922	0.518
1022.000	589.908	80.004	19.995	100.069	20.061	6.060	0.482
1024.000	590.918	80.000	19.995	100.072	20.060	6.162	0.470
1026.000	592.000	79.999	19.996	100.079	20.066	5.760	0.516
1028.000	593.026	79.998	19.996	100.064	20.057	6.330	0.522
1030.000	594.046	79.998	19.996	100.073	20.060	6.162	0.511
1032.000	595.076	79.998	19.995	100.068	20.064	5.911	0.507
1034.000	596.130	79.998	19.996	100.082	20.062	5.995	0.542
1036.000	597.138	79.998	19.996	100.089	20.060	6.118	0.527
1038.000	598.171	79.997	19.996	100.082	20.057	6.382	0.521
1040.000	599.235	79.999	19.998	100.087	20.058	6.260	0.535
1042.000	600.245	79.997	19.997	100.082	20.061	6.085	0.530
1044.000	601.252	80.001	19.996	100.078	20.062	6.006	0.530
1046.000	602.323	80.001	19.996	100.072	20.058	6.281	0.503
1048.000	603.316	79.998	19.995	100.076	20.061	6.096	0.537
1050.001	604.385	80.003	19.995	100.082	20.061	6.081	0.510
1052.000	605.372	80.001	19.995	100.084	20.059	6.221	0.483
1054.000	606.419	80.001	19.994	100.083	20.061	6.096	0.510
1056.000	607.446	79.999	19.995	100.083	20.060	6.163	0.518
1058.000	608.466	80.000	19.993	100.076	20.059	6.188	0.498
1060.000	609.504	79.998	19.994	100.071	20.062	6.029	0.475
1062.000	610.530	80.001	19.996	100.069	20.057	6.350	0.526
1064.000	611.556	80.000	19.995	100.075	20.059	6.223	0.529
1066.000	612.554	80.000	19.995	100.068	20.060	6.174	0.472
1068.000	613.575	80.000	19.993	100.075	20.061	6.079	0.523
1070.000	614.596	80.003	19.994	100.086	20.058	6.257	0.528
1072.000	615.660	80.002	19.996	100.079	20.061	6.094	0.520
1074.000	616.706	80.003	19.995	100.070	20.059	6.195	0.526
1076.000	617.691	80.001	19.995	100.074	20.057	6.339	0.501
1078.001	618.709	80.000	19.995	100.067	20.059	6.194	0.488
1080.000	619.764	80.002	19.996	100.073	20.057	6.370	0.516
1082.000	620.775	80.000	19.996	100.079	20.057	6.334	0.528
1084.000	621.783	80.001	19.995	100.074	20.055	6.465	0.492
1086.000	622.813	80.000	19.995	100.070	20.060	6.159	0.514
1088.000	623.816	80.000	19.994	100.071	20.057	6.342	0.482
1090.000	624.854	80.001	19.995	100.070	20.057	6.355	0.493
1092.000	625.865	79.999	19.996	100.068	20.056	6.421	0.506
1094.000	626.879	80.000	19.994	100.065	20.060	6.129	0.507
1096.000	627.903	80.000	19.995	100.064	20.056	6.393	0.515
1098.000	628.941	79.999	19.995	100.064	20.056	6.393	0.517
1100.000	629.978	80.001	19.996	100.065	20.055	6.518	0.527
1102.000	630.990	80.001	19.995	100.069	20.055	6.463	0.513
1104.000	632.010	80.000	19.994	100.071	20.055	6.460	0.515
1106.000	633.003	80.001	19.996	100.071	20.053	6.654	0.494
1108.000	634.049	79.998	19.996	100.084	20.049	6.873	0.517
1110.000	635.081	80.000	19.997	100.078	20.051	6.796	0.515
1112.000	636.124	80.000	19.996	100.065	20.055	6.488	0.500
1114.000	637.068	79.998	19.996	100.062	20.054	6.590	0.490
1116.000	638.155	79.999	19.995	100.074	20.057	6.334	0.547
1118.000	639.140	79.998	19.995	100.070	20.057	6.366	0.494
1120.000	640.129	79.999	19.993	100.067	20.057	6.380	0.496
1122.000	641.140	79.998	19.995	100.071	20.059	6.187	0.468
1124.000	642.153	80.000	19.995	100.074	20.055	6.463	0.488
1126.000	643.174	80.001	19.996	100.065	20.057	6.364	0.496
1128.000	644.198	79.997	19.995	100.065	20.054	6.580	0.510
1130.000	645.219	80.000	19.996	100.071	20.056	6.395	0.490
1132.000	646.203	80.001	19.997	100.065	20.058	6.293	0.478
1134.000	647.281	79.997	19.994	100.066	20.054	6.544	0.523
1136.000	648.265	79.999	19.996	100.064	20.052	6.676	0.496
1138.000	649.274	79.999	19.996	100.068	20.057	6.360	0.513
1140.000	650.316	79.998	19.997	100.075	20.054	6.560	0.516
1142.000	651.284	80.002	19.996	100.069	20.054	6.557	0.448
1144.000	652.333	80.001	19.995	100.064	20.057	6.325	0.515
1146.000	653.336	80.003	19.994	100.068	20.055	6.467	0.528
1148.001	654.386	80.000	19.993	100.063	20.053	6.663	0.495
1150.000	655.399	80.002	19.995	100.063	20.056	6.444	0.488
1152.000	656.479	80.004	19.993	100.063	20.057	6.388	0.545
1154.000	657.465	80.004	19.994	100.065	20.058	6.256	0.529
1156.000	658.483	80.003	19.995	100.067	20.056	6.443	0.518
1158.000	659.518	80.001	19.996	100.065	20.056	6.417	0.517
1160.000	660.607	80.001	19.994	100.062	20.056	6.404	0.545
1162.000	661.551	80.000	19.993	100.063	20.058	6.297	0.481
1164.000	662.630	80.002	19.995	100.072	20.060	6.183	0.531
1166.000	663.639	80.001	19.995	100.068	20.055	6.476	0.519
1168.000	664.630	80.002	19.996	100.073	20.054	6.538	0.510
1170.000	665.642	80.000	19.995	100.068	20.052	6.686	0.531
1172.000	666.753	80.003	19.994	100.066	20.052	6.701	0.556
1174.000	667.737	80.001	19.995	100.067	20.057	6.348	0.496
1176.000	668.717	79.999	19.995	100.067	20.056	6.447	0.501
1178.000	669.739	80.001	19.994	100.064	20.055	6.514	0.503
1180.000	670.740	80.000	19.994	100.065	20.060	6.159	0.491
1182.000	671.738	79.999	19.994	100.064	20.053	6.612	0.510
1184.000	672.779	79.999	19.993	100.065	20.061	6.086	0.498
1186.000	673.761	80.002	19.994	100.066	20.056	6.417	0.499
1188.000	674.792	80.000	19.994	100.069	20.057	6.355	0.522
1190.000	675.838	80.000	19.995	100.066	20.056	6.400	0.531
1192.000	676.846	79.999	19.994	100.072	20.061	6.105	0.511
1194.000	677.846	80.001	19.995	100.079	20.056	6.418	0.470
1196.000	678.868	79.997	19.995	100.067	20.055	6.462	0.500
1198.000	679.931	79.999	19.996	100.067	20.054	6.570	0.523
1200.000	680.930	79.999	19.996	100.069	20.056	6.454	0.521
1202.000	681.926	79.999	19.994	100.072	20.055	6.506	0.473
1204.000	682.991	79.999	19.995	100.072	20.056	6.391	0.512
1206.001	684.013	80.001	19.995	100.082	20.057	6.379	0.530
1208.000	685.050	80.001	19.996	100.072	20.051	6.747	0.505
1210.000	686.119	80.002	19.994	100.072	20.055	6.504	0.522
1212.000	687.111	80.000	19.993	100.064	20.051	6.744	0.511
1214.000	688.153	80.003	19.995	100.074	20.050	6.826	0.520
1216.000	689.156	80.002	19.994	100.069	20.057	6.361	0.475
1218.000	690.278	80.001	19.996	100.066	20.047	7.030	0.518
1220.000	691.289	80.001	19.994	100.062	20.051	6.777	0.529
1222.000	692.336	79.998	19.996	100.071	20.054	6.547	0.521
1224.000	693.361	80.001	19.996	100.076	20.056	6.447	0.505
1226.000	694.375	79.998	19.998	100.070	20.049	6.886	0.510
1228.000	695.408	80.000	19.995	100.070	20.052	6.678	0.523
1230.000	696.451	80.000	19.996	100.068	20.052	6.711	0.546
1232.000	697.486	79.999	19.995	100.063	20.051	6.796	0.511
1234.001	698.525	80.003	19.994	100.071	20.052	6.677	0.500
1236.000	699.556	80.002	19.995	100.069	20.052	6.720	0.494
1238.000	700.567	80.003	19.994	100.069	20.056	6.415	0.501
1240.000	701.605	80.001	19.994	100.072	20.054	6.570	0.490
1242.000	702.669	80.002	19.995	100.082	20.051	6.772	0.512
1244.000	703.663	80.000	19.995	100.063	20.051	6.759	0.489
1246.001	704.683	80.001	19.995	100.077	20.047	7.026	0.507
1248.000	705.673	80.000	19.995	100.072	20.051	6.741	0.498
1250.000	706.707	79.999	19.995	100.066	20.055	6.518	0.527
1252.000	707.733	79.999	19.994	100.066	20.058	6.288	0.520
1254.000	708.684	80.002	19.996	100.065	20.053	6.643	0.480
1256.000	709.747	79.999	19.996	100.069	20.051	6.770	0.521
1258.000	710.725	80.002	19.994	100.076	20.053	6.663	0.526
1260.000	711.733	80.000	19.994	100.080	20.056	6.430	0.499
1262.000	712.730	80.001	19.994	100.071	20.051	6.766	0.526
1264.000	713.782	79.999	19.994	100.067	20.052	6.711	0.503
1266.000	714.778	80.001	19.996	100.069	20.048	7.005	0.511
1268.000	715.810	79.998	19.994	100.068	20.049	6.903	0.507
1270.000	716.875	79.999	19.995	100.068	20.045	7.171	0.515
1272.000	717.846	80.000	19.995	100.069	20.044	7.268	0.504
1274.000	718.871	79.998	19.994	100.068	20.054	6.547	0.518
1276.000	719.888	80.001	19.993	100.090	20.050	6.801	0.514
1278.000	720.916	79.999	19.994	100.084	20.046	7.085	0.489
1280.001	721.901	79.998	19.994	100.074	20.051	6.783	0.494
1282.000	722.927	80.001	19.997	100.087	20.046	7.142	0.517
1284.000	723.924	79.999	19.995	100.068	20.051	6.789	0.504
1286.001	724.945	79.999	19.994	100.060	20.051	6.790	0.510
1288.000	725.943	80.002	19.997	100.062	20.049	6.884	0.499
1290.000	726.934	80.002	19.996	100.064	20.047	7.069	0.460
1292.000	727.915	80.000	19.995	100.063	20.047	7.039	0.500
1294.000	728.871	80.003	19.996	100.068	20.047	7.075	0.489
1296.000	729.919	80.002	19.995	100.065	20.052	6.684	0.512
1298.000	730.883	79.999	19.995	100.065	20.048	6.949	0.478
1300.001	731.929	80.002	19.995	100.069	20.050	6.837	0.546
1302.000	732.885	80.001	19.995	100.062	20.049	6.874	0.496
1304.000	733.907	80.001	19.994	100.071	20.048	6.951	0.524
1306.000	734.905	80.002	19.995	100.065	20.047	7.008	0.487
1308.000	735.888	80.000	19.995	100.062	20.047	7.009	0.485
1310.000	736.885	80.002	19.996	100.062	20.050	6.848	0.481
1312.000	737.878	80.002	19.993	100.066	20.047	7.047	0.484
1314.000	738.933	80.001	19.995	100.064	20.045	7.157	0.518
1316.000	739.943	80.000	19.994	100.073	20.045	7.204	0.498
1318.000	740.897	80.000	19.994	100.082	20.045	7.208	0.482
1320.000	741.901	80.002	19.995	100.063	20.040	7.543	0.493
1322.000	742.892	80.001	19.996	100.072	20.042	7.370	0.495
1323.500	743.658	80.001	19.995	100.076	20.040	7.501	0.496