File: 01_Data/PETG/MCC/PETG_MCC_30K_min_210927_R2.txt
Sample ID:	C:\MCC\MCC Cal\Test\PETG_MCC_30K_min_210927_R2.txt
Sample Weight (mg):	4.59
Heating Rate (C/s):	0.5
Combustor Temp (C):	900
N2 Flow Rate (cc/min):	80
O2 Flow Rate (cc/min):	20
Calibration File:	C:\MCC\MCC Cal\Coeff1 JN10440_30_210304.txt.txt
T Correction Coefficients:	0	1.024463	0
Time Shift (s):	14
*
Time (s)	Temperature (C)	N2 flow rate (cc/min)	O2 flow rate (cc/min)	Flow Rate (cc/min)	Oxygen (%)	HRR (W/g)	Heating rate (C/s)
0.000	108.853	79.998	19.995	100.025	20.096	0.165	0.004
2.000	108.823	79.998	19.996	100.023	20.100	-0.093	0.015
4.000	108.860	79.999	19.997	100.024	20.096	0.180	0.021
6.000	108.813	79.997	19.997	100.026	20.100	-0.115	0.016
8.000	108.830	79.998	19.997	100.031	20.101	-0.195	-0.004
10.000	108.817	79.997	19.997	100.030	20.098	0.011	0.019
12.000	108.798	79.998	19.996	100.037	20.098	0.011	-0.029
14.000	108.833	79.997	19.995	100.058	20.098	0.054	0.022
16.000	108.834	79.998	19.996	100.065	20.091	0.485	0.013
18.000	108.830	79.999	19.996	100.069	20.089	0.671	-0.035
20.000	108.865	80.000	19.996	100.089	20.085	0.936	0.009
22.000	108.904	79.998	19.994	100.106	20.084	1.006	0.023
24.000	108.978	79.999	19.996	100.108	20.083	1.028	0.043
26.000	109.051	80.000	19.995	100.144	20.078	1.387	0.080
28.000	109.146	80.000	19.997	100.123	20.074	1.636	0.059
30.000	109.268	79.998	19.995	100.237	20.074	1.638	0.051
32.000	109.466	79.998	19.995	100.226	20.069	2.027	0.098
34.000	109.655	79.999	19.995	100.219	20.068	2.048	0.091
36.000	109.927	79.999	19.995	100.218	20.062	2.472	0.142
38.000	110.214	79.999	19.995	100.225	20.062	2.485	0.158
40.000	110.449	79.999	19.995	100.224	20.061	2.517	0.160
42.000	110.763	79.999	19.994	100.251	20.062	2.505	0.167
44.000	111.149	79.999	19.994	100.256	20.063	2.446	0.213
46.000	111.493	79.999	19.994	100.257	20.057	2.855	0.187
48.000	111.901	80.001	19.994	100.258	20.058	2.723	0.205
50.001	112.272	80.000	19.995	100.261	20.058	2.773	0.201
52.000	112.723	80.001	19.996	100.261	20.054	3.017	0.241
54.000	113.248	80.001	19.994	100.248	20.059	2.712	0.264
56.000	113.707	80.001	19.994	100.259	20.060	2.595	0.260
58.000	114.227	80.000	19.994	100.254	20.056	2.891	0.289
60.000	114.726	80.000	19.994	100.250	20.054	3.010	0.236
62.000	115.311	79.999	19.994	100.258	20.058	2.770	0.304
64.000	115.871	79.999	19.995	100.264	20.060	2.608	0.305
66.000	116.418	79.998	19.995	100.277	20.053	3.088	0.262
68.000	117.058	79.998	19.996	100.288	20.055	2.950	0.290
70.000	117.692	79.999	19.995	100.293	20.055	2.989	0.323
72.000	118.341	79.999	19.995	100.271	20.056	2.872	0.333
74.000	119.008	79.999	19.995	100.278	20.058	2.736	0.354
76.000	119.688	79.999	19.996	100.267	20.055	2.945	0.353
78.000	120.369	79.999	19.994	100.261	20.055	2.939	0.372
80.000	121.050	79.999	19.994	100.262	20.054	3.030	0.326
82.000	121.753	79.998	19.995	100.268	20.058	2.731	0.369
84.000	122.509	79.998	19.996	100.273	20.058	2.747	0.384
86.000	123.238	79.999	19.996	100.272	20.056	2.874	0.372
88.000	123.982	79.998	19.995	100.277	20.055	2.954	0.397
90.000	124.780	79.998	19.995	100.272	20.055	2.928	0.407
92.000	125.498	79.997	19.994	100.281	20.056	2.889	0.361
94.000	126.291	79.997	19.995	100.272	20.053	3.097	0.401
96.000	127.114	79.998	19.995	100.266	20.054	3.045	0.387
98.000	127.910	79.998	19.995	100.267	20.053	3.079	0.409
100.000	128.731	79.999	19.995	100.262	20.052	3.197	0.390
102.000	129.527	79.998	19.996	100.274	20.055	2.929	0.385
104.000	130.360	80.000	19.994	100.279	20.056	2.880	0.435
106.001	131.224	80.000	19.994	100.265	20.056	2.873	0.410
108.000	132.025	80.000	19.994	100.289	20.057	2.813	0.415
110.000	132.911	80.000	19.995	100.292	20.059	2.689	0.413
112.001	133.785	79.999	19.995	100.297	20.054	3.007	0.476
114.000	134.627	80.000	19.995	100.289	20.059	2.667	0.458
116.000	135.500	80.000	19.996	100.285	20.057	2.806	0.460
118.000	136.377	80.000	19.997	100.289	20.056	2.915	0.440
120.000	137.336	80.000	19.996	100.295	20.053	3.105	0.469
122.000	138.220	80.000	19.996	100.296	20.056	2.925	0.456
124.000	139.113	80.000	19.996	100.277	20.057	2.811	0.452
126.000	140.018	79.998	19.996	100.272	20.059	2.660	0.466
128.000	140.937	80.002	19.995	100.283	20.057	2.792	0.460
130.000	141.904	80.000	19.995	100.284	20.055	2.978	0.475
132.000	142.801	80.002	19.994	100.291	20.057	2.842	0.468
134.000	143.717	80.002	19.993	100.291	20.057	2.793	0.461
136.000	144.736	80.003	19.994	100.277	20.056	2.891	0.485
138.000	145.658	80.002	19.995	100.279	20.055	2.965	0.490
140.000	146.608	80.001	19.995	100.275	20.054	2.995	0.514
142.000	147.543	80.001	19.994	100.279	20.056	2.887	0.460
144.000	148.509	80.000	19.995	100.279	20.056	2.885	0.502
146.000	149.461	79.998	19.995	100.290	20.055	2.980	0.469
148.000	150.424	79.999	19.995	100.273	20.053	3.097	0.493
150.000	151.365	79.999	19.997	100.270	20.054	3.034	0.475
152.000	152.381	79.999	19.995	100.278	20.061	2.580	0.507
154.000	153.359	80.000	19.996	100.272	20.058	2.764	0.504
156.000	154.314	79.999	19.995	100.271	20.057	2.794	0.477
158.000	155.303	79.998	19.995	100.272	20.057	2.807	0.493
160.000	156.267	79.998	19.994	100.264	20.059	2.673	0.502
162.000	157.251	79.997	19.995	100.268	20.060	2.632	0.495
164.000	158.253	79.999	19.994	100.263	20.061	2.537	0.466
166.000	159.257	79.999	19.994	100.266	20.064	2.329	0.506
168.000	160.278	79.999	19.995	100.264	20.063	2.429	0.503
170.000	161.244	79.999	19.993	100.266	20.063	2.442	0.509
172.000	162.249	79.999	19.994	100.262	20.063	2.409	0.484
174.000	163.237	79.999	19.995	100.262	20.060	2.647	0.491
176.000	164.260	79.997	19.994	100.264	20.058	2.775	0.510
178.000	165.283	79.997	19.995	100.263	20.059	2.671	0.494
180.000	166.301	79.997	19.994	100.262	20.060	2.602	0.508
182.000	167.267	79.997	19.995	100.257	20.061	2.542	0.481
184.000	168.269	79.999	19.995	100.257	20.061	2.516	0.480
186.000	169.326	80.000	19.995	100.255	20.062	2.448	0.485
188.000	170.286	79.999	19.995	100.258	20.062	2.462	0.515
190.000	171.256	80.000	19.994	100.252	20.061	2.568	0.494
192.000	172.255	80.002	19.995	100.250	20.061	2.539	0.486
194.000	173.305	80.000	19.994	100.254	20.059	2.674	0.512
196.000	174.285	80.000	19.995	100.246	20.061	2.523	0.486
198.000	175.239	80.000	19.995	100.255	20.059	2.655	0.505
200.000	176.268	79.999	19.996	100.252	20.063	2.419	0.462
202.000	177.296	79.999	19.996	100.250	20.065	2.248	0.528
204.000	178.290	79.999	19.995	100.244	20.059	2.672	0.528
206.000	179.281	79.999	19.997	100.234	20.061	2.540	0.502
208.000	180.272	79.999	19.995	100.234	20.063	2.387	0.492
210.000	181.262	80.000	19.995	100.233	20.065	2.289	0.517
212.000	182.274	80.000	19.995	100.228	20.064	2.322	0.502
214.000	183.277	80.001	19.996	100.232	20.067	2.173	0.511
216.000	184.266	80.001	19.996	100.232	20.065	2.272	0.520
218.000	185.293	79.999	19.995	100.220	20.067	2.131	0.514
220.000	186.284	79.999	19.994	100.225	20.068	2.081	0.507
222.000	187.289	79.999	19.995	100.226	20.065	2.261	0.516
224.000	188.253	79.999	19.994	100.221	20.069	1.984	0.470
226.000	189.293	79.998	19.994	100.222	20.064	2.332	0.503
228.000	190.293	79.998	19.994	100.226	20.068	2.084	0.492
230.000	191.318	79.999	19.995	100.225	20.073	1.703	0.509
232.000	192.299	79.999	19.996	100.232	20.071	1.889	0.533
234.000	193.278	79.998	19.994	100.225	20.069	1.976	0.493
236.000	194.265	79.997	19.994	100.225	20.075	1.582	0.496
238.001	195.279	79.997	19.995	100.228	20.072	1.815	0.502
240.000	196.234	79.998	19.995	100.227	20.073	1.725	0.467
242.000	197.243	79.999	19.995	100.227	20.073	1.699	0.496
244.000	198.222	79.999	19.995	100.223	20.071	1.861	0.539
246.000	199.212	79.998	19.996	100.233	20.069	2.002	0.508
248.000	200.217	79.997	19.994	100.225	20.072	1.818	0.505
250.000	201.174	79.998	19.995	100.231	20.069	2.021	0.465
252.000	202.157	79.997	19.995	100.220	20.074	1.653	0.482
254.000	203.198	79.998	19.995	100.226	20.074	1.694	0.531
256.000	204.162	79.998	19.995	100.227	20.070	1.950	0.511
258.000	205.157	79.998	19.994	100.219	20.070	1.958	0.486
260.000	206.135	79.998	19.994	100.223	20.073	1.697	0.479
262.000	207.106	79.999	19.995	100.219	20.073	1.731	0.504
264.000	208.135	79.998	19.994	100.220	20.072	1.811	0.503
266.000	209.108	79.999	19.995	100.220	20.071	1.868	0.490
268.000	210.107	80.001	19.995	100.217	20.076	1.552	0.500
270.000	211.072	79.999	19.995	100.218	20.078	1.417	0.493
272.000	212.090	80.000	19.994	100.220	20.072	1.831	0.509
274.000	213.077	80.000	19.996	100.213	20.075	1.586	0.525
276.000	214.054	79.999	19.995	100.216	20.074	1.640	0.484
278.000	215.029	79.999	19.995	100.214	20.076	1.560	0.490
280.000	215.985	79.999	19.997	100.217	20.073	1.721	0.494
282.000	217.000	79.999	19.996	100.212	20.078	1.417	0.486
284.000	218.007	79.999	19.995	100.219	20.077	1.478	0.508
286.000	218.953	79.998	19.995	100.219	20.076	1.517	0.499
288.000	219.952	79.998	19.995	100.217	20.076	1.538	0.510
290.000	220.921	79.999	19.996	100.217	20.077	1.439	0.497
292.000	221.894	79.999	19.994	100.205	20.078	1.405	0.498
294.000	222.878	80.001	19.994	100.217	20.079	1.292	0.465
296.000	223.864	80.002	19.996	100.210	20.075	1.595	0.490
298.000	224.828	80.000	19.996	100.217	20.076	1.519	0.481
300.000	225.852	79.999	19.995	100.216	20.078	1.391	0.475
302.000	226.835	79.999	19.995	100.214	20.078	1.381	0.524
304.000	227.807	79.999	19.996	100.215	20.080	1.286	0.471
306.000	228.824	79.997	19.996	100.213	20.078	1.372	0.500
308.000	229.874	79.998	19.995	100.218	20.080	1.238	0.497
310.000	230.866	79.997	19.997	100.222	20.083	1.021	0.512
312.000	231.812	79.998	19.995	100.205	20.077	1.428	0.513
314.000	232.828	79.998	19.996	100.208	20.082	1.097	0.511
316.000	233.812	79.999	19.995	100.192	20.079	1.303	0.494
318.000	234.830	79.998	19.997	100.199	20.079	1.312	0.494
320.000	235.799	79.999	19.995	100.205	20.081	1.156	0.485
322.000	236.841	79.999	19.995	100.201	20.081	1.160	0.504
324.000	237.847	80.000	19.995	100.192	20.082	1.125	0.494
326.000	238.856	80.000	19.996	100.194	20.084	0.994	0.503
328.000	239.835	79.999	19.996	100.199	20.080	1.221	0.497
330.000	240.807	79.999	19.995	100.206	20.082	1.128	0.510
332.000	241.824	79.999	19.994	100.191	20.083	1.050	0.506
334.000	242.818	79.999	19.994	100.202	20.085	0.939	0.518
336.000	243.819	79.997	19.994	100.196	20.085	0.935	0.501
338.000	244.809	79.998	19.996	100.197	20.084	0.953	0.481
340.000	245.794	79.997	19.995	100.198	20.084	1.011	0.480
342.000	246.812	79.998	19.994	100.198	20.080	1.279	0.500
344.000	247.775	79.999	19.995	100.197	20.083	1.035	0.473
346.000	248.772	79.998	19.994	100.189	20.080	1.238	0.481
348.000	249.836	79.999	19.994	100.183	20.082	1.102	0.501
350.000	250.833	79.999	19.994	100.201	20.083	1.076	0.504
352.000	251.826	80.000	19.995	100.189	20.085	0.931	0.497
354.000	252.788	79.999	19.995	100.196	20.085	0.942	0.457
356.000	253.786	80.001	19.995	100.189	20.085	0.926	0.496
358.000	254.766	79.998	19.995	100.186	20.084	0.983	0.501
360.000	255.752	80.000	19.995	100.183	20.085	0.901	0.478
362.000	256.722	79.999	19.996	100.183	20.087	0.786	0.469
364.000	257.698	80.000	19.994	100.184	20.085	0.935	0.490
366.000	258.659	79.999	19.994	100.183	20.088	0.688	0.501
368.000	259.631	79.998	19.994	100.185	20.084	1.013	0.505
370.000	260.565	79.999	19.995	100.195	20.087	0.764	0.458
372.000	261.569	80.000	19.994	100.187	20.083	1.018	0.486
374.000	262.503	80.000	19.995	100.185	20.087	0.764	0.510
376.000	263.451	80.000	19.993	100.183	20.084	1.009	0.479
378.000	264.422	80.002	19.994	100.184	20.084	1.013	0.488
380.000	265.394	80.002	19.995	100.182	20.082	1.091	0.484
382.000	266.330	80.000	19.996	100.183	20.088	0.716	0.456
384.000	267.305	80.001	19.995	100.178	20.085	0.920	0.500
386.000	268.239	79.998	19.996	100.181	20.083	1.059	0.467
388.000	269.181	79.998	19.996	100.179	20.083	1.033	0.463
390.000	270.155	79.996	19.995	100.180	20.085	0.901	0.454
392.000	271.151	79.998	19.995	100.180	20.089	0.652	0.497
394.000	272.161	79.997	19.996	100.178	20.086	0.847	0.511
396.000	273.163	79.998	19.996	100.180	20.088	0.721	0.485
398.000	274.116	79.998	19.994	100.180	20.087	0.781	0.488
400.000	275.065	79.998	19.995	100.177	20.089	0.624	0.504
402.000	276.027	79.999	19.996	100.179	20.087	0.775	0.447
404.000	277.039	79.998	19.996	100.181	20.085	0.909	0.491
406.000	277.999	79.998	19.994	100.180	20.088	0.734	0.490
408.000	279.014	80.000	19.995	100.181	20.088	0.740	0.501
410.000	280.010	79.999	19.996	100.181	20.090	0.545	0.510
412.000	280.934	80.000	19.995	100.183	20.095	0.219	0.494
414.000	281.902	79.999	19.995	100.184	20.094	0.305	0.465
416.000	282.871	79.998	19.995	100.187	20.089	0.636	0.474
418.000	283.873	79.998	19.994	100.185	20.088	0.676	0.495
420.000	284.894	79.998	19.994	100.185	20.089	0.662	0.542
422.000	285.901	79.998	19.995	100.185	20.089	0.619	0.544
424.000	286.873	79.997	19.994	100.183	20.089	0.667	0.493
426.000	287.891	79.998	19.996	100.185	20.088	0.686	0.485
428.000	288.895	79.999	19.994	100.183	20.084	0.957	0.518
430.000	289.912	79.998	19.994	100.182	20.086	0.874	0.546
432.000	290.880	80.000	19.994	100.184	20.088	0.740	0.520
434.000	291.893	80.000	19.994	100.183	20.086	0.849	0.509
436.000	292.886	80.000	19.994	100.183	20.089	0.617	0.486
438.000	293.947	79.999	19.995	100.185	20.085	0.939	0.489
440.000	294.912	80.000	19.995	100.183	20.089	0.617	0.503
442.000	295.896	79.998	19.993	100.184	20.089	0.656	0.508
444.000	296.934	80.000	19.995	100.181	20.089	0.628	0.528
446.000	297.934	80.000	19.995	100.189	20.093	0.346	0.511
448.000	298.962	79.998	19.993	100.180	20.089	0.649	0.496
450.000	299.988	79.999	19.996	100.179	20.088	0.706	0.529
452.000	301.034	80.000	19.994	100.180	20.090	0.543	0.536
454.000	302.033	80.001	19.994	100.179	20.091	0.502	0.516
456.000	303.055	80.001	19.995	100.178	20.093	0.338	0.503
458.000	304.067	80.000	19.996	100.177	20.087	0.782	0.498
460.000	305.102	80.001	19.996	100.175	20.091	0.509	0.498
462.000	306.135	79.999	19.994	100.176	20.087	0.743	0.528
464.000	307.136	80.000	19.995	100.177	20.089	0.649	0.495
466.000	308.209	79.998	19.996	100.177	20.089	0.647	0.534
468.000	309.170	79.998	19.995	100.177	20.089	0.608	0.464
470.000	310.197	79.999	19.995	100.179	20.090	0.554	0.523
472.000	311.228	79.999	19.995	100.181	20.092	0.470	0.528
474.000	312.276	79.997	19.995	100.178	20.094	0.282	0.534
476.000	313.306	79.997	19.995	100.181	20.094	0.320	0.504
478.000	314.317	79.999	19.994	100.179	20.088	0.691	0.502
480.001	315.354	79.998	19.996	100.181	20.090	0.583	0.516
482.000	316.352	79.998	19.994	100.178	20.091	0.491	0.480
484.000	317.393	79.999	19.995	100.180	20.090	0.559	0.490
486.000	318.390	79.999	19.995	100.181	20.089	0.626	0.477
488.000	319.435	79.999	19.995	100.176	20.090	0.574	0.527
490.000	320.467	79.998	19.995	100.165	20.085	0.916	0.512
492.000	321.469	79.998	19.996	100.154	20.089	0.660	0.508
494.000	322.475	79.998	19.995	100.169	20.093	0.386	0.508
496.000	323.487	79.999	19.994	100.171	20.090	0.552	0.518
498.000	324.490	79.997	19.994	100.175	20.090	0.539	0.511
500.000	325.512	79.999	19.995	100.177	20.089	0.636	0.510
502.000	326.524	79.998	19.996	100.173	20.086	0.829	0.536
504.000	327.517	79.999	19.995	100.166	20.091	0.479	0.509
506.000	328.594	79.998	19.994	100.162	20.092	0.422	0.538
508.000	329.594	79.999	19.996	100.174	20.088	0.734	0.517
510.000	330.625	80.000	19.995	100.172	20.092	0.429	0.512
512.000	331.607	79.998	19.995	100.158	20.090	0.582	0.509
514.000	332.617	80.001	19.996	100.166	20.094	0.308	0.517
516.000	333.653	79.999	19.994	100.148	20.092	0.440	0.517
518.000	334.709	80.001	19.995	100.146	20.094	0.295	0.541
520.000	335.701	80.001	19.993	100.167	20.093	0.340	0.517
522.000	336.708	80.000	19.993	100.150	20.098	0.059	0.495
524.000	337.702	80.000	19.995	100.149	20.090	0.576	0.512
526.000	338.726	79.999	19.995	100.159	20.092	0.409	0.507
528.000	339.768	79.998	19.994	100.155	20.094	0.305	0.505
530.000	340.733	80.000	19.995	100.166	20.093	0.372	0.488
532.000	341.774	80.001	19.994	100.156	20.093	0.346	0.516
534.000	342.766	80.001	19.994	100.163	20.093	0.379	0.498
536.000	343.756	80.001	19.996	100.149	20.088	0.697	0.483
538.000	344.781	80.001	19.995	100.157	20.093	0.381	0.538
540.000	345.817	80.001	19.994	100.162	20.089	0.630	0.548
542.000	346.800	80.001	19.995	100.165	20.091	0.531	0.510
544.000	347.755	79.999	19.995	100.154	20.089	0.643	0.488
546.000	348.828	79.998	19.995	100.153	20.095	0.242	0.511
548.000	349.788	79.999	19.995	100.145	20.094	0.299	0.470
550.000	350.837	79.997	19.993	100.151	20.094	0.310	0.499
552.000	351.837	79.998	19.994	100.158	20.095	0.225	0.475
554.000	352.869	79.999	19.994	100.150	20.093	0.375	0.548
556.000	353.850	79.997	19.995	100.152	20.091	0.500	0.539
558.000	354.870	79.997	19.994	100.156	20.095	0.249	0.492
560.000	355.913	79.998	19.994	100.153	20.097	0.110	0.598
562.000	356.899	79.997	19.994	100.155	20.093	0.377	0.586
564.000	357.737	79.998	19.995	100.149	20.095	0.260	0.345
566.000	358.664	79.998	19.995	100.157	20.095	0.216	0.286
568.000	359.825	79.998	19.995	100.161	20.095	0.253	0.747
570.000	360.867	79.997	19.994	100.153	20.095	0.208	0.461
572.000	361.910	79.998	19.995	100.149	20.093	0.357	0.439
574.000	362.996	79.998	19.996	100.159	20.091	0.498	0.517
576.000	363.949	79.998	19.996	100.173	20.094	0.299	0.500
578.000	365.033	79.997	19.996	100.160	20.091	0.502	0.514
580.000	366.012	79.998	19.996	100.169	20.091	0.507	0.519
582.000	367.024	79.998	19.996	100.171	20.088	0.721	0.497
584.000	368.039	80.000	19.997	100.168	20.085	0.918	0.490
586.000	369.079	79.998	19.995	100.169	20.090	0.541	0.506
588.000	370.127	79.999	19.994	100.177	20.087	0.788	0.503
590.000	371.129	80.000	19.995	100.173	20.081	1.167	0.523
592.000	372.164	80.000	19.995	100.164	20.080	1.247	0.466
594.000	373.233	80.001	19.995	100.177	20.081	1.197	0.513
596.000	374.264	80.000	19.993	100.171	20.076	1.555	0.551
598.000	375.268	80.000	19.995	100.162	20.072	1.801	0.515
600.000	376.335	80.000	19.995	100.161	20.070	1.912	0.503
602.000	377.364	79.999	19.995	100.167	20.064	2.360	0.517
604.000	378.403	79.998	19.996	100.174	20.059	2.686	0.531
606.000	379.446	79.998	19.995	100.173	20.059	2.717	0.527
608.000	380.541	80.000	19.994	100.170	20.055	2.977	0.558
610.000	381.570	79.999	19.995	100.180	20.050	3.299	0.525
612.000	382.609	79.999	19.993	100.182	20.044	3.690	0.518
614.000	383.688	80.000	19.995	100.184	20.041	3.890	0.536
616.000	384.760	80.000	19.993	100.183	20.033	4.464	0.511
618.000	385.778	80.001	19.993	100.175	20.024	5.038	0.508
620.000	386.831	80.001	19.994	100.181	20.022	5.221	0.501
622.000	387.888	80.001	19.994	100.182	20.014	5.770	0.527
624.000	388.965	80.000	19.994	100.195	20.011	5.926	0.544
626.000	390.008	80.000	19.994	100.187	20.004	6.413	0.517
628.000	391.055	79.997	19.994	100.202	19.988	7.515	0.522
630.000	392.141	79.998	19.994	100.206	19.977	8.240	0.550
632.000	393.216	79.998	19.993	100.198	19.966	9.017	0.523
634.000	394.269	79.999	19.995	100.196	19.954	9.841	0.565
636.000	395.336	79.999	19.995	100.193	19.945	10.443	0.510
638.000	396.360	79.999	19.996	100.212	19.940	10.762	0.511
640.000	397.438	79.997	19.996	100.214	19.923	11.983	0.538
642.000	398.401	79.997	19.995	100.217	19.908	12.945	0.484
644.000	399.476	79.998	19.996	100.219	19.892	14.046	0.525
646.000	400.442	79.998	19.996	100.219	19.882	14.737	0.496
648.000	401.459	79.997	19.995	100.221	19.865	15.899	0.482
650.000	402.507	79.997	19.995	100.242	19.848	17.100	0.540
652.000	403.546	79.998	19.995	100.257	19.830	18.332	0.532
654.000	404.531	79.998	19.994	100.259	19.807	19.874	0.510
656.000	405.537	79.999	19.996	100.260	19.789	21.092	0.501
658.000	406.597	79.998	19.994	100.269	19.760	23.078	0.538
660.000	407.601	79.997	19.996	100.277	19.743	24.217	0.499
662.000	408.635	79.998	19.996	100.287	19.715	26.164	0.526
664.000	409.639	79.998	19.996	100.297	19.691	27.824	0.537
666.000	410.653	79.998	19.997	100.299	19.660	29.895	0.501
668.000	411.704	79.998	19.996	100.304	19.629	32.004	0.527
670.000	412.733	79.998	19.997	100.329	19.597	34.209	0.549
672.000	413.690	79.999	19.997	100.337	19.562	36.626	0.505
674.000	414.699	79.999	19.995	100.344	19.524	39.226	0.494
676.000	415.682	79.999	19.996	100.364	19.490	41.509	0.492
678.000	416.722	79.999	19.996	100.373	19.450	44.268	0.509
680.000	417.679	79.999	19.996	100.377	19.410	47.021	0.469
682.000	418.740	79.999	19.995	100.386	19.373	49.542	0.518
684.000	419.708	80.000	19.994	100.406	19.327	52.706	0.494
686.000	420.718	79.999	19.994	100.418	19.284	55.634	0.500
688.000	421.684	79.998	19.995	100.441	19.242	58.540	0.477
690.000	422.699	79.999	19.994	100.466	19.192	61.921	0.482
692.000	423.704	79.999	19.994	100.475	19.149	64.912	0.537
694.000	424.667	79.998	19.994	100.484	19.094	68.669	0.503
696.000	425.670	80.000	19.995	100.506	19.043	72.185	0.508
698.000	426.685	80.000	19.993	100.531	18.987	76.030	0.489
700.000	427.683	80.001	19.994	100.544	18.927	80.151	0.502
702.000	428.691	80.002	19.994	100.557	18.868	84.202	0.502
704.000	429.691	80.001	19.994	100.570	18.807	88.380	0.476
706.000	430.647	79.999	19.995	100.583	18.736	93.254	0.495
708.000	431.618	79.997	19.994	100.610	18.673	97.606	0.490
710.000	432.646	79.999	19.996	100.641	18.605	102.305	0.529
712.000	433.653	80.000	19.995	100.662	18.525	107.852	0.510
714.000	434.674	79.999	19.997	100.694	18.461	112.247	0.534
716.000	435.627	79.999	19.995	100.713	18.386	117.396	0.483
718.000	436.640	79.999	19.995	100.739	18.317	122.182	0.479
720.000	437.627	79.998	19.996	100.774	18.242	127.391	0.469
722.000	438.623	79.999	19.995	100.805	18.160	133.062	0.482
724.000	439.570	80.000	19.996	100.831	18.074	138.916	0.470
726.000	440.597	79.998	19.995	100.851	17.986	144.968	0.521
728.000	441.591	79.998	19.996	100.904	17.889	151.733	0.484
730.000	442.582	79.997	19.994	100.932	17.794	158.284	0.509
732.000	443.530	79.999	19.994	100.961	17.712	163.914	0.475
734.000	444.521	80.000	19.996	100.964	17.650	168.207	0.498
736.000	445.576	79.997	19.994	100.942	17.589	172.445	0.532
738.000	446.587	79.998	19.995	101.001	17.527	176.669	0.537
740.000	447.587	79.997	19.996	101.066	17.481	179.788	0.497
742.000	448.639	79.998	19.994	101.047	17.447	182.073	0.530
744.000	449.678	79.999	19.995	101.055	17.408	184.823	0.507
746.000	450.636	79.997	19.996	101.062	17.369	187.528	0.521
748.000	451.654	79.998	19.996	101.092	17.358	188.255	0.503
750.000	452.721	79.999	19.996	101.079	17.357	188.299	0.523
752.000	453.760	79.998	19.994	101.047	17.372	187.226	0.535
754.000	454.787	80.001	19.996	101.043	17.385	186.253	0.526
756.000	455.793	79.998	19.995	101.062	17.410	184.535	0.505
758.000	456.812	79.999	19.995	101.084	17.432	182.948	0.503
760.000	457.819	79.998	19.997	101.071	17.461	180.903	0.518
762.000	458.847	80.000	19.997	101.046	17.502	177.977	0.508
764.000	459.882	79.998	19.996	101.011	17.556	174.238	0.503
766.000	460.893	80.000	19.995	100.984	17.619	169.801	0.521
768.000	461.933	80.000	19.996	100.945	17.699	164.240	0.528
770.000	462.944	79.998	19.996	100.920	17.791	157.837	0.503
772.000	463.943	80.000	19.994	100.876	17.891	150.990	0.500
774.000	464.924	80.000	19.995	100.832	17.997	143.668	0.514
776.000	465.972	80.000	19.995	100.789	18.115	135.551	0.538
778.000	466.979	80.001	19.993	100.742	18.248	126.432	0.503
780.000	467.993	80.001	19.995	100.678	18.393	116.467	0.496
782.000	469.006	80.003	19.994	100.630	18.537	106.556	0.491
784.000	469.995	80.001	19.994	100.590	18.697	95.661	0.497
786.000	470.997	80.000	19.995	100.552	18.857	84.720	0.475
788.000	472.008	79.999	19.995	100.516	19.013	74.053	0.509
790.000	473.019	79.999	19.995	100.473	19.158	64.101	0.502
792.000	474.059	79.998	19.994	100.437	19.284	55.515	0.511
794.000	475.093	79.999	19.996	100.417	19.394	47.973	0.522
796.000	476.093	80.000	19.995	100.384	19.485	41.784	0.504
798.000	477.102	79.998	19.995	100.343	19.570	36.018	0.511
800.000	478.153	79.998	19.994	100.320	19.638	31.346	0.518
802.000	479.145	80.000	19.995	100.299	19.691	27.730	0.499
804.000	480.171	79.999	19.994	100.272	19.745	24.055	0.518
806.000	481.201	80.000	19.995	100.257	19.784	21.417	0.506
808.000	482.222	79.999	19.995	100.228	19.821	18.889	0.517
810.000	483.243	79.999	19.994	100.224	19.855	16.550	0.523
812.000	484.272	79.999	19.995	100.206	19.882	14.746	0.515
814.000	485.320	79.999	19.994	100.217	19.905	13.206	0.551
816.000	486.312	79.998	19.994	100.212	19.931	11.402	0.494
818.000	487.364	79.999	19.996	100.194	19.946	10.361	0.504
820.000	488.392	79.998	19.994	100.201	19.960	9.452	0.537
822.000	489.415	79.998	19.996	100.204	19.979	8.129	0.524
824.000	490.437	79.998	19.995	100.191	19.990	7.408	0.516
826.000	491.447	79.998	19.996	100.184	19.998	6.824	0.474
828.000	492.515	79.999	19.995	100.178	20.010	6.018	0.523
830.000	493.572	79.999	19.997	100.174	20.012	5.879	0.524
832.000	494.566	80.000	19.995	100.174	20.024	5.093	0.482
834.000	495.660	80.001	19.995	100.177	20.031	4.565	0.542
836.000	496.679	80.001	19.996	100.180	20.034	4.358	0.526
838.000	497.681	80.001	19.996	100.178	20.038	4.115	0.504
840.000	498.729	80.000	19.994	100.167	20.047	3.521	0.508
842.000	499.767	79.998	19.995	100.160	20.049	3.372	0.514
844.000	500.778	80.001	19.993	100.163	20.053	3.118	0.510
846.000	501.809	80.000	19.996	100.154	20.058	2.730	0.527
848.000	502.804	79.999	19.996	100.145	20.060	2.634	0.507
850.000	503.846	79.999	19.995	100.156	20.064	2.371	0.496
852.000	504.885	80.000	19.997	100.145	20.064	2.365	0.508
854.000	505.909	80.000	19.997	100.147	20.065	2.252	0.517
856.000	506.939	80.000	19.996	100.165	20.066	2.213	0.523
858.000	508.004	80.002	19.996	100.154	20.065	2.263	0.534
860.000	509.000	80.002	19.995	100.143	20.070	1.903	0.506
862.000	510.030	80.002	19.996	100.158	20.070	1.914	0.512
864.000	511.074	80.001	19.994	100.146	20.070	1.951	0.512
866.000	512.071	80.000	19.994	100.149	20.074	1.687	0.534
868.000	513.060	80.000	19.994	100.148	20.072	1.796	0.507
870.000	514.073	80.000	19.994	100.146	20.076	1.509	0.527
872.000	515.133	79.997	19.993	100.155	20.074	1.631	0.534
874.000	516.159	79.999	19.995	100.146	20.078	1.386	0.523
876.000	517.188	79.999	19.995	100.146	20.079	1.347	0.495
878.000	518.196	79.997	19.994	100.145	20.075	1.594	0.511
880.000	519.238	79.997	19.994	100.142	20.078	1.378	0.490
882.000	520.262	79.997	19.995	100.146	20.077	1.434	0.522
884.000	521.282	79.998	19.995	100.146	20.076	1.516	0.520
886.000	522.332	79.999	19.995	100.145	20.079	1.350	0.529
888.000	523.332	79.998	19.995	100.136	20.074	1.651	0.501
890.000	524.398	79.998	19.995	100.129	20.077	1.453	0.504
892.000	525.420	79.999	19.995	100.135	20.077	1.481	0.532
894.000	526.431	79.998	19.995	100.140	20.074	1.661	0.514
896.000	527.423	79.998	19.996	100.140	20.075	1.601	0.510
898.000	528.466	79.998	19.995	100.127	20.077	1.447	0.512
900.000	529.469	79.998	19.996	100.123	20.081	1.206	0.514
902.000	530.490	80.000	19.995	100.140	20.080	1.248	0.533
904.000	531.531	79.998	19.996	100.132	20.081	1.218	0.516
906.000	532.546	79.997	19.996	100.126	20.079	1.304	0.509
908.000	533.585	79.999	19.995	100.132	20.083	1.025	0.542
910.000	534.602	79.998	19.996	100.125	20.084	0.970	0.562
912.000	535.624	80.000	19.996	100.141	20.080	1.244	0.486
914.000	536.666	80.001	19.995	100.136	20.085	0.893	0.522
916.000	537.691	80.000	19.994	100.115	20.086	0.834	0.519
918.000	538.753	80.000	19.994	100.125	20.086	0.815	0.543
920.000	539.790	80.000	19.996	100.119	20.083	1.027	0.530
922.000	540.798	80.001	19.995	100.125	20.086	0.832	0.522
924.000	541.828	79.999	19.995	100.121	20.085	0.890	0.501
926.000	542.841	80.000	19.995	100.126	20.087	0.745	0.511
928.000	543.882	79.999	19.995	100.120	20.088	0.711	0.563
930.000	544.891	80.000	19.996	100.125	20.090	0.593	0.502
932.000	545.934	79.999	19.994	100.131	20.089	0.639	0.517
934.000	546.978	80.000	19.995	100.139	20.089	0.657	0.535
936.000	548.010	79.998	19.996	100.128	20.087	0.804	0.522
938.000	549.033	79.999	19.995	100.126	20.090	0.561	0.527
940.000	550.090	80.002	19.996	100.135	20.087	0.767	0.512
942.000	551.150	80.001	19.997	100.135	20.088	0.736	0.544
944.000	552.151	80.001	19.995	100.117	20.090	0.568	0.484
946.000	553.175	80.000	19.995	100.109	20.085	0.886	0.505
948.000	554.204	79.998	19.995	100.122	20.091	0.531	0.522
950.000	555.268	79.999	19.995	100.124	20.084	0.951	0.512
952.000	556.310	79.999	19.996	100.127	20.086	0.860	0.546
954.000	557.300	79.999	19.993	100.128	20.086	0.871	0.501
956.000	558.328	79.998	19.995	100.127	20.086	0.828	0.500
958.000	559.391	79.999	19.995	100.113	20.087	0.789	0.526
960.000	560.405	79.999	19.994	100.116	20.083	1.018	0.525
962.000	561.436	79.999	19.995	100.115	20.087	0.776	0.541
964.000	562.436	79.999	19.995	100.109	20.086	0.813	0.494
966.000	563.461	79.998	19.996	100.121	20.083	1.021	0.527
968.000	564.489	79.999	19.995	100.128	20.083	1.016	0.482
970.000	565.524	79.999	19.995	100.113	20.080	1.239	0.510
972.000	566.537	79.999	19.995	100.113	20.085	0.932	0.508
974.000	567.604	79.999	19.995	100.106	20.086	0.856	0.542
976.000	568.626	79.998	19.994	100.106	20.082	1.109	0.505
978.000	569.621	79.999	19.995	100.112	20.088	0.700	0.485
980.000	570.699	79.997	19.994	100.110	20.090	0.600	0.528
982.000	571.700	79.999	19.994	100.110	20.084	0.964	0.531
984.000	572.760	79.999	19.996	100.119	20.082	1.127	0.558
986.000	573.810	79.999	19.995	100.119	20.082	1.138	0.532
988.000	574.862	79.998	19.994	100.118	20.085	0.916	0.551
990.000	575.897	79.998	19.995	100.113	20.082	1.120	0.509
992.000	576.906	79.999	19.992	100.106	20.085	0.929	0.531
994.000	577.945	80.000	19.995	100.125	20.085	0.932	0.554
996.000	578.968	80.000	19.995	100.115	20.086	0.849	0.507
998.000	579.976	80.002	19.994	100.112	20.083	1.072	0.494
1000.000	580.994	79.999	19.994	100.112	20.082	1.113	0.524
1002.000	582.064	80.001	19.994	100.116	20.077	1.473	0.551
1004.000	583.086	79.999	19.996	100.109	20.081	1.181	0.495
1006.000	584.109	79.999	19.995	100.106	20.083	1.066	0.500
1008.000	585.138	79.998	19.995	100.113	20.079	1.324	0.515
1010.000	586.147	79.999	19.995	100.119	20.078	1.421	0.488
1012.000	587.111	79.999	19.995	100.120	20.081	1.176	0.482
1014.000	588.177	79.999	19.993	100.122	20.080	1.237	0.511
1016.000	589.193	80.000	19.994	100.126	20.084	1.014	0.477
1018.000	590.245	80.001	19.995	100.114	20.084	1.014	0.534
1020.000	591.242	80.002	19.997	100.103	20.084	0.986	0.506
1022.000	592.302	80.001	19.995	100.127	20.081	1.200	0.522
1024.001	593.309	80.001	19.995	100.131	20.076	1.551	0.513
1026.000	594.350	80.000	19.996	100.119	20.081	1.175	0.515
1028.000	595.370	79.999	19.996	100.104	20.078	1.358	0.511
1030.000	596.462	79.998	19.995	100.100	20.077	1.449	0.534
1032.000	597.457	79.998	19.996	100.110	20.078	1.389	0.485
1034.000	598.454	79.998	19.996	100.124	20.079	1.333	0.516
1036.000	599.460	79.999	19.996	100.108	20.075	1.578	0.466
1038.000	600.492	79.999	19.996	100.103	20.079	1.326	0.502
1040.000	601.527	79.999	19.997	100.110	20.082	1.114	0.517
1042.000	602.528	79.998	19.995	100.104	20.078	1.369	0.495
1044.000	603.572	79.999	19.994	100.106	20.074	1.662	0.523
1046.000	604.559	79.999	19.994	100.104	20.077	1.424	0.495
1048.001	605.635	79.999	19.995	100.103	20.079	1.295	0.521
1050.000	606.607	79.999	19.995	100.103	20.079	1.330	0.485
1052.000	607.622	79.999	19.993	100.104	20.077	1.447	0.493
1054.000	608.664	80.000	19.996	100.111	20.080	1.270	0.508
1056.000	609.709	80.000	19.995	100.108	20.081	1.218	0.507
1058.000	610.714	79.998	19.995	100.110	20.083	1.021	0.522
1060.000	611.747	79.998	19.996	100.127	20.079	1.317	0.521
1062.000	612.763	79.997	19.995	100.106	20.078	1.389	0.526
1064.000	613.805	80.000	19.996	100.116	20.080	1.229	0.487
1066.001	614.806	79.998	19.995	100.107	20.076	1.530	0.497
1068.000	615.844	79.999	19.994	100.108	20.076	1.514	0.529
1070.000	616.898	79.999	19.995	100.108	20.082	1.118	0.540
1072.000	617.919	79.999	19.995	100.109	20.079	1.332	0.525
1074.000	618.901	80.001	19.993	100.116	20.082	1.088	0.504
1076.000	619.925	80.000	19.994	100.109	20.080	1.237	0.512
1078.000	620.911	80.002	19.994	100.110	20.075	1.565	0.469
1080.001	621.910	79.999	19.993	100.114	20.077	1.482	0.497
1082.000	622.919	80.000	19.994	100.111	20.078	1.369	0.498
1084.000	623.962	79.998	19.994	100.104	20.074	1.645	0.508
1086.000	624.960	80.000	19.996	100.106	20.076	1.552	0.490
1088.000	625.943	79.999	19.994	100.102	20.076	1.547	0.486
1090.000	626.982	79.999	19.993	100.100	20.078	1.389	0.541
1092.001	627.962	80.000	19.995	100.102	20.080	1.272	0.506
1094.000	628.976	80.000	19.995	100.101	20.077	1.488	0.525
1096.001	629.988	80.002	19.997	100.102	20.079	1.291	0.473
1098.000	630.963	80.000	19.995	100.103	20.080	1.270	0.496
1100.000	632.000	80.002	19.995	100.103	20.078	1.361	0.544
1102.000	633.028	80.001	19.995	100.103	20.078	1.380	0.508
1104.000	634.069	80.001	19.994	100.105	20.086	0.852	0.524
1106.000	635.111	80.002	19.995	100.103	20.083	1.018	0.518
1108.000	636.159	80.000	19.994	100.104	20.087	0.791	0.543
1110.000	637.146	79.999	19.995	100.110	20.081	1.202	0.506
1112.000	638.144	79.998	19.995	100.112	20.081	1.200	0.488
1114.000	639.157	79.999	19.995	100.117	20.084	0.979	0.502
1116.000	640.189	79.997	19.995	100.108	20.077	1.471	0.519
1118.000	641.226	79.998	19.997	100.105	20.083	1.038	0.508
1120.000	642.214	79.999	19.995	100.105	20.082	1.092	0.477
1122.000	643.218	79.997	19.997	100.114	20.087	0.787	0.505
1124.000	644.244	79.998	19.997	100.113	20.087	0.763	0.513
1126.000	645.204	80.001	19.997	100.105	20.087	0.795	0.506
1128.000	646.241	79.998	19.995	100.109	20.084	1.012	0.514
1130.000	647.198	79.998	19.995	100.107	20.088	0.715	0.493
1132.001	648.243	80.000	19.996	100.102	20.081	1.174	0.508
1134.000	649.274	79.999	19.994	100.106	20.082	1.118	0.505
1136.000	650.281	79.999	19.994	100.103	20.084	0.956	0.491
1138.000	651.326	79.999	19.995	100.106	20.088	0.715	0.503
1140.000	652.310	79.999	19.995	100.107	20.079	1.309	0.506
1142.000	653.317	79.998	19.995	100.106	20.082	1.129	0.518
1144.000	654.333	79.999	19.996	100.104	20.083	1.062	0.535
1146.001	655.323	80.000	19.996	100.106	20.081	1.203	0.498
1148.000	656.371	80.000	19.996	100.108	20.085	0.897	0.516
1150.000	657.400	80.000	19.995	100.110	20.077	1.488	0.497
1152.000	658.429	80.000	19.994	100.104	20.083	1.038	0.537
1154.000	659.400	80.001	19.996	100.103	20.078	1.383	0.515
1156.000	660.401	80.002	19.996	100.100	20.082	1.127	0.525
1158.000	661.417	80.001	19.995	100.107	20.082	1.131	0.528
1160.000	662.426	80.000	19.996	100.106	20.085	0.912	0.474
1162.000	663.476	80.001	19.996	100.111	20.086	0.813	0.530
1164.000	664.497	80.001	19.995	100.105	20.085	0.921	0.521
1166.000	665.502	80.002	19.996	100.100	20.088	0.706	0.513
1168.000	666.575	80.000	19.995	100.103	20.086	0.841	0.534
1170.001	667.565	80.001	19.994	100.103	20.085	0.934	0.538
1172.000	668.582	80.000	19.994	100.108	20.088	0.741	0.515
1174.000	669.618	80.001	19.994	100.112	20.080	1.252	0.519
1176.000	670.641	80.002	19.994	100.104	20.083	1.077	0.503
1178.000	671.657	80.002	19.994	100.107	20.078	1.382	0.487
1180.001	672.729	80.002	19.994	100.109	20.078	1.369	0.558
1182.000	673.731	80.002	19.995	100.109	20.086	0.865	0.495
1184.000	674.760	80.001	19.994	100.105	20.082	1.120	0.524
1186.000	675.813	80.000	19.993	100.109	20.087	0.786	0.510
1188.000	676.815	79.999	19.994	100.110	20.083	1.033	0.525
1190.000	677.862	79.999	19.996	100.108	20.091	0.483	0.504
1192.000	678.893	80.000	19.995	100.109	20.085	0.934	0.525
1194.000	679.896	79.997	19.994	100.108	20.090	0.604	0.499
1196.000	680.890	79.997	19.995	100.105	20.086	0.828	0.504
1198.000	681.945	79.999	19.996	100.109	20.088	0.682	0.518
1200.000	682.896	79.999	19.996	100.107	20.088	0.722	0.470
1202.000	683.956	80.000	19.995	100.110	20.082	1.127	0.498
1204.000	684.986	80.000	19.995	100.110	20.088	0.696	0.535
1206.000	685.968	80.001	19.993	100.109	20.087	0.797	0.535
1208.001	686.989	79.999	19.995	100.106	20.091	0.513	0.504
1210.001	688.013	80.000	19.995	100.107	20.088	0.734	0.511
1212.000	688.979	80.000	19.996	100.103	20.089	0.665	0.513
1214.000	690.029	79.999	19.996	100.106	20.091	0.518	0.529
1216.000	691.032	80.001	19.996	100.103	20.090	0.578	0.488
1218.000	692.045	80.000	19.997	100.103	20.087	0.795	0.501
1220.000	693.074	79.999	19.996	100.101	20.087	0.747	0.528
1222.000	694.080	79.999	19.996	100.103	20.089	0.641	0.515
1224.000	695.104	79.999	19.996	100.106	20.085	0.901	0.501
1226.000	696.163	79.999	19.996	100.104	20.087	0.784	0.540
1228.000	697.175	79.999	19.995	100.103	20.083	1.033	0.501
1230.000	698.192	80.001	19.997	100.107	20.085	0.930	0.482
1232.000	699.240	80.002	19.995	100.104	20.083	1.064	0.538
1234.000	700.227	80.001	19.995	100.104	20.086	0.862	0.513
1236.000	701.249	80.002	19.996	100.104	20.091	0.507	0.546
1238.000	702.239	80.001	19.994	100.104	20.085	0.945	0.503
1240.000	703.249	80.001	19.995	100.107	20.085	0.940	0.499
1242.000	704.309	80.001	19.994	100.108	20.087	0.748	0.532
1244.000	705.333	80.000	19.995	100.104	20.083	1.055	0.507
1246.000	706.356	80.000	19.995	100.105	20.085	0.904	0.495
1248.000	707.353	79.998	19.994	100.118	20.089	0.652	0.489
1250.000	708.394	80.002	19.995	100.111	20.081	1.185	0.500
1252.000	709.437	79.999	19.993	100.105	20.086	0.867	0.510
1254.000	710.404	80.002	19.995	100.109	20.083	1.042	0.495
1256.000	711.427	80.002	19.994	100.107	20.085	0.927	0.525
1258.000	712.421	80.001	19.995	100.106	20.087	0.754	0.494
1260.000	713.419	80.002	19.995	100.107	20.086	0.851	0.478
1262.000	714.382	80.001	19.994	100.105	20.089	0.656	0.484
1264.000	715.457	80.001	19.993	100.111	20.085	0.914	0.496
1266.000	716.496	79.999	19.993	100.112	20.084	0.956	0.529
1268.000	717.431	80.002	19.994	100.115	20.083	1.027	0.460
1270.000	718.488	80.001	19.996	100.118	20.085	0.929	0.565
1272.000	719.466	79.999	19.996	100.106	20.081	1.159	0.494
1274.000	720.512	79.999	19.995	100.106	20.089	0.650	0.510
1276.000	721.484	79.999	19.996	100.111	20.082	1.086	0.487
1278.000	722.505	80.000	19.996	100.104	20.085	0.917	0.496
1280.000	723.516	79.999	19.995	100.109	20.083	1.042	0.520
1282.000	724.525	79.998	19.996	100.106	20.082	1.088	0.513
1284.000	725.548	80.000	19.994	100.111	20.089	0.669	0.511
1286.000	726.592	79.999	19.995	100.107	20.091	0.526	0.525
1288.000	727.593	80.001	19.996	100.110	20.087	0.765	0.558
1290.000	728.608	79.999	19.996	100.113	20.083	1.033	0.519
1292.001	729.639	80.001	19.995	100.106	20.092	0.462	0.501
1294.000	730.614	80.000	19.995	100.102	20.087	0.750	0.496
1296.000	731.654	79.999	19.994	100.108	20.089	0.646	0.516
1298.000	732.689	80.000	19.996	100.108	20.086	0.856	0.508
1300.000	733.672	79.998	19.997	100.105	20.093	0.399	0.513
1302.001	734.708	79.996	19.996	100.109	20.089	0.643	0.535
1304.000	735.684	79.998	19.996	100.107	20.088	0.741	0.486
1306.000	736.756	79.998	19.996	100.104	20.089	0.615	0.529
1308.000	737.732	79.997	19.996	100.106	20.086	0.828	0.497
1310.001	738.759	79.999	19.996	100.107	20.088	0.722	0.512
1312.000	739.764	79.999	19.995	100.109	20.084	0.960	0.485
1314.000	740.772	80.001	19.996	100.106	20.084	0.984	0.510
1316.000	741.808	79.998	19.994	100.121	20.086	0.825	0.507
1318.000	742.804	80.001	19.995	100.112	20.090	0.596	0.510
1319.500	743.566	79.999	19.994	100.107	20.085	0.888	0.498