File: 01_Data/Fiberglass_Insulation_R13_Paper_Faced_Fiberglass/MCC/Fiberglass_Insulation_R13_Paper_Faced_Fiberglass_MCC_30K_min_220215_R2.txt
Sample ID:	C:\MCC\MCC Cal\Test\R13_Fiberglas_InsulationB_MCC_30K_min_220215_R2.txt
Sample Weight (mg):	4.33
Heating Rate (C/s):	0.5
Combustor Temp (C):	900
N2 Flow Rate (cc/min):	80
O2 Flow Rate (cc/min):	20
Calibration File:	C:\MCC\MCC Cal\Coeff1 JN10440_30_210304.txt.txt
T Correction Coefficients:	0	1.024463	0
Time Shift (s):	14
*
Time (s)	Temperature (C)	N2 flow rate (cc/min)	O2 flow rate (cc/min)	Flow Rate (cc/min)	Oxygen (%)	HRR (W/g)	Heating rate (C/s)
0.000	112.851	80.007	19.994	103.646	20.020	0.118	-0.031
2.000	112.856	80.005	19.995	103.639	20.020	0.178	0.001
4.000	112.847	80.006	19.995	103.655	20.017	0.339	-0.043
6.000	112.856	80.006	19.993	103.647	20.016	0.427	0.010
8.000	112.854	80.006	19.994	103.648	20.018	0.261	-0.013
10.000	112.855	80.006	19.993	103.645	20.014	0.570	-0.004
12.001	112.855	80.005	19.993	103.644	20.016	0.465	0.005
14.000	112.846	80.006	19.993	103.649	20.015	0.532	-0.025
16.000	112.822	80.005	19.992	103.647	20.017	0.397	0.011
18.000	112.830	80.006	19.993	103.654	20.013	0.640	-0.006
20.000	112.795	80.004	19.993	103.662	20.015	0.486	-0.004
22.000	112.797	80.004	19.993	103.679	20.012	0.767	0.014
24.000	112.820	80.006	19.994	103.708	20.006	1.189	0.021
26.000	112.820	80.006	19.993	103.730	20.002	1.466	-0.015
28.000	112.896	80.006	19.993	103.743	20.000	1.608	0.020
30.000	112.989	80.007	19.994	103.757	19.998	1.757	0.044
32.000	113.002	80.006	19.995	103.785	19.999	1.737	0.025
34.000	113.148	80.008	19.994	103.782	19.994	2.075	0.065
36.000	113.295	80.008	19.994	103.783	19.996	1.930	0.071
38.000	113.436	80.007	19.995	103.789	19.990	2.418	0.101
40.000	113.656	80.007	19.993	103.777	19.985	2.742	0.106
42.000	113.827	80.007	19.994	103.794	19.991	2.314	0.082
44.000	114.056	80.007	19.995	103.822	19.986	2.698	0.102
46.000	114.306	80.006	19.994	103.816	19.985	2.754	0.121
48.001	114.545	80.006	19.995	103.819	19.986	2.720	0.112
50.001	114.862	80.006	19.994	103.821	19.985	2.726	0.167
52.000	115.131	80.007	19.994	103.831	19.982	2.982	0.119
54.000	115.448	80.006	19.995	103.847	19.975	3.510	0.091
56.000	115.803	80.008	19.994	103.835	19.976	3.406	0.178
58.000	116.183	80.009	19.994	103.843	19.974	3.583	0.195
60.000	116.585	80.008	19.994	103.853	19.974	3.566	0.224
62.000	116.984	80.009	19.995	103.853	19.972	3.716	0.185
64.000	117.439	80.008	19.995	103.858	19.973	3.634	0.226
66.000	117.886	80.007	19.995	103.865	19.968	4.036	0.252
68.000	118.341	80.006	19.993	103.878	19.967	4.092	0.248
70.000	118.843	80.006	19.994	103.882	19.970	3.902	0.227
72.001	119.320	80.005	19.993	103.893	19.968	4.074	0.278
74.000	119.875	80.004	19.993	103.887	19.969	3.956	0.267
76.000	120.461	80.007	19.995	103.887	19.963	4.400	0.301
78.000	121.063	80.005	19.993	103.893	19.968	4.024	0.305
80.000	121.625	80.006	19.993	103.895	19.970	3.851	0.318
82.000	122.205	80.005	19.993	103.902	19.971	3.811	0.294
84.000	122.848	80.005	19.992	103.903	19.982	2.997	0.289
86.000	123.550	80.006	19.993	103.903	19.974	3.564	0.310
88.000	124.196	80.005	19.994	103.902	19.966	4.155	0.343
90.001	124.859	80.006	19.992	103.905	19.978	3.323	0.328
92.000	125.716	80.007	19.993	103.900	19.967	4.098	0.354
94.000	126.223	80.006	19.993	103.900	19.969	3.948	0.355
96.002	126.944	80.005	19.993	103.891	19.965	4.241	0.375
98.000	127.673	80.005	19.994	103.898	19.965	4.249	0.323
100.000	128.447	80.007	19.994	103.900	19.967	4.113	0.364
102.000	129.137	80.006	19.994	103.900	19.965	4.249	0.375
104.000	129.904	80.007	19.993	103.900	19.967	4.141	0.349
106.000	130.660	80.007	19.993	103.900	19.968	4.064	0.394
108.000	131.426	80.005	19.993	103.900	19.967	4.137	0.392
110.001	132.237	80.006	19.992	103.901	19.964	4.374	0.397
112.000	133.030	80.006	19.993	103.900	19.969	3.926	0.410
114.000	133.803	80.006	19.992	103.896	19.964	4.316	0.388
116.001	134.640	80.007	19.992	103.896	19.968	4.028	0.414
118.001	135.455	80.008	19.993	103.900	19.962	4.495	0.413
120.000	136.258	80.007	19.993	103.900	19.966	4.177	0.391
122.000	137.112	80.007	19.994	103.899	19.977	3.345	0.418
124.000	137.909	80.007	19.993	103.901	19.969	3.964	0.398
126.000	138.738	80.008	19.993	103.901	19.978	3.309	0.392
128.000	139.610	80.007	19.994	103.902	19.965	4.253	0.460
130.000	140.499	80.007	19.994	103.901	19.967	4.103	0.437
132.000	141.329	80.005	19.993	103.901	19.964	4.360	0.432
134.000	142.224	80.007	19.993	103.901	19.968	4.042	0.448
136.000	143.134	80.006	19.993	103.901	19.966	4.153	0.433
138.000	144.039	80.007	19.992	103.902	19.963	4.414	0.436
140.000	144.953	80.007	19.993	103.902	19.977	3.393	0.443
142.000	145.848	80.008	19.993	103.898	19.966	4.191	0.495
144.000	146.746	80.008	19.994	103.895	19.968	4.036	0.443
146.000	147.659	80.006	19.993	103.899	19.972	3.725	0.454
148.000	148.544	80.007	19.994	103.899	19.960	4.641	0.455
150.000	149.472	80.005	19.994	103.902	19.966	4.191	0.456
152.000	150.389	80.006	19.998	103.902	19.961	4.539	0.480
154.000	151.285	80.005	19.994	103.905	19.968	4.008	0.435
156.000	152.201	80.005	19.995	103.904	19.966	4.203	0.482
158.000	153.125	80.006	19.995	103.905	19.966	4.177	0.458
160.000	154.061	80.006	19.994	103.902	19.966	4.165	0.432
162.000	155.025	80.006	19.994	103.900	19.964	4.326	0.426
164.000	155.956	80.005	19.994	103.901	19.960	4.649	0.451
166.000	156.923	80.006	19.992	103.900	19.963	4.430	0.478
168.001	157.846	80.007	19.994	103.903	19.962	4.485	0.494
170.000	158.801	80.006	19.993	103.903	19.965	4.285	0.475
172.000	159.723	80.007	19.992	103.900	19.967	4.127	0.465
174.000	160.725	80.006	19.992	103.900	19.964	4.360	0.468
176.000	161.598	80.005	19.994	103.900	19.964	4.362	0.433
178.000	162.563	80.005	19.993	103.903	19.964	4.346	0.449
180.000	163.489	80.006	19.993	103.901	19.960	4.607	0.322
182.001	164.530	80.005	19.993	103.899	19.965	4.239	0.501
184.000	165.535	80.005	19.993	103.899	19.965	4.291	0.526
186.001	166.546	80.005	19.993	103.901	19.964	4.370	0.530
188.000	167.533	80.005	19.992	103.900	19.964	4.348	0.504
190.000	168.507	80.005	19.994	103.898	19.973	3.642	0.498
192.000	169.482	80.007	19.994	103.900	19.962	4.513	0.463
194.000	170.454	80.007	19.993	103.899	19.970	3.877	0.486
196.000	171.430	80.006	19.993	103.894	19.962	4.458	0.455
198.000	172.417	80.008	19.993	103.898	19.960	4.673	0.494
200.000	173.443	80.007	19.993	103.900	19.961	4.545	0.517
202.000	174.445	80.009	19.992	103.894	19.964	4.310	0.511
204.000	175.444	80.009	19.992	103.901	19.963	4.423	0.499
206.001	176.439	80.007	19.992	103.902	19.967	4.128	0.498
208.000	177.359	80.006	19.993	103.897	19.967	4.122	0.483
210.001	178.433	80.006	19.993	103.895	19.961	4.566	0.515
212.000	179.419	80.007	19.994	103.897	19.970	3.901	0.476
214.000	180.378	80.006	19.992	103.892	19.959	4.743	0.396
216.000	181.502	80.005	19.993	103.872	19.968	4.025	0.516
218.000	182.438	80.007	19.994	103.871	19.969	3.963	0.507
220.000	183.564	80.007	19.993	103.879	19.966	4.160	0.542
222.000	184.435	80.007	19.992	103.875	19.971	3.846	0.518
224.000	185.439	80.007	19.992	103.881	19.968	4.005	0.539
226.000	186.449	80.009	19.993	103.863	19.971	3.836	0.506
228.000	187.474	80.008	19.994	103.860	19.970	3.914	0.495
230.000	188.485	80.007	19.994	103.877	19.970	3.910	0.511
232.000	189.531	80.006	19.993	103.867	19.973	3.653	0.542
234.000	190.480	80.007	19.993	103.864	19.967	4.095	0.500
236.000	191.516	80.006	19.994	103.861	19.972	3.741	0.501
238.000	192.496	80.005	19.994	103.863	19.975	3.538	0.479
240.000	193.536	80.005	19.995	103.861	19.970	3.868	0.529
242.000	194.531	80.004	19.994	103.863	19.970	3.908	0.548
244.000	195.513	80.006	19.995	103.860	19.969	3.930	0.492
246.000	196.471	80.004	19.994	103.860	19.972	3.711	0.482
248.000	197.418	80.006	19.994	103.859	19.970	3.882	0.474
250.000	198.491	80.006	19.994	103.858	19.974	3.623	0.507
252.000	199.443	80.004	19.994	103.858	19.975	3.544	0.506
254.000	200.399	80.007	19.995	103.861	19.968	4.033	0.481
256.000	201.406	80.006	19.993	103.860	19.972	3.761	0.498
258.000	202.379	80.005	19.994	103.861	19.969	3.934	0.505
260.000	203.432	80.006	19.995	103.860	19.975	3.522	0.539
262.000	204.379	80.005	19.993	103.862	19.972	3.759	0.470
264.000	205.414	80.005	19.993	103.862	19.974	3.564	0.514
266.000	206.376	80.004	19.994	103.862	19.972	3.711	0.497
268.000	207.338	80.006	19.993	103.862	19.975	3.530	0.498
270.000	208.398	80.004	19.993	103.863	19.972	3.709	0.513
272.000	209.365	80.005	19.991	103.857	19.975	3.482	0.473
274.000	210.365	80.005	19.991	103.855	19.977	3.358	0.504
276.000	211.333	80.006	19.994	103.861	19.974	3.570	0.469
278.000	212.366	80.006	19.993	103.863	19.974	3.575	0.509
280.000	213.331	80.007	19.993	103.863	19.970	3.888	0.538
282.000	214.333	80.007	19.992	103.864	19.973	3.689	0.495
284.000	215.329	80.006	19.993	103.862	19.977	3.393	0.489
286.000	216.315	80.006	19.992	103.857	19.975	3.538	0.501
288.000	217.281	80.006	19.995	103.861	19.977	3.347	0.480
290.000	218.296	80.007	19.994	103.860	19.978	3.267	0.507
292.000	219.256	80.005	19.993	103.858	19.972	3.713	0.481
294.000	220.233	80.006	19.994	103.855	19.975	3.536	0.455
296.000	221.238	80.007	19.992	103.843	19.976	3.456	0.514
298.000	222.213	80.006	19.992	103.853	19.977	3.383	0.470
300.000	223.206	80.008	19.992	103.852	19.979	3.183	0.473
302.000	224.166	80.007	19.994	103.854	19.980	3.154	0.494
304.000	225.192	80.008	19.992	103.857	19.980	3.140	0.491
306.000	226.163	80.008	19.992	103.855	19.977	3.365	0.487
308.000	227.146	80.008	19.993	103.850	19.974	3.616	0.465
310.000	228.180	80.008	19.993	103.856	19.976	3.399	0.510
312.000	229.164	80.007	19.993	103.847	19.974	3.621	0.514
314.000	230.168	80.005	19.994	103.850	19.978	3.297	0.497
316.000	231.170	80.006	19.994	103.846	19.976	3.415	0.504
318.000	232.136	80.007	19.994	103.847	19.973	3.675	0.512
320.000	233.116	80.005	19.994	103.848	19.970	3.862	0.475
322.000	234.091	80.006	19.993	103.853	19.974	3.576	0.488
324.000	235.104	80.006	19.992	103.851	19.976	3.474	0.496
326.001	236.083	80.005	19.993	103.844	19.977	3.366	0.511
328.000	237.091	80.006	19.993	103.846	19.977	3.329	0.500
330.000	238.056	80.005	19.992	103.850	19.973	3.661	0.499
332.000	239.008	80.005	19.993	103.857	19.975	3.522	0.475
334.000	240.030	80.006	19.994	103.854	19.972	3.767	0.488
336.000	241.021	80.005	19.994	103.857	19.972	3.741	0.500
338.001	242.061	80.005	19.994	103.859	19.972	3.761	0.521
340.000	243.036	80.005	19.995	103.860	19.973	3.648	0.502
342.000	244.012	80.004	19.994	103.851	19.970	3.887	0.491
344.000	245.029	80.005	19.995	103.845	19.975	3.512	0.490
346.001	245.981	80.004	19.994	103.839	19.978	3.290	0.485
348.000	247.002	80.004	19.995	103.854	19.975	3.531	0.503
350.001	247.973	80.005	19.994	103.853	19.978	3.317	0.501
352.000	248.969	80.006	19.994	103.847	19.972	3.718	0.517
354.000	249.972	80.007	19.993	103.837	19.979	3.228	0.520
356.000	251.010	80.008	19.993	103.847	19.974	3.562	0.553
358.000	252.037	80.008	19.993	103.825	19.972	3.756	0.496
360.001	253.026	80.007	19.993	103.839	19.974	3.590	0.497
362.000	253.993	80.008	19.993	103.836	19.974	3.612	0.489
364.000	255.002	80.008	19.993	103.833	19.971	3.801	0.520
366.000	256.003	80.008	19.992	103.846	19.972	3.702	0.497
368.000	257.005	80.008	19.993	103.838	19.970	3.889	0.492
370.000	257.993	80.008	19.994	103.837	19.976	3.469	0.530
372.000	259.019	80.007	19.993	103.839	19.974	3.610	0.515
374.000	259.999	80.007	19.993	103.834	19.972	3.748	0.487
376.000	260.956	80.006	19.992	103.836	19.972	3.736	0.494
378.001	261.931	80.007	19.994	103.838	19.974	3.620	0.497
380.001	262.946	80.009	19.993	103.831	19.974	3.604	0.507
382.002	263.959	80.009	19.994	103.830	19.971	3.801	0.520
384.000	264.930	80.009	19.994	103.823	19.971	3.778	0.510
386.000	265.913	80.009	19.992	103.830	19.971	3.808	0.479
388.000	266.910	80.008	19.993	103.829	19.978	3.318	0.505
390.000	267.925	80.009	19.993	103.830	19.974	3.608	0.473
392.000	268.915	80.007	19.993	103.828	19.977	3.389	0.503
394.000	269.924	80.007	19.993	103.832	19.979	3.228	0.491
396.001	270.948	80.006	19.993	103.824	19.975	3.499	0.513
398.001	271.982	80.005	19.994	103.827	19.975	3.483	0.531
400.000	273.009	80.006	19.993	103.828	19.975	3.547	0.495
402.000	273.975	80.007	19.994	103.831	19.976	3.459	0.485
404.000	274.978	80.005	19.993	103.832	19.974	3.617	0.509
406.000	276.035	80.005	19.994	103.832	19.976	3.451	0.552
408.000	277.029	80.004	19.994	103.830	19.976	3.463	0.516
410.000	277.982	80.005	19.994	103.835	19.975	3.489	0.508
412.000	279.033	80.006	19.992	103.827	19.976	3.425	0.528
414.000	279.984	80.006	19.992	103.827	19.975	3.479	0.512
416.000	280.996	80.006	19.994	103.824	19.977	3.374	0.500
418.000	281.995	80.007	19.993	103.823	19.976	3.435	0.494
420.000	283.019	80.006	19.993	103.823	19.975	3.517	0.521
422.001	284.012	80.005	19.993	103.824	19.977	3.366	0.509
424.000	285.010	80.006	19.994	103.823	19.979	3.214	0.487
426.000	286.048	80.007	19.994	103.824	19.979	3.202	0.533
428.000	287.043	80.005	19.994	103.822	19.978	3.316	0.530
430.000	288.046	80.006	19.993	103.821	19.979	3.230	0.514
432.001	288.992	80.005	19.994	103.822	19.981	3.069	0.483
434.000	290.029	80.005	19.994	103.820	19.977	3.362	0.514
436.000	291.025	80.006	19.995	103.821	19.976	3.449	0.465
438.000	292.048	80.006	19.995	103.820	19.978	3.254	0.523
440.000	293.019	80.007	19.993	103.819	19.978	3.270	0.494
442.001	294.052	80.007	19.993	103.818	19.980	3.172	0.454
444.000	295.073	80.009	19.995	103.820	19.976	3.473	0.517
446.000	296.057	80.009	19.994	103.820	19.976	3.401	0.528
448.000	297.073	80.008	19.993	103.821	19.978	3.322	0.495
450.000	298.074	80.007	19.994	103.821	19.974	3.563	0.507
452.000	299.096	80.007	19.993	103.822	19.978	3.300	0.510
454.000	300.072	80.007	19.993	103.823	19.976	3.414	0.492
456.000	301.094	80.008	19.992	103.823	19.976	3.433	0.514
458.000	302.084	80.008	19.994	103.823	19.972	3.730	0.514
460.000	303.101	80.006	19.993	103.823	19.973	3.632	0.522
462.000	304.074	80.007	19.994	103.826	19.975	3.485	0.497
464.000	305.080	80.006	19.995	103.820	19.978	3.276	0.500
466.000	306.113	80.007	19.993	103.822	19.977	3.328	0.545
468.000	307.142	80.007	19.994	103.822	19.979	3.208	0.485
470.000	308.129	80.007	19.994	103.823	19.978	3.272	0.460
472.000	309.095	80.007	19.993	103.823	19.975	3.499	0.511
474.000	310.085	80.005	19.993	103.823	19.975	3.525	0.495
476.000	311.164	80.005	19.992	103.823	19.975	3.495	0.530
478.000	312.207	80.006	19.992	103.822	19.977	3.370	0.492
480.000	313.245	80.006	19.992	103.820	19.977	3.356	0.506
482.000	314.273	80.005	19.993	103.822	19.978	3.262	0.553
484.000	315.253	80.006	19.994	103.821	19.977	3.324	0.508
486.000	316.254	80.006	19.993	103.820	19.975	3.509	0.468
488.000	317.254	80.005	19.995	103.820	19.977	3.334	0.486
490.000	318.294	80.006	19.993	103.817	19.981	3.087	0.517
492.000	319.319	80.005	19.993	103.819	19.982	3.003	0.500
494.001	320.329	80.006	19.993	103.816	19.979	3.210	0.496
496.000	321.353	80.006	19.994	103.814	19.978	3.282	0.546
498.000	322.370	80.005	19.994	103.820	19.977	3.358	0.495
500.000	323.374	80.006	19.993	103.819	19.976	3.442	0.475
502.000	324.384	80.005	19.993	103.815	19.977	3.344	0.501
504.000	325.410	80.006	19.993	103.819	19.977	3.330	0.513
506.000	326.442	80.005	19.993	103.818	19.974	3.561	0.521
508.000	327.408	80.005	19.993	103.819	19.976	3.453	0.459
510.000	328.410	80.005	19.994	103.816	19.980	3.117	0.477
512.000	329.423	80.004	19.994	103.816	19.978	3.282	0.476
514.000	330.480	80.005	19.994	103.821	19.980	3.113	0.513
516.000	331.461	80.006	19.994	103.817	19.974	3.611	0.492
518.000	332.491	80.006	19.994	103.816	19.976	3.430	0.542
520.000	333.507	80.006	19.995	103.815	19.977	3.382	0.489
522.000	334.504	80.005	19.994	103.821	19.978	3.273	0.483
524.000	335.539	80.007	19.994	103.818	19.979	3.207	0.502
526.000	336.547	80.006	19.994	103.816	19.981	3.095	0.503
528.000	337.577	80.006	19.995	103.814	19.981	3.025	0.506
530.000	338.591	80.004	19.994	103.818	19.981	3.037	0.514
532.000	339.617	80.005	19.996	103.799	19.980	3.149	0.491
534.000	340.630	80.007	19.994	103.811	19.980	3.137	0.514
536.000	341.661	80.005	19.994	103.812	19.979	3.225	0.489
538.000	342.657	80.006	19.993	103.820	19.976	3.410	0.491
540.000	343.711	80.007	19.994	103.819	19.981	3.053	0.515
542.000	344.697	80.006	19.995	103.816	19.979	3.181	0.533
544.000	345.715	80.008	19.993	103.811	19.979	3.191	0.512
546.000	346.689	80.008	19.993	103.807	19.978	3.261	0.488
548.000	347.739	80.008	19.993	103.803	19.976	3.420	0.499
550.000	348.722	80.009	19.993	103.810	19.978	3.263	0.520
552.000	349.734	80.008	19.993	103.804	19.978	3.265	0.478
554.000	350.763	80.006	19.992	103.804	19.980	3.137	0.500
556.000	351.777	80.005	19.993	103.801	19.979	3.217	0.521
558.000	352.799	80.004	19.992	103.808	19.981	3.036	0.514
560.000	353.832	80.005	19.995	103.809	19.979	3.223	0.518
562.000	354.819	80.006	19.994	103.804	19.977	3.351	0.473
564.000	355.828	80.006	19.993	103.803	19.979	3.235	0.498
566.000	356.864	80.004	19.993	103.792	19.976	3.403	0.516
568.000	357.857	80.007	19.993	103.795	19.980	3.110	0.493
570.000	358.866	80.008	19.994	103.803	19.978	3.259	0.514
572.001	359.855	80.005	19.993	103.786	19.976	3.451	0.484
574.000	360.865	80.008	19.993	103.791	19.978	3.263	0.520
576.000	361.871	80.006	19.993	103.786	19.976	3.434	0.507
578.000	362.882	80.004	19.993	103.785	19.978	3.281	0.497
580.000	363.904	80.006	19.992	103.789	19.977	3.390	0.500
582.001	364.913	80.005	19.992	103.787	19.977	3.391	0.520
584.000	365.924	80.006	19.994	103.790	19.976	3.436	0.506
586.000	366.900	80.005	19.993	103.791	19.978	3.271	0.521
588.000	367.938	80.003	19.993	103.794	19.978	3.303	0.511
590.000	368.906	80.005	19.995	103.805	19.976	3.446	0.474
592.000	369.923	80.005	19.995	103.794	19.983	2.905	0.478
594.000	370.992	80.005	19.995	103.793	19.978	3.265	0.488
596.000	371.966	80.005	19.994	103.795	19.983	2.893	0.509
598.000	372.971	80.006	19.994	103.795	19.980	3.169	0.479
600.000	374.030	80.006	19.993	103.800	19.980	3.160	0.509
602.000	375.067	80.007	19.994	103.792	19.981	3.086	0.509
604.000	376.047	80.007	19.994	103.794	19.979	3.209	0.522
606.000	377.073	80.008	19.995	103.792	19.980	3.102	0.505
608.000	378.109	80.007	19.993	103.795	19.979	3.222	0.548
610.000	379.118	80.007	19.994	103.789	19.980	3.136	0.512
612.000	380.142	80.006	19.995	103.784	19.980	3.106	0.511
614.000	381.114	80.008	19.992	103.786	19.980	3.128	0.516
616.000	382.146	80.007	19.994	103.788	19.983	2.881	0.489
618.000	383.130	80.006	19.994	103.783	19.982	2.962	0.499
620.000	384.154	80.008	19.994	103.784	19.983	2.913	0.523
622.001	385.147	80.007	19.994	103.788	19.983	2.931	0.503
624.000	386.161	80.007	19.995	103.781	19.984	2.845	0.492
626.000	387.153	80.007	19.993	103.780	19.983	2.879	0.484
628.000	388.180	80.008	19.993	103.784	19.982	2.963	0.494
630.000	389.206	80.010	19.992	103.781	19.982	2.972	0.512
632.000	390.185	80.008	19.993	103.783	19.981	3.066	0.504
634.001	391.245	80.010	19.993	103.782	19.980	3.136	0.525
636.000	392.224	80.009	19.994	103.784	19.981	3.092	0.486
638.000	393.232	80.006	19.993	103.782	19.984	2.853	0.490
640.000	394.246	80.007	19.993	103.782	19.980	3.124	0.500
642.000	395.245	80.006	19.992	103.783	19.979	3.237	0.475
644.000	396.232	80.006	19.994	103.784	19.978	3.299	0.510
646.000	397.267	80.006	19.993	103.785	19.980	3.106	0.482
648.000	398.281	80.006	19.993	103.786	19.981	3.078	0.548
650.000	399.309	80.005	19.992	103.788	19.987	2.582	0.532
652.000	400.273	80.005	19.993	103.784	19.983	2.945	0.486
654.000	401.286	80.006	19.993	103.785	19.982	2.950	0.505
656.000	402.316	80.005	19.993	103.784	19.983	2.875	0.507
658.000	403.317	80.005	19.993	103.784	19.981	3.086	0.516
660.000	404.307	80.006	19.993	103.785	19.978	3.265	0.477
662.000	405.359	80.005	19.994	103.784	19.982	3.012	0.540
664.000	406.373	80.005	19.992	103.786	19.982	2.953	0.496
666.000	407.373	80.005	19.993	103.787	19.980	3.154	0.507
668.000	408.327	80.006	19.993	103.786	19.977	3.373	0.469
670.000	409.363	80.006	19.993	103.787	19.980	3.146	0.542
672.000	410.345	80.005	19.993	103.785	19.980	3.148	0.496
674.000	411.366	80.006	19.993	103.785	19.979	3.192	0.512
676.000	412.365	80.007	19.993	103.783	19.981	3.084	0.506
678.000	413.321	80.006	19.993	103.783	19.981	3.082	0.470
680.000	414.300	80.005	19.994	103.783	19.983	2.889	0.489
682.000	415.280	80.007	19.993	103.782	19.983	2.883	0.488
684.000	416.310	80.008	19.994	103.781	19.984	2.867	0.484
686.000	417.300	80.007	19.993	103.782	19.980	3.100	0.486
688.000	418.319	80.007	19.995	103.781	19.982	2.959	0.492
690.000	419.312	80.008	19.994	103.782	19.980	3.102	0.517
692.000	420.311	80.007	19.995	103.781	19.981	3.076	0.484
694.000	421.354	80.007	19.993	103.781	19.982	2.959	0.526
696.000	422.368	80.007	19.994	103.781	19.982	2.955	0.504
698.000	423.344	80.008	19.994	103.779	19.981	3.080	0.497
700.000	424.338	80.008	19.993	103.779	19.977	3.349	0.487
702.000	425.348	80.007	19.993	103.782	19.976	3.433	0.477
704.000	426.392	80.007	19.993	103.782	19.980	3.166	0.501
706.000	427.399	80.007	19.993	103.781	19.979	3.245	0.525
708.000	428.387	80.008	19.996	103.780	19.977	3.387	0.509
710.000	429.431	80.007	19.994	103.781	19.976	3.415	0.513
712.000	430.416	80.008	19.994	103.780	19.979	3.212	0.495
714.000	431.429	80.007	19.994	103.782	19.979	3.239	0.522
716.000	432.431	80.005	19.994	103.780	19.977	3.335	0.518
718.000	433.448	80.005	19.994	103.783	19.979	3.217	0.518
720.000	434.488	80.006	19.993	103.783	19.977	3.329	0.513
722.000	435.462	80.005	19.993	103.783	19.977	3.337	0.466
724.000	436.549	80.005	19.993	103.784	19.975	3.486	0.514
726.000	437.552	80.005	19.995	103.786	19.979	3.174	0.534
728.000	438.586	80.005	19.993	103.785	19.980	3.114	0.522
730.000	439.567	80.006	19.993	103.786	19.977	3.389	0.523
732.000	440.592	80.004	19.992	103.786	19.978	3.289	0.510
734.000	441.591	80.005	19.993	103.787	19.980	3.100	0.477
736.000	442.632	80.006	19.993	103.784	19.977	3.375	0.505
738.000	443.590	80.006	19.994	103.783	19.980	3.140	0.507
740.000	444.627	80.006	19.994	103.775	19.979	3.186	0.514
742.000	445.623	80.007	19.994	103.772	19.980	3.140	0.500
744.000	446.629	80.007	19.994	103.780	19.975	3.510	0.488
746.000	447.655	80.006	19.993	103.780	19.975	3.520	0.498
748.000	448.659	80.006	19.993	103.777	19.975	3.505	0.487
750.000	449.667	80.006	19.993	103.781	19.977	3.351	0.471
752.000	450.681	80.007	19.993	103.779	19.976	3.435	0.512
754.000	451.704	80.007	19.994	103.782	19.978	3.307	0.498
756.000	452.734	80.006	19.994	103.781	19.977	3.343	0.503
758.000	453.724	80.006	19.993	103.777	19.976	3.401	0.510
760.000	454.755	80.008	19.993	103.778	19.977	3.393	0.521
762.000	455.754	80.008	19.993	103.779	19.978	3.258	0.496
764.001	456.827	80.008	19.993	103.776	19.978	3.277	0.523
766.000	457.815	80.008	19.994	103.774	19.975	3.510	0.520
768.000	458.840	80.007	19.995	103.772	19.981	3.072	0.478
770.000	459.890	80.007	19.994	103.778	19.979	3.210	0.498
772.000	460.875	80.007	19.993	103.781	19.975	3.477	0.494
774.000	461.905	80.006	19.995	103.775	19.980	3.158	0.513
776.000	462.938	80.006	19.994	103.782	19.978	3.282	0.504
778.000	463.971	80.007	19.994	103.780	19.980	3.136	0.513
780.000	464.971	80.007	19.995	103.771	19.978	3.274	0.541
782.000	465.942	80.006	19.995	103.768	19.977	3.353	0.492
784.000	466.954	80.008	19.993	103.763	19.979	3.246	0.519
786.000	468.018	80.009	19.994	103.768	19.979	3.244	0.497
788.000	469.061	80.007	19.994	103.768	19.983	2.947	0.549
790.000	470.028	80.008	19.993	103.776	19.981	3.033	0.480
792.000	471.099	80.007	19.992	103.768	19.982	3.011	0.486
794.000	472.069	80.008	19.993	103.769	19.983	2.947	0.498
796.000	473.118	80.008	19.992	103.775	19.983	2.947	0.508
798.000	474.138	80.007	19.994	103.776	19.982	3.011	0.514
800.001	475.187	80.005	19.994	103.769	19.982	2.991	0.524
802.000	476.210	80.007	19.994	103.762	19.978	3.270	0.520
804.000	477.210	80.005	19.994	103.754	19.983	2.885	0.507
806.000	478.230	80.004	19.995	103.768	19.981	3.029	0.525
808.000	479.248	80.005	19.994	103.767	19.981	3.073	0.505
810.000	480.256	80.005	19.994	103.768	19.982	2.999	0.500
812.000	481.289	80.006	19.994	103.760	19.987	2.604	0.493
814.000	482.293	80.005	19.994	103.763	19.984	2.863	0.477
816.000	483.339	80.005	19.993	103.755	19.982	2.961	0.500
818.000	484.317	80.005	19.993	103.753	19.984	2.873	0.478
820.000	485.341	80.007	19.994	103.763	19.985	2.772	0.485
822.000	486.345	80.008	19.993	103.762	19.985	2.742	0.481
824.000	487.373	80.007	19.995	103.768	19.982	2.999	0.516
826.000	488.423	80.006	19.994	103.762	19.986	2.686	0.537
828.000	489.444	80.006	19.993	103.762	19.981	3.085	0.518
830.000	490.449	80.007	19.993	103.777	19.981	3.086	0.531
832.000	491.491	80.005	19.994	103.765	19.980	3.131	0.515
834.000	492.461	80.006	19.993	103.754	19.981	3.084	0.500
836.000	493.482	80.005	19.993	103.767	19.983	2.925	0.506
838.000	494.519	80.005	19.993	103.763	19.985	2.760	0.506
840.000	495.540	80.007	19.994	103.767	19.982	2.971	0.529
842.000	496.517	80.007	19.994	103.766	19.982	2.951	0.518
844.000	497.538	80.007	19.993	103.772	19.984	2.805	0.500
846.000	498.525	80.005	19.992	103.771	19.983	2.897	0.515
848.000	499.581	80.008	19.994	103.769	19.982	2.977	0.491
850.000	500.592	80.008	19.994	103.770	19.984	2.841	0.485
852.000	501.622	80.005	19.993	103.766	19.986	2.664	0.525
854.000	502.665	80.007	19.993	103.764	19.988	2.541	0.524
856.000	503.666	80.004	19.992	103.779	19.989	2.469	0.534
858.000	504.686	80.006	19.994	103.771	19.987	2.622	0.533
860.000	505.698	80.007	19.993	103.774	19.990	2.419	0.533
862.000	506.769	80.007	19.993	103.771	19.983	2.895	0.522
864.000	507.779	80.009	19.994	103.760	19.985	2.766	0.499
866.000	508.833	80.009	19.993	103.760	19.985	2.748	0.512
868.000	509.878	80.007	19.993	103.767	19.980	3.114	0.521
870.000	510.870	80.008	19.993	103.771	19.984	2.871	0.499
872.000	511.936	80.010	19.993	103.766	19.985	2.744	0.509
874.000	512.915	80.007	19.993	103.755	19.986	2.706	0.495
876.000	513.981	80.009	19.992	103.754	19.985	2.775	0.517
878.000	515.035	80.008	19.992	103.763	19.983	2.909	0.501
880.000	516.114	80.008	19.993	103.768	19.988	2.551	0.552
882.000	517.154	80.008	19.995	103.771	19.986	2.682	0.523
884.000	518.206	80.006	19.993	103.773	19.988	2.535	0.508
886.000	519.257	80.006	19.993	103.769	19.987	2.605	0.549
888.000	520.297	80.004	19.994	103.767	19.988	2.549	0.504
890.000	521.331	80.007	19.994	103.773	19.989	2.453	0.481
892.000	522.402	80.005	19.995	103.758	19.991	2.342	0.530
894.000	523.432	80.008	19.994	103.752	19.988	2.511	0.534
896.000	524.471	80.006	19.994	103.761	19.989	2.449	0.518
898.001	525.489	80.004	19.994	103.757	19.989	2.427	0.501
900.000	526.547	80.006	19.994	103.761	19.987	2.622	0.509
902.000	527.596	80.004	19.995	103.758	19.993	2.186	0.530
904.000	528.648	80.004	19.994	103.751	19.990	2.399	0.526
906.000	529.673	80.006	19.994	103.775	19.990	2.407	0.490
908.000	530.721	80.005	19.994	103.765	19.990	2.377	0.530
910.000	531.764	80.004	19.995	103.764	19.989	2.467	0.505
912.000	532.830	80.004	19.994	103.759	19.988	2.548	0.533
914.000	533.824	80.006	19.993	103.756	19.987	2.616	0.530
916.000	534.916	80.005	19.993	103.774	19.992	2.240	0.566
918.000	535.969	80.004	19.994	103.765	19.986	2.686	0.516
920.000	537.048	80.006	19.995	103.768	19.989	2.467	0.550
922.000	538.080	80.006	19.993	103.776	19.991	2.294	0.522
924.000	539.160	80.007	19.992	103.776	19.989	2.431	0.539
926.000	540.190	80.008	19.993	103.768	19.991	2.282	0.492
928.000	541.260	80.008	19.994	103.766	19.991	2.340	0.507
930.000	542.284	80.007	19.994	103.772	19.989	2.467	0.496
932.000	543.353	80.009	19.993	103.768	19.986	2.686	0.544
934.000	544.401	80.007	19.994	103.750	19.987	2.622	0.521
936.000	545.457	80.007	19.992	103.748	19.988	2.545	0.539
938.000	546.485	80.006	19.993	103.751	19.985	2.766	0.542
940.000	547.556	80.007	19.993	103.754	19.987	2.612	0.559
942.000	548.590	80.007	19.993	103.755	19.987	2.619	0.534
944.000	549.659	80.007	19.992	103.777	19.985	2.734	0.552
946.000	550.674	80.010	19.992	103.756	19.988	2.567	0.556
948.000	551.737	80.009	19.993	103.749	19.990	2.419	0.524
950.000	552.742	80.009	19.993	103.764	19.989	2.497	0.492
952.001	553.752	80.008	19.993	103.755	19.989	2.433	0.516
954.000	554.845	80.008	19.993	103.746	19.987	2.614	0.526
956.000	555.877	80.008	19.993	103.754	19.986	2.649	0.515
958.000	556.891	80.008	19.993	103.759	19.990	2.371	0.507
960.000	557.936	80.007	19.992	103.756	19.989	2.495	0.557
962.000	558.963	80.008	19.994	103.750	19.990	2.419	0.515
964.000	559.988	80.006	19.993	103.755	19.991	2.338	0.515
966.000	560.995	80.006	19.994	103.757	19.990	2.350	0.511
968.000	562.042	80.006	19.994	103.748	19.992	2.254	0.521
970.000	563.103	80.006	19.994	103.755	19.990	2.377	0.541
972.000	564.095	80.007	19.993	103.746	19.990	2.390	0.532
974.000	565.076	80.007	19.993	103.753	19.986	2.649	0.476
976.000	566.127	80.007	19.994	103.748	19.990	2.417	0.527
978.000	567.131	80.007	19.992	103.760	19.986	2.712	0.514
980.000	568.183	80.006	19.993	103.756	19.989	2.455	0.544
982.000	569.177	80.005	19.993	103.750	19.986	2.666	0.517
984.000	570.219	80.007	19.994	103.748	19.987	2.636	0.515
986.000	571.221	80.005	19.993	103.753	19.989	2.455	0.486
988.001	572.173	80.006	19.994	103.754	19.988	2.501	0.490
990.000	573.212	80.005	19.994	103.747	19.987	2.583	0.500
992.000	574.246	80.005	19.995	103.747	19.988	2.539	0.485
994.000	575.326	80.005	19.995	103.757	19.989	2.485	0.544
996.000	576.329	80.005	19.995	103.751	19.990	2.392	0.496
998.000	577.326	80.006	19.994	103.756	19.989	2.441	0.491
1000.000	578.342	80.006	19.994	103.747	19.989	2.453	0.510
1002.000	579.381	80.006	19.995	103.743	19.987	2.607	0.517
1004.000	580.349	80.009	19.994	103.747	19.991	2.338	0.471
1006.001	581.393	80.008	19.994	103.745	19.987	2.635	0.541
1008.000	582.450	80.009	19.994	103.744	19.987	2.583	0.486
1010.000	583.416	80.009	19.994	103.758	19.986	2.710	0.510
1012.000	584.443	80.009	19.993	103.744	19.986	2.708	0.479
1014.000	585.466	80.009	19.993	103.752	19.988	2.543	0.480
1016.000	586.492	80.007	19.993	103.749	19.988	2.537	0.500
1018.000	587.475	80.007	19.992	103.758	19.987	2.601	0.496
1020.000	588.504	80.007	19.994	103.756	19.988	2.539	0.487
1022.000	589.523	80.008	19.993	103.749	19.984	2.800	0.519
1024.000	590.616	80.007	19.994	103.747	19.983	2.874	0.531
1026.000	591.624	80.007	19.994	103.750	19.988	2.531	0.521
1028.000	592.603	80.008	19.994	103.751	19.989	2.451	0.525
1030.000	593.655	80.008	19.993	103.751	19.988	2.541	0.519
1032.000	594.715	80.008	19.993	103.748	19.985	2.744	0.543
1034.000	595.735	80.009	19.992	103.748	19.987	2.625	0.490
1036.000	596.762	80.009	19.993	103.747	19.985	2.728	0.511
1038.000	597.804	80.010	19.993	103.754	19.989	2.477	0.532
1040.000	598.822	80.007	19.993	103.752	19.984	2.844	0.535
1042.000	599.851	80.007	19.992	103.750	19.985	2.738	0.513
1044.000	600.870	80.006	19.994	103.747	19.986	2.698	0.505
1046.000	601.864	80.007	19.993	103.748	19.987	2.613	0.492
1048.000	602.868	80.006	19.993	103.752	19.984	2.862	0.501
1050.000	603.872	80.006	19.992	103.751	19.986	2.712	0.518
1052.000	604.880	80.005	19.994	103.758	19.988	2.549	0.513
1054.001	605.853	80.008	19.994	103.752	19.987	2.629	0.500
1056.000	606.905	80.006	19.994	103.752	19.987	2.641	0.503
1058.000	607.875	80.006	19.994	103.744	19.982	2.965	0.503
1060.000	608.907	80.007	19.995	103.745	19.985	2.780	0.500
1062.001	609.943	80.006	19.995	103.747	19.984	2.868	0.509
1064.001	610.934	80.006	19.994	103.747	19.980	3.121	0.494
1066.000	611.940	80.006	19.993	103.743	19.979	3.222	0.527
1068.000	612.958	80.007	19.995	103.745	19.977	3.388	0.486
1070.001	613.980	80.008	19.995	103.759	19.980	3.099	0.504
1072.000	615.019	80.004	19.994	103.748	19.986	2.655	0.505
1074.000	616.023	80.006	19.994	103.749	19.982	2.995	0.517
1076.000	617.003	80.007	19.994	103.758	19.986	2.694	0.488
1078.000	618.031	80.006	19.993	103.756	19.982	2.997	0.503
1080.001	619.045	80.004	19.995	103.753	19.978	3.253	0.503
1082.000	620.059	80.006	19.994	103.757	19.980	3.103	0.523
1084.000	621.107	80.005	19.996	103.743	19.980	3.148	0.532
1086.000	622.109	80.007	19.994	103.755	19.979	3.194	0.529
1088.001	623.147	80.007	19.993	103.755	19.981	3.055	0.507
1090.001	624.169	80.007	19.994	103.748	19.981	3.081	0.532
1092.000	625.193	80.008	19.994	103.744	19.979	3.191	0.499
1094.001	626.191	80.007	19.993	103.751	19.980	3.125	0.501
1096.000	627.233	80.007	19.994	103.765	19.982	2.987	0.531
1098.000	628.258	80.006	19.993	103.747	19.981	3.095	0.521
1100.000	629.258	80.006	19.992	103.748	19.982	3.009	0.511
1102.000	630.308	80.008	19.994	103.752	19.978	3.314	0.531
1104.000	631.355	80.007	19.994	103.753	19.984	2.814	0.543
1106.000	632.330	80.008	19.992	103.750	19.981	3.023	0.518
1108.000	633.354	80.006	19.993	103.748	19.984	2.854	0.514
1110.000	634.379	80.007	19.992	103.747	19.986	2.705	0.477
1112.000	635.435	80.007	19.992	103.754	19.984	2.838	0.519
1114.000	636.444	80.008	19.993	103.759	19.983	2.892	0.492
1116.000	637.435	80.008	19.992	103.747	19.982	2.997	0.467
1118.001	638.466	80.008	19.993	103.745	19.981	3.041	0.524
1120.000	639.551	80.008	19.993	103.745	19.981	3.061	0.525
1122.000	640.535	80.007	19.992	103.744	19.981	3.083	0.505
1124.000	641.577	80.007	19.993	103.744	19.985	2.780	0.517
1126.000	642.607	80.006	19.993	103.745	19.983	2.884	0.513
1128.000	643.625	80.006	19.994	103.745	19.987	2.589	0.503
1130.000	644.709	80.007	19.994	103.762	19.987	2.587	0.527
1132.000	645.692	80.006	19.994	103.750	19.977	3.380	0.520
1134.001	646.706	80.007	19.993	103.743	19.985	2.746	0.548
1136.001	647.734	80.006	19.993	103.744	19.982	3.017	0.534
1138.000	648.805	80.008	19.993	103.745	19.983	2.918	0.515
1140.000	649.768	80.006	19.994	103.745	19.977	3.328	0.487
1142.000	650.834	80.006	19.994	103.744	19.977	3.376	0.511
1144.000	651.871	80.006	19.994	103.745	19.979	3.219	0.523
1146.000	652.843	80.006	19.994	103.743	19.979	3.177	0.477
1148.000	653.906	80.007	19.994	103.746	19.981	3.087	0.489
1150.000	654.931	80.007	19.994	103.746	19.980	3.107	0.527
1152.000	655.957	80.005	19.994	103.747	19.981	3.089	0.500
1154.000	656.905	80.005	19.993	103.744	19.980	3.129	0.505
1156.000	657.920	80.006	19.994	103.745	19.976	3.410	0.511
1158.000	658.936	80.005	19.994	103.750	19.975	3.492	0.479
1160.000	659.955	80.006	19.994	103.746	19.977	3.392	0.503
1162.000	660.980	80.005	19.993	103.746	19.980	3.121	0.538
1164.000	661.941	80.007	19.994	103.750	19.979	3.207	0.487
1166.001	662.947	80.007	19.994	103.747	19.979	3.183	0.515
1168.001	663.952	80.007	19.992	103.746	19.978	3.266	0.487
1170.000	664.947	80.009	19.995	103.746	19.981	3.065	0.487
1172.000	665.918	80.007	19.993	103.746	19.979	3.231	0.492
1174.000	666.938	80.007	19.994	103.745	19.981	3.073	0.516
1176.001	668.011	80.005	19.995	103.746	19.976	3.444	0.510
1178.001	668.975	80.007	19.994	103.746	19.981	3.063	0.487
1180.000	670.021	80.007	19.994	103.746	19.982	2.954	0.491
1182.000	671.027	80.008	19.994	103.745	19.980	3.131	0.515
1184.000	672.047	80.007	19.994	103.744	19.981	3.035	0.533
1186.000	673.036	80.009	19.993	103.743	19.979	3.211	0.507
1188.000	674.102	80.008	19.994	103.743	19.978	3.294	0.539
1190.000	675.104	80.008	19.993	103.743	19.980	3.121	0.490
1192.000	676.133	80.009	19.993	103.742	19.981	3.077	0.486
1194.000	677.150	80.006	19.993	103.746	19.978	3.281	0.524
1196.001	678.160	80.009	19.993	103.743	19.984	2.830	0.533
1198.000	679.146	80.010	19.992	103.744	19.980	3.143	0.512
1200.000	680.134	80.009	19.993	103.745	19.982	2.994	0.506
1202.000	681.152	80.008	19.993	103.747	19.983	2.930	0.512
1204.000	682.149	80.006	19.993	103.743	19.981	3.091	0.498
1206.000	683.149	80.007	19.994	103.744	19.984	2.870	0.532
1208.000	684.159	80.007	19.993	103.744	19.980	3.149	0.499
1210.000	685.180	80.006	19.993	103.743	19.981	3.023	0.527
1212.000	686.160	80.007	19.994	103.744	19.981	3.057	0.500
1214.000	687.174	80.008	19.993	103.744	19.980	3.121	0.503
1216.000	688.206	80.006	19.993	103.755	19.981	3.061	0.504
1218.000	689.170	80.007	19.994	103.746	19.979	3.187	0.483
1220.000	690.187	80.006	19.993	103.745	19.978	3.247	0.473
1222.000	691.160	80.008	19.992	103.748	19.983	2.942	0.493
1224.000	692.390	80.007	19.993	103.751	19.982	2.982	0.695
1226.000	693.204	80.007	19.993	103.746	19.977	3.358	0.541
1228.000	694.175	80.007	19.992	103.745	19.977	3.356	0.481
1230.001	695.160	80.007	19.993	103.744	19.981	3.071	0.499
1232.000	696.181	80.005	19.992	103.746	19.975	3.529	0.516
1234.000	697.180	80.006	19.993	103.746	19.977	3.394	0.513
1236.000	698.169	80.006	19.994	103.744	19.978	3.296	0.480
1238.000	699.195	80.006	19.994	103.746	19.976	3.436	0.513
1240.000	700.170	80.005	19.994	103.747	19.978	3.320	0.483
1242.000	701.171	80.006	19.994	103.748	19.975	3.527	0.498
1244.000	702.183	80.006	19.994	103.747	19.975	3.490	0.536
1246.001	703.190	80.007	19.993	103.747	19.977	3.362	0.502
1248.001	704.232	80.008	19.996	103.746	19.976	3.414	0.617
1250.000	705.257	80.007	19.994	103.750	19.978	3.286	0.528
1252.000	706.270	80.008	19.994	103.751	19.978	3.306	0.520
1254.000	707.279	80.009	19.994	103.744	19.980	3.139	0.514
1256.000	708.300	80.008	19.993	103.744	19.978	3.320	0.522
1258.000	709.333	80.008	19.993	103.743	19.976	3.436	0.511
1260.000	710.350	80.009	19.994	103.743	19.977	3.372	0.515
1262.000	711.366	80.008	19.993	103.743	19.976	3.420	0.531
1264.000	712.390	80.009	19.994	103.743	19.977	3.382	0.542
1266.000	713.413	80.006	19.995	103.742	19.974	3.550	0.505
1268.000	714.418	80.009	19.996	103.743	19.977	3.342	0.524
1270.001	715.467	80.009	19.994	103.742	19.978	3.287	0.507
1272.001	716.492	80.008	19.995	103.742	19.980	3.127	0.515
1274.000	717.497	80.009	19.993	103.739	19.977	3.324	0.503
1276.001	718.510	80.009	19.995	103.739	19.977	3.362	0.493
1278.000	719.529	80.009	19.993	103.741	19.977	3.366	0.502
1280.000	720.522	80.009	19.994	103.741	19.979	3.227	0.511
1282.000	721.578	80.008	19.993	103.742	19.977	3.392	0.496
1284.000	722.618	80.008	19.992	103.745	19.977	3.388	0.521
1286.000	723.631	80.008	19.994	103.743	19.975	3.520	0.523
1288.001	724.591	80.007	19.993	103.746	19.975	3.540	0.491
1290.001	725.582	80.006	19.993	103.746	19.974	3.559	0.486
1292.000	726.615	80.006	19.993	103.746	19.974	3.615	0.500
1294.000	727.625	80.008	19.993	103.746	19.976	3.404	0.504
1296.000	728.615	80.006	19.993	103.746	19.980	3.103	0.490
1298.000	729.605	80.007	19.994	103.745	19.978	3.278	0.475
1300.000	730.674	80.007	19.993	103.744	19.974	3.567	0.529
1302.000	731.668	80.007	19.994	103.745	19.976	3.406	0.513
1304.000	732.660	80.006	19.993	103.746	19.978	3.306	0.516
1306.000	733.646	80.007	19.993	103.744	19.976	3.414	0.507
1308.001	734.664	80.006	19.995	103.746	19.980	3.145	0.487
1310.001	735.697	80.007	19.995	103.750	19.981	3.065	0.509
1312.000	736.691	80.006	19.993	103.745	19.981	3.053	0.464
1314.000	737.676	80.007	19.993	103.745	19.979	3.229	0.510
1316.000	738.693	80.006	19.993	103.744	19.979	3.225	0.526
1318.000	739.754	80.006	19.993	103.743	19.978	3.273	0.499
1320.000	740.748	80.007	19.993	103.746	19.979	3.227	0.490
1322.000	741.775	80.009	19.994	103.746	19.979	3.227	0.515
1324.000	742.845	80.008	19.993	103.745	19.977	3.376	0.543
1325.501	743.555	80.007	19.994	103.744	19.977	3.348	0.489