File: 01_Data/Fiberglass_Insulation_R13_Paper_Faced_Fiberglass/MCC/Fiberglass_Insulation_R13_Paper_Faced_Fiberglass_MCC_30K_min_220215_R1.txt
Sample ID:	C:\MCC\MCC Cal\Test\R13_Fiberglas_InsulationB_MCC_30K_min_220215_R1.txt
Sample Weight (mg):	4.74
Heating Rate (C/s):	0.5
Combustor Temp (C):	900
N2 Flow Rate (cc/min):	80
O2 Flow Rate (cc/min):	20
Calibration File:	C:\MCC\MCC Cal\Coeff1 JN10440_30_210304.txt.txt
T Correction Coefficients:	0	1.024463	0
Time Shift (s):	14
*
Time (s)	Temperature (C)	N2 flow rate (cc/min)	O2 flow rate (cc/min)	Flow Rate (cc/min)	Oxygen (%)	HRR (W/g)	Heating rate (C/s)
-0.001	111.714	80.010	19.994	103.704	20.001	0.002	0.034
1.999	111.721	80.008	19.991	103.700	20.000	0.037	0.009
3.999	111.698	80.010	19.995	103.706	19.998	0.229	-0.011
5.999	111.722	80.010	19.994	103.707	19.998	0.220	0.041
7.999	111.706	80.011	19.994	103.704	19.999	0.105	0.006
9.999	111.696	80.010	19.994	103.709	19.998	0.191	0.024
11.999	111.709	80.009	19.995	103.707	20.002	-0.068	0.004
13.999	111.714	80.009	19.994	103.713	19.999	0.160	0.020
15.999	111.694	80.008	19.994	103.715	19.998	0.176	0.001
17.999	111.742	80.008	19.994	103.735	19.994	0.499	0.045
19.999	111.700	80.010	19.993	103.759	19.987	0.921	0.005
21.999	111.774	80.008	19.993	103.798	19.989	0.795	0.024
23.999	111.876	80.009	19.994	103.804	19.985	1.064	0.064
25.999	111.945	80.010	19.993	103.818	19.983	1.255	0.034
27.999	112.077	80.011	19.994	103.834	19.977	1.670	0.083
29.999	112.186	80.011	19.994	103.846	19.974	1.814	0.071
31.999	112.353	80.012	19.993	103.851	19.974	1.871	0.104
33.999	112.565	80.010	19.994	103.851	19.975	1.807	0.103
35.999	112.765	80.009	19.994	103.842	19.972	1.967	0.102
37.999	112.965	80.008	19.995	103.844	19.973	1.928	0.094
39.999	113.193	80.008	19.994	103.855	19.971	2.026	0.106
41.999	113.479	80.006	19.994	103.885	19.970	2.149	0.117
43.999	113.740	80.007	19.995	103.906	19.967	2.294	0.139
45.999	114.055	80.006	19.995	103.916	19.964	2.559	0.153
48.000	114.449	80.007	19.994	103.914	19.960	2.816	0.211
50.000	114.795	80.006	19.997	103.929	19.956	3.047	0.168
51.999	115.247	80.008	19.993	103.934	19.963	2.627	0.214
53.999	115.640	80.009	19.994	103.934	19.956	3.058	0.207
55.999	116.117	80.007	19.994	103.940	19.954	3.214	0.228
57.999	116.584	80.009	19.993	103.939	19.954	3.214	0.229
59.999	117.052	80.009	19.994	103.941	19.951	3.436	0.245
61.999	117.572	80.008	19.993	103.948	19.949	3.554	0.252
63.999	118.123	80.008	19.993	103.970	19.945	3.839	0.277
65.999	118.699	80.007	19.993	103.976	19.946	3.791	0.316
67.999	119.280	80.008	19.994	103.978	19.948	3.642	0.258
69.999	119.871	80.007	19.993	103.979	19.950	3.480	0.307
71.999	120.508	80.008	19.994	103.977	19.947	3.710	0.309
73.999	121.213	80.006	19.994	103.978	19.944	3.901	0.320
75.999	121.881	80.007	19.995	103.978	19.944	3.885	0.339
77.999	122.626	80.007	19.994	103.978	19.945	3.811	0.370
79.999	123.356	80.008	19.993	103.978	19.950	3.471	0.385
81.999	124.075	80.009	19.993	103.975	19.948	3.609	0.318
83.999	124.866	80.009	19.994	103.977	19.945	3.815	0.396
85.999	125.640	80.010	19.993	103.974	19.950	3.471	0.367
87.999	126.405	80.010	19.993	103.977	19.946	3.771	0.394
89.999	127.178	80.009	19.993	103.976	19.946	3.759	0.387
91.999	127.988	80.009	19.993	103.976	19.946	3.752	0.361
93.999	128.812	80.011	19.993	103.976	19.946	3.771	0.406
95.999	129.641	80.010	19.994	103.978	19.944	3.874	0.384
97.999	130.503	80.010	19.993	103.976	19.947	3.681	0.430
99.999	131.350	80.008	19.993	103.973	19.945	3.809	0.429
101.999	132.221	80.009	19.994	103.972	19.943	3.960	0.432
103.999	133.059	80.008	19.993	103.977	19.942	4.019	0.424
105.999	133.965	80.010	19.994	103.977	19.941	4.085	0.449
107.999	134.850	80.009	19.994	103.975	19.945	3.811	0.431
109.999	135.719	80.012	19.993	103.977	19.942	4.061	0.426
111.999	136.601	80.010	19.994	103.977	19.943	3.986	0.446
113.999	137.499	80.010	19.994	103.976	19.945	3.850	0.436
116.000	138.403	80.010	19.994	103.974	19.946	3.778	0.423
117.999	139.363	80.008	19.993	103.977	19.942	4.039	0.462
119.999	140.265	80.010	19.994	103.978	19.944	3.870	0.487
121.999	141.249	80.007	19.994	103.978	19.946	3.752	0.539
123.999	142.166	80.007	19.994	103.979	19.946	3.758	0.447
125.999	143.157	80.008	19.994	103.975	19.946	3.783	0.490
127.999	144.169	80.008	19.994	103.973	19.944	3.875	0.559
130.000	145.108	80.008	19.994	103.976	19.943	3.950	0.493
131.999	146.084	80.008	19.994	103.977	19.949	3.577	0.499
133.999	147.046	80.006	19.994	103.976	19.947	3.670	0.498
135.999	148.009	80.008	19.995	103.971	19.949	3.575	0.495
137.999	149.002	80.007	19.994	103.966	19.950	3.460	0.486
139.999	149.974	80.007	19.995	103.959	19.944	3.873	0.480
141.999	150.945	80.009	19.994	103.960	19.949	3.582	0.467
143.999	151.960	80.007	19.995	103.957	19.947	3.685	0.500
145.999	152.958	80.009	19.995	103.953	19.952	3.325	0.486
147.999	153.939	80.009	19.994	103.968	19.950	3.503	0.486
149.999	154.914	80.008	19.993	103.956	19.949	3.536	0.487
151.999	155.932	80.008	19.995	103.944	19.948	3.597	0.514
153.999	156.943	80.007	19.994	103.940	19.950	3.490	0.506
155.999	157.938	80.008	19.993	103.944	19.948	3.591	0.515
157.999	158.917	80.008	19.993	103.948	19.949	3.523	0.524
159.999	159.922	80.009	19.994	103.952	19.949	3.531	0.509
161.999	160.937	80.010	19.994	103.949	19.951	3.424	0.494
163.999	161.942	80.010	19.995	103.944	19.952	3.367	0.506
165.999	162.912	80.011	19.993	103.941	19.950	3.503	0.472
167.999	163.941	80.010	19.993	103.940	19.948	3.643	0.509
169.999	164.950	80.010	19.993	103.941	19.953	3.253	0.539
171.999	165.964	80.010	19.993	103.939	19.953	3.273	0.505
173.999	167.006	80.009	19.994	103.940	19.952	3.349	0.495
175.999	167.960	80.010	19.993	103.940	19.950	3.483	0.497
177.999	169.009	80.010	19.993	103.941	19.950	3.499	0.508
179.999	169.972	80.010	19.993	103.940	19.951	3.391	0.496
181.999	170.966	80.010	19.994	103.940	19.953	3.282	0.488
183.999	172.021	80.010	19.993	103.940	19.952	3.349	0.523
185.999	172.997	80.011	19.993	103.940	19.948	3.602	0.509
187.999	173.959	80.012	19.992	103.940	19.950	3.501	0.492
189.999	174.985	80.011	19.993	103.939	19.951	3.426	0.502
191.999	175.956	80.011	19.994	103.940	19.953	3.269	0.486
193.999	176.962	80.011	19.993	103.938	19.953	3.304	0.502
195.999	177.956	80.011	19.993	103.940	19.953	3.262	0.469
197.999	178.936	80.011	19.993	103.928	19.953	3.312	0.474
199.999	179.930	80.009	19.995	103.930	19.950	3.513	0.470
201.999	180.938	80.008	19.993	103.932	19.955	3.115	0.502
203.999	181.976	80.008	19.994	103.928	19.951	3.414	0.507
205.999	182.948	80.009	19.996	103.918	19.952	3.379	0.509
207.999	183.974	80.007	19.995	103.934	19.950	3.477	0.480
209.999	184.941	80.008	19.995	103.922	19.954	3.243	0.506
212.000	185.968	80.009	19.994	103.930	19.954	3.242	0.512
213.999	186.959	80.008	19.993	103.928	19.954	3.231	0.515
215.999	187.974	80.008	19.995	103.913	19.956	3.098	0.511
217.999	188.933	80.009	19.994	103.928	19.957	3.024	0.490
219.999	189.894	80.009	19.994	103.915	19.956	3.063	0.496
221.999	190.903	80.009	19.994	103.920	19.954	3.214	0.511
223.999	191.923	80.009	19.995	103.931	19.956	3.092	0.469
225.999	192.891	80.007	19.996	103.926	19.956	3.052	0.476
227.999	193.958	80.007	19.994	103.906	19.955	3.144	0.515
229.999	194.936	80.008	19.996	103.914	19.957	3.017	0.527
231.999	195.918	80.007	19.996	103.909	19.958	2.938	0.513
233.999	196.866	80.007	19.995	103.914	19.955	3.111	0.453
235.999	197.881	80.008	19.994	103.911	19.956	3.078	0.505
237.999	198.847	80.008	19.994	103.915	19.954	3.191	0.507
239.999	199.859	80.008	19.994	103.907	19.953	3.287	0.500
241.999	200.848	80.008	19.993	103.915	19.959	2.872	0.523
243.999	201.810	80.010	19.993	103.914	19.954	3.184	0.468
245.999	202.786	80.010	19.991	103.915	19.956	3.079	0.492
247.999	203.796	80.010	19.994	103.909	19.956	3.061	0.481
249.999	204.757	80.009	19.994	103.907	19.957	3.023	0.494
251.999	205.758	80.010	19.994	103.919	19.956	3.061	0.490
253.999	206.696	80.010	19.994	103.911	19.957	3.001	0.476
255.999	207.782	80.010	19.993	103.911	19.955	3.111	0.515
257.999	208.719	80.010	19.993	103.906	19.954	3.241	0.471
259.999	209.718	80.009	19.993	103.909	19.955	3.151	0.511
261.999	210.707	80.010	19.993	103.908	19.953	3.290	0.497
263.999	211.674	80.009	19.994	103.906	19.956	3.070	0.463
265.999	212.649	80.011	19.993	103.907	19.951	3.412	0.439
267.999	213.660	80.011	19.994	103.905	19.952	3.320	0.506
269.999	214.631	80.012	19.994	103.904	19.953	3.309	0.465
271.999	215.593	80.011	19.994	103.901	19.954	3.211	0.495
273.999	216.591	80.010	19.992	103.900	19.953	3.257	0.480
275.999	217.565	80.011	19.993	103.903	19.954	3.180	0.478
277.999	218.577	80.010	19.993	103.899	19.955	3.162	0.512
279.999	219.566	80.010	19.992	103.900	19.952	3.340	0.486
281.999	220.525	80.008	19.993	103.899	19.954	3.208	0.479
283.999	221.556	80.008	19.993	103.900	19.954	3.230	0.549
285.999	222.543	80.009	19.993	103.901	19.954	3.223	0.526
287.999	223.541	80.009	19.993	103.899	19.956	3.103	0.517
289.999	224.546	80.009	19.994	103.899	19.952	3.379	0.487
291.999	225.550	80.008	19.995	103.899	19.953	3.294	0.529
293.999	226.535	80.008	19.994	103.898	19.954	3.245	0.494
295.999	227.524	80.009	19.994	103.898	19.955	3.133	0.479
297.999	228.566	80.009	19.994	103.900	19.956	3.100	0.525
299.999	229.579	80.010	19.994	103.900	19.958	2.945	0.512
301.999	230.611	80.010	19.993	103.900	19.958	2.918	0.542
303.999	231.603	80.008	19.993	103.899	19.957	2.976	0.493
305.999	232.587	80.008	19.994	103.901	19.961	2.747	0.500
307.999	233.613	80.008	19.993	103.901	19.958	2.945	0.518
309.999	234.621	80.007	19.994	103.901	19.957	2.989	0.505
311.999	235.629	80.008	19.993	103.898	19.954	3.215	0.509
313.999	236.653	80.008	19.995	103.900	19.957	3.002	0.528
316.000	237.637	80.009	19.994	103.900	19.957	3.006	0.504
317.999	238.641	80.008	19.995	103.900	19.959	2.899	0.482
320.000	239.682	80.008	19.994	103.902	19.957	3.033	0.537
321.999	240.675	80.009	19.995	103.902	19.955	3.127	0.524
323.999	241.634	80.010	19.994	103.900	19.959	2.868	0.493
325.999	242.649	80.009	19.995	103.899	19.956	3.099	0.508
327.999	243.617	80.009	19.995	103.900	19.956	3.050	0.510
329.999	244.651	80.009	19.995	103.893	19.957	3.006	0.516
331.999	245.623	80.010	19.995	103.894	19.956	3.044	0.492
333.999	246.632	80.009	19.992	103.896	19.959	2.837	0.501
335.999	247.660	80.009	19.995	103.893	19.959	2.880	0.504
337.999	248.634	80.010	19.994	103.896	19.960	2.778	0.483
339.999	249.672	80.010	19.993	103.890	19.958	2.906	0.519
341.999	250.696	80.009	19.993	103.886	19.957	3.033	0.501
343.999	251.737	80.010	19.994	103.888	19.959	2.868	0.529
345.999	252.722	80.010	19.994	103.882	19.954	3.180	0.502
347.999	253.707	80.012	19.993	103.882	19.959	2.876	0.511
349.999	254.692	80.012	19.994	103.870	19.955	3.117	0.509
351.999	255.687	80.011	19.993	103.872	19.957	3.036	0.478
353.999	256.706	80.011	19.993	103.882	19.956	3.080	0.486
355.999	257.673	80.010	19.993	103.887	19.956	3.071	0.462
357.999	258.706	80.009	19.994	103.872	19.958	2.915	0.496
359.999	259.647	80.008	19.993	103.868	19.959	2.886	0.489
361.999	260.639	80.008	19.993	103.876	19.957	3.003	0.476
363.999	261.616	80.009	19.993	103.873	19.956	3.055	0.465
365.999	262.652	80.009	19.994	103.879	19.959	2.893	0.537
367.999	263.604	80.009	19.993	103.872	19.956	3.082	0.481
369.999	264.637	80.008	19.993	103.871	19.960	2.785	0.501
371.999	265.636	80.010	19.992	103.876	19.958	2.963	0.490
373.999	266.577	80.009	19.993	103.886	19.956	3.075	0.482
375.999	267.594	80.009	19.994	103.879	19.957	3.004	0.531
377.999	268.589	80.010	19.993	103.873	19.957	3.009	0.501
379.999	269.557	80.009	19.993	103.888	19.956	3.047	0.511
381.999	270.581	80.008	19.993	103.883	19.956	3.084	0.534
383.999	271.636	80.007	19.993	103.880	19.956	3.054	0.518
385.999	272.607	80.006	19.994	103.883	19.955	3.128	0.503
387.999	273.598	80.008	19.995	103.888	19.958	2.904	0.503
389.999	274.605	80.008	19.994	103.872	19.954	3.220	0.502
391.999	275.597	80.008	19.994	103.868	19.957	3.034	0.486
393.999	276.593	80.008	19.995	103.866	19.957	3.029	0.514
395.999	277.579	80.010	19.994	103.864	19.954	3.187	0.503
397.999	278.581	80.009	19.993	103.868	19.959	2.898	0.490
399.999	279.610	80.009	19.993	103.867	19.959	2.880	0.514
401.999	280.623	80.011	19.994	103.875	19.957	2.974	0.505
403.999	281.593	80.010	19.993	103.866	19.958	2.963	0.520
405.999	282.596	80.010	19.993	103.879	19.958	2.966	0.485
408.000	283.604	80.011	19.994	103.866	19.958	2.930	0.509
409.999	284.599	80.011	19.994	103.864	19.959	2.902	0.495
412.000	285.638	80.010	19.994	103.861	19.959	2.838	0.500
414.000	286.627	80.009	19.995	103.863	19.959	2.851	0.528
416.000	287.642	80.009	19.995	103.862	19.957	3.034	0.493
418.000	288.612	80.009	19.994	103.860	19.960	2.812	0.494
419.999	289.639	80.009	19.994	103.868	19.956	3.045	0.553
421.999	290.627	80.009	19.995	103.861	19.958	2.966	0.499
423.999	291.677	80.011	19.994	103.866	19.961	2.726	0.515
425.999	292.707	80.011	19.994	103.862	19.957	3.038	0.509
427.999	293.694	80.013	19.992	103.860	19.960	2.810	0.503
429.999	294.739	80.011	19.993	103.860	19.961	2.762	0.514
431.999	295.701	80.011	19.993	103.861	19.961	2.707	0.508
433.999	296.703	80.012	19.992	103.862	19.963	2.614	0.493
435.999	297.716	80.009	19.993	103.862	19.959	2.851	0.506
437.999	298.765	80.010	19.994	103.863	19.961	2.724	0.531
439.999	299.724	80.007	19.994	103.863	19.960	2.821	0.490
441.999	300.739	80.008	19.993	103.864	19.960	2.823	0.511
443.999	301.751	80.008	19.993	103.863	19.960	2.766	0.514
445.999	302.750	80.008	19.994	103.863	19.959	2.878	0.515
447.999	303.728	80.008	19.995	103.867	19.961	2.742	0.499
449.999	304.729	80.008	19.993	103.865	19.961	2.702	0.496
451.999	305.756	80.008	19.994	103.865	19.963	2.617	0.531
453.999	306.777	80.010	19.993	103.864	19.962	2.638	0.490
455.999	307.760	80.008	19.993	103.863	19.964	2.494	0.480
457.999	308.762	80.009	19.993	103.860	19.961	2.733	0.509
459.999	309.761	80.011	19.994	103.858	19.965	2.483	0.526
462.000	310.800	80.010	19.993	103.860	19.964	2.515	0.505
463.999	311.822	80.010	19.993	103.861	19.963	2.601	0.500
465.999	312.855	80.010	19.993	103.860	19.960	2.794	0.500
467.999	313.859	80.009	19.992	103.859	19.961	2.757	0.497
469.999	314.856	80.009	19.994	103.861	19.960	2.801	0.507
471.999	315.875	80.009	19.995	103.862	19.961	2.740	0.494
473.999	316.916	80.010	19.994	103.861	19.961	2.759	0.526
475.999	317.912	80.008	19.993	103.861	19.961	2.735	0.473
477.999	318.932	80.007	19.993	103.860	19.962	2.659	0.481
479.999	319.898	80.009	19.994	103.855	19.961	2.702	0.490
481.999	320.898	80.010	19.993	103.856	19.961	2.764	0.476
483.999	321.963	80.010	19.993	103.859	19.962	2.691	0.532
485.999	322.929	80.011	19.993	103.859	19.961	2.748	0.509
487.999	323.955	80.010	19.994	103.855	19.962	2.658	0.513
489.999	324.960	80.010	19.995	103.855	19.962	2.687	0.503
491.999	325.975	80.010	19.993	103.858	19.963	2.626	0.514
493.999	326.967	80.010	19.994	103.858	19.962	2.694	0.497
495.999	327.983	80.009	19.994	103.849	19.963	2.569	0.510
497.999	329.010	80.009	19.993	103.853	19.963	2.617	0.519
499.999	330.054	80.009	19.994	103.856	19.966	2.399	0.561
501.999	331.042	80.009	19.994	103.857	19.962	2.674	0.521
503.999	332.030	80.009	19.994	103.845	19.964	2.520	0.496
505.999	333.092	80.011	19.994	103.849	19.964	2.549	0.547
507.999	334.116	80.009	19.995	103.855	19.966	2.408	0.531
509.999	335.134	80.010	19.995	103.852	19.965	2.459	0.507
511.999	336.138	80.010	19.994	103.855	19.968	2.263	0.519
514.000	337.184	80.009	19.994	103.856	19.967	2.290	0.525
515.999	338.199	80.009	19.994	103.855	19.961	2.700	0.535
517.999	339.191	80.010	19.993	103.856	19.964	2.520	0.539
519.999	340.192	80.008	19.993	103.847	19.962	2.661	0.491
521.999	341.225	80.008	19.993	103.842	19.964	2.540	0.522
523.999	342.275	80.009	19.994	103.846	19.966	2.406	0.521
525.999	343.282	80.008	19.994	103.845	19.965	2.433	0.513
527.999	344.270	80.008	19.994	103.840	19.965	2.474	0.507
529.999	345.262	80.008	19.993	103.853	19.967	2.349	0.510
531.999	346.286	80.008	19.994	103.855	19.962	2.644	0.523
533.999	347.298	80.008	19.993	103.846	19.964	2.494	0.505
536.000	348.281	80.008	19.994	103.831	19.966	2.395	0.502
537.999	349.302	80.008	19.994	103.829	19.963	2.593	0.503
539.999	350.343	80.007	19.994	103.835	19.964	2.552	0.506
541.999	351.331	80.008	19.994	103.839	19.963	2.593	0.473
543.999	352.307	80.007	19.993	103.841	19.968	2.250	0.510
545.999	353.334	80.008	19.994	103.841	19.968	2.281	0.505
548.000	354.375	80.009	19.993	103.832	19.965	2.477	0.516
550.000	355.390	80.008	19.993	103.832	19.966	2.362	0.506
551.999	356.378	80.008	19.994	103.834	19.965	2.461	0.510
553.999	357.369	80.008	19.994	103.836	19.966	2.409	0.507
555.999	358.381	80.008	19.993	103.825	19.966	2.419	0.479
557.999	359.429	80.008	19.993	103.828	19.965	2.446	0.539
560.000	360.419	80.007	19.993	103.842	19.963	2.589	0.520
562.000	361.416	80.009	19.993	103.836	19.964	2.547	0.503
563.999	362.369	80.009	19.993	103.835	19.963	2.574	0.471
565.999	363.374	80.009	19.994	103.836	19.965	2.466	0.497
567.999	364.405	80.009	19.994	103.845	19.963	2.617	0.491
570.000	365.414	80.008	19.993	103.832	19.961	2.756	0.492
572.000	366.438	80.008	19.995	103.830	19.963	2.576	0.528
573.999	367.400	80.008	19.994	103.827	19.961	2.721	0.504
575.999	368.411	80.008	19.995	103.833	19.962	2.686	0.501
577.999	369.410	80.009	19.994	103.826	19.964	2.541	0.495
580.000	370.443	80.009	19.994	103.829	19.961	2.763	0.536
581.999	371.450	80.009	19.993	103.829	19.966	2.400	0.505
583.999	372.438	80.010	19.994	103.833	19.966	2.391	0.464
585.999	373.441	80.010	19.993	103.827	19.963	2.616	0.488
587.999	374.466	80.011	19.993	103.823	19.967	2.299	0.492
590.000	375.495	80.010	19.993	103.822	19.966	2.404	0.510
591.999	376.509	80.010	19.994	103.822	19.968	2.253	0.522
593.999	377.531	80.011	19.994	103.819	19.964	2.517	0.508
595.999	378.554	80.008	19.994	103.818	19.967	2.317	0.513
597.999	379.527	80.008	19.994	103.822	19.966	2.378	0.500
599.999	380.551	80.007	19.995	103.821	19.969	2.172	0.497
601.999	381.589	80.006	19.995	103.821	19.968	2.246	0.498
603.999	382.611	80.007	19.994	103.822	19.970	2.086	0.522
605.999	383.601	80.007	19.995	103.821	19.968	2.238	0.496
607.999	384.618	80.008	19.994	103.820	19.968	2.237	0.507
609.999	385.633	80.009	19.994	103.821	19.966	2.362	0.499
611.999	386.649	80.007	19.993	103.821	19.970	2.123	0.503
614.000	387.643	80.008	19.994	103.822	19.965	2.484	0.516
616.000	388.688	80.008	19.993	103.821	19.965	2.426	0.500
618.000	389.679	80.009	19.994	103.820	19.968	2.233	0.503
620.000	390.682	80.009	19.992	103.824	19.966	2.378	0.491
622.000	391.672	80.009	19.993	103.826	19.965	2.486	0.481
623.999	392.678	80.009	19.994	103.823	19.964	2.539	0.489
625.999	393.701	80.008	19.995	103.825	19.964	2.556	0.530
627.999	394.698	80.008	19.994	103.825	19.961	2.701	0.505
629.999	395.713	80.006	19.995	103.825	19.966	2.356	0.500
632.000	396.697	80.007	19.993	103.824	19.962	2.642	0.491
633.999	397.731	80.007	19.994	103.825	19.966	2.411	0.485
635.999	398.712	80.008	19.993	103.825	19.959	2.846	0.483
637.999	399.721	80.008	19.993	103.825	19.964	2.550	0.516
639.999	400.701	80.008	19.993	103.825	19.962	2.646	0.489
641.999	401.685	80.009	19.992	103.825	19.961	2.727	0.500
643.999	402.694	80.009	19.993	103.825	19.962	2.631	0.507
645.999	403.682	80.008	19.993	103.826	19.960	2.800	0.479
647.999	404.662	80.009	19.992	103.825	19.961	2.699	0.439
649.999	405.668	80.009	19.993	103.823	19.964	2.532	0.462
651.999	406.678	80.009	19.993	103.822	19.963	2.609	0.494
654.000	407.662	80.009	19.993	103.821	19.961	2.741	0.491
655.999	408.653	80.009	19.993	103.820	19.959	2.879	0.481
657.999	409.690	80.010	19.994	103.821	19.960	2.782	0.493
659.999	410.683	80.010	19.994	103.821	19.963	2.594	0.502
661.999	411.679	80.008	19.993	103.821	19.963	2.598	0.528
664.000	412.700	80.010	19.993	103.820	19.962	2.655	0.504
665.999	413.665	80.010	19.993	103.822	19.962	2.633	0.483
667.999	414.650	80.010	19.995	103.820	19.960	2.798	0.512
669.999	415.663	80.011	19.994	103.819	19.965	2.477	0.474
671.999	416.667	80.011	19.994	103.818	19.959	2.837	0.500
673.999	417.704	80.009	19.993	103.818	19.960	2.813	0.541
675.999	418.685	80.009	19.993	103.819	19.960	2.833	0.499
677.999	419.720	80.008	19.993	103.818	19.958	2.916	0.502
679.999	420.720	80.009	19.993	103.820	19.963	2.585	0.506
681.999	421.757	80.008	19.993	103.822	19.964	2.527	0.518
683.999	422.790	80.008	19.995	103.821	19.961	2.752	0.519
685.999	423.771	80.006	19.994	103.823	19.963	2.563	0.501
687.999	424.796	80.006	19.995	103.825	19.962	2.694	0.506
690.000	425.832	80.006	19.995	103.825	19.963	2.578	0.553
691.999	426.841	80.006	19.994	103.823	19.966	2.417	0.514
693.999	427.915	80.008	19.995	103.824	19.963	2.606	0.538
695.999	428.939	80.008	19.995	103.824	19.964	2.514	0.524
697.999	429.967	80.007	19.994	103.823	19.964	2.519	0.502
700.000	430.995	80.008	19.996	103.823	19.960	2.822	0.482
702.000	432.028	80.007	19.993	103.823	19.960	2.828	0.520
703.999	433.083	80.008	19.994	103.825	19.959	2.894	0.530
705.999	434.127	80.008	19.994	103.825	19.962	2.681	0.541
707.999	435.139	80.006	19.994	103.825	19.963	2.627	0.527
709.999	436.163	80.007	19.994	103.827	19.962	2.677	0.523
711.999	437.194	80.008	19.994	103.825	19.960	2.796	0.518
713.999	438.204	80.007	19.993	103.824	19.963	2.569	0.496
715.999	439.264	80.009	19.994	103.822	19.961	2.699	0.517
717.999	440.273	80.007	19.995	103.820	19.963	2.605	0.519
720.000	441.320	80.010	19.994	103.822	19.964	2.497	0.511
721.999	442.326	80.009	19.994	103.821	19.962	2.635	0.498
723.999	443.342	80.009	19.994	103.820	19.962	2.684	0.509
725.999	444.359	80.010	19.994	103.818	19.964	2.517	0.525
727.999	445.379	80.010	19.994	103.818	19.963	2.627	0.500
729.999	446.403	80.009	19.993	103.820	19.959	2.855	0.531
731.999	447.411	80.010	19.994	103.820	19.960	2.796	0.512
733.999	448.458	80.010	19.993	103.816	19.962	2.686	0.536
735.999	449.497	80.008	19.993	103.822	19.963	2.596	0.518
738.000	450.463	80.008	19.993	103.822	19.965	2.490	0.504
739.999	451.485	80.009	19.994	103.821	19.962	2.659	0.491
741.999	452.497	80.009	19.994	103.821	19.962	2.631	0.499
744.000	453.510	80.009	19.994	103.822	19.964	2.506	0.499
745.999	454.535	80.010	19.994	103.822	19.967	2.297	0.508
747.999	455.560	80.010	19.994	103.822	19.967	2.330	0.514
749.999	456.575	80.011	19.996	103.820	19.965	2.459	0.509
751.999	457.582	80.011	19.993	103.822	19.964	2.537	0.490
754.000	458.611	80.010	19.993	103.821	19.964	2.502	0.498
755.999	459.630	80.009	19.994	103.818	19.964	2.501	0.484
757.999	460.674	80.008	19.994	103.817	19.966	2.405	0.537
759.999	461.651	80.009	19.994	103.817	19.966	2.385	0.475
761.999	462.657	80.007	19.994	103.818	19.968	2.277	0.495
763.999	463.687	80.008	19.994	103.802	19.964	2.504	0.497
765.999	464.689	80.008	19.993	103.815	19.964	2.492	0.504
768.000	465.710	80.007	19.994	103.819	19.962	2.671	0.522
769.999	466.713	80.007	19.994	103.819	19.966	2.398	0.486
771.999	467.735	80.008	19.994	103.818	19.965	2.480	0.504
773.999	468.772	80.007	19.994	103.815	19.966	2.398	0.508
775.999	469.831	80.007	19.993	103.819	19.963	2.623	0.497
777.999	470.826	80.007	19.994	103.813	19.965	2.480	0.523
779.999	471.822	80.008	19.994	103.799	19.965	2.425	0.514
782.000	472.841	80.007	19.994	103.813	19.962	2.664	0.524
783.999	473.936	80.007	19.995	103.806	19.966	2.420	0.521
786.000	474.957	80.009	19.995	103.808	19.967	2.330	0.557
787.999	475.968	80.007	19.995	103.800	19.968	2.279	0.501
790.000	477.001	80.006	19.995	103.799	19.965	2.475	0.494
791.999	478.030	80.007	19.994	103.803	19.967	2.335	0.510
793.999	479.063	80.007	19.994	103.803	19.966	2.357	0.500
795.999	480.073	80.009	19.994	103.808	19.967	2.326	0.515
797.999	481.155	80.008	19.995	103.807	19.967	2.297	0.541
799.999	482.110	80.009	19.994	103.804	19.971	2.023	0.500
801.999	483.163	80.010	19.993	103.799	19.967	2.343	0.528
804.000	484.162	80.009	19.994	103.803	19.967	2.292	0.493
806.000	485.189	80.008	19.994	103.804	19.969	2.213	0.523
807.999	486.207	80.010	19.994	103.811	19.967	2.304	0.540
810.000	487.208	80.010	19.993	103.806	19.970	2.117	0.535
811.999	488.222	80.010	19.993	103.811	19.963	2.568	0.505
813.999	489.269	80.009	19.993	103.818	19.969	2.157	0.498
815.999	490.276	80.008	19.995	103.814	19.972	1.981	0.488
817.999	491.242	80.008	19.994	103.812	19.972	1.992	0.479
819.999	492.290	80.010	19.993	103.803	19.968	2.245	0.498
821.999	493.323	80.009	19.992	103.803	19.967	2.326	0.517
823.999	494.381	80.011	19.992	103.808	19.969	2.161	0.531
825.999	495.444	80.010	19.994	103.794	19.968	2.231	0.558
827.999	496.402	80.011	19.993	103.789	19.972	1.954	0.503
829.999	497.415	80.011	19.992	103.800	19.968	2.258	0.505
831.999	498.482	80.011	19.992	103.801	19.969	2.157	0.520
833.999	499.468	80.011	19.992	103.797	19.971	2.064	0.486
835.999	500.470	80.010	19.993	103.796	19.972	1.967	0.494
838.000	501.516	80.011	19.993	103.809	19.972	2.000	0.541
839.999	502.513	80.009	19.993	103.810	19.971	2.053	0.475
841.999	503.543	80.008	19.993	103.807	19.970	2.146	0.521
843.999	504.523	80.008	19.993	103.795	19.973	1.897	0.514
845.999	505.541	80.008	19.993	103.802	19.973	1.924	0.501
848.000	506.558	80.007	19.993	103.815	19.972	2.003	0.500
849.999	507.602	80.008	19.994	103.807	19.971	2.016	0.507
852.000	508.648	80.009	19.995	103.794	19.970	2.148	0.526
853.999	509.625	80.010	19.994	103.799	19.972	1.972	0.500
855.999	510.670	80.008	19.994	103.802	19.975	1.800	0.498
857.999	511.694	80.009	19.992	103.797	19.972	1.963	0.523
859.999	512.717	80.010	19.993	103.800	19.973	1.941	0.526
861.999	513.752	80.008	19.993	103.798	19.972	1.970	0.529
863.999	514.787	80.008	19.995	103.807	19.971	2.047	0.511
866.000	515.823	80.007	19.994	103.798	19.971	2.055	0.486
867.999	516.856	80.009	19.994	103.809	19.971	2.053	0.507
869.999	517.942	80.008	19.993	103.795	19.971	2.038	0.525
871.999	518.944	80.008	19.994	103.798	19.970	2.124	0.525
873.999	520.012	80.007	19.995	103.794	19.971	2.073	0.510
876.000	521.005	80.007	19.995	103.804	19.972	1.969	0.485
877.999	522.096	80.008	19.995	103.803	19.973	1.936	0.515
879.999	523.106	80.009	19.994	103.797	19.973	1.930	0.538
881.999	524.148	80.009	19.995	103.810	19.972	1.946	0.538
883.999	525.181	80.008	19.994	103.807	19.972	1.959	0.526
886.000	526.216	80.009	19.994	103.814	19.976	1.734	0.498
888.000	527.262	80.009	19.994	103.816	19.972	2.012	0.525
889.999	528.275	80.010	19.994	103.802	19.972	1.968	0.541
892.000	529.322	80.009	19.994	103.796	19.972	1.953	0.511
893.999	530.357	80.009	19.994	103.795	19.971	2.040	0.523
895.999	531.392	80.007	19.994	103.799	19.972	2.005	0.515
897.999	532.428	80.009	19.994	103.807	19.974	1.827	0.528
899.999	533.478	80.010	19.992	103.795	19.974	1.860	0.522
901.999	534.524	80.009	19.993	103.788	19.975	1.807	0.505
903.999	535.541	80.009	19.993	103.790	19.971	2.058	0.501
905.999	536.587	80.010	19.993	103.788	19.973	1.930	0.505
907.999	537.614	80.011	19.992	103.787	19.969	2.150	0.517
909.999	538.610	80.009	19.993	103.794	19.970	2.120	0.497
911.999	539.706	80.011	19.993	103.801	19.972	2.007	0.515
914.000	540.724	80.010	19.995	103.808	19.972	1.955	0.505
915.999	541.767	80.010	19.993	103.805	19.972	1.950	0.531
917.999	542.743	80.007	19.993	103.805	19.971	2.051	0.514
919.999	543.785	80.008	19.993	103.791	19.969	2.190	0.532
921.999	544.801	80.008	19.993	103.803	19.967	2.348	0.504
923.999	545.834	80.010	19.993	103.799	19.970	2.087	0.524
925.999	546.833	80.008	19.995	103.800	19.972	1.975	0.496
927.999	547.902	80.008	19.993	103.801	19.969	2.196	0.496
929.999	548.929	80.008	19.993	103.792	19.972	1.944	0.500
932.000	549.949	80.009	19.993	103.792	19.967	2.335	0.521
933.999	550.969	80.008	19.993	103.796	19.971	2.036	0.535
935.999	552.004	80.008	19.993	103.794	19.973	1.889	0.520
937.999	553.031	80.008	19.993	103.791	19.971	2.023	0.517
940.000	554.098	80.008	19.993	103.790	19.972	1.985	0.527
942.000	555.117	80.007	19.994	103.789	19.971	2.049	0.525
943.999	556.150	80.008	19.995	103.786	19.973	1.895	0.526
945.999	557.140	80.008	19.995	103.787	19.971	2.025	0.504
947.999	558.173	80.007	19.994	103.791	19.974	1.864	0.528
950.000	559.213	80.008	19.993	103.791	19.974	1.842	0.539
952.000	560.235	80.007	19.995	103.788	19.975	1.750	0.526
953.999	561.247	80.007	19.995	103.793	19.975	1.805	0.509
955.999	562.309	80.007	19.994	103.808	19.975	1.803	0.515
958.000	563.302	80.007	19.993	103.801	19.976	1.711	0.505
960.000	564.336	80.009	19.994	103.791	19.969	2.154	0.478
962.000	565.335	80.007	19.993	103.790	19.972	1.957	0.501
963.999	566.361	80.009	19.994	103.790	19.972	1.961	0.503
966.000	567.374	80.010	19.993	103.790	19.972	1.972	0.484
967.999	568.437	80.008	19.994	103.799	19.970	2.122	0.511
969.999	569.441	80.008	19.994	103.797	19.972	1.999	0.495
971.999	570.440	80.008	19.993	103.791	19.971	2.056	0.495
973.999	571.516	80.008	19.994	103.790	19.971	2.017	0.524
975.999	572.548	80.008	19.994	103.794	19.974	1.818	0.537
978.000	573.570	80.007	19.994	103.784	19.974	1.865	0.528
979.999	574.622	80.009	19.992	103.794	19.973	1.919	0.522
981.999	575.642	80.009	19.993	103.788	19.972	1.959	0.505
983.999	576.675	80.008	19.993	103.781	19.975	1.794	0.505
985.999	577.687	80.008	19.993	103.782	19.973	1.909	0.511
988.000	578.771	80.010	19.994	103.789	19.971	2.043	0.558
989.999	579.789	80.010	19.993	103.790	19.971	2.062	0.498
992.000	580.808	80.010	19.993	103.789	19.972	1.948	0.523
994.000	581.837	80.009	19.992	103.788	19.972	1.961	0.488
996.000	582.866	80.009	19.993	103.793	19.973	1.900	0.531
997.999	583.901	80.008	19.993	103.788	19.972	1.998	0.521
1000.000	584.902	80.008	19.993	103.791	19.971	2.034	0.529
1001.999	585.953	80.007	19.995	103.783	19.971	2.074	0.532
1003.999	587.010	80.008	19.993	103.786	19.970	2.095	0.521
1005.999	588.007	80.009	19.993	103.787	19.971	2.041	0.509
1007.999	589.035	80.007	19.993	103.793	19.971	2.076	0.492
1009.999	590.067	80.007	19.993	103.796	19.972	2.007	0.554
1011.999	591.103	80.008	19.994	103.785	19.970	2.100	0.493
1013.999	592.110	80.008	19.994	103.785	19.970	2.111	0.507
1015.999	593.160	80.009	19.992	103.785	19.967	2.351	0.515
1018.000	594.194	80.009	19.993	103.787	19.967	2.313	0.512
1019.999	595.217	80.008	19.993	103.792	19.968	2.262	0.520
1021.999	596.248	80.007	19.994	103.793	19.967	2.313	0.502
1023.999	597.293	80.008	19.993	103.792	19.967	2.320	0.505
1025.999	598.263	80.007	19.994	103.787	19.965	2.440	0.497
1027.999	599.270	80.007	19.993	103.792	19.970	2.100	0.462
1029.999	600.297	80.007	19.993	103.802	19.967	2.335	0.510
1031.999	601.316	80.008	19.995	103.793	19.971	2.043	0.517
1033.999	602.306	80.008	19.994	103.786	19.970	2.133	0.501
1035.999	603.388	80.008	19.994	103.785	19.971	2.014	0.544
1037.999	604.348	80.008	19.994	103.794	19.968	2.276	0.503
1039.999	605.321	80.009	19.994	103.786	19.968	2.241	0.495
1041.999	606.360	80.010	19.995	103.783	19.971	2.063	0.509
1043.999	607.351	80.010	19.994	103.779	19.972	1.990	0.497
1045.999	608.398	80.009	19.995	103.778	19.973	1.941	0.528
1047.999	609.395	80.010	19.993	103.795	19.972	1.957	0.512
1049.999	610.413	80.008	19.993	103.792	19.972	1.948	0.498
1051.999	611.378	80.009	19.994	103.783	19.972	2.001	0.483
1053.999	612.418	80.008	19.995	103.785	19.969	2.179	0.479
1056.000	613.467	80.009	19.993	103.785	19.971	2.040	0.518
1057.999	614.483	80.010	19.995	103.789	19.970	2.082	0.550
1059.999	615.487	80.009	19.995	103.784	19.969	2.151	0.500
1061.999	616.528	80.009	19.993	103.780	19.970	2.128	0.531
1063.999	617.521	80.010	19.993	103.782	19.968	2.265	0.480
1065.999	618.579	80.009	19.994	103.784	19.967	2.296	0.503
1067.999	619.564	80.010	19.993	103.785	19.968	2.245	0.485
1069.999	620.595	80.011	19.994	103.782	19.971	2.034	0.519
1072.000	621.570	80.009	19.993	103.786	19.974	1.858	0.513
1073.999	622.615	80.011	19.993	103.787	19.964	2.491	0.508
1075.999	623.651	80.009	19.993	103.785	19.972	1.966	0.444
1077.999	624.672	80.007	19.992	103.786	19.973	1.902	0.465
1079.999	625.675	80.007	19.993	103.787	19.970	2.087	0.474
1081.999	626.796	80.008	19.992	103.788	19.970	2.124	0.507
1083.999	627.660	80.008	19.993	103.786	19.971	2.080	0.427
1085.999	628.771	80.007	19.993	103.786	19.971	2.073	0.382
1088.000	629.331	80.007	19.993	103.787	19.969	2.163	0.414
1089.999	630.940	80.006	19.993	103.785	19.970	2.106	0.065
1091.999	631.963	80.007	19.992	103.787	19.967	2.289	0.642
1093.999	632.974	80.007	19.994	103.787	19.968	2.228	0.589
1095.999	633.969	80.010	19.992	103.787	19.969	2.155	0.488
1097.999	634.992	80.009	19.993	103.787	19.966	2.368	0.484
1099.999	636.067	80.009	19.994	103.791	19.968	2.227	0.498
1101.999	637.054	80.007	19.994	103.783	19.970	2.095	0.529
1103.999	638.070	80.009	19.993	103.782	19.969	2.175	0.496
1105.999	639.050	80.007	19.994	103.783	19.968	2.228	0.543
1107.999	640.046	80.009	19.993	103.791	19.970	2.113	0.492
1110.000	641.090	80.007	19.993	103.786	19.971	2.062	0.481
1111.999	642.098	80.009	19.994	103.785	19.968	2.263	0.495
1113.999	643.127	80.009	19.994	103.786	19.969	2.150	0.512
1115.999	644.089	80.010	19.993	103.784	19.969	2.199	0.508
1117.999	645.097	80.008	19.995	103.783	19.970	2.107	0.465
1119.999	646.148	80.009	19.993	103.784	19.979	1.500	0.528
1121.999	647.158	80.010	19.994	103.785	19.971	2.062	0.498
1123.999	648.103	80.009	19.993	103.787	19.971	2.032	0.454
1125.999	649.166	80.009	19.994	103.783	19.972	2.001	0.506
1127.999	650.155	80.010	19.994	103.783	19.969	2.150	0.490
1129.999	651.182	80.009	19.993	103.783	19.968	2.269	0.507
1131.999	652.202	80.009	19.994	103.782	19.963	2.584	0.551
1133.999	653.927	80.011	19.994	103.784	19.967	2.333	1.206
1136.000	654.233	80.009	19.993	103.782	19.970	2.093	0.505
1137.999	655.230	80.008	19.994	103.784	19.966	2.392	0.532
1139.999	656.442	80.009	19.993	103.782	19.969	2.172	0.741
1141.999	657.269	80.009	19.992	103.785	19.969	2.170	0.517
1143.999	658.308	80.009	19.993	103.781	19.971	2.073	0.542
1146.000	659.303	80.011	19.993	103.784	19.967	2.324	0.523
1147.999	660.315	80.010	19.993	103.784	19.969	2.214	0.524
1149.999	661.288	80.009	19.994	103.784	19.968	2.225	0.474
1152.000	662.330	80.008	19.994	103.785	19.966	2.359	0.513
1154.001	663.307	80.009	19.995	103.784	19.968	2.217	0.484
1156.000	664.293	80.007	19.994	103.783	19.971	2.030	0.475
1157.999	665.267	80.008	19.995	103.786	19.968	2.271	0.504
1159.999	666.265	80.008	19.994	103.783	19.970	2.146	0.491
1162.000	667.212	80.007	19.994	103.773	19.968	2.254	0.486
1163.999	668.186	80.006	19.994	103.781	19.965	2.434	0.503
1165.999	669.187	80.008	19.995	103.781	19.969	2.194	0.490
1167.999	670.165	80.007	19.993	103.782	19.964	2.502	0.487
1169.999	671.204	80.007	19.994	103.781	19.967	2.351	0.545
1171.999	672.126	80.008	19.993	103.783	19.965	2.445	0.463
1173.999	673.105	80.008	19.991	103.783	19.966	2.382	0.499
1175.999	674.129	80.008	19.995	103.780	19.968	2.282	0.502
1177.999	675.120	80.007	19.994	103.783	19.961	2.753	0.516
1179.999	676.147	80.010	19.992	103.781	19.964	2.559	0.497
1181.999	677.107	80.008	19.993	103.780	19.965	2.434	0.526
1183.999	678.151	80.009	19.994	103.779	19.965	2.441	0.516
1185.999	679.142	80.007	19.994	103.781	19.962	2.689	0.486
1187.999	680.135	80.008	19.993	103.782	19.964	2.491	0.478
1189.999	681.123	80.006	19.994	103.783	19.964	2.520	0.494
1191.999	682.137	80.008	19.994	103.782	19.966	2.386	0.496
1193.999	683.144	80.007	19.995	103.784	19.961	2.733	0.482
1195.999	684.161	80.009	19.994	103.784	19.964	2.529	0.519
1198.000	685.157	80.009	19.993	103.783	19.964	2.518	0.484
1199.999	686.102	80.009	19.992	103.782	19.966	2.421	0.501
1201.999	687.165	80.010	19.993	103.779	19.964	2.555	0.314
1203.999	688.205	80.010	19.993	103.782	19.967	2.304	0.552
1205.999	689.182	80.009	19.993	103.783	19.967	2.315	0.517
1207.999	690.204	80.011	19.992	103.785	19.964	2.496	0.512
1209.999	691.196	80.011	19.993	103.785	19.964	2.522	0.497
1211.999	692.188	80.009	19.993	103.783	19.961	2.742	0.503
1213.999	693.242	80.009	19.994	103.777	19.966	2.355	0.518
1215.999	694.240	80.009	19.992	103.782	19.963	2.568	0.504
1217.999	695.335	80.008	19.994	103.783	19.967	2.315	0.560
1219.999	696.282	80.008	19.994	103.785	19.961	2.757	0.480
1221.999	697.307	80.010	19.993	103.782	19.964	2.491	0.492
1224.000	698.322	80.009	19.993	103.782	19.962	2.669	0.509
1225.999	699.326	80.011	19.996	103.781	19.963	2.601	0.485
1227.999	700.403	80.009	19.993	103.783	19.966	2.377	0.562
1229.999	701.405	80.010	19.993	103.781	19.966	2.401	0.517
1231.999	702.428	80.010	19.994	103.780	19.963	2.625	0.521
1233.999	703.455	80.009	19.993	103.781	19.963	2.568	0.501
1235.999	704.504	80.008	19.994	103.780	19.963	2.603	0.540
1237.999	705.492	80.007	19.995	103.780	19.965	2.487	0.473
1239.999	706.541	80.008	19.994	103.780	19.963	2.606	0.518
1242.000	707.545	80.007	19.993	103.780	19.963	2.571	0.503
1243.999	708.551	80.007	19.994	103.780	19.964	2.544	0.520
1245.999	709.547	80.007	19.995	103.781	19.961	2.698	0.498
1247.999	710.578	80.008	19.995	103.780	19.964	2.529	0.500
1249.999	711.548	80.009	19.995	103.778	19.967	2.346	0.503
1251.999	712.523	80.010	19.996	103.768	19.961	2.705	0.451
1253.999	713.538	80.008	19.994	103.772	19.960	2.784	0.483
1255.999	714.523	80.009	19.993	103.780	19.962	2.656	0.479
1257.999	715.533	80.009	19.992	103.781	19.964	2.509	0.477
1259.999	716.595	80.008	19.993	103.781	19.963	2.604	0.519
1261.999	717.645	80.009	19.994	103.783	19.962	2.650	0.511
1263.999	718.642	80.008	19.993	103.785	19.964	2.494	0.493
1265.999	719.625	80.008	19.992	103.784	19.961	2.760	0.488
1267.999	720.626	80.007	19.992	103.782	19.961	2.737	0.487
1270.000	721.614	80.008	19.993	103.779	19.962	2.694	0.484
1272.000	722.593	80.008	19.995	103.785	19.960	2.815	0.499
1274.000	723.686	80.007	19.993	103.784	19.960	2.773	0.513
1276.000	724.633	80.008	19.993	103.783	19.962	2.658	0.496
1277.999	725.689	80.008	19.993	103.786	19.962	2.693	0.502
1279.999	726.697	80.009	19.994	103.785	19.961	2.703	0.525
1282.000	727.725	80.009	19.994	103.780	19.963	2.623	0.511
1283.999	728.719	80.009	19.993	103.780	19.964	2.518	0.502
1285.999	729.748	80.009	19.993	103.780	19.962	2.644	0.498
1287.999	730.721	80.009	19.992	103.786	19.962	2.641	0.497
1289.999	731.752	80.009	19.993	103.783	19.967	2.318	0.494
1291.999	732.773	80.009	19.992	103.775	19.964	2.547	0.515
1293.999	733.776	80.009	19.993	103.776	19.966	2.399	0.520
1295.999	734.812	80.009	19.994	103.775	19.964	2.555	0.503
1298.000	735.751	80.010	19.993	103.763	19.962	2.646	0.480
1299.999	736.803	80.009	19.993	103.774	19.961	2.707	0.510
1301.999	737.832	80.010	19.993	103.773	19.965	2.467	0.522
1303.999	738.822	80.010	19.993	103.771	19.965	2.478	0.519
1305.999	739.848	80.011	19.992	103.773	19.964	2.522	0.497
1307.999	740.843	80.010	19.994	103.773	19.965	2.483	0.483
1309.999	741.839	80.010	19.994	103.780	19.963	2.566	0.509
1311.999	742.828	80.010	19.993	103.781	19.963	2.564	0.487
1313.999	743.833	80.009	19.994	103.775	19.962	2.643	0.492
1315.999	744.849	80.008	19.994	103.779	19.963	2.601	0.495
1316.999	745.358	80.009	19.994	103.780	19.961	2.696	0.514