File: 01_Data/Pine_Lap_Siding_Wood/MCC/PineLap_SidingB_MCC_30K_min_211122_R1.txt
Sample ID:	C:\MCC\MCC Cal\Test\PineLap_SidingB_MCC_30K_min_211122_R1.txt
Sample Weight (mg):	4.9
Heating Rate (C/s):	0.5
Combustor Temp (C):	900
N2 Flow Rate (cc/min):	80
O2 Flow Rate (cc/min):	20
Calibration File:	C:\MCC\MCC Cal\Coeff1 JN10440_30_210304.txt.txt
T Correction Coefficients:	0	1.024463	0
Time Shift (s):	14
*
Time (s)	Temperature (C)	N2 flow rate (cc/min)	O2 flow rate (cc/min)	Flow Rate (cc/min)	Oxygen (%)	HRR (W/g)	Heating rate (C/s)
0.000	109.070	80.005	19.992	103.130	20.008	0.202	-0.010
2.000	109.090	80.006	19.995	103.132	20.010	0.023	-0.023
4.000	109.108	80.006	19.992	103.135	20.011	-0.004	-0.009
6.000	109.132	80.007	19.994	103.133	20.002	0.604	0.044
8.000	109.088	80.007	19.996	103.132	20.006	0.285	0.004
10.000	109.102	80.006	19.994	103.134	20.007	0.235	0.005
12.000	109.077	80.007	19.994	103.131	20.003	0.488	-0.020
14.000	109.110	80.007	19.995	103.141	20.001	0.653	0.015
16.000	109.065	80.007	19.996	103.116	19.999	0.771	-0.020
18.000	109.051	80.009	19.995	103.205	19.996	0.968	-0.025
20.000	109.084	80.008	19.994	103.257	19.995	1.065	0.019
22.000	109.164	80.006	19.995	103.215	19.988	1.512	0.010
24.000	109.279	80.006	19.995	103.216	19.989	1.410	0.040
26.000	109.332	80.007	19.994	103.210	19.992	1.243	0.057
28.000	109.452	80.008	19.993	103.216	19.988	1.471	0.025
30.000	109.542	80.006	19.994	103.219	19.989	1.400	0.043
32.000	109.651	80.007	19.993	103.217	19.987	1.558	0.070
33.999	109.837	80.006	19.994	103.229	19.986	1.638	0.094
36.000	109.970	80.009	19.993	103.254	19.985	1.685	0.075
38.000	110.146	80.007	19.994	103.258	19.978	2.139	0.091
39.999	110.352	80.008	19.994	103.288	19.983	1.847	0.113
42.000	110.544	80.009	19.993	103.315	19.974	2.388	0.108
43.999	110.852	80.007	19.994	103.333	19.970	2.701	0.118
45.999	111.134	80.006	19.994	103.366	19.969	2.766	0.155
47.999	111.495	80.006	19.994	103.373	19.965	3.030	0.203
49.999	111.838	80.007	19.995	103.308	19.962	3.195	0.178
52.000	112.244	80.007	19.995	103.357	19.965	3.016	0.190
53.999	112.696	80.006	19.996	103.424	19.960	3.331	0.232
55.999	113.151	80.004	19.995	103.360	19.959	3.406	0.270
58.000	113.602	80.005	19.995	103.364	19.954	3.760	0.245
59.999	114.141	80.005	19.994	103.373	19.955	3.694	0.257
61.999	114.677	80.006	19.995	103.391	19.953	3.788	0.277
63.999	115.238	80.006	19.995	103.407	19.955	3.641	0.283
65.999	115.838	80.004	19.995	103.411	19.955	3.640	0.298
67.999	116.449	80.006	19.996	103.407	19.957	3.516	0.308
69.999	117.031	80.005	19.996	103.372	19.956	3.579	0.271
71.999	117.744	80.005	19.995	103.375	19.958	3.460	0.356
73.999	118.390	80.004	19.995	103.399	19.955	3.686	0.335
75.999	119.144	80.007	19.995	103.389	19.954	3.713	0.371
78.000	119.826	80.005	19.995	103.413	19.955	3.699	0.344
79.999	120.583	80.006	19.995	103.408	19.953	3.784	0.358
82.000	121.356	80.004	19.996	103.400	19.954	3.753	0.415
84.000	122.164	80.007	19.996	103.397	19.954	3.742	0.442
85.999	122.953	80.007	19.995	103.398	19.947	4.172	0.433
88.000	123.797	80.005	19.995	103.397	19.952	3.893	0.414
89.999	124.598	80.006	19.995	103.406	19.952	3.842	0.413
92.000	125.430	80.006	19.995	103.411	19.953	3.771	0.433
93.999	126.316	80.007	19.995	103.412	19.951	3.945	0.439
96.000	127.182	80.006	19.994	103.412	19.949	4.055	0.393
97.999	128.047	80.008	19.994	103.410	19.945	4.316	0.455
99.999	128.896	80.006	19.994	103.399	19.949	4.035	0.440
101.999	129.820	80.007	19.994	103.398	19.948	4.123	0.446
104.001	130.717	80.006	19.994	103.393	19.948	4.157	0.478
105.999	131.670	80.005	19.993	103.405	19.947	4.177	0.471
107.999	132.609	80.007	19.995	103.407	19.949	4.062	0.459
109.999	133.485	80.007	19.994	103.416	19.948	4.152	0.433
112.000	134.481	80.006	19.993	103.411	19.946	4.253	0.466
113.999	135.426	80.005	19.994	103.412	19.951	3.921	0.469
116.000	136.396	80.008	19.993	103.412	19.950	3.984	0.478
118.000	137.377	80.008	19.994	103.404	19.949	4.038	0.475
120.001	138.348	80.009	19.994	103.405	19.951	3.925	0.465
121.999	139.382	80.010	19.993	103.399	19.952	3.869	0.502
123.999	140.398	80.009	19.992	103.382	19.951	3.907	0.514
125.999	141.344	80.009	19.993	103.383	19.950	3.970	0.489
127.999	142.390	80.008	19.994	103.390	19.953	3.833	0.532
130.000	143.341	80.007	19.993	103.386	19.955	3.687	0.508
132.000	144.393	80.006	19.993	103.386	19.957	3.538	0.524
134.000	145.419	80.007	19.994	103.378	19.954	3.737	0.503
136.000	146.419	80.006	19.994	103.398	19.951	3.908	0.500
138.000	147.425	80.007	19.995	103.390	19.953	3.779	0.486
140.000	148.473	80.007	19.995	103.372	19.955	3.673	0.501
142.000	149.524	80.005	19.995	103.368	19.953	3.820	0.523
144.000	150.488	80.005	19.995	103.373	19.955	3.642	0.506
146.000	151.552	80.007	19.996	103.369	19.953	3.816	0.510
148.000	152.555	80.006	19.997	103.370	19.959	3.416	0.483
150.000	153.564	80.005	19.995	103.372	19.954	3.761	0.509
152.000	154.533	80.006	19.994	103.360	19.958	3.493	0.472
154.000	155.541	80.006	19.995	103.367	19.950	3.994	0.501
156.000	156.548	80.006	19.995	103.372	19.955	3.702	0.492
158.000	157.612	80.006	19.994	103.371	19.960	3.357	0.545
160.000	158.573	80.006	19.995	103.369	19.953	3.784	0.482
162.000	159.599	80.006	19.995	103.366	19.957	3.568	0.488
164.000	160.625	80.007	19.995	103.372	19.956	3.579	0.478
166.000	161.639	80.005	19.996	103.383	19.954	3.728	0.519
168.000	162.671	80.005	19.995	103.381	19.956	3.595	0.527
170.000	163.731	80.005	19.995	103.373	19.957	3.539	0.550
172.000	164.768	80.006	19.996	103.367	19.951	3.920	0.551
174.000	165.759	80.005	19.995	103.360	19.954	3.758	0.513
176.000	166.797	80.005	19.995	103.371	19.957	3.529	0.514
178.000	167.796	80.006	19.995	103.370	19.956	3.614	0.503
180.000	168.841	80.007	19.995	103.356	19.956	3.605	0.531
182.000	169.877	80.007	19.995	103.364	19.961	3.262	0.550
184.000	170.850	80.006	19.994	103.347	19.955	3.700	0.517
186.000	171.840	80.008	19.994	103.362	19.958	3.476	0.492
188.000	172.882	80.006	19.993	103.341	19.955	3.682	0.507
190.000	173.891	80.007	19.994	103.336	19.957	3.517	0.521
192.000	174.885	80.007	19.994	103.343	19.954	3.725	0.471
194.000	175.909	80.006	19.994	103.334	19.956	3.583	0.513
196.000	176.942	80.007	19.996	103.334	19.955	3.698	0.531
198.000	177.951	80.006	19.993	103.335	19.957	3.519	0.501
200.000	178.967	80.008	19.995	103.330	19.958	3.501	0.511
202.000	179.912	80.008	19.994	103.333	19.956	3.621	0.502
204.000	180.938	80.007	19.994	103.330	19.955	3.653	0.500
206.000	181.952	80.007	19.994	103.329	19.957	3.567	0.514
208.000	182.940	80.008	19.995	103.333	19.957	3.515	0.480
210.000	183.906	80.007	19.993	103.331	19.956	3.614	0.481
212.000	184.945	80.008	19.994	103.331	19.956	3.601	0.511
214.000	185.958	80.006	19.994	103.333	19.962	3.224	0.510
216.000	186.959	80.007	19.995	103.331	19.961	3.284	0.519
218.000	187.942	80.008	19.993	103.332	19.960	3.336	0.523
220.000	188.932	80.005	19.994	103.333	19.957	3.555	0.488
222.000	189.943	80.007	19.994	103.332	19.956	3.625	0.513
224.000	190.901	80.006	19.994	103.333	19.959	3.400	0.502
226.000	191.951	80.006	19.993	103.332	19.960	3.345	0.501
228.000	192.887	80.006	19.994	103.331	19.959	3.420	0.500
230.000	193.920	80.008	19.995	103.333	19.956	3.623	0.477
232.000	194.882	80.007	19.994	103.340	19.957	3.567	0.455
234.000	195.871	80.006	19.995	103.328	19.957	3.535	0.474
236.000	196.805	80.006	19.996	103.326	19.956	3.630	0.469
238.000	197.798	80.006	19.995	103.331	19.955	3.644	0.480
240.000	198.817	80.007	19.995	103.329	19.956	3.598	0.496
242.000	199.781	80.007	19.995	103.334	19.957	3.533	0.497
244.000	200.732	80.006	19.994	103.339	19.959	3.432	0.480
246.000	201.758	80.005	19.995	103.332	19.956	3.610	0.501
248.000	202.729	80.007	19.995	103.321	19.960	3.369	0.484
250.000	203.711	80.005	19.994	103.330	19.953	3.794	0.488
252.000	204.658	80.006	19.994	103.330	19.953	3.823	0.480
254.000	205.600	80.006	19.994	103.317	19.956	3.599	0.488
256.000	206.672	80.007	19.995	103.310	19.959	3.434	0.508
258.000	207.665	80.007	19.994	103.321	19.956	3.635	0.507
260.000	208.629	80.006	19.994	103.315	19.954	3.711	0.489
262.000	209.594	80.008	19.995	103.302	19.952	3.834	0.491
264.000	210.540	80.007	19.995	103.317	19.956	3.629	0.457
266.000	211.540	80.008	19.994	103.309	19.954	3.721	0.499
268.000	212.493	80.007	19.997	103.319	19.955	3.698	0.484
270.000	213.458	80.008	19.995	103.326	19.952	3.897	0.470
272.000	214.420	80.007	19.994	103.326	19.954	3.730	0.483
274.000	215.368	80.006	19.995	103.317	19.950	4.003	0.457
276.000	216.329	80.007	19.996	103.316	19.950	4.024	0.487
278.000	217.280	80.009	19.995	103.323	19.949	4.034	0.500
280.000	218.229	80.007	19.994	103.325	19.950	4.005	0.493
282.000	219.172	80.008	19.994	103.331	19.948	4.118	0.477
284.000	220.119	80.010	19.994	103.323	19.949	4.049	0.484
286.000	221.077	80.010	19.994	103.314	19.946	4.246	0.492
288.000	221.974	80.010	19.994	103.326	19.943	4.486	0.459
290.000	222.903	80.009	19.994	103.318	19.947	4.208	0.456
292.000	223.881	80.009	19.994	103.328	19.945	4.324	0.501
294.000	224.852	80.008	19.994	103.318	19.945	4.332	0.505
296.000	225.804	80.008	19.994	103.298	19.946	4.289	0.464
298.000	226.770	80.007	19.995	103.310	19.942	4.535	0.506
300.000	227.696	80.007	19.994	103.323	19.939	4.736	0.452
302.000	228.696	80.006	19.994	103.327	19.941	4.598	0.522
304.000	229.636	80.006	19.994	103.325	19.941	4.587	0.451
306.000	230.572	80.007	19.996	103.332	19.939	4.754	0.473
308.000	231.576	80.006	19.994	103.333	19.937	4.870	0.467
310.000	232.496	80.008	19.995	103.335	19.932	5.152	0.443
312.000	233.465	80.007	19.994	103.336	19.930	5.287	0.498
314.000	234.432	80.007	19.994	103.331	19.930	5.303	0.483
316.000	235.417	80.009	19.994	103.327	19.926	5.606	0.527
318.000	236.344	80.008	19.994	103.331	19.929	5.411	0.472
320.000	237.286	80.008	19.995	103.330	19.918	6.075	0.479
322.000	238.200	80.008	19.994	103.330	19.919	6.027	0.489
324.000	239.210	80.007	19.994	103.329	19.918	6.125	0.483
326.000	240.136	80.006	19.994	103.330	19.916	6.265	0.472
328.000	241.120	80.006	19.994	103.324	19.915	6.280	0.510
330.000	242.066	80.006	19.996	103.327	19.909	6.720	0.482
332.000	243.064	80.006	19.995	103.330	19.907	6.811	0.495
334.000	244.005	80.007	19.995	103.330	19.905	6.930	0.513
336.000	244.975	80.007	19.995	103.330	19.905	6.976	0.476
338.000	245.940	80.008	19.995	103.331	19.903	7.079	0.477
340.000	246.950	80.007	19.995	103.339	19.896	7.551	0.507
342.000	247.923	80.008	19.994	103.336	19.892	7.802	0.506
344.000	248.945	80.007	19.994	103.331	19.891	7.872	0.516
346.000	249.980	80.008	19.994	103.330	19.895	7.633	0.543
348.000	250.965	80.008	19.994	103.331	19.886	8.215	0.487
350.000	251.977	80.008	19.995	103.332	19.881	8.553	0.472
352.000	252.943	80.006	19.995	103.331	19.881	8.565	0.514
354.000	253.922	80.006	19.995	103.334	19.871	9.198	0.466
356.000	254.901	80.006	19.994	103.332	19.876	8.885	0.491
358.000	255.875	80.006	19.994	103.332	19.873	9.093	0.454
360.000	256.884	80.006	19.995	103.333	19.864	9.665	0.500
362.000	257.848	80.006	19.994	103.339	19.863	9.754	0.456
364.000	258.848	80.004	19.994	103.348	19.853	10.379	0.499
366.000	259.849	80.008	19.995	103.339	19.855	10.276	0.490
368.000	260.833	80.007	19.994	103.332	19.844	10.969	0.493
370.000	261.788	80.008	19.995	103.337	19.842	11.099	0.471
372.000	262.778	80.008	19.996	103.344	19.846	10.862	0.496
374.000	263.753	80.008	19.994	103.338	19.837	11.426	0.504
376.000	264.702	80.009	19.994	103.342	19.837	11.403	0.499
378.000	265.691	80.007	19.994	103.354	19.830	11.867	0.480
380.000	266.698	80.006	19.995	103.358	19.825	12.202	0.491
382.000	267.705	80.006	19.993	103.350	19.824	12.280	0.503
384.000	268.730	80.005	19.993	103.360	19.812	13.072	0.500
386.000	269.706	80.005	19.994	103.359	19.811	13.138	0.520
388.000	270.738	80.005	19.993	103.365	19.805	13.553	0.523
390.000	271.757	80.006	19.994	103.368	19.803	13.647	0.542
392.000	272.749	80.006	19.995	103.367	19.798	14.008	0.507
394.000	273.725	80.005	19.994	103.368	19.794	14.260	0.519
396.000	274.727	80.008	19.995	103.362	19.781	15.103	0.498
398.000	275.745	80.005	19.994	103.367	19.779	15.240	0.517
400.000	276.759	80.007	19.995	103.365	19.775	15.542	0.468
402.000	277.764	80.007	19.994	103.368	19.769	15.887	0.468
404.000	278.771	80.007	19.995	103.368	19.758	16.631	0.486
406.000	279.737	80.007	19.995	103.378	19.754	16.882	0.421
408.000	280.936	80.008	19.994	103.374	19.744	17.560	0.724
410.000	281.596	80.008	19.994	103.370	19.737	17.991	0.383
412.000	282.751	80.006	19.995	103.370	19.733	18.293	0.716
414.000	283.810	80.007	19.993	103.373	19.726	18.761	0.521
416.000	284.730	80.006	19.994	103.375	19.726	18.748	0.540
418.000	285.730	80.006	19.994	103.379	19.711	19.710	0.461
420.000	286.743	80.006	19.994	103.375	19.708	19.905	0.519
422.000	287.708	80.006	19.995	103.387	19.705	20.138	0.465
424.000	288.698	80.005	19.993	103.388	19.696	20.725	0.458
426.000	289.681	80.008	19.994	103.378	19.690	21.116	0.505
428.000	290.691	80.006	19.994	103.387	19.681	21.684	0.511
430.000	291.724	80.008	19.995	103.398	19.669	22.471	0.495
432.000	292.677	80.007	19.994	103.384	19.662	22.978	0.506
434.000	293.636	80.007	19.994	103.391	19.655	23.433	0.472
436.000	294.587	80.007	19.995	103.395	19.644	24.155	0.477
438.000	295.575	80.008	19.994	103.398	19.638	24.525	0.479
440.000	296.545	80.008	19.994	103.407	19.632	24.966	0.471
442.000	297.530	80.007	19.994	103.412	19.625	25.425	0.485
444.000	298.487	80.008	19.993	103.412	19.609	26.453	0.471
446.000	299.448	80.007	19.994	103.409	19.615	26.098	0.462
448.000	300.426	80.007	19.994	103.428	19.597	27.261	0.459
450.000	301.392	80.009	19.995	103.429	19.591	27.617	0.510
452.000	302.400	80.009	19.995	103.436	19.584	28.084	0.473
454.000	303.397	80.010	19.994	103.443	19.568	29.157	0.487
456.000	304.391	80.008	19.995	103.442	19.559	29.736	0.494
458.000	305.311	80.007	19.994	103.437	19.549	30.438	0.492
460.000	306.336	80.008	19.996	103.440	19.546	30.646	0.493
462.000	307.291	80.007	19.995	103.449	19.526	31.913	0.465
464.000	308.299	80.006	19.996	103.445	19.519	32.388	0.496
466.000	309.319	80.007	19.994	103.453	19.505	33.322	0.507
468.000	310.333	80.007	19.995	103.479	19.500	33.629	0.520
470.000	311.302	80.005	19.994	103.476	19.485	34.666	0.467
472.000	312.388	80.007	19.994	103.456	19.473	35.413	0.486
474.000	313.425	80.006	19.995	103.458	19.463	36.121	0.468
476.000	314.450	80.007	19.993	103.477	19.448	37.084	0.531
478.000	315.427	80.006	19.993	103.478	19.430	38.257	0.538
480.000	316.469	80.006	19.993	103.487	19.426	38.555	0.519
482.000	317.506	80.006	19.995	103.495	19.411	39.543	0.520
484.000	318.527	80.005	19.993	103.505	19.396	40.542	0.521
486.000	319.532	80.006	19.994	103.493	19.385	41.234	0.495
488.000	320.529	80.007	19.994	103.494	19.373	42.037	0.492
490.000	321.555	80.006	19.994	103.509	19.366	42.523	0.556
492.000	322.587	80.005	19.994	103.520	19.345	43.909	0.484
494.000	323.647	80.007	19.995	103.525	19.336	44.461	0.539
496.000	324.637	80.005	19.994	103.523	19.324	45.282	0.496
498.000	325.653	80.005	19.994	103.529	19.309	46.230	0.507
500.000	326.731	80.005	19.994	103.529	19.298	46.955	0.526
502.000	327.753	80.007	19.994	103.530	19.292	47.387	0.521
504.000	328.812	80.007	19.994	103.525	19.277	48.376	0.547
506.000	329.803	80.008	19.993	103.520	19.266	49.109	0.536
508.000	330.861	80.007	19.993	103.527	19.260	49.471	0.500
510.000	331.872	80.008	19.993	103.529	19.247	50.323	0.514
512.000	332.915	80.009	19.994	103.528	19.234	51.219	0.512
514.000	333.973	80.007	19.993	103.533	19.228	51.627	0.525
516.000	334.980	80.006	19.995	103.539	19.218	52.293	0.524
518.000	336.004	80.008	19.994	103.540	19.206	53.079	0.505
520.000	337.034	80.008	19.994	103.532	19.200	53.451	0.505
522.000	338.068	80.006	19.994	103.534	19.195	53.765	0.520
524.000	339.086	80.007	19.995	103.527	19.178	54.944	0.504
526.000	340.126	80.007	19.994	103.530	19.172	55.273	0.499
528.000	341.181	80.007	19.994	103.544	19.166	55.714	0.529
530.000	342.207	80.007	19.994	103.541	19.159	56.153	0.507
532.000	343.198	80.009	19.994	103.558	19.150	56.757	0.499
534.000	344.181	80.011	19.995	103.559	19.140	57.401	0.481
536.000	345.201	80.008	19.995	103.556	19.130	58.096	0.517
538.000	346.226	80.008	19.994	103.554	19.126	58.370	0.495
540.000	347.251	80.007	19.994	103.561	19.112	59.298	0.507
542.000	348.276	80.008	19.995	103.561	19.103	59.913	0.501
544.000	349.268	80.007	19.993	103.565	19.085	61.046	0.502
546.000	350.314	80.006	19.997	103.566	19.074	61.807	0.480
548.000	351.379	80.005	19.995	103.567	19.064	62.481	0.553
550.000	352.364	80.006	19.995	103.571	19.051	63.350	0.500
552.000	353.429	80.005	19.996	103.600	19.038	64.169	0.526
554.000	354.423	80.006	19.996	103.609	19.026	64.996	0.476
556.000	355.426	80.006	19.996	103.608	19.000	66.706	0.530
558.000	356.387	80.005	19.993	103.611	18.983	67.834	0.467
560.000	357.419	80.005	19.995	103.609	18.966	68.940	0.524
562.000	358.439	80.005	19.994	103.620	18.953	69.836	0.490
564.000	359.429	80.007	19.995	103.622	18.938	70.811	0.493
566.000	360.410	80.007	19.994	103.626	18.915	72.300	0.510
568.000	361.453	80.006	19.994	103.645	18.900	73.317	0.480
570.000	362.406	80.006	19.994	103.641	18.885	74.319	0.487
572.000	363.424	80.007	19.994	103.642	18.868	75.429	0.496
574.000	364.425	80.008	19.993	103.646	18.853	76.409	0.495
576.000	365.448	80.006	19.993	103.647	18.838	77.396	0.507
578.000	366.402	80.007	19.995	103.663	18.828	78.071	0.485
580.000	367.415	80.004	19.995	103.648	18.815	78.892	0.495
582.000	368.403	80.007	19.996	103.672	18.808	79.365	0.522
584.000	369.444	80.005	19.995	103.650	18.802	79.732	0.464
586.000	370.374	80.007	19.994	103.638	18.795	80.221	0.496
588.000	371.425	80.007	19.995	103.640	18.792	80.397	0.502
590.000	372.399	80.009	19.994	103.638	18.793	80.305	0.480
592.000	373.383	80.008	19.995	103.618	18.796	80.052	0.479
594.000	374.395	80.008	19.995	103.603	18.808	79.287	0.494
596.000	375.442	80.008	19.994	103.600	18.822	78.357	0.493
598.000	376.455	80.009	19.994	103.598	18.840	77.146	0.536
600.000	377.405	80.009	19.995	103.571	18.861	75.781	0.488
602.000	378.413	80.008	19.993	103.554	18.883	74.331	0.551
604.000	379.440	80.007	19.993	103.527	18.916	72.102	0.549
606.000	380.450	80.008	19.993	103.530	18.949	69.935	0.497
608.000	381.461	80.007	19.993	103.504	18.990	67.179	0.537
610.000	382.462	80.008	19.994	103.493	19.027	64.733	0.516
612.000	383.481	80.007	19.995	103.489	19.072	61.807	0.484
614.000	384.501	80.009	19.994	103.478	19.122	58.490	0.516
616.000	385.486	80.009	19.994	103.453	19.170	55.323	0.503
618.000	386.526	80.009	19.994	103.407	19.220	52.032	0.514
620.000	387.538	80.009	19.994	103.393	19.269	48.779	0.522
622.000	388.527	80.010	19.994	103.369	19.324	45.152	0.526
624.000	389.536	80.009	19.995	103.366	19.372	42.039	0.520
626.000	390.571	80.007	19.994	103.368	19.418	38.978	0.515
628.000	391.609	80.005	19.994	103.339	19.468	35.719	0.512
630.000	392.637	80.006	19.993	103.311	19.516	32.508	0.505
632.000	393.671	80.005	19.995	103.300	19.562	29.523	0.528
634.000	394.735	80.006	19.994	103.306	19.599	27.109	0.535
636.000	395.736	80.007	19.995	103.295	19.642	24.231	0.515
638.000	396.763	80.004	19.994	103.294	19.673	22.229	0.521
640.000	397.780	80.006	19.994	103.290	19.703	20.249	0.546
642.000	398.824	80.008	19.995	103.284	19.724	18.836	0.534
644.000	399.863	80.008	19.995	103.277	19.748	17.270	0.507
646.000	400.955	80.006	19.996	103.278	19.766	16.062	0.538
648.000	401.922	80.006	19.995	103.286	19.781	15.096	0.518
650.000	402.953	80.006	19.996	103.281	19.799	13.953	0.498
652.000	403.956	80.005	19.994	103.283	19.812	13.051	0.506
654.000	404.956	80.007	19.995	103.281	19.822	12.407	0.490
656.000	405.939	80.007	19.994	103.273	19.825	12.201	0.509
658.000	407.022	80.007	19.995	103.268	19.829	11.971	0.504
660.000	408.012	80.006	19.995	103.273	19.838	11.381	0.495
662.000	409.021	80.006	19.993	103.262	19.840	11.199	0.507
664.000	410.042	80.004	19.993	103.257	19.845	10.889	0.472
666.000	411.094	80.006	19.995	103.282	19.844	10.942	0.540
668.000	412.126	80.007	19.994	103.269	19.852	10.450	0.518
670.000	413.111	80.006	19.995	103.271	19.852	10.459	0.473
672.000	414.049	80.007	19.994	103.268	19.853	10.375	0.470
674.000	415.105	80.009	19.995	103.269	19.855	10.241	0.520
676.000	416.045	80.008	19.993	103.281	19.862	9.802	0.467
678.000	417.095	80.008	19.994	103.274	19.863	9.748	0.511
680.000	418.116	80.008	19.994	103.254	19.855	10.234	0.526
682.000	419.104	80.007	19.994	103.263	19.866	9.536	0.512
684.000	420.138	80.008	19.994	103.259	19.861	9.854	0.529
686.000	421.141	80.007	19.994	103.270	19.868	9.372	0.497
688.000	422.159	80.008	19.994	103.274	19.867	9.480	0.516
690.000	423.175	80.007	19.993	103.265	19.870	9.246	0.520
692.000	424.168	80.006	19.994	103.287	19.871	9.216	0.500
694.000	425.147	80.007	19.995	103.287	19.873	9.053	0.483
696.000	426.169	80.009	19.994	103.282	19.876	8.832	0.512
698.000	427.191	80.008	19.993	103.274	19.875	8.935	0.525
700.000	428.179	80.009	19.993	103.259	19.875	8.955	0.527
702.000	429.152	80.009	19.993	103.261	19.876	8.849	0.464
704.000	430.146	80.009	19.994	103.260	19.878	8.738	0.515
706.000	431.181	80.010	19.995	103.256	19.879	8.689	0.515
708.000	432.179	80.010	19.994	103.262	19.882	8.471	0.504
710.000	433.118	80.007	19.994	103.257	19.880	8.601	0.490
712.000	434.185	80.005	19.995	103.250	19.882	8.440	0.522
714.000	435.160	80.007	19.995	103.250	19.883	8.413	0.487
716.000	436.175	80.006	19.995	103.254	19.881	8.539	0.515
718.000	437.161	80.006	19.996	103.262	19.883	8.421	0.487
720.000	438.184	80.006	19.995	103.256	19.886	8.235	0.503
722.000	439.153	80.007	19.996	103.268	19.878	8.716	0.498
724.000	440.137	80.004	19.994	103.269	19.889	8.016	0.500
726.000	441.122	80.007	19.995	103.269	19.891	7.888	0.468
728.000	442.123	80.007	19.995	103.262	19.892	7.805	0.506
730.000	443.138	80.007	19.994	103.258	19.891	7.882	0.516
732.000	444.077	80.006	19.994	103.268	19.888	8.085	0.497
734.000	445.096	80.007	19.994	103.262	19.892	7.798	0.527
736.000	446.112	80.006	19.994	103.277	19.890	7.936	0.481
738.000	447.110	80.006	19.994	103.280	19.894	7.709	0.499
740.000	448.123	80.006	19.994	103.258	19.895	7.608	0.498
742.000	449.187	80.006	19.995	103.251	19.897	7.461	0.510
744.000	450.168	80.003	19.995	103.254	19.897	7.479	0.509
746.000	451.186	80.005	19.995	103.256	19.898	7.415	0.491
748.000	452.199	80.004	19.995	103.260	19.902	7.122	0.518
750.000	453.239	80.006	19.995	103.258	19.898	7.394	0.494
752.000	454.309	80.004	19.995	103.256	19.902	7.127	0.557
754.000	455.353	80.007	19.995	103.254	19.907	6.835	0.532
756.000	456.363	80.007	19.993	103.264	19.908	6.770	0.536
758.000	457.392	80.008	19.994	103.268	19.910	6.618	0.510
760.000	458.442	80.008	19.995	103.283	19.910	6.625	0.523
762.000	459.475	80.007	19.994	103.259	19.913	6.408	0.529
764.000	460.483	80.007	19.993	103.257	19.912	6.514	0.481
766.000	461.525	80.008	19.994	103.256	19.915	6.298	0.544
768.000	462.559	80.005	19.993	103.255	19.915	6.323	0.536
770.000	463.553	80.007	19.994	103.252	19.911	6.569	0.516
772.000	464.585	80.007	19.994	103.253	19.916	6.246	0.497
774.000	465.556	80.008	19.994	103.252	19.922	5.835	0.497
776.000	466.580	80.006	19.995	103.252	19.919	6.026	0.506
778.000	467.630	80.009	19.994	103.250	19.922	5.848	0.521
780.000	468.577	80.007	19.995	103.255	19.921	5.886	0.479
782.000	469.590	80.009	19.995	103.256	19.926	5.591	0.498
784.000	470.583	80.007	19.993	103.246	19.926	5.563	0.469
786.000	471.601	80.009	19.994	103.248	19.927	5.496	0.498
788.000	472.609	80.009	19.994	103.249	19.926	5.568	0.503
790.000	473.622	80.008	19.994	103.250	19.932	5.159	0.499
792.000	474.644	80.009	19.994	103.249	19.929	5.376	0.492
794.000	475.637	80.007	19.995	103.249	19.928	5.462	0.515
796.000	476.613	80.006	19.994	103.248	19.926	5.593	0.473
798.000	477.662	80.007	19.994	103.251	19.928	5.473	0.521
800.000	478.719	80.007	19.994	103.245	19.928	5.442	0.525
802.000	479.691	80.006	19.994	103.248	19.927	5.531	0.513
804.000	480.724	80.007	19.994	103.250	19.929	5.383	0.522
806.000	481.729	80.005	19.995	103.264	19.932	5.179	0.501
808.000	482.750	80.005	19.995	103.273	19.935	4.958	0.514
810.000	483.749	80.005	19.995	103.276	19.937	4.833	0.495
812.000	484.781	80.006	19.995	103.259	19.933	5.080	0.523
814.000	485.827	80.006	19.995	103.256	19.936	4.939	0.513
816.000	486.867	80.006	19.994	103.252	19.932	5.183	0.505
818.000	487.926	80.006	19.993	103.253	19.935	4.993	0.526
820.000	488.912	80.007	19.996	103.240	19.937	4.836	0.500
822.000	489.989	80.006	19.995	103.235	19.936	4.942	0.537
824.000	491.012	80.007	19.994	103.249	19.936	4.946	0.531
826.000	492.001	80.006	19.995	103.256	19.934	5.021	0.494
828.000	493.043	80.006	19.994	103.254	19.939	4.712	0.510
830.000	494.129	80.006	19.995	103.257	19.938	4.801	0.535
832.000	495.147	80.006	19.994	103.255	19.935	4.969	0.527
834.000	496.219	80.006	19.995	103.251	19.937	4.881	0.549
836.000	497.249	80.006	19.995	103.250	19.936	4.902	0.529
838.000	498.279	80.007	19.995	103.251	19.937	4.832	0.519
840.000	499.310	80.007	19.996	103.240	19.935	4.981	0.527
842.000	500.354	80.007	19.995	103.240	19.938	4.759	0.506
844.000	501.392	80.007	19.995	103.239	19.937	4.849	0.537
846.000	502.442	80.007	19.996	103.241	19.937	4.838	0.526
848.000	503.429	80.007	19.995	103.235	19.942	4.513	0.503
850.000	504.490	80.007	19.995	103.250	19.940	4.682	0.546
852.000	505.523	80.008	19.994	103.247	19.938	4.788	0.513
854.000	506.561	80.009	19.995	103.251	19.943	4.447	0.520
856.000	507.595	80.007	19.993	103.251	19.943	4.425	0.512
858.000	508.645	80.008	19.995	103.251	19.943	4.434	0.491
860.000	509.666	80.009	19.994	103.252	19.944	4.412	0.500
862.000	510.741	80.008	19.994	103.248	19.943	4.474	0.529
864.000	511.763	80.009	19.994	103.244	19.942	4.505	0.530
866.000	512.776	80.009	19.994	103.246	19.945	4.310	0.496
868.000	513.859	80.010	19.994	103.249	19.944	4.420	0.546
870.000	514.927	80.009	19.995	103.240	19.942	4.521	0.535
872.000	515.924	80.007	19.995	103.244	19.944	4.386	0.499
874.000	516.988	80.009	19.993	103.241	19.941	4.595	0.540
876.000	517.966	80.007	19.995	103.232	19.941	4.575	0.464
878.000	519.055	80.007	19.994	103.243	19.943	4.446	0.550
880.000	520.115	80.007	19.995	103.248	19.943	4.456	0.559
882.000	521.115	80.006	19.994	103.252	19.946	4.289	0.501
884.000	522.124	80.006	19.995	103.239	19.944	4.408	0.483
886.000	523.195	80.007	19.995	103.228	19.945	4.326	0.493
888.000	524.229	80.005	19.995	103.234	19.947	4.221	0.519
890.000	525.218	80.007	19.994	103.241	19.944	4.411	0.527
892.000	526.256	80.006	19.993	103.253	19.945	4.334	0.492
894.000	527.342	80.008	19.994	103.259	19.943	4.425	0.534
896.000	528.332	80.008	19.993	103.241	19.942	4.495	0.490
898.000	529.399	80.005	19.994	103.246	19.944	4.389	0.507
900.000	530.431	80.007	19.996	103.243	19.943	4.428	0.527
902.000	531.464	80.006	19.996	103.242	19.946	4.267	0.532
904.000	532.457	80.005	19.994	103.242	19.946	4.242	0.511
906.000	533.477	80.007	19.996	103.246	19.945	4.332	0.498
908.000	534.545	80.006	19.994	103.246	19.945	4.345	0.507
910.000	535.542	80.006	19.996	103.233	19.941	4.590	0.517
912.000	536.577	80.007	19.995	103.240	19.943	4.427	0.514
914.000	537.608	80.007	19.994	103.241	19.942	4.511	0.521
916.000	538.570	80.008	19.994	103.231	19.943	4.438	0.491
918.000	539.572	80.007	19.995	103.248	19.944	4.378	0.481
920.000	540.610	80.008	19.995	103.249	19.942	4.491	0.478
922.000	541.633	80.008	19.996	103.236	19.943	4.462	0.554
924.000	542.619	80.008	19.995	103.237	19.944	4.409	0.507
926.000	543.638	80.009	19.995	103.239	19.942	4.531	0.478
928.000	544.661	80.008	19.995	103.231	19.944	4.382	0.500
930.000	545.656	80.007	19.996	103.229	19.944	4.397	0.482
932.000	546.679	80.007	19.995	103.239	19.945	4.326	0.521
934.000	547.681	80.008	19.995	103.227	19.946	4.245	0.501
936.000	548.682	80.007	19.995	103.234	19.947	4.190	0.511
938.000	549.706	80.004	20.002	103.230	19.946	4.279	0.507
940.000	550.714	80.007	19.996	103.244	19.942	4.493	0.534
942.000	551.705	80.008	19.994	103.245	19.945	4.349	0.480
944.000	552.763	80.009	19.994	103.225	19.941	4.554	0.539
946.000	553.781	80.011	19.991	103.231	19.946	4.276	0.510
948.000	554.807	80.010	19.995	103.236	19.945	4.310	0.520
950.000	555.818	80.010	19.994	103.230	19.946	4.238	0.520
952.000	556.799	80.010	19.995	103.237	19.947	4.222	0.501
954.000	557.788	80.007	19.994	103.240	19.948	4.107	0.511
956.000	558.841	80.008	19.995	103.226	19.945	4.294	0.542
958.000	559.820	80.006	19.995	103.241	19.945	4.327	0.509
960.000	560.836	80.005	19.996	103.233	19.944	4.387	0.509
962.000	561.904	80.007	19.995	103.222	19.945	4.348	0.524
964.000	562.885	80.006	19.993	103.221	19.946	4.266	0.492
966.000	563.883	80.005	19.995	103.228	19.943	4.476	0.498
968.000	564.896	80.011	19.991	103.236	19.942	4.524	0.519
970.000	565.875	80.005	19.994	103.235	19.944	4.379	0.496
972.000	566.862	80.006	19.993	103.227	19.947	4.221	0.488
974.000	567.874	80.006	19.993	103.230	19.943	4.457	0.527
976.000	568.921	80.006	19.994	103.222	19.940	4.660	0.506
978.000	569.917	80.007	19.995	103.227	19.943	4.486	0.480
980.000	570.942	80.007	19.996	103.245	19.946	4.267	0.514
982.000	571.920	80.007	19.995	103.247	19.946	4.274	0.512
984.000	572.985	80.008	19.995	103.238	19.943	4.466	0.549
986.000	573.994	80.008	19.995	103.233	19.945	4.319	0.507
988.000	575.038	80.007	19.994	103.247	19.944	4.411	0.515
990.000	576.049	80.006	19.995	103.241	19.939	4.705	0.491
992.000	577.077	80.007	19.995	103.241	19.943	4.485	0.491
994.000	578.064	80.005	19.994	103.234	19.947	4.212	0.508
996.000	579.100	80.006	19.995	103.225	19.943	4.465	0.502
998.000	580.140	80.006	19.995	103.238	19.943	4.479	0.515
1000.000	581.132	80.007	19.995	103.251	19.937	4.825	0.508
1002.000	582.166	80.004	19.995	103.242	19.941	4.617	0.496
1004.000	583.189	80.007	19.995	103.250	19.939	4.749	0.510
1006.000	584.175	80.007	19.995	103.247	19.942	4.493	0.542
1008.000	585.222	80.007	19.994	103.241	19.941	4.603	0.532
1010.000	586.224	80.007	19.995	103.246	19.941	4.573	0.517
1012.000	587.220	80.005	19.995	103.234	19.940	4.619	0.470
1014.000	588.208	80.006	19.995	103.226	19.939	4.715	0.509
1016.000	589.263	80.002	20.003	103.227	19.942	4.493	0.527
1018.000	590.263	80.007	19.996	103.234	19.942	4.507	0.516
1020.000	591.248	80.003	19.997	103.253	19.943	4.443	0.480
1022.000	592.349	80.010	19.989	103.244	19.942	4.523	0.522
1024.000	593.326	80.001	19.992	103.236	19.944	4.369	0.505
1025.999	594.354	80.003	19.999	103.230	19.943	4.467	0.511
1027.999	595.404	80.006	19.994	103.235	19.941	4.595	0.552
1029.999	596.443	80.008	19.993	103.237	19.941	4.555	0.515
1031.999	597.479	80.007	19.991	103.233	19.941	4.577	0.545
1033.999	598.461	80.009	19.995	103.226	19.942	4.525	0.529
1036.000	599.397	80.004	19.999	103.227	19.941	4.600	0.484
1037.999	600.473	80.006	19.998	103.222	19.943	4.480	0.521
1039.999	601.500	80.006	19.995	103.212	19.941	4.582	0.539
1041.999	602.473	80.007	19.996	103.219	19.942	4.494	0.496
1043.999	603.468	80.007	19.994	103.233	19.941	4.553	0.474
1045.999	604.507	80.008	19.995	103.236	19.940	4.683	0.527
1047.999	605.505	80.006	19.996	103.222	19.942	4.522	0.500
1049.999	606.507	80.007	19.992	103.220	19.943	4.425	0.509
1051.999	607.515	80.007	19.994	103.218	19.940	4.678	0.479
1053.999	608.536	80.007	19.994	103.220	19.940	4.666	0.483
1056.000	609.530	80.007	19.995	103.221	19.941	4.601	0.470
1057.999	610.545	80.010	19.993	103.236	19.943	4.452	0.538
1059.999	611.536	80.008	19.995	103.231	19.942	4.502	0.490
1061.999	612.562	80.006	19.994	103.235	19.941	4.617	0.516
1063.999	613.568	80.005	19.994	103.241	19.942	4.530	0.495
1065.999	614.571	80.007	19.994	103.249	19.941	4.613	0.508
1067.999	615.634	80.007	19.995	103.246	19.938	4.759	0.527
1070.000	616.625	80.006	19.995	103.235	19.943	4.470	0.531
1072.000	617.590	80.005	19.994	103.234	19.943	4.457	0.511
1073.999	618.646	80.006	19.995	103.227	19.944	4.416	0.538
1075.999	619.607	80.006	19.996	103.234	19.941	4.574	0.496
1077.999	620.655	80.009	19.995	103.245	19.938	4.768	0.502
1080.000	621.669	80.007	19.995	103.248	19.940	4.662	0.482
1081.999	622.685	80.007	19.994	103.247	19.941	4.567	0.514
1083.999	623.767	80.006	19.993	103.236	19.939	4.710	0.549
1085.999	624.792	80.006	19.997	103.235	19.937	4.818	0.532
1087.999	625.751	80.009	19.994	103.246	19.934	5.065	0.512
1089.999	626.819	80.008	19.995	103.237	19.935	4.988	0.516
1091.999	627.828	80.006	19.996	103.246	19.933	5.131	0.497
1093.999	628.876	80.007	19.995	103.247	19.935	4.972	0.497
1096.000	629.874	80.008	19.994	103.243	19.935	4.966	0.479
1097.999	630.956	80.008	19.992	103.229	19.938	4.812	0.532
1100.000	631.956	80.007	19.995	103.236	19.936	4.910	0.491
1101.999	632.974	80.008	19.995	103.235	19.937	4.850	0.517
1103.999	634.068	80.006	19.993	103.226	19.938	4.756	0.557
1105.999	635.089	80.006	19.989	103.231	19.938	4.794	0.559
1107.999	636.182	80.011	19.994	103.233	19.935	4.989	0.565
1109.999	637.220	80.009	19.994	103.234	19.934	5.046	0.507
1111.999	638.295	80.009	19.995	103.220	19.934	5.030	0.558
1113.999	639.302	80.010	19.994	103.234	19.935	4.983	0.499
1115.999	640.377	80.006	19.994	103.226	19.939	4.731	0.516
1117.999	641.384	80.012	19.993	103.226	19.938	4.784	0.531
1120.000	642.429	80.009	19.994	103.222	19.932	5.188	0.541
1121.999	643.397	80.008	19.994	103.211	19.933	5.110	0.511
1123.999	644.439	80.006	19.996	103.228	19.935	4.978	0.508
1125.999	645.434	80.005	19.995	103.233	19.936	4.929	0.497
1127.999	646.416	80.007	19.996	103.212	19.937	4.852	0.546
1129.999	647.466	80.006	19.996	103.216	19.939	4.733	0.500
1131.999	648.477	80.009	19.995	103.227	19.938	4.751	0.491
1134.000	649.503	80.001	19.996	103.227	19.939	4.727	0.505
1135.999	650.496	79.996	20.001	103.225	19.935	4.975	0.505
1137.999	651.562	80.007	19.993	103.247	19.934	5.019	0.523
1139.999	652.556	80.012	19.994	103.237	19.939	4.724	0.513
1141.999	653.577	80.006	19.996	103.229	19.934	5.054	0.496
1143.999	654.615	80.005	19.994	103.225	19.937	4.827	0.502
1145.999	655.650	80.008	19.996	103.226	19.938	4.805	0.540
1147.999	656.701	80.008	19.992	103.215	19.935	5.007	0.522
1149.999	657.665	80.008	19.994	103.215	19.935	4.954	0.493
1151.999	658.683	80.005	19.994	103.219	19.937	4.832	0.532
1153.999	659.733	80.007	19.994	103.226	19.935	4.950	0.510
1155.999	660.692	80.006	19.994	103.233	19.930	5.308	0.500
1157.999	661.721	80.008	19.995	103.221	19.935	4.988	0.509
1159.999	662.761	80.008	19.990	103.233	19.934	5.041	0.502
1161.999	663.740	80.007	19.994	103.240	19.938	4.806	0.496
1163.999	664.737	80.009	19.994	103.225	19.937	4.833	0.514
1165.999	665.758	80.008	19.996	103.233	19.936	4.896	0.500
1168.000	666.765	80.008	19.994	103.227	19.939	4.686	0.499
1169.999	667.783	80.006	19.994	103.224	19.938	4.750	0.509
1171.999	668.787	80.003	19.996	103.216	19.938	4.803	0.544
1174.000	669.836	80.011	19.993	103.224	19.937	4.821	0.525
1175.999	670.872	80.008	19.994	103.221	19.936	4.940	0.514
1177.999	671.868	80.007	19.995	103.216	19.934	5.077	0.470
1179.999	672.887	80.008	19.993	103.219	19.936	4.914	0.489
1181.999	673.916	80.010	19.996	103.227	19.936	4.895	0.512
1183.999	674.964	80.008	19.994	103.234	19.935	5.000	0.540
1185.999	675.990	80.007	19.992	103.219	19.934	5.025	0.497
1187.999	676.990	80.007	19.998	103.221	19.935	4.995	0.500
1189.999	677.989	80.007	19.997	103.223	19.933	5.094	0.488
1191.999	678.993	80.009	19.995	103.234	19.935	4.962	0.497
1193.999	680.011	80.009	19.993	103.237	19.933	5.118	0.495
1195.999	681.009	80.011	19.998	103.230	19.936	4.926	0.503
1197.999	682.018	80.010	19.993	103.221	19.931	5.246	0.478
1199.999	682.995	80.008	19.995	103.232	19.934	5.026	0.497
1201.999	684.036	80.009	19.995	103.221	19.934	5.053	0.525
1203.999	685.040	80.004	19.996	103.226	19.934	5.075	0.511
1206.000	686.049	80.003	20.002	103.225	19.938	4.770	0.519
1207.999	687.056	80.006	19.995	103.225	19.933	5.132	0.503
1209.999	688.054	80.005	19.996	103.224	19.934	5.062	0.513
1211.999	689.065	80.006	19.994	103.215	19.936	4.944	0.507
1213.999	690.107	80.003	19.993	103.215	19.935	4.976	0.499
1215.999	691.097	80.003	19.997	103.215	19.936	4.926	0.493
1217.999	692.135	80.008	19.995	103.217	19.934	5.019	0.507
1220.001	693.169	80.006	19.997	103.215	19.936	4.881	0.504
1222.000	694.243	80.004	19.992	103.216	19.935	4.955	0.522
1223.999	695.240	80.006	19.994	103.217	19.936	4.923	0.545
1225.999	696.233	80.004	19.994	103.213	19.934	5.032	0.530
1228.000	697.276	80.007	19.994	103.212	19.933	5.091	0.493
1229.999	698.289	80.008	19.994	103.208	19.936	4.940	0.530
1231.999	699.302	80.005	19.999	103.214	19.936	4.884	0.502
1233.999	700.309	80.008	19.993	103.215	19.936	4.922	0.526
1235.999	701.342	80.007	19.994	103.218	19.935	4.956	0.495
1237.999	702.328	80.010	19.994	103.227	19.936	4.938	0.509
1239.999	703.336	80.006	19.994	103.218	19.938	4.784	0.506
1241.999	704.320	80.007	19.995	103.223	19.936	4.933	0.494
1243.999	705.331	80.010	19.993	103.218	19.937	4.858	0.498
1245.999	706.368	80.007	19.994	103.215	19.936	4.899	0.511
1247.999	707.350	80.010	19.995	103.214	19.936	4.944	0.517
1249.999	708.335	80.008	19.995	103.211	19.934	5.048	0.495
1251.999	709.394	80.013	19.991	103.212	19.938	4.801	0.541
1253.999	710.362	80.007	19.993	103.214	19.933	5.109	0.474
1255.999	711.388	80.008	19.994	103.210	19.937	4.815	0.533
1257.999	712.355	80.013	19.996	103.211	19.938	4.784	0.487
1259.999	713.394	80.003	19.992	103.212	19.934	5.066	0.510
1261.999	714.394	80.007	19.994	103.211	19.934	5.077	0.486
1263.999	715.434	80.007	19.989	103.217	19.930	5.278	0.540
1265.999	716.433	80.012	19.994	103.216	19.937	4.872	0.499
1267.999	717.454	80.009	19.992	103.216	19.936	4.886	0.507
1270.000	718.476	80.006	19.995	103.217	19.938	4.808	0.516
1271.999	719.439	80.013	19.991	103.215	19.935	5.010	0.478
1273.999	720.477	80.010	19.992	103.218	19.937	4.831	0.503
1275.999	721.406	80.008	19.989	103.216	19.934	5.028	0.469
1277.999	722.399	80.007	19.988	103.212	19.936	4.906	0.497
1279.999	723.359	80.012	19.993	103.214	19.937	4.833	0.484
1281.999	724.334	80.012	19.986	103.213	19.936	4.890	0.499
1284.000	725.306	80.009	19.993	103.215	19.937	4.861	0.458
1285.999	726.233	80.006	19.994	103.214	19.935	4.987	0.428
1287.999	727.195	80.006	19.994	103.214	19.935	4.980	0.493
1290.000	728.175	80.003	19.996	103.215	19.937	4.861	0.461
1291.999	729.174	80.010	19.992	103.216	19.933	5.091	0.502
1293.999	730.117	80.005	19.996	103.211	19.935	4.947	0.490
1296.000	731.153	80.003	19.997	103.207	19.935	4.983	0.486
1298.001	732.129	80.007	19.994	103.214	19.938	4.786	0.486
1299.999	733.118	80.005	19.993	103.214	19.938	4.795	0.476
1301.999	734.144	80.005	19.994	103.214	19.934	5.018	0.496
1303.999	735.137	80.008	19.996	103.212	19.937	4.854	0.515
1306.001	736.108	80.008	19.994	103.213	19.935	5.004	0.475
1307.999	737.145	80.009	19.995	103.213	19.934	5.025	0.517
1309.999	738.164	80.010	19.998	103.215	19.937	4.851	0.533
1311.999	739.216	80.006	19.994	103.214	19.937	4.863	0.533
1313.999	740.218	80.003	19.996	103.212	19.939	4.702	0.513
1315.999	741.197	80.005	19.994	103.223	19.936	4.881	0.506
1317.999	742.237	80.007	19.995	103.223	19.937	4.859	0.493
1319.999	743.241	80.007	19.996	103.212	19.942	4.496	0.531
1320.499	743.467	80.005	19.995	103.216	19.939	4.690	0.494