File: 01_Data/Pine_Lap_Siding_Wood/MCC/PineLap_SidingB_MCC_30K_min_211122_R2.txt
Sample ID:	C:\MCC\MCC Cal\Test\PineLap_SidingB_MCC_30K_min_211122_R2.txt
Sample Weight (mg):	4.39
Heating Rate (C/s):	0.5
Combustor Temp (C):	900
N2 Flow Rate (cc/min):	80
O2 Flow Rate (cc/min):	20
Calibration File:	C:\MCC\MCC Cal\Coeff1 JN10440_30_210304.txt.txt
T Correction Coefficients:	0	1.024463	0
Time Shift (s):	14
*
Time (s)	Temperature (C)	N2 flow rate (cc/min)	O2 flow rate (cc/min)	Flow Rate (cc/min)	Oxygen (%)	HRR (W/g)	Heating rate (C/s)
0.000	108.273	80.004	19.996	103.093	20.136	-0.224	0.027
2.000	108.297	80.006	19.997	103.093	20.132	0.032	-0.007
4.000	108.290	80.005	19.996	103.093	20.134	-0.140	-0.023
6.000	108.317	80.003	19.995	103.093	20.133	-0.044	0.017
8.000	108.293	80.003	19.995	103.095	20.134	-0.084	-0.009
10.000	108.256	80.004	19.994	103.095	20.135	-0.222	-0.011
12.000	108.297	80.005	19.994	103.091	20.133	-0.052	-0.001
14.000	108.289	80.007	19.994	103.089	20.134	-0.098	-0.001
16.000	108.286	80.005	19.994	103.093	20.133	-0.044	0.004
18.000	108.273	80.006	19.994	103.088	20.135	-0.172	-0.002
20.000	108.282	80.006	19.993	103.082	20.134	-0.132	0.032
22.000	108.279	80.007	19.993	103.088	20.131	0.140	-0.007
24.000	108.259	80.005	19.995	103.094	20.133	-0.018	-0.011
26.000	108.233	80.006	19.994	103.090	20.133	-0.060	-0.038
28.000	108.239	80.006	19.994	103.096	20.132	0.052	-0.007
30.000	108.267	80.005	19.994	103.097	20.131	0.142	0.028
32.000	108.254	80.004	19.995	103.098	20.133	-0.056	-0.018
33.999	108.221	80.002	19.995	103.091	20.132	0.052	-0.011
36.000	108.224	80.003	19.995	103.096	20.131	0.074	0.005
37.999	108.243	80.004	19.994	103.096	20.131	0.114	0.035
39.999	108.229	80.004	19.994	103.092	20.129	0.282	-0.002
41.999	108.227	80.004	19.995	103.088	20.131	0.110	0.020
43.999	108.200	80.003	19.995	103.089	20.131	0.126	-0.009
46.000	108.236	80.003	19.995	103.091	20.131	0.088	0.025
47.999	108.234	80.004	19.995	103.081	20.132	0.016	-0.029
49.999	108.160	80.005	19.994	103.086	20.134	-0.138	-0.021
52.000	108.152	80.006	19.994	103.095	20.131	0.142	-0.022
53.999	108.171	80.004	19.994	103.094	20.131	0.078	-0.003
55.999	108.174	80.004	19.995	103.094	20.134	-0.116	0.027
57.999	108.196	80.004	19.996	103.095	20.130	0.172	0.005
59.999	108.194	80.005	19.994	103.094	20.129	0.280	0.026
61.999	108.187	80.004	19.994	103.095	20.129	0.248	-0.003
63.999	108.163	80.003	19.996	103.077	20.129	0.266	-0.035
65.999	108.153	80.002	19.996	103.028	20.131	0.120	-0.002
68.001	108.157	80.003	19.996	103.135	20.134	-0.144	-0.006
69.999	108.200	80.002	19.995	103.090	20.131	0.076	0.015
71.999	108.135	80.004	19.995	103.090	20.130	0.212	-0.024
73.999	108.125	80.005	19.994	103.089	20.129	0.284	-0.031
75.999	108.149	80.005	19.994	103.092	20.129	0.232	0.011
77.999	108.139	80.006	19.995	103.082	20.131	0.116	-0.006
79.999	108.143	80.007	19.994	103.095	20.130	0.150	0.033
81.999	108.137	80.005	19.994	103.097	20.131	0.106	0.002
84.000	108.148	80.006	19.995	103.093	20.132	0.050	0.032
86.000	108.129	80.005	19.995	103.089	20.131	0.114	0.020
87.999	108.108	80.004	19.996	103.088	20.133	-0.040	-0.017
89.999	108.117	80.003	19.995	103.093	20.132	0.060	-0.003
91.999	108.141	80.003	19.995	103.098	20.131	0.110	0.001
93.999	108.140	80.003	19.995	103.098	20.131	0.106	0.002
96.000	108.137	80.005	19.995	103.098	20.132	0.030	0.021
97.999	108.095	80.006	19.994	103.095	20.130	0.216	0.005
99.999	108.114	80.006	19.994	103.096	20.131	0.086	-0.009
101.999	108.128	80.006	19.995	103.094	20.129	0.258	0.017
103.999	108.116	80.008	19.995	103.092	20.129	0.280	0.001
105.999	108.115	80.006	19.995	103.091	20.132	0.066	0.030
107.999	108.096	80.007	19.993	103.092	20.132	0.044	0.011
109.999	108.074	80.007	19.994	103.091	20.131	0.106	0.005
111.999	108.061	80.005	19.995	103.090	20.127	0.376	-0.018
113.999	108.103	80.005	19.994	103.090	20.125	0.550	0.006
115.999	108.071	80.004	19.995	103.092	20.127	0.402	-0.005
117.999	108.082	80.004	19.993	103.085	20.124	0.640	0.020
119.999	108.053	80.003	19.994	103.090	20.128	0.312	-0.011
121.999	108.054	80.003	19.995	103.091	20.128	0.304	0.012
123.999	108.057	80.004	19.996	103.092	20.128	0.338	-0.001
126.000	108.036	80.004	19.994	103.092	20.128	0.316	0.010
127.999	108.014	80.003	19.995	103.093	20.127	0.382	-0.018
130.000	108.022	80.004	19.995	103.093	20.128	0.310	0.017
132.000	108.002	80.006	19.994	103.094	20.129	0.282	0.002
134.000	108.036	80.005	19.994	103.094	20.130	0.200	0.033
136.000	108.038	80.005	19.994	103.090	20.132	0.070	0.006
138.000	108.021	80.005	19.995	103.094	20.133	-0.014	-0.002
140.000	108.012	80.005	19.995	103.095	20.131	0.078	-0.028
142.000	107.997	80.004	19.995	103.096	20.129	0.234	-0.022
144.000	107.990	80.003	19.994	103.086	20.129	0.238	-0.012
146.000	108.005	80.002	19.994	103.096	20.131	0.110	-0.001
148.000	108.013	80.003	19.994	103.097	20.127	0.368	-0.002
150.000	108.040	80.004	19.995	103.086	20.129	0.270	0.002
152.000	108.030	80.003	19.995	103.096	20.130	0.194	-0.007
154.000	107.996	80.004	19.995	103.093	20.127	0.372	-0.001
156.000	108.050	80.005	19.994	103.095	20.130	0.168	0.012
158.000	108.014	80.005	19.995	103.091	20.130	0.202	-0.003
160.000	108.021	80.005	19.994	103.095	20.126	0.450	0.006
162.000	107.988	80.005	19.994	103.097	20.131	0.128	0.002
164.000	108.002	80.005	19.995	103.089	20.128	0.302	-0.010
166.000	107.942	80.006	19.994	103.093	20.128	0.292	-0.013
168.000	107.980	80.003	19.995	103.091	20.128	0.310	-0.020
170.000	107.979	80.004	19.995	103.093	20.129	0.228	0.016
172.000	107.956	80.004	19.994	103.088	20.129	0.274	-0.011
174.000	107.967	80.004	19.995	103.092	20.130	0.172	-0.039
176.000	107.943	80.005	19.996	103.084	20.131	0.076	0.002
178.000	107.987	80.005	19.995	103.090	20.127	0.386	-0.014
180.000	107.973	80.005	19.995	103.091	20.130	0.178	-0.005
182.000	107.956	80.004	19.996	103.091	20.125	0.568	-0.017
184.000	107.943	80.006	19.995	103.090	20.125	0.560	-0.022
186.000	107.962	80.005	19.994	103.087	20.127	0.386	0.021
188.000	107.951	80.006	19.996	103.090	20.129	0.268	0.023
190.000	107.961	80.006	19.995	103.084	20.128	0.346	0.022
192.000	107.931	80.006	19.995	103.077	20.130	0.188	-0.020
194.000	107.926	80.004	19.996	103.077	20.128	0.316	-0.010
196.000	107.903	80.004	19.994	103.086	20.126	0.440	-0.031
198.000	107.883	80.005	19.995	103.082	20.127	0.378	-0.008
200.000	107.904	80.004	19.995	103.088	20.131	0.098	-0.009
202.000	107.918	80.004	19.994	103.089	20.130	0.186	-0.015
204.000	107.931	80.005	19.994	103.075	20.130	0.154	-0.015
206.000	107.910	80.005	19.995	103.093	20.131	0.116	-0.016
208.000	107.915	80.004	19.994	103.083	20.128	0.333	-0.016
210.000	107.897	80.003	19.994	103.075	20.133	-0.006	-0.009
212.000	107.820	80.004	19.994	103.082	20.127	0.384	-0.036
214.000	107.900	80.004	19.994	103.091	20.121	0.818	-0.021
216.000	107.876	80.003	19.993	103.103	20.087	3.370	0.008
218.000	107.964	80.004	19.994	103.639	20.041	6.797	0.058
220.000	108.239	80.004	19.994	104.072	20.008	9.235	0.145
222.000	108.794	80.003	19.993	104.114	19.978	11.393	0.299
224.000	109.503	80.004	19.994	104.106	19.965	12.396	0.394
226.000	110.453	80.003	19.995	104.075	19.958	12.924	0.455
228.000	111.569	80.003	19.994	104.058	19.956	13.018	0.568
230.000	112.871	80.004	19.994	104.031	19.953	13.219	0.652
232.000	114.339	80.006	19.995	104.009	19.955	13.126	0.730
234.000	115.908	80.005	19.993	103.991	19.955	13.100	0.823
236.000	117.588	80.006	19.994	103.962	19.958	12.898	0.857
238.000	119.428	80.007	19.994	103.949	19.962	12.597	0.921
240.000	121.337	80.008	19.994	103.921	19.966	12.272	0.965
242.000	123.408	80.008	19.995	103.894	19.970	11.984	1.032
244.000	125.546	80.006	19.993	103.863	19.975	11.620	1.086
246.000	127.686	80.005	19.993	103.833	19.980	11.265	1.068
248.000	129.926	80.006	19.995	103.808	19.986	10.825	1.096
250.000	132.221	80.005	19.995	103.789	19.991	10.433	1.150
252.000	134.490	80.005	19.995	103.764	19.994	10.175	1.130
254.000	136.861	80.005	19.996	103.738	20.000	9.745	1.171
256.000	139.234	80.004	19.995	103.720	20.005	9.411	1.150
258.000	141.595	80.005	19.994	103.696	20.009	9.113	1.183
260.000	144.057	80.006	19.995	103.683	20.014	8.729	1.232
262.000	146.462	80.006	19.995	103.668	20.016	8.560	1.217
264.000	148.868	80.008	19.994	103.633	20.021	8.199	1.226
266.000	151.275	80.008	19.994	103.608	20.024	7.969	1.204
268.000	153.636	80.007	19.995	103.605	20.026	7.809	1.191
270.000	155.971	80.007	19.995	103.597	20.029	7.623	1.161
272.000	158.313	80.006	19.996	103.593	20.027	7.735	1.137
274.000	160.702	80.005	19.995	103.584	20.030	7.569	1.171
276.000	163.040	80.003	19.995	103.567	20.035	7.161	1.139
278.000	165.369	80.004	19.996	103.563	20.033	7.315	1.198
280.000	167.712	80.003	19.995	103.539	20.033	7.293	1.159
282.000	170.008	80.004	19.996	103.528	20.036	7.127	1.178
284.000	172.312	80.003	19.996	103.525	20.040	6.782	1.142
286.000	174.559	80.005	19.995	103.522	20.040	6.799	1.141
288.000	176.780	80.004	19.994	103.506	20.042	6.666	1.099
290.000	179.058	80.005	19.994	103.488	20.046	6.383	1.117
292.000	181.256	80.006	19.995	103.494	20.044	6.476	1.101
294.000	183.453	80.004	19.995	103.502	20.046	6.321	1.088
296.000	185.641	80.006	19.993	103.489	20.049	6.169	1.085
298.000	187.863	80.006	19.994	103.481	20.050	6.092	1.137
300.000	190.048	80.005	19.994	103.478	20.051	6.010	1.069
302.000	192.172	80.005	19.995	103.461	20.048	6.214	1.080
304.000	194.227	80.005	19.995	103.455	20.055	5.671	1.066
306.000	196.309	80.004	19.995	103.446	20.052	5.923	1.053
308.000	198.392	80.005	19.995	103.447	20.052	5.904	1.058
310.000	200.348	80.004	19.995	103.444	20.048	6.228	0.967
312.000	202.380	80.005	19.995	103.430	20.050	6.066	0.986
314.000	204.334	80.004	19.995	103.434	20.052	5.918	0.981
316.000	206.345	80.005	19.994	103.431	20.050	6.056	0.990
318.000	208.320	80.005	19.993	103.415	20.052	5.920	0.978
320.000	210.261	80.005	19.994	103.408	20.053	5.844	0.989
322.000	212.157	80.005	19.994	103.408	20.052	5.932	0.938
324.000	214.032	80.007	19.993	103.408	20.049	6.100	0.951
326.000	215.912	80.005	19.994	103.406	20.050	6.095	0.948
328.000	217.784	80.006	19.994	103.411	20.048	6.206	0.926
330.000	219.625	80.005	19.994	103.409	20.047	6.312	0.940
332.000	221.406	80.005	19.994	103.410	20.046	6.320	0.904
334.000	223.224	80.006	19.994	103.405	20.049	6.122	0.905
336.000	225.008	80.005	19.993	103.400	20.048	6.198	0.863
338.000	226.780	80.006	19.995	103.397	20.047	6.258	0.903
340.000	228.543	80.006	19.995	103.405	20.047	6.300	0.903
342.000	230.294	80.005	19.994	103.392	20.045	6.451	0.841
344.000	232.057	80.006	19.994	103.387	20.043	6.593	0.865
346.000	233.746	80.006	19.995	103.380	20.039	6.841	0.853
348.000	235.404	80.007	19.995	103.371	20.038	6.921	0.832
350.000	237.039	80.007	19.994	103.370	20.037	6.995	0.813
352.000	238.642	80.007	19.995	103.367	20.035	7.186	0.830
354.000	240.250	80.006	19.994	103.368	20.030	7.515	0.800
356.000	241.824	80.004	19.995	103.363	20.031	7.468	0.802
358.000	243.443	80.004	19.995	103.360	20.022	8.138	0.803
360.000	244.965	80.004	19.995	103.353	20.019	8.322	0.765
362.000	246.478	80.003	19.995	103.363	20.015	8.651	0.761
364.000	248.030	80.005	19.995	103.364	20.014	8.687	0.767
366.000	249.519	80.004	19.994	103.362	20.009	9.060	0.754
368.000	251.020	80.004	19.996	103.366	20.004	9.473	0.758
370.000	252.496	80.004	19.995	103.362	19.996	10.024	0.731
372.000	253.850	80.004	19.996	103.356	19.997	9.984	0.676
374.000	255.299	80.003	19.997	103.365	19.988	10.589	0.649
376.000	256.667	80.005	19.995	103.365	19.985	10.798	0.684
378.000	258.084	80.004	19.996	103.364	19.978	11.349	0.707
380.000	259.463	80.004	19.995	103.364	19.975	11.578	0.714
382.000	260.799	80.004	19.995	103.363	19.967	12.168	0.674
384.000	262.092	80.005	19.995	103.362	19.960	12.693	0.666
386.000	263.421	80.004	19.994	103.363	19.956	12.945	0.674
388.000	264.758	80.004	19.994	103.360	19.952	13.266	0.637
390.000	266.094	80.004	19.993	103.365	19.941	14.038	0.666
392.000	267.394	80.003	19.994	103.359	19.940	14.146	0.678
394.000	268.670	80.004	19.994	103.363	19.931	14.778	0.659
396.000	269.918	80.003	19.994	103.367	19.926	15.176	0.621
398.000	271.221	80.005	19.994	103.370	19.917	15.832	0.635
400.000	272.486	80.004	19.994	103.371	19.911	16.295	0.631
402.000	273.741	80.006	19.994	103.369	19.908	16.516	0.644
404.000	274.985	80.006	19.994	103.368	19.902	16.961	0.634
406.000	276.196	80.006	19.994	103.369	19.896	17.350	0.626
408.000	277.379	80.005	19.996	103.369	19.888	17.977	0.599
410.000	278.588	80.004	19.993	103.370	19.882	18.376	0.601
412.000	279.776	80.004	19.994	103.371	19.875	18.889	0.591
414.000	280.908	80.005	19.993	103.371	19.868	19.454	0.574
416.000	282.109	80.004	19.995	103.371	19.864	19.754	0.593
418.000	283.273	80.005	19.994	103.371	19.854	20.493	0.557
420.000	284.403	80.005	19.994	103.371	19.850	20.764	0.553
422.000	285.604	80.007	19.994	103.369	19.840	21.485	0.586
424.000	286.699	80.006	19.995	103.369	19.835	21.853	0.585
426.000	287.831	80.005	19.993	103.370	19.825	22.576	0.576
428.000	288.942	80.005	19.994	103.374	19.819	23.026	0.542
430.000	290.095	80.007	19.993	103.369	19.814	23.409	0.574
432.000	291.156	80.005	19.995	103.371	19.809	23.762	0.549
434.000	292.295	80.008	19.995	103.371	19.803	24.193	0.554
436.000	293.384	80.006	19.994	103.382	19.793	24.964	0.535
438.000	294.453	80.004	19.995	103.379	19.784	25.616	0.528
440.000	295.515	80.003	19.994	103.389	19.775	26.248	0.518
442.000	296.629	80.004	19.996	103.396	19.772	26.508	0.563
444.000	297.669	80.004	19.996	103.390	19.760	27.362	0.497
446.000	298.761	80.006	19.996	103.382	19.755	27.757	0.511
448.000	299.838	80.003	19.995	103.391	19.745	28.477	0.547
450.000	300.846	80.005	19.994	103.402	19.738	28.959	0.513
452.000	301.869	80.004	19.994	103.394	19.730	29.586	0.504
454.000	302.909	80.004	19.994	103.401	19.721	30.242	0.507
456.000	303.977	80.003	19.994	103.402	19.711	30.992	0.529
458.000	304.973	80.003	19.995	103.403	19.701	31.730	0.529
460.000	305.976	80.003	19.996	103.407	19.689	32.603	0.488
462.000	306.985	80.002	19.995	103.402	19.680	33.281	0.491
464.000	307.988	80.002	19.995	103.408	19.670	34.012	0.491
466.000	309.039	80.003	19.998	103.411	19.661	34.628	0.489
468.000	309.989	80.002	19.996	103.417	19.653	35.258	0.488
470.000	311.048	80.002	19.995	103.412	19.644	35.913	0.500
472.000	312.023	80.003	19.995	103.412	19.635	36.538	0.501
474.000	312.965	80.002	19.996	103.417	19.621	37.584	0.487
476.000	313.959	80.003	19.995	103.418	19.614	38.082	0.499
478.000	314.976	80.004	19.994	103.430	19.603	38.960	0.469
480.000	315.929	80.004	19.995	103.437	19.592	39.699	0.489
482.000	316.911	80.004	19.995	103.443	19.587	40.135	0.480
484.000	317.880	80.005	19.994	103.440	19.576	40.927	0.474
486.000	318.821	80.004	19.992	103.442	19.567	41.580	0.488
488.000	319.763	80.005	19.994	103.442	19.560	42.116	0.447
490.000	320.762	80.005	19.994	103.442	19.544	43.296	0.495
492.000	321.708	80.005	19.996	103.446	19.538	43.730	0.449
494.000	322.668	80.006	19.994	103.445	19.530	44.287	0.463
496.000	323.613	80.004	19.994	103.444	19.522	44.909	0.474
498.000	324.595	80.005	19.995	103.442	19.513	45.522	0.492
500.000	325.533	80.003	19.994	103.448	19.504	46.190	0.467
502.000	326.473	80.006	19.994	103.462	19.497	46.743	0.455
504.000	327.472	80.004	19.995	103.470	19.488	47.375	0.463
506.000	328.431	80.005	19.994	103.451	19.480	47.951	0.477
508.000	329.351	80.007	19.995	103.446	19.474	48.409	0.431
510.000	330.335	80.007	19.994	103.466	19.466	48.991	0.510
512.000	331.312	80.009	19.995	103.454	19.462	49.310	0.459
514.000	332.209	80.007	19.994	103.465	19.458	49.613	0.472
516.000	333.215	80.007	19.994	103.453	19.452	50.020	0.440
518.000	334.173	80.006	19.994	103.454	19.443	50.667	0.443
520.000	335.133	80.005	19.994	103.456	19.440	50.927	0.485
522.000	336.078	80.004	19.994	103.453	19.434	51.343	0.450
524.000	337.052	80.005	19.996	103.461	19.428	51.841	0.481
526.000	338.026	80.005	19.994	103.470	19.423	52.201	0.500
528.000	338.989	80.005	19.995	103.469	19.421	52.343	0.471
530.000	339.972	80.003	19.996	103.467	19.414	52.874	0.469
532.000	340.905	80.004	19.995	103.476	19.407	53.349	0.451
534.000	341.871	80.004	19.995	103.483	19.400	53.882	0.481
536.000	342.860	80.003	19.995	103.491	19.396	54.167	0.456
538.000	343.811	80.005	19.994	103.496	19.390	54.579	0.464
540.000	344.797	80.004	19.995	103.483	19.382	55.182	0.488
542.000	345.729	80.003	19.995	103.486	19.374	55.763	0.456
544.000	346.751	80.004	19.995	103.485	19.362	56.652	0.508
546.000	347.652	80.003	19.993	103.493	19.357	57.056	0.476
548.000	348.683	80.002	19.995	103.502	19.348	57.705	0.498
550.000	349.646	80.003	19.994	103.512	19.339	58.356	0.478
552.000	350.641	80.003	19.995	103.497	19.328	59.168	0.508
554.000	351.564	80.003	19.994	103.498	19.317	59.997	0.457
556.000	352.530	80.004	19.995	103.509	19.305	60.873	0.498
558.000	353.507	80.003	19.995	103.503	19.291	61.931	0.479
560.000	354.466	80.004	19.995	103.503	19.275	63.074	0.479
562.000	355.446	80.005	19.996	103.518	19.260	64.196	0.486
564.000	356.424	80.006	19.996	103.522	19.246	65.223	0.520
566.000	357.357	80.006	19.995	103.526	19.228	66.541	0.451
568.000	358.333	80.006	19.995	103.531	19.216	67.470	0.489
570.000	359.296	80.005	19.994	103.556	19.199	68.684	0.460
572.000	360.293	80.006	19.994	103.563	19.181	70.023	0.494
574.000	361.219	80.005	19.994	103.556	19.168	71.011	0.440
576.000	362.216	80.005	19.994	103.561	19.153	72.145	0.473
578.000	363.184	80.004	19.995	103.567	19.137	73.278	0.472
580.000	364.165	80.005	19.995	103.568	19.122	74.391	0.477
582.000	365.178	80.005	19.995	103.580	19.103	75.760	0.495
584.000	366.141	80.005	19.994	103.583	19.086	77.029	0.494
586.000	367.123	80.005	19.994	103.592	19.075	77.798	0.470
588.000	368.137	80.005	19.994	103.589	19.062	78.812	0.490
590.000	369.174	80.006	19.995	103.585	19.053	79.458	0.490
592.000	370.145	80.006	19.994	103.575	19.045	80.069	0.479
594.000	371.230	80.006	19.994	103.571	19.036	80.662	0.534
596.000	372.206	80.006	19.994	103.570	19.037	80.586	0.487
598.000	373.224	80.006	19.994	103.566	19.040	80.391	0.486
600.000	374.260	80.006	19.994	103.565	19.043	80.114	0.521
602.000	375.215	80.004	19.993	103.567	19.053	79.404	0.476
604.000	376.288	80.003	19.994	103.554	19.062	78.681	0.507
606.000	377.279	80.003	19.992	103.545	19.076	77.641	0.512
608.000	378.348	80.004	19.995	103.531	19.095	76.243	0.538
610.000	379.397	80.004	19.994	103.514	19.119	74.483	0.537
612.000	380.422	80.004	19.995	103.496	19.147	72.406	0.507
614.000	381.457	80.004	19.994	103.469	19.181	69.936	0.507
616.000	382.501	80.004	19.994	103.444	19.215	67.358	0.485
618.000	383.519	80.004	19.994	103.427	19.253	64.578	0.509
620.000	384.610	80.004	19.995	103.411	19.296	61.419	0.536
622.000	385.642	80.007	19.995	103.405	19.341	58.133	0.484
624.000	386.681	80.005	19.996	103.391	19.393	54.327	0.516
626.000	387.749	80.005	19.996	103.358	19.438	50.992	0.552
628.000	388.818	80.004	19.995	103.341	19.485	47.495	0.545
630.000	389.827	80.003	19.995	103.328	19.533	44.027	0.488
632.000	390.889	80.003	19.994	103.324	19.582	40.434	0.517
634.000	391.972	80.004	19.995	103.318	19.627	37.072	0.521
636.000	393.014	80.004	19.996	103.295	19.669	33.988	0.519
638.000	394.138	80.003	19.996	103.291	19.710	31.032	0.547
640.000	395.187	80.004	19.995	103.278	19.745	28.426	0.547
642.000	396.266	80.004	19.995	103.263	19.783	25.677	0.576
644.000	397.368	80.006	19.994	103.266	19.815	23.273	0.563
646.000	398.430	80.003	19.994	103.259	19.844	21.136	0.558
648.000	399.495	80.005	19.995	103.247	19.868	19.376	0.538
650.000	400.519	80.006	19.995	103.249	19.889	17.894	0.514
652.000	401.596	80.005	19.997	103.251	19.908	16.461	0.518
654.000	402.608	80.004	19.995	103.248	19.923	15.347	0.523
656.000	403.690	80.004	19.996	103.244	19.935	14.518	0.514
658.000	404.793	80.002	19.996	103.234	19.945	13.721	0.530
660.000	405.792	80.003	19.995	103.248	19.958	12.764	0.506
662.000	406.843	80.005	19.995	103.249	19.965	12.315	0.548
664.000	407.857	80.005	19.995	103.250	19.965	12.295	0.532
666.000	408.898	80.004	19.994	103.226	19.973	11.696	0.491
668.000	409.875	80.006	19.993	103.241	19.979	11.284	0.505
670.000	410.915	80.006	19.995	103.227	19.982	11.074	0.496
672.000	411.957	80.007	19.992	103.238	19.989	10.537	0.524
674.000	412.924	80.008	19.993	103.221	19.988	10.627	0.500
676.000	413.939	80.007	19.993	103.238	19.991	10.390	0.494
678.000	414.867	80.006	19.994	103.242	19.988	10.606	0.503
680.000	415.887	80.005	19.995	103.240	19.994	10.168	0.558
682.000	416.887	80.006	19.995	103.224	19.997	9.900	0.442
684.000	417.912	80.004	19.994	103.219	19.996	10.036	0.432
686.000	419.198	80.004	19.995	103.226	20.001	9.640	0.505
688.000	419.685	80.003	19.995	103.231	20.001	9.640	0.658
690.000	420.928	80.005	19.994	103.239	20.003	9.528	0.245
692.000	421.827	80.004	19.995	103.228	20.005	9.348	0.555
694.000	422.899	80.004	19.994	103.221	20.007	9.204	0.518
696.000	423.888	80.004	19.995	103.218	20.006	9.251	0.499
698.000	424.821	80.005	19.994	103.220	20.005	9.382	0.460
700.000	425.805	80.004	19.994	103.218	20.008	9.152	0.483
702.000	426.829	80.005	19.994	103.224	20.007	9.241	0.485
704.000	427.784	80.005	19.995	103.227	20.012	8.864	0.491
706.000	428.845	80.005	19.994	103.215	20.010	9.008	0.514
708.000	429.835	80.005	19.995	103.220	20.010	8.961	0.518
710.000	430.827	80.004	19.995	103.230	20.015	8.589	0.552
712.000	431.767	80.003	19.995	103.229	20.014	8.659	0.485
714.000	432.785	80.004	19.995	103.232	20.018	8.405	0.513
716.000	433.807	80.003	19.995	103.220	20.014	8.675	0.503
718.000	434.842	80.002	19.994	103.221	20.014	8.679	0.522
720.000	435.787	80.003	19.994	103.219	20.017	8.497	0.469
722.000	436.785	80.004	19.995	103.219	20.017	8.451	0.524
724.000	437.800	80.003	19.995	103.223	20.017	8.471	0.499
726.000	438.818	80.004	19.994	103.230	20.019	8.355	0.538
728.000	439.786	80.004	19.997	103.247	20.021	8.187	0.501
730.000	440.793	80.004	19.994	103.247	20.020	8.263	0.500
732.000	441.789	80.005	19.994	103.228	20.024	7.975	0.487
734.000	442.788	80.005	19.994	103.216	20.021	8.198	0.506
736.000	443.783	80.005	19.994	103.218	20.022	8.072	0.491
738.000	444.778	80.004	19.994	103.216	20.023	8.040	0.498
740.000	445.774	80.004	19.994	103.217	20.026	7.805	0.494
742.000	446.764	80.004	19.996	103.220	20.028	7.636	0.475
744.000	447.789	80.004	19.996	103.220	20.027	7.705	0.480
746.000	448.764	80.004	19.995	103.223	20.030	7.500	0.488
748.000	449.774	80.004	19.996	103.235	20.030	7.548	0.482
750.000	450.775	80.004	19.996	103.229	20.029	7.580	0.522
752.000	451.816	80.005	19.995	103.229	20.034	7.198	0.512
754.000	452.820	80.005	19.996	103.227	20.032	7.370	0.510
756.000	453.835	80.006	19.995	103.222	20.034	7.198	0.515
758.000	454.861	80.007	19.994	103.221	20.036	7.046	0.516
760.000	455.884	80.005	19.994	103.220	20.038	6.928	0.512
762.000	456.895	80.006	19.994	103.213	20.038	6.906	0.501
764.000	457.933	80.005	19.994	103.219	20.039	6.875	0.512
766.000	458.981	80.004	19.994	103.216	20.038	6.939	0.495
768.000	460.026	80.005	19.993	103.216	20.035	7.114	0.490
770.000	461.012	80.004	19.994	103.220	20.039	6.829	0.495
772.000	462.062	80.004	19.994	103.221	20.040	6.782	0.546
774.000	463.099	80.003	19.995	103.223	20.042	6.653	0.498
776.000	464.111	80.004	19.994	103.213	20.043	6.532	0.528
778.000	465.095	80.004	19.996	103.214	20.045	6.434	0.524
780.000	466.105	80.005	19.996	103.215	20.044	6.473	0.503
782.000	467.114	80.004	19.995	103.214	20.046	6.375	0.517
784.000	468.156	80.004	19.995	103.231	20.047	6.235	0.548
786.000	469.160	80.004	19.992	103.231	20.048	6.213	0.492
788.000	470.227	80.005	19.995	103.224	20.045	6.379	0.518
790.000	471.258	80.005	19.993	103.224	20.046	6.307	0.517
792.000	472.300	80.005	19.995	103.216	20.049	6.107	0.507
794.000	473.272	80.004	19.993	103.215	20.053	5.837	0.489
796.000	474.362	80.004	19.993	103.216	20.050	6.073	0.525
798.000	475.406	80.002	19.994	103.217	20.048	6.160	0.534
800.000	476.447	80.004	19.993	103.221	20.052	5.897	0.534
802.000	477.435	80.003	19.995	103.218	20.053	5.811	0.527
804.000	478.474	80.004	19.995	103.226	20.049	6.133	0.497
806.000	479.526	80.003	19.996	103.220	20.052	5.913	0.542
808.000	480.608	80.004	19.995	103.228	20.054	5.757	0.564
810.000	481.615	80.005	19.996	103.220	20.054	5.735	0.528
812.000	482.674	80.005	19.995	103.218	20.057	5.550	0.524
814.000	483.737	80.006	19.995	103.216	20.057	5.555	0.525
816.000	484.776	80.005	19.994	103.221	20.058	5.454	0.520
818.000	485.804	80.005	19.995	103.216	20.059	5.392	0.507
820.000	486.873	80.005	19.997	103.219	20.061	5.276	0.514
822.000	487.966	80.007	19.995	103.218	20.058	5.450	0.549
824.000	488.970	80.005	19.995	103.219	20.059	5.354	0.532
826.000	490.056	80.005	19.995	103.218	20.058	5.440	0.529
828.000	491.098	80.005	19.995	103.213	20.060	5.290	0.494
830.000	492.157	80.005	19.994	103.211	20.056	5.601	0.529
832.000	493.222	80.004	19.996	103.209	20.061	5.266	0.560
834.000	494.270	80.006	19.994	103.211	20.061	5.228	0.543
836.000	495.327	80.007	19.996	103.213	20.059	5.368	0.523
838.000	496.318	80.007	19.994	103.214	20.060	5.310	0.509
840.000	497.352	80.007	19.994	103.222	20.062	5.186	0.523
842.000	498.424	80.006	19.995	103.215	20.061	5.230	0.517
844.000	499.413	80.007	19.995	103.213	20.062	5.196	0.510
846.000	500.474	80.005	19.994	103.213	20.063	5.120	0.532
848.000	501.483	80.004	19.998	103.212	20.059	5.354	0.505
850.000	502.495	80.003	19.995	103.216	20.057	5.570	0.482
852.000	503.523	80.004	19.994	103.216	20.058	5.446	0.519
854.000	504.536	80.005	19.994	103.216	20.058	5.448	0.519
856.000	505.570	80.005	19.994	103.219	20.058	5.484	0.518
858.000	506.558	80.005	19.994	103.220	20.058	5.478	0.500
860.000	507.567	80.004	19.995	103.215	20.062	5.190	0.520
862.000	508.544	80.003	19.993	103.217	20.058	5.436	0.481
864.000	509.576	80.004	19.992	103.215	20.061	5.228	0.501
866.000	510.564	80.005	19.993	103.213	20.057	5.507	0.478
868.000	511.568	80.005	19.995	103.213	20.057	5.506	0.502
870.000	512.595	80.003	19.993	103.212	20.058	5.426	0.529
872.000	513.593	80.004	19.996	103.215	20.061	5.224	0.490
874.000	514.640	80.005	19.995	103.217	20.063	5.071	0.501
876.000	515.673	80.004	19.995	103.226	20.060	5.341	0.525
878.000	516.697	80.004	19.993	103.219	20.062	5.168	0.510
880.000	517.719	80.004	19.996	103.205	20.061	5.225	0.493
882.000	518.730	80.003	19.994	103.212	20.061	5.214	0.500
884.000	519.774	80.004	19.995	103.220	20.062	5.178	0.522
886.000	520.824	80.003	19.995	103.168	20.061	5.256	0.508
888.000	521.803	80.006	19.994	103.228	20.062	5.176	0.512
890.000	522.814	80.006	19.993	103.239	20.061	5.264	0.524
892.000	523.837	80.006	19.994	103.195	20.058	5.486	0.536
894.000	524.828	80.004	19.994	103.213	20.058	5.482	0.484
896.000	525.905	80.004	19.994	103.213	20.061	5.264	0.555
898.000	526.916	80.006	19.993	103.211	20.060	5.348	0.512
900.000	527.909	80.007	19.994	103.213	20.063	5.114	0.504
902.000	528.968	80.005	19.996	103.219	20.061	5.266	0.531
904.000	529.965	80.004	19.996	103.214	20.060	5.320	0.509
906.000	530.959	80.004	19.995	103.212	20.061	5.276	0.489
908.000	532.029	80.003	19.996	103.216	20.060	5.342	0.513
910.000	533.058	80.005	19.996	103.221	20.061	5.258	0.543
912.000	534.081	80.006	19.995	103.211	20.062	5.164	0.503
914.000	535.151	80.004	19.996	103.215	20.062	5.140	0.501
916.000	536.202	80.007	19.994	103.216	20.059	5.374	0.549
918.000	537.222	80.005	19.995	103.212	20.061	5.228	0.522
920.000	538.222	80.006	19.995	103.208	20.060	5.320	0.509
922.000	539.269	80.006	19.992	103.214	20.057	5.514	0.513
924.000	540.331	80.006	19.995	103.216	20.056	5.586	0.544
926.000	541.385	80.007	19.994	103.214	20.054	5.742	0.541
928.000	542.355	80.004	19.994	103.213	20.055	5.646	0.508
930.000	543.437	80.003	19.995	103.209	20.055	5.658	0.560
932.000	544.426	80.003	19.995	103.215	20.055	5.712	0.523
934.000	545.434	80.004	19.995	103.215	20.059	5.356	0.542
936.000	546.434	80.004	19.996	103.215	20.058	5.478	0.499
938.000	547.488	80.003	19.998	103.209	20.058	5.490	0.509
940.000	548.459	80.004	19.994	103.211	20.059	5.356	0.507
942.000	549.475	80.005	19.995	103.205	20.060	5.342	0.525
944.000	550.454	80.005	19.996	103.201	20.060	5.339	0.501
946.000	551.440	80.005	19.994	103.211	20.060	5.314	0.478
948.000	552.518	80.005	19.995	103.214	20.057	5.502	0.513
950.000	553.493	80.005	19.994	103.214	20.059	5.371	0.490
952.000	554.436	80.006	19.996	103.210	20.059	5.413	0.520
954.000	555.492	80.004	19.993	103.199	20.056	5.585	0.519
956.000	556.443	80.005	19.994	103.205	20.057	5.541	0.493
958.000	557.460	80.006	19.995	103.212	20.055	5.710	0.534
960.000	558.411	80.005	19.996	103.204	20.056	5.588	0.493
962.000	559.385	80.002	19.997	103.194	20.056	5.600	0.484
964.000	560.364	80.003	19.994	103.196	20.054	5.734	0.519
966.000	561.388	80.003	19.993	103.186	20.055	5.688	0.526
968.000	562.347	80.006	19.994	103.202	20.054	5.758	0.505
970.000	563.351	80.004	19.995	103.195	20.056	5.618	0.490
972.000	564.325	80.007	19.993	103.210	20.055	5.650	0.489
974.000	565.333	80.005	19.995	103.214	20.053	5.838	0.511
976.000	566.373	80.005	19.996	103.202	20.053	5.794	0.506
978.000	567.308	80.006	19.995	103.206	20.058	5.498	0.488
980.000	568.337	80.007	19.994	103.208	20.057	5.538	0.493
982.000	569.344	80.007	19.994	103.212	20.057	5.534	0.472
984.000	570.395	80.005	19.993	103.214	20.054	5.780	0.518
986.000	571.392	80.005	19.994	103.205	20.055	5.676	0.500
988.000	572.375	80.005	19.993	103.201	20.053	5.814	0.471
990.000	573.406	80.006	19.994	103.214	20.055	5.672	0.531
992.000	574.433	80.004	19.994	103.216	20.058	5.460	0.504
994.000	575.501	80.003	19.996	103.214	20.054	5.740	0.522
996.000	576.516	80.005	19.995	103.204	20.056	5.626	0.544
998.000	577.514	80.005	19.994	103.206	20.057	5.542	0.487
1000.000	578.536	80.006	19.995	103.207	20.054	5.790	0.494
1002.000	579.588	80.006	19.995	103.211	20.057	5.548	0.506
1004.000	580.610	80.007	19.996	103.211	20.055	5.666	0.497
1006.000	581.647	80.007	19.996	103.210	20.057	5.569	0.543
1008.000	582.699	80.008	19.995	103.208	20.057	5.546	0.446
1010.000	583.703	80.006	19.995	103.202	20.058	5.492	0.500
1012.000	584.738	80.005	19.995	103.203	20.055	5.683	0.528
1014.000	585.731	80.006	19.995	103.208	20.051	5.943	0.521
1016.000	586.795	80.005	19.996	103.200	20.055	5.706	0.510
1018.000	587.754	80.005	19.995	103.199	20.055	5.698	0.482
1020.000	588.853	80.006	19.995	103.204	20.054	5.762	0.515
1022.000	589.872	80.006	19.995	103.213	20.048	6.218	0.523
1024.000	590.932	80.005	19.995	103.163	20.048	6.166	0.513
1025.999	591.850	80.004	19.993	103.209	20.053	5.806	0.467
1028.000	592.904	80.004	19.995	103.253	20.052	5.932	0.539
1029.999	593.916	80.006	19.995	103.208	20.054	5.780	0.495
1031.999	594.957	80.006	19.995	103.206	20.052	5.914	0.515
1033.999	596.028	80.006	19.996	103.210	20.051	5.956	0.545
1036.000	597.031	80.005	19.994	103.209	20.054	5.730	0.487
1037.999	598.072	80.003	19.995	103.208	20.054	5.752	0.538
1039.999	599.066	80.005	19.995	103.209	20.052	5.904	0.518
1041.999	600.096	80.006	19.994	103.204	20.051	5.952	0.509
1043.999	601.118	80.005	19.993	103.200	20.050	6.044	0.509
1045.999	602.179	80.003	19.995	103.205	20.051	5.968	0.528
1047.999	603.182	80.003	19.994	103.215	20.050	6.075	0.520
1049.999	604.178	80.003	19.994	103.213	20.049	6.088	0.510
1052.000	605.204	80.004	19.994	103.208	20.049	6.113	0.528
1054.000	606.193	80.007	19.994	103.209	20.049	6.137	0.481
1056.000	607.248	80.006	19.994	103.202	20.048	6.183	0.515
1058.000	608.227	80.007	19.994	103.208	20.046	6.327	0.521
1060.000	609.274	80.005	19.994	103.201	20.048	6.201	0.518
1062.000	610.271	80.006	19.994	103.206	20.049	6.138	0.495
1064.000	611.285	80.007	19.994	103.217	20.046	6.372	0.537
1066.000	612.296	80.006	19.994	103.217	20.049	6.100	0.518
1068.000	613.297	80.006	19.995	103.218	20.049	6.106	0.490
1070.000	614.359	80.006	19.995	103.214	20.046	6.353	0.525
1072.000	615.363	80.006	19.994	103.212	20.047	6.278	0.501
1074.000	616.385	80.006	19.994	103.195	20.047	6.290	0.517
1076.000	617.405	80.008	19.995	103.190	20.043	6.527	0.500
1078.000	618.416	80.006	19.994	103.201	20.045	6.423	0.490
1080.000	619.451	80.006	19.994	103.211	20.041	6.691	0.508
1082.000	620.457	80.008	19.995	103.211	20.044	6.481	0.509
1084.000	621.419	80.008	19.993	103.197	20.043	6.530	0.459
1086.000	622.473	80.008	19.993	103.203	20.042	6.637	0.521
1088.000	623.427	80.006	19.994	103.210	20.046	6.377	0.501
1090.000	624.473	80.006	19.995	103.219	20.046	6.351	0.502
1092.000	625.513	80.006	19.994	103.210	20.044	6.453	0.493
1094.000	626.528	80.006	19.996	103.206	20.043	6.585	0.489
1096.000	627.517	80.005	19.995	103.205	20.045	6.399	0.503
1098.000	628.534	80.004	19.994	103.209	20.045	6.379	0.500
1100.000	629.516	80.004	19.996	103.208	20.045	6.387	0.491
1102.000	630.569	80.005	19.995	103.210	20.043	6.551	0.511
1104.000	631.571	80.005	19.995	103.213	20.043	6.591	0.486
1106.000	632.537	80.003	19.994	103.210	20.041	6.719	0.490
1108.000	633.565	80.004	19.994	103.210	20.043	6.571	0.494
1110.000	634.595	80.005	19.994	103.215	20.042	6.606	0.509
1112.000	635.618	80.005	19.994	103.215	20.041	6.679	0.505
1114.000	636.582	80.006	19.996	103.213	20.046	6.345	0.497
1116.000	637.564	80.004	19.995	103.214	20.045	6.447	0.480
1118.000	638.565	80.005	19.994	103.209	20.043	6.569	0.513
1120.000	639.581	80.003	19.995	103.195	20.043	6.571	0.527
1122.000	640.540	80.005	19.996	103.199	20.043	6.537	0.500
1124.000	641.548	80.003	19.995	103.209	20.041	6.696	0.520
1126.000	642.585	80.003	19.996	103.207	20.040	6.755	0.499
1128.000	643.628	80.002	19.996	103.213	20.045	6.407	0.521
1130.000	644.612	80.003	19.995	103.210	20.041	6.727	0.504
1132.000	645.626	80.004	19.995	103.211	20.040	6.751	0.491
1134.000	646.623	80.005	19.994	103.201	20.040	6.773	0.507
1136.000	647.683	80.006	19.994	103.204	20.040	6.801	0.513
1138.000	648.709	80.006	19.994	103.212	20.039	6.877	0.526
1140.000	649.737	80.006	19.994	103.212	20.040	6.805	0.491
1142.000	650.765	80.008	19.994	103.211	20.041	6.693	0.520
1144.000	651.765	80.006	19.994	103.208	20.039	6.879	0.489
1146.000	652.817	80.005	19.992	103.209	20.037	6.995	0.528
1148.000	653.887	80.006	19.996	103.207	20.036	7.060	0.534
1150.000	654.913	80.005	19.994	103.213	20.035	7.145	0.539
1152.000	655.922	80.005	19.994	103.211	20.037	7.020	0.488
1154.000	656.971	80.007	19.995	103.201	20.036	7.106	0.518
1156.000	658.026	80.005	19.994	103.207	20.036	7.082	0.526
1158.000	659.057	80.006	19.995	103.196	20.036	7.055	0.535
1160.000	660.051	80.006	19.994	103.188	20.037	6.969	0.493
1162.000	661.117	80.007	19.993	103.185	20.034	7.221	0.544
1164.000	662.137	80.007	19.993	103.201	20.032	7.384	0.519
1166.000	663.158	80.008	19.993	103.191	20.034	7.258	0.525
1168.001	664.158	80.007	19.994	103.209	20.036	7.103	0.481
1170.000	665.210	80.007	19.994	103.203	20.032	7.357	0.492
1172.000	666.234	80.008	19.993	103.209	20.033	7.276	0.545
1174.000	667.272	80.005	19.993	103.213	20.037	7.012	0.528
1176.000	668.331	80.007	19.993	103.215	20.037	6.999	0.518
1178.000	669.267	80.006	19.994	103.215	20.035	7.149	0.476
1180.000	670.358	80.004	19.994	103.208	20.037	6.997	0.498
1182.000	671.375	80.006	19.993	103.197	20.034	7.257	0.532
1184.000	672.457	80.004	19.993	103.189	20.037	7.037	0.525
1186.000	673.462	80.006	19.995	103.194	20.034	7.248	0.547
1188.000	674.494	80.004	19.994	103.193	20.034	7.208	0.527
1190.000	675.538	80.005	19.995	103.214	20.035	7.151	0.537
1192.000	676.580	80.006	19.995	103.208	20.036	7.063	0.498
1194.000	677.603	80.004	19.995	103.214	20.037	7.035	0.486
1196.000	678.659	80.005	19.994	103.203	20.034	7.201	0.516
1198.000	679.645	80.006	19.994	103.188	20.031	7.413	0.520
1200.000	680.681	80.005	19.995	103.201	20.033	7.296	0.499
1202.000	681.684	80.005	19.994	103.209	20.032	7.392	0.476
1204.000	682.723	80.005	19.995	103.206	20.033	7.318	0.526
1206.000	683.703	80.005	19.994	103.210	20.029	7.589	0.524
1208.000	684.734	80.005	19.995	103.208	20.029	7.617	0.505
1210.000	685.708	80.005	19.995	103.190	20.032	7.347	0.465
1212.000	686.727	80.005	19.995	103.198	20.031	7.458	0.501
1214.000	687.758	80.004	19.995	103.185	20.028	7.683	0.532
1216.000	688.736	80.004	19.995	103.206	20.030	7.503	0.488
1218.000	689.763	80.006	19.995	103.206	20.029	7.556	0.517
1220.000	690.808	80.005	19.995	103.206	20.032	7.380	0.508
1222.000	691.767	80.006	19.996	103.195	20.027	7.709	0.494
1224.000	692.807	80.007	19.996	103.185	20.028	7.673	0.508
1226.000	693.823	80.006	19.995	103.179	20.031	7.441	0.518
1228.000	694.834	80.006	19.994	103.178	20.030	7.523	0.515
1230.000	695.851	80.006	19.995	103.187	20.028	7.632	0.521
1232.000	696.808	80.005	19.994	103.198	20.025	7.897	0.487
1234.000	697.840	80.006	19.994	103.196	20.026	7.795	0.490
1236.000	698.849	80.006	19.993	103.202	20.027	7.768	0.497
1238.000	699.826	80.006	19.994	103.198	20.027	7.730	0.460
1240.000	700.872	80.007	19.993	103.207	20.026	7.805	0.476
1242.000	701.819	80.007	19.994	103.179	20.021	8.194	0.491
1244.000	702.842	80.006	19.993	103.188	20.028	7.681	0.510
1246.000	703.844	80.009	19.993	103.206	20.028	7.693	0.499
1248.000	704.856	80.009	19.993	103.213	20.030	7.537	0.522
1250.000	705.838	80.008	19.994	103.204	20.028	7.679	0.472
1252.000	706.806	80.006	19.994	103.187	20.026	7.823	0.466
1254.000	707.845	80.007	19.994	103.193	20.025	7.896	0.515
1256.000	708.830	80.006	19.994	103.205	20.030	7.509	0.496
1258.000	709.847	80.006	19.994	103.191	20.028	7.647	0.507
1260.000	710.824	80.006	19.994	103.179	20.023	8.063	0.511
1262.000	711.812	80.005	19.994	103.179	20.027	7.702	0.504
1264.000	712.848	80.005	19.994	103.178	20.025	7.912	0.494
1266.000	713.830	80.005	19.992	103.195	20.024	7.928	0.507
1268.000	714.810	80.005	19.994	103.201	20.024	7.950	0.483
1270.000	715.907	80.005	19.995	103.208	20.026	7.797	0.549
1272.000	716.884	80.005	19.994	103.192	20.028	7.676	0.475
1274.000	717.947	80.006	19.994	103.204	20.028	7.669	0.519
1276.000	718.944	80.006	19.994	103.206	20.026	7.793	0.503
1278.000	719.950	80.006	19.995	103.207	20.023	8.054	0.535
1280.000	720.951	80.006	19.994	103.209	20.025	7.859	0.489
1282.000	721.961	80.005	19.995	103.205	20.024	7.933	0.514
1284.000	722.984	80.005	19.994	103.210	20.021	8.147	0.513
1286.000	723.982	80.006	19.995	103.201	20.026	7.819	0.507
1288.000	725.011	80.005	19.994	103.211	20.025	7.884	0.484
1290.000	726.023	80.005	19.993	103.202	20.024	7.951	0.516
1292.000	727.034	80.005	19.994	103.196	20.018	8.391	0.505
1294.000	728.065	80.005	19.996	103.202	20.026	7.835	0.549
1296.000	729.080	80.003	19.994	103.197	20.021	8.183	0.529
1298.000	730.157	80.005	19.994	103.211	20.028	7.636	0.515
1300.000	731.129	80.006	19.995	103.209	20.030	7.535	0.517
1302.000	732.140	80.006	19.994	103.201	20.021	8.211	0.492
1304.000	733.189	80.007	19.995	103.191	20.023	8.040	0.533
1306.000	734.200	80.006	19.994	103.198	20.021	8.197	0.508
1308.000	735.204	80.006	19.996	103.189	20.019	8.330	0.496
1310.000	736.227	80.005	19.995	103.198	20.022	8.105	0.480
1312.000	737.208	80.004	19.995	103.208	20.020	8.233	0.504
1314.000	738.209	80.005	19.996	103.200	20.019	8.332	0.483
1316.000	739.282	80.006	19.995	103.193	20.016	8.554	0.541
1318.000	740.329	80.005	19.996	103.201	20.017	8.479	0.517
1320.000	741.312	80.006	19.994	103.209	20.013	8.748	0.496
1322.000	742.328	80.007	19.995	103.195	20.017	8.444	0.483
1324.000	743.350	80.006	19.993	103.208	20.017	8.471	0.500
1324.500	743.645	80.008	19.994	103.209	20.014	8.723	0.489