File: 01_Data/Cellulose_Insulation/STA/N2/10K_min/Cellulose_Insulation_STA_N2_10KData_220728_R1.csv
##Temp./Â°C,Time/min,Mass loss(subtr.2)/mg,DSC(subtr.2)/(mW/mg),Sensit./(uV/mW)
49.357,10.01,-0.05709,0.03899491,1.07027
49.957,10.7374,-0.06031737,0.06725514,1.07011
50.557,10.92872,-0.05910917,0.089179,1.06994
51.157,11.07278,-0.0604514,0.10743,1.06978
51.757,11.19213,-0.05960133,0.12552,1.06961
52.357,11.29829,-0.05962692,0.13878,1.06945
52.957,11.3954,-0.06077168,0.15191,1.06928
53.557,11.4861,-0.06145256,0.16355,1.06911
54.157,11.5722,-0.06100438,0.17497,1.06895
54.757,11.6546,-0.06020039,0.18462,1.06878
55.357,11.73413,-0.06127556,0.19108,1.06861
55.957,11.81126,-0.05973789,0.2023,1.06844
56.557,11.8867,-0.06138815,0.20941,1.06827
57.157,11.9604,-0.06299333,0.21516,1.0681
57.757,12.03273,-0.06432916,0.22394,1.06793
58.357,12.10361,-0.06420958,0.22901,1.06777
58.957,12.17405,-0.06321876,0.23627,1.06759
59.557,12.24357,-0.06304416,0.24068,1.06742
60.157,12.31208,-0.0644019,0.24639,1.06725
60.757,12.38025,-0.06433429,0.2501,1.06708
61.357,12.44793,-0.06561234,0.25581,1.06691
61.957,12.51576,-0.06576631,0.25965,1.06674
62.557,12.5825,-0.06696069,0.26694,1.06657
63.157,12.64893,-0.065758,0.26938,1.06639
63.757,12.7148,-0.06567929,0.27275,1.06622
64.357,12.7807,-0.06718519,0.28121,1.06605
64.957,12.84636,-0.06713022,0.28307,1.06587
65.557,12.91126,-0.06850943,0.28977,1.0657
66.157,12.97665,-0.06841332,0.29488,1.06552
66.757,13.04119,-0.06845529,0.29893,1.06535
67.357,13.10575,-0.06983829,0.30308,1.06517
67.957,13.16969,-0.06981984,0.3105,1.065
68.557,13.23365,-0.06981489,0.31538,1.06482
69.157,13.297,-0.07113981,0.31956,1.06464
69.757,13.3615,-0.0724507,0.32431,1.06447
70.357,13.4253,-0.07334417,0.33044,1.06429
70.957,13.48995,-0.07409614,0.33364,1.06411
71.557,13.55406,-0.07382134,0.33945,1.06393
72.157,13.6173,-0.0750175,0.34472,1.06376
72.757,13.6807,-0.0751,0.34888,1.06358
73.357,13.74385,-0.07510144,0.35418,1.0634
73.957,13.807,-0.0764135,0.35958,1.06322
74.557,13.87,-0.07641,0.36346,1.06304
75.157,13.9328,-0.07770559,0.36963,1.06286
75.757,13.99566,-0.07775674,0.37313,1.06268
76.357,14.0582,-0.07969367,0.37833,1.0625
76.957,14.12049,-0.0804012,0.38348,1.06232
77.557,14.18266,-0.08237684,0.38835,1.06213
78.157,14.2447,-0.08226672,0.3932,1.06195
78.757,14.3067,-0.0841508,0.39705,1.06177
79.357,14.36881,-0.08563011,0.40185,1.06159
79.957,14.43045,-0.08694665,0.40586,1.0614
80.557,14.49215,-0.08695077,0.40899,1.06122
81.157,14.5539,-0.08827696,0.41332,1.06103
81.757,14.6156,-0.08826195,0.41581,1.06085
82.357,14.67705,-0.09088357,0.41908,1.06067
82.957,14.7383,-0.09089999,0.42215,1.06048
83.557,14.79915,-0.0909,0.42685,1.06029
84.157,14.8603,-0.09090004,0.42773,1.06011
84.757,14.92138,-0.09230532,0.4328,1.05992
85.357,14.98223,-0.09490457,0.43449,1.05974
85.957,15.04302,-0.09510835,0.43631,1.05955
86.557,15.10399,-0.0961905,0.43983,1.05936
87.157,15.16455,-0.09749371,0.4427,1.05917
87.757,15.225,-0.09751434,0.44399,1.05899
88.357,15.2855,-0.09879681,0.44468,1.0588
88.957,15.34549,-0.10011,0.44525,1.05861
89.557,15.40585,-0.10045,0.44765,1.05842
90.157,15.46594,-0.10147,0.44963,1.05823
90.757,15.526,-0.10388,0.45127,1.05804
91.357,15.58584,-0.10421,0.45194,1.05785
91.957,15.64564,-0.10507,0.45313,1.05766
92.557,15.70541,-0.10542,0.45126,1.05747
93.157,15.7653,-0.10627,0.45227,1.05727
93.757,15.825,-0.10803,0.45566,1.05708
94.357,15.88459,-0.10933,0.4547,1.05689
94.957,15.944,-0.11066,0.45477,1.0567
95.557,16.0035,-0.11096,0.4553,1.0565
96.157,16.0628,-0.11215,0.45647,1.05631
96.757,16.12217,-0.11333,0.45841,1.05612
97.357,16.18137,-0.1133,0.45861,1.05592
97.957,16.2404,-0.11333,0.45812,1.05573
98.557,16.29955,-0.11593,0.45786,1.05553
99.157,16.35864,-0.11716,0.4582,1.05534
99.757,16.41783,-0.11859,0.45931,1.05514
100.357,16.4769,-0.11857,0.45866,1.05494
100.957,16.53565,-0.11948,0.459,1.05475
101.557,16.59467,-0.12088,0.45951,1.05455
102.157,16.65325,-0.12097,0.45939,1.05435
102.757,16.7114,-0.12121,0.45883,1.05415
103.357,16.7701,-0.12252,0.4578,1.05396
103.957,16.82899,-0.12384,0.45627,1.05376
104.557,16.88844,-0.12501,0.45642,1.05356
105.157,16.94693,-0.12647,0.45495,1.05336
105.757,17.00571,-0.12647,0.45401,1.05316
106.357,17.0643,-0.12875,0.4535,1.05296
106.957,17.12323,-0.12887,0.45025,1.05276
107.557,17.18222,-0.1304,0.45036,1.05256
108.157,17.24062,-0.13174,0.44899,1.05236
108.757,17.29915,-0.13174,0.44596,1.05216
109.357,17.35782,-0.13174,0.44594,1.05195
109.957,17.41621,-0.13173,0.44393,1.05175
110.557,17.47478,-0.13306,0.44179,1.05155
111.157,17.53335,-0.13326,0.44173,1.05134
111.757,17.59194,-0.13371,0.43965,1.05114
112.357,17.65028,-0.13371,0.43862,1.05094
112.957,17.7089,-0.13503,0.43677,1.05073
113.557,17.76727,-0.13638,0.43502,1.05053
114.157,17.82565,-0.13699,0.43347,1.05032
114.757,17.88346,-0.13833,0.432,1.05012
115.357,17.94171,-0.13834,0.43093,1.04991
115.957,18,-0.13964,0.42853,1.04971
116.557,18.05857,-0.14097,0.42881,1.0495
117.157,18.11734,-0.14228,0.42567,1.04929
117.757,18.17578,-0.14322,0.42621,1.04908
118.357,18.23401,-0.1436,0.42408,1.04888
118.957,18.29245,-0.14337,0.42311,1.04867
119.557,18.35077,-0.14458,0.42088,1.04846
120.157,18.409,-0.1459,0.42167,1.04825
120.757,18.46731,-0.1459,0.41995,1.04804
121.357,18.52531,-0.1477,0.42009,1.04783
121.957,18.58343,-0.14854,0.41897,1.04762
122.557,18.64172,-0.14984,0.41744,1.04741
123.157,18.6997,-0.14985,0.41746,1.0472
123.757,18.75796,-0.15117,0.41816,1.04699
124.357,18.81625,-0.15117,0.41454,1.04678
124.957,18.8747,-0.1516,0.41461,1.04656
125.557,18.93284,-0.15249,0.41506,1.04635
126.157,18.99097,-0.15247,0.41476,1.04614
126.757,19.04893,-0.15506,0.41189,1.04592
127.357,19.107,-0.15522,0.41309,1.04571
127.957,19.165,-0.15414,0.41201,1.0455
128.557,19.22317,-0.15519,0.41142,1.04528
129.157,19.2811,-0.15512,0.41168,1.04507
129.757,19.339,-0.15638,0.4121,1.04485
130.357,19.39712,-0.15644,0.4084,1.04464
130.957,19.45509,-0.15635,0.41018,1.04442
131.557,19.51302,-0.15776,0.41045,1.0442
132.157,19.57075,-0.15907,0.41011,1.04399
132.757,19.62852,-0.15908,0.40943,1.04377
133.357,19.68647,-0.15908,0.40913,1.04355
133.957,19.74448,-0.16063,0.40822,1.04333
134.557,19.80291,-0.16312,0.40647,1.04311
135.157,19.86094,-0.16435,0.40773,1.0429
135.757,19.919,-0.16303,0.40825,1.04268
136.357,19.97693,-0.16284,0.40909,1.04246
136.957,20.03501,-0.16402,0.40817,1.04224
137.557,20.093,-0.16543,0.40851,1.04202
138.157,20.15029,-0.16665,0.40746,1.0418
138.757,20.20812,-0.16665,0.40916,1.04157
139.357,20.26577,-0.16655,0.40736,1.04135
139.957,20.3237,-0.16797,0.40926,1.04113
140.557,20.38211,-0.16796,0.40697,1.04091
141.157,20.44003,-0.16863,0.40757,1.04068
141.757,20.49804,-0.16994,0.40781,1.04046
142.357,20.55593,-0.16997,0.40843,1.04024
142.957,20.61369,-0.17061,0.409,1.04001
143.557,20.6715,-0.17171,0.40923,1.03979
144.157,20.72916,-0.17325,0.40793,1.03956
144.757,20.787,-0.17323,0.40966,1.03934
145.357,20.84486,-0.17455,0.40883,1.03911
145.957,20.90249,-0.17455,0.41091,1.03889
146.557,20.96019,-0.17455,0.41162,1.03866
147.157,21.01786,-0.17455,0.41184,1.03843
147.757,21.07549,-0.17636,0.41199,1.03821
148.357,21.13315,-0.17719,0.41138,1.03798
148.957,21.19068,-0.17719,0.41165,1.03775
149.557,21.2483,-0.17718,0.41189,1.03752
150.157,21.3059,-0.17851,0.41248,1.03729
150.757,21.3633,-0.17971,0.41357,1.03706
151.357,21.42049,-0.17983,0.41384,1.03683
151.957,21.478,-0.18114,0.41454,1.0366
152.557,21.53531,-0.18113,0.41491,1.03637
153.157,21.59294,-0.18308,0.41362,1.03614
153.757,21.65064,-0.18378,0.41692,1.03591
154.357,21.70812,-0.18378,0.41646,1.03568
154.957,21.7656,-0.18377,0.41543,1.03545
155.557,21.8229,-0.1851,0.41685,1.03522
156.157,21.88016,-0.18641,0.41784,1.03498
156.757,21.93759,-0.18641,0.41711,1.03475
157.357,21.995,-0.18774,0.41561,1.03452
157.957,22.05247,-0.18708,0.41663,1.03428
158.557,22.11001,-0.18707,0.41694,1.03405
159.157,22.1673,-0.18777,0.41602,1.03381
159.757,22.22457,-0.18772,0.4163,1.03358
160.357,22.28191,-0.1897,0.41571,1.03334
160.957,22.33896,-0.19223,0.41595,1.03311
161.557,22.39629,-0.19234,0.41526,1.03287
162.157,22.4537,-0.19258,0.41496,1.03263
162.757,22.51091,-0.19498,0.41595,1.0324
163.357,22.56854,-0.19498,0.41726,1.03216
163.957,22.62581,-0.19498,0.4148,1.03192
164.557,22.6831,-0.19498,0.41349,1.03168
165.157,22.7404,-0.19631,0.41323,1.03144
165.757,22.79756,-0.19631,0.41295,1.0312
166.357,22.85503,-0.19764,0.41122,1.03096
166.957,22.91244,-0.20022,0.41257,1.03072
167.557,22.96976,-0.20024,0.4127,1.03048
168.157,23.0271,-0.20066,0.41339,1.03024
168.757,23.0844,-0.20156,0.41277,1.03
169.357,23.14159,-0.20246,0.41075,1.02976
169.957,23.19885,-0.20543,0.4127,1.02952
170.557,23.2561,-0.20552,0.41196,1.02927
171.157,23.31345,-0.2042,0.40972,1.02903
171.757,23.37087,-0.2042,0.41046,1.02879
172.357,23.4282,-0.2042,0.40956,1.02854
172.957,23.48556,-0.20451,0.40928,1.0283
173.557,23.54233,-0.20549,0.41,1.02805
174.157,23.59955,-0.20683,0.40842,1.02781
174.757,23.65704,-0.20813,0.40691,1.02756
175.357,23.7144,-0.20815,0.4072,1.02732
175.957,23.7723,-0.20815,0.40966,1.02707
176.557,23.82968,-0.20947,0.40793,1.02682
177.157,23.88682,-0.21209,0.40746,1.02658
177.757,23.94396,-0.21207,0.40605,1.02633
178.357,24.0012,-0.21472,0.40625,1.02608
178.957,24.0584,-0.21472,0.40526,1.02583
179.557,24.11571,-0.21342,0.40447,1.02558
180.157,24.173,-0.21344,0.40499,1.02534
180.757,24.23016,-0.2144,0.40455,1.02509
181.357,24.2876,-0.21572,0.40226,1.02484
181.957,24.34498,-0.21572,0.4031,1.02459
182.557,24.40196,-0.21745,0.40219,1.02434
183.157,24.45926,-0.21737,0.40112,1.02408
183.757,24.5165,-0.21971,0.40329,1.02383
184.357,24.5738,-0.22001,0.40155,1.02358
184.957,24.63123,-0.21893,0.40174,1.02333
185.557,24.68851,-0.21996,0.40239,1.02307
186.157,24.7459,-0.22135,0.40375,1.02282
186.757,24.80334,-0.22321,0.40339,1.02257
187.357,24.85996,-0.22396,0.40363,1.02231
187.957,24.91703,-0.22528,0.40507,1.02206
188.557,24.97413,-0.22528,0.40672,1.0218
189.157,25.03132,-0.22529,0.4075,1.02155
189.757,25.089,-0.2266,0.40827,1.02129
190.357,25.14615,-0.2265,0.40783,1.02104
190.957,25.2033,-0.22785,0.41053,1.02078
191.557,25.26035,-0.22923,0.41306,1.02052
192.157,25.31757,-0.23055,0.41371,1.02027
192.757,25.37472,-0.23046,0.41589,1.02001
193.357,25.43189,-0.23187,0.41765,1.01975
193.957,25.48904,-0.23187,0.4186,1.01949
194.557,25.546,-0.23449,0.41927,1.01923
195.157,25.60308,-0.23513,0.42081,1.01897
195.757,25.66035,-0.23581,0.4236,1.01871
196.357,25.71752,-0.237,0.42558,1.01845
196.957,25.77487,-0.23654,0.42834,1.01819
197.557,25.832,-0.23781,0.42891,1.01793
198.157,25.8891,-0.2391,0.43142,1.01767
198.757,25.9463,-0.24032,0.43356,1.01741
199.357,26.0034,-0.24174,0.43465,1.01715
199.957,26.06086,-0.24308,0.43623,1.01688
200.557,26.11808,-0.24387,0.43772,1.01662
201.157,26.1753,-0.24433,0.44198,1.01636
201.757,26.2324,-0.24569,0.44163,1.01609
202.357,26.2895,-0.24566,0.44447,1.01583
202.957,26.34657,-0.24701,0.44497,1.01556
203.557,26.40362,-0.24838,0.44693,1.0153
204.157,26.46057,-0.24964,0.44878,1.01503
204.757,26.51766,-0.25227,0.45179,1.01476
205.357,26.57475,-0.25229,0.45246,1.0145
205.957,26.6318,-0.25361,0.45432,1.01423
206.557,26.689,-0.25492,0.45673,1.01396
207.157,26.74618,-0.25624,0.46053,1.0137
207.757,26.80322,-0.25753,0.45932,1.01343
208.357,26.86028,-0.25954,0.46095,1.01316
208.957,26.91718,-0.25952,0.46086,1.01289
209.557,26.97437,-0.26085,0.46311,1.01262
210.157,27.03165,-0.26196,0.46423,1.01235
210.757,27.08875,-0.26283,0.46864,1.01208
211.357,27.1459,-0.2642,0.46906,1.01181
211.957,27.2031,-0.26551,0.47033,1.01154
212.557,27.2604,-0.26821,0.47285,1.01127
213.157,27.3177,-0.2695,0.47212,1.01099
213.757,27.3746,-0.27097,0.47244,1.01072
214.357,27.43185,-0.2733,0.47269,1.01045
214.957,27.48892,-0.27535,0.47467,1.01018
215.557,27.5462,-0.2767,0.47543,1.0099
216.157,27.6036,-0.27879,0.47482,1.00963
216.757,27.6607,-0.28008,0.47443,1.00935
217.357,27.71793,-0.28136,0.47247,1.00908
217.957,27.7749,-0.2831,0.46711,1.0088
218.557,27.83185,-0.2843,0.46627,1.00853
219.157,27.88895,-0.2856,0.46494,1.00825
219.757,27.94608,-0.28914,0.4646,1.00797
220.357,28.0034,-0.29213,0.46811,1.0077
220.957,28.06059,-0.29334,0.4717,1.00742
221.557,28.11761,-0.296,0.47771,1.00714
222.157,28.17455,-0.29851,0.4871,1.00686
222.757,28.2316,-0.30157,0.49743,1.00659
223.357,28.2885,-0.30474,0.51146,1.00631
223.957,28.3457,-0.30911,0.52819,1.00603
224.557,28.40315,-0.31248,0.54969,1.00575
225.157,28.46047,-0.31601,0.57358,1.00547
225.757,28.51792,-0.32143,0.60288,1.00518
226.357,28.5749,-0.32594,0.63411,1.0049
226.957,28.63219,-0.33288,0.67343,1.00462
227.557,28.68944,-0.34147,0.71614,1.00434
228.157,28.74677,-0.34803,0.75972,1.00406
228.757,28.80435,-0.35635,0.81041,1.00377
229.357,28.86197,-0.36635,0.86806,1.00349
229.957,28.91943,-0.37707,0.92692,1.00321
230.557,28.97696,-0.38933,0.98771,1.00292
231.157,29.0343,-0.40192,1.04847,1.00264
231.757,29.0919,-0.41604,1.10711,1.00235
232.357,29.14951,-0.43327,1.16347,1.00207
232.957,29.2074,-0.4488,1.21674,1.00178
233.557,29.2652,-0.46741,1.26286,1.00149
234.157,29.323,-0.4857,1.29886,1.00121
234.757,29.38079,-0.50564,1.32483,1.00092
235.357,29.4385,-0.52565,1.34019,1.00063
235.957,29.4963,-0.54597,1.343,1.00034
236.557,29.554,-0.56707,1.33484,1.00006
237.157,29.6116,-0.58722,1.31383,0.99977
237.757,29.66923,-0.60845,1.28551,0.99948
238.357,29.72666,-0.62877,1.2489,0.99919
238.957,29.78412,-0.64866,1.20536,0.9989
239.557,29.8411,-0.66821,1.15577,0.99861
240.157,29.8982,-0.68673,1.10602,0.99832
240.757,29.95526,-0.70357,1.05459,0.99802
241.357,30.01265,-0.72088,1.00295,0.99773
241.957,30.06959,-0.73774,0.95081,0.99744
242.557,30.1265,-0.75327,0.89971,0.99715
243.157,30.1833,-0.76819,0.85161,0.99685
243.757,30.2402,-0.78313,0.80862,0.99656
244.357,30.297,-0.79636,0.76563,0.99627
244.957,30.3533,-0.81085,0.72693,0.99597
245.557,30.41,-0.82108,0.68942,0.99568
246.157,30.4666,-0.83299,0.65794,0.99538
246.757,30.52342,-0.8452,0.62758,0.99508
247.357,30.58043,-0.85596,0.60002,0.99479
247.957,30.63717,-0.8648,0.5749,0.99449
248.557,30.6939,-0.87365,0.55006,0.99419
249.157,30.75064,-0.88334,0.53174,0.9939
249.757,30.80718,-0.89216,0.51408,0.9936
250.357,30.86373,-0.89933,0.49563,0.9933
250.957,30.9204,-0.90763,0.48051,0.993
251.557,30.97728,-0.91522,0.46789,0.9927
252.157,31.03458,-0.92277,0.45211,0.9924
252.757,31.09157,-0.93093,0.43936,0.9921
253.357,31.1486,-0.93656,0.43177,0.9918
253.957,31.20546,-0.94406,0.42081,0.9915
254.557,31.26215,-0.95083,0.4117,0.9912
255.157,31.319,-0.95526,0.40343,0.9909
255.757,31.3755,-0.96181,0.39388,0.9906
256.357,31.43225,-0.969,0.38617,0.99029
256.957,31.48886,-0.97462,0.38028,0.98999
257.557,31.5457,-0.98003,0.37305,0.98969
258.157,31.60272,-0.98626,0.36844,0.98938
258.757,31.6596,-0.99163,0.3624,0.98908
259.357,31.7165,-0.99618,0.35743,0.98877
259.957,31.77357,-1.00144,0.35308,0.98847
260.557,31.83049,-1.00621,0.34869,0.98816
261.157,31.88757,-1.01296,0.3444,0.98786
261.757,31.9444,-1.0184,0.34029,0.98755
262.357,32.0013,-1.02331,0.33763,0.98724
262.957,32.05813,-1.0272,0.33426,0.98693
263.557,32.11508,-1.03253,0.3307,0.98663
264.157,32.17199,-1.03628,0.32714,0.98632
264.757,32.22868,-1.0407,0.32536,0.98601
265.357,32.28546,-1.04682,0.32197,0.9857
265.957,32.3422,-1.05191,0.3189,0.98539
266.557,32.39906,-1.05531,0.316,0.98508
267.157,32.45623,-1.06026,0.31243,0.98477
267.757,32.51342,-1.06424,0.30876,0.98446
268.357,32.57062,-1.06854,0.30582,0.98415
268.957,32.6277,-1.07326,0.30325,0.98384
269.557,32.68442,-1.07762,0.30178,0.98352
270.157,32.74136,-1.08348,0.29951,0.98321
270.757,32.79821,-1.08677,0.29836,0.9829
271.357,32.8553,-1.08968,0.29509,0.98258
271.957,32.91258,-1.09375,0.29193,0.98227
272.557,32.96946,-1.09901,0.29024,0.98196
273.157,33.0266,-1.10309,0.28817,0.98164
273.757,33.0837,-1.10785,0.28564,0.98132
274.357,33.14085,-1.11225,0.28539,0.98101
274.957,33.1983,-1.11643,0.28253,0.98069
275.557,33.2553,-1.12059,0.28195,0.98038
276.157,33.31242,-1.1253,0.28041,0.98006
276.757,33.36954,-1.12979,0.27832,0.97974
277.357,33.42671,-1.13447,0.27579,0.97942
277.957,33.4839,-1.13678,0.27396,0.97911
278.557,33.54118,-1.14134,0.27185,0.97879
279.157,33.59832,-1.14512,0.27001,0.97847
279.757,33.65535,-1.14879,0.26833,0.97815
280.357,33.7126,-1.15235,0.26608,0.97783
280.957,33.76995,-1.15877,0.26622,0.97751
281.557,33.82725,-1.16364,0.26519,0.97719
282.157,33.8847,-1.16657,0.26277,0.97686
282.757,33.9418,-1.17057,0.25923,0.97654
283.357,33.999,-1.17542,0.25964,0.97622
283.957,34.05615,-1.17859,0.25817,0.9759
284.557,34.1133,-1.18338,0.25548,0.97557
285.157,34.17052,-1.18633,0.25481,0.97525
285.757,34.22787,-1.19131,0.25206,0.97493
286.357,34.28563,-1.19639,0.25126,0.9746
286.957,34.34315,-1.20004,0.24727,0.97428
287.557,34.40064,-1.20395,0.24737,0.97395
288.157,34.45791,-1.20779,0.2449,0.97363
288.757,34.51506,-1.21237,0.24389,0.9733
289.357,34.5721,-1.21602,0.24428,0.97297
289.957,34.6295,-1.22096,0.24405,0.97265
290.557,34.68674,-1.22483,0.24295,0.97232
291.157,34.74402,-1.22803,0.24101,0.97199
291.757,34.8014,-1.23162,0.2409,0.97166
292.357,34.85883,-1.23706,0.23806,0.97133
292.957,34.91638,-1.2412,0.2373,0.971
293.557,34.9739,-1.24524,0.23745,0.97067
294.157,35.0312,-1.24839,0.23421,0.97034
294.757,35.0886,-1.2529,0.23464,0.97001
295.357,35.146,-1.25758,0.23322,0.96968
295.957,35.2033,-1.26119,0.23007,0.96935
296.557,35.26013,-1.2657,0.23132,0.96902
297.157,35.31754,-1.26992,0.23001,0.96869
297.757,35.37486,-1.27401,0.22587,0.96835
298.357,35.43242,-1.27827,0.22532,0.96802
298.957,35.49041,-1.28313,0.22248,0.96769
299.557,35.54773,-1.28833,0.22252,0.96735
300.157,35.60505,-1.29219,0.22125,0.96702
300.757,35.66239,-1.29729,0.21881,0.96668
301.357,35.71982,-1.30113,0.21633,0.96635
301.957,35.77722,-1.30607,0.21594,0.96601
302.557,35.8347,-1.31041,0.21331,0.96568
303.157,35.89215,-1.31452,0.21118,0.96534
303.757,35.94892,-1.31791,0.21055,0.965
304.357,36.00651,-1.32372,0.20823,0.96466
304.957,36.06385,-1.32794,0.20739,0.96433
305.557,36.12148,-1.33315,0.2056,0.96399
306.157,36.1793,-1.33722,0.20287,0.96365
306.757,36.23672,-1.34085,0.20048,0.96331
307.357,36.29424,-1.34523,0.20043,0.96297
307.957,36.35179,-1.35096,0.19665,0.96263
308.557,36.4093,-1.35488,0.19548,0.96229
309.157,36.4668,-1.36036,0.19501,0.96195
309.757,36.52427,-1.36361,0.19021,0.96161
310.357,36.58173,-1.36898,0.19066,0.96126
310.957,36.63937,-1.37279,0.18756,0.96092
311.557,36.69703,-1.37779,0.18682,0.96058
312.157,36.7546,-1.38155,0.18419,0.96024
312.757,36.8122,-1.38655,0.18212,0.95989
313.357,36.8697,-1.39073,0.17814,0.95955
313.957,36.92706,-1.39606,0.17741,0.9592
314.557,36.9845,-1.40139,0.17652,0.95886
315.157,37.04211,-1.40588,0.17457,0.95851
315.757,37.0997,-1.41004,0.17268,0.95817
316.357,37.1574,-1.4144,0.17104,0.95782
316.957,37.21498,-1.41781,0.16853,0.95747
317.557,37.27251,-1.42379,0.16717,0.95713
318.157,37.33008,-1.42763,0.16501,0.95678
318.757,37.38753,-1.43305,0.16411,0.95643
319.357,37.44505,-1.43653,0.16192,0.95608
319.957,37.50265,-1.441,0.16041,0.95573
320.557,37.5602,-1.44466,0.15832,0.95538
321.157,37.61768,-1.45144,0.15537,0.95503
321.757,37.67525,-1.45419,0.15348,0.95468
322.357,37.7328,-1.45822,0.15244,0.95433
322.957,37.79053,-1.46279,0.14843,0.95398
323.557,37.8482,-1.46818,0.14856,0.95363
324.157,37.9059,-1.47324,0.1471,0.95328
324.757,37.96351,-1.47809,0.14434,0.95292
325.357,38.02111,-1.48234,0.14129,0.95257
325.957,38.07875,-1.48676,0.13914,0.95222
326.557,38.1363,-1.49092,0.13761,0.95186
327.157,38.19386,-1.49598,0.13699,0.95151
327.757,38.25152,-1.50014,0.13293,0.95115
328.357,38.30921,-1.50459,0.13284,0.9508
328.957,38.36684,-1.50917,0.1304,0.95044
329.557,38.42457,-1.51388,0.12701,0.95009
330.157,38.48232,-1.51823,0.12415,0.94973
330.757,38.53995,-1.52127,0.12233,0.94937
331.357,38.59778,-1.52561,0.1205,0.94902
331.957,38.6556,-1.53038,0.11983,0.94866
332.557,38.7134,-1.53524,0.11689,0.9483
333.157,38.77126,-1.54084,0.1129,0.94794
333.757,38.82897,-1.54576,0.11253,0.94758
334.357,38.88657,-1.54988,0.11037,0.94722
334.957,38.94412,-1.5534,0.10892,0.94686
335.557,39.00165,-1.55738,0.1075,0.9465
336.157,39.05936,-1.5635,0.10515,0.94614
336.757,39.11721,-1.5678,0.10337,0.94578
337.357,39.17453,-1.57152,0.10055,0.94542
337.957,39.23236,-1.57524,0.09717199,0.94506
338.557,39.2901,-1.58079,0.09614875,0.94469
339.157,39.34802,-1.58496,0.09498471,0.94433
339.757,39.4058,-1.58971,0.09068196,0.94397
340.357,39.46376,-1.59425,0.08953949,0.9436
340.957,39.52159,-1.59804,0.08666187,0.94324
341.557,39.57959,-1.6017,0.08413476,0.94287
342.157,39.63729,-1.60588,0.08026363,0.94251
342.757,39.6947,-1.60881,0.08005043,0.94214
343.357,39.75266,-1.61361,0.07638996,0.94178
343.957,39.8106,-1.61763,0.0757842,0.94141
344.557,39.86849,-1.62332,0.07334752,0.94104
345.157,39.92657,-1.62776,0.0717031,0.94068
345.757,39.98418,-1.63069,0.07032467,0.94031
346.357,40.04189,-1.63517,0.0676981,0.93994
346.957,40.09957,-1.63892,0.06430745,0.93957
347.557,40.1573,-1.64308,0.06363536,0.9392
348.157,40.2153,-1.64834,0.06024177,0.93883
348.757,40.27335,-1.65392,0.05922313,0.93846
349.357,40.3313,-1.66171,0.05670523,0.93809
349.957,40.38935,-1.66528,0.05638185,0.93772
350.557,40.44709,-1.66829,0.05373144,0.93735
351.157,40.50503,-1.67271,0.05167511,0.93698
351.757,40.5627,-1.67731,0.0482501,0.9366
352.357,40.6205,-1.68135,0.04653739,0.93623
352.957,40.6785,-1.68578,0.04290669,0.93586
353.557,40.73652,-1.68987,0.0409014,0.93548
354.157,40.79469,-1.69369,0.04020371,0.93511
354.757,40.85272,-1.69739,0.03781817,0.93473
355.357,40.9107,-1.70247,0.03496491,0.93436
355.957,40.96855,-1.70539,0.03419889,0.93398
356.557,41.02639,-1.70967,0.03139735,0.93361
357.157,41.08422,-1.71467,0.03013572,0.93323
357.757,41.14188,-1.72057,0.02883148,0.93286
358.357,41.19984,-1.72524,0.0249252,0.93248
358.957,41.2577,-1.73002,0.02437269,0.9321
359.557,41.31583,-1.73378,0.02421006,0.93172
360.157,41.37384,-1.73743,0.02156144,0.93134
360.757,41.4317,-1.74171,0.02075268,0.93097
361.357,41.48981,-1.74402,0.01889317,0.93059
361.957,41.548,-1.74703,0.01724312,0.93021
362.557,41.606,-1.75056,0.01390506,0.92983
363.157,41.66401,-1.75413,0.01362099,0.92945
363.757,41.72198,-1.75907,0.0120275,0.92906
364.357,41.78,-1.76159,0.00935388,0.92868
364.957,41.83811,-1.76336,0.005108856,0.9283
365.557,41.89601,-1.76541,0.003556718,0.92792
366.157,41.95408,-1.77079,0.001694075,0.92754
366.757,42.012,-1.77916,-0.00110808,0.92715
367.357,42.07005,-1.7852,-0.00244706,0.92677
367.957,42.1282,-1.78983,-0.002999125,0.92638
368.557,42.18633,-1.79452,-0.005503573,0.926
369.157,42.24458,-1.79908,-0.005158678,0.92561
369.757,42.30291,-1.80416,-0.009120556,0.92523
370.357,42.36128,-1.8077,-0.007519761,0.92484
370.957,42.41946,-1.81335,-0.01038848,0.92446
371.557,42.47766,-1.817,-0.01121773,0.92407
372.157,42.53582,-1.82151,-0.01132274,0.92368
372.757,42.59414,-1.82682,-0.01383235,0.92329
373.357,42.65245,-1.83139,-0.01530708,0.92291
373.957,42.71055,-1.83525,-0.01512155,0.92252
374.557,42.76879,-1.84026,-0.01797559,0.92213
375.157,42.82692,-1.84439,-0.01776479,0.92174
375.757,42.88505,-1.84789,-0.02021406,0.92135
376.357,42.9433,-1.85176,-0.01836339,0.92096
376.957,43.00158,-1.8561,-0.02092107,0.92057
377.557,43.0599,-1.86115,-0.01991765,0.92018
378.157,43.11815,-1.86361,-0.02156905,0.91979
378.757,43.17605,-1.86836,-0.02118751,0.91939
379.357,43.23429,-1.87319,-0.02050297,0.919
379.957,43.29266,-1.87546,-0.02196022,0.91861
380.557,43.35112,-1.87964,-0.02138231,0.91821
381.157,43.40945,-1.88405,-0.02264544,0.91782
381.757,43.4677,-1.88931,-0.02338757,0.91743
382.357,43.52613,-1.89331,-0.02388579,0.91703
382.957,43.5845,-1.89695,-0.02250528,0.91664
383.557,43.64268,-1.90126,-0.02207499,0.91624
384.157,43.70073,-1.90631,-0.02105158,0.91585
384.757,43.759,-1.9096,-0.02276624,0.91545
385.357,43.8176,-1.91343,-0.02065164,0.91505
385.957,43.87619,-1.91774,-0.0206196,0.91466
386.557,43.93442,-1.92144,-0.02165163,0.91426
387.157,43.99261,-1.92595,-0.02029171,0.91386
387.757,44.05088,-1.92922,-0.01850974,0.91346
388.357,44.10929,-1.93314,-0.0187724,0.91306
388.957,44.1678,-1.93641,-0.01696777,0.91266
389.557,44.22623,-1.94126,-0.01765423,0.91226
390.157,44.28458,-1.94361,-0.01592793,0.91186
390.757,44.3429,-1.94701,-0.01539319,0.91146
391.357,44.40135,-1.95007,-0.01521694,0.91106
391.957,44.45975,-1.9551,-0.0132523,0.91066
392.557,44.518,-1.95953,-0.01189686,0.91026
393.157,44.57629,-1.96133,-0.00893734,0.90985
393.757,44.6346,-1.96602,-0.008245846,0.90945
394.357,44.69287,-1.97015,-0.008038701,0.90905
394.957,44.7511,-1.97456,-0.00623043,0.90864
395.557,44.8095,-1.9778,-0.00540148,0.90824
396.157,44.86788,-1.98146,-0.00298908,0.90784
396.757,44.9262,-1.98505,-0.00166629,0.90743
397.357,44.98464,-1.98696,-0.001220685,0.90702
397.957,45.04291,-1.98876,0.002674452,0.90662
398.557,45.10133,-1.99168,0.00372594,0.90621
399.157,45.15957,-1.99582,0.004986491,0.90581
399.757,45.21796,-1.9994,0.006599123,0.9054
400.357,45.27625,-2.00277,0.00801361,0.90499
400.957,45.33466,-2.00574,0.009329964,0.90458
401.557,45.393,-2.0085,0.01032916,0.90417
402.157,45.4514,-2.01181,0.0116437,0.90377
402.757,45.50973,-2.01486,0.01401266,0.90336
403.357,45.56794,-2.01818,0.01738105,0.90295
403.957,45.62628,-2.02101,0.01807608,0.90254
404.557,45.68463,-2.02161,0.01892609,0.90213
405.157,45.74313,-2.02521,0.02011418,0.90171
405.757,45.80157,-2.02793,0.02063115,0.9013
406.357,45.85973,-2.03088,0.02434364,0.90089
406.957,45.9181,-2.03379,0.02464955,0.90048
407.557,45.97663,-2.03679,0.02671644,0.90007
408.157,46.03504,-2.04019,0.02965193,0.89965
408.757,46.09413,-2.04277,0.02988817,0.89924
409.357,46.15263,-2.04613,0.03267545,0.89882
409.957,46.21103,-2.04888,0.03423071,0.89841
410.557,46.26956,-2.05064,0.03530209,0.898
411.157,46.32765,-2.05379,0.0366224,0.89758
411.757,46.38613,-2.05624,0.0383598,0.89716
412.357,46.44482,-2.05795,0.03957486,0.89675
412.957,46.50346,-2.06062,0.04038685,0.89633
413.557,46.56198,-2.06436,0.04407498,0.89591
414.157,46.6205,-2.06558,0.04432438,0.8955
414.757,46.6792,-2.06838,0.04657933,0.89508
415.357,46.738,-2.06991,0.04686343,0.89466
415.957,46.79674,-2.07292,0.04702051,0.89424
416.557,46.85539,-2.07551,0.04760081,0.89382
417.157,46.91387,-2.07756,0.05027394,0.8934
417.757,46.9722,-2.08074,0.05189419,0.89298
418.357,47.03069,-2.08342,0.05214472,0.89256
418.957,47.089,-2.08511,0.055748,0.89214
419.557,47.14767,-2.08827,0.05543309,0.89172
420.157,47.20637,-2.09007,0.05627131,0.8913
420.757,47.26552,-2.09289,0.05920745,0.89088
421.357,47.32421,-2.09449,0.05856686,0.89045
421.957,47.383,-2.09697,0.06157573,0.89003
422.557,47.4415,-2.09932,0.06155383,0.88961
423.157,47.50025,-2.10159,0.06202884,0.88918
423.757,47.55914,-2.1029,0.06487084,0.88876
424.357,47.61775,-2.10519,0.06409569,0.88833
424.957,47.67666,-2.10658,0.06614716,0.88791
425.557,47.73536,-2.10984,0.06746232,0.88748
426.157,47.79416,-2.11157,0.0679657,0.88706
426.757,47.853,-2.1152,0.06832447,0.88663
427.357,47.91187,-2.11552,0.06881003,0.8862
427.957,47.9709,-2.11712,0.07124263,0.88578
428.557,48.02977,-2.11869,0.06993086,0.88535
429.157,48.08866,-2.11983,0.07096394,0.88492
429.757,48.14754,-2.12158,0.0709886,0.88449
430.357,48.20644,-2.12382,0.07385783,0.88406
430.957,48.26535,-2.12568,0.07542358,0.88363
431.557,48.32425,-2.12786,0.07669095,0.8832
432.157,48.38295,-2.13056,0.07687398,0.88277
432.757,48.44177,-2.13331,0.0772305,0.88234
433.357,48.50065,-2.13476,0.07856621,0.88191
433.957,48.55962,-2.13701,0.08056618,0.88148
434.557,48.61862,-2.13874,0.08030987,0.88105
435.157,48.6774,-2.14149,0.078663,0.88062
435.757,48.73614,-2.14147,0.08140601,0.88018
436.357,48.79495,-2.14274,0.08366591,0.87975
436.957,48.8536,-2.14506,0.08419752,0.87932
437.557,48.91265,-2.14832,0.08439301,0.87888
438.157,48.9716,-2.14954,0.08546641,0.87845
438.757,49.03038,-2.15157,0.08561334,0.87802
439.357,49.0893,-2.15346,0.08709183,0.87758
439.957,49.14803,-2.15506,0.08765186,0.87714
440.557,49.20693,-2.1575,0.08737361,0.87671
441.157,49.26593,-2.15813,0.08893991,0.87627
441.757,49.32477,-2.15936,0.08979001,0.87583
442.357,49.38371,-2.16147,0.08897307,0.8754
442.957,49.44257,-2.16373,0.09088914,0.87496
443.557,49.50142,-2.16596,0.0919968,0.87452
444.157,49.5603,-2.16748,0.09490007,0.87408
444.757,49.619,-2.16989,0.09578545,0.87364
445.357,49.6776,-2.17119,0.0949234,0.87321
445.957,49.73652,-2.17105,0.09645554,0.87277
446.557,49.7954,-2.17245,0.09664559,0.87233
447.157,49.85431,-2.17524,0.09651225,0.87188
447.757,49.91329,-2.17654,0.09682942,0.87144
448.357,49.97221,-2.17789,0.09812341,0.871
448.957,50.03114,-2.18007,0.09880258,0.87056
449.557,50.0901,-2.18163,0.09940089,0.87012
450.157,50.14904,-2.18335,0.09843468,0.86968
450.757,50.20793,-2.18468,0.10012,0.86923
451.357,50.26667,-2.18666,0.09972931,0.86879
451.957,50.32565,-2.18869,0.10066,0.86835
452.557,50.3844,-2.19,0.10117,0.8679
453.157,50.4433,-2.1899,0.10152,0.86746
453.757,50.50226,-2.19129,0.10294,0.86701
454.357,50.5614,-2.19397,0.10373,0.86657
454.957,50.62063,-2.19522,0.10276,0.86612
455.557,50.67973,-2.19652,0.10227,0.86567
456.157,50.73872,-2.1982,0.10306,0.86523
456.757,50.7978,-2.19952,0.10315,0.86478
457.357,50.85678,-2.20096,0.10487,0.86433
457.957,50.91599,-2.20204,0.10377,0.86388
458.557,50.9752,-2.20394,0.1025,0.86344
459.157,51.0344,-2.20562,0.10443,0.86299
459.757,51.09356,-2.20617,0.10365,0.86254
460.357,51.15276,-2.20747,0.10346,0.86209
460.957,51.2119,-2.20999,0.10184,0.86164
461.557,51.27109,-2.21115,0.10274,0.86119
462.157,51.33024,-2.21246,0.102,0.86074
462.757,51.38939,-2.21376,0.10273,0.86029
463.357,51.44877,-2.21652,0.09950598,0.85983
463.957,51.5077,-2.21784,0.10224,0.85938
464.557,51.56687,-2.21917,0.10286,0.85893
465.157,51.62603,-2.22049,0.10187,0.85848
465.757,51.6849,-2.22035,0.09862288,0.85802
466.357,51.74403,-2.22217,0.10196,0.85757
466.957,51.80314,-2.22347,0.10138,0.85712
467.557,51.86238,-2.22574,0.1006,0.85666
468.157,51.9221,-2.22705,0.10118,0.85621
468.757,51.98108,-2.22838,0.10067,0.85575
469.357,52.04012,-2.2297,0.10003,0.8553
469.957,52.09917,-2.22969,0.10215,0.85484
470.557,52.1584,-2.23102,0.10028,0.85438
471.157,52.2174,-2.23233,0.10016,0.85393
471.757,52.27649,-2.23368,0.10072,0.85347
472.357,52.33538,-2.23496,0.10108,0.85301
472.957,52.3943,-2.23502,0.10129,0.85255
473.557,52.45325,-2.23625,0.10168,0.8521
474.157,52.51229,-2.2376,0.10168,0.85164
474.757,52.57141,-2.23787,0.10205,0.85118
475.357,52.63026,-2.23939,0.1026,0.85072
475.957,52.68925,-2.24066,0.09931261,0.85026
476.557,52.74841,-2.24196,0.10061,0.8498
477.157,52.8076,-2.24433,0.09989739,0.84934
477.757,52.8667,-2.24563,0.09844575,0.84888
478.357,52.92589,-2.24695,0.09677893,0.84841
478.957,52.98485,-2.24862,0.09866818,0.84795
479.557,53.0437,-2.25088,0.09812411,0.84749
480.157,53.10266,-2.25177,0.09898117,0.84703
480.757,53.1616,-2.25299,0.09751272,0.84656
481.357,53.22087,-2.25221,0.09818421,0.8461
481.957,53.28012,-2.25352,0.09557961,0.84564
482.557,53.3393,-2.25484,0.09742907,0.84517
483.157,53.39852,-2.25615,0.09563651,0.84471
483.757,53.45757,-2.2575,0.09434379,0.84424
484.357,53.5168,-2.2575,0.09444528,0.84378
484.957,53.57584,-2.25859,0.0943686,0.84331
485.557,53.6351,-2.2588,0.09305631,0.84284
486.157,53.69438,-2.26009,0.0923555,0.84238
486.757,53.7535,-2.26148,0.09016126,0.84191
487.357,53.8124,-2.26273,0.09175533,0.84144
487.957,53.8717,-2.26471,0.09233996,0.84097
488.557,53.9309,-2.26506,0.09130578,0.84051
489.157,53.99051,-2.26669,0.09220496,0.84004
489.757,54.04985,-2.26801,0.09155233,0.83957
490.357,54.10926,-2.26935,0.09208245,0.8391
490.957,54.1685,-2.27032,0.09081976,0.83863
491.557,54.22778,-2.27109,0.09233306,0.83816
492.157,54.28699,-2.27166,0.09369181,0.83769
492.757,54.34616,-2.27295,0.09236696,0.83722
493.357,54.4056,-2.27425,0.09164019,0.83675
493.957,54.46504,-2.27475,0.09209072,0.83627
494.557,54.52459,-2.27457,0.09190285,0.8358
495.157,54.5839,-2.27592,0.08930351,0.83533
495.757,54.64323,-2.27729,0.0900045,0.83486
496.357,54.7025,-2.2784,0.08925513,0.83438
496.957,54.76189,-2.2787,0.08643105,0.83391
497.557,54.82133,-2.28033,0.08495839,0.83344
498.157,54.88058,-2.2825,0.0862172,0.83296
498.757,54.9399,-2.2825,0.08438167,0.83249
499.357,54.9993,-2.28285,0.08875575,0.83201
499.957,55.0588,-2.28384,0.08596694,0.83154
500.557,55.1179,-2.28514,0.08630191,0.83106
501.157,55.17728,-2.28513,0.08719808,0.83058
501.757,55.23652,-2.28658,0.08656503,0.83011
502.357,55.2957,-2.28786,0.08790164,0.82963
502.957,55.3552,-2.28877,0.08760076,0.82915
503.557,55.41449,-2.2891,0.08673388,0.82868
504.157,55.47375,-2.28939,0.08563982,0.8282
504.757,55.53301,-2.29174,0.08562358,0.82772
505.357,55.5923,-2.29304,0.08346276,0.82724
505.957,55.65166,-2.29434,0.0836624,0.82676
506.557,55.7111,-2.29567,0.08389363,0.82628
507.157,55.77029,-2.29568,0.08667966,0.8258
507.757,55.82962,-2.29699,0.08416917,0.82532
508.357,55.88893,-2.29831,0.08449487,0.82484
508.957,55.94823,-2.29701,0.08541896,0.82436
509.557,56.0078,-2.29836,0.08295034,0.82388
510.157,56.0672,-2.29967,0.08272871,0.82339
510.757,56.12659,-2.30096,0.08490364,0.82291
511.357,56.18585,-2.30085,0.08337666,0.82243
511.957,56.24513,-2.30227,0.08297286,0.82195
512.557,56.30449,-2.30267,0.08437458,0.82146
513.157,56.3638,-2.30363,0.0828492,0.82098
513.757,56.42337,-2.30358,0.081539,0.82049
514.357,56.48287,-2.30492,0.08133618,0.82001
514.957,56.5423,-2.30757,0.08234302,0.81953
515.557,56.6018,-2.30753,0.08342168,0.81904
516.157,56.6613,-2.30752,0.08115587,0.81855
516.757,56.7208,-2.30825,0.08246929,0.81807
517.357,56.7801,-2.31117,0.08339804,0.81758
517.957,56.8393,-2.31221,0.08214045,0.8171
518.557,56.8988,-2.31017,0.08277414,0.81661
519.157,56.95824,-2.31152,0.08484519,0.81612
519.757,57.0175,-2.31166,0.08699845,0.81563
520.357,57.07668,-2.31294,0.08772478,0.81514
520.957,57.1357,-2.31412,0.08816901,0.81466
521.557,57.1951,-2.3157,0.09048177,0.81417
522.157,57.2545,-2.31676,0.09152817,0.81368
522.757,57.31406,-2.3171,0.09372261,0.81319
523.357,57.3736,-2.31797,0.09470667,0.8127
523.957,57.43305,-2.31822,0.09619968,0.81221
524.557,57.4925,-2.31934,0.09617798,0.81172
525.157,57.55195,-2.32071,0.09606418,0.81123
525.757,57.6114,-2.32071,0.09793916,0.81073
526.357,57.6709,-2.32177,0.09621527,0.81024
526.957,57.7304,-2.32266,0.09793543,0.80975
527.557,57.7899,-2.32335,0.09754277,0.80926
528.157,57.84941,-2.32467,0.09803715,0.80876
528.757,57.90914,-2.32466,0.09975858,0.80827
529.357,57.9687,-2.32489,0.09922654,0.80778
529.957,58.0283,-2.32594,0.09715583,0.80728
530.557,58.0878,-2.32652,0.09834721,0.80679
531.157,58.14744,-2.32729,0.09803042,0.80629
531.757,58.2071,-2.32862,0.09618286,0.8058
532.357,58.2666,-2.32994,0.09673497,0.8053
532.957,58.32603,-2.33125,0.09763804,0.80481
533.557,58.38579,-2.33255,0.09684944,0.80431
534.157,58.44559,-2.33127,0.09582518,0.80382
534.757,58.5051,-2.33152,0.0967271,0.80332
535.357,58.56488,-2.3319,0.09753426,0.80282
535.957,58.62444,-2.33322,0.0963443,0.80232
536.557,58.68419,-2.33322,0.0958006,0.80183
537.157,58.7439,-2.33341,0.09750835,0.80133
537.757,58.80361,-2.33524,0.09932525,0.80083
538.357,58.86329,-2.33584,0.09759587,0.80033
538.957,58.9229,-2.33477,0.09871087,0.79983
539.557,58.9823,-2.33586,0.09915196,0.79933
540.157,59.0419,-2.33588,0.0994903,0.79883
540.757,59.10139,-2.33695,0.09751215,0.79833
541.357,59.16117,-2.3385,0.09909091,0.79783
541.957,59.22073,-2.33981,0.09923963,0.79733
542.557,59.2803,-2.34114,0.09931683,0.79683
543.157,59.3397,-2.34113,0.09815229,0.79633
543.757,59.39924,-2.34245,0.10071,0.79583
544.357,59.4587,-2.34379,0.10131,0.79532
544.957,59.5183,-2.34266,0.10063,0.79482
545.557,59.57776,-2.34492,0.10033,0.79432
546.157,59.6373,-2.34655,0.10238,0.79381
546.757,59.6968,-2.34851,0.10084,0.79331
547.357,59.75635,-2.35049,0.10346,0.79281
547.957,59.81604,-2.35178,0.10489,0.7923
548.557,59.8757,-2.3531,0.10609,0.7918
549.157,59.9355,-2.35345,0.10509,0.79129
549.757,59.995,-2.3548,0.10539,0.79079
550.357,60.05458,-2.35761,0.10677,0.79028
550.957,60.1141,-2.36168,0.10709,0.78977
551.557,60.1738,-2.36319,0.10868,0.78927
552.157,60.23372,-2.36178,0.10702,0.78876
552.757,60.29335,-2.36167,0.10775,0.78825
553.357,60.353,-2.36127,0.10875,0.78775
553.957,60.41264,-2.36172,0.10968,0.78724
554.557,60.47237,-2.36308,0.10876,0.78673
555.157,60.53199,-2.36176,0.10887,0.78622
555.757,60.59169,-2.36316,0.10943,0.78571
556.357,60.65127,-2.36309,0.10922,0.7852
556.957,60.7109,-2.36312,0.10703,0.78469
557.557,60.7707,-2.3644,0.10916,0.78418
558.157,60.83047,-2.36573,0.11084,0.78367
558.757,60.8901,-2.3644,0.11068,0.78316
559.357,60.94989,-2.36572,0.11099,0.78265
559.957,61.0095,-2.36696,0.11037,0.78214
560.557,61.0693,-2.36836,0.11009,0.78163
561.157,61.12919,-2.36968,0.11128,0.78112
561.757,61.18911,-2.36873,0.11056,0.78061
562.357,61.24892,-2.36869,0.11108,0.78009
562.957,61.3087,-2.37001,0.11051,0.77958
563.557,61.36834,-2.37002,0.10983,0.77907
564.157,61.42782,-2.37132,0.10999,0.77856
564.757,61.4874,-2.37262,0.11115,0.77804
565.357,61.547,-2.37333,0.11358,0.77753
565.957,61.607,-2.37396,0.11117,0.77701
566.557,61.6668,-2.37396,0.11314,0.7765
567.157,61.72682,-2.37372,0.11166,0.77598
567.757,61.7868,-2.37491,0.11469,0.77547
568.357,61.8463,-2.37373,0.11183,0.77495
568.957,61.9061,-2.37629,0.11214,0.77444
569.557,61.9657,-2.37641,0.11268,0.77392
570.157,62.0253,-2.37726,0.11207,0.7734
570.757,62.0851,-2.37875,0.11381,0.77289
571.357,62.14507,-2.379,0.11266,0.77237
571.957,62.205,-2.37899,0.11333,0.77185
572.557,62.2652,-2.38032,0.11568,0.77133
573.157,62.3253,-2.38162,0.11334,0.77082
573.757,62.38521,-2.38175,0.11376,0.7703
574.357,62.44515,-2.38159,0.1134,0.76978
574.957,62.50519,-2.38425,0.11445,0.76926
575.557,62.5654,-2.38691,0.11385,0.76874
576.157,62.6254,-2.38824,0.11698,0.76822
576.757,62.6853,-2.38832,0.11581,0.7677
577.357,62.7454,-2.38823,0.11586,0.76718
577.957,62.8056,-2.38823,0.11419,0.76666
578.557,62.86549,-2.38821,0.11494,0.76614
579.157,62.92564,-2.38822,0.11651,0.76562
579.757,62.9856,-2.38932,0.11705,0.7651
580.357,63.04555,-2.38888,0.11751,0.76457
580.957,63.1053,-2.3902,0.11793,0.76405
581.557,63.16514,-2.39153,0.1171,0.76353
582.157,63.22481,-2.39151,0.11832,0.76301
582.757,63.28431,-2.39415,0.11955,0.76248
583.357,63.3445,-2.39557,0.11856,0.76196
583.957,63.40438,-2.39547,0.11845,0.76144
584.557,63.4649,-2.39684,0.11772,0.76091
585.157,63.5248,-2.39586,0.11761,0.76039
585.757,63.5848,-2.39681,0.11509,0.75986
586.357,63.64459,-2.39679,0.11853,0.75934
586.957,63.70446,-2.3981,0.11553,0.75881
587.557,63.7647,-2.39949,0.11605,0.75829
588.157,63.82501,-2.40207,0.11725,0.75776
588.757,63.8853,-2.40338,0.11799,0.75723
589.357,63.94543,-2.40328,0.11755,0.75671
589.957,64.0053,-2.40469,0.11585,0.75618
590.557,64.06517,-2.40608,0.11812,0.75565
591.157,64.12533,-2.40478,0.11417,0.75513
591.757,64.18544,-2.40605,0.11648,0.7546
592.357,64.2456,-2.40733,0.11622,0.75407
592.957,64.3057,-2.40864,0.1173,0.75354
593.557,64.36591,-2.40874,0.11752,0.75301
594.157,64.42595,-2.41124,0.11543,0.75249
594.757,64.48602,-2.41226,0.11401,0.75196
595.357,64.54619,-2.41129,0.11287,0.75143
595.957,64.60616,-2.41188,0.11565,0.7509
596.557,64.666,-2.41252,0.11244,0.75037
597.157,64.72573,-2.41387,0.11192,0.74984
597.757,64.7856,-2.41524,0.11257,0.74931
598.357,64.84584,-2.41658,0.11391,0.74878
598.957,64.90558,-2.41798,0.11128,0.74825
599.557,64.96546,-2.41939,0.11616,0.74771
600.157,65.02532,-2.4193,0.11532,0.74718
600.757,65.08515,-2.41931,0.11507,0.74665
601.357,65.1449,-2.41921,0.11518,0.74612
601.957,65.20486,-2.41939,0.11404,0.74559
602.557,65.26496,-2.42195,0.11306,0.74505
603.157,65.32499,-2.42183,0.11344,0.74452
603.757,65.38538,-2.42225,0.11292,0.74399
604.357,65.44548,-2.42319,0.1133,0.74345
604.957,65.50561,-2.42308,0.11301,0.74292
605.557,65.56586,-2.42568,0.11353,0.74238
606.157,65.62589,-2.42709,0.11397,0.74185
606.757,65.68599,-2.42821,0.11324,0.74131
607.357,65.74606,-2.42842,0.11386,0.74078
607.957,65.80631,-2.42973,0.11229,0.74024
608.557,65.8665,-2.42973,0.11368,0.73971
609.157,65.9268,-2.4309,0.11375,0.73917
609.757,65.9867,-2.43209,0.11512,0.73864
610.357,66.04691,-2.43236,0.11521,0.7381
610.957,66.10716,-2.43303,0.1121,0.73756
611.557,66.16722,-2.43392,0.11522,0.73703
612.157,66.22748,-2.43533,0.11084,0.73649
612.757,66.2876,-2.43666,0.1115,0.73595
613.357,66.34784,-2.43525,0.11348,0.73541
613.957,66.40809,-2.43664,0.11233,0.73488
614.557,66.46845,-2.43796,0.11448,0.73434
615.157,66.52897,-2.43793,0.11453,0.7338
615.757,66.5892,-2.43928,0.11083,0.73326
616.357,66.64945,-2.44056,0.11086,0.73272
616.957,66.7097,-2.44059,0.11118,0.73218
617.557,66.77,-2.44125,0.1115,0.73164
618.157,66.8305,-2.44191,0.11208,0.7311
618.757,66.89055,-2.44323,0.11376,0.73056
619.357,66.95082,-2.44328,0.11238,0.73002
619.957,67.0111,-2.44454,0.11476,0.72948
620.557,67.07117,-2.44586,0.116,0.72894
621.157,67.13135,-2.44724,0.11609,0.7284
621.757,67.19148,-2.44828,0.11636,0.72786
622.357,67.2515,-2.4485,0.11729,0.72732
622.957,67.31174,-2.44851,0.11698,0.72677
623.557,67.37207,-2.44851,0.11757,0.72623
624.157,67.43248,-2.44981,0.11907,0.72569
624.757,67.49283,-2.44981,0.11877,0.72515
625.357,67.5531,-2.45107,0.11744,0.7246
625.957,67.61344,-2.45281,0.11846,0.72406
626.557,67.6739,-2.45409,0.11658,0.72352
627.157,67.7341,-2.4541,0.11631,0.72297
627.757,67.7945,-2.45541,0.11748,0.72243
628.357,67.8549,-2.45494,0.11851,0.72188
628.957,67.91525,-2.45533,0.11833,0.72134
629.557,67.9756,-2.45704,0.11796,0.72079
630.157,68.0359,-2.45805,0.11944,0.72025
630.757,68.09614,-2.458,0.11985,0.7197
631.357,68.15629,-2.45936,0.11868,0.71916
631.957,68.21656,-2.45926,0.12016,0.71861
632.557,68.2766,-2.46068,0.11856,0.71807
633.157,68.3369,-2.45928,0.11975,0.71752
633.757,68.39711,-2.46078,0.11903,0.71697
634.357,68.45747,-2.46069,0.12173,0.71643
634.957,68.51751,-2.46115,0.11772,0.71588
635.557,68.57768,-2.46339,0.11961,0.71533
636.157,68.63768,-2.46464,0.11745,0.71479
636.757,68.6975,-2.46595,0.11823,0.71424
637.357,68.75753,-2.46671,0.11941,0.71369
637.957,68.8176,-2.46811,0.1178,0.71314
638.557,68.87791,-2.46727,0.11843,0.71259
639.157,68.9382,-2.46594,0.11904,0.71205
639.757,68.9983,-2.46727,0.12121,0.7115
640.357,69.05835,-2.46982,0.12205,0.71095
640.957,69.11861,-2.46991,0.12364,0.7104
641.557,69.17866,-2.47123,0.12374,0.70985
642.157,69.23873,-2.47209,0.12374,0.7093
642.757,69.2988,-2.47381,0.12336,0.70875
643.357,69.35894,-2.47517,0.12575,0.7082
643.957,69.4191,-2.47647,0.12685,0.70765
644.557,69.47918,-2.4765,0.12984,0.7071
645.157,69.5395,-2.47648,0.12586,0.70655
645.757,69.59962,-2.47648,0.12864,0.70599
646.357,69.6598,-2.4768,0.12929,0.70544
646.957,69.7199,-2.47781,0.13208,0.70489
647.557,69.78,-2.47913,0.13352,0.70434
648.157,69.8402,-2.47914,0.13251,0.70379
648.757,69.90052,-2.47949,0.13752,0.70323
649.357,69.96078,-2.48047,0.13836,0.70268
649.657,69.99127,-2.48143,0.1385,0.70241