File: 01_Data/Cellulose_Insulation/STA/N2/10K_min/Cellulose_Insulation_STA_N2_10KData_220729_R3.csv
##Temp./Â°C,Time/min,Mass loss(subtr.2)/mg,DSC(subtr.2)/(mW/mg),Sensit./(uV/mW)
49.522,10.01,-0.04369,0.02759527,1.07023
50.222,10.7742,-0.04686924,0.05567923,1.07004
50.922,10.97873,-0.04652072,0.07871975,1.06984
51.622,11.13256,-0.04737805,0.09675669,1.06965
52.322,11.2615,-0.04805996,0.11611,1.06946
53.022,11.37681,-0.04839774,0.13024,1.06926
53.722,11.48272,-0.04933943,0.14447,1.06907
54.422,11.5824,-0.04859427,0.15453,1.06887
55.122,11.67734,-0.04922588,0.16366,1.06868
55.822,11.7683,-0.04858841,0.1741,1.06848
56.522,11.8563,-0.0486734,0.18198,1.06828
57.222,11.9419,-0.04849145,0.19149,1.06809
57.922,12.0256,-0.04898269,0.19892,1.06789
58.622,12.108,-0.05039749,0.20555,1.06769
59.322,12.1889,-0.0499253,0.21051,1.06749
60.022,12.2692,-0.0512893,0.21629,1.06729
60.722,12.34845,-0.05171726,0.22296,1.06709
61.422,12.42707,-0.05247191,0.2297,1.06689
62.122,12.50494,-0.05287046,0.23352,1.06669
62.822,12.58186,-0.05377918,0.24045,1.06649
63.522,12.65925,-0.05379935,0.24543,1.06629
64.222,12.73594,-0.05378633,0.25122,1.06609
64.922,12.81273,-0.05511356,0.25612,1.06588
65.622,12.88872,-0.05510876,0.26139,1.06568
66.322,12.96462,-0.05643383,0.26859,1.06548
67.022,13.04003,-0.05774016,0.27368,1.06527
67.722,13.11535,-0.05816921,0.27924,1.06507
68.422,13.1903,-0.05906869,0.28446,1.06486
69.122,13.26511,-0.05869794,0.29082,1.06465
69.822,13.34038,-0.05906007,0.29508,1.06445
70.522,13.41425,-0.06058984,0.301,1.06424
71.222,13.4885,-0.06053068,0.30559,1.06403
71.922,13.56238,-0.06059687,0.31133,1.06383
72.622,13.63705,-0.06201117,0.31614,1.06362
73.322,13.711,-0.06454998,0.31883,1.06341
74.022,13.7847,-0.06455864,0.32657,1.0632
74.722,13.8583,-0.06488015,0.33278,1.06299
75.422,13.9316,-0.0661891,0.33869,1.06278
76.122,14.00499,-0.06752025,0.34289,1.06257
76.822,14.0778,-0.06751958,0.3473,1.06236
77.522,14.1507,-0.06883933,0.35432,1.06214
78.222,14.22326,-0.07051432,0.36038,1.06193
78.922,14.29626,-0.07145999,0.36575,1.06172
79.622,14.36844,-0.07145998,0.37006,1.06151
80.322,14.4407,-0.0727705,0.3754,1.06129
81.022,14.51269,-0.07419669,0.37968,1.06108
81.722,14.5848,-0.07541899,0.3842,1.06086
82.422,14.65644,-0.07542191,0.38905,1.06065
83.122,14.7278,-0.0767392,0.39232,1.06043
83.822,14.79904,-0.07671558,0.39653,1.06021
84.522,14.8701,-0.07805707,0.40025,1.06
85.222,14.94111,-0.08069361,0.40497,1.05978
85.922,15.01188,-0.08068728,0.40912,1.05956
86.622,15.08275,-0.08333284,0.41077,1.05934
87.322,15.15356,-0.08431592,0.41359,1.05912
88.022,15.22417,-0.08595628,0.41586,1.0589
88.722,15.2943,-0.08590645,0.41756,1.05868
89.422,15.36452,-0.08723924,0.41963,1.05846
90.122,15.4347,-0.08750474,0.42218,1.05824
90.822,15.505,-0.09000082,0.42092,1.05802
91.522,15.57496,-0.08990952,0.42221,1.0578
92.222,15.6449,-0.09129962,0.42496,1.05757
92.922,15.71486,-0.09254942,0.42559,1.05735
93.622,15.78454,-0.09386746,0.42673,1.05712
94.322,15.8541,-0.09379636,0.42742,1.0569
95.022,15.92356,-0.0964464,0.42668,1.05668
95.722,15.993,-0.09681529,0.42732,1.05645
96.422,16.06254,-0.09781516,0.42712,1.05622
97.122,16.13164,-0.09912929,0.42705,1.056
97.822,16.2008,-0.09952429,0.42904,1.05577
98.522,16.26975,-0.10177,0.42865,1.05554
99.222,16.3387,-0.10441,0.42682,1.05531
99.922,16.40736,-0.10561,0.42992,1.05509
100.622,16.4761,-0.10594,0.43037,1.05486
101.322,16.5448,-0.10703,0.42979,1.05463
102.022,16.61339,-0.10703,0.42832,1.0544
102.722,16.68195,-0.10836,0.42852,1.05417
103.422,16.7507,-0.10966,0.4275,1.05394
104.122,16.8196,-0.11231,0.42651,1.0537
104.822,16.88815,-0.11226,0.42529,1.05347
105.522,16.9563,-0.11457,0.42391,1.05324
106.222,17.02445,-0.11295,0.4218,1.053
106.922,17.0925,-0.11483,0.42205,1.05277
107.622,17.16104,-0.11723,0.41958,1.05254
108.322,17.22968,-0.11779,0.41846,1.0523
109.022,17.2985,-0.11781,0.41525,1.05207
109.722,17.36693,-0.11884,0.41545,1.05183
110.422,17.43524,-0.11931,0.41388,1.05159
111.122,17.50339,-0.12028,0.41098,1.05136
111.822,17.57114,-0.12296,0.40995,1.05112
112.522,17.63907,-0.12425,0.407,1.05088
113.222,17.70684,-0.12428,0.40678,1.05064
113.922,17.77475,-0.1244,0.40378,1.0504
114.622,17.843,-0.12687,0.40137,1.05016
115.322,17.91163,-0.1269,0.39865,1.04992
116.022,17.9804,-0.1269,0.39661,1.04968
116.722,18.04911,-0.12954,0.39433,1.04944
117.422,18.11733,-0.12954,0.3929,1.0492
118.122,18.18556,-0.12954,0.39202,1.04896
118.822,18.2535,-0.13086,0.38945,1.04871
119.522,18.3216,-0.13218,0.38809,1.04847
120.222,18.38952,-0.13218,0.38788,1.04823
120.922,18.4575,-0.13317,0.38427,1.04798
121.622,18.52533,-0.13482,0.38266,1.04774
122.322,18.59356,-0.13485,0.38245,1.04749
123.022,18.66155,-0.13691,0.38005,1.04725
123.722,18.7298,-0.13744,0.38059,1.047
124.422,18.79757,-0.13745,0.38046,1.04675
125.122,18.86563,-0.13649,0.37846,1.0465
125.822,18.9335,-0.13919,0.37644,1.04626
126.522,19.0015,-0.13909,0.37468,1.04601
127.222,19.06908,-0.14173,0.37409,1.04576
127.922,19.13693,-0.14173,0.37437,1.04551
128.622,19.20467,-0.14173,0.37417,1.04526
129.322,19.27261,-0.14175,0.37189,1.04501
130.022,19.34036,-0.14436,0.37092,1.04476
130.722,19.40813,-0.14435,0.36965,1.0445
131.422,19.4756,-0.14535,0.37038,1.04425
132.122,19.5431,-0.14535,0.37044,1.044
132.822,19.61041,-0.14699,0.36861,1.04375
133.522,19.67809,-0.14695,0.36803,1.04349
134.222,19.74588,-0.1483,0.36779,1.04324
134.922,19.8135,-0.14963,0.36749,1.04298
135.622,19.88119,-0.14963,0.36718,1.04273
136.322,19.94857,-0.14963,0.36625,1.04247
137.022,20.01624,-0.15095,0.36561,1.04221
137.722,20.0836,-0.15094,0.36548,1.04196
138.422,20.1513,-0.15305,0.36465,1.0417
139.122,20.219,-0.1537,0.36448,1.04144
139.822,20.28671,-0.1537,0.36419,1.04118
140.522,20.35414,-0.1552,0.36482,1.04092
141.222,20.4215,-0.15632,0.3636,1.04066
141.922,20.48852,-0.15657,0.36401,1.0404
142.622,20.55521,-0.15764,0.3642,1.04014
143.322,20.6223,-0.15896,0.36446,1.03988
144.022,20.6899,-0.15896,0.36475,1.03962
144.722,20.75775,-0.16019,0.36261,1.03935
145.422,20.8252,-0.1616,0.36194,1.03909
146.122,20.89232,-0.16156,0.36287,1.03883
146.822,20.95951,-0.16292,0.36422,1.03856
147.522,21.0265,-0.16307,0.36558,1.0383
148.222,21.0937,-0.16417,0.3647,1.03803
148.922,21.16094,-0.16654,0.36393,1.03776
149.622,21.2284,-0.16654,0.365,1.0375
150.322,21.29574,-0.16785,0.36377,1.03723
151.022,21.36299,-0.16794,0.36552,1.03696
151.722,21.43005,-0.16818,0.36395,1.0367
152.422,21.49719,-0.16972,0.36499,1.03643
153.122,21.56435,-0.17104,0.36375,1.03616
153.822,21.63175,-0.17104,0.36347,1.03589
154.522,21.69895,-0.17236,0.36413,1.03562
155.222,21.76605,-0.17372,0.36441,1.03535
155.922,21.83313,-0.17368,0.36501,1.03507
156.622,21.9006,-0.17367,0.36441,1.0348
157.322,21.96793,-0.17466,0.36393,1.03453
158.022,22.03509,-0.17619,0.36479,1.03426
158.722,22.10203,-0.17609,0.36388,1.03398
159.422,22.16894,-0.17742,0.3637,1.03371
160.122,22.236,-0.17874,0.36302,1.03343
160.822,22.3031,-0.17873,0.36329,1.03316
161.522,22.37024,-0.17875,0.36237,1.03288
162.222,22.43736,-0.18003,0.36297,1.03261
162.922,22.50451,-0.18155,0.36286,1.03233
163.622,22.5717,-0.18165,0.36315,1.03205
164.322,22.63876,-0.184,0.36173,1.03177
165.022,22.7058,-0.18399,0.36146,1.0315
165.722,22.77265,-0.18564,0.36156,1.03122
166.422,22.83969,-0.18523,0.35974,1.03094
167.122,22.9067,-0.18568,0.35915,1.03066
167.822,22.9739,-0.18795,0.35968,1.03038
168.522,23.0411,-0.1887,0.35858,1.03009
169.222,23.10831,-0.18926,0.35821,1.02981
169.922,23.17515,-0.19052,0.35749,1.02953
170.622,23.24188,-0.19059,0.35769,1.02925
171.322,23.30871,-0.1919,0.35753,1.02896
172.022,23.3756,-0.19323,0.35501,1.02868
172.722,23.44258,-0.19322,0.35569,1.02839
173.422,23.5095,-0.19322,0.35485,1.02811
174.122,23.5764,-0.19454,0.35269,1.02782
174.822,23.64314,-0.19585,0.35349,1.02754
175.522,23.70992,-0.19617,0.35017,1.02725
176.222,23.77679,-0.19716,0.35095,1.02696
176.922,23.84326,-0.1971,0.3508,1.02667
177.622,23.91019,-0.1998,0.35064,1.02639
178.322,23.9771,-0.1998,0.35255,1.0261
179.022,24.04411,-0.20138,0.34941,1.02581
179.722,24.11119,-0.20178,0.34882,1.02552
180.422,24.17791,-0.2036,0.34816,1.02523
181.122,24.2451,-0.20376,0.34722,1.02493
181.822,24.31189,-0.20376,0.34669,1.02464
182.522,24.37886,-0.20652,0.34731,1.02435
183.222,24.44559,-0.20649,0.34664,1.02406
183.922,24.5122,-0.20716,0.34946,1.02376
184.622,24.57886,-0.20782,0.34835,1.02347
185.322,24.64573,-0.20772,0.34596,1.02317
186.022,24.7126,-0.21046,0.34768,1.02288
186.722,24.77935,-0.21177,0.34771,1.02258
187.422,24.84605,-0.21217,0.34843,1.02229
188.122,24.91252,-0.21247,0.34899,1.02199
188.822,24.97936,-0.21308,0.34894,1.02169
189.522,25.04591,-0.2144,0.35061,1.02139
190.222,25.11263,-0.21585,0.35184,1.02109
190.922,25.1791,-0.21715,0.35363,1.0208
191.622,25.2458,-0.21847,0.35461,1.0205
192.322,25.31232,-0.21857,0.35642,1.0202
193.022,25.37876,-0.21978,0.35788,1.01989
193.722,25.44514,-0.21978,0.35969,1.01959
194.422,25.51158,-0.22264,0.36199,1.01929
195.122,25.57801,-0.224,0.36304,1.01899
195.822,25.6442,-0.22548,0.36606,1.01869
196.522,25.71034,-0.22624,0.36731,1.01838
197.222,25.77649,-0.22697,0.36961,1.01808
197.922,25.8429,-0.22788,0.3728,1.01777
198.622,25.90946,-0.22921,0.3738,1.01747
199.322,25.97599,-0.23194,0.37609,1.01716
200.022,26.04255,-0.23186,0.37941,1.01685
200.722,26.10905,-0.23318,0.38205,1.01655
201.422,26.17557,-0.23546,0.38293,1.01624
202.122,26.2418,-0.23549,0.38691,1.01593
202.822,26.30808,-0.23679,0.3864,1.01562
203.522,26.3745,-0.23822,0.38995,1.01531
204.222,26.4412,-0.23954,0.39017,1.015
204.922,26.50781,-0.24001,0.39219,1.01469
205.622,26.5744,-0.24253,0.39384,1.01438
206.322,26.64092,-0.24416,0.39339,1.01407
207.022,26.7076,-0.24538,0.39457,1.01376
207.722,26.77423,-0.24777,0.39709,1.01344
208.422,26.8406,-0.24921,0.3984,1.01313
209.122,26.907,-0.25132,0.39656,1.01282
209.822,26.9731,-0.25271,0.40045,1.0125
210.522,27.03997,-0.25503,0.40044,1.01219
211.222,27.10667,-0.25644,0.40298,1.01187
211.922,27.1738,-0.25839,0.4045,1.01155
212.622,27.24066,-0.26035,0.40626,1.01124
213.322,27.30725,-0.26096,0.40719,1.01092
214.022,27.3739,-0.26245,0.41074,1.0106
214.722,27.44057,-0.26419,0.4086,1.01028
215.422,27.50725,-0.26515,0.41191,1.00996
216.122,27.5739,-0.2682,0.41391,1.00964
216.822,27.64064,-0.27111,0.41156,1.00932
217.522,27.70738,-0.27245,0.40939,1.009
218.222,27.77412,-0.275,0.40688,1.00868
218.922,27.84086,-0.27687,0.40153,1.00836
219.622,27.90764,-0.27893,0.40215,1.00804
220.322,27.97447,-0.28095,0.40045,1.00771
221.022,28.0411,-0.284,0.402,1.00739
221.722,28.10748,-0.28748,0.40665,1.00707
222.422,28.17405,-0.28991,0.41523,1.00674
223.122,28.24083,-0.29234,0.42427,1.00642
223.822,28.3077,-0.29648,0.43749,1.00609
224.522,28.37436,-0.29951,0.4577,1.00576
225.222,28.44095,-0.30457,0.48188,1.00544
225.922,28.5078,-0.31032,0.51309,1.00511
226.622,28.5747,-0.31738,0.54594,1.00478
227.322,28.6417,-0.32291,0.58959,1.00445
228.022,28.70866,-0.33239,0.63829,1.00412
228.722,28.77555,-0.34117,0.69374,1.00379
229.422,28.84275,-0.34891,0.75919,1.00346
230.122,28.9098,-0.36127,0.82601,1.00313
230.822,28.97685,-0.37413,0.89803,1.0028
231.522,29.04366,-0.38994,0.9736,1.00246
232.222,29.1108,-0.4054,1.04844,1.00213
232.922,29.17835,-0.4233,1.121,1.0018
233.622,29.2461,-0.44319,1.18758,1.00146
234.322,29.3136,-0.46506,1.24075,1.00113
235.022,29.38087,-0.48758,1.28136,1.00079
235.722,29.4482,-0.51279,1.30497,1.00046
236.422,29.51553,-0.53868,1.3145,1.00012
237.122,29.58297,-0.56154,1.30538,0.99978
237.822,29.6503,-0.58653,1.27749,0.99945
238.522,29.71742,-0.61308,1.23975,0.99911
239.222,29.7841,-0.63816,1.18863,0.99877
239.922,29.8508,-0.65942,1.13162,0.99843
240.622,29.9173,-0.68216,1.06839,0.99809
241.322,29.984,-0.70549,1.0041,0.99775
242.022,30.0504,-0.72524,0.93896,0.99741
242.722,30.1166,-0.74387,0.87665,0.99707
243.422,30.18272,-0.76299,0.81613,0.99672
244.122,30.24884,-0.77956,0.75943,0.99638
244.822,30.31533,-0.79447,0.70676,0.99604
245.522,30.38162,-0.81161,0.66131,0.99569
246.222,30.44783,-0.82628,0.61619,0.99535
246.922,30.514,-0.83609,0.57806,0.995
247.622,30.57975,-0.85012,0.54391,0.99466
248.322,30.64575,-0.86222,0.5132,0.99431
249.022,30.71197,-0.87337,0.48486,0.99396
249.722,30.7783,-0.88301,0.4613,0.99362
250.422,30.84473,-0.8934,0.43801,0.99327
251.122,30.91082,-0.904,0.41775,0.99292
251.822,30.9772,-0.91164,0.40239,0.99257
252.522,31.04356,-0.92047,0.38356,0.99222
253.222,31.1095,-0.93002,0.37185,0.99187
253.922,31.17584,-0.93613,0.35784,0.99152
254.622,31.24192,-0.94351,0.34648,0.99117
255.322,31.30828,-0.95227,0.33638,0.99081
256.022,31.3745,-0.96035,0.32576,0.99046
256.722,31.44078,-0.96632,0.31815,0.99011
257.422,31.5073,-0.9715,0.30999,0.98975
258.122,31.5739,-0.97937,0.30264,0.9894
258.822,31.64017,-0.98741,0.29497,0.98904
259.522,31.7063,-0.99136,0.28943,0.98869
260.222,31.77239,-0.99878,0.28248,0.98833
260.922,31.8388,-1.0045,0.27733,0.98798
261.622,31.9055,-1.00965,0.27406,0.98762
262.322,31.97222,-1.01673,0.26752,0.98726
263.022,32.03863,-1.02298,0.26251,0.9869
263.722,32.1051,-1.02793,0.25981,0.98654
264.422,32.17145,-1.03401,0.25527,0.98618
265.122,32.23808,-1.03959,0.25311,0.98582
265.822,32.30442,-1.04485,0.2491,0.98546
266.522,32.37082,-1.04998,0.24483,0.9851
267.222,32.43711,-1.05519,0.24079,0.98474
267.922,32.50376,-1.06181,0.23917,0.98437
268.622,32.5705,-1.06585,0.23604,0.98401
269.322,32.637,-1.07246,0.23154,0.98365
270.022,32.70344,-1.07857,0.22976,0.98328
270.722,32.7701,-1.08325,0.22649,0.98292
271.422,32.8369,-1.08733,0.22277,0.98255
272.122,32.9037,-1.09183,0.22038,0.98218
272.822,32.97044,-1.09536,0.21707,0.98182
273.522,33.03734,-1.0998,0.21477,0.98145
274.222,33.1042,-1.10666,0.21259,0.98108
274.922,33.17085,-1.11358,0.20792,0.98071
275.622,33.23749,-1.11701,0.20501,0.98034
276.322,33.30408,-1.12008,0.20601,0.97997
277.022,33.37096,-1.1262,0.20392,0.9796
277.722,33.4377,-1.13168,0.20307,0.97923
278.422,33.50444,-1.13577,0.20163,0.97886
279.122,33.57103,-1.14167,0.19777,0.97849
279.822,33.63751,-1.14713,0.19573,0.97811
280.522,33.7042,-1.1505,0.19387,0.97774
281.222,33.77074,-1.15587,0.19344,0.97737
281.922,33.83704,-1.16151,0.19056,0.97699
282.622,33.90374,-1.166,0.18955,0.97662
283.322,33.97033,-1.16965,0.18849,0.97624
284.022,34.03763,-1.17542,0.1856,0.97586
284.722,34.1042,-1.17956,0.18448,0.97549
285.422,34.17122,-1.18361,0.18405,0.97511
286.122,34.238,-1.18816,0.18081,0.97473
286.822,34.30474,-1.19476,0.17763,0.97435
287.522,34.37135,-1.19748,0.17755,0.97397
288.222,34.43785,-1.20055,0.17429,0.97359
288.922,34.50435,-1.20624,0.17374,0.97321
289.622,34.57099,-1.21288,0.17281,0.97283
290.322,34.63792,-1.21608,0.17058,0.97245
291.022,34.705,-1.22213,0.16784,0.97206
291.722,34.77194,-1.22757,0.16637,0.97168
292.422,34.83868,-1.23245,0.16579,0.9713
293.122,34.9055,-1.23647,0.16377,0.97091
293.822,34.9723,-1.24229,0.16204,0.97053
294.522,35.03929,-1.24738,0.1577,0.97014
295.222,35.10603,-1.25082,0.15628,0.96976
295.922,35.17292,-1.25711,0.15523,0.96937
296.622,35.23972,-1.26336,0.15515,0.96898
297.322,35.30657,-1.26665,0.15061,0.9686
298.022,35.37335,-1.27146,0.14966,0.96821
298.722,35.4404,-1.2766,0.14829,0.96782
299.422,35.50756,-1.28228,0.14578,0.96743
300.122,35.57456,-1.28645,0.14372,0.96704
300.822,35.64172,-1.2913,0.1412,0.96665
301.522,35.70879,-1.29732,0.14028,0.96626
302.222,35.77592,-1.30264,0.13808,0.96586
302.922,35.84284,-1.3063,0.13625,0.96547
303.622,35.90971,-1.3118,0.13617,0.96508
304.322,35.97664,-1.31881,0.13415,0.96468
305.022,36.04319,-1.32293,0.13246,0.96429
305.722,36.11025,-1.32664,0.12825,0.9639
306.422,36.17715,-1.33232,0.12873,0.9635
307.122,36.24478,-1.33948,0.12607,0.9631
307.822,36.31193,-1.34277,0.12361,0.96271
308.522,36.3793,-1.34875,0.12064,0.96231
309.222,36.4464,-1.3569,0.11845,0.96191
309.922,36.51341,-1.36216,0.11566,0.96151
310.622,36.58067,-1.36663,0.11323,0.96111
311.322,36.64782,-1.37228,0.11082,0.96071
312.022,36.71506,-1.37759,0.10999,0.96031
312.722,36.78204,-1.38167,0.10649,0.95991
313.422,36.8492,-1.38638,0.1041,0.95951
314.122,36.91636,-1.39315,0.09964946,0.95911
314.822,36.98343,-1.39867,0.09862301,0.95871
315.522,37.05068,-1.40276,0.09712757,0.9583
316.222,37.1177,-1.40668,0.09566349,0.9579
316.922,37.18485,-1.4138,0.09338452,0.95749
317.622,37.25222,-1.41816,0.08905815,0.95709
318.322,37.3195,-1.42297,0.08705315,0.95668
319.022,37.38707,-1.42865,0.08300569,0.95628
319.722,37.4544,-1.43423,0.08361744,0.95587
320.422,37.52176,-1.4397,0.07930584,0.95546
321.122,37.5891,-1.44542,0.07636209,0.95505
321.822,37.65617,-1.45146,0.07415661,0.95464
322.522,37.7235,-1.45672,0.07212146,0.95424
323.222,37.79078,-1.46122,0.0710889,0.95383
323.922,37.85804,-1.46627,0.068488,0.95341
324.622,37.92549,-1.47242,0.06379626,0.953
325.322,37.99258,-1.47571,0.06422116,0.95259
326.022,38.0602,-1.48142,0.06043027,0.95218
326.722,38.12737,-1.48758,0.0571997,0.95177
327.422,38.1948,-1.49333,0.05570045,0.95135
328.122,38.26194,-1.49868,0.05246871,0.95094
328.822,38.3294,-1.50245,0.0510024,0.95052
329.522,38.39672,-1.50886,0.04917141,0.95011
330.222,38.4641,-1.51455,0.0440976,0.94969
330.922,38.53133,-1.51855,0.04294616,0.94928
331.622,38.59874,-1.52518,0.04017459,0.94886
332.322,38.66623,-1.53127,0.03746853,0.94844
333.022,38.73364,-1.53626,0.03495692,0.94802
333.722,38.801,-1.53914,0.0337377,0.9476
334.422,38.86817,-1.54533,0.03010158,0.94718
335.122,38.93551,-1.55248,0.02801928,0.94676
335.822,39.00295,-1.55629,0.02560886,0.94634
336.522,39.07063,-1.56103,0.02421248,0.94592
337.222,39.1381,-1.56705,0.02116259,0.9455
337.922,39.20528,-1.5706,0.01707191,0.94508
338.622,39.27258,-1.57565,0.01570066,0.94465
339.322,39.3397,-1.58361,0.01204507,0.94423
340.022,39.40701,-1.58934,0.0098394,0.94381
340.722,39.47435,-1.59183,0.008832894,0.94338
341.422,39.5415,-1.59673,0.00535986,0.94296
342.122,39.60895,-1.60352,0.003382449,0.94253
342.822,39.67625,-1.60727,-0.000949879,0.9421
343.522,39.74371,-1.61278,-0.003570941,0.94168
344.222,39.81118,-1.61887,-0.00606257,0.94125
344.922,39.87851,-1.62094,-0.01108633,0.94082
345.622,39.94595,-1.62768,-0.009992552,0.94039
346.322,40.0133,-1.63388,-0.01393199,0.93996
347.022,40.0807,-1.64028,-0.01657926,0.93953
347.722,40.14826,-1.64592,-0.02047852,0.9391
348.422,40.21585,-1.64908,-0.02363766,0.93867
349.122,40.28345,-1.65336,-0.02742729,0.93824
349.822,40.3508,-1.66087,-0.02889842,0.9378
350.522,40.41836,-1.66462,-0.03174037,0.93737
351.222,40.4859,-1.66871,-0.03584284,0.93694
351.922,40.55341,-1.6741,-0.03938976,0.9365
352.622,40.62084,-1.67946,-0.0416033,0.93607
353.322,40.68821,-1.68494,-0.04339418,0.93563
354.022,40.75537,-1.68971,-0.04728316,0.93519
354.722,40.82313,-1.69405,-0.05264963,0.93476
355.422,40.8909,-1.70053,-0.05308996,0.93432
356.122,40.9589,-1.7044,-0.05580169,0.93388
356.822,41.02643,-1.70964,-0.06096719,0.93344
357.522,41.094,-1.71654,-0.06258294,0.933
358.222,41.1616,-1.72099,-0.06434159,0.93256
358.922,41.22909,-1.72426,-0.06824137,0.93212
359.622,41.2967,-1.72997,-0.07196847,0.93168
360.322,41.36432,-1.73555,-0.07232853,0.93124
361.022,41.4322,-1.73933,-0.07523136,0.9308
361.722,41.49993,-1.74566,-0.07956282,0.93035
362.422,41.5676,-1.75272,-0.08063495,0.92991
363.122,41.6353,-1.75603,-0.08301867,0.92947
363.822,41.70298,-1.76149,-0.08808917,0.92902
364.522,41.77062,-1.76675,-0.09056908,0.92858
365.222,41.83834,-1.77239,-0.09053642,0.92813
365.922,41.90609,-1.77605,-0.09236384,0.92769
366.622,41.9739,-1.78181,-0.09563683,0.92724
367.322,42.04148,-1.78815,-0.09713645,0.92679
368.022,42.10901,-1.79143,-0.09937982,0.92634
368.722,42.17695,-1.79491,-0.10103,0.92589
369.422,42.24505,-1.80107,-0.10493,0.92544
370.122,42.31313,-1.80657,-0.10756,0.92499
370.822,42.38105,-1.81088,-0.10852,0.92454
371.522,42.4492,-1.81624,-0.11034,0.92409
372.222,42.5171,-1.82387,-0.1107,0.92364
372.922,42.58517,-1.83083,-0.1122,0.92319
373.622,42.65294,-1.8345,-0.11449,0.92273
374.322,42.7211,-1.8384,-0.11696,0.92228
375.022,42.78905,-1.84386,-0.11856,0.92183
375.722,42.8566,-1.84896,-0.11808,0.92137
376.422,42.92435,-1.85173,-0.1193,0.92092
377.122,42.99207,-1.8574,-0.12102,0.92046
377.822,43.0602,-1.86269,-0.12079,0.92
378.522,43.12812,-1.86677,-0.12356,0.91955
379.222,43.19616,-1.87132,-0.12228,0.91909
379.922,43.26359,-1.87787,-0.12243,0.91863
380.622,43.33148,-1.88337,-0.12402,0.91817
381.322,43.3992,-1.88632,-0.12526,0.91771
382.022,43.46798,-1.89047,-0.12428,0.91725
382.722,43.5361,-1.8969,-0.1271,0.91679
383.422,43.60438,-1.90172,-0.1267,0.91633
384.122,43.6723,-1.90605,-0.12549,0.91587
384.822,43.7405,-1.90858,-0.12715,0.91541
385.522,43.80867,-1.91422,-0.12741,0.91494
386.222,43.87659,-1.92032,-0.12761,0.91448
386.922,43.9444,-1.92247,-0.12717,0.91402
387.622,44.01226,-1.92378,-0.1253,0.91355
388.322,44.08045,-1.93344,-0.12602,0.91309
389.022,44.14885,-1.93854,-0.12509,0.91262
389.722,44.2172,-1.94279,-0.12449,0.91215
390.422,44.2855,-1.94709,-0.1229,0.91169
391.122,44.35354,-1.95221,-0.12292,0.91122
391.822,44.4217,-1.95383,-0.12112,0.91075
392.522,44.48982,-1.95469,-0.12106,0.91028
393.222,44.55808,-1.96215,-0.12105,0.90981
393.922,44.62572,-1.9705,-0.11919,0.90934
394.622,44.69415,-1.97283,-0.1175,0.90887
395.322,44.7624,-1.97622,-0.11637,0.9084
396.022,44.83123,-1.98006,-0.11676,0.90793
396.722,44.8994,-1.98473,-0.1145,0.90745
397.422,44.9677,-1.98782,-0.11449,0.90698
398.122,45.03622,-1.99137,-0.11295,0.90651
398.822,45.1045,-1.99516,-0.11025,0.90603
399.522,45.17275,-1.99883,-0.10862,0.90556
400.222,45.24095,-2.00034,-0.10696,0.90508
400.922,45.3094,-2.00597,-0.10508,0.90461
401.622,45.37751,-2.01085,-0.10495,0.90413
402.322,45.44563,-2.01382,-0.10187,0.90365
403.022,45.5139,-2.01525,-0.09967079,0.90317
403.722,45.5824,-2.02019,-0.09883535,0.9027
404.422,45.65077,-2.02415,-0.09581498,0.90222
405.122,45.71897,-2.02706,-0.09486899,0.90174
405.822,45.78717,-2.03079,-0.09429302,0.90126
406.522,45.85535,-2.03433,-0.0907335,0.90078
407.222,45.92362,-2.03765,-0.09005953,0.9003
407.922,45.99183,-2.03955,-0.08753292,0.89981
408.622,46.05992,-2.04328,-0.08398949,0.89933
409.322,46.12827,-2.04758,-0.08587941,0.89885
410.022,46.19619,-2.05254,-0.08026839,0.89837
410.722,46.2647,-2.05481,-0.07974448,0.89788
411.422,46.33278,-2.05548,-0.0781061,0.8974
412.122,46.4013,-2.05959,-0.07735088,0.89691
412.822,46.46937,-2.06451,-0.07392513,0.89642
413.522,46.5378,-2.06646,-0.07379094,0.89594
414.222,46.60588,-2.06985,-0.07299457,0.89545
414.922,46.67429,-2.07225,-0.07277667,0.89496
415.622,46.7425,-2.07447,-0.06936808,0.89448
416.322,46.81095,-2.07758,-0.06860695,0.89399
417.022,46.87914,-2.08104,-0.06556621,0.8935
417.722,46.94735,-2.08298,-0.06389854,0.89301
418.422,47.01547,-2.08552,-0.06295362,0.89252
419.122,47.08377,-2.08768,-0.06461741,0.89203
419.822,47.15207,-2.09184,-0.06066551,0.89153
420.522,47.22052,-2.09538,-0.06052333,0.89104
421.222,47.2887,-2.09763,-0.05906964,0.89055
421.922,47.3571,-2.10056,-0.05903853,0.89006
422.622,47.4254,-2.10219,-0.05481012,0.88956
423.322,47.4939,-2.10417,-0.05545555,0.88907
424.022,47.56225,-2.1066,-0.05460449,0.88857
424.722,47.63073,-2.1102,-0.0532119,0.88808
425.422,47.69912,-2.11279,-0.05358731,0.88758
426.122,47.76758,-2.1156,-0.05041673,0.88708
426.822,47.83603,-2.11745,-0.05039689,0.88658
427.522,47.90452,-2.12083,-0.04948593,0.88609
428.222,47.97294,-2.12123,-0.04663047,0.88559
428.922,48.0411,-2.12248,-0.04573945,0.88509
429.622,48.10974,-2.12551,-0.04707426,0.88459
430.322,48.17852,-2.1282,-0.04689882,0.88409
431.022,48.2474,-2.13023,-0.04479044,0.88359
431.722,48.31576,-2.13162,-0.04436744,0.88309
432.422,48.3842,-2.13453,-0.04310922,0.88258
433.122,48.45247,-2.13749,-0.04442726,0.88208
433.822,48.5212,-2.13794,-0.04186343,0.88158
434.522,48.58975,-2.14032,-0.03997922,0.88107
435.222,48.65855,-2.14308,-0.03944244,0.88057
435.922,48.7271,-2.14604,-0.04196143,0.88007
436.622,48.79557,-2.1478,-0.03888033,0.87956
437.322,48.86403,-2.15077,-0.04045525,0.87905
438.022,48.9327,-2.15395,-0.03888897,0.87855
438.722,49.00134,-2.15612,-0.03791642,0.87804
439.422,49.06991,-2.15603,-0.03732543,0.87753
440.122,49.13856,-2.158,-0.03684747,0.87702
440.822,49.20718,-2.16031,-0.0368265,0.87652
441.522,49.2759,-2.16328,-0.03601744,0.87601
442.222,49.3446,-2.16549,-0.03351926,0.8755
442.922,49.41344,-2.16811,-0.03441169,0.87499
443.622,49.48234,-2.1702,-0.03269253,0.87447
444.322,49.55109,-2.17273,-0.03392192,0.87396
445.022,49.61977,-2.17425,-0.03097775,0.87345
445.722,49.68853,-2.17725,-0.03089009,0.87294
446.422,49.75727,-2.17865,-0.02911057,0.87242
447.122,49.82584,-2.17884,-0.03040326,0.87191
447.822,49.89461,-2.18161,-0.03044897,0.8714
448.522,49.96315,-2.18304,-0.03058533,0.87088
449.222,50.03158,-2.18364,-0.02928243,0.87037
449.922,50.10015,-2.1849,-0.03177705,0.86985
450.622,50.16891,-2.18777,-0.03114462,0.86933
451.322,50.2378,-2.19044,-0.02871796,0.86881
452.022,50.3064,-2.19355,-0.02854432,0.8683
452.722,50.37486,-2.19345,-0.0296034,0.86778
453.422,50.44342,-2.19652,-0.02978017,0.86726
454.122,50.51208,-2.19984,-0.02885845,0.86674
454.822,50.5809,-2.20027,-0.02865269,0.86622
455.522,50.64987,-2.2028,-0.03126745,0.8657
456.222,50.71852,-2.20565,-0.02939562,0.86518
456.922,50.78715,-2.20703,-0.03016992,0.86466
457.622,50.8557,-2.20792,-0.03189438,0.86413
458.322,50.92456,-2.20916,-0.03286265,0.86361
459.022,50.9933,-2.21059,-0.03392671,0.86309
459.722,51.06214,-2.21268,-0.03304505,0.86256
460.422,51.13089,-2.21297,-0.0330698,0.86204
461.122,51.19965,-2.21575,-0.03689596,0.86151
461.822,51.2682,-2.21707,-0.03603896,0.86099
462.522,51.3367,-2.21871,-0.03641502,0.86046
463.222,51.40535,-2.21992,-0.03573777,0.85994
463.922,51.47419,-2.22148,-0.03853731,0.85941
464.622,51.54314,-2.22433,-0.03900209,0.85888
465.322,51.61189,-2.22594,-0.03998278,0.85835
466.022,51.68091,-2.22716,-0.04109512,0.85782
466.722,51.7498,-2.2287,-0.04172506,0.85729
467.422,51.81879,-2.23268,-0.04349485,0.85676
468.122,51.88767,-2.23266,-0.04259819,0.85623
468.822,51.9566,-2.23405,-0.04606762,0.8557
469.522,52.02544,-2.2365,-0.04665343,0.85517
470.222,52.09391,-2.23669,-0.04828166,0.85464
470.922,52.1631,-2.23783,-0.04789734,0.85411
471.622,52.23215,-2.23895,-0.04830695,0.85357
472.322,52.30146,-2.24155,-0.04869129,0.85304
473.022,52.37021,-2.24288,-0.04950559,0.8525
473.722,52.43895,-2.2443,-0.05061922,0.85197
474.422,52.50785,-2.24796,-0.04899797,0.85143
475.122,52.57688,-2.2499,-0.05143988,0.8509
475.822,52.64572,-2.25124,-0.05111363,0.85036
476.522,52.71471,-2.25033,-0.0529039,0.84982
477.222,52.7836,-2.25176,-0.05208914,0.84929
477.922,52.85261,-2.25331,-0.05272004,0.84875
478.622,52.92154,-2.25457,-0.05565415,0.84821
479.322,52.99049,-2.25593,-0.05588638,0.84767
480.022,53.0594,-2.25736,-0.0574159,0.84713
480.722,53.12826,-2.2591,-0.05739596,0.84659
481.422,53.197,-2.26148,-0.05894604,0.84605
482.122,53.26591,-2.26261,-0.05665507,0.84551
482.822,53.3348,-2.26416,-0.05618547,0.84497
483.522,53.4037,-2.26565,-0.05989132,0.84442
484.222,53.4726,-2.26559,-0.06012193,0.84388
484.922,53.54139,-2.26737,-0.05988273,0.84334
485.622,53.61022,-2.269,-0.06151571,0.84279
486.322,53.6791,-2.27052,-0.06096664,0.84225
487.022,53.74814,-2.27049,-0.06023014,0.8417
487.722,53.8172,-2.27142,-0.06185999,0.84116
488.422,53.88606,-2.27227,-0.06191243,0.84061
489.122,53.95527,-2.27349,-0.06371121,0.84007
489.822,54.0245,-2.27565,-0.06565279,0.83952
490.522,54.094,-2.27755,-0.06475835,0.83897
491.222,54.1629,-2.27999,-0.06422054,0.83842
491.922,54.2319,-2.28041,-0.06418912,0.83787
492.622,54.3006,-2.28054,-0.06716719,0.83732
493.322,54.36975,-2.28207,-0.06633552,0.83677
494.022,54.4387,-2.28481,-0.06379236,0.83622
494.722,54.50798,-2.28471,-0.06717212,0.83567
495.422,54.5771,-2.2864,-0.06395954,0.83512
496.122,54.64625,-2.28906,-0.06601094,0.83457
496.822,54.71559,-2.29018,-0.06599825,0.83402
497.522,54.7848,-2.2902,-0.06637425,0.83346
498.222,54.8541,-2.29094,-0.06672227,0.83291
498.922,54.9233,-2.29238,-0.06727286,0.83236
499.622,54.9924,-2.29384,-0.06903999,0.8318
500.322,55.06154,-2.29428,-0.0697284,0.83125
501.022,55.1306,-2.29612,-0.06923546,0.83069
501.722,55.19993,-2.29261,-0.06910592,0.83014
502.422,55.2691,-2.29767,-0.06957593,0.82958
503.122,55.33817,-2.30171,-0.06985419,0.82902
503.822,55.4071,-2.30348,-0.07154507,0.82846
504.522,55.47625,-2.30348,-0.07019894,0.82791
505.222,55.5454,-2.30348,-0.07138438,0.82735
505.922,55.61476,-2.30216,-0.07323343,0.82679
506.622,55.684,-2.30371,-0.0721211,0.82623
507.322,55.7533,-2.30524,-0.07345888,0.82567
508.022,55.8224,-2.30656,-0.0698249,0.82511
508.722,55.89159,-2.30798,-0.07052615,0.82455
509.422,55.96063,-2.3094,-0.06772656,0.82398
510.122,56.02955,-2.31095,-0.06581773,0.82342
510.822,56.0987,-2.31158,-0.0655283,0.82286
511.522,56.1681,-2.31146,-0.06319917,0.8223
512.222,56.23761,-2.31189,-0.06341516,0.82173
512.922,56.30698,-2.31234,-0.05951002,0.82117
513.622,56.37633,-2.31323,-0.05861352,0.8206
514.322,56.4457,-2.31446,-0.05742029,0.82004
515.022,56.515,-2.31749,-0.05727912,0.81947
515.722,56.5844,-2.31781,-0.05295315,0.81891
516.422,56.6536,-2.31781,-0.05309668,0.81834
517.122,56.72295,-2.32039,-0.05430501,0.81777
517.822,56.7921,-2.32174,-0.05380636,0.8172
518.522,56.86099,-2.322,-0.05251565,0.81664
519.222,56.9301,-2.32488,-0.04964772,0.81607
519.922,56.9994,-2.32748,-0.05192697,0.8155
520.622,57.06904,-2.32623,-0.04903084,0.81493
521.322,57.13853,-2.32674,-0.04912347,0.81436
522.022,57.208,-2.32754,-0.04921973,0.81379
522.722,57.2773,-2.32995,-0.04912086,0.81322
523.422,57.34689,-2.33072,-0.04722845,0.81264
524.122,57.41649,-2.33135,-0.04697532,0.81207
524.822,57.48641,-2.33268,-0.04859364,0.8115
525.522,57.5557,-2.33399,-0.0465258,0.81093
526.222,57.6251,-2.3337,-0.04572897,0.81035
526.922,57.6946,-2.33431,-0.04672041,0.80978
527.622,57.7638,-2.33564,-0.04776003,0.8092
528.322,57.833,-2.33705,-0.04939701,0.80863
529.022,57.90225,-2.33705,-0.04786908,0.80805
529.722,57.97211,-2.33827,-0.04837801,0.80748
530.422,58.0417,-2.33907,-0.04798467,0.8069
531.122,58.11135,-2.34181,-0.0470589,0.80632
531.822,58.1808,-2.34252,-0.04778384,0.80575
532.522,58.2498,-2.34311,-0.0477334,0.80517
533.222,58.31909,-2.34444,-0.04687245,0.80459
533.922,58.38833,-2.34435,-0.04800917,0.80401
534.622,58.4579,-2.34574,-0.04648021,0.80343
535.322,58.5274,-2.34573,-0.04417407,0.80285
536.022,58.59705,-2.34841,-0.04560305,0.80227
536.722,58.6667,-2.34961,-0.0435603,0.80169
537.422,58.7363,-2.35016,-0.04328518,0.80111
538.122,58.80571,-2.35112,-0.04207706,0.80053
538.822,58.8751,-2.35255,-0.04190616,0.79994
539.522,58.9446,-2.35261,-0.04296556,0.79936
540.222,59.01415,-2.35386,-0.04087388,0.79878
540.922,59.08379,-2.35421,-0.04110179,0.79819
541.622,59.15341,-2.35419,-0.04215432,0.79761
542.322,59.22289,-2.35568,-0.03911064,0.79703
543.022,59.2925,-2.35562,-0.03985258,0.79644
543.722,59.3621,-2.35694,-0.04004212,0.79585
544.422,59.4319,-2.35844,-0.03665832,0.79527
545.122,59.50147,-2.36206,-0.03634823,0.79468
545.822,59.5711,-2.3621,-0.03740179,0.79409
546.522,59.6408,-2.3621,-0.03701691,0.79351
547.222,59.71063,-2.36223,-0.03844765,0.79292
547.922,59.7803,-2.36256,-0.03754447,0.79233
548.622,59.84998,-2.36352,-0.03610371,0.79174
549.322,59.91972,-2.36484,-0.03161412,0.79115
550.022,59.9897,-2.36759,-0.03448597,0.79056
550.722,60.05919,-2.36831,-0.03396381,0.78997
551.422,60.1291,-2.3689,-0.03264798,0.78938
552.122,60.1991,-2.37022,-0.0337884,0.78879
552.822,60.26935,-2.37018,-0.03391949,0.7882
553.522,60.33931,-2.37176,-0.03038949,0.78761
554.222,60.40908,-2.37307,-0.0308187,0.78701
554.922,60.47902,-2.37307,-0.03137931,0.78642
555.622,60.5489,-2.37307,-0.03037376,0.78583
556.322,60.6188,-2.37439,-0.02890624,0.78523
557.022,60.68865,-2.37582,-0.02614751,0.78464
557.722,60.7585,-2.37712,-0.02655141,0.78404
558.422,60.82833,-2.37595,-0.02638583,0.78345
559.122,60.89818,-2.37717,-0.02737394,0.78285
559.822,60.96779,-2.37925,-0.02403295,0.78226
560.522,61.03748,-2.38034,-0.02769292,0.78166
561.222,61.10708,-2.38212,-0.02607537,0.78106
561.922,61.1768,-2.3833,-0.0250539,0.78047
562.622,61.24654,-2.38478,-0.029309,0.77987
563.322,61.31646,-2.38572,-0.02934596,0.77927
564.022,61.38645,-2.38735,-0.03227727,0.77867
564.722,61.4562,-2.38735,-0.03018982,0.77807
565.422,61.52573,-2.38735,-0.02829955,0.77747
566.122,61.5952,-2.38732,-0.02540371,0.77687
566.822,61.66479,-2.38825,-0.02155347,0.77627
567.522,61.7345,-2.38866,-0.02204082,0.77567
568.222,61.80426,-2.38989,-0.0222165,0.77507
568.922,61.87395,-2.39257,-0.02090203,0.77447
569.622,61.9437,-2.39265,-0.02238985,0.77386
570.322,62.0137,-2.39292,-0.02206073,0.77326
571.022,62.0836,-2.39526,-0.02091342,0.77266
571.722,62.1533,-2.39656,-0.01630437,0.77205
572.422,62.22291,-2.39718,-0.01539139,0.77145
573.122,62.29271,-2.39659,-0.0119324,0.77085
573.822,62.3626,-2.39788,-0.01279023,0.77024
574.522,62.4323,-2.39933,-0.01061931,0.76964
575.222,62.502,-2.39927,-0.00989111,0.76903
575.922,62.57186,-2.40088,-0.01231768,0.76842
576.622,62.6418,-2.40359,-0.01104713,0.76782
577.322,62.71184,-2.40489,-0.01070163,0.76721
578.022,62.78174,-2.40491,-0.01176741,0.7666
578.722,62.85176,-2.40623,-0.01086479,0.76599
579.422,62.92165,-2.40623,-0.01166065,0.76539
580.122,62.9917,-2.40785,-0.01601812,0.76478
580.822,63.0615,-2.40782,-0.01672184,0.76417
581.522,63.1315,-2.40909,-0.01687435,0.76356
582.222,63.20149,-2.41038,-0.01745802,0.76295
582.922,63.2717,-2.41171,-0.01864156,0.76234
583.622,63.34183,-2.41172,-0.01918059,0.76173
584.322,63.4117,-2.41304,-0.01998194,0.76112
585.022,63.4818,-2.41304,-0.02551137,0.76051
585.722,63.55131,-2.41436,-0.02851514,0.75989
586.422,63.6213,-2.41513,-0.02721831,0.75928
587.122,63.69092,-2.41567,-0.02822251,0.75867
587.822,63.76098,-2.41699,-0.02652077,0.75805
588.522,63.83087,-2.41835,-0.02819143,0.75744
589.222,63.90067,-2.41968,-0.0307063,0.75683
589.922,63.97064,-2.42116,-0.03002727,0.75621
590.622,64.04026,-2.42248,-0.03531653,0.7556
591.322,64.1098,-2.42345,-0.03611534,0.75498
592.022,64.17962,-2.42442,-0.03763806,0.75437
592.722,64.2496,-2.42665,-0.03867527,0.75375
593.422,64.31999,-2.42665,-0.03845923,0.75313
594.122,64.39,-2.42808,-0.04025211,0.75252
594.822,64.46016,-2.42676,-0.04153835,0.7519
595.522,64.53017,-2.42819,-0.04235014,0.75128
596.222,64.60015,-2.42995,-0.04287519,0.75066
596.922,64.67021,-2.43093,-0.04391895,0.75005
597.622,64.74028,-2.43227,-0.04544125,0.74943
598.322,64.81036,-2.43291,-0.04832714,0.74881
599.022,64.88034,-2.43453,-0.04786262,0.74819
599.722,64.95045,-2.43394,-0.05059422,0.74757
600.422,65.02067,-2.43488,-0.04899274,0.74695
601.122,65.09084,-2.4362,-0.05219177,0.74633
601.822,65.1609,-2.4362,-0.05276587,0.74571
602.522,65.23087,-2.43858,-0.05470871,0.74508
603.222,65.301,-2.43884,-0.0549052,0.74446
603.922,65.3712,-2.43884,-0.05772766,0.74384
604.622,65.4412,-2.43884,-0.05665552,0.74322
605.322,65.51123,-2.44136,-0.06023678,0.74259
606.022,65.58135,-2.44306,-0.05917553,0.74197
606.722,65.65169,-2.44576,-0.06066746,0.74135
607.422,65.7219,-2.44707,-0.06128884,0.74072
608.122,65.792,-2.44787,-0.06562324,0.7401
608.822,65.8621,-2.44904,-0.06377476,0.73947
609.522,65.93226,-2.4464,-0.065447,0.73885
610.222,66.00234,-2.44923,-0.0669729,0.73822
610.922,66.0723,-2.45108,-0.07108516,0.7376
611.622,66.14215,-2.4519,-0.07048801,0.73697
612.322,66.21221,-2.45322,-0.07328511,0.73634
613.022,66.28246,-2.45322,-0.07251956,0.73571
613.722,66.35288,-2.45213,-0.07712106,0.73509
614.422,66.42289,-2.45225,-0.07547661,0.73446
615.122,66.49257,-2.45455,-0.07828811,0.73383
615.822,66.5628,-2.45889,-0.07892635,0.7332
616.522,66.63327,-2.45947,-0.07919835,0.73257
617.222,66.70399,-2.45947,-0.08109855,0.73194
617.922,66.774,-2.45947,-0.08449186,0.73131
618.622,66.8442,-2.45705,-0.0834051,0.73068
619.322,66.91447,-2.45807,-0.08520146,0.73005
620.022,66.98504,-2.46316,-0.08390219,0.72942
620.722,67.05542,-2.46374,-0.08621388,0.72879
621.422,67.1259,-2.46647,-0.08637422,0.72816
622.122,67.19626,-2.46639,-0.08826443,0.72753
622.822,67.26677,-2.46642,-0.08691329,0.7269
623.522,67.33725,-2.46793,-0.08733911,0.72626
624.222,67.40764,-2.47038,-0.08892039,0.72563
624.922,67.47792,-2.47058,-0.08818751,0.725
625.622,67.54809,-2.47188,-0.09089291,0.72436
626.322,67.61824,-2.47185,-0.09155342,0.72373
627.022,67.6885,-2.47079,-0.09197877,0.7231
627.722,67.75865,-2.47185,-0.09067294,0.72246
628.422,67.8289,-2.47319,-0.09151679,0.72183
629.122,67.89896,-2.47319,-0.09278813,0.72119
629.822,67.96915,-2.47449,-0.09622771,0.72055
630.522,68.03924,-2.47511,-0.0959175,0.71992
631.222,68.10934,-2.47607,-0.09637908,0.71928
631.922,68.17941,-2.47799,-0.09771563,0.71865
632.622,68.24947,-2.47998,-0.09547214,0.71801
633.322,68.31974,-2.48001,-0.09736103,0.71737
634.022,68.39001,-2.48132,-0.0969392,0.71673
634.722,68.4603,-2.48132,-0.09518322,0.7161
635.422,68.53041,-2.48235,-0.09817882,0.71546
636.122,68.60043,-2.48275,-0.10065,0.71482
636.822,68.67056,-2.48407,-0.09729604,0.71418
637.522,68.74065,-2.4855,-0.10033,0.71354
638.222,68.81084,-2.4872,-0.09871314,0.7129
638.922,68.88107,-2.48757,-0.10011,0.71226
639.622,68.95138,-2.48798,-0.10319,0.71162
640.322,69.02169,-2.4902,-0.10206,0.71098
641.022,69.09192,-2.49076,-0.10188,0.71034
641.722,69.16201,-2.49305,-0.10566,0.7097
642.422,69.23224,-2.4946,-0.10729,0.70906
643.122,69.3026,-2.49603,-0.10811,0.70841
643.822,69.37304,-2.49473,-0.10685,0.70777
644.522,69.44337,-2.49551,-0.10932,0.70713
645.222,69.5138,-2.49767,-0.10943,0.70649
645.922,69.58402,-2.49831,-0.11023,0.70584
646.622,69.65441,-2.4995,-0.11025,0.7052
647.322,69.72466,-2.49851,-0.10847,0.70456
648.022,69.79465,-2.49851,-0.10991,0.70391
648.722,69.86485,-2.49998,-0.10855,0.70327
649.422,69.93509,-2.50415,-0.10859,0.70262
650.122,70.0057,-2.50405,-0.10641,0.70198
650.822,70.07565,-2.50404,-0.10796,0.70133
651.522,70.14594,-2.50598,-0.10645,0.70069
652.222,70.21631,-2.50804,-0.10651,0.70004
652.922,70.2868,-2.50822,-0.10502,0.69939
653.622,70.357,-2.50954,-0.10141,0.69875
654.322,70.42736,-2.50954,-0.1014,0.6981
655.022,70.49778,-2.51105,-0.09943584,0.69745
655.722,70.56798,-2.51096,-0.09909592,0.69681
656.422,70.6382,-2.5125,-0.09840513,0.69616
657.122,70.70881,-2.51378,-0.09471358,0.69551
657.822,70.7797,-2.51382,-0.09144422,0.69486
658.522,70.8503,-2.51768,-0.08970942,0.69421
659.222,70.92061,-2.5192,-0.08959968,0.69357
659.922,70.991,-2.52051,-0.08852401,0.69292
660.622,71.06147,-2.52053,-0.08596663,0.69227
661.322,71.13192,-2.52084,-0.0858144,0.69162
662.022,71.20214,-2.52227,-0.08539963,0.69097
662.722,71.27258,-2.52372,-0.08138962,0.69032
663.422,71.3429,-2.52427,-0.08072851,0.68967
664.122,71.4132,-2.5247,-0.08160062,0.68902
664.822,71.48345,-2.52507,-0.08084469,0.68836
665.522,71.5538,-2.52708,-0.07675885,0.68771
666.222,71.62411,-2.52743,-0.0759207,0.68706
666.922,71.6944,-2.52872,-0.07509715,0.68641
667.622,71.76448,-2.53156,-0.07287237,0.68576
668.322,71.83485,-2.5303,-0.07028321,0.68511
669.022,71.9051,-2.53279,-0.07057743,0.68445
669.722,71.9756,-2.53445,-0.0683304,0.6838
670.422,72.046,-2.53599,-0.0658453,0.68315
671.122,72.11644,-2.53754,-0.06629344,0.68249
671.822,72.18704,-2.53822,-0.06964455,0.68184
672.522,72.2576,-2.53884,-0.06992417,0.68118
673.222,72.32819,-2.53884,-0.07095087,0.68053
673.922,72.39871,-2.53915,-0.07178899,0.67988
674.622,72.46937,-2.53967,-0.06994354,0.67922
675.322,72.54021,-2.54118,-0.07365211,0.67857
676.022,72.6109,-2.54492,-0.07202271,0.67791
676.722,72.68155,-2.54631,-0.07328831,0.67726
677.422,72.7522,-2.54759,-0.07991488,0.6766
678.122,72.82285,-2.54926,-0.08250615,0.67594
678.822,72.89341,-2.55032,-0.08289988,0.67529
679.522,72.96393,-2.55067,-0.08792047,0.67463
680.222,73.03448,-2.5504,-0.08667975,0.67397
680.922,73.10507,-2.55119,-0.09037568,0.67332
681.622,73.17573,-2.55279,-0.09804269,0.67266
682.322,73.24641,-2.55421,-0.10099,0.672
683.022,73.31694,-2.5557,-0.10644,0.67134
683.722,73.38745,-2.55707,-0.109,0.67069
684.422,73.45804,-2.55849,-0.11365,0.67003
685.122,73.52879,-2.55954,-0.11904,0.66937
685.822,73.59929,-2.55846,-0.12242,0.66871
686.522,73.66979,-2.55982,-0.12779,0.66805
687.222,73.74037,-2.55982,-0.1308,0.66739
687.922,73.81113,-2.56114,-0.13657,0.66673
688.622,73.88169,-2.56114,-0.14153,0.66607
689.322,73.9521,-2.56113,-0.14323,0.66541
690.022,74.0225,-2.56179,-0.14801,0.66475
690.722,74.09295,-2.56336,-0.14931,0.66409
691.422,74.1635,-2.56447,-0.14848,0.66343
692.122,74.23396,-2.56586,-0.1523,0.66277
692.822,74.30448,-2.56717,-0.15597,0.66211
693.522,74.37491,-2.56872,-0.15865,0.66145
694.222,74.44551,-2.56966,-0.15648,0.66079
694.922,74.51602,-2.5697,-0.16142,0.66013
695.622,74.58662,-2.57102,-0.16183,0.65946
696.322,74.6571,-2.56946,-0.16215,0.6588
697.022,74.72755,-2.57012,-0.16436,0.65814
697.722,74.79767,-2.5698,-0.16433,0.65748
698.422,74.86822,-2.56979,-0.16365,0.65681
699.122,74.93866,-2.57135,-0.16634,0.65615
699.822,75.00976,-2.57244,-0.16551,0.65549
700.522,75.0805,-2.57376,-0.1651,0.65482
701.222,75.1514,-2.57507,-0.16536,0.65416
701.922,75.22189,-2.57507,-0.16627,0.6535
702.622,75.29254,-2.57722,-0.16874,0.65283
703.322,75.3631,-2.57738,-0.17077,0.65217
704.022,75.43369,-2.57743,-0.16914,0.6515
704.722,75.5043,-2.57754,-0.16899,0.65084
705.422,75.57475,-2.57881,-0.1673,0.65017
706.122,75.64541,-2.57881,-0.16825,0.64951
706.822,75.71593,-2.58011,-0.16952,0.64884
707.522,75.78662,-2.58024,-0.16946,0.64818
708.222,75.8571,-2.58144,-0.17383,0.64751
708.922,75.9277,-2.58144,-0.17421,0.64685
709.622,75.99825,-2.58276,-0.16994,0.64618
710.322,76.06881,-2.58276,-0.1708,0.64552
711.022,76.13933,-2.58276,-0.17143,0.64485
711.722,76.20989,-2.58408,-0.17313,0.64418
712.422,76.28047,-2.58539,-0.1697,0.64352
713.122,76.35116,-2.58445,-0.17026,0.64285
713.822,76.4218,-2.58544,-0.16955,0.64218
714.522,76.49246,-2.58655,-0.16674,0.64151
715.222,76.5632,-2.58836,-0.16648,0.64085
715.922,76.63405,-2.58827,-0.16811,0.64018
716.622,76.70483,-2.58966,-0.16671,0.63951
717.322,76.77555,-2.58967,-0.16957,0.63884
718.022,76.84618,-2.59109,-0.16837,0.63818
718.722,76.9169,-2.58954,-0.16865,0.63751
719.422,76.98722,-2.59055,-0.16732,0.63684
720.122,77.05761,-2.59187,-0.16809,0.63617
720.822,77.12822,-2.59213,-0.1701,0.6355
721.522,77.1991,-2.59221,-0.168,0.63483
722.222,77.26993,-2.59221,-0.16778,0.63416
722.922,77.34046,-2.59428,-0.16733,0.63349
723.622,77.41067,-2.59532,-0.16572,0.63282
724.322,77.48134,-2.59638,-0.16764,0.63215
725.022,77.55208,-2.5956,-0.16766,0.63148
725.722,77.62325,-2.59576,-0.16635,0.63081
726.422,77.69407,-2.59692,-0.16534,0.63014
727.122,77.76501,-2.59699,-0.16457,0.62947
727.822,77.83588,-2.59824,-0.16341,0.6288
728.522,77.90693,-2.59824,-0.16459,0.62813
729.222,77.97782,-2.59956,-0.16305,0.62746
729.922,78.0487,-2.59955,-0.16404,0.62679
730.622,78.11959,-2.60054,-0.16268,0.62612
731.322,78.19,-2.60088,-0.16406,0.62545
732.022,78.2606,-2.59884,-0.16305,0.62478
732.722,78.33139,-2.6002,-0.16501,0.62411
733.422,78.40262,-2.60027,-0.1641,0.62343
734.122,78.4736,-2.60109,-0.16542,0.62276
734.822,78.54411,-2.60241,-0.16511,0.62209
735.522,78.6147,-2.60375,-0.16356,0.62142
736.222,78.68531,-2.60406,-0.16601,0.62075
736.922,78.75631,-2.60406,-0.16599,0.62007
737.622,78.82723,-2.60504,-0.16592,0.6194
738.322,78.8982,-2.60646,-0.1658,0.61873
739.022,78.96887,-2.6078,-0.16424,0.61806
739.722,79.03963,-2.60779,-0.16378,0.61738
740.422,79.1102,-2.60856,-0.16638,0.61671
741.122,79.1812,-2.60798,-0.16269,0.61604
741.822,79.25192,-2.60804,-0.16377,0.61537
742.522,79.32288,-2.60905,-0.1637,0.61469
743.222,79.39355,-2.60856,-0.16262,0.61402
743.922,79.4644,-2.61041,-0.16502,0.61335
744.622,79.53493,-2.61116,-0.16567,0.61267
745.322,79.6053,-2.61212,-0.16247,0.612
746.022,79.6761,-2.61263,-0.16292,0.61132
746.722,79.7471,-2.61262,-0.16584,0.61065
747.422,79.81826,-2.61129,-0.16277,0.60998
748.122,79.88879,-2.61286,-0.16368,0.6093
748.822,79.95943,-2.61394,-0.16333,0.60863
749.122,79.99035,-2.61394,-0.16615,0.60834