File: 01_Data/Cellulose_Insulation/STA/N2/10K_min/Cellulose_Insulation_STA_N2_10KData_220729_R2.csv
##Temp./Â°C,Time/min,Mass loss(subtr.2)/mg,DSC(subtr.2)/(mW/mg),Sensit./(uV/mW)
49.606,10.00917,-0.0293,0.03176257,1.0702
50.206,10.73297,-0.02995447,0.064049,1.07004
50.806,10.926,-0.0306317,0.0870263,1.06988
51.406,11.0676,-0.03068868,0.10722,1.06971
52.006,11.18704,-0.02860471,0.1264,1.06954
52.606,11.29397,-0.02948562,0.14323,1.06938
53.206,11.39134,-0.03009384,0.15611,1.06921
53.806,11.48192,-0.02972369,0.16647,1.06904
54.406,11.56809,-0.03150253,0.1774,1.06888
55.006,11.6506,-0.03124185,0.19067,1.06871
55.606,11.73,-0.03449091,0.19937,1.06854
56.206,11.80684,-0.03305732,0.20837,1.06837
56.806,11.8813,-0.03343365,0.21689,1.0682
57.406,11.9544,-0.03250019,0.22346,1.06803
58.006,12.0264,-0.03262535,0.22831,1.06786
58.606,12.09742,-0.03236702,0.23898,1.06769
59.206,12.16732,-0.03260215,0.24172,1.06752
59.806,12.2364,-0.03383284,0.25089,1.06735
60.406,12.30519,-0.033722,0.25473,1.06718
61.006,12.3736,-0.03379564,0.26116,1.06701
61.606,12.44137,-0.03467874,0.26501,1.06684
62.206,12.5086,-0.03396481,0.27081,1.06667
62.806,12.5754,-0.0335941,0.27402,1.06649
63.406,12.64185,-0.03490006,0.28019,1.06632
64.006,12.708,-0.03621566,0.28482,1.06615
64.606,12.77319,-0.03684918,0.29113,1.06597
65.206,12.83877,-0.0376396,0.29717,1.0658
65.806,12.9041,-0.03809023,0.30221,1.06563
66.406,12.9697,-0.03764999,0.30668,1.06545
67.006,13.03437,-0.03761094,0.31028,1.06528
67.606,13.0992,-0.03589883,0.31614,1.0651
68.206,13.16385,-0.03918145,0.32166,1.06492
68.806,13.22835,-0.04060998,0.32491,1.06475
69.406,13.293,-0.04060979,0.3298,1.06457
70.006,13.35696,-0.04181624,0.3359,1.06439
70.606,13.4206,-0.04060825,0.34279,1.06422
71.206,13.4843,-0.04192837,0.3461,1.06404
71.806,13.5478,-0.04189828,0.35022,1.06386
72.406,13.61176,-0.04325025,0.35683,1.06368
73.006,13.6751,-0.04325097,0.36204,1.0635
73.606,13.73829,-0.04456825,0.36555,1.06332
74.206,13.80144,-0.04455993,0.37132,1.06314
74.806,13.8644,-0.04315115,0.3772,1.06296
75.406,13.9272,-0.04597132,0.38381,1.06278
76.006,13.99001,-0.04422941,0.38855,1.0626
76.606,14.0524,-0.04869262,0.39322,1.06242
77.206,14.1151,-0.05109759,0.39852,1.06224
77.806,14.17728,-0.0498434,0.40181,1.06206
78.406,14.2397,-0.04983,0.40832,1.06188
79.006,14.3018,-0.04983978,0.41309,1.06169
79.606,14.3636,-0.05122155,0.41768,1.06151
80.206,14.42539,-0.05423399,0.42111,1.06133
80.806,14.48709,-0.05411607,0.42709,1.06114
81.406,14.5488,-0.0541201,0.42913,1.06096
82.006,14.6105,-0.05278399,0.43334,1.06077
82.606,14.6716,-0.05559434,0.43877,1.06059
83.206,14.7328,-0.05624958,0.4408,1.0604
83.806,14.79381,-0.05685986,0.44415,1.06022
84.406,14.8548,-0.05681,0.44775,1.06003
85.006,14.91589,-0.05817029,0.45058,1.05985
85.606,14.9768,-0.05951438,0.45315,1.05966
86.206,15.03785,-0.05948984,0.45549,1.05947
86.806,15.0985,-0.06078816,0.45831,1.05928
87.406,15.1591,-0.06213109,0.46074,1.0591
88.006,15.2196,-0.06414446,0.46154,1.05891
88.606,15.28016,-0.06476996,0.46592,1.05872
89.206,15.34053,-0.06477025,0.46738,1.05853
89.806,15.4009,-0.06612884,0.46939,1.05834
90.406,15.46069,-0.06608989,0.47183,1.05815
91.006,15.5207,-0.06738229,0.47328,1.05796
91.606,15.58087,-0.06869577,0.47386,1.05777
92.206,15.641,-0.07003288,0.47544,1.05758
92.806,15.7012,-0.0700298,0.47702,1.05739
93.406,15.7612,-0.07116273,0.47837,1.05719
94.006,15.8209,-0.07267562,0.47918,1.057
94.606,15.8805,-0.07410468,0.47919,1.05681
95.206,15.94028,-0.07540602,0.48006,1.05662
95.806,15.99968,-0.07541967,0.48178,1.05642
96.406,16.0587,-0.07674401,0.4816,1.05623
97.006,16.11792,-0.07674009,0.48329,1.05604
97.606,16.17715,-0.07810855,0.48409,1.05584
98.206,16.2365,-0.07936197,0.48377,1.05565
98.806,16.29573,-0.08068483,0.48562,1.05545
99.406,16.35497,-0.08068,0.48529,1.05525
100.006,16.41394,-0.08068341,0.48606,1.05506
100.606,16.4731,-0.08333421,0.48667,1.05486
101.206,16.53214,-0.08334473,0.48821,1.05467
101.806,16.59078,-0.08596514,0.48661,1.05447
102.406,16.6495,-0.08596003,0.48866,1.05427
103.006,16.70806,-0.08505215,0.48695,1.05407
103.606,16.7665,-0.08569808,0.48505,1.05387
104.206,16.82535,-0.08490727,0.48524,1.05368
104.806,16.8842,-0.08871135,0.48403,1.05348
105.406,16.9429,-0.09097397,0.48509,1.05328
106.006,17.0018,-0.09160697,0.48477,1.05308
106.606,17.06042,-0.09243046,0.48429,1.05288
107.206,17.11907,-0.09364161,0.48078,1.05268
107.806,17.17788,-0.09364003,0.48096,1.05247
108.406,17.2365,-0.09560307,0.47992,1.05227
109.006,17.2953,-0.0961759,0.47765,1.05207
109.606,17.35406,-0.09635651,0.47599,1.05187
110.206,17.4129,-0.09515752,0.47501,1.05167
110.806,17.47184,-0.09779809,0.47146,1.05146
111.406,17.53049,-0.09901892,0.47182,1.05126
112.006,17.58912,-0.09902,0.47093,1.05106
112.606,17.64775,-0.09987866,0.47102,1.05085
113.206,17.7062,-0.10034,0.46832,1.05065
113.806,17.76464,-0.10035,0.46488,1.05044
114.406,17.82283,-0.10232,0.46317,1.05024
115.006,17.88118,-0.10297,0.46442,1.05003
115.606,17.93976,-0.103,0.4614,1.04983
116.206,17.99841,-0.10564,0.46058,1.04962
116.806,18.05724,-0.10454,0.45861,1.04941
117.406,18.11577,-0.1056,0.45848,1.04921
118.006,18.1743,-0.10717,0.45695,1.049
118.606,18.23265,-0.10824,0.45941,1.04879
119.206,18.29106,-0.10824,0.45707,1.04858
119.806,18.34927,-0.10824,0.45519,1.04837
120.406,18.40736,-0.11036,0.45487,1.04816
121.006,18.46575,-0.10956,0.45474,1.04795
121.606,18.52413,-0.1095,0.4536,1.04774
122.206,18.58234,-0.11219,0.45098,1.04753
122.806,18.64096,-0.11219,0.45244,1.04732
123.406,18.69901,-0.11219,0.45016,1.04711
124.006,18.7573,-0.11342,0.45075,1.0469
124.606,18.81571,-0.11481,0.44872,1.04669
125.206,18.874,-0.11482,0.4477,1.04647
125.806,18.93207,-0.11791,0.44919,1.04626
126.406,18.99018,-0.11683,0.44765,1.04605
127.006,19.04843,-0.11658,0.44589,1.04584
127.606,19.1068,-0.11658,0.44702,1.04562
128.206,19.16532,-0.11693,0.44412,1.04541
128.806,19.22351,-0.1179,0.44506,1.04519
129.406,19.2815,-0.11856,0.44469,1.04498
130.006,19.3398,-0.12053,0.44476,1.04476
130.606,19.39794,-0.12185,0.44441,1.04455
131.206,19.45617,-0.12185,0.44226,1.04433
131.806,19.5141,-0.12185,0.44487,1.04411
132.406,19.57206,-0.12315,0.44477,1.0439
133.006,19.63006,-0.12317,0.44428,1.04368
133.606,19.68815,-0.12317,0.44514,1.04346
134.206,19.7464,-0.12444,0.44431,1.04324
134.806,19.80442,-0.12552,0.44609,1.04302
135.406,19.86255,-0.12422,0.4463,1.0428
136.006,19.92034,-0.12474,0.44555,1.04259
136.606,19.9782,-0.12745,0.44662,1.04237
137.206,20.03572,-0.12748,0.44489,1.04214
137.806,20.09358,-0.12939,0.44567,1.04192
138.406,20.1513,-0.12975,0.44683,1.0417
139.006,20.20887,-0.12975,0.44698,1.04148
139.606,20.26684,-0.12975,0.4465,1.04126
140.206,20.3245,-0.13064,0.44584,1.04104
140.806,20.38276,-0.13107,0.44586,1.04082
141.406,20.44071,-0.13139,0.44773,1.04059
142.006,20.49856,-0.1314,0.44673,1.04037
142.606,20.55647,-0.13266,0.44931,1.04014
143.206,20.61414,-0.13404,0.44875,1.03992
143.806,20.67199,-0.13404,0.45009,1.0397
144.406,20.72997,-0.13404,0.44943,1.03947
145.006,20.78795,-0.13668,0.44949,1.03925
145.606,20.8459,-0.13669,0.4504,1.03902
146.206,20.9037,-0.14054,0.45134,1.03879
146.806,20.96107,-0.14194,0.45101,1.03857
147.406,21.01868,-0.14158,0.45138,1.03834
148.006,21.07627,-0.14314,0.45075,1.03811
148.606,21.13394,-0.13926,0.451,1.03788
149.206,21.19164,-0.13941,0.45178,1.03766
149.806,21.24926,-0.13942,0.45145,1.03743
150.406,21.30694,-0.13941,0.45341,1.0372
151.006,21.36492,-0.14205,0.45371,1.03697
151.606,21.4226,-0.14273,0.45366,1.03674
152.206,21.48023,-0.14468,0.45391,1.03651
152.806,21.5377,-0.14468,0.45429,1.03628
153.406,21.59526,-0.14608,0.45328,1.03605
154.006,21.65278,-0.14742,0.45444,1.03582
154.606,21.71032,-0.14776,0.45412,1.03558
155.206,21.76795,-0.14804,0.45691,1.03535
155.806,21.8257,-0.14676,0.45743,1.03512
156.406,21.8834,-0.1512,0.45745,1.03489
157.006,21.9409,-0.15117,0.45884,1.03465
157.606,21.99846,-0.15313,0.45865,1.03442
158.206,22.0557,-0.15333,0.45885,1.03418
158.806,22.11284,-0.1538,0.45849,1.03395
159.406,22.17024,-0.15312,0.45893,1.03372
160.006,22.2275,-0.1538,0.45957,1.03348
160.606,22.28499,-0.1538,0.45969,1.03324
161.206,22.3425,-0.15395,0.4582,1.03301
161.806,22.39951,-0.15509,0.45952,1.03277
162.406,22.45719,-0.15183,0.45835,1.03253
163.006,22.5145,-0.15184,0.45869,1.0323
163.606,22.57186,-0.15374,0.46007,1.03206
164.206,22.62949,-0.15446,0.46027,1.03182
164.806,22.6866,-0.156,0.46033,1.03158
165.406,22.74406,-0.15463,0.45914,1.03134
166.006,22.80145,-0.1574,0.4615,1.0311
166.606,22.85904,-0.15895,0.45872,1.03086
167.206,22.91639,-0.16028,0.46042,1.03062
167.806,22.9738,-0.1629,0.46037,1.03038
168.406,23.03111,-0.16291,0.45842,1.03014
169.006,23.08863,-0.16191,0.4586,1.0299
169.606,23.14588,-0.16204,0.45701,1.02966
170.206,23.2033,-0.16423,0.45664,1.02941
170.806,23.2607,-0.16634,0.45789,1.02917
171.406,23.318,-0.16716,0.45653,1.02893
172.006,23.37529,-0.16851,0.45842,1.02869
172.606,23.43279,-0.16851,0.45786,1.02844
173.206,23.49022,-0.16851,0.45528,1.0282
173.806,23.54779,-0.16884,0.45569,1.02795
174.406,23.60519,-0.16884,0.45419,1.02771
175.006,23.66264,-0.16755,0.45526,1.02746
175.606,23.7198,-0.17042,0.45363,1.02722
176.206,23.77698,-0.17152,0.45437,1.02697
176.806,23.83411,-0.17017,0.45286,1.02672
177.406,23.8912,-0.17033,0.45321,1.02647
178.006,23.9485,-0.16693,0.44966,1.02623
178.606,24.00614,-0.16742,0.45189,1.02598
179.206,24.06353,-0.16742,0.45025,1.02573
179.806,24.12088,-0.16877,0.45051,1.02548
180.406,24.1782,-0.17004,0.45048,1.02523
181.006,24.23547,-0.17208,0.45157,1.02498
181.606,24.29269,-0.1743,0.45166,1.02473
182.206,24.34989,-0.17531,0.45145,1.02448
182.806,24.40699,-0.1768,0.45175,1.02423
183.406,24.4641,-0.17927,0.44997,1.02398
184.006,24.52126,-0.17936,0.45167,1.02373
184.606,24.57848,-0.18191,0.45259,1.02348
185.206,24.63566,-0.18159,0.45376,1.02322
185.806,24.69291,-0.18189,0.45429,1.02297
186.406,24.75014,-0.1819,0.45423,1.02272
187.006,24.80728,-0.18321,0.45559,1.02246
187.606,24.86453,-0.18453,0.45699,1.02221
188.206,24.92149,-0.18586,0.45723,1.02195
188.806,24.97834,-0.18678,0.45858,1.0217
189.406,25.03523,-0.18717,0.45953,1.02144
190.006,25.0923,-0.18717,0.46131,1.02119
190.606,25.14954,-0.18918,0.46185,1.02093
191.206,25.20648,-0.18981,0.4656,1.02067
191.806,25.26364,-0.19021,0.46598,1.02042
192.406,25.3206,-0.19112,0.47012,1.02016
193.006,25.3777,-0.19245,0.47112,1.0199
193.606,25.43505,-0.19356,0.47363,1.01964
194.206,25.4922,-0.19376,0.47299,1.01938
194.806,25.54947,-0.19477,0.47418,1.01913
195.406,25.60665,-0.19499,0.47683,1.01887
196.006,25.66391,-0.19644,0.47816,1.01861
196.606,25.72109,-0.19778,0.48015,1.01834
197.206,25.7782,-0.19914,0.4844,1.01808
197.806,25.83527,-0.20027,0.48441,1.01782
198.406,25.89239,-0.2005,0.48807,1.01756
199.006,25.94973,-0.20177,0.4886,1.0173
199.606,26.00692,-0.20407,0.49061,1.01704
200.206,26.06426,-0.20545,0.49269,1.01677
200.806,26.1216,-0.20535,0.4945,1.01651
201.406,26.17871,-0.20672,0.49741,1.01625
202.006,26.23593,-0.20803,0.49857,1.01598
202.606,26.29294,-0.20936,0.49866,1.01572
203.206,26.3502,-0.21104,0.50218,1.01545
203.806,26.40734,-0.21101,0.50287,1.01519
204.406,26.46467,-0.21231,0.50563,1.01492
205.006,26.5221,-0.21454,0.50801,1.01465
205.606,26.5793,-0.21595,0.50788,1.01439
206.206,26.63659,-0.21753,0.50883,1.01412
206.806,26.69377,-0.21632,0.51271,1.01385
207.406,26.7508,-0.21758,0.51286,1.01358
208.006,26.808,-0.21947,0.51337,1.01332
208.606,26.86526,-0.22081,0.5156,1.01305
209.206,26.92238,-0.22273,0.51904,1.01278
209.806,26.97948,-0.22288,0.52093,1.01251
210.406,27.0366,-0.22473,0.52066,1.01224
211.006,27.0937,-0.227,0.52447,1.01197
211.606,27.15076,-0.22712,0.52611,1.0117
212.206,27.20785,-0.22823,0.52819,1.01143
212.806,27.26489,-0.22962,0.52811,1.01115
213.406,27.32204,-0.23088,0.53037,1.01088
214.006,27.379,-0.2335,0.5335,1.01061
214.606,27.436,-0.23532,0.5349,1.01034
215.206,27.49288,-0.23624,0.53497,1.01006
215.806,27.5499,-0.23758,0.5357,1.00979
216.406,27.6071,-0.2389,0.53783,1.00951
217.006,27.66413,-0.24025,0.53764,1.00924
217.606,27.72097,-0.24212,0.53607,1.00896
218.206,27.7779,-0.24421,0.53354,1.00869
218.806,27.8348,-0.24555,0.53208,1.00841
219.406,27.8917,-0.25038,0.5312,1.00814
220.006,27.9485,-0.2512,0.52767,1.00786
220.606,28.00527,-0.25182,0.53161,1.00758
221.206,28.0621,-0.25319,0.53469,1.0073
221.806,28.119,-0.25546,0.54025,1.00703
222.406,28.17597,-0.25893,0.54878,1.00675
223.006,28.23295,-0.26166,0.55835,1.00647
223.606,28.2899,-0.26424,0.57248,1.00619
224.206,28.347,-0.26783,0.58752,1.00591
224.806,28.404,-0.27141,0.60819,1.00563
225.406,28.4611,-0.2765,0.63074,1.00535
226.006,28.5185,-0.28168,0.66133,1.00507
226.606,28.57573,-0.28742,0.69415,1.00479
227.206,28.63308,-0.29363,0.72743,1.0045
227.806,28.69047,-0.30009,0.77383,1.00422
228.406,28.7476,-0.30569,0.82018,1.00394
229.006,28.80485,-0.31549,0.87203,1.00366
229.606,28.86228,-0.32464,0.92894,1.00337
230.206,28.91972,-0.33535,0.98939,1.00309
230.806,28.97738,-0.34541,1.05394,1.0028
231.406,29.03513,-0.35905,1.11758,1.00252
232.006,29.093,-0.37339,1.18141,1.00223
232.606,29.151,-0.38968,1.2418,1.00195
233.206,29.209,-0.40712,1.2973,1.00166
233.806,29.2668,-0.42454,1.34682,1.00138
234.406,29.32457,-0.44168,1.38508,1.00109
235.006,29.3823,-0.46266,1.41748,1.0008
235.606,29.44,-0.48276,1.43552,1.00051
236.206,29.4979,-0.50471,1.44017,1.00022
236.806,29.5559,-0.52637,1.4312,0.99994
237.406,29.61382,-0.54684,1.41196,0.99965
238.006,29.67134,-0.56941,1.38356,0.99936
238.606,29.7289,-0.59031,1.34492,0.99907
239.206,29.78616,-0.61251,1.29983,0.99878
239.806,29.84355,-0.63204,1.24984,0.99849
240.406,29.9009,-0.65138,1.19519,0.99819
241.006,29.9581,-0.66996,1.14037,0.9979
241.606,30.0152,-0.6873,1.08356,0.99761
242.206,30.072,-0.70442,1.03055,0.99732
242.806,30.129,-0.71914,0.97773,0.99703
243.406,30.1858,-0.73567,0.92934,0.99673
244.006,30.2426,-0.75313,0.88227,0.99644
244.606,30.2994,-0.76413,0.8412,0.99614
245.206,30.35608,-0.77416,0.80112,0.99585
245.806,30.4126,-0.78768,0.76146,0.99555
246.406,30.4693,-0.79948,0.72678,0.99526
247.006,30.526,-0.80954,0.69554,0.99496
247.606,30.58261,-0.82081,0.66884,0.99467
248.206,30.6394,-0.82969,0.64315,0.99437
248.806,30.6959,-0.83992,0.61822,0.99407
249.406,30.7525,-0.84968,0.59923,0.99377
250.006,30.8094,-0.85797,0.57892,0.99348
250.606,30.86621,-0.86557,0.56068,0.99318
251.206,30.9229,-0.87429,0.54328,0.99288
251.806,30.9797,-0.8811,0.53002,0.99258
252.406,31.03649,-0.8888,0.51911,0.99228
253.006,31.0933,-0.89654,0.5062,0.99198
253.606,31.14998,-0.90377,0.49615,0.99168
254.206,31.20668,-0.90949,0.48356,0.99138
254.806,31.2633,-0.91446,0.47582,0.99107
255.406,31.32,-0.92122,0.46567,0.99077
256.006,31.37684,-0.92737,0.4589,0.99047
256.606,31.4336,-0.93482,0.453,0.99017
257.206,31.49059,-0.94093,0.44381,0.98986
257.806,31.5474,-0.94719,0.43825,0.98956
258.406,31.6044,-0.95243,0.43264,0.98926
259.006,31.66132,-0.95681,0.42518,0.98895
259.606,31.7182,-0.96389,0.42142,0.98865
260.206,31.775,-0.96929,0.41628,0.98834
260.806,31.8319,-0.97418,0.41195,0.98803
261.406,31.8888,-0.97812,0.40666,0.98773
262.006,31.9456,-0.9834,0.40354,0.98742
262.606,32.00255,-0.98864,0.39723,0.98711
263.206,32.05961,-0.99324,0.39649,0.98681
263.806,32.11652,-0.99862,0.39337,0.9865
264.406,32.17295,-1.00391,0.38972,0.98619
265.006,32.23,-1.00952,0.38685,0.98588
265.606,32.28703,-1.01633,0.38315,0.98557
266.206,32.3444,-1.02023,0.3801,0.98526
266.806,32.40202,-1.02082,0.37673,0.98495
267.406,32.4593,-1.02747,0.37341,0.98464
268.006,32.51654,-1.03168,0.37058,0.98433
268.606,32.5738,-1.03652,0.36873,0.98402
269.206,32.631,-1.03983,0.36565,0.98371
269.806,32.68813,-1.04363,0.36404,0.98339
270.406,32.7453,-1.04975,0.36103,0.98308
271.006,32.80243,-1.0536,0.35878,0.98277
271.606,32.85953,-1.05868,0.35791,0.98245
272.206,32.9167,-1.06414,0.3562,0.98214
272.806,32.9737,-1.06777,0.35251,0.98182
273.406,33.0311,-1.07113,0.35355,0.98151
274.006,33.08838,-1.07776,0.35087,0.98119
274.606,33.1456,-1.08093,0.34814,0.98088
275.206,33.20284,-1.08504,0.34841,0.98056
275.806,33.2601,-1.08954,0.34758,0.98024
276.406,33.31745,-1.09294,0.34496,0.97993
277.006,33.37451,-1.09694,0.3453,0.97961
277.606,33.43175,-1.10182,0.34205,0.97929
278.206,33.4889,-1.10515,0.3422,0.97897
278.806,33.546,-1.11128,0.33988,0.97865
279.406,33.6033,-1.11422,0.33774,0.97833
280.006,33.66055,-1.11746,0.3374,0.97801
280.606,33.71747,-1.12197,0.33712,0.97769
281.206,33.7747,-1.12826,0.33466,0.97737
281.806,33.83197,-1.13013,0.33333,0.97705
282.406,33.8893,-1.1334,0.33275,0.97673
283.006,33.9467,-1.13754,0.3319,0.97641
283.606,34.00403,-1.14128,0.33033,0.97609
284.206,34.0613,-1.14566,0.32746,0.97576
284.806,34.11842,-1.14979,0.32659,0.97544
285.406,34.17545,-1.15389,0.32421,0.97512
286.006,34.23239,-1.15771,0.32278,0.97479
286.606,34.2895,-1.16386,0.32227,0.97447
287.206,34.34689,-1.16654,0.32119,0.97414
287.806,34.40425,-1.16987,0.31987,0.97382
288.406,34.46151,-1.17547,0.31913,0.97349
289.006,34.51859,-1.17972,0.31615,0.97316
289.606,34.57544,-1.18383,0.31545,0.97284
290.206,34.63237,-1.18627,0.31422,0.97251
290.806,34.68974,-1.1915,0.31348,0.97218
291.406,34.7472,-1.19616,0.31158,0.97185
292.006,34.805,-1.20049,0.3105,0.97153
292.606,34.8626,-1.20408,0.30829,0.9712
293.206,34.91992,-1.20731,0.3081,0.97087
293.806,34.97715,-1.21262,0.30568,0.97054
294.406,35.03432,-1.21692,0.3061,0.97021
295.006,35.0916,-1.2212,0.30485,0.96988
295.606,35.14891,-1.22648,0.30407,0.96955
296.206,35.20619,-1.23123,0.29909,0.96921
296.806,35.26355,-1.23398,0.30017,0.96888
297.406,35.32105,-1.23794,0.30019,0.96855
298.006,35.37872,-1.2427,0.299,0.96822
298.606,35.43615,-1.24796,0.29849,0.96788
299.206,35.4935,-1.25197,0.29598,0.96755
299.806,35.5509,-1.2547,0.29576,0.96721
300.406,35.60833,-1.26056,0.29456,0.96688
301.006,35.66572,-1.2642,0.29292,0.96654
301.606,35.72309,-1.26813,0.292,0.96621
302.206,35.7806,-1.27199,0.2919,0.96587
302.806,35.83794,-1.27767,0.28974,0.96554
303.406,35.89544,-1.28255,0.28717,0.9652
304.006,35.9527,-1.28593,0.28712,0.96486
304.606,36.00997,-1.29156,0.28555,0.96452
305.206,36.06747,-1.297,0.28282,0.96419
305.806,36.125,-1.30119,0.28104,0.96385
306.406,36.18261,-1.30348,0.27976,0.96351
307.006,36.24018,-1.30663,0.27914,0.96317
307.606,36.29772,-1.31186,0.27626,0.96283
308.206,36.35528,-1.31728,0.27568,0.96249
308.806,36.41278,-1.32191,0.27507,0.96215
309.406,36.47035,-1.32621,0.27237,0.96181
310.006,36.52767,-1.33178,0.26944,0.96146
310.606,36.58517,-1.33587,0.26854,0.96112
311.206,36.6428,-1.34,0.26612,0.96078
311.806,36.7003,-1.34522,0.26492,0.96044
312.406,36.75789,-1.34856,0.26417,0.96009
313.006,36.81541,-1.35341,0.26158,0.95975
313.606,36.87279,-1.35827,0.26124,0.9594
314.206,36.93023,-1.36557,0.25882,0.95906
314.806,36.98782,-1.36642,0.25649,0.95871
315.406,37.045,-1.37125,0.25466,0.95837
316.006,37.1025,-1.3751,0.25227,0.95802
316.606,37.15992,-1.37939,0.25162,0.95768
317.206,37.2177,-1.38489,0.2477,0.95733
317.806,37.27548,-1.3892,0.24639,0.95698
318.406,37.3329,-1.39287,0.24621,0.95663
319.006,37.39047,-1.39815,0.2431,0.95629
319.606,37.44802,-1.40306,0.24332,0.95594
320.206,37.50567,-1.40812,0.24148,0.95559
320.806,37.56337,-1.41346,0.23961,0.95524
321.406,37.62095,-1.41619,0.23656,0.95489
322.006,37.67824,-1.42071,0.23588,0.95454
322.606,37.73587,-1.42513,0.23302,0.95419
323.206,37.79332,-1.43034,0.23147,0.95383
323.806,37.85085,-1.43468,0.23089,0.95348
324.406,37.9082,-1.43996,0.22806,0.95313
325.006,37.9657,-1.44391,0.22586,0.95278
325.606,38.02341,-1.44941,0.2255,0.95242
326.206,38.08164,-1.45327,0.2256,0.95207
326.806,38.13945,-1.45771,0.22002,0.95172
327.406,38.1971,-1.46277,0.22089,0.95136
328.006,38.2547,-1.46714,0.21844,0.95101
328.606,38.31239,-1.47338,0.21666,0.95065
329.206,38.3703,-1.47625,0.21458,0.9503
329.806,38.428,-1.48018,0.21064,0.94994
330.406,38.48576,-1.48565,0.21056,0.94958
331.006,38.5431,-1.48889,0.21003,0.94923
331.606,38.6007,-1.49493,0.20645,0.94887
332.206,38.65831,-1.50013,0.20452,0.94851
332.806,38.71582,-1.50258,0.20276,0.94815
333.406,38.77415,-1.50741,0.20108,0.94779
334.006,38.832,-1.51129,0.19919,0.94743
334.606,38.8899,-1.51801,0.19758,0.94707
335.206,38.94778,-1.52079,0.19588,0.94671
335.806,39.00529,-1.52675,0.19328,0.94635
336.406,39.06312,-1.52926,0.19247,0.94599
337.006,39.12076,-1.53285,0.18915,0.94563
337.606,39.17864,-1.53715,0.18742,0.94527
338.206,39.23625,-1.54295,0.18416,0.94491
338.806,39.29368,-1.54665,0.18462,0.94454
339.406,39.35157,-1.55035,0.18111,0.94418
340.006,39.40951,-1.55556,0.17949,0.94382
340.606,39.4675,-1.56052,0.17868,0.94345
341.206,39.5257,-1.56523,0.17713,0.94309
341.806,39.58348,-1.56953,0.17305,0.94272
342.406,39.64125,-1.57439,0.17254,0.94236
343.006,39.69891,-1.578,0.17241,0.94199
343.606,39.75674,-1.58267,0.16983,0.94162
344.206,39.81445,-1.58714,0.16714,0.94126
344.806,39.87247,-1.5916,0.16352,0.94089
345.406,39.93027,-1.59585,0.16242,0.94052
346.006,39.9883,-1.60049,0.16213,0.94015
346.606,40.04618,-1.60581,0.16015,0.93979
347.206,40.10393,-1.60859,0.15762,0.93942
347.806,40.16195,-1.614,0.15635,0.93905
348.406,40.21975,-1.61832,0.15164,0.93868
349.006,40.27769,-1.622,0.1493,0.93831
349.606,40.3357,-1.62636,0.14814,0.93794
350.206,40.3935,-1.63006,0.14641,0.93757
350.806,40.4514,-1.63464,0.14418,0.93719
351.406,40.50932,-1.63786,0.14189,0.93682
352.006,40.56725,-1.64331,0.14002,0.93645
352.606,40.62523,-1.64847,0.137,0.93608
353.206,40.6832,-1.65289,0.13567,0.9357
353.806,40.741,-1.65612,0.13297,0.93533
354.406,40.79871,-1.66119,0.13203,0.93495
355.006,40.8566,-1.66582,0.12776,0.93458
355.606,40.9139,-1.67,0.12664,0.9342
356.206,40.97125,-1.67475,0.1259,0.93383
356.806,41.0294,-1.67815,0.12402,0.93345
357.406,41.0876,-1.68325,0.12074,0.93308
358.006,41.1462,-1.68688,0.11959,0.9327
358.606,41.20466,-1.69064,0.11763,0.93232
359.206,41.26265,-1.69696,0.11436,0.93194
359.806,41.3206,-1.70131,0.11236,0.93157
360.406,41.37876,-1.70425,0.11172,0.93119
361.006,41.43671,-1.70955,0.10752,0.93081
361.606,41.49419,-1.71363,0.10606,0.93043
362.206,41.552,-1.71856,0.10441,0.93005
362.806,41.61012,-1.72265,0.10309,0.92967
363.406,41.66853,-1.72738,0.10075,0.92929
364.006,41.72712,-1.73149,0.10067,0.92891
364.606,41.7851,-1.73617,0.0954057,0.92852
365.206,41.84316,-1.73932,0.09392399,0.92814
365.806,41.9011,-1.7447,0.09185288,0.92776
366.406,41.95893,-1.74861,0.09163198,0.92738
367.006,42.017,-1.75316,0.08930149,0.92699
367.606,42.07515,-1.7578,0.08825827,0.92661
368.206,42.13312,-1.76125,0.08538941,0.92622
368.806,42.19148,-1.76622,0.08327553,0.92584
369.406,42.2496,-1.77149,0.08361168,0.92545
370.006,42.3078,-1.77524,0.08323298,0.92507
370.606,42.3658,-1.78024,0.08063512,0.92468
371.206,42.42382,-1.78359,0.08060457,0.9243
371.806,42.48202,-1.78947,0.07773905,0.92391
372.406,42.5402,-1.79255,0.07817112,0.92352
373.006,42.59867,-1.79712,0.07755261,0.92313
373.606,42.6567,-1.80207,0.07738231,0.92275
374.206,42.71484,-1.80449,0.07671797,0.92236
374.806,42.7731,-1.81079,0.07505789,0.92197
375.406,42.83136,-1.81495,0.07438793,0.92158
376.006,42.88949,-1.8188,0.07336368,0.92119
376.606,42.94745,-1.82257,0.07343253,0.9208
377.206,43.00533,-1.82628,0.07392746,0.92041
377.806,43.06353,-1.83207,0.07419431,0.92001
378.406,43.12172,-1.83556,0.07462608,0.91962
379.006,43.1798,-1.84022,0.07560673,0.91923
379.606,43.23812,-1.84524,0.07439245,0.91884
380.206,43.29623,-1.84923,0.07460476,0.91845
380.806,43.3544,-1.85299,0.07242633,0.91805
381.406,43.41267,-1.85557,0.07381215,0.91766
382.006,43.47095,-1.86001,0.07263842,0.91726
382.606,43.5291,-1.86565,0.07251725,0.91687
383.206,43.58741,-1.8684,0.07337386,0.91647
383.806,43.6456,-1.87281,0.0732528,0.91608
384.406,43.70384,-1.878,0.07376436,0.91568
385.006,43.76213,-1.88284,0.07340391,0.91528
385.606,43.8204,-1.8853,0.07234289,0.91489
386.206,43.87873,-1.88848,0.07150576,0.91449
386.806,43.93692,-1.89193,0.07477776,0.91409
387.406,43.99524,-1.89845,0.07478488,0.91369
388.006,44.05348,-1.90191,0.07818131,0.9133
388.606,44.11193,-1.90519,0.0778108,0.9129
389.206,44.1702,-1.90902,0.07737246,0.9125
389.806,44.22865,-1.91237,0.07839824,0.9121
390.406,44.28695,-1.91551,0.08007335,0.9117
391.006,44.34522,-1.91966,0.08120907,0.91129
391.606,44.40388,-1.92354,0.08321632,0.91089
392.206,44.46225,-1.92724,0.08406283,0.91049
392.806,44.52068,-1.93161,0.08612977,0.91009
393.406,44.57913,-1.93382,0.08719313,0.90969
394.006,44.63748,-1.93768,0.08846583,0.90928
394.606,44.6961,-1.94177,0.0889239,0.90888
395.206,44.7546,-1.94522,0.09001709,0.90848
395.806,44.8132,-1.94923,0.09185688,0.90807
396.406,44.87143,-1.95233,0.09460183,0.90767
397.006,44.92969,-1.95481,0.09533368,0.90726
397.606,44.9882,-1.95864,0.09818082,0.90686
398.206,45.04676,-1.96219,0.0988867,0.90645
398.806,45.1055,-1.96597,0.1,0.90604
399.406,45.1639,-1.96874,0.10156,0.90564
400.006,45.22237,-1.97197,0.10435,0.90523
400.606,45.28086,-1.97473,0.10574,0.90482
401.206,45.3392,-1.97742,0.10628,0.90441
401.806,45.39777,-1.98122,0.10782,0.904
402.406,45.45619,-1.9829,0.11021,0.9036
403.006,45.51473,-1.98547,0.11196,0.90319
403.606,45.57318,-1.98905,0.11709,0.90278
404.206,45.63154,-1.99265,0.11832,0.90237
404.806,45.69007,-1.99543,0.12103,0.90195
405.406,45.74853,-1.99777,0.12157,0.90154
406.006,45.80746,-2.0019,0.12403,0.90113
406.606,45.86589,-2.00557,0.12741,0.90072
407.206,45.92439,-2.00856,0.1303,0.90031
407.806,45.98287,-2.01006,0.13047,0.89989
408.406,46.0415,-2.01304,0.13472,0.89948
409.006,46.10025,-2.01597,0.13438,0.89907
409.606,46.1591,-2.01748,0.13576,0.89865
410.206,46.21779,-2.02128,0.13734,0.89824
410.806,46.27644,-2.02392,0.13881,0.89782
411.406,46.33502,-2.02652,0.14069,0.89741
412.006,46.39348,-2.0292,0.14235,0.89699
412.606,46.45224,-2.03122,0.14498,0.89657
413.206,46.511,-2.03275,0.14536,0.89616
413.806,46.56978,-2.03573,0.148,0.89574
414.406,46.62874,-2.03866,0.15013,0.89532
415.006,46.68764,-2.04162,0.15163,0.89491
415.606,46.74637,-2.04296,0.15245,0.89449
416.206,46.80508,-2.04554,0.15584,0.89407
416.806,46.86377,-2.04909,0.15736,0.89365
417.406,46.92233,-2.05033,0.16198,0.89323
418.006,46.981,-2.05324,0.16048,0.89281
418.606,47.0396,-2.05529,0.16316,0.89239
419.206,47.09825,-2.05747,0.1613,0.89197
419.806,47.1569,-2.06009,0.16535,0.89154
420.406,47.2156,-2.06221,0.16458,0.89112
421.006,47.27428,-2.06462,0.16693,0.8907
421.606,47.333,-2.06661,0.16832,0.89028
422.206,47.39182,-2.06888,0.17031,0.88985
422.806,47.45048,-2.07231,0.17262,0.88943
423.406,47.50923,-2.07358,0.1727,0.88901
424.006,47.5678,-2.07487,0.17667,0.88858
424.606,47.6265,-2.07806,0.17481,0.88816
425.206,47.685,-2.07984,0.17793,0.88773
425.806,47.7435,-2.08161,0.17731,0.88731
426.406,47.80202,-2.08358,0.18049,0.88688
427.006,47.8607,-2.08671,0.17933,0.88645
427.606,47.91928,-2.08907,0.18203,0.88603
428.206,47.978,-2.08915,0.1832,0.8856
428.806,48.03625,-2.09176,0.18354,0.88517
429.406,48.0941,-2.09346,0.18518,0.88474
430.006,48.15228,-2.09479,0.18702,0.88431
430.606,48.21043,-2.09766,0.18949,0.88389
431.206,48.26947,-2.1005,0.18898,0.88346
431.806,48.32867,-2.1018,0.19006,0.88303
432.406,48.38774,-2.10305,0.19219,0.8826
433.006,48.44677,-2.10616,0.19338,0.88217
433.606,48.50502,-2.10782,0.19234,0.88173
434.206,48.56347,-2.10953,0.19476,0.8813
434.806,48.62188,-2.11042,0.19708,0.88087
435.406,48.68051,-2.1128,0.19793,0.88044
436.006,48.7393,-2.11321,0.19958,0.88
436.606,48.79788,-2.11605,0.20014,0.87957
437.206,48.8563,-2.11827,0.19936,0.87914
437.806,48.91495,-2.1208,0.20084,0.8787
438.406,48.9735,-2.12246,0.20345,0.87827
439.006,49.03217,-2.124,0.20324,0.87783
439.606,49.091,-2.12397,0.20228,0.8774
440.206,49.1496,-2.12776,0.20264,0.87696
440.806,49.20831,-2.12953,0.20514,0.87653
441.406,49.26695,-2.13239,0.20406,0.87609
442.006,49.32567,-2.13448,0.20582,0.87565
442.606,49.3842,-2.13518,0.20833,0.87522
443.206,49.44262,-2.13622,0.20946,0.87478
443.806,49.50118,-2.13871,0.21171,0.87434
444.406,49.55997,-2.14022,0.21413,0.8739
445.006,49.61886,-2.14217,0.21163,0.87346
445.606,49.6778,-2.14452,0.21178,0.87302
446.206,49.7366,-2.14667,0.2146,0.87258
446.806,49.79554,-2.14848,0.21526,0.87214
447.406,49.85436,-2.14965,0.21474,0.8717
448.006,49.91335,-2.15009,0.21615,0.87126
448.606,49.97235,-2.15185,0.21497,0.87082
449.206,50.03135,-2.15366,0.21854,0.87038
449.806,50.09026,-2.15637,0.21748,0.86993
450.406,50.14915,-2.15768,0.21784,0.86949
451.006,50.20815,-2.1593,0.21831,0.86905
451.606,50.26716,-2.16191,0.21819,0.8686
452.206,50.32635,-2.16216,0.21824,0.86816
452.806,50.38576,-2.16316,0.21969,0.86772
453.406,50.44531,-2.16682,0.22105,0.86727
454.006,50.50466,-2.1666,0.2184,0.86683
454.606,50.56422,-2.16904,0.21905,0.86638
455.206,50.62355,-2.17063,0.21928,0.86593
455.806,50.6828,-2.17313,0.21951,0.86549
456.406,50.74199,-2.1737,0.22036,0.86504
457.006,50.8015,-2.17485,0.22104,0.86459
457.606,50.86101,-2.17616,0.22187,0.86415
458.206,50.92094,-2.17744,0.22068,0.8637
458.806,50.9803,-2.17887,0.22268,0.86325
459.406,51.03978,-2.18081,0.22234,0.8628
460.006,51.0993,-2.1815,0.22205,0.86235
460.606,51.1588,-2.18281,0.22126,0.8619
461.206,51.21802,-2.18413,0.22236,0.86145
461.806,51.2775,-2.18542,0.22249,0.861
462.406,51.33675,-2.18983,0.22353,0.86055
463.006,51.3964,-2.19222,0.22395,0.8601
463.606,51.45563,-2.18899,0.22452,0.85965
464.206,51.51478,-2.18923,0.22414,0.85919
464.806,51.57395,-2.19289,0.22493,0.85874
465.406,51.6331,-2.19466,0.2253,0.85829
466.006,51.69255,-2.19483,0.22476,0.85784
466.606,51.7517,-2.19601,0.22444,0.85738
467.206,51.81109,-2.19728,0.22602,0.85693
467.806,51.87039,-2.19866,0.2269,0.85647
468.406,51.9295,-2.20096,0.22701,0.85602
469.006,51.98873,-2.20188,0.22688,0.85556
469.606,52.04781,-2.20379,0.22633,0.85511
470.206,52.1069,-2.20466,0.22591,0.85465
470.806,52.1663,-2.20651,0.22658,0.85419
471.406,52.2257,-2.20691,0.22711,0.85374
472.006,52.28496,-2.20839,0.22863,0.85328
472.606,52.34403,-2.20916,0.22668,0.85282
473.206,52.403,-2.21049,0.22568,0.85236
473.806,52.46195,-2.21192,0.22862,0.8519
474.406,52.5209,-2.21324,0.22943,0.85145
475.006,52.58,-2.21377,0.22741,0.85099
475.606,52.63899,-2.21509,0.22715,0.85053
476.206,52.6983,-2.21641,0.22563,0.85007
476.806,52.75755,-2.21773,0.22521,0.84961
477.406,52.81672,-2.21906,0.22832,0.84915
478.006,52.87588,-2.22165,0.22692,0.84868
478.606,52.935,-2.22208,0.22447,0.84822
479.206,52.99415,-2.22306,0.22597,0.84776
479.806,53.0533,-2.22469,0.22812,0.8473
480.406,53.1125,-2.22593,0.22921,0.84683
481.006,53.17162,-2.22615,0.22633,0.84637
481.606,53.23059,-2.22805,0.22632,0.84591
482.206,53.28969,-2.22859,0.22805,0.84544
482.806,53.3488,-2.22991,0.22819,0.84498
483.406,53.40806,-2.23124,0.22667,0.84451
484.006,53.46719,-2.23255,0.22637,0.84405
484.606,53.52638,-2.23374,0.229,0.84358
485.206,53.5857,-2.23385,0.22697,0.84312
485.806,53.64479,-2.23549,0.229,0.84265
486.406,53.7041,-2.23649,0.22745,0.84218
487.006,53.76319,-2.23781,0.22845,0.84172
487.606,53.8225,-2.23916,0.22847,0.84125
488.206,53.88166,-2.23996,0.22829,0.84078
488.806,53.94109,-2.24145,0.22736,0.84031
489.406,54.0005,-2.24189,0.22844,0.83984
490.006,54.05993,-2.24142,0.22926,0.83937
490.606,54.1193,-2.24407,0.23051,0.8389
491.206,54.17859,-2.24539,0.22751,0.83843
491.806,54.23791,-2.24536,0.23071,0.83796
492.406,54.2973,-2.24642,0.22973,0.83749
493.006,54.3566,-2.24693,0.22973,0.83702
493.606,54.41619,-2.2493,0.22906,0.83655
494.206,54.47574,-2.2494,0.23066,0.83608
494.806,54.53519,-2.25059,0.23079,0.83561
495.406,54.59406,-2.25081,0.23015,0.83513
496.006,54.6535,-2.25316,0.22969,0.83466
496.606,54.7128,-2.25348,0.2301,0.83419
497.206,54.7725,-2.25314,0.2319,0.83371
497.806,54.8322,-2.25582,0.23101,0.83324
498.406,54.8916,-2.25579,0.2307,0.83276
499.006,54.9512,-2.25714,0.23264,0.83229
499.606,55.01076,-2.25856,0.22917,0.83181
500.206,55.0702,-2.25976,0.23233,0.83134
500.806,55.1299,-2.26113,0.23279,0.83086
501.406,55.18945,-2.26109,0.23473,0.83039
502.006,55.2489,-2.26238,0.23594,0.82991
502.606,55.30862,-2.2624,0.23444,0.82943
503.206,55.3681,-2.26372,0.2352,0.82895
503.806,55.42775,-2.26636,0.23396,0.82848
504.406,55.4872,-2.26747,0.23701,0.828
505.006,55.5468,-2.26637,0.23761,0.82752
505.606,55.6065,-2.26767,0.23729,0.82704
506.206,55.66595,-2.2698,0.23723,0.82656
506.806,55.72546,-2.27063,0.23532,0.82608
507.406,55.78484,-2.26952,0.23574,0.8256
508.006,55.8443,-2.27041,0.23613,0.82512
508.606,55.904,-2.27174,0.23644,0.82464
509.206,55.9635,-2.27316,0.23782,0.82416
509.806,56.023,-2.27349,0.23802,0.82368
510.406,56.0825,-2.27339,0.23994,0.82319
511.006,56.14193,-2.27471,0.23935,0.82271
511.606,56.2013,-2.27523,0.23998,0.82223
512.206,56.26061,-2.27745,0.24455,0.82175
512.806,56.32003,-2.27877,0.24771,0.82126
513.406,56.3794,-2.2803,0.24943,0.82078
514.006,56.4389,-2.28162,0.25187,0.82029
514.606,56.49839,-2.28148,0.25529,0.81981
515.206,56.55784,-2.28017,0.25712,0.81932
515.806,56.6172,-2.2815,0.25803,0.81884
516.406,56.67651,-2.2815,0.26068,0.81835
517.006,56.73579,-2.28424,0.25975,0.81787
517.606,56.7949,-2.28377,0.26288,0.81738
518.206,56.8541,-2.2846,0.26329,0.81689
518.806,56.91345,-2.28546,0.26629,0.81641
519.406,56.97296,-2.28683,0.26672,0.81592
520.006,57.03238,-2.28705,0.26499,0.81543
520.606,57.09146,-2.2894,0.26527,0.81494
521.206,57.15071,-2.28806,0.26656,0.81445
521.806,57.20995,-2.29012,0.26756,0.81396
522.406,57.2693,-2.29216,0.26883,0.81347
523.006,57.32874,-2.29217,0.26826,0.81298
523.606,57.3881,-2.29216,0.26955,0.81249
524.206,57.4474,-2.29367,0.26943,0.812
524.806,57.50663,-2.29349,0.26912,0.81151
525.406,57.566,-2.29481,0.26902,0.81102
526.006,57.62531,-2.29611,0.2706,0.81053
526.606,57.6847,-2.29611,0.26901,0.81004
527.206,57.74419,-2.29763,0.27068,0.80955
527.806,57.80353,-2.29898,0.27175,0.80905
528.406,57.86286,-2.29897,0.27162,0.80856
529.006,57.9224,-2.30006,0.27458,0.80807
529.606,57.9819,-2.30029,0.27234,0.80757
530.206,58.0415,-2.3016,0.27261,0.80708
530.806,58.1011,-2.3029,0.27295,0.80658
531.406,58.16072,-2.30402,0.27434,0.80609
532.006,58.22002,-2.30424,0.27456,0.80559
532.606,58.2795,-2.30325,0.27371,0.8051
533.206,58.33899,-2.30454,0.276,0.8046
533.806,58.39838,-2.30852,0.27424,0.80411
534.406,58.4584,-2.30609,0.27356,0.80361
535.006,58.5181,-2.30754,0.27365,0.80311
535.606,58.5777,-2.30885,0.27547,0.80262
536.206,58.63749,-2.31016,0.27448,0.80212
536.806,58.6974,-2.31016,0.27718,0.80162
537.406,58.75714,-2.31016,0.27704,0.80112
538.006,58.817,-2.31018,0.27612,0.80062
538.606,58.87655,-2.3138,0.2753,0.80012
539.206,58.9363,-2.31105,0.27539,0.79962
539.806,58.99601,-2.31474,0.275,0.79912
540.406,59.0559,-2.31578,0.27634,0.79862
541.006,59.1159,-2.31576,0.27862,0.79812
541.606,59.1756,-2.31639,0.27738,0.79762
542.206,59.23539,-2.31708,0.27822,0.79712
542.806,59.2952,-2.3182,0.28008,0.79662
543.406,59.3551,-2.31818,0.28069,0.79612
544.006,59.41508,-2.31814,0.27973,0.79562
544.606,59.47469,-2.31871,0.27995,0.79511
545.206,59.53441,-2.31971,0.28069,0.79461
545.806,59.59421,-2.31962,0.28118,0.79411
546.406,59.654,-2.32106,0.28276,0.7936
547.006,59.714,-2.32368,0.2814,0.7931
547.606,59.77375,-2.32367,0.28098,0.7926
548.206,59.8335,-2.32352,0.2818,0.79209
548.806,59.89315,-2.32366,0.28074,0.79159
549.406,59.95284,-2.32516,0.28116,0.79108
550.006,60.0125,-2.32591,0.28147,0.79058
550.606,60.07218,-2.32707,0.2797,0.79007
551.206,60.13207,-2.32838,0.28078,0.78956
551.806,60.1916,-2.32924,0.28127,0.78906
552.406,60.2512,-2.32986,0.28265,0.78855
553.006,60.31085,-2.3293,0.28083,0.78804
553.606,60.37073,-2.3296,0.28225,0.78754
554.206,60.43055,-2.33228,0.28192,0.78703
554.806,60.49046,-2.33221,0.28295,0.78652
555.406,60.55036,-2.33354,0.28199,0.78601
556.006,60.61035,-2.33359,0.28547,0.7855
556.606,60.67018,-2.33355,0.28336,0.78499
557.206,60.73,-2.33489,0.28251,0.78448
557.806,60.7898,-2.33486,0.28371,0.78397
558.406,60.8497,-2.3376,0.28419,0.78346
559.006,60.90945,-2.33761,0.28489,0.78295
559.606,60.9692,-2.33761,0.28552,0.78244
560.206,61.0291,-2.33893,0.28257,0.78193
560.806,61.0891,-2.34025,0.28492,0.78142
561.406,61.1488,-2.34027,0.2844,0.78091
562.006,61.20874,-2.34025,0.28503,0.78039
562.606,61.26856,-2.34146,0.28601,0.77988
563.206,61.32846,-2.34287,0.28558,0.77937
563.806,61.38824,-2.34354,0.2836,0.77886
564.406,61.448,-2.34351,0.2853,0.77834
565.006,61.50786,-2.34488,0.28421,0.77783
565.606,61.56776,-2.34618,0.28311,0.77731
566.206,61.62769,-2.34618,0.28553,0.7768
566.806,61.6875,-2.34701,0.28542,0.77628
567.406,61.7474,-2.34683,0.28711,0.77577
568.006,61.80709,-2.34814,0.28441,0.77525
568.606,61.86693,-2.3506,0.28496,0.77474
569.206,61.92666,-2.34941,0.28292,0.77422
569.806,61.98645,-2.35079,0.28282,0.77371
570.406,62.04626,-2.35093,0.28318,0.77319
571.006,62.1061,-2.35204,0.28347,0.77267
571.606,62.16595,-2.35213,0.28238,0.77215
572.206,62.22569,-2.35341,0.28117,0.77164
572.806,62.2854,-2.35474,0.28185,0.77112
573.406,62.345,-2.35469,0.2817,0.7706
574.006,62.4045,-2.35605,0.28132,0.77008
574.606,62.46444,-2.35545,0.28072,0.76956
575.206,62.5242,-2.35665,0.28015,0.76904
575.806,62.58433,-2.3577,0.27933,0.76852
576.406,62.64421,-2.35761,0.28091,0.768
577.006,62.7039,-2.35902,0.27597,0.76748
577.606,62.76359,-2.35942,0.27497,0.76696
578.206,62.8232,-2.36025,0.2756,0.76644
578.806,62.88306,-2.36165,0.27555,0.76592
579.406,62.9429,-2.36158,0.27474,0.7654
580.006,63.00232,-2.36298,0.27438,0.76488
580.606,63.06211,-2.36429,0.27409,0.76436
581.206,63.12185,-2.36517,0.26994,0.76383
581.806,63.18169,-2.3656,0.27162,0.76331
582.406,63.24191,-2.36691,0.2727,0.76279
583.006,63.3017,-2.36657,0.26892,0.76227
583.606,63.36166,-2.36786,0.26716,0.76174
584.206,63.4217,-2.36916,0.26532,0.76122
584.806,63.4818,-2.36792,0.26517,0.76069
585.406,63.54192,-2.36922,0.26471,0.76017
586.006,63.60193,-2.36922,0.26205,0.75964
586.606,63.6619,-2.37052,0.26353,0.75912
587.206,63.72198,-2.37191,0.26085,0.75859
587.806,63.7822,-2.37327,0.2609,0.75807
588.406,63.84235,-2.37318,0.26093,0.75754
589.006,63.90246,-2.37345,0.26117,0.75702
589.606,63.96244,-2.37595,0.25862,0.75649
590.206,64.02249,-2.37482,0.25714,0.75596
590.806,64.0826,-2.3755,0.25475,0.75544
591.406,64.14271,-2.37614,0.2548,0.75491
592.006,64.20285,-2.37751,0.25489,0.75438
592.606,64.26292,-2.37817,0.25376,0.75385
593.206,64.32298,-2.37877,0.25387,0.75332
593.806,64.38301,-2.37974,0.25393,0.7528
594.406,64.44292,-2.38002,0.24793,0.75227
595.006,64.50279,-2.38141,0.24749,0.75174
595.606,64.56275,-2.38261,0.2487,0.75121
596.206,64.62294,-2.38406,0.24754,0.75068
596.806,64.68309,-2.38481,0.24743,0.75015
597.406,64.74339,-2.38337,0.24627,0.74962
598.006,64.8035,-2.38526,0.2473,0.74909
598.606,64.86368,-2.38628,0.24445,0.74856
599.206,64.92399,-2.38678,0.24213,0.74802
599.806,64.984,-2.387,0.23833,0.74749
600.406,65.04422,-2.38799,0.24022,0.74696
601.006,65.1043,-2.38754,0.23872,0.74643
601.606,65.16441,-2.39006,0.2361,0.7459
602.206,65.22474,-2.39034,0.23752,0.74536
602.806,65.28492,-2.39023,0.23306,0.74483
603.406,65.3452,-2.39163,0.23149,0.7443
604.006,65.4056,-2.39295,0.23077,0.74376
604.606,65.46587,-2.39426,0.2284,0.74323
605.206,65.52622,-2.39426,0.22801,0.7427
605.806,65.5864,-2.39563,0.22888,0.74216
606.406,65.64659,-2.39559,0.22669,0.74163
607.006,65.70692,-2.39689,0.22571,0.74109
607.606,65.76729,-2.3982,0.22514,0.74056
608.206,65.82765,-2.39822,0.22112,0.74002
608.806,65.88792,-2.39821,0.2225,0.73949
609.406,65.94811,-2.39821,0.22318,0.73895
610.006,66.0083,-2.40085,0.22052,0.73841
610.606,66.06849,-2.40044,0.22111,0.73788
611.206,66.12878,-2.40213,0.21796,0.73734
611.806,66.18908,-2.40216,0.21914,0.7368
612.406,66.24928,-2.40349,0.21698,0.73627
613.006,66.3095,-2.40348,0.21307,0.73573
613.606,66.3695,-2.4048,0.21626,0.73519
614.206,66.42964,-2.4048,0.2133,0.73465
614.806,66.48945,-2.40611,0.21271,0.73411
615.406,66.54933,-2.40743,0.21469,0.73358
616.006,66.60935,-2.40742,0.21458,0.73304
616.606,66.66928,-2.40743,0.21295,0.7325
617.206,66.72924,-2.40875,0.21337,0.73196
617.806,66.7892,-2.41007,0.2112,0.73142
618.406,66.84904,-2.41104,0.2106,0.73088
619.006,66.90897,-2.4127,0.21179,0.73034
619.606,66.9692,-2.4127,0.20831,0.7298
620.206,67.02929,-2.4127,0.20922,0.72926
620.806,67.08934,-2.4137,0.20782,0.72872
621.406,67.1494,-2.41401,0.20307,0.72817
622.006,67.20949,-2.41666,0.20189,0.72763
622.606,67.2697,-2.41696,0.20379,0.72709
623.206,67.32958,-2.41832,0.20143,0.72655
623.806,67.38939,-2.4183,0.19974,0.72601
624.406,67.44941,-2.41931,0.19761,0.72546
625.006,67.5094,-2.41961,0.19928,0.72492
625.606,67.56952,-2.4206,0.19943,0.72438
626.206,67.62935,-2.42193,0.20063,0.72383
626.806,67.68959,-2.42294,0.2,0.72329
627.406,67.74981,-2.42193,0.20032,0.72275
628.006,67.80995,-2.42323,0.20078,0.7222
628.606,67.87037,-2.42465,0.20009,0.72166
629.206,67.9304,-2.42625,0.20127,0.72111
629.806,67.99064,-2.42652,0.19829,0.72057
630.406,68.05079,-2.42727,0.20017,0.72002
631.006,68.11094,-2.4277,0.2007,0.71948
631.606,68.17102,-2.42849,0.19742,0.71893
632.206,68.23116,-2.42983,0.1971,0.71839
632.806,68.2915,-2.43116,0.19924,0.71784
633.406,68.352,-2.4311,0.19589,0.71729
634.006,68.4122,-2.43247,0.19759,0.71675
634.606,68.47246,-2.43361,0.19411,0.7162
635.206,68.5326,-2.43379,0.19483,0.71565
635.806,68.59291,-2.43378,0.19534,0.71511
636.406,68.6533,-2.43414,0.19386,0.71456
637.006,68.71361,-2.43502,0.19362,0.71401
637.606,68.7739,-2.43642,0.19026,0.71346
638.206,68.83405,-2.43774,0.19118,0.71291
638.806,68.8942,-2.43783,0.19172,0.71237
639.406,68.95442,-2.43905,0.1939,0.71182
640.006,69.01483,-2.44038,0.19035,0.71127
640.606,69.07521,-2.44047,0.19494,0.71072
641.206,69.13521,-2.44162,0.19181,0.71017
641.806,69.19535,-2.44234,0.19207,0.70962
642.406,69.2555,-2.44373,0.1919,0.70907
643.006,69.31563,-2.44366,0.19452,0.70852
643.606,69.37558,-2.44495,0.19197,0.70797
644.206,69.43595,-2.4451,0.19407,0.70742
644.806,69.4964,-2.44727,0.19464,0.70687
645.406,69.5575,-2.4476,0.19474,0.70632
646.006,69.6179,-2.44871,0.19264,0.70577
646.606,69.67835,-2.45002,0.19495,0.70521
647.206,69.73868,-2.45002,0.19324,0.70466
647.806,69.7988,-2.45133,0.1925,0.70411
648.406,69.8591,-2.45266,0.1938,0.70356
649.006,69.91942,-2.45399,0.19342,0.70301
649.606,69.98001,-2.45398,0.19789,0.70245
650.206,70.04049,-2.45403,0.19732,0.7019
650.806,70.101,-2.45394,0.19798,0.70135
651.406,70.16139,-2.45529,0.20192,0.70079
652.006,70.22176,-2.45668,0.20087,0.70024
652.606,70.28198,-2.45926,0.20586,0.69969
653.206,70.34227,-2.46081,0.20266,0.69913
653.806,70.40241,-2.45884,0.20389,0.69858
654.406,70.4627,-2.45886,0.20764,0.69802
655.006,70.5231,-2.45947,0.20644,0.69747
655.606,70.58344,-2.45952,0.21118,0.69691
656.206,70.64369,-2.46084,0.21096,0.69636
656.806,70.7041,-2.46211,0.21536,0.6958
657.406,70.76455,-2.46319,0.21708,0.69525
658.006,70.82496,-2.46369,0.21896,0.69469
658.606,70.8853,-2.46506,0.21819,0.69414
659.206,70.9456,-2.46641,0.22255,0.69358
659.806,71.00579,-2.4677,0.22533,0.69302
660.406,71.06603,-2.46837,0.22721,0.69247
661.006,71.1263,-2.46891,0.22786,0.69191
661.606,71.18653,-2.46902,0.22709,0.69135
662.206,71.2469,-2.47003,0.2272,0.6908
662.806,71.307,-2.47034,0.23169,0.69024
663.406,71.3673,-2.47283,0.23222,0.68968
664.006,71.42752,-2.47428,0.23317,0.68912
664.606,71.4879,-2.47556,0.23617,0.68857
665.206,71.54856,-2.47688,0.23635,0.68801
665.806,71.60893,-2.47561,0.23489,0.68745
666.406,71.66924,-2.47693,0.23453,0.68689
667.006,71.72955,-2.47967,0.23778,0.68633
667.606,71.78995,-2.47966,0.2391,0.68577
668.206,71.85035,-2.47967,0.24079,0.68521
668.806,71.91072,-2.48099,0.23876,0.68465
669.406,71.9708,-2.48178,0.24165,0.68409
670.006,72.03111,-2.48282,0.23983,0.68353
670.606,72.09144,-2.48363,0.24233,0.68297
671.206,72.15194,-2.48405,0.23873,0.68241
671.806,72.21271,-2.48494,0.24074,0.68185
672.406,72.27328,-2.485,0.2391,0.68129
673.006,72.33371,-2.48766,0.23871,0.68073
673.606,72.3943,-2.48746,0.23755,0.68017
674.206,72.45473,-2.48876,0.23573,0.67961
674.806,72.5154,-2.48879,0.23647,0.67905
675.406,72.5759,-2.49024,0.23325,0.67849
676.006,72.6365,-2.49274,0.23177,0.67793
676.606,72.69671,-2.49349,0.2281,0.67736
677.206,72.7572,-2.49273,0.22687,0.6768
677.806,72.8177,-2.49404,0.22414,0.67624
678.406,72.8783,-2.49537,0.22278,0.67568
679.006,72.93893,-2.49537,0.21624,0.67511
679.606,72.99945,-2.49539,0.21528,0.67455
680.206,73.06,-2.49774,0.21017,0.67399
680.806,73.12056,-2.49935,0.20621,0.67343
681.406,73.18133,-2.49933,0.20052,0.67286
682.006,73.24207,-2.49999,0.19901,0.6723
682.606,73.3027,-2.50063,0.19642,0.67173
683.206,73.36339,-2.50195,0.19239,0.67117
683.806,73.4238,-2.50276,0.18874,0.67061
684.406,73.48431,-2.50195,0.18598,0.67004
685.006,73.54482,-2.50325,0.17768,0.66948
685.606,73.60517,-2.50319,0.17298,0.66891
686.206,73.66543,-2.50525,0.17016,0.66835
686.806,73.72578,-2.50628,0.1676,0.66778
687.406,73.7861,-2.50524,0.16354,0.66722
688.006,73.84665,-2.50515,0.16136,0.66665
688.606,73.9071,-2.5079,0.15804,0.66609
689.206,73.96774,-2.50789,0.15303,0.66552
689.806,74.0278,-2.50788,0.14885,0.66496
690.406,74.08795,-2.5092,0.14841,0.66439
691.006,74.14814,-2.50921,0.143,0.66382
691.606,74.2084,-2.51051,0.14018,0.66326
692.206,74.26879,-2.51051,0.14137,0.66269
692.806,74.32934,-2.51183,0.13692,0.66213
693.406,74.38999,-2.51183,0.13371,0.66156
694.006,74.45064,-2.51315,0.1361,0.66099
694.606,74.51092,-2.51446,0.13136,0.66042
695.206,74.57141,-2.51447,0.12774,0.65986
695.806,74.63172,-2.51374,0.12763,0.65929
696.406,74.69238,-2.51447,0.1287,0.65872
697.006,74.75294,-2.51576,0.12379,0.65815
697.606,74.8133,-2.51715,0.12222,0.65759
698.206,74.87371,-2.5167,0.12261,0.65702
698.806,74.93405,-2.51712,0.12004,0.65645
699.406,74.9945,-2.518,0.11738,0.65588
700.006,75.0549,-2.51854,0.11709,0.65531
700.606,75.11544,-2.51842,0.11357,0.65474
701.206,75.17594,-2.51938,0.113,0.65418
701.806,75.2365,-2.51974,0.11246,0.65361
702.406,75.29695,-2.52097,0.10935,0.65304
703.006,75.35729,-2.52106,0.10685,0.65247
703.606,75.41768,-2.52237,0.10577,0.6519
704.206,75.47793,-2.52238,0.10609,0.65133
704.806,75.53834,-2.52264,0.10354,0.65076
705.406,75.59873,-2.52337,0.10171,0.65019
706.006,75.65948,-2.52305,0.09859052,0.64962
706.606,75.71987,-2.52512,0.09951756,0.64905
707.206,75.7805,-2.52644,0.09356693,0.64848
707.806,75.8411,-2.52562,0.09532546,0.64791
708.406,75.9018,-2.52512,0.09341337,0.64734
709.006,75.9625,-2.52509,0.09258027,0.64677
709.606,76.02263,-2.52645,0.09143101,0.6462
710.206,76.08293,-2.52775,0.08819049,0.64563
710.806,76.14355,-2.52775,0.08799801,0.64505
711.406,76.2043,-2.52862,0.08706895,0.64448
712.006,76.26482,-2.52907,0.0854053,0.64391
712.606,76.32552,-2.52873,0.08580085,0.64334
713.206,76.38597,-2.53006,0.08496409,0.64277
713.806,76.44669,-2.53051,0.08143451,0.6422
714.406,76.50726,-2.53138,0.08352223,0.64162
715.006,76.56787,-2.53036,0.08441865,0.64105
715.606,76.6285,-2.53037,0.07946321,0.64048
716.206,76.68924,-2.5317,0.08025989,0.63991
716.806,76.75013,-2.53268,0.07890179,0.63934
717.406,76.81074,-2.53302,0.07771177,0.63876
718.006,76.87124,-2.53433,0.07869177,0.63819
718.606,76.93202,-2.5344,0.07651634,0.63762
719.206,76.9927,-2.53332,0.07449579,0.63704
719.806,77.05335,-2.53534,0.07679914,0.63647
720.406,77.11395,-2.5357,0.07695738,0.6359
721.006,77.17432,-2.53592,0.07547551,0.63533
721.606,77.235,-2.53641,0.07300955,0.63475
722.206,77.29558,-2.53568,0.07130401,0.63418
722.806,77.35637,-2.53712,0.07131469,0.6336
723.406,77.41717,-2.53833,0.07129915,0.63303
724.006,77.47763,-2.53908,0.0713936,0.63246
724.606,77.53846,-2.53829,0.07019526,0.63188
725.206,77.5993,-2.53961,0.07029288,0.63131
725.806,77.66025,-2.53961,0.06734341,0.63073
726.406,77.72102,-2.54059,0.07100054,0.63016
727.006,77.78178,-2.54092,0.06877549,0.62959
727.606,77.8424,-2.54211,0.06869522,0.62901
728.206,77.90273,-2.54105,0.06965106,0.62844
728.806,77.96307,-2.54346,0.07000388,0.62786
729.406,78.02365,-2.54284,0.07300299,0.62729
730.006,78.08456,-2.54298,0.07012828,0.62671
730.606,78.14573,-2.54288,0.06877336,0.62614
731.206,78.20622,-2.54354,0.06960745,0.62556
731.806,78.2667,-2.54356,0.07037757,0.62499
732.406,78.3272,-2.54488,0.0685983,0.62441
733.006,78.38795,-2.54488,0.06800288,0.62383
733.606,78.4487,-2.5462,0.06761829,0.62326
734.206,78.5093,-2.5462,0.06671834,0.62268
734.806,78.56947,-2.54752,0.06707084,0.62211
735.406,78.6302,-2.54752,0.06785796,0.62153
736.006,78.69099,-2.54621,0.06822524,0.62095
736.606,78.75215,-2.54843,0.06966096,0.62038
737.206,78.8133,-2.54888,0.06848637,0.6198
737.806,78.8741,-2.54752,0.06756089,0.61923
738.406,78.93489,-2.54751,0.06715109,0.61865
739.006,78.99582,-2.54885,0.06900736,0.61807
739.606,79.0566,-2.54883,0.06645351,0.6175
740.206,79.11745,-2.55008,0.06583817,0.61692
740.806,79.17818,-2.55174,0.07016785,0.61634
741.406,79.23894,-2.55246,0.06840012,0.61577
742.006,79.2997,-2.55175,0.06666187,0.61519
742.606,79.3605,-2.55224,0.07042915,0.61461
743.206,79.42112,-2.55224,0.06895629,0.61403
743.806,79.4818,-2.55224,0.07132208,0.61346
744.406,79.54245,-2.55225,0.07110266,0.61288
745.006,79.60306,-2.55355,0.07284239,0.6123
745.606,79.66396,-2.55355,0.07341088,0.61172
746.206,79.72469,-2.55355,0.0726223,0.61115
746.806,79.7856,-2.55292,0.07099033,0.61057
747.406,79.84646,-2.55388,0.07148559,0.60999
748.006,79.90729,-2.55388,0.07557131,0.60941
748.606,79.96815,-2.55479,0.08094477,0.60884
748.906,79.99818,-2.55588,0.07761978,0.60855