File: 01_Data/MDF/STA/N2/3K_min/MDF_STA_N2_3KData_211013_R1.csv
##Temp./Â°C,Time/min,Mass(subtr.2)/%,DSC(subtr.2)/(mW/mg),Sensit./(uV/mW)
50.194,10.00917,99.506,-0.01997041,0.99784
50.794,12.19947,99.31223,-0.0075781,0.9983
51.394,12.86449,99.32145,-0.0005894475,0.99876
51.994,13.37755,99.28491,0.003767495,0.99922
52.594,13.8222,99.28781,0.00710658,0.99967
53.194,14.2256,99.2878,0.01203559,1.00011
53.794,14.60017,99.3107,0.01414134,1.00056
54.394,14.95249,99.27776,0.02000742,1.001
54.994,15.2858,99.24675,0.01970881,1.00143
55.594,15.6052,99.2466,0.02177056,1.00187
56.194,15.9131,99.25437,0.02266538,1.00229
56.794,16.20915,99.24432,0.02782141,1.00272
57.394,16.49565,99.2209,0.02623762,1.00314
57.994,16.77376,99.25486,0.02742369,1.00355
58.594,17.0443,99.19519,0.03104682,1.00397
59.194,17.30947,99.19776,0.03230722,1.00437
59.794,17.56943,99.19776,0.03267157,1.00478
60.394,17.82551,99.19788,0.03541699,1.00518
60.994,18.0777,99.16519,0.03630632,1.00558
61.594,18.32539,99.16428,0.03626939,1.00597
62.194,18.5701,99.14055,0.03791749,1.00636
62.794,18.81167,99.14851,0.03742483,1.00675
63.394,19.05003,99.12141,0.03694901,1.00713
63.994,19.28517,99.12382,0.03731834,1.0075
64.594,19.5172,99.09,0.04050274,1.00788
65.194,19.74788,99.0886,0.04057724,1.00825
65.794,19.97709,99.06464,0.04187022,1.00861
66.394,20.20505,99.0587,0.04294056,1.00898
66.994,20.43064,99.05855,0.04366313,1.00934
67.594,20.6535,99.05842,0.04216134,1.00969
68.194,20.8748,99.02586,0.04261792,1.01004
68.794,21.09504,99.00269,0.04298204,1.01039
69.394,21.31409,98.96051,0.04322408,1.01073
69.994,21.53229,98.9932,0.04528052,1.01107
70.594,21.74894,98.96884,0.04690622,1.01141
71.194,21.96482,98.96021,0.04636093,1.01174
71.794,22.18064,98.96048,0.045674,1.01207
72.394,22.39584,98.91118,0.04753769,1.01239
72.994,22.60973,98.95767,0.04911742,1.01271
73.594,22.8226,98.94126,0.04925227,1.01303
74.194,23.0347,98.88147,0.04782222,1.01334
74.794,23.2459,98.95652,0.04782189,1.01365
75.394,23.4567,98.92395,0.04784989,1.01395
75.994,23.6664,98.88955,0.04872842,1.01426
76.594,23.87582,98.8569,0.04672293,1.01455
77.194,24.08531,98.85769,0.04587833,1.01485
77.794,24.29356,98.88745,0.04504039,1.01514
78.394,24.50219,98.82388,0.04785006,1.01543
78.994,24.7102,98.8248,0.04681761,1.01571
79.594,24.9183,98.85654,0.04781561,1.01599
80.194,25.12505,98.824,0.0484961,1.01626
80.794,25.33083,98.80662,0.04889858,1.01653
81.394,25.53545,98.79948,0.04659073,1.0168
81.994,25.74019,98.77444,0.04465623,1.01707
82.594,25.9448,98.78028,0.04430672,1.01733
83.194,26.14934,98.79129,0.04586681,1.01758
83.794,26.3537,98.79415,0.04715994,1.01784
84.394,26.55746,98.7828,0.04547227,1.01809
84.994,26.76032,98.77462,0.04654329,1.01833
85.594,26.96258,98.76774,0.04670764,1.01857
86.194,27.16478,98.7414,0.047348,1.01881
86.794,27.3669,98.7749,0.04459444,1.01905
87.394,27.5689,98.70948,0.04355973,1.01928
87.994,27.77042,98.70353,0.04442495,1.01951
88.594,27.972,98.67662,0.04290869,1.01973
89.194,28.1734,98.70947,0.04434109,1.01995
89.794,28.37452,98.6869,0.0456855,1.02017
90.394,28.5747,98.693,0.04279273,1.02038
90.994,28.77477,98.67659,0.04326758,1.02059
91.594,28.9749,98.6766,0.0435615,1.02079
92.194,29.1746,98.6438,0.04390621,1.02099
92.794,29.3746,98.64526,0.04486654,1.02119
93.394,29.574,98.6602,0.04762152,1.02139
93.994,29.7727,98.6602,0.04920529,1.02158
94.594,29.97066,98.66853,0.04759372,1.02176
95.194,30.16862,98.6267,0.04804866,1.02195
95.794,30.3665,98.6013,0.04475879,1.02213
96.394,30.56505,98.63035,0.04805511,1.0223
96.994,30.76274,98.59751,0.04777331,1.02248
97.594,30.9602,98.57313,0.04644245,1.02265
98.194,31.1579,98.6137,0.04625054,1.02281
98.794,31.35411,98.61816,0.04524665,1.02297
99.394,31.55068,98.58383,0.04563811,1.02313
99.994,31.7476,98.592,0.04634036,1.02329
100.594,31.94448,98.54867,0.04541697,1.02344
101.194,32.14136,98.58383,0.04574606,1.02359
101.794,32.33824,98.551,0.04462117,1.02373
102.394,32.53435,98.55096,0.04368253,1.02387
102.994,32.73023,98.55001,0.04481579,1.02401
103.594,32.9259,98.53483,0.04358317,1.02414
104.194,33.12102,98.5673,0.04479466,1.02427
104.794,33.31649,98.53921,0.04557233,1.0244
105.394,33.51231,98.52637,0.04615952,1.02452
105.994,33.70774,98.54301,0.04537813,1.02464
106.594,33.9033,98.54252,0.0438446,1.02476
107.194,34.0982,98.56989,0.04340418,1.02487
107.794,34.29319,98.51347,0.04174569,1.02498
108.394,34.48833,98.5458,0.04454112,1.02508
108.994,34.6832,98.53686,0.04240573,1.02519
109.594,34.87809,98.52115,0.04206519,1.02528
110.194,35.07134,98.5209,0.04159156,1.02538
110.794,35.26627,98.48831,0.04171752,1.02547
111.394,35.46,98.52114,0.0440664,1.02556
111.994,35.65529,98.48823,0.04310936,1.02564
112.594,35.85069,98.4883,0.04398253,1.02572
113.194,36.04537,98.4965,0.04185285,1.0258
113.794,36.2402,98.5291,0.04351543,1.02588
114.394,36.43488,98.50444,0.04326942,1.02595
114.994,36.6288,98.49647,0.04515966,1.02601
115.594,36.82329,98.5305,0.04313574,1.02608
116.194,37.01719,98.47216,0.04240745,1.02614
116.794,37.21033,98.47214,0.04305895,1.0262
117.394,37.40463,98.5047,0.04413124,1.02625
117.994,37.59887,98.5047,0.04288733,1.0263
118.594,37.79403,98.58408,0.04356441,1.02635
119.194,37.98835,98.49288,0.0419926,1.02639
119.794,38.1826,98.4575,0.04325327,1.02643
120.394,38.37706,98.49104,0.04293971,1.02647
120.994,38.57072,98.4603,0.04136802,1.0265
121.594,38.76477,98.48577,0.04223392,1.02653
122.194,38.95852,98.39656,0.04154268,1.02656
122.794,39.1524,98.47749,0.04102512,1.02658
123.394,39.34592,98.4448,0.0418062,1.0266
123.994,39.5397,98.4186,0.04087362,1.02661
124.594,39.73382,98.45764,0.04053923,1.02663
125.194,39.92678,98.42564,0.04079462,1.02664
125.794,40.12079,98.4059,0.04261759,1.02664
126.394,40.31375,98.4585,0.04170466,1.02665
126.994,40.5072,98.40101,0.04429731,1.02665
127.594,40.701,98.401,0.0433522,1.02664
128.194,40.89309,98.42662,0.0438929,1.02664
128.794,41.0867,98.40429,0.04409653,1.02663
129.394,41.2797,98.38735,0.04305634,1.02661
129.994,41.47287,98.3854,0.04132138,1.0266
130.594,41.66668,98.38731,0.04269672,1.02658
131.194,41.8594,98.42563,0.04326339,1.02655
131.794,42.0518,98.39229,0.04211574,1.02653
132.394,42.24373,98.39304,0.04321541,1.0265
132.994,42.43582,98.3939,0.04116416,1.02646
133.594,42.62781,98.36021,0.04316698,1.02643
134.194,42.8198,98.38436,0.04090808,1.02639
134.794,43.01212,98.3682,0.04233266,1.02634
135.394,43.2044,98.34605,0.0429435,1.0263
135.994,43.39673,98.3629,0.04203569,1.02625
136.594,43.58933,98.3383,0.041619,1.0262
137.194,43.78106,98.3383,0.04244189,1.02614
137.794,43.97292,98.3233,0.04334816,1.02608
138.394,44.16511,98.3142,0.04240704,1.02602
138.994,44.3571,98.30585,0.04249001,1.02595
139.594,44.5487,98.32226,0.0425888,1.02589
140.194,44.7405,98.33791,0.04225755,1.02581
140.794,44.93188,98.29459,0.04403961,1.02574
141.394,45.12325,98.27263,0.0428366,1.02566
141.994,45.31458,98.28166,0.04169021,1.02558
142.594,45.50582,98.28909,0.04082827,1.02549
143.194,45.6973,98.30556,0.04289736,1.02541
143.794,45.8891,98.3137,0.04164561,1.02532
144.394,46.08093,98.27291,0.04526233,1.02522
144.994,46.27276,98.24285,0.04454612,1.02513
145.594,46.4638,98.27264,0.04437599,1.02503
146.194,46.65508,98.27263,0.0439722,1.02492
146.794,46.84659,98.2401,0.04409074,1.02482
147.394,47.03792,98.30646,0.04369083,1.02471
147.994,47.2303,98.24002,0.04465269,1.02459
148.594,47.42163,98.24275,0.04413343,1.02448
149.194,47.61327,98.27681,0.04416479,1.02436
149.794,47.80433,98.22626,0.04457553,1.02424
150.394,47.995,98.24279,0.04557523,1.02411
150.994,48.18584,98.243,0.04534087,1.02398
151.594,48.37622,98.26342,0.04578424,1.02385
152.194,48.5668,98.20809,0.04636066,1.02372
152.794,48.75742,98.17783,0.0467698,1.02358
153.394,48.948,98.2346,0.04764378,1.02344
153.994,49.13882,98.18324,0.04825544,1.0233
154.594,49.3299,98.13719,0.04523538,1.02315
155.194,49.5203,98.1524,0.04757812,1.023
155.794,49.7111,98.1907,0.04788125,1.02285
156.394,49.9021,98.1793,0.04924123,1.0227
156.994,50.09258,98.1746,0.04853168,1.02254
157.594,50.28376,98.1742,0.04716689,1.02238
158.194,50.47378,98.15725,0.04668181,1.02221
158.794,50.66475,98.14992,0.04689418,1.02204
159.394,50.8557,98.17002,0.04803316,1.02187
159.994,51.04668,98.14495,0.04832865,1.0217
160.594,51.23786,98.11195,0.04814339,1.02152
161.194,51.428,98.1118,0.04808685,1.02135
161.794,51.61795,98.15188,0.04782322,1.02116
162.394,51.8084,98.1447,0.04838146,1.02098
162.994,51.9985,98.14455,0.04890119,1.02079
163.594,52.18893,98.11169,0.04889113,1.0206
164.194,52.3786,98.1117,0.04911941,1.02041
164.794,52.5675,98.07911,0.04937689,1.02021
165.394,52.75716,98.0791,0.04926179,1.02001
165.994,52.9475,98.07896,0.04950462,1.01981
166.594,53.1379,98.06288,0.04919903,1.0196
167.194,53.3285,98.12493,0.04882366,1.01939
167.794,53.51865,98.08281,0.04802712,1.01918
168.394,53.70909,98.05721,0.04692667,1.01897
168.994,53.89956,98.0244,0.0489987,1.01875
169.594,54.09024,98.03097,0.04778691,1.01853
170.194,54.2812,98.04904,0.04919427,1.01831
170.794,54.4713,98.049,0.0485771,1.01808
171.394,54.6614,98.0183,0.04734202,1.01785
171.994,54.85074,98.0463,0.04932243,1.01762
172.594,55.04082,98.0466,0.04869609,1.01739
173.194,55.23101,98.0206,0.04898274,1.01715
173.794,55.4209,97.99123,0.04798465,1.01691
174.394,55.6117,98.00796,0.04999577,1.01667
174.994,55.8018,97.84881,0.04971236,1.01642
175.594,55.99239,97.96717,0.04904341,1.01618
176.194,56.18286,97.9672,0.05117865,1.01593
176.794,56.3729,97.93456,0.0497495,1.01567
177.394,56.56292,97.93434,0.04931353,1.01542
177.994,56.75345,97.92009,0.04925272,1.01516
178.594,56.9442,97.95071,0.05211929,1.0149
179.194,57.13515,97.9179,0.05202582,1.01463
179.794,57.3257,97.92022,0.05273926,1.01436
180.394,57.5158,97.89079,0.05092306,1.01409
180.994,57.7057,97.85483,0.05109981,1.01382
181.594,57.8957,97.9032,0.05091505,1.01355
182.194,58.08594,97.86891,0.0512593,1.01327
182.794,58.27612,97.86891,0.0517392,1.01299
183.394,58.4667,97.8183,0.05151895,1.0127
183.994,58.65701,97.8381,0.05273447,1.01242
184.594,58.84729,97.80535,0.05489801,1.01213
185.194,59.03751,97.8361,0.05266706,1.01184
185.794,59.22747,97.82676,0.05597333,1.01154
186.394,59.41678,97.79653,0.05212419,1.01124
186.994,59.6063,97.79545,0.05406252,1.01094
187.594,59.7955,97.7636,0.05316627,1.01064
188.194,59.98576,97.7299,0.05375209,1.01034
188.794,60.17586,97.72985,0.05491782,1.01003
189.394,60.36591,97.7216,0.05300756,1.00972
189.994,60.5554,97.6641,0.05437082,1.00941
190.594,60.7448,97.69491,0.05398555,1.00909
191.194,60.9346,97.66418,0.05426072,1.00877
191.794,61.1245,97.66418,0.05728357,1.00845
192.394,61.31475,97.6316,0.05647513,1.00813
192.994,61.50481,97.60011,0.05615441,1.0078
193.594,61.6946,97.6049,0.05616746,1.00748
194.194,61.88476,97.5415,0.05677416,1.00715
194.794,62.0746,97.5763,0.05516539,1.00681
195.394,62.26465,97.56617,0.05362811,1.00648
195.994,62.45468,97.5342,0.05651547,1.00614
196.594,62.644,97.5008,0.05412761,1.0058
197.194,62.83381,97.4948,0.05630313,1.00545
197.794,63.02386,97.50076,0.05753726,1.00511
198.394,63.214,97.46791,0.05735726,1.00476
198.994,63.4043,97.4837,0.05798429,1.00441
199.594,63.5942,97.44363,0.058872,1.00405
200.194,63.7839,97.3887,0.05759213,1.0037
200.794,63.97376,97.38586,0.05874349,1.00334
201.394,64.16348,97.3775,0.05643591,1.00298
201.994,64.35367,97.36945,0.05783682,1.00262
202.594,64.54348,97.3204,0.05762785,1.00225
203.194,64.73313,97.304,0.05710539,1.00188
203.794,64.92269,97.30374,0.05670249,1.00151
204.394,65.11222,97.247,0.05789856,1.00114
204.994,65.30139,97.24805,0.05841885,1.00076
205.594,65.4911,97.21144,0.05854774,1.00038
206.194,65.68088,97.21037,0.0579492,1.0
206.794,65.87061,97.14577,0.0585066,0.99962
207.394,66.06018,97.16196,0.05675498,0.99924
207.994,66.24973,97.12983,0.05837374,0.99885
208.594,66.43819,97.0968,0.05702332,0.99846
209.194,66.62828,97.06393,0.05977391,0.99806
209.794,66.8182,97.07218,0.05876275,0.99767
210.394,67.00799,97.0071,0.05763976,0.99727
210.994,67.19889,96.98209,0.05941679,0.99687
211.594,67.38866,96.98317,0.05897751,0.99647
212.194,67.5785,96.9234,0.05962673,0.99607
212.794,67.76785,96.8841,0.05997968,0.99566
213.394,67.95724,96.90518,0.05918873,0.99525
213.994,68.14694,96.81021,0.05993482,0.99484
214.594,68.33702,96.8102,0.0584019,0.99443
215.194,68.5268,96.79378,0.05946001,0.99401
215.794,68.71638,96.74262,0.05967195,0.99359
216.394,68.9058,96.72965,0.06016699,0.99317
216.994,69.09526,96.6793,0.06089331,0.99275
217.594,69.2843,96.622,0.06031874,0.99233
218.194,69.4743,96.60544,0.06084243,0.9919
218.794,69.6645,96.58071,0.06089306,0.99147
219.394,69.85476,96.51349,0.06074196,0.99104
219.994,70.04556,96.4806,0.06215888,0.9906
220.594,70.23504,96.48035,0.06090641,0.99017
221.194,70.42526,96.41463,0.06053929,0.98973
221.794,70.61527,96.38211,0.06091775,0.98929
222.394,70.8054,96.34923,0.06131284,0.98885
222.994,70.9961,96.3339,0.06091469,0.9884
223.594,71.18626,96.26194,0.06042871,0.98796
224.194,71.3758,96.2589,0.06122878,0.98751
224.794,71.56526,96.1618,0.05992663,0.98706
225.394,71.7546,96.16377,0.05986739,0.9866
225.994,71.94403,96.10348,0.05993254,0.98615
226.594,72.13385,96.0176,0.06029858,0.98569
227.194,72.32333,95.94954,0.06178303,0.98523
227.794,72.5129,95.94542,0.0621277,0.98477
228.394,72.7025,95.89602,0.06107024,0.9843
228.994,72.8921,95.84682,0.06408877,0.98384
229.594,73.0817,95.81537,0.06341896,0.98337
230.194,73.27114,95.71252,0.06209515,0.9829
230.794,73.45956,95.6837,0.0633258,0.98242
231.394,73.64851,95.58534,0.06205723,0.98195
231.994,73.8383,95.54619,0.06094286,0.98147
232.594,74.02886,95.48706,0.0624918,0.98099
233.194,74.2201,95.43773,0.06079519,0.98051
233.794,74.41069,95.35301,0.0612262,0.98003
234.394,74.6002,95.272,0.06028693,0.97954
234.994,74.78956,95.23881,0.05948425,0.97906
235.594,74.97839,95.17065,0.06139981,0.97857
236.194,75.1682,95.13899,0.05914729,0.97808
236.794,75.35804,95.03739,0.06061864,0.97758
237.394,75.548,94.95605,0.06036483,0.97709
237.994,75.73822,94.88407,0.05928307,0.97659
238.594,75.92817,94.8529,0.05953645,0.97609
239.194,76.11726,94.7773,0.05932234,0.97559
239.794,76.30699,94.68174,0.05805048,0.97509
240.394,76.49667,94.61544,0.05932536,0.97458
240.994,76.68712,94.57829,0.06140807,0.97408
241.594,76.8775,94.41218,0.06123328,0.97357
242.194,77.06758,94.36484,0.06246408,0.97306
242.794,77.25786,94.2478,0.06200178,0.97254
243.394,77.44789,94.1801,0.06196068,0.97203
243.994,77.63821,94.08945,0.06028942,0.97151
244.594,77.82849,93.97918,0.05815037,0.97099
245.194,78.0183,93.9072,0.05631814,0.97047
245.794,78.20862,93.77019,0.05657928,0.96995
246.394,78.39834,93.7037,0.05523617,0.96943
246.994,78.58839,93.63432,0.05379641,0.9689
247.594,78.7784,93.4967,0.0541367,0.96837
248.194,78.9683,93.37724,0.05334964,0.96784
248.794,79.15852,93.2689,0.05180827,0.96731
249.394,79.34884,93.10004,0.05360716,0.96678
249.994,79.5398,93.06306,0.05355425,0.96624
250.594,79.73029,92.90871,0.05337121,0.96571
251.194,79.92113,92.78848,0.05259499,0.96517
251.794,80.11145,92.65178,0.05386816,0.96463
252.394,80.30176,92.5129,0.0516982,0.96408
252.994,80.4913,92.37142,0.05359781,0.96354
253.594,80.68143,92.2454,0.05305213,0.96299
254.194,80.87139,92.14505,0.05230284,0.96244
254.794,81.0611,91.9917,0.05065692,0.9619
255.394,81.25101,91.8207,0.05202886,0.96134
255.994,81.44111,91.70543,0.05172105,0.96079
256.594,81.63139,91.53198,0.04899776,0.96024
257.194,81.82202,91.40054,0.04820445,0.95968
257.794,82.01263,91.2889,0.04985899,0.95912
258.394,82.20299,91.05632,0.04784859,0.95856
258.994,82.3934,90.9099,0.04945795,0.958
259.594,82.58373,90.76239,0.04798119,0.95743
260.194,82.77407,90.62079,0.04784614,0.95687
260.794,82.96444,90.45936,0.047767,0.9563
261.394,83.15422,90.30295,0.04719947,0.95573
261.994,83.34411,90.1245,0.04538016,0.95516
262.594,83.53486,89.98146,0.0445047,0.95459
263.194,83.72548,89.77707,0.04326305,0.95402
263.794,83.91665,89.66751,0.04019394,0.95344
264.394,84.10686,89.45786,0.03956057,0.95286
264.994,84.29665,89.24473,0.03613117,0.95229
265.594,84.4871,89.11874,0.03466641,0.95171
266.194,84.67804,88.91903,0.03514728,0.95112
266.794,84.8689,88.7066,0.03755588,0.95054
267.394,85.05988,88.57304,0.03677762,0.94995
267.994,85.25028,88.33564,0.03579373,0.94937
268.594,85.4404,88.15918,0.03538482,0.94878
269.194,85.631,87.96181,0.03558243,0.94819
269.794,85.8216,87.78475,0.03418714,0.9476
270.394,86.0124,87.6149,0.03261426,0.94701
270.994,86.20286,87.39108,0.03143515,0.94641
271.594,86.39341,87.17267,0.03192074,0.94582
272.194,86.5835,87.01892,0.03264334,0.94522
272.794,86.7743,86.84824,0.03178207,0.94462
273.394,86.96474,86.607,0.03047322,0.94402
273.994,87.1549,86.36394,0.03023674,0.94342
274.594,87.34563,86.21477,0.03073054,0.94281
275.194,87.5359,86.0129,0.03026866,0.94221
275.794,87.72661,85.77574,0.03000111,0.9416
276.394,87.9169,85.5641,0.02985718,0.94099
276.994,88.1076,85.35799,0.02963726,0.94038
277.594,88.2984,85.16381,0.0300797,0.93977
278.194,88.48908,84.91685,0.03334043,0.93916
278.794,88.68013,84.72839,0.03157322,0.93854
279.394,88.87059,84.5279,0.03257752,0.93793
279.994,89.0612,84.25718,0.0331838,0.93731
280.594,89.25256,84.02449,0.03257193,0.93669
281.194,89.44385,83.81137,0.03326295,0.93607
281.794,89.63553,83.5845,0.03169856,0.93545
282.394,89.82688,83.4281,0.03480924,0.93483
282.994,90.0176,82.98944,0.03368552,0.93421
283.594,90.2089,82.88747,0.03334912,0.93358
284.194,90.40029,82.67365,0.03430515,0.93295
284.794,90.59215,82.47239,0.0327581,0.93233
285.394,90.78379,82.21203,0.03458649,0.9317
285.994,90.97489,81.96072,0.0356424,0.93107
286.594,91.1657,81.804,0.03751712,0.93043
287.194,91.35641,81.48483,0.03969817,0.9298
287.794,91.54746,81.31137,0.03782354,0.92917
288.394,91.73876,81.04616,0.03805443,0.92853
288.994,91.93033,80.84552,0.03951533,0.92789
289.594,92.12153,80.60047,0.04091354,0.92725
290.194,92.3133,80.32743,0.04184643,0.92661
290.794,92.50522,80.07346,0.04081216,0.92597
291.394,92.6969,79.8224,0.04074991,0.92533
291.994,92.88877,79.58782,0.04126945,0.92469
292.594,93.07925,79.34759,0.04189531,0.92404
293.194,93.2698,79.05086,0.04254433,0.92339
293.794,93.46069,78.81237,0.04224152,0.92275
294.394,93.65175,78.58331,0.042049,0.9221
294.994,93.8433,78.30654,0.04322421,0.92145
295.594,94.03384,78.0391,0.04463071,0.9208
296.194,94.22391,77.76562,0.04624005,0.92014
296.794,94.41468,77.51012,0.04661906,0.91949
297.394,94.60721,77.24038,0.04676313,0.91883
297.994,94.80037,76.9492,0.04821348,0.91818
298.594,94.99347,76.6087,0.05036365,0.91752
299.194,95.1855,76.4096,0.05287228,0.91686
299.794,95.3773,76.12303,0.05240229,0.9162
300.394,95.56961,75.8789,0.05534305,0.91554
300.994,95.76151,75.5744,0.05941886,0.91488
301.594,95.95387,75.35829,0.05628068,0.91422
302.194,96.14541,74.94195,0.05756795,0.91355
302.794,96.33721,74.65919,0.05962777,0.91289
303.394,96.5296,74.39765,0.06182305,0.91222
303.994,96.7217,74.07738,0.06089381,0.91155
304.594,96.91427,73.78116,0.06364003,0.91089
305.194,97.10654,73.49715,0.0624272,0.91022
305.794,97.29889,73.1545,0.06449972,0.90954
306.394,97.49155,72.8369,0.06671523,0.90887
306.994,97.6836,72.54906,0.06418832,0.9082
307.594,97.87541,72.20424,0.06739082,0.90753
308.194,98.06655,71.89464,0.07187734,0.90685
308.794,98.25738,71.49198,0.07284573,0.90617
309.394,98.44881,71.23108,0.07398144,0.9055
309.994,98.64036,70.8429,0.07738183,0.90482
310.594,98.83219,70.5531,0.07919437,0.90414
311.194,99.02404,70.16713,0.08059247,0.90346
311.794,99.21471,69.86989,0.08253587,0.90278
312.394,99.40587,69.47837,0.08461817,0.9021
312.994,99.59625,69.10651,0.0863623,0.90141
313.594,99.78725,68.7836,0.08754825,0.90073
314.194,99.9795,68.40035,0.09068286,0.90004
314.794,100.172,68.02337,0.09233587,0.89936
315.394,100.365,67.64794,0.09414947,0.89867
315.994,100.559,67.19886,0.09698466,0.89798
316.594,100.752,66.8192,0.10121,0.89729
317.194,100.945,66.42936,0.10058,0.8966
317.794,101.138,66.04007,0.10251,0.89591
318.394,101.33,65.64318,0.10512,0.89522
318.994,101.522,65.262,0.10727,0.89453
319.594,101.714,64.82296,0.1096,0.89383
320.194,101.907,64.40266,0.11072,0.89314
320.794,102.099,63.97446,0.11273,0.89244
321.394,102.291,63.52476,0.11668,0.89175
321.994,102.484,63.05529,0.1212,0.89105
322.594,102.677,62.5738,0.12244,0.89035
323.194,102.869,62.1182,0.12393,0.88965
323.794,103.062,61.6856,0.1248,0.88895
324.394,103.255,61.13253,0.12742,0.88825
324.994,103.448,60.6962,0.13144,0.88755
325.594,103.641,60.2125,0.13117,0.88685
326.194,103.834,59.6872,0.13458,0.88615
326.794,104.026,59.16474,0.13464,0.88544
327.394,104.219,58.6334,0.1358,0.88474
327.994,104.411,58.1642,0.13698,0.88403
328.594,104.604,57.66588,0.14002,0.88332
329.194,104.796,57.0449,0.1406,0.88262
329.794,104.989,56.526,0.14312,0.88191
330.394,105.182,56.0158,0.1443,0.8812
330.994,105.376,55.3848,0.1455,0.88049
331.594,105.569,54.83401,0.14888,0.87978
332.194,105.763,54.27457,0.14869,0.87907
332.794,105.957,53.6727,0.14899,0.87836
333.394,106.151,53.158,0.15044,0.87765
333.994,106.344,52.4906,0.15237,0.87693
334.594,106.538,51.8758,0.15251,0.87622
335.194,106.731,51.30199,0.15581,0.87551
335.794,106.925,50.6916,0.15402,0.87479
336.394,107.119,50.10082,0.15568,0.87408
336.994,107.3135,49.4784,0.15404,0.87336
337.594,107.507,48.90045,0.15313,0.87264
338.194,107.7,48.24454,0.154,0.87192
338.794,107.894,47.6856,0.15309,0.87121
339.394,108.087,47.13753,0.15405,0.87049
339.994,108.28,46.47065,0.14771,0.86977
340.594,108.473,45.85502,0.1459,0.86905
341.194,108.666,45.29167,0.13999,0.86833
341.794,108.859,44.7033,0.13429,0.8676
342.394,109.053,44.11673,0.13215,0.86688
342.994,109.247,43.54065,0.12506,0.86616
343.594,109.441,42.97803,0.12033,0.86544
344.194,109.634,42.478,0.11349,0.86471
344.794,109.827,41.92102,0.10409,0.86399
345.394,110.02,41.40784,0.09726454,0.86326
345.994,110.213,40.9047,0.09241069,0.86254
346.594,110.407,40.49822,0.08310473,0.86181
347.194,110.6,40.0218,0.07473182,0.86108
347.794,110.7934,39.5908,0.06384315,0.86036
348.394,110.987,39.2327,0.05223786,0.85963
348.994,111.18,38.85298,0.04722231,0.8589
349.594,111.374,38.51688,0.0338651,0.85817
350.194,111.568,38.1965,0.02474361,0.85744
350.794,111.762,37.87806,0.01736554,0.85671
351.394,111.956,37.65668,0.007633906,0.85598
351.994,112.151,37.4213,-0.003193089,0.85525
352.594,112.345,37.24115,-0.009928326,0.85452
353.194,112.539,37.0309,-0.01713613,0.85379
353.794,112.734,36.87531,-0.02581945,0.85306
354.394,112.928,36.70708,-0.0295668,0.85232
354.994,113.121,36.5385,-0.03252374,0.85159
355.594,113.315,36.4364,-0.03592146,0.85086
356.194,113.508,36.2911,-0.03874156,0.85012
356.794,113.701,36.18797,-0.04102116,0.84939
357.394,113.894,36.0835,-0.04466935,0.84865
357.994,114.087,36.01641,-0.04424973,0.84792
358.594,114.28,35.97533,-0.0513832,0.84718
359.194,114.473,35.82895,-0.05349819,0.84645
359.794,114.6667,35.78159,-0.05543753,0.84571
360.394,114.862,35.71602,-0.05702718,0.84497
360.994,115.056,35.65704,-0.05849113,0.84424
361.594,115.251,35.56615,-0.06286161,0.8435
362.194,115.446,35.50597,-0.06190603,0.84276
362.794,115.64,35.4411,-0.06157579,0.84202
363.394,115.834,35.41553,-0.0637472,0.84128
363.994,116.029,35.29063,-0.06315343,0.84054
364.594,116.223,35.21969,-0.06284689,0.83981
365.194,116.417,35.1872,-0.06545474,0.83907
365.794,116.611,35.1216,-0.06477877,0.83833
366.394,116.805,35.05355,-0.06448094,0.83759
366.994,116.999,35.0368,-0.06849036,0.83685
367.594,117.193,34.93473,-0.06798,0.8361
368.194,117.3863,34.89472,-0.06924284,0.83536
368.794,117.58,34.8242,-0.07206286,0.83462
369.394,117.774,34.77361,-0.07043361,0.83388
369.994,117.968,34.70393,-0.06989484,0.83314
370.594,118.162,34.70133,-0.07323126,0.8324
371.194,118.3558,34.6331,-0.07433662,0.83165
371.794,118.55,34.592,-0.07689342,0.83091
372.394,118.7435,34.54303,-0.07701495,0.83017
372.994,118.938,34.4796,-0.07538187,0.82943
373.594,119.133,34.43866,-0.07686567,0.82868
374.194,119.327,34.37388,-0.07488947,0.82794
374.794,119.5219,34.3138,-0.07498913,0.82719
375.394,119.7169,34.27017,-0.07463314,0.82645
375.994,119.912,34.1991,-0.07300813,0.82571
376.594,120.108,34.12754,-0.07244195,0.82496
377.194,120.303,34.07141,-0.07568647,0.82422
377.794,120.498,34.09558,-0.07836068,0.82347
378.394,120.694,34.06494,-0.07792236,0.82273
378.994,120.888,33.9139,-0.0822868,0.82198
379.594,121.083,33.93739,-0.08141855,0.82124
380.194,121.278,33.85673,-0.08435832,0.82049
380.794,121.474,33.81443,-0.08511807,0.81975
381.394,121.669,33.74626,-0.08596296,0.819
381.994,121.865,33.71351,-0.08729945,0.81826
382.594,122.06,33.67811,-0.08615875,0.81751
383.194,122.2551,33.64528,-0.08802905,0.81677
383.794,122.45,33.57714,-0.08937607,0.81602
384.394,122.645,33.50606,-0.08916443,0.81527
384.994,122.841,33.47338,-0.08702211,0.81453
385.594,123.036,33.43253,-0.08869395,0.81378
386.194,123.231,33.39973,-0.09066488,0.81303
386.794,123.426,33.3431,-0.09133562,0.81229
387.394,123.622,33.2796,-0.09031527,0.81154
387.994,123.817,33.23879,-0.09130641,0.8108
388.594,124.013,33.1817,-0.08928873,0.81005
389.194,124.208,33.15149,-0.090079,0.8093
389.794,124.403,33.09214,-0.09173321,0.80856
390.394,124.597,33.06119,-0.09597666,0.80781
390.994,124.791,33.04781,-0.09721226,0.80706
391.594,124.986,32.9741,-0.09837082,0.80632
392.194,125.182,32.94129,-0.09734196,0.80557
392.794,125.378,32.87587,-0.09806655,0.80482
393.394,125.574,32.8104,-0.09625577,0.80408
393.994,125.7711,32.77405,-0.09702473,0.80333
394.594,125.968,32.74477,-0.09758687,0.80258
395.194,126.165,32.5115,-0.09572236,0.80184
395.794,126.361,32.50455,-0.0963074,0.80109
396.394,126.557,32.5903,-0.09720939,0.80035
396.994,126.752,32.6135,-0.10013,0.7996
397.594,126.946,32.57574,-0.09858013,0.79885
398.194,127.141,32.53247,-0.09883861,0.79811
398.794,127.335,32.4311,-0.09875047,0.79736
399.394,127.531,32.37918,-0.09786577,0.79661
399.994,127.727,32.33408,-0.09765803,0.79587
400.594,127.9232,32.2485,-0.09685492,0.79512
401.194,128.119,32.24831,-0.09628975,0.79438
401.794,128.316,32.1502,-0.09650257,0.79363
402.394,128.512,32.18284,-0.09482126,0.79289
402.994,128.7078,32.08123,-0.09446346,0.79214
403.594,128.903,32.1053,-0.09449493,0.7914
404.194,129.099,31.9838,-0.09434628,0.79065
404.794,129.296,31.99403,-0.09540394,0.78991
405.394,129.494,31.9022,-0.09686927,0.78916
405.994,129.6905,31.8993,-0.09660835,0.78842
406.594,129.887,31.8826,-0.09796394,0.78767
407.194,130.084,31.8117,-0.09635123,0.78693
407.794,130.28,31.7761,-0.09795196,0.78618
408.394,130.476,31.7622,-0.09720107,0.78544
408.994,130.673,31.67663,-0.09881517,0.7847
409.594,130.869,31.6617,-0.09708334,0.78395
410.194,131.065,31.6293,-0.09900319,0.78321
410.794,131.26,31.5637,-0.10144,0.78247
411.394,131.457,31.49782,-0.10047,0.78172
411.994,131.653,31.5221,-0.09894208,0.78098
412.594,131.85,31.4383,-0.10156,0.78024
413.194,132.047,31.39428,-0.10262,0.7795
413.794,132.243,31.39425,-0.10045,0.77875
414.394,132.44,31.3289,-0.10142,0.77801
414.994,132.636,31.2961,-0.10233,0.77727
415.594,132.832,31.2279,-0.1023,0.77653
416.194,133.028,31.1954,-0.10334,0.77579
416.794,133.224,31.1624,-0.10354,0.77505
417.394,133.419,31.1296,-0.10293,0.77431
417.994,133.6151,31.0751,-0.10226,0.77357
418.594,133.812,31.0562,-0.10491,0.77283
419.194,134.009,31.02065,-0.10153,0.77209
419.794,134.207,30.9878,-0.10151,0.77135
420.394,134.405,30.9954,-0.10161,0.77061
420.994,134.603,30.9463,-0.09969338,0.76987
421.594,134.801,30.88134,-0.09930418,0.76913
422.194,134.999,30.857,-0.0983189,0.76839
422.794,135.197,30.79958,-0.09623116,0.76766
423.394,135.395,30.80061,-0.09687262,0.76692
423.994,135.593,30.7356,-0.09634062,0.76618
424.594,135.79,30.7012,-0.09690948,0.76545
425.194,135.986,30.7012,-0.09706688,0.76471
425.794,136.1826,30.6278,-0.09543629,0.76397
426.394,136.379,30.6,-0.09225706,0.76324
426.994,136.576,30.5676,-0.0931562,0.7625
427.594,136.773,30.5026,-0.09080566,0.76177
428.194,136.97,30.49385,-0.09100242,0.76104
428.794,137.166,30.46129,-0.088966,0.7603
429.394,137.362,30.42503,-0.08802299,0.75957
429.994,137.559,30.401,-0.08502432,0.75883
430.594,137.755,30.3437,-0.08685216,0.7581
431.194,137.951,30.35505,-0.0884029,0.75737
431.794,138.1466,30.3244,-0.08942126,0.75664
432.394,138.342,30.23876,-0.09092361,0.75591
432.994,138.538,30.2373,-0.09146644,0.75518
433.594,138.735,30.2292,-0.08822248,0.75445
434.194,138.9323,30.15574,-0.09059462,0.75372
434.794,139.13,30.153,-0.0880061,0.75299
435.394,139.327,30.1125,-0.08431974,0.75226
435.994,139.525,30.0781,-0.08054802,0.75153
436.594,139.7229,30.02233,-0.08315222,0.7508
437.194,139.92,30.00474,-0.08211816,0.75007
437.794,140.118,29.9809,-0.08399921,0.74935
438.394,140.314,29.9863,-0.08462788,0.74862
438.994,140.511,29.90995,-0.08233576,0.74789
439.594,140.708,29.8736,-0.08163989,0.74717
440.194,140.905,29.8495,-0.07996571,0.74644
440.794,141.103,29.7854,-0.08226723,0.74572
441.394,141.3,29.80075,-0.07832889,0.74499
441.994,141.499,29.76817,-0.07873755,0.74427
442.594,141.697,29.75357,-0.07734508,0.74355
443.194,141.896,29.69973,-0.07752169,0.74282
443.794,142.095,29.67281,-0.08223084,0.7421
444.394,142.294,29.63595,-0.07765113,0.74138
444.994,142.493,29.61228,-0.07511895,0.74066
445.594,142.691,29.62084,-0.07709213,0.73994
446.194,142.89,29.62075,-0.07575999,0.73922
446.794,143.087,29.5834,-0.07088642,0.7385
447.394,143.285,29.5201,-0.07482823,0.73778
447.994,143.483,29.5169,-0.07087224,0.73706
448.594,143.681,29.48299,-0.0744638,0.73635
449.194,143.8786,29.4515,-0.07528821,0.73563
449.794,144.077,29.40755,-0.07445992,0.73491
450.394,144.274,29.3833,-0.07442465,0.7342
450.994,144.471,29.3753,-0.07603609,0.73348
451.594,144.668,29.3226,-0.07226113,0.73277
452.194,144.865,29.3152,-0.07437192,0.73206
452.794,145.063,29.30695,-0.07147203,0.73134
453.394,145.261,29.27413,-0.07204602,0.73063
453.994,145.459,29.2415,-0.07098835,0.72992
454.594,145.657,29.21705,-0.07153644,0.72921
455.194,145.8555,29.23344,-0.06940877,0.7285
455.794,146.054,29.16943,-0.07098415,0.72779
456.394,146.253,29.1704,-0.07248328,0.72708
456.994,146.451,29.10278,-0.0750835,0.72637
457.594,146.649,29.09951,-0.07375428,0.72566
458.194,146.847,29.04226,-0.07615275,0.72495
458.794,147.045,29.03391,-0.07441261,0.72425
459.394,147.2423,29.03955,-0.07430599,0.72354
459.994,147.44,28.97287,-0.07332461,0.72284
460.594,147.638,28.97415,-0.07379605,0.72213
461.194,147.837,28.937,-0.07011272,0.72143
461.794,148.035,28.9406,-0.07157225,0.72073
462.394,148.233,28.78518,-0.07373223,0.72002
462.994,148.431,28.95525,-0.07220748,0.71932
463.594,148.63,28.879,-0.07342026,0.71862
464.194,148.829,28.82388,-0.07112887,0.71792
464.794,149.027,28.808,-0.06864344,0.71722
465.394,149.226,28.77488,-0.0682268,0.71652
465.994,149.424,28.7813,-0.06817082,0.71583
466.594,149.623,28.74233,-0.07101753,0.71513
467.194,149.821,28.7756,-0.0657491,0.71443
467.794,150.019,28.6862,-0.06677249,0.71374
468.394,150.217,28.67662,-0.07009219,0.71304
468.994,150.415,28.6655,-0.07028491,0.71235
469.594,150.613,28.64057,-0.06908992,0.71166
470.194,150.81,28.6086,-0.07283868,0.71096
470.794,151.008,28.5675,-0.06965595,0.71027
471.394,151.206,28.5731,-0.0702482,0.70958
471.994,151.4041,28.5403,-0.06824876,0.70889
472.594,151.603,28.51865,-0.06834057,0.7082
473.194,151.802,28.52388,-0.06659772,0.70751
473.794,152.002,28.47761,-0.0649538,0.70683
474.394,152.202,28.47836,-0.06759619,0.70614
474.994,152.403,28.45846,-0.06530635,0.70545
475.594,152.604,28.4231,-0.06436672,0.70477
476.194,152.803,28.4231,-0.06929456,0.70408
476.794,153.003,28.3903,-0.07124658,0.7034
477.394,153.201,28.3575,-0.07233598,0.70272
477.994,153.4,28.3575,-0.07241499,0.70204
478.594,153.598,28.34112,-0.07421524,0.70135
479.194,153.796,28.30821,-0.07460702,0.70067
479.794,153.9946,28.29178,-0.07506801,0.7
480.394,154.194,28.32455,-0.07831111,0.69932
480.994,154.392,28.292,-0.07784137,0.69864
481.594,154.591,28.25892,-0.07580084,0.69796
482.194,154.79,28.2428,-0.07497931,0.69729
482.794,154.989,28.2344,-0.07547839,0.69661
483.394,155.188,28.19378,-0.07475332,0.69594
483.994,155.386,28.1608,-0.07468857,0.69527
484.594,155.584,28.169,-0.07423015,0.69459
485.194,155.783,28.1692,-0.07526669,0.69392
485.794,155.983,28.16282,-0.07623377,0.69325
486.394,156.183,28.101,-0.07353723,0.69258
486.994,156.3839,28.0926,-0.07398081,0.69192
487.594,156.5841,28.0542,-0.0705628,0.69125
488.194,156.784,28.1621,-0.07245088,0.69058
488.794,156.983,28.03673,-0.07228334,0.68992
489.394,157.183,27.9402,-0.07297631,0.68925
489.994,157.382,28.155,-0.07351199,0.68859
490.594,157.582,27.98902,-0.0727061,0.68792
491.194,157.78,27.9509,-0.075134,0.68726
491.794,157.979,27.95097,-0.07602928,0.6866
492.394,158.177,27.9425,-0.07255382,0.68594
492.994,158.376,27.93698,-0.07672442,0.68528
493.594,158.574,27.9017,-0.079798,0.68462
494.194,158.774,27.8856,-0.08111441,0.68397
494.794,158.973,27.88733,-0.07757265,0.68331
495.394,159.172,27.8357,-0.07806808,0.68266
495.994,159.372,27.87438,-0.07751879,0.682
496.594,159.5715,27.863,-0.07998826,0.68135
497.194,159.771,27.80895,-0.08208627,0.6807
497.794,159.971,27.7749,-0.08412146,0.68005
498.394,160.171,27.7889,-0.08448823,0.6794
498.994,160.37,27.7737,-0.08777772,0.67875
499.594,160.57,27.77706,-0.08836085,0.6781
500.194,160.769,27.74355,-0.08908131,0.67745
500.794,160.9687,27.74353,-0.09031658,0.67681
501.394,161.169,27.7107,-0.09074437,0.67616
501.994,161.366,27.7518,-0.09233004,0.67552
502.594,161.565,27.92312,-0.0895287,0.67487
503.194,161.762,27.65318,-0.09049327,0.67423
503.794,161.961,27.6535,-0.09323636,0.67359
504.394,162.16,27.6781,-0.09537429,0.67295
504.994,162.3591,27.5826,-0.09682889,0.67231
505.594,162.558,27.59933,-0.09552515,0.67168
506.194,162.758,27.5887,-0.09337017,0.67104
506.794,162.957,27.5881,-0.0983602,0.6704
507.394,163.157,27.52255,-0.09510454,0.66977
507.994,163.358,27.5226,-0.09656835,0.66914
508.594,163.56,27.5225,-0.09456773,0.6685
509.194,163.761,27.45185,-0.09466458,0.66787
509.794,163.964,27.48442,-0.09423531,0.66724
510.394,164.167,27.49254,-0.09561183,0.66661
510.994,164.368,27.42711,-0.09689193,0.66598
511.594,164.57,27.39408,-0.09438041,0.66536
512.194,164.771,27.4112,-0.09245224,0.66473
512.794,164.972,27.4107,-0.09730136,0.66411
513.394,165.173,27.37534,-0.09892191,0.66348
513.994,165.374,27.3964,-0.09563421,0.66286
514.594,165.574,27.3369,-0.09768164,0.66224
515.194,165.774,27.3374,-0.09893299,0.66162
515.794,165.974,27.34536,-0.1005,0.661
516.394,166.174,27.31005,-0.10052,0.66038
516.994,166.375,27.3372,-0.10045,0.65977
517.594,166.575,27.29723,-0.10157,0.65915
518.194,166.776,27.28507,-0.09911314,0.65853
518.794,166.976,27.25252,-0.10068,0.65792
519.394,167.176,27.2187,-0.10147,0.65731
519.994,167.375,27.2114,-0.10381,0.6567
520.594,167.575,27.2225,-0.10701,0.65609
521.194,167.775,27.2224,-0.10471,0.65548
521.794,167.976,27.22235,-0.10388,0.65487
522.394,168.176,27.21418,-0.10688,0.65426
522.994,168.376,27.19807,-0.10873,0.65366
523.594,168.577,27.17713,-0.1102,0.65305
524.194,168.776,27.13134,-0.11251,0.65245
524.794,168.976,27.13798,-0.11417,0.65185
525.394,169.175,27.1366,-0.11435,0.65125
525.994,169.374,27.0728,-0.11643,0.65065
526.594,169.573,27.1052,-0.11677,0.65005
527.194,169.773,27.10523,-0.11164,0.64945
527.794,169.974,27.0313,-0.11325,0.64886
528.394,170.1741,27.0174,-0.11515,0.64826
528.994,170.375,27.0054,-0.11402,0.64767
529.594,170.5752,27.01435,-0.11189,0.64708
530.194,170.775,26.9796,-0.11303,0.64649
530.794,170.975,26.94677,-0.1119,0.6459
531.394,171.176,26.94681,-0.11083,0.64531
531.994,171.377,26.9389,-0.11092,0.64472
532.594,171.579,26.90597,-0.11106,0.64413
533.194,171.779,26.8955,-0.11446,0.64355
533.794,171.98,26.9032,-0.11389,0.64296
534.394,172.179,26.89503,-0.11522,0.64238
534.994,172.38,26.8376,-0.11474,0.6418
535.594,172.58,26.8704,-0.11671,0.64122
536.194,172.78,26.87043,-0.11364,0.64064
536.794,172.98,26.83235,-0.11799,0.64006
537.394,173.179,26.8323,-0.11122,0.63949
537.994,173.379,26.79403,-0.11287,0.63891
538.594,173.579,26.8186,-0.11618,0.63834
539.194,173.779,26.78606,-0.11364,0.63777
539.794,173.98,26.8026,-0.11389,0.63719
540.394,174.183,26.76965,-0.11031,0.63662
540.994,174.385,26.7773,-0.1125,0.63606
541.594,174.5874,26.7591,-0.11148,0.63549
542.194,174.789,26.7286,-0.1091,0.63492
542.794,174.992,26.7238,-0.10812,0.63436
543.394,175.194,26.75338,-0.10849,0.63379
543.994,175.396,26.6544,-0.11103,0.63323
544.594,175.597,26.69016,-0.11377,0.63267
545.194,175.797,26.69148,-0.11292,0.63211
545.794,175.997,26.61907,-0.11415,0.63155
546.394,176.197,26.64845,-0.11707,0.63099
546.994,176.399,26.6192,-0.11649,0.63044
547.594,176.602,26.6707,-0.11703,0.62988
548.194,176.8045,26.65049,-0.11357,0.62933
548.794,177.007,26.62487,-0.11607,0.62878
549.394,177.208,26.5895,-0.11499,0.62823
549.994,177.408,26.5567,-0.11402,0.62768
550.594,177.608,26.65958,-0.11498,0.62713
551.194,177.809,26.59481,-0.11328,0.62658
551.794,178.01,26.58428,-0.11135,0.62603
552.394,178.212,26.5701,-0.10808,0.62549
552.994,178.414,26.57242,-0.10992,0.62495
553.594,178.617,26.5678,-0.11098,0.62441
554.194,178.821,26.5674,-0.10823,0.62387
554.794,179.0231,26.535,-0.10989,0.62333
555.394,179.226,26.53756,-0.10527,0.62279
555.994,179.427,26.50473,-0.10753,0.62225
556.594,179.628,26.4965,-0.10453,0.62172
557.194,179.83,26.4899,-0.10267,0.62118
557.794,180.0318,26.4721,-0.10317,0.62065
558.394,180.235,26.4366,-0.10256,0.62012
558.994,180.438,26.4366,-0.10068,0.61959
559.594,180.641,26.43845,-0.09825136,0.61906
560.194,180.843,26.40574,-0.1003,0.61853
560.794,181.046,26.39558,-0.10036,0.61801
561.394,181.2488,26.3958,-0.1012,0.61748
561.994,181.451,26.35775,-0.10032,0.61696
562.594,181.653,26.39303,-0.09912779,0.61644
563.194,181.855,26.3602,-0.09819031,0.61592
563.794,182.056,26.36031,-0.09588102,0.6154
564.394,182.257,26.3925,-0.09474459,0.61488
564.994,182.459,26.3656,-0.09266613,0.61437
565.594,182.66,26.34739,-0.09367739,0.61385
566.194,182.861,26.3377,-0.08963706,0.61334
566.794,183.0623,26.28987,-0.08790324,0.61283
567.394,183.264,26.28642,-0.08606209,0.61232
567.994,183.465,26.31852,-0.08607958,0.61181
568.594,183.667,26.28357,-0.08479459,0.6113
569.194,183.869,26.251,-0.08354173,0.61079
569.794,184.07,26.2754,-0.08185422,0.61029
570.394,184.272,26.2595,-0.08184564,0.60978
570.994,184.4731,26.18584,-0.07665331,0.60928
571.594,184.675,26.22665,-0.07368423,0.60878
572.194,184.877,26.21009,-0.07384684,0.60828
572.794,185.079,26.19378,-0.07400593,0.60778
573.394,185.281,26.16368,-0.07326707,0.60729
573.994,185.4823,26.19669,-0.07605757,0.60679
574.594,185.683,26.16377,-0.07425889,0.6063
575.194,185.885,26.06008,-0.07011249,0.60581
575.794,186.0865,26.13383,-0.06914837,0.60531
576.394,186.288,26.13383,-0.06272984,0.60482
576.994,186.49,26.142,-0.06123727,0.60434
577.594,186.693,25.93104,-0.05396863,0.60385
578.194,186.897,26.09785,-0.05086981,0.60336
578.794,187.102,26.0821,-0.04859072,0.60288
579.394,187.306,26.09842,-0.05164547,0.6024
579.994,187.511,26.0575,-0.04616679,0.60192
580.594,187.714,26.13959,-0.04688137,0.60144
581.194,187.9175,25.9512,-0.04379504,0.60096
581.794,188.12,26.0654,-0.04773409,0.60048
582.394,188.322,25.9775,-0.04845987,0.60001
582.994,188.522,26.02711,-0.04682472,0.59953
583.594,188.723,25.96244,-0.04675953,0.59906
584.194,188.924,25.9631,-0.0491789,0.59859
584.794,189.1252,25.9945,-0.04911389,0.59812
585.394,189.327,25.9735,-0.04546599,0.59765
585.994,189.53,25.97046,-0.04312959,0.59718
586.594,189.733,26.03458,-0.03768611,0.59672
587.194,189.936,25.98594,-0.03672974,0.59625
587.794,190.139,25.90723,-0.03535751,0.59579
588.394,190.342,25.93189,-0.03407766,0.59533
588.994,190.544,25.9398,-0.03269055,0.59487
589.594,190.746,25.93978,-0.03142693,0.59441
590.194,190.948,25.93158,-0.02714475,0.59395
590.794,191.151,25.94077,-0.02970091,0.5935
591.394,191.354,25.8967,-0.02899848,0.59305
591.994,191.56,25.9161,-0.02850622,0.59259
592.594,191.765,25.92151,-0.02567827,0.59214
593.194,191.969,25.83825,-0.02341289,0.59169
593.794,192.173,25.89935,-0.0219207,0.59124
594.394,192.376,25.8276,-0.02179111,0.5908
594.994,192.579,25.74567,-0.0192835,0.59035
595.594,192.782,25.86264,-0.01526497,0.58991
596.194,192.985,25.83635,-0.009398657,0.58947
596.794,193.188,25.83589,-0.01411284,0.58903
597.394,193.391,25.80341,-0.006325805,0.58859
597.994,193.5942,25.80884,-0.00705525,0.58815
598.594,193.797,25.85471,-0.008596513,0.58771
599.194,193.999,25.78183,-0.01096639,0.58728
599.794,194.201,25.84025,-0.01172667,0.58684
600.394,194.405,25.82246,-0.01060872,0.58641
600.994,194.607,25.82537,-0.01398866,0.58598
601.594,194.811,25.75721,-0.01292586,0.58555
602.194,195.014,25.76558,-0.00999384,0.58512
602.794,195.219,25.75721,-0.00684181,0.5847
603.394,195.424,25.757,-0.00611915,0.58427
603.994,195.6293,25.7517,-0.00486507,0.58385
604.594,195.834,25.68509,-0.005092738,0.58343
605.194,196.038,25.7192,0.0004074262,0.58301
605.794,196.241,25.6863,-0.0001778174,0.58259
606.394,196.445,25.6688,0.001378005,0.58217
606.994,196.648,25.7192,0.002550332,0.58176
607.594,196.852,25.67065,0.004753623,0.58134
608.194,197.055,25.7052,0.006265929,0.58093
608.794,197.26,25.69633,0.01056025,0.58052
609.394,197.466,25.6643,0.01191766,0.58011
609.994,197.672,25.69706,0.01545563,0.5797
610.594,197.877,25.69558,0.01627175,0.5793
611.194,198.082,25.68907,0.01881071,0.57889
611.794,198.285,25.63964,0.02054083,0.57849
612.394,198.4889,25.6726,0.02168312,0.57808
612.994,198.692,25.67042,0.02367325,0.57768
613.594,198.896,25.60407,0.02352723,0.57728
614.194,199.1,25.59893,0.02142024,0.57689
614.794,199.303,25.6072,0.0188841,0.57649
615.394,199.506,25.6295,0.01985985,0.57609
615.994,199.7094,25.599,0.01482795,0.5757
616.594,199.913,25.56615,0.01816943,0.57531
617.194,200.117,25.6239,0.01410822,0.57492
617.794,200.322,25.56617,0.01261376,0.57453
618.394,200.527,25.57225,0.01689345,0.57414
618.994,200.732,25.5598,0.01625061,0.57376
619.594,200.936,25.55247,0.01454044,0.57337
620.194,201.14,25.56324,0.02143145,0.57299
620.794,201.3442,25.55,0.0180094,0.57261
621.394,201.547,25.52541,0.02084002,0.57223
621.994,201.75,25.55844,0.01820432,0.57185
622.594,201.952,25.54699,0.01865716,0.57147
623.194,202.155,25.54737,0.01856394,0.5711
623.794,202.359,25.5379,0.01635316,0.57073
624.394,202.562,25.5141,0.01511009,0.57035
624.994,202.764,25.48185,0.01462146,0.56998
625.594,202.966,25.44926,0.01459244,0.56961
626.194,203.168,25.47395,0.01394302,0.56925
626.794,203.372,25.45022,0.01631829,0.56888
627.394,203.579,25.4928,0.01736148,0.56851
627.994,203.786,25.457,0.01328653,0.56815
628.594,203.992,25.32818,0.01491017,0.56779
629.194,204.197,25.41589,0.01289885,0.56743
629.794,204.401,25.42985,0.01475748,0.56707
630.394,204.604,25.42985,0.01128788,0.56671
630.994,204.806,25.51063,0.01394597,0.56636
631.594,205.008,25.41817,0.009490043,0.566
632.194,205.211,25.40965,0.007215495,0.56565
632.794,205.414,25.37431,0.004939304,0.5653
633.394,205.618,25.40245,0.00626168,0.56495
633.994,205.822,25.42725,0.003063298,0.5646
634.594,206.025,25.40945,0.001582117,0.56426
635.194,206.2266,25.42693,0.00291684,0.56391
635.794,206.429,25.39435,0.0050881,0.56357
636.394,206.633,25.40896,0.00757429,0.56322
636.994,206.838,25.39428,0.00908796,0.56288
637.594,207.044,25.4271,0.01134814,0.56255
638.194,207.249,25.42711,0.01047841,0.56221
638.794,207.454,25.3943,0.01253844,0.56187
639.394,207.658,25.36116,0.01556351,0.56154
639.994,207.862,25.38607,0.01485493,0.5612
640.594,208.066,25.38607,0.01347952,0.56087
641.194,208.272,25.35351,0.01892702,0.56054
641.794,208.479,25.36146,0.01793491,0.56021
642.394,208.685,25.39454,0.01424599,0.55989
642.994,208.8888,25.438,0.01024914,0.55956
643.594,209.093,25.3712,0.0135597,0.55924
644.194,209.298,25.33993,0.01331685,0.55892
644.794,209.505,25.33979,0.01677282,0.5586
645.394,209.712,25.30627,0.01591526,0.55828
645.994,209.918,25.33815,0.01761079,0.55796
646.194,209.987,25.33677,0.01972349,0.55785