File: 01_Data/Rubber_Band/Cone/Rubber_Band_Cone_HF25-Frame+GridScan_201013_R1.csv
Names,Time,Stack TC,Smoke TC,Exh Press,Smoke Comp,Smoke Meas,CO Meter,CO2 Meter,O2 Meter,Sample Mass,Ext Coeff,Start Test,Flame Verif
Chan Gain,,500,500,1,1,1,1,1,1,1,1,1.0,1.0
Offset,,0,0,0.130609,0,0,0,0,0,0,0,0.0,0.0
Gain,,1,1,25.011,28413.6,29762,1,1,1,1.00092,-11.006,1.0,1.0
Units,sec,C,C,Pa,%,%,%,%,%,g,/m,,
Baseline,,18.1042,19.5218,185.874,213045,180403,0.00438359,0.0607684,20.9006,-937.978,-16.0567,,
5,1,16.7373,17.2115,182.76,212973,180535,0.00441178,0.064459,20.8976,15.0538,-15.9529,0.0,0.0
10,2.25,16.097,17.7909,189.134,212961,180510,0.00442758,0.0651079,20.8968,14.9637,-15.9605,0.0,0.0
15,3.5,16.2506,17.5693,186.651,212956,180690,0.00444115,0.0657852,20.8963,14.9737,-15.8624,0.0,0.0
20,4.75,16.52,17.7747,186.54,212943,180354,0.00445191,0.0662729,20.8958,14.9837,-16.0358,0.0,0.0
25,6,16.5123,17.9498,185.454,212939,180310,0.00445974,0.0667695,20.8943,14.9737,-16.0581,0.0,0.0
30,7.25,16.2911,17.916,187.309,212940,180155,0.00446436,0.0674974,20.8929,14.9737,-16.1412,0.0,0.0
35,8.5,16.249,18.1072,183.459,212900,180048,0.00446158,0.0687168,20.8921,14.9737,-16.1806,0.0,0.0
40,9.75,16.6259,18.1821,182.901,212879,180258,0.00443914,0.0699057,20.8917,14.9837,-16.0587,0.0,0.0
45,11,16.6484,18.0232,182.223,212882,180243,0.00438615,0.0704125,20.8914,14.9637,-16.0677,0.0,0.0
50,12.25,16.1423,17.9823,181.373,212858,180309,0.00432756,0.0697818,20.8915,14.9637,-16.022,0.0,0.0
55,13.5,16.5741,18.3238,185.255,212872,180292,0.00428133,0.0682161,20.8925,14.9537,-16.0371,0.0,0.0
60,14.75,16.7455,18.3107,184.887,212829,180227,0.00427063,0.0666567,20.8941,14.9537,-16.0524,0.0,0.0
65,16,16.5244,17.8217,184.536,212826.375,180240,0.00425639,0.0650698,20.8961,14.9537,-16.0444,0.0,0.0
70,17.25,16.6263,18.3851,181.849,212811.625,180403,0.00421336,0.0638725,20.8974,14.9537,-15.9502,0.0,0.0
75,18.5,16.7223,18.3348,187.187,212809,180007,0.00416632,0.0629541,20.8982,14.9537,-16.1612,0.0,0.0
80,19.75,16.5616,17.9685,185.507,212781,180015,0.00410824,0.0622376,20.8997,14.9537,-16.1447,0.0,0.0
85,21,16.6057,18.104,188.836,212788,180343,0.00402427,0.0618435,20.9005,14.9437,-15.9717,0.0,0.0
90,22.25,16.4629,18.1625,184.891,212777,179893,0.00395291,0.0614522,20.901,14.9437,-16.208,0.0,0.0
95,23.5,16.4723,18.1048,183.467,212762,180099,0.00395326,0.0612824,20.9013,14.9437,-16.0908,0.0,0.0
100,24.75,16.8954,17.9516,190.92,212713,180020,0.00399873,0.0612945,20.9014,14.9437,-16.1107,0.0,0.0
105,26,16.648,18.658,187.32,212721,179745,0.00404185,0.0613644,20.9015,14.9136,-16.2623,0.0,0.0
110,27.25,16.594,17.9978,183.24,212696,179670,0.00406358,0.0614919,20.901,14.9236,-16.2909,0.0,0.0
115,28.5,16.5112,17.8938,188.72,212664,179583,0.00406609,0.0616308,20.9003,14.9236,-16.3232,0.0,0.0
120,29.75,16.1496,17.758,184.93,212678,179783,0.00406965,0.0615955,20.8999,14.9236,-16.2222,0.0,0.0
125,31,16.8402,17.7364,190.34,212641,179902,0.00412861,0.0615366,20.8997,14.9236,-16.1414,0.0,0.0
130,32.25,16.3182,17.6491,188.804,212625,179834,0.00418373,0.0615528,20.9005,14.9136,-16.1708,0.0,0.0
135,33.5,15.9342,17.4179,181.502,212604,179565,0.00418604,0.061563,20.901,14.9236,-16.3058,0.0,0.0
140,34.75,16.7957,18.0424,184.785,212587,179411,0.00414931,0.0614763,20.9013,14.9036,-16.381,0.0,0.0
145,36,16.4154,18.0024,192.906,212616,179456,0.0040388,0.0614708,20.9016,14.9036,-16.3696,0.0,0.0
150,37.25,16.2072,17.6967,177.454,212573,179355,0.00392999,0.0615352,20.9017,14.9136,-16.4045,0.0,0.0
155,38.5,17.1577,17.8435,189.636,212535,179362,0.00383202,0.061661,20.9019,14.9136,-16.3833,0.0,0.0
160,39.75,16.6124,18.202,184.844,212522.875,179211,0.00380269,0.0617211,20.9019,14.9036,-16.4594,0.0,0.0
165,41,16.4913,18.0369,182.72,212508,179414,0.00382333,0.0617127,20.9019,14.9036,-16.3432,0.0,0.0
170,42.25,16.9536,18.5079,188.325,212495,179056,0.00387433,0.0615846,20.902,14.8936,-16.5301,0.0,0.0
175,43.5,16.4987,18.0107,180.883,212476,179005,0.00394817,0.06146,20.902,14.8936,-16.5488,0.0,0.0
180,44.75,16.4741,18.0518,185.22,212426,178535,0.00403361,0.0613361,20.902,14.8836,-16.7801,0.0,0.0
185,46,16.8353,18.5543,180.773,212418,178760,0.00411929,0.0612287,20.902,14.8736,-16.6548,0.0,0.0
190,47.25,16.919,18.155,186.247,212405,178494,0.00415637,0.0611363,20.9014,14.8736,-16.7927,0.0,0.0
195,48.5,16.8545,18.0816,186.318,212385,178497,0.00415663,0.0613209,20.9007,14.8636,-16.7822,0.0,0.0
200,49.75,16.6876,18.0306,185.276,212381,178498,0.0041349,0.0617447,20.9003,14.8536,-16.7797,0.0,0.0
205,51,17.0837,18.3075,188.329,212349,178414,0.00410753,0.0622168,20.9,14.8536,-16.8107,0.0,0.0
210,52.25,16.6905,18.1904,186.148,212331.25,177931,0.00406598,0.0625204,20.8999,14.8536,-17.0643,0.0,0.0
215,53.5,16.3097,18.1176,187.193,212318.25,177609,0.00404319,0.062794,20.8998,14.8536,-17.2334,0.0,0.0
220,54.75,16.7712,18.2206,186.093,212310,177697,0.00405597,0.0630433,20.8998,14.8536,-17.182,0.0,0.0
225,56,16.7109,18.2671,187.619,212268,177689.375,0.00410558,0.0632643,20.8993,14.8536,-17.1666,0.0,0.0
230,57.25,16.457,18.1735,180.535,212214,177274,0.00416703,0.0634561,20.8985,14.8436,-17.368,0.0,0.0
235,58.5,17.3351,18.2859,180.167,212204,177026,0.00420643,0.0639357,20.8984,14.8336,-17.4984,0.0,0.0
240,59.75,17.1259,18.3101,180.973,212201,177342,0.00420025,0.0650955,20.8991,14.8336,-17.325,0.0,0.0
245,61,17.2858,18.7196,184.41,212151,176529,0.00417186,0.0659157,20.8987,14.8236,-17.7461,0.0,0.0
250,62.25,17.133,18.509,184.772,212140,176541,0.00413603,0.0665987,20.898,14.8135,-17.734,0.0,0.0
255,63.5,17.2167,18.2849,185.91,212125.75,176468,0.00410193,0.0666521,20.8971,14.8035,-17.768,0.0,0.0
260,64.75,16.8818,18.0402,184.096,212111,176929,0.00406158,0.0666342,20.8965,14.8035,-17.5092,0.0,0.0
265,66,16.4725,17.9284,184.648,212033,177066,0.00403192,0.067007,20.8962,14.7935,-17.3988,0.0,0.0
270,67.25,16.887,18.4871,180.558,212000,177015,0.00404627,0.0674088,20.896,14.7935,-17.4116,0.0,0.0
275,68.5,16.7985,18.6333,183.447,211970,176381,0.0041163,0.0674156,20.8959,14.7735,-17.7441,0.0,0.0
280,69.75,16.9555,18.4779,188.08,211955,176438,0.0042211,0.0673241,20.8958,14.7835,-17.7066,0.0,0.0
285,71,16.7462,18.447,190.625,211899,176292,0.0042907,0.0672317,20.8958,14.7835,-17.7605,0.0,0.0
290,72.25,16.8172,18.5669,188.28,211887,176543,0.00432011,0.0666534,20.8958,14.7735,-17.6182,0.0,0.0
295,73.5,17.001,18.2903,182.451,211847,176409.625,0.00432836,0.0661361,20.8958,14.7635,-17.6726,0.0,0.0
300,74.75,16.7195,18.6503,181.087,211819,175411,0.00434364,0.0661557,20.8958,14.7635,-18.2078,0.0,0.0
305,76,17.1134,18.4331,184.635,211760,175883,0.00437392,0.0666859,20.8958,14.7535,-17.9218,0.0,0.0
310,77.25,16.9333,18.4785,189.487,211722,175759,0.00441364,0.0671615,20.8958,14.7535,-17.9723,0.0,0.0
315,78.5,17.2988,18.7629,184.908,211698.25,175568,0.00446158,0.0672726,20.8955,14.7535,-18.0669,0.0,0.0
320,79.75,17.546,18.9659,185.971,211627,175487,0.00449554,0.0670861,20.8953,14.7435,-18.0789,0.0,0.0
325,81,17.2245,19.1393,185.84,211673,175327,0.00451182,0.0664955,20.8951,14.7335,-18.1879,0.0,0.0
330,82.25,17.1435,18.8121,183.383,211613,175022,0.00449704,0.066072,20.8955,14.7235,-18.3288,0.0,0.0
335,83.5,17.0519,19.2428,185.868,211599,174619,0.0044739,0.0661299,20.8963,14.7135,-18.5443,0.0,0.0
340,84.75,17.2643,19.2203,184.924,211560,174754,0.00450595,0.0663832,20.8967,14.7135,-18.4522,0.0,0.0
345,86,17.3899,19.058,186.736,211528,174128,0.00463235,0.0677956,20.8954,14.7034,-18.7843,0.0,0.0
350,87.25,17.1988,18.7591,183.122,211496,176413,0.00492025,0.0747612,20.888,14.6934,-17.5109,0.0,1.0
355,88.5,17.3936,19.485,180.479,211470,170634.875,0.00533388,0.0912052,20.8712,14.6334,-20.7142,0.0,1.0
360,89.75,17.8459,20.2756,181.161,211464,158901,0.0060709,0.116978,20.8381,14.5933,-27.5896,0.0,1.0
365,91,18.9158,21.6357,176.723,211440,153432,0.00692669,0.146191,20.7855,14.4933,-30.9597,0.0,1.0
370,92.25,18.7444,22.8507,177.217,211395,149271,0.00799477,0.185569,20.7193,14.4832,-33.5939,0.0,1.0
375,93.5,19.9746,24.4645,174.089,211382.625,145780,0.00893079,0.227597,20.6525,14.4332,-35.8727,0.0,1.0
380,94.75,21.9067,27.6306,172.378,211383.5,134364,0.0101722,0.269389,20.6002,14.3431,-43.7458,0.0,0.0
385,96,23.1834,30.1113,171.117,211351,137001,0.0113687,0.30308,20.5511,14.243,-41.855,0.0,0.0
390,97.25,24.8822,32.8418,168.393,211312,135146,0.0124291,0.333126,20.5061,14.1529,-43.1527,0.0,0.0
395,98.5,27.2339,35.4292,168.383,211282,132839,0.0134029,0.363738,20.4635,14.0629,-44.8015,0.0,0.0
400,99.75,28.6206,38.2597,156.978,211262,132273,0.0142809,0.392463,20.4215,13.9728,-45.2045,0.0,0.0
405,101,30.1193,40.5731,166.561,211240,126460,0.015042,0.420898,20.3807,13.8627,-49.5333,0.0,0.0
410,102.25,31.2751,43.4746,158.449,211217,123944,0.0159909,0.450186,20.332,13.7225,-51.4634,0.0,0.0
415,103.5,33.0676,46.0983,155.674,211181,127203,0.0170512,0.480472,20.2783,13.5924,-48.9408,0.0,0.0
420,104.75,35.2859,48.9142,164.067,211188,123841,0.0178998,0.514871,20.2281,13.4623,-51.5303,0.0,0.0
425,106,37.3174,52.1374,165.01,211175,122800,0.0187087,0.545425,20.1823,13.3022,-52.3392,0.0,0.0
430,107.25,39.1142,54.4361,147.651,211169,122753,0.0194021,0.572785,20.1413,13.1921,-52.3736,0.0,0.0
435,108.5,40.8683,57.5095,154.64,211132,123952,0.0200045,0.596904,20.1058,13.0519,-51.4182,0.0,0.0
440,109.75,42.8726,60.2429,158.251,211113,119992,0.0205306,0.617774,20.0719,12.9118,-54.5442,0.0,0.0
445,111,44.7466,62.3285,155.269,211092,122074,0.0210936,0.634823,20.0448,12.7617,-52.8734,0.0,0.0
450,112.25,45.9672,64.3684,152.14,211064,118003,0.0216567,0.645744,20.0248,12.5915,-56.1354,0.0,0.0
455,113.5,47.1108,66.8923,146.329,211038.375,120411,0.0221194,0.652743,20.0123,12.4714,-54.1738,0.0,0.0
460,114.75,48.2865,68.0307,149.908,211083,120046,0.0224371,0.656056,20.0049,12.2912,-54.4869,0.0,0.0
465,116,49.4736,69.7238,152.563,211028,120332,0.0226515,0.656477,20.0005,12.1711,-54.2324,0.0,0.0
470,117.25,50.0173,70.9777,159.106,210983,117536,0.0227872,0.65614,19.998,12.041,-56.4812,0.0,0.0
475,118.5,51.0877,72.2524,153.778,210966,119158,0.0228949,0.65646,19.9972,11.8809,-55.1503,0.0,0.0
480,119.75,51.9019,73.2066,157.198,210956,119043,0.0229789,0.655452,19.9977,11.7608,-55.2391,0.0,0.0
485,121,52.3192,74.0227,161.663,210969.875,115796,0.0230432,0.652461,19.9982,11.6206,-57.9154,0.0,0.0
490,122.25,52.8404,74.4885,156.543,210907,115053,0.023101,0.65202,19.9981,11.4805,-58.5082,0.0,0.0
495,123.5,53.2533,75.1694,156.939,210939,114535,0.0231907,0.653699,19.9981,11.3404,-58.9579,0.0,0.0
500,124.75,54.1232,75.7252,162.237,210929.125,117755,0.0233534,0.653627,19.9981,11.1702,-56.277,0.0,0.0
505,126,54.5136,76.2829,150.988,210934,116995,0.0235372,0.65186,19.998,11.0601,-56.9039,0.0,0.0
510,127.25,54.8658,76.6143,158.416,210845.875,118129,0.0236068,0.652044,19.9976,10.89,-55.9325,0.0,0.0
515,128.5,55.0851,76.6881,158.93,210868,121713,0.0236334,0.65391,19.9969,10.7598,-53.0573,0.0,0.0
520,129.75,55.655,77.3102,149.399,210901,116514,0.0235884,0.655198,19.9967,10.6197,-57.2865,0.0,0.0
525,131,56.2855,78.0242,157.313,210894,118429,0.0235177,0.654963,19.997,10.4996,-55.7101,0.0,0.0
530,132.25,56.3396,77.7328,164.399,210868,119405,0.0234856,0.651672,19.9997,10.3395,-54.9051,0.0,0.0
535,133.5,56.7687,78.7592,156.704,210871,118302,0.023455,0.648473,20.0067,10.2193,-55.8024,0.0,0.0
540,134.75,56.7138,78.6591,153.211,210877,118330,0.0233711,0.640773,20.0179,10.0792,-55.7829,0.0,0.0
545,136,57.2277,78.6353,160.67,210860.625,120274,0.0232224,0.634093,20.027,9.9491,-54.2017,0.0,0.0
550,137.25,57.1126,78.61,151.744,210859,116383,0.0229895,0.628383,20.0377,9.84901,-57.3758,0.0,0.0
555,138.5,57.6075,78.6527,154.649,210859,118716.625,0.0227137,0.621806,20.0482,9.65883,-55.4594,0.0,0.0
560,139.75,56.8002,77.8946,158.06,210869,115252.5,0.0224476,0.614829,20.0596,9.54873,-58.3232,0.0,0.0
565,141,57.1522,77.6524,154.253,210829,118906,0.0222499,0.606214,20.071,9.42862,-55.2924,0.0,0.0
570,142.25,57.211,77.2249,164.123,210851,119978,0.0221251,0.597302,20.083,9.31852,-54.4353,0.0,0.0
575,143.5,57.2574,77.0737,148.791,210859,118784,0.0219631,0.588722,20.0945,9.1884,-55.4048,0.0,0.0
580,144.75,56.8314,76.4635,159.787,210865,121396,0.0216262,0.577852,20.1096,9.05828,-53.3075,0.0,0.0
585,146,57.0873,76.2131,167.919,210855,120364,0.0211926,0.565716,20.1314,8.95819,-54.1272,0.0,0.0
590,147.25,56.1817,75.4222,155.366,210839,118594,0.0207639,0.553539,20.1545,8.81806,-55.5501,0.0,0.0
595,148.5,56.1194,74.674,157.116,210858,126144,0.0203092,0.540492,20.1773,8.748,-49.6007,0.0,0.0
600,149.75,55.811,73.9465,158.281,210842,130035,0.0198977,0.525577,20.1936,8.66792,-46.6599,0.0,0.0
605,151,55.3513,72.9512,168.196,210864,127095,0.0195417,0.509288,20.2136,8.56783,-48.8777,0.0,0.0
610,152.25,54.5614,71.5417,157.035,210894,127793,0.0191397,0.494143,20.232,8.46774,-48.3628,0.0,0.0
615,153.5,54.2175,70.5723,163.414,210843,131759,0.0187449,0.481421,20.2543,8.35764,-45.3888,0.0,0.0
620,154.75,53.5606,69.7097,167.437,210858,126246,0.0183651,0.466145,20.2805,8.28758,-49.5222,0.0,0.0
625,156,53.2611,68.5419,161.705,210872,134628,0.0180184,0.449873,20.3089,8.17748,-43.3228,0.0,0.0
630,157.25,52.5462,67.4248,159.289,210886,130710,0.0177522,0.434102,20.3327,8.05737,-46.18,0.0,0.0
635,158.5,51.9228,66.1215,165.65,210891,122404,0.0175286,0.41833,20.3543,8.01733,-52.5209,0.0,0.0
640,159.75,51.4602,64.5878,159.071,210852,132592,0.0173063,0.40391,20.374,7.93726,-44.7844,0.0,0.0
645,161,50.8767,63.3741,171.976,210879,131965,0.0169802,0.388724,20.4007,7.84718,-45.2541,0.0,0.0
650,162.25,50.1022,62.2494,170.22,210906,134141,0.0166863,0.377035,20.423,7.7671,-43.688,0.0,0.0
655,163.5,48.8436,60.9527,165.271,210864,137050,0.0163179,0.363271,20.4427,7.71706,-41.5976,0.0,0.0
660,164.75,48.0537,59.4565,169.847,210989,140012,0.0159006,0.349968,20.4597,7.63698,-39.5905,0.0,0.0
665,166,47.5401,58.1116,170.007,210966,131542,0.0153528,0.33765,20.4783,7.57693,-45.6044,0.0,0.0
670,167.25,46.3835,57.1477,171.713,210979,136199,0.0147567,0.324395,20.4976,7.49685,-42.2513,0.0,0.0
675,168.5,46.3316,55.7425,172.094,211005,140297,0.0141785,0.312291,20.5193,7.45682,-39.4016,0.0,0.0
680,169.75,44.9372,54.1132,168.037,211022,138407,0.0135793,0.30074,20.5376,7.37674,-40.7186,0.0,0.0
685,171,43.9445,52.5659,166.311,211038.375,144695,0.0130962,0.291388,20.5519,7.3267,-36.4368,0.0,0.0
690,172.25,44.0428,51.8634,174.549,211055,147553,0.0125563,0.282641,20.5651,7.29667,-34.5558,0.0,0.0
695,173.5,43.7301,50.7982,171.277,211105,142919,0.0120357,0.274489,20.5766,7.23662,-37.6594,0.0,0.0
700,174.75,42.7504,49.2262,170.269,211120.75,146031,0.0115778,0.2671,20.5863,7.15654,-35.5871,0.0,0.0
705,176,42.4582,49.3799,171.725,211131,146848,0.0110494,0.259784,20.5972,7.1065,-35.053,0.0,0.0
710,177.25,41.0095,47.5641,170.417,211214,147495,0.0105095,0.253808,20.6075,7.06646,-34.6664,0.0,0.0
715,178.5,41.6397,47.5001,166.853,211228,148718,0.0100371,0.247875,20.6179,7.00641,-33.8762,0.0,0.0
720,179.75,40.1617,46.0464,175.176,211291,154393,0.00944679,0.242613,20.6272,6.95636,-30.2888,0.0,0.0
725,181,40.1446,45.435,172.091,211309,154244,0.00891368,0.238614,20.6362,6.92633,-30.3903,0.0,0.0
730,182.25,39.9373,45.3329,168.706,211325,153495,0.00848091,0.233398,20.645,6.89631,-30.8676,0.0,0.0
735,183.5,39.1059,44.3519,172.199,211302,154435,0.00816569,0.227947,20.6536,6.85627,-30.2678,0.0,0.0
740,184.75,38.7787,43.5812,179.194,211436,156371,0.00796445,0.2237,20.6608,6.82624,-29.1262,0.0,0.0
745,186,38.4698,42.7756,175.076,211435,158899,0.00784138,0.220563,20.6663,6.78621,-27.5773,0.0,0.0
750,187.25,37.5234,41.7222,173.885,211507,159207,0.00776457,0.217623,20.6718,6.73616,-27.4236,0.0,0.0
755,188.5,37.9929,42.5086,175.19,211529,161735,0.00773311,0.214338,20.6779,6.70613,-25.9128,0.0,0.0
760,189.75,37.0364,41.453,168.084,211573,160416,0.00773234,0.211462,20.6831,6.66609,-26.7234,0.0,0.0
765,191,37.539,40.826,172.515,211612,163079,0.00770854,0.209324,20.6886,6.65609,-25.1513,0.0,0.0
770,192.25,37.2394,40.8817,185.133,211638,163830,0.00762998,0.207487,20.6926,6.61605,-24.7195,0.0,0.0
775,193.5,36.3534,39.7243,176.219,211677,161454,0.00743208,0.205794,20.6949,6.566,-26.1481,0.0,0.0
780,194.75,35.8589,40.1077,170.807,211699.125,163675,0.00719203,0.204599,20.6971,6.52597,-24.8391,0.0,0.0
785,196,35.8742,38.9046,173.96,211753,165525,0.00700451,0.203653,20.6999,6.51596,-23.7785,0.0,0.0
790,197.25,35.2391,38.7445,178.136,211774,166716,0.00689657,0.202539,20.702,6.46591,-23.0959,0.0,0.0
795,198.5,35.4678,38.643,174.428,211813,166625,0.00681693,0.201479,20.7035,6.42588,-23.1663,0.0,0.0
800,199.75,35.4066,38.5396,175.154,211893,167440,0.00672083,0.200645,20.7045,6.37583,-22.7322,0.0,0.0
805,201,35.8572,39.0203,175.218,211886,166364,0.00662076,0.199873,20.7051,6.37583,-23.3507,0.0,0.0
810,202.25,34.6271,37.8672,176.114,211933.25,167003,0.00655675,0.198918,20.7061,6.31577,-23.0026,0.0,0.0
815,203.5,34.7066,37.8207,173.633,211936,167765,0.00652878,0.197766,20.7082,6.29576,-22.5642,0.0,0.0
820,204.75,34.8233,38.0644,173.735,212016,169511,0.00652275,0.196078,20.7108,6.28575,-21.601,0.0,0.0
825,206,34.6254,37.6581,172.088,212036,167936,0.00653206,0.194813,20.7131,6.24571,-22.5118,0.0,0.0
830,207.25,35.4028,38.2744,174.284,212038,168934,0.00653989,0.194059,20.7145,6.21568,-21.9405,0.0,0.0
835,208.5,35.5011,38.2742,174.679,212069,168231,0.00651945,0.193303,20.7154,6.17565,-22.3569,0.0,0.0
840,209.75,34.5777,37.1853,172.727,212151.75,171472,0.00647259,0.192639,20.7159,6.15563,-20.5522,0.0,0.0
845,211,34.7519,38.0199,173.119,212162,170229,0.00642053,0.191306,20.7185,6.1256,-21.2596,0.0,0.0
850,212.25,34.2265,37.6336,176.373,212213,170483,0.00639014,0.189574,20.722,6.08556,-21.1387,0.0,0.0
855,213.5,33.8435,36.6149,178.497,212229,169183,0.00636927,0.187502,20.7247,6.08556,-21.8847,0.0,0.0
860,214.75,34.2189,36.9519,172.303,212291,170333,0.00634356,0.185889,20.7271,6.05554,-21.2591,0.0,0.0
865,216,33.6969,36.7124,175.657,212275,170341,0.00631679,0.184895,20.729,6.03552,-21.2475,0.0,0.0
870,217.25,33.6428,36.2351,176.865,212314,171207,0.00629214,0.184156,20.7309,5.99548,-20.7754,0.0,0.0
875,218.5,34.0385,36.0276,169.847,212349,170802,0.0062575,0.18334,20.732,5.96545,-21.0203,0.0,0.0
880,219.75,33.3086,35.8205,174.713,212370,170719,0.00620617,0.182589,20.7334,5.93543,-21.0765,0.0,0.0
885,221,33.6494,36.4928,177.369,212377,170975,0.0061479,0.182136,20.7344,5.91541,-20.9349,0.0,0.0
890,222.25,33.6803,36.458,178.774,212445,170513,0.00609346,0.181529,20.7357,5.88538,-21.227,0.0,0.0
895,223.5,33.4078,35.7576,176.571,212464,172182,0.00605148,0.180553,20.7373,5.87537,-20.2956,0.0,0.0
900,224.75,33.461,36.2214,170.437,212496.875,172084,0.0060429,0.179978,20.7382,5.85535,-20.3656,0.0,0.0
905,226,33.0523,35.4269,176.286,212537.625,172081,0.00608211,0.179536,20.7393,5.80531,-20.3856,0.0,0.0
910,227.25,32.4547,35.2804,172.978,212540,173632,0.00616091,0.178705,20.7411,5.80531,-19.5204,0.0,0.0
915,228.5,32.6479,35.5673,173.227,212562,172880,0.00619345,0.177716,20.7424,5.77528,-19.9493,0.0,0.0
920,229.75,32.5668,35.8223,176.174,212584,173180,0.00614892,0.177009,20.7439,5.73524,-19.7919,0.0,0.0
925,231,32.695,35.4709,173.439,212602,173966,0.00600985,0.176191,20.7451,5.70522,-19.3627,0.0,0.0
930,232.25,32.7053,35.1811,177.089,212646.875,173391,0.00587157,0.175217,20.747,5.69521,-19.7027,0.0,0.0
935,233.5,32.5752,35.0288,175.55,212661.625,173223,0.00578332,0.174137,20.7487,5.65517,-19.8035,0.0,0.0
940,234.75,32.5034,34.8402,174.071,212669,174974,0.0057761,0.173206,20.7496,5.61513,-18.8356,0.0,0.0
945,236,31.8298,34.5703,176.114,212727,174043,0.00582767,0.172522,20.7504,5.62514,-19.377,0.0,0.0
950,237.25,32.4638,34.6812,173.422,212710,174400,0.00590765,0.171841,20.7514,5.59512,-19.1717,0.0,0.0
955,238.5,32.1847,34.3154,177.739,212738,174443,0.00594886,0.171187,20.7519,5.5751,-19.1602,0.0,0.0
960,239.75,32.2812,34.7415,176.746,212792,174540,0.00595988,0.170127,20.7537,5.53506,-19.1313,0.0,0.0
965,241,32.312,34.462,177.313,212794,175527,0.00596639,0.168466,20.756,5.53506,-18.5879,0.0,0.0
970,242.25,32.0024,34.3464,179.912,212815,176080,0.00603434,0.166892,20.7582,5.51504,-18.2936,0.0,0.0
975,243.5,31.892,33.9782,177.395,212828,176257,0.00615528,0.165879,20.7605,5.50503,-18.2025,0.0,0.0
980,244.75,31.4464,34.0481,175.037,212840.25,175276,0.00625946,0.165234,20.7619,5.465,-18.7468,0.0,0.0
985,246,31.4245,33.6992,175.919,212852,175107,0.00635156,0.164548,20.7635,5.42496,-18.845,0.0,0.0
990,247.25,31.396,33.7308,183.954,212891,175741,0.00634454,0.164143,20.7646,5.42496,-18.5142,0.0,0.0
995,248.5,31.6494,33.5112,177.799,212876,175474.125,0.0063131,0.163721,20.7665,5.39493,-18.6539,0.0,0.0
1000,249.75,31.151,33.2973,175.789,212903,176309,0.00626711,0.162812,20.7683,5.36491,-18.2079,0.0,0.0
1005,251,30.9384,33.1721,174.626,212913,175982,0.00621198,0.161962,20.7704,5.34489,-18.3919,0.0,0.0
1010,252.25,30.7699,32.7262,177.446,212932,175980,0.00615491,0.161385,20.7718,5.3549,-18.4015,0.0,0.0
1015,253.5,30.5621,32.5821,177.836,212930,177066,0.00611046,0.160565,20.7731,5.30485,-17.8062,0.0,0.0
1020,254.75,31.5322,33.7425,179.16,212946,176924,0.00608793,0.159392,20.7744,5.28483,-17.8915,0.0,0.0
1025,256,30.9912,33.093,170.274,212971,176919,0.00609021,0.158196,20.7753,5.27482,-17.9053,0.0,0.0
1030,257.25,31.1629,33.5557,171.356,212973,176935,0.00610539,0.157549,20.7766,5.2548,-17.8977,0.0,0.0
1035,258.5,30.0993,32.3123,179.264,212971,177683,0.00612351,0.157299,20.7772,5.21477,-17.4894,0.0,0.0
1040,259.75,30.4984,32.984,176.16,212995,177260,0.00613282,0.156998,20.7774,5.22478,-17.7303,0.0,0.0
1045,261,31.4803,32.0983,177.728,212973,177768,0.00615419,0.156494,20.7781,5.20476,-17.4438,0.0,0.0
1050,262.25,31.0935,32.9789,179.468,212991.125,177434,0.00620047,0.155945,20.7797,5.15471,-17.6338,0.0,0.0
1055,263.5,31.0636,32.8107,179.613,212982,177661,0.00621847,0.155432,20.7807,5.1347,-17.5064,0.0,0.0
1060,264.75,29.8478,31.7291,175.575,213005,178213,0.00620029,0.154922,20.7813,5.1347,-17.217,0.0,0.0
1065,266,30.1851,32.2987,177.829,213002,178381,0.0061794,0.154561,20.7819,5.09466,-17.1249,0.0,0.0
1070,267.25,30.2351,32.4959,175.567,212989,178022,0.00616518,0.154274,20.783,5.06463,-17.3138,0.0,0.0
1075,268.5,30.0152,32.2916,175.44,212988,178211.625,0.00615976,0.153686,20.7836,5.04461,-17.2101,0.0,0.0
1080,269.75,30.0703,32.2595,178.304,212997,177855,0.00620885,0.153084,20.7836,5.04461,-17.408,0.0,0.0
1085,271,29.8325,31.3426,174.841,212983,178170.75,0.00628508,0.152777,20.7835,5.05462,-17.2303,0.0,0.0
1090,272.25,29.8657,31.9531,176.18,212949,178393,0.00640083,0.152366,20.7846,5.01459,-17.094,0.0,0.0
1095,273.5,29.8586,31.755,178.956,212978,178126.25,0.00649704,0.15152,20.7859,5.00458,-17.252,0.0,0.0
1100,274.75,29.7065,31.6738,184.884,212991.125,178303,0.0065159,0.150709,20.7867,4.95453,-17.162,0.0,0.0
1105,276,29.5888,31.391,177.757,212961,178324.25,0.00646709,0.150722,20.7872,4.94452,-17.1369,0.0,0.0
1110,277.25,29.9074,31.3976,177.065,212954,178377,0.00638826,0.150466,20.7879,4.93451,-17.1053,0.0,0.0
1115,278.5,29.4388,31.539,182.498,212963.375,179242,0.0063101,0.149517,20.7888,4.90448,-16.6427,0.0,0.0
1120,279.75,29.6331,31.5588,180.304,212951,178506,0.00625644,0.148411,20.7898,4.88447,-17.0343,0.0,0.0
1125,281,29.5091,31.0556,171.023,212930,178801,0.006243,0.147654,20.791,4.90448,-16.865,0.0,0.0
1130,282.25,29.0808,31.3998,178.178,212899,178848,0.00625374,0.147197,20.7923,4.87446,-16.8257,0.0,0.0
1135,283.5,28.9224,31.3666,182.562,212932,179202,0.00627592,0.14645,20.7933,4.85444,-16.6501,0.0,0.0
1140,284.75,29.2465,30.7663,176.946,212951,179079,0.0063046,0.145649,20.7941,4.83442,-16.7248,0.0,0.0
1145,286,29.419,31.4339,175.482,212908.75,179049,0.00630625,0.145424,20.7951,4.80439,-16.7217,0.0,0.0
1150,287.25,29.0115,31.2647,181.013,212893,179627,0.00626003,0.145424,20.7959,4.80439,-16.4037,0.0,0.0
1155,288.5,28.9946,31.4058,179.31,212924,179781,0.00617622,0.145041,20.7968,4.78437,-16.3349,0.0,0.0
1160,289.75,28.9797,31.0749,175.863,212879,179805,0.00608324,0.144491,20.7979,4.76436,-16.3017,0.0,0.0
1165,291,29.0688,30.6237,177.24,212860,180005,0.00598415,0.14346,20.7986,4.75435,-16.1859,0.0,0.0
1170,292.25,28.9586,31.0465,177.252,212866,179518,0.00593131,0.142367,20.7996,4.74434,-16.4501,0.0,0.0
1175,293.5,28.814,30.7427,180.445,212867.125,178960,0.00588792,0.141539,20.8019,4.73433,-16.7508,0.0,0.0
1180,294.75,28.9034,30.4842,174.318,212869,179487.75,0.00590791,0.140861,20.8033,4.69429,-16.4674,0.0,0.0
1185,296,28.9734,30.3086,178.685,212853.25,179617,0.00597887,0.139685,20.8047,4.66426,-16.3909,0.0,0.0
1190,297.25,28.5649,30.4173,177.694,212878,179985,0.00607172,0.13856,20.8059,4.64425,-16.2044,0.0,0.0
1195,298.5,28.3845,30.0351,179.602,212852,179720,0.00612534,0.137994,20.8066,4.65426,-16.3345,0.0,0.0
1200,299.75,28.195,29.8143,180.437,212850,179506,0.00612322,0.138095,20.807,4.64425,-16.4489,0.0,0.0
1205,301,28.1727,29.8868,176.608,212835,179671,0.00608803,0.138213,20.8075,4.62423,-16.3534,0.0,0.0
1210,302.25,28.4711,29.7283,180.86,212827,179728,0.00606373,0.138082,20.8079,4.61422,-16.3196,0.0,0.0
1215,303.5,28.0198,29.5173,178.159,212834,180229,0.00606855,0.138017,20.8081,4.5942,-16.0538,0.0,0.0
1220,304.75,28.3429,29.6441,180.384,212821,179868,0.00608418,0.137682,20.8082,4.58419,-16.2413,0.0,0.0
1225,306,27.9419,29.9157,177.336,212820,179771.125,0.00608777,0.137157,20.8095,4.57418,-16.293,0.0,0.0
1230,307.25,27.538,29.3029,181.999,212815,179721,0.00606628,0.136204,20.8114,4.55416,-16.3175,0.0,0.0
1235,308.5,27.9434,29.6567,176.735,212811,179886,0.00605075,0.13523,20.813,4.53415,-16.2273,0.0,0.0
1240,309.75,27.9155,29.6484,178.059,212770.875,179523,0.00609796,0.134279,20.8139,4.51413,-16.4039,0.0,0.0
1245,311,27.5732,29.2582,180.574,212793,179581,0.00620639,0.133591,20.8145,4.50412,-16.3824,0.0,0.0
1250,312.25,27.4457,29.161,180.454,212765,180344,0.0062961,0.13321,20.8148,4.49411,-15.9606,0.0,0.0
1255,313.5,27.5752,29.1984,180.711,212740,180004,0.00632284,0.133035,20.815,4.47409,-16.1317,0.0,0.0
1260,314.75,27.3023,29.0797,178.186,212729.25,179908,0.00631973,0.132432,20.8152,4.47409,-16.1781,0.0,0.0
1265,316,27.081,29.1633,180.78,212724,180169,0.00628291,0.131505,20.8157,4.46408,-16.036,0.0,0.0
1270,317.25,27.207,29.2047,175.569,212719,180063,0.00622713,0.131108,20.8162,4.43405,-16.0906,0.0,0.0
1275,318.5,27.2681,28.7591,186.352,212708,180064,0.00618214,0.130597,20.8164,4.40403,-16.0845,0.0,0.0
1280,319.75,27.2217,29.117,177.775,212667,180149,0.00613669,0.130039,20.8166,4.39402,-16.0207,0.0,0.0
1285,321,27.1376,28.4781,178.142,212728,180623,0.00606912,0.129918,20.8166,4.39402,-15.7945,0.0,0.0
1290,322.25,27.4058,28.0354,175.943,212663,179866,0.00599715,0.130082,20.8167,4.374,-16.1711,0.0,0.0
1295,323.5,27.3066,28.8475,182.594,212643,180304,0.00594793,0.129844,20.8172,4.374,-15.9269,0.0,0.0
1300,324.75,27.1222,28.3042,177.852,212639,180534,0.00594635,0.129145,20.8179,4.35398,-15.8019,0.0,0.0
1305,326,27.073,28.8209,177.752,212617,180411,0.00598702,0.128677,20.8184,4.34397,-15.8578,0.0,0.0
1310,327.25,27.0372,28.4623,182.057,212604,180186,0.00605544,0.12837,20.8187,4.32395,-15.9724,0.0,0.0
1315,328.5,27.1396,28.5073,183.117,212577,180225.25,0.00612708,0.127922,20.8196,4.30394,-15.9389,0.0,0.0
1320,329.75,26.954,28.3687,179.352,212589,179940,0.00617087,0.127639,20.8203,4.30394,-16.0973,0.0,0.0
1325,331,26.9727,28.4552,181.951,212549,180286,0.0061863,0.127575,20.8217,4.28392,-15.8937,0.0,0.0
1330,332.25,26.4703,28.0816,180.651,212563,179879,0.00619183,0.127367,20.8225,4.2639,-16.1181,0.0,0.0
1335,333.5,26.6021,28.3613,180.316,212536,180621.25,0.00621298,0.126781,20.823,4.25389,-15.7085,0.0,0.0
1340,334.75,26.6426,27.8839,181.858,212525,179886,0.00626904,0.125998,20.8235,4.23387,-16.0978,0.0,0.0
1345,336,26.439,27.4859,180.602,212496,179967,0.00631117,0.125588,20.8245,4.22386,-16.0405,0.0,0.0
1350,337.25,26.7438,28.4379,175.221,212493,180303,0.00629062,0.125132,20.8256,4.20384,-15.8592,0.0,0.0
1355,338.5,26.3967,28.4337,178.754,212454.375,180299,0.00623817,0.124334,20.8265,4.20384,-15.8439,0.0,0.0
1360,339.75,25.7114,27.567,175.688,212460,180178,0.00615534,0.123631,20.8272,4.18383,-15.911,0.0,0.0
1365,341,26.3965,27.3272,180.457,212453,180560,0.00606856,0.123211,20.8279,4.16381,-15.7032,0.0,0.0
1370,342.25,25.693,27.5109,183.975,212433,180665,0.00604442,0.12273,20.829,4.17382,-15.6383,0.0,0.0
1375,343.5,26.4402,28.0124,180.238,212405,180647,0.0060948,0.122188,20.8296,4.16381,-15.6354,0.0,0.0
1380,344.75,25.7906,27.2943,174.673,212368,179985,0.00620496,0.121379,20.8308,4.14379,-15.9729,0.0,0.0
1385,346,26.2079,27.2113,182.946,212356,180262,0.00632239,0.120456,20.8317,4.11376,-15.8189,0.0,0.0
1390,347.25,25.8435,27.4951,183.572,212326,179788.375,0.00638339,0.119855,20.8322,4.09374,-16.0593,0.0,0.0
1395,348.5,25.3567,27.092,180.18,212327,180104,0.00639222,0.119714,20.8325,4.12377,-15.8906,0.0,0.0
1400,349.75,26.2415,27.8532,181.187,212303,180077,0.00641439,0.119481,20.8326,4.10375,-15.8937,0.0,0.0
1405,351,25.6112,26.535,175.273,212323,180325,0.00642849,0.119284,20.8327,4.08373,-15.7703,0.0,0.0
1410,352.25,26.2361,27.3994,182.289,212289,180145,0.00641517,0.119266,20.8328,4.0437,-15.8509,0.0,0.0
1415,353.5,26.223,27.69,180.948,212279,180199,0.00638061,0.118932,20.8328,4.08373,-15.8178,0.0,0.0
1420,354.75,25.886,26.5104,181.754,212266,179906,0.00635605,0.118612,20.8331,4.0437,-15.9692,0.0,0.0
1425,356,26.2219,27.6208,183.017,212229,179985,0.00635094,0.118531,20.8339,4.05371,-15.9099,0.0,0.0
1430,357.25,25.8798,26.6976,178.418,212268,179941,0.00638234,0.118224,20.8344,4.05371,-15.951,0.0,0.0
1435,358.5,26.3798,27.7107,181.119,212229,179794,0.00643269,0.117722,20.8347,4.03369,-16.0122,0.0,0.0
1440,359.75,25.7203,26.9538,180.264,212244,179761.125,0.00649024,0.117412,20.8349,3.98364,-16.0365,0.0,0.0
1445,361,26.06,26.7796,181.322,212226,180254,0.00657152,0.117283,20.8355,4.00366,-15.7641,0.0,0.0
1450,362.25,25.9698,26.5988,181.995,212221.125,180468,0.00665052,0.117271,20.8363,3.99365,-15.6474,0.0,0.0
1455,363.5,25.8326,26.5431,176.838,212240,180211,0.00674405,0.116907,20.8368,3.98364,-15.7937,0.0,0.0
1460,364.75,25.2422,27.3191,186.526,212258,179872,0.00679557,0.116219,20.8371,3.98364,-15.9837,0.0,0.0
1465,366,25.1147,26.8778,184.791,212342,179781,0.00680002,0.115808,20.8372,3.96362,-16.0703,0.0,0.0
1470,367.25,25.2328,26.6556,180.575,212368,179792,0.0067795,0.116061,20.8373,3.96362,-16.0763,0.0,0.0
1475,368.5,25.467,26.8217,179.331,212399.75,180225.25,0.00673377,0.116157,20.8372,3.95361,-15.8585,0.0,0.0
1480,369.75,25.1331,26.3249,177.985,212431,180097,0.00673042,0.116054,20.8364,3.95361,-15.9413,0.0,0.0
1485,371,24.6075,26.252,183.08,212395,180117,0.00678366,0.116282,20.8359,3.95361,-15.9144,0.0,0.0
1490,372.25,25.568,26.0717,180.135,212425,180365.125,0.00686153,0.116819,20.8356,3.9336,-15.795,0.0,0.0
1495,373.5,25.191,25.843,175.948,212427.5,180092,0.006918,0.116663,20.8361,3.90357,-15.9427,0.0,0.0
1500,374.75,24.5043,26.3273,179.803,212463,179899,0.0069225,0.116269,20.8366,3.91358,-16.0621,0.0,0.0
1505,376,24.8282,25.6725,182.431,212480,180413,0.00687401,0.115993,20.837,3.89356,-15.7941,0.0,0.0
1510,377.25,24.4296,25.7991,179.579,212514,180188,0.00680259,0.115293,20.8381,3.92359,-15.9305,0.0,0.0
1515,378.5,24.8335,26.2311,177.341,212553,179824,0.00672066,0.114451,20.8388,3.92359,-16.1435,0.0,0.0
1520,379.75,24.9333,26.089,184.961,212542,180200,0.00663238,0.114073,20.8392,3.85352,-15.9367,0.0,0.0
1525,381,24.7639,25.7216,181.848,212575,180352,0.00655816,0.114281,20.8394,3.87354,-15.87,0.0,0.0
1530,382.25,24.5958,25.6944,184.872,212572,179968,0.00651367,0.114434,20.8396,3.84351,-16.0747,0.0,0.0
1535,383.5,24.826,25.9138,176.311,212542,180202,0.00649633,0.114448,20.8397,3.86353,-15.9358,0.0,0.0
1540,384.75,24.5382,26.0605,182.783,212525,180431,0.00650196,0.114604,20.84,3.8335,-15.8049,0.0,0.0
1545,386,24.7319,25.8925,178.345,212554,180495,0.00651225,0.114786,20.8404,3.81349,-15.7842,0.0,0.0
1550,387.25,24.6119,26.025,180.834,212549,180193,0.00655212,0.114751,20.8407,3.8235,-15.9438,0.0,0.0
1555,388.5,24.8453,26.1676,179.518,212535,180266.125,0.0065967,0.114174,20.8415,3.79347,-15.8981,0.0,0.0
1560,389.75,24.4855,25.7793,182.216,212512,180013,0.00664081,0.11378,20.8423,3.78346,-16.0236,0.0,0.0
1565,391,24.3314,25.5693,183.354,212521,179879,0.0066752,0.113171,20.8427,3.78346,-16.0992,0.0,0.0
1570,392.25,23.6808,25.9986,184.579,212470,179641,0.00669446,0.112106,20.843,3.74342,-16.2038,0.0,0.0
1575,393.5,24.6361,26.0252,184.272,212445,179208,0.00669133,0.110738,20.845,3.67336,-16.4255,0.0,0.0
1580,394.75,24.4996,25.668,180.057,212392,179522.25,0.0066851,0.109755,20.8463,3.73341,-16.2323,0.0,0.0
1585,396,24.0827,25.2136,178.424,212383,179002,0.00669207,0.109051,20.8483,3.70339,-16.5086,0.0,0.0
1590,397.25,24.5255,25.3792,181.096,212330,179010,0.00672287,0.108368,20.8495,3.67336,-16.4798,0.0,0.0
1595,398.5,24.4122,25.3114,181.735,212243,179425,0.0067957,0.108116,20.8502,3.69338,-16.2167,0.0,0.0
1600,399.75,24.5076,25.732,183.001,212199,178962,0.00687255,0.108145,20.8506,3.7234,-16.4466,0.0,0.0
1605,401,23.9724,25.4061,180.07,212196,179314,0.00691893,0.10814,20.8508,3.69338,-16.2551,0.0,0.0
1610,402.25,23.784,25.2315,181.438,212185,179451,0.00692463,0.108138,20.851,3.7234,-16.1761,0.0,0.0
1615,403.5,24.2368,25.0453,181.937,212178,179490,0.00688576,0.108314,20.851,3.68337,-16.1525,0.0,0.0
1620,404.75,24.0027,25.3758,183.592,212200,178885,0.00681645,0.108469,20.8503,3.66335,-16.4886,0.0,0.0
1625,406,23.8642,25.0545,183.866,212207.25,179306,0.00674569,0.108658,20.8497,3.62331,-16.2646,0.0,0.0
1630,407.25,23.4257,25.0054,183.456,212215,178987,0.00670377,0.108781,20.85,3.64333,-16.44,0.0,0.0
1635,408.5,24.2501,24.9239,186.005,212223,180019,0.00670858,0.108656,20.8497,3.6133,-15.8886,0.0,0.0
1640,409.75,23.7254,24.4283,185.149,212220,179105,0.00674856,0.108119,20.8494,3.63332,-16.3787,0.0,0.0
1645,411,23.323,24.8816,184.743,212235,179325,0.00682415,0.107594,20.8493,3.63332,-16.267,0.0,0.0
1650,412.25,24.1443,24.5259,181.3,212251,179475,0.00690585,0.107057,20.8499,3.65334,-16.1938,0.0,0.0
1655,413.5,23.7096,24.0672,182.303,212261,179101,0.00697539,0.106659,20.8499,3.65334,-16.3996,0.0,0.0
1660,414.75,23.7226,24.9265,184.585,212269,179897.375,0.00700006,0.106847,20.8505,3.60329,-15.9748,0.0,0.0
1665,416,23.424,24.3557,176.722,212285,179797,0.00696423,0.107345,20.8507,3.58328,-16.0364,0.0,0.0
1670,417.25,23.9709,25.0294,184.23,212300,179441,0.00688778,0.107392,20.8506,3.57327,-16.234,0.0,0.0
1675,418.5,23.1508,24.9246,179.924,212310,179517,0.00677232,0.106767,20.8505,3.52322,-16.1978,0.0,0.0
1680,419.75,23.2713,24.4593,184.522,212336,179446.875,0.00667454,0.106279,20.8511,3.46317,-16.2476,0.0,0.0
1685,421,22.8022,24.3751,180.612,212376,179575,0.00662794,0.106073,20.8518,3.5032,-16.1969,0.0,0.0
1690,422.25,23.675,24.2431,177.585,212354,179549,0.00663664,0.105764,20.8522,3.47318,-16.2008,0.0,0.0
1695,423.5,23.3408,24.3832,190.916,212395,179648,0.00669888,0.105418,20.8524,3.51321,-16.1661,0.0,0.0
1700,424.75,23.4156,24.202,179.25,212419,179673,0.00681958,0.105677,20.8526,3.51321,-16.1634,0.0,0.0
1705,426,23.6814,24.4161,183.107,212487,179524,0.00693181,0.106364,20.8517,3.48318,-16.2746,0.0,0.0
1710,427.25,23.3647,24.5782,184.68,212483,179716,0.00703989,0.106955,20.8512,3.46317,-16.1697,0.0,0.0
1715,428.5,23.3928,23.9202,180.761,212508,179597,0.00717272,0.107109,20.8513,3.40311,-16.245,0.0,0.0
1720,429.75,23.1402,24.7308,183.307,212519,179832,0.00731173,0.10664,20.8519,3.47318,-16.1234,0.0,0.0
1725,431,23.5732,24.7866,183.661,212563,179128,0.00738733,0.105408,20.8527,3.49319,-16.5221,0.0,0.0
1730,432.25,23.1732,25.088,179.245,212580,179620,0.00739521,0.104323,20.8542,3.48318,-16.265,0.0,0.0
1735,433.5,23.0608,24.1685,183.817,212619.125,179200,0.00732899,0.103327,20.8555,3.43314,-16.509,0.0,0.0
1740,434.75,21.5727,22.8532,179.933,212656,179245,0.00722195,0.10282,20.8562,3.40311,-16.5015,0.0,0.0
1745,436,22.0623,22.8138,188.453,212653,179515,0.00710683,0.10241,20.8566,3.41312,-16.3548,0.0,0.0
1750,437.25,21.5525,22.933,179.609,212695,179795,0.0070284,0.102193,20.8571,3.41312,-16.2233,0.0,0.0
1755,438.5,21.3541,22.3802,183.278,212718,180223,0.00697751,0.102293,20.8575,3.3931,-16.004,0.0,0.0
1760,439.75,21.3476,22.4768,180.312,212740,180057,0.00695259,0.102929,20.8577,3.42313,-16.1029,0.0,0.0
1765,441,22.0133,22.3952,185.05,212746,179924,0.00695098,0.103428,20.8579,3.38309,-16.1773,0.0,0.0
1770,442.25,21.3088,22.9063,182.963,212760,179799,0.00695988,0.103551,20.858,3.36307,-16.2504,0.0,0.0
1775,443.5,21.1398,22.9934,179.023,212793,179837,0.00696303,0.103375,20.8589,3.35307,-16.2453,0.0,0.0
1780,444.75,21.0901,22.8211,182.161,212811.625,180139.875,0.00696761,0.102728,20.8595,3.36307,-16.0913,0.0,0.0
1785,446,21.4636,22.4913,183.593,212822,179873.75,0.00698005,0.10193,20.8599,3.33305,-16.2387,0.0,0.0
1790,447.25,21.6219,22.8994,179.577,212867.125,180084,0.00698367,0.10169,20.86,3.31303,-16.1466,0.0,0.0
1795,448.5,21.3947,22.6378,181.637,212918,179817,0.00694365,0.101929,20.8598,3.29301,-16.3131,0.0,0.0
1800,449.75,20.7729,22.4757,184.039,212894,179851,0.00685162,0.102112,20.8597,3.283,-16.2836,0.0,0.0
1805,451,21.2686,22.7951,176.237,212914,180005,0.0067454,0.102113,20.8596,3.29301,-16.2102,0.0,0.0
1810,452.25,21.1363,21.9749,176.363,212929,180015,0.00665625,0.10214,20.8596,3.31303,-16.2111,0.0,0.0
1815,453.5,21.4081,22.7239,181.373,212973,179969.125,0.00658953,0.10241,20.8596,3.31303,-16.256,0.0,0.0
1820,454.75,20.7611,21.9244,178.648,212966,180172,0.00659895,0.102587,20.8598,3.29301,-16.1442,0.0,0.0
1825,456,20.7736,22.5112,181.958,212928,180507,0.00668836,0.102413,20.8604,3.26298,-15.9475,0.0,0.0
1830,457.25,21.2017,22.5814,179.368,212936.5,180130,0.00678059,0.102102,20.8607,3.27299,-16.1533,0.0,0.0
1835,458.5,21.0735,22.3018,181.647,212922.625,180038,0.00683342,0.101878,20.8611,3.26298,-16.1962,0.0,0.0
1840,459.75,20.9907,22.2691,183.562,212916,180085.375,0.00684484,0.10184,20.8615,3.25297,-16.1677,0.0,0.0
1845,461,21.5207,22.7774,178.111,212873,179945,0.00680241,0.101932,20.8617,3.25297,-16.2239,0.0,0.0
1850,462.25,21.0155,22.3635,185.574,212852,180156,0.00671072,0.101967,20.8618,3.25297,-16.1006,0.0,0.0
1855,463.5,21.5428,21.8885,183.137,212822,180118,0.00665123,0.101794,20.8619,3.24297,-16.1077,0.0,0.0
1860,464.75,20.9422,22.154,183.241,212764,179852,0.00664401,0.101559,20.862,3.21294,-16.2241,0.0,0.0
1865,466,21.0724,21.8414,188.128,212720,180025,0.00668346,0.101407,20.862,3.18291,-16.1114,0.0,0.0
1870,467.25,21.021,22.5131,173.27,212720,179946,0.00678815,0.101615,20.862,3.18291,-16.1533,0.0,0.0
1875,468.5,20.8073,22.1797,186.703,212660.75,179919,0.0068874,0.10193,20.862,3.19292,-16.1412,0.0,0.0
1880,469.75,21.058,22.2073,179.161,212631,179999,0.00695463,0.102075,20.862,3.1729,-16.0849,0.0,0.0
1885,471,20.7427,22.5668,184.277,212603,179798.375,0.00696913,0.101747,20.8626,3.1729,-16.1796,0.0,0.0
1890,472.25,20.6002,21.9092,180.705,212576,179765,0.00694341,0.10115,20.8633,3.16289,-16.1855,0.0,0.0
1895,473.5,21.006,22.4087,183.31,212519,179545,0.00684485,0.10041,20.8637,3.14287,-16.2776,0.0,0.0
1900,474.75,20.8639,22.1832,180.791,212463,179563.125,0.00674054,0.0998075,20.864,3.11285,-16.2426,0.0,0.0
1905,476,20.855,21.985,181.347,212442,179541,0.0067034,0.0995617,20.8641,3.13286,-16.2449,0.0,0.0
1910,477.25,21.0427,22.2512,181.392,212384,179786,0.0067061,0.0997193,20.8642,3.15288,-16.0872,0.0,0.0
1915,478.5,20.3596,21.8023,183.391,212311,179561,0.006758,0.0997877,20.8627,3.09283,-16.1746,0.0,0.0
1920,479.75,20.835,22.1013,178.809,212302,179708,0.0068076,0.0997359,20.8618,3.09283,-16.0917,0.0,0.0
1925,481,21.1103,21.955,182.079,212251,179657,0.00685564,0.099544,20.8613,3.08282,-16.0957,0.0,0.0
1930,482.25,20.8922,22.4964,183.739,212201,179144,0.00688645,0.0992076,20.861,3.09283,-16.3489,0.0,0.0
1935,483.5,21.2704,21.8179,181.159,212188,179153,0.00688763,0.0988889,20.8608,3.08282,-16.3386,0.0,0.0
1940,484.75,20.5535,21.8732,180.21,212114,179233,0.00684724,0.0990404,20.8607,3.09283,-16.2616,0.0,0.0
1945,486,20.6398,21.9081,181.735,212094,179299,0.00676998,0.0993029,20.8606,3.0628,-16.2168,0.0,0.0
1950,487.25,20.9493,21.7486,179.148,212056.375,179302,0.00668409,0.099469,20.8606,3.03277,-16.1979,0.0,0.0
1955,488.5,20.5134,22.1652,180.414,211983,179354,0.00660242,0.0996462,20.8605,3.00275,-16.1365,0.0,0.0
1960,489.75,20.3159,21.974,179.787,211971,179250,0.00656554,0.0998938,20.8605,3.03277,-16.1872,0.0,0.0
1965,491,20.2,22.1995,185.02,211910,179351.5,0.00656794,0.100237,20.8605,3.0628,-16.1047,0.0,0.0
1970,492.25,20.6419,21.5962,182.203,211893,179165,0.00657695,0.100672,20.8605,3.04278,-16.1975,0.0,0.0
1975,493.5,19.8134,22.1045,182.491,211812,178996.375,0.0065858,0.101016,20.8605,3.01275,-16.2514,0.0,0.0
1980,494.75,20.3533,21.731,178.946,211763,179227,0.00660121,0.100739,20.8605,2.98273,-16.105,0.0,0.0
1985,496,20.9467,21.417,182.979,211711,179031,0.00662768,0.100166,20.8605,2.97272,-16.187,0.0,0.0
1990,497.25,20.7639,22.2413,177.535,211639,178597,0.00668496,0.0995751,20.8605,2.97272,-16.3886,0.0,0.0
1995,498.5,20.124,21.6809,180.06,211585,179022,0.00674886,0.0993903,20.8605,2.97272,-16.1341,0.0,0.0
2000,499.75,20.7246,21.6288,180.705,211543,178831,0.0067817,0.0996942,20.8605,2.96271,-16.2181,0.0,0.0
2005,501,20.4488,21.3714,178.861,211468,179054.5,0.00679183,0.0999411,20.8605,2.96271,-16.0631,0.0,0.0
2010,502.25,20.4925,21.7655,181.86,211430,178935,0.00677058,0.100067,20.8619,2.98273,-16.1107,0.0,0.0
2015,503.5,20.895,22.307,180.229,211369.625,179129,0.00673766,0.100194,20.8626,2.9527,-15.9782,0.0,0.0
2020,504.75,20.435,22.2826,180.964,211266,178781,0.00670006,0.100354,20.8631,2.93268,-16.1183,0.0,0.0
2025,506,20.6128,21.9175,186.951,211199,178724,0.00666147,0.100076,20.8634,2.92267,-16.1187,0.0,0.0
2030,507.25,20.453,21.9306,181.965,211158,179153.5,0.00661977,0.0998559,20.8635,2.94269,-15.8683,0.0,0.0
2035,508.5,20.5839,22.1312,183.081,211077,178813,0.00658113,0.0997708,20.8636,2.90265,-16.0147,0.0,0.0
2040,509.75,20.6915,21.9809,176.953,211005,178664,0.00656731,0.0996072,20.8637,2.90265,-16.0622,0.0,0.0
2045,511,20.4038,21.9315,183.151,210933,178490,0.00660868,0.0993334,20.8637,2.89264,-16.1235,0.0,0.0
2050,512.25,20.0553,21.6365,179.756,210851,178465,0.00668736,0.0992709,20.8637,2.88264,-16.0996,0.0,0.0
2055,513.5,20.3651,21.7548,177.882,210777.375,178418,0.00671866,0.0994892,20.8638,2.87263,-16.0913,0.0,0.0
2060,514.75,20.0321,22.3713,184.91,210676,178200,0.0066869,0.0996915,20.8638,2.87263,-16.1629,0.0,0.0
2065,516,20.2125,21.8754,178.309,210594,178550,0.00655616,0.0997597,20.8638,2.8426,-15.9354,0.0,0.0
2070,517.25,20.145,22.0338,184.481,210561,178455,0.00646889,0.0994974,20.8638,2.8426,-15.9722,0.0,0.0
2075,518.5,20.1073,21.9098,180.59,210505,178197,0.00641953,0.0989705,20.8638,2.82258,-16.0861,0.0,0.0
2080,519.75,19.6181,21.3941,190.001,210439,177702,0.00640461,0.0986452,20.8644,2.81257,-16.3244,0.0,0.0
2085,521,20.313,21.9969,184.063,210370,178398,0.00641804,0.0984703,20.8651,2.82258,-15.9153,0.0,0.0
2090,522.25,20.2138,21.6598,182.143,210331,178120,0.00646333,0.0981016,20.8655,2.78254,-16.0479,0.0,0.0
2095,523.5,20.8803,21.5934,185.26,210268,178060,0.00652991,0.0977364,20.8657,2.79255,-16.0518,0.0,0.0
2100,524.75,19.8653,21.5469,183.2,210202,177856,0.00662152,0.0976092,20.8657,2.76253,-16.1324,0.0,0.0
2105,526,19.8631,21.416,183.929,210163,177996.375,0.00670851,0.0978809,20.865,2.78254,-16.0381,0.0,0.0
2110,527.25,20.4571,21.1066,181.787,210090.625,177815,0.00674651,0.0987327,20.8642,2.79255,-16.1032,0.0,0.0
2115,528.5,19.9175,21.0803,177.775,210052,178188,0.00674789,0.0996297,20.8638,2.76253,-15.8832,0.0,0.0
2120,529.75,20.8585,21.6413,184.822,210009,178197,0.0067014,0.0998759,20.8635,2.77254,-15.8583,0.0,0.0
2125,531,20.2618,21.8201,182.066,209987,177844,0.00664612,0.099603,20.8633,2.75252,-16.04,0.0,0.0
2130,532.25,20.5024,21.5402,184.862,209952,177603,0.00663296,0.0994195,20.8633,2.77254,-16.1544,0.0,0.0
2135,533.5,20.7112,21.341,183.192,209877,178073,0.00665165,0.0992521,20.8632,2.76253,-15.8651,0.0,0.0
2140,534.75,20.0289,21.7634,182.985,209832,177448,0.00664815,0.0992123,20.8632,2.75252,-16.1838,0.0,0.0
2145,536,19.96,21.4049,183.517,209806,177718,0.00660835,0.0989973,20.8634,2.75252,-16.0252,0.0,0.0
2150,537.25,20.2428,21.8239,181.223,209771,177558,0.00652923,0.0988395,20.8642,2.72249,-16.0957,0.0,0.0
2155,538.5,20.1531,21.4203,180.083,209759,177592,0.00643617,0.0987073,20.8647,2.7325,-16.0717,0.0,0.0
2160,539.75,20.1662,21.4244,186.894,209690,177555,0.00638563,0.0985249,20.865,2.71248,-16.06,0.0,0.0
2165,541,19.9698,21.8726,178.652,209680,177582,0.00638259,0.0983893,20.8652,2.72249,-16.0404,0.0,0.0
2170,542.25,20.2209,21.8247,182.24,209659,177883.75,,0.0983778,,2.70247,-15.8671,0.0,0.0
2175,543.5,20.4504,21.6522,188.513,209641,177267,,0.0983514,,2.69246,-16.194,0.0,0.0
2180,544.75,20.427,21.7713,178.289,209621,177401,,0.0983263,,2.68245,-16.1116,0.0,0.0
2185,546,20.1898,21.5965,184.614,209626,177756,,,,2.69246,-15.9214,0.0,0.0
2190,547.25,20.1542,21.3137,176.531,209634,177505,,,,2.68245,-16.0613,0.0,0.0
2195,548.5,19.8062,21.635,182.107,209604,177576.75,,,,2.66243,-16.0087,0.0,0.0
2200,549.75,19.6865,21.6065,187.476,209593,177476,,,,2.64242,-16.0583,0.0,0.0
2205,551,20.0586,21.6066,181.966,209606,177566,,,,2.60238,-16.0154,0.0,0.0
2210,552.25,20.0064,21.7427,186.958,209603,177472,,,,2.63241,-16.0651,0.0,0.0
2212,552.75,19.5917,20.7638,182.266,209622,177472,,,,2.66243,-16.0739,0.0,0.0