File: 01_Data/Rubber_Band/Cone/Rubber_Band_Cone_HF35-Frame+GridScan_201013_R1.csv
Names,Time,Stack TC,Smoke TC,Exh Press,Smoke Comp,Smoke Meas,CO Meter,CO2 Meter,O2 Meter,Sample Mass,Ext Coeff,Start Test,Flame Verif
Chan Gain,,500,500,1,1,1,1,1,1,1,1,1.0,1.0
Offset,,0,0,0.130609,0,0,0,0,0,0,0,0.0,0.0
Gain,,1,1,25.011,28413.6,29762,1,1,1,1.00092,-11.006,1.0,1.0
Units,sec,C,C,Pa,%,%,%,%,%,g,/m,,
Baseline,,23.3199,25.5676,182.609,209514,177551,0.00511614,0.0617346,20.908,-939.148,-15.9812,,
4,0.75,22.1036,23.781,186.566,209801,177807,0.00527718,0.0683664,20.9029,24.4724,-15.9744,0.0,0.0
8,1.75,21.8616,23.6709,181.862,209825,177866,0.00527441,0.0694324,20.9023,24.4624,-15.9531,0.0,0.0
12,2.75,21.2839,23.4098,176.902,209845,177796,0.00524624,0.0700702,20.9011,24.4624,-16.0007,0.0,0.0
16,3.75,21.6289,23.9123,181.215,209853,177944,0.00520442,0.0704138,20.9002,24.4724,-15.9239,0.0,0.0
20,4.75,21.6429,24.0885,181.114,209907,177732,0.00516743,0.0705783,20.8998,24.4524,-16.0635,0.0,0.0
24,5.75,21.4059,23.3402,184.143,209904,177870.125,0.00513891,0.0707839,20.9,24.4824,-15.9874,0.0,0.0
28,6.75,21.1907,23.7601,180.773,209929,177777,0.00512011,0.0709148,20.8999,24.4724,-16.0492,0.0,0.0
32,7.75,21.5599,23.8811,185.668,209953.625,178039,0.00509619,0.0709486,20.8999,24.4524,-15.9185,0.0,0.0
36,8.75,21.6107,24.0426,182.798,209987,177911,0.0050573,0.0708928,20.8999,24.4524,-16.0035,0.0,0.0
40,9.75,21.3708,23.6089,183.476,210022.125,177950,0.00501557,0.0707773,20.8998,24.4524,-15.9982,0.0,0.0
44,10.75,21.6146,24.2513,181.078,210022.125,178022,0.0050021,0.0705643,20.8998,24.4624,-15.9593,0.0,0.0
48,11.75,21.815,23.9478,178.268,210055,178160,0.00501644,0.070269,20.9003,24.4624,-15.8996,0.0,0.0
52,12.75,21.9637,23.8426,179.569,210093,178124,0.00504904,0.069896,20.9009,24.4423,-15.9363,0.0,0.0
56,13.75,21.5449,24.0639,182.8,210129,177842,0.00507042,0.0695914,20.9013,24.4423,-16.1059,0.0,0.0
60,14.75,21.8682,23.9236,177.76,210144,177916,0.00508114,0.0692616,20.9016,24.4423,-16.0723,0.0,0.0
64,15.75,21.5052,24.0148,181.248,210162,177827,0.00508007,0.0688084,20.9026,24.4423,-16.1294,0.0,0.0
68,16.75,22.0245,23.9307,186.864,210197,177655,0.00508169,0.068147,20.9034,24.4323,-16.239,0.0,0.0
72,17.75,22.3945,24.1015,188.393,210264,177569,0.00509372,0.0673473,20.9041,24.4123,-16.3161,0.0,0.0
76,18.75,21.9387,24.1944,184.643,210237,177421,0.00511334,0.0664821,20.9045,24.4123,-16.3843,0.0,0.0
80,19.75,21.8702,24.1591,185.715,210296.125,177724,0.00514759,0.0656373,20.9045,24.4123,-16.2469,0.0,0.0
84,20.75,22.0349,24.0609,183.369,210323.875,177545,0.00520256,0.0650174,20.9045,24.4223,-16.3569,0.0,0.0
88,21.75,21.7718,24.457,181.129,210335,177346,0.00525327,0.065029,20.9046,24.4123,-16.4703,0.0,0.0
92,22.75,22.3733,23.8116,178.932,210363,177274,0.00527401,0.0658749,20.9037,24.4023,-16.5221,0.0,0.0
96,23.75,21.8152,24.423,180.648,210417,177137,0.00523929,0.0671334,20.9024,24.4123,-16.6215,0.0,0.0
100,24.75,22.2232,24.1124,180.777,210431,176975,0.00517141,0.0687022,20.9016,24.4023,-16.7165,0.0,0.0
104,25.75,21.8184,24.5356,182.467,210423,176736,0.00507828,0.0697662,20.9011,24.3923,-16.8433,0.0,0.0
108,26.75,22.1163,24.0514,183.04,210461.75,176510,0.00495439,0.0698524,20.9007,24.3723,-16.9848,0.0,0.0
112,27.75,22.1423,24.8103,179.673,210484,176277,0.00487093,0.0691753,20.9003,24.3723,-17.1224,0.0,0.0
116,28.75,21.5389,24.988,186.659,210536,175893,0.00481459,0.0682911,20.9001,24.3823,-17.3569,0.0,0.0
120,29.75,22.1467,24.5447,184.244,210550,175085.375,0.00486565,0.0676138,20.9006,24.3723,-17.8075,0.0,0.0
124,30.75,22.3075,24.2757,183.941,210613.5,175795,0.00494589,0.0673142,20.9009,24.3523,-17.4462,0.0,0.0
128,31.75,22.1553,24.5969,181.709,210575,174646,0.00500947,0.0671911,20.9013,24.3623,-18.0617,0.0,0.0
132,32.75,21.9793,24.3744,181.861,210618,174183,0.00504269,0.0666676,20.9022,24.3623,-18.3371,0.0,0.0
136,33.75,22.3375,24.3116,183.346,210651,174867,0.00506315,0.0657433,20.9027,24.3623,-17.9739,0.0,0.0
140,34.75,22.6337,24.2948,181.156,210651,174756,0.00507968,0.0648663,20.9031,24.3523,-18.0356,0.0,0.0
144,35.75,22.6079,24.4982,178.925,210694,174289,0.00516247,0.0649642,20.9027,24.3322,-18.3137,0.0,0.0
148,36.75,22.2126,24.4948,182.527,210714,174079,0.00533231,0.0685868,20.8996,24.2922,-18.4391,0.0,0.0
152,37.75,21.9558,24.6923,182.605,210763.5,176543,0.00563824,0.076281,20.89,24.2922,-17.1048,0.0,1.0
156,38.75,22.0906,24.6523,177.769,210783,172309,0.00598607,0.0900554,20.8748,24.3222,-19.4573,0.0,1.0
160,39.75,22.6361,25.6408,173.505,210800,165055,0.00663973,0.115079,20.8387,24.2922,-23.6173,0.0,1.0
164,40.75,23.6346,27.1802,179.693,210845,156257,0.00750463,0.14901,20.7964,24.2522,-28.9265,0.0,1.0
168,41.75,24.3299,28.7117,170.779,210848,150837,0.00826258,0.175802,20.7507,24.2121,-32.3362,0.0,1.0
172,42.75,24.0051,29.4903,165.655,210868,140244,0.00918005,0.218624,20.7082,24.1221,-39.3747,0.0,0.0
176,43.75,25.7608,31.9062,160.461,210914,142291,0.0103135,0.261196,20.6559,24.032,-37.9977,0.0,0.0
180,44.75,27.383,34.2619,161.057,210921,139419,0.0114053,0.29451,20.6001,23.9619,-39.9694,0.0,0.0
184,45.75,28.6775,36.663,164.126,210972,136453,0.0124429,0.329495,20.5412,23.8818,-42.0684,0.0,0.0
188,46.75,30.5118,39.4222,167.622,210970.75,133880,0.0133484,0.362592,20.4852,23.7717,-43.9056,0.0,0.0
192,47.75,31.9931,42.186,165.224,211035,128896,0.014241,0.39202,20.4342,23.7017,-47.598,0.0,0.0
196,48.75,33.7124,44.9339,157.771,211037,131238,0.0150121,0.419539,20.3878,23.5916,-45.8601,0.0,0.0
200,49.75,34.8795,47.0171,162.703,211051,129984,0.0157295,0.443919,20.3499,23.5115,-46.7936,0.0,0.0
204,50.75,36.3382,49.2185,163.847,211086,129534,0.0165253,0.466909,20.3146,23.3914,-47.1444,0.0,0.0
208,51.75,38.3632,51.4074,160.29,211107,128261,0.0173594,0.492411,20.2764,23.2813,-48.1076,0.0,0.0
212,52.75,39.5249,53.7801,159.717,211110,124934,0.018161,0.514108,20.2407,23.1912,-50.6465,0.0,0.0
216,53.75,41.1003,56.3188,163.639,211142,120758,0.0190564,0.539033,20.1991,23.1111,-53.9428,0.0,0.0
220,54.75,42.7656,58.8949,154.016,211195,119092,0.0200366,0.564116,20.1559,22.981,-55.3088,0.0,0.0
224,55.75,44.277,60.9772,157.346,211181,116787,0.0209289,0.591398,20.1062,22.8209,-57.1883,0.0,0.0
228,56.75,45.5183,63.2699,150.113,211219,112626,0.0219231,0.622594,20.058,22.6807,-60.7089,0.0,0.0
232,57.75,46.9194,66.0884,156.758,211238,115431,0.022791,0.652039,20.0165,22.5806,-58.3428,0.0,0.0
236,58.75,49.5961,68.3858,145.102,211266,114220,0.0235648,0.674669,19.9822,22.4605,-59.3734,0.0,0.0
240,59.75,50.4061,71.4279,160.306,211292,118862,0.0241921,0.691422,19.9542,22.3204,-55.5396,0.0,0.0
244,60.75,52.3406,73.6477,140.648,211320,111674,0.0247321,0.703784,19.9325,22.1703,-61.5746,0.0,0.0
248,61.75,53.1604,74.8317,151.523,211338,111949,0.0251744,0.711654,19.9167,22.0602,-61.3453,0.0,0.0
252,62.75,54.6824,76.9932,155.436,211376,111739,0.0255203,0.716345,19.9052,21.9401,-61.5435,0.0,0.0
256,63.75,56.0847,77.0672,149.139,211403,112780,0.0258323,0.720089,19.8969,21.7999,-60.661,0.0,0.0
260,64.75,56.3635,79.3254,147.511,211455,111325,0.0260896,0.72262,19.8914,21.6798,-61.9384,0.0,0.0
264,65.75,57.6468,80.6184,150.895,211442,110615,0.0263179,0.726211,19.887,21.5697,-62.55,0.0,0.0
268,66.75,57.9051,81.6469,149.933,211464,112187,0.0265612,0.730076,19.8835,21.4296,-61.1977,0.0,0.0
272,67.75,59.2349,82.8118,144.776,211468,112279.75,0.0267791,0.733413,19.8812,21.2594,-61.1196,0.0,0.0
276,68.75,60.0039,84.2483,160.355,211549,116367,0.0269817,0.733998,19.8797,21.1593,-57.7049,0.0,0.0
280,69.75,60.0006,85.0287,147.805,211536,109979,0.027131,0.73271,19.8779,21.0392,-63.1496,0.0,0.0
284,70.75,61.3149,84.7028,149.627,211545,105171,0.0272388,0.731601,19.8767,20.8891,-67.4696,0.0,0.0
288,71.75,61.958,86.2734,164.578,211600,117053,0.0273163,0.731583,19.8764,20.779,-57.161,0.0,0.0
292,72.75,62.1933,87.1116,152.132,211650,115743.875,0.0273489,0.732676,19.8773,20.6589,-58.2691,0.0,0.0
296,73.75,62.7743,87.7809,148.031,211688,103209,0.0273356,0.733776,19.8784,20.5588,-69.3528,0.0,0.0
300,74.75,63.8857,87.1598,149.622,211715,114425,0.0272347,0.731488,19.8811,20.4487,-59.4051,0.0,0.0
304,75.75,64.0798,87.6269,143.269,211718,105343,0.0270999,0.727483,19.8863,20.3086,-67.3904,0.0,0.0
308,76.75,63.5198,88.9778,150.294,211762,109724,0.0269828,0.722472,19.8925,20.1985,-63.4768,0.0,0.0
312,77.75,64.4859,89.554,149.566,211814,108337,0.0268086,0.716762,19.8997,20.0884,-64.7286,0.0,0.0
316,78.75,64.4752,89.7254,154.241,211798,115037,0.0265895,0.710217,19.9075,19.9582,-58.928,0.0,0.0
320,79.75,64.3561,89.3302,145.642,211831,111608,0.026365,0.702592,19.9181,19.8481,-61.865,0.0,0.0
324,80.75,65.3315,89.4121,151.679,211866,111952,0.0261196,0.692078,19.9307,19.738,-61.5835,0.0,0.0
328,81.75,65.1031,89.4423,148.123,211945,113547,0.0258789,0.681546,19.9482,19.6179,-60.2538,0.0,0.0
332,82.75,64.9726,89.6233,146.06,211960.125,116170,0.025601,0.671356,19.9652,19.4878,-58.056,0.0,0.0
336,83.75,65.3931,88.7864,154.902,211997,113227,0.0253689,0.662338,19.9789,19.3977,-60.5497,0.0,0.0
340,84.75,65.2433,88.3766,151.594,212054,117163,0.0251317,0.651999,19.9941,19.2776,-57.2763,0.0,0.0
344,85.75,64.4986,87.9394,150.977,212082,112371,0.0249461,0.644202,20.005,19.1475,-61.3207,0.0,0.0
348,86.75,65.304,87.1806,150.492,212108,112278,0.0248127,0.639052,20.0129,19.0474,-61.4133,0.0,0.0
352,87.75,65.0537,87.4443,150.471,212163,118827,0.0247144,0.633999,20.0207,18.9774,-55.9654,0.0,0.0
356,88.75,64.5922,87.6894,160.521,212184,118587,0.0246444,0.629103,20.0273,18.8773,-56.1698,0.0,0.0
360,89.75,65.1781,87.1738,155.957,212232,122733,0.0245234,0.624,20.0356,18.7271,-52.8741,0.0,0.0
364,90.75,64.7963,86.9993,150.636,212258,115103,0.0244083,0.619032,20.0437,18.6571,-59.0824,0.0,0.0
368,91.75,64.4143,86.5238,158.488,212297,117476,0.0242745,0.614867,20.0503,18.547,-57.1301,0.0,0.0
372,92.75,64.4983,85.6023,156.371,212297,120791,0.0241409,0.608913,20.0588,18.4369,-54.443,0.0,0.0
376,93.75,64.3488,84.9894,153.002,212303,118774.75,0.0239771,0.602767,20.0686,18.3468,-56.071,0.0,0.0
380,94.75,64.4787,85.0014,145.266,212368,114675,0.0237749,0.596266,20.0795,18.2267,-59.4919,0.0,0.0
384,95.75,64.2877,84.2168,156.207,212393,118357,0.0235587,0.589288,20.0916,18.1566,-56.4521,0.0,0.0
388,96.75,63.9561,83.9999,156.404,212413.625,123828,0.0233243,0.580109,20.1067,18.0365,-52.0987,0.0,0.0
392,97.75,63.5305,83.4431,161.692,212429,121428,0.0231009,0.570721,20.1212,17.9164,-53.9958,0.0,0.0
396,98.75,63.4543,83.1576,149.148,212432,122684,0.0229323,0.562936,20.13,17.8663,-53.0034,0.0,0.0
400,99.75,63.4046,82.6137,158.592,212480,123003,0.0227129,0.554476,20.142,17.7362,-52.7749,0.0,0.0
404,100.75,63.566,81.3227,162.492,212502,131453,0.0224728,0.542313,20.157,17.6762,-46.3699,0.0,0.0
408,101.75,62.5843,81.15,158.451,212529,126922,0.0221992,0.53441,20.1729,17.5761,-49.7688,0.0,0.0
412,102.75,62.2453,80.4335,157.55,212505,118553,0.0219016,0.523552,20.1928,17.506,-56.3431,0.0,0.0
416,103.75,61.9577,79.7141,158.576,212630,129662.125,0.0215596,0.510739,20.2148,17.4259,-47.7527,0.0,0.0
420,104.75,61.6482,79.215,160.931,212545,129256,0.0213369,0.497651,20.2307,17.3759,-48.0169,0.0,0.0
424,105.75,61.1191,77.7021,156.714,212564.5,128236,0.020959,0.483708,20.2503,17.2658,-48.7904,0.0,0.0
428,106.75,60.5822,77.0177,160.272,212571,127385,0.0205991,0.470247,20.2708,17.1857,-49.4364,0.0,0.0
432,107.75,59.9866,75.8335,169.598,212584,128912,0.0202495,0.458256,20.2922,17.1257,-48.2921,0.0,0.0
436,108.75,59.5085,75.1066,157.258,212604,126699,0.019847,0.443331,20.314,16.9955,-49.9721,0.0,0.0
440,109.75,58.8005,74.0292,165.386,212592.25,130883,0.0193809,0.428998,20.3356,16.9455,-46.8307,0.0,0.0
444,110.75,58.3632,72.6318,163.568,212609,130033,0.0188989,0.414867,20.3554,16.8554,-47.4673,0.0,0.0
448,111.75,58.1748,71.8524,162.281,212597,129625,0.0184755,0.401914,20.3718,16.8154,-47.7651,0.0,0.0
452,112.75,57.0035,69.914,165.477,212617,127815,0.0180828,0.391723,20.3855,16.7453,-49.1318,0.0,0.0
456,113.75,56.1593,69.1301,160.336,212635,128483,0.0175058,0.383001,20.3974,16.7553,-48.6365,0.0,0.0
460,114.75,55.7627,68.2224,160.118,212614,133144,0.0170013,0.37673,20.4116,16.6853,-45.1866,0.0,0.0
464,115.75,55.0659,67.531,163.71,212637,137813,0.0165703,0.36533,20.4281,16.6152,-41.8701,0.0,0.0
468,116.75,54.5657,66.3954,165.661,212586,128669,0.0161997,0.353311,20.4507,16.5251,-48.4746,0.0,0.0
472,117.75,54.2823,65.3752,167.567,212532,136243,0.0158696,0.34287,20.4696,16.445,-42.9278,0.0,0.0
476,118.75,53.6275,64.2421,165.032,212599,132811,0.0155398,0.333243,20.4859,16.415,-45.4219,0.0,0.0
480,119.75,53.0429,63.549,163.887,212622,137672.125,0.0153038,0.324386,20.5003,16.405,-41.9617,0.0,0.0
484,120.75,52.525,62.7449,173.738,212578,139769,0.0149976,0.315872,20.5126,16.3449,-40.482,0.0,0.0
488,121.75,51.7366,61.9257,163.867,212587,135882,0.014713,0.308355,20.5232,16.3149,-43.2095,0.0,0.0
492,122.75,51.7671,60.9308,166.167,212572,138002,0.0143277,0.301616,20.5333,16.2749,-41.7083,0.0,0.0
496,123.75,51.0654,60.3097,168.267,212571,142045,0.0140884,0.295463,20.5438,16.2148,-38.9193,0.0,0.0
500,124.75,50.7604,59.3068,167.384,212553,140244,0.0137071,0.289082,20.5567,16.1648,-40.1434,0.0,0.0
504,125.75,49.9545,58.4115,164.284,212513,142675,0.0133495,0.281969,20.5663,16.1047,-38.4665,0.0,0.0
508,126.75,49.649,57.7297,165.306,212503,140183,0.0129874,0.278519,20.5739,16.0647,-40.1631,0.0,0.0
512,127.75,49.2458,57.1489,168.934,212522.875,140285,0.0127139,0.274874,20.581,16.0247,-40.1015,0.0,0.0
516,128.75,48.6954,56.5864,166.61,212506,145254,0.0124936,0.271214,20.5881,15.9746,-36.7335,0.0,0.0
520,129.75,48.1853,55.9516,171.926,212518,148574,0.0122605,0.267337,20.5957,15.9446,-34.557,0.0,0.0
524,130.75,48.0635,55.3718,171.03,212477,144668,0.0119687,0.263057,20.6027,15.9045,-37.1108,0.0,0.0
528,131.75,47.7291,54.591,165.962,212504,147114,0.01161,0.259516,20.6088,15.8645,-35.5044,0.0,0.0
532,132.75,47.1447,53.9622,170.782,212494,150048,0.01132,0.256357,20.6136,15.8245,-33.5932,0.0,0.0
536,133.75,47.0027,53.7722,168.449,212475,150605,0.0109963,0.253637,20.6179,15.7744,-33.2269,0.0,0.0
540,134.75,46.9045,53.0837,172.119,212492,150542,0.0106318,0.251277,20.6212,15.7544,-33.2746,0.0,0.0
544,135.75,46.5334,52.7409,170.801,212450,150313,0.0103127,0.24954,20.6244,15.7244,-33.4026,0.0,0.0
548,136.75,46.0643,52.0397,167.786,212452,148812,0.0100084,0.248087,20.6267,15.6743,-34.3725,0.0,0.0
552,137.75,45.6397,51.82,170.494,212415,151065,0.00975832,0.24688,20.6297,15.5943,-32.905,0.0,0.0
556,138.75,45.744,51.4282,170.399,212386.75,153581,0.00957172,0.244742,20.634,15.6043,-31.2974,0.0,0.0
560,139.75,45.1862,50.8918,170.42,212384,152274,0.00944824,0.242855,20.6367,15.5342,-32.1213,0.0,0.0
564,140.75,44.8735,50.4233,169.797,212370,156480,0.00939088,0.240973,20.6398,15.5142,-29.485,0.0,0.0
568,141.75,45.0992,50.2781,170.704,212334,153002,0.00935698,0.238998,20.643,15.4641,-31.6383,0.0,0.0
572,142.75,44.9191,49.8143,171.546,212330,156527,0.00932082,0.236723,20.6463,15.4341,-29.4373,0.0,0.0
576,143.75,44.7336,49.6385,169.675,212286,157885,0.00927444,0.234651,20.6492,15.4241,-28.5837,0.0,0.0
580,144.75,44.4031,49.3952,171.436,212280,159370,0.00921548,0.232885,20.6519,15.3941,-27.6771,0.0,0.0
584,145.75,44.104,49.3076,173.119,212254,158233,0.0091251,0.231297,20.6553,15.344,-28.3566,0.0,0.0
588,146.75,43.9181,49.3363,170.308,212193,158183,0.00903936,0.229859,20.6586,15.334,-28.3591,0.0,0.0
592,147.75,43.8884,49.0856,167.821,212227,158810,0.00888868,0.228089,20.6616,15.304,-27.9926,0.0,0.0
596,148.75,43.7017,48.7039,168.585,212167,157246,0.00870023,0.226635,20.6642,15.274,-28.9209,0.0,0.0
600,149.75,43.6661,48.2221,175.499,212191,159053,0.00850359,0.225073,20.6673,15.2439,-27.8287,0.0,0.0
604,150.75,43.7615,48.5846,171.506,212132,159498,0.00833457,0.223416,20.6703,15.2239,-27.5321,0.0,0.0
608,151.75,43.4741,48.1523,169.2,212080,160005,0.00821811,0.221641,20.6733,15.1939,-27.2021,0.0,0.0
612,152.75,43.5355,47.3628,168.709,212046,160278,0.00813094,0.219988,20.6765,15.1739,-27.0219,0.0,0.0
616,153.75,42.5519,47.5863,168.734,212006,162329,0.00805758,0.218068,20.6789,15.1539,-25.7763,0.0,0.0
620,154.75,43.1049,47.5842,173.227,212025,162960,0.0079761,0.21619,20.682,15.0838,-25.4103,0.0,0.0
624,155.75,42.8423,47.3596,168.005,211982,163470,0.00781958,0.214323,20.6849,15.0237,-25.0891,0.0,0.0
628,156.75,42.3625,47.0205,173.451,211997,163962,0.00764055,0.212255,20.6891,15.0337,-24.8055,0.0,0.0
632,157.75,42.7232,46.0466,167.857,211970,164442,0.00747487,0.210041,20.6928,15.0037,-24.5108,0.0,0.0
636,158.75,42.0973,47.1012,173.703,211932.375,164371,0.00734159,0.20727,20.6968,14.9737,-24.5359,0.0,0.0
640,159.75,41.8476,46.5881,168.763,211933.25,165064,0.00724199,0.204555,20.7017,14.9537,-24.1302,0.0,0.0
644,160.75,41.9206,45.9164,173.594,211888,165201,0.00719545,0.202458,20.7047,14.9236,-24.0294,0.0,0.0
648,161.75,41.8929,45.2038,168.36,211876.875,164664,0.00719691,0.201134,20.7075,14.9136,-24.3385,0.0,0.0
652,162.75,40.8294,46.0321,167.241,211866,166342,0.00722171,0.200344,20.7097,14.8736,-23.3552,0.0,0.0
656,163.75,41.0117,45.9431,171.027,211861,167295,0.00725606,0.199502,20.7118,14.8536,-22.8009,0.0,0.0
660,164.75,41.4044,45.0778,179.213,212000,168579,0.00729358,0.198124,20.7139,14.8135,-22.1258,0.0,0.0
664,165.75,41.3475,44.693,169.611,212136,167638,0.00730674,0.19633,20.7168,14.8035,-22.7286,0.0,0.0
668,166.75,41.3798,44.0047,175.373,212252,168926,0.00728805,0.194394,20.7203,14.7735,-22.0421,0.0,0.0
672,167.75,40.9112,44.1104,174.931,212384,171134,0.00726214,0.192317,20.7238,14.7535,-20.8488,0.0,0.0
676,168.75,40.8053,43.8885,179.798,212489,170378.75,0.00722875,0.190299,20.726,14.7335,-21.3232,0.0,0.0
680,169.75,40.3153,44.4253,173.909,212617,171909,0.00722089,0.188409,20.7287,14.7034,-20.5178,0.0,0.0
684,170.75,40.5116,44.1432,172.938,212715.375,171518,0.0072298,0.186492,20.7315,14.6734,-20.7828,0.0,0.0
688,171.75,40.4144,43.7728,178.004,212823,172325,0.00724971,0.184869,20.7347,14.6634,-20.3781,0.0,0.0
692,172.75,39.5355,43.5708,174.105,212932,173153,0.0072745,0.183089,20.7378,14.6434,-19.9652,0.0,0.0
696,173.75,40.4065,43.8947,172.19,213034,172820,0.00730503,0.181717,20.74,14.6234,-20.1971,0.0,0.0
700,174.75,40.1618,43.0537,176.524,213088,171972.75,0.00732765,0.180624,20.7419,14.6134,-20.6961,0.0,0.0
704,175.75,39.5243,43.0445,171.227,213171,174248.875,0.00734254,0.179509,20.7446,14.5833,-19.464,0.0,0.0
708,176.75,39.5054,43.2252,172.486,213249,174876,0.00734051,0.177863,20.7471,14.5533,-19.1522,0.0,0.0
712,177.75,39.6702,43.0843,172.782,213321.5,174393,0.00731369,0.176162,20.7495,14.5533,-19.4523,0.0,0.0
716,178.75,39.0504,42.292,166.355,213351,173657,0.00726767,0.174478,20.7519,14.5533,-19.8743,0.0,0.0
720,179.75,39.338,42.4104,176.81,213406,175428,0.007212,0.172875,20.7551,14.5133,-18.9197,0.0,0.0
724,180.75,39.0676,42.3166,173.993,213476,175530,0.00715389,0.171608,20.7576,14.4732,-18.8947,0.0,0.0
728,181.75,39.0207,41.7451,172.303,213519,176283.375,0.00710828,0.170542,20.7596,14.4732,-18.501,0.0,0.0
732,182.75,39.1431,41.5974,169.224,213560,174036,0.00706621,0.169363,20.7616,14.4532,-19.758,0.0,0.0
736,183.75,38.7766,41.3942,171.416,213596.375,176151,0.00705356,0.168474,20.7629,14.4432,-18.6086,0.0,0.0
740,184.75,38.7475,41.5533,173.043,213599,176961,0.00705448,0.167062,20.7643,14.4332,-18.1667,0.0,0.0
744,185.75,38.2981,41.2287,175.692,213626,176460.5,0.00705756,0.165246,20.7674,14.4132,-18.4523,0.0,0.0
748,186.75,38.2319,40.984,181,213648,176812,0.00704852,0.163733,20.7698,14.3932,-18.2703,0.0,0.0
752,187.75,38.1911,40.9026,175.821,213648,177318,0.00702669,0.16281,20.7715,14.3631,-17.9941,0.0,0.0
756,188.75,37.9141,40.5039,171.035,213638,176704,0.00700277,0.162361,20.7728,14.3531,-18.3247,0.0,0.0
760,189.75,38.0141,40.6592,177.045,213625,177567,0.00697554,0.161973,20.7742,14.3431,-17.8485,0.0,0.0
764,190.75,38.013,40.5851,172.989,213629,177530,0.00697551,0.161446,20.7751,14.3231,-17.8707,0.0,0.0
768,191.75,37.7786,40.5198,175.477,213629,177702,0.0070103,0.160537,20.7765,14.3331,-17.7769,0.0,0.0
772,192.75,37.7863,39.8539,169.263,213562,177238,0.00707773,0.159618,20.7774,14.3031,-17.9988,0.0,0.0
776,193.75,37.6268,40.034,171.63,213537,177681,0.00716186,0.158759,20.7788,14.2831,-17.7467,0.0,0.0
780,194.75,37.5138,40.184,177.311,213473,177951,0.00727804,0.157877,20.7797,14.253,-17.5713,0.0,0.0
784,195.75,37.2834,39.8465,174.506,213419,177516,0.00738139,0.157123,20.7805,14.253,-17.7829,0.0,0.0
788,196.75,37.1971,39.6647,174.733,213353,177490,0.0074698,0.156398,20.7813,14.243,-17.7669,0.0,0.0
792,197.75,37.1764,39.7041,175.095,213270,177940,0.00751766,0.155642,20.7827,14.223,-17.4854,0.0,0.0
796,198.75,36.879,39.5448,176.372,213196,178112.625,0.00752489,0.15471,20.7843,14.203,-17.358,0.0,0.0
800,199.75,36.9322,39.1152,182.717,213106,177206,0.00750315,0.153512,20.7862,14.183,-17.8101,0.0,0.0
804,200.75,37.0051,39.3136,173.808,213014,178634,0.00746687,0.152526,20.7875,14.1629,-16.9934,0.0,0.0
808,201.75,36.758,39.203,177.174,212921,178535,0.00743808,0.151524,20.7891,14.173,-17.0048,0.0,0.0
812,202.75,36.6919,38.9531,174.686,212786,178489,0.0074356,0.150105,20.7914,14.1329,-16.9689,0.0,0.0
816,203.75,36.6182,38.7883,177.418,212680,179304,0.00749031,0.14849,20.7932,14.1329,-16.4803,0.0,0.0
820,204.75,36.4216,38.3421,175.444,212549,178002,0.00752619,0.147226,20.7944,14.1229,-17.1247,0.0,0.0
824,205.75,36.1584,38.2753,174.189,212421,178405,0.00764371,0.14628,20.7963,14.0829,-16.8479,0.0,0.0
828,206.75,36.2575,38.1904,173.077,212274,178180,0.00771929,0.145516,20.7974,14.1029,-16.9033,0.0,0.0
832,207.75,36.366,37.9996,172.052,212247,178757.5,0.00777068,0.144475,20.7985,14.0729,-16.5786,0.0,0.0
836,208.75,35.9075,38.1313,173.304,212264,178231,0.00777719,0.143452,20.8001,14.0528,-16.871,0.0,0.0
840,209.75,35.8231,37.5038,171.977,212288,178098,0.00776934,0.142812,20.8018,14.0729,-16.9539,0.0,0.0
844,210.75,35.6078,37.5583,176.121,212313,178070,0.00774782,0.142274,20.803,14.0428,-16.9806,0.0,0.0
848,211.75,35.4626,37.566,173.817,212362,178034,0.00773174,0.141975,20.8037,14.0328,-17.0224,0.0,0.0
852,212.75,35.6229,37.3685,174.332,212385,178871,0.00772589,0.1415,20.805,14.0328,-16.58,0.0,0.0
856,213.75,35.5531,37.306,174.561,212435,178854,0.00772265,0.140395,20.8066,14.0128,-16.6122,0.0,0.0
860,214.75,35.4087,37.1649,178.052,212480,178233,0.00770225,0.139039,20.8077,14.0128,-16.9677,0.0,0.0
864,215.75,35.121,37.261,174.276,212498,178605,0.00766055,0.137892,20.809,13.9828,-16.7749,0.0,0.0
868,216.75,35.0656,36.926,174.169,212571,178603,0.00759431,0.137003,20.8103,13.9728,-16.809,0.0,0.0
872,217.75,34.8755,36.8213,173.321,212642,179362,0.00751594,0.136333,20.8117,13.9628,-16.4317,0.0,0.0
876,218.75,34.8531,37.0012,173.968,212677,178474.125,0.00747434,0.135892,20.8126,13.9427,-16.9272,0.0,0.0
880,219.75,35.0137,36.4276,173.799,212732,179376,0.0074786,0.135638,20.8132,13.9327,-16.4653,0.0,0.0
884,220.75,34.5613,36.4283,173.276,212806,178438,0.0075005,0.135346,20.8144,13.9227,-17.0051,0.0,0.0
888,221.75,34.3224,36.2633,176.241,212832,179752,0.00752546,0.135094,20.8152,13.9127,-16.3084,0.0,0.0
892,222.75,34.3765,36.3143,171.587,212921,178624,0.00753517,0.134734,20.8157,13.9027,-16.9567,0.0,0.0
896,223.75,34.5911,36.0145,169.232,212914,178972,0.0075471,0.134251,20.8167,13.8927,-16.7657,0.0,0.0
900,224.75,34.4437,36.3231,180.306,212997,179272,0.00758046,0.133741,20.8175,13.9027,-16.6414,0.0,0.0
904,225.75,34.3116,36.2047,178.073,213023,179356,0.00764215,0.13323,20.818,13.8627,-16.6082,0.0,0.0
908,226.75,34.5906,36.0845,179.271,213093,179575,0.00770208,0.132628,20.8183,13.8727,-16.5219,0.0,0.0
912,227.75,34.3767,36.4077,177.614,213126,179506,0.00774991,0.131741,20.8192,13.8627,-16.5739,0.0,0.0
916,228.75,34.5357,35.8499,175.321,213194,179347,0.00779055,0.130874,20.8202,13.8326,-16.6905,0.0,0.0
920,229.75,34.1442,35.4842,175.071,213239.125,179820,0.00781415,0.130004,20.821,13.8326,-16.4565,0.0,0.0
924,230.75,33.442,35.6349,177.341,213307.625,179191,0.00782267,0.129397,20.8216,13.8226,-16.8261,0.0,0.0
928,231.75,33.7953,35.968,172.041,213344,179767,0.00781493,0.128975,20.8219,13.8026,-16.5328,0.0,0.0
932,232.75,33.9141,35.3296,176.882,213393,179159,0.00781531,0.128859,20.823,13.8026,-16.882,0.0,0.0
936,233.75,33.8862,35.6556,173.647,213437,179935,0.0078289,0.128757,20.8236,13.7926,-16.4846,0.0,0.0
940,234.75,33.7629,35.6376,182.384,213474,180163,0.00785663,0.128482,20.8249,13.7826,-16.3787,0.0,0.0
944,235.75,33.7179,35.5402,177.028,213498,179788.375,0.00787011,0.128064,20.8257,13.7526,-16.5909,0.0,0.0
948,236.75,33.3024,35.7254,174.369,213526,180405,0.00785118,0.127608,20.8267,13.7526,-16.2728,0.0,0.0
952,237.75,33.7908,35.322,175.968,213572,180045,0.00781625,0.127127,20.8276,13.7326,-16.4863,0.0,0.0
956,238.75,33.1667,35.1247,179.004,213601,180134,0.00775464,0.126477,20.8283,13.6825,-16.452,0.0,0.0
960,239.75,33.3023,35.3592,175.588,213654,180368,0.00770922,0.125938,20.8287,13.7326,-16.3504,0.0,0.0
964,240.75,33.2105,34.6012,172.504,213689,179764,0.00769585,0.125861,20.829,13.6925,-16.6903,0.0,0.0
968,241.75,33.0708,34.843,173.59,213719,180292,0.00772232,0.126018,20.8292,13.6825,-16.4201,0.0,0.0
972,242.75,32.9312,34.5279,172.507,213719.5,180001,0.00779375,0.126193,20.8293,13.6825,-16.5768,0.0,0.0
976,243.75,33.4594,34.3636,176.809,213765,180243,0.00789002,0.126076,20.83,13.6725,-16.4675,0.0,0.0
980,244.75,33.3794,34.5764,172.798,213745,180700,0.00795188,0.125751,20.8306,13.6525,-16.2137,0.0,0.0
984,245.75,32.5894,34.8471,179.602,213775,180214,0.00796412,0.125381,20.8311,13.6325,-16.4874,0.0,0.0
988,246.75,32.9875,34.6938,176.547,213829.625,180565,0.00792136,0.125108,20.8313,13.6425,-16.3245,0.0,0.0
992,247.75,33.0434,34.3578,174.059,213799,180084,0.00786324,0.124965,20.8315,13.6325,-16.5685,0.0,0.0
996,248.75,32.431,34.9487,179.045,213799,180169,0.00781323,0.124795,20.8313,13.6325,-16.5227,0.0,0.0
1000,249.75,32.5673,35.0636,177.438,213798,180458,0.00779208,0.124734,20.8312,13.6325,-16.3673,0.0,0.0
1004,250.75,32.4615,34.691,174.676,213788.875,180233,0.00782051,0.124456,20.8311,13.6124,-16.484,0.0,0.0
1008,251.75,32.1137,34.9703,175.908,213783,180197,0.00783916,0.123873,20.8311,13.5824,-16.5002,0.0,0.0
1012,252.75,32.4508,34.7767,174.847,213729,180289,0.0078514,0.123427,20.8316,13.5824,-16.4268,0.0,0.0
1016,253.75,32.2388,34.2722,182.837,213732.5,180401,0.00782887,0.123158,20.8322,13.5624,-16.3685,0.0,0.0
1020,254.75,32.7146,34.1856,176.793,213687,180352,0.00778355,0.12308,20.8325,13.5524,-16.3735,0.0,0.0
1024,255.75,32.9103,34.2461,174.251,213653,181155,0.00773716,0.123014,20.8333,13.5524,-15.9294,0.0,0.0
1028,256.75,32.3684,34.0669,176.76,213664.875,180617.625,0.0076952,0.122756,20.8341,13.5424,-16.2219,0.0,0.0
1032,257.75,32.5361,34.2597,179.007,213578,180648.5,0.00767338,0.122376,20.8345,13.5224,-16.1662,0.0,0.0
1036,258.75,32.2994,34.0909,174.444,213508,180850,0.0076565,0.121996,20.8349,13.5224,-16.0267,0.0,0.0
1040,259.75,32.084,33.9376,174.347,213472.375,180658,0.00763544,0.121854,20.8354,13.5023,-16.1135,0.0,0.0
1044,260.75,32.4945,34.1328,175.651,213387,179760,0.00760753,0.12185,20.8357,13.5124,-16.5558,0.0,0.0
1048,261.75,32.1495,33.8346,175.442,213311,180054.5,0.00757984,0.121974,20.8359,13.4923,-16.3634,0.0,0.0
1052,262.75,32.0025,33.6788,180.906,213259,180517,0.00753256,0.12164,20.8376,13.5023,-16.0922,0.0,0.0
1056,263.75,32.254,33.8911,181.342,213165,180710,0.00749593,0.121047,20.8385,13.5023,-15.946,0.0,0.0
1060,264.75,32.0378,33.609,175.453,213113,180289,0.00741584,0.120486,20.8393,13.4123,-16.1479,0.0,0.0
1064,265.75,32.0038,33.4879,179.238,213010,180458,0.00730947,0.120384,20.8397,13.4423,-16.0111,0.0,0.0
1068,266.75,32.0568,33.4056,177.332,212893,179944,0.00719579,0.120666,20.8393,13.4223,-16.2334,0.0,0.0
1072,267.75,31.8708,33.3715,177.635,212781,180163,0.00711889,0.121047,20.8391,13.4623,-16.0653,0.0,0.0
1076,268.75,31.7867,33.3989,177.545,212655,180109,0.0070989,0.121271,20.8389,13.4723,-16.0366,0.0,0.0
1080,269.75,31.9152,33.652,173.415,212536.75,180045,0.00714375,0.121004,20.8385,13.4423,-16.0171,0.0,0.0
1084,270.75,32.1444,33.4452,176.157,212393,179756,0.00724595,0.1205,20.839,13.4123,-16.1072,0.0,0.0
1088,271.75,31.4206,33.6241,177.136,212286,179626,0.00737292,0.120347,20.8394,13.4023,-16.1285,0.0,0.0
1092,272.75,31.9969,33.5246,172.285,212162,179650,0.00752287,0.120586,20.8396,13.3922,-16.0589,0.0,0.0
1096,273.75,32.2231,32.9675,177.346,212043,179995,0.00765216,0.120623,20.8398,13.3822,-15.8195,0.0,0.0
1100,274.75,31.9638,33.6734,178.927,211950,179615,0.00774752,0.120353,20.8399,13.3822,-15.9812,0.0,0.0
1104,275.75,31.6326,33.5274,179.514,211800,179360,0.00777673,0.119838,20.84,13.3622,-16.0502,0.0,0.0
1108,276.75,31.6239,33.4811,173.79,211663,179840,0.00774465,0.1194,20.8406,13.3622,-15.7294,0.0,0.0
1112,277.75,31.847,33.4141,182.585,211529,179220,0.00768659,0.119047,20.8413,13.3322,-16.0021,0.0,0.0
1116,278.75,31.5745,33.2561,175.074,211429,179381,0.00762947,0.118663,20.8418,13.3422,-15.8691,0.0,0.0
1120,279.75,31.7144,33.4306,173.573,211262,179081,0.00758464,0.118407,20.8422,13.3222,-15.955,0.0,0.0
1124,280.75,31.4336,33.1755,175.945,211174,179023,0.00759053,0.118113,20.8426,13.3122,-15.9459,0.0,0.0
1128,281.75,31.5906,33.2977,177.688,211087,179399,0.00763721,0.117743,20.8437,13.3022,-15.7037,0.0,0.0
1132,282.75,31.3531,32.8637,178.694,210926,179233,0.0076781,0.117343,20.8445,13.2922,-15.7194,0.0,0.0
1136,283.75,31.4055,33.1341,178.634,210810,179099,0.00768651,0.117046,20.8457,13.2821,-15.7385,0.0,0.0
1140,284.75,31.3349,32.9447,182.673,210698,178725,0.0076568,0.116782,20.8465,13.2621,-15.8888,0.0,0.0
1144,285.75,31.3772,32.8682,174.603,210594,178748,0.00760728,0.116396,20.8471,13.2721,-15.8288,0.0,0.0
1148,286.75,31.1899,32.8977,175.315,210469,178782,0.00756325,0.115935,20.8481,13.2621,-15.753,0.0,0.0
1152,287.75,31.2251,32.7361,178.923,210361,178363,0.00753435,0.115616,20.8489,13.2421,-15.93,0.0,0.0
1156,288.75,31.2018,32.4466,178.42,210305,178433.25,0.0075506,0.115231,20.8494,13.2521,-15.8663,0.0,0.0
1160,289.75,30.7551,32.6831,176.107,210170,177848,0.00761848,0.114729,20.8498,13.2321,-16.1216,0.0,0.0
1164,290.75,31.0764,32.6821,178.124,210075,178213,0.00772657,0.11436,20.8497,13.2421,-15.8797,0.0,0.0
1168,291.75,31.5809,31.9105,174.605,209991,178250,0.00782994,0.114232,20.8489,13.2221,-15.8214,0.0,0.0
1172,292.75,30.9433,32.7179,174.653,209905,178273,0.00791486,0.114211,20.8483,13.2321,-15.7691,0.0,0.0
1176,293.75,30.8601,32.5489,175.718,209884.25,178067,0.00797162,0.114108,20.8486,13.2221,-15.8713,0.0,0.0
1180,294.75,30.3694,32.4788,178.003,209795,178135,0.00798298,0.114033,20.8489,13.2121,-15.7933,0.0,0.0
1184,295.75,31.2109,32.0374,176.305,209700,177992,0.00798103,0.113967,20.8492,13.1921,-15.8272,0.0,0.0
1188,296.75,31.1601,32.1086,178.889,209667,177685.75,0.00798445,0.113785,20.8493,13.1821,-15.9782,0.0,0.0
1192,297.75,30.4058,32.5722,178.55,209597,177741,0.00798328,0.113614,20.8494,13.1821,-15.9161,0.0,0.0
1196,298.75,30.8894,32.924,179.464,209552,177854,0.00797417,0.11338,20.8503,13.1821,-15.8342,0.0,0.0
1200,299.75,30.3285,32.5615,177.24,209475,177685,0.00796819,0.113014,20.8508,13.162,-15.8904,0.0,0.0
1204,300.75,30.7913,32.4068,181.715,209433,177649,0.00796192,0.112616,20.8512,13.172,-15.8905,0.0,0.0
1208,301.75,30.7948,32.6088,175.006,209387,178031,0.0079578,0.112423,20.8514,13.162,-15.6618,0.0,0.0
1212,302.75,30.8668,32.4309,177.194,209352,177740,0.00795989,0.112359,20.8516,13.152,-15.8035,0.0,0.0
1216,303.75,30.5073,32.171,178.735,209348.375,177590.375,0.00797567,0.112294,20.8517,13.142,-15.8834,0.0,0.0
1220,304.75,30.6262,32.3021,173.996,209321.5,177633,0.00799475,0.111977,20.8518,13.132,-15.8478,0.0,0.0
1224,305.75,30.1633,32.3965,177.534,209311,177685.75,0.00801296,0.111769,20.8526,13.132,-15.8143,0.0,0.0
1228,306.75,30.2066,32.259,180.324,209291,177811,0.00802521,0.111456,20.8531,13.132,-15.7371,0.0,0.0
1232,307.75,30.8258,31.8603,179.942,209272,177743,0.0080299,0.110969,20.8535,13.132,-15.7652,0.0,0.0
1236,308.75,30.3892,31.7958,180.193,209271,177631.25,0.00803534,0.110283,20.8537,13.122,-15.8255,0.0,0.0
1240,309.75,30.0481,31.827,178.961,209304,178271,0.00804075,0.109805,20.8539,13.102,-15.4938,0.0,0.0
1244,310.75,30.4,32.001,174.702,209310,178270,0.00803936,0.109483,20.854,13.092,-15.4971,0.0,0.0
1248,311.75,29.8986,31.2968,181.65,209355,177695,0.00802564,0.109261,20.854,13.092,-15.8298,0.0,0.0
1252,312.75,29.9333,31.3285,180.831,209345,177757,0.00800227,0.109146,20.8541,13.092,-15.7914,0.0,0.0
1256,313.75,30.2221,31.7057,179.903,209374,177789,0.00797205,0.109039,20.8541,13.0619,-15.7869,0.0,0.0
1260,314.75,30.0529,31.3425,176.691,209394,177891,0.00793389,0.108969,20.8541,13.0619,-15.7412,0.0,0.0
1264,315.75,30.0266,31.6323,172.573,209444.625,177889,0.00784775,0.108998,20.8542,13.0419,-15.7654,0.0,0.0
1268,316.75,30.0616,31.3362,179.664,209481,178246,0.00774194,0.109174,20.8542,13.0419,-15.5887,0.0,0.0
1272,317.75,29.7597,31.2758,178.712,209514,178060,0.00764847,0.109373,20.8542,13.0419,-15.7048,0.0,0.0
1276,318.75,29.8501,31.4519,182.662,209565,177978,0.00755957,0.109479,20.8542,13.0219,-15.7727,0.0,0.0
1280,319.75,29.6821,31.3848,181.299,209629,178545,0.007492,0.109364,20.8542,13.0219,-15.4953,0.0,0.0
1284,320.75,29.9765,31.2482,182.25,209705,178122,0.00744519,0.109146,20.8548,13.0119,-15.7591,0.0,0.0
1288,321.75,29.7948,30.8874,177.263,209765,178350,0.00740275,0.108865,20.8562,13.0119,-15.6636,0.0,0.0
1292,322.75,29.563,30.9722,179.461,209817,178299,0.00738268,0.108556,20.8573,13.0019,-15.7147,0.0,0.0
1296,323.75,29.7068,31.2152,182.102,209902,178292,0.00740043,0.108299,20.858,12.9919,-15.7576,0.0,0.0
1300,324.75,29.6,31.3707,180.539,209975,178363,0.00745536,0.1081,20.8585,12.9819,-15.7528,0.0,0.0
1304,325.75,29.7931,31.3544,177.295,210022.125,178507,0.00753107,0.108004,20.8588,12.9719,-15.6966,0.0,0.0
1308,326.75,29.3377,31.3695,179.747,210118.375,178601,0.00761963,0.108016,20.859,12.9619,-15.6898,0.0,0.0
1312,327.75,29.8648,30.8777,179.609,210154,178620,0.00772159,0.108124,20.8592,12.9418,-15.6958,0.0,0.0
1316,328.75,29.6409,31.2114,173.429,210231,178777,0.00780953,0.10822,20.8593,12.9318,-15.6464,0.0,0.0
1320,329.75,29.4476,31.0755,177.481,210301,178644,0.00792605,0.108108,20.8593,12.9118,-15.7508,0.0,0.0
1324,330.75,29.4587,31.0625,177.846,210384,178809,0.00803782,0.107761,20.8594,12.9218,-15.6993,0.0,0.0
1328,331.75,29.3185,31.0416,178.632,210457,178751,0.00812314,0.107514,20.8596,12.9018,-15.7641,0.0,0.0
1332,332.75,29.2384,31.1711,175.631,210557.125,179167.125,0.00814614,0.107387,20.8605,12.9118,-15.5858,0.0,0.0
1336,333.75,29.2729,30.8272,178.428,210615,179054.5,0.00809263,0.107309,20.8612,12.9118,-15.6731,0.0,0.0
1340,334.75,29.3244,30.8924,174.844,210703,179073,0.00798713,0.107167,20.8617,12.9118,-15.7035,0.0,0.0
1344,335.75,29.4786,31.2738,174.67,210785,179029,0.00787584,0.107013,20.862,12.8818,-15.7647,0.0,0.0
1348,336.75,29.4692,31.3939,177.71,210821,178941.875,0.00773006,0.106895,20.8628,12.8718,-15.828,0.0,0.0
1352,337.75,29.3306,30.8186,179.499,210955,179276,0.00761096,0.106568,20.8635,12.8718,-15.7094,0.0,0.0
1356,338.75,29.2785,30.97,184.817,210987,178961,0.00753751,0.106197,20.864,12.8618,-15.894,0.0,0.0
1360,339.75,29.0705,30.9428,179.994,211023,179501,0.00751043,0.105926,20.8643,12.8618,-15.6191,0.0,0.0
1364,340.75,29.2106,30.673,177.266,211101,179282,0.00751847,0.105772,20.8645,12.8718,-15.7731,0.0,0.0
1368,341.75,29.2308,30.9238,178.867,211160,179408,0.00754394,0.1056,20.8647,12.8618,-15.7321,0.0,0.0
1372,342.75,28.9861,30.7803,179.697,211228,179640,0.00757646,0.105311,20.8647,12.8618,-15.6384,0.0,0.0
1376,343.75,29.0596,30.7226,179.65,211280,179565,0.0076062,0.10506,20.8646,12.8518,-15.7027,0.0,0.0
1380,344.75,29.3558,30.7052,174.782,211337,179441,0.0076335,0.104966,20.8641,12.8417,-15.7954,0.0,0.0
1384,345.75,29.1143,30.9448,179.794,211398,179682,0.00765252,0.104953,20.8631,12.8417,-15.6936,0.0,0.0
1388,346.75,28.9758,30.6812,174.725,211459,179649,0.00765302,0.104945,20.8624,12.8217,-15.7389,0.0,0.0
1392,347.75,29.0359,30.6733,177.108,211525,179520,0.00764833,0.10494,20.862,12.8017,-15.8388,0.0,0.0
1396,348.75,29.0997,30.6466,177.198,211569,179545,0.00765519,0.105054,20.8619,12.8117,-15.8453,0.0,0.0
1400,349.75,29.0724,30.609,179.927,211630.625,179669,0.00768134,0.105085,20.8624,12.7917,-15.8065,0.0,0.0
1404,350.75,27.9594,29.4266,179.222,211692,179543,0.0077408,0.105007,20.8628,12.7917,-15.9024,0.0,0.0
1408,351.75,27.6866,28.3986,177.639,211730,179681,0.00778923,0.104857,20.863,12.7917,-15.8456,0.0,0.0
1412,352.75,27.1648,28.919,178.699,211784,179572,0.00781627,0.104706,20.8632,12.7817,-15.9287,0.0,0.0
1416,353.75,27.5446,29.0587,174.89,211830,179694,0.00784499,0.104569,20.8635,12.7817,-15.8843,0.0,0.0
1420,354.75,27.6654,28.9562,179.712,211874,179910,0.00786873,0.104445,20.8638,12.7717,-15.7883,0.0,0.0
1424,355.75,27.0198,29.2023,181.253,211925,179684,0.00788616,0.104166,20.8639,12.7917,-15.9331,0.0,0.0
1428,356.75,27.2469,28.989,181.316,211964,180094,0.00789654,0.103858,20.8641,12.7617,-15.731,0.0,0.0
1432,357.75,27.5545,29.1141,172.791,212019,180025,0.00789395,0.103756,20.8647,12.7617,-15.7929,0.0,0.0
1436,358.75,26.9523,28.3692,178.127,212105,180008,0.00786639,0.103532,20.8647,12.7517,-15.8408,0.0,0.0
1440,359.75,27.3449,28.8834,176.833,212140,180244,0.00781499,0.103302,20.8646,12.7316,-15.73,0.0,0.0
1444,360.75,27.0908,28.8241,180.113,212185,180112.625,0.00775749,0.103161,20.8645,12.7216,-15.8211,0.0,0.0
1448,361.75,26.9499,28.786,178.184,212216,180074,0.00771968,0.103203,20.8644,12.7216,-15.8557,0.0,0.0
1452,362.75,27.4251,28.4359,180.386,212289,179989,0.00770699,0.103301,20.8643,12.7116,-15.9346,0.0,0.0
1456,363.75,27.1887,28.8951,178.955,212305,180328,0.00770593,0.103092,20.864,12.7116,-15.7606,0.0,0.0
1460,364.75,27.4145,28.4164,178.021,212342,180496,0.00771464,0.102881,20.8638,12.7116,-15.6872,0.0,0.0
1464,365.75,26.7346,28.6796,177.711,212378,180036,0.00771095,0.102939,20.8641,12.7216,-15.9499,0.0,0.0
1468,366.75,27.0832,28.8604,179.116,212410,180431,0.00768262,0.103134,20.8646,12.6916,-15.7533,0.0,0.0
1472,367.75,27.0984,28.571,177.446,212440.5,180486,0.00764683,0.103332,20.865,12.6816,-15.7375,0.0,0.0
1476,368.75,26.9089,28.7121,175.33,212465,180484,0.00759838,0.103469,20.8659,12.6716,-15.7495,0.0,0.0
1480,369.75,26.6612,28.8356,177.388,212506,180005,0.00754781,0.103524,20.8665,12.6816,-16.0253,0.0,0.0
1484,370.75,26.7326,28.7608,177.994,212518,180435,0.00749588,0.103546,20.8669,12.6716,-15.7998,0.0,0.0
1488,371.75,26.8322,28.8373,175.841,212526,180398,0.00745662,0.103577,20.8672,12.6616,-15.8236,0.0,0.0
1492,372.75,26.9062,28.8633,175.694,212525,180562,0.00743325,0.103565,20.8671,12.6616,-15.7353,0.0,0.0
1496,373.75,26.8802,28.7285,181.409,212550.625,180190,0.0074253,0.103426,20.8666,12.6516,-15.946,0.0,0.0
1500,374.75,26.9502,28.3822,181.944,212559,180214,0.00742712,0.103123,20.8665,12.6416,-15.9368,0.0,0.0
1504,375.75,26.7303,28.9889,181.22,212584,180281,0.00743536,0.102924,20.8664,12.6616,-15.9123,0.0,0.0
1508,376.75,26.8568,28.5906,175.075,212575,180435,0.00744575,0.102834,20.8663,12.6416,-15.8258,0.0,0.0
1512,377.75,26.4225,28.9245,179.622,212622,180364,0.00746665,0.102806,20.8663,12.6416,-15.8849,0.0,0.0
1516,378.75,26.8038,28.7114,178.065,212572,180784.75,0.00749331,0.102831,20.8667,12.6315,-15.6377,0.0,0.0
1520,379.75,26.8898,28.7774,182.274,212582,180409.625,0.00751798,0.10279,20.8673,12.6315,-15.8425,0.0,0.0
1524,380.75,26.8242,29.1388,180.519,212581,180430,0.00753331,0.102543,20.8677,12.6215,-15.8314,0.0,0.0
1528,381.75,26.7914,29.3349,173.791,212585,180722,0.00753178,0.102211,20.868,12.6115,-15.677,0.0,0.0
1532,382.75,26.2322,28.7001,175.921,212569,180525,0.00751854,0.101905,20.8682,12.6015,-15.7749,0.0,0.0
1536,383.75,26.367,28.6627,176.73,212571,180573.125,0.00751244,0.101826,20.8683,12.6015,-15.7503,0.0,0.0
1540,384.75,26.8745,28.6973,180.818,212541,180566,0.00751938,0.101805,20.8684,12.6015,-15.7404,0.0,0.0
1544,385.75,26.8257,28.2339,178.811,212514,180342,0.00753989,0.101738,20.8681,12.5815,-15.8483,0.0,0.0
1548,386.75,26.8355,28.8936,179.287,212525,180441,0.00755168,0.101792,20.868,12.5415,-15.7999,0.0,0.0
1552,387.75,26.7295,28.6777,179.053,212484,180439,0.00754064,0.101671,20.8679,12.5415,-15.7825,0.0,0.0
1556,388.75,26.9663,28.5416,178.415,212499,180502,0.00752401,0.101491,20.8678,12.5515,-15.7555,0.0,0.0
1560,389.75,26.6287,28.8382,175.367,212466,180452,0.00751076,0.101318,20.8677,12.5515,-15.7669,0.0,0.0
1564,390.75,26.5865,28.3509,174.625,212445,180374,0.00749817,0.101222,20.8679,12.5214,-15.7992,0.0,0.0
1568,391.75,27.0044,28.7923,178.399,212447,180144,0.00748676,0.101222,20.8684,12.5415,-15.9231,0.0,0.0
1572,392.75,26.7596,28.5978,177.109,212442,180148,0.00746989,0.101255,20.8687,12.5214,-15.9192,0.0,0.0
1576,393.75,26.6724,28.9572,181.058,212408,180411,0.00746638,0.10114,20.8689,12.5214,-15.7624,0.0,0.0
1580,394.75,26.6734,28.3233,176.567,212431,180419.625,0.0074883,0.101041,20.8692,12.5214,-15.7686,0.0,0.0
1584,395.75,26.6249,28.421,173.419,212427.5,180547,0.0075327,0.101024,20.87,12.5214,-15.699,0.0,0.0
1588,396.75,27.0478,28.032,175.772,212394,180669,0.00759976,0.101079,20.8708,12.5214,-15.6181,0.0,0.0
1592,397.75,26.0773,28.4404,181.503,212381,180233,0.007673,0.101064,20.8712,12.5014,-15.8454,0.0,0.0
1596,398.75,26.3864,28.2191,177.823,212375,180121,0.00774958,0.101028,20.8708,12.5014,-15.9034,0.0,0.0
1600,399.75,27.1529,28.3481,180.378,212359,180312,0.0077781,0.101055,20.8706,12.4914,-15.7938,0.0,0.0
1604,400.75,26.291,28.6201,183.988,212353,180013,0.00777115,0.101048,20.8704,12.4914,-15.9511,0.0,0.0
1608,401.75,26.4555,29.0437,178.821,212334,180372,0.00773172,0.101238,20.8704,12.4814,-15.7497,0.0,0.0
1612,402.75,26.6104,28.2877,177.308,212315,180383,0.00768222,0.101436,20.8703,12.4814,-15.7352,0.0,0.0
1616,403.75,27.1052,28.8255,176.746,212308,180597,0.00763602,0.101701,20.8705,12.4714,-15.6179,0.0,0.0
1620,404.75,26.6915,28.2386,176.988,212278,180259,0.00759285,0.101675,20.8712,12.4614,-15.7853,0.0,0.0
1624,405.75,26.7058,28.2139,182.186,212275.75,180244,0.00754725,0.101379,20.8716,12.4514,-15.7919,0.0,0.0
1628,406.75,26.6171,28.7031,178.194,212247,179951,0.00749639,0.101062,20.8719,12.4514,-15.9362,0.0,0.0
1632,407.75,26.3975,28.8742,176.451,212209,180647,0.0074714,0.101052,20.8721,12.4514,-15.5463,0.0,0.0
1636,408.75,26.858,28.2589,179.087,212247,180302,0.00748527,0.101163,20.8722,12.4514,-15.7482,0.0,0.0
1640,409.75,26.5896,28.7707,177.216,212183,180325,0.00756908,0.101281,20.8719,12.4414,-15.7064,0.0,0.0
1644,410.75,26.6037,28.6984,184.87,212168,180269,0.00771438,0.101351,20.8713,12.4113,-15.7299,0.0,0.0
1648,411.75,26.3869,28.4685,178.421,212160,179980,0.00784029,0.101423,20.8709,12.4314,-15.8811,0.0,0.0
1652,412.75,26.4545,28.6901,179.2,212134,180073,0.00789691,0.10148,20.8706,12.4113,-15.8192,0.0,0.0
1656,413.75,27.1337,28.4723,176.811,212118,180265,0.00791301,0.101508,20.8705,12.3813,-15.7089,0.0,0.0
1660,414.75,26.4617,28.6821,184.467,212074,180044,0.00784208,0.101522,20.8703,12.4013,-15.8076,0.0,0.0
1664,415.75,26.452,28.4494,175.809,212068,180261,0.00772739,0.101478,20.8702,12.3813,-15.6885,0.0,0.0
1668,416.75,27.2066,28.45,175.663,212043,180504,0.00760458,0.101312,20.8706,12.3913,-15.5471,0.0,0.0
1672,417.75,26.2088,28.4734,176.106,212045,180106,0.00749609,0.101078,20.8711,12.3913,-15.7609,0.0,0.0
1676,418.75,26.1978,28.4337,177.985,212000.875,179879,0.00743608,0.100889,20.8715,12.4013,-15.8626,0.0,0.0
1680,419.75,26.1581,27.7831,173.432,211969,179876,0.00738056,0.100815,20.8717,12.3813,-15.8494,0.0,0.0
1684,420.75,26.3162,28.5187,178.666,211959.25,179923,0.0073663,0.100791,20.8719,12.3713,-15.8202,0.0,0.0
1688,421.75,26.8929,28.6691,176.417,211938,179876,0.00736661,0.100622,20.872,12.3513,-15.8356,0.0,0.0
1692,422.75,26.4824,28.6664,176.995,211923,179950,0.00736966,0.100416,20.8721,12.3313,-15.789,0.0,0.0
1696,423.75,26.3098,28.2092,178.036,211942,179701,0.00737954,0.1002,20.8722,12.3413,-15.9313,0.0,0.0
1700,424.75,26.6292,28.4149,176.647,211896,179780,0.00739825,0.100164,20.8722,12.3213,-15.8679,0.0,0.0
1704,425.75,26.4055,28.4211,179.967,211900,179754,0.00744771,0.100215,20.8722,12.3113,-15.8841,0.0,0.0
1708,426.75,26.336,28.4495,180.317,211892,179692,0.00750999,0.100298,20.8719,12.3213,-15.9137,0.0,0.0
1712,427.75,25.92,28.3571,182.257,211848,180493,0.00759312,0.100328,20.8718,12.3012,-15.4641,0.0,0.0
1716,428.75,26.3363,27.9115,180.638,211844,179969.125,0.00765137,0.100307,20.8716,12.2812,-15.7428,0.0,0.0
1720,429.75,26.7504,28.2661,180.617,211837,179922,0.00767631,0.100324,20.8716,12.2912,-15.765,0.0,0.0
1724,430.75,25.7381,28.1213,178.522,211863,180064,0.00766554,0.100412,20.8715,12.2912,-15.7009,0.0,0.0
1728,431.75,26.3166,28.4678,177.417,211842,179938,0.00763159,0.100575,20.8715,12.3012,-15.7586,0.0,0.0
1732,432.75,26.8361,28.2929,178.278,211843,179680,0.00759906,0.100682,20.8712,12.2812,-15.8975,0.0,0.0
1736,433.75,26.3997,28.5511,177.367,211944,179752,0.00757877,0.100553,20.8705,12.2912,-15.9048,0.0,0.0
1740,434.75,26.3616,28.2066,179.198,212063,180383,0.00758893,0.100544,20.87,12.2712,-15.6208,0.0,0.0
1744,435.75,26.2097,28.3823,179.08,212162,180005,0.00760686,0.100752,20.8697,12.2612,-15.8683,0.0,0.0
1748,436.75,26.1761,28.3611,174.05,212264,180205,0.00762535,0.100986,20.8695,12.2512,-15.8073,0.0,0.0
1752,437.75,26.14,28.1001,182.537,212328,180245,0.00763234,0.101109,20.8697,12.2512,-15.8151,0.0,0.0
1756,438.75,26.1132,28.3072,177.666,212393,180360,0.00761101,0.101128,20.8694,12.2312,-15.7834,0.0,0.0
1760,439.75,26.2244,28.0832,175.706,212494,180639,0.00757038,0.101071,20.8693,12.2512,-15.6798,0.0,0.0
1764,440.75,26.1138,28.2838,182.122,212587,180553,0.00749212,0.10115,20.8692,12.2412,-15.7681,0.0,0.0
1768,441.75,26.1082,28.8438,179.325,212659,180429,0.00743041,0.101276,20.8691,12.2212,-15.8674,0.0,0.0
1772,442.75,26.0494,28.7038,178.839,212719,180494,0.00737506,0.101213,20.8691,12.2312,-15.8595,0.0,0.0
1776,443.75,26.0012,28.4986,176.249,212816,180912,0.00732054,0.101027,20.869,12.2212,-15.6804,0.0,0.0
1780,444.75,26.4343,28.5869,178.398,212899,180826,0.00726394,0.100533,20.8692,12.2112,-15.7642,0.0,0.0
1784,445.75,26.2179,28.5428,177.072,212945,180605,0.0072129,0.100229,20.8699,12.1911,-15.9029,0.0,0.0
1788,446.75,26.6839,28.3203,180.174,213024,180739,0.00716599,0.0998587,20.8704,12.1811,-15.8669,0.0,0.0
1792,447.75,26.1666,28.7057,182.281,213067,180817,0.00713287,0.0995489,20.8704,12.1811,-15.8448,0.0,0.0
1796,448.75,25.8335,28.3116,177.927,213122,181202,0.00711373,0.0995387,20.8704,12.1711,-15.6646,0.0,0.0
1800,449.75,26.0679,28.3373,183.208,213161,181128,0.00711103,0.0996683,20.8704,12.1511,-15.7215,0.0,0.0
1804,450.75,26.0974,28.0349,181.988,213231,181198,0.00714532,0.0998925,20.8702,12.1411,-15.7161,0.0,0.0
1808,451.75,26.4289,28.3631,174.392,213289,181342,0.00723729,0.10011,20.8695,12.1311,-15.6654,0.0,0.0
1812,452.75,25.9282,28.0999,178.611,213333,181101,0.0073681,0.100426,20.869,12.1711,-15.8138,0.0,0.0
1816,453.75,25.8,28.203,176.411,213364,181214,0.00749032,0.100981,20.8687,12.1711,-15.7674,0.0,0.0
1820,454.75,25.8394,28.586,181.038,213392,181074,0.00757787,0.101463,20.8685,12.1711,-15.8545,0.0,0.0
1824,455.75,26.0664,27.7188,180.646,213455,181278,0.00757795,0.101732,20.8684,12.1711,-15.7747,0.0,0.0
1828,456.75,26.1083,28.1469,182.208,213468,181291,0.00750956,0.101653,20.8683,12.1711,-15.7738,0.0,0.0
1832,457.75,26.1465,28.1277,177.866,213488,181552,0.00741084,0.101373,20.8683,12.1511,-15.6436,0.0,0.0
1836,458.75,26.5499,28.3026,173.359,213518,181377,0.00732595,0.101057,20.8685,12.1611,-15.7506,0.0,0.0
1840,459.75,25.6375,28.5899,180.274,213548,181426,,0.100775,,12.1311,-15.7379,0.0,0.0
1844,460.75,26.0993,28.4531,176.352,213579,181470,,0.10074,,12.1211,-15.7283,0.0,0.0
1848,461.75,25.8603,28.5525,180.016,213575,181524,,0.100618,,12.1111,-15.6978,0.0,0.0
1852,462.75,26.3052,28.3087,178.61,213599,181334.25,,,,12.1011,-15.8098,0.0,0.0
1856,463.75,26.2898,27.936,180.083,213605,181535,,,,12.1011,-15.7058,0.0,0.0
1860,464.75,26.2915,28.1957,178.843,213610.25,181378,,,,12.1011,-15.7917,0.0,0.0
1864,465.75,26.3231,28.7235,181.231,213625,181565,,,,12.1011,-15.6988,0.0,0.0
1868,466.75,26.0039,28.848,182.528,213635,181207,,,,12.071,-15.8936,0.0,0.0
1872,467.75,25.9597,28.4213,183.929,213621,181436.875,,,,12.071,-15.765,0.0,0.0
1876,468.75,26.2201,28.6432,177.535,213642,181493,,,,12.061,-15.7448,0.0,0.0
1880,469.75,26.2933,28.5399,177.908,213635,181216,,,,12.071,-15.8892,0.0,0.0