File: 01_Data/Rubber_Band/Cone/Rubber_Band_Cone_HF50-Frame+GridScan_201013_R1.csv
Names,Time,Stack TC,Smoke TC,Exh Press,Smoke Comp,Smoke Meas,CO Meter,CO2 Meter,O2 Meter,Sample Mass,Ext Coeff,Start Test,Flame Verif
Chan Gain,,500,500,1,1,1,1,1,1,1,1,1.0,1.0
Offset,,0,0,0.130609,0,0,0,0,0,0,0,0.0,0.0
Gain,,1,1,25.011,28413.6,29762,1,1,1,1.00092,-11.006,1.0,1.0
Units,sec,C,C,Pa,%,%,%,%,%,g,/m,,
Baseline,,32.6998,35.9915,176.517,212953,181096,0.00525877,0.0672114,20.8969,-941.733,-15.6444,,
3,0.5,31.8379,34.6017,178.372,212950.375,180956,0.00527398,0.0676677,20.9007,23.6416,-15.7176,0.0,0.0
6,1.25,30.2096,33.5091,172.98,212975,181269,0.00534383,0.067545,20.9008,23.6216,-15.562,0.0,0.0
9,2,30.3426,33.6217,179.655,212974,181153,0.00539331,0.0674441,20.9008,23.6516,-15.6236,0.0,0.0
12,2.75,30.3487,33.5016,177.41,212942,181170.75,0.00542129,0.0674466,20.9008,23.6216,-15.5994,0.0,0.0
15,3.5,30.7675,33.5038,180.375,212971,181116,0.00543628,0.0674629,20.9009,23.5916,-15.6418,0.0,0.0
18,4.25,30.5715,33.4493,175.307,212991.125,181134,0.00543797,0.0674805,20.9009,23.5916,-15.6411,0.0,0.0
21,5,31.1332,33.9996,176.386,213027,181138,0.00542984,0.0675126,20.9009,23.5916,-15.6553,0.0,0.0
24,5.75,30.4837,33.6285,180.659,213028,181042,0.00540378,0.0675645,20.9007,23.6016,-15.7074,0.0,0.0
27,6.5,30.8804,33.8092,177.87,213054,181517,0.00537767,0.0676509,20.9001,23.5615,-15.4662,0.0,0.0
30,7.25,30.6161,33.3947,176.195,213063,180953,0.00534035,0.0677815,20.8997,23.5716,-15.7706,0.0,0.0
33,8,30.7888,34.0204,173.231,213075,181105,0.00530217,0.0678684,20.8994,23.5716,-15.6947,0.0,0.0
36,8.75,30.7698,33.7771,176.827,213061,180846.5,0.00526792,0.0680458,20.8992,23.5816,-15.8265,0.0,0.0
39,9.5,30.6772,33.7085,175.467,213088,180904,0.00524023,0.0682428,20.8984,23.5716,-15.8082,0.0,0.0
42,10.25,31.196,34.1177,176.854,213076,180619,0.00521329,0.0684578,20.8978,23.5816,-15.955,0.0,0.0
45,11,29.9542,33.7162,175.843,213118,180714,0.00518212,0.0686875,20.8974,23.5716,-15.9229,0.0,0.0
48,11.75,31.1117,33.8815,173.932,213139,180540,0.0051594,0.0689707,20.8971,23.5716,-16.0254,0.0,0.0
51,12.5,30.6379,33.7041,175.542,213126,180458,0.00514823,0.0692055,20.8969,23.5716,-16.0637,0.0,0.0
54,13.25,30.9351,33.8774,175.309,213161,180207,0.00515201,0.0694254,20.8967,23.5615,-16.2137,0.0,0.0
57,14,30.4462,33.6377,176.781,213172,179905,0.00515938,0.0695857,20.8966,23.5515,-16.3809,0.0,0.0
60,14.75,30.889,33.6487,179.504,213239.125,179700,0.00516476,0.0697025,20.8965,23.5215,-16.5209,0.0,0.0
63,15.5,30.7006,33.9311,176.204,213191,179317,0.00513395,0.0698648,20.8967,23.5215,-16.7051,0.0,0.0
66,16.25,30.7369,34.0077,175.357,213224,178675,0.00506948,0.0699967,20.897,23.5315,-17.0663,0.0,0.0
69,17,30.8705,34.1083,178.006,213254,178363,0.00502248,0.0700986,20.8971,23.5315,-17.2485,0.0,0.0
72,17.75,30.8253,33.7876,178.671,213256,178344,0.00495902,0.0700647,20.8973,23.5215,-17.26,0.0,0.0
75,18.5,31.0555,34.1557,176.017,213283,178085.375,0.00492016,0.0700437,20.8974,23.5115,-17.4124,0.0,0.0
78,19.25,30.8775,34.0981,178.715,213260,178233,0.0049045,0.0701135,20.8974,23.5215,-17.3221,0.0,0.0
81,20,30.7026,33.819,175.458,213300,177982.75,0.00493509,0.0705695,20.897,23.4915,-17.4756,0.0,0.0
84,20.75,31.0222,34.2204,177.13,213316,177833,0.0049907,0.070902,20.8963,23.4114,-17.5643,0.0,0.0
87,21.5,31.1599,34.126,172.252,213316,175566,0.00504544,0.0714338,20.8954,23.4915,-18.803,0.0,0.0
90,22.25,31.8106,34.6832,175.382,213322,173741,0.00514051,0.071835,20.8948,23.4915,-19.8144,0.0,0.0
93,23,31.5139,34.0922,174.828,213392,174713,0.0052834,0.0721333,20.8943,23.5015,-19.3073,0.0,0.0
96,23.75,31.0155,34.7668,178.128,213392,175179,0.00547317,0.0748654,20.8889,23.4414,-19.0501,0.0,0.0
99,24.5,31.2546,34.3599,172.132,213397,177750,0.00573924,0.0823702,20.8802,23.4915,-17.6457,0.0,0.0
102,25.25,31.3018,35.0496,172.231,213415,178743,0.00615164,0.0901916,20.8656,23.4514,-17.1162,0.0,1.0
105,26,31.3993,35.1404,171.047,213444.625,169777,0.00685267,0.109451,20.84,23.4815,-22.0977,0.0,1.0
108,26.75,32.2835,36.4932,172.597,213465,158873,0.00755473,0.130092,20.8151,23.4514,-28.5158,0.0,1.0
111,27.5,32.8081,37.1986,165.129,213450,150115,0.00839317,0.156427,20.7713,23.3313,-33.9831,0.0,1.0
114,28.25,33.8326,38.7425,164.797,213471.5,140092,0.00953434,0.189737,20.7144,23.3213,-40.6647,0.0,1.0
117,29,34.5452,40.8118,168.95,213514,129633,0.0107318,0.220036,20.6531,23.2513,-48.1747,0.0,1.0
120,29.75,34.6592,41.7203,167.813,213518,128583,0.0117607,0.258225,20.5926,23.2012,-48.9618,0.0,1.0
123,30.5,35.7726,43.1755,164.226,213516,126410,0.0130561,0.296442,20.5328,23.0911,-50.6065,0.0,0.0
126,31.25,37.1966,45.4853,155.298,213527,126074,0.0140005,0.328727,20.4825,23.011,-50.8686,0.0,0.0
129,32,38.1677,47.9428,173.316,213530,123176,0.0153271,0.366499,20.4287,22.9009,-53.1144,0.0,0.0
132,32.75,39.6436,49.8962,155.408,213571,123192,0.0166649,0.403668,20.3822,22.8409,-53.1211,0.0,0.0
135,33.5,41.2285,52.2738,151.149,213568.625,125285,0.0179636,0.434871,20.3271,22.7708,-51.493,0.0,0.0
138,34.25,42.7042,54.5799,150.568,213553.875,122126.25,0.0191931,0.476499,20.2601,22.6807,-53.9518,0.0,0.0
141,35,44.6159,57.924,147.498,213615,119560,0.020533,0.51351,20.2,22.5206,-56.0296,0.0,0.0
144,35.75,45.8943,60.2202,144.743,213600,113750,0.0217012,0.551888,20.1368,22.4705,-60.832,0.0,0.0
147,36.5,47.7809,63.6256,139.164,213596.375,111705,0.0228805,0.590854,20.0646,22.3204,-62.5823,0.0,0.0
150,37.25,50.2466,66.3994,146.133,213613,107757,0.0242352,0.629341,20.0119,22.2604,-66.0638,0.0,0.0
153,38,51.9277,69.4777,146.366,213599,102481,0.0252228,0.666623,19.9492,22.0802,-70.9034,0.0,0.0
156,38.75,53.1337,72.6895,144.331,213620,102257,0.0265975,0.707663,19.8972,22.0602,-71.1244,0.0,0.0
159,39.5,54.9245,76.1021,146.689,213621,106237,0.0278789,0.745328,19.8486,21.9501,-67.4385,0.0,0.0
162,40.25,57.3348,79.3421,147.621,213619,104351,0.0293174,0.776088,19.8013,21.82,-69.1674,0.0,0.0
165,41,59.0647,82.4685,145.812,213629,96988.2,0.0307459,0.804449,19.7542,21.6498,-76.2359,0.0,0.0
168,41.75,60.8734,85.04,143.467,213664.875,98526.8,0.0320763,0.835277,19.7069,21.5697,-74.7325,0.0,0.0
171,42.5,62.702,87.9217,148.704,213604,95639.4,0.0332632,0.862359,19.658,21.4396,-77.5766,0.0,0.0
174,43.25,64.2477,90.8692,136.357,213653,99809.3,0.0343399,0.884955,19.6207,21.3195,-73.4784,0.0,0.0
177,44,66.2204,92.899,129.836,213613,95915.5,0.0352885,0.902947,19.5908,21.0893,-77.3022,0.0,0.0
180,44.75,67.696,95.238,139.283,213651,93932.8,0.0361055,0.918179,19.5628,20.9892,-79.336,0.0,0.0
183,45.5,68.667,96.8076,137.929,213651,96050.9,0.0368515,0.93304,19.5396,20.8991,-77.1833,0.0,0.0
186,46.25,69.9846,98.7065,134.746,213668,96389.6,0.0374964,0.945091,19.5179,20.809,-76.8512,0.0,0.0
189,47,71.1132,100.87,126.036,213657,88799.3,0.0380296,0.957778,19.4995,20.6289,-84.7646,0.0,0.0
192,47.75,72.5702,102.621,130.341,213688,91658.5,0.0384363,0.967688,19.4849,20.4987,-81.7192,0.0,0.0
195,48.5,73.2409,104.215,141.785,213652,90755.7,0.0387263,0.976042,19.4743,20.3886,-82.6583,0.0,0.0
198,49.25,75.1647,106.505,138.455,213683,90843.8,0.0389134,0.981991,19.4666,20.3186,-82.5788,0.0,0.0
201,50,76.1495,107.972,142.327,213654,93074.5,0.0390073,0.984922,19.4626,20.1484,-80.2238,0.0,0.0
204,50.75,77.345,109.948,136.99,213651,94386,0.0390623,0.984759,19.4624,20.0784,-78.8713,0.0,0.0
207,51.5,78.4423,111.003,134.155,213669,89814.7,0.0390967,0.980387,19.4679,19.9282,-83.6724,0.0,0.0
210,52.25,78.8691,111.834,138.47,213682,92780.2,0.0391334,0.976721,19.4719,19.8081,-80.5421,0.0,0.0
213,53,79.3559,111.799,134.811,213653,88219.8,0.03918,0.973228,19.4755,19.658,-85.3948,0.0,0.0
216,53.75,79.531,112.439,128.365,213674,93991.8,0.0392171,0.970382,19.478,19.5679,-79.2856,0.0,0.0
219,54.5,80.0143,112.9,140.146,213674,93205.3,0.0392351,0.968307,19.4797,19.4878,-80.0973,0.0,0.0
222,55.25,80.8994,114.311,147.365,213664,87954.6,0.0392308,0.964531,19.484,19.3577,-85.6905,0.0,0.0
225,56,81.4489,114.612,146.667,213684,93922.8,0.0391936,0.959325,19.4916,19.2276,-79.3612,0.0,0.0
228,56.75,81.9752,115.407,133.102,213701,94129,0.0391397,0.954484,19.5012,19.0774,-79.1573,0.0,0.0
231,57.5,82.088,115.03,142.26,213705.625,94093.6,0.0390708,0.947023,19.5122,18.9673,-79.1956,0.0,0.0
234,58.25,82.724,115.896,144.119,213690,97588.6,0.0389898,0.940714,19.5209,18.8472,-75.6676,0.0,0.0
237,59,83.1926,115.835,148.082,213706.5,90530.4,0.0388966,0.935541,19.5279,18.7872,-82.923,0.0,0.0
240,59.75,83.3881,116.048,141.917,213673,94016.4,0.0388061,0.931421,19.5341,18.617,-79.26,0.0,0.0
243,60.5,83.4024,116.279,139.994,213672,98664.9,0.0387268,0.926274,19.5387,18.4469,-74.6004,0.0,0.0
246,61.25,83.8665,116.411,138.696,213693,92521.3,0.0386689,0.921449,19.5464,18.3768,-80.8169,0.0,0.0
249,62,84.1191,116.397,146.169,213689,90729.3,0.0385569,0.916097,19.555,18.2867,-82.7032,0.0,0.0
252,62.75,84.2549,116.245,137.022,213669,95025.4,0.038405,0.911609,19.5625,18.1666,-78.2277,0.0,0.0
255,63.5,84.3839,116.414,134.007,213707,95377.8,0.0382249,0.908087,19.5681,18.0365,-77.8876,0.0,0.0
258,64.25,84.4213,116.528,144.171,213689,92657.6,0.0379604,0.905587,19.5727,17.8864,-80.6729,0.0,0.0
261,65,84.6644,116.488,139.759,213691,94227.1,0.037647,0.903793,19.5762,17.7863,-79.0521,0.0,0.0
264,65.75,84.7335,116.866,150.333,213661,99307,0.0373096,0.89951,19.5869,17.7462,-73.969,0.0,0.0
267,66.5,85.1698,117.451,143.699,213689,97917.4,0.0368958,0.894464,19.5956,17.6161,-75.3425,0.0,0.0
270,67.25,85.4295,117.147,141.636,213670,96382.4,0.0364531,0.889966,19.6036,17.466,-76.8593,0.0,0.0
273,68,84.8426,116.443,134.885,213680,98834.7,0.0360115,0.882223,19.6187,17.3559,-74.4379,0.0,0.0
276,68.75,85.3589,117.222,146.742,213696,101168,0.0355346,0.874599,19.6321,17.2257,-72.1926,0.0,0.0
279,69.5,85.8857,116.807,147.816,213663,96904.6,0.0350372,0.865659,19.6497,17.1557,-76.3344,0.0,0.0
282,70.25,85.6493,116.886,144.753,213680,97488.6,0.0345316,0.85316,19.6692,17.0656,-75.7622,0.0,0.0
285,71,85.8405,116.163,147.624,213705.625,101881,0.0339166,0.84142,19.6972,16.9455,-71.5189,0.0,0.0
288,71.75,85.6419,115.074,139.264,213694,102173,0.0334258,0.828367,19.7115,16.8654,-71.237,0.0,0.0
291,72.5,85.8145,115.293,154.279,213649,100596,0.0328588,0.811384,19.7392,16.8054,-72.719,0.0,0.0
294,73.25,84.6075,114.683,151.475,213691.75,110718,0.0323037,0.794822,19.7595,16.6652,-63.4817,0.0,0.0
297,74,85.1719,113.393,144.988,213672,107028,0.0316569,0.778567,19.7836,16.5852,-66.7453,0.0,0.0
300,74.75,84.3097,113.22,153.196,213641,107385,0.0309383,0.767383,19.8086,16.5051,-66.4101,0.0,0.0
303,75.5,84.4732,111.727,142.054,213656,105980,0.0303303,0.750436,19.8354,16.435,-67.6884,0.0,0.0
306,76.25,82.8676,111.238,149.02,213660,103077,0.0297432,0.731196,19.8639,16.375,-70.3712,0.0,0.0
309,77,82.7161,109.954,152.599,213639,111423,0.0290235,0.709644,19.8992,16.2949,-62.8451,0.0,0.0
312,77.75,82.0944,108.615,157.1,213615,113159,0.0282796,0.690725,19.938,16.2348,-61.3422,0.0,0.0
315,78.5,81.4667,107.117,146.241,213611,106905,0.0275328,0.665327,19.9781,16.0847,-66.8294,0.0,0.0
318,79.25,80.9075,105.8,152.296,213604,113743,0.0267985,0.640755,20.0198,16.0447,-60.8401,0.0,0.0
321,80,80.0756,104.636,155.808,213602,112621,0.0261144,0.61708,20.0551,15.9846,-61.7958,0.0,0.0
324,80.75,79.2345,102.893,151,213564,118225.25,0.0252552,0.594383,20.089,15.9346,-57.0907,0.0,0.0
327,81.5,78.7784,101.277,156.148,213568.625,116828,0.0244474,0.570182,20.1263,15.8245,-58.2401,0.0,0.0
330,82.25,77.0295,99.9538,156.943,213564,115220,0.0239339,0.549666,20.1454,15.7244,-59.5767,0.0,0.0
333,83,76.4094,98.3022,155.617,213545,122451,0.0232115,0.529797,20.178,15.7444,-53.6912,0.0,0.0
336,83.75,76.0488,97.0163,161.312,213549,122456,0.0223743,0.509581,20.2018,15.6543,-53.6892,0.0,0.0
339,84.5,74.8835,95.1044,159.291,213520,124757,0.021764,0.489763,20.2347,15.6243,-51.8792,0.0,0.0
342,85.25,74.2355,94.1482,157.268,213560,126228,0.0210464,0.476471,20.2623,15.5642,-50.7653,0.0,0.0
345,86,73.283,92.2306,155.166,213517,124291,0.0203395,0.456571,20.2886,15.5442,-52.2389,0.0,0.0
348,86.75,72.7053,90.7045,160.192,213496,130992,0.0197089,0.440127,20.3183,15.4942,-47.1598,0.0,0.0
351,87.5,71.3218,89.409,159.288,213500.125,133402,0.0191469,0.422778,20.3432,15.4541,-45.4013,0.0,0.0
354,88.25,71.0592,87.5151,162.068,213498,133949,0.0185623,0.407844,20.3669,15.4041,-45.0052,0.0,0.0
357,89,69.8756,86.2243,160.083,213471.5,134613,0.0179046,0.391841,20.3916,15.3741,-44.5161,0.0,0.0
360,89.75,68.6499,85.0345,161.442,213463,137647,0.0172783,0.378561,20.4154,15.334,-42.3607,0.0,0.0
363,90.5,67.972,83.2994,164.329,213473,139790,0.0166982,0.36612,20.437,15.274,-40.8735,0.0,0.0
366,91.25,67.5908,81.697,167.75,213413,142233,0.0159824,0.354861,20.4633,15.2539,-39.1739,0.0,0.0
369,92,66.3821,80.7835,164.749,213433,142066,0.0156592,0.345227,20.4746,15.2039,-39.2962,0.0,0.0
372,92.75,65.8443,79.3686,158.679,213367,140997,0.0151963,0.337358,20.4877,15.1739,-39.9956,0.0,0.0
375,93.5,64.9971,78.3431,161.903,213374,142401,0.0148206,0.330153,20.4997,15.1038,-39.0426,0.0,0.0
378,94.25,64.0435,77.1671,165.842,213350,145586,0.0144905,0.322003,20.5085,15.1238,-36.8959,0.0,0.0
381,95,63.6142,76.427,164.01,213341,144962,0.0141539,0.318241,20.5174,15.0538,-37.3063,0.0,0.0
384,95.75,63.3601,74.9813,165.448,213344,144421,0.0138249,0.313142,20.5256,15.0137,-37.6684,0.0,0.0
387,96.5,62.3223,74.3497,159.328,213307.625,146333,0.0135648,0.308954,20.5326,14.9837,-36.3823,0.0,0.0
390,97.25,62.3327,72.7997,163.607,213307.625,148164,0.0133251,0.305096,20.538,14.9537,-35.1817,0.0,0.0
393,98,61.4674,72.1956,163.854,213292.875,142252,0.013124,0.302283,20.5429,14.9236,-39.1068,0.0,0.0
396,98.75,60.4956,71.2897,164.627,213279,148107,0.0129469,0.300232,20.5471,14.8736,-35.2061,0.0,0.0
399,99.5,60.8699,71.0599,163.547,213228,141584,0.0128048,0.298342,20.5505,14.8336,-39.5315,0.0,0.0
402,100.25,60.1031,70.5586,162.975,213242,147607,0.0126539,0.296227,20.5555,14.8236,-35.516,0.0,0.0
405,101,59.9775,69.5718,166.898,213244,148000,0.0125097,0.294031,20.5591,14.7535,-35.2602,0.0,0.0
408,101.75,59.408,69.1247,162.795,213212,147278,0.0123176,0.291851,20.5618,14.6934,-35.7179,0.0,0.0
411,102.5,59.1096,68.5895,165.532,213196.625,146404,0.0121851,0.29,20.5636,14.6634,-36.2853,0.0,0.0
414,103.25,58.8317,68.1131,161.051,213146,144956,0.0119938,0.288458,20.5657,14.6634,-37.222,0.0,0.0
417,104,58.7254,67.3964,166.992,213132,151015,0.011838,0.287003,20.5684,14.6634,-33.2623,0.0,0.0
420,104.75,58.3393,66.872,162.777,213126,147081,0.0117037,0.285744,20.5709,14.6134,-35.8079,0.0,0.0
423,105.5,58.1986,66.8051,162.224,213100,151760,0.0116124,0.285041,20.5728,14.5133,-32.7724,0.0,0.0
426,106.25,57.9763,66.2224,158.573,213062,148272,0.0115487,0.284185,20.5743,14.4933,-35.0008,0.0,0.0
429,107,57.4124,65.7606,162.605,213054,149048,0.0115211,0.283225,20.5753,14.4832,-34.4929,0.0,0.0
432,107.75,57.7707,65.4033,161.818,213032.75,147133,0.0115009,0.282222,20.5761,14.4132,-35.7319,0.0,0.0
435,108.5,57.2698,65.4496,165.855,213023,150784,0.0115029,0.281217,20.5766,14.4032,-33.361,0.0,0.0
438,109.25,56.8465,65.1453,162.72,212979,149914,0.0115329,0.280575,20.5771,14.3832,-33.8997,0.0,0.0
441,110,56.8667,64.5289,169.259,212964.25,150497,0.0115775,0.280146,20.5778,14.3531,-33.5182,0.0,0.0
444,110.75,56.7553,64.2458,164.363,212982,146237,0.0116337,0.279914,20.5785,14.3531,-36.2985,0.0,0.0
447,111.5,56.4531,64.3453,163.46,212960,147602,0.0117344,0.279882,20.579,14.3231,-35.3912,0.0,0.0
450,112.25,56.3884,63.7729,165.983,212921,146691,0.0117869,0.279569,20.5794,14.2731,-35.9713,0.0,0.0
453,113,56.0168,63.9837,165.084,212887,146411,0.0118794,0.279161,20.5797,14.1429,-36.1408,0.0,0.0
456,113.75,55.8778,63.5807,160.482,212880,145830,0.011968,0.278768,20.5799,14.1229,-36.5211,0.0,0.0
459,114.5,56.1881,63.2519,164.31,212854.125,147888,0.0120457,0.278801,20.5801,14.2731,-35.1563,0.0,0.0
462,115.25,55.4575,63.1177,166.217,212839.375,146732,0.0120926,0.279146,20.5802,14.173,-35.9074,0.0,0.0
465,116,55.6299,62.6251,162.04,212781,148325,0.0121049,0.279714,20.5802,14.1329,-34.8385,0.0,0.0
468,116.75,55.3325,62.7168,162.533,212785.625,148654,0.0120753,0.280106,20.5803,14.1329,-34.6267,0.0,0.0
471,117.5,55.3414,62.6992,162.787,212734,147327,0.0120031,0.280391,20.5803,14.0929,-35.4692,0.0,0.0
474,118.25,55.6745,62.6533,162.412,212683,148194.375,0.0118957,0.280143,20.5804,14.1329,-34.8792,0.0,0.0
477,119,55.3893,62.7033,163.567,212680,150179,0.0117269,0.279767,20.5808,14.0028,-33.5933,0.0,0.0
480,119.75,55.4601,62.2103,160.485,212700,151528,0.0115366,0.279014,20.5827,14.0128,-32.7392,0.0,0.0
483,120.5,55.4577,62.4076,165.007,212649,150023.625,0.0113692,0.277663,20.5852,14.0128,-33.6795,0.0,0.0
486,121.25,55.3707,62.3535,166.04,212649,154363,0.0112297,0.276502,20.5869,13.9427,-30.9264,0.0,0.0
489,122,55.4576,61.8144,167.393,212607,150975,0.0110685,0.275355,20.5889,13.9027,-33.0501,0.0,0.0
492,122.75,54.8828,61.5921,159.188,212575,149555,0.0108721,0.274173,20.5912,13.8126,-33.9477,0.0,0.0
495,123.5,55.0074,61.3291,160.07,212588,153035,0.0107119,0.272978,20.5938,13.7726,-31.7325,0.0,0.0
498,124.25,54.9034,61.6921,160.101,212535,150758,0.0105879,0.272268,20.5964,13.7926,-33.1558,0.0,0.0
501,125,55.0182,61.9452,163.117,212511,150260,0.0104806,0.270369,20.5992,13.7326,-33.4646,0.0,0.0
504,125.75,54.554,61.4412,163.585,212489,154271,0.0103858,0.268405,20.6016,13.6825,-30.9115,0.0,0.0
507,126.5,54.835,61.4227,168.331,212493,156448,0.0102883,0.265983,20.6059,13.7225,-29.5605,0.0,0.0
510,127.25,54.5826,61.1993,163.926,212464,154648.5,0.0101792,0.263497,20.6097,13.7125,-30.6639,0.0,0.0
513,128,54.299,60.7644,163.45,212421,152070,0.0100752,0.261377,20.6136,13.6525,-32.2675,0.0,0.0
516,128.75,54.5112,61.1075,169.517,212418,156527,0.00998517,0.259083,20.6165,13.5924,-29.4775,0.0,0.0
519,129.5,54.1633,60.8226,162.177,212403,155490,0.00992349,0.257036,20.6191,13.5324,-30.1121,0.0,0.0
522,130.25,53.8357,60.1142,167.47,212382,155419.625,0.00988642,0.255385,20.6217,13.4923,-30.1467,0.0,0.0
525,131,54.0422,60.3958,161.989,212361,154573.125,0.00987001,0.253818,20.6236,13.5424,-30.6641,0.0,0.0
528,131.75,53.7098,59.8743,160.594,212355,151859,0.00984242,0.252668,20.6262,13.4923,-32.3714,0.0,0.0
531,132.5,53.3982,59.7536,165.327,212351,155993,0.00981568,0.251817,20.6269,13.4623,-29.7771,0.0,0.0
534,133.25,54.0207,59.8586,165.847,212337,157344,0.00972875,0.251181,20.6282,13.4423,-28.938,0.0,0.0
537,134,53.3023,59.3917,166.146,212334,156429,0.00961437,0.250711,20.6297,13.4123,-29.4998,0.0,0.0
540,134.75,53.4468,59.0238,160.376,212341,156927,0.00950923,0.249509,20.6316,13.4123,-29.1957,0.0,0.0
543,135.5,53.2851,59.5057,167.238,212322,157416,0.00934315,0.248725,20.6343,13.3522,-28.8869,0.0,0.0
546,136.25,52.9968,59.0311,171.416,212330,159059,0.00922208,0.247516,20.6369,13.3322,-27.8879,0.0,0.0
549,137,52.8451,59.3441,167.305,212337,157025,0.00904825,0.246168,20.6396,13.3122,-29.1343,0.0,0.0
552,137.75,52.6135,59.2032,171.552,212292,159745,0.00889891,0.244709,20.642,13.2922,-27.4557,0.0,0.0
555,138.5,52.5897,58.7477,163.285,212300,158828,0.00875135,0.243443,20.6449,13.2721,-28.0147,0.0,0.0
558,139.25,52.7957,58.5343,164.129,212305,159096,0.00859366,0.241689,20.648,13.2821,-27.8543,0.0,0.0
561,140,52.6034,58.676,168.786,212267,159300,0.00844491,0.240057,20.6519,13.2821,-27.7136,0.0,0.0
564,140.75,52.4568,58.4193,164.02,212275,160361.5,0.00830633,0.237706,20.6553,13.1921,-27.0758,0.0,0.0
567,141.5,52.0596,58.1297,165.85,212250,161619,0.00817842,0.235226,20.6603,13.172,-26.3105,0.0,0.0
570,142.25,52.9501,58.13,165.203,212270,161508,0.00806295,0.232634,20.6664,13.1821,-26.3858,0.0,0.0
573,143,52.5307,58.0063,162.221,212245,162965,0.00797262,0.229963,20.6709,13.152,-25.5073,0.0,0.0
576,143.75,51.7902,57.6713,171.426,212217,166416,0.00789626,0.226656,20.6766,13.152,-23.4715,0.0,0.0
579,144.5,52.6256,56.9385,163.747,212209,164651,0.00783411,0.2235,20.6813,13.112,-24.4972,0.0,0.0
582,145.25,51.9918,57.13,170.51,212204,165757,0.0077833,0.220881,20.6854,13.102,-23.8488,0.0,0.0
585,146,51.2974,56.5014,164.551,212275,166793,0.00774159,0.218388,20.6885,13.082,-23.2795,0.0,0.0
588,146.75,51.1724,56.718,171.781,212174,167122,0.00770193,0.216456,20.6916,13.0519,-23.0436,0.0,0.0
591,147.5,51.5566,56.6919,163.099,212200,167612,0.00766415,0.214851,20.6942,13.0619,-22.7725,0.0,0.0
594,148.25,51.253,56.3363,163.264,212204,167091,0.00762143,0.213058,20.698,13.0219,-23.0748,0.0,0.0
597,149,51.0714,55.9752,165.755,212163,168828,0.00755886,0.211329,20.7021,12.9919,-22.0575,0.0,0.0
600,149.75,51.5824,55.345,163.132,212157,169949,0.00751325,0.20935,20.7056,13.0019,-21.416,0.0,0.0
603,150.5,51.2471,55.4211,168.947,212204,169517,0.00742643,0.206873,20.7101,12.9919,-21.6832,0.0,0.0
606,151.25,50.5302,55.6912,166.07,212173,169901,0.00734372,0.204466,20.7143,12.9318,-21.4504,0.0,0.0
609,152,50.3613,55.5633,170.274,212169,172799,0.00727106,0.201683,20.7189,12.9518,-19.8158,0.0,0.0
612,152.75,50.4111,55.8384,164.108,212144,172050,0.00721111,0.198032,20.7235,12.9418,-20.224,0.0,0.0
615,153.5,50.6558,54.6805,163.76,212181,173772,0.00717478,0.195158,20.7268,12.9218,-19.2794,0.0,0.0
618,154.25,50.1174,55.1681,166.488,212169,172302,0.0071483,0.192701,20.7305,12.8618,-20.0938,0.0,0.0
621,155,49.7699,54.6519,163.269,212165.625,173104,0.00716265,0.190766,20.7336,12.8518,-19.6444,0.0,0.0
624,155.75,49.6507,53.9832,162.101,212129,173579,0.00718746,0.189068,20.7364,12.8317,-19.3633,0.0,0.0
627,156.5,49.3992,54.1048,166.084,212134,174797,0.00724989,0.187443,20.7398,12.8217,-18.6902,0.0,0.0
630,157.25,49.9238,54.1119,167.135,212188,174930,0.0072954,0.185806,20.7422,12.8518,-18.6413,0.0,0.0
633,158,49.451,53.8389,169.945,212197,175383,0.00734152,0.18384,20.7452,12.8818,-18.3955,0.0,0.0
636,158.75,49.8373,53.6356,167.194,212247,175170.75,0.00736627,0.181449,20.7474,12.8518,-18.5354,0.0,0.0
639,159.5,48.4657,52.7129,172.362,212250,175743.875,0.00736916,0.179706,20.7515,12.8117,-18.2212,0.0,0.0
642,160.25,48.914,52.6701,172.694,212282,176219,0.00735093,0.17744,20.7549,12.7717,-17.9752,0.0,0.0
645,161,48.439,52.4305,167.055,212313,176130,0.00733247,0.175788,20.7581,12.7517,-18.0382,0.0,0.0
648,161.75,48.5237,51.9996,164.287,212327,176358,0.00731952,0.173731,20.7612,12.7717,-17.9196,0.0,0.0
651,162.5,48.1924,52.17,171.21,212336,177481,0.00731475,0.171806,20.7647,12.7316,-17.3105,0.0,0.0
654,163.25,48.1913,51.6757,168.583,212383,178617,0.00732605,0.170162,20.7676,12.6816,-16.7165,0.0,0.0
657,164,47.553,51.2329,171.198,212397,178070,0.00733429,0.168861,20.77,12.6816,-17.0188,0.0,0.0
660,164.75,47.4357,50.8409,169.472,212408,179508,0.00735508,0.167952,20.7717,12.7216,-16.2472,0.0,0.0
663,165.5,47.4431,50.7518,169.624,212450,178735,0.00737801,0.167049,20.7732,12.6716,-16.6831,0.0,0.0
666,166.25,47.5797,50.6597,170.073,212465,178889,0.00739805,0.166288,20.7747,12.6916,-16.6064,0.0,0.0
669,167,47.2461,50.8752,172.413,212509.875,179048,0.00742745,0.164885,20.7766,12.6516,-16.5412,0.0,0.0
672,167.75,47.0512,50.2658,165.862,212521,179022,0.00745925,0.163609,20.7789,12.6816,-16.5605,0.0,0.0
675,168.5,46.8158,49.8989,175.625,212544,178970,0.00748686,0.162246,20.7813,12.7016,-16.5987,0.0,0.0
678,169.25,46.3099,49.6671,166.98,212576,179334.25,0.00753843,0.160857,20.784,12.7116,-16.417,0.0,0.0
681,170,46.5961,49.895,168.734,212609,179401,0.007602,0.159372,20.7865,12.6816,-16.3962,0.0,0.0
684,170.75,46.5102,49.6326,166.627,212663,180281,0.0076594,0.157769,20.7888,12.6115,-15.9486,0.0,0.0
687,171.5,46.5447,49.6526,169.88,212666,180599,0.00774022,0.156262,20.7906,12.6315,-15.7792,0.0,0.0
690,172.25,45.7129,49.5911,171.931,212675.5,181165,0.00782944,0.155019,20.7924,12.6315,-15.4815,0.0,0.0
693,173,45.9131,48.8783,171.877,212715.375,179990,0.00791788,0.154174,20.7943,12.6115,-16.128,0.0,0.0
696,173.75,45.2758,48.8451,173.038,212738,181007,0.00800463,0.153595,20.7957,12.5915,-15.5941,0.0,0.0
699,174.5,45.6138,49.2134,170.511,212767,180758,0.00808087,0.153236,20.7969,12.5615,-15.7399,0.0,0.0
702,175.25,46.1406,48.2296,168.199,212776,180756,0.00814817,0.15265,20.7982,12.5915,-15.7457,0.0,0.0
705,176,45.8868,48.0965,170.826,212828,180608,0.00820777,0.151834,20.8004,12.6015,-15.8484,0.0,0.0
708,176.75,45.0319,48.4253,170.067,212831,181609,0.00826164,0.150809,20.802,12.6015,-15.316,0.0,0.0
711,177.5,44.8075,47.3431,175.321,212832,182169,0.00830535,0.149621,20.8032,12.5615,-15.0193,0.0,0.0
714,178.25,45.2467,48.5222,172.664,212872,181535,0.00833722,0.14853,20.804,12.5114,-15.374,0.0,0.0
717,179,44.4124,47.6471,171.523,212916,181408,0.00835116,0.147544,20.805,12.5214,-15.4613,0.0,0.0
720,179.75,44.4063,48.0063,168.098,212930,181739,0.00836133,0.146661,20.8058,12.5214,-15.2913,0.0,0.0
723,180.5,44.9152,47.0228,170.485,212961,181719,0.00836874,0.146017,20.807,12.4914,-15.3161,0.0,0.0
726,181.25,44.2415,47.1146,170.61,212951,181667,0.00839271,0.145533,20.8079,12.4614,-15.3398,0.0,0.0
729,182,44.1127,46.791,168.377,212967,182250,0.00842713,0.145175,20.8088,12.4414,-15.0375,0.0,0.0
732,182.75,44.1991,46.6145,169.263,212993,181367,0.00845944,0.144634,20.8098,12.4414,-15.5181,0.0,0.0
735,183.5,44.7713,47.4575,173.921,213021,181941.875,0.0085053,0.144099,20.811,12.4614,-15.2251,0.0,0.0
738,184.25,44.1822,45.9802,168.186,213006,181436.875,0.00855568,0.14347,20.8123,12.4714,-15.4867,0.0,0.0
741,185,43.8115,46.5782,166.438,213026,181877,0.00859963,0.142672,20.8136,12.4714,-15.2617,0.0,0.0
744,185.75,43.8535,46.7468,171.502,213087.375,181867,0.00862907,0.141853,20.8148,12.4914,-15.2949,0.0,0.0
747,186.5,43.4297,46.6303,165.467,213059.625,182265,0.00864323,0.141022,20.8161,12.4514,-15.0713,0.0,0.0
750,187.25,43.4057,45.6454,172.755,213113,182374,0.008643,0.14019,20.817,12.4414,-15.0376,0.0,0.0
753,188,43.8043,45.6163,170.785,213103,181992,0.00863501,0.139346,20.8179,12.4314,-15.2359,0.0,0.0
756,188.75,43.6368,46.2135,175.412,213125,182035,0.00862586,0.138629,20.819,12.4214,-15.2231,0.0,0.0
759,189.5,43.2956,46.4423,171.716,213158,182003,0.00862104,0.137842,20.8202,12.4514,-15.2549,0.0,0.0
762,190.25,43.4055,45.0124,171.292,213158,182124,0.0086237,0.137074,20.8212,12.4514,-15.1912,0.0,0.0
765,191,42.8613,45.2937,173.877,213258,181981,0.0086362,0.136376,20.8226,12.4414,-15.312,0.0,0.0
768,191.75,42.9831,45.0328,169.793,213217,182196,0.00867322,0.135602,20.8243,12.4314,-15.1794,0.0,0.0
771,192.5,43.0184,45.6977,174.502,213211.375,182037.25,0.00871874,0.134926,20.8255,12.4314,-15.2609,0.0,0.0
774,193.25,42.7194,45.8098,169.324,213238.25,182243,0.00878365,0.133678,20.8264,12.4113,-15.1638,0.0,0.0
777,194,42.7732,45.5258,169.956,213258,181590.375,0.0088794,0.132531,20.8274,12.3813,-15.5194,0.0,0.0
780,194.75,43.0329,44.9293,169.653,213263,181743.875,0.00896297,0.131595,20.8284,12.3713,-15.4402,0.0,0.0
783,195.5,42.1537,44.6621,176.499,213285,182051,0.00904741,0.131111,20.8291,12.3613,-15.2871,0.0,0.0
786,196.25,42.4465,44.4835,171.329,213331,181691,0.00913882,0.130853,20.8296,12.3513,-15.4988,0.0,0.0
789,197,42.5246,44.0239,170.828,213283,182007,0.00920808,0.130828,20.83,12.3413,-15.3094,0.0,0.0
792,197.75,41.8534,44.5437,166.345,213327,181927,0.00925968,0.13075,20.8303,12.3613,-15.3714,0.0,0.0
795,198.5,41.8986,44.2752,170.289,213366,181696,0.00927036,0.130443,20.8309,12.3313,-15.5121,0.0,0.0
798,199.25,41.7136,44.2559,167.833,213347,181917,0.00928269,0.129944,20.8322,12.3213,-15.3857,0.0,0.0
801,200,42.604,43.6357,168.457,213333,181995,0.00926815,0.129292,20.8331,12.3113,-15.338,0.0,0.0
804,200.75,42.048,44.3382,173.928,213351,182084,0.00925302,0.12854,20.8338,12.2012,-15.2991,0.0,0.0
807,201.5,41.6928,43.7105,175.616,213374,181910,0.0092514,0.128156,20.8345,12.2712,-15.4022,0.0,0.0
810,202.25,40.3677,42.5745,171.486,213374,181507,0.00926812,0.12767,20.8355,12.2812,-15.6164,0.0,0.0
813,203,40.3012,42.3876,167.315,213376.125,182198,0.00931092,0.127298,20.8367,12.2712,-15.2503,0.0,0.0
816,203.75,40.5771,42.4889,175.609,213390,181858,0.00935651,0.127291,20.8375,12.2512,-15.4367,0.0,0.0
819,204.5,40.0893,41.8331,170.804,213425,182388,0.00940622,0.127398,20.8382,12.2412,-15.1717,0.0,0.0
822,205.25,39.2613,41.767,167.26,213428,181994,0.00946014,0.127907,20.8374,12.2212,-15.3821,0.0,0.0
825,206,40.2146,42.1002,171.644,213414,182216,0.00952187,0.128586,20.8368,12.2212,-15.2579,0.0,0.0
828,206.75,39.8591,41.4663,171.962,213421,182378,0.00956687,0.129294,20.8364,12.2312,-15.1754,0.0,0.0
831,207.5,39.573,41.3312,173.666,213444.625,181815,0.00960528,0.130128,20.8357,12.2212,-15.4846,0.0,0.0
834,208.25,39.8926,41.1702,167.169,213420,182105,0.00962672,0.130729,20.8349,12.1811,-15.3194,0.0,0.0
837,209,39.1077,41.2261,172.687,213417.75,182279.75,0.00963957,0.131154,20.8344,12.2012,-15.2258,0.0,0.0
840,209.75,39.6483,41.284,172.421,213416,181945,0.00960784,0.131206,20.8345,12.1811,-15.4027,0.0,0.0
843,210.5,39.3125,41.0054,175.403,213413,181869,0.00955592,0.131112,20.8347,12.1711,-15.4415,0.0,0.0
846,211.25,39.4098,41.3785,170.476,213403,182157,0.00950579,0.130818,20.8349,12.1711,-15.2841,0.0,0.0
849,212,39.4185,41.2932,179.027,213416,182052,0.00945805,0.13034,20.8354,12.2012,-15.3458,0.0,0.0
852,212.75,39.5129,41.2488,176.063,213387,182069,0.00943634,0.129878,20.836,12.1711,-15.3237,0.0,0.0
855,213.5,38.7005,41.3193,173.651,213400,182118,0.00942608,0.129225,20.8364,12.1311,-15.3036,0.0,0.0
858,214.25,39.4633,41.3975,172.139,213419,182331,0.00944085,0.128596,20.837,12.1411,-15.1992,0.0,0.0
861,215,39.1549,41.1599,174.506,213390,182003,0.00946524,0.127984,20.8378,12.1511,-15.3601,0.0,0.0
864,215.75,39.1781,41.1979,172.534,213384,182103,0.00949009,0.127389,20.8384,12.1711,-15.3043,0.0,0.0
867,216.5,39.2242,41.2293,174.928,213376.125,181837,0.00950297,0.12694,20.8388,12.1511,-15.442,0.0,0.0
870,217.25,39.2691,40.9292,171.593,213363,182334.25,0.00949834,0.126608,20.8391,12.1211,-15.1722,0.0,0.0
873,218,39.3246,41.0264,172.562,213374,182683,0.00948168,0.126761,20.8387,12.1211,-14.9928,0.0,0.0
876,218.75,38.8921,40.8092,177.298,213367,182600.375,0.00945541,0.126954,20.8384,12.081,-15.0334,0.0,0.0
879,219.5,39.4659,40.6274,169.317,213386,182057,0.00941009,0.127232,20.8382,12.061,-15.3292,0.0,0.0
882,220.25,38.7859,40.9781,165.999,213351,182107,0.00936591,0.127355,20.838,12.081,-15.287,0.0,0.0
885,221,38.6148,40.519,172.354,213336,182074,0.00932847,0.12732,20.8381,12.1211,-15.2982,0.0,0.0
888,221.75,39.0016,40.7354,168.793,213311,181996.375,0.00929894,0.127197,20.8386,12.1011,-15.3277,0.0,0.0
891,222.5,39.3128,40.9863,174.757,213313,182100,0.00930913,0.127032,20.839,12.081,-15.2736,0.0,0.0
894,223.25,38.7776,41.0131,175.456,213332,182124,0.00933487,0.126829,20.8392,12.061,-15.2692,0.0,0.0
897,224,38.6871,41.1464,174.218,213295,182114,0.00935938,0.126646,20.8394,12.031,-15.2581,0.0,0.0
900,224.75,38.6493,40.6582,173.761,213292.875,182371,0.00937371,0.126526,20.8395,12.021,-15.1207,0.0,0.0
903,225.5,38.4151,40.3287,168.72,213295,182766,0.00937934,0.126444,20.8396,12.001,-14.913,0.0,0.0
906,226.25,38.8667,40.7307,172.259,213282,182431,0.0093752,0.126483,20.8397,12.021,-15.0847,0.0,0.0
909,227,38.5452,40.856,168.028,213274,182149.875,0.00937778,0.126631,20.8398,12.001,-15.2294,0.0,0.0
912,227.75,38.2751,41.3725,167.55,213231,182040.875,0.00937966,0.126739,20.8398,11.991,-15.268,0.0,0.0
915,228.5,38.1443,41.102,174.466,213224.375,181889,0.00940903,0.126803,20.8398,12.011,-15.3453,0.0,0.0
918,229.25,38.5826,40.9974,171.264,213231,182027.25,0.00944353,0.126747,20.8398,12.021,-15.2752,0.0,0.0
921,230,38.8381,40.7661,172.949,213223,181818,0.00947426,0.126665,20.8399,12.001,-15.3822,0.0,0.0
924,230.75,39.0909,40.8455,172.376,213210,182214,0.00947986,0.12673,20.8399,12.011,-15.1662,0.0,0.0
927,231.5,38.818,40.4911,172.862,213187,182067,0.00946039,0.126904,20.8399,12.001,-15.234,0.0,0.0
930,232.25,38.1889,40.8478,168.55,213175,182371,0.00943615,0.127156,20.8399,11.981,-15.0678,0.0,0.0
933,233,38.2607,40.7852,168.679,213176,182088,0.00939796,0.127186,20.8399,11.981,-15.2178,0.0,0.0
936,233.75,38.2404,40.8921,170.39,213153,182224,0.00937143,0.127019,20.8399,11.9309,-15.1354,0.0,0.0
939,234.5,38.7608,41.1173,169.107,213121,181320.625,0.00935264,0.126685,20.8399,11.9409,-15.6009,0.0,0.0
942,235.25,38.4886,40.9949,175.885,213113,181453,0.00934648,0.126414,20.8399,11.9309,-15.5267,0.0,0.0
945,236,38.5444,40.2774,171.559,213069,182035,0.00934378,0.126284,20.8399,11.9509,-15.1974,0.0,0.0
948,236.75,38.4097,40.7059,173.851,213061,181371,0.00932503,0.126328,20.8399,11.9309,-15.5467,0.0,0.0
951,237.5,38.3888,40.3477,171.785,213026,181619,0.00930172,0.126432,20.8399,11.9109,-15.3987,0.0,0.0
954,238.25,37.9533,40.5218,175.063,213045.75,181960,0.00926826,0.126573,20.8399,11.9209,-15.2268,0.0,0.0
957,239,38.1149,40.4009,172.133,213038,181840,0.00923082,0.126833,20.8399,11.9209,-15.2869,0.0,0.0
960,239.75,38.5215,40.3635,171.481,212944,182154,0.00920745,0.127065,20.8399,11.9209,-15.0778,0.0,0.0
963,240.5,38.0565,40.3173,176.283,212933,181985,0.00920033,0.127253,20.8399,11.9309,-15.1627,0.0,0.0
966,241.25,38.9471,40.0391,169.765,212930,181698,0.00920927,0.127265,20.8399,11.9309,-15.3135,0.0,0.0
969,242,37.5113,40.4094,170.233,212913,182343,0.00922403,0.12714,20.8399,11.9209,-14.9635,0.0,0.0
972,242.75,38.2798,40.594,174.694,212917,181907,0.00924892,0.126912,20.8403,11.9609,-15.1962,0.0,0.0
975,243.5,37.8432,40.3636,171.054,212869,181896,0.00925922,0.126746,20.8408,11.9309,-15.1804,0.0,0.0
978,244.25,38.0239,40.6043,175.87,212822,181481,0.0092565,0.126624,20.8412,11.9009,-15.3797,0.0,0.0
981,245,37.8002,40.232,171.877,212819,181655,0.00924275,0.126536,20.8415,11.9309,-15.2863,0.0,0.0
984,245.75,37.9459,40.3205,171.275,212785.625,181342,0.00922881,0.126362,20.8417,11.8809,-15.4371,0.0,0.0
987,246.5,38.4238,40.3753,169.731,212734,182378,0.00921904,0.126047,20.8418,11.8809,-14.8639,0.0,0.0
990,247.25,37.4673,40.6536,176.309,212700,181253,0.00921652,0.125818,20.8419,11.8909,-15.4456,0.0,0.0
993,248,37.673,39.842,169.625,212669,181862,0.00921753,0.125739,20.842,11.8909,-15.1078,0.0,0.0
996,248.75,37.9588,40.3218,173.345,212636,181714,0.00921993,0.125831,20.8416,11.8909,-15.1719,0.0,0.0
999,249.5,38.4198,39.8649,171.141,212587,181487,0.00922169,0.12585,20.8411,11.8709,-15.2701,0.0,0.0
1002,250.25,37.4944,40.2658,170.217,212555,181910,0.00919128,0.125807,20.841,11.8709,-15.0307,0.0,0.0
1005,251,37.7331,39.9007,171.758,212550.625,181146,0.00914038,0.125663,20.8409,11.8408,-15.435,0.0,0.0
1008,251.75,37.7352,39.6325,172.671,212521,181418,0.00907797,0.125558,20.8408,11.8008,-15.2769,0.0,0.0
1011,252.5,37.7183,39.9385,170.952,212487,181490,0.00901015,0.125521,20.8407,11.8508,-15.2234,0.0,0.0
1014,253.25,37.8907,39.9177,173.239,212433,180811,0.00894245,0.125377,20.8409,11.8208,-15.5602,0.0,0.0
1017,254,37.4165,39.419,174.16,212453,181327,0.00888325,0.125072,20.8414,11.7708,-15.2942,0.0,0.0
1020,254.75,37.7221,39.8061,175.588,212375,181053,0.00883657,0.124642,20.8418,11.7708,-15.4048,0.0,0.0
1023,255.5,37.6224,39.5201,172.461,212293,181634.875,0.00881184,0.124291,20.8421,11.7608,-15.0578,0.0,0.0
1026,256.25,37.5126,39.8001,169.512,212295,181070,0.00879382,0.124123,20.8423,11.8208,-15.3594,0.0,0.0
1029,257,37.8648,39.3392,168.895,212299,181107,0.00880301,0.124235,20.8425,11.7808,-15.3415,0.0,0.0
1032,257.75,37.2501,39.2965,169.601,212224,181314,0.00881623,0.124447,20.8423,11.7207,-15.1968,0.0,0.0
1035,258.5,37.766,39.6811,171.309,212206,180688,0.00882934,0.124652,20.8419,11.6807,-15.5228,0.0,0.0
1038,259.25,37.2961,39.1778,170.481,212132,180848,0.00884007,0.124815,20.8415,11.7307,-15.4034,0.0,0.0
1041,260,37.2345,39.6977,175.761,212084.125,181254,0.00884417,0.124918,20.8412,11.7107,-15.1653,0.0,0.0
1044,260.75,37.5276,39.651,169.62,212012,180777,0.00884585,0.124955,20.8411,11.7307,-15.3873,0.0,0.0
1047,261.5,37.7559,39.7877,178.923,211990,181045,0.00884652,0.124955,20.8409,11.6907,-15.2339,0.0,0.0
1050,262.25,37.3885,39.6318,172.6,211932.375,180753,0.00884887,0.12495,20.8408,11.5606,-15.3636,0.0,0.0
1053,263,37.3756,39.308,177.485,211869,180946,0.00885058,0.124966,20.8408,11.7808,-15.2319,0.0,0.0
1056,263.75,37.5713,39.4958,176,211795.375,180827,0.00885741,0.12499,20.8409,11.5906,-15.2614,0.0,0.0
1059,264.5,37.404,40.1268,171.899,211712.125,180580,0.00886377,0.124967,20.8415,11.6507,-15.3554,0.0,0.0
1062,265.25,37.9243,39.7051,173.945,211683,181053,0.00887075,0.124931,20.8418,11.6807,-15.0898,0.0,0.0
1065,266,36.9045,39.2054,172.879,211562.125,180262,0.00887584,0.124827,20.8421,11.7107,-15.4576,0.0,0.0
1068,266.75,37.1415,39.6485,172.107,211532,180223,0.00887955,0.12475,20.8423,11.7207,-15.4646,0.0,0.0
1071,267.5,37.4212,39.8004,171.049,211540,180111,0.00888226,0.124556,20.8425,11.7007,-15.528,0.0,0.0
1074,268.25,36.9541,39.2982,173.344,211532,180185,0.00888609,0.124387,20.8426,11.6507,-15.4846,0.0,0.0
1077,269,37.1383,39.4221,172.784,211518,180565,0.00889541,0.124222,20.8427,11.5706,-15.275,0.0,0.0
1080,269.75,36.9693,39.4332,168.03,211541,179902,0.00890499,0.124053,20.8427,11.6006,-15.6409,0.0,0.0
1083,270.5,36.5981,39.436,172.526,211537,180139,0.00892501,0.123901,20.8428,11.6306,-15.5118,0.0,0.0
1086,271.25,37.0362,39.4717,174.612,211553,180630,0.00894167,0.123874,20.8428,11.6306,-15.2559,0.0,0.0
1089,272,37.3425,39.2094,170.601,211558,181125,0.00895733,0.124016,20.8428,11.6406,-14.9941,0.0,0.0
1092,272.75,36.9269,38.9243,175.537,211550,180164,0.00896875,0.124397,20.8428,11.6406,-15.5041,0.0,0.0
1095,273.5,36.5376,39.3983,171.748,211590,180381,0.00898267,0.124794,20.8427,11.6306,-15.4065,0.0,0.0
1098,274.25,36.6198,39.1754,173.712,211581,180842.875,0.00898525,0.125082,20.8426,11.6106,-15.1554,0.0,0.0
1101,275,36.8852,39.6299,176.592,211619,180054,0.00897421,0.125293,20.8425,11.5906,-15.5951,0.0,0.0
1104,275.75,36.7538,39.4199,175.102,211612,180465,0.00894009,0.125224,20.8424,11.6206,-15.3712,0.0,0.0
1107,276.5,36.913,39.6148,171.301,211666,180292,0.00890478,0.12508,20.8424,11.6006,-15.489,0.0,0.0
1110,277.25,36.9084,39.414,174.232,211657.5,180424,0.0088746,0.124599,20.8423,11.6206,-15.414,0.0,0.0
1113,278,36.7206,39.2595,174.841,211660,180159,0.00885259,0.124068,20.8423,11.6206,-15.5572,0.0,0.0
1116,278.75,36.665,39.6703,173.674,211703,180767,0.00883654,0.123604,20.8423,11.5806,-15.2511,0.0,0.0
1119,279.5,37.2404,39.4016,171.907,211703,180585,0.0088658,0.123404,20.8423,11.5706,-15.3486,0.0,0.0
1122,280.25,37.2023,39.6012,172.148,211713,180700,0.0089237,0.123331,20.8422,11.5706,-15.2917,0.0,0.0
1125,281,36.8353,39.7384,174.146,211717,180401,0.00899526,0.123403,20.8422,11.5806,-15.4535,0.0,0.0
1128,281.75,36.6591,39.1458,171.394,211753.75,180251,0.00907095,0.123497,20.8422,11.5806,-15.5508,0.0,0.0
1131,282.5,36.7285,39.4721,175.247,211800,180962,0.00910783,0.123569,20.8422,11.5706,-15.1916,0.0,0.0
1134,283.25,37.3371,39.5642,173.723,211827,180383,0.00910285,0.123596,20.8422,11.5406,-15.513,0.0,0.0
1137,284,36.7205,39.6046,174.521,211799,181266.125,0.00907146,0.123675,20.8422,11.4905,-15.029,0.0,0.0
1140,284.75,36.8397,39.2543,171.383,211814,181543,0.00903519,0.123718,20.8422,11.4905,-14.8887,0.0,0.0
1143,285.5,36.3883,39.5587,173.035,211838,180679,0.00891015,0.123725,20.8427,11.4905,-15.3598,0.0,0.0
1146,286.25,36.4916,39.2986,172.59,211871,180324.25,0.00879945,0.123535,20.8432,11.4805,-15.5648,0.0,0.0
1149,287,36.6526,39.4486,176.478,211910,180597,0.00871316,0.12338,20.8435,11.4905,-15.4368,0.0,0.0
1152,287.75,37.1901,39.4996,169.892,211913,180698,0.00865495,0.123221,20.8438,11.5305,-15.3845,0.0,0.0
1155,288.5,36.2466,39.4791,171.989,211957,180549.5,0.00862814,0.123106,20.8438,11.4905,-15.4833,0.0,0.0
1158,289.25,36.6311,39.5633,169.701,211958,181448,0.00863613,0.123199,20.8433,11.4505,-15.005,0.0,0.0
1161,290,36.7266,39.0863,171.965,211981,180808,0.00865084,0.123239,20.843,11.4905,-15.3561,0.0,0.0
1164,290.75,36.7876,39.1817,173.073,211959.25,180650,0.00868389,0.123344,20.8428,11.4705,-15.4306,0.0,0.0
1167,291.5,36.737,39.7337,169.983,211979,180903,0.00870798,0.123571,20.8426,11.4204,-15.3049,0.0,0.0
1170,292.25,36.5075,38.9409,171.37,212003,181442,0.00872554,0.124112,20.8419,11.3504,-15.028,0.0,0.0
1173,293,36.8437,39.3335,170.557,212054,181221,0.0087253,0.124548,20.8414,11.3904,-15.1693,0.0,0.0
1176,293.75,36.5938,39.35,173.396,212060,181225.25,0.0087182,0.124883,20.841,11.4505,-15.1697,0.0,0.0
1179,294.5,36.5598,39.0215,179.484,212107,181462,0.00871067,0.125049,20.8407,11.4505,-15.0648,0.0,0.0
1182,295.25,36.4851,39.007,172.478,212165.625,180939,0.0087182,0.12514,20.8405,11.4405,-15.3703,0.0,0.0
1185,296,36.2672,39.0049,174.484,212195,181062,0.00872369,0.125157,20.8403,11.4505,-15.3184,0.0,0.0
1188,296.75,36.6388,39.1451,168.705,212175,181265,0.00875188,0.125031,20.8411,11.4204,-15.2009,0.0,0.0
1191,297.5,36.5093,39.5762,174.624,212225,180613,0.00877113,0.124828,20.842,11.4204,-15.5717,0.0,0.0
1194,298.25,36.6004,39.5869,169.356,212282,180995,0.00878461,0.124632,20.8427,11.4004,-15.3937,0.0,0.0
1197,299,36.4195,39.5812,174.635,212280,181192,0.00876965,0.124461,20.8432,11.3704,-15.2878,0.0,0.0
1200,299.75,36.6237,39.5172,177.402,212312,181248,0.00874337,0.124286,20.8435,11.3704,-15.2724,0.0,0.0
1203,300.5,36.7976,39.7133,173.809,212338,181291,0.008716,0.124138,20.8438,11.3404,-15.2615,0.0,0.0
1206,301.25,36.9156,39.4963,172.601,212355,181563.125,0.00870518,0.123994,20.844,11.3003,-15.124,0.0,0.0
1209,302,36.151,38.9544,178.397,212347,181196,0.00872205,0.123827,20.8441,11.3404,-15.3157,0.0,0.0
1212,302.75,36.4508,39.1742,173.718,212390,180728,0.00875698,0.123678,20.8442,11.3003,-15.5855,0.0,0.0
1215,303.5,36.5813,39.3182,178.889,212383,181295,0.00880593,0.123557,20.8448,11.2703,-15.2796,0.0,0.0
1218,304.25,36.1091,39.3061,169.189,212415,181176,0.00886643,0.123468,20.8453,11.2703,-15.3575,0.0,0.0
1221,305,36.2988,39.4069,170.191,212408,181170.75,0.00892112,0.123384,20.8457,11.2603,-15.3573,0.0,0.0
1224,305.75,36.1846,38.4933,172.161,212428,181644.875,0.00897589,0.123303,20.846,11.3404,-15.114,0.0,0.0
1227,306.5,36.172,39.2009,172.293,212454,181258,0.00901032,0.123222,20.8462,11.2102,-15.3313,0.0,0.0
1230,307.25,36.6312,39.0497,175.228,212417,181975,0.00902601,0.123126,20.8464,11.2803,-14.9338,0.0,0.0
1233,308,36.6199,39.6869,170.188,212405,181161,0.0090095,0.123042,20.8465,11.3103,-15.361,0.0,0.0
1236,308.75,36.246,39.3333,175.173,212394,181332,0.00898305,0.122975,20.8466,11.3504,-15.2645,0.0,0.0
1239,309.5,36.5322,39.2051,174.457,212369,182229,0.00893909,0.122985,20.8467,11.2903,-14.7769,0.0,0.0
1242,310.25,36.6643,39.374,175.215,212358.125,181309,,0.122941,,11.1402,-15.2609,0.0,0.0
1245,311,36.4264,39.2545,178.134,212369,181139.875,,0.122822,,11.1802,-15.3556,0.0,0.0
1248,311.75,36.6417,39.7237,172.234,212343,181079,,0.122696,,11.1902,-15.3766,0.0,0.0
1251,312.5,36.7336,39.5596,174.197,212259,181094,,0.122548,,11.2303,-15.3301,0.0,0.0
1254,313.25,36.1002,39.019,173.707,212264,181218,,,,11.2803,-15.2663,0.0,0.0
1257,314,35.693,39.0973,175.932,212275.75,181094,,,,11.2903,-15.3381,0.0,0.0
1260,314.75,36.0987,38.6752,174.549,212206,181413,,,,11.2403,-15.1363,0.0,0.0
1263,315.5,36.1399,38.8641,178.029,212185,181728,,,,11.1502,-14.9588,0.0,0.0
1266,316.25,36.095,39.1126,170.989,212140,181421,,,,11.2503,-15.1019,0.0,0.0
1269,317,36.1313,38.3921,170.695,212122,180627,,,,11.2403,-15.5175,0.0,0.0
1272,317.75,36.2047,38.7913,172.644,212091,180974,,,,11.2403,-15.318,0.0,0.0
1275,318.5,36.132,38.8281,175.447,212012,180470,,,,11.2403,-15.5514,0.0,0.0
1278,319.25,36.35,38.6541,171.158,211955,180679,,,,11.2002,-15.4131,0.0,0.0
1281,320,35.8274,39.2294,172.376,211904,180914,,,,11.1902,-15.2647,0.0,0.0
1284,320.75,36.6558,38.4445,172.025,211863,180822,,,,11.2303,-15.2951,0.0,0.0