File: 01_Data/Rubber_Band/Cone/Rubber_Band_Cone_HF75-Frame+GridScan_201013_R1.csv
Names,Time,Stack TC,Smoke TC,Exh Press,Smoke Comp,Smoke Meas,CO Meter,CO2 Meter,O2 Meter,Sample Mass,Ext Coeff,Start Test,Flame Verif
Chan Gain,,500,500,1,1,1,1,1,1,1,1,1.0,1.0
Offset,,0,0,0.130609,0,0,0,0,0,0,0,0.0,0.0
Gain,,1,1,25.011,13.5216,16.6677,1,1,1,1.00092,1.03296,1.0,1.0
Units,sec,C,C,Pa,%,%,%,%,%,g,/m,,
Baseline,,36.3233,40.5789,174.087,100.011,100.439,0.00549068,0.0671899,20.9028,-942.474,-0.0387491,,
3,0.5,36.0617,39.6656,175.353,101.031,101.564,0.00530447,0.0726229,20.8976,10.1393,-0.0477091,0.0,0.0
6,1.25,34.4778,38.1531,172.726,101.037,101.578,0.00528135,0.0735761,20.8962,10.1693,-0.0483714,0.0,0.0
9,2,34.5273,37.9861,172.216,101.049,101.245,0.00525901,0.0743096,20.8951,10.1493,-0.0175377,0.0,0.0
12,2.75,34.4108,38.579,179.049,101.045,101.354,0.00524745,0.0748514,20.8944,10.1293,-0.0276895,0.0,0.0
15,3.5,34.7784,38.0896,179.816,101.057,101.207,0.0052471,0.0752586,20.8938,10.1393,-0.0135018,0.0,0.0
18,4.25,34.7852,38.0262,169.343,101.069,101.311,0.00525967,0.0754782,20.8934,10.1593,-0.0216696,0.0,0.0
21,5,34.5276,38.1724,175.684,101.087,101.454,0.00528443,0.0756382,20.8931,10.1593,-0.0328618,0.0,0.0
24,5.75,34.5955,38.6107,169.376,101.096,101.095,0.00533263,0.0757162,20.8929,10.1092,3.67253e-05,0.0,0.0
27,6.5,34.3452,38.1703,166.061,101.084,100.899,0.00538973,0.0758944,20.8925,10.1193,0.0166246,0.0,0.0
30,7.25,34.749,38.5908,170.992,101.103,100.162,0.00547349,0.0762316,20.8918,10.1193,0.0847566,0.0,0.0
33,8,34.7704,38.8009,169.691,101.114,99.6605,0.00553455,0.0768063,20.8911,10.1993,0.131194,0.0,0.0
36,8.75,34.8619,38.5162,170.569,101.117,99.895,0.00561646,0.0772253,20.8902,10.1092,0.110196,0.0,0.0
39,9.5,34.2052,38.1824,173.457,101.119,99.2297,0.00569211,0.0773815,20.8895,10.0992,0.170894,0.0,0.0
42,10.25,35.471,38.8784,169.338,101.126,98.6783,0.00584709,0.0774318,20.8892,10.1193,0.222012,0.0,0.0
45,11,34.9222,38.8299,175.208,101.123,98.7795,0.0059413,0.0788267,20.8907,10.1193,0.2125,0.0,0.0
48,11.75,34.5611,38.5115,175.549,101.138,98.4891,0.00627124,0.0804227,20.8881,10.0392,0.240438,0.0,0.0
51,12.5,34.9198,39.2078,172.256,101.126,101.356,0.00679235,0.0930528,20.8787,10.0792,-0.0206221,0.0,1.0
54,13.25,34.907,39.633,167.557,101.154,97.1493,0.00729185,0.11487,20.8517,10.1092,0.365989,0.0,1.0
57,14,35.6851,40.2155,166.457,101.133,89.0698,0.008256,0.136432,20.8059,9.92908,1.15093,0.0,1.0
60,14.75,36.2575,41.2661,162.513,101.145,77.2217,0.0094506,0.169331,20.7425,9.88904,2.44534,0.0,1.0
63,15.5,37.132,43.2144,156.409,101.14,71.9591,0.0105311,0.206974,20.6723,9.85901,3.08441,0.0,1.0
66,16.25,38.1428,45.4329,160.513,101.137,67.2551,0.0122505,0.258571,20.6108,9.76893,3.69672,0.0,1.0
69,17,39.8936,48.034,153.219,101.14,67.6706,0.0139137,0.307914,20.5353,9.67885,3.64124,0.0,1.0
72,17.75,40.0145,48.8402,154.542,101.157,66.6553,0.0153009,0.348886,20.4716,9.58877,3.77966,0.0,0.0
75,18.5,41.7221,50.8402,150.934,101.14,66.694,0.0170799,0.39637,20.4101,9.47867,3.77296,0.0,0.0
78,19.25,43.1249,54.3073,146.731,101.133,65.0983,0.0186378,0.43778,20.3434,9.41861,3.99172,0.0,0.0
81,20,44.4999,56.4653,156.155,101.131,63.1858,0.02022,0.479585,20.2735,9.35856,4.26177,0.0,0.0
84,20.75,46.6083,59.4562,145.281,101.141,62.9218,0.0220487,0.53027,20.202,9.14837,4.30059,0.0,0.0
87,21.5,48.1486,62.5277,147.088,101.127,59.73,0.0239464,0.567218,20.1061,9.09832,4.77104,0.0,0.0
90,22.25,49.9833,65.6579,147.631,101.109,56.1862,0.0255706,0.621456,20.0204,8.95819,5.32365,0.0,0.0
93,23,51.8828,69.125,138.796,101.109,55.6404,0.0276811,0.678906,19.9193,8.82807,5.4121,0.0,0.0
96,23.75,54.1093,73.0671,137.289,101.1,49.6901,0.0296146,0.735609,19.8264,8.64791,6.43604,0.0,0.0
99,24.5,56.9173,76.9252,133.331,101.099,51.8677,0.032137,0.789236,19.7393,8.51779,6.04738,0.0,0.0
102,25.25,58.9948,80.8022,139.364,101.079,47.7577,0.0347014,0.841778,19.655,8.39768,6.7936,0.0,0.0
105,26,61.5461,85.2332,135.807,101.081,49.5014,0.0372164,0.885814,19.5718,8.26756,6.46882,0.0,0.0
108,26.75,63.9511,88.4791,133.068,101.079,45.1402,0.0396248,0.937173,19.4812,8.07738,7.30439,0.0,0.0
111,27.5,66.8564,92.4012,128.552,101.069,44.5715,0.0421956,0.9883,19.3993,7.9873,7.4183,0.0,0.0
114,28.25,68.5248,95.9039,131.032,101.055,44.338,0.0443296,1.03494,19.333,7.81715,7.46467,0.0,0.0
117,29,71.2192,99.8214,125.761,101.041,42.7943,0.0463297,1.07964,19.2677,7.60696,7.78452,0.0,0.0
120,29.75,73.3959,104.095,138.525,101.021,45.1702,0.0481013,1.11478,19.2158,7.47684,7.29315,0.0,0.0
123,30.5,75.8115,107.572,144.984,101.03,42.1147,0.0495914,1.14477,19.1704,7.3267,7.9286,0.0,0.0
126,31.25,77.6527,111.024,125.515,101.022,40.3593,0.0507889,1.16928,19.1361,7.13653,8.31367,0.0,0.0
129,32,79.5768,114.296,136.206,101.003,38.9371,0.0517659,1.18646,19.1111,7.00641,8.63695,0.0,0.0
132,32.75,81.5564,116.37,129.007,101.004,44.1442,0.0524782,1.19781,19.0928,6.82624,7.49977,0.0,0.0
135,33.5,83.0673,118.648,129.152,101.003,39.7057,0.0530467,1.20512,19.0803,6.70613,8.45983,0.0,0.0
138,34.25,84.8235,121.552,131.437,100.988,42.2826,0.0534704,1.20933,19.0725,6.53598,7.88878,0.0,0.0
141,35,85.5689,122.856,134.817,100.987,42.2927,0.0537592,1.21122,19.0712,6.38584,7.88649,0.0,0.0
144,35.75,87.2247,125.289,127.675,100.974,41.0435,0.0538725,1.21066,19.0747,6.22569,8.15703,0.0,0.0
147,36.5,88.0289,126.381,141.869,100.971,43.5237,0.053955,1.20696,19.079,6.10558,7.62513,0.0,0.0
150,37.25,89.5011,127.92,136.713,100.978,42.3731,0.0538276,1.20126,19.0822,5.87537,7.86848,0.0,0.0
153,38,90.1217,129.089,129.031,100.947,45.8579,0.0536495,1.19809,19.0846,5.7953,7.14961,0.0,0.0
156,38.75,91.5357,130.715,121.635,100.939,43.335,0.0534832,1.1962,19.0863,5.59512,7.66161,0.0,0.0
159,39.5,91.8964,130.73,119.37,100.933,41.3014,0.0532607,1.19798,19.0866,5.465,8.09657,0.0,0.0
162,40.25,93.5572,132.594,124.617,100.939,42.2826,0.0530481,1.19928,19.0865,5.29484,7.88438,0.0,0.0
165,41,93.9986,133.529,130.392,100.907,40.3634,0.0528716,1.2015,19.0864,5.1347,8.30238,0.0,0.0
168,41.75,94.4498,134.664,132.643,100.907,43.7958,0.0526621,1.20295,19.0864,4.97455,7.56291,0.0,0.0
171,42.5,95.2919,135.427,131.683,100.901,41.2246,0.0524198,1.20395,19.0875,4.83442,8.11058,0.0,0.0
174,43.25,95.9859,135.924,129.4,100.883,41.4133,0.052205,1.20255,19.0903,4.7043,8.06753,0.0,0.0
177,44,96.9575,137.383,124.402,100.876,40.4651,0.0518948,1.19953,19.0937,4.57418,8.27683,0.0,0.0
180,44.75,97.8191,138.659,138.334,100.854,42.6534,0.0516031,1.19508,19.0985,4.39402,7.79759,0.0,0.0
183,45.5,98.2813,138.713,130.239,100.86,40.2312,0.0511655,1.18946,19.1069,4.28392,8.32793,0.0,0.0
186,46.25,98.83,139.164,128.542,100.852,42.9219,0.0506394,1.18087,19.1176,4.12377,7.74053,0.0,0.0
189,47,99.3568,139.407,138.151,100.827,41.3817,0.0500284,1.1727,19.1297,3.98364,8.06946,0.0,0.0
192,47.75,99.6001,139.646,127.101,100.833,45.4413,0.0493446,1.15847,19.1573,3.84351,7.22207,0.0,0.0
195,48.5,100.308,139.752,133.825,100.828,44.6829,0.0483853,1.14025,19.1936,3.70339,7.37409,0.0,0.0
198,49.25,100.372,139.847,138.358,100.824,46.0843,0.047433,1.11956,19.227,3.53323,7.09395,0.0,0.0
201,50,100.128,139.587,126.896,100.812,45.1585,0.0463064,1.09315,19.2789,3.42313,7.27667,0.0,0.0
204,50.75,100.092,139.227,137.697,100.795,48.2201,0.0451298,1.05764,19.3167,3.33305,6.68081,0.0,0.0
207,51.5,100.019,138.315,134.363,100.804,46.7547,0.0436648,1.02084,19.3686,3.24297,6.96127,0.0,0.0
210,52.25,99.8679,137.063,141.071,100.812,49.9226,0.0418946,0.983653,19.4253,3.15288,6.36794,0.0,0.0
213,53,99.087,135.938,142.014,100.782,50.9277,0.0401566,0.94724,19.4871,3.04278,6.18465,0.0,0.0
216,53.75,98.2408,134.758,147.683,100.775,57.7111,0.0391345,0.904781,19.5337,2.97272,5.051,0.0,0.0
219,54.5,97.3269,132.863,139.432,100.783,54.4888,0.0374045,0.858517,19.615,2.85261,5.57231,0.0,0.0
222,55.25,96.5423,131.092,145.86,100.768,57.0941,0.0356667,0.818261,19.6861,2.74251,5.14773,0.0,0.0
225,56,95.6453,129.18,156.572,100.769,58.5825,0.0341966,0.773074,19.7572,2.67244,4.9147,0.0,0.0
228,56.75,94.5654,127.092,157.288,100.757,60.1445,0.0328184,0.73947,19.8173,2.6224,4.67514,0.0,0.0
231,57.5,93.5465,124.58,145.603,100.768,61.1145,0.0312895,0.695353,19.8837,2.57235,4.53117,0.0,0.0
234,58.25,91.8833,122.917,153.437,100.773,62.5134,0.0296885,0.654141,19.9407,2.49228,4.32653,0.0,0.0
237,59,91.0672,120.012,153.444,100.796,64.6151,0.0283139,0.624097,19.9968,2.43222,4.02901,0.0,0.0
240,59.75,89.6005,117.822,153.591,100.84,64.9335,0.0267881,0.58284,20.0467,2.33213,3.9884,0.0,0.0
243,60.5,88.1481,115.677,160.216,100.888,66.7398,0.0255044,0.549568,20.0985,2.32212,3.74409,0.0,0.0
246,61.25,87.121,113.378,153.412,100.93,68.4336,0.0242757,0.519849,20.155,2.24205,3.52081,0.0,0.0
249,62,85.2052,111.12,151.595,100.97,70.0537,0.0230639,0.491976,20.208,2.21202,3.31233,0.0,0.0
252,62.75,84.1594,108.464,152.61,101.01,69.634,0.0220024,0.46901,20.2556,2.192,3.37036,0.0,0.0
255,63.5,83.2458,106.502,156.085,101.039,74.0644,0.0210751,0.445889,20.2971,2.16198,2.81408,0.0,0.0
258,64.25,81.8239,104.31,155.662,101.093,71.5674,0.0202665,0.426136,20.3354,2.0819,3.12968,0.0,0.0
261,65,80.1969,102.399,163.327,101.114,72.0079,0.0195804,0.40943,20.3633,2.02185,3.07593,0.0,0.0
264,65.75,79.5362,101.326,159.891,101.149,75.1814,0.0189151,0.395421,20.388,1.9718,2.68836,0.0,0.0
267,66.5,78.1243,99.0491,157.105,101.189,73.7475,0.0182947,0.382694,20.4096,1.94178,2.8664,0.0,0.0
270,67.25,78.0597,97.1952,155.65,101.232,75.1235,0.0177271,0.37236,20.4268,1.93177,2.70274,0.0,0.0
273,68,77.3627,95.9272,154.281,101.27,77.1825,0.0172149,0.363022,20.4431,1.88172,2.46109,0.0,0.0
276,68.75,76.34,94.252,153.886,101.294,77.2298,0.0167148,0.35534,20.458,1.85169,2.45776,0.0,0.0
279,69.5,74.7074,92.124,159.493,101.315,76.5879,0.0162991,0.348246,20.4711,1.79164,2.5352,0.0,0.0
282,70.25,73.8269,90.808,158.491,101.342,79.8443,0.0159742,0.341906,20.4823,1.76161,2.16037,0.0,0.0
285,71,73.5507,89.9613,162.821,101.364,80.5437,0.0156398,0.336578,20.4913,1.69155,2.0833,0.0,0.0
288,71.75,72.7841,88.6884,157.227,101.4,78.3005,0.0153959,0.332137,20.4982,1.63149,2.34244,0.0,0.0
291,72.5,71.4905,87.9088,159.663,101.427,78.033,0.0150672,0.328463,20.5041,1.6415,2.37589,0.0,0.0
294,73.25,71.5,86.2185,159.525,101.454,76.6214,0.0147647,0.325565,20.5091,1.56143,2.54365,0.0,0.0
297,74,70.598,85.6861,155.589,101.484,78.8397,0.0144935,0.323359,20.5131,1.5314,2.28778,0.0,0.0
300,74.75,69.8962,84.5852,158.41,101.494,78.886,0.0142402,0.321394,20.5166,1.5314,2.28338,0.0,0.0
303,75.5,69.615,83.9535,152.985,101.511,78.6495,0.0140931,0.319617,20.5202,1.51138,2.31203,0.0,0.0
306,76.25,69.1614,83.0174,155.21,101.532,77.8783,0.0139076,0.317731,20.5243,1.44132,2.40326,0.0,0.0
309,77,68.5384,82.125,164.477,101.552,78.5294,0.0137461,0.315625,20.5279,1.41129,2.32959,0.0,0.0
312,77.75,68.1355,81.1372,161.038,101.565,79.1505,0.0135827,0.313482,20.531,1.38126,2.25939,0.0,0.0
315,78.5,67.2551,80.6891,161.908,101.571,79.6449,0.0134341,0.312298,20.5334,1.30119,2.20348,0.0,0.0
318,79.25,67.0712,79.9129,161.804,101.593,79.7349,0.0132755,0.31051,20.5352,1.29118,2.19519,0.0,0.0
321,80,67.3952,79.169,159.27,101.602,79.4374,0.0131599,0.308602,20.5377,1.24113,2.22988,0.0,0.0
324,80.75,66.6825,78.7053,163.204,101.63,84.0341,0.0129695,0.306954,20.5403,1.21111,1.72263,0.0,0.0
327,81.5,66.3247,78.1354,159.077,101.625,82.1882,0.0128049,0.30498,20.5424,1.17107,1.92348,0.0,0.0
330,82.25,65.5907,77.1859,163.203,101.627,81.5925,0.0126407,0.30354,20.5453,1.12102,1.98957,0.0,0.0
333,83,65.9532,76.5225,159.35,101.657,80.297,0.0124775,0.301859,20.5478,1.08099,2.13721,0.0,0.0
336,83.75,65.259,76.2728,163.669,101.649,79.8504,0.0123387,0.300363,20.5507,1.05096,2.18709,0.0,0.0
339,84.5,64.9836,75.9216,150.552,101.643,80.9176,0.0122235,0.298415,20.5544,1.04095,2.06628,0.0,0.0
342,85.25,65.3112,74.8757,161.627,101.642,81.7345,0.0121299,0.296412,20.559,0.990906,1.97515,0.0,0.0
345,86,64.5802,75.0967,156.809,101.65,81.7624,0.0120471,0.294581,20.5623,0.960879,1.97275,0.0,0.0
348,86.75,64.4807,74.8361,157.659,101.66,82.0132,0.0119617,0.293039,20.5648,0.910833,1.94588,0.0,0.0
351,87.5,64.3433,74.5085,157.797,101.655,82.4384,0.0118558,0.292178,20.5665,0.850778,1.89862,0.0,0.0
354,88.25,63.9479,73.7944,156.078,101.645,81.3296,0.011742,0.291687,20.5678,0.850778,2.0204,0.0,0.0
357,89,63.8952,73.4529,158.46,101.649,81.2767,0.0116281,0.291564,20.5688,0.840769,2.02667,0.0,0.0
360,89.75,63.3001,73.3271,161.924,101.634,80.3982,0.0115111,0.291297,20.5703,0.770705,2.12374,0.0,0.0
363,90.5,63.483,72.7101,158.06,101.623,80.4959,0.0114127,0.290798,20.5718,0.750686,2.11178,0.0,0.0
366,91.25,63.2429,72.7375,163.866,101.606,81.8967,0.0113318,0.290063,20.573,0.720659,1.95394,0.0,0.0
369,92,63.2585,72.5464,156.142,101.583,79.6586,0.0112669,0.289511,20.5738,0.650595,2.20299,0.0,0.0
372,92.75,62.8335,72.4583,162.846,101.583,83.7365,0.0112196,0.289167,20.5743,0.630577,1.75058,0.0,0.0
375,93.5,62.6296,71.6389,162.788,101.564,82.3672,0.0111852,0.289027,20.5748,0.610558,1.89832,0.0,0.0
378,94.25,61.9606,71.4465,157.21,101.533,82.9451,0.0111657,0.288968,20.5751,0.570522,1.83217,0.0,0.0
381,95,62.5613,71.4225,161.585,101.514,83.2004,0.0111543,0.288925,20.5752,0.520476,1.80266,0.0,0.0
384,95.75,62.1546,71.3295,165.411,101.512,82.3815,0.0111394,0.288829,20.5754,0.500458,1.89211,0.0,0.0
387,96.5,62.5835,71.5735,157.965,101.482,79.7934,0.0111206,0.288855,20.5756,0.47043,2.17861,0.0,0.0
390,97.25,62.4153,70.7926,159.503,101.445,80.5661,0.0111029,0.28904,20.5757,0.440403,2.08797,0.0,0.0
393,98,61.9867,71.0589,162.529,101.427,82.5936,0.0110888,0.289365,20.5757,0.390357,1.86122,0.0,0.0
396,98.75,61.8434,70.0869,155.855,101.405,79.9648,0.0110719,0.289619,20.5758,0.35032,2.15231,0.0,0.0
399,99.5,61.1749,70.3418,157.296,101.374,80.0513,0.0110568,0.289597,20.5758,0.290265,2.13971,0.0,0.0
402,100.25,61.5274,70.7464,158.796,101.331,81.1739,0.0110344,0.288815,20.5758,0.250229,2.00969,0.0,0.0
405,101,61.8317,69.7744,160.555,101.3,82.8189,0.0110103,0.288036,20.5759,0.280256,1.82517,0.0,0.0
408,101.75,61.573,69.8424,156.991,101.265,81.444,0.0109893,0.28711,20.5771,0.200183,1.97376,0.0,0.0
411,102.5,61.1675,69.8049,161.186,101.219,82.6246,0.010945,0.286205,20.5781,0.190174,1.83918,0.0,0.0
414,103.25,61.2474,69.384,162.437,101.177,85.1872,0.0109003,0.285448,20.5792,0.150137,1.55865,0.0,0.0
417,104,61.7359,69.2433,156.382,101.131,82.4171,0.0107954,0.284787,20.5803,0.110101,1.85406,0.0,0.0
420,104.75,60.8357,69.2438,162.46,101.095,82.4364,0.010657,0.283923,20.5813,0.0900824,1.84872,0.0,0.0
423,105.5,60.637,69.1921,158.374,101.056,82.9959,0.0105029,0.283131,20.584,0.0300275,1.78395,0.0,0.0
426,106.25,61.1165,69.6321,163.049,101.017,81.6551,0.0103616,0.281648,20.587,0.0100092,1.92805,0.0,0.0
429,107,60.3774,68.9422,160.705,101.022,84.3988,0.0102464,0.27902,20.5912,-0.0300275,1.62904,0.0,0.0
432,107.75,60.4911,68.6504,162.769,101.034,85.2986,0.0101287,0.276211,20.595,-0.0300275,1.53405,0.0,0.0
435,108.5,60.687,68.4714,159.86,101.054,84.2732,0.010038,0.273361,20.5989,-0.0700641,1.64542,0.0,0.0
438,109.25,60.4274,68.5756,157.797,101.055,86.1267,0.00996372,0.270563,20.6043,-0.100092,1.4484,0.0,0.0
441,110,60.7076,68.1059,160.15,101.068,85.2554,0.00988595,0.267545,20.6089,-0.140128,1.54164,0.0,0.0
444,110.75,60.5971,67.8359,164.685,101.083,86.1994,0.00979646,0.264927,20.6146,-0.140128,1.44327,0.0,0.0
447,111.5,60.3014,67.7864,160.825,101.121,85.235,0.00969235,0.262164,20.6207,-0.130119,1.54858,0.0,0.0
450,112.25,59.8659,67.4559,162.517,101.132,86.4538,0.00953066,0.259485,20.6264,-0.150137,1.42093,0.0,0.0
453,113,59.8153,67.651,155.993,101.137,87.8643,0.00934622,0.257021,20.6313,-0.210192,1.2747,0.0,0.0
456,113.75,59.3484,67.7666,164.422,101.163,89.6405,0.00918338,0.254138,20.636,-0.270247,1.09572,0.0,0.0
459,114.5,59.0877,67.4334,161.356,101.197,89.7534,0.00901513,0.251172,20.6404,-0.290265,1.08731,0.0,0.0
462,115.25,59.2044,67.4998,160.251,101.227,89.73,0.00887137,0.248251,20.6451,-0.290265,1.09237,0.0,0.0
465,116,59.9304,66.3678,162.962,101.225,91.6421,0.00874241,0.245454,20.6499,-0.300275,0.901168,0.0,0.0
468,116.75,58.8831,66.2812,164.462,101.258,90.2743,0.0086458,0.243001,20.6544,-0.320293,1.04034,0.0,0.0
471,117.5,58.4775,65.9689,162.565,101.278,90.5159,0.00858208,0.240506,20.6594,-0.360329,1.01793,0.0,0.0
474,118.25,58.7008,66.3081,159.125,101.308,90.9508,0.00853895,0.237816,20.6646,-0.340311,0.977196,0.0,0.0
477,119,58.6537,66.1168,157.986,101.329,91.0536,0.00850379,0.235088,20.6698,-0.400366,0.968811,0.0,0.0
480,119.75,58.7711,65.6436,166.833,101.345,93.3959,0.00846124,0.232423,20.6745,-0.430394,0.740176,0.0,0.0
483,120.5,58.4255,64.9581,165.253,101.39,92.991,0.00842301,0.229642,20.6788,-0.47043,0.783526,0.0,0.0
486,121.25,58.5887,64.9915,162.923,101.423,92.9244,0.00836843,0.227071,20.6819,-0.47043,0.792934,0.0,0.0
489,122,57.8718,65.019,164.44,101.415,94.4086,0.00828299,0.224966,20.6848,-0.500458,0.648685,0.0,0.0
492,122.75,58.4733,65.2174,159.581,101.444,93.5973,0.00815585,0.222346,20.6882,-0.540494,0.729468,0.0,0.0
495,123.5,57.7896,64.653,155.248,101.484,93.8852,0.00804403,0.220151,20.6912,-0.550503,0.705177,0.0,0.0
498,124.25,57.4567,64.0815,162.414,101.486,94.2113,0.00792981,0.218065,20.6953,-0.550503,0.673986,0.0,0.0
501,125,57.9308,64.4944,165.277,101.51,94.7591,0.00782065,0.215698,20.6996,-0.59054,0.62355,0.0,0.0
504,125.75,57.656,63.3128,163.13,101.533,95.4117,0.00773152,0.213399,20.7033,-0.560512,0.563458,0.0,0.0
507,126.5,57.6598,63.5375,161.953,101.567,94.8049,0.00765021,0.211356,20.7065,-0.570522,0.624255,0.0,0.0
510,127.25,57.2953,63.3693,162.351,101.593,96.1589,0.00757934,0.209561,20.7089,-0.620567,0.498076,0.0,0.0
513,128,56.7427,62.3685,162.051,101.617,97.0821,0.00750785,0.208123,20.711,-0.640586,0.413631,0.0,0.0
516,128.75,56.4905,62.8187,160.743,101.631,96.5648,0.00745055,0.206495,20.713,-0.670613,0.463366,0.0,0.0
519,129.5,56.4499,63.3092,158.534,101.638,97.2383,0.00740658,0.205308,20.7152,-0.670613,0.400944,0.0,0.0
522,130.25,56.2052,61.8498,164.543,101.664,98.0527,0.00736713,0.203286,20.7182,-0.720659,0.327766,0.0,0.0
525,131,56.555,61.9592,164.082,101.673,96.7627,0.00732931,0.201448,20.7218,-0.750686,0.448534,0.0,0.0
528,131.75,56.1884,61.8025,163.8,101.69,97.7108,0.0073006,0.199483,20.726,-0.730668,0.361652,0.0,0.0
531,132.5,56.1323,61.3165,162.837,101.721,97.517,0.00728433,0.197733,20.7291,-0.730668,0.382399,0.0,0.0
534,133.25,55.9925,61.4086,165.006,101.726,98.6107,0.00730942,0.196179,20.7318,-0.740677,0.281864,0.0,0.0
537,134,55.7218,61.0207,162.862,101.733,98.0888,0.00736141,0.194799,20.7344,-0.760696,0.330569,0.0,0.0
540,134.75,55.9055,61.0331,164.6,101.735,98.2297,0.00741368,0.193239,20.7371,-0.770705,0.317673,0.0,0.0
543,135.5,55.7391,60.7778,161.99,101.75,98.7846,0.00745474,0.191656,20.7384,-0.800732,0.267988,0.0,0.0
546,136.25,55.2828,60.515,166.396,101.757,99.0481,0.00752057,0.190092,20.7413,-0.810741,0.244512,0.0,0.0
549,137,55.2101,60.762,165.094,101.768,98.5954,0.00757412,0.188578,20.7438,-0.840769,0.28694,0.0,0.0
552,137.75,54.8756,60.1463,165.361,101.761,98.8874,0.00761056,0.187339,20.746,-0.850778,0.259597,0.0,0.0
555,138.5,54.5463,59.8912,161.6,101.768,98.8472,0.00763602,0.186542,20.748,-0.83076,0.26383,0.0,0.0
558,139.25,54.8495,59.6972,164.426,101.777,99.1432,0.00765458,0.185407,20.7501,-0.840769,0.237542,0.0,0.0
561,140,54.7814,59.5129,160.077,101.778,99.9403,0.00767922,0.18433,20.7521,-0.880805,0.165061,0.0,0.0
564,140.75,54.7735,59.4977,163.169,101.76,100.329,0.00770401,0.183274,20.7537,-0.890814,0.128316,0.0,0.0
567,141.5,54.16,59.0583,161.969,101.75,99.7963,0.00773377,0.182075,20.7562,-0.910833,0.17566,0.0,0.0
570,142.25,54.2508,59.1121,163.615,101.75,100.169,0.00778014,0.180844,20.7582,-0.910833,0.141953,0.0,0.0
573,143,53.9374,58.4649,163.309,101.754,99.8355,0.00782447,0.179795,20.76,-0.94086,0.172509,0.0,0.0
576,143.75,54.0261,58.5637,166.416,101.736,99.9622,0.00785362,0.178541,20.7612,-0.960879,0.159404,0.0,0.0
579,144.5,53.776,58.158,166.6,101.731,100.613,0.0078873,0.177447,20.7629,-0.950869,0.100137,0.0,0.0
582,145.25,53.668,58.1079,166.296,101.708,100.481,0.00790259,0.176341,20.7641,-0.94086,0.109996,0.0,0.0
585,146,53.7517,57.982,168.231,101.691,100.312,0.00789814,0.17508,20.7657,-0.990906,0.123694,0.0,0.0
588,146.75,53.8289,58.2304,168.57,101.677,101.292,0.00789031,0.174299,20.768,-0.990906,0.0343799,0.0,0.0
591,147.5,53.4915,58.0944,168.144,101.652,100.589,0.0078881,0.172828,20.7703,-0.980897,0.095276,0.0,0.0
594,148.25,53.3573,57.7124,164.69,101.631,100.968,0.00790317,0.171428,20.7733,-1.01092,0.05932,0.0,0.0
597,149,53.1523,57.6852,168.719,101.61,100.732,0.00791415,0.169844,20.7761,-1.03094,0.0786122,0.0,0.0
600,149.75,53.0015,57.6334,171.787,101.603,100.943,0.00794997,0.168123,20.7781,-1.04095,0.059056,0.0,0.0
603,150.5,53.1088,57.5236,164.229,101.556,100.541,0.00797608,0.166671,20.7802,-1.04095,0.0909739,0.0,0.0
606,151.25,52.5662,57.0664,166.79,101.522,101.44,0.00803962,0.165527,20.7821,-1.05096,0.00731188,0.0,0.0
609,152,52.795,56.8511,161.737,101.484,100.584,0.00810034,0.16431,20.784,-1.07098,0.080715,0.0,0.0
612,152.75,52.489,56.7241,168.756,101.467,100.877,0.00816919,0.163423,20.7857,-1.08099,0.0528489,0.0,0.0
615,153.5,52.4725,56.6619,166.619,101.428,101.261,0.00829185,0.162027,20.7889,-1.10101,0.0149187,0.0,0.0
618,154.25,53.0104,56.8448,169.104,101.398,101.143,0.00843213,0.16069,20.7916,-1.12102,0.0228295,0.0,0.0
621,155,52.1829,56.3777,164.451,101.369,100.958,0.00858015,0.159453,20.7938,-1.13103,0.0368502,0.0,0.0
624,155.75,51.9999,56.0329,170.726,101.33,101.067,0.00872918,0.158538,20.7954,-1.17107,0.0235266,0.0,0.0
627,156.5,52.2499,56.1762,167.8,101.277,101.571,0.0088571,0.157768,20.7965,-1.15105,-0.0262599,0.0,0.0
630,157.25,52.184,55.6142,171.462,101.232,101.331,0.00898329,0.157042,20.798,-1.2011,-0.00885082,0.0,0.0
633,158,51.4792,55.7894,169.713,101.203,101.415,0.00909954,0.155949,20.7999,-1.19109,-0.019021,0.0,0.0
636,158.75,51.6581,55.7394,163.795,101.137,101.485,0.00920261,0.155153,20.8019,-1.21111,-0.0310759,0.0,0.0
639,159.5,51.4586,55.1871,163.901,101.086,101.146,0.00929452,0.15371,20.8038,-1.22112,-0.00536349,0.0,0.0
642,160.25,51.5688,55.0789,168.556,101.036,100.897,0.00935224,0.152404,20.8052,-1.21111,0.012478,0.0,0.0
645,161,51.2722,55.1139,169.909,100.977,101.419,0.0094294,0.151352,20.8068,-1.23113,-0.0395335,0.0,0.0
648,161.75,51.0646,55.0397,169.272,100.965,100.983,0.00949563,0.150598,20.808,-1.24113,-0.00156907,0.0,0.0
651,162.5,50.8611,54.488,161.602,100.882,101.529,0.00955334,0.150068,20.8089,-1.26115,-0.0579844,0.0,0.0
654,163.25,50.8025,54.477,165.338,100.828,101.227,0.00959749,0.149679,20.8095,-1.25114,-0.0357161,0.0,0.0
657,164,50.6954,54.6168,169.154,100.801,101.064,0.0096332,0.149077,20.8106,-1.28117,-0.0235824,0.0,0.0
660,164.75,50.6535,54.81,169.168,100.739,101.365,0.0096499,0.148302,20.8118,-1.28117,-0.0561425,0.0,0.0
663,165.5,50.2036,53.8908,164.45,100.669,101.021,0.00965931,0.147593,20.8129,-1.30119,-0.0316282,0.0,0.0
666,166.25,50.5363,53.5727,164.424,100.613,101.281,0.00966146,0.146717,20.8143,-1.29118,-0.0599191,0.0,0.0
669,167,50.3162,53.603,162.008,100.576,100.835,0.00966115,0.145951,20.8153,-1.3112,-0.023276,0.0,0.0
672,167.75,50.4518,53.6038,169.868,100.514,100.779,0.00965831,0.14534,20.8161,-1.33122,-0.0237785,0.0,0.0
675,168.5,50.23,53.7872,167.893,100.467,100.838,0.00965512,0.144854,20.8166,-1.3112,-0.0333236,0.0,0.0
678,169.25,50.0598,53.34,169.761,100.417,101.132,0.0096528,0.144388,20.817,-1.35124,-0.0642455,0.0,0.0
681,170,50.0591,53.4235,170.984,100.36,100.99,0.0096511,0.144,20.8173,-1.34123,-0.0566604,0.0,0.0
684,170.75,49.5148,52.7855,169.488,100.323,101.004,0.00964986,0.143657,20.8175,-1.35124,-0.0613382,0.0,0.0
687,171.5,49.8706,53.1908,161.216,100.278,100.914,0.00965083,0.143352,20.8179,-1.36124,-0.0572381,0.0,0.0
690,172.25,49.7071,53.2614,166.996,100.226,101.158,0.00965361,0.143105,20.8186,-1.37125,-0.0837879,0.0,0.0
693,173,49.4554,53.1861,166.651,100.192,101.038,0.00965917,0.142566,20.8193,-1.39127,-0.076217,0.0,0.0
696,173.75,49.6366,53.3512,171.324,100.142,101.135,0.00966322,0.142047,20.8202,-1.40128,-0.0894336,0.0,0.0
699,174.5,49.3478,53.0956,165.654,100.113,100.74,0.0096886,0.141456,20.8211,-1.40128,-0.0566148,0.0,0.0
702,175.25,49.4268,52.683,166.39,100.061,101.042,0.00972415,0.140954,20.8217,-1.4213,-0.0884033,0.0,0.0
705,176,48.8723,52.3666,163.813,100.02,101.266,0.00975732,0.140559,20.8221,-1.4213,-0.112196,0.0,0.0
708,176.75,49.0593,52.306,167.688,99.9805,100.743,0.00982267,0.140285,20.8225,-1.43131,-0.0688401,0.0,0.0
711,177.5,49.1873,52.3346,172.37,99.9541,100.596,0.00987928,0.140135,20.8227,-1.4213,-0.0580018,0.0,0.0
714,178.25,48.8038,52.488,164.784,99.9132,100.669,0.00993591,0.140101,20.8229,-1.46134,-0.0683019,0.0,0.0
717,179,49.0307,51.989,163.626,99.8823,101.141,0.00998468,0.140017,20.823,-1.47135,-0.11345,0.0,0.0
720,179.75,49.2973,52.5349,171.984,99.8542,101.016,0.0100223,0.139955,20.8231,-1.48135,-0.104779,0.0,0.0
723,180.5,49.1399,52.3215,167.708,99.8385,100.411,0.0100533,0.139671,20.8232,-1.45133,-0.0518357,0.0,0.0
726,181.25,48.9408,52.2442,164.307,99.8059,100.697,0.0100946,0.139471,20.8232,-1.46134,-0.0805081,0.0,0.0
729,182,48.6025,51.5809,167.986,99.784,100.776,0.0101431,0.139338,20.8232,-1.47135,-0.0896322,0.0,0.0
732,182.75,49.076,51.6734,173.1,99.7589,100.825,0.0101863,0.139261,20.8233,-1.49136,-0.0963071,0.0,0.0
735,183.5,49.2689,52.0771,166.667,99.7486,100.507,0.0102572,0.139176,20.8239,-1.49136,-0.0686747,0.0,0.0
738,184.25,48.233,51.4032,169.804,99.7354,100.511,0.0103116,0.139041,20.8244,-1.48135,-0.0701952,0.0,0.0
741,185,48.4535,51.9089,166.798,99.7238,100.769,0.010356,0.138905,20.8247,-1.5314,-0.0944634,0.0,0.0
744,185.75,48.8971,52.0036,169.007,99.7172,100.987,0.0103621,0.138764,20.825,-1.5314,-0.114664,0.0,0.0
747,186.5,48.5858,51.9524,170.191,99.7155,100.732,0.0103535,0.138643,20.8252,-1.52139,-0.0918737,0.0,0.0
750,187.25,48.6149,51.8172,168.381,99.7032,100.648,0.0103247,0.138476,20.8253,-1.5314,-0.0854921,0.0,0.0
753,188,48.4832,51.6588,165.532,99.6928,100.526,0.0102774,0.138158,20.8258,-1.5314,-0.0753875,0.0,0.0
756,188.75,48.0743,51.4271,168.648,99.7081,100.996,0.0102458,0.137747,20.8264,-1.56143,-0.116265,0.0,0.0
759,189.5,47.9552,51.3264,167.054,99.7184,100.814,0.0102274,0.137285,20.8268,-1.55142,-0.0990204,0.0,0.0
762,190.25,48.3141,51.5778,167.945,99.7234,100.816,0.0102515,0.137073,20.8276,-1.59146,-0.0987539,0.0,0.0
765,191,47.7865,51.3875,163.849,99.7279,101.362,0.0102809,0.136972,20.8283,-1.56143,-0.147262,0.0,0.0
768,191.75,47.8299,50.8608,169.924,99.7275,100.91,0.0103224,0.136979,20.8288,-1.58145,-0.106833,0.0,0.0
771,192.5,48.372,50.9707,162.712,99.7502,100.774,0.0103376,0.136885,20.8292,-1.61147,-0.0925218,0.0,0.0
774,193.25,47.9694,51.164,169.394,99.7692,101.139,0.0103363,0.136776,20.8295,-1.61147,-0.123577,0.0,0.0
777,194,47.8744,50.9185,164.542,99.775,100.736,0.010314,0.136557,20.8297,-1.62148,-0.0868426,0.0,0.0
780,194.75,48.2718,50.8056,167.644,99.8034,100.587,0.0102847,0.136434,20.8299,-1.63149,-0.0708876,0.0,0.0
783,195.5,47.8186,50.75,167.555,99.8282,100.568,0.0102685,0.136407,20.83,-1.6415,-0.0669438,0.0,0.0
786,196.25,47.9489,51.1869,171.553,99.8583,100.867,0.010259,0.136429,20.83,-1.63149,-0.0910264,0.0,0.0
789,197,47.9128,50.8147,164.204,99.8736,100.718,0.0102707,0.136379,20.8301,-1.63149,-0.0762889,0.0,0.0
792,197.75,46.1464,49.5046,169.462,99.9037,100.775,0.0103112,0.136241,20.8301,-1.65151,-0.0787259,0.0,0.0
795,198.5,45.7309,49.6224,167.012,99.933,101.871,0.0103685,0.136028,20.8303,-1.68154,-0.174005,0.0,0.0
798,199.25,46.2109,48.6981,167.563,99.9635,101.399,0.010431,0.135791,20.8305,-1.65151,-0.129198,0.0,0.0
801,200,46.1082,49.1956,169.392,100.002,100.944,0.0104921,0.135481,20.8307,-1.67153,-0.0849943,0.0,0.0
804,200.75,45.7308,48.9111,169.302,100.026,101.241,0.0105563,0.135321,20.8308,-1.68154,-0.109414,0.0,0.0
807,201.5,45.7043,48.6267,166.486,100.08,101.046,0.0106226,0.135318,20.8309,-1.70156,-0.0870575,0.0,0.0
810,202.25,45.1906,49.0757,166.315,100.125,101.116,0.0106899,0.135414,20.8309,-1.71157,-0.0892329,0.0,0.0
813,203,45.6897,48.5576,172.138,100.145,100.991,0.0107616,0.135503,20.831,-1.72157,-0.076266,0.0,0.0
816,203.75,46.1055,48.9694,165.555,100.199,101.225,0.0108131,0.135531,20.831,-1.71157,-0.0922627,0.0,0.0
819,204.5,45.477,48.745,169.836,100.243,101.033,0.0108495,0.13557,20.831,-1.74159,-0.0711717,0.0,0.0
822,205.25,45.7331,49.2425,166.601,100.288,101.464,0.0108739,0.135607,20.8311,-1.73158,-0.105663,0.0,0.0
825,206,45.5335,48.9689,168.042,100.333,101.775,0.0108882,0.135646,20.8311,-1.76161,-0.129312,0.0,0.0
828,206.75,44.7475,48.5332,170.392,100.365,101.462,0.0108967,0.135655,20.8311,-1.77162,-0.098512,0.0,0.0
831,207.5,45.9294,48.4231,170.291,100.403,101.576,0.010887,0.135646,20.8311,-1.77162,-0.105173,0.0,0.0
834,208.25,45.2225,48.4883,169.369,100.46,101.211,0.0108655,0.135615,20.8311,-1.79164,-0.0674427,0.0,0.0
837,209,45.5318,48.7656,165.374,100.494,101.41,0.0108367,0.135578,20.8309,-1.78163,-0.0822247,0.0,0.0
840,209.75,44.9288,48.5041,169.425,100.535,101.211,0.0107895,0.135487,20.8311,-1.78163,-0.0607172,0.0,0.0
843,210.5,45.0121,48.4045,168.189,100.561,101.826,0.0107353,0.13532,20.8315,-1.81166,-0.113263,0.0,0.0
846,211.25,44.9799,47.9425,163.328,100.627,102.613,0.0106874,0.135072,20.8318,-1.81166,-0.177143,0.0,0.0
849,212,44.7803,48.2326,169.422,100.64,101.527,0.0106433,0.134859,20.832,-1.82167,-0.0794658,0.0,0.0
852,212.75,45.6347,48.1022,166.466,100.684,101.68,0.0106107,0.134741,20.8322,-1.82167,-0.0891445,0.0,0.0
855,213.5,45.12,48.588,167.828,100.716,101.691,0.0105928,0.134695,20.8323,-1.81166,-0.0872385,0.0,0.0
858,214.25,44.9669,47.9918,165.335,100.757,101.765,0.010589,0.134648,20.8323,-1.84168,-0.0902147,0.0,0.0
861,215,45.3834,48.1346,169.88,100.8,101.7,0.0105901,0.134608,20.8324,-1.85169,-0.0805577,0.0,0.0
864,215.75,45.2612,48.2201,169.756,100.824,102.339,0.010591,0.134538,20.8324,-1.8617,-0.135194,0.0,0.0
867,216.5,45.0856,47.9426,173.087,100.87,101.958,0.0105765,0.13451,20.8325,-1.85169,-0.0972094,0.0,0.0
870,217.25,45.0676,48.8456,166.24,100.904,101.87,0.0105687,0.134527,20.8325,-1.8617,-0.0863388,0.0,0.0
873,218,45.0412,47.9071,170.294,100.925,102.113,0.0105641,0.134619,20.8325,-1.88172,-0.106058,0.0,0.0
876,218.75,44.5984,48.1154,165.542,100.949,101.903,0.0105962,0.134644,20.8325,-1.88172,-0.0852865,0.0,0.0
879,219.5,44.8239,48.3991,174.308,100.962,101.498,0.0106348,0.134644,20.8325,-1.87171,-0.0480272,0.0,0.0
882,220.25,45.2263,48.2491,169.65,100.996,102.277,0.0106866,0.134605,20.8325,-1.92176,-0.114173,0.0,0.0
885,221,45.0847,48.4888,171.251,101.028,101.972,0.0107646,0.134635,20.833,-1.92176,-0.0842807,0.0,0.0
888,221.75,44.9745,48.3169,171.333,101.031,101.887,0.0108459,0.134757,20.8333,-1.93177,-0.0765165,0.0,0.0
891,222.5,44.9104,48.4306,167.729,101.062,101.733,0.0109038,0.134846,20.8336,-1.96179,-0.0599789,0.0,0.0
894,223.25,44.8486,48.277,167.406,101.072,101.853,0.0109436,0.134911,20.8337,-1.98181,-0.0697479,0.0,0.0
897,224,45.1821,48.7004,166.234,101.088,101.958,0.0109444,0.134903,20.8339,-1.99182,-0.0776963,0.0,0.0
900,224.75,45.0751,48.3487,165.155,101.102,102.272,0.010936,0.134873,20.834,-2.00183,-0.104259,0.0,0.0
903,225.5,44.8898,47.9612,166.146,101.103,102.017,0.0109145,0.134851,20.834,-2.00183,-0.0815702,0.0,0.0
906,226.25,44.6068,48.2824,164.988,101.109,101.968,0.0108918,0.134765,20.8341,-2.00183,-0.0766315,0.0,0.0
909,227,44.9734,48.1899,167.378,101.117,101.869,0.0108635,0.134622,20.8341,-2.01184,-0.0671565,0.0,0.0
912,227.75,44.7354,47.9896,160.334,101.127,102.066,0.0108334,0.134429,20.8341,-1.99182,-0.0837241,0.0,0.0
915,228.5,44.6114,48.3002,173.025,101.128,102.591,0.0108101,0.134289,20.8342,-2.00183,-0.130215,0.0,0.0
918,229.25,44.7419,47.8373,166.641,101.126,102.329,0.010788,0.134187,20.8342,-2.02185,-0.107114,0.0,0.0
921,230,44.5837,47.3529,165.995,101.135,102.118,0.0107671,0.13414,20.8342,-2.03186,-0.0875897,0.0,0.0
924,230.75,44.8139,47.913,167.954,101.13,102.364,0.0107481,0.134118,20.8342,-2.03186,-0.109889,0.0,0.0
927,231.5,44.489,48.0119,170.809,101.114,101.963,0.010733,0.133923,20.8344,-2.06189,-0.0757726,0.0,0.0
930,232.25,44.814,47.8559,166.535,101.12,102.333,0.0107214,0.133628,20.835,-2.05188,-0.108029,0.0,0.0
933,233,45.0564,47.7949,162.79,101.112,101.927,0.0107054,0.133339,20.8354,-2.04187,-0.0727113,0.0,0.0
936,233.75,44.5094,47.973,167.774,101.093,102.022,0.0106938,0.133117,20.8357,-2.05188,-0.0829011,0.0,0.0
939,234.5,44.6705,47.9454,162.616,101.082,102.758,0.0106853,0.133034,20.8359,-2.0819,-0.149006,0.0,0.0
942,235.25,44.4411,47.8888,166.35,101.062,102.049,0.0106791,0.13303,20.8361,-2.09191,-0.0880696,0.0,0.0
945,236,44.1672,47.6746,164.848,101.053,101.943,0.0106825,0.13305,20.8362,-2.09191,-0.0795295,0.0,0.0
948,236.75,44.139,47.8679,169.699,101.056,101.486,0.0106932,0.133065,20.8363,-2.09191,-0.0384525,0.0,0.0
951,237.5,44.9072,47.6019,170.433,101.03,101.991,0.0107093,0.132978,20.8364,-2.11193,-0.0857772,0.0,0.0
954,238.25,44.723,47.6568,170.705,100.994,101.783,0.0107285,0.132873,20.8364,-2.12194,-0.07045,0.0,0.0
957,239,44.7027,47.5773,166.293,100.978,101.996,0.0107425,0.132817,20.8364,-2.14196,-0.0908933,0.0,0.0
960,239.75,44.1999,47.679,172.993,100.967,101.97,0.010749,0.132835,20.8365,-2.15197,-0.0895798,0.0,0.0
963,240.5,44.4291,47.6051,174.795,100.95,102.591,0.0107524,0.132821,20.8365,-2.16198,-0.146119,0.0,0.0
966,241.25,44.7116,48.0038,166.452,100.928,101.714,0.0107543,0.132799,20.8365,-2.17199,-0.070297,0.0,0.0
969,242,43.9424,47.8369,167.197,100.914,101.567,0.0107651,0.132802,20.8365,-2.17199,-0.0584606,0.0,0.0
972,242.75,43.695,47.2643,168.016,100.913,101.943,0.0107706,0.132812,20.8365,-2.16198,-0.0919621,0.0,0.0
975,243.5,44.3877,47.5967,166.921,100.898,101.717,0.0108108,0.132832,20.8363,-2.17199,-0.0731925,0.0,0.0
978,244.25,44.0282,47.9495,164.866,100.885,102.042,0.0108441,0.132818,20.8361,-2.17199,-0.103331,0.0,0.0
981,245,44.0462,47.5247,170.462,100.871,101.774,0.0108672,0.132797,20.8359,-2.192,-0.0807571,0.0,0.0
984,245.75,43.8339,47.2627,170.075,100.858,101.549,0.0108794,0.132674,20.8358,-2.21202,-0.0618672,0.0,0.0
987,246.5,43.9271,47.7983,171.175,100.849,102.361,0.0108695,0.132452,20.8357,-2.21202,-0.134795,0.0,0.0
990,247.25,43.9367,47.3046,166.32,100.806,101.979,0.0108303,0.132152,20.8357,-2.21202,-0.104892,0.0,0.0
993,248,43.9318,47.4275,167.937,100.814,101.894,0.0107585,0.131854,20.8356,-2.23204,-0.0965178,0.0,0.0
996,248.75,44.1325,47.3636,165.498,100.809,101.773,0.0106773,0.131637,20.8356,-2.22203,-0.0863104,0.0,0.0
999,249.5,43.835,47.2863,166.248,100.789,101.352,0.0106057,0.131479,20.8356,-2.23204,-0.0504333,0.0,0.0
1002,250.25,43.9232,46.946,169.009,100.772,101.723,0.0105161,0.131371,20.8356,-2.23204,-0.0851644,0.0,0.0
1005,251,43.6939,47.4302,165.409,100.751,101.809,0.0104402,0.131304,20.8356,-2.23204,-0.0945916,0.0,0.0
1008,251.75,43.8433,47.3019,166.104,100.741,101.474,0.0103804,0.131177,20.8355,-2.25206,-0.0657196,0.0,0.0
1011,252.5,43.7584,47.2252,169.063,100.737,101.84,0.0103555,0.131111,20.8355,-2.25206,-0.0986513,0.0,0.0
1014,253.25,43.7761,47.7281,167.799,100.724,101.492,0.0103374,0.131076,20.8355,-2.28209,-0.0688303,0.0,0.0
1017,254,43.5139,47.5865,168.569,100.731,101.6,0.0103992,0.131228,20.8355,-2.27208,-0.0778303,0.0,0.0
1020,254.75,43.5393,48.1329,173.98,100.725,101.503,0.0104825,0.131367,20.8355,-2.31211,-0.0697272,0.0,0.0
1023,255.5,44.0045,47.5434,168.889,100.792,101.929,0.0105594,0.131481,20.8355,-2.2921,-0.101596,0.0,0.0
1026,256.25,43.6782,47.7284,169.397,100.862,101.894,0.0106531,0.131623,20.8355,-2.2921,-0.0922081,0.0,0.0
1029,257,43.7382,47.5927,165.967,100.943,101.779,0.0107283,0.131727,20.8355,-2.31211,-0.0746801,0.0,0.0
1032,257.75,44.0647,47.5446,170.098,101.015,102.059,0.0107943,0.131822,20.8355,-2.32212,-0.0932366,0.0,0.0
1035,258.5,44.1128,47.8224,169.531,101.086,102.105,0.0108412,0.131947,20.8355,-2.33213,-0.09089,0.0,0.0
1038,259.25,43.6652,46.4257,167.287,101.152,101.906,0.0108736,0.132033,20.8355,-2.32212,-0.0672332,0.0,0.0
1041,260,43.8216,47.3713,164.97,101.202,102.661,0.0108971,0.132045,20.8355,-2.34214,-0.129632,0.0,0.0
1044,260.75,43.7212,46.9862,165.392,101.256,102.191,0.0109025,0.132013,20.8355,-2.35215,-0.0832532,0.0,0.0
1047,261.5,43.9247,47.234,168.213,101.309,102.543,0.0108916,0.132,20.8355,-2.37217,-0.109692,0.0,0.0
1050,262.25,44.0885,47.255,171.54,101.358,102.429,0.0108671,0.132041,20.8355,-2.38218,-0.095264,0.0,0.0
1053,263,43.3884,47.2908,165.547,101.394,102.523,0.0108135,0.131988,20.8355,-2.38218,-0.100376,0.0,0.0
1056,263.75,43.1118,46.8932,168.779,101.432,102.839,0.010756,0.131913,20.8355,-2.39219,-0.124777,0.0,0.0
1059,264.5,43.3443,46.9564,166.477,101.481,102.764,0.0107049,0.131878,20.8355,-2.4022,-0.113882,0.0,0.0
1062,265.25,43.3028,47.2692,169.653,101.499,102.474,0.0106652,0.131895,20.8355,-2.41221,-0.0866529,0.0,0.0
1065,266,43.5688,47.0379,170.343,101.524,102.747,0.0106363,0.131881,20.8355,-2.42221,-0.108445,0.0,0.0
1068,266.75,43.2741,47.2142,167.615,101.555,102.534,0.0106455,0.131795,20.8355,-2.42221,-0.0869582,0.0,0.0
1071,267.5,43.7141,46.9375,168.225,101.582,102.172,0.0106651,0.131636,20.8355,-2.43222,-0.0524675,0.0,0.0
1074,268.25,43.6686,47.2481,169.22,101.6,102.476,0.010717,0.131478,20.8355,-2.42221,-0.0777753,0.0,0.0
1077,269,43.3267,47.1668,168.442,101.601,102.577,0.0107583,0.131363,20.8355,-2.42221,-0.0865656,0.0,0.0
1080,269.75,43.2668,47.4469,168.395,101.62,102.454,0.0107943,0.131279,20.8355,-2.43222,-0.0740741,0.0,0.0
1083,270.5,43.8132,47.0601,167.673,101.624,102.845,0.010798,0.131148,20.8355,-2.45224,-0.108199,0.0,0.0
1086,271.25,43.9019,47.3164,166.856,101.632,102.522,0.010777,0.131023,20.8355,-2.45224,-0.078952,0.0,0.0
1089,272,43.6435,47.3522,169.614,101.617,102.622,0.0107426,0.130852,20.8355,-2.47226,-0.08921,0.0,0.0
1092,272.75,43.5064,47.6076,169.494,101.614,102.757,0.0107021,0.130895,20.8355,-2.45224,-0.101399,0.0,0.0
1095,273.5,43.0485,47.2854,165.278,101.608,102.498,0.0106673,0.131049,20.8355,-2.46225,-0.0790174,0.0,0.0
1098,274.25,43.3862,47.3988,168.752,101.607,102.455,0.0106323,0.131248,20.8355,-2.5123,-0.0753047,0.0,0.0
1101,275,43.5663,47.4685,167.684,101.586,102.943,0.0106433,0.131255,20.8355,-2.47226,-0.120184,0.0,0.0
1104,275.75,43.6567,47.5042,168.361,101.564,102.551,0.0106706,0.131105,20.8355,-2.50229,-0.0876235,0.0,0.0
1107,276.5,43.5311,46.7496,164.989,101.552,102.352,0.0107153,0.130833,20.8362,-2.50229,-0.0710645,0.0,0.0
1110,277.25,43.4915,46.9875,167.609,101.523,102.288,0.0107912,0.130442,20.8366,-2.50229,-0.0679667,0.0,0.0
1113,278,43.6866,47.0946,165.382,101.487,102.344,0.010857,0.13028,20.8369,-2.50229,-0.076126,0.0,0.0
1116,278.75,44.0299,46.8034,164.306,101.453,102.555,0.0109047,0.130073,20.8372,-2.53232,-0.0978542,0.0,0.0
1119,279.5,43.5837,47.2634,169.515,101.429,102.262,0.0109311,0.129991,20.8374,-2.54232,-0.0741503,0.0,0.0
1122,280.25,43.3124,46.5404,171.846,101.397,102.239,0.0109278,0.129961,20.837,-2.56234,-0.0749246,0.0,0.0
1125,281,43.2826,46.8488,167.249,101.362,101.922,0.0109254,0.130039,20.8366,-2.57235,-0.0498772,0.0,0.0
1128,281.75,43.6304,47.2285,167.492,101.308,102.18,0.0108936,0.130109,20.8363,-2.56234,-0.0777361,0.0,0.0
1131,282.5,43.3098,46.86,168.847,101.262,102.011,0.0108585,0.130174,20.8361,-2.57235,-0.0668007,0.0,0.0
1134,283.25,42.8927,46.6043,164.615,101.222,102.052,0.0108279,0.130233,20.836,-2.59237,-0.0739603,0.0,0.0
1137,284,44.0556,47.3518,172.061,101.161,102.083,0.0107887,0.130235,20.8358,-2.59237,-0.0822656,0.0,0.0
1140,284.75,43.2734,46.9035,167.236,101.093,101.917,0.0107457,0.130219,20.8357,-2.58236,-0.0735165,0.0,0.0
1143,285.5,43.2455,46.7007,166.335,101.043,102.373,0.0107019,0.130028,20.8357,-2.57235,-0.118503,0.0,0.0
1146,286.25,43.3951,46.8396,166.185,101.02,101.833,0.0106593,0.12975,20.8363,-2.60238,-0.0726367,0.0,0.0
1149,287,43.2124,46.8236,171.034,101.037,101.63,0.0106245,0.129437,20.8367,-2.61239,-0.0530058,0.0,0.0
1152,287.75,43.3576,46.8975,170.595,101.03,101.84,0.0105991,0.129121,20.837,-2.60238,-0.0723372,0.0,0.0
1155,288.5,43.3816,46.9154,168.15,101.046,101.993,0.0105806,0.12899,20.8372,-2.60238,-0.0845151,0.0,0.0
1158,289.25,43.2994,46.8005,169.549,101.055,101.927,0.0105465,0.128992,20.8374,-2.63241,-0.0778532,0.0,0.0
1161,290,43.0047,46.6476,170.785,101.093,102.273,0.0105006,0.129034,20.8377,-2.63241,-0.105191,0.0,0.0
1164,290.75,43.0922,47.3154,168.565,101.1,102.277,0.0104582,0.129065,20.8379,-2.63241,-0.104923,0.0,0.0
1167,291.5,43.6609,46.7232,168.186,101.121,102.054,0.0103785,0.129088,20.8381,-2.65243,-0.0832772,0.0,0.0
1170,292.25,43.2349,46.9057,170.543,101.135,102.235,0.0102994,0.128973,20.8382,-2.67244,-0.0979644,0.0,0.0
1173,293,43.3433,46.6014,164.355,101.171,102.05,0.0102328,0.128664,20.8383,-2.67244,-0.0783239,0.0,0.0
1176,293.75,42.9999,46.6211,168.585,101.192,102.201,0.0101806,0.12834,20.8385,-2.69246,-0.0899621,0.0,0.0
1179,294.5,43.1962,47.0597,165.729,101.207,102.033,0.010149,0.128117,20.8392,-2.71248,-0.0736189,0.0,0.0
1182,295.25,42.8968,46.7701,170.952,101.227,102.248,0.0101288,0.127961,20.8396,-2.71248,-0.0908513,0.0,0.0
1185,296,42.9745,47.2338,167.437,101.253,102.054,0.0101272,0.127875,20.8399,-2.72249,-0.0713334,0.0,0.0
1188,296.75,43.261,47.2879,170.512,101.277,102.116,0.0101194,0.127879,20.8395,-2.7325,-0.074819,0.0,0.0
1191,297.5,42.9988,47.3799,171.204,101.289,102.298,0.010111,0.127906,20.8392,-2.71248,-0.0897734,0.0,0.0
1194,298.25,43.1168,47.4409,170.971,101.329,102.165,0.0100898,0.127946,20.839,-2.71248,-0.0744558,0.0,0.0
1197,299,43.0677,46.8515,170.707,101.352,102.299,0.0100705,0.127989,20.8389,-2.7325,-0.0842921,0.0,0.0
1200,299.75,42.8164,46.9027,171.765,101.381,102.056,0.0100547,0.128046,20.8388,-2.76253,-0.0601936,0.0,0.0
1203,300.5,43.6316,46.6213,164.265,101.383,102.764,0.0100526,0.128206,20.8387,-2.74251,-0.122619,0.0,0.0
1206,301.25,43.8627,47.3805,168.565,101.427,102.487,0.010072,0.128323,20.8386,-2.76253,-0.0941523,0.0,0.0
1209,302,43.1263,47.4202,164.49,101.442,102.36,0.0100951,0.128408,20.8386,-2.76253,-0.0816661,0.0,0.0
1212,302.75,43.0403,46.8182,165.713,101.461,102.305,0.010154,0.128387,20.8386,-2.75252,-0.0750161,0.0,0.0
1215,303.5,43.6552,47.3601,167.81,101.479,102.135,0.0102301,0.128328,20.8385,-2.75252,-0.058372,0.0,0.0
1218,304.25,43.2886,46.983,175.88,101.512,102.53,0.0103116,0.128273,20.8385,-2.78254,-0.0904651,0.0,0.0
1221,305,43.0311,46.6742,170.511,101.544,102.684,0.0103737,0.128372,20.8385,-2.80256,-0.101158,0.0,0.0
1224,305.75,43.2747,46.9926,166.649,101.561,102.417,0.0104083,0.128503,20.8385,-2.80256,-0.0760166,0.0,0.0
1227,306.5,42.92,46.8825,167.322,101.578,102.51,,0.12854,,-2.82258,-0.0826934,0.0,0.0
1230,307.25,42.9145,47.0404,170.413,101.596,102.535,,0.128552,,-2.81257,-0.083396,0.0,0.0
1233,308,43.0824,46.8574,171.113,101.624,102.503,,0.128577,,-2.81257,-0.0780608,0.0,0.0
1236,308.75,42.8565,46.5253,172.011,101.655,102.633,,0.128633,,-2.80256,-0.0868055,0.0,0.0
1239,309.5,43.149,47.1499,173.012,101.65,102.57,,,,-2.82258,-0.0816765,0.0,0.0
1242,310.25,42.972,46.7577,168.231,101.667,102.641,,,,-2.82258,-0.0864577,0.0,0.0
1245,311,42.7882,46.904,167.055,101.685,102.423,,,,-2.85261,-0.0654738,0.0,0.0
1248,311.75,42.6766,47.1461,168.992,101.713,103.002,,,,-2.86262,-0.114165,0.0,0.0
1251,312.5,42.9732,46.6581,165.994,101.712,102.584,,,,-2.87263,-0.0773003,0.0,0.0
1254,313.25,43.0762,47.4417,166.738,101.714,102.806,,,,-2.90265,-0.0967214,0.0,0.0
1257,314,42.7053,47.1542,167.909,101.715,102.724,,,,-2.96271,-0.0893911,0.0,0.0
1260,314.75,42.9854,47.096,167.876,101.723,102.616,,,,-2.90265,-0.0791749,0.0,0.0
1263,315.5,42.9965,46.938,170.562,101.738,102.561,,,,-2.89264,-0.0730368,0.0,0.0
1266,316.25,43.0475,46.885,172.121,101.752,102.705,,,,-2.8426,-0.0844224,0.0,0.0
1268,316.75,42.5642,46.8247,165.403,101.751,102.669,,,,-2.85261,-0.0813909,0.0,0.0