File: 01_Data/Rubber_Band/Cone/Rubber_Band_Cone_HF100-FrameScan_201103_R1.csv
Names,Time,Stack TC,Smoke TC,Exh Press,Smoke Comp,Smoke Meas,CO Meter,CO2 Meter,O2 Meter,Sample Mass,Ext Coeff,Start Test,Flame Verif
Chan Gain,,500,500,1,1,1,1,1,1,1,1,1.0,1.0
Offset,,0,0,0.134413,0,0,0,0,0,0,0,0.0,0.0
Gain,,1,1,25.011,13.8462,17.0661,1,1,1,1.0009,1.04998,1.0,1.0
Units,sec,C,C,Pa,%,%,%,%,%,g,/m,,
Baseline,,45.8544,51.3879,171.617,101.702,103.868,0.00388409,0.0813797,20.9793,-940.429,-0.194043,,
3,0.5,42.4979,46.1152,173.068,102.746,104.702,0.00466486,0.0878307,20.9714,-15.1436,-0.17361,0.0,0.0
6,1.25,41.2769,44.7474,172.883,102.752,104.546,0.00485072,0.0907907,20.9681,-15.1135,-0.15937,0.0,0.0
9,2,41.4596,45.1227,174.107,102.745,103.006,0.0050514,0.0941052,20.9613,-15.1235,-0.0233278,0.0,0.0
12,2.75,41.808,45.0261,166.987,102.747,105.262,0.00577342,0.108501,20.945,-15.1536,-0.222745,0.0,1.0
15,3.5,41.7515,45.828,169.717,102.75,104.538,0.00671953,0.128704,20.9158,-15.1436,-0.15891,0.0,1.0
18,4.25,42.4986,46.985,160.27,102.753,96.7366,0.00812702,0.160033,20.8731,-15.2837,0.555696,0.0,1.0
21,5,42.9917,48.6973,151.707,102.76,80.8616,0.0104952,0.223082,20.7622,-15.3037,2.20737,0.0,1.0
24,5.75,44.7885,50.5055,151.388,102.761,69.0937,0.0137138,0.306508,20.6441,-15.4138,3.65601,0.0,1.0
27,6.5,46.7116,53.5712,144.501,102.756,58.6779,0.0175718,0.402074,20.4944,-15.624,5.1605,0.0,1.0
30,7.25,48.1765,57.6167,141.539,102.754,50.0802,0.0218813,0.519653,20.2861,-15.7841,6.61962,0.0,1.0
33,8,51.0378,62.3307,131.288,102.755,41.3081,0.0262533,0.644843,20.1343,-15.9643,8.39335,0.0,0.0
36,8.75,54.2878,68.5022,128.07,102.762,39.7295,0.0315446,0.768684,19.9439,-16.0744,8.7528,0.0,0.0
39,9.5,57.8343,74.2477,132.303,102.751,35.7817,0.0378478,0.890741,19.7474,-16.3346,9.71575,0.0,0.0
42,10.25,61.0585,79.7013,130.263,102.761,35.1989,0.0441146,0.993268,19.5532,-16.4848,9.86794,0.0,0.0
45,11,64.5646,85.8047,136.796,102.782,33.4177,0.0502748,1.11618,19.3664,-16.755,10.3481,0.0,0.0
48,11.75,68.6763,92.2162,127.151,102.765,31.2392,0.0562687,1.23312,19.1517,-16.9852,10.9675,0.0,0.0
51,12.5,72.1953,99.5496,124.401,102.756,30.1111,0.062651,1.3419,18.9545,-17.2555,11.3054,0.0,0.0
54,13.25,75.8107,105.135,122.936,102.765,26.2627,0.0690546,1.4415,18.7935,-17.4356,12.5656,0.0,0.0
57,14,79.4232,110.898,115.031,102.752,24.2961,0.0752498,1.54266,18.643,-17.7859,13.2814,0.0,0.0
60,14.75,82.2946,116.759,122.303,102.761,29.497,0.0807356,1.63485,18.5193,-18.0061,11.4957,0.0,0.0
63,15.5,86.1161,123.856,115.415,102.77,25.393,0.0863925,1.70992,18.3867,-18.2664,12.8763,0.0,0.0
66,16.25,89.7747,129.322,121.715,102.762,28.7528,0.09124,1.79093,18.2795,-18.5166,11.7311,0.0,0.0
69,17,93.8521,135.403,103.19,102.758,25.6518,0.0946961,1.84999,18.197,-18.7668,12.7819,0.0,0.0
72,17.75,96.8724,141.062,121.076,102.76,26.6346,0.0970824,1.88524,18.1368,-18.997,12.4357,0.0,0.0
75,18.5,100.305,146.149,120.145,102.755,27.6908,0.0983782,1.90269,18.0955,-19.2272,12.0771,0.0,0.0
78,19.25,102.578,150.005,111.805,102.762,27.646,0.0985641,1.90133,18.07,-19.4274,12.0926,0.0,0.0
81,20,105.523,154.685,114.718,102.776,29.3986,0.0980534,1.88403,18.0662,-19.7077,11.5278,0.0,0.0
84,20.75,107.732,157.214,127.08,102.752,27.1382,0.0973164,1.87141,18.0703,-19.8778,12.2625,0.0,0.0
87,21.5,108.849,159.702,121.003,102.753,27.2028,0.0967791,1.85825,18.0734,-20.1781,12.2407,0.0,0.0
90,22.25,110.858,162.162,120.911,102.755,25.5065,0.0961752,1.85157,18.0796,-20.3482,12.8339,0.0,0.0
93,23,112.149,164.283,116.504,102.747,24.3659,0.0957001,1.8462,18.0858,-20.5784,13.2545,0.0,0.0
96,23.75,114.026,167.299,122.195,102.747,26.118,0.0952942,1.8393,18.0947,-20.7686,12.615,0.0,0.0
99,24.5,115.567,170.265,115.279,102.745,25.9325,0.0948334,1.82728,18.1052,-21.0188,12.6804,0.0,0.0
102,25.25,117.851,172.259,106.917,102.749,25.8602,0.0944273,1.81554,18.1197,-21.189,12.7065,0.0,0.0
105,26,118.366,173.6,120.298,102.74,26.819,0.0936372,1.80586,18.1311,-21.4292,12.3704,0.0,0.0
108,26.75,120.249,175.57,122.085,102.744,25.7529,0.0925061,1.79581,18.146,-21.5793,12.7444,0.0,0.0
111,27.5,122.228,177.159,121.338,102.744,26.0523,0.0911086,1.78336,18.1675,-21.8296,12.6379,0.0,0.0
114,28.25,123.117,178.48,135.039,102.739,31.6527,0.0895149,1.75808,18.2169,-22.0798,10.844,0.0,0.0
117,29,124.027,179.52,124.093,102.735,31.3287,0.0872182,1.72416,18.2655,-22.28,10.9385,0.0,0.0
120,29.75,124.902,180.621,131.5,102.729,30.7683,0.0845764,1.68472,18.3227,-22.3801,11.1041,0.0,0.0
123,30.5,124.878,180.509,111.516,102.723,31.948,0.0818236,1.63042,18.4061,-22.6403,10.7571,0.0,0.0
126,31.25,125.203,180.827,123.727,102.722,33.1974,0.0787476,1.57125,18.4805,-22.7804,10.4037,0.0,0.0
129,32,125.092,180.49,132.787,102.73,35.6156,0.0754807,1.51977,18.558,-22.9906,9.75679,0.0,0.0
132,32.75,125.607,179.174,122.296,102.725,36.2104,0.0721264,1.45408,18.6663,-23.0807,9.60376,0.0,0.0
135,33.5,125.519,179.061,128.273,102.713,38.3848,0.0681021,1.39561,18.7793,-23.2508,9.06559,0.0,0.0
138,34.25,124.578,177.829,131.178,102.713,39.9316,0.0644583,1.33487,18.8763,-23.3709,8.70175,0.0,0.0
141,35,124.044,175.953,132.438,102.723,43.1049,0.0605877,1.25909,18.9968,-23.491,7.99827,0.0,0.0
144,35.75,123.386,173.869,130.511,102.718,46.6981,0.0569428,1.1823,19.0848,-23.6212,7.26038,0.0,0.0
147,36.5,122.472,170.655,138.177,102.699,48.5069,0.052878,1.11712,19.1977,-23.7112,6.9087,0.0,0.0
150,37.25,121.13,168.279,137.452,102.705,49.899,0.0485465,1.03406,19.3216,-23.8514,6.64865,0.0,0.0
153,38,119.653,165.686,142.498,102.711,57.1977,0.0445902,0.960414,19.4494,-23.9615,5.39184,0.0,0.0
156,38.75,118.174,162.013,142.619,102.699,55.0989,0.0410191,0.884339,19.5764,-24.0115,5.73508,0.0,0.0
159,39.5,116.267,158.584,152.077,102.691,60.5789,0.037823,0.809381,19.7227,-24.1116,4.86101,0.0,0.0
162,40.25,114.775,155.161,148.46,102.697,63.3825,0.0349049,0.746422,19.8293,-24.1717,4.44486,0.0,0.0
165,41,112.591,151.231,150.411,102.686,66.7136,0.0325268,0.683501,19.9395,-24.2217,3.97218,0.0,0.0
168,41.75,110.628,148.02,153.883,102.692,67.7323,0.0300401,0.629222,20.0279,-24.2918,3.83305,0.0,0.0
171,42.5,109.19,144.439,149.669,102.671,70.7374,0.0279062,0.579922,20.1062,-24.3818,3.43136,0.0,0.0
174,43.25,106.792,141.102,154.582,102.678,74.9498,0.025498,0.541362,20.176,-24.4319,2.89928,0.0,0.0
177,44,105.089,137.909,155.454,102.671,74.192,0.0235141,0.509825,20.2322,-24.4519,2.99223,0.0,0.0
180,44.75,103.57,134.476,151.788,102.664,73.7941,0.0216776,0.480974,20.2889,-24.512,3.04115,0.0,0.0
183,45.5,101.16,132.01,157.548,102.668,75.5592,0.0200291,0.456323,20.3356,-24.542,2.82375,0.0,0.0
186,46.25,99.3677,129.123,157.305,102.64,76.3164,0.0185922,0.436811,20.3792,-24.572,2.7294,0.0,0.0
189,47,98.4358,126.087,152.582,102.646,78.8528,0.0173681,0.418765,20.4216,-24.6521,2.42884,0.0,0.0
192,47.75,97.165,123.435,158.426,102.648,81.2991,0.0162372,0.404723,20.4564,-24.7221,2.14763,0.0,0.0
195,48.5,94.9631,121.451,155.554,102.641,80.4121,0.0153385,0.39297,20.4855,-24.7722,2.24798,0.0,0.0
198,49.25,93.7808,118.84,155.208,102.638,81.9017,0.0145562,0.382807,20.5103,-24.7922,2.07871,0.0,0.0
201,50,92.7519,117.367,154.678,102.631,82.9907,0.0138212,0.374018,20.5297,-24.7622,1.95636,0.0,0.0
204,50.75,91.5147,114.675,155.686,102.637,84.2829,0.0131672,0.366414,20.5463,-24.8322,1.81467,0.0,0.0
207,51.5,90.4506,113.342,154.434,102.629,84.7209,0.0126082,0.359324,20.5614,-24.9423,1.76613,0.0,0.0
210,52.25,89.0977,111.242,158.666,102.623,85.3469,0.0121215,0.353586,20.5734,-24.9924,1.69787,0.0,0.0
213,53,88.28,109.291,154.938,102.608,85.6521,0.011701,0.348431,20.5837,-25.0324,1.66363,0.0,0.0
216,53.75,87.014,107.646,157.234,102.618,86.8146,0.0113398,0.34388,20.5937,-25.0725,1.54037,0.0,0.0
219,54.5,86.5057,106.028,155.458,102.625,85.9604,0.0109902,0.339976,20.6015,-25.1325,1.63201,0.0,0.0
222,55.25,85.9202,104.604,156.08,102.613,85.6885,0.0107353,0.336703,20.6079,-25.1726,1.66016,0.0,0.0
225,56,84.7341,103.471,164.639,102.604,87.2583,0.0104447,0.333598,20.6135,-25.2426,1.49213,0.0,0.0
228,56.75,83.9111,102.597,156.215,102.603,88.9301,0.0102328,0.330952,20.6179,-25.2526,1.31722,0.0,0.0
231,57.5,84.2146,100.828,160.035,102.604,87.0026,0.00993251,0.328372,20.6226,-25.2726,1.51916,0.0,0.0
234,58.25,83.0982,99.6658,159.881,102.59,87.6926,0.00967038,0.324682,20.6279,-25.3227,1.44514,0.0,0.0
237,59,82.1944,98.6217,156.512,102.599,88.0869,0.00944504,0.321992,20.6336,-25.3627,1.40458,0.0,0.0
240,59.75,81.1628,98.1113,159.671,102.601,90.9379,0.00925369,0.317961,20.6403,-25.4228,1.1114,0.0,0.0
243,60.5,81.3961,96.4479,160.081,102.574,88.3796,0.00908251,0.314883,20.6456,-25.4228,1.37179,0.0,0.0
246,61.25,80.6748,95.1325,156.405,102.578,89.6306,0.00894948,0.312401,20.6506,-25.4628,1.24271,0.0,0.0
249,62,79.9665,94.5366,159.723,102.573,88.5093,0.00883288,0.309905,20.6558,-25.5329,1.35825,0.0,0.0
252,62.75,79.4765,94.1684,160.795,102.573,89.2061,0.00873849,0.307201,20.6603,-25.5329,1.28598,0.0,0.0
255,63.5,79.0861,93.1788,160.512,102.563,89.7697,0.0086525,0.304268,20.6635,-25.5329,1.22711,0.0,0.0
258,64.25,78.724,93.0804,156.018,102.556,89.2681,0.00856045,0.30113,20.6665,-25.6029,1.2781,0.0,0.0
261,65,77.7792,92.4072,153.293,102.552,89.8035,0.00849335,0.298051,20.6699,-25.643,1.22261,0.0,0.0
264,65.75,77.9936,91.2793,157.967,102.585,89.4218,0.00836819,0.295936,20.6727,-25.673,1.26488,0.0,0.0
267,66.5,77.9772,90.8641,162.512,102.541,88.7056,0.00824748,0.294616,20.6749,-25.703,1.33495,0.0,0.0
270,67.25,77.616,89.2186,154.76,102.535,88.1796,0.00810911,0.293653,20.6772,-25.7431,1.3892,0.0,0.0
273,68,76.858,89.3497,155.48,102.535,88.6556,0.00794703,0.292582,20.6792,-25.7931,1.33962,0.0,0.0
276,68.75,76.832,89.0724,150.208,102.527,87.9926,0.00777952,0.291353,20.6809,-25.8432,1.40803,0.0,0.0
279,69.5,75.9288,89.0311,159.106,102.54,87.8838,0.00761657,0.289959,20.6822,-25.8832,1.42057,0.0,0.0
282,70.25,75.4683,88.53,159.986,102.525,86.975,0.00746392,0.288575,20.6849,-25.9032,1.51499,0.0,0.0
285,71,75.6386,87.6515,156.761,102.533,88.8051,0.00733422,0.287199,20.6872,-25.9332,1.32387,0.0,0.0
288,71.75,75.2783,87.0231,157.003,102.512,88.6155,0.00720817,0.285838,20.6892,-25.9533,1.34173,0.0,0.0
291,72.5,75.4591,86.865,161.171,102.506,87.288,0.00712922,0.284188,20.6916,-25.9833,1.48023,0.0,0.0
294,73.25,74.669,86.501,161.206,102.508,89.3041,0.00710797,0.28232,20.6941,-26.0533,1.27007,0.0,0.0
297,74,74.9619,86.0278,156.078,102.499,88.3926,0.00712638,0.280299,20.6968,-26.0634,1.36372,0.0,0.0
300,74.75,74.8066,85.5492,157.992,102.493,89.9947,0.0071579,0.278567,20.699,-26.0934,1.19775,0.0,0.0
303,75.5,74.4204,85.0891,157.533,102.488,89.4134,0.0072164,0.277098,20.7016,-26.1334,1.25697,0.0,0.0
306,76.25,73.9968,84.9954,154.684,102.493,89.2525,0.0072718,0.275863,20.7034,-26.1534,1.27406,0.0,0.0
309,77,73.6767,84.6148,157.979,102.488,89.7483,0.00731793,0.274269,20.7057,-26.2335,1.22254,0.0,0.0
312,77.75,73.9332,83.9512,158.009,102.483,91.0733,0.00735155,0.273319,20.7077,-26.2435,1.0871,0.0,0.0
315,78.5,73.7934,83.6645,153.216,102.479,89.9223,0.00733902,0.272046,20.7094,-26.2835,1.20391,0.0,0.0
318,79.25,73.4574,83.4398,155.839,102.476,89.6827,0.00730263,0.27092,20.711,-26.3036,1.22821,0.0,0.0
321,80,73.3044,83.3777,158.745,102.468,89.6801,0.0072522,0.270014,20.7126,-26.3436,1.22776,0.0,0.0
324,80.75,73.0033,83.1041,162.06,102.446,90.5842,0.00719442,0.268684,20.7144,-26.3736,1.13343,0.0,0.0
327,81.5,73.0507,82.8552,161.256,102.468,91.3035,0.00713196,0.267254,20.7174,-26.3936,1.06252,0.0,0.0
330,82.25,72.2202,82.5951,154.474,102.459,89.3655,0.00708125,0.265422,20.7211,-26.4337,1.25933,0.0,0.0
333,83,72.5726,82.6013,163.368,102.451,90.6592,0.00704411,0.263077,20.7249,-26.4437,1.12626,0.0,0.0
336,83.75,72.4773,81.9763,164.119,102.451,91.0514,0.00702054,0.261051,20.7283,-26.4837,1.08647,0.0,0.0
339,84.5,72.0483,81.3285,158.607,102.442,90.791,0.00701564,0.259463,20.7308,-26.5037,1.11205,0.0,0.0
342,85.25,71.9555,81.3604,157.186,102.449,90.1842,0.00703307,0.258346,20.7327,-26.5538,1.17442,0.0,0.0
345,86,71.7433,80.9046,155.896,102.439,90.965,0.00707537,0.257472,20.734,-26.5838,1.09415,0.0,0.0
348,86.75,71.9378,80.6606,155.201,102.435,91.7186,0.00710833,0.256809,20.7349,-26.5938,1.01778,0.0,0.0
351,87.5,71.4101,80.6359,159.401,102.435,90.7144,0.00713597,0.255919,20.7357,-26.6038,1.11917,0.0,0.0
354,88.25,71.3485,80.6682,157.469,102.432,91.3045,0.00715611,0.254962,20.7368,-26.6339,1.05915,0.0,0.0
357,89,71.162,80.2778,161.406,102.462,92.4472,0.00714486,0.253737,20.7385,-26.6439,0.947334,0.0,0.0
360,89.75,70.8608,80.0894,159.402,102.432,92.218,0.00711535,0.252382,20.74,-26.7039,0.967535,0.0,0.0
363,90.5,71.2977,79.7959,158.698,102.416,91.4644,0.00707634,0.251197,20.7424,-26.744,1.04163,0.0,0.0
366,91.25,70.7023,79.3942,158.405,102.416,91.8977,0.0070091,0.249931,20.7451,-26.794,0.998137,0.0,0.0
369,92,70.7847,79.2213,160.32,102.42,90.8748,0.00696007,0.248323,20.7474,-26.804,1.10157,0.0,0.0
372,92.75,70.3891,79.0414,160.192,102.415,92.0644,0.00684311,0.246917,20.7495,-26.8641,0.981335,0.0,0.0
375,93.5,69.9996,78.5801,161.192,102.421,92.8102,0.00671777,0.245817,20.7514,-26.8641,0.907554,0.0,0.0
378,94.25,70.0177,78.7683,158.769,102.41,92.4113,0.00659707,0.244983,20.7532,-26.9041,0.946205,0.0,0.0
381,95,69.9925,78.5686,157.137,102.414,94.1294,0.00648816,0.243958,20.7558,-26.9241,0.776911,0.0,0.0
384,95.75,69.7315,78.3414,159.923,102.402,93.3826,0.00640692,0.242712,20.759,-26.9241,0.849254,0.0,0.0
387,96.5,69.3385,77.7505,158.633,102.397,94.0909,0.00634634,0.241255,20.7621,-26.9642,0.779124,0.0,0.0
390,97.25,69.7519,77.9878,159.622,102.396,94.8992,0.00629985,0.23962,20.7648,-26.9842,0.700262,0.0,0.0
393,98,69.6442,77.556,159.356,102.401,95.6268,0.00625305,0.238117,20.7672,-26.9942,0.630373,0.0,0.0
396,98.75,69.4107,77.5954,161.186,102.394,96.709,0.00621344,0.23602,20.7697,-27.0042,0.526149,0.0,0.0
399,99.5,69.2842,77.4982,160.779,102.39,96.5856,0.00616431,0.233693,20.7729,-27.0342,0.537495,0.0,0.0
402,100.25,69.4255,77.003,162.348,102.402,97.9517,0.00612075,0.230862,20.7766,-27.0642,0.409276,0.0,0.0
405,101,68.9548,76.9314,161.806,102.416,98.0048,0.00607959,0.228314,20.781,-27.0542,0.405499,0.0,0.0
408,101.75,68.7522,76.5837,162.103,102.44,98.0517,0.00603913,0.225781,20.7854,-27.0642,0.403221,0.0,0.0
411,102.5,68.2901,76.6264,161.525,102.469,98.971,0.00598941,0.223646,20.7899,-27.1043,0.319898,0.0,0.0
414,103.25,68.5731,75.915,162.272,102.493,98.9199,0.00594286,0.221337,20.7942,-27.0943,0.326851,0.0,0.0
417,104,68.43,75.7807,155.369,102.517,99.3725,0.00590452,0.219006,20.7982,-27.1143,0.286932,0.0,0.0
420,104.75,68.2073,75.7913,163.918,102.554,100.918,0.00587474,0.217,20.8016,-27.1743,0.148113,0.0,0.0
423,105.5,68.1936,75.7205,159.078,102.57,99.8761,0.00585981,0.215261,20.8042,-27.1944,0.245115,0.0,0.0
426,106.25,67.655,75.0135,160.059,102.596,100.06,0.00586052,0.213743,20.8065,-27.2344,0.230568,0.0,0.0
429,107,67.7069,75.1007,158.696,102.614,100.707,0.00588684,0.212505,20.8086,-27.2344,0.172724,0.0,0.0
432,107.75,67.6271,74.7834,158.547,102.645,100.421,0.00591702,0.211547,20.8105,-27.2544,0.201765,0.0,0.0
435,108.5,67.2792,74.5693,162.926,102.667,100.006,0.0059703,0.210536,20.8123,-27.2544,0.241849,0.0,0.0
438,109.25,67.2342,74.3995,159.414,102.69,100.712,0.00601561,0.209607,20.8139,-27.3045,0.179157,0.0,0.0
441,110,66.9569,74.2047,163.642,102.722,100.755,0.00604731,0.208602,20.8162,-27.2945,0.178133,0.0,0.0
444,110.75,66.7142,73.8536,163.918,102.732,101.286,0.00606344,0.207622,20.8179,-27.3345,0.130569,0.0,0.0
447,111.5,66.7786,73.4458,161.7,102.753,102.098,0.00605936,0.206802,20.8203,-27.3345,0.0589233,0.0,0.0
450,112.25,66.7684,73.6821,158.092,102.776,101.835,0.00602071,0.205686,20.8227,-27.3445,0.0847168,0.0,0.0
453,113,66.5641,73.1157,161.995,102.796,101.497,0.00600096,0.204697,20.8239,-27.3545,0.117126,0.0,0.0
456,113.75,66.4538,73.2826,161.714,102.826,102.736,0.00593585,0.203902,20.826,-27.3845,0.00805883,0.0,0.0
459,114.5,66.1635,72.9178,163.021,102.849,102.634,0.00588194,0.202774,20.8275,-27.4046,0.0192974,0.0,0.0
462,115.25,66.1526,72.7705,162.392,102.861,102.794,0.00584464,0.201816,20.8285,-27.4146,0.00601049,0.0,0.0
465,116,66.1027,72.5096,162.123,102.88,102.955,0.00582557,0.200979,20.83,-27.4046,-0.00677089,0.0,0.0
468,116.75,65.9375,72.4265,164.979,102.9,103.037,0.00582086,0.199677,20.8327,-27.4546,-0.0123148,0.0,0.0
471,117.5,65.4282,72.4547,167.484,102.919,103.96,0.00581471,0.198155,20.8355,-27.4546,-0.0926573,0.0,0.0
474,118.25,65.5921,72.2971,164.787,102.94,103.985,0.00580559,0.196777,20.8382,-27.4646,-0.0930188,0.0,0.0
477,119,65.7589,71.8039,164.218,102.962,103.99,0.00577891,0.195599,20.8394,-27.4746,-0.0915067,0.0,0.0
480,119.75,65.033,71.4059,163.942,102.988,104.397,0.00574809,0.194492,20.8408,-27.4846,-0.125211,0.0,0.0
483,120.5,65.0205,71.0691,162.454,103.003,104.943,0.00570888,0.193386,20.8422,-27.4946,-0.171842,0.0,0.0
486,121.25,64.8344,71.068,169.308,103.024,104.506,0.0056779,0.192232,20.8437,-27.5147,-0.131561,0.0,0.0
489,122,64.8167,71.2558,164.782,103.048,105.045,0.00567767,0.191539,20.8451,-27.5547,-0.176785,0.0,0.0
492,122.75,64.5746,70.445,158.789,103.056,105.17,0.00570185,0.190579,20.8468,-27.5046,-0.18702,0.0,0.0
495,123.5,64.6448,70.8479,164.621,103.085,104.879,0.00575556,0.189812,20.8485,-27.5147,-0.158883,0.0,0.0
498,124.25,64.6087,70.4878,163.174,103.102,105.09,0.00582641,0.188555,20.8499,-27.5347,-0.175887,0.0,0.0
501,125,64.4132,70.3613,162.596,103.118,105.296,0.00590592,0.187236,20.8515,-27.5547,-0.192502,0.0,0.0
504,125.75,64.4835,70.4462,165.6,103.131,105.092,0.00599336,0.185974,20.8531,-27.5847,-0.173419,0.0,0.0
507,126.5,64.3053,69.7152,166.204,103.15,105.596,0.00605709,0.184835,20.8545,-27.6047,-0.215876,0.0,0.0
510,127.25,63.9176,69.5204,163.324,103.158,105.22,0.0061054,0.183656,20.856,-27.5947,-0.182347,0.0,0.0
513,128,63.8746,69.7282,162,103.169,105.229,0.0061311,0.182496,20.8572,-27.5647,-0.182103,0.0,0.0
516,128.75,64.0741,70.0857,168.433,103.18,104.627,0.00613357,0.181522,20.8587,-27.5947,-0.128274,0.0,0.0
519,129.5,63.8738,69.4825,160.275,103.205,105.845,0.00612246,0.180975,20.8598,-27.6348,-0.23263,0.0,0.0
522,130.25,63.312,68.9948,164.788,103.211,105.113,0.00611532,0.180645,20.8606,-27.6147,-0.168244,0.0,0.0
525,131,62.9433,68.49,166.916,103.218,106.043,0.00611965,0.18052,20.8612,-27.6548,-0.248622,0.0,0.0
528,131.75,63.3871,68.6456,170.123,103.238,105.099,0.00613443,0.180171,20.8623,-27.6748,-0.164561,0.0,0.0
531,132.5,63.1019,68.3947,163.567,103.252,105.728,0.00617099,0.179806,20.8635,-27.6948,-0.218243,0.0,0.0
534,133.25,62.849,68.2006,165.34,103.247,106.295,0.00619764,0.179194,20.8646,-27.6948,-0.267927,0.0,0.0
537,134,62.5183,68.3884,165.148,103.266,105.789,0.00624287,0.178645,20.8653,-27.7248,-0.222389,0.0,0.0
540,134.75,62.9714,68.1029,164.794,103.257,106.041,0.00627584,0.17823,20.8659,-27.7248,-0.244972,0.0,0.0
543,135.5,63.0889,68.2481,160.855,103.273,105.516,0.00630357,0.177922,20.8663,-27.7649,-0.197911,0.0,0.0
546,136.25,61.9664,67.2197,162.707,103.284,105.552,0.0063199,0.177534,20.8666,-27.7749,-0.200068,0.0,0.0
549,137,62.3439,67.3766,162.489,103.291,105.832,0.00632675,0.177251,20.8668,-27.7849,-0.223838,0.0,0.0
552,137.75,62.0768,67.1818,160.658,103.283,105.93,0.00632593,0.177002,20.8675,-27.7649,-0.233079,0.0,0.0
555,138.5,62.5649,67.92,160.242,103.299,106.117,0.00631242,0.176802,20.8681,-27.8049,-0.247882,0.0,0.0
558,139.25,61.6826,67.0817,161.504,103.322,105.944,0.00629706,0.176656,20.8685,-27.8049,-0.230797,0.0,0.0
561,140,62.1327,67.1274,173.491,103.311,105.479,0.00627682,0.176448,20.869,-27.8349,-0.191247,0.0,0.0
564,140.75,61.6546,66.7132,165.411,103.308,106,0.00626207,0.176182,20.8694,-27.8449,-0.237004,0.0,0.0
567,141.5,62.1056,67.3088,167.941,103.315,106.429,0.00626973,0.175939,20.8703,-27.875,-0.273488,0.0,0.0
570,142.25,61.8435,66.9251,159.649,103.324,106.356,0.006296,0.17532,20.8709,-27.895,-0.266385,0.0,0.0
573,143,61.1215,66.4451,164.893,103.315,105.682,0.00632396,0.17468,20.8714,-27.895,-0.208627,0.0,0.0
576,143.75,61.838,66.9243,167.582,103.314,106.521,0.00636831,0.173461,20.8724,-27.875,-0.281546,0.0,0.0
579,144.5,61.3068,66.7505,161.484,103.321,106.511,0.00640434,0.172633,20.8731,-27.885,-0.280042,0.0,0.0
582,145.25,61.0435,66.1147,161.122,103.311,106.68,0.00642801,0.172131,20.8739,-27.885,-0.295572,0.0,0.0
585,146,61.7521,66.7621,167.105,103.324,105.927,0.00644281,0.17188,20.8748,-27.925,-0.22919,0.0,0.0
588,146.75,61.0313,66.3611,168.174,103.322,106.443,0.00645126,0.171722,20.8749,-27.945,-0.274065,0.0,0.0
591,147.5,60.6223,65.631,168.332,103.323,106.077,0.00646219,0.171569,20.8749,-27.935,-0.242299,0.0,0.0
594,148.25,60.9524,65.9211,163.583,103.313,106.345,0.00647831,0.17158,20.875,-27.955,-0.266417,0.0,0.0
597,149,60.9711,66.1086,167.78,103.314,106.305,0.00651773,0.171602,20.8754,-27.945,-0.262868,0.0,0.0
600,149.75,60.7638,65.7592,163.693,103.31,105.448,0.00656351,0.171526,20.8759,-27.945,-0.188638,0.0,0.0
603,150.5,60.3414,65.5489,165.469,103.324,106.009,0.006626,0.171304,20.8763,-27.9751,-0.236343,0.0,0.0
606,151.25,60.6317,65.6156,167.59,103.307,105.96,0.00669617,0.170772,20.8768,-28.0051,-0.233594,0.0,0.0
609,152,60.7047,65.6502,164.58,103.301,105.725,0.0067701,0.170226,20.8776,-27.9951,-0.213683,0.0,0.0
612,152.75,60.5889,65.8327,168.267,103.319,106.28,0.006845,0.1693,20.8788,-27.9851,-0.260249,0.0,0.0
615,153.5,60.4721,65.3271,166.12,103.31,105.221,0.00691775,0.168505,20.8799,-28.0051,-0.168866,0.0,0.0
618,154.25,60.3544,65.3592,163.361,103.292,105.931,0.00697853,0.167721,20.8811,-28.0151,-0.232333,0.0,0.0
621,155,59.7792,65.4416,166.195,103.298,106.104,0.00703394,0.166744,20.8819,-28.0151,-0.246835,0.0,0.0
624,155.75,59.4637,64.3872,162.702,103.292,105.546,0.0070757,0.165957,20.8826,-28.0551,-0.198769,0.0,0.0
627,156.5,59.7768,64.302,166.063,103.283,105.499,0.00710848,0.165255,20.883,-28.0551,-0.195544,0.0,0.0
630,157.25,59.4707,64.2693,164.181,103.28,106.476,0.00713052,0.16507,20.8834,-28.0952,-0.280716,0.0,0.0
633,158,59.4447,63.5561,161.631,103.273,106.572,0.00714659,0.165075,20.8836,-28.0852,-0.289604,0.0,0.0
636,158.75,59.4487,64.0563,164.711,103.268,105.748,0.00712685,0.165687,20.8838,-28.0752,-0.218617,0.0,0.0
639,159.5,59.342,63.7074,164.142,103.261,106.086,0.00710496,0.166304,20.884,-28.1252,-0.248606,0.0,0.0
642,160.25,59.0193,64.2533,162.922,103.25,106.313,0.00707616,0.166826,20.8835,-28.1352,-0.26928,0.0,0.0
645,161,59.262,64.1446,162.08,103.242,105.797,0.0070435,0.166866,20.8831,-28.1152,-0.22518,0.0,0.0
648,161.75,59.2651,64.0612,166.429,103.22,105.725,0.00701472,0.166749,20.8828,-28.1252,-0.220881,0.0,0.0
651,162.5,58.9197,64.013,163.88,103.227,105.648,0.0069842,0.166501,20.8826,-28.1552,-0.213523,0.0,0.0
654,163.25,59.4197,64.0879,161.359,103.215,105.878,0.00694562,0.166463,20.8825,-28.1452,-0.234572,0.0,0.0
657,164,58.7381,63.7423,169.05,103.193,105.817,0.00691195,0.166679,20.8824,-28.1853,-0.231231,0.0,0.0
660,164.75,59.342,64.1717,176.589,103.165,105.105,0.00690034,0.166896,20.8823,-28.2053,-0.171541,0.0,0.0
663,165.5,59.0499,63.4556,166.063,103.164,106.013,0.0069021,0.167156,20.8822,-28.2453,-0.250916,0.0,0.0
666,166.25,59.002,63.7824,169.244,103.153,105.278,0.00692088,0.167033,20.8822,-28.2453,-0.187813,0.0,0.0
669,167,59.334,63.5029,165.039,103.14,105.569,0.00695492,0.166743,20.8822,-28.2353,-0.214381,0.0,0.0
672,167.75,58.7871,63.8778,168.608,103.123,105.414,0.00697324,0.166416,20.8821,-28.2353,-0.202423,0.0,0.0
675,168.5,59.061,63.7459,159.404,103.113,105.973,0.00698384,0.166583,20.8821,-28.2453,-0.252034,0.0,0.0
678,169.25,59.0334,64.2059,165.564,103.106,105.251,0.00696305,0.166919,20.8819,-28.2553,-0.189678,0.0,0.0
681,170,59.4275,63.7401,162.983,103.076,105.616,0.00692211,0.167217,20.8813,-28.2653,-0.224131,0.0,0.0
684,170.75,58.6993,63.8328,163.27,103.068,105.596,0.00686896,0.16737,20.8809,-28.2553,-0.223206,0.0,0.0
687,171.5,58.6921,63.5067,161.465,103.052,105.665,0.00681468,0.167425,20.8806,-28.2553,-0.230598,0.0,0.0
690,172.25,58.8302,64.0164,164.906,103.03,105.424,0.00678229,0.167441,20.8804,-28.2353,-0.211601,0.0,0.0
693,173,58.9825,63.9245,161.383,103.005,105.465,0.00674672,0.167352,20.8803,-28.2653,-0.217341,0.0,0.0
696,173.75,59.073,64.1044,167.977,103.001,105.62,0.00673373,0.167238,20.8801,-28.2553,-0.231301,0.0,0.0
699,174.5,58.8757,63.956,162.048,102.986,105.502,0.00673728,0.167142,20.8803,-28.2753,-0.22227,0.0,0.0
702,175.25,58.8163,63.8615,165.298,102.956,105.671,0.00675268,0.167121,20.8808,-28.3054,-0.239749,0.0,0.0
705,176,58.7084,64.2032,163.567,102.964,105.119,0.00677141,0.16715,20.8811,-28.3154,-0.190794,0.0,0.0
708,176.75,59.1289,63.8607,161.651,102.924,105.341,0.00679788,0.167261,20.8814,-28.3154,-0.213759,0.0,0.0
711,177.5,58.603,64.2082,162.18,102.908,104.9,0.00682273,0.167361,20.8816,-28.3154,-0.176591,0.0,0.0
714,178.25,58.7367,64.1067,165.635,102.885,105.638,0.00683566,0.167382,20.8817,-28.3554,-0.243211,0.0,0.0
717,179,58.8141,63.7534,161.553,102.862,105.124,0.00683946,0.167308,20.8818,-28.3954,-0.200364,0.0,0.0
720,179.75,58.5978,63.5962,168.193,102.842,105.651,0.00683641,0.167098,20.8819,-28.4355,-0.248281,0.0,0.0
723,180.5,58.8805,64.002,164.711,102.812,105.067,0.00682253,0.166847,20.8819,-28.3954,-0.199885,0.0,0.0
726,181.25,58.7652,63.8224,165.021,102.788,105.357,0.00680744,0.166614,20.882,-28.4255,-0.227355,0.0,0.0
729,182,58.9071,63.9595,169.554,102.758,105.285,0.00678827,0.166301,20.882,-28.4355,-0.223766,0.0,0.0
732,182.75,58.886,64.2352,163.08,102.736,104.892,0.00676031,0.165977,20.8828,-28.4555,-0.191226,0.0,0.0
735,183.5,58.1813,63.8206,164.966,102.706,105.496,0.00674537,0.165573,20.8834,-28.4555,-0.246897,0.0,0.0
738,184.25,57.921,63.7641,163.372,102.681,104.718,0.00674381,0.16528,20.8839,-28.4355,-0.180987,0.0,0.0
741,185,58.4486,63.4957,163.251,102.686,105.197,0.00679255,0.164701,20.8842,-28.4355,-0.222503,0.0,0.0
744,185.75,58.3149,63.2669,165.203,102.7,105.228,0.00686827,0.164286,20.8844,-28.4755,-0.223935,0.0,0.0
747,186.5,58.5277,63.948,164.855,102.696,105.276,0.006957,0.163997,20.8846,-28.4955,-0.228598,0.0,0.0
750,187.25,58.3761,63.3735,165.79,102.708,105.14,0.00704971,0.163885,20.8847,-28.4655,-0.215515,0.0,0.0
753,188,58.3788,63.6435,163.227,102.726,105.982,0.00713938,0.163846,20.8848,-28.5055,-0.287405,0.0,0.0
756,188.75,58.2462,63.0722,163.537,102.725,104.948,0.00722236,0.16396,20.8849,-28.5155,-0.197232,0.0,0.0
759,189.5,58.493,63.1716,168.548,102.734,105.403,0.00729688,0.16417,20.8849,-28.4955,-0.236254,0.0,0.0
762,190.25,58.5433,62.9163,165.055,102.752,104.464,0.00734601,0.164401,20.8847,-28.5356,-0.15224,0.0,0.0
765,191,57.837,63.1202,165.598,102.753,104.899,0.00737961,0.164607,20.8842,-28.5356,-0.190435,0.0,0.0
768,191.75,58.4384,63.2974,164.926,102.768,105.234,0.00736335,0.164818,20.8838,-28.5556,-0.218383,0.0,0.0
771,192.5,57.8368,63.2421,162.306,102.768,105.555,0.00733374,0.164965,20.8835,-28.5456,-0.246503,0.0,0.0
774,193.25,58.0973,62.8807,164.748,102.776,105.645,0.00728179,0.165059,20.8833,-28.5856,-0.253642,0.0,0.0
777,194,58.2397,63.3756,163.096,102.79,105.374,0.00721431,0.165099,20.8832,-28.5756,-0.228668,0.0,0.0
780,194.75,57.8368,63.1687,161.986,102.786,105.431,0.00717642,0.165041,20.8831,-28.6056,-0.233969,0.0,0.0
783,195.5,57.6905,63.1373,166.246,102.791,105.095,0.00712008,0.164871,20.8838,-28.5956,-0.204121,0.0,0.0
786,196.25,57.8886,63.2512,166.647,102.813,104.741,0.00710609,0.164563,20.884,-28.6357,-0.171145,0.0,0.0
789,197,57.9126,63.1916,160.937,102.824,104.985,0.00708993,0.164259,20.8843,-28.6557,-0.191617,0.0,0.0
792,197.75,57.6957,62.8724,162.839,102.833,105.391,0.0071022,0.164005,20.8845,-28.6457,-0.22627,0.0,0.0
795,198.5,57.5571,62.6692,164.207,102.834,105.459,0.00712282,0.163733,20.8849,-28.6156,-0.232156,0.0,0.0
798,199.25,58.0812,62.7736,169.233,102.838,104.927,0.00714761,0.163649,20.8855,-28.6657,-0.18521,0.0,0.0
801,200,57.9009,63.2108,164.819,102.863,105.25,0.00717386,0.163715,20.886,-28.6657,-0.211287,0.0,0.0
804,200.75,57.7329,62.6289,163.442,102.855,104.92,0.00719299,0.163762,20.8862,-28.6757,-0.183094,0.0,0.0
807,201.5,57.8684,62.9505,169.82,102.884,105.599,0.00719254,0.163757,20.8859,-28.6557,-0.239911,0.0,0.0
810,202.25,57.6934,62.9331,162.209,102.887,105.584,0.00716757,0.163554,20.8856,-28.6657,-0.238329,0.0,0.0
813,203,57.776,62.8054,167.3,102.893,105.286,0.00711438,0.163314,20.8856,-28.6857,-0.211737,0.0,0.0
816,203.75,57.9515,63.2479,164.132,102.898,105.54,0.00706067,0.163126,20.8859,-28.7357,-0.23349,0.0,0.0
819,204.5,57.8128,62.7777,164.076,102.928,105.43,0.00699821,0.163029,20.886,-28.7257,-0.221249,0.0,0.0
822,205.25,57.4199,62.9482,164.073,102.924,105.365,0.00694273,0.162966,20.8862,-28.6857,-0.215861,0.0,0.0
825,206,57.6033,62.3494,166.762,102.948,105.036,0.0069256,0.162932,20.8862,-28.7357,-0.184934,0.0,0.0
828,206.75,57.1199,62.7459,162.09,102.953,105.896,0.00692305,0.162877,20.8863,-28.7558,-0.259611,0.0,0.0
831,207.5,57.4278,62.9429,164.366,102.961,105.366,0.00694523,0.162786,20.8863,-28.7758,-0.212656,0.0,0.0
834,208.25,57.862,62.9898,161.57,102.95,105.64,0.00697804,0.162719,20.8859,-28.7858,-0.2376,0.0,0.0
837,209,57.4554,62.6092,164.238,102.973,105.996,0.00701493,0.162711,20.8854,-28.7658,-0.266566,0.0,0.0
840,209.75,57.8139,62.9051,168.003,102.983,105.218,0.00704735,0.162975,20.885,-28.7357,-0.197752,0.0,0.0
843,210.5,57.6762,62.6459,163.956,102.992,105.457,0.00708763,0.163387,20.8848,-28.7758,-0.217822,0.0,0.0
846,211.25,57.7109,62.9288,160.574,103.01,104.965,0.00711974,0.163822,20.8846,-28.7658,-0.17315,0.0,0.0
849,212,57.6229,62.7351,161.367,103.024,105.348,0.00714781,0.164062,20.8844,-28.7858,-0.205477,0.0,0.0
852,212.75,57.8871,63.0223,166.327,103.026,105.3,0.00716697,0.163995,20.8843,-28.7958,-0.201144,0.0,0.0
855,213.5,57.1068,62.7345,165.108,103.03,105.674,0.00717872,0.163844,20.8842,-28.7758,-0.233379,0.0,0.0
858,214.25,57.7967,62.603,168.977,103.055,105.365,0.00718913,0.163491,20.8844,-28.8058,-0.204101,0.0,0.0
861,215,57.6677,62.9165,162.608,103.07,104.977,0.00720061,0.163233,20.8847,-28.8258,-0.168845,0.0,0.0
864,215.75,57.5543,62.6535,167.301,103.071,105.208,0.00720996,0.162823,20.8854,-28.8058,-0.18899,0.0,0.0
867,216.5,57.3291,62.7138,162.687,103.074,106.234,0.00721561,0.162468,20.8859,-28.8358,-0.278157,0.0,0.0
870,217.25,57.1674,62.2305,167.519,103.094,105.652,0.00720307,0.162185,20.8867,-28.8559,-0.225762,0.0,0.0
873,218,57.2679,61.8121,163.506,103.104,105.8,0.00719393,0.161636,20.8875,-28.8458,-0.23775,0.0,0.0
876,218.75,57.2526,62.3741,164.176,103.112,105.07,0.00718171,0.161079,20.888,-28.8759,-0.173275,0.0,0.0
879,219.5,57.1641,62.4562,163.988,103.125,104.97,0.00718059,0.160734,20.8884,-28.8759,-0.163306,0.0,0.0
882,220.25,57.0971,61.9019,163.553,103.142,105.498,0.00719334,0.160699,20.8887,-28.8959,-0.208017,0.0,0.0
885,221,56.7683,61.756,162.067,103.13,105.622,0.00722015,0.161382,20.8883,-28.9059,-0.21992,0.0,0.0
888,221.75,56.9491,61.7512,162.861,103.146,106.047,0.00726957,0.161947,20.888,-28.8859,-0.255479,0.0,0.0
891,222.5,56.7431,61.6703,161.78,103.147,105.192,0.00731833,0.162473,20.8878,-28.8959,-0.180828,0.0,0.0
894,223.25,56.7205,61.4974,165.994,103.166,105.52,0.00738353,0.1629,20.8872,-28.9259,-0.207852,0.0,0.0
897,224,57.058,62.0962,159.343,103.179,105.433,0.0074208,0.163222,20.8866,-28.9159,-0.199088,0.0,0.0
900,224.75,56.7424,62.2916,162.98,103.193,105.435,0.00743043,0.163444,20.8861,-28.8959,-0.197905,0.0,0.0
903,225.5,57.0233,62.0939,171.052,103.21,105.44,0.00742309,0.163342,20.8858,-28.8959,-0.196881,0.0,0.0
906,226.25,56.2845,61.8108,165.501,103.206,105.711,0.0073932,0.163268,20.8855,-28.9359,-0.2209,0.0,0.0
909,227,56.6652,61.6967,161.463,103.213,105.255,0.00737696,0.163174,20.8854,-28.9459,-0.180376,0.0,0.0
912,227.75,56.8799,61.7496,167.123,103.224,105.68,0.00737811,0.163239,20.8852,-28.966,-0.216548,0.0,0.0
915,228.5,56.4982,61.539,162.551,103.233,105.431,0.00738448,0.163517,20.8852,-28.986,-0.194041,0.0,0.0
918,229.25,56.5995,61.7209,162.817,103.251,105.938,0.00738981,0.163578,20.8853,-28.976,-0.23666,0.0,0.0
921,230,56.6606,61.7158,167.868,103.247,106.695,0.00738872,0.163374,20.8859,-28.996,-0.302558,0.0,0.0
924,230.75,56.9287,62.2423,161.193,103.264,105.499,0.0073774,0.162907,20.8863,-29.006,-0.197202,0.0,0.0
927,231.5,57.3091,62.4102,164.372,103.265,105.544,0.00735619,0.162566,20.8866,-29.006,-0.201083,0.0,0.0
930,232.25,56.8719,62.0281,165.847,103.284,105.582,0.00734072,0.162156,20.8868,-29.036,-0.202666,0.0,0.0
933,233,57.0041,62.0749,162.747,103.285,105.653,0.00733334,0.1619,20.8869,-29.016,-0.208768,0.0,0.0
936,233.75,56.7529,62.3123,166.312,103.319,105.994,0.00732962,0.16179,20.887,-29.006,-0.235399,0.0,0.0
939,234.5,56.7713,62.0159,164.302,103.303,105.951,0.00733044,0.161813,20.8871,-29.026,-0.233164,0.0,0.0
942,235.25,56.6786,62.3746,166.598,103.308,105.525,0.00733363,0.161716,20.8871,-29.076,-0.195595,0.0,0.0
945,236,56.9004,61.4909,165.117,103.324,105.656,0.00733707,0.161597,20.8869,-29.046,-0.20549,0.0,0.0
948,236.75,56.5491,62.3072,170.201,103.332,105.574,0.00733957,0.161339,20.8868,-29.0861,-0.197727,0.0,0.0
951,237.5,56.5381,61.6615,163.35,103.339,105.479,0.0073401,0.161078,20.8867,-29.0861,-0.188761,0.0,0.0
954,238.25,56.5633,61.963,162.791,103.345,105.508,0.00733651,0.161009,20.8867,-29.1061,-0.190826,0.0,0.0
957,239,56.856,61.8288,170.263,103.357,106.272,0.00732805,0.161072,20.8866,-29.1061,-0.256145,0.0,0.0
960,239.75,56.3673,61.904,166.884,103.359,105.641,0.00731642,0.161211,20.8866,-29.1661,-0.201132,0.0,0.0
963,240.5,56.5512,61.5613,167.222,103.359,106.136,0.0072986,0.161389,20.8866,-29.1361,-0.244206,0.0,0.0
966,241.25,56.5032,61.9383,170.908,103.377,105.833,0.00726339,0.16158,20.8865,-29.1261,-0.216245,0.0,0.0
969,242,56.1113,61.5191,158.486,103.376,105.55,0.00723363,0.161741,20.8865,-29.1661,-0.191684,0.0,0.0
972,242.75,56.5615,61.7437,165.701,103.39,106.182,0.00720357,0.161897,20.8865,-29.1661,-0.245404,0.0,0.0
975,243.5,56.3783,62.2517,162.281,103.387,105.321,0.00717932,0.162067,20.8865,-29.1761,-0.170716,0.0,0.0
978,244.25,56.6823,62.1567,164.049,103.392,105.4,0.00715126,0.162216,20.8865,-29.2062,-0.177192,0.0,0.0
981,245,56.589,61.9549,163.308,103.4,105.41,0.00712639,0.162223,20.8865,-29.1861,-0.17738,0.0,0.0
984,245.75,56.9667,61.7922,166.359,103.393,105.955,0.00709161,0.162128,20.8865,-29.1861,-0.225423,0.0,0.0
987,246.5,56.7826,62.0157,164.381,103.393,105.676,0.00706626,0.16198,20.8865,-29.2162,-0.201161,0.0,0.0
990,247.25,56.4438,62.4463,161.317,103.42,105.704,0.00703853,0.161808,20.8865,-29.2162,-0.201204,0.0,0.0
993,248,56.6684,62.3265,168.43,103.414,105.626,0.00701832,0.161626,20.8865,-29.2162,-0.195004,0.0,0.0
996,248.75,56.3244,61.9598,164.766,103.422,106.255,0.00700495,0.161469,20.8867,-29.2062,-0.248858,0.0,0.0
999,249.5,56.5296,62.0951,164.993,103.431,105.928,0.00699617,0.161092,20.8873,-29.2562,-0.219718,0.0,0.0
1002,250.25,56.381,62.1205,164.297,103.438,106.378,0.00698744,0.160787,20.8877,-29.2562,-0.25816,0.0,0.0
1005,251,56.4661,61.8029,166.626,103.439,106.028,0.00697848,0.160514,20.888,-29.2762,-0.227656,0.0,0.0
1008,251.75,56.4687,61.9671,163.805,103.447,105.515,0.00697085,0.160456,20.8882,-29.2862,-0.182308,0.0,0.0
1011,252.5,56.7761,61.7697,162.658,103.437,105.665,0.00696269,0.160527,20.8885,-29.2862,-0.196257,0.0,0.0
1014,253.25,56.8815,61.5162,161.632,103.458,105.442,0.00695564,0.160665,20.8888,-29.3163,-0.174925,0.0,0.0
1017,254,56.5144,62.5562,167.063,103.457,105.55,0.00695827,0.160829,20.889,-29.3363,-0.184534,0.0,0.0
1020,254.75,56.3019,61.4767,161.214,103.45,106.388,0.00696351,0.160949,20.8892,-29.3663,-0.257925,0.0,0.0
1023,255.5,56.3411,62.4908,165.572,103.458,105.668,0.00696195,0.160874,20.8889,-29.3363,-0.194602,0.0,0.0
1026,256.25,56.979,62.2397,164.498,103.454,105.671,0.00695127,0.160834,20.8885,-29.3563,-0.195297,0.0,0.0
1029,257,56.1163,62.1222,165.733,103.464,105.291,0.00692715,0.160811,20.8884,-29.3563,-0.161271,0.0,0.0
1032,257.75,55.7986,62.0023,165.141,103.484,105.867,0.00688556,0.160893,20.8883,-29.3663,-0.209671,0.0,0.0
1035,258.5,56.5297,62.1688,166.006,103.464,106.085,0.00684876,0.160996,20.8883,-29.3963,-0.230442,0.0,0.0
1038,259.25,56.4552,62.215,164.649,103.475,106.421,0.00682259,0.161031,20.8883,-29.4063,-0.258554,0.0,0.0
1041,260,56.6677,62.2111,164.41,103.474,105.85,0.00680933,0.161071,20.8883,-29.4063,-0.209131,0.0,0.0
1044,260.75,56.3678,62.3177,163.346,103.461,105.951,0.00681126,0.161069,20.8882,-29.4364,-0.219077,0.0,0.0
1047,261.5,56.5546,62.2435,161.668,103.477,105.719,0.00683248,0.161004,20.8882,-29.4364,-0.197403,0.0,0.0
1050,262.25,56.2358,61.8649,161.544,103.474,106.273,0.00687382,0.160971,20.8882,-29.4464,-0.245856,0.0,0.0
1053,263,56.6736,62.023,158.559,103.478,105.975,0.00691079,0.160952,20.8882,-29.4264,-0.219663,0.0,0.0
1056,263.75,56.2574,62.0385,163.46,103.485,105.847,,0.16106,,-29.4164,-0.207919,0.0,0.0
1059,264.5,56.1759,62.3815,162.322,103.479,106.397,,0.161072,,-29.4464,-0.256134,0.0,0.0
1062,265.25,56.3289,61.9642,166.523,103.495,105.93,,0.160966,,-29.4063,-0.214182,0.0,0.0
1065,266,56.5845,61.9674,165.891,103.486,106.346,,0.160807,,-29.4364,-0.251038,0.0,0.0
1068,266.75,56.1565,61.583,167.424,103.486,105.816,,,,-29.4564,-0.205087,0.0,0.0
1071,267.5,56.6156,62.506,165.275,103.49,105.706,,,,-29.4964,-0.195132,0.0,0.0
1074,268.25,56.0433,62.2552,166.849,103.498,105.943,,,,-29.4764,-0.215089,0.0,0.0
1077,269,56.4924,62.1595,162.398,103.488,105.657,,,,-29.4764,-0.190979,0.0,0.0
1080,269.75,56.582,62.3208,162.585,103.496,106.022,,,,-29.4964,-0.222111,0.0,0.0
1083,270.5,56.4772,62.5189,167.93,103.495,105.716,,,,-29.4664,-0.195589,0.0,0.0
1086,271.25,56.6457,62.5285,162.866,103.49,105.446,,,,-29.4764,-0.172422,0.0,0.0
1089,272,56.4169,62.2048,165.141,103.494,105.761,,,,-29.4964,-0.199603,0.0,0.0
1092,272.75,56.3716,62.3623,168.755,103.516,105.34,,,,-29.4964,-0.160806,0.0,0.0
1095,273.5,56.1142,61.9793,166.341,103.491,105.823,,,,-29.5164,-0.205262,0.0,0.0
1098,274.25,56.2024,61.7543,171.444,103.497,106.028,,,,-29.5565,-0.22254,0.0,0.0
1099,274.5,56.1865,62.3629,170.681,103.497,105.98,,,,-29.5665,-0.218377,0.0,0.0