File: 01_Data/Polyester_Fabric/Cone/Polyester_Fabric_Cone_HF25Scan_210325_R3.csv
Names,Time,Stack TC,Smoke TC,Exh Press,Smoke Comp,Smoke Meas,CO Meter,CO2 Meter,O2 Meter,Sample Mass,Ext Coeff,Start Test,Flame Verif
Chan Gain,,500,500,1,1,1,1,1,1,1,1,1.0,1.0
Offset,,0,0,0.138348,0,0,0,0,0,0,0,0.0,0.0
Gain,,1,1,25.011,13.5067,16.616,1,1,1,1.00091,1.04608,1.0,1.0
Units,sec,C,C,Pa,%,%,%,%,%,g,/m,,
Baseline,,15.9649,17.323,170.393,100.216,99.4575,-0.000107439,0.0848709,20.8282,0.001835,0.0696938,,
7,1.5,14.6729,15.4074,170.933,100.249,99.711,-0.000390371,0.0889967,20.8191,481.488,0.0493802,0.0,0.0
14,3.25,14.8107,15.9624,167.661,100.29,99.5442,-0.000405699,0.0901821,20.8178,481.478,0.0684799,0.0,0.0
21,5,14.9699,16.1474,171.459,100.338,99.4534,-0.000365635,0.0913687,20.8157,482.419,0.0813012,0.0,0.0
28,6.75,15.2271,15.8806,169.931,100.396,99.5518,-0.000333618,0.0925336,20.8145,481.488,0.0774665,0.0,0.0
35,8.5,15.4444,16.6686,167.482,100.447,99.6583,-0.000320352,0.0936683,20.8145,484.471,0.072327,0.0,0.0
42,10.25,15.8363,17.366,167.468,100.49,99.6704,-0.000298287,0.0945119,20.8151,481.849,0.0751591,0.0,0.0
49,12,15.2333,16.9675,167.691,100.532,99.7972,-0.000304154,0.0953143,20.8154,481.438,0.0672963,0.0,0.0
56,13.75,15.7613,17.1283,169.809,100.596,99.9062,-0.000343211,0.096022,20.8137,481.478,0.0631071,0.0,0.0
63,15.5,15.6711,17.0883,171.51,100.632,99.7795,-0.000308725,0.0966611,20.8123,481.488,0.0781043,0.0,0.0
70,17.25,15.2517,17.0225,169.276,100.674,99.9301,-0.000233673,0.0972344,20.8116,481.478,0.0680977,0.0,0.0
77,19,15.3053,16.8083,171.582,100.702,99.9255,-0.000192625,0.0978004,20.81,481.488,0.0710712,0.0,0.0
84,20.75,16.1626,17.1687,173.863,100.741,99.9346,-0.000222695,0.0984768,20.8077,481.448,0.0737627,0.0,0.0
91,22.5,15.408,17.1177,166.342,100.76,100.09,-0.000276077,0.0993099,20.8067,481.458,0.0612155,0.0,0.0
98,24.25,15.429,17.1647,167.78,100.798,100.136,-0.000306511,0.100047,20.8061,481.468,0.0604386,0.0,0.0
105,26,15.4715,16.781,167.306,100.807,100.014,-0.000253925,0.100514,20.8058,481.448,0.0724605,0.0,0.0
112,27.75,15.6592,17.6181,162.28,100.82,100.042,-0.000204424,0.100914,20.8066,481.478,0.0711493,0.0,0.0
119,29.5,16.1379,17.8498,170.283,100.829,100.031,-0.0002173,0.101285,20.8072,481.478,0.0728294,0.0,0.0
126,31.25,15.546,17.0061,168.838,100.83,100.122,-0.000204785,0.101513,20.8079,481.528,0.0647029,0.0,0.0
133,33,15.7031,17.5905,172.891,100.827,100.04,-0.000122275,0.101576,20.8089,481.468,0.0718972,0.0,0.0
140,34.75,15.9316,17.6833,167.816,100.81,99.9214,-6.88042e-05,0.101532,20.81,481.458,0.0812415,0.0,0.0
147,36.5,15.3973,17.3764,170.7,100.808,100.027,-0.000108999,0.101467,20.8113,481.468,0.0713263,0.0,0.0
154,38.25,15.8013,16.6159,169.157,100.798,99.9884,-0.000145471,0.101205,20.8129,481.458,0.0739699,0.0,0.0
161,40,16.1193,17.2518,174.369,100.775,99.9235,-9.91928e-05,0.100915,20.8145,481.458,0.0778277,0.0,0.0
168,41.75,15.6706,16.9769,171.062,100.726,99.8378,-4.78059e-05,0.100117,20.8163,481.448,0.0812329,0.0,0.0
175,43.5,15.0893,17.2725,171.344,100.719,99.9853,-0.000112805,0.0993138,20.8186,481.468,0.0670422,0.0,0.0
182,45.25,15.9779,17.8923,162.524,100.683,99.9113,-0.000189544,0.0982284,20.82,481.478,0.0706468,0.0,0.0
189,47,15.6439,16.8694,166.34,100.629,99.7465,-0.000222817,0.0971927,20.8207,481.468,0.0808729,0.0,0.0
196,48.75,15.8939,16.8378,174.274,100.579,99.781,-0.00024898,0.0959203,20.8221,481.458,0.0731138,0.0,0.0
203,50.5,15.5194,16.9429,170.109,100.53,99.6674,-0.000271703,0.094805,20.8238,481.478,0.0790902,0.0,0.0
210,52.25,16.5417,16.9664,170.055,100.49,99.7186,-0.000283871,0.0935818,20.8249,481.468,0.070688,0.0,0.0
217,54,16.1877,17.4251,171.068,100.428,99.6852,-0.000288505,0.0925801,20.8255,481.468,0.0681205,0.0,0.0
224,55.75,15.6499,17.0094,171.732,100.366,99.5792,-0.000253857,0.0918327,20.8249,481.458,0.0722304,0.0,0.0
231,57.5,16.0919,17.5195,166.735,100.312,99.4879,-0.000242221,0.091193,20.8246,481.448,0.075669,0.0,0.0
238,59.25,15.7822,17.029,169.199,100.254,99.4463,-0.00030169,0.0906182,20.8244,481.458,0.0742249,0.0,0.0
245,61,15.5377,17.2976,168.8,100.184,99.3231,-0.000411083,0.0901622,20.8243,481.448,0.0791487,0.0,0.0
252,62.75,15.7898,17.966,169.113,100.106,99.3038,-0.000498843,0.0896548,20.8247,481.428,0.0737898,0.0,0.0
259,64.5,15.7997,16.9461,172.859,100.053,99.2115,-0.000489363,0.0893529,20.8249,481.438,0.0774839,0.0,0.0
266,66.25,16.0024,17.5989,169.322,99.9881,99.2044,-0.000420516,0.0891016,20.825,481.428,0.0722032,0.0,0.0
273,68,16.2574,17.3395,171.127,99.9123,98.991,-0.000363381,0.0887562,20.8259,481.458,0.0850085,0.0,0.0
280,69.75,16.1234,17.1919,170.016,99.8373,99.3449,-0.000318187,0.0882998,20.8267,481.448,0.0453657,0.0,0.0
287,71.5,15.9129,17.3224,170.102,99.7668,99.0057,-0.000228773,0.0879356,20.827,481.428,0.0702723,0.0,0.0
294,73.25,15.8616,17.5967,171.023,99.6864,98.8272,-0.00011291,0.0876927,20.8268,481.448,0.079435,0.0,0.0
301,75,16.293,17.3202,168.476,99.6328,98.7466,9.62825e-06,0.087527,20.8267,481.438,0.0819896,0.0,0.0
308,76.75,16.4271,17.795,168.89,99.564,98.6847,3.3502e-05,0.0874011,20.8264,481.438,0.0813988,0.0,0.0
315,78.5,15.9372,17.0971,170.707,99.4927,98.707,-6.69591e-05,0.0875752,20.8244,481.458,0.0727502,0.0,0.0
322,80.25,16.0789,17.9217,169.267,99.4123,98.5899,-0.000218934,0.0881357,20.8204,481.418,0.0762299,0.0,0.0
329,82,15.9678,17.8304,172.686,99.3645,98.5797,-0.000245308,0.0892312,20.8171,481.408,0.0727589,0.0,0.0
336,83.75,15.9364,17.2089,164.553,99.3035,98.4793,-0.000149767,0.090422,20.8159,481.418,0.076474,0.0,0.0
343,85.5,16.0886,17.6637,166.92,99.2408,98.4834,-9.6818e-05,0.0910867,20.8161,481.398,0.0703048,0.0,0.0
350,87.25,15.7646,17.547,169.704,99.1819,98.4859,-0.000128189,0.0916323,20.8167,481.398,0.0646171,0.0,0.0
357,89,16.1595,17.6418,171.18,99.1229,98.3074,-0.000250335,0.0921438,20.817,481.438,0.0758079,0.0,0.0
364,90.75,15.4035,17.915,168.029,99.0776,98.2719,-0.0003943,0.0924604,20.8166,481.438,0.0749237,0.0,0.0
371,92.5,15.8515,17.1713,170.496,99.0314,98.3399,-0.000433277,0.0930971,20.8146,481.428,0.0643032,0.0,0.0
378,94.25,15.8547,17.4301,168.491,98.9853,98.2045,-0.00036747,0.0939594,20.8123,481.418,0.0726667,0.0,0.0
385,96,15.7104,17.6967,171.076,98.9259,98.1665,-0.00032437,0.0948097,20.8105,481.408,0.0707173,0.0,0.0
392,97.75,16.1784,17.3488,170.866,98.9016,98.0569,-0.00036945,0.0959987,20.8092,481.428,0.0787052,0.0,0.0
399,99.5,16.2093,17.9014,166.642,98.8707,98.2658,-0.00038377,0.0971421,20.8076,481.418,0.0563071,0.0,0.0
406,101.25,16.5334,17.9727,169.293,98.8439,98.2172,-0.000375744,0.0983119,20.8066,481.428,0.0583671,0.0,0.0
413,103,16.0164,17.8851,167.038,98.8204,97.9814,-0.000374628,0.0994167,20.806,481.418,0.078241,0.0,0.0
420,104.75,16.3018,18.0577,169.045,98.8076,98.0158,-0.000330089,0.100315,20.8047,481.408,0.0738256,0.0,0.0
427,106.5,16.546,17.3845,172.168,98.7915,98.0123,-0.000332125,0.101102,20.8041,481.398,0.0726656,0.0,0.0
434,108.25,16.9454,18.2063,168.867,98.7755,97.9464,-0.000389949,0.101725,20.8026,481.418,0.077345,0.0,0.0
441,110,16.5465,17.9219,175.121,98.7783,97.8287,-0.000366987,0.102279,20.8012,481.428,0.0886417,0.0,0.0
448,111.75,16.5512,18.2367,174.124,98.7701,97.881,-0.000233851,0.103052,20.8,481.428,0.0829783,0.0,0.0
455,113.5,16.0888,17.3171,170.717,98.7874,97.9829,-8.47726e-05,0.103934,20.7994,481.418,0.0750365,0.0,0.0
462,115.25,17.1208,18.2037,166.323,98.8064,97.9758,-5.25071e-05,0.10461,20.7998,481.428,0.0774622,0.0,0.0
469,117,16.4528,17.3629,170.538,98.8134,98.0164,-0.000124346,0.105025,20.8009,481.418,0.074315,0.0,0.0
476,118.75,16.1496,17.9208,170.658,98.8208,98.0336,-0.000203359,0.105149,20.8018,481.408,0.0733894,0.0,0.0
483,120.5,16.3619,18.3502,173.021,98.8402,97.9895,-0.000253845,0.104832,20.8023,481.418,0.0793179,0.0,0.0
490,122.25,16.0794,18.4299,167.842,98.8732,98.0123,-0.000269467,0.104629,20.8013,481.388,0.0802429,0.0,0.0
497,124,16.8474,17.9306,168.998,98.8987,98.0412,-0.000224126,0.104562,20.8008,481.408,0.0799089,0.0,0.0
504,125.75,17.1144,18.2597,169.586,98.937,98.0762,-0.000221351,0.104445,20.8026,481.418,0.0801909,0.0,0.0
511,127.5,16.6445,18.482,170.305,98.9692,98.1492,-0.000253864,0.104143,20.805,481.408,0.0763427,0.0,0.0
518,129.25,16.7637,17.7785,169.132,99.0096,98.3475,-0.00031211,0.10353,20.8061,481.398,0.0615687,0.0,0.0
525,131,16.4596,18.013,168.258,99.0496,98.1553,-0.000400278,0.102918,20.8066,481.378,0.0832233,0.0,0.0
532,132.75,16.3427,17.4476,169.906,99.092,98.2729,-0.0004231,0.102217,20.808,481.378,0.0761648,0.0,0.0
539,134.5,16.5341,17.6829,169.991,99.1312,98.279,-0.000394386,0.101565,20.8097,481.388,0.0792214,0.0,0.0
546,136.25,16.6013,17.6451,173.601,99.1806,98.2669,-0.000359217,0.100694,20.8119,481.388,0.0849348,0.0,0.0
553,138,16.2148,18.36,170.114,99.2462,98.3226,-0.000317626,0.0998094,20.8138,481.368,0.0857899,0.0,0.0
560,139.75,16.0211,17.6922,172.754,99.287,98.5579,-0.000213031,0.098786,20.8163,481.398,0.0676297,0.0,0.0
567,141.5,16.3725,17.6979,174.683,99.3261,98.5326,-0.000112025,0.0976335,20.8186,481.398,0.0736086,0.0,0.0
574,143.25,16.8575,17.822,169.339,99.3678,98.4829,-0.000139069,0.0965346,20.8198,481.398,0.082084,0.0,0.0
581,145,16.8104,17.7628,167.326,99.4308,98.6771,-0.000232675,0.0955881,20.8195,481.398,0.0698272,0.0,0.0
588,146.75,16.8084,17.5388,172.173,99.4824,98.565,-0.000227005,0.0948211,20.819,481.408,0.0850074,0.0,0.0
595,148.5,16.2901,18.0551,172.177,99.5277,98.6345,-0.000189711,0.0941457,20.8203,481.398,0.0827247,0.0,0.0
602,150.25,16.2334,17.9345,164.51,99.5735,98.7121,-0.00020908,0.09343,20.8219,481.408,0.0797267,0.0,0.0
609,152,16.7568,17.9845,172.783,99.6435,98.7303,-0.000285189,0.0927035,20.8236,481.388,0.084485,0.0,0.0
616,153.75,15.9785,17.4351,170.498,99.6897,98.8819,-0.000318527,0.0920153,20.8245,481.388,0.0746546,0.0,0.0
623,155.5,16.7663,17.9317,170.143,99.7268,98.8769,-0.00027767,0.0913041,20.8248,481.378,0.0785392,0.0,0.0
630,157.25,16.2882,17.8844,172.49,99.7754,98.8333,-0.000243836,0.0906454,20.8255,481.368,0.087062,0.0,0.0
637,159,16.1243,18.2271,167.125,99.8249,99.0234,-0.000235811,0.0901208,20.8258,481.368,0.073971,0.0,0.0
644,160.75,16.33,18.6466,170.415,99.8814,99.0584,-0.000235893,0.0895325,20.8259,481.358,0.0759196,0.0,0.0
651,162.5,16.4228,17.7816,171.123,99.9152,99.0584,-0.000193119,0.0890359,20.8269,481.378,0.079024,0.0,0.0
658,164.25,16.0921,18.122,166.594,99.9634,99.1821,-0.000119927,0.088625,20.8277,481.368,0.0719981,0.0,0.0
665,166,16.2161,18.4981,168.401,99.9931,99.1674,-0.000104756,0.0882802,20.828,481.378,0.0760824,0.0,0.0
672,167.75,16.8362,18.5625,171.79,100.042,99.1664,-0.000171232,0.0880449,20.829,481.368,0.0806376,0.0,0.0
679,169.5,16.5345,17.84,167.59,100.091,99.2415,-0.000256383,0.0876308,20.8294,481.378,0.0782334,0.0,0.0
686,171.25,16.6876,18.1055,165.784,100.103,99.1786,-0.000301564,0.0872643,20.8296,481.388,0.085144,0.0,0.0
693,173,16.241,17.8495,167.579,100.127,99.2582,-0.000318477,0.0870555,20.8297,481.378,0.0799729,0.0,0.0
700,174.75,16.9953,17.8989,171.627,100.164,99.3256,-0.000328689,0.0867255,20.8298,481.358,0.077101,0.0,0.0
707,176.5,16.3049,17.9223,169.852,100.183,99.3251,-0.000318824,0.0864017,20.8298,481.358,0.0789221,0.0,0.0
714,178.25,16.0399,17.647,171.927,100.204,99.3038,-0.000328566,0.0861883,20.8309,481.368,0.0827789,0.0,0.0
721,180,16.2943,18.0957,169.447,100.216,99.4108,-0.000337528,0.0860032,20.8315,481.378,0.0739916,0.0,0.0
728,181.75,16.3651,17.7422,165.456,100.214,99.3084,-0.000329066,0.0857196,20.8318,481.358,0.0833382,0.0,0.0
735,183.5,16.6156,18.1567,169.954,100.237,99.4113,-0.000316416,0.0853936,20.8331,481.358,0.0758687,0.0,0.0
742,185.25,16.2834,17.9177,169.475,100.241,99.3682,-0.000264703,0.0851258,20.8338,481.358,0.0802635,0.0,0.0
749,187,16.1688,18.0799,168.699,100.244,99.4098,-0.000185319,0.0849708,20.8332,481.358,0.0766508,0.0,0.0
756,188.75,17.3619,18.1938,166.807,100.231,99.3155,-0.000134187,0.084759,20.8326,481.398,0.0841913,0.0,0.0
763,190.5,16.3889,18.1781,172.013,100.247,99.3221,-0.000147989,0.0845861,20.8324,481.368,0.0850919,0.0,0.0
770,192.25,16.4905,18.1503,173.584,100.243,99.4017,-0.000221091,0.0845279,20.8322,481.348,0.0773245,0.0,0.0
777,194,16.8483,18.1292,161.829,100.235,99.3728,-0.000358108,0.0843976,20.8322,481.388,0.0793136,0.0,0.0
784,195.75,16.6972,18.521,169.622,100.23,99.3926,-0.000522219,0.0842888,20.8317,481.358,0.0769969,0.0,0.0
791,197.5,16.7002,17.9356,170.808,100.21,99.4367,-0.000570156,0.0842249,20.8314,481.328,0.0710755,0.0,0.0
798,199.25,16.3478,17.95,166.935,100.211,99.3084,-0.000569751,0.0843679,20.8313,481.348,0.0830347,0.0,0.0
805,201,16.3099,18.0582,167.807,100.197,99.2972,-0.00050579,0.0844363,20.8312,481.338,0.0827832,0.0,0.0
812,202.75,16.662,18.4934,170.84,100.176,99.4149,-0.00041319,0.0845435,20.8312,481.328,0.0699553,0.0,0.0
819,204.5,16.7164,18.2148,170.4,100.149,99.28,-0.000370128,0.0846975,20.8311,481.368,0.0799957,0.0,0.0
826,206.25,16.0669,17.8414,170.379,100.145,99.2582,-0.000356969,0.0847184,20.8311,481.358,0.0815961,0.0,0.0
833,208,16.4876,18.5761,173.747,100.141,99.2744,-0.000359588,0.0846555,20.8311,481.348,0.0797191,0.0,0.0
840,209.75,16.6119,18.5437,177.048,100.123,99.3165,-0.000430589,0.0847824,20.8299,481.338,0.0742434,0.0,0.0
847,211.5,16.6239,18.3763,165.636,100.107,99.2161,-0.000530137,0.0849183,20.8293,481.348,0.0820135,0.0,0.0
854,213.25,16.7371,18.4149,166.71,100.098,99.2222,-0.000573939,0.0849425,20.8291,481.338,0.0806571,0.0,0.0
861,215,17.3598,17.4724,169.039,100.091,99.2217,-0.000644237,0.0851345,20.8281,481.338,0.0800618,0.0,0.0
868,216.75,16.3404,17.9472,167.233,100.085,99.2445,-0.000707624,0.0852256,20.826,481.358,0.0773841,0.0,0.0
875,218.5,17.0028,18.5739,169.834,100.042,99.2004,-0.000669189,0.0855513,20.8263,481.358,0.0775327,0.0,0.0
882,220.25,15.6795,17.8743,170.403,100.035,99.0746,-0.000558843,0.0859549,20.8259,481.358,0.0885301,0.0,0.0
889,222,16.77,18.3565,169.161,100.021,99.0848,-0.00042765,0.0864944,20.8255,481.338,0.0863057,0.0,0.0
896,223.75,16.7182,18.3899,168.642,100.005,99.066,-0.000382934,0.087138,20.8243,481.348,0.08653,0.0,0.0
903,225.5,16.9947,17.9866,173.875,99.9914,99.1735,-0.000361565,0.0877411,20.8237,481.328,0.0753685,0.0,0.0
910,227.25,16.5967,18.0968,167.296,99.9679,99.0589,-0.00033509,0.0882371,20.8228,481.318,0.0838217,0.0,0.0
917,229,16.1307,18.3415,171.133,99.9605,99.134,-0.000349363,0.0887587,20.8218,481.328,0.0761909,0.0,0.0
924,230.75,17.2006,18.247,168.276,99.9547,99.0102,-0.000311883,0.0892711,20.8216,481.338,0.0871206,0.0,0.0
931,232.5,16.9224,18.416,166.77,99.9395,99.1532,-0.000222913,0.089467,20.8224,481.338,0.0724778,0.0,0.0
938,234.25,16.652,18.2174,170.007,99.9102,99.0275,-0.000228904,0.089567,20.8228,481.318,0.0814356,0.0,0.0
945,236,16.8717,18.6436,168.567,99.9098,99.0036,-0.000282455,0.0893988,20.823,481.298,0.083606,0.0,0.0
952,237.75,16.3186,18.2843,173.743,99.8987,99.0533,-0.00034625,0.0891424,20.8231,481.328,0.0779796,0.0,0.0
959,239.5,16.5029,18.3208,168.816,99.9028,98.9387,-0.000399096,0.0891402,20.8231,481.338,0.0889808,0.0,0.0
966,241.25,16.9853,17.9224,164.094,100.003,99.032,-0.000459592,0.0890563,20.8231,481.338,0.0895268,0.0,0.0
973,243,16.8581,18.3078,167.424,100.092,99.2268,-0.000516559,0.0889392,20.824,481.308,0.0797061,0.0,0.0
980,244.75,16.5913,18.3954,168.809,100.191,99.244,-0.000511507,0.0887647,20.8246,481.338,0.0871379,0.0,0.0
987,246.5,16.6921,17.8606,171.693,100.284,99.3256,-0.000431729,0.0885269,20.8255,481.228,0.0880838,0.0,0.0
994,248.25,16.5632,17.9097,172.036,100.357,99.5599,-0.000288051,0.0883574,20.8265,481.308,0.0732147,0.0,0.0
1001,250,17.0145,18.4913,173.029,100.408,99.5209,-0.000186555,0.0882663,20.827,481.318,0.0814107,0.0,0.0
1008,251.75,16.5628,18.2316,167.929,100.483,99.7501,-0.000214052,0.088054,20.8272,481.298,0.0671552,0.0,0.0
1015,253.5,16.5757,18.05,173.514,100.553,99.6988,-0.000300941,0.0878935,20.8273,481.338,0.0782648,0.0,0.0
1022,255.25,17.4295,18.8526,168.147,100.586,99.7293,-0.000363673,0.0877044,20.8266,481.328,0.078511,0.0,0.0
1029,257,16.7668,18.0417,172.218,100.624,99.7511,-0.000387267,0.087656,20.827,481.338,0.0799263,0.0,0.0
1036,258.75,17.1018,18.3748,167.172,100.655,99.8287,-0.000325482,0.0877573,20.8262,481.318,0.0756484,0.0,0.0
1043,260.5,16.5879,18.4225,167.065,100.696,99.749,-0.000189794,0.0878873,20.8256,481.338,0.0867261,0.0,0.0
1050,262.25,17.3199,18.4179,164.868,100.727,99.7637,-4.59144e-05,0.0881688,20.8254,481.308,0.088191,0.0,0.0
1057,264,16.8391,18.2933,166.915,100.746,99.7536,1.80846e-05,0.0883812,20.8257,481.328,0.0908125,0.0,0.0
1064,265.75,17.3264,18.736,167.572,100.756,99.9103,-5.76872e-05,0.0885479,20.8276,481.318,0.0773494,0.0,0.0
1071,267.5,17.0176,18.1736,170.139,100.785,99.9174,-0.000166954,0.088575,20.8287,481.318,0.0793244,0.0,0.0
1078,269.25,16.9712,19.2444,173.437,100.788,99.8854,-0.00031318,0.0884645,20.8292,481.308,0.0825599,0.0,0.0
1085,271,17.0397,18.9648,173.051,100.8,99.9336,-0.00044068,0.0882556,20.8295,481.298,0.0792236,0.0,0.0
1092,272.75,16.7181,18.4704,169.161,100.796,99.9661,-0.0004605,0.0880773,20.8288,481.308,0.0758307,0.0,0.0
1099,274.5,16.8894,18.3709,172.021,100.797,99.9002,-0.000425602,0.0880688,20.8273,481.318,0.0819961,0.0,0.0
1106,276.25,16.9641,18.2708,165.53,100.798,99.9286,-0.0003651,0.0883163,20.8266,481.318,0.0795012,0.0,0.0
1113,278,17.0411,19.1592,165.005,100.795,99.851,-0.000319999,0.0885658,20.8269,481.298,0.0863653,0.0,0.0
1120,279.75,17.1686,18.4431,167.409,100.782,99.8789,-0.000323672,0.0887282,20.8276,481.298,0.082639,0.0,0.0
1127,281.5,16.4509,18.9514,171.84,100.754,99.9478,-0.000352323,0.0887779,20.8288,481.298,0.073678,0.0,0.0
1134,283.25,16.7524,18.1459,168.864,100.763,99.9022,-0.000389356,0.0888149,20.8296,481.308,0.0787323,0.0,0.0
1141,285,16.9022,18.4111,171.311,100.722,99.9128,-0.000450689,0.0886926,20.8301,481.308,0.0739992,0.0,0.0
1148,286.75,16.8294,18.3718,170.096,100.696,99.8048,-0.000494049,0.0883378,20.8312,481.318,0.0815961,0.0,0.0
1155,288.5,16.6042,18.1758,167.514,100.656,99.8621,-0.000513821,0.0879038,20.8313,481.308,0.0726862,0.0,0.0
1162,290.25,16.8603,17.9815,167.776,100.639,99.8089,-0.000516069,0.0876827,20.8314,481.278,0.076039,0.0,0.0
1169,292,16.3451,18.2834,168.045,100.614,99.9407,-0.000478064,0.0874245,20.8314,481.288,0.0615948,0.0,0.0
1176,293.75,16.776,18.355,170.685,100.561,99.5761,-0.000436986,0.0872947,20.8312,481.288,0.0903175,0.0,0.0
1183,295.5,16.7866,18.0371,170.306,100.527,99.5782,-0.000468747,0.086925,20.8308,481.298,0.0870469,0.0,0.0
1190,297.25,16.7128,18.1855,166.619,100.47,99.6172,-0.000555104,0.0865165,20.8307,481.308,0.0781802,0.0,0.0
1197,299,17.1379,18.7058,170.837,100.44,99.4707,-0.000625127,0.0863405,20.8302,481.298,0.0889786,0.0,0.0
1204,300.75,17.0304,18.8932,167.711,100.392,99.4169,-0.000650067,0.0863035,20.8292,481.288,0.0896059,0.0,0.0
1211,302.5,16.9161,18.5375,164.073,100.329,99.602,-0.000570981,0.086382,20.8293,481.288,0.066698,0.0,0.0
1218,304.25,16.6964,18.3956,164.92,100.268,99.3647,-0.00050751,0.0864211,20.83,481.278,0.0830813,0.0,0.0
1225,306,16.8478,18.1546,167.584,100.205,99.422,-0.000520412,0.0864619,20.8296,481.278,0.0719797,0.0,0.0
1232,307.75,16.4219,18.2598,173.215,100.199,99.3287,-0.000590338,0.0865471,20.8289,481.278,0.0800293,0.0,0.0
1239,309.5,16.7513,18.4124,169.678,100.206,99.388,-0.000632027,0.0865357,20.8286,481.278,0.0752297,0.0,0.0
1246,311.25,16.7513,18.1919,172.104,100.226,99.2587,-0.00063179,0.0866688,20.8284,481.278,0.0889873,0.0,0.0
1253,313,17.181,17.9263,171.701,100.238,99.2622,-0.000660967,0.0867684,20.8282,481.278,0.0897532,0.0,0.0
1260,314.75,16.8595,18.6587,166.833,100.251,99.3738,-0.000755359,0.0867145,20.8282,481.288,0.0806539,0.0,0.0
1267,316.5,16.6225,18.1698,171.5,100.277,99.2775,-0.000832206,0.0867514,20.8281,481.288,0.0919692,0.0,0.0
1274,318.25,16.6548,17.9176,167.736,100.298,99.4058,-0.000795734,0.0867834,20.8281,481.278,0.0819669,0.0,0.0
1281,320,17.1847,18.3299,174.46,100.32,99.3069,-0.00072754,0.0868396,20.8281,481.278,0.0930976,0.0,0.0
1288,321.75,17.0148,18.4156,169.657,100.333,99.4468,-0.000642346,0.0867907,20.8281,481.268,0.0814183,0.0,0.0
1295,323.5,16.6731,18.687,168.695,100.361,99.5335,-0.000592312,0.0866581,20.8281,481.258,0.0759468,0.0,0.0
1302,325.25,16.6177,17.3938,175.999,100.39,99.5204,-0.000595866,0.0865761,20.8289,481.278,0.0798374,0.0,0.0
1309,327,16.8403,18.4769,172.147,100.393,99.5964,-0.000640039,0.0865569,20.8296,481.278,0.073129,0.0,0.0
1316,328.75,17.5669,18.3942,170.649,100.437,99.5082,-0.000678345,0.0866014,20.83,481.258,0.0852914,0.0,0.0
1323,330.5,16.9783,18.5357,166.263,100.465,99.5219,-0.000638766,0.0865625,20.8294,481.288,0.0865138,0.0,0.0
1330,332.25,17.1259,18.6862,167.429,100.489,99.6213,-0.000514972,0.0865665,20.8287,481.278,0.079538,0.0,0.0
1337,334,17.4232,17.9555,163.939,100.501,99.5381,-0.000471363,0.0866627,20.8286,481.268,0.0883308,0.0,0.0
1344,335.75,17.5366,18.6587,166.088,100.536,99.6892,-0.000534367,0.0869276,20.829,481.278,0.0776466,0.0,0.0
1351,337.5,16.9218,18.3242,166.173,100.558,99.6192,-0.000605063,0.0874077,20.8288,481.268,0.0860467,0.0,0.0
1358,339.25,16.9946,18.7724,171.779,100.58,99.6765,-0.000635478,0.0878185,20.8287,481.258,0.0828385,0.0,0.0
1365,341,16.5949,18.0509,169.672,100.606,99.7217,-0.00057878,0.087967,20.8286,481.268,0.081016,0.0,0.0
1372,342.75,17.4684,18.3033,162.718,100.618,99.6943,-0.000461896,0.0880606,20.8286,481.278,0.0846638,0.0,0.0
1379,344.5,16.7773,18.2315,174.77,100.64,99.7779,-0.000318843,0.0884162,20.8275,481.248,0.0789199,0.0,0.0
1386,346.25,17.0905,18.9912,169.642,100.679,99.7637,-0.000196639,0.0890585,20.8266,481.248,0.0837967,0.0,0.0
1393,348,17.449,18.6594,170.177,100.701,99.892,-0.000180136,0.0895839,20.826,481.258,0.0739938,0.0,0.0
1400,349.75,17.0323,18.5379,170.283,100.695,99.8946,-0.000258052,0.0898033,20.8257,481.258,0.0732733,0.0,0.0
1407,351.5,17.2607,18.2797,170.04,100.726,99.7947,-0.00036538,0.0899829,20.8256,481.258,0.085196,0.0,0.0
1414,353.25,17.2054,18.6258,168.59,100.754,99.8256,-0.000493634,0.0900226,20.8255,481.288,0.0849044,0.0,0.0
1421,355,16.8905,18.261,171.528,100.775,99.8383,-0.000585433,0.0902804,20.823,481.288,0.0856923,0.0,0.0
1428,356.75,16.8438,18.4211,165.227,100.789,99.853,-0.000602313,0.0911822,20.8191,481.268,0.0856533,0.0,0.0
1435,358.5,17.1073,18.2815,167.681,100.809,99.9062,-0.000502493,0.092655,20.8143,481.238,0.0825252,0.0,0.0
1442,360.25,17.2345,18.5849,165.083,100.835,99.9356,-0.000330942,0.0942575,20.812,481.258,0.082226,0.0,0.0
1449,362,17.023,18.3646,171.123,100.845,100.018,-0.000171246,0.0954562,20.8126,481.218,0.0755399,0.0,0.0
1456,363.75,17.1061,18.4156,168.628,100.865,100.04,-0.000132243,0.0961028,20.8138,481.248,0.0753772,0.0,0.0
1463,365.5,16.6031,18.9651,169.074,100.879,100.011,-0.000223741,0.0964576,20.8154,481.268,0.0792658,0.0,0.0
1470,367.25,17.0945,18.3128,171.793,100.894,100.005,-0.000297865,0.0966948,20.8162,481.238,0.0812123,0.0,0.0
1477,369,17.0254,18.8138,168.551,100.911,100.01,-0.000292272,0.0970419,20.8158,481.238,0.0823203,0.0,0.0
1484,370.75,17.029,18.2307,166.534,100.93,100.007,-0.000272051,0.0975739,20.8165,481.258,0.0843333,0.0,0.0
1491,372.5,17.6308,18.6707,169.042,100.948,100.022,-0.000289805,0.097968,20.8183,481.238,0.0845013,0.0,0.0
1498,374.25,16.9076,18.6079,169.392,100.939,100.109,-0.000283511,0.0978653,20.8201,481.228,0.0758481,0.0,0.0
1505,376,17.1186,18.1818,166.446,100.96,100.136,-0.000251133,0.0972615,20.8221,481.218,0.0751277,0.0,0.0
1512,377.75,16.9175,18.3808,175.026,100.974,100.074,-0.000253415,0.0962394,20.8235,481.248,0.0821187,0.0,0.0
1519,379.5,16.5484,18.1489,167.45,100.971,100.038,-0.000254215,0.0952294,20.8253,481.248,0.085196,0.0,0.0
1526,381.25,17.1397,18.6225,167.531,100.972,100.115,-0.000222718,0.0937363,20.8279,481.248,0.078241,0.0,0.0
1533,383,17.3817,19.0162,167.917,100.979,100.052,-0.000209068,0.0926146,20.8286,481.238,0.0846422,0.0,0.0
1540,384.75,17.0335,18.5468,168.385,100.989,100.035,-0.000262776,0.0918387,20.8288,481.228,0.0870945,0.0,0.0
1547,386.5,17.4343,18.827,170.368,100.997,100.119,-0.000305698,0.0912943,20.8289,481.218,0.0800781,0.0,0.0
1554,388.25,17.1338,18.1528,169.011,100.976,100.027,-0.000267384,0.0908418,20.829,481.218,0.0866221,0.0,0.0
1561,390,17.2119,18.348,175.148,100.971,100.147,-0.000195964,0.0903479,20.8307,481.228,0.0752101,0.0,0.0
1568,391.75,17.1306,18.6073,169.521,100.973,100.011,-0.000141285,0.0897499,20.8315,481.238,0.0878573,0.0,0.0
1575,393.5,17.0132,18.9809,169.092,100.966,100.072,-9.713e-05,0.0890412,20.8325,481.238,0.0816384,0.0,0.0
1582,395.25,16.8583,19.1742,169.728,100.951,100.088,-6.47378e-05,0.0883969,20.8335,481.218,0.0787561,0.0,0.0
1589,397,16.5657,18.7119,169.838,100.939,100.103,-0.000101333,0.0877181,20.834,481.218,0.0763221,0.0,0.0
1596,398.75,17.2886,18.5979,169.461,100.93,100.037,-0.000215057,0.0872548,20.8342,481.228,0.0816254,0.0,0.0
1603,400.5,16.9714,19.1548,170.969,100.914,100.054,-0.000386682,0.086838,20.8339,481.228,0.0785457,0.0,0.0
1610,402.25,16.6576,18.6198,172.634,100.897,99.9919,-0.000628945,0.0863647,20.8338,481.238,0.0826835,0.0,0.0
1617,404,17.1104,18.8652,170.254,100.875,100.135,-0.000794534,0.0861977,20.8333,481.228,0.067583,0.0,0.0
1624,405.75,17.1648,18.877,170.474,100.867,99.9062,-0.000776215,0.0862021,20.8324,481.258,0.0878519,0.0,0.0
1631,407.5,17.1956,18.8941,171.124,100.835,99.9433,-0.000667242,0.0863777,20.8311,481.228,0.0814898,0.0,0.0
1638,409.25,16.9934,18.5463,170.718,100.808,99.8885,-0.000624031,0.0868091,20.829,481.228,0.0840439,0.0,0.0
1645,411,17.1155,18.4752,172.627,100.781,100.007,-0.000570246,0.0875092,20.8269,481.218,0.0707944,0.0,0.0
1652,412.75,17.3974,19.1169,170.781,100.732,99.8753,-0.000501991,0.0884715,20.826,481.218,0.0783863,0.0,0.0
1659,414.5,17.1487,18.5722,167.426,100.719,99.8449,-0.000483366,0.0893653,20.8265,481.238,0.0800174,0.0,0.0
1666,416.25,16.7502,18.7989,168.561,100.685,99.7541,-0.000480392,0.089663,20.8268,481.238,0.0852458,0.0,0.0
1673,418,17.1014,18.8578,166.227,100.652,99.6502,-0.000422243,0.0897276,20.8273,481.208,0.0918068,0.0,0.0
1680,419.75,17.1668,18.3789,169.978,100.62,99.6831,-0.000356164,0.0897298,20.8284,481.218,0.0858408,0.0,0.0
1687,421.5,17.4718,18.3097,171.691,100.594,99.6497,-0.000357241,0.0897416,20.8289,481.238,0.0865159,0.0,0.0
1694,423.25,17.2634,18.7491,167.403,100.553,99.7065,-0.000415643,0.0896623,20.8291,481.228,0.0775642,0.0,0.0
1701,425,17.2299,18.4937,164.732,100.526,99.5705,-0.000422786,0.0896906,20.8292,481.238,0.0876352,0.0,0.0
1708,426.75,17.1711,19.4348,167.119,100.5,99.5406,-0.00033866,0.0895673,20.8293,481.208,0.088022,0.0,0.0
1715,428.5,17.2632,19.03,169.607,100.438,99.5462,-0.000144016,0.0892989,20.8295,481.218,0.0818227,0.0,0.0
1722,430.25,17.3042,18.881,167.735,100.408,99.5406,-2.47789e-05,0.0889592,20.8296,481.218,0.0796248,0.0,0.0
1729,432,16.8208,18.5867,166.917,100.364,99.4078,-5.82005e-05,0.0885949,20.8296,481.218,0.0878866,0.0,0.0
1736,433.75,17.1938,18.526,170.275,100.311,99.3728,-0.000155106,0.0883477,20.8297,481.218,0.0862168,0.0,0.0
1743,435.5,17.4902,18.6337,164.891,100.283,99.5204,-0.000228141,0.0881023,20.829,481.208,0.0700367,0.0,0.0
1750,437.25,17.3139,18.5807,165.853,100.235,99.3266,-0.000276085,0.087871,20.8282,481.228,0.0835756,0.0,0.0
1757,439,17.3833,18.8324,175.779,100.191,99.3322,-0.000308644,0.0878074,20.8278,481.218,0.078985,0.0,0.0
1764,440.75,16.9654,17.9178,169.188,100.151,99.3282,-0.000302756,0.0878541,20.8286,481.218,0.0756582,0.0,0.0
1771,442.5,17.6034,18.6206,167.416,100.1,99.4184,-0.000285638,0.0878815,20.8292,481.208,0.0627149,0.0,0.0
1778,444.25,17.2049,19.1496,172.919,100.067,99.0422,-0.000250979,0.0878628,20.8294,481.258,0.0944478,0.0,0.0
1785,446,17.4618,18.5096,166.762,100.03,99.0822,-0.000265542,0.0879221,20.8296,481.108,0.087334,0.0,0.0
1792,447.75,17.4632,19.1523,170.697,99.9807,99.0604,-0.000270241,0.087936,20.8296,481.138,0.0848524,0.0,0.0
1799,449.5,17.4856,19.0804,167.69,99.9288,99.0949,-0.000255235,0.0878214,20.8297,481.178,0.0768916,0.0,0.0
1806,451.25,16.7091,18.5557,170.863,99.8896,98.9514,-0.000381235,0.0877493,20.8306,481.208,0.0865929,0.0,0.0
1813,453,17.4339,19.3767,171.814,99.8517,98.9899,-0.000563635,0.0876523,20.8315,481.198,0.0795359,0.0,0.0
1820,454.75,17.1158,18.7232,176.228,99.815,98.8901,-0.00062615,0.0875967,20.8319,481.208,0.085429,0.0,0.0
1827,456.5,17.3737,19.0522,163.086,99.7779,98.9316,-0.000625662,0.0876389,20.8321,481.208,0.0781596,0.0,0.0
1834,458.25,17.3441,18.2597,170.39,99.7355,98.8038,-0.000646023,0.0875062,20.8322,481.218,0.086115,0.0,0.0
1841,460,17.3493,19.0187,165.404,99.6835,98.9134,-0.000752561,0.087336,20.8322,481.228,0.0711689,0.0,0.0
1848,461.75,16.9402,18.9445,164.38,99.651,98.9479,-0.000827189,0.0871267,20.8323,481.198,0.0649723,0.0,0.0
1855,463.5,17.3282,18.8274,167.002,99.6031,98.7126,-0.000833126,0.0867772,20.8335,481.218,0.0824135,0.0,0.0
1862,465.25,17.4955,18.6587,170.15,99.5636,98.7105,-0.000828263,0.0863969,20.8341,481.188,0.0789557,0.0,0.0
1869,467,17.1726,18.8514,169.322,99.5236,98.7476,-0.000779192,0.0859724,20.8343,481.168,0.0718299,0.0,0.0
1876,468.75,17.3802,18.8551,168.333,99.4865,98.6558,-0.000655846,0.0857,20.8345,481.198,0.0769415,0.0,0.0
1883,470.5,17.6108,19.4577,174.621,99.4477,98.564,-0.000509581,0.0857306,20.8333,481.218,0.0819083,0.0,0.0
1890,472.25,17.4251,19.5137,166.829,99.4078,98.5371,-0.000376243,0.0858015,20.8328,481.228,0.0807211,0.0,0.0
1897,474,17.2403,18.5482,168.591,99.3698,98.4824,-0.000301216,0.0858644,20.8325,481.218,0.0823214,0.0,0.0
1904,475.75,17.2076,19.0535,165.248,99.3311,98.4164,-0.000362274,0.0859703,20.832,481.228,0.084886,0.0,0.0
1911,477.5,17.2042,18.69,164.518,99.3055,98.3449,-0.000430846,0.0861485,20.8318,481.238,0.0891942,0.0,0.0
1918,479.25,17.0386,18.9258,168.904,99.2557,98.3495,-0.000450832,0.0862443,20.8317,481.208,0.0841588,0.0,0.0
1925,481,17.5811,18.6774,164.769,99.2342,98.3444,-0.000396358,0.0861449,20.8306,481.188,0.0826498,0.0,0.0
1932,482.75,17.3719,19.1218,169.527,99.1942,98.3541,-0.000293203,0.0862761,20.83,481.198,0.0780522,0.0,0.0
1939,484.5,17.1855,18.8369,162.685,99.1823,98.2729,-0.000174416,0.0865521,20.8296,481.198,0.0845197,0.0,0.0
1946,486.25,17.1788,18.733,170.412,99.146,98.1451,-9.24603e-05,0.0869459,20.8279,481.208,0.093103,0.0,0.0
1953,488,16.7705,18.5608,170.125,99.1299,98.2425,-0.000121187,0.0877444,20.8247,481.188,0.0825165,0.0,0.0
1960,489.75,17.5002,18.7789,170.576,99.0957,98.2866,-0.000252159,0.0891171,20.8204,481.188,0.0752297,0.0,0.0
1967,491.5,17.518,18.8134,168.532,99.0854,98.2009,-0.000324502,0.0909386,20.8178,481.188,0.0822791,0.0,0.0
1974,493.25,16.7399,18.7308,166.536,99.0599,98.1467,-0.000233577,0.0927608,20.8157,481.188,0.0849836,0.0,0.0
1981,495,17.6255,18.8844,167.571,99.0475,98.1933,-8.17961e-05,0.0943361,20.8144,481.198,0.0794773,0.0,0.0
1988,496.75,17.7938,18.5708,170.719,99.0215,98.1457,1.83609e-05,0.0958495,20.8129,481.198,0.0815267,0.0,0.0
1995,498.5,17.8943,18.8383,164.756,99.0104,98.1254,1.78043e-05,0.0971888,20.8134,481.208,0.0823918,0.0,0.0
2002,500.25,16.8697,18.7009,166.804,98.998,98.1157,-1.41908e-05,0.0985794,20.8118,481.188,0.0821468,0.0,0.0
2009,502,17.2642,18.8243,168.554,98.9923,98.1482,3.5895e-05,0.100436,20.8099,481.208,0.0785772,0.0,0.0
2016,503.75,17.7739,18.7211,167.899,98.9745,98.0316,7.65135e-05,0.102163,20.8098,481.178,0.0878443,0.0,0.0
2023,505.5,18.0188,18.7349,170.988,98.9601,98.0392,-1.9787e-06,0.10312,20.8128,481.178,0.0857953,0.0,0.0
2030,507.25,17.3968,18.934,166.317,98.9655,98.0595,-0.000183233,0.103087,20.816,481.188,0.084394,0.0,0.0
2037,509,17.5295,19.22,168.962,98.9708,98.0549,-0.000336787,0.102189,20.8184,481.128,0.0853174,0.0,0.0
2044,510.75,17.3616,18.5599,162.126,98.9605,98.2014,-0.000421887,0.101152,20.8203,481.198,0.0706587,0.0,0.0
2051,512.5,17.4876,18.8135,171.076,98.9531,98.0965,-0.00044989,0.100083,20.8212,481.188,0.0797842,0.0,0.0
2058,514.25,17.0995,19.38,166.504,98.9494,98.2521,-0.00033176,0.0992602,20.8217,481.198,0.0648897,0.0,0.0
2065,516,17.2774,19.2205,170.229,98.9729,98.1538,-0.000226781,0.0986418,20.8201,481.188,0.0762603,0.0,0.0
2072,517.75,17.5767,18.907,170.102,98.9737,98.1386,-0.000180607,0.0986622,20.8191,481.198,0.0777594,0.0,0.0
2079,519.5,17.2532,19.1066,169.157,98.9787,98.0625,-0.000264405,0.0988816,20.8189,481.198,0.0853315,0.0,0.0
2086,521.25,17.4824,18.8174,169.376,98.9914,98.1031,-0.000391343,0.0986499,20.8198,481.198,0.0827214,0.0,0.0
2093,523,17.748,19.1587,173.473,99.0174,98.2258,-0.000524335,0.0981356,20.8218,481.178,0.0736574,0.0,0.0
2100,524.75,17.5609,18.9126,168.777,99.0207,98.06,-0.000589178,0.0970828,20.8237,481.198,0.0894661,0.0,0.0
2107,526.5,17.3613,18.8833,170.414,99.0492,98.3171,-0.00058948,0.0960879,20.8242,481.198,0.0680749,0.0,0.0
2114,528.25,17.2018,18.7909,163.901,99.0533,98.243,-0.00054365,0.0950467,20.8243,481.168,0.0753696,0.0,0.0
2121,530,17.3182,19.2278,174.572,99.0867,98.1624,-0.000366708,0.0943736,20.8232,481.178,0.0859958,0.0,0.0
2128,531.75,17.6693,19.1196,164.489,99.1081,98.1391,-0.000146332,0.0940949,20.8215,481.178,0.0901616,0.0,0.0
2135,533.5,16.9264,18.2513,168.483,99.1312,98.3125,-2.87408e-05,0.0940418,20.8202,481.178,0.0760965,0.0,0.0
2142,535.25,17.9202,19.115,167.988,99.151,98.2866,-1.50239e-05,0.0941906,20.8188,481.198,0.0803427,0.0,0.0
2149,537,17.8378,19.2696,171.988,99.172,98.2887,-5.77755e-05,0.094488,20.8182,481.188,0.082098,0.0,0.0
2156,538.75,17.7058,19.0148,170.263,99.1996,98.2669,-0.000145307,0.0946735,20.8179,481.178,0.0866893,0.0,0.0
2163,540.5,17.6074,19.0851,166.374,99.2264,98.3064,-0.000263503,0.0947939,20.8177,481.178,0.0854745,0.0,0.0
2170,542.25,17.3756,19.2745,170.088,99.2421,98.4398,-0.000401902,0.0948609,20.8176,481.188,0.0744832,0.0,0.0
2177,544,17.8393,18.4947,170.841,99.2796,98.4646,-0.000440565,0.0949102,20.818,481.188,0.0756354,0.0,0.0
2184,545.75,17.3389,18.8139,165.496,99.3158,98.4631,-0.000320177,0.0952115,20.8194,481.158,0.0791292,0.0,0.0
2191,547.5,18.0493,19.3442,170.864,99.3513,98.42,-9.11464e-05,0.0956752,20.8193,481.178,0.0864216,0.0,0.0
2198,549.25,17.6454,19.0547,172.08,99.3863,98.4981,6.16584e-05,0.0963372,20.8184,481.168,0.0823788,0.0,0.0
2205,551,17.6097,18.5783,167.59,99.4251,98.5599,0.000188402,0.0971729,20.8173,481.158,0.0801941,0.0,0.0
2212,552.75,17.6673,19.031,169.904,99.463,98.6208,0.000231902,0.0978505,20.8177,481.188,0.0780295,0.0,0.0
2219,554.5,17.671,18.8204,168.312,99.4902,98.6071,0.000155628,0.0984437,20.8182,481.198,0.0818129,0.0,0.0
2226,556.25,18.0248,18.8989,166.742,99.5199,98.6609,2.65708e-05,0.0990689,20.8184,481.198,0.0795489,0.0,0.0
2233,558,17.7203,18.8211,170.393,99.5442,98.5787,-0.000105604,0.0993545,20.8189,481.168,0.0894347,0.0,0.0
2240,559.75,16.9566,18.1173,169.161,99.5743,98.5959,-0.000127743,0.0993291,20.8212,481.178,0.0906035,0.0,0.0
2247,561.5,16.89,18.8428,166.888,99.6184,98.7602,-0.000136027,0.0989287,20.8234,481.178,0.0793895,0.0,0.0
2254,563.25,17.4354,18.1974,169.378,99.6497,98.8089,-0.000215681,0.0981597,20.825,481.158,0.0777518,0.0,0.0
2261,565,16.7175,18.8134,169.731,99.674,98.956,-0.000322877,0.0972225,20.8258,481.168,0.0663451,0.0,0.0
2268,566.75,17.7037,19.3013,171.418,99.7128,99.0168,-0.000417457,0.0961922,20.8268,481.168,0.0642706,0.0,0.0
2275,568.5,17.4539,19.2007,168.296,99.7631,98.8419,-0.000406893,0.0951661,20.8282,481.158,0.0851234,0.0,0.0
2282,570.25,17.2053,19.4796,172.387,99.801,98.8647,-0.000337341,0.0941123,20.8289,481.168,0.0864932,0.0,0.0
2289,572,17.7913,18.9331,172.092,99.8385,98.8343,-0.000259388,0.0930394,20.8295,481.178,0.0927652,0.0,0.0
2296,573.75,17.0944,19.5543,165.34,99.8698,98.9103,-0.000204841,0.0918604,20.8308,481.168,0.0885854,0.0,0.0
2303,575.5,17.0713,19.1241,166.749,99.9012,98.997,-0.000186763,0.0907961,20.8314,481.188,0.0834217,0.0,0.0
2310,577.25,17.2629,19.2288,166.772,99.9354,99.0559,-0.000179559,0.0898031,20.8316,481.178,0.0811125,0.0,0.0
2317,579,17.3443,18.9104,172.883,99.9725,99.0691,-0.000124626,0.0890658,20.8317,481.178,0.0832981,0.0,0.0
2324,580.75,17.6638,19.1293,171.605,100.004,99.1329,-6.0198e-05,0.0884613,20.8314,481.178,0.080295,0.0,0.0
2331,582.5,17.6145,18.8278,173.119,100.025,99.1416,-4.9608e-05,0.0877832,20.8312,481.168,0.0814259,0.0,0.0
2338,584.25,17.908,18.4964,170.218,100.056,99.2501,-9.84337e-05,0.0871643,20.8311,481.168,0.0741848,0.0,0.0
2345,586,17.5238,18.4545,171.798,100.099,99.1593,-0.000155805,0.086869,20.8309,481.168,0.0865874,0.0,0.0
2352,587.75,17.9556,18.9604,168.917,100.122,98.7663,-0.000142258,0.0869818,20.8274,481.158,0.125066,0.0,1.0
2359,589.5,16.9997,18.6378,169.019,100.13,98.3531,-9.572e-05,0.0878681,20.8233,481.178,0.164335,0.0,1.0
2366,591.25,17.728,19.0439,169.947,100.165,98.1421,-2.69387e-05,0.0893956,20.8201,481.138,0.18721,0.0,1.0
2373,593,17.1289,18.3955,165.495,100.188,97.6685,9.06512e-05,0.0913952,20.8161,481.128,0.233752,0.0,1.0
2380,594.75,17.0399,18.8703,163.675,100.214,96.9216,0.00015714,0.0948754,20.8091,481.108,0.306498,0.0,0.0
2387,596.5,17.7644,19.4525,166.961,100.237,96.879,0.000173677,0.0986032,20.7998,481.068,0.312646,0.0,0.0
2394,598.25,18.1248,19.5802,170.359,100.262,96.3861,0.000158556,0.103333,20.7911,481.108,0.361751,0.0,0.0
2401,600,18.0352,20.151,170.432,100.278,95.126,0.000252417,0.108145,20.7838,481.018,0.483975,0.0,0.0
2408,601.75,18.055,20.1811,163.052,100.292,94.3999,0.000549111,0.113902,20.7738,480.988,0.55561,0.0,0.0
2415,603.5,18.6464,20.7413,164.712,100.306,94.0185,0.000951146,0.119852,20.7632,480.928,0.594033,0.0,0.0
2422,605.25,18.5752,21.3087,165.169,100.32,92.765,0.00134296,0.126786,20.7549,480.868,0.718478,0.0,0.0
2429,607,19.2194,21.5635,166.491,100.341,92.2027,0.00174829,0.133803,20.7458,480.788,0.776197,0.0,0.0
2436,608.75,19.4867,22.2635,162.82,100.362,91.6185,0.00198256,0.141191,20.7373,480.768,0.836439,0.0,0.0
2443,610.5,19.9718,22.7535,162.264,100.362,91.2332,0.00214391,0.148714,20.7293,480.728,0.875043,0.0,0.0
2450,612.25,20.0455,23.446,166.89,100.376,90.5116,0.00238254,0.155961,20.721,480.658,0.949227,0.0,0.0
2457,614,20.8305,23.6373,160.595,100.37,90.6733,0.00271524,0.164069,20.7113,480.547,0.932277,0.0,0.0
2464,615.75,20.6607,24.1471,164.472,100.387,88.7135,0.00306338,0.172029,20.7019,480.497,1.13433,0.0,0.0
2471,617.5,21.3575,24.8448,161.751,100.39,89.966,0.00326989,0.179928,20.6899,480.317,1.00599,0.0,0.0
2478,619.25,21.6552,25.4769,164.623,100.395,88.5745,0.00332601,0.189379,20.677,480.367,1.14943,0.0,0.0
2485,621,21.6767,25.8999,161.005,100.376,88.3606,0.00339374,0.197875,20.6677,480.277,1.16993,0.0,0.0
2492,622.75,22.5404,26.7739,161.799,100.392,88.9954,0.00357808,0.205503,20.6584,480.157,1.10567,0.0,0.0
2499,624.5,22.8164,27.4966,163.188,100.387,87.7521,0.00376517,0.214405,20.6478,480.097,1.23436,0.0,0.0
2506,626.25,22.8628,27.4568,157.798,100.383,86.7313,0.00389857,0.223091,20.6397,479.987,1.34135,0.0,0.0
2513,628,23.5153,27.9664,160.603,100.376,86.9828,0.0040576,0.230893,20.6309,479.837,1.31417,0.0,0.0
2520,629.75,24.0384,28.7705,161.705,100.367,84.6041,0.00416458,0.238968,20.625,479.767,1.5677,0.0,0.0
2527,631.5,24.4089,29.0294,160.52,100.364,86.4098,0.00396749,0.246599,20.6245,479.657,1.37369,0.0,0.0
2534,633.25,24.1445,29.4796,168.563,100.348,89.8605,0.00348346,0.25123,20.6343,479.597,1.01295,0.0,0.0
2541,635,24.8757,28.4495,164.307,100.333,94.9237,0.00273826,0.251179,20.6571,479.567,0.508528,0.0,0.0
2548,636.75,23.8499,27.9033,169.237,100.301,98.4469,0.00208546,0.244066,20.6842,479.637,0.171175,0.0,0.0
2555,638.5,22.8165,26.9969,166.846,100.31,99.4255,0.00170209,0.2333,20.7121,479.677,0.081273,0.0,0.0
2562,640.25,22.7324,25.8711,170.167,100.26,99.5655,0.00148628,0.220586,20.7389,479.567,0.0638013,0.0,0.0
2569,642,21.6398,25.3059,166.046,100.25,99.4615,0.00137021,0.204472,20.7597,479.677,0.0724811,0.0,0.0
2576,643.75,21.4169,24.5219,167.716,100.227,99.4027,0.00129215,0.190382,20.777,479.537,0.075796,0.0,0.0
2583,645.5,20.93,24.3145,169.774,100.214,99.3733,0.00118273,0.17513,20.791,479.617,0.0773429,0.0,0.0
2590,647.25,20.5101,23.2501,169.691,100.183,99.3246,0.000970308,0.161476,20.8002,479.567,0.0789318,0.0,0.0
2597,649,20.529,22.4563,168.888,100.191,99.3895,0.000679553,0.150542,20.8067,479.567,0.0736922,0.0,0.0
2604,650.75,20.4769,22.1181,169.246,100.188,99.6304,0.000498683,0.14107,20.8104,479.557,0.0511796,0.0,0.0
2611,652.5,19.8534,22.3573,170.896,100.155,99.4377,0.000414311,0.13318,20.8128,479.557,0.0659986,0.0,0.0
2618,654.25,19.4148,21.6864,170.686,100.166,99.2709,0.000376025,0.126241,20.8148,479.567,0.0823506,0.0,0.0
2625,656,19.1824,21.0301,163.506,100.147,99.3414,0.00034126,0.120566,20.8174,479.567,0.0741002,0.0,0.0
2632,657.75,18.8785,20.8829,168.127,100.147,99.3647,0.000298464,0.115525,20.8197,479.567,0.071946,0.0,0.0
2639,659.5,19.0483,20.6385,170.21,100.132,99.3703,0.000235146,0.111109,20.8217,479.557,0.0700714,0.0,0.0
2646,661.25,19.2305,20.4747,167.649,100.122,99.2952,0.000157713,0.107228,20.8227,479.577,0.0760596,0.0,0.0
2653,663,18.3077,19.7695,168.335,100.123,99.386,1.51631e-05,0.103878,20.8247,479.587,0.0677893,0.0,0.0
2660,664.75,18.6876,19.7837,172.909,100.128,99.3414,-0.000128917,0.101351,20.8263,479.587,0.0724008,0.0,0.0
2667,666.5,18.5499,19.2847,167.225,100.104,99.3814,-0.000337773,0.0988363,20.8271,479.587,0.0664352,0.0,0.0
2674,668.25,18.5093,19.7968,167.881,100.092,99.3692,-0.000579344,0.0967253,20.8275,479.557,0.0665014,0.0,0.0
2681,670,17.8211,19.1348,168.867,100.087,99.277,-0.00068992,0.0949892,20.8277,479.577,0.0745732,0.0,0.0
2688,671.75,18.5982,19.28,171.382,100.09,99.2232,-0.000599868,0.0936498,20.8278,479.567,0.079807,0.0,0.0
2695,673.5,17.9843,18.9611,168.486,100.069,99.3642,-0.000495613,0.0923637,20.8278,479.567,0.0648517,0.0,0.0
2702,675.25,18.251,19.8666,172.749,100.052,99.3246,-0.000450927,0.0913517,20.8279,479.557,0.0669184,0.0,0.0
2709,677,18.0167,19.848,165.346,100.055,99.3135,-0.000293298,0.0905717,20.8281,479.557,0.0682888,0.0,0.0
2716,678.75,18.1041,19.134,167.416,100.046,99.3632,-5.42267e-05,0.0897426,20.8292,479.557,0.062829,0.0,0.0
2723,680.5,17.7591,19.6606,170.053,100.045,99.3033,9.41477e-05,0.088939,20.8297,479.557,0.0682812,0.0,0.0
2730,682.25,17.7063,18.7775,169.319,100.03,99.318,0.000116318,0.0882658,20.83,479.557,0.065562,0.0,0.0
2737,684,17.8207,18.9571,171.787,100.021,99.2521,-3.10224e-06,0.0879023,20.8301,479.557,0.0708215,0.0,0.0
2744,685.75,17.9205,19.2298,167.152,100.032,99.2592,-0.000169426,0.0874915,20.83,479.547,0.0711483,0.0,0.0
2751,687.5,18.4015,18.7159,168.716,100.024,99.2318,-0.0003271,0.0871532,20.8297,479.557,0.0729987,0.0,0.0
2758,689.25,17.5513,18.8991,165.272,100.018,99.3819,-0.000435778,0.0868644,20.8306,479.567,0.0585258,0.0,0.0
2765,691,17.5361,18.5497,166.628,100.01,99.2486,-0.000517018,0.0864705,20.8312,479.557,0.0701659,0.0,0.0
2772,692.75,17.9005,19.0216,168.918,100.016,99.349,-0.000509119,0.0861381,20.8316,479.567,0.0614176,0.0,0.0
2779,694.5,17.7263,18.8081,168.89,100.054,99.2638,-0.000469196,0.0857864,20.8317,479.577,0.0727676,0.0,0.0
2786,696.25,17.6698,19.0979,171.057,100.109,99.3621,-0.000439394,0.0855192,20.8318,479.557,0.0687426,0.0,0.0
2793,698,17.3777,19.1296,168.181,100.157,99.4737,-0.000422527,0.0853096,20.8309,479.567,0.062791,0.0,0.0
2800,699.75,17.3646,19.0569,164.137,100.225,99.4478,-0.000436974,0.0850404,20.8302,479.567,0.0714055,0.0,0.0
2807,701.5,16.8452,18.5853,167.15,100.285,99.5011,-0.000434426,0.0848518,20.8298,479.567,0.0720014,0.0,0.0
2814,703.25,17.5105,18.6715,167.296,100.343,99.5939,-0.000385036,0.0847659,20.8297,479.567,0.0687643,0.0,0.0
2821,705,17.7382,18.7699,165.103,100.378,99.6121,-0.000300868,0.0846719,20.8296,479.567,0.0703244,0.0,0.0
2828,706.75,17.5505,18.6644,175.079,100.409,99.6142,-0.000224127,0.0845546,20.8296,479.557,0.0729249,0.0,0.0
2835,708.5,16.8897,18.504,168.358,100.479,99.5822,-0.000225505,0.0845095,20.8296,479.577,0.0823073,0.0,0.0
2842,710.25,17.4777,18.6964,168.329,100.498,99.747,-0.000301951,0.0843923,20.8299,479.577,0.0688284,0.0,0.0
2849,712,17.2675,18.4621,170.976,100.547,99.7972,-0.000334769,0.0843749,20.83,479.547,0.0686883,0.0,0.0
2856,713.75,17.0481,18.384,170.113,100.573,99.7759,-0.000323309,0.0843731,20.8313,479.567,0.0729792,0.0,0.0
2863,715.5,17.5574,18.3675,167.147,100.622,99.993,-0.000317632,0.0843652,20.8319,479.557,0.0575899,0.0,0.0
2870,717.25,17.4343,18.5847,171.615,100.66,99.8728,-0.000381094,0.0842913,20.8322,479.547,0.0720828,0.0,0.0
2877,719,17.4326,18.867,170.46,100.697,99.9199,-0.000460547,0.0840771,20.8324,479.557,0.0710571,0.0,0.0
2884,720.75,17.2965,18.9422,170.187,100.735,99.9164,-0.000350103,0.0840025,20.8324,479.547,0.0748749,0.0,0.0
2891,722.5,17.7266,18.8145,172.651,100.751,100.088,-0.000139529,0.0840008,20.8325,479.547,0.0606125,0.0,0.0
2898,724.25,18.0522,18.8711,166.427,100.798,99.9585,2.29146e-05,0.0839999,20.8325,479.547,0.0767918,0.0,0.0
2905,726,17.4279,18.8336,167.82,100.821,99.9716,6.76779e-05,0.0839995,20.8326,479.547,0.0776455,0.0,0.0
2912,727.75,17.2063,18.761,174.093,100.834,100.151,1.48383e-05,0.0840009,20.833,479.557,0.0623086,0.0,0.0
2919,729.5,17.2172,18.6125,167.126,100.854,100.186,-7.69264e-05,0.0838769,20.8332,479.547,0.0609417,0.0,0.0
2926,731.25,17.6501,18.4023,172.128,100.876,100.09,-0.000165447,0.0837952,20.8333,479.537,0.0717105,0.0,0.0
2933,733,17.3506,18.6651,164.069,100.887,100.104,-0.000252863,0.0838589,20.8335,479.557,0.0715064,0.0,0.0
2940,734.75,17.087,18.7771,167.197,100.894,100.064,-0.00028349,0.0837852,20.8336,479.557,0.0758155,0.0,0.0
2947,736.5,17.2668,18.6225,167.171,100.902,100.119,-0.000344174,0.0837499,20.8336,479.567,0.0714988,0.0,0.0
2954,738.25,17.3212,18.6659,167.658,100.911,100.1,-0.000411888,0.0836213,20.8333,479.557,0.0740893,0.0,0.0
2961,740,16.637,18.4796,168.435,100.925,100.138,-0.000490556,0.0836384,20.8331,479.547,0.0718038,0.0,0.0
2968,741.75,16.8213,18.1106,169.364,100.932,100.085,-0.000533464,0.0837445,20.833,479.547,0.0773494,0.0,0.0
2975,743.5,17.4247,18.7407,168.077,100.931,100.181,-0.000575265,0.0837622,20.833,479.557,0.0684158,0.0,0.0
2982,745.25,17.4213,18.5702,170.089,100.918,100.107,-0.000613538,0.0836853,20.833,479.537,0.0740003,0.0,0.0
2989,747,17.5712,18.6015,172.896,100.923,100.105,-0.000615923,0.0836129,20.8329,479.557,0.0746828,0.0,0.0
2996,748.75,17.2026,18.3882,170.328,100.923,100.168,-0.000561695,0.0835767,20.8329,479.557,0.0689033,0.0,0.0
3003,750.5,17.0962,19.0338,170.115,100.913,100.112,-0.000509171,0.0835483,20.8329,479.547,0.0732082,0.0,0.0
3010,752.25,17.1238,18.5859,167.684,100.896,100.148,,0.0834991,,479.547,0.0683344,0.0,0.0
3017,754,17.2497,18.654,173.899,100.896,100.114,,,,479.557,0.0714478,0.0,0.0
3024,755.75,17.0085,18.1123,165.117,100.872,100.03,,,,479.547,0.0768613,0.0,0.0
3031,757.5,17.041,18.4167,170.915,100.861,100.072,,,,479.557,0.0720719,0.0,0.0
3038,759.25,17.8763,18.6178,167.958,100.85,100.05,,,,479.547,0.0730595,0.0,0.0
3045,761,17.5494,18.127,167.84,100.813,100.036,,,,479.547,0.0709854,0.0,0.0
3047,761.5,17.0064,18.7573,167.239,100.806,100.106,,,,479.547,0.0639686,0.0,0.0