File: 01_Data/Polyester_Fabric/Cone/Polyester_Fabric_Cone_HF75Scan_210325_R2.csv
Names,Time,Stack TC,Smoke TC,Exh Press,Smoke Comp,Smoke Meas,CO Meter,CO2 Meter,O2 Meter,Sample Mass,Ext Coeff,Start Test,Flame Verif
Chan Gain,,500,500,1,1,1,1,1,1,1,1,1.0,1.0
Offset,,0,0,0.138348,0,0,0,0,0,0,0,0.0,0.0
Gain,,1,1,25.011,13.5067,16.616,1,1,1,1.00091,1.04608,1.0,1.0
Units,sec,C,C,Pa,%,%,%,%,%,g,/m,,
Baseline,,40.4649,44.1137,157.201,101.864,99.099,-0.000875251,0.0810329,20.875,-0.186295,0.252558,,
2,0.25,36.4622,39.2723,156.444,101.994,99.1385,-0.00103649,0.0907143,20.8592,471.229,0.260551,0.0,0.0
4,0.75,36.9462,38.9996,157.345,101.991,99.1299,-0.00104596,0.0913824,20.8587,476.003,0.261126,0.0,0.0
6,1.25,36.8477,38.7382,158.659,102.023,98.994,-0.00104146,0.0919816,20.8584,471.339,0.276533,0.0,0.0
8,1.75,37.1329,39.2891,152.621,101.998,99.1264,-0.00102685,0.0924454,20.8581,470.548,0.262048,0.0,0.0
10,2.25,36.9373,38.6319,160.347,102.002,98.8535,-0.00100669,0.0928018,20.858,470.598,0.28767,0.0,0.0
12,2.75,36.8072,38.9118,155.426,101.997,98.9139,-0.000982852,0.0931418,20.8579,470.608,0.281626,0.0,0.0
14,3.25,36.5695,38.7793,158.074,102.01,98.8312,-0.000963547,0.093188,20.8582,470.538,0.290484,0.0,0.0
16,3.75,36.5246,39.062,156.102,102.003,99.1005,-0.000947268,0.0932669,20.8585,470.648,0.26485,0.0,0.0
18,4.25,36.6582,38.7181,155.35,102.01,99.3479,-0.000933505,0.0933309,20.859,470.618,0.242634,0.0,0.0
20,4.75,36.9493,39.1522,157.533,101.995,99.1142,-0.000921075,0.0933254,20.8596,470.538,0.262878,0.0,0.0
22,5.25,36.7054,39.2663,157.424,102.005,99.3738,-0.000909853,0.0932693,20.8601,470.708,0.239763,0.0,0.0
24,5.75,36.8972,39.7133,153.389,102.002,99.0331,-0.000896277,0.0931665,20.8605,470.548,0.271022,0.0,0.0
26,6.25,37.0352,39.552,156.113,102.017,99.244,-0.000881242,0.0930316,20.8608,470.518,0.252833,0.0,0.0
28,6.75,37.1104,39.479,153.451,102.006,99.0493,-0.000849834,0.0929223,20.861,470.568,0.269927,0.0,0.0
30,7.25,37.318,39.7669,160.49,102.019,99.2262,-0.000807087,0.0928066,20.8612,470.578,0.25466,0.0,0.0
32,7.75,37.4173,39.1142,156.738,102.014,99.4473,-0.000735285,0.0927129,20.8601,470.558,0.233866,0.0,0.0
34,8.25,37.2808,40.0883,158.957,102.022,98.956,-0.000643666,0.0929525,20.8592,470.538,0.280022,0.0,0.0
36,8.75,36.9433,40.2536,159.241,102.009,98.9352,-0.000569455,0.0934307,20.854,470.608,0.280726,0.0,1.0
38,9.25,37.4229,39.9628,155.699,102.02,98.5417,-0.00036673,0.0948398,20.8499,470.018,0.318296,0.0,1.0
40,9.75,37.5138,40.4777,160.855,102.021,95.8501,-0.000202523,0.0969007,20.8465,470.578,0.572568,0.0,1.0
42,10.25,37.5413,40.5737,154.535,102.018,92.8416,-6.95148e-05,0.100462,20.8363,470.668,0.864867,0.0,1.0
44,10.75,37.7841,40.7068,154.358,102.005,90.4477,0.000191142,0.105049,20.8281,470.628,1.10347,0.0,1.0
46,11.25,38.0565,40.0527,154.193,102.019,85.5234,0.000539903,0.111161,20.817,470.498,1.61838,0.0,1.0
48,11.75,37.9902,41.5005,148.78,102.009,84.2268,0.000928932,0.11827,20.8041,470.218,1.75767,0.0,1.0
50,12.25,38.8668,42.161,146.742,102.023,80.8304,0.00133992,0.124028,20.789,470.228,2.13658,0.0,1.0
52,12.75,37.5785,41.428,151.351,102.018,83.1234,0.00178715,0.132618,20.7727,470.558,1.87945,0.0,1.0
54,13.25,37.0727,41.3379,153.008,102.009,79.3614,0.00225229,0.143109,20.7539,470.518,2.30366,0.0,0.0
56,13.75,37.5624,41.9107,153.108,102.016,81.3522,0.00274141,0.151606,20.7337,470.288,2.07695,0.0,0.0
58,14.25,37.9313,42.3331,146.949,102.013,81.5231,0.00323871,0.166455,20.7125,470.318,2.0574,0.0,0.0
60,14.75,38.4248,42.8441,147.458,102.007,78.4543,0.00375187,0.178483,20.6909,470.158,2.40893,0.0,0.0
62,15.25,38.7906,43.1757,147.627,102.009,77.2292,0.00426683,0.193712,20.6693,470.168,2.55354,0.0,0.0
64,15.75,38.9295,43.7574,148.19,102.02,81.1098,0.00479556,0.206048,20.6481,470.098,2.1047,0.0,0.0
66,16.25,39.4504,44.9953,148.203,102.015,78.9137,0.00532428,0.219405,20.6309,470.008,2.3561,0.0,0.0
68,16.75,39.3152,44.6824,143.556,102.015,76.6247,0.00575254,0.233252,20.6082,469.978,2.62623,0.0,0.0
70,17.25,39.8358,45.8585,152.107,102.012,76.8818,0.00624519,0.250303,20.5898,469.918,2.59524,0.0,0.0
72,17.75,40.3649,46.2766,149.478,102.029,73.6203,0.00677541,0.264115,20.5717,469.888,2.99453,0.0,0.0
74,18.25,40.9368,46.8058,142.39,102.025,78.2808,0.0072896,0.278356,20.5541,469.848,2.43091,0.0,0.0
76,18.75,41.4873,47.7406,142.731,102.01,75.2287,0.00778234,0.292639,20.5399,469.778,2.7945,0.0,0.0
78,19.25,41.8899,48.5175,136.555,102.013,75.1496,0.00824691,0.307017,20.5248,469.698,2.80442,0.0,0.0
80,19.75,42.0517,49.028,144.326,102.028,76.1384,0.00868212,0.321193,20.5126,469.658,2.68576,0.0,0.0
82,20.25,42.2513,49.6628,142.977,102.024,77.143,0.00906644,0.332675,20.5006,469.597,2.56512,0.0,0.0
84,20.75,43.5453,49.9598,145.056,102.026,77.1663,0.00940634,0.346073,20.4908,469.567,2.56253,0.0,0.0
86,21.25,43.3112,50.7599,145.678,102.024,76.5776,0.00968166,0.356925,20.4829,469.537,2.63266,0.0,0.0
88,21.75,43.8387,51.1398,147.176,102.032,72.671,0.00993298,0.368449,20.4765,469.487,3.11387,0.0,0.0
90,22.25,44.0471,51.5066,140.549,102.017,74.0062,0.0101365,0.377783,20.4713,469.397,2.94545,0.0,0.0
92,22.75,45.0787,52.5016,147.857,102.005,72.7922,0.0102783,0.386183,20.4671,469.307,3.0961,0.0,0.0
94,23.25,44.4996,52.9658,146.653,102.005,75.0097,0.0103931,0.393743,20.4637,469.237,2.82078,0.0,0.0
96,23.75,44.702,52.5821,148.519,102.035,75.8068,0.0104861,0.399867,20.4616,469.237,2.72645,0.0,0.0
98,24.25,45.7156,53.2576,144.454,102.015,74.5097,0.0105614,0.405164,20.4606,469.137,2.88308,0.0,0.0
100,24.75,44.8812,54.1336,149.213,102.024,76.5862,0.0104171,0.409455,20.4597,469.107,2.63166,0.0,0.0
102,25.25,46.0045,54.1958,141.832,102.007,76.2657,0.0103003,0.412038,20.4609,469.057,2.66855,0.0,0.0
104,25.75,46.0246,54.3163,144.031,102.018,78.5998,0.00999888,0.41413,20.4635,469.007,2.39297,0.0,0.0
106,26.25,46.6859,54.2332,145.464,102.014,78.1186,0.00975475,0.414337,20.4686,468.987,2.44891,0.0,0.0
108,26.75,46.6391,55.0986,145.267,102.023,77.0892,0.0093311,0.413166,20.4754,468.947,2.57144,0.0,0.0
110,27.25,46.5986,55.1411,148.472,102.01,80.0845,0.00898795,0.412218,20.4867,468.877,2.22051,0.0,0.0
112,27.75,46.5045,55.0341,149.937,102.017,81.8563,0.00844516,0.41145,20.501,468.817,2.02031,0.0,0.0
114,28.25,46.4573,55.4048,149.918,102.011,84.0473,0.00800551,0.403036,20.521,468.787,1.7774,0.0,0.0
116,28.75,46.7248,55.3314,147.055,102.021,87.068,0.00740261,0.396221,20.5446,468.777,1.45436,0.0,0.0
118,29.25,46.3202,55.4898,151.663,102.007,88.3362,0.00691427,0.38464,20.5686,468.767,1.32037,0.0,0.0
120,29.75,46.558,55.2822,154.256,102.03,91.8077,0.00637858,0.375258,20.5923,468.727,0.968706,0.0,0.0
122,30.25,46.3724,54.6741,155.684,102.007,94.9536,0.00581856,0.360863,20.6116,468.717,0.657501,0.0,0.0
124,30.75,46.4922,54.7608,154.907,102.021,96.3891,0.00536494,0.349203,20.6316,468.747,0.521035,0.0,0.0
126,31.25,45.954,54.5901,155.773,102.01,98.0143,0.00488171,0.333517,20.6517,468.747,0.366645,0.0,0.0
128,31.75,45.8962,54.4031,155.708,102.014,98.8257,0.00438607,0.32081,20.668,468.727,0.291409,0.0,0.0
130,32.25,46.2365,53.9873,153.01,101.998,99.3454,0.0039846,0.30475,20.6841,468.757,0.241756,0.0,0.0
132,32.75,45.7307,53.3895,155.328,102.023,99.173,0.00354252,0.291742,20.6997,468.757,0.259956,0.0,0.0
134,33.25,46.0868,53.5562,159.401,102.004,99.9879,0.00318443,0.278076,20.7143,468.727,0.183197,0.0,0.0
136,33.75,45.7045,53.2631,152.025,102.015,99.2197,0.0028281,0.264191,20.7281,468.747,0.254973,0.0,0.0
138,34.25,45.181,52.9597,156.062,102.013,99.099,0.00253947,0.252944,20.7411,468.727,0.265955,0.0,0.0
140,34.75,44.9108,52.8415,157.678,102.02,99.0381,0.00228182,0.243834,20.7533,468.757,0.272185,0.0,0.0
142,35.25,43.39,51.2221,150.445,102.012,99.2085,0.00205164,0.231307,20.7643,468.747,0.25567,0.0,0.0
144,35.75,43.5174,50.7498,155.756,102.034,99.2597,0.00183948,0.221159,20.7743,468.747,0.252937,0.0,0.0
146,36.25,43.2075,50.7209,153.862,101.999,99.6421,0.00166764,0.210398,20.7831,468.737,0.214545,0.0,0.0
148,36.75,43.0154,50.5256,152.147,102.015,99.4311,0.00152355,0.201681,20.7908,468.707,0.2354,0.0,0.0
150,37.25,42.777,50.1435,153.107,102.005,99.4849,0.00140683,0.192504,20.7971,468.737,0.229589,0.0,0.0
152,37.75,42.9961,49.573,153.657,102.017,99.6253,0.0013123,0.185071,20.803,468.747,0.21768,0.0,0.0
154,38.25,42.9484,50.0108,156.202,102.005,99.3251,0.00124429,0.17734,20.8078,468.737,0.244259,0.0,0.0
156,38.75,42.596,49.391,154.948,102.007,99.0812,0.0011892,0.171077,20.8122,468.757,0.267079,0.0,0.0
158,39.25,42.7281,49.5135,153.811,102.012,99.4123,0.00115193,0.164623,20.8161,468.767,0.236873,0.0,0.0
160,39.75,42.8044,49.0078,151.767,102.027,99.1603,0.00112173,0.159394,20.8198,468.777,0.261499,0.0,0.0
162,40.25,42.5479,49.1414,151.579,102,99.2445,0.00111075,0.154501,20.8227,468.777,0.25134,0.0,0.0
164,40.75,42.6154,48.5411,155.887,102.015,99.1223,0.00110185,0.149944,20.8253,468.737,0.263944,0.0,0.0
166,41.25,42.4471,48.7588,156.513,102.005,99.2095,0.00110044,0.146253,20.8277,468.717,0.254947,0.0,0.0
168,41.75,42.0664,48.429,158.874,102.015,99.4625,0.00110452,0.142168,20.8296,468.717,0.232499,0.0,0.0
170,42.25,42.0932,48.4423,155.144,101.998,99.1634,0.0011046,0.138496,20.8314,468.727,0.258622,0.0,0.0
172,42.75,41.8918,48.258,155.969,102.016,99.6923,0.00110177,0.135194,20.8328,468.747,0.211406,0.0,0.0
174,43.25,42.0278,48.0529,155.218,102.007,99.3571,0.00109303,0.132519,20.834,468.737,0.241494,0.0,0.0
176,43.75,41.6382,47.865,150.382,102.005,99.4306,0.00108015,0.129689,20.835,468.747,0.234595,0.0,0.0
178,44.25,41.7253,47.7219,154.997,102.001,99.1208,0.00106971,0.127397,20.836,468.757,0.262861,0.0,0.0
180,44.75,40.7871,47.4047,156.275,102.007,99.4052,0.00105675,0.125017,20.837,468.757,0.237046,0.0,0.0
182,45.25,41.3488,47.337,153.059,102,99.3464,0.00104219,0.123089,20.838,468.747,0.241847,0.0,0.0
184,45.75,40.8812,47.0185,155.838,102.015,99.3206,0.00102525,0.121244,20.8391,468.737,0.245608,0.0,0.0
186,46.25,41.7895,46.9935,154.493,101.99,99.2141,0.00100688,0.119497,20.84,468.707,0.253189,0.0,0.0
188,46.75,41.0641,47.1798,149.531,102.007,99.3662,0.000992007,0.118081,20.8407,468.697,0.240725,0.0,0.0
190,47.25,41.3997,46.6971,159.291,101.99,99.2531,0.000979958,0.116494,20.8412,468.697,0.249616,0.0,0.0
192,47.75,40.9649,46.4688,154.607,102.02,99.2597,0.000960409,0.115209,20.8422,468.677,0.251677,0.0,0.0
194,48.25,40.9346,46.7083,154.091,102.006,99.2891,0.000941355,0.114168,20.8434,468.717,0.247734,0.0,0.0
196,48.75,41.2383,46.8016,154.471,102.005,99.3343,0.000923024,0.112886,20.8444,468.707,0.243454,0.0,0.0
198,49.25,40.58,46.3527,155.744,102.004,99.2161,0.0009056,0.111847,20.8452,468.707,0.254263,0.0,0.0
200,49.75,41.204,46.6579,162.348,102.006,99.5188,0.00088917,0.111006,20.8458,468.717,0.22653,0.0,0.0
202,50.25,40.342,46.1646,152.833,101.992,99.3561,0.000875861,0.109913,20.8463,468.707,0.24029,0.0,0.0
204,50.75,40.8543,45.8441,157.822,102.005,99.1928,0.00086508,0.109028,20.847,468.727,0.256495,0.0,0.0
206,51.25,40.3704,46.2685,154.406,101.994,99.4443,0.000856348,0.108064,20.8477,468.707,0.232293,0.0,0.0
208,51.75,40.9497,46.0296,157.598,102.001,99.3865,0.000849276,0.107284,20.8483,468.697,0.238258,0.0,0.0
210,52.25,40.508,46.0419,152.856,102,99.3753,0.000838654,0.106405,20.8493,468.667,0.239214,0.0,0.0
212,52.75,40.5892,46.0975,155.434,101.998,99.3266,0.000830051,0.105693,20.85,468.677,0.243563,0.0,0.0
214,53.25,40.1984,45.6167,158.114,102.011,99.5432,0.000821151,0.104898,20.8506,468.707,0.224731,0.0,0.0
216,53.75,40.8878,45.1638,156.344,101.991,99.5138,0.000812205,0.104254,20.8511,468.707,0.225589,0.0,0.0
218,54.25,39.8893,45.5821,157.767,101.997,99.4189,0.000806889,0.103588,20.8515,468.687,0.234929,0.0,0.0
220,54.75,40.3478,45.5251,157.948,101.997,99.3865,0.000804321,0.102919,20.8523,468.687,0.237925,0.0,0.0
222,55.25,39.9282,45.1252,152.676,101.999,99.4022,0.000804687,0.102378,20.8529,468.677,0.236622,0.0,0.0
224,55.75,40.087,45.4673,158.706,101.995,99.5092,0.000804983,0.101824,20.8534,468.687,0.22638,0.0,0.0
226,56.25,40.0315,45.0544,154.063,101.986,99.4433,0.000804579,0.101271,20.8538,468.687,0.231645,0.0,0.0
228,56.75,40.2066,44.7761,155.761,101.989,99.2232,0.000803673,0.100759,20.8541,468.697,0.252271,0.0,0.0
230,57.25,40.1787,45.1268,154.766,101.994,99.6015,0.000803583,0.100287,20.8544,468.687,0.217837,0.0,0.0
232,57.75,40.4988,45.0864,156.697,101.988,99.5401,0.000804089,0.0998244,20.855,468.677,0.222972,0.0,0.0
234,58.25,40.0397,44.439,152.794,101.995,99.4828,0.000804499,0.099379,20.8555,468.667,0.228812,0.0,0.0
236,58.75,40.1749,44.7028,166.792,101.99,99.4002,0.000811269,0.0989248,20.856,468.677,0.235993,0.0,0.0
238,59.25,40.2161,44.3429,156.729,101.993,99.241,0.000822548,0.0984728,20.8563,468.657,0.250964,0.0,0.0
240,59.75,40.1372,44.5985,158.142,101.986,99.1923,0.000835547,0.0980709,20.8566,468.637,0.254873,0.0,0.0
242,60.25,39.6916,44.5021,155.39,101.982,99.4423,0.000849554,0.0977129,20.8573,468.627,0.231442,0.0,0.0
244,60.75,39.7968,44.2384,156.267,101.978,99.2704,0.000857036,0.097423,20.8578,468.667,0.24691,0.0,0.0
246,61.25,39.4376,44.886,155.096,102.004,99.284,0.000859619,0.0970791,20.8582,468.667,0.247981,0.0,0.0
248,61.75,39.5417,44.4746,154.781,101.984,99.351,0.000861711,0.0968005,20.8586,468.647,0.240053,0.0,0.0
250,62.25,39.8387,44.3619,155.03,101.992,99.6162,0.000834054,0.0965174,20.8589,468.647,0.216297,0.0,0.0
252,62.75,39.9626,44.5715,159.817,101.981,99.3936,0.000811652,0.0962364,20.8591,468.647,0.235823,0.0,0.0
254,63.25,39.7054,44.0227,151.706,101.993,99.2663,0.000779357,0.0959801,20.8593,468.647,0.24862,0.0,0.0
256,63.75,39.7371,44.9497,157.478,101.981,99.2638,0.000740464,0.0957467,20.8595,468.627,0.247852,0.0,0.0
258,64.25,39.7517,43.5399,157.122,101.982,99.4707,0.00070446,0.0955576,20.8596,468.627,0.228785,0.0,0.0
260,64.75,39.6779,43.7606,153.519,101.977,99.2602,0.000671247,0.0953772,20.8597,468.637,0.247772,0.0,0.0
262,65.25,39.0257,44.1776,156.125,101.981,99.3875,0.000644344,0.095231,20.8598,468.627,0.236422,0.0,0.0
264,65.75,39.6681,44.495,156.028,101.979,99.3657,0.000637212,0.09499,20.8598,468.657,0.23825,0.0,0.0
266,66.25,39.3272,43.7796,159.946,101.989,99.5036,0.000631434,0.0947947,20.8599,468.637,0.226375,0.0,0.0
268,66.75,39.7565,44.0736,154.744,101.965,99.3256,0.000631899,0.0946007,20.8599,468.647,0.240689,0.0,0.0
270,67.25,38.999,44.3946,153.792,101.977,99.461,0.000636906,0.0944113,20.86,468.637,0.229266,0.0,0.0
272,67.75,39.6808,44.1037,160.89,101.965,99.3525,0.000640962,0.0942578,20.86,468.637,0.238133,0.0,0.0
274,68.25,39.7072,43.8195,155.651,101.974,99.3779,0.000644247,0.0940927,20.86,468.657,0.236645,0.0,0.0
276,68.75,39.3137,44.0039,153.856,101.97,99.6172,0.000648194,0.0939589,20.86,468.667,0.214237,0.0,0.0
278,69.25,39.6041,44.1327,157.448,101.979,99.1745,0.00065255,0.0938004,20.86,468.657,0.255847,0.0,0.0
280,69.75,39.8972,43.8469,156.683,101.96,99.2876,0.000656078,0.0936268,20.8605,468.667,0.243684,0.0,0.0
282,70.25,39.3059,43.9189,154.438,101.97,99.1385,0.00065379,0.0934503,20.8609,468.637,0.258363,0.0,0.0
284,70.75,39.4343,44.2829,154.445,101.974,99.6299,0.000647306,0.0932751,20.861,468.637,0.213403,0.0,0.0
286,71.25,39.7682,44.0823,154.47,101.978,99.7186,0.000638196,0.0931332,20.8612,468.667,0.205605,0.0,0.0
288,71.75,39.5778,43.374,153.493,101.957,99.4849,0.000627345,0.0930182,20.8613,468.667,0.225213,0.0,0.0
290,72.25,39.6855,43.7741,150.398,101.968,99.6111,0.000618555,0.0929251,20.8614,468.677,0.214575,0.0,0.0
292,72.75,39.2419,44.219,154.226,101.965,99.6476,0.000608864,0.0928139,20.8614,468.677,0.210952,0.0,0.0
294,73.25,39.1254,43.6454,154.264,101.967,99.5356,0.0005987,0.0926915,20.8615,468.707,0.221501,0.0,0.0
296,73.75,39.504,44.1207,155.908,101.945,99.4874,0.000590467,0.0925924,20.8615,468.687,0.22394,0.0,0.0
298,74.25,39.7011,42.9603,155.434,101.96,99.0584,0.000589905,0.0924577,20.8616,468.677,0.264929,0.0,0.0
300,74.75,39.4154,43.4931,160.809,101.956,99.0685,0.000589451,0.0923485,20.8616,468.677,0.263581,0.0,0.0
302,75.25,38.9587,44.0902,156.485,101.952,99.6197,0.000602523,0.0921885,20.8616,468.667,0.212372,0.0,0.0
304,75.75,38.8617,43.7395,154.883,101.951,99.3799,0.000613111,0.0919943,20.8617,468.657,0.234343,0.0,0.0
306,76.25,39.557,43.0709,155.477,101.963,99.4833,0.000626577,0.0918371,20.8619,468.657,0.225871,0.0,0.0
308,76.75,38.5133,43.2363,154.615,101.951,99.2531,0.000637483,0.0916145,20.8623,468.647,0.246055,0.0,0.0
310,77.25,39.4857,43.3254,158.659,101.959,99.3753,0.000634098,0.0914341,20.8627,468.667,0.235543,0.0,0.0
312,77.75,39.3074,43.3558,158.227,101.948,99.1968,0.000631355,0.0912594,20.8629,468.657,0.251037,0.0,0.0
314,78.25,39.1473,43.6435,154.643,101.946,99.3317,0.00060959,0.0910921,20.8631,468.667,0.238347,0.0,0.0
316,78.75,39.0044,43.1935,153.726,101.939,99.0853,0.00059196,0.0909423,20.8633,468.647,0.26051,0.0,0.0
318,79.25,39.2888,43.5867,157.057,101.942,99.3809,0.00057768,0.090808,20.8635,468.627,0.233507,0.0,0.0
320,79.75,38.9616,43.4881,160.628,101.938,99.3054,0.000557565,0.0906921,20.8636,468.627,0.240114,0.0,0.0
322,80.25,38.6252,43.2586,152.032,101.947,99.6791,0.000541273,0.0905918,20.8637,468.627,0.206463,0.0,0.0
324,80.75,39.2925,43.1565,154.742,101.923,99.4058,0.000541608,0.0905105,20.8637,468.617,0.229468,0.0,0.0
326,81.25,38.8483,43.2832,161.248,101.944,99.4727,0.000541699,0.0904447,20.8638,468.617,0.225222,0.0,0.0
328,81.75,38.9954,43.0954,155.279,101.928,99.2633,0.000556512,0.0903771,20.8639,468.607,0.243077,0.0,0.0
330,82.25,39.0753,43.5912,154.833,101.941,99.3895,0.000568511,0.0903094,20.8639,468.617,0.232562,0.0,0.0
332,82.75,38.3767,43.258,153.315,101.918,99.3307,0.000569872,0.0902546,20.8639,468.607,0.235991,0.0,0.0
334,83.25,38.8031,43.0568,159.597,101.93,99.2065,0.000563452,0.0901286,20.864,468.617,0.248477,0.0,0.0
336,83.75,38.4635,43.4854,157.18,101.918,99.0782,0.000558251,0.0900265,20.864,468.587,0.259275,0.0,0.0
338,84.25,38.2384,43.6508,156.392,101.932,99.2714,0.000513758,0.0898895,20.864,468.577,0.24266,0.0,0.0
340,84.75,38.9875,42.0121,155.53,101.912,99.5903,0.000477719,0.0897784,20.864,468.597,0.211482,0.0,0.0
342,85.25,38.9685,43.1146,155.804,101.925,99.6172,0.000416823,0.089667,20.864,468.607,0.210193,0.0,0.0
344,85.75,39.2435,43.2698,154.692,101.913,99.426,0.000367497,0.0895574,20.864,468.607,0.226707,0.0,0.0
346,86.25,38.6448,43.308,159.726,101.922,99.1329,0.000327543,0.0894687,20.864,468.597,0.254612,0.0,0.0
348,86.75,38.9879,42.7577,158.773,101.92,99.2354,0.000280557,0.089356,20.8643,468.577,0.244913,0.0,0.0
350,87.25,39.4716,42.7982,157.322,101.923,99.4899,0.000242498,0.0892648,20.8647,468.577,0.221664,0.0,0.0
352,87.75,38.739,43.1609,155.456,101.91,99.5239,0.000226294,0.0891908,20.865,468.577,0.217381,0.0,0.0
354,88.25,39.2741,43.0282,155.949,101.919,99.2764,0.000213169,0.0891309,20.8653,468.597,0.241042,0.0,0.0
356,88.75,39.1881,43.0332,153.323,101.915,99.135,0.000218482,0.0890681,20.8654,468.577,0.253794,0.0,0.0
358,89.25,38.6118,42.5808,154.642,101.92,99.3343,0.000227567,0.0890044,20.8656,468.577,0.235812,0.0,0.0
360,89.75,38.5711,42.9313,156.36,101.924,99.3368,0.000247769,0.0889527,20.8657,468.597,0.235911,0.0,0.0
362,90.25,38.8583,42.9603,160.487,101.916,99.5533,0.00027569,0.0888837,20.8658,468.607,0.215264,0.0,0.0
364,90.75,38.894,42.7683,154.667,101.926,99.3779,0.000323943,0.0888278,20.8659,468.587,0.232304,0.0,0.0
366,91.25,38.9728,43.1099,152.409,101.917,99.6268,0.000363028,0.0887417,20.866,468.617,0.208564,0.0,0.0
368,91.75,38.5016,42.4008,153.686,101.919,99.5183,0.000409477,0.0887051,20.8661,468.607,0.218712,0.0,0.0
370,92.25,38.8978,42.8271,155.818,101.918,99.4352,0.000460411,0.0886137,20.8661,468.617,0.226346,0.0,0.0
372,92.75,38.2547,43.0548,155.179,101.916,99.1258,0.000501667,0.0885139,20.8662,468.617,0.254749,0.0,0.0
374,93.25,38.7226,43.1417,151.018,101.917,99.2399,0.000535085,0.0884331,20.8662,468.607,0.244232,0.0,0.0
376,93.75,38.3168,42.6497,151.433,101.921,99.28,0.000560913,0.0883677,20.8662,468.607,0.240936,0.0,0.0
378,94.25,38.5905,42.9626,159.004,101.911,98.8515,0.00060508,0.0883147,20.8664,468.587,0.279734,0.0,0.0
380,94.75,38.2037,42.5757,156.666,101.916,99.1908,0.000640855,0.0882717,20.8665,468.617,0.248706,0.0,0.0
382,95.25,38.5751,43.4482,154.561,101.936,99.0072,0.000653938,0.088237,20.8667,468.597,0.267521,0.0,0.0
384,95.75,38.3946,43.0485,158.662,101.923,99.5538,0.000664535,0.0882088,20.8669,468.597,0.215848,0.0,0.0
386,96.25,38.9036,42.9028,152.11,101.929,99.1218,0.000654786,0.0881316,20.8671,468.627,0.256239,0.0,0.0
388,96.75,38.5774,42.5748,161.586,101.939,99.5822,0.00064689,0.0880987,20.8672,468.627,0.214678,0.0,0.0
390,97.25,38.917,42.2261,154.647,101.94,99.5792,0.000629499,0.0880425,20.8674,468.627,0.215033,0.0,0.0
392,97.75,38.5862,42.591,157.111,101.932,99.5351,0.000615413,0.0879569,20.8675,468.647,0.21832,0.0,0.0
394,98.25,38.1223,42.9958,156.284,101.935,99.0838,0.000596675,0.0878876,20.8675,468.617,0.260353,0.0,0.0
396,98.75,38.9257,42.495,155.756,101.942,99.2014,0.000581497,0.0877907,20.8676,468.607,0.250059,0.0,0.0
398,99.25,38.3269,42.5468,156.669,101.926,98.9859,0.000558213,0.0877122,20.8677,468.617,0.268605,0.0,0.0
400,99.75,38.5028,42.6894,156.929,101.945,99.4443,0.000539354,0.0876214,20.8677,468.617,0.227879,0.0,0.0
402,100.25,38.5115,42.6905,156.721,101.939,99.1842,0.000516369,0.0875479,20.8677,468.617,0.251357,0.0,0.0
404,100.75,38.417,42.3241,160.179,101.944,99.6131,0.000490813,0.0875155,20.8678,468.647,0.212237,0.0,0.0
406,101.25,38.6182,42.3342,158.601,101.932,99.2161,0.000470112,0.0874893,20.8678,468.647,0.247771,0.0,0.0
408,101.75,38.3796,42.5636,155.201,101.947,99.4225,0.000455786,0.0874409,20.8678,468.627,0.230114,0.0,0.0
410,102.25,38.6463,42.459,156.522,101.951,99.2075,0.000444182,0.0874017,20.8678,468.607,0.250275,0.0,0.0
412,102.75,38.2346,42.1737,160.644,101.958,99.353,0.000445768,0.087327,20.8678,468.567,0.237529,0.0,0.0
414,103.25,37.9577,42.9449,162.642,101.953,99.3206,0.000451551,0.0872279,20.8678,468.557,0.240082,0.0,0.0
416,103.75,38.4062,42.1736,157.164,101.954,99.3464,0.000460283,0.0871477,20.8678,468.547,0.23773,0.0,0.0
418,104.25,38.2936,42.2339,150.188,101.942,99.497,0.000467357,0.0870827,20.8679,468.547,0.222754,0.0,0.0
420,104.75,38.9733,42.1735,153.599,101.951,99.173,0.000465762,0.08703,20.8679,468.557,0.253465,0.0,0.0
422,105.25,38.2155,42.5801,154.152,101.944,99.279,0.00046447,0.0869738,20.8679,468.557,0.243108,0.0,0.0
424,105.75,38.9754,42.0804,153.416,101.954,99.7333,0.000463424,0.0869282,20.8679,468.557,0.202064,0.0,0.0
426,106.25,39.0822,42.4368,155.77,101.938,99.4134,0.000435729,0.0868777,20.8677,468.526,0.230102,0.0,0.0
428,106.75,38.7285,42.6301,155.698,101.956,99.5092,0.000413295,0.0868369,20.8676,468.567,0.222931,0.0,0.0
430,107.25,37.8013,41.8683,156.58,101.946,99.1527,0.000375872,0.0868105,20.8675,468.547,0.254897,0.0,0.0
432,107.75,38.342,42.2404,152.817,101.962,99.4666,0.000328233,0.0867952,20.8674,468.536,0.227378,0.0,0.0
434,108.25,38.4804,42.1076,152.693,101.945,99.3079,0.000279385,0.0867685,20.8673,468.557,0.240474,0.0,0.0
436,108.75,38.0535,42.5064,153.12,101.946,99.3916,0.000230585,0.086734,20.8673,468.567,0.232857,0.0,0.0
438,109.25,38.2626,42.3086,160.729,101.946,99.0493,0.000187211,0.0867061,20.8672,468.577,0.264512,0.0,0.0
440,109.75,38.3233,42.3498,156.538,101.966,99.5959,0.000148617,0.0866549,20.8672,468.567,0.215828,0.0,0.0
442,110.25,38.6496,42.6437,155.799,101.954,99.2232,0.000115432,0.0865877,20.8671,468.567,0.249118,0.0,0.0
444,110.75,38.3686,42.331,152.107,101.972,99.4407,8.68219e-05,0.0865118,20.8671,468.557,0.230617,0.0,0.0
446,111.25,38.0227,42.5457,157.589,101.949,99.1,6.10837e-05,0.086431,20.8671,468.536,0.260039,0.0,0.0
448,111.75,37.5857,42.1461,155.774,101.963,99.5275,3.79282e-05,0.0863871,20.8671,468.536,0.221804,0.0,0.0
450,112.25,38.663,42.2212,156.563,101.949,99.5741,1.91723e-05,0.0863707,20.8671,468.557,0.216279,0.0,0.0
452,112.75,38.4868,41.8209,154.568,101.966,99.3931,-8.19861e-06,0.0863575,20.8673,468.557,0.234535,0.0,0.0
454,113.25,38.3518,42.0985,154.913,101.949,99.2521,-3.0369e-05,0.0863061,20.8677,468.547,0.245963,0.0,0.0
456,113.75,38.587,42.4356,159.555,101.975,99.6831,-4.8327e-05,0.0862644,20.868,468.516,0.208612,0.0,0.0
458,114.25,37.7456,42.1387,156.284,101.955,99.3008,-7.26161e-05,0.0861899,20.8682,468.536,0.242057,0.0,0.0
460,114.75,38.1036,42.1741,154.863,101.963,99.3976,-9.22903e-05,0.0861295,20.8685,468.547,0.23378,0.0,0.0
462,115.25,38.5853,42.1318,151.172,101.95,99.5285,-0.000109444,0.0860535,20.8686,468.577,0.220597,0.0,0.0
464,115.75,38.1467,41.6678,153.448,101.968,99.4757,-0.000123339,0.0859919,20.8688,468.567,0.227055,0.0,0.0
466,116.25,38.289,42.4317,151.998,101.958,99.3292,-0.000129262,0.0859278,20.8688,468.557,0.239657,0.0,0.0
468,116.75,38.3884,42.4147,155.595,101.968,99.244,-0.000139391,0.0858629,20.8689,468.547,0.248457,0.0,0.0
470,117.25,38.635,42.3065,161.574,101.95,99.2232,-0.000132981,0.0858104,20.869,468.547,0.248747,0.0,0.0
472,117.75,38.7091,42.0023,157.894,101.972,99.3109,-0.000127789,0.0856864,20.8692,468.557,0.242604,0.0,0.0
474,118.25,38.5441,42.607,160.901,101.951,99.6806,-0.000107752,0.085586,20.8693,468.557,0.206657,0.0,0.0
476,118.75,37.951,42.0576,158.224,101.965,99.459,-9.15216e-05,0.0855046,20.8693,468.557,0.22834,0.0,0.0
478,119.25,38.3347,42.1484,160.268,101.965,99.3474,-5.64491e-05,0.08547,20.8694,468.557,0.238675,0.0,0.0
480,119.75,38.1506,41.9976,158.478,101.974,99.4336,-2.80405e-05,0.0853971,20.8695,468.557,0.231495,0.0,0.0
482,120.25,38.2654,42.1046,159.237,101.954,99.2724,1.81287e-05,0.085338,20.8695,468.557,0.244608,0.0,0.0
484,120.75,38.3716,42.1271,159.004,101.984,99.6628,5.55258e-05,0.0852631,20.8695,468.557,0.211221,0.0,0.0
486,121.25,38.2267,42.1077,159.402,101.959,99.2156,8.58174e-05,0.0852024,20.8696,468.557,0.250304,0.0,0.0
488,121.75,38.7704,42.0233,154.972,101.97,99.4828,0.000124988,0.0851261,20.87,468.547,0.226624,0.0,0.0
490,122.25,38.4079,42.6364,162.419,101.957,99.2734,0.000156716,0.0850642,20.8704,468.557,0.244774,0.0,0.0
492,122.75,37.8561,41.7012,158.396,101.973,99.279,0.000172659,0.0849599,20.8707,468.557,0.245705,0.0,0.0
494,123.25,38.2696,42.6979,155.473,101.96,99.138,0.000185572,0.0848754,20.8709,468.557,0.257594,0.0,0.0
496,123.75,38.211,42.5785,152.407,101.967,99.2333,0.000169216,0.0847783,20.8711,468.557,0.249367,0.0,0.0
498,124.25,37.8911,41.9488,157.164,101.96,99.2268,0.000155967,0.084674,20.8713,468.536,0.249347,0.0,0.0
500,124.75,38.0886,42.3912,160.931,101.994,99.3997,0.000123309,0.0845895,20.8714,468.547,0.236411,0.0,0.0
502,125.25,37.8695,42.6162,153.187,101.963,99.3018,9.68563e-05,0.0844261,20.8715,468.536,0.242632,0.0,0.0
504,125.75,38.437,42.4303,154.258,101.986,99.5447,5.47255e-05,0.0842938,20.8716,468.587,0.222365,0.0,0.0
506,126.25,38.3883,42.1408,152.01,101.969,99.1958,2.05995e-05,0.084173,20.8717,468.577,0.253023,0.0,0.0
508,126.75,38.4074,42.4515,152.861,101.977,99.4352,-1.40932e-05,0.0840752,20.8717,468.587,0.231615,0.0,0.0
510,127.25,38.2683,42.6624,153.386,101.963,99.3266,-4.85398e-05,0.0840367,20.8718,468.557,0.240373,0.0,0.0
512,127.75,38.1926,42.462,155.144,101.975,99.3439,-7.64416e-05,0.0840054,20.8718,468.557,0.239893,0.0,0.0
514,128.25,37.5491,42.1082,153.65,101.97,99.457,-9.90421e-05,0.0839659,20.8719,468.557,0.228971,0.0,0.0
516,128.75,38.0905,42.1193,156.054,101.935,99.134,-0.000117348,0.083921,20.8719,468.557,0.255668,0.0,0.0
518,129.25,37.9261,42.3334,156.213,101.955,99.2384,-0.000132177,0.0838775,20.8719,468.536,0.247785,0.0,0.0
520,129.75,38.3519,42.5315,155.658,101.969,99.5001,-0.000144187,0.0838358,20.8719,468.536,0.224885,0.0,0.0
522,130.25,38.3158,42.439,157.554,101.965,99.3632,-0.000155198,0.0838021,20.8719,468.547,0.237223,0.0,0.0
524,130.75,38.5262,41.954,155.822,101.97,99.6324,-0.000165271,0.0837069,20.8724,468.536,0.212799,0.0,0.0
526,131.25,37.923,42.4448,157.317,101.972,99.5077,-0.00017343,0.0836298,20.8727,468.567,0.224481,0.0,0.0
528,131.75,37.8974,41.5518,155.523,101.963,99.3363,-0.00017819,0.0835745,20.8729,468.577,0.23952,0.0,0.0
530,132.25,38.1666,42.1059,153.249,101.966,99.0128,-0.00018633,0.0835362,20.8732,468.567,0.269676,0.0,0.0
532,132.75,38.6683,42.2325,160.712,101.972,99.3484,-0.000196769,0.083498,20.8731,468.587,0.239212,0.0,0.0
534,133.25,38.1541,41.9908,150.713,101.974,99.5041,-0.000208687,0.0834606,20.8729,468.577,0.224956,0.0,0.0
536,133.75,38.6085,42.0346,153.267,101.957,99.1208,-0.000229301,0.0834303,20.8727,468.587,0.258893,0.0,0.0
538,134.25,38.3165,42.0931,155.551,101.975,99.5401,-0.000245998,0.0833787,20.8726,468.577,0.221748,0.0,0.0
540,134.75,38.1409,42.5489,151.849,101.984,99.3692,-0.000265932,0.0833567,20.8725,468.577,0.238294,0.0,0.0
542,135.25,38.3008,42.076,153.807,101.977,99.5325,-0.000287848,0.0833047,20.8728,468.577,0.222597,0.0,0.0
544,135.75,38.721,42.0306,159.555,101.972,99.3013,-0.0003056,0.0832498,20.8731,468.587,0.243532,0.0,0.0
546,136.25,38.069,42.336,156.19,101.974,99.6431,-0.000309022,0.0831918,20.8733,468.547,0.212227,0.0,0.0
548,136.75,38.1988,42.5307,152.098,101.985,99.3195,-0.000311794,0.0831448,20.8735,468.506,0.243031,0.0,0.0
550,137.25,38.1299,42.2077,154.613,101.987,99.2115,-0.000305707,0.0831067,20.8737,468.526,0.253202,0.0,0.0
552,137.75,38.7482,42.1962,153.235,101.966,99.1664,-0.000293276,0.0830759,20.8735,468.577,0.255447,0.0,0.0
554,138.25,38.2032,42.4475,153.294,101.981,99.4128,-0.000285772,0.0830509,20.8734,468.557,0.234081,0.0,0.0
556,138.75,38.5642,42.0409,154.838,101.971,99.1684,-0.000282,0.0830164,20.8733,468.567,0.255742,0.0,0.0
558,139.25,38.3939,42.3935,156.028,101.989,99.0498,-0.000278946,0.0829756,20.8732,468.597,0.268361,0.0,0.0
560,139.75,38.1575,42.6384,155.474,101.972,99.1527,-0.000276471,0.0829144,20.8731,468.587,0.257271,0.0,0.0
562,140.25,37.955,41.9947,157.582,101.988,99.3054,-0.000309786,0.0828395,20.8737,468.567,0.244603,0.0,0.0
564,140.75,38.0576,42.2666,152.946,101.98,99.1994,-0.000345745,0.0827788,20.8742,468.577,0.253697,0.0,0.0
566,141.25,37.8982,42.1777,157.415,101.979,99.2186,-0.000382948,0.0827297,20.8746,468.577,0.251765,0.0,0.0
568,141.75,38.0209,42.0931,156.57,101.974,99.3774,-0.000413082,0.0826899,20.8749,468.577,0.236691,0.0,0.0
570,142.25,37.9525,42.2481,154.384,101.995,99.3206,-0.000441978,0.0826577,20.8752,468.577,0.243791,0.0,0.0
572,142.75,38.2074,42.087,158.392,101.969,99.1122,-0.000456423,0.0825502,20.8753,468.597,0.260766,0.0,0.0
574,143.25,38.1223,42.2016,154.827,101.987,99.0706,-0.000475353,0.0824632,20.8755,468.577,0.266249,0.0,0.0
576,143.75,38.276,42.2462,154.349,101.973,99.2866,-0.000485495,0.0823927,20.8756,468.567,0.245002,0.0,0.0
578,144.25,37.6474,42.2002,154.683,101.978,99.3454,,0.0823356,,468.587,0.239975,0.0,0.0
580,144.75,37.9308,41.923,153.72,101.977,99.3987,,0.0823036,,468.577,0.234947,0.0,0.0
582,145.25,38.3192,42.4201,154.825,101.983,99.3337,,0.0822905,,468.567,0.241497,0.0,0.0
584,145.75,38.4807,42.4338,154.851,101.969,99.2308,,0.082285,,468.536,0.249749,0.0,0.0
586,146.25,37.8487,42.051,154.901,101.994,99.5204,,0.0822348,,468.577,0.225314,0.0,0.0
588,146.75,38.1702,41.8892,157.947,101.976,99.2714,,0.0821941,,468.577,0.246667,0.0,0.0
590,147.25,38.3083,41.8052,156.06,101.991,99.4686,,,,468.557,0.229825,0.0,0.0
592,147.75,38.1111,41.8616,154.531,101.977,99.4864,,,,468.547,0.226889,0.0,0.0
594,148.25,38.2676,41.9804,159.398,101.99,99.1411,,,,468.567,0.259945,0.0,0.0
596,148.75,38.4231,42.1131,156.678,101.987,99.1674,,,,468.567,0.257245,0.0,0.0
598,149.25,38.5137,41.7391,154.454,101.99,99.6268,,,,468.587,0.215093,0.0,0.0
600,149.75,38.0764,42.623,154.184,101.98,99.2349,,,,468.567,0.250414,0.0,0.0
602,150.25,38.1837,41.7286,155.135,101.99,99.569,,,,468.577,0.220419,0.0,0.0
604,150.75,38.1314,41.6526,154.761,101.987,99.2283,,,,468.557,0.251655,0.0,0.0
606,151.25,38.0663,41.8601,154.284,102.011,99.4813,,,,468.567,0.230398,0.0,0.0
608,151.75,37.7875,42.5836,153.242,101.98,99.2917,,,,468.557,0.245164,0.0,0.0
610,152.25,37.9609,42.0349,155.47,101.991,99.3692,,,,468.567,0.238961,0.0,0.0
612,152.75,38.5676,42.5651,157.56,101.996,99.6993,,,,468.567,0.20901,0.0,0.0
614,153.25,38.3794,42.2003,155.412,101.996,99.353,,,,468.547,0.240942,0.0,0.0
616,153.75,38.4245,42.7124,159.538,101.981,99.1157,,,,468.536,0.261476,0.0,0.0
618,154.25,38.5156,41.7797,153.247,101.998,99.4372,,,,468.516,0.233282,0.0,0.0
620,154.75,37.8884,42.3332,157.662,101.993,99.2617,,,,468.506,0.249116,0.0,0.0
621,155,38.1505,42.3369,152.994,101.995,99.2491,,,,468.516,0.250399,0.0,0.0