File: 01_Data/Corian_Countertop/MCC/Corian_Countertop_30K_min_210930_R3.txt
Sample ID:	C:\MCC\MCC Cal\Test\Corian_Countertop_30K_min_210930_R3.txt
Sample Weight (mg):	4.89
Heating Rate (C/s):	0.5
Combustor Temp (C):	900
N2 Flow Rate (cc/min):	80
O2 Flow Rate (cc/min):	20
Calibration File:	C:\MCC\MCC Cal\Coeff1 JN10440_30_210304.txt.txt
T Correction Coefficients:	0	1.024463	0
Time Shift (s):	14
*
Time (s)	Temperature (C)	N2 flow rate (cc/min)	O2 flow rate (cc/min)	Flow Rate (cc/min)	Oxygen (%)	HRR (W/g)	Heating rate (C/s)
-0.001	107.144	79.999	19.997	100.553	20.465	0.062	0.006
2.000	107.151	80.006	19.997	100.567	20.465	0.042	-0.004
4.000	107.147	80.000	19.998	100.571	20.467	-0.065	-0.019
6.000	107.159	80.001	19.996	100.564	20.464	0.131	0.016
8.000	107.127	80.000	19.995	100.553	20.465	0.055	-0.019
10.000	107.175	79.999	19.995	100.555	20.462	0.228	0.002
12.000	107.169	80.000	19.995	100.571	20.462	0.249	-0.021
14.000	107.111	80.001	19.997	100.590	20.459	0.397	-0.038
16.000	107.141	80.000	19.994	100.605	20.453	0.790	0.000
18.000	107.159	79.999	19.996	100.612	20.455	0.656	0.017
20.000	107.242	80.002	19.995	100.631	20.453	0.836	0.058
22.000	107.258	80.002	19.996	100.639	20.448	1.129	0.024
24.000	107.354	80.002	19.994	100.645	20.442	1.518	0.058
26.000	107.451	80.003	19.996	100.661	20.442	1.499	0.047
28.000	107.556	80.002	19.996	100.679	20.441	1.572	0.058
30.000	107.677	80.002	19.996	100.686	20.439	1.733	0.113
32.000	107.822	80.002	19.996	100.705	20.434	2.021	0.080
33.999	107.983	80.003	19.995	100.725	20.431	2.212	0.112
35.999	108.218	80.001	19.997	100.731	20.427	2.451	0.112
37.999	108.461	80.002	19.995	100.756	20.426	2.527	0.094
39.999	108.732	80.002	19.998	100.760	20.426	2.542	0.143
41.999	109.049	80.002	19.995	100.762	20.420	2.905	0.165
43.999	109.382	80.002	19.996	100.763	20.420	2.957	0.171
45.999	109.707	80.002	19.996	100.761	20.419	3.014	0.155
47.999	110.067	80.003	19.997	100.744	20.418	3.053	0.162
50.000	110.451	80.003	19.996	100.701	20.419	2.998	0.195
51.999	110.857	80.005	19.995	100.789	20.416	3.198	0.236
53.999	111.318	80.004	19.994	100.805	20.418	3.039	0.220
55.999	111.719	80.002	19.996	100.789	20.419	3.023	0.208
57.999	112.226	80.001	19.996	100.795	20.417	3.103	0.251
60.000	112.699	80.001	19.997	100.797	20.417	3.096	0.229
61.999	113.227	80.001	19.995	100.797	20.414	3.296	0.265
63.999	113.759	79.999	19.997	100.803	20.414	3.324	0.260
65.999	114.318	79.999	19.997	100.803	20.413	3.358	0.300
67.999	114.910	79.999	19.996	100.805	20.410	3.585	0.318
69.999	115.486	79.999	19.997	100.806	20.412	3.421	0.294
71.999	116.093	79.999	19.995	100.806	20.409	3.634	0.322
73.999	116.765	80.000	19.996	100.811	20.409	3.655	0.280
75.999	117.379	80.001	19.995	100.792	20.407	3.793	0.318
77.999	118.061	80.001	19.995	100.765	20.406	3.819	0.318
79.999	118.713	80.000	19.996	100.854	20.409	3.660	0.315
81.999	119.384	80.001	19.993	100.808	20.410	3.607	0.331
83.999	120.108	80.002	19.995	100.804	20.406	3.817	0.330
85.999	120.831	80.002	19.994	100.803	20.406	3.849	0.351
88.000	121.555	80.000	19.994	100.802	20.406	3.833	0.367
89.999	122.258	79.999	19.995	100.801	20.404	3.993	0.363
92.000	123.014	80.001	19.994	100.804	20.405	3.890	0.364
93.999	123.783	80.000	19.995	100.803	20.406	3.823	0.377
95.999	124.524	79.999	19.996	100.803	20.404	3.977	0.364
97.999	125.308	80.001	19.995	100.802	20.406	3.833	0.385
100.000	126.057	80.001	19.995	100.805	20.406	3.807	0.378
101.999	126.850	80.000	19.996	100.803	20.406	3.830	0.391
103.999	127.622	80.002	19.996	100.802	20.402	4.061	0.352
105.999	128.443	80.002	19.996	100.802	20.404	3.931	0.400
108.000	129.265	80.002	19.995	100.803	20.403	4.017	0.380
109.999	130.041	80.002	19.995	100.803	20.404	3.932	0.380
112.000	130.895	80.002	19.996	100.798	20.405	3.924	0.402
113.999	131.714	80.003	19.995	100.800	20.406	3.818	0.411
115.999	132.550	80.002	19.995	100.802	20.403	4.009	0.402
117.999	133.389	80.002	19.995	100.804	20.403	4.003	0.432
120.000	134.251	80.000	19.997	100.803	20.403	4.012	0.406
122.000	135.064	80.001	19.995	100.806	20.400	4.231	0.411
123.999	135.897	80.000	19.997	100.809	20.403	4.035	0.416
125.999	136.812	80.001	19.995	100.807	20.400	4.203	0.454
127.999	137.674	80.001	19.996	100.806	20.400	4.242	0.439
130.000	138.541	80.003	19.995	100.809	20.400	4.226	0.446
132.000	139.390	80.002	19.994	100.804	20.401	4.179	0.426
134.000	140.284	80.003	19.996	100.805	20.400	4.251	0.440
136.000	141.178	80.003	19.995	100.806	20.397	4.403	0.430
138.000	142.053	80.003	19.995	100.806	20.396	4.467	0.450
140.000	142.970	80.003	19.995	100.806	20.395	4.548	0.463
142.000	143.870	80.001	19.996	100.813	20.395	4.509	0.455
144.000	144.821	80.001	19.996	100.806	20.393	4.654	0.472
146.000	145.743	80.000	19.995	100.807	20.392	4.750	0.448
148.000	146.637	80.002	19.997	100.806	20.393	4.649	0.468
150.000	147.576	80.000	19.996	100.806	20.388	4.995	0.437
152.000	148.477	80.001	19.996	100.803	20.390	4.865	0.470
154.000	149.421	79.999	19.997	100.802	20.387	5.038	0.497
156.000	150.349	80.001	19.996	100.802	20.388	4.983	0.468
158.000	151.260	79.998	19.996	100.802	20.384	5.255	0.430
160.000	152.214	79.999	19.996	100.800	20.385	5.197	0.477
162.000	153.144	80.000	19.996	100.802	20.382	5.372	0.446
164.000	154.094	80.001	19.996	100.802	20.382	5.358	0.458
166.000	155.031	80.001	19.996	100.799	20.382	5.394	0.468
168.000	155.976	80.002	19.995	100.801	20.378	5.618	0.473
170.000	156.907	80.002	19.995	100.803	20.376	5.770	0.470
172.000	157.851	80.001	19.995	100.804	20.374	5.884	0.446
174.000	158.795	80.000	19.996	100.803	20.376	5.786	0.506
176.000	159.770	80.002	19.996	100.803	20.373	5.957	0.483
178.000	160.713	80.001	19.995	100.804	20.369	6.193	0.480
180.000	161.666	80.001	19.995	100.804	20.367	6.347	0.475
182.000	162.597	80.001	19.995	100.806	20.364	6.531	0.450
184.000	163.563	80.001	19.995	100.806	20.364	6.516	0.464
186.000	164.526	80.001	19.996	100.810	20.360	6.804	0.468
188.000	165.529	80.002	19.996	100.810	20.357	7.007	0.481
190.000	166.503	80.002	19.996	100.807	20.356	7.050	0.480
192.000	167.449	80.001	19.995	100.805	20.354	7.179	0.452
194.000	168.435	80.002	19.995	100.810	20.350	7.441	0.490
196.000	169.416	80.001	19.996	100.808	20.347	7.642	0.476
198.000	170.364	80.002	19.995	100.809	20.344	7.835	0.472
200.000	171.351	80.002	19.996	100.807	20.344	7.816	0.491
202.000	172.343	80.002	19.995	100.808	20.341	7.991	0.464
204.000	173.323	80.000	19.995	100.809	20.342	7.958	0.493
206.000	174.316	80.002	19.995	100.805	20.342	7.980	0.504
208.000	175.337	80.002	19.995	100.807	20.338	8.192	0.476
210.000	176.303	80.003	19.996	100.808	20.340	8.084	0.513
212.000	177.252	80.004	19.995	100.807	20.338	8.190	0.470
214.000	178.226	80.003	19.996	100.801	20.339	8.146	0.484
216.000	179.241	80.002	19.996	100.802	20.338	8.197	0.502
218.000	180.281	80.004	19.996	100.801	20.337	8.273	0.503
220.000	181.196	80.002	19.997	100.800	20.340	8.091	0.459
222.000	182.244	80.001	19.996	100.801	20.339	8.119	0.542
224.000	183.224	80.002	19.996	100.801	20.340	8.107	0.495
226.000	184.246	80.001	19.996	100.801	20.343	7.878	0.509
228.000	185.221	80.001	19.996	100.796	20.347	7.611	0.498
230.000	186.279	80.001	19.996	100.804	20.345	7.767	0.507
232.000	187.264	79.999	19.996	100.799	20.346	7.721	0.496
234.000	188.277	80.001	19.996	100.796	20.349	7.509	0.504
236.000	189.305	80.001	19.997	100.793	20.349	7.477	0.496
238.000	190.306	80.002	19.996	100.790	20.351	7.401	0.472
240.000	191.302	80.000	19.997	100.792	20.355	7.127	0.509
242.000	192.341	80.002	19.996	100.793	20.355	7.098	0.489
244.000	193.359	80.001	19.997	100.795	20.355	7.114	0.516
246.000	194.405	80.001	19.996	100.801	20.360	6.768	0.514
248.000	195.381	80.000	19.997	100.799	20.362	6.680	0.516
250.000	196.384	79.999	19.997	100.786	20.366	6.403	0.513
252.000	197.404	80.000	19.996	100.782	20.367	6.325	0.504
254.000	198.422	80.000	19.996	100.787	20.367	6.314	0.493
256.000	199.407	79.999	19.997	100.781	20.368	6.291	0.484
258.000	200.430	80.000	19.997	100.776	20.371	6.090	0.506
260.000	201.446	80.000	19.995	100.798	20.372	6.042	0.507
262.000	202.448	80.000	19.996	100.794	20.372	5.992	0.510
264.000	203.459	80.000	19.996	100.784	20.372	6.021	0.507
266.000	204.461	80.001	19.995	100.787	20.374	5.884	0.500
268.000	205.492	80.001	19.995	100.783	20.377	5.675	0.471
270.000	206.458	80.001	19.995	100.793	20.375	5.839	0.500
272.000	207.527	80.002	19.996	100.778	20.376	5.777	0.567
274.000	208.560	80.003	19.995	100.787	20.375	5.850	0.512
276.000	209.564	80.002	19.995	100.789	20.379	5.570	0.509
278.000	210.573	80.003	19.996	100.774	20.381	5.455	0.497
280.000	211.502	80.001	19.996	100.779	20.378	5.629	0.475
282.000	212.519	80.002	19.996	100.768	20.382	5.387	0.466
284.000	213.540	80.003	19.995	100.772	20.380	5.494	0.532
286.000	214.500	80.003	19.996	100.773	20.378	5.620	0.469
288.000	215.518	80.003	19.996	100.766	20.379	5.595	0.478
290.000	216.510	80.002	19.994	100.766	20.379	5.547	0.475
292.000	217.551	80.003	19.994	100.775	20.376	5.765	0.529
294.000	218.500	80.003	19.995	100.770	20.377	5.668	0.464
296.000	219.511	80.004	19.995	100.770	20.377	5.688	0.494
298.000	220.502	80.005	19.994	100.765	20.378	5.643	0.517
300.000	221.476	80.003	19.995	100.764	20.375	5.824	0.498
302.000	222.443	80.002	19.995	100.764	20.377	5.719	0.497
304.000	223.422	80.001	19.996	100.767	20.373	5.954	0.514
306.000	224.416	80.001	19.995	100.781	20.372	5.995	0.497
308.000	225.357	80.000	19.995	100.776	20.372	6.008	0.491
310.000	226.328	80.000	19.998	100.766	20.371	6.082	0.461
312.000	227.318	80.001	19.995	100.777	20.372	5.990	0.483
314.000	228.304	80.001	19.997	100.784	20.372	6.040	0.506
316.000	229.285	80.001	19.997	100.784	20.370	6.116	0.485
318.000	230.257	80.000	19.996	100.780	20.369	6.228	0.480
320.000	231.252	80.001	19.996	100.787	20.366	6.395	0.493
322.000	232.166	80.000	19.997	100.785	20.370	6.124	0.461
324.000	233.157	80.002	19.997	100.783	20.366	6.414	0.491
326.000	234.136	80.002	19.995	100.784	20.366	6.382	0.479
328.000	235.135	80.001	19.996	100.795	20.365	6.487	0.504
330.000	236.140	80.002	19.996	100.793	20.364	6.515	0.495
332.000	237.096	79.999	19.996	100.801	20.366	6.430	0.498
334.000	238.031	79.998	19.997	100.800	20.367	6.331	0.515
336.000	238.949	79.999	19.995	100.795	20.366	6.437	0.480
338.000	239.876	80.000	19.998	100.805	20.363	6.568	0.461
340.000	240.844	79.999	19.995	100.800	20.363	6.605	0.488
342.000	241.814	79.999	19.996	100.800	20.362	6.680	0.469
344.000	242.768	80.000	19.997	100.801	20.358	6.904	0.466
346.000	243.750	79.999	19.995	100.803	20.359	6.825	0.488
348.000	244.690	80.002	19.997	100.799	20.360	6.805	0.483
350.000	245.694	80.002	19.996	100.802	20.357	7.005	0.505
352.000	246.661	80.003	19.996	100.805	20.358	6.938	0.495
354.000	247.605	80.004	19.995	100.803	20.353	7.225	0.470
356.000	248.604	80.003	19.994	100.806	20.353	7.251	0.477
358.000	249.550	80.003	19.996	100.806	20.355	7.131	0.501
360.000	250.526	80.002	19.996	100.804	20.353	7.229	0.490
362.000	251.529	80.002	19.997	100.805	20.352	7.326	0.508
364.000	252.491	80.002	19.996	100.811	20.351	7.365	0.464
366.000	253.456	80.001	19.997	100.803	20.349	7.531	0.465
368.000	254.444	80.002	19.996	100.807	20.347	7.598	0.491
370.000	255.393	80.002	19.994	100.812	20.345	7.770	0.475
372.000	256.419	80.002	19.994	100.815	20.346	7.717	0.523
374.000	257.348	80.002	19.995	100.808	20.341	8.030	0.509
376.000	258.352	80.003	19.996	100.810	20.340	8.102	0.475
378.000	259.311	80.003	19.995	100.809	20.340	8.092	0.492
380.000	260.253	80.003	19.995	100.807	20.334	8.458	0.478
382.000	261.229	80.004	19.996	100.810	20.333	8.556	0.492
384.000	262.190	80.002	19.995	100.813	20.327	8.942	0.511
386.000	263.138	80.002	19.996	100.818	20.321	9.333	0.475
388.000	264.096	80.000	19.996	100.827	20.318	9.477	0.486
390.000	265.041	80.001	19.995	100.821	20.311	9.944	0.461
392.000	266.011	80.001	19.995	100.817	20.308	10.162	0.486
394.000	266.987	80.000	19.996	100.818	20.302	10.517	0.472
396.000	267.943	80.000	19.996	100.819	20.292	11.144	0.464
398.000	268.922	80.001	19.997	100.814	20.287	11.495	0.483
400.000	269.878	80.001	19.995	100.819	20.279	12.024	0.488
402.000	270.922	80.001	19.996	100.821	20.268	12.687	0.538
404.000	271.892	80.001	19.996	100.807	20.263	13.052	0.499
406.000	272.854	80.000	19.996	100.812	20.248	14.003	0.483
408.000	273.923	80.001	19.996	100.810	20.235	14.826	0.509
410.000	274.919	80.002	19.997	100.805	20.225	15.448	0.495
412.000	275.945	80.001	19.996	100.801	20.211	16.376	0.545
414.000	276.943	80.002	19.997	100.776	20.199	17.131	0.497
416.000	277.954	80.002	19.995	100.762	20.185	18.045	0.503
418.000	278.997	79.999	19.997	100.752	20.170	18.986	0.540
420.000	280.025	80.000	19.996	100.738	20.155	19.924	0.494
422.000	281.022	80.000	19.998	100.723	20.140	20.892	0.514
424.000	282.031	80.001	19.998	100.686	20.118	22.299	0.528
426.000	283.050	80.000	19.996	100.665	20.101	23.399	0.461
428.000	284.091	80.001	19.997	100.649	20.079	24.847	0.512
430.000	285.134	80.001	19.997	100.626	20.059	26.138	0.508
432.000	286.228	80.000	19.996	100.600	20.037	27.551	0.542
434.000	287.280	80.002	19.996	100.597	20.011	29.181	0.558
436.000	288.390	80.001	19.997	100.579	19.993	30.349	0.547
438.000	289.480	80.001	19.998	100.596	19.970	31.819	0.551
440.000	290.586	80.003	19.997	100.633	19.952	33.024	0.534
442.000	291.735	80.001	19.997	100.655	19.934	34.197	0.551
444.000	292.856	80.002	19.996	100.681	19.923	34.901	0.573
446.000	293.976	80.001	19.995	100.710	19.916	35.298	0.573
448.000	295.128	80.002	19.996	100.726	19.909	35.750	0.543
450.000	296.240	80.001	19.996	100.729	19.910	35.724	0.557
452.000	297.377	80.003	19.995	100.732	19.916	35.318	0.559
454.000	298.492	80.002	19.997	100.730	19.924	34.820	0.574
456.000	299.562	80.003	19.995	100.730	19.938	33.937	0.527
458.000	300.648	80.003	19.994	100.727	19.953	32.950	0.539
460.000	301.735	80.003	19.995	100.736	19.969	31.905	0.546
462.000	302.796	80.003	19.996	100.731	19.990	30.593	0.537
464.000	303.907	80.000	19.995	100.736	20.008	29.394	0.534
466.000	304.940	80.002	19.996	100.729	20.027	28.170	0.502
468.000	306.042	80.000	19.995	100.728	20.049	26.775	0.524
470.000	307.115	80.000	19.996	100.725	20.069	25.507	0.537
472.000	308.180	80.000	19.995	100.724	20.092	23.999	0.535
474.000	309.201	80.000	19.995	100.729	20.111	22.767	0.521
476.000	310.277	80.000	19.995	100.724	20.127	21.731	0.527
478.000	311.320	80.000	19.994	100.728	20.143	20.745	0.521
480.000	312.329	80.001	19.995	100.728	20.157	19.802	0.525
482.000	313.379	80.000	19.996	100.728	20.173	18.810	0.540
484.000	314.434	80.001	19.995	100.727	20.184	18.111	0.515
486.000	315.454	80.001	19.996	100.727	20.192	17.583	0.525
488.000	316.446	80.002	19.996	100.726	20.198	17.182	0.482
490.000	317.468	80.000	19.995	100.726	20.205	16.752	0.500
492.000	318.498	79.999	19.994	100.727	20.208	16.552	0.499
494.000	319.490	80.001	19.998	100.730	20.211	16.361	0.486
496.000	320.530	80.000	19.998	100.727	20.209	16.509	0.523
498.000	321.496	80.000	19.998	100.730	20.211	16.385	0.480
500.000	322.445	79.999	19.997	100.729	20.208	16.560	0.469
502.000	323.465	79.999	19.998	100.728	20.209	16.483	0.489
504.000	324.448	79.999	19.995	100.729	20.203	16.853	0.488
506.000	325.417	80.001	19.996	100.744	20.201	17.033	0.487
508.000	326.431	80.000	19.996	100.743	20.198	17.226	0.506
510.000	327.425	80.003	19.996	100.732	20.192	17.572	0.501
512.000	328.411	80.002	19.997	100.739	20.186	17.978	0.484
514.000	329.342	80.002	19.996	100.747	20.181	18.303	0.449
516.000	330.397	80.002	19.996	100.732	20.177	18.568	0.497
518.000	331.329	80.002	19.995	100.741	20.173	18.807	0.471
520.000	332.280	80.001	19.997	100.738	20.169	19.095	0.462
522.000	333.340	80.001	19.996	100.739	20.162	19.520	0.515
524.000	334.308	80.000	19.996	100.738	20.156	19.889	0.505
526.000	335.260	80.000	19.998	100.745	20.155	19.982	0.509
528.000	336.226	79.999	19.996	100.753	20.146	20.523	0.479
530.000	337.237	80.002	19.997	100.753	20.141	20.865	0.491
532.000	338.200	80.002	19.997	100.759	20.136	21.180	0.481
534.000	339.168	80.002	19.997	100.762	20.128	21.721	0.535
536.000	340.194	80.003	19.996	100.757	20.121	22.146	0.463
538.000	341.116	80.004	19.996	100.757	20.110	22.860	0.492
540.000	342.092	80.004	19.995	100.758	20.107	23.028	0.267
542.000	343.067	80.004	19.996	100.754	20.097	23.675	0.357
544.000	344.077	80.003	19.995	100.748	20.093	23.978	0.479
546.000	345.090	80.003	19.995	100.750	20.085	24.497	0.410
548.000	346.029	80.002	19.995	100.758	20.074	25.194	0.515
550.000	347.023	80.001	19.994	100.761	20.065	25.727	0.472
552.000	347.994	80.001	19.996	100.763	20.060	26.072	0.451
554.000	349.027	80.001	19.996	100.763	20.046	26.992	0.522
556.000	350.009	80.001	19.996	100.765	20.037	27.575	0.503
558.000	350.997	80.001	19.996	100.768	20.030	27.995	0.496
560.000	351.981	80.000	19.996	100.763	20.022	28.505	0.502
562.000	352.969	80.000	19.996	100.764	20.015	28.989	0.484
564.000	354.024	80.002	19.996	100.767	20.007	29.492	0.517
566.000	354.996	80.002	19.995	100.776	19.994	30.332	0.513
568.000	356.020	80.003	19.996	100.774	19.985	30.918	0.484
570.000	357.005	80.002	19.995	100.770	19.976	31.457	0.492
572.000	358.053	80.001	19.995	100.767	19.965	32.181	0.521
574.000	359.087	80.003	19.996	100.774	19.953	32.952	0.512
576.000	360.053	80.000	19.996	100.774	19.943	33.588	0.477
578.000	361.112	80.002	19.995	100.776	19.930	34.473	0.524
580.000	362.125	80.000	19.995	100.781	19.918	35.231	0.501
582.000	363.144	80.001	19.996	100.797	19.909	35.824	0.488
584.000	364.173	79.999	19.995	100.783	19.897	36.592	0.509
586.000	365.176	80.000	19.996	100.772	19.888	37.161	0.493
588.000	366.225	80.001	19.995	100.783	19.875	37.961	0.528
590.000	367.240	80.000	19.996	100.783	19.862	38.787	0.513
592.000	368.244	80.001	19.996	100.785	19.857	39.148	0.474
594.000	369.341	80.001	19.995	100.798	19.844	39.966	0.529
596.000	370.395	80.002	19.995	100.786	19.835	40.586	0.549
598.000	371.429	80.002	19.996	100.794	19.822	41.399	0.540
600.000	372.496	80.002	19.996	100.798	19.814	41.886	0.537
602.000	373.548	80.003	19.996	100.792	19.804	42.527	0.526
604.000	374.624	80.003	19.996	100.789	19.795	43.122	0.531
606.000	375.686	80.002	19.996	100.796	19.784	43.860	0.519
608.000	376.763	80.001	19.995	100.800	19.777	44.289	0.515
610.000	377.813	80.002	19.997	100.802	19.767	44.902	0.512
612.000	378.883	80.001	19.996	100.791	19.761	45.282	0.521
614.000	379.898	80.002	19.998	100.786	19.755	45.724	0.516
616.000	380.974	80.001	19.998	100.785	19.749	46.102	0.524
618.000	382.038	80.003	19.997	100.799	19.743	46.438	0.504
620.000	383.071	80.002	19.997	100.791	19.741	46.595	0.538
622.000	384.114	80.003	19.996	100.782	19.742	46.539	0.484
624.000	385.186	80.003	19.996	100.784	19.738	46.778	0.535
626.000	386.244	80.003	19.996	100.779	19.740	46.637	0.521
628.000	387.242	80.003	19.996	100.780	19.739	46.746	0.500
630.000	388.300	80.003	19.996	100.782	19.742	46.511	0.507
632.000	389.389	80.000	19.995	100.768	19.747	46.218	0.506
634.000	390.399	80.001	19.996	100.768	19.752	45.872	0.512
636.000	391.512	80.002	19.996	100.776	19.757	45.585	0.558
638.000	392.548	80.000	19.995	100.768	19.762	45.210	0.531
640.000	393.621	80.000	19.996	100.768	19.772	44.594	0.506
642.000	394.707	80.001	19.995	100.772	19.779	44.125	0.524
644.000	395.775	80.001	19.996	100.777	19.790	43.451	0.538
646.000	396.826	80.000	19.995	100.767	19.803	42.588	0.541
648.000	397.897	80.000	19.995	100.765	19.813	41.942	0.531
650.000	398.964	80.000	19.996	100.765	19.826	41.089	0.549
652.000	400.002	80.002	19.997	100.763	19.841	40.162	0.536
654.000	401.088	80.000	19.995	100.759	19.857	39.142	0.526
656.000	402.123	80.001	19.996	100.755	19.876	37.866	0.529
658.000	403.219	80.001	19.997	100.755	19.890	37.018	0.548
660.000	404.295	80.000	19.997	100.763	19.909	35.795	0.532
662.000	405.308	80.002	19.997	100.747	19.927	34.613	0.530
664.000	406.361	80.001	19.996	100.750	19.945	33.464	0.524
666.000	407.386	80.001	19.995	100.741	19.963	32.296	0.514
668.000	408.498	80.001	19.995	100.735	19.985	30.862	0.537
670.000	409.549	80.001	19.996	100.728	20.002	29.799	0.550
672.000	410.567	80.001	19.995	100.728	20.019	28.683	0.497
674.000	411.629	80.001	19.997	100.723	20.039	27.421	0.547
676.000	412.690	80.003	19.997	100.726	20.058	26.163	0.536
678.000	413.684	80.003	19.996	100.726	20.077	24.999	0.519
680.000	414.734	80.003	19.997	100.724	20.096	23.755	0.511
682.000	415.758	80.003	19.996	100.724	20.116	22.467	0.491
684.000	416.792	80.003	19.996	100.724	20.132	21.434	0.571
686.000	417.850	80.003	19.996	100.719	20.153	20.074	0.521
688.000	418.835	80.001	19.997	100.723	20.166	19.268	0.506
690.000	419.923	80.001	19.996	100.720	20.182	18.249	0.539
692.000	420.939	80.001	19.996	100.720	20.196	17.338	0.526
694.000	421.971	80.003	19.996	100.719	20.210	16.442	0.510
696.000	423.013	80.002	19.998	100.720	20.221	15.704	0.503
698.000	423.994	80.002	19.997	100.714	20.234	14.900	0.504
700.000	425.046	80.004	19.996	100.714	20.245	14.167	0.521
702.000	426.021	80.003	19.996	100.720	20.255	13.500	0.480
704.000	427.065	80.004	19.996	100.701	20.265	12.879	0.497
706.000	428.108	80.002	19.996	100.707	20.280	11.953	0.473
708.000	429.068	80.004	19.996	100.715	20.285	11.631	0.462
710.000	430.098	80.002	19.997	100.699	20.290	11.264	0.490
712.000	431.074	80.000	19.997	100.699	20.300	10.622	0.473
714.000	432.105	80.000	19.998	100.705	20.306	10.230	0.503
716.000	433.116	79.999	19.997	100.699	20.312	9.885	0.496
718.000	434.126	80.000	19.998	100.693	20.316	9.592	0.482
720.000	435.103	80.001	19.997	100.698	20.320	9.348	0.455
722.000	436.048	80.001	19.996	100.695	20.322	9.207	0.466
724.000	437.038	80.001	19.995	100.695	20.327	8.875	0.520
726.000	438.016	80.001	19.995	100.701	20.330	8.700	0.516
728.000	438.975	80.002	19.996	100.710	20.333	8.538	0.490
730.000	439.944	80.002	19.997	100.699	20.338	8.222	0.476
732.000	440.919	80.001	19.995	100.698	20.337	8.232	0.495
734.000	441.861	80.002	19.996	100.712	20.340	8.052	0.476
736.000	442.845	80.002	19.996	100.699	20.344	7.785	0.506
738.000	443.796	80.001	19.997	100.700	20.343	7.862	0.488
740.000	444.798	80.002	19.996	100.708	20.345	7.771	0.499
742.000	445.782	80.001	19.996	100.714	20.344	7.811	0.495
744.000	446.762	80.001	19.995	100.711	20.345	7.732	0.503
746.000	447.731	80.001	19.996	100.712	20.346	7.654	0.471
748.000	448.736	79.999	19.996	100.705	20.348	7.530	0.510
750.000	449.697	80.001	19.997	100.694	20.349	7.494	0.491
752.000	450.727	80.001	19.997	100.713	20.351	7.369	0.499
754.000	451.737	80.002	19.996	100.715	20.352	7.280	0.509
756.000	452.695	80.002	19.997	100.696	20.350	7.434	0.483
758.000	453.687	80.003	19.996	100.688	20.352	7.280	0.483
760.000	454.646	80.003	19.995	100.698	20.350	7.424	0.516
762.000	455.662	80.003	19.996	100.691	20.352	7.321	0.506
764.000	456.598	80.003	19.995	100.695	20.349	7.463	0.460
766.000	457.617	80.003	19.998	100.695	20.354	7.192	0.499
768.000	458.610	80.003	19.996	100.700	20.356	7.067	0.488
770.000	459.567	80.001	19.996	100.710	20.353	7.211	0.474
772.000	460.539	80.001	19.995	100.696	20.355	7.087	0.474
774.000	461.552	80.002	19.996	100.700	20.356	7.014	0.519
776.000	462.532	80.002	19.996	100.696	20.352	7.317	0.514
778.000	463.449	80.003	19.996	100.698	20.352	7.277	0.469
780.000	464.477	80.004	19.997	100.712	20.354	7.194	0.495
782.000	465.433	80.004	19.996	100.719	20.349	7.490	0.452
784.000	466.417	80.003	19.996	100.703	20.354	7.193	0.476
786.000	467.407	80.005	19.996	100.710	20.354	7.176	0.502
788.000	468.391	80.004	19.995	100.711	20.354	7.201	0.497
790.000	469.399	80.004	19.996	100.700	20.349	7.519	0.485
792.000	470.390	80.003	19.994	100.702	20.351	7.392	0.517
794.000	471.398	80.003	19.997	100.715	20.349	7.491	0.498
796.000	472.355	80.002	19.995	100.695	20.351	7.380	0.498
798.000	473.409	80.002	19.997	100.697	20.352	7.309	0.499
800.000	474.417	80.000	19.996	100.701	20.352	7.323	0.492
802.000	475.381	80.000	19.997	100.699	20.350	7.395	0.472
804.000	476.377	80.001	19.997	100.710	20.351	7.376	0.483
806.000	477.377	80.001	19.997	100.703	20.355	7.130	0.481
808.000	478.419	80.001	19.997	100.715	20.352	7.268	0.504
810.000	479.393	80.002	19.996	100.695	20.353	7.228	0.493
812.000	480.407	80.003	19.996	100.701	20.353	7.224	0.522
814.000	481.441	80.002	19.996	100.692	20.352	7.330	0.508
816.000	482.450	80.003	19.997	100.691	20.349	7.473	0.486
818.000	483.454	80.003	19.995	100.692	20.350	7.415	0.506
820.000	484.448	80.003	19.995	100.699	20.349	7.511	0.480
822.000	485.458	80.002	19.996	100.692	20.353	7.256	0.509
824.000	486.421	80.002	19.996	100.698	20.352	7.291	0.493
826.000	487.438	80.003	19.996	100.700	20.351	7.383	0.520
828.000	488.424	80.002	19.996	100.697	20.349	7.508	0.478
830.000	489.465	80.002	19.995	100.708	20.349	7.498	0.505
832.000	490.498	80.002	19.996	100.718	20.345	7.769	0.491
834.000	491.483	80.001	19.996	100.715	20.344	7.841	0.515
836.000	492.548	80.002	19.995	100.721	20.347	7.644	0.521
838.000	493.591	80.002	19.996	100.724	20.347	7.653	0.530
840.000	494.673	80.002	19.996	100.712	20.344	7.813	0.528
842.000	495.715	80.003	19.996	100.702	20.347	7.589	0.546
844.000	496.720	80.003	19.996	100.712	20.342	7.927	0.489
846.000	497.828	80.003	19.996	100.709	20.344	7.838	0.538
848.000	498.866	80.003	19.994	100.721	20.345	7.774	0.528
850.000	499.939	80.003	19.996	100.724	20.343	7.855	0.538
852.000	501.061	80.003	19.994	100.715	20.344	7.781	0.558
854.000	502.116	80.003	19.996	100.710	20.342	7.952	0.554
856.000	503.189	80.003	19.995	100.713	20.342	7.941	0.528
858.000	504.252	80.004	19.996	100.703	20.340	8.057	0.543
860.000	505.355	80.003	19.995	100.707	20.344	7.786	0.572
862.000	506.432	80.002	19.995	100.706	20.343	7.849	0.552
864.000	507.525	80.003	19.996	100.701	20.345	7.760	0.533
866.000	508.585	80.003	19.995	100.700	20.346	7.696	0.537
868.000	509.654	80.002	19.995	100.703	20.346	7.708	0.537
870.000	510.775	80.005	19.997	100.707	20.343	7.904	0.576
872.000	511.807	80.004	19.996	100.708	20.348	7.575	0.528
874.000	512.930	80.003	19.995	100.711	20.346	7.670	0.566
876.000	514.040	80.003	19.996	100.689	20.345	7.758	0.546
878.000	515.109	80.003	19.996	100.705	20.348	7.583	0.552
880.000	516.228	80.002	19.996	100.693	20.345	7.750	0.553
882.000	517.301	80.001	19.996	100.688	20.345	7.760	0.564
884.000	518.389	80.002	19.997	100.687	20.345	7.730	0.566
886.000	519.416	80.003	19.996	100.685	20.345	7.773	0.547
888.000	520.512	80.001	19.994	100.685	20.345	7.721	0.566
890.000	521.571	80.002	19.996	100.686	20.348	7.564	0.503
892.000	522.576	80.003	19.996	100.685	20.343	7.881	0.520
894.000	523.648	80.002	19.996	100.687	20.343	7.873	0.525
896.000	524.665	80.001	19.996	100.687	20.346	7.708	0.532
898.000	525.704	80.001	19.997	100.690	20.346	7.665	0.516
900.000	526.721	80.002	19.996	100.642	20.345	7.718	0.512
902.000	527.666	80.001	19.996	100.738	20.342	7.955	0.490
904.000	528.701	80.002	19.996	100.698	20.343	7.886	0.526
906.000	529.699	80.001	19.997	100.699	20.341	8.007	0.504
908.000	530.712	80.002	19.995	100.688	20.339	8.137	0.529
910.000	531.732	80.002	19.994	100.690	20.342	7.920	0.509
912.000	532.701	80.000	19.995	100.691	20.341	8.003	0.474
914.000	533.721	80.002	19.996	100.699	20.340	8.040	0.495
916.000	534.751	80.002	19.996	100.706	20.342	7.917	0.491
918.000	535.813	80.001	19.995	100.694	20.342	7.962	0.535
920.000	536.808	80.002	19.996	100.694	20.340	8.088	0.515
922.000	537.836	80.002	19.995	100.695	20.342	7.952	0.514
924.000	538.902	80.004	19.996	100.692	20.341	8.009	0.545
926.000	539.938	80.004	19.996	100.687	20.336	8.296	0.522
928.000	540.957	80.004	19.995	100.685	20.339	8.122	0.508
930.000	542.010	80.004	19.996	100.697	20.342	7.953	0.518
932.000	543.058	80.003	19.996	100.694	20.336	8.340	0.545
934.000	544.101	80.003	19.995	100.701	20.339	8.145	0.535
936.000	545.143	80.003	19.995	100.686	20.341	8.011	0.520
938.000	546.116	80.004	19.996	100.684	20.339	8.161	0.498
940.000	547.159	80.004	19.995	100.685	20.341	8.034	0.492
942.000	548.156	80.004	19.995	100.684	20.339	8.106	0.477
944.000	549.191	80.004	19.994	100.685	20.343	7.882	0.491
946.000	550.212	80.005	19.995	100.689	20.338	8.181	0.523
948.000	551.237	80.006	19.994	100.686	20.340	8.095	0.534
950.000	552.207	80.005	19.994	100.684	20.342	7.957	0.485
952.000	553.218	80.005	19.994	100.685	20.338	8.174	0.525
954.000	554.249	80.005	19.995	100.685	20.337	8.243	0.511
956.000	555.278	80.004	19.995	100.685	20.340	8.042	0.539
958.000	556.259	80.003	19.996	100.689	20.339	8.105	0.490
960.000	557.245	80.002	19.994	100.691	20.339	8.120	0.470
962.000	558.280	80.002	19.996	100.690	20.338	8.213	0.499
964.000	559.318	80.001	19.996	100.688	20.338	8.217	0.503
966.000	560.338	80.002	19.996	100.689	20.340	8.059	0.537
968.000	561.376	80.001	19.996	100.693	20.341	8.028	0.518
970.000	562.420	80.003	19.996	100.692	20.342	7.965	0.506
972.000	563.456	80.002	19.995	100.696	20.339	8.157	0.498
974.000	564.465	80.002	19.996	100.691	20.343	7.867	0.493
976.000	565.489	80.003	19.994	100.706	20.338	8.213	0.507
978.000	566.567	80.001	19.996	100.700	20.339	8.120	0.530
980.000	567.604	80.003	19.997	100.692	20.338	8.228	0.518
982.000	568.642	80.001	19.995	100.714	20.342	7.924	0.506
984.000	569.726	80.002	19.995	100.704	20.338	8.224	0.529
986.000	570.787	80.001	19.996	100.696	20.339	8.141	0.514
988.000	571.831	80.000	19.996	100.696	20.340	8.047	0.532
990.000	572.894	80.001	19.997	100.698	20.339	8.139	0.533
992.000	573.952	80.000	19.997	100.700	20.342	7.948	0.537
994.000	575.063	80.001	19.996	100.700	20.341	8.027	0.551
996.000	576.101	80.001	19.997	100.695	20.337	8.258	0.533
998.000	577.118	80.000	19.997	100.691	20.338	8.195	0.494
1000.000	578.194	80.001	19.997	100.685	20.339	8.114	0.528
1002.000	579.235	80.002	19.996	100.690	20.337	8.276	0.537
1004.000	580.289	80.003	19.996	100.688	20.340	8.099	0.526
1006.000	581.313	80.002	19.995	100.686	20.337	8.276	0.530
1008.000	582.327	80.003	19.996	100.684	20.339	8.136	0.490
1010.000	583.355	80.004	19.994	100.685	20.343	7.859	0.497
1012.000	584.421	80.003	19.994	100.685	20.340	8.095	0.537
1014.000	585.457	80.005	19.996	100.687	20.340	8.061	0.512
1016.000	586.488	80.004	19.995	100.684	20.340	8.050	0.538
1018.000	587.472	80.004	19.997	100.691	20.342	7.930	0.514
1020.000	588.542	80.004	19.997	100.704	20.341	7.990	0.522
1022.000	589.552	80.003	19.995	100.690	20.339	8.109	0.523
1024.000	590.613	80.005	19.995	100.688	20.341	7.996	0.541
1026.000	591.630	80.003	19.996	100.688	20.338	8.227	0.541
1028.000	592.650	80.004	19.995	100.689	20.339	8.128	0.525
1029.999	593.670	80.005	19.996	100.688	20.339	8.155	0.502
1031.999	594.721	80.005	19.996	100.688	20.340	8.089	0.509
1034.000	595.777	80.005	19.996	100.692	20.340	8.093	0.535
1035.999	596.743	80.005	19.996	100.688	20.339	8.156	0.532
1037.999	597.743	80.005	19.995	100.687	20.339	8.115	0.487
1039.999	598.780	80.004	19.995	100.695	20.338	8.165	0.493
1042.001	599.825	80.003	19.995	100.689	20.338	8.209	0.529
1043.999	600.825	80.002	19.995	100.692	20.342	7.921	0.531
1045.999	601.806	80.001	19.994	100.702	20.343	7.850	0.489
1047.999	602.808	80.001	19.994	100.699	20.342	7.953	0.494
1050.000	603.821	80.003	19.996	100.696	20.343	7.875	0.507
1051.999	604.808	80.002	19.998	100.688	20.342	7.956	0.517
1054.000	605.795	80.001	19.996	100.687	20.345	7.734	0.500
1055.999	606.739	80.002	19.995	100.686	20.344	7.810	0.483
1057.999	607.670	80.003	19.997	100.686	20.346	7.658	0.435
1059.999	608.637	80.003	19.996	100.685	20.341	8.004	0.514
1062.000	609.544	80.004	19.996	100.684	20.339	8.131	0.480
1064.000	610.457	80.002	19.998	100.686	20.338	8.192	0.464
1065.999	611.386	80.004	19.996	100.685	20.333	8.515	0.464
1067.999	612.356	80.004	19.996	100.685	20.336	8.345	0.487
1070.000	613.270	80.004	19.995	100.685	20.335	8.407	0.428
1071.999	614.274	80.003	19.995	100.686	20.336	8.296	0.462
1074.000	615.205	80.003	19.995	100.688	20.339	8.138	0.465
1075.999	616.189	80.001	19.996	100.691	20.334	8.481	0.472
1077.999	617.142	80.002	19.998	100.688	20.336	8.349	0.502
1080.000	618.118	80.002	19.996	100.684	20.335	8.379	0.477
1081.999	619.118	80.002	19.996	100.685	20.332	8.600	0.468
1083.999	620.120	80.002	19.997	100.687	20.335	8.391	0.493
1086.000	621.140	80.002	19.997	100.687	20.333	8.505	0.504
1088.000	622.132	80.003	19.997	100.688	20.337	8.254	0.478
1089.999	623.171	80.004	19.996	100.688	20.337	8.264	0.521
1091.999	624.181	80.002	19.996	100.694	20.334	8.466	0.516
1093.999	625.188	80.005	19.996	100.686	20.338	8.199	0.515
1095.999	626.125	80.003	19.996	100.692	20.340	8.086	0.487
1098.000	627.123	80.003	19.995	100.690	20.336	8.341	0.500
1099.999	628.099	80.004	19.996	100.692	20.336	8.344	0.476
1101.999	629.071	80.005	19.996	100.689	20.335	8.368	0.479
1103.999	630.061	80.003	19.996	100.689	20.337	8.233	0.495
1105.999	631.030	80.003	19.995	100.694	20.335	8.384	0.500
1107.999	632.042	80.004	19.995	100.695	20.335	8.401	0.504
1109.999	633.070	80.005	19.996	100.691	20.334	8.469	0.508
1111.999	634.052	80.005	19.995	100.691	20.333	8.540	0.490
1113.999	635.076	80.005	19.995	100.691	20.330	8.721	0.507
1115.999	636.077	80.005	19.997	100.710	20.327	8.925	0.513
1117.999	637.062	80.005	19.996	100.698	20.331	8.657	0.484
1119.999	638.076	80.006	19.995	100.686	20.333	8.527	0.515
1122.000	639.052	80.005	19.995	100.684	20.334	8.464	0.483
1124.000	640.051	80.003	19.997	100.699	20.334	8.429	0.468
1125.999	641.068	80.003	19.995	100.701	20.331	8.636	0.505
1128.001	642.095	80.003	19.995	100.708	20.332	8.613	0.527
1130.000	643.034	80.003	19.996	100.692	20.330	8.732	0.496
1131.999	644.098	80.004	19.994	100.689	20.335	8.408	0.528
1133.999	645.047	80.005	19.996	100.708	20.330	8.711	0.471
1135.999	646.108	80.003	19.995	100.712	20.326	8.971	0.518
1137.999	647.115	80.003	19.996	100.698	20.330	8.722	0.521
1139.999	648.171	80.004	19.994	100.711	20.324	9.086	0.552
1141.999	649.244	80.004	19.995	100.717	20.329	8.773	0.512
1143.999	650.326	80.003	19.995	100.716	20.327	8.879	0.525
1146.000	651.370	80.003	19.997	100.708	20.327	8.933	0.530
1147.999	652.503	80.003	19.996	100.712	20.324	9.084	0.556
1150.000	653.586	80.003	19.996	100.697	20.325	9.046	0.590
1151.999	654.582	80.002	19.996	100.693	20.328	8.847	0.522
1153.999	655.718	80.002	19.996	100.690	20.326	8.964	0.501
1155.999	656.730	80.003	19.995	100.697	20.327	8.873	0.509
1157.999	657.741	80.003	19.996	100.696	20.327	8.872	0.519
1159.999	658.805	80.003	19.995	100.694	20.324	9.068	0.496
1162.000	659.846	80.001	19.995	100.696	20.328	8.825	0.522
1163.999	660.843	80.003	19.996	100.713	20.324	9.129	0.549
1165.999	661.895	80.002	19.996	100.701	20.326	8.954	0.521
1167.999	662.950	80.003	19.995	100.699	20.327	8.906	0.500
1169.999	663.948	80.003	19.996	100.690	20.327	8.930	0.513
1171.999	664.983	80.004	19.996	100.689	20.324	9.078	0.530
1173.999	666.000	80.003	19.995	100.700	20.327	8.931	0.498
1176.000	667.037	80.004	19.997	100.698	20.329	8.784	0.518
1177.999	668.017	80.002	19.996	100.703	20.329	8.782	0.479
1179.999	669.056	80.003	19.996	100.698	20.326	8.995	0.514
1181.999	670.070	80.003	19.996	100.707	20.328	8.867	0.494
1183.999	671.134	80.003	19.997	100.698	20.327	8.877	0.517
1185.999	672.195	80.003	19.996	100.695	20.328	8.858	0.546
1187.999	673.200	80.003	19.996	100.687	20.330	8.726	0.535
1189.999	674.255	80.005	19.996	100.699	20.328	8.828	0.589
1191.999	675.306	80.003	19.995	100.693	20.324	9.123	0.528
1194.000	676.303	80.005	19.995	100.690	20.324	9.106	0.484
1195.999	677.334	80.005	19.994	100.694	20.325	9.012	0.499
1198.000	678.383	80.005	19.996	100.688	20.325	9.037	0.519
1200.000	679.425	80.005	19.995	100.694	20.324	9.110	0.522
1201.999	680.447	80.006	19.996	100.689	20.324	9.094	0.493
1203.999	681.515	80.005	19.995	100.689	20.322	9.251	0.548
1205.999	682.533	80.003	19.994	100.704	20.320	9.343	0.501
1207.999	683.586	80.002	19.994	100.694	20.321	9.320	0.547
1209.999	684.677	80.003	19.996	100.706	20.321	9.324	0.534
1211.999	685.730	80.004	19.994	100.700	20.316	9.607	0.543
1213.999	686.866	80.003	19.995	100.704	20.316	9.595	0.542
1215.999	687.906	80.004	19.996	100.720	20.318	9.503	0.530
1217.999	689.009	80.003	19.997	100.705	20.315	9.679	0.518
1220.000	690.079	80.004	19.996	100.715	20.320	9.356	0.544
1221.999	691.117	80.001	19.996	100.711	20.315	9.655	0.529
1223.999	692.288	80.003	19.996	100.701	20.321	9.315	0.543
1225.999	693.439	80.002	19.997	100.716	20.317	9.522	0.545
1227.999	694.545	80.002	19.997	100.706	20.317	9.577	0.548
1229.999	695.705	80.004	19.997	100.708	20.313	9.795	0.561
1231.999	696.808	80.003	19.994	100.711	20.313	9.833	0.589
1234.001	697.916	80.003	19.995	100.707	20.312	9.843	0.563
1235.999	699.014	80.002	19.996	100.701	20.313	9.832	0.517
1237.999	700.152	80.004	19.996	100.704	20.312	9.842	0.564
1239.999	701.241	80.001	19.997	100.711	20.315	9.656	0.548
1241.999	702.369	80.000	19.996	100.719	20.310	10.008	0.565
1243.999	703.475	80.001	19.996	100.722	20.311	9.941	0.547
1245.999	704.564	80.001	19.997	100.701	20.312	9.880	0.557
1247.999	705.651	80.004	19.997	100.697	20.308	10.106	0.537
1249.999	706.731	80.004	19.997	100.716	20.312	9.898	0.520
1251.999	707.833	80.004	19.996	100.716	20.312	9.872	0.543
1253.999	708.915	80.005	19.996	100.701	20.309	10.078	0.527
1255.999	709.977	80.004	19.996	100.691	20.312	9.878	0.531
1257.999	711.066	80.004	19.996	100.698	20.310	9.976	0.538
1259.999	712.145	80.004	19.995	100.700	20.312	9.854	0.525
1262.001	713.211	80.004	19.995	100.707	20.314	9.726	0.551
1263.999	714.333	80.002	19.996	100.710	20.310	9.994	0.551
1265.999	715.401	80.004	19.996	100.698	20.313	9.781	0.554
1268.000	716.455	80.004	19.997	100.701	20.310	10.018	0.521
1269.999	717.536	80.003	19.996	100.698	20.308	10.149	0.525
1272.000	718.597	80.003	19.996	100.706	20.308	10.152	0.523
1273.999	719.630	80.003	19.998	100.717	20.311	9.901	0.501
1275.999	720.686	80.004	19.998	100.697	20.307	10.187	0.515
1278.000	721.754	80.004	19.997	100.699	20.311	9.945	0.550
1279.999	722.810	80.006	19.997	100.690	20.312	9.871	0.516
1281.999	723.821	80.006	19.995	100.698	20.303	10.425	0.499
1283.999	724.883	80.006	19.995	100.693	20.310	9.977	0.507
1285.999	725.879	80.005	19.995	100.708	20.311	9.936	0.484
1287.999	726.900	80.004	19.994	100.703	20.311	9.964	0.510
1289.999	727.956	80.004	19.995	100.721	20.309	10.052	0.504
1291.999	728.959	80.002	19.995	100.706	20.306	10.240	0.488
1293.999	729.944	80.003	19.996	100.700	20.307	10.165	0.492
1295.999	730.943	80.003	19.996	100.693	20.308	10.119	0.488
1297.999	731.880	80.002	19.996	100.693	20.305	10.330	0.497
1299.999	732.870	80.002	19.996	100.702	20.310	10.006	0.451
1301.999	733.824	80.002	19.996	100.696	20.308	10.104	0.461
1304.001	734.713	80.003	19.995	100.689	20.308	10.099	0.455
1305.999	735.665	80.003	19.995	100.687	20.307	10.195	0.493
1308.000	736.538	80.004	19.996	100.690	20.307	10.168	0.440
1309.999	737.423	80.003	19.995	100.690	20.302	10.482	0.458
1311.999	738.296	80.002	19.995	100.690	20.304	10.372	0.452
1313.999	739.172	80.003	19.994	100.694	20.298	10.787	0.443
1315.999	740.042	80.003	19.995	100.690	20.301	10.593	0.436
1317.999	740.903	80.004	19.998	100.695	20.307	10.173	0.442
1319.999	741.810	80.002	19.995	100.700	20.307	10.198	0.442
1321.999	742.702	80.004	19.996	100.691	20.300	10.671	0.462
1323.999	743.601	80.002	19.995	100.688	20.299	10.689	0.452
1324.499	743.832	80.002	19.995	100.686	20.305	10.336	0.458