File: 01_Data/Corian_Countertop/MCC/Corian_Countertop_30K_min_210930_R1.txt
Sample ID:	C:\MCC\MCC Cal\Test\Corian_Countertop_30K_min_210930_R1.txt
Sample Weight (mg):	4.69
Heating Rate (C/s):	0.5
Combustor Temp (C):	900
N2 Flow Rate (cc/min):	80
O2 Flow Rate (cc/min):	20
Calibration File:	C:\MCC\MCC Cal\Coeff1 JN10440_30_210304.txt.txt
T Correction Coefficients:	0	1.024463	0
Time Shift (s):	14
*
Time (s)	Temperature (C)	N2 flow rate (cc/min)	O2 flow rate (cc/min)	Flow Rate (cc/min)	Oxygen (%)	HRR (W/g)	Heating rate (C/s)
0.000	107.566	80.006	19.996	100.606	20.286	0.138	-0.013
2.000	107.538	80.006	19.996	100.602	20.285	0.217	-0.015
4.000	107.570	80.005	19.997	100.603	20.284	0.239	0.016
6.000	107.545	80.004	19.996	100.600	20.288	0.020	-0.010
8.000	107.514	80.003	19.997	100.599	20.282	0.403	0.008
10.000	107.505	80.004	19.996	100.602	20.288	-0.022	0.004
12.000	107.548	80.004	19.996	100.599	20.285	0.228	0.009
14.000	107.524	80.002	19.996	100.608	20.285	0.210	0.018
16.000	107.529	80.002	19.997	100.608	20.289	-0.057	-0.029
18.000	107.505	80.003	19.995	100.615	20.287	0.103	0.005
20.000	107.522	80.002	19.997	100.639	20.284	0.304	-0.036
22.000	107.540	80.002	19.997	100.654	20.283	0.361	0.028
24.000	107.571	80.004	19.996	100.678	20.282	0.383	0.025
26.000	107.652	80.005	19.995	100.657	20.285	0.212	0.016
28.000	107.695	80.002	19.995	100.643	20.278	0.663	0.039
30.000	107.781	80.004	19.996	100.643	20.286	0.160	0.036
32.000	107.860	80.002	19.995	100.644	20.279	0.584	0.055
34.000	107.939	80.002	19.995	100.663	20.280	0.569	0.054
36.000	108.004	80.002	19.996	100.687	20.274	0.923	0.023
38.000	108.137	80.000	19.996	100.691	20.278	0.641	0.045
40.000	108.270	80.004	19.996	100.712	20.272	1.049	0.078
42.000	108.411	80.000	19.996	100.718	20.274	0.916	0.061
44.000	108.590	80.003	19.996	100.724	20.270	1.185	0.078
46.001	108.824	80.004	19.995	100.709	20.273	1.019	0.098
48.000	108.985	80.002	19.999	100.731	20.270	1.182	0.115
50.000	109.233	80.001	19.996	100.730	20.271	1.171	0.133
52.000	109.461	80.002	19.998	100.725	20.270	1.234	0.120
54.000	109.677	80.001	19.995	100.731	20.270	1.195	0.105
56.000	109.947	80.006	19.997	100.739	20.273	1.031	0.146
58.001	110.242	80.003	19.995	100.755	20.264	1.619	0.145
60.001	110.523	80.004	19.998	100.772	20.257	2.060	0.127
62.000	110.854	80.003	19.995	100.785	20.260	1.887	0.169
64.001	111.209	80.004	19.996	100.784	20.256	2.125	0.176
66.000	111.577	80.003	19.995	100.770	20.260	1.905	0.203
68.000	111.990	80.003	19.996	100.764	20.255	2.212	0.202
70.000	112.385	80.005	19.996	100.795	20.260	1.908	0.204
72.000	112.785	80.001	19.997	100.810	20.255	2.207	0.193
74.000	113.216	80.002	19.996	100.810	20.251	2.480	0.209
76.000	113.717	80.002	19.996	100.808	20.252	2.406	0.259
78.000	114.203	80.003	19.997	100.810	20.254	2.255	0.245
80.000	114.727	80.004	20.000	100.823	20.249	2.613	0.273
82.000	115.240	80.005	19.995	100.836	20.244	2.972	0.254
84.000	115.820	80.008	19.998	100.835	20.248	2.714	0.285
86.000	116.373	80.006	19.996	100.840	20.249	2.591	0.292
88.000	116.992	80.007	19.996	100.839	20.245	2.915	0.305
90.000	117.570	80.006	19.995	100.838	20.240	3.207	0.281
92.001	118.203	80.007	19.996	100.836	20.242	3.100	0.326
94.001	118.844	80.004	19.995	100.839	20.244	2.930	0.310
96.000	119.493	80.001	19.995	100.843	20.246	2.801	0.315
98.000	120.184	80.001	19.996	100.838	20.252	2.439	0.340
100.000	120.850	80.003	19.995	100.841	20.242	3.065	0.329
102.000	121.552	80.002	19.995	100.842	20.247	2.766	0.347
104.000	122.275	80.002	19.994	100.845	20.250	2.565	0.343
106.000	123.043	80.001	19.995	100.848	20.251	2.482	0.345
108.000	123.789	80.003	19.996	100.851	20.247	2.786	0.378
110.000	124.535	80.001	19.995	100.846	20.253	2.382	0.375
112.000	125.339	80.000	19.996	100.849	20.245	2.862	0.427
114.000	126.094	80.000	19.996	100.850	20.247	2.759	0.392
116.000	126.939	80.003	19.996	100.849	20.242	3.065	0.419
118.001	127.726	80.003	19.995	100.849	20.244	2.930	0.429
120.000	128.569	80.004	19.995	100.852	20.243	3.011	0.425
122.000	129.394	80.003	19.996	100.850	20.241	3.137	0.415
124.000	130.273	80.003	19.994	100.844	20.245	2.862	0.467
126.000	131.093	80.002	19.994	100.848	20.242	3.069	0.424
128.000	131.947	80.002	19.996	100.847	20.244	2.945	0.466
130.000	132.801	80.002	19.996	100.847	20.247	2.785	0.436
132.000	133.687	80.003	19.997	100.845	20.247	2.748	0.446
134.000	134.571	80.003	19.996	100.846	20.244	2.936	0.440
136.000	135.441	80.003	19.996	100.846	20.239	3.279	0.442
138.000	136.311	80.005	19.996	100.845	20.239	3.271	0.404
140.000	137.219	80.003	19.997	100.849	20.240	3.214	0.455
142.000	138.137	80.006	19.997	100.854	20.241	3.179	0.445
144.001	139.032	80.005	19.998	100.846	20.240	3.199	0.462
146.000	139.951	80.004	19.997	100.847	20.244	2.925	0.436
148.000	140.874	80.001	19.997	100.842	20.238	3.338	0.461
150.000	141.784	80.006	19.995	100.844	20.243	2.991	0.453
152.000	142.698	80.005	19.996	100.843	20.242	3.074	0.433
154.000	143.658	80.005	19.996	100.843	20.236	3.506	0.440
156.000	144.621	80.004	19.997	100.842	20.242	3.105	0.498
158.000	145.594	80.003	19.996	100.842	20.239	3.288	0.488
160.000	146.542	80.004	19.996	100.841	20.238	3.363	0.464
162.000	147.429	80.004	19.997	100.843	20.233	3.678	0.452
164.000	148.377	80.003	19.998	100.857	20.231	3.825	0.461
166.000	149.352	80.006	19.996	100.847	20.235	3.526	0.470
168.000	150.328	80.005	19.995	100.845	20.234	3.641	0.487
170.000	151.319	80.005	19.998	100.852	20.226	4.141	0.481
172.000	152.309	80.004	19.996	100.870	20.227	4.119	0.526
174.000	153.280	80.006	19.997	100.847	20.230	3.877	0.489
176.000	154.254	80.001	19.995	100.853	20.225	4.246	0.467
178.000	155.248	80.001	19.995	100.846	20.224	4.318	0.537
180.001	156.267	80.004	19.996	100.845	20.226	4.185	0.517
182.000	157.232	80.001	19.996	100.848	20.226	4.139	0.470
184.000	158.301	80.000	19.997	100.849	20.218	4.689	0.520
186.000	159.303	80.001	19.997	100.854	20.217	4.732	0.523
188.000	160.330	80.004	19.996	100.849	20.218	4.729	0.525
190.000	161.293	80.002	19.996	100.847	20.220	4.538	0.501
192.000	162.307	79.999	19.995	100.847	20.214	4.986	0.498
194.000	163.351	80.001	19.996	100.847	20.212	5.089	0.513
196.000	164.405	80.004	19.996	100.835	20.209	5.299	0.559
198.000	165.426	80.002	19.994	100.786	20.208	5.375	0.523
200.000	166.408	80.004	19.994	100.903	20.206	5.478	0.468
202.000	167.491	80.003	19.995	100.852	20.206	5.492	0.520
204.000	168.517	80.003	19.995	100.844	20.205	5.545	0.517
206.000	169.573	80.003	19.996	100.844	20.199	5.987	0.499
208.000	170.550	80.002	19.996	100.842	20.197	6.085	0.494
210.000	171.603	80.002	19.995	100.844	20.192	6.451	0.527
212.000	172.644	80.000	19.996	100.830	20.202	5.770	0.485
214.000	173.685	80.002	19.994	100.835	20.197	6.103	0.491
216.000	174.703	80.004	19.996	100.834	20.201	5.841	0.529
218.000	175.741	80.005	19.997	100.835	20.196	6.178	0.504
220.000	176.766	80.004	19.996	100.822	20.198	6.068	0.523
222.000	177.762	80.005	19.995	100.815	20.195	6.222	0.507
224.000	178.768	80.003	19.996	100.826	20.196	6.202	0.484
226.000	179.818	80.004	19.996	100.830	20.191	6.480	0.507
228.000	180.842	80.005	19.996	100.820	20.198	6.007	0.497
230.000	181.861	80.004	19.997	100.814	20.200	5.913	0.488
232.000	182.895	80.002	19.996	100.817	20.202	5.774	0.557
234.000	183.911	80.004	19.996	100.814	20.203	5.707	0.497
236.000	184.873	80.002	19.996	100.814	20.208	5.338	0.509
238.000	185.913	80.002	19.994	100.814	20.199	5.942	0.493
240.000	186.913	80.002	19.995	100.805	20.205	5.597	0.492
242.000	187.957	80.004	19.996	100.818	20.206	5.482	0.531
244.000	188.944	80.004	19.995	100.815	20.216	4.860	0.498
246.000	189.922	80.004	19.996	100.816	20.220	4.550	0.512
248.000	190.917	80.003	19.995	100.815	20.214	4.988	0.494
250.000	191.949	80.004	19.996	100.821	20.217	4.747	0.491
252.000	192.976	80.004	19.996	100.812	20.215	4.911	0.499
254.000	193.965	80.006	19.997	100.806	20.221	4.482	0.487
256.000	194.959	80.004	19.997	100.812	20.226	4.163	0.492
258.000	195.978	80.004	19.997	100.807	20.224	4.307	0.508
260.000	196.972	80.002	19.997	100.750	20.226	4.179	0.508
262.000	197.971	80.001	19.997	100.848	20.231	3.836	0.516
264.000	198.979	80.002	19.998	100.833	20.237	3.447	0.484
266.000	199.931	80.003	19.997	100.802	20.235	3.552	0.486
268.000	200.908	80.002	19.997	100.802	20.235	3.532	0.486
270.000	201.910	80.003	19.997	100.805	20.237	3.410	0.536
272.000	202.895	80.003	19.997	100.804	20.240	3.204	0.515
274.000	203.884	80.001	19.996	100.804	20.239	3.298	0.477
276.000	204.894	80.003	19.995	100.805	20.241	3.132	0.482
278.000	205.915	80.001	19.998	100.803	20.243	3.049	0.495
280.000	206.901	80.003	19.998	100.799	20.241	3.180	0.512
282.000	207.878	80.001	19.997	100.803	20.239	3.276	0.487
284.000	208.858	80.003	19.997	100.803	20.242	3.077	0.494
286.000	209.819	80.003	19.998	100.803	20.245	2.887	0.478
288.000	210.839	80.001	19.997	100.801	20.240	3.200	0.492
290.000	211.817	80.002	19.996	100.799	20.242	3.086	0.507
292.000	212.791	80.003	20.000	100.801	20.248	2.662	0.483
294.000	213.763	80.001	19.998	100.806	20.240	3.232	0.500
296.000	214.717	80.004	19.997	100.806	20.242	3.093	0.487
298.000	215.709	80.000	19.997	100.804	20.245	2.901	0.494
300.000	216.660	80.002	19.997	100.808	20.242	3.067	0.486
302.000	217.669	80.006	19.997	100.809	20.244	2.957	0.493
304.000	218.627	80.004	19.996	100.809	20.245	2.898	0.463
306.000	219.643	80.004	19.996	100.807	20.245	2.913	0.509
308.000	220.620	80.003	19.994	100.804	20.245	2.887	0.450
310.000	221.639	80.002	19.994	100.804	20.239	3.273	0.506
312.000	222.603	80.004	19.997	100.807	20.245	2.913	0.471
314.000	223.589	80.003	19.996	100.806	20.240	3.215	0.504
316.000	224.553	80.002	19.996	100.809	20.240	3.241	0.502
318.000	225.535	80.004	19.995	100.810	20.239	3.314	0.493
320.000	226.525	80.002	19.996	100.813	20.236	3.475	0.485
322.000	227.509	80.001	19.996	100.823	20.242	3.106	0.480
324.000	228.493	80.004	19.995	100.814	20.233	3.661	0.489
326.000	229.545	80.006	19.997	100.809	20.235	3.577	0.541
328.000	230.534	80.003	19.996	100.803	20.236	3.500	0.513
330.000	231.503	80.003	19.995	100.805	20.239	3.293	0.473
332.000	232.474	80.005	19.996	100.822	20.237	3.417	0.465
334.000	233.476	80.003	19.995	100.804	20.230	3.870	0.504
336.000	234.480	80.003	19.996	100.821	20.236	3.510	0.524
338.000	235.494	80.003	19.995	100.826	20.232	3.780	0.491
340.000	236.474	80.002	19.996	100.829	20.234	3.599	0.500
342.000	237.486	80.003	19.996	100.832	20.231	3.797	0.493
344.000	238.482	80.001	19.997	100.816	20.230	3.910	0.520
346.000	239.462	80.002	19.997	100.822	20.233	3.717	0.513
348.000	240.439	80.001	19.996	100.816	20.229	3.944	0.480
350.000	241.474	80.003	19.997	100.825	20.238	3.380	0.502
352.000	242.457	80.003	19.996	100.821	20.230	3.913	0.504
354.000	243.458	80.002	19.997	100.828	20.233	3.662	0.504
356.000	244.434	80.001	19.996	100.839	20.231	3.813	0.483
358.000	245.399	79.999	19.996	100.821	20.228	4.039	0.490
360.000	246.460	80.001	19.997	100.829	20.228	4.006	0.524
362.000	247.380	80.002	19.996	100.827	20.229	3.970	0.492
364.000	248.446	80.003	19.997	100.822	20.227	4.118	0.525
366.000	249.388	80.001	19.996	100.831	20.224	4.269	0.496
368.000	250.383	80.002	19.997	100.829	20.233	3.698	0.509
370.000	251.375	80.001	19.995	100.841	20.228	4.008	0.512
372.000	252.361	80.000	19.995	100.835	20.223	4.360	0.483
374.000	253.322	80.004	19.995	100.839	20.221	4.528	0.509
376.000	254.263	80.002	19.995	100.827	20.223	4.380	0.473
378.000	255.231	80.001	19.994	100.840	20.218	4.712	0.505
380.000	256.189	80.000	19.994	100.844	20.216	4.851	0.492
382.000	257.167	80.003	19.996	100.845	20.217	4.790	0.496
384.000	258.060	80.002	19.996	100.846	20.213	5.004	0.482
386.000	259.066	80.002	19.994	100.846	20.213	5.019	0.495
388.000	260.016	80.002	19.995	100.839	20.207	5.436	0.507
390.000	260.947	80.002	19.997	100.840	20.203	5.735	0.471
392.000	261.931	80.002	19.996	100.842	20.198	6.011	0.468
394.000	262.932	80.003	19.996	100.842	20.191	6.486	0.499
396.000	263.929	80.001	19.996	100.843	20.187	6.790	0.511
398.000	264.850	80.004	19.997	100.844	20.190	6.571	0.486
400.000	265.844	80.002	19.995	100.840	20.185	6.887	0.500
402.000	266.828	80.002	19.996	100.839	20.168	8.049	0.481
404.000	267.822	80.003	19.995	100.842	20.170	7.885	0.505
406.000	268.838	80.002	19.996	100.842	20.158	8.754	0.516
408.000	269.773	80.005	19.995	100.833	20.147	9.476	0.499
410.000	270.838	80.003	19.995	100.826	20.134	10.349	0.506
412.000	271.870	80.006	19.997	100.828	20.120	11.264	0.505
414.000	272.888	80.005	19.996	100.815	20.112	11.801	0.493
416.000	273.854	80.004	19.995	100.805	20.102	12.465	0.528
418.000	274.850	80.005	19.998	100.800	20.087	13.441	0.496
420.000	275.870	80.002	19.995	100.791	20.076	14.216	0.529
422.000	276.858	80.001	19.996	100.776	20.056	15.534	0.525
424.000	277.867	80.001	19.997	100.768	20.043	16.387	0.513
426.000	278.827	80.001	19.995	100.759	20.030	17.296	0.520
428.001	279.885	80.002	19.996	100.734	20.011	18.577	0.525
430.000	280.871	80.001	19.996	100.724	19.997	19.507	0.490
432.000	281.871	80.003	19.996	100.692	19.972	21.140	0.505
434.000	282.969	80.003	19.998	100.678	19.960	21.936	0.522
436.000	284.010	80.003	19.995	100.647	19.937	23.542	0.524
438.000	285.080	80.000	19.995	100.631	19.914	25.069	0.544
440.000	286.080	80.002	19.996	100.612	19.896	26.293	0.534
442.000	287.164	80.002	19.998	100.624	19.867	28.194	0.521
444.000	288.208	79.999	19.996	100.639	19.852	29.216	0.536
446.000	289.288	80.000	19.997	100.657	19.832	30.552	0.517
448.000	290.360	79.999	19.997	100.683	19.815	31.722	0.566
450.000	291.455	80.001	19.998	100.707	19.798	32.859	0.542
452.000	292.580	80.002	19.997	100.731	19.797	32.968	0.549
454.000	293.652	80.004	19.996	100.731	19.799	32.770	0.529
456.000	294.728	80.001	19.996	100.754	19.785	33.725	0.518
458.000	295.797	80.001	19.996	100.744	19.794	33.120	0.532
460.000	296.853	80.002	19.995	100.708	19.803	32.518	0.533
462.000	297.916	80.002	19.996	100.813	19.816	31.611	0.538
464.000	298.983	80.006	19.995	100.773	19.835	30.337	0.499
466.000	300.122	80.004	19.996	100.765	19.846	29.634	0.565
468.000	301.143	80.004	19.996	100.765	19.865	28.333	0.687
470.000	302.130	80.004	19.996	100.765	19.882	27.217	0.350
472.000	303.471	80.003	19.996	100.764	19.909	25.371	0.771
474.000	304.311	80.004	19.995	100.757	19.930	23.990	0.573
476.000	305.400	80.001	19.996	100.756	19.952	22.515	0.531
478.000	306.449	80.001	19.996	100.748	19.973	21.089	0.532
480.000	307.495	80.003	19.996	100.755	19.991	19.889	0.548
482.000	308.564	80.002	19.996	100.748	20.014	18.338	0.513
484.000	309.563	80.003	19.995	100.744	20.024	17.669	0.507
486.000	310.556	80.004	19.996	100.736	20.038	16.778	0.496
488.000	311.615	80.003	19.994	100.747	20.055	15.593	0.491
490.000	312.636	80.007	19.997	100.764	20.057	15.471	0.493
492.000	313.709	80.005	19.995	100.755	20.072	14.458	0.515
494.000	314.699	80.004	19.994	100.766	20.083	13.742	0.468
496.001	315.721	80.005	19.994	100.750	20.090	13.258	0.485
498.000	316.702	80.004	19.995	100.761	20.089	13.352	0.507
500.000	317.677	80.001	19.996	100.758	20.101	12.564	0.492
502.000	318.695	80.002	19.996	100.760	20.094	13.014	0.500
504.000	319.667	80.001	19.995	100.759	20.094	12.976	0.482
506.000	320.664	80.000	19.997	100.751	20.093	13.104	0.514
508.000	321.609	80.000	19.996	100.767	20.095	12.916	0.483
510.000	322.588	80.002	19.997	100.764	20.090	13.248	0.468
512.000	323.556	80.000	19.997	100.759	20.090	13.266	0.496
514.000	324.538	80.000	19.997	100.757	20.085	13.625	0.498
516.000	325.478	80.001	19.996	100.765	20.082	13.839	0.501
518.000	326.464	80.001	19.996	100.748	20.080	13.914	0.485
520.000	327.395	80.001	19.995	100.752	20.075	14.252	0.483
522.000	328.395	80.001	19.996	100.763	20.077	14.133	0.511
524.000	329.318	80.001	19.995	100.750	20.066	14.865	0.469
526.000	330.330	80.003	19.996	100.761	20.061	15.199	0.485
528.000	331.229	80.002	19.997	100.763	20.061	15.211	0.448
530.000	332.223	80.001	19.997	100.761	20.052	15.843	0.482
532.000	333.176	79.999	19.997	100.758	20.048	16.075	0.502
534.000	334.098	80.000	19.998	100.760	20.049	16.027	0.468
536.000	335.096	80.002	19.998	100.765	20.039	16.714	0.487
538.000	336.042	79.998	19.997	100.765	20.033	17.123	0.497
540.000	337.012	80.001	19.997	100.765	20.028	17.409	0.502
542.000	337.909	80.001	19.998	100.763	20.020	17.977	0.473
544.000	338.896	80.003	19.996	100.764	20.014	18.368	0.504
546.000	339.834	80.003	19.997	100.765	20.013	18.449	0.496
548.000	340.839	80.007	19.997	100.769	20.003	19.139	0.485
550.000	341.806	80.001	19.995	100.767	19.993	19.802	0.517
552.000	342.744	80.003	19.994	100.770	19.992	19.824	0.472
554.000	343.713	80.005	19.996	100.767	19.984	20.386	0.503
556.000	344.693	80.003	19.996	100.769	19.981	20.567	0.508
558.000	345.636	80.003	19.997	100.770	19.970	21.357	0.473
560.000	346.612	80.003	19.996	100.772	19.957	22.195	0.484
562.000	347.569	80.003	19.996	100.768	19.953	22.430	0.462
564.000	348.542	80.001	19.995	100.771	19.940	23.362	0.479
566.000	349.541	80.004	19.997	100.771	19.936	23.580	0.467
568.000	350.556	80.002	19.997	100.783	19.932	23.890	0.490
570.000	351.514	80.004	19.995	100.782	19.920	24.668	0.499
572.000	352.503	80.005	19.997	100.773	19.908	25.487	0.471
574.000	353.526	80.004	19.994	100.768	19.903	25.828	0.515
576.000	354.499	80.003	19.995	100.767	19.894	26.450	0.465
578.000	355.501	80.005	19.994	100.772	19.886	26.978	0.509
580.000	356.487	80.004	19.994	100.773	19.870	28.052	0.512
582.000	357.432	80.003	19.995	100.782	19.869	28.094	0.482
584.000	358.455	80.002	19.996	100.796	19.855	29.033	0.503
586.000	359.440	80.004	19.997	100.782	19.846	29.652	0.491
588.000	360.401	80.003	19.996	100.782	19.836	30.284	0.480
590.000	361.420	80.002	19.996	100.785	19.825	31.056	0.486
592.000	362.385	80.002	19.996	100.779	19.816	31.639	0.481
594.000	363.375	80.001	19.996	100.795	19.801	32.674	0.483
596.000	364.344	80.001	19.998	100.798	19.792	33.255	0.484
598.000	365.343	80.002	19.998	100.786	19.786	33.678	0.491
600.000	366.346	80.001	19.996	100.792	19.772	34.628	0.487
602.000	367.324	80.001	19.996	100.793	19.768	34.869	0.494
604.001	368.275	80.002	19.997	100.795	19.758	35.524	0.487
606.000	369.261	80.003	19.996	100.792	19.750	36.114	0.494
608.000	370.242	80.003	19.996	100.799	19.743	36.584	0.480
610.000	371.186	80.001	19.998	100.795	19.735	37.097	0.498
612.000	372.220	80.000	19.995	100.799	19.730	37.425	0.526
614.000	373.204	80.002	19.997	100.794	19.720	38.111	0.474
616.000	374.172	80.000	19.996	100.804	19.714	38.494	0.468
618.000	375.180	80.001	19.997	100.804	19.707	38.990	0.472
620.000	376.177	80.001	19.995	100.805	19.704	39.177	0.506
622.000	377.229	80.001	19.996	100.806	19.700	39.458	0.528
624.000	378.183	79.999	19.995	100.793	19.692	39.940	0.511
626.000	379.203	80.002	19.996	100.795	19.685	40.401	0.509
628.000	380.214	80.001	19.996	100.805	19.691	40.022	0.513
630.000	381.219	80.001	19.997	100.791	19.684	40.499	0.490
632.000	382.266	80.002	19.996	100.787	19.679	40.869	0.532
634.000	383.292	80.003	19.997	100.798	19.682	40.614	0.509
636.000	384.293	80.004	19.997	100.784	19.679	40.861	0.507
638.000	385.257	80.002	19.996	100.786	19.679	40.857	0.483
640.000	386.235	80.003	19.997	100.801	19.687	40.287	0.487
642.000	387.282	80.004	19.997	100.789	19.687	40.283	0.504
644.000	388.278	80.001	19.997	100.794	19.692	39.967	0.494
646.000	389.315	80.002	19.995	100.781	19.698	39.537	0.526
648.000	390.317	80.004	19.996	100.781	19.708	38.899	0.527
650.000	391.327	80.003	19.995	100.771	19.714	38.457	0.514
652.000	392.345	80.004	19.996	100.783	19.723	37.906	0.531
654.000	393.434	80.004	19.997	100.768	19.727	37.634	0.548
656.000	394.446	80.004	19.996	100.766	19.739	36.780	0.511
658.000	395.473	80.003	19.995	100.768	19.750	36.072	0.517
660.000	396.482	80.004	19.996	100.765	19.763	35.207	0.518
662.000	397.549	80.002	19.995	100.769	19.773	34.504	0.541
664.000	398.567	80.002	19.996	100.765	19.784	33.810	0.517
666.000	399.566	80.003	19.996	100.766	19.805	32.356	0.528
668.000	400.568	80.002	19.995	100.765	19.820	31.370	0.511
670.000	401.587	80.001	19.995	100.766	19.833	30.491	0.501
672.000	402.645	80.003	19.996	100.765	19.844	29.784	0.514
674.000	403.659	80.001	19.997	100.759	19.862	28.558	0.518
676.000	404.700	80.002	19.997	100.759	19.880	27.318	0.545
678.000	405.657	80.002	19.996	100.749	19.895	26.366	0.489
680.000	406.715	80.002	19.994	100.753	19.914	25.057	0.500
682.000	407.736	80.004	19.996	100.761	19.931	23.920	0.531
684.000	408.784	80.002	19.997	100.762	19.949	22.706	0.531
686.000	409.761	80.001	19.995	100.743	19.965	21.636	0.484
688.000	410.809	80.005	19.996	100.737	19.988	20.105	0.513
690.000	411.798	80.001	19.995	100.737	20.002	19.189	0.522
692.000	412.828	80.001	19.996	100.732	20.018	18.104	0.495
694.000	413.822	80.000	19.996	100.737	20.031	17.216	0.516
696.000	414.829	80.000	19.996	100.734	20.047	16.121	0.490
698.000	415.854	80.001	19.997	100.731	20.062	15.180	0.517
700.000	416.860	80.000	19.996	100.737	20.078	14.088	0.507
702.000	417.919	80.001	19.996	100.730	20.095	12.931	0.530
704.000	418.978	80.002	19.997	100.730	20.111	11.845	0.541
706.000	419.948	80.002	19.996	100.729	20.121	11.188	0.507
708.000	420.904	80.002	19.997	100.731	20.135	10.247	0.464
710.000	421.966	80.003	19.998	100.730	20.148	9.392	0.500
712.000	422.963	80.003	19.997	100.730	20.157	8.796	0.487
714.000	423.968	80.005	19.996	100.726	20.171	7.851	0.517
716.000	424.981	80.003	19.996	100.723	20.183	7.069	0.528
718.000	426.004	80.003	19.997	100.705	20.189	6.659	0.522
720.000	426.919	80.002	19.998	100.715	20.195	6.238	0.478
722.000	427.947	80.002	19.999	100.724	20.204	5.641	0.527
724.000	428.942	80.003	19.997	100.723	20.209	5.288	0.511
726.000	429.962	80.002	19.997	100.722	20.218	4.725	0.525
728.000	430.923	80.001	19.998	100.721	20.223	4.377	0.522
730.000	431.971	80.002	19.996	100.725	20.232	3.738	0.522
732.000	432.996	80.005	19.997	100.724	20.238	3.340	0.510
734.000	434.044	80.004	19.996	100.726	20.239	3.284	0.522
736.001	435.051	80.005	19.996	100.726	20.242	3.061	0.498
738.000	436.084	80.005	19.996	100.724	20.249	2.602	0.513
740.000	437.136	80.004	19.995	100.725	20.254	2.252	0.503
742.000	438.172	80.003	19.997	100.725	20.251	2.510	0.504
744.000	439.260	80.003	19.996	100.727	20.258	1.989	0.529
746.000	440.311	80.000	19.996	100.726	20.258	2.011	0.519
748.000	441.353	80.002	19.996	100.730	20.263	1.692	0.542
750.000	442.421	80.002	19.995	100.731	20.263	1.686	0.532
752.000	443.464	80.001	19.997	100.725	20.264	1.607	0.535
754.000	444.529	80.001	19.995	100.731	20.266	1.456	0.538
756.000	445.555	80.001	19.996	100.731	20.267	1.436	0.509
758.000	446.623	80.002	19.996	100.729	20.268	1.338	0.518
760.000	447.702	80.003	19.996	100.729	20.274	0.971	0.557
762.000	448.740	80.002	19.996	100.730	20.274	0.968	0.515
764.000	449.782	80.002	19.996	100.726	20.277	0.722	0.541
766.000	450.839	80.002	19.995	100.726	20.273	0.993	0.507
768.000	451.906	80.002	19.996	100.731	20.269	1.288	0.553
770.000	452.993	80.001	19.994	100.728	20.277	0.763	0.555
772.000	454.038	80.003	19.996	100.727	20.272	1.100	0.520
774.000	455.080	80.003	19.996	100.727	20.274	0.938	0.507
776.000	456.186	80.004	19.996	100.728	20.280	0.534	0.537
778.000	457.176	80.001	19.996	100.724	20.281	0.501	0.519
780.000	458.239	80.003	19.996	100.725	20.272	1.074	0.514
782.000	459.298	80.002	19.995	100.721	20.276	0.814	0.518
784.000	460.334	80.001	19.997	100.712	20.281	0.481	0.541
786.000	461.337	80.000	19.995	100.718	20.277	0.737	0.485
788.000	462.387	80.002	19.996	100.724	20.281	0.448	0.487
790.000	463.402	80.002	19.996	100.724	20.279	0.601	0.499
792.000	464.400	80.004	19.997	100.702	20.277	0.708	0.500
794.000	465.417	80.004	19.998	100.721	20.278	0.660	0.484
796.000	466.472	80.004	19.998	100.724	20.282	0.376	0.528
798.000	467.502	80.002	19.997	100.715	20.284	0.300	0.539
800.000	468.481	80.003	19.997	100.722	20.275	0.877	0.500
802.000	469.463	80.003	19.997	100.714	20.281	0.442	0.496
804.000	470.470	80.001	19.997	100.714	20.279	0.638	0.520
806.000	471.415	80.003	19.996	100.722	20.284	0.245	0.474
808.000	472.454	80.003	19.998	100.725	20.284	0.271	0.492
810.000	473.452	80.002	19.997	100.724	20.285	0.186	0.512
812.000	474.437	80.003	19.997	100.717	20.282	0.374	0.479
814.000	475.451	80.001	19.998	100.720	20.283	0.308	0.530
816.000	476.435	80.004	19.998	100.720	20.280	0.538	0.506
818.000	477.428	80.004	19.998	100.714	20.283	0.324	0.487
820.000	478.418	80.004	19.997	100.721	20.283	0.370	0.519
822.000	479.403	80.004	19.997	100.712	20.282	0.374	0.488
824.000	480.371	80.003	19.997	100.708	20.284	0.240	0.496
826.000	481.350	80.002	19.996	100.719	20.285	0.219	0.490
828.000	482.311	80.003	19.995	100.707	20.284	0.304	0.479
830.000	483.276	80.002	19.997	100.711	20.289	-0.035	0.464
832.000	484.244	80.000	19.996	100.719	20.287	0.077	0.471
834.000	485.234	80.001	19.996	100.727	20.287	0.077	0.501
836.000	486.220	80.001	19.995	100.718	20.285	0.188	0.498
838.000	487.212	80.002	19.996	100.712	20.283	0.324	0.481
840.000	488.192	80.001	19.996	100.711	20.282	0.415	0.495
842.000	489.188	80.001	19.996	100.706	20.286	0.116	0.500
844.000	490.153	80.003	19.995	100.722	20.285	0.206	0.504
846.000	491.168	80.002	19.998	100.705	20.287	0.083	0.490
848.000	492.172	80.002	19.997	100.724	20.283	0.350	0.492
850.000	493.224	80.003	19.997	100.726	20.285	0.181	0.530
852.000	494.277	80.002	19.995	100.725	20.286	0.136	0.557
854.000	495.335	80.003	19.996	100.724	20.286	0.149	0.529
856.000	496.428	80.001	19.996	100.726	20.287	0.070	0.522
858.000	497.462	80.001	19.995	100.727	20.284	0.289	0.521
860.000	498.544	80.002	19.997	100.729	20.285	0.173	0.553
862.000	499.663	80.003	19.995	100.728	20.281	0.477	0.531
864.000	500.743	80.001	19.993	100.693	20.287	0.092	0.540
866.000	501.861	80.002	19.998	100.661	20.288	0.018	0.570
868.000	502.995	80.002	19.996	100.779	20.286	0.135	0.564
870.000	504.124	80.004	19.995	100.726	20.294	-0.376	0.554
872.000	505.192	80.004	19.996	100.721	20.287	0.087	0.547
874.000	506.353	80.004	19.996	100.718	20.288	-0.026	0.561
876.000	507.525	80.002	19.996	100.723	20.287	0.074	0.574
878.000	508.628	80.002	19.995	100.721	20.281	0.468	0.558
880.000	509.764	80.004	19.995	100.727	20.289	-0.081	0.580
882.000	510.882	80.003	19.996	100.726	20.288	-0.007	0.550
884.000	512.015	80.002	19.996	100.727	20.283	0.370	0.565
886.000	513.142	80.003	19.996	100.726	20.283	0.308	0.585
888.000	514.275	80.003	19.996	100.724	20.291	-0.229	0.603
890.000	515.436	80.003	19.996	100.726	20.287	0.094	0.558
892.000	516.563	80.003	19.997	100.725	20.288	0.015	0.565
894.000	517.691	80.002	19.996	100.725	20.287	0.081	0.562
896.000	518.802	80.003	19.996	100.722	20.286	0.105	0.556
898.000	519.949	80.003	19.996	100.722	20.285	0.216	0.591
900.000	521.092	80.005	19.996	100.721	20.284	0.289	0.564
902.000	522.207	80.003	19.996	100.723	20.284	0.249	0.544
904.000	523.340	80.002	19.995	100.706	20.288	-0.020	0.570
906.000	524.522	80.003	19.996	100.709	20.287	0.083	0.581
908.000	525.571	80.001	19.997	100.719	20.287	0.088	0.547
910.000	526.652	80.000	19.997	100.713	20.288	0.020	0.529
912.000	527.821	80.001	19.997	100.709	20.285	0.179	0.590
914.000	528.884	80.003	19.997	100.705	20.291	-0.201	0.548
916.000	529.995	80.001	19.996	100.712	20.291	-0.227	0.538
918.000	531.104	80.002	19.996	100.727	20.286	0.164	0.535
920.000	532.258	80.001	19.996	100.724	20.289	-0.068	0.605
922.000	533.321	80.001	19.995	100.725	20.291	-0.227	0.522
924.000	534.463	80.003	19.996	100.721	20.289	-0.090	0.560
926.000	535.548	80.003	19.995	100.719	20.290	-0.127	0.531
928.000	536.665	80.003	19.995	100.709	20.288	-0.024	0.545
930.000	537.719	80.001	19.995	100.717	20.296	-0.536	0.527
932.000	538.829	80.004	19.996	100.713	20.294	-0.387	0.536
934.000	539.950	80.004	19.996	100.708	20.290	-0.162	0.539
936.000	541.021	80.001	19.996	100.703	20.292	-0.291	0.532
938.000	542.089	80.002	19.996	100.715	20.290	-0.153	0.528
940.000	543.201	80.001	19.996	100.719	20.292	-0.289	0.551
942.000	544.271	80.002	19.996	100.710	20.291	-0.203	0.539
944.000	545.347	80.002	19.996	100.707	20.295	-0.446	0.543
946.000	546.389	80.001	19.996	100.711	20.293	-0.335	0.528
948.000	547.435	80.003	19.995	100.706	20.296	-0.545	0.527
950.000	548.544	80.002	19.997	100.709	20.297	-0.590	0.561
952.000	549.524	80.004	19.995	100.711	20.295	-0.488	0.492
954.000	550.616	80.004	19.996	100.721	20.295	-0.488	0.559
956.000	551.673	80.004	19.996	100.708	20.297	-0.571	0.515
958.000	552.662	80.003	19.995	100.705	20.297	-0.582	0.507
960.000	553.713	80.003	19.996	100.693	20.295	-0.466	0.489
962.000	554.785	80.002	19.996	100.704	20.294	-0.396	0.518
964.000	555.864	80.002	19.996	100.711	20.292	-0.297	0.535
966.000	556.875	80.002	19.998	100.701	20.298	-0.674	0.540
968.000	557.914	80.003	19.996	100.703	20.295	-0.496	0.497
970.000	558.960	80.002	19.996	100.710	20.295	-0.486	0.536
972.000	560.009	80.003	19.996	100.699	20.296	-0.529	0.532
974.000	561.018	80.004	19.996	100.707	20.295	-0.457	0.517
976.000	562.065	80.006	19.998	100.688	20.297	-0.625	0.536
978.000	563.065	80.005	19.996	100.693	20.298	-0.684	0.498
980.000	564.053	80.004	19.996	100.686	20.295	-0.477	0.490
982.000	565.107	80.005	19.995	100.693	20.296	-0.532	0.493
984.000	566.112	80.003	19.996	100.697	20.299	-0.748	0.510
986.000	567.157	80.003	19.996	100.693	20.298	-0.643	0.510
988.000	568.183	80.003	19.996	100.696	20.301	-0.886	0.520
990.000	569.141	80.001	19.996	100.693	20.298	-0.685	0.481
992.000	570.194	80.002	19.998	100.690	20.299	-0.742	0.521
994.000	571.206	80.001	19.996	100.697	20.300	-0.787	0.547
996.000	572.257	80.002	19.997	100.699	20.301	-0.849	0.509
998.000	573.237	80.001	19.997	100.696	20.302	-0.918	0.519
1000.000	574.274	80.002	19.997	100.689	20.304	-1.074	0.519
1002.000	575.342	80.002	19.996	100.691	20.304	-1.054	0.499
1004.000	576.318	80.002	19.996	100.693	20.303	-1.032	0.466
1006.000	577.346	80.002	19.996	100.693	20.300	-0.803	0.517
1008.000	578.357	80.001	19.996	100.692	20.302	-0.932	0.496
1010.000	579.350	80.003	19.997	100.694	20.303	-0.997	0.506
1012.000	580.379	80.001	19.996	100.692	20.303	-1.004	0.514
1014.000	581.366	80.002	19.995	100.692	20.299	-0.709	0.501
1016.000	582.370	80.000	19.995	100.693	20.304	-1.087	0.504
1018.000	583.368	80.002	19.995	100.696	20.305	-1.126	0.491
1020.000	584.340	80.001	19.996	100.691	20.304	-1.054	0.488
1022.000	585.376	80.000	19.996	100.692	20.306	-1.223	0.515
1024.001	586.385	80.000	19.995	100.692	20.305	-1.168	0.524
1026.000	587.367	80.001	19.996	100.692	20.304	-1.087	0.482
1028.000	588.387	80.002	19.996	100.697	20.304	-1.069	0.510
1030.000	589.371	80.003	19.996	100.695	20.303	-1.024	0.469
1032.000	590.376	80.004	19.996	100.691	20.303	-0.986	0.501
1034.000	591.384	80.004	19.995	100.691	20.301	-0.860	0.481
1036.000	592.431	80.003	19.996	100.692	20.305	-1.140	0.541
1038.001	593.487	80.003	19.996	100.690	20.301	-0.899	0.535
1040.000	594.502	80.004	19.994	100.691	20.306	-1.222	0.527
1042.000	595.522	80.004	19.995	100.706	20.303	-1.034	0.508
1044.001	596.553	80.004	19.996	100.694	20.305	-1.144	0.535
1046.000	597.545	80.003	19.996	100.689	20.308	-1.326	0.494
1048.000	598.569	80.003	19.996	100.692	20.306	-1.170	0.491
1050.001	599.596	80.002	19.995	100.694	20.307	-1.293	0.517
1052.000	600.582	80.004	19.995	100.691	20.311	-1.516	0.503
1054.000	601.623	80.004	19.996	100.691	20.312	-1.609	0.495
1056.000	602.630	80.005	19.997	100.689	20.311	-1.524	0.473
1058.001	603.656	80.005	19.996	100.690	20.309	-1.432	0.508
1060.001	604.675	80.006	19.996	100.694	20.309	-1.398	0.521
1062.000	605.690	80.005	19.996	100.688	20.312	-1.607	0.503
1064.000	606.730	80.004	19.997	100.693	20.315	-1.806	0.499
1066.000	607.789	80.003	19.996	100.698	20.311	-1.570	0.525
1068.000	608.780	80.002	19.996	100.687	20.312	-1.597	0.497
1070.000	609.814	80.002	19.995	100.694	20.311	-1.520	0.506
1072.000	610.807	80.002	19.996	100.698	20.311	-1.535	0.513
1074.000	611.856	80.002	19.995	100.697	20.308	-1.330	0.523
1076.000	612.899	80.002	19.996	100.698	20.313	-1.653	0.524
1078.001	613.929	80.002	19.996	100.691	20.313	-1.638	0.515
1080.001	614.932	80.002	19.997	100.691	20.314	-1.723	0.498
1082.000	615.926	80.002	19.995	100.690	20.309	-1.426	0.499
1084.000	616.977	80.002	19.996	100.690	20.312	-1.629	0.504
1086.001	617.976	80.001	19.996	100.691	20.313	-1.642	0.472
1088.000	619.005	80.002	19.996	100.691	20.314	-1.771	0.518
1090.001	620.021	80.002	19.997	100.693	20.317	-1.927	0.534
1092.000	621.002	80.002	19.996	100.692	20.312	-1.586	0.489
1094.000	622.017	80.001	19.997	100.691	20.310	-1.485	0.474
1096.000	623.021	80.002	19.996	100.695	20.314	-1.754	0.518
1098.000	624.039	80.001	19.995	100.699	20.311	-1.544	0.527
1100.000	625.077	80.001	19.994	100.692	20.313	-1.678	0.495
1102.000	626.059	80.003	19.995	100.692	20.317	-1.912	0.498
1104.000	627.033	80.002	19.996	100.692	20.315	-1.837	0.488
1106.001	628.053	80.002	19.996	100.691	20.312	-1.601	0.489
1108.000	629.057	80.002	19.995	100.689	20.313	-1.658	0.502
1110.000	630.046	80.003	19.996	100.689	20.318	-2.006	0.507
1112.000	631.057	80.003	19.996	100.695	20.315	-1.802	0.520
1114.000	632.076	80.004	19.996	100.692	20.318	-1.993	0.531
1116.000	633.070	80.003	19.996	100.688	20.313	-1.641	0.505
1118.000	634.084	80.005	19.997	100.692	20.317	-1.940	0.485
1120.000	635.070	80.004	19.996	100.689	20.316	-1.894	0.497
1122.001	636.133	80.002	19.995	100.693	20.312	-1.606	0.499
1124.001	637.123	80.003	19.995	100.690	20.313	-1.702	0.508
1126.001	638.135	80.004	19.995	100.687	20.314	-1.730	0.541
1128.000	639.113	80.003	19.995	100.687	20.313	-1.638	0.507
1130.000	640.102	80.003	19.996	100.689	20.318	-1.979	0.499
1132.000	641.117	80.004	19.996	100.688	20.315	-1.817	0.511
1134.000	642.130	80.004	19.996	100.689	20.315	-1.774	0.512
1136.000	643.091	80.003	19.995	100.693	20.321	-2.198	0.489
1138.000	644.111	80.003	19.996	100.689	20.317	-1.922	0.533
1140.000	645.145	80.004	19.995	100.692	20.318	-1.990	0.484
1142.000	646.179	80.004	19.995	100.691	20.315	-1.804	0.546
1144.000	647.138	80.004	19.996	100.689	20.319	-2.098	0.492
1146.000	648.141	80.003	19.995	100.690	20.321	-2.229	0.494
1148.001	649.179	80.003	19.996	100.690	20.317	-1.933	0.518
1150.000	650.227	80.002	19.997	100.690	20.322	-2.248	0.488
1152.001	651.245	80.002	19.996	100.694	20.318	-2.030	0.505
1154.001	652.240	80.001	19.996	100.686	20.316	-1.889	0.469
1156.000	653.255	80.000	19.996	100.697	20.321	-2.191	0.498
1158.001	654.305	80.002	19.996	100.695	20.319	-2.043	0.507
1160.001	655.329	80.001	19.995	100.692	20.318	-1.995	0.489
1162.000	656.304	80.001	19.995	100.691	20.319	-2.078	0.476
1164.000	657.347	80.002	19.995	100.700	20.318	-1.986	0.530
1166.000	658.352	80.003	19.997	100.694	20.321	-2.222	0.483
1168.000	659.368	80.003	19.997	100.689	20.321	-2.224	0.517
1170.001	660.372	80.003	19.996	100.690	20.316	-1.855	0.538
1172.000	661.386	80.003	19.996	100.689	20.316	-1.850	0.518
1174.001	662.383	80.003	19.997	100.687	20.317	-1.940	0.513
1176.000	663.400	80.002	19.995	100.687	20.320	-2.156	0.509
1178.001	664.400	80.001	19.998	100.690	20.319	-2.089	0.499
1180.001	665.447	80.002	19.997	100.688	20.318	-2.017	0.537
1182.001	666.422	80.001	19.997	100.688	20.314	-1.717	0.495
1184.000	667.434	80.001	19.997	100.695	20.317	-1.912	0.486
1186.000	668.429	80.002	19.997	100.693	20.315	-1.833	0.484
1188.000	669.491	80.002	19.997	100.697	20.318	-1.997	0.544
1190.000	670.461	80.003	19.996	100.691	20.316	-1.857	0.507
1192.000	671.485	80.003	19.996	100.690	20.318	-2.008	0.504
1194.000	672.481	80.005	19.995	100.686	20.320	-2.146	0.519
1196.000	673.499	80.004	19.995	100.687	20.320	-2.137	0.522
1198.000	674.503	80.005	19.996	100.687	20.320	-2.159	0.526
1200.000	675.540	80.004	19.996	100.694	20.317	-1.949	0.487
1202.000	676.547	80.003	19.994	100.692	20.320	-2.137	0.508
1204.000	677.598	80.003	19.994	100.695	20.321	-2.211	0.504
1206.000	678.622	80.002	19.996	100.690	20.317	-1.914	0.534
1208.000	679.651	80.004	19.996	100.691	20.318	-2.021	0.527
1210.000	680.620	80.003	19.995	100.690	20.318	-2.032	0.507
1212.000	681.591	80.004	19.995	100.699	20.314	-1.706	0.487
1214.001	682.582	80.003	19.996	100.696	20.316	-1.881	0.478
1216.000	683.618	80.005	19.995	100.695	20.317	-1.960	0.514
1218.000	684.581	80.003	19.994	100.697	20.313	-1.669	0.479
1220.000	685.586	80.003	19.994	100.695	20.322	-2.277	0.481
1222.000	686.608	80.007	19.993	100.694	20.319	-2.095	0.507
1224.000	687.581	80.005	19.995	100.697	20.319	-2.076	0.486
1226.000	688.561	80.005	19.994	100.692	20.317	-1.957	0.489
1228.000	689.545	80.005	19.995	100.690	20.315	-1.793	0.494
1230.000	690.541	80.002	19.994	100.691	20.314	-1.724	0.453
1232.000	691.545	80.004	19.995	100.688	20.312	-1.586	0.482
1234.000	692.573	80.002	19.995	100.687	20.313	-1.656	0.537
1236.000	693.574	80.004	19.997	100.688	20.313	-1.704	0.504
1238.000	694.579	80.003	19.996	100.688	20.311	-1.559	0.526
1240.000	695.611	80.003	19.996	100.690	20.313	-1.676	0.511
1242.001	696.566	80.003	19.997	100.689	20.311	-1.516	0.493
1244.001	697.618	80.002	19.996	100.687	20.314	-1.734	0.527
1246.001	698.613	80.002	19.996	100.687	20.313	-1.671	0.504
1248.000	699.632	80.002	19.996	100.689	20.314	-1.752	0.486
1250.001	700.656	80.002	19.996	100.692	20.314	-1.719	0.493
1252.000	701.620	80.003	19.996	100.685	20.315	-1.785	0.483
1254.000	702.659	80.002	19.996	100.693	20.312	-1.634	0.499
1256.000	703.669	80.002	19.995	100.689	20.311	-1.561	0.500
1258.000	704.687	80.001	19.996	100.690	20.313	-1.662	0.520
1260.000	705.694	80.002	19.996	100.688	20.310	-1.498	0.494
1262.001	706.701	80.001	19.995	100.691	20.312	-1.579	0.503
1264.000	707.711	80.002	19.997	100.698	20.313	-1.664	0.467
1266.001	708.730	80.000	19.997	100.694	20.312	-1.621	0.505
1268.000	709.719	80.002	19.997	100.698	20.315	-1.807	0.520
1270.000	710.721	80.002	19.997	100.689	20.312	-1.633	0.505
1272.000	711.737	80.002	19.997	100.688	20.312	-1.572	0.489
1274.000	712.755	80.003	19.997	100.693	20.312	-1.616	0.521
1276.000	713.735	80.003	19.998	100.689	20.314	-1.745	0.511
1278.000	714.756	80.002	19.997	100.689	20.311	-1.527	0.495
1280.000	715.776	80.003	19.996	100.696	20.311	-1.555	0.484
1282.001	716.774	80.004	19.996	100.700	20.315	-1.789	0.478
1284.000	717.745	80.004	19.995	100.700	20.314	-1.756	0.498
1286.000	718.705	80.003	19.995	100.701	20.319	-2.097	0.479
1288.000	719.686	80.003	19.995	100.693	20.319	-2.063	0.497
1290.000	720.647	80.003	19.996	100.695	20.311	-1.520	0.467
1292.000	721.590	80.004	19.994	100.696	20.313	-1.669	0.487
1294.000	722.578	80.005	19.996	100.693	20.315	-1.781	0.495
1296.000	723.576	80.005	19.995	100.693	20.309	-1.432	0.488
1298.001	724.535	80.005	19.996	100.690	20.317	-1.922	0.493
1300.001	725.489	80.005	19.995	100.696	20.314	-1.750	0.479
1302.001	726.474	80.005	19.996	100.692	20.313	-1.660	0.473
1304.001	727.408	80.005	19.995	100.686	20.313	-1.686	0.436
1306.000	728.349	80.005	19.994	100.690	20.310	-1.500	0.455
1308.000	729.342	80.004	19.996	100.695	20.311	-1.546	0.479
1310.000	730.270	80.003	19.995	100.694	20.310	-1.500	0.435
1312.000	731.278	80.002	19.996	100.704	20.312	-1.607	0.497
1314.000	732.238	80.004	19.996	100.689	20.313	-1.695	0.477
1316.001	733.179	80.003	19.996	100.691	20.310	-1.491	0.483
1318.001	734.146	80.003	19.996	100.688	20.310	-1.501	0.500
1320.001	735.122	80.003	19.996	100.687	20.313	-1.640	0.501
1322.000	736.088	80.003	19.996	100.688	20.313	-1.684	0.469
1324.000	737.004	80.003	19.996	100.690	20.314	-1.737	0.469
1326.000	738.038	80.002	19.995	100.696	20.315	-1.772	0.486
1328.000	739.015	80.003	19.996	100.694	20.309	-1.430	0.511
1330.000	739.980	80.003	19.996	100.689	20.310	-1.472	0.464
1332.000	740.981	80.003	19.996	100.697	20.313	-1.693	0.502
1334.000	741.998	80.001	19.996	100.703	20.313	-1.649	0.502
1336.001	742.948	80.002	19.996	100.695	20.315	-1.811	0.484
1337.000	743.458	80.002	19.998	100.694	20.313	-1.651	0.491