File: 01_Data/Corian_Countertop/MCC/Corian_Countertop_30K_min_210930_R2.txt
Sample ID:	C:\MCC\MCC Cal\Test\Corian_Countertop_30K_min_210930_R2.txt
Sample Weight (mg):	4.78
Heating Rate (C/s):	0.5
Combustor Temp (C):	900
N2 Flow Rate (cc/min):	80
O2 Flow Rate (cc/min):	20
Calibration File:	C:\MCC\MCC Cal\Coeff1 JN10440_30_210304.txt.txt
T Correction Coefficients:	0	1.024463	0
Time Shift (s):	14
*
Time (s)	Temperature (C)	N2 flow rate (cc/min)	O2 flow rate (cc/min)	Flow Rate (cc/min)	Oxygen (%)	HRR (W/g)	Heating rate (C/s)
-0.001	106.174	80.001	19.995	100.569	20.339	0.070	-0.013
2.000	106.112	80.001	19.994	100.574	20.339	0.034	0.002
3.999	106.172	80.003	19.998	100.575	20.343	-0.200	0.039
5.999	106.177	80.002	19.996	100.569	20.340	0.005	0.021
7.999	106.153	80.002	19.996	100.569	20.339	0.052	-0.003
9.999	106.160	80.004	19.996	100.571	20.338	0.117	0.009
11.999	106.190	80.002	19.996	100.571	20.339	0.045	0.010
13.999	106.176	80.003	19.996	100.574	20.337	0.179	-0.003
15.999	106.194	80.001	19.995	100.589	20.335	0.316	-0.000
17.999	106.199	80.000	19.996	100.611	20.331	0.559	-0.000
19.999	106.178	80.000	19.995	100.623	20.332	0.483	0.002
21.999	106.242	80.000	19.996	100.636	20.332	0.521	0.015
23.999	106.271	80.001	19.996	100.666	20.326	0.920	0.021
25.999	106.347	80.001	19.995	100.678	20.327	0.828	0.042
27.999	106.415	79.999	19.995	100.678	20.324	1.005	0.014
30.000	106.543	79.999	19.996	100.690	20.321	1.255	0.080
32.000	106.648	80.001	19.996	100.688	20.318	1.441	0.070
34.000	106.785	79.999	19.996	100.698	20.317	1.484	0.098
35.999	106.940	80.001	19.996	100.690	20.314	1.691	0.078
37.999	107.115	80.001	19.997	100.687	20.318	1.398	0.050
39.999	107.304	80.000	19.997	100.695	20.319	1.385	0.099
42.000	107.565	80.000	19.996	100.690	20.315	1.640	0.142
43.999	107.761	80.001	19.997	100.709	20.314	1.657	0.113
45.999	107.991	80.000	19.997	100.708	20.316	1.586	0.115
48.000	108.226	80.001	19.996	100.722	20.313	1.737	0.112
49.999	108.483	80.000	19.996	100.726	20.309	2.003	0.125
51.999	108.848	80.002	19.996	100.739	20.305	2.247	0.163
54.000	109.139	80.000	19.995	100.755	20.305	2.279	0.145
55.999	109.447	80.002	19.996	100.764	20.305	2.301	0.144
57.999	109.812	80.001	19.995	100.765	20.306	2.233	0.168
59.999	110.228	80.002	19.995	100.766	20.303	2.408	0.184
61.999	110.625	80.001	19.996	100.771	20.303	2.441	0.193
63.999	111.015	80.003	19.996	100.768	20.305	2.253	0.209
65.999	111.432	80.002	19.997	100.770	20.300	2.633	0.199
67.999	111.915	80.002	19.996	100.782	20.300	2.613	0.230
69.999	112.365	80.003	19.996	100.776	20.300	2.626	0.241
71.999	112.855	80.001	19.995	100.786	20.295	2.937	0.251
73.999	113.361	80.002	19.995	100.800	20.295	2.932	0.252
75.999	113.912	80.001	19.996	100.805	20.298	2.755	0.271
78.000	114.487	80.003	19.997	100.806	20.294	2.984	0.309
79.999	115.009	80.002	19.995	100.807	20.299	2.685	0.256
81.999	115.589	80.001	19.995	100.805	20.294	3.013	0.297
83.999	116.190	80.002	19.996	100.810	20.296	2.889	0.299
85.999	116.796	80.003	19.995	100.834	20.295	2.917	0.305
87.999	117.458	80.003	19.994	100.844	20.296	2.886	0.338
89.999	118.127	80.003	19.995	100.843	20.287	3.443	0.347
91.999	118.781	80.004	19.994	100.840	20.287	3.432	0.333
93.999	119.503	80.003	19.994	100.846	20.288	3.414	0.365
95.999	120.245	80.003	19.995	100.845	20.288	3.393	0.369
97.999	120.952	80.003	19.995	100.844	20.291	3.200	0.367
100.000	121.739	80.003	19.995	100.840	20.285	3.585	0.383
101.999	122.463	80.002	19.996	100.829	20.287	3.442	0.362
104.000	123.283	80.001	19.996	100.823	20.286	3.523	0.394
105.999	124.032	80.001	19.996	100.839	20.284	3.639	0.383
107.999	124.807	80.002	19.996	100.835	20.287	3.438	0.368
109.999	125.685	80.002	19.997	100.835	20.286	3.536	0.426
111.999	126.490	80.001	19.997	100.848	20.287	3.469	0.423
113.999	127.346	80.001	19.997	100.841	20.287	3.479	0.399
115.999	128.153	80.001	19.995	100.841	20.284	3.690	0.426
117.999	129.042	80.001	19.996	100.841	20.284	3.659	0.414
120.000	129.902	80.003	19.997	100.841	20.285	3.615	0.451
121.999	130.781	80.002	19.997	100.843	20.284	3.689	0.453
124.000	131.644	80.002	19.996	100.840	20.284	3.688	0.440
125.999	132.532	80.001	19.996	100.842	20.286	3.557	0.438
127.999	133.448	80.001	19.996	100.844	20.284	3.632	0.442
130.000	134.328	80.001	19.997	100.842	20.285	3.592	0.448
132.000	135.196	80.000	19.996	100.839	20.282	3.796	0.439
134.000	136.156	80.001	19.997	100.839	20.282	3.765	0.457
136.000	137.090	80.001	19.997	100.843	20.284	3.690	0.482
138.000	138.018	79.999	19.997	100.842	20.280	3.899	0.433
140.000	138.978	80.000	19.997	100.842	20.282	3.823	0.483
142.000	139.940	79.999	19.997	100.839	20.281	3.858	0.475
144.000	140.868	80.000	19.996	100.836	20.279	4.005	0.456
146.000	141.839	79.999	19.996	100.829	20.280	3.945	0.479
148.000	142.739	80.001	19.996	100.821	20.278	4.054	0.445
150.000	143.757	80.002	19.996	100.840	20.278	4.059	0.490
152.000	144.694	80.002	19.995	100.840	20.276	4.180	0.465
154.000	145.687	80.001	19.993	100.842	20.273	4.357	0.487
156.000	146.689	80.003	19.996	100.845	20.275	4.276	0.506
158.000	147.617	80.002	19.995	100.845	20.272	4.435	0.480
160.000	148.585	80.002	19.996	100.847	20.272	4.482	0.472
162.000	149.566	80.001	19.996	100.842	20.273	4.368	0.495
164.000	150.545	80.002	19.996	100.819	20.269	4.667	0.469
166.000	151.532	80.002	19.995	100.830	20.269	4.640	0.508
168.000	152.483	80.003	19.996	100.829	20.268	4.732	0.500
170.000	153.494	80.002	19.996	100.834	20.265	4.905	0.518
172.000	154.446	80.003	19.995	100.837	20.266	4.869	0.459
174.000	155.426	80.004	19.996	100.839	20.262	5.130	0.501
176.000	156.457	80.004	19.994	100.841	20.265	4.901	0.492
178.000	157.369	80.004	19.994	100.836	20.264	4.954	0.441
180.000	158.406	80.004	19.995	100.834	20.257	5.453	0.487
182.000	159.389	80.003	19.997	100.817	20.253	5.712	0.489
184.000	160.365	80.003	19.995	100.826	20.255	5.590	0.483
186.000	161.370	80.002	19.993	100.812	20.253	5.727	0.517
188.000	162.333	80.002	19.994	100.817	20.254	5.605	0.458
190.000	163.361	80.001	19.995	100.812	20.248	6.004	0.518
192.000	164.353	80.001	19.995	100.821	20.250	5.920	0.485
194.000	165.339	80.001	19.995	100.821	20.249	5.978	0.496
196.000	166.345	80.002	19.997	100.826	20.243	6.385	0.507
198.000	167.316	80.000	19.995	100.815	20.242	6.456	0.466
200.000	168.313	80.001	19.995	100.819	20.241	6.483	0.494
202.000	169.299	80.000	19.996	100.820	20.240	6.581	0.506
204.000	170.299	80.001	19.994	100.820	20.238	6.718	0.496
206.000	171.303	80.001	19.997	100.818	20.238	6.694	0.468
208.000	172.292	80.001	19.996	100.825	20.237	6.747	0.482
210.000	173.269	80.001	19.997	100.820	20.229	7.283	0.500
212.000	174.268	80.002	19.996	100.815	20.230	7.236	0.490
214.000	175.227	80.001	19.997	100.812	20.228	7.353	0.458
216.000	176.247	80.002	19.996	100.819	20.230	7.236	0.500
218.000	177.264	80.001	19.997	100.833	20.232	7.089	0.483
220.000	178.277	80.000	19.996	100.842	20.232	7.085	0.489
222.000	179.291	80.000	19.996	100.824	20.230	7.206	0.526
224.000	180.242	80.000	19.996	100.821	20.230	7.215	0.508
226.000	181.212	80.000	19.996	100.831	20.232	7.099	0.506
228.000	182.220	80.001	19.997	100.811	20.231	7.170	0.504
230.000	183.205	80.001	19.996	100.806	20.230	7.241	0.499
232.000	184.231	80.001	19.997	100.804	20.230	7.181	0.534
234.000	185.212	80.002	19.998	100.805	20.232	7.078	0.506
236.000	186.243	80.002	19.998	100.805	20.232	7.056	0.513
238.000	187.206	80.002	19.996	100.805	20.235	6.899	0.474
240.000	188.190	80.002	19.997	100.804	20.237	6.761	0.477
242.000	189.185	80.004	19.996	100.803	20.238	6.659	0.478
244.000	190.205	80.003	19.995	100.801	20.239	6.592	0.474
246.000	191.159	80.001	19.995	100.804	20.242	6.431	0.479
248.000	192.116	80.003	19.996	100.805	20.248	6.008	0.504
250.000	193.101	80.002	19.996	100.802	20.248	5.999	0.508
252.000	194.098	80.003	19.994	100.803	20.251	5.813	0.490
254.000	195.037	80.004	19.995	100.798	20.249	5.979	0.450
256.000	196.051	80.003	19.995	100.800	20.256	5.523	0.524
258.000	196.994	80.003	19.996	100.800	20.255	5.567	0.476
260.000	198.023	80.003	19.996	100.801	20.257	5.420	0.544
262.000	199.003	80.003	19.996	100.802	20.257	5.446	0.502
264.000	199.960	80.003	19.995	100.802	20.259	5.282	0.492
266.000	200.931	80.003	19.996	100.795	20.264	4.968	0.460
268.000	201.913	80.001	19.995	100.803	20.264	4.955	0.499
270.000	202.887	80.000	19.995	100.805	20.267	4.789	0.507
272.000	203.919	80.000	19.994	100.811	20.270	4.586	0.492
274.000	204.848	80.001	19.996	100.805	20.268	4.743	0.501
276.000	205.856	80.001	19.995	100.802	20.268	4.718	0.484
278.000	206.829	80.002	19.995	100.803	20.269	4.649	0.467
280.000	207.875	80.001	19.995	100.805	20.273	4.410	0.506
282.000	208.909	80.002	19.996	100.808	20.270	4.600	0.529
284.000	209.878	80.002	19.996	100.806	20.272	4.421	0.525
286.000	210.851	80.002	19.996	100.794	20.274	4.341	0.492
288.000	211.797	80.004	19.995	100.804	20.273	4.387	0.478
290.000	212.832	80.001	19.996	100.801	20.269	4.623	0.507
292.000	213.825	80.001	19.996	100.799	20.272	4.452	0.504
294.000	214.823	80.001	19.997	100.798	20.269	4.662	0.500
296.000	215.826	80.001	19.995	100.789	20.271	4.544	0.495
298.000	216.785	80.003	19.996	100.801	20.269	4.649	0.480
300.000	217.819	80.002	19.996	100.800	20.271	4.546	0.518
302.000	218.785	80.001	19.996	100.798	20.273	4.352	0.463
304.000	219.735	80.002	19.996	100.802	20.270	4.589	0.464
306.000	220.779	80.000	19.996	100.803	20.269	4.667	0.491
308.000	221.722	80.001	19.995	100.803	20.265	4.897	0.465
310.000	222.733	80.002	19.996	100.801	20.269	4.633	0.493
312.000	223.717	80.002	19.995	100.799	20.269	4.674	0.506
314.000	224.730	80.004	19.996	100.800	20.271	4.547	0.496
316.000	225.737	80.003	19.996	100.803	20.270	4.609	0.538
318.000	226.715	80.004	19.998	100.798	20.264	5.004	0.486
320.000	227.703	80.002	19.996	100.802	20.267	4.770	0.495
322.000	228.687	80.003	19.996	100.800	20.269	4.678	0.506
324.000	229.701	80.002	19.997	100.783	20.265	4.939	0.503
326.000	230.685	80.002	19.997	100.792	20.266	4.814	0.498
328.000	231.635	80.002	19.996	100.802	20.268	4.745	0.457
330.000	232.573	80.002	19.996	100.804	20.265	4.897	0.469
332.000	233.556	80.002	19.994	100.805	20.268	4.737	0.494
334.000	234.556	80.002	19.995	100.805	20.263	5.050	0.508
336.000	235.527	80.003	19.996	100.807	20.263	5.062	0.492
338.000	236.449	80.004	19.996	100.807	20.265	4.932	0.459
340.000	237.439	80.003	19.996	100.810	20.264	4.961	0.487
342.000	238.423	80.004	19.995	100.814	20.261	5.167	0.518
344.000	239.390	80.003	19.996	100.829	20.262	5.084	0.487
346.000	240.325	80.003	19.994	100.823	20.261	5.158	0.470
348.000	241.314	80.003	19.995	100.811	20.259	5.312	0.496
350.000	242.295	80.002	19.994	100.816	20.261	5.187	0.515
352.000	243.315	80.002	19.995	100.820	20.256	5.504	0.531
354.000	244.227	80.001	19.996	100.819	20.259	5.319	0.455
356.000	245.227	80.001	19.995	100.817	20.257	5.458	0.487
358.000	246.228	80.001	19.997	100.810	20.255	5.564	0.528
360.000	247.152	80.001	19.996	100.810	20.256	5.530	0.481
362.000	248.122	80.001	19.996	100.815	20.255	5.599	0.454
364.000	249.139	80.002	19.997	100.818	20.254	5.628	0.481
366.000	250.144	80.003	19.996	100.820	20.247	6.123	0.508
368.000	251.137	80.003	19.995	100.831	20.247	6.108	0.494
370.000	252.074	80.002	19.996	100.833	20.244	6.320	0.470
372.000	253.093	80.004	19.996	100.836	20.245	6.212	0.474
374.000	254.048	80.002	19.994	100.826	20.241	6.515	0.454
376.000	255.039	80.003	19.995	100.844	20.239	6.630	0.475
378.000	256.043	80.002	19.995	100.842	20.237	6.745	0.522
380.000	256.978	80.003	19.996	100.840	20.235	6.876	0.468
382.000	258.009	80.001	19.997	100.834	20.233	7.039	0.492
384.000	258.956	80.000	19.996	100.832	20.230	7.209	0.485
386.000	259.990	80.001	19.998	100.844	20.226	7.458	0.472
388.000	260.975	80.001	19.997	100.840	20.222	7.746	0.506
390.000	261.946	80.002	19.997	100.842	20.220	7.862	0.494
392.000	262.938	80.002	19.996	100.840	20.214	8.279	0.470
394.000	263.968	80.002	19.996	100.841	20.211	8.475	0.482
396.000	264.963	80.003	19.997	100.836	20.203	8.984	0.482
398.000	265.963	80.003	19.997	100.832	20.200	9.194	0.524
400.000	266.939	80.002	19.997	100.829	20.196	9.429	0.462
402.000	267.985	80.004	19.995	100.839	20.184	10.257	0.526
404.000	268.940	80.003	19.997	100.834	20.179	10.557	0.491
406.000	269.968	80.002	19.997	100.822	20.169	11.225	0.521
408.000	271.011	80.000	19.998	100.836	20.160	11.816	0.560
410.000	271.978	80.002	19.997	100.824	20.148	12.616	0.514
412.000	273.013	80.003	19.996	100.813	20.143	12.913	0.503
414.000	273.963	80.000	19.996	100.817	20.129	13.821	0.462
416.000	274.963	80.003	19.998	100.820	20.118	14.571	0.482
418.000	276.007	80.002	19.996	100.809	20.102	15.621	0.509
420.000	276.993	80.002	19.996	100.804	20.091	16.369	0.521
422.000	277.872	80.001	19.996	100.782	20.079	17.114	0.583
424.000	278.735	80.002	19.997	100.767	20.059	18.419	0.274
426.000	279.951	80.003	19.997	100.765	20.042	19.575	0.618
428.000	280.997	80.003	19.996	100.750	20.030	20.322	0.443
430.000	281.956	80.003	19.996	100.726	20.013	21.474	0.472
432.000	283.008	80.003	19.995	100.719	19.996	22.591	0.517
434.000	284.045	80.000	19.996	100.697	19.976	23.904	0.526
436.000	285.042	80.001	19.994	100.668	19.954	25.338	0.480
438.000	286.075	80.002	19.996	100.650	19.934	26.623	0.464
440.000	287.109	80.001	19.995	100.647	19.914	27.991	0.526
442.000	288.165	80.001	19.996	100.622	19.895	29.250	0.534
444.000	289.236	80.003	19.996	100.612	19.875	30.555	0.516
446.000	290.263	80.000	19.996	100.613	19.857	31.699	0.532
448.000	291.375	80.001	19.997	100.629	19.837	33.022	0.568
450.000	292.427	80.002	19.997	100.652	19.827	33.720	0.537
452.000	293.503	80.000	19.995	100.677	19.819	34.250	0.530
454.000	294.618	80.002	19.995	100.698	19.811	34.741	0.552
456.000	295.669	80.001	19.997	100.719	19.807	35.040	0.561
458.000	296.670	80.000	19.997	100.727	19.809	34.884	0.499
460.000	297.750	80.002	19.996	100.730	19.823	33.947	0.517
462.000	298.833	80.002	19.996	100.740	19.829	33.550	0.519
464.000	299.927	80.000	19.996	100.750	19.846	32.457	0.549
466.000	300.992	80.002	19.996	100.751	19.864	31.261	0.534
468.000	302.045	80.000	19.997	100.747	19.881	30.182	0.539
470.000	303.057	80.000	19.994	100.740	19.901	28.842	0.521
472.000	304.077	80.001	19.996	100.740	19.926	27.209	0.534
474.000	305.160	80.001	19.995	100.740	19.939	26.340	0.533
476.000	306.188	80.000	19.995	100.736	19.968	24.426	0.508
478.000	307.198	80.002	19.995	100.735	19.984	23.406	0.499
480.000	308.255	80.003	19.995	100.739	20.007	21.899	0.540
482.000	309.249	80.002	19.995	100.741	20.025	20.684	0.512
484.000	310.269	80.003	19.997	100.735	20.042	19.602	0.543
486.000	311.298	80.004	19.995	100.742	20.050	19.036	0.508
488.000	312.338	79.999	19.997	100.742	20.065	18.063	0.519
490.000	313.351	80.002	19.996	100.744	20.076	17.309	0.529
492.000	314.362	80.003	19.997	100.753	20.088	16.547	0.499
494.000	315.369	80.003	19.996	100.751	20.091	16.329	0.494
496.000	316.369	80.002	19.997	100.754	20.101	15.692	0.492
498.000	317.358	80.002	19.996	100.743	20.100	15.757	0.510
500.000	318.344	80.002	19.995	100.749	20.106	15.387	0.491
502.000	319.353	80.003	19.996	100.762	20.104	15.515	0.478
504.000	320.344	80.003	19.996	100.763	20.105	15.450	0.525
506.000	321.388	80.013	19.998	100.759	20.105	15.443	0.487
508.000	322.393	80.023	20.003	100.761	20.102	15.608	0.501
510.000	323.381	80.004	19.999	100.760	20.102	15.626	0.494
512.000	324.334	80.003	19.997	100.762	20.099	15.800	0.504
514.000	325.359	80.001	19.998	100.764	20.094	16.178	0.525
516.000	326.339	80.001	19.997	100.754	20.093	16.230	0.507
518.000	327.317	80.001	19.998	100.762	20.086	16.657	0.498
520.000	328.339	80.001	19.998	100.762	20.083	16.878	0.523
522.000	329.330	80.003	19.997	100.763	20.078	17.207	0.510
524.000	330.268	80.002	19.996	100.754	20.071	17.689	0.488
526.000	331.318	80.003	19.996	100.760	20.068	17.852	0.529
528.000	332.247	80.002	19.997	100.766	20.063	18.174	0.479
530.000	333.283	80.001	19.996	100.767	20.055	18.718	0.551
532.000	334.263	80.002	19.996	100.765	20.050	19.082	0.498
534.000	335.253	80.003	19.996	100.765	20.043	19.514	0.501
536.000	336.246	80.002	19.997	100.769	20.039	19.793	0.501
538.000	337.224	80.002	19.997	100.769	20.031	20.305	0.456
540.000	338.210	80.002	19.997	100.768	20.025	20.676	0.514
542.000	339.204	80.003	19.996	100.769	20.015	21.325	0.487
544.000	340.217	80.003	19.996	100.769	20.012	21.534	0.505
546.000	341.219	80.001	19.996	100.769	20.002	22.231	0.493
548.000	342.207	80.005	19.995	100.769	19.995	22.669	0.503
550.000	343.148	80.001	19.997	100.769	19.986	23.266	0.470
552.000	344.108	79.999	19.997	100.770	19.981	23.592	0.486
554.000	345.113	80.000	19.996	100.770	19.973	24.099	0.496
556.000	346.054	80.001	19.996	100.774	19.968	24.462	0.473
558.000	347.030	80.001	19.998	100.773	19.960	24.967	0.496
560.000	347.997	80.001	19.994	100.768	19.952	25.500	0.488
562.000	348.971	80.001	19.994	100.768	19.945	25.983	0.476
564.000	349.982	80.002	19.996	100.771	19.936	26.535	0.480
566.000	350.961	80.003	19.997	100.773	19.928	27.102	0.469
568.000	351.958	80.004	19.995	100.781	19.919	27.647	0.496
570.000	352.966	80.004	19.996	100.785	19.912	28.107	0.505
572.000	353.967	80.003	19.996	100.784	19.900	28.926	0.486
574.000	354.959	80.000	19.995	100.772	19.888	29.734	0.507
576.000	355.942	80.001	19.996	100.767	19.879	30.297	0.465
578.000	356.975	80.001	19.997	100.772	19.870	30.876	0.498
580.000	357.942	80.000	19.998	100.790	19.859	31.611	0.502
582.000	358.930	80.004	19.996	100.785	19.853	31.981	0.482
584.000	359.943	80.003	19.998	100.770	19.843	32.658	0.505
586.000	360.912	80.003	19.996	100.788	19.830	33.497	0.504
588.000	361.872	80.005	19.996	100.781	19.827	33.730	0.496
590.000	362.879	80.005	19.997	100.778	19.812	34.744	0.465
592.000	363.870	80.004	19.995	100.789	19.807	35.010	0.509
594.000	364.865	80.005	19.996	100.779	19.793	35.964	0.473
596.000	365.883	80.003	19.996	100.779	19.786	36.408	0.510
598.000	366.903	80.001	19.994	100.792	19.774	37.239	0.507
600.000	367.870	80.002	19.998	100.788	19.763	37.950	0.496
602.000	368.851	80.000	19.996	100.800	19.755	38.471	0.476
604.000	369.864	80.000	19.997	100.802	19.749	38.875	0.487
606.000	370.871	80.001	19.996	100.805	19.738	39.558	0.510
608.000	371.888	80.000	19.996	100.799	19.731	40.071	0.505
610.000	372.913	79.999	19.998	100.804	19.719	40.810	0.503
612.000	373.888	80.001	19.996	100.805	19.718	40.906	0.490
614.000	374.892	80.002	19.997	100.804	19.707	41.646	0.512
616.000	375.863	80.003	19.996	100.788	19.704	41.807	0.491
618.000	376.905	80.005	19.996	100.792	19.696	42.324	0.513
620.000	377.896	80.004	19.995	100.807	19.693	42.510	0.497
622.000	378.882	80.001	19.996	100.800	19.688	42.832	0.488
624.000	379.912	80.004	19.996	100.794	19.685	43.072	0.488
626.000	380.922	80.004	19.996	100.787	19.684	43.115	0.490
628.000	381.908	80.002	19.995	100.784	19.687	42.905	0.491
630.000	382.900	80.001	19.996	100.769	19.684	43.151	0.518
632.000	383.874	80.002	19.996	100.775	19.681	43.326	0.477
634.000	384.880	80.003	19.996	100.777	19.690	42.740	0.497
636.000	385.853	80.002	19.996	100.784	19.688	42.843	0.476
638.000	386.862	80.002	19.997	100.781	19.691	42.683	0.523
640.000	387.843	80.003	19.997	100.774	19.696	42.333	0.489
642.000	388.858	80.003	19.998	100.768	19.692	42.582	0.508
644.000	389.800	80.004	19.995	100.772	19.704	41.786	0.502
646.000	390.786	80.003	19.997	100.772	19.710	41.384	0.508
648.000	391.825	80.003	19.997	100.763	19.718	40.887	0.508
650.000	392.793	80.005	19.996	100.765	19.724	40.494	0.509
652.000	393.794	80.006	19.995	100.764	19.737	39.610	0.524
654.000	394.780	80.005	19.996	100.763	19.746	39.053	0.503
656.000	395.771	80.005	19.996	100.760	19.762	37.993	0.487
658.000	396.754	80.003	19.995	100.764	19.771	37.374	0.494
660.000	397.787	80.005	19.996	100.767	19.785	36.449	0.520
662.000	398.735	80.003	19.996	100.766	19.797	35.666	0.466
664.000	399.749	80.003	19.996	100.769	19.809	34.894	0.478
666.000	400.727	80.005	19.995	100.767	19.822	34.013	0.495
668.000	401.705	80.002	19.995	100.765	19.843	32.651	0.467
670.000	402.722	80.004	19.996	100.759	19.856	31.804	0.489
672.000	403.726	80.004	19.996	100.756	19.875	30.534	0.511
674.000	404.713	80.002	19.996	100.734	19.892	29.416	0.494
676.000	405.691	80.003	19.996	100.741	19.910	28.283	0.508
678.000	406.692	80.002	19.997	100.761	19.925	27.256	0.523
680.000	407.706	80.004	19.995	100.753	19.940	26.256	0.523
682.000	408.774	80.002	19.995	100.758	19.962	24.855	0.525
684.000	409.804	80.004	19.996	100.765	19.974	24.031	0.525
686.000	410.888	80.000	19.996	100.756	19.986	23.269	0.531
688.000	411.953	80.002	19.996	100.764	20.005	22.021	0.552
690.000	413.056	80.002	19.995	100.763	20.019	21.056	0.550
692.000	414.143	80.003	19.996	100.743	20.034	20.073	0.548
694.000	415.192	79.999	19.997	100.736	20.050	19.060	0.559
696.000	416.356	80.002	19.997	100.739	20.066	17.982	0.569
698.000	417.439	80.001	19.996	100.745	20.077	17.298	0.565
700.000	418.610	80.002	19.997	100.755	20.090	16.405	0.546
702.000	419.704	80.001	19.998	100.742	20.101	15.658	0.581
704.000	420.832	80.002	19.997	100.741	20.114	14.822	0.598
706.000	421.973	80.002	19.997	100.734	20.125	14.104	0.557
708.000	423.103	80.002	19.997	100.729	20.133	13.582	0.571
710.000	424.231	80.003	19.997	100.727	20.150	12.436	0.531
712.000	425.369	80.001	19.996	100.727	20.163	11.642	0.579
714.000	426.534	80.000	19.995	100.733	20.168	11.313	0.558
716.000	427.627	80.000	19.995	100.730	20.179	10.574	0.565
718.000	428.786	80.001	19.996	100.725	20.187	10.020	0.574
720.000	429.914	80.001	19.995	100.726	20.195	9.528	0.558
722.000	431.058	80.000	19.995	100.727	20.204	8.904	0.578
724.000	432.153	80.002	19.996	100.729	20.206	8.789	0.562
726.000	433.269	80.004	19.997	100.728	20.217	8.060	0.553
728.000	434.446	80.002	19.997	100.733	20.222	7.760	0.565
730.000	435.528	80.003	19.995	100.730	20.223	7.700	0.555
732.000	436.697	80.004	19.996	100.728	20.233	7.040	0.573
734.000	437.768	80.003	19.996	100.729	20.235	6.870	0.538
736.000	438.904	80.003	19.997	100.728	20.242	6.441	0.565
738.000	440.004	80.003	19.995	100.728	20.239	6.593	0.554
740.000	441.086	80.003	19.997	100.729	20.245	6.228	0.551
742.000	442.227	80.002	19.995	100.733	20.248	6.047	0.574
744.000	443.278	80.002	19.997	100.732	20.251	5.843	0.518
746.000	444.391	80.002	19.996	100.730	20.248	6.014	0.539
748.000	445.507	80.003	19.995	100.727	20.253	5.701	0.558
750.000	446.603	80.002	19.994	100.726	20.258	5.358	0.551
752.000	447.670	80.004	19.996	100.728	20.260	5.220	0.541
754.000	448.756	80.003	19.996	100.729	20.259	5.294	0.543
756.000	449.822	80.004	19.994	100.721	20.263	5.038	0.552
758.000	450.915	80.005	19.996	100.720	20.261	5.179	0.555
760.000	451.962	80.006	19.996	100.721	20.266	4.810	0.542
762.000	453.050	80.003	19.996	100.718	20.261	5.183	0.553
764.000	454.093	80.002	19.996	100.720	20.264	4.985	0.514
766.000	455.129	80.001	19.997	100.722	20.263	5.070	0.543
768.000	456.243	80.003	19.997	100.721	20.268	4.714	0.534
770.000	457.320	80.001	19.996	100.720	20.264	4.983	0.536
772.000	458.337	80.000	19.996	100.719	20.262	5.093	0.511
774.000	459.368	80.001	19.996	100.726	20.266	4.815	0.514
776.000	460.454	80.000	19.996	100.720	20.267	4.764	0.544
778.000	461.455	80.002	19.996	100.716	20.263	5.070	0.506
780.000	462.511	80.003	19.995	100.718	20.266	4.811	0.522
782.000	463.534	80.004	19.997	100.716	20.265	4.902	0.522
784.000	464.550	80.001	19.995	100.707	20.267	4.761	0.487
786.000	465.597	80.002	19.996	100.715	20.264	4.962	0.513
788.000	466.593	80.003	19.997	100.716	20.264	4.943	0.486
790.000	467.663	80.002	19.997	100.721	20.266	4.837	0.537
792.000	468.673	80.002	19.997	100.707	20.267	4.799	0.531
794.000	469.665	80.000	19.995	100.720	20.265	4.875	0.518
796.000	470.656	80.002	19.996	100.717	20.270	4.593	0.494
798.000	471.706	80.001	19.997	100.709	20.266	4.871	0.519
800.000	472.720	80.000	19.996	100.718	20.269	4.672	0.508
802.000	473.784	80.001	19.998	100.724	20.262	5.092	0.519
804.000	474.839	79.999	19.996	100.722	20.266	4.813	0.542
806.000	475.865	80.002	19.996	100.724	20.262	5.134	0.495
808.000	476.875	80.001	19.996	100.723	20.259	5.298	0.553
810.000	477.890	80.003	19.997	100.722	20.267	4.766	0.482
812.000	478.908	80.003	19.995	100.721	20.271	4.531	0.491
814.000	479.895	80.004	19.996	100.712	20.268	4.708	0.488
816.000	480.943	80.003	19.995	100.715	20.267	4.757	0.536
818.000	481.958	80.004	19.997	100.713	20.269	4.611	0.486
820.000	482.954	80.003	19.994	100.712	20.263	5.042	0.491
822.000	483.961	80.003	19.996	100.702	20.268	4.699	0.490
824.000	484.981	80.003	19.995	100.714	20.266	4.835	0.499
826.000	485.983	80.002	19.996	100.719	20.269	4.636	0.488
828.000	487.028	80.003	19.995	100.716	20.273	4.386	0.486
830.000	487.999	80.004	19.995	100.713	20.268	4.710	0.485
832.000	489.053	80.003	19.995	100.708	20.267	4.768	0.526
834.000	490.054	80.002	19.995	100.718	20.275	4.231	0.517
836.000	491.079	80.004	19.995	100.705	20.264	4.947	0.515
838.000	492.103	80.004	19.995	100.713	20.275	4.275	0.518
840.000	493.076	80.006	19.995	100.704	20.267	4.746	0.496
842.000	494.143	80.006	19.995	100.710	20.272	4.428	0.522
844.000	495.179	80.004	19.995	100.713	20.264	4.976	0.534
846.000	496.194	80.005	19.996	100.702	20.269	4.636	0.477
848.000	497.193	80.003	19.995	100.723	20.269	4.630	0.509
850.000	498.200	80.002	19.996	100.718	20.268	4.729	0.509
852.000	499.214	80.002	19.996	100.711	20.268	4.685	0.515
854.000	500.224	80.002	19.996	100.722	20.269	4.645	0.504
856.000	501.255	80.001	19.997	100.717	20.275	4.269	0.519
858.000	502.249	80.000	19.997	100.710	20.272	4.455	0.495
860.000	503.294	80.002	19.996	100.702	20.273	4.379	0.508
862.000	504.290	80.001	19.997	100.705	20.271	4.515	0.502
864.000	505.291	80.000	19.996	100.707	20.272	4.460	0.477
866.000	506.350	80.001	19.995	100.711	20.270	4.601	0.514
868.000	507.330	80.003	19.997	100.705	20.265	4.921	0.489
870.000	508.337	80.000	19.996	100.708	20.269	4.652	0.502
872.000	509.360	80.001	19.996	100.721	20.265	4.889	0.517
874.000	510.377	80.002	19.996	100.703	20.272	4.471	0.505
876.000	511.349	80.001	19.997	100.695	20.267	4.798	0.502
878.000	512.309	80.003	19.997	100.700	20.272	4.458	0.508
880.000	513.250	80.001	19.997	100.708	20.261	5.188	0.464
882.000	514.247	80.001	19.996	100.698	20.267	4.782	0.474
884.000	515.251	80.001	19.996	100.709	20.264	4.980	0.470
886.000	516.237	80.001	19.997	100.707	20.264	4.986	0.484
888.000	517.242	80.001	19.996	100.706	20.263	5.014	0.515
890.000	518.212	80.000	19.997	100.704	20.264	4.980	0.479
892.000	519.170	80.001	19.997	100.703	20.263	5.026	0.499
894.000	520.115	80.002	19.996	100.699	20.269	4.629	0.471
896.000	521.125	80.004	19.997	100.699	20.262	5.077	0.483
898.000	522.069	80.003	19.997	100.693	20.266	4.842	0.458
900.000	523.077	80.005	19.996	100.695	20.268	4.741	0.488
902.000	524.039	80.003	19.996	100.705	20.267	4.764	0.480
904.000	524.986	80.004	19.996	100.715	20.263	5.037	0.485
906.000	525.993	80.002	19.996	100.716	20.266	4.871	0.506
908.000	526.913	80.002	19.995	100.700	20.264	4.941	0.463
910.000	527.913	80.001	19.995	100.714	20.267	4.786	0.503
912.000	528.874	80.004	19.996	100.705	20.271	4.484	0.484
914.000	529.836	80.002	19.996	100.703	20.271	4.541	0.483
916.000	530.837	80.003	19.996	100.703	20.266	4.840	0.476
918.000	531.865	80.003	19.994	100.715	20.266	4.854	0.489
920.000	532.808	80.004	19.995	100.711	20.267	4.764	0.450
922.000	533.853	80.005	19.996	100.714	20.266	4.807	0.516
924.000	534.868	80.005	19.996	100.706	20.266	4.869	0.493
926.000	535.895	80.005	19.996	100.707	20.266	4.854	0.494
928.000	536.940	80.005	19.995	100.696	20.266	4.862	0.532
930.000	537.919	80.004	19.996	100.700	20.262	5.101	0.503
932.000	538.980	80.003	19.994	100.703	20.266	4.808	0.490
934.000	540.018	80.002	19.996	100.709	20.268	4.686	0.528
936.000	541.037	80.003	19.995	100.696	20.268	4.719	0.503
938.000	542.094	80.001	19.995	100.710	20.262	5.075	0.478
940.000	543.139	80.002	19.994	100.711	20.267	4.804	0.534
942.000	544.171	80.003	19.996	100.720	20.258	5.381	0.523
944.000	545.179	80.003	19.996	100.704	20.263	5.069	0.492
946.000	546.224	80.002	19.995	100.720	20.268	4.693	0.527
948.000	547.268	80.004	19.995	100.713	20.267	4.759	0.520
950.000	548.332	80.002	19.996	100.701	20.267	4.761	0.467
952.000	549.386	80.003	19.995	100.719	20.265	4.877	0.512
954.000	550.477	80.002	19.996	100.705	20.268	4.683	0.512
956.000	551.510	80.001	19.996	100.704	20.265	4.889	0.541
958.000	552.550	80.002	19.996	100.703	20.268	4.730	0.538
960.000	553.622	80.003	19.996	100.702	20.269	4.662	0.567
962.000	554.666	80.004	19.998	100.660	20.266	4.827	0.517
964.000	555.703	80.003	19.996	100.684	20.266	4.849	0.532
966.000	556.747	80.002	19.996	100.762	20.267	4.800	0.505
968.000	557.794	80.001	19.996	100.705	20.271	4.536	0.525
970.000	558.827	80.001	19.994	100.703	20.273	4.361	0.514
972.000	559.861	80.002	19.996	100.693	20.270	4.545	0.485
974.000	560.898	80.002	19.996	100.703	20.272	4.447	0.540
976.000	561.929	80.004	19.996	100.701	20.270	4.549	0.533
978.000	562.974	80.003	19.996	100.709	20.269	4.652	0.511
980.000	564.022	80.003	19.996	100.707	20.270	4.545	0.517
982.000	565.070	80.003	19.997	100.707	20.273	4.386	0.539
984.000	566.061	80.004	19.997	100.696	20.268	4.712	0.514
986.000	567.063	80.002	19.997	100.706	20.272	4.477	0.516
988.000	568.085	80.001	19.995	100.712	20.271	4.520	0.499
990.000	569.120	80.003	19.998	100.697	20.266	4.872	0.533
992.000	570.193	80.001	19.995	100.709	20.272	4.468	0.526
994.000	571.153	80.003	19.996	100.716	20.268	4.693	0.500
996.000	572.206	80.003	19.995	100.708	20.275	4.245	0.553
998.000	573.231	80.002	19.996	100.723	20.272	4.461	0.522
1000.000	574.298	80.003	19.995	100.706	20.269	4.675	0.539
1002.000	575.350	80.004	19.996	100.711	20.274	4.343	0.523
1004.000	576.351	80.005	19.996	100.716	20.274	4.310	0.504
1006.000	577.381	80.004	19.995	100.705	20.272	4.475	0.533
1008.000	578.350	80.004	19.994	100.701	20.276	4.180	0.471
1010.000	579.408	80.004	19.995	100.697	20.272	4.452	0.529
1012.000	580.419	80.003	19.994	100.710	20.270	4.590	0.491
1014.000	581.410	80.003	19.996	100.710	20.270	4.560	0.488
1016.000	582.451	80.002	19.996	100.711	20.272	4.417	0.516
1018.000	583.437	80.003	19.996	100.713	20.269	4.626	0.508
1020.000	584.474	80.001	19.996	100.716	20.271	4.530	0.518
1022.000	585.480	80.002	19.996	100.712	20.267	4.752	0.519
1024.000	586.490	80.002	19.995	100.709	20.270	4.569	0.504
1026.000	587.513	80.003	19.997	100.709	20.273	4.354	0.513
1027.999	588.511	80.002	19.996	100.711	20.277	4.118	0.480
1029.999	589.553	80.001	19.995	100.695	20.274	4.346	0.485
1032.000	590.518	80.001	19.995	100.708	20.273	4.375	0.484
1033.999	591.521	80.003	19.997	100.713	20.269	4.646	0.500
1035.999	592.566	80.003	19.996	100.717	20.270	4.581	0.502
1037.999	593.591	80.003	19.996	100.704	20.271	4.512	0.533
1039.999	594.625	80.003	19.997	100.698	20.268	4.718	0.523
1041.999	595.708	80.002	19.997	100.709	20.272	4.469	0.533
1043.999	596.688	80.003	19.996	100.694	20.271	4.514	0.477
1045.999	597.721	80.003	19.996	100.702	20.276	4.210	0.500
1047.999	598.737	80.002	19.996	100.697	20.273	4.356	0.530
1049.999	599.763	80.001	19.996	100.696	20.272	4.420	0.512
1051.999	600.769	80.002	19.998	100.706	20.269	4.621	0.510
1054.000	601.783	80.002	19.996	100.705	20.274	4.315	0.496
1055.999	602.796	80.002	19.995	100.700	20.272	4.461	0.508
1057.999	603.850	80.003	19.996	100.707	20.272	4.449	0.525
1059.999	604.892	80.003	19.996	100.703	20.273	4.395	0.519
1061.999	605.933	80.003	19.996	100.699	20.271	4.514	0.540
1064.001	606.923	80.004	19.996	100.697	20.275	4.254	0.500
1065.999	607.928	80.005	19.997	100.693	20.280	3.915	0.512
1067.999	608.961	80.004	19.995	100.702	20.275	4.255	0.491
1069.999	609.984	80.004	19.996	100.712	20.273	4.410	0.498
1071.999	610.972	80.003	19.996	100.708	20.275	4.259	0.506
1073.999	611.999	80.003	19.996	100.702	20.275	4.259	0.536
1075.999	613.016	80.004	19.997	100.694	20.276	4.194	0.484
1077.999	614.042	80.002	19.995	100.692	20.274	4.288	0.487
1079.999	615.064	80.003	19.998	100.705	20.276	4.214	0.513
1081.999	616.071	80.003	19.997	100.708	20.273	4.372	0.465
1084.000	617.054	80.003	19.996	100.696	20.271	4.499	0.496
1085.999	618.062	80.005	19.998	100.687	20.278	4.053	0.487
1087.999	619.071	80.004	19.996	100.695	20.272	4.452	0.487
1089.999	620.065	80.007	19.996	100.696	20.273	4.396	0.518
1091.999	621.037	80.006	19.995	100.690	20.272	4.432	0.507
1093.999	622.032	80.006	19.996	100.686	20.272	4.434	0.513
1096.000	622.989	80.005	19.995	100.694	20.269	4.631	0.497
1097.999	623.985	80.003	19.996	100.694	20.271	4.480	0.475
1100.000	624.973	80.002	19.995	100.691	20.273	4.366	0.487
1101.999	625.942	80.002	19.996	100.691	20.272	4.415	0.478
1103.999	626.905	80.003	19.995	100.689	20.270	4.570	0.467
1105.999	627.944	80.002	19.996	100.691	20.272	4.436	0.511
1108.000	628.916	80.002	19.996	100.696	20.274	4.326	0.503
1109.999	629.950	80.002	19.997	100.694	20.270	4.565	0.510
1111.999	630.939	80.001	19.996	100.708	20.272	4.415	0.508
1113.999	631.990	80.003	19.996	100.693	20.270	4.592	0.504
1116.000	632.992	80.004	19.996	100.688	20.270	4.566	0.501
1117.999	634.022	80.002	19.996	100.699	20.271	4.535	0.513
1119.999	635.071	80.003	19.996	100.693	20.274	4.335	0.491
1122.000	636.119	80.002	19.995	100.696	20.273	4.375	0.535
1124.000	637.111	80.003	19.996	100.699	20.268	4.682	0.498
1125.999	638.139	80.004	19.997	100.695	20.274	4.284	0.505
1128.000	639.207	80.004	19.996	100.690	20.272	4.431	0.513
1130.000	640.205	80.002	19.996	100.690	20.271	4.521	0.524
1131.999	641.261	80.002	19.996	100.691	20.270	4.575	0.505
1133.999	642.279	80.003	19.997	100.694	20.267	4.767	0.515
1135.999	643.267	80.002	19.995	100.691	20.269	4.620	0.473
1137.999	644.362	80.002	19.996	100.693	20.273	4.347	0.522
1139.999	645.390	80.001	19.995	100.691	20.271	4.496	0.531
1141.999	646.411	80.002	19.997	100.692	20.271	4.496	0.506
1143.999	647.437	80.003	19.996	100.699	20.270	4.557	0.494
1146.000	648.429	80.003	19.996	100.700	20.275	4.233	0.513
1147.999	649.495	80.004	19.996	100.690	20.274	4.291	0.546
1149.999	650.520	80.003	19.998	100.691	20.276	4.199	0.533
1151.999	651.552	80.004	19.997	100.701	20.271	4.517	0.516
1153.999	652.592	80.004	19.998	100.686	20.273	4.376	0.527
1155.999	653.586	80.003	19.996	100.690	20.267	4.790	0.488
1157.999	654.626	80.002	19.995	100.686	20.272	4.467	0.541
1160.000	655.670	80.003	19.996	100.687	20.270	4.560	0.503
1161.999	656.691	80.002	19.996	100.686	20.271	4.499	0.536
1163.999	657.694	80.002	19.996	100.692	20.276	4.202	0.495
1166.000	658.653	80.003	19.995	100.688	20.275	4.257	0.495
1167.999	659.708	80.004	19.998	100.687	20.271	4.521	0.506
1169.999	660.689	80.006	19.997	100.686	20.271	4.517	0.506
1172.000	661.686	80.004	19.998	100.683	20.272	4.449	0.488
1173.999	662.669	80.004	19.998	100.683	20.270	4.557	0.528
1175.999	663.696	80.006	19.997	100.682	20.270	4.601	0.514
1177.999	664.685	80.002	19.996	100.681	20.268	4.720	0.499
1179.999	665.647	80.003	19.998	100.682	20.270	4.590	0.505
1181.999	666.640	80.001	19.997	100.687	20.269	4.619	0.508
1183.999	667.628	80.003	19.997	100.688	20.271	4.510	0.489
1185.999	668.604	80.003	19.995	100.696	20.271	4.515	0.492
1188.000	669.623	80.002	19.996	100.695	20.271	4.510	0.492
1189.999	670.577	80.002	19.995	100.691	20.267	4.787	0.462
1191.999	671.613	80.002	19.995	100.691	20.271	4.508	0.539
1193.999	672.616	80.002	19.997	100.691	20.274	4.306	0.461
1195.999	673.601	80.002	19.996	100.689	20.267	4.770	0.474
1197.999	674.629	80.003	19.997	100.689	20.268	4.692	0.526
1199.999	675.628	80.003	19.997	100.689	20.270	4.602	0.493
1201.999	676.635	80.004	19.996	100.688	20.268	4.738	0.502
1203.999	677.643	80.005	19.996	100.686	20.266	4.861	0.504
1205.999	678.617	80.002	19.996	100.686	20.271	4.506	0.514
1207.999	679.612	80.003	19.996	100.685	20.267	4.747	0.508
1209.999	680.653	80.003	19.995	100.687	20.266	4.852	0.480
1211.999	681.627	80.001	19.996	100.691	20.266	4.821	0.491
1213.999	682.641	80.002	19.996	100.689	20.266	4.861	0.483
1215.999	683.644	80.004	19.995	100.688	20.269	4.624	0.507
1218.001	684.677	80.002	19.996	100.687	20.272	4.436	0.507
1219.999	685.719	80.004	19.994	100.688	20.268	4.707	0.549
1221.999	686.671	80.003	19.996	100.686	20.270	4.593	0.477
1223.999	687.736	80.004	19.995	100.688	20.272	4.450	0.530
1225.999	688.703	80.005	19.996	100.687	20.270	4.608	0.482
1227.999	689.767	80.005	19.996	100.686	20.271	4.539	0.501
1229.999	690.806	80.004	19.996	100.692	20.270	4.598	0.524
1231.999	691.837	80.003	19.996	100.690	20.261	5.135	0.498
1233.999	692.865	80.004	19.996	100.687	20.264	4.955	0.519
1236.000	693.898	80.005	19.997	100.687	20.269	4.660	0.505
1237.999	694.916	80.005	19.996	100.683	20.268	4.707	0.515
1239.999	695.963	80.005	19.996	100.684	20.266	4.806	0.524
1241.999	697.001	80.003	19.996	100.685	20.273	4.385	0.507
1243.999	698.021	80.002	19.996	100.687	20.268	4.702	0.496
1246.000	699.071	80.005	19.996	100.684	20.272	4.463	0.519
1247.999	700.096	80.006	19.995	100.685	20.270	4.582	0.525
1249.999	701.116	80.004	19.995	100.687	20.269	4.653	0.511
1252.001	702.122	80.003	19.998	100.690	20.269	4.646	0.503
1253.999	703.110	80.004	19.996	100.688	20.272	4.447	0.495
1255.999	704.162	80.004	19.997	100.689	20.265	4.891	0.512
1257.999	705.127	80.003	19.995	100.688	20.268	4.680	0.513
1259.999	706.151	80.003	19.996	100.687	20.269	4.638	0.503
1261.999	707.169	80.003	19.996	100.693	20.268	4.711	0.504
1264.000	708.166	80.000	19.997	100.694	20.265	4.921	0.502
1265.999	709.169	80.003	19.997	100.689	20.266	4.816	0.533
1267.999	710.197	80.001	19.996	100.689	20.268	4.718	0.527
1269.999	711.188	80.002	19.996	100.686	20.267	4.779	0.521
1271.999	712.202	79.997	19.997	100.689	20.267	4.799	0.496
1273.999	713.171	80.002	19.996	100.691	20.264	4.949	0.500
1275.999	714.154	80.001	19.995	100.692	20.267	4.754	0.468
1278.000	715.213	80.000	19.995	100.691	20.266	4.837	0.526
1280.000	716.233	80.001	19.995	100.690	20.269	4.674	0.534
1281.999	717.209	80.002	19.996	100.688	20.266	4.839	0.480
1283.999	718.189	80.002	19.997	100.688	20.267	4.797	0.485
1286.000	719.178	80.002	19.996	100.684	20.268	4.685	0.465
1287.999	720.178	80.003	19.997	100.685	20.265	4.924	0.470
1289.999	721.167	80.001	19.995	100.686	20.264	4.944	0.496
1291.999	722.147	80.002	19.995	100.687	20.267	4.786	0.483
1293.999	723.107	80.001	19.996	100.687	20.267	4.767	0.474
1295.999	724.177	80.003	19.997	100.685	20.267	4.765	0.510
1298.001	725.137	80.001	19.997	100.686	20.265	4.875	0.491
1299.999	726.103	80.002	19.996	100.688	20.265	4.879	0.492
1301.999	727.069	80.001	19.997	100.687	20.264	4.962	0.474
1303.999	728.093	80.003	19.997	100.687	20.263	5.023	0.509
1305.999	729.100	80.002	19.996	100.687	20.264	4.985	0.497
1308.000	730.082	80.004	19.996	100.690	20.266	4.812	0.484
1310.000	731.095	80.005	19.995	100.687	20.269	4.615	0.500
1312.000	732.106	80.004	19.997	100.683	20.267	4.750	0.504
1314.000	733.091	80.004	19.996	100.686	20.262	5.074	0.507
1316.000	734.083	80.002	19.995	100.685	20.266	4.832	0.482
1317.999	735.030	80.001	19.995	100.689	20.263	5.061	0.495
1319.999	736.007	80.003	19.995	100.689	20.263	5.061	0.503
1322.000	737.040	80.003	19.995	100.688	20.264	4.965	0.494
1324.000	738.013	79.999	19.995	100.689	20.261	5.135	0.495
1325.999	738.998	80.000	19.996	100.689	20.258	5.354	0.543
1327.999	739.989	80.003	19.996	100.688	20.265	4.893	0.479
1330.000	740.982	80.004	19.996	100.690	20.261	5.199	0.467
1331.999	741.990	80.002	19.996	100.685	20.265	4.882	0.494
1333.999	742.981	80.003	19.995	100.687	20.263	5.014	0.477
1335.499	743.747	80.004	19.996	100.685	20.263	5.059	0.521