File: 01_Data/Polyolefin_Carpet_Low_Pile/STA/N2/10K_min/Polyolefin_Carpet_Low_Pile_STA_N2_10KData_220303_R1.csv
##Temp./Â°C,Time/min,DSC(subtr.2)/(mW/mg),Mass loss(subtr.2)/mg,Sensit./(uV/mW)
49.583,10.00833,0.01491,-0.01513,1.07522
50.283,10.75805,0.04989409,-0.01876188,1.07485
50.983,10.96284,0.08002966,-0.01722855,1.07449
51.683,11.11443,0.09943955,-0.01668099,1.07412
52.383,11.24185,0.11646,-0.01813938,1.07376
53.083,11.35726,0.13409,-0.01928933,1.07339
53.783,11.4636,0.1472,-0.02298592,1.07303
54.483,11.56343,0.1583,-0.02133721,1.07266
55.183,11.6586,0.16612,-0.02160046,1.0723
55.883,11.74995,0.17529,-0.02041103,1.07193
56.583,11.83837,0.18403,-0.01996171,1.07157
57.283,11.9246,0.19156,-0.01821252,1.07121
57.983,12.00879,0.19653,-0.01840544,1.07084
58.683,12.09101,0.20143,-0.01897523,1.07048
59.383,12.17239,0.20665,-0.01857789,1.07011
60.083,12.25291,0.21053,-0.01736663,1.06975
60.783,12.3339,0.21391,-0.02024695,1.06939
61.483,12.41272,0.21577,-0.02259334,1.06902
62.183,12.49117,0.22037,-0.02122969,1.06866
62.883,12.5685,0.22219,-0.02049256,1.0683
63.583,12.64601,0.22282,-0.02070635,1.06793
64.283,12.72306,0.22758,-0.01975633,1.06757
64.983,12.7997,0.23046,-0.02038361,1.06721
65.683,12.87611,0.23361,-0.02105951,1.06684
66.383,12.9518,0.2346,-0.02010886,1.06648
67.083,13.02727,0.23487,-0.02106107,1.06612
67.783,13.1027,0.23919,-0.0222987,1.06575
68.483,13.1783,0.24076,-0.02269914,1.06539
69.183,13.2536,0.24128,-0.02373699,1.06503
69.883,13.32826,0.24293,-0.02402114,1.06467
70.583,13.40303,0.24072,-0.02368749,1.0643
71.283,13.4775,0.244,-0.02224394,1.06394
71.983,13.5518,0.24331,-0.02206713,1.06358
72.683,13.6258,0.2446,-0.02184132,1.06322
73.383,13.6995,0.24679,-0.02073081,1.06285
74.083,13.77325,0.24693,-0.02205655,1.06249
74.783,13.84665,0.24842,-0.02327988,1.06213
75.483,13.9198,0.24968,-0.02325484,1.06177
76.183,13.99284,0.24987,-0.02201903,1.0614
76.883,14.06586,0.25091,-0.02367673,1.06104
77.583,14.13855,0.25367,-0.02499765,1.06068
78.283,14.21166,0.25463,-0.02407039,1.06032
78.983,14.2843,0.25523,-0.02315533,1.05996
79.683,14.35692,0.25546,-0.02236068,1.0596
80.383,14.429,0.25507,-0.02236925,1.05923
81.083,14.50124,0.25528,-0.02260487,1.05887
81.783,14.57337,0.25493,-0.02283555,1.05851
82.483,14.6454,0.2582,-0.02368887,1.05815
83.183,14.71729,0.25862,-0.02268983,1.05779
83.883,14.78899,0.25511,-0.02297509,1.05743
84.583,14.86046,0.25678,-0.02367991,1.05707
85.283,14.9317,0.25849,-0.02237755,1.0567
85.983,15.00281,0.25754,-0.02367574,1.05634
86.683,15.07395,0.26049,-0.02237083,1.05598
87.383,15.1451,0.26106,-0.02293649,1.05562
88.083,15.21582,0.26084,-0.02637397,1.05526
88.783,15.28651,0.26262,-0.02630898,1.0549
89.483,15.3569,0.26406,-0.02633033,1.05454
90.183,15.42728,0.26236,-0.02500866,1.05418
90.883,15.49726,0.26478,-0.02500973,1.05382
91.583,15.56725,0.26374,-0.02601606,1.05346
92.283,15.63701,0.26601,-0.02731063,1.0531
92.983,15.70694,0.26785,-0.02806618,1.05274
93.683,15.77625,0.26866,-0.02811886,1.05238
94.383,15.84573,0.26716,-0.02894888,1.05202
95.083,15.9151,0.27037,-0.02796289,1.05166
95.783,15.98489,0.26948,-0.02796032,1.0513
96.483,16.05428,0.27098,-0.02894421,1.05094
97.183,16.12361,0.27141,-0.02773234,1.05058
97.883,16.1926,0.27302,-0.02636088,1.05022
98.583,16.26199,0.27229,-0.02533393,1.04986
99.283,16.3311,0.27168,-0.02577238,1.0495
99.983,16.40011,0.27288,-0.02534245,1.04914
100.683,16.46895,0.27199,-0.02532149,1.04878
101.383,16.53772,0.27285,-0.02593967,1.04842
102.083,16.60676,0.27088,-0.02796816,1.04806
102.783,16.67551,0.27155,-0.02622221,1.04771
103.483,16.7442,0.27319,-0.02570417,1.04735
104.183,16.81308,0.27337,-0.0264851,1.04699
104.883,16.88194,0.27479,-0.02666,1.04663
105.583,16.951,0.27647,-0.02677293,1.04627
106.283,17.01984,0.27371,-0.02797005,1.04591
106.983,17.0887,0.27278,-0.02731542,1.04555
107.683,17.15746,0.27563,-0.02756159,1.04519
108.383,17.22605,0.2744,-0.02799021,1.04484
109.083,17.29472,0.27476,-0.02921837,1.04448
109.783,17.363,0.27506,-0.02888125,1.04412
110.483,17.43124,0.27548,-0.02940006,1.04376
111.183,17.49928,0.27636,-0.02936643,1.0434
111.883,17.56798,0.27592,-0.02807998,1.04304
112.583,17.63668,0.27689,-0.02806154,1.04269
113.283,17.70565,0.27626,-0.02677005,1.04233
113.983,17.77409,0.27687,-0.0268601,1.04197
114.683,17.8427,0.27684,-0.02670982,1.04161
115.383,17.91125,0.27745,-0.02806667,1.04125
116.083,17.98004,0.27831,-0.0280885,1.0409
116.783,18.04881,0.27759,-0.02939221,1.04054
117.483,18.1173,0.2816,-0.03070997,1.04018
118.183,18.18563,0.27833,-0.03070993,1.03982
118.883,18.25401,0.27827,-0.02960753,1.03947
119.583,18.32225,0.27968,-0.02958177,1.03911
120.283,18.39045,0.28249,-0.03071144,1.03875
120.983,18.45833,0.28292,-0.0294,1.03839
121.683,18.52679,0.28296,-0.02819054,1.03804
122.383,18.59519,0.28369,-0.0280763,1.03768
123.083,18.66367,0.2835,-0.02938028,1.03732
123.783,18.73161,0.28441,-0.02890904,1.03697
124.483,18.79994,0.28319,-0.02775423,1.03661
125.183,18.86814,0.28333,-0.02807922,1.03625
125.883,18.93628,0.28374,-0.02822401,1.0359
126.583,19.00439,0.28516,-0.02934934,1.03554
127.283,19.07234,0.28436,-0.02937037,1.03518
127.983,19.1404,0.28368,-0.02938859,1.03483
128.683,19.20826,0.28474,-0.0294,1.03447
129.383,19.27636,0.28559,-0.02940174,1.03411
130.083,19.34437,0.28661,-0.03101816,1.03376
130.783,19.41231,0.2893,-0.0323605,1.0334
131.483,19.48005,0.2903,-0.03236016,1.03305
132.183,19.5477,0.28925,-0.03104039,1.03269
132.883,19.61543,0.29153,-0.02907834,1.03233
133.583,19.6833,0.29325,-0.02982177,1.03198
134.283,19.75122,0.29465,-0.03039107,1.03162
134.983,19.81883,0.29688,-0.02907364,1.03126
135.683,19.88652,0.29342,-0.02894249,1.03091
136.383,19.9543,0.29619,-0.02642481,1.03055
137.083,20.02185,0.2985,-0.02936428,1.0302
137.783,20.08945,0.30037,-0.03037999,1.02984
138.483,20.15716,0.30222,-0.03038129,1.02949
139.183,20.22508,0.30568,-0.03235316,1.02913
139.883,20.293,0.30848,-0.03335419,1.02878
140.583,20.36063,0.31127,-0.03205269,1.02842
141.283,20.42821,0.31396,-0.03203,1.02806
141.983,20.49529,0.31542,-0.03185857,1.02771
142.683,20.56236,0.31809,-0.03106643,1.02735
143.383,20.62964,0.31889,-0.03100561,1.027
144.083,20.69729,0.32375,-0.03234997,1.02664
144.783,20.76503,0.32689,-0.03235042,1.02629
145.483,20.83223,0.33022,-0.03103298,1.02593
146.183,20.89953,0.33383,-0.03027983,1.02558
146.883,20.96642,0.34052,-0.02972003,1.02522
147.583,21.03404,0.34381,-0.02969636,1.02487
148.283,21.10161,0.34809,-0.03169799,1.02451
148.983,21.16936,0.3534,-0.03236868,1.02416
149.683,21.23721,0.36043,-0.03103627,1.0238
150.383,21.3048,0.36494,-0.03037342,1.02345
151.083,21.3723,0.3728,-0.03170054,1.0231
151.783,21.43992,0.38279,-0.03205338,1.02274
152.483,21.50755,0.39101,-0.03109488,1.02239
153.183,21.57527,0.40221,-0.03105947,1.02203
153.883,21.64299,0.4157,-0.0326402,1.02168
154.583,21.71055,0.42881,-0.0310267,1.02132
155.283,21.77812,0.44771,-0.0310401,1.02097
155.983,21.84581,0.46225,-0.03069185,1.02061
156.683,21.9135,0.48227,-0.03213968,1.02026
157.383,21.98125,0.50314,-0.03350014,1.01991
158.083,22.0488,0.5244,-0.03213662,1.01955
158.783,22.11625,0.5472,-0.03213,1.0192
159.483,22.18375,0.56832,-0.03213051,1.01884
160.183,22.2514,0.59022,-0.03126686,1.01849
160.883,22.31895,0.61702,-0.03148205,1.01814
161.583,22.38673,0.64152,-0.03213959,1.01778
162.283,22.45443,0.66403,-0.03214,1.01743
162.983,22.52225,0.68384,-0.03214746,1.01707
163.683,22.58983,0.70243,-0.03356855,1.01672
164.383,22.6575,0.71387,-0.03218837,1.01637
165.083,22.72505,0.71975,-0.03213628,1.01601
165.783,22.79242,0.71039,-0.03203696,1.01566
166.483,22.85971,0.69314,-0.03213,1.01531
167.183,22.92693,0.66364,-0.03212699,1.01495
167.883,22.9942,0.61747,-0.03214446,1.0146
168.583,23.06116,0.56796,-0.03213007,1.01425
169.283,23.12818,0.51925,-0.03148006,1.01389
169.983,23.195,0.47977,-0.03214005,1.01354
170.683,23.2617,0.44108,-0.03242295,1.01319
171.383,23.3285,0.4124,-0.03478072,1.01283
172.083,23.39526,0.38657,-0.03463431,1.01248
172.783,23.46226,0.36845,-0.0333844,1.01212
173.483,23.52896,0.35275,-0.0337669,1.01177
174.183,23.59562,0.34304,-0.0337257,1.01142
174.883,23.66225,0.33631,-0.03510008,1.01107
175.583,23.72891,0.33012,-0.03376413,1.01071
176.283,23.7957,0.32494,-0.03375629,1.01036
176.983,23.86242,0.32277,-0.0324702,1.01001
177.683,23.9292,0.32094,-0.03319201,1.00965
178.383,23.9961,0.31948,-0.03377997,1.0093
179.083,24.06279,0.3172,-0.03378327,1.00895
179.783,24.12959,0.32134,-0.03242645,1.00859
180.483,24.1962,0.3164,-0.03213002,1.00824
181.183,24.26295,0.31709,-0.03207592,1.00789
181.883,24.3297,0.31624,-0.03293171,1.00753
182.583,24.39666,0.31672,-0.03345998,1.00718
183.283,24.46341,0.31962,-0.03346,1.00683
183.983,24.53035,0.31736,-0.03346053,1.00648
184.683,24.5972,0.31708,-0.034106,1.00612
185.383,24.6642,0.31898,-0.03411,1.00577
186.083,24.73109,0.31865,-0.03411,1.00542
186.783,24.79792,0.32034,-0.03410994,1.00506
187.483,24.86477,0.32071,-0.03348702,1.00471
188.183,24.93146,0.32102,-0.03348193,1.00436
188.883,24.9983,0.31993,-0.03509701,1.00401
189.583,25.06492,0.32027,-0.03608437,1.00365
190.283,25.13174,0.319,-0.03738571,1.0033
190.983,25.1985,0.31926,-0.03608148,1.00295
191.683,25.26521,0.31857,-0.03475561,1.00259
192.383,25.3321,0.31974,-0.03475995,1.00224
193.083,25.39893,0.32022,-0.03406073,1.00189
193.783,25.46544,0.31794,-0.03475493,1.00154
194.483,25.53199,0.32076,-0.0361878,1.00118
195.183,25.59865,0.32543,-0.03608858,1.00083
195.883,25.6656,0.32124,-0.0347829,1.00048
196.583,25.73248,0.32375,-0.03695203,1.00013
197.283,25.79905,0.32191,-0.03708084,0.99977
197.983,25.86571,0.32284,-0.03576101,0.99942
198.683,25.9322,0.32221,-0.03542382,0.99907
199.383,25.999,0.3214,-0.03404845,0.99872
200.083,26.06579,0.32286,-0.03312007,0.99836
200.783,26.1321,0.32448,-0.03312006,0.99801
201.483,26.19882,0.32167,-0.03381641,0.99766
202.183,26.2656,0.3244,-0.03576271,0.9973
202.883,26.33288,0.32265,-0.03579462,0.99695
203.583,26.39977,0.32353,-0.03707414,0.9966
204.283,26.4666,0.32045,-0.03573294,0.99625
204.983,26.53312,0.32294,-0.03575001,0.99589
205.683,26.6,0.3236,-0.03575,0.99554
206.383,26.66692,0.32291,-0.03575,0.99519
207.083,26.7342,0.32221,-0.035743,0.99484
207.783,26.80113,0.32121,-0.03707046,0.99448
208.483,26.86805,0.32328,-0.03706887,0.99413
209.183,26.93498,0.32397,-0.03722558,0.99378
209.883,27.00208,0.32321,-0.03705755,0.99343
210.583,27.06894,0.32394,-0.03806009,0.99307
211.283,27.1358,0.32275,-0.0373173,0.99272
211.983,27.2027,0.32308,-0.03542253,0.99237
212.683,27.26956,0.32507,-0.03542842,0.99201
213.383,27.3366,0.3224,-0.03675939,0.99166
214.083,27.4036,0.32339,-0.03806099,0.99131
214.783,27.47062,0.32307,-0.03937838,0.99096
215.483,27.53748,0.32393,-0.03938,0.9906
216.183,27.6041,0.32465,-0.03938,0.99025
216.883,27.6708,0.32475,-0.0393928,0.9899
217.583,27.7374,0.32552,-0.04069006,0.98954
218.283,27.8041,0.32389,-0.04069,0.98919
218.983,27.8711,0.32345,-0.04067027,0.98884
219.683,27.938,0.32279,-0.04102001,0.98849
220.383,28.00488,0.32425,-0.04090135,0.98813
221.083,28.0717,0.32417,-0.03969917,0.98778
221.783,28.1384,0.32335,-0.03707991,0.98743
222.483,28.20492,0.32478,-0.03829778,0.98707
223.183,28.2714,0.32542,-0.03971003,0.98672
223.883,28.338,0.3266,-0.03971001,0.98637
224.583,28.40485,0.32677,-0.04085574,0.98602
225.283,28.4717,0.3277,-0.04100072,0.98566
225.983,28.5384,0.32855,-0.04003022,0.98531
226.683,28.6051,0.32812,-0.04101897,0.98496
227.383,28.67183,0.32744,-0.03970199,0.9846
228.083,28.73862,0.3264,-0.0397,0.98425
228.783,28.80534,0.32768,-0.03970097,0.9839
229.483,28.87207,0.32728,-0.04100576,0.98354
230.183,28.93877,0.3285,-0.04102,0.98319
230.883,29.00545,0.32943,-0.04102,0.98284
231.583,29.0722,0.32952,-0.0410144,0.98248
232.283,29.1388,0.32689,-0.04233013,0.98213
232.983,29.2057,0.32875,-0.04232987,0.98178
233.683,29.2725,0.32936,-0.04069072,0.98142
234.383,29.3393,0.32945,-0.04070226,0.98107
235.083,29.4059,0.33042,-0.0420182,0.98071
235.783,29.4725,0.32945,-0.04064627,0.98036
236.483,29.53888,0.33087,-0.04201074,0.98001
237.183,29.60523,0.33157,-0.04069115,0.97965
237.883,29.6718,0.33526,-0.04069003,0.9793
238.583,29.7387,0.33027,-0.0393621,0.97895
239.283,29.8053,0.33097,-0.03937985,0.97859
239.983,29.8722,0.33086,-0.0380861,0.97824
240.683,29.939,0.334,-0.03806184,0.97788
241.383,30.0059,0.3321,-0.04069508,0.97753
242.083,30.07283,0.33226,-0.04071256,0.97718
242.783,30.1396,0.32877,-0.04200986,0.97682
243.483,30.20601,0.32992,-0.0432221,0.97647
244.183,30.2726,0.33116,-0.04077229,0.97611
244.883,30.3395,0.32907,-0.03930001,0.97576
245.583,30.40669,0.33042,-0.03927733,0.9754
246.283,30.4737,0.33021,-0.03844775,0.97505
246.983,30.5407,0.33046,-0.03926999,0.9747
247.683,30.6076,0.32805,-0.03927,0.97434
248.383,30.6744,0.33075,-0.03927013,0.97399
249.083,30.7411,0.33084,-0.04043903,0.97363
249.783,30.8079,0.33258,-0.04059601,0.97328
250.483,30.87483,0.33216,-0.04189645,0.97292
251.183,30.9415,0.3298,-0.04185053,0.97257
251.883,31.00825,0.3294,-0.04146013,0.97221
252.583,31.07487,0.33101,-0.04141385,0.97186
253.283,31.14172,0.33149,-0.04278723,0.9715
253.983,31.20853,0.33109,-0.04145922,0.97115
254.683,31.2754,0.32991,-0.04146048,0.97079
255.383,31.3423,0.32929,-0.04209274,0.97044
256.083,31.4086,0.33056,-0.04279357,0.97008
256.783,31.4756,0.32924,-0.04377137,0.96973
257.483,31.54233,0.32993,-0.04302458,0.96937
258.183,31.6096,0.32852,-0.04244989,0.96902
258.883,31.67652,0.32918,-0.04375069,0.96866
259.583,31.7434,0.32824,-0.04408123,0.9683
260.283,31.8102,0.3282,-0.04409,0.96795
260.983,31.8771,0.32623,-0.04410148,0.96759
261.683,31.9442,0.32818,-0.04540451,0.96724
262.383,32.01103,0.32901,-0.04541,0.96688
263.083,32.07793,0.32945,-0.04511243,0.96652
263.783,32.14472,0.32816,-0.04307857,0.96617
264.483,32.2116,0.32801,-0.04277119,0.96581
265.183,32.27844,0.32648,-0.04408988,0.96546
265.883,32.34534,0.32646,-0.04527552,0.9651
266.583,32.41233,0.32568,-0.04541002,0.96474
267.283,32.47927,0.32758,-0.04541,0.96439
267.983,32.54623,0.32636,-0.04541,0.96403
268.683,32.6131,0.3252,-0.04547097,0.96367
269.383,32.68,0.3277,-0.04671991,0.96332
270.083,32.74675,0.32736,-0.04672,0.96296
270.783,32.81384,0.32479,-0.04663845,0.9626
271.483,32.8808,0.32561,-0.04541012,0.96224
272.183,32.94768,0.32663,-0.04541,0.96189
272.883,33.01448,0.32484,-0.0454101,0.96153
273.583,33.08137,0.3252,-0.04616436,0.96117
274.283,33.14862,0.32747,-0.04737898,0.96081
274.983,33.21573,0.32586,-0.04737369,0.96046
275.683,33.28287,0.32545,-0.04870359,0.9601
276.383,33.3498,0.32626,-0.04791943,0.95974
277.083,33.41677,0.3236,-0.04738028,0.95938
277.783,33.48377,0.32367,-0.04663252,0.95903
278.483,33.5507,0.325,-0.04774323,0.95867
279.183,33.61752,0.32556,-0.04704995,0.95831
279.883,33.68424,0.32518,-0.04704987,0.95795
280.583,33.75136,0.32494,-0.04586743,0.95759
281.283,33.81863,0.32726,-0.04572514,0.95723
281.983,33.88592,0.32608,-0.04704993,0.95687
282.683,33.9529,0.32378,-0.04705,0.95652
283.383,34.0199,0.3254,-0.04705,0.95616
284.083,34.08719,0.32662,-0.04705,0.9558
284.783,34.15456,0.32458,-0.04705,0.95544
285.483,34.22202,0.32266,-0.04705136,0.95508
286.183,34.28937,0.32147,-0.04835073,0.95472
286.883,34.35678,0.32369,-0.04968996,0.95436
287.583,34.42429,0.32203,-0.04969,0.954
288.283,34.4918,0.31984,-0.04969,0.95364
288.983,34.5591,0.31965,-0.04968996,0.95328
289.683,34.62672,0.31719,-0.0509368,0.95292
290.383,34.69435,0.31741,-0.04987958,0.95256
291.083,34.76234,0.31691,-0.04968447,0.9522
291.783,34.83,0.3174,-0.05100036,0.95184
292.483,34.8977,0.31864,-0.05103213,0.95148
293.183,34.96515,0.31689,-0.0497249,0.95112
293.883,35.03281,0.31637,-0.04935981,0.95076
294.583,35.10028,0.31786,-0.05075737,0.9504
295.283,35.16805,0.31894,-0.04934319,0.95004
295.983,35.23547,0.31696,-0.0503399,0.94967
296.683,35.3029,0.31653,-0.05057544,0.94931
297.383,35.37019,0.31824,-0.05247334,0.94895
298.083,35.43756,0.31848,-0.05329868,0.94859
298.783,35.50516,0.32039,-0.05329987,0.94823
299.483,35.5727,0.31843,-0.05207454,0.94787
300.183,35.64026,0.31947,-0.0519899,0.9475
300.883,35.70772,0.32167,-0.05327806,0.94714
301.583,35.77531,0.31946,-0.05594843,0.94678
302.283,35.84276,0.3212,-0.05724838,0.94642
302.983,35.9101,0.32,-0.05672612,0.94605
303.683,35.97761,0.32067,-0.05439334,0.94569
304.383,36.045,0.32012,-0.05440186,0.94533
305.083,36.11234,0.31753,-0.05571815,0.94497
305.783,36.17967,0.32099,-0.05572188,0.9446
306.483,36.24698,0.32219,-0.05308704,0.94424
307.183,36.31431,0.32354,-0.05341507,0.94388
307.883,36.38151,0.3205,-0.05433808,0.94351
308.583,36.4489,0.32212,-0.05709332,0.94315
309.283,36.51623,0.32136,-0.05767416,0.94278
309.983,36.58368,0.32137,-0.05706425,0.94242
310.683,36.6511,0.32164,-0.05971861,0.94206
311.383,36.71844,0.32264,-0.05966657,0.94169
312.083,36.7858,0.32218,-0.05834944,0.94133
312.783,36.85303,0.32192,-0.05826176,0.94096
313.483,36.92015,0.32229,-0.05835001,0.9406
314.183,36.98737,0.32331,-0.05835,0.94023
314.883,37.05473,0.32465,-0.05838535,0.93987
315.583,37.12215,0.32298,-0.05933609,0.9395
316.283,37.18954,0.3238,-0.05933,0.93914
316.983,37.2569,0.3248,-0.05912383,0.93877
317.683,37.32405,0.32619,-0.05933877,0.9384
318.383,37.3913,0.32487,-0.06067496,0.93804
319.083,37.45867,0.32614,-0.06063983,0.93767
319.783,37.5261,0.32703,-0.06163798,0.93731
320.483,37.5933,0.32529,-0.06164,0.93694
321.183,37.66075,0.32399,-0.06164033,0.93657
321.883,37.7283,0.32556,-0.06196995,0.93621
322.583,37.7961,0.32621,-0.06460393,0.93584
323.283,37.86374,0.32561,-0.06481984,0.93547
323.983,37.93132,0.32444,-0.06522882,0.9351
324.683,37.99897,0.32479,-0.06592078,0.93474
325.383,38.06664,0.32505,-0.06460061,0.93437
326.083,38.1343,0.3254,-0.0646,0.934
326.783,38.2018,0.3248,-0.0646,0.93363
327.483,38.26924,0.32373,-0.06460028,0.93326
328.183,38.33675,0.32561,-0.06592211,0.9329
328.883,38.40404,0.32542,-0.06614325,0.93253
329.583,38.4718,0.32605,-0.07007293,0.93216
330.283,38.5394,0.32472,-0.07013991,0.93179
330.983,38.60713,0.32379,-0.07074997,0.93142
331.683,38.67481,0.3267,-0.07086509,0.93105
332.383,38.74244,0.32467,-0.07149643,0.93068
333.083,38.8102,0.32584,-0.07140002,0.93031
333.783,38.87773,0.32611,-0.07201426,0.92994
334.483,38.94535,0.32788,-0.07403899,0.92957
335.183,39.0129,0.32661,-0.07490296,0.9292
335.883,39.08044,0.3257,-0.07601035,0.92883
336.583,39.14788,0.32889,-0.07732398,0.92846
337.283,39.21561,0.32878,-0.07732,0.92809
337.983,39.28334,0.3285,-0.07732095,0.92772
338.683,39.35112,0.32826,-0.07862652,0.92734
339.383,39.41879,0.33054,-0.07996171,0.92697
340.083,39.48653,0.32893,-0.07996001,0.9266
340.783,39.55418,0.32957,-0.07993451,0.92623
341.483,39.6218,0.32716,-0.0786148,0.92586
342.183,39.68958,0.32821,-0.07997216,0.92548
342.883,39.75727,0.32962,-0.08259113,0.92511
343.583,39.8251,0.3279,-0.0838988,0.92474
344.283,39.89244,0.32423,-0.08489062,0.92436
344.983,39.96015,0.32494,-0.08522664,0.92399
345.683,40.02771,0.32257,-0.08455931,0.92362
346.383,40.09568,0.32434,-0.08526956,0.92324
347.083,40.16325,0.32409,-0.08659996,0.92287
347.783,40.2307,0.32434,-0.09032652,0.9225
348.483,40.2984,0.32654,-0.09179994,0.92212
349.183,40.36598,0.32456,-0.09179698,0.92175
349.883,40.43379,0.32443,-0.09447215,0.92137
350.583,40.50159,0.3248,-0.09466691,0.921
351.283,40.56943,0.32473,-0.09465856,0.92062
351.983,40.637,0.32574,-0.09597535,0.92025
352.683,40.70452,0.32619,-0.09729142,0.91987
353.383,40.77171,0.32652,-0.09860022,0.91949
354.083,40.8393,0.32848,-0.10176,0.91912
354.783,40.90695,0.32852,-0.10266,0.91874
355.483,40.97484,0.33128,-0.10537,0.91836
356.183,41.04246,0.33167,-0.10381,0.91799
356.883,41.10994,0.33048,-0.10385,0.91761
357.583,41.17757,0.33307,-0.10791,0.91723
358.283,41.24537,0.33328,-0.10966,0.91686
358.983,41.31324,0.33474,-0.11381,0.91648
359.683,41.38102,0.33602,-0.11623,0.9161
360.383,41.4487,0.33859,-0.11791,0.91572
361.083,41.5165,0.33748,-0.1179,0.91534
361.783,41.5841,0.33858,-0.11687,0.91496
362.483,41.652,0.3374,-0.11913,0.91459
363.183,41.71982,0.33917,-0.11908,0.91421
363.883,41.78764,0.34253,-0.12041,0.91383
364.583,41.85533,0.34355,-0.12323,0.91345
365.283,41.92311,0.34402,-0.1274,0.91307
365.983,41.99106,0.34622,-0.13033,0.91269
366.683,42.05897,0.34814,-0.1325,0.91231
367.383,42.12684,0.34911,-0.13378,0.91193
368.083,42.19453,0.35129,-0.13757,0.91154
368.783,42.2622,0.35337,-0.1397,0.91116
369.483,42.32987,0.35435,-0.14224,0.91078
370.183,42.39783,0.35696,-0.1454,0.9104
370.883,42.46586,0.35773,-0.14743,0.91002
371.583,42.53391,0.36053,-0.14748,0.90964
372.283,42.6019,0.36308,-0.14883,0.90925
372.983,42.66982,0.3668,-0.15172,0.90887
373.683,42.73787,0.36869,-0.15636,0.90849
374.383,42.80601,0.37081,-0.16099,0.9081
375.083,42.8741,0.37077,-0.16531,0.90772
375.783,42.9425,0.37708,-0.16655,0.90734
376.483,43.01059,0.37772,-0.16964,0.90695
377.183,43.07871,0.37594,-0.17151,0.90657
377.883,43.1468,0.37945,-0.17359,0.90618
378.583,43.21503,0.38229,-0.1762,0.9058
379.283,43.28335,0.38349,-0.17933,0.90541
379.983,43.35147,0.38562,-0.18279,0.90503
380.683,43.41957,0.39077,-0.18582,0.90464
381.383,43.48766,0.39174,-0.18983,0.90426
382.083,43.5558,0.394,-0.19287,0.90387
382.783,43.624,0.39962,-0.19854,0.90348
383.483,43.69222,0.39987,-0.20251,0.9031
384.183,43.7606,0.40333,-0.20769,0.90271
384.883,43.82894,0.40635,-0.21058,0.90232
385.583,43.8972,0.40986,-0.2141,0.90194
386.283,43.9655,0.41192,-0.21836,0.90155
386.983,44.03385,0.41543,-0.22041,0.90116
387.683,44.10223,0.41491,-0.22236,0.90077
388.383,44.17055,0.42006,-0.22745,0.90038
389.083,44.23856,0.42406,-0.23388,0.89999
389.783,44.30655,0.42704,-0.23866,0.8996
390.483,44.37442,0.43195,-0.24208,0.89922
391.183,44.4426,0.43422,-0.24591,0.89883
391.883,44.51099,0.43732,-0.25066,0.89844
392.583,44.57914,0.44111,-0.25673,0.89805
393.283,44.64751,0.44787,-0.26168,0.89765
393.983,44.71555,0.44905,-0.26872,0.89726
394.683,44.7838,0.4524,-0.27348,0.89687
395.383,44.85183,0.45892,-0.27816,0.89648
396.083,44.9201,0.45946,-0.28205,0.89609
396.783,44.98839,0.46321,-0.28706,0.8957
397.483,45.0566,0.46666,-0.29214,0.8953
398.183,45.12488,0.47061,-0.29572,0.89491
398.883,45.19311,0.47394,-0.30295,0.89452
399.583,45.26141,0.47377,-0.31109,0.89413
400.283,45.32965,0.47729,-0.31736,0.89373
400.983,45.39767,0.48103,-0.32329,0.89334
401.683,45.46583,0.48629,-0.32884,0.89294
402.383,45.53406,0.48912,-0.33403,0.89255
403.083,45.60267,0.48948,-0.33828,0.89215
403.783,45.6712,0.4937,-0.34457,0.89176
404.483,45.73965,0.4988,-0.35187,0.89136
405.183,45.80803,0.50072,-0.35864,0.89097
405.883,45.8763,0.50415,-0.36575,0.89057
406.583,45.9448,0.50673,-0.37018,0.89018
407.283,46.01315,0.50738,-0.37692,0.88978
407.983,46.0813,0.51478,-0.38227,0.88938
408.683,46.14993,0.51806,-0.39036,0.88898
409.383,46.2183,0.52015,-0.3975,0.88859
410.083,46.28674,0.52507,-0.40626,0.88819
410.783,46.35491,0.52819,-0.41278,0.88779
411.483,46.42352,0.5295,-0.41968,0.88739
412.183,46.49218,0.53383,-0.42726,0.88699
412.883,46.56065,0.54307,-0.43541,0.88659
413.583,46.62879,0.54387,-0.44384,0.8862
414.283,46.69709,0.54859,-0.45092,0.8858
414.983,46.7654,0.5537,-0.45863,0.8854
415.683,46.8337,0.55636,-0.46794,0.885
416.383,46.90202,0.56003,-0.47715,0.88459
417.083,46.9702,0.56696,-0.48455,0.88419
417.783,47.03857,0.56654,-0.49341,0.88379
418.483,47.1069,0.57418,-0.50308,0.88339
419.183,47.17528,0.57397,-0.5133,0.88299
419.883,47.24377,0.58095,-0.51995,0.88259
420.583,47.31231,0.58499,-0.52597,0.88218
421.283,47.38093,0.58669,-0.53563,0.88178
421.983,47.44924,0.59152,-0.54542,0.88138
422.683,47.51773,0.59456,-0.55433,0.88097
423.383,47.58627,0.59835,-0.5636,0.88057
424.083,47.65504,0.6053,-0.57473,0.88017
424.783,47.72359,0.61081,-0.58754,0.87976
425.483,47.79201,0.61341,-0.59841,0.87936
426.183,47.8605,0.62232,-0.60973,0.87895
426.883,47.92909,0.62412,-0.61826,0.87854
427.583,47.99775,0.62884,-0.62944,0.87814
428.283,48.0664,0.63345,-0.64134,0.87773
428.983,48.13472,0.64137,-0.65309,0.87733
429.683,48.20333,0.64457,-0.66267,0.87692
430.383,48.27178,0.64987,-0.67294,0.87651
431.083,48.3405,0.65695,-0.68533,0.8761
431.783,48.40916,0.66437,-0.69747,0.8757
432.483,48.47804,0.66721,-0.71081,0.87529
433.183,48.54668,0.67694,-0.72386,0.87488
433.883,48.61531,0.67779,-0.73668,0.87447
434.583,48.6837,0.68692,-0.74955,0.87406
435.283,48.75253,0.68829,-0.76284,0.87365
435.983,48.82144,0.69678,-0.77835,0.87324
436.683,48.8904,0.70297,-0.79276,0.87283
437.383,48.9591,0.70864,-0.80471,0.87242
438.083,49.0278,0.71431,-0.81833,0.87201
438.783,49.09664,0.71965,-0.8342,0.8716
439.483,49.16551,0.7255,-0.85059,0.87118
440.183,49.23407,0.72899,-0.86521,0.87077
440.883,49.30292,0.73607,-0.87988,0.87036
441.583,49.37158,0.7416,-0.89521,0.86995
442.283,49.4405,0.74627,-0.91092,0.86953
442.983,49.50912,0.75057,-0.92944,0.86912
443.683,49.57779,0.75816,-0.94868,0.86871
444.383,49.64649,0.76198,-0.96583,0.86829
445.083,49.71517,0.76837,-0.98407,0.86788
445.783,49.784,0.77191,-1.00213,0.86746
446.483,49.8527,0.77534,-1.02122,0.86705
447.183,49.92165,0.78191,-1.04081,0.86663
447.883,49.99024,0.78649,-1.05887,0.86621
448.583,50.05876,0.78948,-1.07645,0.8658
449.283,50.12745,0.79211,-1.09779,0.86538
449.983,50.19625,0.79554,-1.11819,0.86496
450.683,50.2652,0.79666,-1.13609,0.86455
451.383,50.3339,0.80031,-1.15598,0.86413
452.083,50.40297,0.80058,-1.17658,0.86371
452.783,50.47188,0.80024,-1.1973,0.86329
453.483,50.54052,0.8052,-1.2202,0.86287
454.183,50.60929,0.80573,-1.24326,0.86245
454.883,50.67848,0.80352,-1.26463,0.86203
455.583,50.74791,0.80182,-1.28757,0.86161
456.283,50.81713,0.80286,-1.31088,0.86119
456.983,50.886,0.8024,-1.33422,0.86077
457.683,50.955,0.80018,-1.35732,0.86035
458.383,51.0239,0.79686,-1.37969,0.85993
459.083,51.09299,0.7933,-1.40348,0.85951
459.783,51.16198,0.78673,-1.42651,0.85908
460.483,51.23122,0.78131,-1.44711,0.85866
461.183,51.30036,0.77718,-1.4706,0.85824
461.883,51.3696,0.77117,-1.49645,0.85781
462.583,51.43887,0.76306,-1.51894,0.85739
463.283,51.5082,0.75597,-1.54257,0.85697
463.983,51.57755,0.74694,-1.56629,0.85654
464.683,51.64665,0.73595,-1.5903,0.85612
465.383,51.71585,0.72625,-1.61228,0.85569
466.083,51.78498,0.71675,-1.63678,0.85527
466.783,51.8541,0.70036,-1.66048,0.85484
467.483,51.92292,0.6864,-1.68292,0.85441
468.183,51.99165,0.66742,-1.70485,0.85399
468.883,52.06053,0.65545,-1.72707,0.85356
469.583,52.12943,0.63978,-1.74818,0.85313
470.283,52.19826,0.62068,-1.76933,0.8527
470.983,52.2669,0.60389,-1.78867,0.85227
471.683,52.3356,0.58354,-1.80817,0.85184
472.383,52.40429,0.56451,-1.82887,0.85142
473.083,52.47302,0.54471,-1.8486,0.85099
473.783,52.54165,0.52146,-1.86701,0.85056
474.483,52.6104,0.49535,-1.88308,0.85013
475.183,52.67886,0.4658,-1.89837,0.84969
475.883,52.7475,0.43537,-1.91226,0.84926
476.583,52.8159,0.40411,-1.9269,0.84883
477.283,52.88451,0.36853,-1.93786,0.8484
477.983,52.9531,0.33244,-1.94837,0.84797
478.683,53.0219,0.29896,-1.96131,0.84753
479.383,53.0905,0.26543,-1.96724,0.8471
480.083,53.1589,0.23517,-1.97351,0.84667
480.783,53.22756,0.20972,-1.97751,0.84623
481.483,53.29626,0.18503,-1.97752,0.8458
482.183,53.36495,0.16153,-1.97955,0.84536
482.883,53.4337,0.14718,-1.9839,0.84493
483.583,53.5025,0.13326,-1.98773,0.84449
484.283,53.57147,0.1223,-1.98774,0.84406
484.983,53.64034,0.11138,-1.98775,0.84362
485.683,53.70941,0.10449,-1.98773,0.84318
486.383,53.7782,0.09718061,-1.98773,0.84275
487.083,53.8472,0.09888589,-1.99036,0.84231
487.783,53.9162,0.09321037,-1.99037,0.84187
488.483,53.98542,0.09622829,-1.99168,0.84143
489.183,54.0545,0.10162,-1.99254,0.84099
489.883,54.12345,0.10489,-1.99445,0.84055
490.583,54.1923,0.11514,-1.99531,0.84011
491.283,54.26118,0.12461,-1.9954,0.83967
491.983,54.32985,0.12974,-1.99497,0.83923
492.683,54.3985,0.13555,-1.99354,0.83879
493.383,54.4675,0.13182,-1.99222,0.83835
494.083,54.537,0.13011,-1.99222,0.83791
494.783,54.6066,0.12385,-1.99191,0.83747
495.483,54.67618,0.11099,-1.99297,0.83702
496.183,54.74556,0.10573,-1.99382,0.83658
496.883,54.81522,0.09956701,-1.99409,0.83614
497.583,54.8848,0.09039218,-1.99547,0.83569
498.283,54.9543,0.09075641,-1.9954,0.83525
498.983,55.0241,0.08499568,-1.99634,0.83481
499.683,55.09386,0.08193333,-1.99779,0.83436
500.383,55.16385,0.0724173,-1.99542,0.83391
501.083,55.2333,0.07020764,-1.99865,0.83347
501.783,55.30276,0.06069881,-2.00133,0.83302
502.483,55.37226,0.05921952,-2.00002,0.83258
503.183,55.44194,0.05468209,-1.9987,0.83213
503.883,55.5116,0.05160125,-1.9967,0.83168
504.583,55.5813,0.05285001,-1.9964,0.83123
505.283,55.651,0.05548289,-1.99818,0.83078
505.983,55.72071,0.05304192,-2.00175,0.83034
506.683,55.79029,0.05070206,-2.00168,0.82989
507.383,55.85989,0.05206786,-2.00078,0.82944
508.083,55.92954,0.05362693,-2.00076,0.82899
508.783,55.99926,0.05238402,-2.00342,0.82854
509.483,56.069,0.05180536,-2.0034,0.82809
510.183,56.1386,0.05370726,-2.00344,0.82763
510.883,56.20805,0.05161685,-2.00344,0.82718
511.583,56.2775,0.04925638,-2.00309,0.82673
512.283,56.34698,0.04764199,-2.00285,0.82628
512.983,56.41658,0.04531726,-2.00276,0.82582
513.683,56.4861,0.04500162,-2.00273,0.82537
514.383,56.55542,0.04642399,-2.00539,0.82492
515.083,56.62471,0.04811599,-2.00616,0.82446
515.783,56.69392,0.04615249,-2.00524,0.82401
516.483,56.76321,0.04712007,-2.00614,0.82355
517.183,56.83259,0.04725905,-2.00616,0.8231
517.883,56.90201,0.0489702,-2.00616,0.82264
518.583,56.97146,0.04815502,-2.00616,0.82218
519.283,57.0407,0.04835261,-2.00616,0.82173
519.983,57.1099,0.05003558,-2.00616,0.82127
520.683,57.1792,0.05047365,-2.00583,0.82081
521.383,57.24867,0.04915217,-2.00584,0.82035
522.083,57.31799,0.0520342,-2.00484,0.81989
522.783,57.38735,0.0524375,-2.00615,0.81944
523.483,57.45666,0.05394343,-2.00484,0.81898
524.183,57.5259,0.05539186,-2.00354,0.81852
524.883,57.595,0.05668937,-2.00417,0.81806
525.583,57.6641,0.05800358,-2.00595,0.8176
526.283,57.73346,0.05758347,-2.00748,0.81713
526.983,57.80276,0.05708835,-2.00872,0.81667
527.683,57.87219,0.05665797,-2.0101,0.81621
528.383,57.94158,0.05566991,-2.01142,0.81575
529.083,58.01113,0.05884649,-2.0112,0.81528
529.783,58.08061,0.05997503,-2.00978,0.81482
530.483,58.15008,0.05843229,-2.01007,0.81436
531.183,58.21971,0.05831958,-2.00932,0.81389
531.883,58.28945,0.05985012,-2.00846,0.81343
532.583,58.35931,0.06114424,-2.00639,0.81296
533.283,58.42895,0.06240102,-2.00712,0.8125
533.983,58.49853,0.05870572,-2.00815,0.81203
534.683,58.56807,0.0635395,-2.01142,0.81156
535.383,58.63763,0.0661201,-2.01115,0.8111
536.083,58.7073,0.06380744,-2.0101,0.81063
536.783,58.77701,0.06756421,-2.01064,0.81016
537.483,58.84659,0.06620023,-2.01327,0.80969
538.183,58.9162,0.06717484,-2.0158,0.80923
538.883,58.9859,0.06624192,-2.01449,0.80876
539.583,59.0555,0.06365676,-2.01317,0.80829
540.283,59.1253,0.07166279,-2.01421,0.80782
540.983,59.195,0.07133932,-2.01722,0.80735
541.683,59.2651,0.07247157,-2.01844,0.80687
542.383,59.3349,0.07198526,-2.0172,0.8064
543.083,59.4046,0.07453051,-2.01548,0.80593
543.783,59.47429,0.07587114,-2.01549,0.80546
544.483,59.54395,0.07407356,-2.01416,0.80499
545.183,59.6135,0.07371928,-2.01544,0.80451
545.883,59.68306,0.07375517,-2.01686,0.80404
546.583,59.7527,0.07628529,-2.01943,0.80357
547.283,59.82238,0.07611326,-2.02073,0.80309
547.983,59.892,0.07691846,-2.02056,0.80262
548.683,59.96174,0.07758176,-2.0179,0.80214
549.383,60.03144,0.0756481,-2.0179,0.80166
550.083,60.1012,0.07930864,-2.01879,0.80119
550.783,60.1709,0.08059554,-2.01921,0.80071
551.483,60.2406,0.07982134,-2.01776,0.80023
552.183,60.31026,0.08057476,-2.0171,0.79976
552.883,60.3799,0.08335291,-2.01774,0.79928
553.583,60.4497,0.08428938,-2.02072,0.7988
554.283,60.5193,0.08552031,-2.02206,0.79832
554.983,60.5891,0.08545618,-2.02245,0.79784
555.683,60.6587,0.08643764,-2.02337,0.79736
556.383,60.72855,0.08552476,-2.02337,0.79688
557.083,60.79824,0.08293326,-2.02337,0.7964
557.783,60.8682,0.08685629,-2.02337,0.79592
558.483,60.9379,0.08991268,-2.02404,0.79544
559.183,61.00787,0.08761587,-2.02404,0.79496
559.883,61.0778,0.08688599,-2.02437,0.79447
560.583,61.1479,0.0898964,-2.02437,0.79399
561.283,61.218,0.08925419,-2.02371,0.79351
561.983,61.28815,0.09158944,-2.02371,0.79302
562.683,61.3582,0.09090941,-2.02634,0.79254
563.383,61.4283,0.08901478,-2.02634,0.79205
564.083,61.49845,0.09003945,-2.02502,0.79157
564.783,61.5684,0.08962745,-2.02634,0.79108
565.483,61.6387,0.09182765,-2.02897,0.7906
566.183,61.70895,0.09344392,-2.03002,0.79011
566.883,61.77958,0.09375864,-2.03127,0.78962
567.583,61.8499,0.09630983,-2.03127,0.78913
568.283,61.92031,0.09411211,-2.03001,0.78865
568.983,61.99065,0.09509738,-2.02908,0.78816
569.683,62.06103,0.09825149,-2.02942,0.78767
570.383,62.1312,0.10028,-2.03165,0.78718
571.083,62.2014,0.09872986,-2.03446,0.78669
571.783,62.2715,0.10136,-2.03336,0.7862
572.483,62.34166,0.1062,-2.03631,0.78571
573.183,62.41166,0.10732,-2.03712,0.78522
573.883,62.48169,0.10637,-2.0356,0.78473
574.583,62.5515,0.10632,-2.03424,0.78423
575.283,62.6215,0.10842,-2.03555,0.78374
575.983,62.6908,0.10921,-2.03555,0.78325
576.683,62.7606,0.11119,-2.03556,0.78275
577.383,62.83051,0.11037,-2.03687,0.78226
578.083,62.901,0.11461,-2.03842,0.78177
578.783,62.97104,0.11666,-2.04104,0.78127
579.483,63.041,0.11823,-2.04055,0.78078
580.183,63.1111,0.11524,-2.04104,0.78028
580.883,63.1812,0.11846,-2.04245,0.77978
581.583,63.25133,0.11967,-2.04095,0.77929
582.283,63.32153,0.12198,-2.04235,0.77879
582.983,63.39159,0.12312,-2.04235,0.77829
583.683,63.46179,0.12046,-2.04368,0.77779
584.383,63.5317,0.12598,-2.04602,0.7773
585.083,63.60173,0.1283,-2.0463,0.7768
585.783,63.67145,0.12766,-2.04632,0.7763
586.483,63.74131,0.13031,-2.04623,0.7758
587.183,63.8111,0.13485,-2.04632,0.7753
587.883,63.88105,0.13759,-2.04703,0.7748
588.583,63.9509,0.1359,-2.04696,0.7743
589.283,64.02079,0.13763,-2.04841,0.77379
589.983,64.09084,0.13856,-2.05083,0.77329
590.683,64.1609,0.1412,-2.05212,0.77279
591.383,64.23085,0.14464,-2.05124,0.77229
592.083,64.30099,0.14496,-2.05157,0.77178
592.783,64.37101,0.15017,-2.05095,0.77128
593.483,64.44144,0.14998,-2.0533,0.77077
594.183,64.5115,0.15521,-2.05454,0.77027
594.883,64.5818,0.15963,-2.05592,0.76976
595.583,64.65179,0.1625,-2.05482,0.76926
596.283,64.7218,0.16523,-2.05614,0.76875
596.983,64.79177,0.17113,-2.05907,0.76824
597.683,64.86191,0.17278,-2.06243,0.76774
598.383,64.93213,0.18007,-2.06495,0.76723
599.083,65.00243,0.18376,-2.06548,0.76672
599.783,65.0725,0.19039,-2.06388,0.76621
600.483,65.14254,0.19556,-2.06517,0.7657
601.183,65.21243,0.20446,-2.06583,0.76519
601.883,65.28246,0.20734,-2.06582,0.76468
602.583,65.35237,0.21173,-2.06607,0.76417
603.283,65.4225,0.22112,-2.06573,0.76366
603.983,65.49271,0.22798,-2.06726,0.76315
604.683,65.5629,0.233,-2.06765,0.76264
605.383,65.63311,0.24274,-2.07081,0.76213
606.083,65.7033,0.24995,-2.07391,0.76162
606.783,65.7736,0.26138,-2.07776,0.7611
607.483,65.84397,0.26846,-2.07669,0.76059
608.183,65.9144,0.27839,-2.07948,0.76007
608.883,65.98486,0.28734,-2.08244,0.75956
609.583,66.0552,0.29563,-2.0824,0.75905
610.283,66.12553,0.30582,-2.08253,0.75853
610.983,66.19586,0.31305,-2.08507,0.75801
611.683,66.2661,0.32466,-2.08623,0.7575
612.383,66.33659,0.3324,-2.09056,0.75698
613.083,66.40679,0.33849,-2.09286,0.75646
613.783,66.47684,0.34476,-2.09336,0.75595
614.483,66.54695,0.3546,-2.09521,0.75543
615.183,66.6173,0.35933,-2.09594,0.75491
615.883,66.68772,0.36788,-2.09923,0.75439
616.583,66.758,0.37432,-2.10254,0.75387
617.283,66.82809,0.38074,-2.10454,0.75335
617.983,66.89829,0.38766,-2.10323,0.75283
618.683,66.96844,0.39514,-2.10455,0.75231
619.383,67.03869,0.399,-2.10586,0.75179
620.083,67.1087,0.403,-2.11016,0.75127
620.783,67.179,0.40897,-2.11432,0.75074
621.483,67.24937,0.41174,-2.11734,0.75022
622.183,67.32006,0.41488,-2.12212,0.7497
622.883,67.39062,0.41659,-2.122,0.74917
623.583,67.46106,0.41929,-2.12474,0.74865
624.283,67.5315,0.42011,-2.12889,0.74813
624.983,67.602,0.41839,-2.13162,0.7476
625.683,67.67255,0.41688,-2.13377,0.74708
626.383,67.7431,0.41896,-2.137,0.74655
627.083,67.81359,0.41971,-2.14042,0.74602
627.783,67.88414,0.4164,-2.14386,0.7455
628.483,67.9547,0.41626,-2.14685,0.74497
629.183,68.02503,0.41051,-2.14989,0.74444
629.883,68.09528,0.40477,-2.14979,0.74391
630.583,68.1655,0.40407,-2.15107,0.74339
631.283,68.23564,0.39554,-2.15387,0.74286
631.983,68.30592,0.39371,-2.1571,0.74233
632.683,68.37612,0.38703,-2.15984,0.7418
633.383,68.4466,0.38351,-2.15981,0.74127
634.083,68.51686,0.37929,-2.16247,0.74074
634.783,68.587,0.37103,-2.16487,0.7402
635.483,68.65688,0.36857,-2.16761,0.73967
636.183,68.7269,0.36336,-2.16976,0.73914
636.883,68.79711,0.36918,-2.17113,0.73861
637.583,68.86743,0.3738,-2.17107,0.73808
638.283,68.93774,0.38652,-2.17338,0.73754
638.983,69.00782,0.404,-2.17569,0.73701
639.683,69.078,0.42762,-2.17811,0.73647
640.383,69.1482,0.45059,-2.17979,0.73594
641.083,69.21854,0.47389,-2.18178,0.7354
641.783,69.2888,0.49625,-2.18549,0.73487
642.483,69.359,0.52032,-2.19108,0.73433
643.183,69.42925,0.54032,-2.19273,0.7338
643.883,69.49946,0.56239,-2.19273,0.73326
644.583,69.5698,0.58126,-2.1942,0.73272
645.283,69.64018,0.60183,-2.20017,0.73218
645.983,69.71053,0.61947,-2.2063,0.73164
646.683,69.7808,0.64129,-2.2069,0.73111
647.383,69.85121,0.66089,-2.20787,0.73057
648.083,69.92166,0.68002,-2.2115,0.73003
648.783,69.99152,0.69941,-2.21694,0.72949
649.483,70.06178,0.71846,-2.22226,0.72895
650.183,70.13199,0.73565,-2.22642,0.72841
650.883,70.20312,0.758,-2.23169,0.72786
651.583,70.27372,0.77712,-2.2359,0.72732
652.283,70.34447,0.79756,-2.23942,0.72678
652.983,70.41516,0.81507,-2.2434,0.72624
653.683,70.48586,0.83457,-2.24324,0.72569
654.383,70.55668,0.85438,-2.24662,0.72515
655.083,70.6276,0.87081,-2.25179,0.72461
655.783,70.69849,0.89097,-2.25493,0.72406
656.483,70.76943,0.90689,-2.26028,0.72352
657.183,70.84022,0.92465,-2.26511,0.72297
657.883,70.911,0.94357,-2.26843,0.72242
658.583,70.98184,0.96113,-2.27592,0.72188
659.283,71.0527,0.98066,-2.28289,0.72133
659.983,71.1236,0.99826,-2.28594,0.72078
660.683,71.19459,1.01597,-2.29134,0.72024
661.383,71.26547,1.0302,-2.29583,0.71969
662.083,71.33605,1.04745,-2.3011,0.71914
662.783,71.4067,1.06525,-2.30642,0.71859
663.483,71.47734,1.08028,-2.31165,0.71804
664.183,71.54822,1.09295,-2.31514,0.71749
664.883,71.61905,1.10558,-2.31951,0.71694
665.583,71.69006,1.1194,-2.32487,0.71639
666.283,71.76098,1.13056,-2.32904,0.71584
666.983,71.83181,1.14009,-2.33483,0.71529
667.683,71.90249,1.14925,-2.33743,0.71474
668.383,71.97301,1.1585,-2.34259,0.71419
669.083,72.04345,1.1645,-2.34945,0.71363
669.783,72.11372,1.16931,-2.35426,0.71308
670.483,72.18386,1.17363,-2.3598,0.71253
671.183,72.25399,1.17778,-2.36182,0.71197
671.883,72.32426,1.17921,-2.36648,0.71142
672.583,72.39457,1.18061,-2.37187,0.71086
673.283,72.46474,1.17903,-2.37749,0.71031
673.983,72.53466,1.18021,-2.38469,0.70975
674.683,72.60471,1.1793,-2.39145,0.70919
675.383,72.6748,1.18727,-2.39885,0.70864
676.083,72.74505,1.19447,-2.40533,0.70808
676.783,72.8153,1.20439,-2.41135,0.70752
677.483,72.88566,1.21714,-2.41553,0.70697
678.183,72.95607,1.23719,-2.42155,0.70641
678.883,73.02672,1.25858,-2.42768,0.70585
679.583,73.09737,1.28219,-2.43314,0.70529
680.283,73.16812,1.30423,-2.43775,0.70473
680.983,73.2385,1.32598,-2.44152,0.70417
681.683,73.30918,1.34924,-2.44751,0.70361
682.383,73.3799,1.37405,-2.45408,0.70305
683.083,73.45095,1.39813,-2.45759,0.70249
683.783,73.52207,1.42337,-2.4639,0.70193
684.483,73.5933,1.44795,-2.47228,0.70136
685.183,73.66454,1.4676,-2.4798,0.7008
685.883,73.7358,1.49317,-2.48512,0.70024
686.583,73.80694,1.51328,-2.49183,0.69968
687.283,73.878,1.53429,-2.49796,0.69911
687.983,73.94901,1.55289,-2.50428,0.69855
688.683,74.0201,1.57481,-2.51091,0.69798
689.383,74.09142,1.59507,-2.51867,0.69742
690.083,74.1628,1.61586,-2.5264,0.69685
690.783,74.23392,1.63564,-2.53498,0.69629
691.483,74.30502,1.65578,-2.54134,0.69572
692.183,74.37595,1.6748,-2.54904,0.69515
692.883,74.44708,1.69304,-2.55671,0.69459
693.583,74.5182,1.71377,-2.56291,0.69402
694.283,74.58936,1.73181,-2.57095,0.69345
694.983,74.6605,1.75129,-2.57722,0.69288
695.683,74.7316,1.76888,-2.58395,0.69232
696.383,74.8026,1.78655,-2.59179,0.69175
697.083,74.87369,1.80688,-2.60322,0.69118
697.783,74.94474,1.82017,-2.61187,0.69061
698.483,75.01561,1.83375,-2.61884,0.69004
699.183,75.08649,1.84851,-2.62703,0.68947
699.883,75.1574,1.86481,-2.63599,0.68889
700.583,75.22828,1.88061,-2.64496,0.68832
701.283,75.29884,1.89514,-2.65182,0.68775
701.983,75.3695,1.90588,-2.65923,0.68718
702.683,75.44018,1.91231,-2.66879,0.68661
703.383,75.51108,1.92437,-2.67819,0.68603
704.083,75.5814,1.93482,-2.68581,0.68546
704.783,75.65204,1.93804,-2.6946,0.68489
705.483,75.7225,1.94767,-2.70338,0.68431
706.183,75.79324,1.9535,-2.71136,0.68374
706.883,75.86394,1.95656,-2.72162,0.68316
707.583,75.93471,1.96119,-2.73127,0.68259
708.283,76.00538,1.96223,-2.73873,0.68201
708.983,76.07589,1.9596,-2.74865,0.68143
709.683,76.14645,1.95495,-2.75797,0.68086
710.383,76.21719,1.94893,-2.76789,0.68028
711.083,76.28778,1.94006,-2.77696,0.6797
711.783,76.35846,1.91823,-2.78484,0.67913
712.483,76.42908,1.89167,-2.7956,0.67855
713.183,76.49977,1.85759,-2.80518,0.67797
713.883,76.57041,1.80561,-2.81398,0.67739
714.583,76.641,1.73745,-2.82129,0.67681
715.283,76.71151,1.64422,-2.8279,0.67623
715.983,76.7821,1.51517,-2.83372,0.67565
716.683,76.85254,1.33624,-2.84266,0.67507
717.383,76.92317,1.00824,-2.84946,0.67449
718.083,76.99374,0.52614,-2.85235,0.67391
718.783,77.06438,0.2525,-2.85371,0.67333
719.483,77.13492,0.12774,-2.85408,0.67274
720.183,77.20554,0.06835032,-2.85363,0.67216
720.883,77.27646,0.03263606,-2.85289,0.67158
721.583,77.3475,0.01240706,-2.8537,0.671
722.283,77.4185,0.002188869,-2.85502,0.67041
722.983,77.4895,-0.009615377,-2.85632,0.66983
723.683,77.56028,-0.0126334,-2.85765,0.66924
724.383,77.631,-0.01703663,-2.85513,0.66866
725.083,77.70179,-0.02329499,-2.85502,0.66808
725.783,77.77254,-0.02450032,-2.85502,0.66749
726.483,77.84359,-0.0262063,-2.85413,0.6669
727.183,77.9144,-0.02613904,-2.85316,0.66632
727.883,77.98525,-0.02728207,-2.85625,0.66573
728.583,78.056,-0.02952895,-2.85765,0.66514
729.283,78.1266,-0.03289129,-2.85897,0.66456
729.983,78.19745,-0.02988875,-2.85764,0.66397
730.683,78.268,-0.03240315,-2.85534,0.66338
731.383,78.33872,-0.03108071,-2.85403,0.66279
732.083,78.40921,-0.03056636,-2.85409,0.6622
732.783,78.48003,-0.02985321,-2.85669,0.66162
733.483,78.55094,-0.03518743,-2.85732,0.66103
734.183,78.62186,-0.03589213,-2.85732,0.66044
734.883,78.69246,-0.0337935,-2.85835,0.65985
735.583,78.7629,-0.03551185,-2.86038,0.65926
736.283,78.8335,-0.0332351,-2.85896,0.65866
736.983,78.90429,-0.03449214,-2.85797,0.65807
737.683,78.97538,-0.03784133,-2.85935,0.65748
738.383,79.0461,-0.03903599,-2.85933,0.65689
739.083,79.11673,-0.04137567,-2.85929,0.6563
739.783,79.18728,-0.04018839,-2.8593,0.6557
740.483,79.25819,-0.03927762,-2.85666,0.65511
741.183,79.3292,-0.04154733,-2.85672,0.65452
741.883,79.40002,-0.03663063,-2.85951,0.65392
742.583,79.4709,-0.03902811,-2.8595,0.65333
743.283,79.54191,-0.03713865,-2.86017,0.65274
743.983,79.61283,-0.03805586,-2.86017,0.65214
744.683,79.68395,-0.03900375,-2.85881,0.65155
745.383,79.75519,-0.04031186,-2.85885,0.65095
746.083,79.82689,-0.04156074,-2.85886,0.65036
746.783,79.89827,-0.04014357,-2.85886,0.64976
747.483,79.96948,-0.03912229,-2.85886,0.64916
748.183,80.04066,-0.04193989,-2.86017,0.64857
748.883,80.1118,-0.04548511,-2.86111,0.64797
749.583,80.18296,-0.0409118,-2.86149,0.64737
750.283,80.25409,-0.04256801,-2.86004,0.64677
750.983,80.32536,-0.04204221,-2.86015,0.64618
751.683,80.39659,-0.04297849,-2.85887,0.64558
752.383,80.46773,-0.04524908,-2.85947,0.64498
753.083,80.53904,-0.04553227,-2.86028,0.64438
753.783,80.61001,-0.04450462,-2.86028,0.64378
754.483,80.68111,-0.04739664,-2.86028,0.64318
755.183,80.75198,-0.04374231,-2.86027,0.64258
755.883,80.82303,-0.04299841,-2.86159,0.64198
756.583,80.894,-0.03965973,-2.86028,0.64138
757.283,80.96491,-0.04055578,-2.86027,0.64078
757.983,81.036,-0.04244018,-2.86387,0.64017
758.683,81.10723,-0.04294672,-2.86423,0.63957
759.383,81.1785,-0.03743743,-2.86324,0.63897
760.083,81.2499,-0.04268689,-2.86148,0.63837
760.783,81.32123,-0.04555635,-2.86017,0.63777
761.483,81.39267,-0.04098284,-2.86017,0.63716
762.183,81.46375,-0.04329378,-2.86156,0.63656
762.883,81.535,-0.03957332,-2.86017,0.63595
763.583,81.60603,-0.04378923,-2.86,0.63535
764.283,81.6771,-0.04463783,-2.86018,0.63475
764.983,81.74794,-0.04088784,-2.86147,0.63414
765.683,81.81891,-0.04357889,-2.86149,0.63354
766.383,81.88974,-0.04524722,-2.86148,0.63293
767.083,81.96042,-0.04393201,-2.86149,0.63232
767.783,82.0309,-0.04611597,-2.86154,0.63172
768.483,82.10172,-0.0474347,-2.86051,0.63111
769.183,82.1724,-0.05008675,-2.86016,0.63051
769.883,82.24327,-0.04809156,-2.86049,0.6299
770.583,82.31387,-0.04787121,-2.86039,0.62929
771.283,82.38476,-0.04740341,-2.86039,0.62868
771.983,82.4555,-0.04886251,-2.86047,0.62808
772.683,82.52627,-0.04832959,-2.86052,0.62747
773.383,82.59707,-0.05020193,-2.86303,0.62686
774.083,82.6682,-0.04407551,-2.86313,0.62625
774.783,82.7394,-0.05246607,-2.86183,0.62564
775.483,82.81047,-0.05109085,-2.86116,0.62503
776.183,82.88131,-0.04607844,-2.8605,0.62442
776.883,82.9523,-0.04299836,-2.8634,0.62381
777.583,83.02326,-0.04373845,-2.86599,0.6232
778.283,83.09438,-0.04345422,-2.86643,0.62259
778.983,83.1653,-0.04351005,-2.86585,0.62198
779.683,83.2362,-0.04852362,-2.8639,0.62137
780.383,83.30722,-0.04467086,-2.86071,0.62076
781.083,83.37817,-0.04357836,-2.86072,0.62015
781.783,83.44904,-0.04289921,-2.85941,0.61953
782.483,83.52,-0.04312573,-2.85941,0.61892
783.183,83.59102,-0.04328372,-2.86202,0.61831
783.883,83.66209,-0.04144335,-2.86336,0.6177
784.583,83.73298,-0.04463074,-2.86294,0.61708
785.283,83.804,-0.04426112,-2.86204,0.61647
785.983,83.87521,-0.04278879,-2.86205,0.61586
786.683,83.9465,-0.04535387,-2.86073,0.61524
787.383,84.01785,-0.04540235,-2.86102,0.61463
788.083,84.0891,-0.04464404,-2.86204,0.61401
788.783,84.16043,-0.04808656,-2.86335,0.6134
789.483,84.2316,-0.0497603,-2.86335,0.61278
790.183,84.30285,-0.04636654,-2.86294,0.61217
790.883,84.3738,-0.0415276,-2.86204,0.61155
791.583,84.44503,-0.04898425,-2.86204,0.61094
792.283,84.5163,-0.04762432,-2.8622,0.61032
792.983,84.5877,-0.0476191,-2.86203,0.6097
793.683,84.6588,-0.04983324,-2.86237,0.60909
794.383,84.72981,-0.04541559,-2.86227,0.60847
795.083,84.80112,-0.04742485,-2.86245,0.60785
795.783,84.87265,-0.04897014,-2.86106,0.60723
796.483,84.94445,-0.0432812,-2.86105,0.60662
796.983,84.99523,-0.04531825,-2.86105,0.60617