File: 01_Data/Polyolefin_Carpet_Low_Pile/STA/N2/10K_min/Polyolefin_Carpet_Low_Pile_STA_N2_10KData_220703_R3.csv
##Temp./Â°C,Time/min,DSC(subtr.2)/(mW/mg),Mass loss(subtr.2)/mg,Sensit./(uV/mW)
49.706,10.00917,0.00780395,0.01448,1.07515
50.406,10.756,0.04454002,0.01829488,1.07479
51.106,10.96105,0.07484121,0.02010155,1.07442
51.806,11.11576,0.09689468,0.02348918,1.07406
52.506,11.24416,0.11406,0.02399704,1.07369
53.206,11.35816,0.13178,0.02213612,1.07333
53.906,11.46381,0.1451,0.01799988,1.07296
54.606,11.56359,0.15577,0.01847019,1.0726
55.306,11.65783,0.16576,0.02145112,1.07224
56.006,11.74922,0.17513,0.02094816,1.07187
56.706,11.83815,0.18209,0.02132284,1.07151
57.406,11.9244,0.18794,0.02117072,1.07114
58.106,12.0089,0.19531,0.02107267,1.07078
58.806,12.0923,0.20181,0.01838505,1.07041
59.506,12.17385,0.2087,0.01847983,1.07005
60.206,12.25431,0.21078,0.01806629,1.06969
60.906,12.33336,0.21587,0.01828749,1.06932
61.606,12.41192,0.21996,0.01979223,1.06896
62.306,12.491,0.22524,0.02075475,1.0686
63.006,12.56913,0.22669,0.02127788,1.06823
63.706,12.64677,0.22888,0.02144612,1.06787
64.406,12.72388,0.23207,0.02292439,1.06751
65.106,12.8005,0.23529,0.02262893,1.06714
65.806,12.8769,0.23651,0.02245061,1.06678
66.506,12.95305,0.23814,0.02130637,1.06642
67.206,13.02876,0.23975,0.01724495,1.06605
67.906,13.10421,0.24184,0.01858743,1.06569
68.606,13.1796,0.24547,0.02225807,1.06533
69.306,13.2546,0.24375,0.02504672,1.06496
70.006,13.32915,0.24798,0.02698884,1.0646
70.706,13.40385,0.24882,0.02699041,1.06424
71.406,13.4778,0.25027,0.02701209,1.06388
72.106,13.5523,0.2503,0.02597737,1.06351
72.806,13.6265,0.25028,0.02478501,1.06315
73.506,13.70101,0.2552,0.02331977,1.06279
74.206,13.77483,0.25495,0.02208849,1.06243
74.906,13.84845,0.25526,0.02073337,1.06206
75.606,13.92216,0.25929,0.0194216,1.0617
76.306,13.9955,0.26014,0.02084399,1.06134
77.006,14.06874,0.26006,0.02081578,1.06098
77.706,14.1418,0.26141,0.01951995,1.06062
78.406,14.21478,0.26108,0.01854693,1.06026
79.106,14.2875,0.26328,0.02007114,1.05989
79.806,14.36006,0.26396,0.02188325,1.05953
80.506,14.432,0.26555,0.02183874,1.05917
81.206,14.5042,0.26618,0.02077163,1.05881
81.906,14.57555,0.2673,0.02212325,1.05845
82.606,14.64754,0.26967,0.02215363,1.05809
83.306,14.7195,0.27007,0.02347008,1.05772
84.006,14.79151,0.27096,0.02345783,1.05736
84.706,14.8631,0.27174,0.02215827,1.057
85.406,14.934,0.27445,0.02219155,1.05664
86.106,15.0052,0.27557,0.02225931,1.05628
86.806,15.0763,0.27611,0.02346993,1.05592
87.506,15.1471,0.27665,0.02463848,1.05556
88.206,15.2176,0.27787,0.02354716,1.0552
88.906,15.28806,0.28013,0.02083856,1.05484
89.606,15.3582,0.28028,0.02084,1.05448
90.306,15.42844,0.28048,0.02084513,1.05412
91.006,15.49859,0.28232,0.02213954,1.05376
91.706,15.569,0.28135,0.0234695,1.0534
92.406,15.6389,0.28222,0.02378025,1.05304
93.106,15.7087,0.28535,0.02479155,1.05268
93.806,15.7782,0.28358,0.0224924,1.05232
94.506,15.84789,0.28354,0.02215939,1.05196
95.206,15.9173,0.28692,0.02216,1.0516
95.906,15.98657,0.28693,0.02216,1.05124
96.606,16.0552,0.28821,0.02218616,1.05088
97.306,16.1237,0.28706,0.02242947,1.05052
98.006,16.19221,0.28949,0.02087114,1.05016
98.706,16.26127,0.28917,0.01823277,1.0498
99.406,16.3305,0.29217,0.01689808,1.04944
100.106,16.3999,0.29218,0.01863641,1.04908
100.806,16.46888,0.29249,0.0211723,1.04872
101.506,16.53838,0.2935,0.02117269,1.04836
102.206,16.6081,0.29265,0.02248235,1.048
102.906,16.67772,0.29346,0.0237995,1.04764
103.606,16.74694,0.29507,0.02379999,1.04728
104.306,16.81566,0.29217,0.02389611,1.04692
105.006,16.8843,0.29567,0.02248043,1.04657
105.706,16.95266,0.2948,0.02116302,1.04621
106.406,17.02117,0.29496,0.01985172,1.04585
107.106,17.0899,0.29466,0.02116435,1.04549
107.806,17.15877,0.29593,0.02212526,1.04513
108.506,17.22767,0.29663,0.02306419,1.04477
109.206,17.29637,0.29691,0.02179237,1.04441
109.906,17.36492,0.29824,0.02384966,1.04406
110.606,17.43338,0.29697,0.02435043,1.0437
111.306,17.50198,0.29941,0.02380002,1.04334
112.006,17.57085,0.30006,0.02277629,1.04298
112.706,17.6394,0.30078,0.02281901,1.04262
113.406,17.70818,0.30112,0.02149951,1.04226
114.106,17.7765,0.30186,0.01987223,1.04191
114.806,17.84487,0.30286,0.01996678,1.04155
115.506,17.91315,0.30514,0.02019883,1.04119
116.206,17.9817,0.30495,0.02207666,1.04083
116.906,18.0503,0.30585,0.02281002,1.04048
117.606,18.11885,0.3052,0.02281644,1.04012
118.306,18.1871,0.30545,0.02386956,1.03976
119.006,18.2551,0.30734,0.0239161,1.0394
119.706,18.3232,0.30796,0.02470603,1.03905
120.406,18.3913,0.30751,0.02358006,1.03869
121.106,18.4596,0.30992,0.02358047,1.03833
121.806,18.52768,0.31147,0.02226592,1.03798
122.506,18.59607,0.30995,0.02348537,1.03762
123.206,18.6642,0.31045,0.02490003,1.03726
123.906,18.73255,0.30845,0.0249,1.0369
124.606,18.80053,0.31074,0.02490182,1.03655
125.306,18.86876,0.31183,0.02358013,1.03619
126.006,18.93656,0.31355,0.02357975,1.03583
126.706,19.00443,0.31449,0.02494659,1.03548
127.406,19.07231,0.31456,0.0249,1.03512
128.106,19.14025,0.31894,0.02489964,1.03476
128.806,19.20798,0.31751,0.0235885,1.03441
129.506,19.27611,0.31567,0.02375286,1.03405
130.206,19.34405,0.31672,0.0245681,1.03369
130.906,19.41208,0.32064,0.02312106,1.03334
131.606,19.47982,0.32144,0.02194002,1.03298
132.306,19.5476,0.32327,0.02192188,1.03263
133.006,19.6156,0.32362,0.02193518,1.03227
133.706,19.6834,0.32576,0.02324492,1.03191
134.406,19.75111,0.32574,0.02475897,1.03156
135.106,19.81866,0.32808,0.02468224,1.0312
135.806,19.8865,0.33012,0.02247059,1.03085
136.506,19.95425,0.33222,0.02203995,1.03049
137.206,20.02232,0.33168,0.02190018,1.03014
137.906,20.09,0.33481,0.02073398,1.02978
138.606,20.15772,0.33766,0.02205014,1.02942
139.306,20.22499,0.33797,0.02205,1.02907
140.006,20.29276,0.3383,0.02204981,1.02871
140.706,20.36064,0.34006,0.02340437,1.02836
141.406,20.42884,0.3424,0.02479696,1.028
142.106,20.49654,0.34718,0.02445837,1.02765
142.806,20.56416,0.34912,0.02303484,1.02729
143.506,20.6318,0.34831,0.02303,1.02694
144.206,20.69963,0.35502,0.02303,1.02658
144.906,20.7672,0.35722,0.02303,1.02623
145.606,20.83471,0.36142,0.02304146,1.02587
146.306,20.90233,0.36518,0.02270836,1.02552
147.006,20.96996,0.37032,0.02271,1.02516
147.706,21.03745,0.37689,0.02271049,1.02481
148.406,21.10484,0.3833,0.02304933,1.02445
149.106,21.17215,0.38913,0.02232954,1.0241
149.806,21.23961,0.3974,0.02167575,1.02374
150.506,21.30694,0.40544,0.01853315,1.02339
151.206,21.37424,0.41283,0.01799148,1.02303
151.906,21.44146,0.42208,0.01927487,1.02268
152.606,21.50889,0.43319,0.02061995,1.02232
153.306,21.57625,0.44173,0.0205281,1.02197
154.006,21.64355,0.45452,0.02114779,1.02162
154.706,21.7108,0.47013,0.02062187,1.02126
155.406,21.77832,0.48702,0.01931028,1.02091
156.106,21.84608,0.50657,0.01930974,1.02055
156.806,21.91356,0.52334,0.0206714,1.0202
157.506,21.98123,0.54555,0.02062167,1.01984
158.206,22.04889,0.566,0.01840251,1.01949
158.906,22.11661,0.59078,0.02040065,1.01914
159.606,22.1838,0.6115,0.02171819,1.01878
160.306,22.25127,0.63352,0.021717,1.01843
161.006,22.31883,0.65977,0.02304026,1.01807
161.706,22.3868,0.6803,0.02435519,1.01772
162.406,22.45459,0.70716,0.02302954,1.01737
163.106,22.52226,0.72601,0.02302995,1.01701
163.806,22.58986,0.74437,0.02231284,1.01666
164.506,22.6572,0.75589,0.02176199,1.0163
165.206,22.72471,0.7573,0.01898883,1.01595
165.906,22.79212,0.7489,0.02040047,1.0156
166.606,22.85952,0.72481,0.02040002,1.01524
167.306,22.92711,0.68784,0.01944817,1.01489
168.006,22.99428,0.64165,0.02066699,1.01454
168.706,23.06135,0.58719,0.02073,1.01418
169.406,23.1284,0.54057,0.02073,1.01383
170.106,23.1956,0.49764,0.02076566,1.01348
170.806,23.2628,0.46311,0.02042388,1.01312
171.506,23.3297,0.43741,0.0200791,1.01277
172.206,23.3964,0.41674,0.0195219,1.01242
172.906,23.46301,0.4025,0.02170584,1.01206
173.606,23.52949,0.38997,0.02172101,1.01171
174.306,23.59607,0.38124,0.02236881,1.01136
175.006,23.66265,0.37576,0.02300143,1.011
175.706,23.7289,0.37072,0.02173452,1.01065
176.406,23.79549,0.36916,0.02041048,1.0103
177.106,23.86213,0.36784,0.01909203,1.00994
177.806,23.92865,0.36485,0.02040033,1.00959
178.506,23.99492,0.36463,0.01946284,1.00924
179.206,24.06105,0.36576,0.01908997,1.00888
179.906,24.12779,0.36538,0.01909062,1.00853
180.606,24.19444,0.36413,0.01841561,1.00818
181.306,24.2616,0.36359,0.01908833,1.00783
182.006,24.32863,0.36489,0.02039929,1.00747
182.706,24.3954,0.36202,0.01909111,1.00712
183.406,24.46187,0.36471,0.01909007,1.00677
184.106,24.52825,0.36709,0.01998793,1.00641
184.806,24.59528,0.36615,0.02043482,1.00606
185.506,24.66264,0.36388,0.0204,1.00571
186.206,24.72999,0.3656,0.0204,1.00535
186.906,24.79717,0.36397,0.0204,1.005
187.606,24.86405,0.3644,0.02042366,1.00465
188.306,24.93095,0.36462,0.02170998,1.0043
189.006,24.9978,0.36504,0.02035269,1.00394
189.706,25.0644,0.3672,0.02029003,1.00359
190.406,25.1313,0.36651,0.02064989,1.00324
191.106,25.19819,0.36462,0.0205731,1.00289
191.806,25.265,0.36703,0.02160859,1.00253
192.506,25.33166,0.36753,0.01843728,1.00218
193.206,25.39835,0.36705,0.01799001,1.00183
193.906,25.4652,0.3675,0.01799724,1.00147
194.606,25.53206,0.36807,0.016433,1.00112
195.306,25.5989,0.36739,0.01647284,1.00077
196.006,25.66554,0.36903,0.01679046,1.00042
196.706,25.73236,0.37179,0.01679,1.00006
197.406,25.79907,0.37026,0.01679,0.99971
198.106,25.86591,0.37178,0.01668954,0.99936
198.806,25.9327,0.37056,0.01676139,0.99901
199.506,25.9997,0.37275,0.01547003,0.99865
200.206,26.0665,0.37484,0.01547025,0.9983
200.906,26.1333,0.37354,0.01410854,0.99795
201.606,26.19996,0.37416,0.01679244,0.9976
202.306,26.26655,0.37648,0.0167909,0.99724
203.006,26.33318,0.37407,0.01808609,0.99689
203.706,26.39985,0.37649,0.01810165,0.99654
204.406,26.46653,0.37542,0.01942199,0.99618
205.106,26.53312,0.37513,0.01942,0.99583
205.806,26.5997,0.37548,0.01941879,0.99548
206.506,26.6662,0.37484,0.01680196,0.99513
207.206,26.73276,0.37621,0.01677997,0.99477
207.906,26.7994,0.37699,0.01643989,0.99442
208.606,26.8662,0.37732,0.0154447,0.99407
209.306,26.93285,0.37634,0.01656546,0.99372
210.006,26.9996,0.37929,0.01546335,0.99336
210.706,27.06597,0.37696,0.01678175,0.99301
211.406,27.13275,0.37684,0.01809807,0.99266
212.106,27.19952,0.37872,0.0181013,0.99231
212.806,27.2662,0.37735,0.01941029,0.99195
213.506,27.3331,0.37927,0.01941,0.9916
214.206,27.3998,0.37814,0.01940989,0.99125
214.906,27.46637,0.37857,0.01807179,0.99089
215.606,27.53299,0.37682,0.01498777,0.99054
216.306,27.5994,0.38014,0.01282632,0.99019
217.006,27.66617,0.38109,0.0128445,0.98984
217.706,27.7329,0.38229,0.01283512,0.98948
218.406,27.79965,0.38288,0.01151987,0.98913
219.106,27.8665,0.38113,0.01151976,0.98878
219.806,27.93318,0.38061,0.0130041,0.98842
220.506,28.00003,0.3828,0.01293616,0.98807
221.206,28.06686,0.38295,0.01293244,0.98772
221.906,28.13363,0.38071,0.01297451,0.98737
222.606,28.2001,0.37987,0.01430946,0.98701
223.306,28.2667,0.38172,0.01276173,0.98666
224.006,28.3334,0.38177,0.01355672,0.98631
224.706,28.40038,0.38262,0.01338079,0.98595
225.406,28.46702,0.38289,0.01140504,0.9856
226.106,28.5336,0.38307,0.01141,0.98525
226.806,28.6003,0.38286,0.01141,0.98489
227.506,28.667,0.38689,0.01141,0.98454
228.206,28.7339,0.3865,0.01141727,0.98419
228.906,28.80054,0.38618,0.01140098,0.98383
229.606,28.8674,0.38542,0.01140736,0.98348
230.306,28.9338,0.38725,0.01283448,0.98313
231.006,29.00044,0.38588,0.01413522,0.98277
231.706,29.06728,0.38881,0.01547263,0.98242
232.406,29.1344,0.38778,0.0167312,0.98207
233.106,29.2015,0.38702,0.01679,0.98171
233.806,29.26855,0.38826,0.01679,0.98136
234.506,29.33555,0.3866,0.01684545,0.98101
235.206,29.40258,0.3865,0.01320713,0.98065
235.906,29.4693,0.38595,0.01415595,0.9803
236.606,29.53606,0.38859,0.01349515,0.97995
237.306,29.6029,0.38727,0.009919616,0.97959
238.006,29.6699,0.38817,0.0103456,0.97924
238.706,29.73681,0.38814,0.01167444,0.97888
239.406,29.80368,0.38827,0.01298979,0.97853
240.106,29.87057,0.38762,0.01294002,0.97818
240.806,29.9374,0.39012,0.01283589,0.97782
241.506,30.00439,0.38867,0.01284048,0.97747
242.206,30.07167,0.38868,0.01151348,0.97711
242.906,30.13921,0.38834,0.01283018,0.97676
243.606,30.20658,0.38538,0.01283,0.97641
244.306,30.27399,0.38612,0.01283,0.97605
245.006,30.34147,0.38593,0.01283,0.9757
245.706,30.40917,0.38511,0.01283,0.97534
246.406,30.4765,0.38363,0.01151099,0.97499
247.106,30.54415,0.38415,0.01150987,0.97463
247.806,30.61141,0.3838,0.01022192,0.97428
248.506,30.6789,0.38432,0.0102,0.97392
249.206,30.74607,0.38494,0.0102,0.97357
249.906,30.81345,0.38501,0.0102,0.97322
250.606,30.88085,0.38644,0.0102,0.97286
251.306,30.94828,0.38568,0.01021166,0.97251
252.006,31.0155,0.38522,0.0115199,0.97215
252.706,31.08255,0.38373,0.01152002,0.9718
253.406,31.14945,0.38485,0.01150295,0.97144
254.106,31.2166,0.38659,0.01020044,0.97109
254.806,31.2839,0.38677,0.00887346,0.97073
255.506,31.3514,0.38616,0.00889615,0.97037
256.206,31.41882,0.38786,0.01020991,0.97002
256.906,31.48552,0.38803,0.008975211,0.96966
257.606,31.55214,0.38801,0.00623647,0.96931
258.306,31.619,0.38885,0.004932489,0.96895
259.006,31.68607,0.38921,0.007828857,0.9686
259.706,31.7533,0.39286,0.008879949,0.96824
260.406,31.8201,0.39163,0.00887222,0.96789
261.106,31.8871,0.39061,0.008885244,0.96753
261.806,31.9541,0.39068,0.008945734,0.96717
262.506,32.02084,0.39303,0.009521384,0.96682
263.206,32.08715,0.39308,0.00953888,0.96646
263.906,32.15339,0.39294,0.008874932,0.96611
264.606,32.2196,0.39542,0.007543579,0.96575
265.306,32.28624,0.39532,0.004937891,0.96539
266.006,32.35335,0.39705,0.004929996,0.96504
266.706,32.42068,0.3955,0.004938297,0.96468
267.406,32.488,0.39409,0.006158284,0.96432
268.106,32.5548,0.39716,0.00625072,0.96397
268.806,32.62172,0.39497,0.00657543,0.96361
269.506,32.68807,0.39563,0.005269386,0.96325
270.206,32.75431,0.39642,0.00378155,0.9629
270.906,32.82108,0.39639,0.003840005,0.96254
271.606,32.88825,0.40029,0.00384,0.96218
272.306,32.95584,0.39729,0.00384,0.96182
273.006,33.02303,0.39747,0.003839898,0.96147
273.706,33.09,0.39679,0.002531057,0.96111
274.406,33.1571,0.39662,0.002521614,0.96075
275.106,33.22397,0.39568,0.003838287,0.96039
275.806,33.29043,0.3958,0.004604396,0.96004
276.506,33.35706,0.39769,0.00650807,0.95968
277.206,33.42419,0.3956,0.003833725,0.95932
277.906,33.49176,0.39662,0.005147188,0.95896
278.606,33.55914,0.39367,0.005159557,0.9586
279.306,33.62623,0.3961,0.002534659,0.95825
280.006,33.69342,0.3968,0.00383989,0.95789
280.706,33.7607,0.39673,0.003754848,0.95753
281.406,33.82793,0.39485,0.003822114,0.95717
282.106,33.89501,0.39358,0.001962725,0.95681
282.806,33.96217,0.39402,0.001204242,0.95645
283.506,34.02924,0.39286,-0.000109711,0.95609
284.206,34.09652,0.39467,0.001186077,0.95573
284.906,34.16372,0.39478,-0.0001098727,0.95537
285.606,34.23097,0.39291,-0.0001100001,0.95502
286.306,34.29803,0.39281,-0.0001101743,0.95466
287.006,34.36517,0.39687,-0.001086922,0.9543
287.706,34.4321,0.39593,-0.0011004,0.95394
288.406,34.4989,0.39569,-0.00142961,0.95358
289.106,34.5659,0.39837,-0.00142987,0.95322
289.806,34.63299,0.39801,-0.0002168274,0.95286
290.506,34.7003,0.39819,-0.00108934,0.9525
291.206,34.76742,0.39552,-0.00109,0.95214
291.906,34.8346,0.39812,-0.001089869,0.95178
292.606,34.90152,0.39644,4.857073e-05,0.95142
293.306,34.96832,0.39619,0.000219998,0.95105
294.006,35.03505,0.39764,0.000220013,0.95069
294.706,35.10218,0.39691,0.0001306188,0.95033
295.406,35.1693,0.40098,-0.000110001,0.94997
296.106,35.2363,0.39931,-0.0001075205,0.94961
296.806,35.30317,0.39811,-0.00240918,0.94925
297.506,35.3701,0.40306,-0.00244152,0.94889
298.206,35.43715,0.39958,-0.003730106,0.94853
298.906,35.50412,0.39949,-0.00373012,0.94816
299.606,35.57101,0.40135,-0.00452386,0.9478
300.306,35.63798,0.40351,-0.00373041,0.94744
301.006,35.70499,0.40336,-0.004062038,0.94708
301.706,35.7721,0.40164,-0.005474294,0.94672
302.406,35.83913,0.40248,-0.006690039,0.94635
303.106,35.9063,0.40073,-0.0079611,0.94599
303.806,35.97341,0.3999,-0.008120028,0.94563
304.506,36.04031,0.40071,-0.008109369,0.94527
305.206,36.1073,0.40354,-0.009470519,0.9449
305.906,36.17408,0.40253,-0.01078914,0.94454
306.606,36.24112,0.40267,-0.01268194,0.94418
307.306,36.30805,0.40311,-0.01254607,0.94381
308.006,36.3746,0.39983,-0.01117756,0.94345
308.706,36.44161,0.40312,-0.00967256,0.94308
309.406,36.50846,0.40119,-0.008812971,0.94272
310.106,36.57547,0.39861,-0.00746065,0.94236
310.806,36.64248,0.4039,-0.005811381,0.94199
311.506,36.70964,0.40034,-0.004500418,0.94163
312.206,36.77697,0.39898,-0.004478267,0.94126
312.906,36.84418,0.4008,-0.003180985,0.9409
313.606,36.91127,0.40049,-0.004669266,0.94053
314.306,36.97869,0.40221,-0.0087812,0.94017
315.006,37.04523,0.40319,-0.01138823,0.9398
315.706,37.11244,0.4025,-0.0114,0.93944
316.406,37.17931,0.40121,-0.01140015,0.93907
317.106,37.24718,0.40203,-0.01071004,0.93871
317.806,37.31446,0.40196,-0.009452853,0.93834
318.506,37.38205,0.39986,-0.01075654,0.93797
319.206,37.44943,0.40098,-0.01075,0.93761
319.906,37.5169,0.40349,-0.01116164,0.93724
320.606,37.58413,0.39921,-0.01181087,0.93687
321.306,37.65139,0.40197,-0.00998157,0.93651
322.006,37.71852,0.40169,-0.0105863,0.93614
322.706,37.78573,0.40503,-0.01253078,0.93577
323.406,37.85268,0.4032,-0.01656792,0.93541
324.106,37.92004,0.40373,-0.01940165,0.93504
324.806,37.98745,0.40364,-0.01809883,0.93467
325.506,38.0552,0.4027,-0.01671324,0.9343
326.206,38.12255,0.4033,-0.01679001,0.93394
326.906,38.18994,0.40495,-0.01679025,0.93357
327.606,38.2573,0.40254,-0.01613252,0.9332
328.306,38.325,0.40159,-0.015968,0.93283
329.006,38.39262,0.40053,-0.01547096,0.93246
329.706,38.4604,0.40404,-0.01810267,0.93209
330.406,38.52794,0.40495,-0.01936477,0.93172
331.106,38.59554,0.40486,-0.01822966,0.93135
331.806,38.6631,0.40378,-0.01942064,0.93098
332.506,38.73056,0.4051,-0.02072497,0.93061
333.206,38.79815,0.40398,-0.02205068,0.93024
333.906,38.86594,0.40561,-0.02204288,0.92987
334.606,38.93363,0.40572,-0.02473608,0.9295
335.306,39.00111,0.41217,-0.02468847,0.92913
336.006,39.0687,0.40756,-0.02694899,0.92876
336.706,39.13626,0.40835,-0.0274554,0.92839
337.406,39.20408,0.40947,-0.02911331,0.92802
338.106,39.27167,0.40634,-0.02962003,0.92765
338.806,39.33927,0.40802,-0.02962,0.92728
339.506,39.40683,0.4081,-0.02961999,0.92691
340.206,39.47435,0.40546,-0.02979299,0.92653
340.906,39.5422,0.40258,-0.0297016,0.92616
341.606,39.60996,0.40225,-0.02993916,0.92579
342.306,39.67775,0.40326,-0.03259847,0.92542
343.006,39.7453,0.4025,-0.03358291,0.92505
343.706,39.81299,0.40165,-0.03374086,0.92467
344.406,39.88062,0.40141,-0.0335463,0.9243
345.106,39.94851,0.40079,-0.03487989,0.92393
345.806,40.0163,0.40263,-0.03481261,0.92355
346.506,40.0841,0.40241,-0.03580099,0.92318
347.206,40.15143,0.40322,-0.03681697,0.9228
347.906,40.2185,0.40393,-0.03817026,0.92243
348.606,40.28561,0.40243,-0.03907285,0.92206
349.306,40.35309,0.40321,-0.03882492,0.92168
350.006,40.42074,0.4019,-0.03959896,0.92131
350.706,40.489,0.4036,-0.0423246,0.92093
351.406,40.55738,0.40264,-0.04534123,0.92056
352.106,40.6258,0.40281,-0.04683871,0.92018
352.806,40.69392,0.40175,-0.04359025,0.9198
353.506,40.7618,0.40315,-0.04358609,0.91943
354.206,40.8296,0.40143,-0.04434801,0.91905
354.906,40.8972,0.40134,-0.04824391,0.91868
355.606,40.96513,0.40477,-0.05396014,0.9183
356.306,41.0331,0.40383,-0.05908783,0.91792
357.006,41.10134,0.40592,-0.06164325,0.91754
357.706,41.16943,0.40509,-0.06649376,0.91717
358.406,41.23762,0.40737,-0.06611225,0.91679
359.106,41.30554,0.40797,-0.05985102,0.91641
359.806,41.37368,0.40868,-0.05977999,0.91603
360.506,41.44178,0.41131,-0.05978721,0.91566
361.206,41.50987,0.41121,-0.06187818,0.91528
361.906,41.57776,0.4134,-0.06694085,0.9149
362.606,41.6455,0.415,-0.06833031,0.91452
363.306,41.7134,0.41381,-0.06853234,0.91414
364.006,41.78138,0.41779,-0.07064595,0.91376
364.706,41.84924,0.41871,-0.07194972,0.91338
365.406,41.91729,0.42329,-0.07328928,0.913
366.106,41.9852,0.42321,-0.07590492,0.91262
366.806,42.0533,0.42501,-0.07829521,0.91224
367.506,42.1213,0.42719,-0.07964631,0.91186
368.206,42.18912,0.42921,-0.08094546,0.91148
368.906,42.25697,0.43182,-0.08287855,0.9111
369.606,42.3247,0.43197,-0.08521184,0.91071
370.306,42.3926,0.43525,-0.08865521,0.91033
371.006,42.46076,0.43583,-0.09048178,0.90995
371.706,42.52858,0.43717,-0.09191287,0.90957
372.406,42.59682,0.44128,-0.09493654,0.90919
373.106,42.6648,0.44251,-0.10061,0.9088
373.806,42.73332,0.44554,-0.10093,0.90842
374.506,42.80168,0.4461,-0.10389,0.90804
375.206,42.86978,0.44801,-0.10672,0.90765
375.906,42.9379,0.45114,-0.10805,0.90727
376.606,43.006,0.45255,-0.10946,0.90689
377.306,43.07452,0.45547,-0.11075,0.9065
378.006,43.1427,0.4575,-0.11174,0.90612
378.706,43.2107,0.46275,-0.11371,0.90573
379.406,43.2788,0.46664,-0.12292,0.90535
380.106,43.34704,0.46754,-0.13081,0.90496
380.806,43.4152,0.47333,-0.13233,0.90458
381.506,43.48337,0.47535,-0.13717,0.90419
382.206,43.5514,0.4788,-0.1413,0.9038
382.906,43.61962,0.48121,-0.14292,0.90342
383.606,43.68772,0.48089,-0.14577,0.90303
384.306,43.75594,0.48471,-0.14728,0.90264
385.006,43.82417,0.48924,-0.14987,0.90226
385.706,43.8923,0.49117,-0.15165,0.90187
386.406,43.9604,0.49419,-0.15581,0.90148
387.106,44.02836,0.49389,-0.16087,0.90109
387.806,44.09645,0.49803,-0.16485,0.9007
388.506,44.16483,0.50137,-0.17124,0.90031
389.206,44.2331,0.50333,-0.17813,0.89993
389.906,44.30148,0.50864,-0.18225,0.89954
390.606,44.36958,0.51031,-0.18702,0.89915
391.306,44.43777,0.51278,-0.19057,0.89876
392.006,44.5055,0.51566,-0.19194,0.89837
392.706,44.57329,0.51847,-0.19516,0.89798
393.406,44.64121,0.52035,-0.20085,0.89759
394.106,44.7095,0.52249,-0.20789,0.89719
394.806,44.7783,0.52688,-0.21538,0.8968
395.506,44.84721,0.527,-0.21772,0.89641
396.206,44.91608,0.53078,-0.21707,0.89602
396.906,44.98485,0.53438,-0.22655,0.89563
397.606,45.05342,0.53764,-0.23304,0.89524
398.306,45.12184,0.54192,-0.2384,0.89484
399.006,45.19021,0.54678,-0.24227,0.89445
399.706,45.2584,0.54806,-0.24903,0.89406
400.406,45.3269,0.55389,-0.25513,0.89366
401.106,45.39526,0.55553,-0.26077,0.89327
401.806,45.46367,0.55784,-0.26466,0.89287
402.506,45.5319,0.56301,-0.26976,0.89248
403.206,45.60015,0.56295,-0.2766,0.89208
403.906,45.6685,0.56879,-0.28283,0.89169
404.606,45.73701,0.57135,-0.28749,0.89129
405.306,45.80555,0.57579,-0.29341,0.8909
406.006,45.87401,0.57953,-0.29952,0.8905
406.706,45.9424,0.58217,-0.30611,0.89011
407.406,46.0109,0.58392,-0.3138,0.88971
408.106,46.07943,0.58805,-0.31943,0.88931
408.806,46.1479,0.59031,-0.32768,0.88892
409.506,46.21624,0.59591,-0.33512,0.88852
410.206,46.28474,0.59489,-0.34114,0.88812
410.906,46.35344,0.59827,-0.34851,0.88772
411.606,46.42196,0.60406,-0.3574,0.88732
412.306,46.49048,0.60325,-0.36549,0.88692
413.006,46.55905,0.60638,-0.36799,0.88652
413.706,46.62764,0.61464,-0.37326,0.88613
414.406,46.69618,0.61568,-0.38153,0.88573
415.106,46.76466,0.62005,-0.3909,0.88533
415.806,46.833,0.62352,-0.39792,0.88492
416.506,46.90143,0.62621,-0.40597,0.88452
417.206,46.96972,0.63253,-0.41535,0.88412
417.906,47.03822,0.63763,-0.42408,0.88372
418.606,47.10672,0.64036,-0.42961,0.88332
419.306,47.1753,0.64407,-0.44078,0.88292
420.006,47.2434,0.64704,-0.44827,0.88252
420.706,47.31163,0.65136,-0.45589,0.88211
421.406,47.37986,0.65572,-0.46363,0.88171
422.106,47.4484,0.66165,-0.47319,0.88131
422.806,47.5169,0.666,-0.48229,0.8809
423.506,47.5854,0.67087,-0.49599,0.8805
424.206,47.6532,0.67512,-0.50291,0.88009
424.906,47.72141,0.67952,-0.51118,0.87969
425.606,47.7896,0.68465,-0.52258,0.87928
426.306,47.85838,0.68772,-0.53529,0.87888
427.006,47.92689,0.69196,-0.5454,0.87847
427.706,47.99553,0.6974,-0.55489,0.87807
428.406,48.06407,0.703,-0.56422,0.87766
429.106,48.13256,0.70815,-0.57492,0.87725
429.806,48.20075,0.71476,-0.58362,0.87685
430.506,48.26919,0.71978,-0.59581,0.87644
431.206,48.33777,0.72374,-0.6078,0.87603
431.906,48.40658,0.73135,-0.62193,0.87562
432.606,48.47537,0.73579,-0.63654,0.87522
433.306,48.5441,0.74132,-0.6466,0.87481
434.006,48.61242,0.74693,-0.65938,0.8744
434.706,48.6813,0.75127,-0.66897,0.87399
435.406,48.75027,0.75663,-0.68364,0.87358
436.106,48.81969,0.76384,-0.69418,0.87317
436.806,48.88811,0.76824,-0.71489,0.87276
437.506,48.95643,0.77372,-0.72754,0.87235
438.206,49.02479,0.78238,-0.7365,0.87194
438.906,49.09339,0.78563,-0.74624,0.87152
439.606,49.16247,0.79131,-0.76216,0.87111
440.306,49.23144,0.79629,-0.78126,0.8707
441.006,49.30065,0.80139,-0.79713,0.87029
441.706,49.37017,0.80551,-0.81284,0.86987
442.406,49.43972,0.81117,-0.82753,0.86946
443.106,49.50927,0.81547,-0.84077,0.86905
443.806,49.57845,0.82326,-0.85981,0.86863
444.506,49.64754,0.82812,-0.87788,0.86822
445.206,49.71654,0.83171,-0.89332,0.8678
445.906,49.78567,0.835,-0.9115,0.86739
446.606,49.85484,0.84082,-0.93036,0.86697
447.306,49.92393,0.84725,-0.9486,0.86656
448.006,49.99283,0.85182,-0.96657,0.86614
448.706,50.06156,0.85479,-0.98526,0.86572
449.406,50.13041,0.86064,-1.00317,0.86531
450.106,50.1992,0.86498,-1.02295,0.86489
450.806,50.26818,0.86499,-1.04421,0.86447
451.506,50.33703,0.8701,-1.06161,0.86405
452.206,50.40583,0.87397,-1.07773,0.86364
452.906,50.47464,0.87492,-1.1003,0.86322
453.606,50.54345,0.8775,-1.12475,0.8628
454.306,50.61244,0.87758,-1.1469,0.86238
455.006,50.68141,0.87976,-1.16605,0.86196
455.706,50.7504,0.87971,-1.18701,0.86154
456.406,50.81906,0.87736,-1.20948,0.86112
457.106,50.8876,0.87926,-1.22869,0.8607
457.806,50.95615,0.87714,-1.25016,0.86028
458.506,51.0248,0.87556,-1.27414,0.85985
459.206,51.09352,0.87204,-1.29686,0.85943
459.906,51.1623,0.86973,-1.31787,0.85901
460.606,51.2312,0.86646,-1.34308,0.85859
461.306,51.30007,0.86086,-1.36731,0.85816
462.006,51.36906,0.85649,-1.39034,0.85774
462.706,51.43789,0.84924,-1.41223,0.85732
463.406,51.50676,0.84394,-1.43562,0.85689
464.106,51.57563,0.83461,-1.45961,0.85647
464.806,51.64445,0.82506,-1.47951,0.85604
465.506,51.71338,0.81187,-1.50281,0.85562
466.206,51.78208,0.80018,-1.52812,0.85519
466.906,51.85106,0.78842,-1.54925,0.85476
467.606,51.91993,0.77104,-1.57083,0.85434
468.306,51.98892,0.75415,-1.59084,0.85391
469.006,52.05793,0.73736,-1.61068,0.85348
469.706,52.12696,0.72071,-1.63036,0.85306
470.406,52.19593,0.70371,-1.65093,0.85263
471.106,52.26486,0.68628,-1.67212,0.8522
471.806,52.33397,0.66514,-1.69243,0.85177
472.506,52.4031,0.64616,-1.71127,0.85134
473.206,52.4723,0.62104,-1.72892,0.85091
473.906,52.5414,0.60124,-1.74737,0.85048
474.606,52.61042,0.57629,-1.76321,0.85005
475.306,52.6794,0.54693,-1.78147,0.84962
476.006,52.7484,0.51336,-1.79651,0.84919
476.706,52.8174,0.48114,-1.80832,0.84876
477.406,52.8863,0.44883,-1.82203,0.84832
478.106,52.9552,0.41274,-1.83187,0.84789
478.806,53.0242,0.37502,-1.83946,0.84746
479.506,53.09344,0.34388,-1.84526,0.84702
480.206,53.1626,0.3133,-1.8508,0.84659
480.906,53.2318,0.28718,-1.85477,0.84616
481.606,53.30076,0.26664,-1.85778,0.84572
482.306,53.36991,0.24698,-1.86165,0.84529
483.006,53.439,0.23144,-1.86574,0.84485
483.706,53.50819,0.21955,-1.86796,0.84442
484.406,53.57742,0.20625,-1.87068,0.84398
485.106,53.64676,0.19917,-1.87342,0.84354
485.806,53.7162,0.19041,-1.87344,0.84311
486.506,53.78556,0.18537,-1.87344,0.84267
487.206,53.85501,0.18272,-1.87344,0.84223
487.906,53.9244,0.17917,-1.87341,0.84179
488.606,53.99383,0.1776,-1.87342,0.84135
489.306,54.06315,0.17664,-1.87402,0.84092
490.006,54.13253,0.17772,-1.87372,0.84048
490.706,54.20185,0.18427,-1.87359,0.84004
491.406,54.2711,0.19114,-1.87344,0.8396
492.106,54.34044,0.19245,-1.87475,0.83916
492.806,54.40964,0.20084,-1.87476,0.83871
493.506,54.47849,0.20712,-1.87476,0.83827
494.206,54.54719,0.20812,-1.87345,0.83783
494.906,54.6165,0.20517,-1.87335,0.83739
495.606,54.6863,0.2044,-1.87488,0.83695
496.306,54.75617,0.20251,-1.87579,0.8365
497.006,54.8256,0.19188,-1.87338,0.83606
497.706,54.8951,0.18593,-1.87332,0.83562
498.406,54.9646,0.18142,-1.87334,0.83517
499.106,55.0343,0.17808,-1.87455,0.83473
499.806,55.10409,0.17425,-1.87779,0.83428
500.506,55.17405,0.17151,-1.88497,0.83384
501.206,55.2438,0.16174,-1.89016,0.83339
501.906,55.3134,0.15204,-1.8829,0.83294
502.606,55.38287,0.1488,-1.87697,0.8325
503.306,55.4526,0.14751,-1.87817,0.83205
504.006,55.52225,0.14855,-1.87817,0.8316
504.706,55.59169,0.14671,-1.87673,0.83115
505.406,55.66114,0.14841,-1.87564,0.83071
506.106,55.7306,0.14556,-1.88125,0.83026
506.806,55.8002,0.14574,-1.88397,0.82981
507.506,55.8697,0.14597,-1.88261,0.82936
508.206,55.9391,0.14359,-1.88111,0.82891
508.906,56.00852,0.14081,-1.88112,0.82846
509.606,56.0778,0.14669,-1.8822,0.82801
510.306,56.14725,0.14312,-1.88121,0.82755
511.006,56.21674,0.14762,-1.88111,0.8271
511.706,56.28631,0.14535,-1.88243,0.82665
512.406,56.356,0.14137,-1.88246,0.8262
513.106,56.4255,0.14304,-1.8821,0.82574
513.806,56.4949,0.14333,-1.8821,0.82529
514.506,56.5644,0.1449,-1.88084,0.82484
515.206,56.63386,0.14605,-1.88078,0.82438
515.906,56.7034,0.14187,-1.88071,0.82393
516.606,56.7727,0.14277,-1.87982,0.82347
517.306,56.84211,0.13837,-1.88263,0.82302
518.006,56.9117,0.13994,-1.88391,0.82256
518.706,56.9813,0.14015,-1.88387,0.8221
519.406,57.0511,0.14344,-1.8832,0.82165
520.106,57.12065,0.14001,-1.88431,0.82119
520.806,57.19034,0.14038,-1.88612,0.82073
521.506,57.2599,0.14077,-1.88617,0.82027
522.206,57.3294,0.14234,-1.88462,0.81981
522.906,57.399,0.14197,-1.87968,0.81936
523.606,57.46853,0.1416,-1.87838,0.8189
524.306,57.53804,0.14176,-1.87969,0.81844
525.006,57.60755,0.14476,-1.87992,0.81798
525.706,57.67702,0.14005,-1.88445,0.81751
526.406,57.74658,0.14756,-1.88812,0.81705
527.106,57.81598,0.14627,-1.89131,0.81659
527.806,57.88559,0.14709,-1.89102,0.81613
528.506,57.9552,0.14603,-1.88981,0.81567
529.206,58.025,0.14091,-1.88725,0.8152
529.906,58.0946,0.14661,-1.88562,0.81474
530.606,58.16445,0.14732,-1.88429,0.81428
531.306,58.2342,0.14755,-1.8843,0.81381
532.006,58.304,0.14718,-1.88697,0.81335
532.706,58.3736,0.14711,-1.88805,0.81288
533.406,58.4433,0.14734,-1.88801,0.81242
534.106,58.5128,0.14885,-1.88599,0.81195
534.806,58.5825,0.1508,-1.88595,0.81148
535.506,58.65225,0.1489,-1.8883,0.81102
536.206,58.72165,0.1527,-1.88961,0.81055
536.906,58.7914,0.14936,-1.88824,0.81008
537.606,58.8612,0.14822,-1.88824,0.80961
538.306,58.93136,0.14971,-1.88808,0.80914
539.006,59.00113,0.15052,-1.88693,0.80867
539.706,59.0708,0.15268,-1.88699,0.8082
540.406,59.14056,0.1503,-1.88871,0.80773
541.106,59.2103,0.15262,-1.89088,0.80726
541.806,59.2802,0.15309,-1.8885,0.80679
542.506,59.35001,0.1531,-1.88824,0.80632
543.206,59.4197,0.1544,-1.88995,0.80585
543.906,59.4894,0.15506,-1.8922,0.80538
544.606,59.55927,0.15563,-1.89318,0.8049
545.306,59.62901,0.1555,-1.89351,0.80443
546.006,59.6988,0.15831,-1.89351,0.80396
546.706,59.7686,0.15665,-1.8945,0.80348
547.406,59.83851,0.15701,-1.89549,0.80301
548.106,59.90849,0.15687,-1.89582,0.80253
548.806,59.9783,0.16024,-1.89582,0.80206
549.506,60.04815,0.15545,-1.8923,0.80158
550.206,60.11796,0.15876,-1.89042,0.8011
550.906,60.1876,0.15899,-1.88912,0.80063
551.606,60.25721,0.15883,-1.89044,0.80015
552.306,60.3266,0.15886,-1.89179,0.79967
553.006,60.39625,0.15994,-1.89307,0.79919
553.706,60.4658,0.16194,-1.89411,0.79872
554.406,60.53525,0.16386,-1.89439,0.79824
555.106,60.60485,0.16654,-1.89571,0.79776
555.806,60.67454,0.16485,-1.89711,0.79728
556.506,60.7442,0.16729,-1.8982,0.7968
557.206,60.8139,0.16487,-1.89834,0.79632
557.906,60.88354,0.1674,-1.89832,0.79583
558.606,60.9535,0.1691,-1.89428,0.79535
559.306,61.0232,0.16622,-1.89778,0.79487
560.006,61.0929,0.17042,-1.899,0.79439
560.706,61.1625,0.16838,-1.8988,0.79391
561.406,61.2324,0.16972,-1.89834,0.79342
562.106,61.3023,0.17095,-1.89984,0.79294
562.806,61.37223,0.1703,-1.89987,0.79245
563.506,61.4421,0.17171,-1.89987,0.79197
564.206,61.5119,0.17262,-1.90209,0.79148
564.906,61.58178,0.17439,-1.90247,0.791
565.606,61.65152,0.17451,-1.9038,0.79051
566.306,61.72144,0.17559,-1.90514,0.79002
567.006,61.7913,0.17874,-1.90304,0.78954
567.706,61.86124,0.17782,-1.90153,0.78905
568.406,61.93107,0.17973,-1.90151,0.78856
569.106,62.0008,0.18476,-1.90083,0.78807
569.806,62.07074,0.18291,-1.90671,0.78758
570.506,62.14085,0.1854,-1.907,0.78709
571.206,62.2111,0.18784,-1.907,0.7866
571.906,62.2814,0.18986,-1.907,0.78611
572.606,62.3517,0.18934,-1.90694,0.78562
573.306,62.42188,0.18748,-1.90701,0.78513
574.006,62.49156,0.19005,-1.90571,0.78464
574.706,62.56129,0.18937,-1.90303,0.78415
575.406,62.63131,0.18998,-1.90609,0.78365
576.106,62.7017,0.19428,-1.90744,0.78316
576.806,62.7721,0.19059,-1.90692,0.78267
577.506,62.84236,0.19593,-1.90888,0.78217
578.206,62.91259,0.1954,-1.91019,0.78168
578.906,62.9834,0.19674,-1.90887,0.78118
579.606,63.05431,0.19951,-1.91022,0.78069
580.306,63.12523,0.20107,-1.91522,0.78019
581.006,63.19545,0.20139,-1.91568,0.7797
581.706,63.26537,0.20352,-1.91424,0.7792
582.406,63.33517,0.20274,-1.91367,0.7787
583.106,63.4052,0.20428,-1.91291,0.7782
583.806,63.4753,0.20871,-1.91482,0.77771
584.506,63.5458,0.20999,-1.91621,0.77721
585.206,63.61646,0.20961,-1.91753,0.77671
585.906,63.68696,0.21149,-1.91771,0.77621
586.606,63.75715,0.21501,-1.91866,0.77571
587.306,63.8271,0.21788,-1.91755,0.77521
588.006,63.8974,0.22248,-1.91884,0.77471
588.706,63.96755,0.22291,-1.91749,0.77421
589.406,64.0376,0.22544,-1.92005,0.77371
590.106,64.10763,0.23275,-1.92148,0.7732
590.806,64.1777,0.23477,-1.92148,0.7727
591.506,64.24765,0.23919,-1.92148,0.7722
592.206,64.31716,0.24122,-1.92157,0.77169
592.906,64.3867,0.24406,-1.92179,0.77119
593.606,64.4563,0.24876,-1.92181,0.77068
594.306,64.52617,0.25132,-1.92304,0.77018
595.006,64.5958,0.25557,-1.92466,0.76967
595.706,64.6656,0.25933,-1.92433,0.76917
596.406,64.73512,0.26455,-1.92362,0.76866
597.106,64.8052,0.26608,-1.92683,0.76816
597.806,64.87523,0.27136,-1.92991,0.76765
598.506,64.94544,0.28034,-1.93185,0.76714
599.206,65.01546,0.28433,-1.9328,0.76663
599.906,65.08564,0.28856,-1.93311,0.76612
600.606,65.156,0.29709,-1.93376,0.76561
601.306,65.22651,0.3023,-1.93668,0.7651
602.006,65.29684,0.31431,-1.93658,0.76459
602.706,65.36744,0.32121,-1.93918,0.76408
603.406,65.43796,0.32674,-1.94089,0.76357
604.106,65.5085,0.3387,-1.94221,0.76306
604.806,65.5787,0.34693,-1.94221,0.76255
605.506,65.64926,0.35569,-1.94222,0.76204
606.206,65.71996,0.36854,-1.94367,0.76153
606.906,65.79077,0.37622,-1.94638,0.76101
607.606,65.8613,0.38526,-1.94856,0.7605
608.306,65.9318,0.39838,-1.95244,0.75998
609.006,66.00197,0.40641,-1.95465,0.75947
609.706,66.07223,0.41872,-1.95461,0.75895
610.406,66.14278,0.42925,-1.95463,0.75844
611.106,66.2137,0.43736,-1.95662,0.75792
611.806,66.28435,0.44472,-1.95766,0.75741
612.506,66.35426,0.45373,-1.96079,0.75689
613.206,66.42448,0.46661,-1.96262,0.75637
613.906,66.4946,0.47586,-1.96426,0.75585
614.606,66.5651,0.48239,-1.9649,0.75534
615.306,66.63526,0.4902,-1.96668,0.75482
616.006,66.7055,0.50061,-1.97026,0.7543
616.706,66.7758,0.50755,-1.97821,0.75378
617.406,66.8459,0.51366,-1.98196,0.75326
618.106,66.91606,0.51789,-1.98205,0.75274
618.806,66.9864,0.52221,-1.98244,0.75222
619.506,67.05694,0.52612,-1.98477,0.7517
620.206,67.12728,0.52954,-1.98608,0.75117
620.906,67.1974,0.53406,-1.9869,0.75065
621.606,67.2676,0.53714,-1.98866,0.75013
622.306,67.33794,0.53651,-1.99288,0.74961
623.006,67.40839,0.53826,-1.99473,0.74908
623.706,67.47873,0.53807,-1.99813,0.74856
624.406,67.5491,0.53577,-2.00112,0.74803
625.106,67.61945,0.53357,-2.00421,0.74751
625.806,67.6897,0.53225,-2.00704,0.74698
626.506,67.75989,0.52971,-2.00703,0.74646
627.206,67.83,0.52572,-2.01226,0.74593
627.906,67.90031,0.52208,-2.01572,0.7454
628.606,67.97069,0.51502,-2.01707,0.74488
629.306,68.04093,0.5115,-2.02254,0.74435
630.006,68.11111,0.50622,-2.02609,0.74382
630.706,68.18145,0.49882,-2.02873,0.74329
631.406,68.2517,0.49328,-2.0288,0.74276
632.106,68.32226,0.48751,-2.0308,0.74223
632.806,68.3925,0.48026,-2.03318,0.7417
633.506,68.4629,0.47213,-2.03529,0.74117
634.206,68.53305,0.46506,-2.03848,0.74064
634.906,68.6032,0.45752,-2.03845,0.74011
635.606,68.67327,0.4479,-2.04116,0.73958
636.306,68.74331,0.44186,-2.04115,0.73905
637.006,68.8134,0.43356,-2.04123,0.73851
637.706,68.8835,0.42894,-2.04248,0.73798
638.406,68.9535,0.42305,-2.04679,0.73745
639.106,69.02368,0.4202,-2.04994,0.73691
639.806,69.09379,0.41843,-2.04988,0.73638
640.506,69.1643,0.43404,-2.05136,0.73584
641.206,69.23467,0.46188,-2.05461,0.73531
641.906,69.3052,0.49095,-2.05675,0.73477
642.606,69.37559,0.51884,-2.05631,0.73424
643.306,69.44609,0.54265,-2.05569,0.7337
644.006,69.51656,0.5722,-2.05768,0.73316
644.706,69.587,0.59585,-2.06099,0.73263
645.406,69.6576,0.61499,-2.065,0.73209
646.106,69.72832,0.63619,-2.06991,0.73155
646.806,69.7993,0.65825,-2.07527,0.73101
647.506,69.87006,0.67715,-2.08073,0.73047
648.206,69.94068,0.69584,-2.08371,0.72993
648.906,70.011,0.71767,-2.08582,0.72939
649.606,70.08135,0.73115,-2.08753,0.72885
650.306,70.15183,0.7546,-2.09006,0.72831
651.006,70.22236,0.77175,-2.09238,0.72777
651.706,70.2929,0.79084,-2.09276,0.72723
652.406,70.36336,0.8113,-2.09574,0.72668
653.106,70.4337,0.82442,-2.09964,0.72614
653.806,70.50376,0.84283,-2.10311,0.7256
654.506,70.57396,0.86191,-2.10589,0.72505
655.206,70.6442,0.8791,-2.10771,0.72451
655.906,70.7146,0.90174,-2.11203,0.72397
656.606,70.7849,0.91723,-2.11814,0.72342
657.306,70.85523,0.93709,-2.12183,0.72287
658.006,70.92575,0.95574,-2.12658,0.72233
658.706,70.9961,0.97199,-2.13162,0.72178
659.406,71.06635,0.99003,-2.13735,0.72124
660.106,71.13675,1.00646,-2.14296,0.72069
660.806,71.2072,1.02269,-2.1446,0.72014
661.506,71.27776,1.03588,-2.14805,0.71959
662.206,71.34829,1.05121,-2.15294,0.71904
662.906,71.41845,1.06571,-2.15814,0.7185
663.606,71.489,1.08064,-2.16115,0.71795
664.306,71.55923,1.0923,-2.16565,0.7174
665.006,71.62995,1.10974,-2.17041,0.71685
665.706,71.70042,1.12044,-2.17279,0.7163
666.406,71.77099,1.13719,-2.17713,0.71574
667.106,71.8416,1.1471,-2.18433,0.71519
667.806,71.9118,1.15652,-2.18977,0.71464
668.506,71.98205,1.16744,-2.19513,0.71409
669.206,72.05251,1.18022,-2.19868,0.71354
669.906,72.1233,1.18878,-2.20019,0.71298
670.606,72.1939,1.1941,-2.20306,0.71243
671.306,72.26461,1.20093,-2.20794,0.71187
672.006,72.33543,1.20814,-2.21283,0.71132
672.706,72.40624,1.21541,-2.21685,0.71076
673.406,72.4769,1.21457,-2.22303,0.71021
674.106,72.5476,1.21605,-2.22611,0.70965
674.806,72.61845,1.21876,-2.22903,0.7091
675.506,72.68926,1.21779,-2.23738,0.70854
676.206,72.7599,1.21691,-2.24411,0.70798
676.906,72.83032,1.21511,-2.24694,0.70743
677.606,72.90087,1.21645,-2.25229,0.70687
678.306,72.9717,1.22201,-2.25768,0.70631
679.006,73.04264,1.23103,-2.26379,0.70575
679.706,73.11369,1.24409,-2.26835,0.70519
680.406,73.18467,1.25697,-2.27287,0.70463
681.106,73.25556,1.27858,-2.2758,0.70407
681.806,73.32633,1.29881,-2.2833,0.70351
682.506,73.3972,1.32056,-2.28955,0.70295
683.206,73.4681,1.34144,-2.29271,0.70239
683.906,73.53881,1.36169,-2.29813,0.70183
684.606,73.60946,1.38267,-2.30396,0.70127
685.306,73.68012,1.40774,-2.30604,0.7007
686.006,73.75044,1.42913,-2.31156,0.70014
686.706,73.8211,1.44993,-2.31871,0.69958
687.406,73.8917,1.46871,-2.32445,0.69901
688.106,73.9624,1.49087,-2.32866,0.69845
688.806,74.0328,1.51084,-2.33552,0.69788
689.506,74.10351,1.5303,-2.34054,0.69732
690.206,74.1743,1.55008,-2.34747,0.69675
690.906,74.24507,1.56891,-2.35449,0.69619
691.606,74.3157,1.59056,-2.36186,0.69562
692.306,74.38655,1.61003,-2.36976,0.69505
693.006,74.4573,1.62781,-2.37608,0.69449
693.706,74.5278,1.64864,-2.38116,0.69392
694.406,74.59812,1.67073,-2.38591,0.69335
695.106,74.66853,1.68875,-2.39264,0.69278
695.806,74.73915,1.70625,-2.39752,0.69222
696.506,74.8099,1.72284,-2.40731,0.69165
697.206,74.88072,1.73926,-2.4148,0.69108
697.906,74.95161,1.76276,-2.42265,0.69051
698.606,75.02245,1.77937,-2.42981,0.68994
699.306,75.0934,1.79421,-2.43637,0.68937
700.006,75.16434,1.80912,-2.44275,0.68879
700.706,75.23532,1.82441,-2.44806,0.68822
701.406,75.3065,1.84012,-2.45662,0.68765
702.106,75.37745,1.85744,-2.46561,0.68708
702.806,75.44835,1.87303,-2.47387,0.68651
703.506,75.5189,1.88588,-2.48544,0.68593
704.206,75.58973,1.89711,-2.49213,0.68536
704.906,75.66064,1.91227,-2.5032,0.68479
705.606,75.73175,1.92067,-2.514,0.68421
706.306,75.8026,1.93417,-2.52311,0.68364
707.006,75.87343,1.94525,-2.52835,0.68306
707.706,75.94402,1.95442,-2.53223,0.68249
708.406,76.01476,1.96423,-2.53999,0.68191
709.106,76.08561,1.97416,-2.55263,0.68133
709.806,76.15652,1.98299,-2.56069,0.68076
710.506,76.22735,1.98995,-2.57183,0.68018
711.206,76.29822,1.99918,-2.57721,0.6796
711.906,76.36887,2.00297,-2.58603,0.67902
712.606,76.43952,2.00547,-2.5939,0.67845
713.306,76.5102,2.00783,-2.60066,0.67787
714.006,76.5808,2.01,-2.60932,0.67729
714.706,76.65143,2.00325,-2.61939,0.67671
715.406,76.72196,1.99384,-2.631,0.67613
716.106,76.79259,1.97455,-2.6386,0.67555
716.806,76.8634,1.94566,-2.64689,0.67497
717.506,76.93409,1.91236,-2.65295,0.67439
718.206,77.00484,1.86429,-2.65926,0.67381
718.906,77.0755,1.79365,-2.67067,0.67322
719.606,77.146,1.69464,-2.6787,0.67264
720.306,77.21643,1.54997,-2.68577,0.67206
721.006,77.28665,1.35001,-2.69052,0.67148
721.706,77.35706,0.92196,-2.69498,0.67089
722.406,77.42719,0.50795,-2.69735,0.67031
723.106,77.4975,0.30579,-2.69768,0.66973
723.806,77.5678,0.21558,-2.69939,0.66914
724.506,77.6383,0.17191,-2.70039,0.66856
725.206,77.70885,0.14417,-2.69946,0.66797
725.906,77.77956,0.12886,-2.70047,0.66739
726.606,77.85038,0.11968,-2.69916,0.6668
727.306,77.92121,0.1108,-2.69817,0.66621
728.006,77.99202,0.1025,-2.69816,0.66563
728.706,78.06317,0.09929618,-2.69749,0.66504
729.406,78.13435,0.09950049,-2.69446,0.66445
730.106,78.20564,0.09365044,-2.69421,0.66387
730.806,78.2767,0.09299784,-2.69558,0.66328
731.506,78.34784,0.09228724,-2.69553,0.66269
732.206,78.41881,0.08867393,-2.69685,0.6621
732.906,78.48996,0.08705501,-2.69684,0.66151
733.606,78.5612,0.08584237,-2.69751,0.66092
734.306,78.63251,0.08459893,-2.69817,0.66033
735.006,78.7036,0.07952243,-2.69676,0.65974
735.706,78.77465,0.08586963,-2.69882,0.65915
736.406,78.84571,0.08434925,-2.69795,0.65856
737.106,78.91671,0.08221268,-2.69978,0.65797
737.806,78.98779,0.08318024,-2.7008,0.65738
738.506,79.05896,0.08294957,-2.70245,0.65679
739.206,79.13011,0.08067268,-2.70245,0.65619
739.906,79.20098,0.08158021,-2.70333,0.6556
740.606,79.2719,0.08182245,-2.70309,0.65501
741.306,79.343,0.08191433,-2.70551,0.65441
742.006,79.4141,0.08384575,-2.70551,0.65382
742.706,79.48507,0.08383214,-2.70542,0.65323
743.406,79.55594,0.07855394,-2.70381,0.65263
744.106,79.62687,0.07968993,-2.70203,0.65204
744.806,79.69773,0.08042429,-2.69949,0.65144
745.506,79.76873,0.08432043,-2.70102,0.65085
746.206,79.8396,0.0840303,-2.70102,0.65025
746.906,79.9107,0.08052942,-2.70233,0.64965
747.606,79.9816,0.08084743,-2.701,0.64906
748.306,80.0528,0.083768,-2.69954,0.64846
749.006,80.12371,0.07903598,-2.69816,0.64786
749.706,80.19463,0.08077255,-2.69798,0.64727
750.406,80.2654,0.08207001,-2.69967,0.64667
751.106,80.336,0.08337301,-2.70093,0.64607
751.806,80.40688,0.08303282,-2.70323,0.64547
752.506,80.478,0.08137484,-2.70431,0.64487
753.206,80.54925,0.0823577,-2.7032,0.64427
753.906,80.62011,0.08058996,-2.70288,0.64367
754.606,80.6908,0.08193387,-2.70053,0.64307
755.306,80.7616,0.08418835,-2.70056,0.64247
756.006,80.8323,0.07846976,-2.70154,0.64187
756.706,80.9032,0.07819121,-2.70157,0.64127
757.406,80.97425,0.07823425,-2.70157,0.64067
758.106,81.0454,0.07815449,-2.70161,0.64007
758.806,81.1166,0.07818669,-2.70222,0.63947
759.506,81.18782,0.07752524,-2.70091,0.63886
760.206,81.2592,0.08070868,-2.70091,0.63826
760.906,81.33049,0.08086107,-2.70134,0.63766
761.606,81.40186,0.07960903,-2.70156,0.63706
762.306,81.47327,0.07894385,-2.70025,0.63645
763.006,81.54437,0.07585993,-2.69998,0.63585
763.706,81.61551,0.07740628,-2.69751,0.63524
764.406,81.68658,0.07124471,-2.69631,0.63464
765.106,81.75776,0.07780466,-2.69762,0.63403
765.806,81.82888,0.07901877,-2.69762,0.63343
766.506,81.8998,0.07818212,-2.69762,0.63282
767.206,81.9709,0.07913349,-2.69904,0.63222
767.906,82.0418,0.08339195,-2.70194,0.63161
768.606,82.11299,0.07889987,-2.70189,0.63101
769.306,82.18411,0.07987734,-2.70189,0.6304
770.006,82.25524,0.08017483,-2.69901,0.62979
770.706,82.32613,0.07914992,-2.69663,0.62918
771.406,82.39689,0.08008893,-2.69664,0.62858
772.106,82.4676,0.08147,-2.69664,0.62797
772.806,82.53835,0.08304592,-2.69633,0.62736
773.506,82.60906,0.07971135,-2.69566,0.62675
774.206,82.67997,0.0808994,-2.69499,0.62614
774.906,82.7508,0.08071916,-2.69367,0.62553
775.606,82.82169,0.07738991,-2.69368,0.62493
776.306,82.8926,0.07770882,-2.69641,0.62432
777.006,82.96378,0.07775328,-2.69648,0.62371
777.706,83.035,0.08176763,-2.70207,0.62309
778.406,83.10601,0.08580077,-2.70736,0.62248
779.106,83.17693,0.08158478,-2.70763,0.62187
779.806,83.24798,0.07871893,-2.69941,0.62126
780.506,83.31909,0.07607775,-2.69412,0.62065
781.206,83.3902,0.07935983,-2.69349,0.62004
781.906,83.4612,0.08048939,-2.70061,0.61943
782.606,83.53241,0.0780459,-2.70401,0.61881
783.306,83.60345,0.07734221,-2.69946,0.6182
784.006,83.6746,0.0747562,-2.69594,0.61759
784.706,83.7457,0.07332032,-2.69633,0.61698
785.406,83.81675,0.07902675,-2.69732,0.61636
786.106,83.8879,0.07920445,-2.69784,0.61575
786.806,83.95869,0.07577917,-2.69158,0.61513
787.506,84.0296,0.07845178,-2.69349,0.61452
788.206,84.10042,0.07656609,-2.69781,0.6139
788.906,84.17129,0.07818245,-2.7009,0.61329
789.606,84.2423,0.07933892,-2.69944,0.61267
790.306,84.31321,0.07310966,-2.69773,0.61206
791.006,84.38428,0.08031945,-2.69814,0.61144
791.706,84.45545,0.0780265,-2.69969,0.61083
792.406,84.5266,0.07622201,-2.69699,0.61021
793.106,84.59764,0.07237942,-2.69839,0.60959
793.806,84.66861,0.07408294,-2.69839,0.60898
794.506,84.73945,0.07693486,-2.69839,0.60836
795.206,84.81047,0.07571241,-2.6983,0.60774
795.906,84.8814,0.07662778,-2.69565,0.60712
796.606,84.95246,0.07386354,-2.69565,0.60651
797.006,84.99299,0.07590452,-2.69565,0.60615