File: 01_Data/Polyolefin_Carpet_Low_Pile/STA/N2/10K_min/Polyolefin_Carpet_Low_Pile_STA_N2_10KData_220403_R2.csv
##Temp./Â°C,Time/min,DSC(subtr.2)/(mW/mg),Mass loss(subtr.2)/mg,Sensit./(uV/mW)
49.846,10.01,0.003962587,0.01152,1.07508
50.546,10.7639,0.03938845,0.0120375,1.07471
51.246,10.9643,0.06816971,0.01213536,1.07435
51.946,11.11631,0.09248429,0.01204849,1.07398
52.646,11.24517,0.11125,0.01378164,1.07362
53.346,11.3588,0.12638,0.01573497,1.07326
54.046,11.46343,0.14121,0.01281001,1.07289
54.746,11.5619,0.15246,0.0120808,1.07253
55.446,11.6561,0.16403,0.01403901,1.07216
56.146,11.7469,0.17418,0.01482593,1.0718
56.846,11.83497,0.17999,0.01551121,1.07143
57.546,11.92072,0.18778,0.01362927,1.07107
58.246,12.00507,0.19475,0.01510663,1.07071
58.946,12.08814,0.19997,0.0139614,1.07034
59.646,12.16964,0.20556,0.01515854,1.06998
60.346,12.24972,0.20945,0.01371148,1.06961
61.046,12.32934,0.21097,0.01465417,1.06925
61.746,12.4076,0.21631,0.0150239,1.06889
62.446,12.4862,0.21942,0.01432169,1.06852
63.146,12.56415,0.21993,0.01351468,1.06816
63.846,12.6424,0.22346,0.01357372,1.0678
64.546,12.7194,0.22403,0.01394455,1.06743
65.246,12.79621,0.22818,0.01492331,1.06707
65.946,12.8728,0.22854,0.01497411,1.06671
66.646,12.94909,0.23236,0.01493105,1.06634
67.346,13.0249,0.23374,0.01344638,1.06598
68.046,13.10036,0.23533,0.01349125,1.06562
68.746,13.17544,0.23405,0.01349395,1.06525
69.446,13.25025,0.23985,0.01481091,1.06489
70.146,13.3248,0.24024,0.01356196,1.06453
70.846,13.39935,0.24278,0.01419021,1.06417
71.546,13.47396,0.24305,0.01598036,1.0638
72.246,13.54865,0.24542,0.01456749,1.06344
72.946,13.62251,0.24748,0.01382906,1.06308
73.646,13.69617,0.24784,0.01389593,1.06272
74.346,13.76961,0.24803,0.01250528,1.06235
75.046,13.84317,0.25089,0.01381308,1.06199
75.746,13.91656,0.25171,0.01388721,1.06163
76.446,13.9896,0.25509,0.01380823,1.06127
77.146,14.0626,0.25362,0.01381897,1.06091
77.846,14.13525,0.25402,0.01251587,1.06054
78.546,14.2079,0.25776,0.0138301,1.06018
79.246,14.2805,0.25913,0.01250763,1.05982
79.946,14.35305,0.25871,0.01382053,1.05946
80.646,14.4257,0.26039,0.01382311,1.0591
81.346,14.498,0.25796,0.01382131,1.05874
82.046,14.5698,0.2611,0.01285888,1.05838
82.746,14.64112,0.26272,0.01382878,1.05801
83.446,14.71294,0.26451,0.01252341,1.05765
84.146,14.78455,0.26278,0.01251162,1.05729
84.846,14.85617,0.26325,0.01391362,1.05693
85.546,14.92697,0.2634,0.01250998,1.05657
86.246,14.99828,0.26651,0.01251005,1.05621
86.946,15.06906,0.2679,0.0137965,1.05585
87.646,15.13969,0.26724,0.01251868,1.05549
88.346,15.21016,0.26885,0.01382017,1.05513
89.046,15.2803,0.27173,0.01249993,1.05477
89.746,15.35079,0.27243,0.01249957,1.05441
90.446,15.42089,0.27211,0.01251,1.05404
91.146,15.49105,0.27504,0.0125098,1.05368
91.846,15.56081,0.2755,0.01119572,1.05332
92.546,15.63088,0.277,0.01124793,1.05296
93.246,15.70085,0.27663,0.01251057,1.0526
93.946,15.77085,0.27886,0.01224404,1.05224
94.646,15.84022,0.2785,0.01251025,1.05188
95.346,15.9096,0.28008,0.01317102,1.05152
96.046,15.9789,0.28167,0.01217976,1.05116
96.746,16.04855,0.28042,0.01218033,1.0508
97.446,16.1183,0.28236,0.01083134,1.05044
98.146,16.1878,0.28391,0.01253201,1.05009
98.846,16.25685,0.28335,0.01250648,1.04973
99.546,16.32572,0.2827,0.01382316,1.04937
100.246,16.3948,0.2834,0.01382021,1.04901
100.946,16.46409,0.28531,0.01387491,1.04865
101.646,16.5334,0.28754,0.01315803,1.04829
102.346,16.60245,0.28719,0.01250997,1.04793
103.046,16.6715,0.28657,0.01250965,1.04757
103.746,16.74061,0.28815,0.01154225,1.04721
104.446,16.80967,0.28856,0.01283001,1.04685
105.146,16.8787,0.2877,0.01283,1.04649
105.846,16.9479,0.28819,0.01283205,1.04613
106.546,17.017,0.28941,0.01352823,1.04578
107.246,17.08608,0.28999,0.01250334,1.04542
107.946,17.1552,0.28899,0.01250724,1.04506
108.646,17.22404,0.29037,0.01218965,1.0447
109.346,17.29278,0.2888,0.01216952,1.04434
110.046,17.36115,0.29004,0.01147798,1.04398
110.746,17.42974,0.2928,0.01020896,1.04363
111.446,17.49841,0.2936,0.01153015,1.04327
112.146,17.56662,0.29653,0.01164263,1.04291
112.846,17.63511,0.2931,0.01279073,1.04255
113.546,17.70317,0.29543,0.01416026,1.04219
114.246,17.7717,0.29757,0.01416001,1.04184
114.946,17.84,0.29878,0.01415928,1.04148
115.646,17.90869,0.29715,0.01283993,1.04112
116.346,17.97717,0.29773,0.01284349,1.04076
117.046,18.04566,0.2999,0.01151,1.0404
117.746,18.114,0.30064,0.0128305,1.04005
118.446,18.18263,0.30043,0.0128226,1.03969
119.146,18.2513,0.30087,0.01152046,1.03933
119.846,18.31946,0.30113,0.01283763,1.03898
120.546,18.3876,0.30116,0.01284,1.03862
121.246,18.45571,0.30128,0.01284,1.03826
121.946,18.52405,0.30156,0.01284,1.0379
122.646,18.59241,0.30172,0.01283916,1.03755
123.346,18.66058,0.29999,0.01283257,1.03719
124.046,18.72878,0.3032,0.01284,1.03683
124.746,18.79664,0.30167,0.01284001,1.03648
125.446,18.8645,0.30368,0.01269429,1.03612
126.146,18.9325,0.30525,0.01248232,1.03576
126.846,19.00062,0.30648,0.01282998,1.03541
127.546,19.0689,0.30587,0.01282973,1.03505
128.246,19.13692,0.30862,0.01415409,1.03469
128.946,19.20492,0.30975,0.01366916,1.03434
129.646,19.27264,0.31026,0.01187364,1.03398
130.346,19.3405,0.3113,0.01188598,1.03362
131.046,19.40866,0.31095,0.01119139,1.03327
131.746,19.47675,0.31008,0.01250887,1.03291
132.446,19.54478,0.31229,0.01252394,1.03256
133.146,19.61235,0.31314,0.01152059,1.0322
133.846,19.6801,0.3147,0.01283989,1.03184
134.546,19.74806,0.31493,0.01284,1.03149
135.246,19.81573,0.31554,0.01282101,1.03113
135.946,19.8838,0.31849,0.01217822,1.03078
136.646,19.9517,0.31797,0.01284139,1.03042
137.346,20.02,0.32165,0.01284,1.03006
138.046,20.08821,0.32089,0.01275953,1.02971
138.746,20.15617,0.32064,0.01314153,1.02935
139.446,20.22419,0.32557,0.01255259,1.029
140.146,20.292,0.32309,0.01119033,1.02864
140.846,20.36007,0.32636,0.01184966,1.02829
141.546,20.42819,0.32759,0.01316955,1.02793
142.246,20.49638,0.33064,0.01188499,1.02758
142.946,20.5643,0.33505,0.01184999,1.02722
143.646,20.6321,0.33787,0.01187183,1.02687
144.346,20.69998,0.34012,0.01053,1.02651
145.046,20.7677,0.34234,0.01053,1.02616
145.746,20.83549,0.34724,0.01061023,1.0258
146.446,20.90298,0.35093,0.01184987,1.02545
147.146,20.97062,0.35849,0.01185,1.02509
147.846,21.0381,0.36362,0.01185,1.02474
148.546,21.10579,0.36896,0.01184972,1.02438
149.246,21.1733,0.37624,0.01265949,1.02403
149.946,21.24075,0.38226,0.01217999,1.02367
150.646,21.3083,0.39121,0.01218013,1.02332
151.346,21.37576,0.3973,0.0118585,1.02296
152.046,21.44298,0.40868,0.01052369,1.02261
152.746,21.51026,0.4164,0.01052984,1.02225
153.446,21.5776,0.42852,0.01184338,1.0219
154.146,21.64498,0.44029,0.01184799,1.02154
154.846,21.7127,0.45567,0.01153679,1.02119
155.546,21.7801,0.47216,0.01021116,1.02084
156.246,21.84764,0.48828,0.01020997,1.02048
156.946,21.91505,0.50777,0.01067268,1.02013
157.646,21.98246,0.52858,0.01152057,1.01977
158.346,22.0501,0.54993,0.0105398,1.01942
159.046,22.11744,0.57203,0.01053997,1.01907
159.746,22.1849,0.59417,0.01098622,1.01871
160.446,22.25217,0.61738,0.01185001,1.01836
161.146,22.3195,0.64447,0.01187627,1.018
161.846,22.38704,0.66468,0.01052998,1.01765
162.546,22.45449,0.69097,0.01053,1.0173
163.246,22.52205,0.7083,0.01053001,1.01694
163.946,22.58941,0.72713,0.01083554,1.01659
164.646,22.65642,0.73945,0.01190168,1.01623
165.346,22.7236,0.74324,0.01052314,1.01588
166.046,22.79119,0.73503,0.01053,1.01553
166.746,22.85901,0.71226,0.01053,1.01517
167.446,22.9265,0.68008,0.01053,1.01482
168.146,22.99352,0.63503,0.01053,1.01447
168.846,23.0605,0.58716,0.01052999,1.01411
169.546,23.12743,0.5376,0.00979628,1.01376
170.246,23.19434,0.49466,0.00987868,1.01341
170.946,23.26124,0.4585,0.009863688,1.01305
171.646,23.328,0.43049,0.01054006,1.0127
172.346,23.39464,0.40566,0.009811758,1.01235
173.046,23.46142,0.39344,0.009880004,1.01199
173.746,23.52767,0.38139,0.00988,1.01164
174.446,23.59449,0.36945,0.00988,1.01129
175.146,23.6611,0.3632,0.009880408,1.01093
175.846,23.7283,0.35836,0.0108576,1.01058
176.546,23.79544,0.35545,0.01050552,1.01023
177.246,23.8625,0.3543,0.009220899,1.00987
177.946,23.92925,0.3529,0.007903413,1.00952
178.646,23.99592,0.35246,0.007909508,1.00917
179.346,24.06264,0.35013,0.009226588,1.00881
180.046,24.12953,0.3504,0.009220001,1.00846
180.746,24.19653,0.35057,0.009220036,1.00811
181.446,24.26352,0.34858,0.00892042,1.00775
182.146,24.33045,0.35136,0.007900002,1.0074
182.846,24.39728,0.35238,0.007899966,1.00705
183.546,24.46394,0.35121,0.00931559,1.0067
184.246,24.53086,0.35222,0.00922006,1.00634
184.946,24.59766,0.3516,0.00738303,1.00599
185.646,24.66478,0.35277,0.006720303,1.00564
186.346,24.73175,0.35496,0.006579992,1.00528
187.046,24.79898,0.35332,0.006576438,1.00493
187.746,24.8661,0.35508,0.007900386,1.00458
188.446,24.93289,0.35429,0.0079,1.00423
189.146,24.9999,0.35493,0.007900002,1.00387
189.846,25.06714,0.3537,0.0072032,1.00352
190.546,25.13464,0.3556,0.00659001,1.00317
191.246,25.2018,0.35365,0.00659,1.00281
191.946,25.2688,0.35236,0.00658999,1.00246
192.646,25.33579,0.35376,0.006953111,1.00211
193.346,25.4028,0.35243,0.006240022,1.00176
194.046,25.46978,0.35483,0.00658001,1.0014
194.746,25.53661,0.35511,0.006579869,1.00105
195.446,25.6034,0.35664,0.005391002,1.0007
196.146,25.6698,0.35638,0.005270016,1.00035
196.846,25.73648,0.35866,0.00656182,0.99999
197.546,25.80333,0.3576,0.00574893,0.99964
198.246,25.8708,0.35955,0.00558483,0.99929
198.946,25.93794,0.35763,0.005920075,0.99894
199.646,26.00495,0.3599,0.00592,0.99858
200.346,26.07096,0.3586,0.00592,0.99823
201.046,26.13774,0.36072,0.00592,0.99788
201.746,26.20449,0.35893,0.00592,0.99752
202.446,26.272,0.36194,0.005919949,0.99717
203.146,26.33915,0.36079,0.00656475,0.99682
203.846,26.40612,0.36339,0.00624777,0.99647
204.546,26.47312,0.36386,0.005286301,0.99611
205.246,26.53995,0.36405,0.00527,0.99576
205.946,26.6068,0.36449,0.005234853,0.99541
206.646,26.6736,0.36593,0.005601796,0.99506
207.346,26.7405,0.36733,0.0052702,0.9947
208.046,26.8073,0.36593,0.004320034,0.99435
208.746,26.8742,0.36724,0.00465621,0.994
209.446,26.9409,0.36477,0.00559999,0.99365
210.146,27.0076,0.36768,0.005583207,0.99329
210.846,27.0743,0.36764,0.004939637,0.99294
211.546,27.1411,0.3684,0.00494,0.99259
212.246,27.20719,0.37095,0.004939975,0.99223
212.946,27.27357,0.36807,0.005159368,0.99188
213.646,27.34017,0.36829,0.005269758,0.99153
214.346,27.4074,0.36863,0.00527002,0.99118
215.046,27.47468,0.36925,0.004997342,0.99082
215.746,27.54154,0.36829,0.004280015,0.99047
216.446,27.6084,0.36765,0.00428,0.99012
217.146,27.67513,0.3708,0.00428,0.98977
217.846,27.7419,0.37186,0.00428,0.98941
218.546,27.80888,0.37039,0.00427997,0.98906
219.246,27.8758,0.36768,0.003931286,0.98871
219.946,27.9428,0.37002,0.003960003,0.98835
220.646,28.0096,0.37001,0.00396,0.988
221.346,28.0764,0.37084,0.003966953,0.98765
222.046,28.14327,0.3697,0.005289015,0.98729
222.746,28.21,0.37063,0.00351004,0.98694
223.446,28.2768,0.37131,0.00219557,0.98659
224.146,28.34344,0.37398,0.002200001,0.98624
224.846,28.41024,0.37222,0.0022,0.98588
225.546,28.4772,0.37509,0.0022,0.98553
226.246,28.5442,0.37483,0.0022,0.98518
226.946,28.6109,0.37431,0.0022,0.98482
227.646,28.6775,0.37322,0.002200001,0.98447
228.346,28.7443,0.37139,0.002187834,0.98412
229.046,28.8112,0.37661,0.002418093,0.98376
229.746,28.87821,0.37604,0.002837,0.98341
230.446,28.945,0.37452,0.001533531,0.98306
231.146,29.0118,0.37397,0.00154,0.9827
231.846,29.07842,0.37604,0.00154001,0.98235
232.546,29.1449,0.3758,0.002384534,0.982
233.246,29.2117,0.37495,0.00192241,0.98164
233.946,29.27856,0.37676,0.0002300077,0.98129
234.646,29.34546,0.37676,0.000253112,0.98094
235.346,29.41205,0.37764,0.001979414,0.98058
236.046,29.4787,0.37695,0.0005986878,0.98023
236.746,29.54555,0.3788,-0.0003647131,0.97987
237.446,29.6125,0.37587,-0.0007600319,0.97952
238.146,29.67956,0.37754,-0.00076,0.97917
238.846,29.74643,0.37549,-0.000760666,0.97881
239.546,29.8132,0.37759,0.0008874322,0.97846
240.246,29.88004,0.37595,-0.0004293756,0.97811
240.946,29.94683,0.37894,-0.0004299938,0.97775
241.646,30.0136,0.37609,-0.0004300068,0.9774
242.346,30.0805,0.37672,-0.0008034451,0.97704
243.046,30.1474,0.37732,-0.00175157,0.97669
243.746,30.21436,0.37602,-0.00109811,0.97633
244.446,30.2812,0.37877,-0.001099989,0.97598
245.146,30.34822,0.37719,-0.000817513,0.97563
245.846,30.4151,0.37907,-0.0007694983,0.97527
246.546,30.48227,0.37571,-0.002085827,0.97492
247.246,30.5493,0.37732,-0.00109213,0.97456
247.946,30.6165,0.3744,-0.001100004,0.97421
248.646,30.68352,0.37841,-0.001099517,0.97385
249.346,30.7505,0.37817,-0.0007693338,0.9735
250.046,30.8175,0.37615,-0.0007700771,0.97314
250.746,30.8846,0.37688,-0.001642915,0.97279
251.446,30.9518,0.37882,-0.00175,0.97243
252.146,31.01882,0.38091,-0.00175,0.97208
252.846,31.08577,0.37972,-0.00175,0.97172
253.546,31.1526,0.38041,-0.001748688,0.97137
254.246,31.2195,0.38061,-0.002080223,0.97101
254.946,31.2864,0.37903,-0.00197473,0.97066
255.646,31.35318,0.38139,-0.00305986,0.9703
256.346,31.4198,0.3801,-0.00275724,0.96995
257.046,31.4866,0.38117,-0.0015036,0.96959
257.746,31.5535,0.38034,-0.00425486,0.96924
258.446,31.6203,0.38192,-0.00427,0.96888
259.146,31.68705,0.38042,-0.004269998,0.96853
259.846,31.7538,0.38016,-0.004281678,0.96817
260.546,31.82075,0.37948,-0.003289865,0.96781
261.246,31.8876,0.37945,-0.002796926,0.96746
261.946,31.9544,0.38057,-0.002299792,0.9671
262.646,32.02095,0.38313,-0.00364437,0.96675
263.346,32.0876,0.38323,-0.0036515,0.96639
264.046,32.1542,0.38352,-0.00329164,0.96603
264.746,32.22095,0.3838,-0.004599214,0.96568
265.446,32.2877,0.38422,-0.003571925,0.96532
266.146,32.35448,0.38459,-0.003621751,0.96497
266.846,32.42122,0.38628,-0.004928938,0.96461
267.546,32.48785,0.38584,-0.00493,0.96425
268.246,32.55437,0.38582,-0.004925704,0.9639
268.946,32.6209,0.38597,-0.005924518,0.96354
269.646,32.68762,0.38764,-0.005909996,0.96318
270.346,32.75423,0.38943,-0.005997253,0.96282
271.046,32.82095,0.38692,-0.00493007,0.96247
271.746,32.88746,0.38458,-0.004929999,0.96211
272.446,32.9544,0.38793,-0.00493491,0.96175
273.146,33.02112,0.38697,-0.006572995,0.9614
273.846,33.08784,0.38743,-0.007561887,0.96104
274.546,33.15435,0.38666,-0.007559999,0.96068
275.246,33.22108,0.38806,-0.00756,0.96032
275.946,33.28791,0.3854,-0.00756,0.95996
276.646,33.35474,0.38794,-0.00756,0.95961
277.346,33.42163,0.38823,-0.00756,0.95925
278.046,33.4886,0.3856,-0.00756,0.95889
278.746,33.55578,0.38771,-0.00756032,0.95853
279.446,33.62272,0.38745,-0.008534792,0.95817
280.146,33.68978,0.38918,-0.00855,0.95782
280.846,33.75659,0.38798,-0.00855,0.95746
281.546,33.82356,0.38758,-0.008549869,0.9571
282.246,33.8904,0.38555,-0.008879644,0.95674
282.946,33.95714,0.38421,-0.01020013,0.95638
283.646,34.0244,0.38596,-0.00911264,0.95602
284.346,34.0915,0.38807,-0.00954013,0.95566
285.046,34.1589,0.38806,-0.00954,0.9553
285.746,34.22587,0.38559,-0.00954,0.95494
286.446,34.29291,0.3869,-0.00954,0.95458
287.146,34.35983,0.38702,-0.009540135,0.95422
287.846,34.42691,0.38687,-0.01020315,0.95386
288.546,34.49388,0.38736,-0.01021996,0.95351
289.246,34.56103,0.38641,-0.01152063,0.95315
289.946,34.62818,0.38868,-0.0102049,0.95279
290.646,34.6952,0.38833,-0.01019992,0.95242
291.346,34.76236,0.38853,-0.01123292,0.95206
292.046,34.82938,0.38809,-0.01118,0.9517
292.746,34.8964,0.38674,-0.01114761,0.95134
293.446,34.96326,0.38647,-0.01119063,0.95098
294.146,35.0304,0.38573,-0.01119,0.95062
294.846,35.09752,0.38628,-0.011387,0.95026
295.546,35.16489,0.38524,-0.01233072,0.9499
296.246,35.23205,0.38485,-0.0124999,0.94954
296.946,35.29916,0.38642,-0.0137904,0.94918
297.646,35.3662,0.38388,-0.01382015,0.94882
298.346,35.43339,0.38646,-0.01423162,0.94845
299.046,35.5005,0.38498,-0.01347999,0.94809
299.746,35.56775,0.38685,-0.01348,0.94773
300.446,35.6348,0.38473,-0.01348007,0.94737
301.146,35.7018,0.38467,-0.01429056,0.94701
301.846,35.76878,0.38598,-0.01479998,0.94664
302.546,35.8357,0.38696,-0.0147995,0.94628
303.246,35.90249,0.38973,-0.01612644,0.94592
303.946,35.96921,0.38923,-0.01612,0.94556
304.646,36.03606,0.38781,-0.01612,0.94519
305.346,36.10307,0.38723,-0.01612,0.94483
306.046,36.17052,0.38671,-0.01612,0.94447
306.746,36.2378,0.3857,-0.01612,0.9441
307.446,36.30488,0.38856,-0.01612,0.94374
308.146,36.37202,0.38961,-0.01611925,0.94338
308.846,36.43919,0.38991,-0.01677905,0.94301
309.546,36.50638,0.38911,-0.01768853,0.94265
310.246,36.57332,0.39038,-0.01678005,0.94228
310.946,36.6402,0.38831,-0.01679372,0.94192
311.646,36.70729,0.38876,-0.01804148,0.94155
312.346,36.77454,0.38969,-0.01950258,0.94119
313.046,36.842,0.38861,-0.01843012,0.94083
313.746,36.90933,0.3885,-0.01843,0.94046
314.446,36.97667,0.38853,-0.01832958,0.9401
315.146,37.0438,0.39004,-0.02038485,0.93973
315.846,37.11118,0.38904,-0.02104925,0.93936
316.546,37.17862,0.3861,-0.02105,0.939
317.246,37.24605,0.38775,-0.02105014,0.93863
317.946,37.31321,0.38997,-0.02234486,0.93827
318.646,37.3805,0.388,-0.02237001,0.9379
319.346,37.44769,0.38843,-0.0228391,0.93753
320.046,37.51512,0.39034,-0.02368995,0.93717
320.746,37.5826,0.38774,-0.02361531,0.9368
321.446,37.65007,0.38978,-0.02336,0.93643
322.146,37.71744,0.39112,-0.02335348,0.93607
322.846,37.7848,0.39267,-0.02467048,0.9357
323.546,37.85179,0.39043,-0.02467,0.93533
324.246,37.91899,0.39433,-0.02467,0.93497
324.946,37.98622,0.39361,-0.02466619,0.9346
325.646,38.05399,0.39362,-0.02599356,0.93423
326.346,38.12153,0.39073,-0.0273451,0.93386
327.046,38.18897,0.39452,-0.02730984,0.93349
327.746,38.25629,0.39413,-0.02831217,0.93313
328.446,38.3236,0.39356,-0.02830133,0.93276
329.146,38.39096,0.39291,-0.02960906,0.93239
329.846,38.45825,0.39133,-0.02961136,0.93202
330.546,38.52558,0.39314,-0.03095448,0.93165
331.246,38.59308,0.39193,-0.03160839,0.93128
331.946,38.6605,0.391,-0.03159,0.93091
332.646,38.728,0.39485,-0.03158966,0.93054
333.346,38.7953,0.3949,-0.03290253,0.93017
334.046,38.86331,0.39278,-0.03422376,0.9298
334.746,38.93107,0.39136,-0.03420111,0.92943
335.446,38.99897,0.39297,-0.03553984,0.92906
336.146,39.0666,0.39213,-0.03688524,0.92869
336.846,39.13413,0.39475,-0.03685081,0.92832
337.546,39.2019,0.39121,-0.03815932,0.92795
338.246,39.26968,0.39063,-0.03817,0.92758
338.946,39.3377,0.38909,-0.03808553,0.9272
339.646,39.40565,0.38808,-0.03949012,0.92683
340.346,39.47341,0.38671,-0.04040861,0.92646
341.046,39.54107,0.38819,-0.04047508,0.92609
341.746,39.6088,0.38903,-0.04179011,0.92572
342.446,39.6768,0.38654,-0.04191999,0.92534
343.146,39.74477,0.38877,-0.04309942,0.92497
343.846,39.81275,0.38872,-0.04442652,0.9246
344.546,39.8805,0.38843,-0.04441548,0.92422
345.246,39.94833,0.38952,-0.04573949,0.92385
345.946,40.016,0.39119,-0.04709041,0.92348
346.646,40.08375,0.3914,-0.04706029,0.9231
347.346,40.15139,0.39058,-0.04836749,0.92273
348.046,40.2193,0.39009,-0.05095568,0.92236
348.746,40.2872,0.39185,-0.05235323,0.92198
349.446,40.35517,0.39718,-0.05239759,0.92161
350.146,40.4229,0.39681,-0.05265112,0.92123
350.846,40.4905,0.39805,-0.05395952,0.92086
351.546,40.55838,0.39795,-0.05526703,0.92048
352.246,40.62628,0.39686,-0.05717104,0.9201
352.946,40.69401,0.39921,-0.05862811,0.91973
353.646,40.7618,0.39888,-0.06028281,0.91935
354.346,40.8294,0.39952,-0.06153578,0.91898
355.046,40.89715,0.40105,-0.06283208,0.9186
355.746,40.96496,0.40364,-0.06391423,0.91822
356.446,41.03281,0.40365,-0.06493046,0.91785
357.146,41.10072,0.40384,-0.06624056,0.91747
357.846,41.16851,0.4065,-0.06753525,0.91709
358.546,41.23657,0.40597,-0.0701923,0.91671
359.246,41.30462,0.40528,-0.07143945,0.91634
359.946,41.37277,0.40534,-0.07283617,0.91596
360.646,41.4407,0.40648,-0.07459422,0.91558
361.346,41.50861,0.40936,-0.07590146,0.9152
362.046,41.5764,0.4101,-0.07749296,0.91482
362.746,41.64443,0.40914,-0.07986021,0.91444
363.446,41.71252,0.40993,-0.08117708,0.91406
364.146,41.78072,0.41125,-0.08321212,0.91368
364.846,41.84872,0.41153,-0.08610423,0.9133
365.546,41.91644,0.41515,-0.08808368,0.91292
366.246,41.98434,0.41504,-0.08964628,0.91254
366.946,42.0523,0.41755,-0.0925032,0.91216
367.646,42.12048,0.42152,-0.09377353,0.91178
368.346,42.18844,0.42086,-0.09651077,0.9114
369.046,42.25643,0.42362,-0.09684178,0.91102
369.746,42.32436,0.42611,-0.09899206,0.91064
370.446,42.3923,0.4306,-0.10317,0.91026
371.146,42.4602,0.43182,-0.10684,0.90987
371.846,42.52811,0.43445,-0.10682,0.90949
372.546,42.59594,0.43893,-0.11003,0.90911
373.246,42.664,0.43958,-0.11314,0.90873
373.946,42.732,0.44193,-0.11516,0.90834
374.646,42.80008,0.44594,-0.11715,0.90796
375.346,42.8682,0.44886,-0.12017,0.90758
376.046,42.93623,0.45149,-0.12443,0.90719
376.746,43.00424,0.45486,-0.12692,0.90681
377.446,43.07224,0.45871,-0.13096,0.90642
378.146,43.1404,0.45908,-0.13305,0.90604
378.846,43.20856,0.4621,-0.13662,0.90565
379.546,43.27667,0.46378,-0.13963,0.90527
380.246,43.34453,0.46763,-0.14153,0.90488
380.946,43.4124,0.46799,-0.14491,0.9045
381.646,43.48023,0.47249,-0.14851,0.90411
382.346,43.54818,0.47464,-0.15249,0.90373
383.046,43.61631,0.47711,-0.15609,0.90334
383.746,43.68445,0.48419,-0.15982,0.90295
384.446,43.7528,0.48387,-0.16332,0.90257
385.146,43.8209,0.48958,-0.16736,0.90218
385.846,43.88912,0.49118,-0.1717,0.90179
386.546,43.95705,0.49396,-0.1747,0.9014
387.246,44.02516,0.49733,-0.17852,0.90101
387.946,44.09308,0.50339,-0.18224,0.90063
388.646,44.16108,0.50352,-0.1869,0.90024
389.346,44.22888,0.50942,-0.19125,0.89985
390.046,44.29675,0.51151,-0.19573,0.89946
390.746,44.36485,0.51298,-0.20007,0.89907
391.446,44.43294,0.52003,-0.20461,0.89868
392.146,44.501,0.5225,-0.20873,0.89829
392.846,44.56907,0.52317,-0.21391,0.8979
393.546,44.63713,0.52767,-0.21797,0.89751
394.246,44.70527,0.5294,-0.22339,0.89712
394.946,44.77336,0.53337,-0.22789,0.89673
395.646,44.84149,0.53383,-0.23331,0.89633
396.346,44.90984,0.53988,-0.23844,0.89594
397.046,44.97828,0.54219,-0.24385,0.89555
397.746,45.04676,0.54518,-0.24905,0.89516
398.446,45.11518,0.54755,-0.25512,0.89476
399.146,45.1836,0.55277,-0.25952,0.89437
399.846,45.252,0.55435,-0.26524,0.89398
400.546,45.32042,0.55657,-0.27096,0.89358
401.246,45.38897,0.56061,-0.2766,0.89319
401.946,45.45769,0.56394,-0.282,0.8928
402.646,45.52639,0.56638,-0.28799,0.8924
403.346,45.59496,0.57226,-0.29418,0.89201
404.046,45.6633,0.57535,-0.29981,0.89161
404.746,45.7318,0.57621,-0.3055,0.89122
405.446,45.8002,0.57997,-0.3103,0.89082
406.146,45.8688,0.58025,-0.31752,0.89042
406.846,45.93734,0.58697,-0.32468,0.89003
407.546,46.00594,0.5914,-0.33249,0.88963
408.246,46.07459,0.59501,-0.33884,0.88923
408.946,46.1434,0.59603,-0.34532,0.88884
409.646,46.2119,0.59832,-0.35204,0.88844
410.346,46.28038,0.60207,-0.35848,0.88804
411.046,46.34885,0.60546,-0.36577,0.88764
411.746,46.41766,0.60513,-0.3724,0.88724
412.446,46.48637,0.61173,-0.37996,0.88684
413.146,46.55507,0.61523,-0.38754,0.88644
413.846,46.6235,0.61807,-0.3941,0.88605
414.546,46.69211,0.62047,-0.40239,0.88565
415.246,46.76059,0.62588,-0.41073,0.88525
415.946,46.82922,0.62852,-0.41903,0.88484
416.646,46.89788,0.63429,-0.42704,0.88444
417.346,46.9666,0.63632,-0.43394,0.88404
418.046,47.03523,0.64006,-0.44196,0.88364
418.746,47.10353,0.64639,-0.45089,0.88324
419.446,47.17195,0.6482,-0.45838,0.88284
420.146,47.24067,0.6516,-0.46855,0.88243
420.846,47.30973,0.65471,-0.4771,0.88203
421.546,47.37854,0.66134,-0.48629,0.88163
422.246,47.4471,0.66766,-0.49575,0.88123
422.946,47.5156,0.67235,-0.50301,0.88082
423.646,47.58413,0.67637,-0.5147,0.88042
424.346,47.65271,0.68112,-0.52335,0.88001
425.046,47.72115,0.68654,-0.53253,0.87961
425.746,47.78957,0.69069,-0.54355,0.8792
426.446,47.85814,0.69576,-0.55254,0.8788
427.146,47.9268,0.70011,-0.56225,0.87839
427.846,47.9955,0.70468,-0.57275,0.87799
428.546,48.06414,0.70914,-0.58431,0.87758
429.246,48.13293,0.71816,-0.59483,0.87717
429.946,48.20159,0.72479,-0.60645,0.87677
430.646,48.27022,0.72812,-0.61756,0.87636
431.346,48.3389,0.73396,-0.62945,0.87595
432.046,48.4076,0.73745,-0.64058,0.87554
432.746,48.476,0.74452,-0.65282,0.87513
433.446,48.54457,0.74988,-0.66583,0.87472
434.146,48.61323,0.75445,-0.67868,0.87432
434.846,48.682,0.76125,-0.69233,0.87391
435.546,48.75071,0.76485,-0.70427,0.8735
436.246,48.81942,0.77466,-0.71671,0.87309
436.946,48.88808,0.77798,-0.73102,0.87268
437.646,48.95663,0.78678,-0.74471,0.87226
438.346,49.02534,0.79341,-0.75859,0.87185
439.046,49.094,0.79751,-0.77232,0.87144
439.746,49.1627,0.80312,-0.7868,0.87103
440.446,49.23127,0.80931,-0.80038,0.87062
441.146,49.30005,0.81599,-0.81739,0.8702
441.846,49.3688,0.82509,-0.83364,0.86979
442.546,49.4375,0.82916,-0.85033,0.86938
443.246,49.50622,0.83327,-0.86548,0.86896
443.946,49.57499,0.83883,-0.88137,0.86855
444.646,49.64367,0.84269,-0.8982,0.86814
445.346,49.7125,0.84696,-0.91582,0.86772
446.046,49.78132,0.85201,-0.93374,0.86731
446.746,49.85007,0.85552,-0.95143,0.86689
447.446,49.91894,0.86203,-0.97043,0.86647
448.146,49.98773,0.86426,-0.9876,0.86606
448.846,50.05664,0.87289,-1.00625,0.86564
449.546,50.1255,0.87224,-1.02497,0.86522
450.246,50.1944,0.87798,-1.04339,0.86481
450.946,50.26339,0.87945,-1.06208,0.86439
451.646,50.33218,0.88273,-1.08256,0.86397
452.346,50.40104,0.8853,-1.10388,0.86355
453.046,50.4696,0.88566,-1.12449,0.86313
453.746,50.5383,0.88916,-1.14413,0.86271
454.446,50.60707,0.89094,-1.16543,0.8623
455.146,50.67587,0.89277,-1.18671,0.86188
455.846,50.74446,0.89019,-1.20614,0.86145
456.546,50.81303,0.89333,-1.23036,0.86103
457.246,50.8814,0.89022,-1.25068,0.86061
457.946,50.9501,0.88739,-1.27272,0.86019
458.646,51.01875,0.88973,-1.29496,0.85977
459.346,51.08768,0.88262,-1.31773,0.85935
460.046,51.15648,0.88053,-1.33991,0.85893
460.746,51.22522,0.87774,-1.36248,0.8585
461.446,51.29404,0.87324,-1.38593,0.85808
462.146,51.36274,0.86716,-1.40922,0.85766
462.846,51.43142,0.86009,-1.4315,0.85723
463.546,51.50002,0.85429,-1.45378,0.85681
464.246,51.5687,0.84369,-1.4779,0.85638
464.946,51.63735,0.83564,-1.50091,0.85596
465.646,51.70615,0.82273,-1.5229,0.85553
466.346,51.77478,0.81203,-1.54452,0.85511
467.046,51.84353,0.79896,-1.56801,0.85468
467.746,51.91238,0.78468,-1.58956,0.85425
468.446,51.9814,0.77027,-1.61229,0.85382
469.146,52.05039,0.75339,-1.63309,0.8534
469.846,52.11916,0.73756,-1.65381,0.85297
470.546,52.1877,0.72044,-1.67415,0.85254
471.246,52.25613,0.70305,-1.69319,0.85211
471.946,52.32454,0.68371,-1.7134,0.85168
472.646,52.39315,0.66128,-1.73199,0.85125
473.346,52.4619,0.64105,-1.75039,0.85082
474.046,52.53069,0.61593,-1.76806,0.85039
474.746,52.5992,0.58878,-1.78481,0.84996
475.446,52.6677,0.56216,-1.80031,0.84953
476.146,52.73613,0.53228,-1.81449,0.8491
476.846,52.8047,0.49581,-1.82766,0.84867
477.546,52.87314,0.46215,-1.83716,0.84824
478.246,52.9417,0.42934,-1.85274,0.8478
478.946,53.0101,0.39367,-1.86149,0.84737
479.646,53.07895,0.36137,-1.86882,0.84694
480.346,53.1478,0.3277,-1.87575,0.8465
481.046,53.2167,0.30112,-1.88097,0.84607
481.746,53.2854,0.27506,-1.88571,0.84564
482.446,53.3544,0.25426,-1.88887,0.8452
483.146,53.42358,0.23364,-1.89117,0.84476
483.846,53.49281,0.21751,-1.8929,0.84433
484.546,53.5617,0.20599,-1.89417,0.84389
485.246,53.631,0.19388,-1.89548,0.84346
485.946,53.7003,0.18537,-1.8968,0.84302
486.646,53.77001,0.17972,-1.8968,0.84258
487.346,53.8394,0.17408,-1.89681,0.84214
488.046,53.90894,0.1734,-1.89812,0.84171
488.746,53.97832,0.17175,-1.8968,0.84127
489.446,54.04759,0.1719,-1.8981,0.84083
490.146,54.11676,0.16903,-1.89882,0.84039
490.846,54.186,0.16862,-1.89877,0.83995
491.546,54.25524,0.17346,-1.89977,0.83951
492.246,54.32448,0.17931,-1.90008,0.83907
492.946,54.39374,0.18574,-1.90027,0.83863
493.646,54.4629,0.19047,-1.90141,0.83818
494.346,54.5321,0.19503,-1.90141,0.83774
495.046,54.60139,0.19704,-1.90141,0.8373
495.746,54.6708,0.19493,-1.90141,0.83686
496.446,54.7402,0.19472,-1.90273,0.83641
497.146,54.8096,0.19142,-1.90272,0.83597
497.846,54.879,0.18417,-1.90272,0.83553
498.546,54.9484,0.17532,-1.90394,0.83508
499.246,55.0179,0.17233,-1.90305,0.83464
499.946,55.0873,0.1675,-1.90425,0.83419
500.646,55.1568,0.16782,-1.90437,0.83375
501.346,55.2263,0.16092,-1.90282,0.8333
502.046,55.29571,0.15492,-1.90393,0.83285
502.746,55.36499,0.14733,-1.90393,0.83241
503.446,55.4342,0.14165,-1.90393,0.83196
504.146,55.50325,0.14226,-1.90393,0.83151
504.846,55.5724,0.14073,-1.90393,0.83106
505.546,55.64167,0.13801,-1.90425,0.83062
506.246,55.71128,0.13582,-1.90557,0.83017
506.946,55.7809,0.13737,-1.90557,0.82972
507.646,55.85043,0.13499,-1.90557,0.82927
508.346,55.9199,0.14018,-1.90557,0.82882
509.046,55.9896,0.13505,-1.90557,0.82837
509.746,56.0594,0.13525,-1.90558,0.82792
510.446,56.12907,0.13418,-1.90689,0.82746
511.146,56.1988,0.13212,-1.90689,0.82701
511.846,56.2683,0.13218,-1.90591,0.82656
512.546,56.33765,0.13201,-1.9059,0.82611
513.246,56.4069,0.13774,-1.90631,0.82565
513.946,56.47668,0.1337,-1.90721,0.8252
514.646,56.54648,0.13496,-1.90721,0.82475
515.346,56.61634,0.13706,-1.90822,0.82429
516.046,56.68603,0.13648,-1.90853,0.82384
516.746,56.75594,0.13335,-1.90853,0.82338
517.446,56.82574,0.13425,-1.90885,0.82293
518.146,56.8953,0.13199,-1.90985,0.82247
518.846,56.9648,0.13316,-1.90985,0.82201
519.546,57.0343,0.13282,-1.90972,0.82156
520.246,57.10369,0.13043,-1.90949,0.8211
520.946,57.1731,0.13596,-1.9107,0.82064
521.646,57.24273,0.13516,-1.91093,0.82018
522.346,57.31234,0.13723,-1.91084,0.81972
523.046,57.3819,0.13597,-1.91088,0.81926
523.746,57.4511,0.13401,-1.90952,0.8188
524.446,57.52009,0.13558,-1.90986,0.81834
525.146,57.58911,0.13941,-1.91084,0.81788
525.846,57.65831,0.14081,-1.91084,0.81742
526.546,57.72772,0.13542,-1.91084,0.81696
527.246,57.7971,0.13967,-1.91084,0.8165
527.946,57.8664,0.13921,-1.91117,0.81604
528.646,57.9357,0.14041,-1.91216,0.81557
529.346,58.00499,0.14151,-1.91214,0.81511
530.046,58.07428,0.14248,-1.91347,0.81465
530.746,58.1436,0.14314,-1.9121,0.81418
531.446,58.2129,0.14519,-1.91215,0.81372
532.146,58.2822,0.14286,-1.91345,0.81325
532.846,58.3513,0.14391,-1.91347,0.81279
533.546,58.42046,0.14259,-1.91479,0.81232
534.246,58.48959,0.14453,-1.91481,0.81186
534.946,58.55904,0.14425,-1.91347,0.81139
535.646,58.6285,0.14643,-1.91347,0.81092
536.346,58.6982,0.14496,-1.91471,0.81045
537.046,58.76764,0.14651,-1.91478,0.80999
537.746,58.83735,0.14733,-1.91613,0.80952
538.446,58.9069,0.14761,-1.9161,0.80905
539.146,58.97671,0.14624,-1.9161,0.80858
539.846,59.0466,0.1448,-1.91609,0.80811
540.546,59.1165,0.1472,-1.91742,0.80764
541.246,59.18659,0.1456,-1.91611,0.80717
541.946,59.2562,0.1451,-1.91611,0.8067
542.646,59.32601,0.14411,-1.91746,0.80623
543.346,59.3959,0.14701,-1.91868,0.80575
544.046,59.46609,0.14607,-1.91742,0.80528
544.746,59.53623,0.14888,-1.91868,0.80481
545.446,59.60617,0.14774,-1.92005,0.80434
546.146,59.67618,0.14658,-1.92004,0.80386
546.846,59.7462,0.14652,-1.91874,0.80339
547.546,59.8161,0.1492,-1.91874,0.80291
548.246,59.8863,0.14458,-1.91867,0.80244
548.946,59.95629,0.14702,-1.91935,0.80196
549.646,60.02652,0.14871,-1.92174,0.80149
550.346,60.09656,0.14996,-1.92203,0.80101
551.046,60.1669,0.15221,-1.92065,0.80053
551.746,60.237,0.15202,-1.92061,0.80006
552.446,60.30724,0.148,-1.92335,0.79958
553.146,60.3774,0.14636,-1.92268,0.7991
553.846,60.4475,0.15173,-1.92269,0.79862
554.546,60.51735,0.15154,-1.92269,0.79814
555.246,60.5872,0.15207,-1.92334,0.79766
555.946,60.6572,0.152,-1.92334,0.79718
556.646,60.72726,0.15289,-1.92333,0.7967
557.346,60.7972,0.15244,-1.92467,0.79622
558.046,60.86714,0.15588,-1.92532,0.79574
558.746,60.9369,0.15687,-1.92532,0.79526
559.446,61.00679,0.15881,-1.92597,0.79477
560.146,61.07656,0.16084,-1.92588,0.79429
560.846,61.14665,0.1573,-1.92729,0.79381
561.546,61.2165,0.1586,-1.92729,0.79332
562.246,61.2865,0.1592,-1.92729,0.79284
562.946,61.35617,0.15981,-1.92861,0.79236
563.646,61.4261,0.16119,-1.92861,0.79187
564.346,61.49604,0.16392,-1.92996,0.79139
565.046,61.56619,0.16062,-1.92862,0.7909
565.746,61.63596,0.16576,-1.9312,0.79041
566.446,61.7056,0.16506,-1.93124,0.78993
567.146,61.7752,0.16756,-1.93124,0.78944
567.846,61.84495,0.16536,-1.93216,0.78895
568.546,61.91475,0.17038,-1.93176,0.78846
569.246,61.9841,0.17041,-1.93124,0.78797
569.946,62.05376,0.17205,-1.93306,0.78749
570.646,62.1234,0.17478,-1.93354,0.787
571.346,62.1932,0.17415,-1.93354,0.78651
572.046,62.26274,0.17746,-1.93354,0.78601
572.746,62.33215,0.17576,-1.93354,0.78552
573.446,62.4017,0.17605,-1.93434,0.78503
574.146,62.47133,0.1756,-1.93486,0.78454
574.846,62.5411,0.17936,-1.93617,0.78405
575.546,62.61075,0.18101,-1.93617,0.78356
576.246,62.68051,0.18175,-1.93617,0.78306
576.946,62.7503,0.18061,-1.93749,0.78257
577.646,62.8203,0.18372,-1.93818,0.78207
578.346,62.8901,0.18383,-1.9388,0.78158
579.046,62.95998,0.18444,-1.9388,0.78109
579.746,63.03,0.18531,-1.94012,0.78059
580.446,63.10021,0.19045,-1.94113,0.78009
581.146,63.1704,0.1898,-1.94014,0.7796
581.846,63.24055,0.19118,-1.94144,0.7791
582.546,63.3108,0.18854,-1.94177,0.7786
583.246,63.38078,0.19076,-1.94176,0.77811
583.946,63.45081,0.19217,-1.94309,0.77761
584.646,63.52081,0.19229,-1.94308,0.77711
585.346,63.59097,0.19564,-1.94572,0.77661
586.046,63.66115,0.19673,-1.94572,0.77611
586.746,63.7314,0.19844,-1.94704,0.77561
587.446,63.8015,0.20268,-1.94698,0.77511
588.146,63.87152,0.20074,-1.94703,0.77461
588.846,63.94163,0.20455,-1.94835,0.77411
589.546,64.0119,0.20802,-1.94863,0.7736
590.246,64.08201,0.20796,-1.94836,0.7731
590.946,64.152,0.21166,-1.94918,0.7726
591.646,64.22215,0.21273,-1.94976,0.7721
592.346,64.2925,0.21531,-1.95098,0.77159
593.046,64.36264,0.21631,-1.951,0.77109
593.746,64.43259,0.22157,-1.95241,0.77058
594.446,64.50269,0.2236,-1.95373,0.77008
595.146,64.573,0.22675,-1.95493,0.76957
595.846,64.64326,0.22694,-1.95625,0.76907
596.546,64.71342,0.2323,-1.95522,0.76856
597.246,64.78344,0.23594,-1.95624,0.76805
597.946,64.85355,0.24296,-1.95618,0.76755
598.646,64.92368,0.24377,-1.95889,0.76704
599.346,64.99378,0.249,-1.95888,0.76653
600.046,65.06401,0.25634,-1.96019,0.76602
600.746,65.13412,0.26041,-1.96095,0.76551
601.446,65.20429,0.26786,-1.96151,0.765
602.146,65.27408,0.27275,-1.96282,0.76449
602.846,65.34421,0.2779,-1.96415,0.76398
603.546,65.41449,0.28436,-1.96546,0.76347
604.246,65.48526,0.29306,-1.96676,0.76296
604.946,65.5556,0.29917,-1.96812,0.76245
605.646,65.62609,0.31056,-1.96951,0.76194
606.346,65.69663,0.31542,-1.97188,0.76142
607.046,65.76737,0.32378,-1.97348,0.76091
607.746,65.83791,0.33329,-1.97286,0.7604
608.446,65.90855,0.34083,-1.975,0.75988
609.146,65.97901,0.35171,-1.97633,0.75937
609.846,66.04981,0.35902,-1.97764,0.75885
610.546,66.12034,0.36928,-1.97896,0.75834
611.246,66.1909,0.37987,-1.98065,0.75782
611.946,66.26137,0.3879,-1.98382,0.7573
612.646,66.33192,0.39937,-1.98648,0.75679
613.346,66.40257,0.40942,-1.98955,0.75627
614.046,66.47304,0.41801,-1.99081,0.75575
614.746,66.54353,0.42985,-1.99337,0.75523
615.446,66.614,0.43625,-1.99487,0.75471
616.146,66.6843,0.44506,-1.99639,0.75419
616.846,66.75457,0.45219,-1.99881,0.75368
617.546,66.8249,0.46461,-2.00112,0.75316
618.246,66.89509,0.46828,-2.00243,0.75263
618.946,66.9653,0.47377,-2.00526,0.75211
619.646,67.03541,0.48336,-2.00796,0.75159
620.346,67.10562,0.49078,-2.01174,0.75107
621.046,67.17571,0.49524,-2.01281,0.75055
621.746,67.24587,0.49657,-2.01578,0.75002
622.446,67.31578,0.50386,-2.01736,0.7495
623.146,67.38574,0.50845,-2.01954,0.74898
623.846,67.45568,0.50827,-2.02113,0.74845
624.546,67.5259,0.51112,-2.02538,0.74793
625.246,67.59623,0.51276,-2.0282,0.7474
625.946,67.6664,0.5155,-2.03062,0.74688
626.646,67.73665,0.51482,-2.03341,0.74635
627.346,67.8069,0.51893,-2.03506,0.74583
628.046,67.87737,0.51495,-2.03902,0.7453
628.746,67.94734,0.51337,-2.04058,0.74477
629.446,68.0177,0.51178,-2.04375,0.74424
630.146,68.08771,0.5106,-2.04595,0.74372
630.846,68.1579,0.50444,-2.04766,0.74319
631.546,68.2278,0.50131,-2.05221,0.74266
632.246,68.29778,0.49447,-2.05413,0.74213
632.946,68.36806,0.48821,-2.05642,0.7416
633.646,68.43826,0.48563,-2.06092,0.74107
634.346,68.50874,0.47914,-2.06231,0.74054
635.046,68.5793,0.4753,-2.06496,0.74001
635.746,68.64965,0.46353,-2.06507,0.73947
636.446,68.72005,0.45805,-2.06912,0.73894
637.146,68.7905,0.45144,-2.07218,0.73841
637.846,68.86108,0.44133,-2.07511,0.73788
638.546,68.93163,0.43238,-2.07695,0.73734
639.246,69.0022,0.42304,-2.07892,0.73681
639.946,69.07268,0.41277,-2.08062,0.73627
640.646,69.14326,0.40462,-2.08329,0.73574
641.346,69.21383,0.39803,-2.0851,0.7352
642.046,69.28452,0.3923,-2.08659,0.73467
642.746,69.3553,0.39255,-2.08797,0.73413
643.446,69.42626,0.39408,-2.09043,0.73359
644.146,69.49709,0.413,-2.09253,0.73306
644.846,69.56779,0.43322,-2.09423,0.73252
645.546,69.63829,0.45723,-2.09686,0.73198
646.246,69.70895,0.48866,-2.09813,0.73144
646.946,69.7795,0.52058,-2.101,0.7309
647.646,69.85015,0.54201,-2.10423,0.73036
648.346,69.92065,0.56605,-2.10747,0.72982
649.046,69.99127,0.58974,-2.11059,0.72928
649.746,70.06177,0.61121,-2.11266,0.72874
650.446,70.1323,0.6303,-2.11557,0.7282
651.146,70.2029,0.65144,-2.11849,0.72766
651.846,70.27326,0.66986,-2.12015,0.72712
652.546,70.34388,0.68942,-2.12444,0.72658
653.246,70.41435,0.71394,-2.12798,0.72603
653.946,70.485,0.73557,-2.13069,0.72549
654.646,70.5555,0.75507,-2.13445,0.72495
655.346,70.62605,0.77397,-2.1374,0.7244
656.046,70.69667,0.79317,-2.1419,0.72386
656.746,70.76727,0.81364,-2.14454,0.72331
657.446,70.83794,0.83085,-2.14759,0.72277
658.146,70.90857,0.84786,-2.15253,0.72222
658.846,70.97918,0.86731,-2.15555,0.72167
659.546,71.04983,0.88423,-2.16036,0.72113
660.246,71.12049,0.90252,-2.16207,0.72058
660.946,71.191,0.92375,-2.16621,0.72003
661.646,71.2615,0.93813,-2.17036,0.71948
662.346,71.33208,0.95545,-2.17325,0.71893
663.046,71.40257,0.97404,-2.17824,0.71839
663.746,71.473,0.99197,-2.18296,0.71784
664.446,71.54345,1.00736,-2.18793,0.71729
665.146,71.6138,1.02531,-2.19096,0.71674
665.846,71.6844,1.04133,-2.19619,0.71618
666.546,71.75495,1.05888,-2.20072,0.71563
667.246,71.82571,1.07522,-2.20333,0.71508
667.946,71.89622,1.0898,-2.20742,0.71453
668.646,71.96676,1.10651,-2.21227,0.71398
669.346,72.03737,1.12313,-2.21774,0.71342
670.046,72.1078,1.13351,-2.22266,0.71287
670.746,72.17856,1.14751,-2.22752,0.71232
671.446,72.2491,1.16609,-2.23071,0.71176
672.146,72.31958,1.17781,-2.23482,0.71121
672.846,72.39,1.18802,-2.241,0.71065
673.546,72.4606,1.20141,-2.24629,0.7101
674.246,72.53155,1.20507,-2.25116,0.70954
674.946,72.6022,1.21476,-2.2566,0.70899
675.646,72.67286,1.21833,-2.26041,0.70843
676.346,72.74341,1.22899,-2.26518,0.70787
677.046,72.81403,1.23429,-2.27091,0.70731
677.746,72.8846,1.23892,-2.27452,0.70676
678.446,72.95492,1.24305,-2.27968,0.7062
679.146,73.0252,1.24532,-2.28507,0.70564
679.846,73.0954,1.24844,-2.29041,0.70508
680.546,73.16592,1.2501,-2.29435,0.70452
681.246,73.2364,1.25171,-2.30033,0.70396
681.946,73.307,1.2576,-2.30635,0.7034
682.646,73.37743,1.26646,-2.31101,0.70284
683.346,73.44761,1.27772,-2.31531,0.70228
684.046,73.518,1.28856,-2.32149,0.70172
684.746,73.58855,1.30168,-2.32628,0.70115
685.446,73.65929,1.31334,-2.33107,0.70059
686.146,73.72986,1.33269,-2.33696,0.70003
686.846,73.80051,1.34937,-2.34327,0.69946
687.546,73.87134,1.3709,-2.34883,0.6989
688.246,73.9421,1.38974,-2.35324,0.69834
688.946,74.0129,1.41184,-2.35972,0.69777
689.646,74.08333,1.43425,-2.36537,0.69721
690.346,74.15403,1.45705,-2.37095,0.69664
691.046,74.22476,1.47114,-2.37669,0.69607
691.746,74.29564,1.4961,-2.38316,0.69551
692.446,74.3664,1.51322,-2.38916,0.69494
693.146,74.43694,1.53449,-2.39536,0.69437
693.846,74.50746,1.55669,-2.4008,0.69381
694.546,74.57805,1.57846,-2.40825,0.69324
695.246,74.64881,1.59839,-2.41504,0.69267
695.946,74.71976,1.62016,-2.42196,0.6921
696.646,74.7908,1.6321,-2.42884,0.69153
697.346,74.86179,1.65764,-2.43496,0.69096
698.046,74.9327,1.6733,-2.44187,0.69039
698.746,75.00369,1.69201,-2.44929,0.68982
699.446,75.0746,1.71098,-2.45601,0.68925
700.146,75.14567,1.72551,-2.46419,0.68868
700.846,75.21666,1.74734,-2.4714,0.68811
701.546,75.2877,1.76301,-2.4798,0.68754
702.246,75.3587,1.77922,-2.48687,0.68696
702.946,75.42992,1.79735,-2.49447,0.68639
703.646,75.50097,1.81227,-2.50182,0.68582
704.346,75.5719,1.82747,-2.50901,0.68524
705.046,75.6426,1.84441,-2.51787,0.68467
705.746,75.71339,1.855,-2.52418,0.6841
706.446,75.7842,1.87474,-2.53225,0.68352
707.146,75.85502,1.88511,-2.53975,0.68295
707.846,75.92582,1.89728,-2.5484,0.68237
708.546,75.99662,1.90652,-2.55723,0.68179
709.246,76.06735,1.91961,-2.5656,0.68122
709.946,76.13809,1.92974,-2.57311,0.68064
710.646,76.20868,1.9389,-2.58122,0.68006
711.346,76.2791,1.94816,-2.59075,0.67949
712.046,76.34965,1.95775,-2.59732,0.67891
712.746,76.42042,1.96385,-2.60574,0.67833
713.446,76.4914,1.97049,-2.61512,0.67775
714.146,76.5621,1.98016,-2.62163,0.67717
714.846,76.6327,1.989,-2.6316,0.67659
715.546,76.70335,1.9963,-2.64022,0.67601
716.246,76.77414,2.0001,-2.6494,0.67543
716.946,76.84484,2.00478,-2.65797,0.67485
717.646,76.9155,2.00348,-2.6672,0.67427
718.346,76.98602,2.00453,-2.67676,0.67369
719.046,77.05659,1.99325,-2.68407,0.67311
719.746,77.1272,1.98401,-2.69293,0.67253
720.446,77.1977,1.96902,-2.7009,0.67194
721.146,77.2685,1.94363,-2.70996,0.67136
721.846,77.33914,1.91097,-2.71783,0.67078
722.546,77.40987,1.85707,-2.72699,0.67019
723.246,77.48031,1.79037,-2.73571,0.66961
723.946,77.55083,1.69858,-2.74456,0.66903
724.646,77.62168,1.56592,-2.75166,0.66844
725.346,77.69252,1.37325,-2.75718,0.66786
726.046,77.7632,0.99267,-2.76161,0.66727
726.746,77.83362,0.53464,-2.76459,0.66668
727.446,77.90397,0.30246,-2.76617,0.6661
728.146,77.9746,0.19175,-2.76617,0.66551
728.846,78.04545,0.1378,-2.76617,0.66492
729.546,78.1164,0.10626,-2.76748,0.66434
730.246,78.1867,0.09121948,-2.76748,0.66375
730.946,78.25752,0.08094593,-2.76748,0.66316
731.646,78.32831,0.07467155,-2.76831,0.66257
732.346,78.39963,0.06878933,-2.7688,0.66198
733.046,78.47051,0.06209669,-2.7688,0.66139
733.746,78.54151,0.06527905,-2.76892,0.6608
734.446,78.61234,0.06208476,-2.76979,0.66021
735.146,78.6832,0.05523887,-2.77014,0.65962
735.846,78.75417,0.05460005,-2.77011,0.65903
736.546,78.8252,0.04828177,-2.77011,0.65844
737.246,78.89607,0.04842159,-2.77143,0.65785
737.946,78.967,0.04313477,-2.77049,0.65726
738.646,79.03798,0.04350936,-2.76913,0.65667
739.346,79.10874,0.04096459,-2.76907,0.65608
740.046,79.17973,0.03904137,-2.77012,0.65548
740.746,79.2507,0.03845186,-2.77012,0.65489
741.446,79.32195,0.03605131,-2.77012,0.6543
742.146,79.39285,0.03624533,-2.7701,0.6537
742.846,79.46374,0.03159163,-2.77078,0.65311
743.546,79.5347,0.02811638,-2.77078,0.65251
744.246,79.6056,0.03276447,-2.77205,0.65192
744.946,79.6767,0.02796611,-2.7721,0.65132
745.646,79.7478,0.02722388,-2.77212,0.65073
746.346,79.81827,0.02391245,-2.77078,0.65013
747.046,79.88922,0.02394056,-2.77211,0.64954
747.746,79.95997,0.02386924,-2.7721,0.64894
748.446,80.03181,0.01963604,-2.77077,0.64834
749.146,80.103,0.02034873,-2.77078,0.64774
749.846,80.17445,0.01863976,-2.77209,0.64715
750.546,80.24546,0.01909984,-2.773,0.64655
751.246,80.3165,0.01751867,-2.77341,0.64595
751.946,80.38744,0.01319951,-2.77243,0.64535
752.646,80.45843,0.01596449,-2.77308,0.64475
753.346,80.52926,0.01394448,-2.77341,0.64415
754.046,80.6002,0.0159319,-2.77275,0.64355
754.746,80.67111,0.01970464,-2.77275,0.64295
755.446,80.74202,0.01905357,-2.77275,0.64235
756.146,80.8129,0.01514983,-2.77275,0.64175
756.846,80.88387,0.01462581,-2.77277,0.64115
757.546,80.95496,0.01763537,-2.77209,0.64055
758.246,81.02586,0.01581064,-2.77143,0.63995
758.946,81.09695,0.0136655,-2.77143,0.63935
759.646,81.16799,0.01412318,-2.77283,0.63874
760.346,81.23905,0.01321149,-2.77177,0.63814
761.046,81.30975,0.01281992,-2.77177,0.63754
761.746,81.3805,0.01059305,-2.77177,0.63694
762.446,81.45143,0.01183405,-2.77308,0.63633
763.146,81.52251,0.01616967,-2.77442,0.63573
763.846,81.59349,0.009478563,-2.77308,0.63512
764.546,81.66433,0.008208485,-2.77308,0.63452
765.246,81.73524,0.007816533,-2.77176,0.63391
765.946,81.8062,0.007969913,-2.7729,0.63331
766.646,81.87689,0.004534076,-2.77308,0.6327
767.346,81.94804,0.00390285,-2.77258,0.6321
768.046,82.01906,0.00398018,-2.77177,0.63149
768.746,82.0904,0.001327355,-2.77407,0.63088
769.446,82.1613,0.002959185,-2.774,0.63028
770.146,82.23244,-0.0001870479,-2.77305,0.62967
770.846,82.30377,-0.000346513,-2.77322,0.62906
771.546,82.3751,-0.0022791,-2.7731,0.62846
772.246,82.44646,-0.00414185,-2.77362,0.62785
772.946,82.51767,-0.001882548,-2.77242,0.62724
773.646,82.58888,-0.00748065,-2.77242,0.62663
774.346,82.66019,-0.002797197,-2.77242,0.62602
775.046,82.73161,-0.005036152,-2.77239,0.62541
775.746,82.80285,-0.004239939,-2.77349,0.6248
776.446,82.87402,-0.00646684,-2.77374,0.62419
777.146,82.94496,-0.008172789,-2.77407,0.62358
777.846,83.01595,-0.00505153,-2.77404,0.62297
778.546,83.0869,-0.00527335,-2.7731,0.62236
779.246,83.158,-0.00763082,-2.77308,0.62175
779.946,83.2291,-0.004940933,-2.77308,0.62114
780.646,83.3001,-0.003758879,-2.77308,0.62053
781.346,83.3707,-0.00915967,-2.77308,0.61992
782.046,83.44159,-0.007044365,-2.77406,0.6193
782.746,83.51241,-0.008925306,-2.77406,0.61869
783.446,83.58363,-0.01201431,-2.77406,0.61808
784.146,83.6546,-0.008404164,-2.77403,0.61747
784.846,83.72577,-0.00630828,-2.7745,0.61685
785.546,83.79706,-0.008637014,-2.77411,0.61624
786.246,83.86841,-0.01097461,-2.77507,0.61562
786.946,83.9395,-0.01518004,-2.77539,0.61501
787.646,84.0106,-0.01776553,-2.77539,0.6144
788.346,84.0817,-0.01853878,-2.77636,0.61378
789.046,84.15285,-0.0180213,-2.77497,0.61317
789.746,84.2237,-0.01664143,-2.77506,0.61255
790.446,84.2947,-0.01801456,-2.77501,0.61194
791.146,84.3657,-0.01940639,-2.77639,0.61132
791.846,84.4368,-0.01794556,-2.77538,0.6107
792.546,84.5076,-0.01738175,-2.77538,0.61009
793.246,84.5788,-0.01891773,-2.77538,0.60947
793.946,84.6499,-0.01873815,-2.7767,0.60885
794.646,84.72103,-0.0200286,-2.77542,0.60824
795.346,84.79177,-0.02441859,-2.7767,0.60762
796.046,84.86221,-0.02221247,-2.7767,0.607
796.746,84.93271,-0.02342841,-2.7767,0.60638
797.346,84.99441,-0.02653878,-2.77538,0.60585