File: 01_Data/Polyurethane_Foam/STA/N2/10K_min/Polyurethane_Foam_STA_N2_10KData_220203_R2.csv
##Temp./Â°C,Time/min,DSC(subtr.2)/(mW/mg),Mass(subtr.2)/%,Sensit./(uV/mW)
49.176,10.01,-0.00444897,99.47243,1.07448
49.676,10.68486,0.02771915,99.43273,1.07444
50.176,10.86158,0.05322411,99.39707,1.07441
50.676,10.99238,0.07588803,99.37816,1.07437
51.176,11.10187,0.09460662,99.40989,1.07434
51.676,11.19586,0.11215,99.3995,1.0743
52.176,11.28251,0.12665,99.40473,1.07426
52.676,11.3633,0.14045,99.3798,1.07423
53.176,11.44092,0.15272,99.37815,1.07419
53.676,11.51401,0.16354,99.40127,1.07415
54.176,11.58474,0.17264,99.375,1.07411
54.676,11.6526,0.18017,99.39315,1.07407
55.176,11.71831,0.18893,99.39206,1.07403
55.676,11.7823,0.19433,99.37742,1.07399
56.176,11.8453,0.20251,99.37101,1.07395
56.676,11.907,0.2079,99.31523,1.0739
57.176,11.9682,0.21177,99.35037,1.07386
57.676,12.02796,0.21665,99.3235,1.07382
58.176,12.0868,0.22049,99.33061,1.07377
58.676,12.14525,0.22627,99.37307,1.07373
59.176,12.2033,0.22935,99.34835,1.07368
59.676,12.2609,0.23028,99.3807,1.07364
60.176,12.31788,0.23332,99.3472,1.07359
60.676,12.37465,0.23631,99.31644,1.07354
61.176,12.43087,0.23823,99.34985,1.0735
61.676,12.48675,0.24141,99.34877,1.07345
62.176,12.54265,0.2434,99.32946,1.0734
62.676,12.59793,0.24433,99.3159,1.07335
63.176,12.6533,0.24652,99.3488,1.0733
63.676,12.70838,0.24724,99.34082,1.07325
64.176,12.76302,0.2485,99.3452,1.0732
64.676,12.8178,0.25051,99.34761,1.07315
65.176,12.87231,0.25221,99.31278,1.07309
65.676,12.92671,0.25042,99.30941,1.07304
66.176,12.98095,0.25409,99.286,1.07299
66.676,13.03495,0.25437,99.31279,1.07293
67.176,13.08887,0.25576,99.31278,1.07288
67.676,13.1426,0.25759,99.31075,1.07282
68.176,13.19646,0.25864,99.27114,1.07277
68.676,13.25019,0.25988,99.27172,1.07271
69.176,13.304,0.26053,99.2701,1.07265
69.676,13.35764,0.26119,99.30565,1.0726
70.176,13.4111,0.26005,99.30211,1.07254
70.676,13.46468,0.26187,99.27866,1.07248
71.176,13.5179,0.26276,99.2757,1.07242
71.676,13.57109,0.26392,99.28796,1.07236
72.176,13.62399,0.26427,99.2713,1.0723
72.676,13.67668,0.26401,99.27334,1.07224
73.176,13.7294,0.26636,99.2717,1.07218
73.676,13.7821,0.26486,99.2645,1.07211
74.176,13.8346,0.26835,99.2619,1.07205
74.676,13.8873,0.26652,99.23841,1.07199
75.176,13.9396,0.26803,99.27152,1.07192
75.676,13.992,0.26668,99.2714,1.07186
76.176,14.04465,0.2675,99.2714,1.07179
76.676,14.0968,0.2721,99.26139,1.07173
77.176,14.149,0.27214,99.2447,1.07166
77.676,14.201,0.27303,99.2719,1.07159
78.176,14.2529,0.27274,99.24446,1.07153
78.676,14.30476,0.27231,99.27168,1.07146
79.176,14.35639,0.27467,99.27107,1.07139
79.676,14.4081,0.27673,99.2712,1.07132
80.176,14.45928,0.27794,99.27146,1.07125
80.676,14.5105,0.27742,99.23869,1.07118
81.176,14.56205,0.28076,99.23905,1.07111
81.676,14.6133,0.27964,99.2387,1.07104
82.176,14.66446,0.27979,99.25701,1.07097
82.676,14.71561,0.28157,99.23136,1.07089
83.176,14.7666,0.28318,99.23861,1.07082
83.676,14.81759,0.28265,99.23614,1.07075
84.176,14.86851,0.2851,99.23881,1.07067
84.676,14.9193,0.28189,99.2287,1.0706
85.176,14.96991,0.28363,99.2386,1.07052
85.676,15.02036,0.28459,99.21333,1.07045
86.176,15.071,0.28693,99.24662,1.07037
86.676,15.12149,0.28436,99.2465,1.07029
87.176,15.17194,0.28274,99.27199,1.07021
87.676,15.22259,0.28508,99.2385,1.07013
88.176,15.27312,0.28533,99.23813,1.07006
88.676,15.32342,0.28512,99.23994,1.06998
89.176,15.37381,0.28574,99.2386,1.0699
89.676,15.42389,0.28675,99.2064,1.06982
90.176,15.4741,0.28616,99.20575,1.06973
90.676,15.5243,0.28687,99.2174,1.06965
91.176,15.57443,0.28935,99.2055,1.06957
91.676,15.62439,0.2893,99.2055,1.06949
92.176,15.6741,0.28822,99.19637,1.0694
92.676,15.72378,0.28861,99.19765,1.06932
93.176,15.7737,0.28844,99.1972,1.06923
93.676,15.82349,0.29024,99.1964,1.06915
94.176,15.8734,0.28771,99.16385,1.06906
94.676,15.9235,0.28936,99.15598,1.06898
95.176,15.97309,0.29099,99.17262,1.06889
95.676,16.02267,0.28967,99.17268,1.0688
96.176,16.07234,0.29273,99.17268,1.06871
96.676,16.1216,0.29285,99.17282,1.06862
97.176,16.17076,0.29372,99.17179,1.06854
97.676,16.2204,0.2937,99.1724,1.06845
98.176,16.26991,0.291,99.13967,1.06835
98.676,16.31924,0.29429,99.1386,1.06826
99.176,16.369,0.29427,99.17273,1.06817
99.676,16.4182,0.29513,99.1443,1.06808
100.176,16.46748,0.29618,99.17241,1.06799
100.676,16.51664,0.29903,99.17243,1.06789
101.176,16.56581,0.29839,99.17243,1.0678
101.676,16.61487,0.29864,99.17185,1.06771
102.176,16.66365,0.29848,99.14052,1.06761
102.676,16.71282,0.29824,99.17273,1.06751
103.176,16.76194,0.29921,99.13946,1.06742
103.676,16.81089,0.29983,99.1392,1.06732
104.176,16.86042,0.29969,99.17268,1.06722
104.676,16.90932,0.30168,99.17268,1.06713
105.176,16.9583,0.30072,99.17265,1.06703
105.676,17.00744,0.30207,99.16147,1.06693
106.176,17.05626,0.30397,99.16327,1.06683
106.676,17.10557,0.30309,99.17033,1.06673
107.176,17.15471,0.30249,99.13927,1.06663
107.676,17.20392,0.3043,99.16452,1.06653
108.176,17.25307,0.30188,99.14842,1.06643
108.676,17.30194,0.30619,99.13132,1.06632
109.176,17.3509,0.30458,99.13189,1.06622
109.676,17.39989,0.30418,99.12317,1.06612
110.176,17.44885,0.30761,99.12914,1.06601
110.676,17.49788,0.30533,99.15006,1.06591
111.176,17.54699,0.30496,99.12943,1.0658
111.676,17.59599,0.30802,99.10679,1.0657
112.176,17.64491,0.30604,99.10659,1.06559
112.676,17.69386,0.30693,99.11254,1.06548
113.176,17.74268,0.30696,99.10656,1.06538
113.676,17.79156,0.30869,99.1067,1.06527
114.176,17.8405,0.30815,99.12271,1.06516
114.676,17.88922,0.31035,99.10669,1.06505
115.176,17.938,0.31081,99.10677,1.06494
115.676,17.98688,0.30977,99.10805,1.06483
116.176,18.03584,0.30918,99.07366,1.06472
116.676,18.0848,0.30906,99.1059,1.06461
117.176,18.13344,0.31046,99.1065,1.06449
117.676,18.18216,0.31081,99.1065,1.06438
118.176,18.23089,0.31189,99.10647,1.06427
118.676,18.27954,0.31098,99.09714,1.06416
119.176,18.3287,0.31001,99.1065,1.06404
119.676,18.37744,0.31215,99.10621,1.06393
120.176,18.4263,0.31397,99.07395,1.06381
120.676,18.47493,0.31131,99.0737,1.0637
121.176,18.52373,0.31297,99.0737,1.06358
121.676,18.57244,0.31296,99.07369,1.06346
122.176,18.62108,0.3134,99.08176,1.06334
122.676,18.6699,0.31472,99.0737,1.06323
123.176,18.7185,0.31312,99.0738,1.06311
123.676,18.76693,0.31523,99.0408,1.06299
124.176,18.8153,0.31627,99.04276,1.06287
124.676,18.86378,0.31395,99.07364,1.06275
125.176,18.9124,0.31529,99.0737,1.06263
125.676,18.9609,0.31544,99.07358,1.0625
126.176,19.0096,0.31476,99.0406,1.06238
126.676,19.05819,0.31528,99.0406,1.06226
127.176,19.10641,0.31435,99.07544,1.06214
127.676,19.15488,0.31491,99.0525,1.06201
128.176,19.20348,0.31526,99.0406,1.06189
128.676,19.25217,0.31647,99.07313,1.06176
129.176,19.30087,0.31704,99.0737,1.06164
129.676,19.34933,0.31528,99.06674,1.06151
130.176,19.39773,0.31599,99.04071,1.06139
130.676,19.4461,0.31723,99.06487,1.06126
131.176,19.49447,0.3177,99.06541,1.06113
131.676,19.5429,0.31756,99.0654,1.061
132.176,19.59156,0.31901,99.04563,1.06087
132.676,19.63999,0.31835,99.03233,1.06074
133.176,19.68839,0.31686,99.03233,1.06061
133.676,19.73686,0.3206,99.03233,1.06048
134.176,19.78523,0.32072,99.03231,1.06035
134.676,19.8336,0.31949,99.00848,1.06022
135.176,19.8821,0.31864,98.99888,1.06009
135.676,19.93055,0.32061,99.00745,1.05996
136.176,19.97909,0.32188,99.00625,1.05982
136.676,20.02756,0.32021,99.0078,1.05969
137.176,20.07607,0.31944,99.00777,1.05956
137.676,20.12451,0.31949,99.00986,1.05942
138.176,20.17274,0.31744,98.97468,1.05929
138.676,20.22123,0.31811,98.97465,1.05915
139.176,20.26934,0.31957,99.00745,1.05901
139.676,20.3179,0.31921,99.00293,1.05888
140.176,20.36638,0.32006,98.9747,1.05874
140.676,20.41483,0.31949,98.97469,1.0586
141.176,20.46358,0.3201,98.9921,1.05846
141.676,20.51191,0.31953,99.0078,1.05832
142.176,20.56038,0.3204,99.00777,1.05818
142.676,20.60858,0.32017,99.00041,1.05804
143.176,20.657,0.32175,98.99892,1.0579
143.676,20.70512,0.32113,98.998,1.05776
144.176,20.7533,0.32292,98.9995,1.05762
144.676,20.80123,0.32072,98.99935,1.05748
145.176,20.84949,0.3212,98.9664,1.05733
145.676,20.89767,0.32287,98.96642,1.05719
146.176,20.94591,0.32161,98.96642,1.05704
146.676,20.9943,0.32301,98.96643,1.0569
147.176,21.04266,0.32294,98.9612,1.05675
147.676,21.0907,0.32215,98.95952,1.05661
148.176,21.13893,0.32219,98.96642,1.05646
148.676,21.18705,0.32403,98.96642,1.05632
149.176,21.2353,0.32422,98.96646,1.05617
149.676,21.28366,0.32169,98.99674,1.05602
150.176,21.33161,0.32438,98.9995,1.05587
150.676,21.3798,0.32423,98.9995,1.05572
151.176,21.4279,0.32488,98.9995,1.05557
151.676,21.47588,0.32323,98.99128,1.05542
152.176,21.5241,0.32449,98.96644,1.05527
152.676,21.57207,0.32256,98.96642,1.05512
153.176,21.62,0.32353,98.96642,1.05497
153.676,21.6679,0.3265,98.99491,1.05482
154.176,21.7161,0.32613,98.96127,1.05466
154.676,21.76409,0.32669,98.95814,1.05451
155.176,21.81229,0.32599,98.95819,1.05436
155.676,21.86047,0.32961,98.92498,1.0542
156.176,21.90853,0.32719,98.92531,1.05405
156.676,21.95662,0.32909,98.92531,1.05389
157.176,22.00465,0.32908,98.92531,1.05373
157.676,22.05255,0.33021,98.92531,1.05358
158.176,22.10043,0.32892,98.9253,1.05342
158.676,22.14816,0.33126,98.94521,1.05326
159.176,22.19595,0.33007,98.92747,1.0531
159.676,22.24391,0.3296,98.9581,1.05295
160.176,22.29194,0.33208,98.95815,1.05279
160.676,22.3401,0.33077,98.92496,1.05263
161.176,22.38803,0.32954,98.8912,1.05247
161.676,22.436,0.33152,98.92715,1.0523
162.176,22.48376,0.33012,98.90881,1.05214
162.676,22.5317,0.33182,98.90898,1.05198
163.176,22.57957,0.32986,98.94187,1.05182
163.676,22.62753,0.32958,98.94185,1.05166
164.176,22.67559,0.33346,98.94185,1.05149
164.676,22.7238,0.33179,98.94185,1.05133
165.176,22.7717,0.33157,98.94185,1.05116
165.676,22.8196,0.33092,98.94174,1.051
166.176,22.86748,0.333,98.93172,1.05083
166.676,22.91517,0.33286,98.92668,1.05067
167.176,22.96292,0.33093,98.9006,1.0505
167.676,23.0107,0.33231,98.91673,1.05033
168.176,23.05856,0.33161,98.91679,1.05016
168.676,23.10645,0.33118,98.91674,1.05
169.176,23.15428,0.33138,98.88384,1.04983
169.676,23.20247,0.33256,98.8922,1.04966
170.176,23.25061,0.33212,98.8932,1.04949
170.676,23.29861,0.3321,98.92532,1.04932
171.176,23.3467,0.33164,98.9254,1.04914
171.676,23.3948,0.33102,98.9092,1.04897
172.176,23.44275,0.33164,98.9088,1.0488
172.676,23.49064,0.33269,98.90892,1.04863
173.176,23.53875,0.33405,98.89022,1.04846
173.676,23.58684,0.33274,98.9005,1.04828
174.176,23.6348,0.33249,98.9006,1.04811
174.676,23.6829,0.33378,98.8844,1.04793
175.176,23.7309,0.33291,98.88396,1.04776
175.676,23.77899,0.33115,98.88396,1.04758
176.176,23.82715,0.33343,98.88566,1.0474
176.676,23.8753,0.33496,98.86745,1.04723
177.176,23.92332,0.33215,98.86918,1.04705
177.676,23.9714,0.33445,98.84289,1.04687
178.176,24.01914,0.33425,98.84286,1.04669
178.676,24.06705,0.33508,98.84284,1.04652
179.176,24.11501,0.33388,98.83788,1.04634
179.676,24.16275,0.33624,98.8438,1.04616
180.176,24.2108,0.33462,98.8424,1.04597
180.676,24.25909,0.33504,98.84261,1.04579
181.176,24.30709,0.33599,98.84261,1.04561
181.676,24.35505,0.33658,98.8426,1.04543
182.176,24.40292,0.33823,98.81317,1.04525
182.676,24.4507,0.33747,98.80977,1.04506
183.176,24.4985,0.33858,98.80977,1.04488
183.676,24.54638,0.3386,98.80977,1.0447
184.176,24.59425,0.339,98.81096,1.04451
184.676,24.64211,0.34103,98.84066,1.04433
185.176,24.68986,0.33991,98.80977,1.04414
185.676,24.7376,0.3419,98.80977,1.04395
186.176,24.7853,0.34023,98.80977,1.04377
186.676,24.8332,0.33902,98.80977,1.04358
187.176,24.8811,0.34202,98.80977,1.04339
187.676,24.92894,0.34338,98.80977,1.0432
188.176,24.97665,0.3445,98.80978,1.04301
188.676,25.0244,0.34102,98.80881,1.04282
189.176,25.0719,0.33956,98.80971,1.04263
189.676,25.11982,0.34521,98.80977,1.04244
190.176,25.1678,0.34375,98.83005,1.04225
190.676,25.2157,0.34289,98.8346,1.04206
191.176,25.2636,0.34428,98.83458,1.04187
191.676,25.31136,0.34467,98.82316,1.04168
192.176,25.35904,0.34628,98.8014,1.04148
192.676,25.40665,0.3462,98.8345,1.04129
193.176,25.45435,0.34601,98.83434,1.0411
193.676,25.50198,0.34632,98.8343,1.0409
194.176,25.54969,0.34631,98.83425,1.04071
194.676,25.59722,0.3477,98.81998,1.04051
195.176,25.64483,0.34981,98.78495,1.04031
195.676,25.6924,0.34824,98.78496,1.04012
196.176,25.74005,0.35066,98.78496,1.03992
196.676,25.7879,0.35052,98.7851,1.03972
197.176,25.83565,0.35127,98.77785,1.03953
197.676,25.8833,0.35001,98.77669,1.03933
198.176,25.9311,0.34937,98.77669,1.03913
198.676,25.97869,0.35061,98.77086,1.03893
199.176,26.02637,0.35104,98.74365,1.03873
199.676,26.0741,0.34949,98.74217,1.03853
200.176,26.12194,0.35278,98.76012,1.03833
200.676,26.16951,0.35049,98.76016,1.03812
201.176,26.21708,0.35142,98.77739,1.03792
201.676,26.26468,0.35278,98.7439,1.03772
202.176,26.31215,0.35279,98.7436,1.03751
202.676,26.3597,0.35111,98.72787,1.03731
203.176,26.4074,0.35281,98.72825,1.03711
203.676,26.45515,0.35473,98.7273,1.0369
204.176,26.50272,0.35415,98.7273,1.0367
204.676,26.55041,0.35532,98.7273,1.03649
205.176,26.5981,0.35543,98.7273,1.03628
205.676,26.6457,0.35835,98.7273,1.03608
206.176,26.6934,0.35761,98.7273,1.03587
206.676,26.74107,0.35554,98.72718,1.03566
207.176,26.78872,0.35741,98.70321,1.03545
207.676,26.83636,0.35689,98.69425,1.03525
208.176,26.88397,0.35841,98.6942,1.03504
208.676,26.93158,0.35838,98.694,1.03483
209.176,26.9795,0.35917,98.66114,1.03462
209.676,27.0272,0.36049,98.66115,1.0344
210.176,27.07515,0.36303,98.66115,1.03419
210.676,27.12296,0.363,98.66115,1.03398
211.176,27.1707,0.36261,98.66115,1.03377
211.676,27.21838,0.36143,98.66115,1.03356
212.176,27.266,0.36504,98.6604,1.03334
212.676,27.31363,0.36503,98.6364,1.03313
213.176,27.36117,0.36356,98.63659,1.03291
213.676,27.40881,0.36584,98.63659,1.0327
214.176,27.45637,0.36956,98.63659,1.03248
214.676,27.50393,0.36862,98.63659,1.03227
215.176,27.55155,0.36916,98.63659,1.03205
215.676,27.59921,0.37139,98.63659,1.03183
216.176,27.64687,0.37275,98.6366,1.03162
216.676,27.69462,0.37163,98.63283,1.0314
217.176,27.74248,0.37159,98.62345,1.03118
217.676,27.7902,0.37321,98.59524,1.03096
218.176,27.838,0.37208,98.59524,1.03074
218.676,27.88584,0.37446,98.5921,1.03052
219.176,27.9336,0.37396,98.57046,1.0303
219.676,27.98147,0.37598,98.57043,1.03008
220.176,28.0293,0.37806,98.57029,1.02986
220.676,28.0769,0.38069,98.53694,1.02964
221.176,28.12463,0.38063,98.54585,1.02942
221.676,28.17233,0.38272,98.54586,1.02919
222.176,28.21945,0.38103,98.54586,1.02897
222.676,28.2673,0.3821,98.54587,1.02875
223.176,28.3151,0.38441,98.56344,1.02852
223.676,28.36298,0.38405,98.57025,1.0283
224.176,28.4111,0.38855,98.5321,1.02807
224.676,28.45917,0.38817,98.49871,1.02785
225.176,28.507,0.38945,98.46605,1.02762
225.676,28.55462,0.39177,98.4662,1.02739
226.176,28.6024,0.39017,98.4662,1.02717
226.676,28.6501,0.39474,98.45791,1.02694
227.176,28.69796,0.39635,98.42645,1.02671
227.676,28.74577,0.39714,98.40003,1.02648
228.176,28.7936,0.39886,98.43549,1.02625
228.676,28.8415,0.4015,98.43309,1.02602
229.176,28.8892,0.4027,98.40194,1.02579
229.676,28.937,0.40516,98.3749,1.02556
230.176,28.98487,0.40754,98.36712,1.02533
230.676,29.03286,0.40928,98.3614,1.0251
231.176,29.08077,0.41067,98.33409,1.02487
231.676,29.12854,0.41172,98.33405,1.02463
232.176,29.17632,0.41424,98.30189,1.0244
232.676,29.2241,0.41732,98.301,1.02417
233.176,29.27133,0.41723,98.3006,1.02393
233.676,29.31915,0.42034,98.24432,1.0237
234.176,29.367,0.42211,98.24597,1.02346
234.676,29.41485,0.42522,98.21051,1.02323
235.176,29.46275,0.42765,98.21064,1.02299
235.676,29.51062,0.43063,98.1774,1.02276
236.176,29.5583,0.43537,98.1463,1.02252
236.676,29.60592,0.43675,98.1357,1.02228
237.176,29.65369,0.43846,98.10199,1.02204
237.676,29.7014,0.44217,98.03695,1.02181
238.176,29.7492,0.44678,98.03064,1.02157
238.676,29.7969,0.44647,98.00429,1.02133
239.176,29.84457,0.44919,98.00426,1.02109
239.676,29.8921,0.4547,98.00424,1.02085
240.176,29.9399,0.45693,97.97114,1.02061
240.676,29.9874,0.46075,97.9355,1.02037
241.176,30.03492,0.46535,97.9023,1.02012
241.676,30.0824,0.46815,97.8712,1.01988
242.176,30.1301,0.47201,97.83634,1.01964
242.676,30.1773,0.47521,97.8023,1.0194
243.176,30.2245,0.48157,97.76607,1.01915
243.676,30.2722,0.48163,97.73934,1.01891
244.176,30.31997,0.48504,97.69905,1.01866
244.676,30.36778,0.49063,97.66641,1.01842
245.176,30.41605,0.49435,97.6904,1.01817
245.676,30.46377,0.4972,97.6494,1.01793
246.176,30.51145,0.49993,97.61349,1.01768
246.676,30.5593,0.50607,97.54908,1.01743
247.176,30.60705,0.51051,97.51738,1.01719
247.676,30.65499,0.51485,97.47604,1.01694
248.176,30.7028,0.51924,97.4084,1.01669
248.676,30.75072,0.52636,97.3776,1.01644
249.176,30.7985,0.52969,97.34437,1.01619
249.676,30.84655,0.53287,97.3078,1.01594
250.176,30.89445,0.53576,97.24847,1.01569
250.676,30.94225,0.54277,97.21034,1.01544
251.176,30.9901,0.54416,97.15475,1.01519
251.676,31.0378,0.55245,97.10053,1.01494
252.176,31.08554,0.55862,97.06472,1.01469
252.676,31.1334,0.56224,96.99634,1.01443
253.176,31.1812,0.57124,96.93892,1.01418
253.676,31.22898,0.57602,96.86362,1.01393
254.176,31.27675,0.5806,96.7834,1.01367
254.676,31.3246,0.58699,96.73666,1.01342
255.176,31.37254,0.59382,96.6313,1.01316
255.676,31.4206,0.60142,96.58968,1.01291
256.176,31.4684,0.60734,96.5188,1.01265
256.676,31.51625,0.61441,96.46903,1.0124
257.176,31.5641,0.62106,96.39517,1.01214
257.676,31.61178,0.62885,96.32593,1.01188
258.176,31.65962,0.6343,96.23977,1.01163
258.676,31.70748,0.64277,96.1553,1.01137
259.176,31.75528,0.65061,96.08829,1.01111
259.676,31.80316,0.65723,96.00458,1.01085
260.176,31.85097,0.66374,95.9264,1.01059
260.676,31.8989,0.67594,95.85355,1.01033
261.176,31.94645,0.68068,95.72194,1.01007
261.676,31.99427,0.69052,95.63486,1.00981
262.176,32.0422,0.69964,95.5414,1.00955
262.676,32.08999,0.7078,95.44788,1.00929
263.176,32.13796,0.71666,95.35781,1.00902
263.676,32.1859,0.72479,95.23349,1.00876
264.176,32.2339,0.73621,95.1177,1.0085
264.676,32.2819,0.7453,95.01992,1.00823
265.176,32.3299,0.75651,94.90905,1.00797
265.676,32.3778,0.76718,94.80765,1.00771
266.176,32.42585,0.77641,94.696,1.00744
266.676,32.47382,0.7871,94.58369,1.00718
267.176,32.52179,0.79556,94.47683,1.00691
267.676,32.5697,0.80761,94.33253,1.00664
268.176,32.6177,0.81836,94.20817,1.00638
268.676,32.66568,0.82854,94.07133,1.00611
269.176,32.71372,0.84286,93.94126,1.00584
269.676,32.76161,0.85525,93.80502,1.00557
270.176,32.80968,0.86191,93.62598,1.00531
270.676,32.85771,0.87837,93.46678,1.00504
271.176,32.9056,0.88876,93.30752,1.00477
271.676,32.95375,0.90196,93.1857,1.0045
272.176,33.00179,0.91553,93.02662,1.00423
272.676,33.04973,0.92916,92.85591,1.00396
273.176,33.09751,0.94209,92.69022,1.00368
273.676,33.14571,0.95536,92.52549,1.00341
274.176,33.1937,0.96825,92.34867,1.00314
274.676,33.2416,0.98221,92.12788,1.00287
275.176,33.2901,0.99747,91.95905,1.0026
275.676,33.33808,1.01235,91.78249,1.00232
276.176,33.3864,1.02648,91.59187,1.00205
276.676,33.43464,1.04249,91.39724,1.00177
277.176,33.48258,1.05652,91.18299,1.0015
277.676,33.5307,1.06934,90.9581,1.00122
278.176,33.57863,1.08707,90.78785,1.00095
278.676,33.62668,1.10202,90.59965,1.00067
279.176,33.6749,1.11778,90.37762,1.00039
279.676,33.7231,1.13337,90.12714,1.00012
280.176,33.7712,1.14881,89.90773,0.99984
280.676,33.81923,1.16481,89.7072,0.99956
281.176,33.8671,1.17921,89.4765,0.99928
281.676,33.9151,1.19424,89.21151,0.99901
282.176,33.963,1.20985,88.95789,0.99873
282.676,34.011,1.22539,88.69682,0.99845
283.176,34.0592,1.24404,88.45636,0.99817
283.676,34.10739,1.25731,88.2024,0.99789
284.176,34.15552,1.2745,87.9575,0.9976
284.676,34.20369,1.28802,87.6509,0.99732
285.176,34.25178,1.30426,87.40342,0.99704
285.676,34.29984,1.32032,87.12187,0.99676
286.176,34.3479,1.33501,86.85138,0.99648
286.676,34.3959,1.35307,86.56948,0.99619
287.176,34.44404,1.36887,86.29427,0.99591
287.676,34.49216,1.38009,85.9692,0.99563
288.176,34.5402,1.39382,85.66506,0.99534
288.676,34.5882,1.4074,85.37914,0.99506
289.176,34.6363,1.42271,85.06591,0.99477
289.676,34.6845,1.43379,84.7713,0.99449
290.176,34.7325,1.44659,84.4835,0.9942
290.676,34.7806,1.45873,84.15831,0.99391
291.176,34.82868,1.47008,83.84,0.99363
291.676,34.87672,1.48138,83.5203,0.99334
292.176,34.92476,1.48997,83.1966,0.99305
292.676,34.97292,1.50005,82.8891,0.99276
293.176,35.02098,1.50447,82.53275,0.99247
293.676,35.06908,1.50901,82.18741,0.99218
294.176,35.11725,1.51603,81.87903,0.99189
294.676,35.16529,1.51763,81.54521,0.9916
295.176,35.21347,1.51475,81.19792,0.99131
295.676,35.26167,1.51135,80.87265,0.99102
296.176,35.3097,1.50511,80.51977,0.99073
296.676,35.35798,1.49591,80.21185,0.99044
297.176,35.406,1.48236,79.90661,0.99015
297.676,35.45405,1.46538,79.58219,0.98985
298.176,35.50215,1.4458,79.26435,0.98956
298.676,35.55,1.42163,78.93988,0.98927
299.176,35.59803,1.39476,78.6191,0.98897
299.676,35.646,1.36673,78.3484,0.98868
300.176,35.69392,1.33553,78.0578,0.98839
300.676,35.7419,1.30517,77.7923,0.98809
301.176,35.7896,1.27241,77.53754,0.98779
301.676,35.83718,1.23713,77.26459,0.9875
302.176,35.88482,1.2104,76.97077,0.9872
302.676,35.93243,1.18025,76.7333,0.98691
303.176,35.9801,1.14867,76.4815,0.98661
303.676,36.02792,1.11739,76.26938,0.98631
304.176,36.07565,1.08375,76.04565,0.98601
304.676,36.12334,1.04827,75.81255,0.98571
305.176,36.17105,1.01357,75.5673,0.98542
305.676,36.2184,0.97705,75.36906,0.98512
306.176,36.26592,0.94096,75.15776,0.98482
306.676,36.3134,0.90361,74.97436,0.98452
307.176,36.36092,0.86962,74.8223,0.98422
307.676,36.40854,0.83071,74.65512,0.98391
308.176,36.45647,0.79677,74.44621,0.98361
308.676,36.50425,0.76034,74.26439,0.98331
309.176,36.552,0.72608,74.13685,0.98301
309.676,36.5996,0.69264,73.97927,0.98271
310.176,36.64712,0.6641,73.83018,0.9824
310.676,36.69467,0.63154,73.71257,0.9821
311.176,36.74236,0.60354,73.60684,0.9818
311.676,36.78986,0.57811,73.5189,0.98149
312.176,36.83747,0.55663,73.36788,0.98119
312.676,36.88525,0.53523,73.24714,0.98088
313.176,36.933,0.5174,73.1686,0.98058
313.676,36.98076,0.49942,73.08301,0.98027
314.176,37.02848,0.48466,72.99794,0.97996
314.676,37.07633,0.47222,72.93127,0.97966
315.176,37.12407,0.45952,72.85955,0.97935
315.676,37.17173,0.44889,72.74599,0.97904
316.176,37.2196,0.43634,72.68655,0.97874
316.676,37.26742,0.42943,72.62594,0.97843
317.176,37.31518,0.41949,72.55449,0.97812
317.676,37.36311,0.41621,72.47351,0.97781
318.176,37.4109,0.40587,72.42158,0.9775
318.676,37.45862,0.40063,72.3261,0.97719
319.176,37.5062,0.39333,72.27028,0.97688
319.676,37.55386,0.38821,72.1956,0.97657
320.176,37.60168,0.38354,72.16338,0.97626
320.676,37.6494,0.37525,72.08234,0.97595
321.176,37.69764,0.36841,72.0366,0.97563
321.676,37.74564,0.36542,71.95799,0.97532
322.176,37.79359,0.36091,71.90403,0.97501
322.676,37.84153,0.35517,71.8455,0.9747
323.176,37.8894,0.35009,71.77752,0.97438
323.676,37.93727,0.3459,71.70981,0.97407
324.176,37.9852,0.34391,71.6848,0.97375
324.676,38.03322,0.33743,71.6429,0.97344
325.176,38.08126,0.33371,71.57435,0.97312
325.676,38.1293,0.33206,71.5367,0.97281
326.176,38.1773,0.32844,71.4859,0.97249
326.676,38.22522,0.32572,71.4277,0.97218
327.176,38.27317,0.32464,71.38634,0.97186
327.676,38.32115,0.31964,71.34405,0.97154
328.176,38.3692,0.31566,71.2812,0.97122
328.676,38.4173,0.31343,71.2244,0.97091
329.176,38.46537,0.31199,71.17067,0.97059
329.676,38.51347,0.31005,71.12751,0.97027
330.176,38.56147,0.30882,71.08023,0.96995
330.676,38.60954,0.30579,71.0449,0.96963
331.176,38.65745,0.30563,70.96629,0.96931
331.676,38.70528,0.30451,70.9111,0.96899
332.176,38.75326,0.30291,70.9046,0.96867
332.676,38.8011,0.30397,70.86659,0.96835
333.176,38.84901,0.29792,70.792,0.96803
333.676,38.8967,0.29635,70.74319,0.96771
334.176,38.94457,0.29489,70.72103,0.96738
334.676,38.99235,0.29361,70.65575,0.96706
335.176,39.04038,0.29595,70.6045,0.96674
335.676,39.08851,0.29363,70.53627,0.96641
336.176,39.1368,0.29257,70.4964,0.96609
336.676,39.18481,0.29393,70.46506,0.96577
337.176,39.23291,0.29534,70.40808,0.96544
337.676,39.28087,0.29695,70.33014,0.96512
338.176,39.32889,0.29667,70.28264,0.96479
338.676,39.37692,0.29717,70.2207,0.96447
339.176,39.425,0.29879,70.1497,0.96414
339.676,39.47303,0.29991,70.0728,0.96381
340.176,39.52089,0.30087,69.9999,0.96349
340.676,39.56885,0.30425,69.96177,0.96316
341.176,39.61683,0.30674,69.90352,0.96283
341.676,39.6651,0.30596,69.84666,0.9625
342.176,39.71335,0.3087,69.76133,0.96218
342.676,39.76168,0.31225,69.66603,0.96185
343.176,39.80992,0.314,69.5656,0.96152
343.676,39.8581,0.31816,69.481,0.96119
344.176,39.90612,0.32399,69.39865,0.96086
344.676,39.9542,0.32553,69.31158,0.96053
345.176,40.00235,0.33054,69.21598,0.9602
345.676,40.05065,0.33184,69.12756,0.95987
346.176,40.0989,0.33747,69.0238,0.95954
346.676,40.1473,0.34109,68.90735,0.9592
347.176,40.1958,0.34661,68.79035,0.95887
347.676,40.24423,0.35139,68.6962,0.95854
348.176,40.29266,0.35699,68.5468,0.95821
348.676,40.34091,0.36403,68.39836,0.95787
349.176,40.38932,0.37032,68.27789,0.95754
349.676,40.43763,0.37287,68.1221,0.95721
350.176,40.486,0.38257,67.91779,0.95687
350.676,40.5343,0.38847,67.8002,0.95654
351.176,40.5827,0.39574,67.6203,0.9562
351.676,40.6312,0.40226,67.45192,0.95587
352.176,40.67967,0.41048,67.2745,0.95553
352.676,40.7281,0.41916,67.09499,0.9552
353.176,40.77684,0.42735,66.9012,0.95486
353.676,40.82519,0.43545,66.69747,0.95452
354.176,40.87366,0.44305,66.45913,0.95418
354.676,40.9219,0.45313,66.2182,0.95385
355.176,40.97047,0.46129,65.99852,0.95351
355.676,41.019,0.46869,65.74255,0.95317
356.176,41.06746,0.4796,65.47411,0.95283
356.676,41.11607,0.4926,65.2037,0.95249
357.176,41.16487,0.5014,64.9229,0.95215
357.676,41.21331,0.51256,64.6099,0.95181
358.176,41.26186,0.52104,64.29266,0.95147
358.676,41.31042,0.53314,63.9129,0.95113
359.176,41.3589,0.54412,63.57801,0.95079
359.676,41.40741,0.5554,63.25966,0.95045
360.176,41.4561,0.56672,62.91425,0.95011
360.676,41.5044,0.58051,62.5393,0.94977
361.176,41.5528,0.59179,62.1329,0.94943
361.676,41.6014,0.60362,61.7077,0.94908
362.176,41.64995,0.61813,61.28304,0.94874
362.676,41.69856,0.63103,60.85306,0.9484
363.176,41.74752,0.64534,60.3965,0.94805
363.676,41.79619,0.65808,59.8906,0.94771
364.176,41.84485,0.67015,59.35665,0.94736
364.676,41.89343,0.68175,58.88,0.94702
365.176,41.94218,0.697,58.32735,0.94667
365.676,41.9908,0.70955,57.7587,0.94633
366.176,42.03958,0.72374,57.17846,0.94598
366.676,42.0884,0.73734,56.56159,0.94564
367.176,42.1372,0.75104,55.96674,0.94529
367.676,42.18606,0.76481,55.34565,0.94494
368.176,42.23482,0.77663,54.67168,0.9446
368.676,42.2836,0.78882,53.984,0.94425
369.176,42.3324,0.80002,53.29081,0.9439
369.676,42.38113,0.81271,52.56811,0.94355
370.176,42.42985,0.82567,51.81505,0.9432
370.676,42.47854,0.8372,51.02539,0.94285
371.176,42.5272,0.84865,50.24977,0.9425
371.676,42.576,0.85652,49.47667,0.94216
372.176,42.62448,0.86812,48.6489,0.94181
372.676,42.673,0.87853,47.7956,0.94145
373.176,42.72159,0.88716,46.92168,0.9411
373.676,42.77023,0.89555,46.07165,0.94075
374.176,42.81889,0.90307,45.17702,0.9404
374.676,42.86795,0.90868,44.2641,0.94005
375.176,42.9167,0.9145,43.2575,0.9397
375.676,42.96548,0.91884,42.3185,0.93934
376.176,43.01416,0.92695,41.36642,0.93899
376.676,43.06281,0.92749,40.42816,0.93864
377.176,43.1113,0.92993,39.44583,0.93829
377.676,43.1598,0.92596,38.37952,0.93793
378.176,43.20818,0.92678,37.44514,0.93758
378.676,43.25665,0.92456,36.4505,0.93722
379.176,43.30526,0.92051,35.41414,0.93687
379.676,43.3538,0.91723,34.41447,0.93651
380.176,43.40254,0.90931,33.394,0.93616
380.676,43.45113,0.90421,32.35645,0.9358
381.176,43.49973,0.89476,31.32981,0.93545
381.676,43.54847,0.88558,30.32123,0.93509
382.176,43.59695,0.87479,29.28653,0.93473
382.676,43.64553,0.86039,28.31413,0.93437
383.176,43.6942,0.84868,27.31363,0.93402
383.676,43.7429,0.83139,26.32988,0.93366
384.176,43.79162,0.81269,25.34188,0.9333
384.676,43.84048,0.79709,24.34036,0.93294
385.176,43.88925,0.7779,23.4405,0.93258
385.676,43.93801,0.75921,22.50725,0.93222
386.176,43.98673,0.7351,21.5995,0.93187
386.676,44.0353,0.71244,20.6857,0.93151
387.176,44.08393,0.68787,19.79456,0.93114
387.676,44.13247,0.66784,18.9921,0.93078
388.176,44.18096,0.64375,18.18773,0.93042
388.676,44.2295,0.61867,17.39088,0.93006
389.176,44.27795,0.59364,16.6178,0.9297
389.676,44.32646,0.56464,15.85099,0.92934
390.176,44.37502,0.5425,15.1587,0.92898
390.676,44.42362,0.51621,14.4594,0.92861
391.176,44.47209,0.49245,13.76175,0.92825
391.676,44.52053,0.46515,13.11324,0.92789
392.176,44.5687,0.4433,12.50341,0.92752
392.676,44.61714,0.41784,11.93163,0.92716
393.176,44.66555,0.39604,11.37326,0.9268
393.676,44.71385,0.37272,10.80984,0.92643
394.176,44.76239,0.35335,10.26905,0.92607
394.676,44.81078,0.33105,9.7649,0.9257
395.176,44.859,0.30865,9.29399,0.92534
395.676,44.90732,0.29076,8.84331,0.92497
396.176,44.95555,0.27305,8.39528,0.92461
396.676,45.0039,0.25586,7.99562,0.92424
397.176,45.05229,0.23789,7.61166,0.92387
397.676,45.1006,0.22136,7.24881,0.92351
398.176,45.14913,0.20685,6.86509,0.92314
398.676,45.1976,0.19099,6.54013,0.92277
399.176,45.24606,0.17849,6.19968,0.9224
399.676,45.29449,0.16697,5.89711,0.92203
400.176,45.34305,0.15256,5.6076,0.92167
400.676,45.39132,0.14386,5.33065,0.9213
401.176,45.43971,0.12822,5.07232,0.92093
401.676,45.4882,0.11858,4.82974,0.92056
402.176,45.5366,0.10989,4.57826,0.92019
402.676,45.58529,0.09878961,4.3586,0.91982
403.176,45.63381,0.08881743,4.15611,0.91945
403.676,45.6824,0.08189828,3.94794,0.91908
404.176,45.73082,0.07215398,3.74811,0.91871
404.676,45.7794,0.0644913,3.56681,0.91833
405.176,45.82788,0.05690819,3.40935,0.91796
405.676,45.8764,0.05247388,3.26304,0.91759
406.176,45.92521,0.0450726,3.07886,0.91722
406.676,45.97391,0.03913646,2.94404,0.91685
407.176,46.02259,0.03330089,2.82047,0.91647
407.676,46.0715,0.02959414,2.70674,0.9161
408.176,46.1203,0.02367651,2.61296,0.91573
408.676,46.1691,0.01573475,2.46766,0.91535
409.176,46.21777,0.01231974,2.37739,0.91498
409.676,46.26641,0.009916992,2.30547,0.9146
410.176,46.31514,0.004589162,2.20225,0.91423
410.676,46.36379,-0.001077001,2.11004,0.91385
411.176,46.41247,-0.003537538,2.02293,0.91348
411.676,46.4613,-0.006998823,1.96719,0.9131
412.176,46.51005,-0.01151473,1.89016,0.91273
412.676,46.55875,-0.01445884,1.83691,0.91235
413.176,46.6077,-0.01713836,1.79624,0.91197
413.676,46.6565,-0.02033494,1.74485,0.9116
414.176,46.70539,-0.02419927,1.68316,0.91122
414.676,46.7542,-0.02435119,1.56497,0.91084
415.176,46.80294,-0.02884729,1.53275,0.91046
415.676,46.85179,-0.02838951,1.4999,0.91009
416.176,46.90064,-0.03064275,1.46129,0.90971
416.676,46.94954,-0.03291151,1.41829,0.90933
417.176,46.9983,-0.03253746,1.3599,0.90895
417.676,47.04715,-0.03312142,1.37438,0.90857
418.176,47.09592,-0.0377869,1.34991,0.90819
418.676,47.1447,-0.0354697,1.30673,0.90781
419.176,47.19337,-0.03791925,1.27604,0.90743
419.676,47.2421,-0.03747317,1.24654,0.90705
420.176,47.29075,-0.04088211,1.21284,0.90667
420.676,47.3395,-0.04130774,1.18096,0.90629
421.176,47.3883,-0.04183588,1.14705,0.90591
421.676,47.43714,-0.04254579,1.14726,0.90553
422.176,47.4859,-0.0445151,1.11503,0.90514
422.676,47.53477,-0.04016878,1.08258,0.90476
423.176,47.58357,-0.04344629,1.08195,0.90438
423.676,47.63227,-0.04138923,1.06817,0.904
424.176,47.68101,-0.04205042,1.03857,0.90361
424.676,47.7297,-0.04298731,1.01604,0.90323
425.176,47.77854,-0.04304819,0.99465,0.90285
425.676,47.82732,-0.03934241,0.98296,0.90246
426.176,47.87597,-0.03759391,0.98296,0.90208
426.676,47.92467,-0.03560187,0.9625,0.90169
427.176,47.9735,-0.03106823,0.95012,0.90131
427.676,48.02231,-0.02715744,0.94771,0.90092
428.176,48.07115,-0.02632501,0.91706,0.90054
428.676,48.11999,-0.0250662,0.91705,0.90015
429.176,48.16877,-0.02140805,0.88367,0.89977
429.676,48.2176,-0.01870549,0.88396,0.89938
430.176,48.26632,-0.01566928,0.88413,0.89899
430.676,48.31523,-0.01321831,0.85096,0.89861
431.176,48.36425,-0.0121348,0.85113,0.89822
431.676,48.41322,-0.009761685,0.85356,0.89783
432.176,48.46233,-0.01115397,0.85941,0.89744
432.676,48.51149,-0.0146401,0.85798,0.89706
433.176,48.5605,-0.01427201,0.82632,0.89667
433.676,48.6097,-0.01534377,0.82631,0.89628
434.176,48.65894,-0.02205963,0.82631,0.89589
434.676,48.70796,-0.02674053,0.82631,0.8955
435.176,48.75705,-0.0276463,0.82631,0.89511
435.676,48.80616,-0.03185992,0.82631,0.89472
436.176,48.8553,-0.03599865,0.82631,0.89433
436.676,48.90443,-0.04081774,0.82646,0.89394
437.176,48.9538,-0.04332068,0.79306,0.89355
437.676,49.00289,-0.04522362,0.79333,0.89316
438.176,49.052,-0.049176,0.80938,0.89277
438.676,49.10111,-0.04921876,0.80952,0.89238
439.176,49.15025,-0.05123414,0.80952,0.89199
439.676,49.19935,-0.05515179,0.80952,0.8916
440.176,49.2485,-0.05671708,0.80952,0.8912
440.676,49.29745,-0.05522436,0.80952,0.89081
441.176,49.34642,-0.05829576,0.80954,0.89042
441.676,49.39555,-0.06038901,0.7965,0.89003
442.176,49.44471,-0.05810262,0.7767,0.88963
442.676,49.4938,-0.06086377,0.77669,0.88924
443.176,49.54269,-0.06228325,0.77669,0.88885
443.676,49.59172,-0.06242835,0.77669,0.88845
444.176,49.64073,-0.06498921,0.77669,0.88806
444.676,49.68976,-0.06244299,0.77669,0.88766
445.176,49.73899,-0.0659908,0.77669,0.88727
445.676,49.78819,-0.06595361,0.77766,0.88687
446.176,49.8373,-0.06828541,0.74356,0.88648
446.676,49.88625,-0.06799531,0.74361,0.88608
447.176,49.93553,-0.06627947,0.74356,0.88569
447.676,49.9848,-0.0663155,0.76077,0.88529
448.176,50.034,-0.06664775,0.76015,0.88489
448.676,50.08334,-0.06703063,0.76015,0.8845
449.176,50.1325,-0.06886206,0.76015,0.8841
449.676,50.18172,-0.07129941,0.76015,0.8837
450.176,50.231,-0.07147405,0.76018,0.88331
450.676,50.28026,-0.06948552,0.72729,0.88291
451.176,50.3296,-0.07186145,0.72732,0.88251
451.676,50.37897,-0.0728147,0.72724,0.88211
452.176,50.4282,-0.07234732,0.7602,0.88172
452.676,50.47739,-0.07337287,0.75142,0.88132
453.176,50.52669,-0.0711529,0.75188,0.88092
453.676,50.57601,-0.07713517,0.75188,0.88052
454.176,50.6254,-0.07337532,0.75229,0.88012
454.676,50.67479,-0.07729098,0.72722,0.87972
455.176,50.7243,-0.07826698,0.72732,0.87932
455.676,50.77373,-0.07874809,0.72732,0.87892
456.176,50.82315,-0.08192218,0.72732,0.87852
456.676,50.8726,-0.08265859,0.72737,0.87812
457.176,50.9219,-0.0852231,0.69324,0.87772
457.676,50.97135,-0.08684631,0.69424,0.87732
458.176,51.02063,-0.08620082,0.69425,0.87691
458.676,51.07002,-0.09009668,0.71078,0.87651
459.176,51.11935,-0.08699219,0.71078,0.87611
459.676,51.16873,-0.08719568,0.71078,0.87571
460.176,51.21815,-0.08624353,0.71079,0.87531
460.676,51.26747,-0.08734447,0.69782,0.8749
461.176,51.31686,-0.08825509,0.67947,0.8745
461.676,51.36613,-0.08914182,0.67769,0.8741
462.176,51.41531,-0.08960012,0.67769,0.87369
462.676,51.4645,-0.0902889,0.67771,0.87329
463.176,51.5137,-0.08956045,0.66913,0.87289
463.676,51.56284,-0.09097476,0.65312,0.87248
464.176,51.61218,-0.09146178,0.65313,0.87208
464.676,51.66158,-0.0922791,0.6534,0.87167
465.176,51.71096,-0.09260731,0.64456,0.87127
465.676,51.7603,-0.09219814,0.6614,0.87086
466.176,51.8097,-0.09467917,0.66176,0.87046
466.676,51.8589,-0.09585315,0.62832,0.87005
467.176,51.90814,-0.09625698,0.62832,0.86965
467.676,51.9573,-0.09787899,0.62832,0.86924
468.176,52.0065,-0.09795988,0.62831,0.86883
468.676,52.0557,-0.09874177,0.64188,0.86843
469.176,52.1048,-0.097566,0.66142,0.86802
469.676,52.154,-0.09705058,0.67048,0.86761
470.176,52.20319,-0.09801952,0.64526,0.86721
470.676,52.2523,-0.10177,0.64647,0.8668
471.176,52.3013,-0.10194,0.65312,0.86639
471.676,52.35041,-0.10109,0.66135,0.86598
472.176,52.39948,-0.10013,0.66141,0.86557
472.676,52.4488,-0.10282,0.66141,0.86517
473.176,52.4982,-0.10437,0.66141,0.86476
473.676,52.5474,-0.104,0.66097,0.86435
474.176,52.5967,-0.10453,0.64484,0.86394
474.676,52.64586,-0.10438,0.63678,0.86353
475.176,52.695,-0.10467,0.63659,0.86312
475.676,52.7441,-0.1043,0.63661,0.86271
476.176,52.79319,-0.10589,0.6105,0.8623
476.676,52.84236,-0.10435,0.64431,0.86189
477.176,52.89155,-0.10427,0.64499,0.86148
477.676,52.94087,-0.10693,0.61174,0.86107
478.176,52.9902,-0.10844,0.61178,0.86066
478.676,53.03963,-0.11006,0.61179,0.86025
479.176,53.0891,-0.10933,0.63678,0.85983
479.676,53.13834,-0.11126,0.63634,0.85942
480.176,53.18772,-0.11105,0.63634,0.85901
480.676,53.237,-0.11015,0.63634,0.8586
481.176,53.2863,-0.11266,0.63762,0.85819
481.676,53.33574,-0.11457,0.60343,0.85777
482.176,53.3852,-0.11411,0.60312,0.85736
482.676,53.43459,-0.11151,0.57905,0.85695
483.176,53.48395,-0.11366,0.57894,0.85653
483.676,53.5332,-0.11317,0.57921,0.85612
484.176,53.5826,-0.11518,0.55403,0.85571
484.676,53.63188,-0.11906,0.55413,0.85529
485.176,53.6813,-0.11741,0.55412,0.85488
485.676,53.7307,-0.11787,0.56232,0.85447
486.176,53.77995,-0.12024,0.5624,0.85405
486.676,53.82925,-0.1207,0.5624,0.85364
487.176,53.8785,-0.12124,0.55389,0.85322
487.676,53.9279,-0.12127,0.55414,0.85281
488.176,53.97746,-0.123,0.55413,0.85239
488.676,54.02697,-0.1204,0.5543,0.85197
489.176,54.0765,-0.12429,0.52119,0.85156
489.676,54.12616,-0.12346,0.52131,0.85114
490.176,54.1757,-0.12814,0.52142,0.85073
490.676,54.22518,-0.12674,0.54549,0.85031
491.176,54.27471,-0.12875,0.54587,0.84989
491.676,54.32424,-0.12803,0.54586,0.84948
492.176,54.3737,-0.12774,0.54586,0.84906
492.676,54.4233,-0.12769,0.54586,0.84864
493.176,54.47288,-0.13077,0.54586,0.84822
493.676,54.5224,-0.13048,0.54586,0.84781
494.176,54.5719,-0.13284,0.54586,0.84739
494.676,54.62158,-0.13135,0.54586,0.84697
495.176,54.6713,-0.13492,0.54585,0.84655
495.676,54.7209,-0.13682,0.51307,0.84613
496.176,54.77055,-0.13801,0.51278,0.84571
496.676,54.8202,-0.13708,0.51278,0.84529
497.176,54.8698,-0.13842,0.51278,0.84488
497.676,54.9194,-0.1417,0.51278,0.84446
498.176,54.96909,-0.14271,0.51278,0.84404
498.676,55.01859,-0.14021,0.51278,0.84362
499.176,55.06827,-0.14244,0.51278,0.8432
499.676,55.1177,-0.14063,0.51222,0.84278
500.176,55.16754,-0.14451,0.52935,0.84236
500.676,55.2173,-0.14315,0.52932,0.84193
501.176,55.26715,-0.14355,0.52932,0.84151
501.676,55.31697,-0.14629,0.52932,0.84109
502.176,55.3664,-0.14672,0.52932,0.84067
502.676,55.41595,-0.14674,0.52932,0.84025
503.176,55.4655,-0.14701,0.52949,0.83983
503.676,55.51501,-0.14782,0.49607,0.83941
504.176,55.5647,-0.14755,0.49624,0.83898
504.676,55.61435,-0.15101,0.49624,0.83856
505.176,55.6641,-0.14999,0.49624,0.83814
505.676,55.7138,-0.1551,0.49624,0.83772
506.176,55.76351,-0.15231,0.49624,0.83729
506.676,55.8131,-0.15691,0.49624,0.83687
507.176,55.8628,-0.15716,0.49624,0.83645
507.676,55.9124,-0.15984,0.49624,0.83602
508.176,55.96207,-0.16112,0.49624,0.8356
508.676,56.0116,-0.16591,0.49624,0.83518
509.176,56.061,-0.16919,0.5056,0.83475
509.676,56.11048,-0.16683,0.51278,0.83433
510.176,56.1599,-0.17103,0.51278,0.8339
510.676,56.2094,-0.16898,0.50453,0.83348
511.176,56.2589,-0.17228,0.50449,0.83305
511.676,56.3085,-0.17321,0.4719,0.83263
512.176,56.35793,-0.17467,0.47168,0.8322
512.676,56.40707,-0.17314,0.47168,0.83178
513.176,56.45658,-0.17501,0.47168,0.83135
513.676,56.50606,-0.17549,0.46902,0.83093
514.176,56.5557,-0.17687,0.49645,0.8305
514.676,56.60559,-0.17744,0.49651,0.83007
515.176,56.65531,-0.17785,0.50556,0.82965
515.676,56.7048,-0.17534,0.50476,0.82922
516.176,56.7545,-0.17654,0.50476,0.82879
516.676,56.8041,-0.17996,0.50491,0.82837
517.176,56.8537,-0.17933,0.47151,0.82794
517.676,56.90341,-0.18018,0.47168,0.82751
518.176,56.95279,-0.18248,0.47168,0.82709
518.676,57.00235,-0.17779,0.47333,0.82666
519.176,57.05195,-0.17776,0.47995,0.82623
519.676,57.10171,-0.17938,0.47995,0.8258
520.176,57.15159,-0.17983,0.47995,0.82537
520.676,57.20151,-0.18143,0.47995,0.82495
521.176,57.25139,-0.18269,0.47975,0.82452
521.676,57.30118,-0.18008,0.44689,0.82409
522.176,57.3509,-0.1832,0.44686,0.82366
522.676,57.4005,-0.18377,0.44686,0.82323
523.176,57.45024,-0.18129,0.44686,0.8228
523.676,57.49978,-0.18579,0.44687,0.82237
524.176,57.5495,-0.18609,0.47155,0.82194
524.676,57.599,-0.18364,0.47168,0.82151
525.176,57.6485,-0.1833,0.47156,0.82108
525.676,57.69794,-0.18586,0.49596,0.82065
526.176,57.7475,-0.18394,0.49624,0.82022
526.676,57.7973,-0.18453,0.4963,0.81979
527.176,57.84721,-0.18657,0.4881,0.81936
527.676,57.8972,-0.18312,0.48797,0.81893
528.176,57.9471,-0.18373,0.49049,0.8185
528.676,57.99703,-0.18545,0.46342,0.81807
529.176,58.04665,-0.18108,0.46601,0.81764
529.676,58.0965,-0.18489,0.47169,0.8172
530.176,58.1462,-0.18421,0.47168,0.81677
530.676,58.1959,-0.18452,0.47168,0.81634
531.176,58.24566,-0.18602,0.47168,0.81591
531.676,58.2954,-0.18452,0.47168,0.81548
532.176,58.3452,-0.18579,0.47168,0.81504
532.676,58.3948,-0.18477,0.47168,0.81461
533.176,58.44458,-0.18504,0.47168,0.81418
533.676,58.4944,-0.18814,0.47168,0.81375
534.176,58.5441,-0.18838,0.47168,0.81331
534.676,58.59386,-0.18813,0.47168,0.81288
535.176,58.6435,-0.18766,0.47201,0.81245
535.676,58.69294,-0.18749,0.48834,0.81201
536.176,58.7425,-0.18527,0.48822,0.81158
536.676,58.79206,-0.18615,0.48821,0.81115
537.176,58.84176,-0.18772,0.47036,0.81071
537.676,58.89156,-0.18579,0.47168,0.81028
538.176,58.9412,-0.18436,0.47169,0.80984
538.676,58.9908,-0.18506,0.46351,0.80941
539.176,59.04074,-0.18761,0.4523,0.80897
539.676,59.0906,-0.18586,0.39723,0.80854
540.176,59.1405,-0.18854,0.43037,0.8081
540.676,59.19047,-0.18741,0.43032,0.80767
541.176,59.2402,-0.1862,0.43032,0.80723
541.676,59.28983,-0.18838,0.43032,0.8068
542.176,59.33951,-0.18663,0.43032,0.80636
542.676,59.3892,-0.18913,0.4304,0.80593
543.176,59.439,-0.18506,0.44683,0.80549
543.676,59.4887,-0.19079,0.44686,0.80506
544.176,59.53847,-0.19048,0.44686,0.80462
544.676,59.58843,-0.19079,0.44686,0.80418
545.176,59.63824,-0.19093,0.44686,0.80375
545.676,59.68832,-0.18929,0.44686,0.80331
546.176,59.7381,-0.19005,0.44192,0.80287
546.676,59.78784,-0.1901,0.40048,0.80244
547.176,59.83765,-0.1913,0.39749,0.802
547.676,59.8875,-0.19005,0.3975,0.80156
548.176,59.9371,-0.19187,0.3975,0.80112
548.676,59.98701,-0.19374,0.39752,0.80069
549.176,60.03689,-0.19279,0.42108,0.80025
549.676,60.0868,-0.19312,0.42231,0.79981
550.176,60.13681,-0.19065,0.42231,0.79937
550.676,60.1867,-0.19145,0.42231,0.79893
551.176,60.23656,-0.19325,0.42142,0.7985
551.676,60.2864,-0.19498,0.43058,0.79806
552.176,60.3363,-0.19409,0.4145,0.79762
552.676,60.3861,-0.19408,0.40575,0.79718
553.176,60.436,-0.19752,0.40577,0.79674
553.676,60.4858,-0.19339,0.40577,0.7963
554.176,60.53558,-0.1967,0.40576,0.79586
554.676,60.58545,-0.19739,0.41314,0.79542
555.176,60.6353,-0.19807,0.46301,0.79498
555.676,60.6851,-0.20001,0.44165,0.79454
556.176,60.73508,-0.19634,0.43052,0.7941
556.676,60.78494,-0.19779,0.40328,0.79366
557.176,60.83475,-0.20022,0.40579,0.79322
557.676,60.88455,-0.19834,0.43115,0.79278
558.176,60.93416,-0.19931,0.43856,0.79234
558.676,60.98364,-0.19964,0.40841,0.7919
559.176,61.0333,-0.20089,0.40576,0.79146
559.676,61.08282,-0.19778,0.40577,0.79102
560.176,61.1326,-0.19881,0.40577,0.79058
560.676,61.1824,-0.20014,0.40348,0.79014
561.176,61.2322,-0.2013,0.4304,0.7897
561.676,61.2817,-0.19966,0.43032,0.78926
562.176,61.3314,-0.19809,0.43031,0.78882
562.676,61.3811,-0.20156,0.40407,0.78837
563.176,61.4309,-0.20168,0.40548,0.78793
563.676,61.48086,-0.20038,0.39742,0.78749
564.176,61.5308,-0.19928,0.36438,0.78705
564.676,61.58065,-0.20328,0.39702,0.78661
565.176,61.63044,-0.20551,0.39724,0.78616
565.676,61.6803,-0.20035,0.39724,0.78572
566.176,61.7301,-0.19942,0.39725,0.78528
566.676,61.7801,-0.20391,0.36433,0.78484
567.176,61.83008,-0.20307,0.36441,0.78439
567.676,61.88001,-0.20171,0.36441,0.78395
568.176,61.93009,-0.20476,0.36441,0.78351
568.676,61.9801,-0.20462,0.36441,0.78307
569.176,62.03,-0.20353,0.37265,0.78262
569.676,62.0802,-0.20267,0.35614,0.78218
570.176,62.1303,-0.2032,0.35614,0.78173
570.676,62.1804,-0.20334,0.35614,0.78129
571.176,62.23046,-0.20646,0.35613,0.78085
571.676,62.2804,-0.20043,0.36436,0.7804
572.176,62.3304,-0.20381,0.36441,0.77996
572.676,62.3803,-0.20432,0.36442,0.77952
573.176,62.43031,-0.20309,0.35638,0.77907
573.676,62.48035,-0.20041,0.35614,0.77863
574.176,62.5303,-0.2057,0.35613,0.77818
574.676,62.5802,-0.20156,0.37263,0.77774
575.176,62.63006,-0.20368,0.37268,0.77729
575.676,62.68,-0.20306,0.37268,0.77685
576.176,62.72982,-0.20634,0.37268,0.7764
576.676,62.7798,-0.20534,0.37268,0.77596
577.176,62.82962,-0.20588,0.3727,0.77551
577.676,62.8795,-0.20376,0.3395,0.77507
578.176,62.92951,-0.2044,0.3396,0.77462
578.676,62.9794,-0.20438,0.33954,0.77418
579.176,63.02939,-0.2059,0.3727,0.77373
579.676,63.07946,-0.20725,0.37268,0.77328
580.176,63.1295,-0.20255,0.37264,0.77284
580.676,63.1797,-0.20672,0.3892,0.77239
581.176,63.22979,-0.20738,0.38923,0.77195
581.676,63.2796,-0.20458,0.38157,0.7715
582.176,63.3294,-0.20604,0.38093,0.77105
582.676,63.37944,-0.20413,0.38095,0.77061
583.176,63.42943,-0.20201,0.38095,0.77016
583.676,63.47951,-0.2027,0.38095,0.76971
584.176,63.52985,-0.20453,0.38095,0.76927
584.676,63.57986,-0.20444,0.38097,0.76882
585.176,63.62993,-0.20382,0.38923,0.76837
585.676,63.67991,-0.20368,0.38923,0.76793
586.176,63.7298,-0.20627,0.39699,0.76748
586.676,63.77998,-0.20292,0.41378,0.76703
587.176,63.82995,-0.2018,0.41378,0.76658
587.676,63.88006,-0.20215,0.41378,0.76614
588.176,63.93016,-0.20504,0.41378,0.76569
588.676,63.9802,-0.20342,0.41378,0.76524
589.176,64.0303,-0.20073,0.41378,0.76479
589.676,64.08041,-0.20038,0.41378,0.76434
590.176,64.1306,-0.20198,0.40524,0.7639
590.676,64.18079,-0.19959,0.40554,0.76345
591.176,64.23105,-0.20117,0.37259,0.763
591.676,64.28121,-0.20307,0.37268,0.76255
592.176,64.33148,-0.20095,0.37268,0.7621
592.676,64.38156,-0.20507,0.37268,0.76165
593.176,64.43168,-0.20266,0.37268,0.76121
593.676,64.48181,-0.20365,0.37264,0.76076
594.176,64.53198,-0.203,0.39783,0.76031
594.676,64.58219,-0.20374,0.3975,0.75986
595.176,64.63237,-0.20045,0.3975,0.75941
595.676,64.68265,-0.20097,0.39749,0.75896
596.176,64.73283,-0.20242,0.39897,0.75851
596.676,64.78296,-0.20481,0.33115,0.75806
597.176,64.83314,-0.19956,0.33133,0.75761
597.676,64.88291,-0.20496,0.33136,0.75716
598.176,64.93309,-0.20022,0.36146,0.75671
598.676,64.9833,-0.20187,0.39745,0.75626
599.176,65.03344,-0.20357,0.39762,0.75581
599.676,65.08377,-0.20414,0.36424,0.75536
600.176,65.13393,-0.20214,0.36441,0.75491
600.676,65.18394,-0.20384,0.36441,0.75446
601.176,65.23391,-0.20193,0.36441,0.75401
601.676,65.28412,-0.19741,0.36441,0.75356
602.176,65.33407,-0.20278,0.36441,0.75311
602.676,65.38415,-0.20059,0.36441,0.75266
603.176,65.43445,-0.20176,0.36441,0.75221
603.676,65.48454,-0.19806,0.36442,0.75176
604.176,65.53485,-0.19943,0.35644,0.75131
604.676,65.585,-0.19913,0.32965,0.75086
605.176,65.63495,-0.1981,0.33133,0.75041
605.676,65.68513,-0.19646,0.33133,0.74996
606.176,65.73524,-0.19733,0.33133,0.7495
606.676,65.78525,-0.19987,0.33133,0.74905
607.176,65.8352,-0.19737,0.329,0.7486
607.676,65.8852,-0.1986,0.36442,0.74815
608.176,65.9353,-0.19795,0.36441,0.7477
608.676,65.9853,-0.2014,0.3646,0.74725
609.176,66.03545,-0.19911,0.34023,0.7468
609.676,66.08555,-0.19833,0.33955,0.74634
610.176,66.1355,-0.19841,0.30735,0.74589
610.676,66.18555,-0.19558,0.33405,0.74544
611.176,66.23562,-0.19736,0.33962,0.74499
611.676,66.28571,-0.19785,0.32615,0.74454
612.176,66.33591,-0.19837,0.30677,0.74408
612.676,66.38608,-0.19983,0.33111,0.74363
613.176,66.4362,-0.19914,0.33961,0.74318
613.676,66.48644,-0.20232,0.3396,0.74273
614.176,66.53658,-0.19915,0.3396,0.74227
614.676,66.58667,-0.19927,0.3396,0.74182
615.176,66.63684,-0.19822,0.3396,0.74137
615.676,66.687,-0.19574,0.3396,0.74092
616.176,66.73721,-0.19894,0.3396,0.74046
616.676,66.7874,-0.19765,0.3396,0.74001
617.176,66.83763,-0.196,0.3396,0.73956
617.676,66.88781,-0.19659,0.34014,0.7391
618.176,66.938,-0.19638,0.37266,0.73865
618.676,66.98815,-0.19483,0.37268,0.7382
619.176,67.03837,-0.19455,0.37267,0.73774
619.676,67.0887,-0.19486,0.3573,0.73729
620.176,67.13888,-0.19696,0.34763,0.73684
620.676,67.18905,-0.19589,0.30623,0.73638
621.176,67.2394,-0.19378,0.30651,0.73593
621.676,67.28954,-0.19397,0.31386,0.73548
622.176,67.33959,-0.19809,0.3396,0.73502
622.676,67.39,-0.19472,0.3396,0.73457
623.176,67.44024,-0.19726,0.3396,0.73411
623.676,67.49056,-0.19718,0.3396,0.73366
624.176,67.54095,-0.19651,0.3396,0.73321
624.676,67.5911,-0.19757,0.3396,0.73275
625.176,67.6413,-0.19738,0.33902,0.7323
625.676,67.69158,-0.19694,0.37269,0.73184
626.176,67.7415,-0.19544,0.37258,0.73139
626.676,67.7918,-0.19736,0.33986,0.73094
627.176,67.842,-0.19477,0.3396,0.73048
627.676,67.8922,-0.19659,0.35015,0.73003
628.176,67.94275,-0.19605,0.35614,0.72957
628.676,67.99303,-0.19657,0.35614,0.72912
629.176,68.04348,-0.1963,0.33899,0.72866
629.676,68.09385,-0.1952,0.32305,0.72821
630.176,68.1441,-0.19896,0.32306,0.72775
630.676,68.19454,-0.19695,0.32306,0.7273
631.176,68.24469,-0.19698,0.32306,0.72684
631.676,68.2949,-0.19633,0.32306,0.72639
632.176,68.34509,-0.19669,0.32274,0.72593
632.676,68.39533,-0.19651,0.29054,0.72548
633.176,68.44546,-0.2015,0.29005,0.72502
633.676,68.49554,-0.19493,0.32321,0.72457
634.176,68.54551,-0.19533,0.32306,0.72411
634.676,68.59557,-0.19559,0.32307,0.72366
635.176,68.64574,-0.19604,0.33692,0.7232
635.676,68.6959,-0.1997,0.33961,0.72275
636.176,68.74628,-0.19853,0.30494,0.72229
636.676,68.79642,-0.19708,0.30679,0.72183
637.176,68.84655,-0.19588,0.33562,0.72138
637.676,68.89662,-0.19698,0.3396,0.72092
638.176,68.9466,-0.19811,0.33977,0.72047
638.676,68.99673,-0.1962,0.30664,0.72001
639.176,69.04685,-0.19565,0.30679,0.71956
639.676,69.09695,-0.19749,0.33624,0.7191
640.176,69.1472,-0.19508,0.3396,0.71864
640.676,69.1973,-0.1958,0.3396,0.71819
641.176,69.24754,-0.19672,0.33976,0.71773
641.676,69.29769,-0.19203,0.30668,0.71728
642.176,69.34791,-0.19656,0.30705,0.71682
642.676,69.398,-0.19647,0.33947,0.71636
643.176,69.4481,-0.1935,0.33946,0.71591
643.676,69.49839,-0.19538,0.32336,0.71545
644.176,69.54862,-0.19505,0.32331,0.71499
644.676,69.59907,-0.19565,0.32272,0.71454
645.176,69.64949,-0.19496,0.35617,0.71408
645.676,69.6999,-0.20016,0.32304,0.71362
646.176,69.75028,-0.19626,0.32306,0.71317
646.676,69.8006,-0.19517,0.32306,0.71271
647.176,69.85083,-0.19765,0.32306,0.71225
647.676,69.90106,-0.19689,0.32306,0.7118
648.176,69.9512,-0.19853,0.32306,0.71134
648.576,69.9914,-0.19788,0.32306,0.71098