File: 01_Data/Polyester_Microfiber_Sheet/STA/N2/30K_min/Polyester_Microfiber_Sheet_STA_N2_30KData_220527_R3.csv
##Temp./Â°C,Time/min,Mass loss(subtr.2)/mg,DSC(subtr.2)/(mW/mg),Sensit./(uV/mW)
48.681,10.00667,-0.0046,0.0005456296,1.05398
49.281,10.53557,-0.00577897,0.03662472,1.05386
49.881,10.6547,-0.00429976,0.06916194,1.05374
50.481,10.7399,-0.003399311,0.09787189,1.05361
51.081,10.80897,-0.003879488,0.1244,1.05349
51.681,10.86858,-0.0027778,0.15145,1.05336
52.281,10.9213,-0.003708963,0.17157,1.05324
52.881,10.96973,-0.003147922,0.19425,1.05311
53.481,11.0143,-0.003717974,0.21771,1.05299
54.081,11.0562,-0.00273434,0.23398,1.05286
54.681,11.09577,-0.00380266,0.25239,1.05273
55.281,11.1331,-0.003951779,0.27185,1.05261
55.881,11.1694,-0.003384005,0.28623,1.05248
56.481,11.2043,-0.004863663,0.30437,1.05235
57.081,11.23743,-0.00579107,0.31991,1.05222
57.681,11.26902,-0.00271159,0.3329,1.05209
58.281,11.3005,-0.001377339,0.34721,1.05195
58.881,11.33191,-0.000753299,0.36339,1.05182
59.481,11.3619,-0.002352209,0.37614,1.05169
60.081,11.3909,-0.003058066,0.38856,1.05156
60.681,11.41951,-0.004032243,0.40069,1.05142
61.281,11.44743,-0.0032942,0.41074,1.05129
61.881,11.475,-0.002085914,0.42334,1.05115
62.481,11.50201,-0.0004857792,0.43297,1.05102
63.081,11.52866,-0.00271041,0.44374,1.05088
63.681,11.5548,-0.003117365,0.45471,1.05074
64.281,11.58038,-0.001898175,0.46504,1.0506
64.881,11.60553,-0.001232644,0.47217,1.05046
65.481,11.6305,-0.001844605,0.48217,1.05032
66.081,11.65575,-0.002239497,0.49297,1.05018
66.681,11.68093,-0.0025987,0.50418,1.05004
67.281,11.70585,-0.002528811,0.51241,1.0499
67.881,11.73024,-0.001839404,0.52156,1.04976
68.481,11.75418,-0.002085665,0.53039,1.04962
69.081,11.77795,-0.00375264,0.53863,1.04948
69.681,11.80156,-0.00416972,0.54843,1.04933
70.281,11.82522,-0.00376186,0.55668,1.04919
70.881,11.84863,-0.002769759,0.56518,1.04904
71.481,11.8718,-0.002147827,0.57434,1.0489
72.081,11.8949,-0.002566413,0.5838,1.04875
72.681,11.91775,-0.00346194,0.59073,1.0486
73.281,11.94048,-0.003463852,0.59936,1.04845
73.881,11.96307,-0.002407157,0.60554,1.04831
74.481,11.98558,-0.002886,0.61136,1.04816
75.081,12.00798,-0.00341813,0.6224,1.04801
75.681,12.03036,-0.003399079,0.62556,1.04786
76.281,12.05258,-0.003415418,0.62973,1.04771
76.881,12.0748,-0.00340477,0.63927,1.04756
77.481,12.09672,-0.00356832,0.63761,1.0474
78.081,12.11867,-0.002897032,0.63996,1.04725
78.681,12.14044,-0.001633486,0.64115,1.0471
79.281,12.16222,-0.00111092,0.64151,1.04694
79.881,12.1839,-0.000841523,0.63924,1.04679
80.481,12.20558,-0.001638506,0.63902,1.04663
81.081,12.22677,-0.003184265,0.63598,1.04648
81.681,12.24813,-0.002677795,0.63307,1.04632
82.281,12.26948,-0.00327172,0.63266,1.04616
82.881,12.29095,-0.003434356,0.62926,1.046
83.481,12.31255,-0.003863508,0.62563,1.04585
84.081,12.33381,-0.003408702,0.62385,1.04569
84.681,12.35495,-0.004221815,0.6226,1.04553
85.281,12.37601,-0.00338567,0.61972,1.04537
85.881,12.39696,-0.00328323,0.61787,1.04521
86.481,12.4178,-0.00284255,0.6175,1.04504
87.081,12.43868,-0.002536705,0.61589,1.04488
87.681,12.45955,-0.002576187,0.61473,1.04472
88.281,12.48034,-0.00185343,0.61071,1.04455
88.881,12.5011,-0.00188429,0.61113,1.04439
89.481,12.5219,-0.003209291,0.60961,1.04423
90.081,12.5426,-0.00199971,0.60682,1.04406
90.681,12.56329,-0.002137018,0.60568,1.04389
91.281,12.58387,-0.001864844,0.60611,1.04373
91.881,12.60436,-0.0017996,0.60554,1.04356
92.481,12.62491,-0.0006104108,0.60472,1.04339
93.081,12.6454,-0.00176331,0.60441,1.04322
93.681,12.66595,-0.000833708,0.60323,1.04305
94.281,12.68644,-0.0007514291,0.60435,1.04288
94.881,12.70681,-0.001749455,0.6028,1.04271
95.481,12.7271,-0.001747839,0.60308,1.04254
96.081,12.74742,-0.002800993,0.60246,1.04237
96.681,12.76779,-0.00307706,0.60302,1.0422
97.281,12.78808,-0.00197094,0.60219,1.04203
97.881,12.80839,-0.00175214,0.60339,1.04185
98.481,12.82869,-0.00221869,0.60342,1.04168
99.081,12.84887,-0.00160404,0.60434,1.0415
99.681,12.86908,-0.001664794,0.60584,1.04133
100.281,12.8893,-0.00145414,0.60791,1.04115
100.881,12.90938,-0.001652266,0.60921,1.04097
101.481,12.92954,-0.00165337,0.60982,1.0408
102.081,12.94965,-0.001405508,0.61278,1.04062
102.681,12.96979,-0.001532832,0.61635,1.04044
103.281,12.9899,-0.0016896,0.61858,1.04026
103.881,13.0101,-0.000254055,0.62111,1.04008
104.481,13.03024,-0.00154507,0.62332,1.0399
105.081,13.05037,-0.00164111,0.62488,1.03972
105.681,13.07052,-0.001640943,0.62796,1.03954
106.281,13.0906,-0.0015892,0.63023,1.03936
106.881,13.11054,-0.00286712,0.63382,1.03917
107.481,13.13035,-0.001623017,0.6394,1.03899
108.081,13.15041,-0.001639989,0.64141,1.03881
108.681,13.17046,-0.001657421,0.64487,1.03862
109.281,13.1908,-0.000578704,0.64589,1.03844
109.881,13.2109,-0.0009838918,0.65062,1.03825
110.481,13.2311,-0.000990086,0.65478,1.03806
111.081,13.2512,-0.0009913403,0.65731,1.03788
111.681,13.2711,-0.000919231,0.66238,1.03769
112.281,13.29115,-0.001637402,0.66586,1.0375
112.881,13.3111,-0.00164568,0.66758,1.03731
113.481,13.331,-0.000866029,0.67161,1.03712
114.081,13.3509,-0.001576062,0.67551,1.03693
114.681,13.37084,-0.001640965,0.68074,1.03674
115.281,13.3908,-0.001639987,0.68293,1.03655
115.881,13.4109,-0.00163968,0.6852,1.03636
116.481,13.43074,-0.00165656,0.68821,1.03617
117.081,13.4507,-0.002559833,0.69553,1.03597
117.681,13.47055,-0.002691248,0.69871,1.03578
118.281,13.49035,-0.001625655,0.70326,1.03558
118.881,13.5103,-0.00164029,0.70606,1.03539
119.481,13.53011,-0.001639628,0.7093,1.03519
120.081,13.54996,-0.00165847,0.71328,1.035
120.681,13.56981,-0.0003920889,0.7168,1.0348
121.281,13.58939,-0.00169001,0.71865,1.0346
121.881,13.6092,-0.001639047,0.72457,1.0344
122.481,13.629,-0.001640022,0.72713,1.03421
123.081,13.64877,-0.001639831,0.73112,1.03401
123.681,13.66875,-0.00164874,0.73511,1.03381
124.281,13.6885,-0.002522305,0.73907,1.03361
124.881,13.7082,-0.00296335,0.74064,1.03341
125.481,13.72785,-0.00295441,0.74501,1.0332
126.081,13.7475,-0.002236366,0.74914,1.033
126.681,13.7672,-0.001979668,0.75279,1.0328
127.281,13.78689,-0.00197724,0.75672,1.0326
127.881,13.8066,-0.003287208,0.75887,1.03239
128.481,13.8263,-0.0032904,0.76082,1.03219
129.081,13.8459,-0.00328996,0.76473,1.03198
129.681,13.86539,-0.00329201,0.76992,1.03178
130.281,13.8849,-0.00303583,0.77256,1.03157
130.881,13.90443,-0.00295827,0.77538,1.03136
131.481,13.9239,-0.00296004,0.78011,1.03116
132.081,13.94335,-0.002959994,0.78395,1.03095
132.681,13.9628,-0.00296022,0.78474,1.03074
133.281,13.98226,-0.002950557,0.78962,1.03053
133.881,14.00174,-0.002084369,0.79483,1.03032
134.481,14.02116,-0.00163725,0.79977,1.03011
135.081,14.0406,-0.00164003,0.80106,1.0299
135.681,14.05995,-0.00164,0.80628,1.02969
136.281,14.07934,-0.001640485,0.80971,1.02947
136.881,14.09864,-0.001597487,0.81388,1.02926
137.481,14.11801,-0.002991428,0.81736,1.02905
138.081,14.1374,-0.002959212,0.82025,1.02883
138.681,14.1567,-0.002960085,0.82388,1.02862
139.281,14.17601,-0.00295706,0.82988,1.0284
139.881,14.19515,-0.003079671,0.83249,1.02819
140.481,14.2143,-0.0042708,0.83632,1.02797
141.081,14.23356,-0.00428005,0.83824,1.02775
141.681,14.25279,-0.004280078,0.84317,1.02754
142.281,14.272,-0.004272398,0.84553,1.02732
142.881,14.2912,-0.003927028,0.85003,1.0271
143.481,14.3104,-0.00390022,0.85124,1.02688
144.081,14.3296,-0.00233525,0.85526,1.02666
144.681,14.3488,-0.002293171,0.85975,1.02644
145.281,14.36793,-0.00194237,0.85918,1.02622
145.881,14.387,-0.001968666,0.86307,1.026
146.481,14.40603,-0.002903121,0.86879,1.02578
147.081,14.42501,-0.003287488,0.87002,1.02555
147.681,14.4441,-0.00329007,0.87204,1.02533
148.281,14.4632,-0.00329008,0.87741,1.02511
148.881,14.48224,-0.003286786,0.87934,1.02488
149.481,14.50128,-0.003387207,0.88161,1.02466
150.081,14.52026,-0.00326603,0.88364,1.02443
150.681,14.53929,-0.003278945,0.88753,1.02421
151.281,14.5583,-0.003292667,0.88948,1.02398
151.881,14.5773,-0.0043983,0.89119,1.02375
152.481,14.5963,-0.004603716,0.89303,1.02352
153.081,14.61519,-0.004599931,0.89686,1.0233
153.681,14.6341,-0.0046,0.89833,1.02307
154.281,14.6531,-0.0046,0.90468,1.02284
154.881,14.67203,-0.0046,0.90401,1.02261
155.481,14.691,-0.00459999,0.90663,1.02238
156.081,14.7098,-0.004600282,0.91247,1.02214
156.681,14.72865,-0.004590265,0.91304,1.02191
157.281,14.74748,-0.003879417,0.91442,1.02168
157.881,14.7664,-0.00362032,0.91705,1.02145
158.481,14.78531,-0.003619965,0.92086,1.02121
159.081,14.8042,-0.003620001,0.92027,1.02098
159.681,14.823,-0.00362,0.92353,1.02075
160.281,14.84186,-0.00362,0.92706,1.02051
160.881,14.86072,-0.00362,0.92896,1.02027
161.481,14.8796,-0.00362,0.93054,1.02004
162.081,14.8985,-0.00362,0.933,1.0198
162.681,14.91739,-0.00362,0.93701,1.01956
163.281,14.9362,-0.00362,0.93713,1.01933
163.881,14.9548,-0.00362,0.94028,1.01909
164.481,14.9736,-0.00362,0.94457,1.01885
165.081,14.9924,-0.003620001,0.94609,1.01861
165.681,15.01121,-0.003619953,0.94767,1.01837
166.281,15.0302,-0.003622454,0.94806,1.01813
166.881,15.0489,-0.003519395,0.95184,1.01789
167.481,15.06766,-0.0032883,0.95146,1.01764
168.081,15.08641,-0.00328999,0.95619,1.0174
168.681,15.1052,-0.003290002,0.9582,1.01716
169.281,15.124,-0.003289981,0.95936,1.01691
169.881,15.14272,-0.0032908,0.96149,1.01667
170.481,15.16145,-0.003267855,0.9638,1.01643
171.081,15.18014,-0.004616241,0.96586,1.01618
171.681,15.19883,-0.004611263,0.9686,1.01593
172.281,15.2175,-0.004609946,0.96846,1.01569
172.881,15.23605,-0.004610002,0.97366,1.01544
173.481,15.2548,-0.004609999,0.97443,1.01519
174.081,15.27346,-0.004610004,0.97699,1.01495
174.681,15.2921,-0.00461139,0.98144,1.0147
175.281,15.3109,-0.004431676,0.98348,1.01445
175.881,15.3294,-0.00382488,0.98252,1.0142
176.481,15.348,-0.00361785,0.98507,1.01395
177.081,15.3666,-0.003619999,0.98994,1.0137
177.681,15.3851,-0.00361836,0.99143,1.01345
178.281,15.4037,-0.003769793,0.99278,1.01319
178.881,15.4222,-0.004273118,0.99668,1.01294
179.481,15.44087,-0.00428008,1.00003,1.01269
180.081,15.45946,-0.00428,1.00178,1.01244
180.681,15.47805,-0.00428,1.00285,1.01218
181.281,15.49665,-0.004280007,1.005,1.01193
181.881,15.51515,-0.004279802,1.00719,1.01167
182.481,15.53365,-0.004281545,1.00818,1.01142
183.081,15.55207,-0.004838091,1.01086,1.01116
183.681,15.5705,-0.004944213,1.01275,1.0109
184.281,15.589,-0.004939902,1.01431,1.01065
184.881,15.6074,-0.00494,1.01816,1.01039
185.481,15.62589,-0.00494,1.01844,1.01013
186.081,15.64425,-0.00494,1.02208,1.00987
186.681,15.66265,-0.00494,1.02424,1.00961
187.281,15.681,-0.00494,1.02557,1.00935
187.881,15.69936,-0.00494,1.02864,1.00909
188.481,15.7178,-0.00494,1.03063,1.00883
189.081,15.7361,-0.004939998,1.0328,1.00857
189.681,15.7545,-0.004940042,1.03314,1.00831
190.281,15.7729,-0.004940669,1.03654,1.00804
190.881,15.7912,-0.00598996,1.03853,1.00778
191.481,15.8095,-0.00626686,1.04073,1.00752
192.081,15.8279,-0.0062599,1.04315,1.00725
192.681,15.84622,-0.006260005,1.04488,1.00699
193.281,15.86454,-0.00625919,1.04738,1.00672
193.881,15.88291,-0.006296202,1.04693,1.00646
194.481,15.90125,-0.004542199,1.05072,1.00619
195.081,15.91959,-0.004609325,1.05261,1.00592
195.681,15.93794,-0.004610075,1.05579,1.00566
196.281,15.95624,-0.004609998,1.0577,1.00539
196.881,15.97451,-0.00461,1.0591,1.00512
197.481,15.99262,-0.00461,1.06297,1.00485
198.081,16.01073,-0.00461,1.0653,1.00458
198.681,16.02882,-0.004610001,1.06758,1.00431
199.281,16.047,-0.004609993,1.06588,1.00404
199.881,16.06543,-0.004608962,1.06872,1.00377
200.481,16.0839,-0.004745432,1.07189,1.0035
201.081,16.1024,-0.005949236,1.07333,1.00323
201.681,16.12079,-0.00592979,1.07607,1.00295
202.281,16.13888,-0.005929991,1.0809,1.00268
202.881,16.15715,-0.00593,1.08166,1.00241
203.481,16.17543,-0.005929999,1.08382,1.00213
204.081,16.1937,-0.005930009,1.0857,1.00186
204.681,16.21218,-0.00593086,1.08849,1.00158
205.281,16.2304,-0.00586937,1.09337,1.00131
205.881,16.24857,-0.006935444,1.09389,1.00103
206.481,16.26685,-0.006919953,1.09815,1.00075
207.081,16.28507,-0.00691999,1.09824,1.00048
207.681,16.30333,-0.00692,1.10304,1.0002
208.281,16.3216,-0.006919997,1.104,0.99992
208.881,16.33972,-0.00691998,1.10698,0.99964
209.481,16.35792,-0.006924655,1.1115,0.99936
210.081,16.37612,-0.0075113,1.11363,0.99908
210.681,16.3944,-0.008226542,1.11529,0.9988
211.281,16.41261,-0.008229929,1.11771,0.99852
211.881,16.43083,-0.008230005,1.11957,0.99824
212.481,16.44902,-0.00823,1.12256,0.99796
213.081,16.46721,-0.00823,1.12641,0.99768
213.681,16.48542,-0.008229999,1.13007,0.99739
214.281,16.50359,-0.00823005,1.13111,0.99711
214.881,16.5218,-0.008228624,1.13474,0.99683
215.481,16.54005,-0.008231465,1.13878,0.99654
216.081,16.55815,-0.008554781,1.14233,0.99626
216.681,16.57639,-0.008560175,1.14613,0.99597
217.281,16.59465,-0.008559997,1.14541,0.99569
217.881,16.61286,-0.00856,1.1483,0.9954
218.481,16.63114,-0.00856,1.15486,0.99511
219.081,16.6493,-0.00856,1.15499,0.99482
219.681,16.66744,-0.008560001,1.1609,0.99454
220.281,16.68556,-0.00856005,1.16344,0.99425
220.881,16.7038,-0.008556312,1.16841,0.99396
221.481,16.7218,-0.00868059,1.16942,0.99367
222.081,16.73979,-0.009872623,1.17458,0.99338
222.681,16.75796,-0.009869417,1.17636,0.99309
223.281,16.77616,-0.009869948,1.18075,0.9928
223.881,16.7945,-0.009871527,1.1845,0.99251
224.481,16.8129,-0.009890504,1.18824,0.99221
225.081,16.83106,-0.008808215,1.18992,0.99192
225.681,16.84923,-0.009531331,1.19971,0.99163
226.281,16.86734,-0.009550176,1.20214,0.99134
226.881,16.88555,-0.009550008,1.20606,0.99104
227.481,16.90369,-0.009549999,1.21168,0.99075
228.081,16.9218,-0.00955,1.21565,0.99045
228.681,16.93992,-0.00955,1.21924,0.99016
229.281,16.95792,-0.009549716,1.22867,0.98986
229.881,16.97605,-0.00953892,1.23451,0.98956
230.481,16.99411,-0.00954001,1.23909,0.98927
231.081,17.01217,-0.00954,1.24643,0.98897
231.681,17.03035,-0.00954,1.25253,0.98867
232.281,17.04849,-0.00954,1.25644,0.98837
232.881,17.0666,-0.00954,1.26604,0.98808
233.481,17.08473,-0.00954,1.27361,0.98778
234.081,17.10279,-0.00954,1.28132,0.98748
234.681,17.1208,-0.00954003,1.28881,0.98718
235.281,17.1389,-0.009541319,1.29836,0.98688
235.881,17.157,-0.009389202,1.30879,0.98657
236.481,17.17517,-0.00888655,1.31931,0.98627
237.081,17.19335,-0.008879998,1.32985,0.98597
237.681,17.21153,-0.008879994,1.33798,0.98567
238.281,17.22966,-0.00888,1.3513,0.98536
238.881,17.24776,-0.00888,1.36465,0.98506
239.481,17.26594,-0.00888,1.37755,0.98476
240.081,17.28405,-0.008879998,1.39423,0.98445
240.681,17.3022,-0.008880047,1.40791,0.98415
241.281,17.32036,-0.008879648,1.42154,0.98384
241.881,17.33845,-0.008834591,1.44038,0.98353
242.481,17.35659,-0.01024954,1.46058,0.98323
243.081,17.3747,-0.01019919,1.47882,0.98292
243.681,17.39273,-0.01019999,1.50181,0.98261
244.281,17.41081,-0.0102,1.52511,0.98231
244.881,17.42886,-0.0102,1.55253,0.982
245.481,17.4469,-0.01019998,1.58012,0.98169
246.081,17.46499,-0.01019665,1.61059,0.98138
246.681,17.48304,-0.01043357,1.64668,0.98107
247.281,17.50115,-0.01150969,1.6845,0.98076
247.881,17.5193,-0.0115198,1.72638,0.98045
248.481,17.53741,-0.01152011,1.77359,0.98014
249.081,17.55554,-0.01151659,1.82672,0.97982
249.681,17.5736,-0.01116711,1.88482,0.97951
250.281,17.59166,-0.01019034,1.95,0.9792
250.881,17.6098,-0.01020035,2.02189,0.97889
251.481,17.62796,-0.01019999,2.0996,0.97857
252.081,17.6462,-0.0102,2.19073,0.97826
252.681,17.66435,-0.01020036,2.28413,0.97794
253.281,17.6824,-0.01018647,2.38607,0.97763
253.881,17.70056,-0.01123333,2.49195,0.97731
254.481,17.7187,-0.01238783,2.60472,0.977
255.081,17.73692,-0.01283598,2.72183,0.97668
255.681,17.75522,-0.01282919,2.83596,0.97636
256.281,17.77342,-0.01383775,2.94569,0.97605
256.881,17.7916,-0.01415735,3.03685,0.97573
257.481,17.80979,-0.01416009,3.11104,0.97541
258.081,17.828,-0.01416,3.15711,0.97509
258.681,17.8462,-0.01416,3.17279,0.97477
259.281,17.86445,-0.0141601,3.15705,0.97445
259.881,17.88274,-0.0141558,3.11088,0.97413
260.481,17.90094,-0.01374438,3.03485,0.97381
261.081,17.91917,-0.01283553,2.93793,0.97349
261.681,17.9373,-0.0128403,2.83,0.97317
262.281,17.9554,-0.01283995,2.71589,0.97285
262.881,17.9735,-0.01284013,2.59798,0.97252
263.481,17.99157,-0.01288817,2.48306,0.9722
264.081,18.00968,-0.01146863,2.37247,0.97188
264.681,18.02775,-0.01152082,2.26949,0.97155
265.281,18.04583,-0.01152301,2.1764,0.97123
265.881,18.06382,-0.01223111,2.08679,0.9709
266.481,18.08185,-0.01283515,2.00844,0.97058
267.081,18.09979,-0.01283998,1.93602,0.97025
267.681,18.11778,-0.01284,1.86914,0.96993
268.281,18.13576,-0.01284,1.80834,0.9696
268.881,18.15364,-0.01284,1.75606,0.96927
269.481,18.17161,-0.01284,1.7063,0.96895
270.081,18.18952,-0.01284,1.66209,0.96862
270.681,18.20748,-0.01284002,1.62691,0.96829
271.281,18.22546,-0.01284076,1.5908,0.96796
271.881,18.24335,-0.01279131,1.55799,0.96763
272.481,18.26134,-0.01420225,1.52872,0.9673
273.081,18.27926,-0.01416076,1.50527,0.96697
273.681,18.29725,-0.01415994,1.48227,0.96664
274.281,18.31525,-0.01416,1.46178,0.96631
274.881,18.33315,-0.01416,1.44407,0.96598
275.481,18.351,-0.01416,1.42766,0.96565
276.081,18.36893,-0.01416,1.41454,0.96531
276.681,18.38689,-0.01416,1.40216,0.96498
277.281,18.40474,-0.0141599,1.39184,0.96465
277.881,18.42258,-0.01416394,1.38152,0.96431
278.481,18.4405,-0.01453594,1.37405,0.96398
279.081,18.45843,-0.01548878,1.36359,0.96365
279.681,18.47646,-0.01547965,1.3545,0.96331
280.281,18.49462,-0.01548,1.35417,0.96298
280.881,18.51258,-0.01547999,1.3478,0.96264
281.481,18.53058,-0.01548138,1.34358,0.9623
282.081,18.5486,-0.01543171,1.33804,0.96197
282.681,18.56645,-0.01416369,1.33326,0.96163
283.281,18.5845,-0.01415913,1.33152,0.96129
283.881,18.60249,-0.01416008,1.32997,0.96095
284.481,18.62051,-0.0141595,1.32667,0.96062
285.081,18.63859,-0.01411786,1.3236,0.96028
285.681,18.6566,-0.01552915,1.32265,0.95994
286.281,18.67464,-0.01547921,1.32315,0.9596
286.881,18.69271,-0.01547999,1.32208,0.95926
287.481,18.7107,-0.01548,1.32066,0.95892
288.081,18.72874,-0.01548,1.31824,0.95858
288.681,18.74669,-0.01548,1.31752,0.95823
289.281,18.76464,-0.01548,1.31792,0.95789
289.881,18.78267,-0.01547985,1.31784,0.95755
290.481,18.80065,-0.0154817,1.31683,0.95721
291.081,18.81869,-0.01575711,1.31723,0.95686
291.681,18.83675,-0.0157779,1.31758,0.95652
292.281,18.8548,-0.01616222,1.31676,0.95618
292.881,18.87282,-0.01712802,1.31488,0.95583
293.481,18.8909,-0.01711923,1.31654,0.95549
294.081,18.9089,-0.01711748,1.31669,0.95514
294.681,18.92706,-0.01713965,1.31643,0.9548
295.281,18.94515,-0.01845911,1.31615,0.95445
295.881,18.96321,-0.01875469,1.31576,0.9541
296.481,18.98131,-0.01910408,1.31535,0.95376
297.081,18.99925,-0.01910008,1.31513,0.95341
297.681,19.01727,-0.01910002,1.31673,0.95306
298.281,19.03531,-0.01909929,1.31645,0.95271
298.881,19.0533,-0.0190998,1.31518,0.95236
299.481,19.07139,-0.01815384,1.31545,0.95201
300.081,19.08948,-0.01810883,1.31603,0.95166
300.681,19.10758,-0.01811001,1.31697,0.95131
301.281,19.1256,-0.01811,1.31474,0.95096
301.881,19.14367,-0.01811,1.3163,0.95061
302.481,19.16169,-0.01811,1.31495,0.95026
303.081,19.17973,-0.01811,1.31638,0.94991
303.681,19.1978,-0.01811,1.31495,0.94956
304.281,19.2159,-0.01811,1.31676,0.94921
304.881,19.23406,-0.01810993,1.31436,0.94885
305.481,19.25214,-0.01810623,1.31626,0.9485
306.081,19.2702,-0.01742564,1.31622,0.94815
306.681,19.2883,-0.0167946,1.31664,0.94779
307.281,19.30643,-0.01679002,1.31838,0.94744
307.881,19.32449,-0.01678998,1.31784,0.94708
308.481,19.34256,-0.01679082,1.31753,0.94673
309.081,19.36068,-0.01677977,1.31811,0.94637
309.681,19.37879,-0.01799831,1.31729,0.94602
310.281,19.39694,-0.01947866,1.31795,0.94566
310.881,19.41495,-0.01942904,1.3178,0.9453
311.481,19.43289,-0.01943,1.31825,0.94494
312.081,19.45094,-0.01942866,1.31789,0.94459
312.681,19.46901,-0.01949361,1.31852,0.94423
313.281,19.4873,-0.02076704,1.31616,0.94387
313.881,19.50553,-0.01949772,1.31708,0.94351
314.481,19.52366,-0.0194267,1.3167,0.94315
315.081,19.5418,-0.01943007,1.31822,0.94279
315.681,19.5599,-0.01943,1.31787,0.94243
316.281,19.57801,-0.01943,1.31719,0.94207
316.881,19.59616,-0.01943,1.3158,0.94171
317.481,19.61427,-0.01943,1.31654,0.94135
318.081,19.63243,-0.01943,1.31723,0.94099
318.681,19.65065,-0.01943009,1.31648,0.94063
319.281,19.66881,-0.01942715,1.31643,0.94026
319.881,19.6869,-0.01944336,1.31687,0.9399
320.481,19.70506,-0.02042849,1.3178,0.93954
321.081,19.72317,-0.02038749,1.31824,0.93917
321.681,19.7413,-0.02074234,1.31873,0.93881
322.281,19.7596,-0.02074993,1.31814,0.93844
322.881,19.77777,-0.02075035,1.31859,0.93808
323.481,19.7959,-0.02073597,1.31836,0.93771
324.081,19.81408,-0.02179001,1.31907,0.93735
324.681,19.83222,-0.02331439,1.32035,0.93698
325.281,19.85039,-0.02338322,1.31927,0.93662
325.881,19.8686,-0.02337993,1.32181,0.93625
326.481,19.88673,-0.02338,1.32153,0.93588
327.081,19.90492,-0.02338,1.31815,0.93551
327.681,19.92313,-0.02337999,1.31774,0.93515
328.281,19.9413,-0.02338014,1.31943,0.93478
328.881,19.9594,-0.02338234,1.31974,0.93441
329.481,19.9776,-0.02413301,1.3202,0.93404
330.081,19.9958,-0.02468477,1.31858,0.93367
330.681,20.01408,-0.02469005,1.31904,0.9333
331.281,20.03235,-0.02469,1.32011,0.93293
331.881,20.0505,-0.02469,1.32064,0.93256
332.481,20.0687,-0.02469,1.32018,0.93219
333.081,20.08697,-0.02469,1.32157,0.93182
333.681,20.10525,-0.02469022,1.32138,0.93145
334.281,20.12347,-0.02467655,1.32152,0.93107
334.881,20.14169,-0.02382093,1.32159,0.9307
335.481,20.1599,-0.02337402,1.32221,0.93033
336.081,20.1781,-0.02437944,1.32365,0.92995
336.681,20.1963,-0.0243697,1.32491,0.92958
337.281,20.21444,-0.02436992,1.32516,0.92921
337.881,20.23262,-0.02436811,1.32409,0.92883
338.481,20.25086,-0.0247225,1.32554,0.92846
339.081,20.26909,-0.02566595,1.32564,0.92808
339.681,20.28736,-0.02568014,1.32528,0.92771
340.281,20.3056,-0.02568,1.32526,0.92733
340.881,20.32378,-0.02568007,1.32381,0.92695
341.481,20.34199,-0.02567782,1.32266,0.92658
342.081,20.36022,-0.02569035,1.3248,0.9262
342.681,20.37847,-0.02678877,1.32557,0.92582
343.281,20.3967,-0.02634551,1.32602,0.92544
343.881,20.41497,-0.0263399,1.32568,0.92507
344.481,20.43317,-0.02634,1.32615,0.92469
345.081,20.45143,-0.02634,1.32637,0.92431
345.681,20.4697,-0.02634,1.32882,0.92393
346.281,20.488,-0.02634,1.32875,0.92355
346.881,20.5063,-0.02634,1.32717,0.92317
347.481,20.52459,-0.02634,1.32673,0.92279
348.081,20.5428,-0.02634,1.32781,0.92241
348.681,20.5611,-0.02634,1.32678,0.92203
349.281,20.57934,-0.02634,1.32779,0.92165
349.881,20.59753,-0.02634,1.32935,0.92126
350.481,20.6158,-0.02633999,1.329,0.92088
351.081,20.63413,-0.02634022,1.32929,0.9205
351.681,20.65245,-0.02634843,1.32998,0.92012
352.281,20.6708,-0.02747581,1.33033,0.91973
352.881,20.68911,-0.02766383,1.33278,0.91935
353.481,20.7074,-0.02765996,1.33181,0.91897
354.081,20.72571,-0.02766,1.33021,0.91858
354.681,20.74407,-0.02766,1.33169,0.9182
355.281,20.76236,-0.02766,1.33231,0.91781
355.881,20.7807,-0.02766,1.33327,0.91743
356.481,20.79903,-0.02766,1.33319,0.91704
357.081,20.81733,-0.02766,1.33401,0.91665
357.681,20.8356,-0.02765981,1.33364,0.91627
358.281,20.85391,-0.02766215,1.33424,0.91588
358.881,20.8722,-0.02817843,1.33539,0.91549
359.481,20.89051,-0.02898804,1.33637,0.91511
360.081,20.90889,-0.0296867,1.33693,0.91472
360.681,20.92726,-0.02996511,1.33911,0.91433
361.281,20.94566,-0.02996978,1.34052,0.91394
361.881,20.964,-0.02997001,1.33832,0.91355
362.481,20.9823,-0.02997,1.34037,0.91316
363.081,21.00068,-0.02997,1.3411,0.91277
363.681,21.01899,-0.02997,1.34054,0.91238
364.281,21.03726,-0.02997,1.34056,0.91199
364.881,21.05544,-0.02996994,1.34165,0.9116
365.481,21.07377,-0.02997055,1.34518,0.91121
366.081,21.09216,-0.03019904,1.34628,0.91082
366.681,21.11065,-0.03129509,1.34441,0.91043
367.281,21.12925,-0.03127963,1.34684,0.91004
367.881,21.14763,-0.03128,1.34781,0.90964
368.481,21.16602,-0.03127995,1.34824,0.90925
369.081,21.18443,-0.03128502,1.34836,0.90886
369.681,21.20279,-0.03188331,1.34909,0.90846
370.281,21.22123,-0.03259611,1.35124,0.90807
370.881,21.2396,-0.03259996,1.3529,0.90768
371.481,21.25796,-0.0326,1.35331,0.90728
372.081,21.27639,-0.0326,1.35462,0.90689
372.681,21.2948,-0.0326,1.35601,0.90649
373.281,21.31328,-0.0326,1.35717,0.9061
373.881,21.33176,-0.03260006,1.35615,0.9057
374.481,21.35016,-0.03259642,1.3587,0.9053
375.081,21.36854,-0.03272393,1.35806,0.90491
375.681,21.38685,-0.03391783,1.36081,0.90451
376.281,21.40522,-0.03391958,1.36203,0.90411
376.881,21.42367,-0.03392001,1.36402,0.90372
377.481,21.44214,-0.03392023,1.36657,0.90332
378.081,21.46068,-0.03391652,1.36914,0.90292
378.681,21.4791,-0.03483187,1.37136,0.90252
379.281,21.4975,-0.03522817,1.37216,0.90212
379.881,21.516,-0.03516089,1.37603,0.90172
380.481,21.53443,-0.03691005,1.37616,0.90132
381.081,21.55293,-0.03688034,1.37837,0.90092
381.681,21.5714,-0.03687638,1.37896,0.90052
382.281,21.58986,-0.03712937,1.38086,0.90012
382.881,21.60834,-0.03819013,1.38398,0.89972
383.481,21.6268,-0.03854363,1.38443,0.89932
384.081,21.64528,-0.03952782,1.38677,0.89892
384.681,21.6637,-0.03951602,1.38818,0.89852
385.281,21.68222,-0.03967418,1.38953,0.89812
385.881,21.70071,-0.04083281,1.39104,0.89771
386.481,21.7193,-0.04084032,1.39213,0.89731
387.081,21.73784,-0.04078861,1.39385,0.89691
387.681,21.75635,-0.04219933,1.39668,0.8965
388.281,21.77494,-0.04214734,1.39914,0.8961
388.881,21.79341,-0.04215372,1.39861,0.8957
389.481,21.81192,-0.04349138,1.40076,0.89529
390.081,21.83043,-0.04346906,1.40474,0.89489
390.681,21.84892,-0.04347351,1.40692,0.89448
391.281,21.86748,-0.04387375,1.40827,0.89408
391.881,21.88607,-0.04479351,1.41114,0.89367
392.481,21.90464,-0.0447393,1.41398,0.89327
393.081,21.92321,-0.04615815,1.41476,0.89286
393.681,21.9418,-0.04615548,1.41895,0.89245
394.281,21.9603,-0.0475379,1.42395,0.89205
394.881,21.97888,-0.04776569,1.42952,0.89164
395.481,21.9974,-0.04908789,1.43186,0.89123
396.081,22.01595,-0.04925245,1.43605,0.89082
396.681,22.03448,-0.0504831,1.4404,0.89042
397.281,22.05305,-0.05167669,1.44321,0.89001
397.881,22.0716,-0.05231934,1.45096,0.8896
398.481,22.09013,-0.05315652,1.45459,0.88919
399.081,22.10874,-0.05447473,1.46067,0.88878
399.681,22.1273,-0.05565852,1.46593,0.88837
400.281,22.14594,-0.05678166,1.47464,0.88796
400.881,22.16449,-0.0583687,1.47884,0.88755
401.481,22.18306,-0.06022596,1.48636,0.88714
402.081,22.2016,-0.06142034,1.49322,0.88673
402.681,22.22017,-0.06237533,1.49952,0.88632
403.281,22.23874,-0.06344813,1.50645,0.88591
403.881,22.25735,-0.06473871,1.51509,0.88549
404.481,22.27595,-0.0666053,1.5237,0.88508
405.081,22.29457,-0.06801185,1.53134,0.88467
405.681,22.31322,-0.07013052,1.5374,0.88426
406.281,22.33181,-0.0719436,1.54337,0.88384
406.881,22.35044,-0.07408906,1.55294,0.88343
407.481,22.36908,-0.07631425,1.56146,0.88302
408.081,22.3877,-0.07912225,1.5728,0.8826
408.681,22.40636,-0.08162532,1.57748,0.88219
409.281,22.425,-0.08465529,1.58938,0.88177
409.881,22.4436,-0.08789745,1.59958,0.88136
410.481,22.46229,-0.09072204,1.60266,0.88094
411.081,22.48099,-0.09321119,1.61256,0.88053
411.681,22.49969,-0.0963552,1.6193,0.88011
412.281,22.5183,-0.09924138,1.62847,0.8797
412.881,22.53689,-0.10218,1.63491,0.87928
413.481,22.55551,-0.10547,1.64536,0.87886
414.081,22.57415,-0.10898,1.65359,0.87845
414.681,22.5929,-0.11331,1.65849,0.87803
415.281,22.61159,-0.11666,1.66607,0.87761
415.881,22.63024,-0.12108,1.67423,0.87719
416.481,22.64893,-0.12497,1.67514,0.87677
417.081,22.66757,-0.12861,1.68333,0.87636
417.681,22.68628,-0.13296,1.66483,0.87594
418.281,22.70497,-0.13756,1.63237,0.87552
418.881,22.72365,-0.14253,1.60388,0.8751
419.481,22.74237,-0.1472,1.57547,0.87468
420.081,22.76105,-0.15213,1.55148,0.87426
420.681,22.77976,-0.15778,1.53755,0.87384
421.281,22.7985,-0.16375,1.51975,0.87342
421.881,22.81713,-0.16954,1.50791,0.873
422.481,22.83579,-0.17527,1.49285,0.87258
423.081,22.85446,-0.18142,1.4774,0.87216
423.681,22.87312,-0.18809,1.46684,0.87173
424.281,22.89187,-0.19449,1.46171,0.87131
424.881,22.9106,-0.20065,1.44825,0.87089
425.481,22.92931,-0.20724,1.43664,0.87047
426.081,22.94805,-0.21436,1.42783,0.87005
426.681,22.9667,-0.22079,1.42067,0.86962
427.281,22.98544,-0.22808,1.41648,0.8692
427.881,23.0042,-0.23603,1.408,0.86878
428.481,23.0229,-0.24409,1.40428,0.86835
429.081,23.04169,-0.2523,1.39581,0.86793
429.681,23.06045,-0.26105,1.38603,0.8675
430.281,23.07917,-0.26977,1.3752,0.86708
430.881,23.09791,-0.27892,1.35864,0.86665
431.481,23.11662,-0.28793,1.34395,0.86623
432.081,23.13534,-0.2971,1.33457,0.8658
432.681,23.15404,-0.30762,1.33096,0.86538
433.281,23.17279,-0.31711,1.32303,0.86495
433.881,23.19152,-0.32703,1.32342,0.86453
434.481,23.21026,-0.33721,1.32529,0.8641
435.081,23.22901,-0.34915,1.33419,0.86367
435.681,23.2477,-0.36049,1.32156,0.86324
436.281,23.26649,-0.37173,1.27618,0.86282
436.881,23.2853,-0.38448,1.18778,0.86239
437.481,23.30418,-0.39886,1.09829,0.86196
438.081,23.32292,-0.41634,0.80571,0.86153
438.681,23.34166,-0.43836,0.59125,0.8611
439.281,23.36038,-0.46475,0.57117,0.86068
439.881,23.37908,-0.49559,0.45565,0.86025
440.481,23.39784,-0.5287,0.28892,0.85982
441.081,23.4166,-0.56486,0.10782,0.85939
441.681,23.43524,-0.60501,-0.11965,0.85896
442.281,23.4539,-0.6482,-0.67111,0.85853
442.881,23.47244,-0.6916,-1.19148,0.8581
443.481,23.491,-0.74159,-1.10827,0.85767
444.081,23.50964,-0.78595,-1.00463,0.85724
444.681,23.52825,-0.82138,-1.01917,0.85681
445.281,23.5469,-0.85227,-1.12067,0.85637
445.881,23.56543,-0.89618,-1.31275,0.85594
446.481,23.58393,-0.93832,-1.63387,0.85551
447.081,23.6024,-0.98429,-1.65067,0.85508
447.681,23.6208,-1.02628,-1.54129,0.85465
448.281,23.63927,-1.06535,-1.39719,0.85421
448.881,23.65778,-1.09425,-1.22876,0.85378
449.481,23.67634,-1.12136,-1.06463,0.85335
450.081,23.695,-1.14925,-0.91101,0.85291
450.681,23.7137,-1.17723,-0.77045,0.85248
451.281,23.7324,-1.2081,-0.64267,0.85205
451.881,23.75119,-1.2397,-0.52515,0.85161
452.481,23.77,-1.27261,-0.41644,0.85118
453.081,23.7888,-1.30758,-0.31534,0.85074
453.681,23.80771,-1.34154,-0.22469,0.85031
454.281,23.82658,-1.3775,-0.13978,0.84987
454.881,23.84545,-1.41343,-0.06178965,0.84944
455.481,23.86433,-1.4508,0.01089045,0.849
456.081,23.88326,-1.48855,0.07500968,0.84857
456.681,23.9022,-1.52725,0.13395,0.84813
457.281,23.9211,-1.56784,0.18792,0.84769
457.881,23.94012,-1.60815,0.23876,0.84726
458.481,23.959,-1.64947,0.2808,0.84682
459.081,23.978,-1.69031,0.3209,0.84638
459.681,23.99696,-1.73284,0.35285,0.84594
460.281,24.0158,-1.77529,0.38308,0.84551
460.881,24.03482,-1.81781,0.40806,0.84507
461.481,24.05376,-1.86101,0.42685,0.84463
462.081,24.07271,-1.90291,0.44301,0.84419
462.681,24.09173,-1.94523,0.45312,0.84375
463.281,24.1107,-1.98722,0.45824,0.84331
463.881,24.12969,-2.03045,0.45986,0.84287
464.481,24.14872,-2.07352,0.45977,0.84244
465.081,24.1677,-2.11494,0.45626,0.842
465.681,24.18668,-2.15736,0.44441,0.84156
466.281,24.20567,-2.19857,0.42933,0.84112
466.881,24.2246,-2.23895,0.41399,0.84067
467.481,24.2436,-2.27901,0.39378,0.84023
468.081,24.2625,-2.31836,0.37359,0.83979
468.681,24.2815,-2.35769,0.3455,0.83935
469.281,24.30045,-2.39493,0.31793,0.83891
469.881,24.31944,-2.43248,0.28661,0.83847
470.481,24.33837,-2.46753,0.2541,0.83803
471.081,24.35724,-2.50213,0.21492,0.83759
471.681,24.3762,-2.53518,0.17734,0.83714
472.281,24.39511,-2.56699,0.13709,0.8367
472.881,24.4141,-2.59977,0.09617586,0.83626
473.481,24.433,-2.62924,0.04996998,0.83581
474.081,24.45194,-2.65849,0.003478619,0.83537
474.681,24.4709,-2.68562,-0.04149825,0.83493
475.281,24.4898,-2.71133,-0.08738911,0.83448
475.881,24.5088,-2.73567,-0.13511,0.83404
476.481,24.5277,-2.75798,-0.18466,0.8336
477.081,24.54665,-2.77991,-0.23326,0.83315
477.681,24.56556,-2.80015,-0.2775,0.83271
478.281,24.58446,-2.821,-0.32283,0.83226
478.881,24.6034,-2.83933,-0.367,0.83182
479.481,24.6223,-2.85655,-0.41008,0.83137
480.081,24.64123,-2.87294,-0.44986,0.83093
480.681,24.66011,-2.88861,-0.49165,0.83048
481.281,24.67901,-2.90328,-0.52523,0.83003
481.881,24.69795,-2.91598,-0.55887,0.82959
482.481,24.71687,-2.92806,-0.5937,0.82914
483.081,24.73582,-2.93927,-0.62906,0.8287
483.681,24.7548,-2.94862,-0.65945,0.82825
484.281,24.77375,-2.95876,-0.68726,0.8278
484.881,24.79277,-2.96858,-0.71713,0.82735
485.481,24.8118,-2.97819,-0.74451,0.82691
486.081,24.83077,-2.98699,-0.772,0.82646
486.681,24.84979,-2.99582,-0.79659,0.82601
487.281,24.86873,-3.00401,-0.82259,0.82556
487.881,24.8877,-3.01085,-0.84628,0.82511
488.481,24.9067,-3.01728,-0.86682,0.82467
489.081,24.92569,-3.02333,-0.89039,0.82422
489.681,24.9447,-3.02948,-0.91135,0.82377
490.281,24.96363,-3.03538,-0.92845,0.82332
490.881,24.98256,-3.04117,-0.92298,0.82287
491.481,25.00146,-3.04703,-0.93125,0.82242
492.081,25.0204,-3.05336,-0.94584,0.82197
492.681,25.0395,-3.05908,-0.96283,0.82152
493.281,25.05858,-3.06382,-0.97705,0.82107
493.881,25.07757,-3.06869,-0.99347,0.82062
494.481,25.09657,-3.0731,-1.00811,0.82017
495.081,25.1156,-3.07691,-1.02826,0.81972
495.681,25.13459,-3.08049,-1.04371,0.81927
496.281,25.15364,-3.08474,-1.05915,0.81881
496.881,25.17269,-3.08758,-1.07469,0.81836
497.481,25.1918,-3.09071,-1.09034,0.81791
498.081,25.21085,-3.0937,-1.10528,0.81746
498.681,25.22994,-3.09722,-1.11793,0.81701
499.281,25.24899,-3.10068,-1.12915,0.81655
499.881,25.26805,-3.10332,-1.14606,0.8161
500.481,25.2871,-3.10604,-1.15866,0.81565
501.081,25.3061,-3.10824,-1.17068,0.8152
501.681,25.3251,-3.11082,-1.18161,0.81474
502.281,25.34412,-3.11194,-1.19357,0.81429
502.881,25.3632,-3.11409,-1.20402,0.81384
503.481,25.38242,-3.11615,-1.21451,0.81338
504.081,25.40152,-3.1184,-1.2235,0.81293
504.681,25.42064,-3.12007,-1.2314,0.81247
505.281,25.4397,-3.12179,-1.23904,0.81202
505.881,25.4587,-3.12466,-1.24799,0.81156
506.481,25.47782,-3.12628,-1.25585,0.81111
507.081,25.49695,-3.12816,-1.26363,0.81065
507.681,25.51608,-3.12989,-1.27005,0.8102
508.281,25.53537,-3.13132,-1.27843,0.80974
508.881,25.5545,-3.13194,-1.28219,0.80929
509.481,25.57366,-3.13358,-1.28847,0.80883
510.081,25.5928,-3.13477,-1.27036,0.80838
510.681,25.6119,-3.13569,-1.25911,0.80792
511.281,25.63109,-3.13754,-1.26211,0.80746
511.881,25.65028,-3.13921,-1.26689,0.80701
512.481,25.6695,-3.14046,-1.27497,0.80655
513.081,25.68872,-3.14095,-1.28139,0.80609
513.681,25.70787,-3.14257,-1.28438,0.80564
514.281,25.72691,-3.14392,-1.28942,0.80518
514.881,25.74592,-3.14527,-1.29275,0.80472
515.481,25.765,-3.14677,-1.29778,0.80426
516.081,25.7842,-3.14696,-1.30297,0.8038
516.681,25.80358,-3.14851,-1.30655,0.80335
517.281,25.823,-3.1497,-1.31095,0.80289
517.881,25.84228,-3.15028,-1.31169,0.80243
518.481,25.8614,-3.15153,-1.31714,0.80197
519.081,25.88054,-3.15271,-1.31899,0.80151
519.681,25.89976,-3.15242,-1.32239,0.80105
520.281,25.919,-3.15354,-1.32341,0.80059
520.881,25.93831,-3.1549,-1.32447,0.80013
521.481,25.95756,-3.15506,-1.32832,0.79967
522.081,25.97683,-3.15518,-1.3307,0.79921
522.681,25.996,-3.1564,-1.33282,0.79875
523.281,26.01525,-3.1569,-1.33327,0.79829
523.881,26.03452,-3.15789,-1.334,0.79783
524.481,26.05376,-3.15925,-1.33663,0.79737
525.081,26.07307,-3.15923,-1.33671,0.79691
525.681,26.0923,-3.15889,-1.33701,0.79645
526.281,26.1115,-3.15972,-1.33925,0.79599
526.881,26.13079,-3.16022,-1.34052,0.79553
527.481,26.15,-3.16087,-1.34135,0.79507
528.081,26.16926,-3.16162,-1.34033,0.79461
528.681,26.18852,-3.16277,-1.34192,0.79414
529.281,26.20778,-3.16296,-1.34317,0.79368
529.881,26.22707,-3.1641,-1.34511,0.79322
530.481,26.24633,-3.1645,-1.34494,0.79276
531.081,26.26561,-3.16629,-1.34666,0.79229
531.681,26.28487,-3.16713,-1.34784,0.79183
532.281,26.30415,-3.1673,-1.3469,0.79137
532.881,26.32344,-3.16859,-1.34867,0.79091
533.481,26.34273,-3.16852,-1.3499,0.79044
534.081,26.36205,-3.16993,-1.35143,0.78998
534.681,26.38133,-3.16987,-1.35175,0.78952
535.281,26.4006,-3.17092,-1.35331,0.78905
535.881,26.4199,-3.1712,-1.35397,0.78859
536.481,26.43925,-3.17147,-1.35592,0.78812
537.081,26.45859,-3.17253,-1.3562,0.78766
537.681,26.4779,-3.17253,-1.35738,0.7872
538.281,26.49723,-3.17362,-1.3576,0.78673
538.881,26.51652,-3.1738,-1.35763,0.78627
539.481,26.5359,-3.17422,-1.35961,0.7858
540.081,26.55517,-3.1755,-1.36001,0.78534
540.681,26.57452,-3.17547,-1.36191,0.78487
541.281,26.5939,-3.17652,-1.3627,0.7844
541.881,26.6133,-3.17691,-1.36201,0.78394
542.481,26.6326,-3.17718,-1.36322,0.78347
543.081,26.65189,-3.17824,-1.36378,0.78301
543.681,26.6712,-3.17823,-1.36527,0.78254
544.281,26.6906,-3.17894,-1.36656,0.78208
544.881,26.71,-3.17954,-1.36779,0.78161
545.481,26.7294,-3.17951,-1.36509,0.78114
546.081,26.74875,-3.17977,-1.36572,0.78068
546.681,26.76795,-3.17954,-1.36738,0.78021
547.281,26.7873,-3.17954,-1.36766,0.77974
547.881,26.80667,-3.17954,-1.3704,0.77927
548.481,26.82612,-3.18083,-1.37075,0.77881
549.081,26.8456,-3.18111,-1.37133,0.77834
549.681,26.86495,-3.18219,-1.37291,0.77787
550.281,26.88434,-3.18218,-1.37415,0.7774
550.881,26.90372,-3.18217,-1.37453,0.77694
551.481,26.92313,-3.18402,-1.37364,0.77647
552.081,26.9425,-3.18481,-1.37544,0.776
552.681,26.9618,-3.18481,-1.37832,0.77553
553.281,26.98102,-3.18523,-1.38001,0.77506
553.881,27.00041,-3.18613,-1.37859,0.77459
554.481,27.01987,-3.18613,-1.37954,0.77412
555.081,27.0394,-3.18613,-1.38254,0.77365
555.681,27.0589,-3.18613,-1.38314,0.77319
556.281,27.0783,-3.1853,-1.38289,0.77272
556.881,27.09771,-3.18481,-1.38514,0.77225
557.481,27.11715,-3.18481,-1.38737,0.77178
558.081,27.1366,-3.18481,-1.38771,0.77131
558.681,27.156,-3.18477,-1.38705,0.77084
559.281,27.17543,-3.18618,-1.38885,0.77037
559.881,27.19482,-3.18613,-1.39145,0.7699
560.481,27.21425,-3.18572,-1.39345,0.76943
561.081,27.23365,-3.18517,-1.3956,0.76896
561.681,27.2531,-3.18613,-1.39589,0.76848
562.281,27.27252,-3.18614,-1.39701,0.76801
562.881,27.292,-3.18736,-1.39844,0.76754
563.481,27.31147,-3.18744,-1.39977,0.76707
564.081,27.3309,-3.18744,-1.40045,0.7666
564.681,27.35029,-3.18744,-1.40181,0.76613
565.281,27.36968,-3.18744,-1.40313,0.76566
565.881,27.3891,-3.1874,-1.40313,0.76519
566.481,27.4086,-3.18881,-1.40588,0.76471
567.081,27.42812,-3.18876,-1.40722,0.76424
567.681,27.44758,-3.18876,-1.40532,0.76377
568.281,27.46708,-3.18878,-1.40795,0.7633
568.881,27.48661,-3.19073,-1.40876,0.76282
569.481,27.506,-3.1914,-1.41037,0.76235
570.081,27.5256,-3.1914,-1.41301,0.76188
570.681,27.54506,-3.1914,-1.41347,0.76141
571.281,27.56451,-3.1914,-1.41635,0.76093
571.881,27.58397,-3.19138,-1.41762,0.76046
572.481,27.6034,-3.19262,-1.41826,0.75999
573.081,27.6229,-3.19272,-1.4193,0.75951
573.681,27.64238,-3.19272,-1.42096,0.75904
574.281,27.6619,-3.19272,-1.42338,0.75857
574.881,27.6815,-3.1927,-1.42421,0.75809
575.481,27.701,-3.19363,-1.4279,0.75762
576.081,27.7205,-3.19304,-1.42997,0.75714
576.681,27.74,-3.19304,-1.43034,0.75667
577.281,27.75951,-3.19302,-1.43044,0.7562
577.881,27.779,-3.19437,-1.43226,0.75572
578.481,27.7985,-3.19436,-1.43349,0.75525
579.081,27.81802,-3.19436,-1.43584,0.75477
579.681,27.8375,-3.19511,-1.43796,0.7543
580.281,27.8569,-3.19568,-1.43898,0.75382
580.881,27.8763,-3.19568,-1.43897,0.75335
581.481,27.89585,-3.19567,-1.44034,0.75287
582.081,27.9153,-3.19682,-1.44402,0.7524
582.681,27.935,-3.197,-1.44526,0.75192
583.281,27.95455,-3.197,-1.44393,0.75145
583.881,27.9741,-3.19844,-1.44527,0.75097
584.481,27.9936,-3.19963,-1.44646,0.75049
585.081,28.0131,-3.19963,-1.44558,0.75002
585.681,28.03258,-3.1996,-1.44856,0.74954
586.281,28.0521,-3.20097,-1.4484,0.74907
586.881,28.0716,-3.20095,-1.44964,0.74859
587.481,28.09115,-3.201,-1.45421,0.74811
588.081,28.11068,-3.19959,-1.45506,0.74764
588.681,28.1302,-3.19963,-1.45444,0.74716
589.281,28.1497,-3.19961,-1.4569,0.74668
589.881,28.1692,-3.2008,-1.45819,0.74621
590.481,28.18875,-3.20095,-1.45978,0.74573
591.081,28.2083,-3.20095,-1.4618,0.74525
591.681,28.2279,-3.2014,-1.46341,0.74477
592.281,28.24757,-3.20227,-1.46398,0.7443
592.881,28.26718,-3.20227,-1.46563,0.74382
593.481,28.28671,-3.20227,-1.46684,0.74334
594.081,28.3063,-3.20357,-1.46672,0.74286
594.681,28.32585,-3.20359,-1.46956,0.74238
595.281,28.34542,-3.20482,-1.47044,0.74191
595.881,28.36495,-3.2049,-1.47316,0.74143
596.481,28.3845,-3.2053,-1.4745,0.74095
597.081,28.40403,-3.20694,-1.4759,0.74047
597.681,28.4236,-3.20754,-1.47882,0.73999
598.281,28.44319,-3.20754,-1.48048,0.73952
598.881,28.46276,-3.20752,-1.48135,0.73904
599.481,28.48232,-3.2087,-1.48128,0.73856
600.081,28.50188,-3.20886,-1.48283,0.73808
600.681,28.5214,-3.20886,-1.48609,0.7376
601.281,28.54095,-3.20927,-1.48654,0.73712
601.881,28.5606,-3.21017,-1.48853,0.73664
602.481,28.5801,-3.21017,-1.49075,0.73616
603.081,28.59974,-3.21017,-1.48917,0.73568
603.681,28.6193,-3.21017,-1.4891,0.7352
604.281,28.63891,-3.21041,-1.48844,0.73472
604.881,28.65858,-3.2115,-1.49022,0.73424
605.481,28.6781,-3.21118,-1.49204,0.73376
606.081,28.69775,-3.21216,-1.49099,0.73328
606.681,28.7173,-3.21215,-1.4916,0.7328
607.281,28.73688,-3.21227,-1.49449,0.73232
607.881,28.75651,-3.21348,-1.49256,0.73184
608.481,28.77614,-3.21346,-1.49257,0.73136
609.081,28.7958,-3.21346,-1.49615,0.73088
609.681,28.8155,-3.21346,-1.49754,0.7304
610.281,28.8351,-3.21357,-1.49898,0.72992
610.881,28.8546,-3.21477,-1.50053,0.72944
611.481,28.8742,-3.21478,-1.50268,0.72896
612.081,28.8938,-3.21478,-1.50409,0.72848
612.681,28.9134,-3.21478,-1.5051,0.728
613.281,28.9331,-3.2161,-1.50687,0.72751
613.881,28.9526,-3.21609,-1.50915,0.72703
614.481,28.9723,-3.21749,-1.50994,0.72655
615.081,28.992,-3.21753,-1.50999,0.72607
615.681,29.01163,-3.21773,-1.51082,0.72559
616.281,29.0313,-3.21885,-1.51243,0.72511
616.881,29.05094,-3.21884,-1.51371,0.72463
617.481,29.07058,-3.21884,-1.5137,0.72414
618.081,29.09021,-3.21882,-1.51555,0.72366
618.681,29.1098,-3.22004,-1.51754,0.72318
619.281,29.1296,-3.22016,-1.5201,0.7227
619.881,29.1492,-3.22016,-1.52222,0.72221
620.481,29.16892,-3.22022,-1.52347,0.72173
621.081,29.18853,-3.2215,-1.52433,0.72125
621.681,29.2081,-3.22148,-1.52558,0.72077
622.281,29.22768,-3.2219,-1.52767,0.72028
622.881,29.2473,-3.2228,-1.53113,0.7198
623.481,29.26697,-3.22281,-1.53477,0.71932
624.081,29.28667,-3.22214,-1.5347,0.71884
624.681,29.3064,-3.22345,-1.53544,0.71835
625.281,29.32607,-3.22345,-1.53788,0.71787
625.881,29.3457,-3.22435,-1.54101,0.71739
626.481,29.36533,-3.22477,-1.54289,0.7169
627.081,29.3849,-3.22522,-1.54353,0.71642
627.681,29.4046,-3.2261,-1.54497,0.71594
628.281,29.4243,-3.22482,-1.54635,0.71545
628.881,29.4441,-3.22601,-1.55127,0.71497
629.481,29.46371,-3.22609,-1.55155,0.71449
630.081,29.4833,-3.22635,-1.55392,0.714
630.681,29.503,-3.22739,-1.55746,0.71352
631.281,29.52269,-3.2274,-1.56015,0.71303
631.881,29.5424,-3.22757,-1.562,0.71255
632.481,29.56213,-3.22871,-1.56234,0.71207
633.081,29.5818,-3.22872,-1.56394,0.71158
633.681,29.6014,-3.22871,-1.56638,0.7111
634.281,29.6212,-3.2298,-1.56901,0.71061
634.881,29.64088,-3.23004,-1.56926,0.71013
635.481,29.6606,-3.23004,-1.57392,0.70964
636.081,29.68027,-3.23039,-1.57642,0.70916
636.681,29.7,-3.23136,-1.57645,0.70868
637.281,29.71958,-3.23136,-1.57861,0.70819
637.881,29.7393,-3.23193,-1.58193,0.70771
638.481,29.75905,-3.23267,-1.5864,0.70722
639.081,29.77872,-3.23267,-1.58702,0.70674
639.681,29.7985,-3.23267,-1.58968,0.70625
640.281,29.8181,-3.23267,-1.59379,0.70577
640.881,29.8378,-3.23268,-1.59627,0.70528
641.481,29.85742,-3.2338,-1.59899,0.7048
642.081,29.87717,-3.23399,-1.60124,0.70431
642.681,29.89691,-3.23399,-1.60366,0.70382
643.281,29.9167,-3.234,-1.60535,0.70334
643.881,29.9365,-3.23502,-1.60674,0.70285
644.481,29.9561,-3.23531,-1.6089,0.70237
645.081,29.9759,-3.23527,-1.60973,0.70188
645.681,29.9956,-3.23668,-1.61337,0.7014
646.281,30.01533,-3.23663,-1.61656,0.70091
646.881,30.035,-3.23663,-1.61765,0.70042
647.481,30.0547,-3.23671,-1.62013,0.69994
648.081,30.07442,-3.23793,-1.62354,0.69945
648.681,30.09415,-3.23792,-1.62643,0.69897
649.281,30.1139,-3.24032,-1.62658,0.69848
649.881,30.13358,-3.24058,-1.62946,0.69799
650.481,30.1534,-3.24058,-1.63082,0.69751
651.081,30.17313,-3.24058,-1.63166,0.69702
651.681,30.19285,-3.24056,-1.63434,0.69654
652.281,30.21265,-3.24191,-1.63457,0.69605
652.881,30.2323,-3.24192,-1.63813,0.69556
653.481,30.2521,-3.24184,-1.63445,0.69508
654.081,30.27178,-3.24189,-1.64071,0.69459
654.681,30.2915,-3.2419,-1.6409,0.6941
655.281,30.31131,-3.24307,-1.64229,0.69362
655.881,30.3311,-3.24321,-1.64185,0.69313
656.481,30.35081,-3.24321,-1.64525,0.69264
657.081,30.37053,-3.24321,-1.64658,0.69215
657.681,30.3902,-3.24321,-1.64505,0.69167
658.281,30.40992,-3.24321,-1.6451,0.69118
658.881,30.42963,-3.24344,-1.64897,0.69069
659.481,30.4494,-3.24452,-1.64945,0.69021
660.081,30.4691,-3.24452,-1.64971,0.68972
660.681,30.48889,-3.24567,-1.65072,0.68923
661.281,30.50862,-3.24654,-1.65606,0.68874
661.881,30.52842,-3.24651,-1.66258,0.68826
662.481,30.54819,-3.24652,-1.66467,0.68777
663.081,30.56798,-3.24733,-1.66856,0.68728
663.681,30.58772,-3.24782,-1.66854,0.68679
664.281,30.6075,-3.24781,-1.66874,0.68631
664.881,30.6273,-3.24882,-1.6747,0.68582
665.481,30.64702,-3.24881,-1.67743,0.68533
666.081,30.6668,-3.24881,-1.68284,0.68484
666.681,30.6865,-3.24881,-1.68705,0.68436
667.281,30.7062,-3.24879,-1.69081,0.68387
667.881,30.72595,-3.25014,-1.69226,0.68338
668.481,30.74565,-3.25013,-1.69579,0.68289
669.081,30.7654,-3.25013,-1.70026,0.6824
669.681,30.7852,-3.25014,-1.70484,0.68191
670.281,30.80497,-3.25134,-1.70818,0.68143
670.881,30.82478,-3.25147,-1.7107,0.68094
671.481,30.84457,-3.25263,-1.69052,0.68045
672.081,30.8644,-3.25277,-1.6826,0.67996
672.681,30.8842,-3.25277,-1.68384,0.67947
673.281,30.904,-3.25277,-1.68571,0.67899
673.881,30.92372,-3.25282,-1.69406,0.6785
674.481,30.94345,-3.25138,-1.69744,0.67801
675.081,30.96323,-3.25265,-1.69943,0.67752
675.681,30.983,-3.25276,-1.70614,0.67703
676.281,31.00283,-3.25276,-1.71045,0.67654
676.881,31.0227,-3.25276,-1.71562,0.67605
677.481,31.0425,-3.25294,-1.71893,0.67557
678.081,31.0623,-3.25407,-1.72578,0.67508
678.681,31.082,-3.25408,-1.72995,0.67459
679.281,31.10185,-3.25408,-1.73384,0.6741
679.881,31.1216,-3.25408,-1.7376,0.67361
680.481,31.1414,-3.25365,-1.74335,0.67312
681.081,31.16123,-3.2541,-1.74812,0.67263
681.681,31.181,-3.25408,-1.75042,0.67214
682.281,31.2008,-3.25408,-1.75399,0.67165
682.881,31.2206,-3.25408,-1.75886,0.67116
683.481,31.2404,-3.25408,-1.76218,0.67068
684.081,31.26023,-3.25408,-1.77003,0.67019
684.681,31.27998,-3.2554,-1.77267,0.6697
685.281,31.2998,-3.2554,-1.77708,0.66921
685.881,31.31963,-3.2554,-1.78471,0.66872
686.481,31.33942,-3.2554,-1.78738,0.66823
687.081,31.35933,-3.2554,-1.79197,0.66774
687.681,31.3791,-3.25539,-1.79754,0.66725
688.281,31.39888,-3.25669,-1.80087,0.66676
688.881,31.41869,-3.25671,-1.80738,0.66627
689.481,31.43849,-3.25671,-1.81053,0.66578
690.081,31.45826,-3.25671,-1.81241,0.66529
690.681,31.47812,-3.25671,-1.81707,0.6648
691.281,31.4979,-3.25669,-1.81935,0.66431
691.881,31.51772,-3.25797,-1.82498,0.66382
692.481,31.5375,-3.25803,-1.82689,0.66333
693.081,31.5574,-3.25803,-1.83317,0.66285
693.681,31.5772,-3.25803,-1.83613,0.66236
694.281,31.597,-3.25803,-1.8406,0.66187
694.881,31.6168,-3.25798,-1.84699,0.66138
695.481,31.6366,-3.2594,-1.8564,0.66089
696.081,31.6565,-3.25935,-1.8604,0.6604
696.381,31.66631,-3.25935,-1.86301,0.66015