File: 01_Data/Polyester_Microfiber_Sheet/STA/N2/30K_min/Polyester_Microfiber_Sheet_STA_N2_30KData_220526_R2.csv
##Temp./Â°C,Time/min,Mass loss(subtr.2)/mg,DSC(subtr.2)/(mW/mg),Sensit./(uV/mW)
48.55,10.00667,-0.00132,0.01028912,1.05401
49.15,10.53336,-0.00185765,0.04965107,1.05388
49.75,10.653,-0.001760366,0.0829476,1.05376
50.35,10.7361,-0.002330508,0.10929,1.05364
50.95,10.80749,-0.000742862,0.13965,1.05352
51.55,10.86712,-0.00021897,0.16327,1.05339
52.15,10.91967,-0.0008779794,0.18609,1.05327
52.75,10.96815,-0.001208212,0.20502,1.05314
53.35,11.01338,-0.0007701151,0.22805,1.05302
53.95,11.0555,-0.000662249,0.24606,1.05289
54.55,11.09503,-0.001227874,0.26469,1.05276
55.15,11.13228,-0.00142798,0.28193,1.05263
55.75,11.1683,-0.0014075,0.29978,1.0525
56.35,11.20316,-0.001787,0.3146,1.05237
56.95,11.2364,-0.002863033,0.33007,1.05224
57.55,11.26867,-0.002612181,0.34549,1.05211
58.15,11.30004,-0.00284947,0.35938,1.05198
58.75,11.33046,-0.001175356,0.37239,1.05185
59.35,11.36011,-0.000760891,0.38121,1.05172
59.95,11.38915,-0.0004444134,0.39688,1.05158
60.55,11.4176,-0.0003769,0.40983,1.05145
61.15,11.44559,-0.00145243,0.4224,1.05132
61.75,11.47315,-0.001012325,0.43213,1.05118
62.35,11.50019,-0.000218292,0.44431,1.05104
62.95,11.52661,0.0008624553,0.45368,1.05091
63.55,11.5528,0.003975401,0.46712,1.05077
64.15,11.57848,0.00660065,0.47435,1.05063
64.75,11.60405,0.007361029,0.48628,1.05049
65.35,11.62925,0.00695818,0.49601,1.05036
65.95,11.6541,0.006609855,0.50162,1.05022
66.55,11.67869,0.004347462,0.51338,1.05008
67.15,11.70294,0.003113999,0.52391,1.04993
67.75,11.72707,0.001844948,0.53336,1.04979
68.35,11.75117,0.000366183,0.54448,1.04965
68.95,11.775,-0.000590363,0.55245,1.04951
69.55,11.79873,-0.0007997644,0.56258,1.04936
70.15,11.8222,-0.002125566,0.57084,1.04922
70.75,11.84551,-0.002089495,0.58012,1.04907
71.35,11.86859,-0.002032322,0.58993,1.04893
71.95,11.89143,-0.001575019,0.59798,1.04878
72.55,11.91421,-0.00135451,0.60762,1.04863
73.15,11.9369,-0.00152726,0.61524,1.04849
73.75,11.95947,-0.00147692,0.62601,1.04834
74.35,11.982,-0.001463326,0.63213,1.04819
74.95,12.0044,-0.002227077,0.63838,1.04804
75.55,12.02672,-0.00186931,0.64456,1.04789
76.15,12.04893,-0.001767175,0.64901,1.04774
76.75,12.071,-0.00141846,0.6551,1.04759
77.35,12.0929,-0.002194577,0.65795,1.04744
77.95,12.11478,-0.003972756,0.66129,1.04728
78.55,12.13663,-0.00495154,0.66268,1.04713
79.15,12.1584,-0.00352233,0.65838,1.04698
79.75,12.18011,-0.00350673,0.65901,1.04682
80.35,12.2017,-0.00309055,0.65891,1.04667
80.95,12.22317,-0.002554484,0.65533,1.04651
81.55,12.24462,-0.003308518,0.65316,1.04635
82.15,12.26592,-0.00280742,0.65092,1.0462
82.75,12.2872,-0.003171,0.64608,1.04604
83.35,12.30843,-0.003673788,0.64599,1.04588
83.95,12.32947,-0.003174174,0.64488,1.04572
84.55,12.35063,-0.00207674,0.64393,1.04556
85.15,12.37168,-0.002770571,0.63998,1.0454
85.75,12.3927,-0.001526201,0.64008,1.04524
86.35,12.41357,-0.000776669,0.63586,1.04508
86.95,12.4345,-0.001440662,0.63283,1.04492
87.55,12.4554,-5.887505e-05,0.63396,1.04475
88.15,12.47632,-0.0002025032,0.63218,1.04459
88.75,12.49708,-0.00144636,0.63249,1.04443
89.35,12.51783,-0.00141779,0.63158,1.04426
89.95,12.53849,-0.001552664,0.63001,1.0441
90.55,12.55913,-0.002364736,0.63149,1.04393
91.15,12.57964,-0.00140907,0.62863,1.04376
91.75,12.60016,-0.002959786,0.62914,1.0436
92.35,12.62045,-0.002343427,0.6279,1.04343
92.95,12.64095,-0.003091462,0.62924,1.04326
93.55,12.66133,-0.004607969,0.62739,1.04309
94.15,12.68169,-0.00414079,0.62883,1.04292
94.75,12.7022,-0.004615244,0.63014,1.04275
95.35,12.72258,-0.004521513,0.62794,1.04258
95.95,12.74285,-0.004459032,0.63125,1.04241
96.55,12.76315,-0.00459645,0.63129,1.04224
97.15,12.7834,-0.00599527,0.63122,1.04206
97.75,12.80378,-0.005798656,0.63417,1.04189
98.35,12.82398,-0.00646398,0.63444,1.04172
98.95,12.84402,-0.00718557,0.63622,1.04154
99.55,12.86409,-0.00713775,0.63817,1.04137
100.15,12.8843,-0.008243403,0.64114,1.04119
100.75,12.9046,-0.009082668,0.64396,1.04101
101.35,12.92503,-0.009296698,0.64431,1.04084
101.95,12.9453,-0.01052726,0.64961,1.04066
102.55,12.96541,-0.01104453,0.64988,1.04048
103.15,12.98564,-0.01185514,0.65331,1.0403
103.75,13.00579,-0.01189164,0.65558,1.04012
104.35,13.02586,-0.01052082,0.65924,1.03994
104.95,13.04593,-0.00925984,0.66367,1.03976
105.55,13.06605,-0.009243829,0.66562,1.03958
106.15,13.08613,-0.00760711,0.66855,1.0394
106.75,13.10623,-0.006577959,0.67221,1.03921
107.35,13.12636,-0.006580027,0.6752,1.03903
107.95,13.14631,-0.00658,0.67727,1.03885
108.55,13.1663,-0.00657989,0.68028,1.03866
109.15,13.18624,-0.006586459,0.68173,1.03848
109.75,13.2062,-0.005278385,0.68579,1.03829
110.35,13.2263,-0.005269772,0.69223,1.0381
110.95,13.2463,-0.005275595,0.69487,1.03792
111.55,13.26641,-0.00395459,0.69905,1.03773
112.15,13.28643,-0.00394992,0.70445,1.03754
112.75,13.30644,-0.003950001,0.70776,1.03735
113.35,13.32644,-0.00395,0.7079,1.03716
113.95,13.3463,-0.00395,0.71529,1.03697
114.55,13.36617,-0.003950002,0.71746,1.03678
115.15,13.38609,-0.00394988,0.72222,1.03659
115.75,13.40603,-0.00395664,0.72469,1.0364
116.35,13.426,-0.00523121,0.72988,1.03621
116.95,13.4459,-0.00434938,0.73157,1.03601
117.55,13.4658,-0.00395126,0.73539,1.03582
118.15,13.48554,-0.003949973,0.7395,1.03563
118.75,13.50535,-0.003949709,0.74529,1.03543
119.35,13.52511,-0.00396672,0.74682,1.03524
119.95,13.5449,-0.002669708,0.75081,1.03504
120.55,13.56475,-0.003053316,0.75587,1.03484
121.15,13.5846,-0.003941352,0.75863,1.03465
121.75,13.60445,-0.003950179,0.76483,1.03445
122.35,13.6242,-0.003949996,0.76663,1.03425
122.95,13.64393,-0.003950001,0.77202,1.03405
123.55,13.6636,-0.003949928,0.77622,1.03385
124.15,13.68334,-0.003953555,0.77846,1.03365
124.75,13.70307,-0.00371281,0.78289,1.03345
125.35,13.7228,-0.002653668,0.78663,1.03325
125.95,13.74245,-0.002639745,0.79097,1.03305
126.55,13.762,-0.00263942,0.79562,1.03284
127.15,13.78147,-0.00266264,0.79757,1.03264
127.75,13.80081,-0.001290501,0.80114,1.03244
128.35,13.82042,-0.00132033,0.80424,1.03223
128.95,13.84,-0.00132,0.81042,1.03203
129.55,13.8597,-0.00132,0.81312,1.03182
130.15,13.8794,-0.00132045,0.81817,1.03161
130.75,13.89891,-0.00128308,0.82432,1.03141
131.35,13.9185,-0.00266421,0.8272,1.0312
131.95,13.9379,-0.00263901,0.82744,1.03099
132.55,13.9574,-0.002659135,0.83361,1.03078
133.15,13.97684,-0.001418649,0.83814,1.03057
133.75,13.99632,-0.00132309,0.84032,1.03037
134.35,14.01566,-0.001871216,0.84508,1.03015
134.95,14.03498,-0.002625386,0.8496,1.02994
135.55,14.05441,-0.00263007,0.85282,1.02973
136.15,14.0737,-0.002629999,0.85879,1.02952
136.75,14.0931,-0.00263,0.86039,1.02931
137.35,14.11253,-0.00263004,0.86826,1.02909
137.95,14.1318,-0.002626725,0.86779,1.02888
138.55,14.1511,-0.00301573,0.87559,1.02867
139.15,14.17034,-0.003936862,0.8789,1.02845
139.75,14.18958,-0.003994875,0.88106,1.02824
140.35,14.2089,-0.0025788,0.88426,1.02802
140.95,14.22804,-0.002630817,0.88749,1.0278
141.55,14.2473,-0.002629991,0.89193,1.02758
142.15,14.2665,-0.00263,0.8967,1.02737
142.75,14.28565,-0.00263003,0.89778,1.02715
143.35,14.30476,-0.002627881,0.89935,1.02693
143.95,14.32376,-0.00280339,0.90463,1.02671
144.55,14.34283,-0.004013571,0.90798,1.02649
145.15,14.36196,-0.003948038,0.90948,1.02627
145.75,14.3811,-0.003971811,0.91285,1.02605
146.35,14.4003,-0.00330397,0.91568,1.02582
146.95,14.4193,-0.003300265,0.91898,1.0256
147.55,14.43835,-0.00329998,0.92125,1.02538
148.15,14.45735,-0.003300371,0.92578,1.02516
148.75,14.4764,-0.00328307,0.9293,1.02493
149.35,14.4955,-0.002569338,0.93157,1.02471
149.95,14.5146,-0.002641048,0.93516,1.02448
150.55,14.5336,-0.002639995,0.93548,1.02426
151.15,14.55256,-0.00264002,0.93845,1.02403
151.75,14.57153,-0.00263828,0.94325,1.0238
152.35,14.59046,-0.00279675,0.94749,1.02357
152.95,14.60945,-0.00329153,0.94925,1.02335
153.55,14.62845,-0.00335827,0.95361,1.02312
154.15,14.64741,-0.003956166,0.95451,1.02289
154.75,14.6661,-0.003959926,0.95681,1.02266
155.35,14.68491,-0.003960005,0.95974,1.02243
155.95,14.7037,-0.00396,0.96365,1.0222
156.55,14.7224,-0.00396,0.96763,1.02196
157.15,14.74141,-0.003959869,0.96984,1.02173
157.75,14.76034,-0.003961447,0.9704,1.0215
158.35,14.77925,-0.003018324,0.97327,1.02127
158.95,14.79831,-0.002967708,0.97644,1.02103
159.55,14.81736,-0.002974853,0.97872,1.0208
160.15,14.83627,-0.003577217,0.98125,1.02056
160.75,14.85515,-0.004275224,0.98515,1.02033
161.35,14.87399,-0.004280081,0.98889,1.02009
161.95,14.89264,-0.00428132,0.98903,1.01985
162.55,14.9115,-0.00403125,0.99186,1.01962
163.15,14.9303,-0.003947763,0.99632,1.01938
163.75,14.94917,-0.00395005,0.99843,1.01914
164.35,14.968,-0.003949999,0.99876,1.0189
164.95,14.9868,-0.00395,1.00092,1.01866
165.55,15.00559,-0.00395,1.00481,1.01842
166.15,15.02435,-0.00395,1.00571,1.01818
166.75,15.0432,-0.00395,1.00705,1.01794
167.35,15.06194,-0.00395,1.01255,1.0177
167.95,15.0807,-0.003949998,1.01288,1.01745
168.55,15.09945,-0.003949958,1.01423,1.01721
169.15,15.1182,-0.00395488,1.01883,1.01697
169.75,15.13706,-0.004651715,1.02408,1.01672
170.35,15.15582,-0.00526382,1.02578,1.01648
170.95,15.1745,-0.005294985,1.02753,1.01623
171.55,15.19319,-0.0046076,1.02977,1.01599
172.15,15.2118,-0.00461061,1.03067,1.01574
172.75,15.23055,-0.00460993,1.0322,1.0155
173.35,15.2493,-0.00461196,1.03452,1.01525
173.95,15.26804,-0.004553328,1.03666,1.015
174.55,15.2867,-0.00427993,1.04059,1.01475
175.15,15.30534,-0.004279929,1.04049,1.0145
175.75,15.3239,-0.004280003,1.04453,1.01425
176.35,15.34244,-0.00428,1.04642,1.014
176.95,15.36103,-0.00428,1.04852,1.01375
177.55,15.3795,-0.00428,1.05232,1.0135
178.15,15.3981,-0.00428,1.05435,1.01325
178.75,15.4167,-0.00428,1.05695,1.013
179.35,15.43525,-0.00428,1.0587,1.01274
179.95,15.45385,-0.00428,1.06264,1.01249
180.55,15.4724,-0.00428,1.06595,1.01224
181.15,15.4909,-0.00428,1.06727,1.01198
181.75,15.50949,-0.00428,1.06956,1.01173
182.35,15.52798,-0.00428,1.07209,1.01147
182.95,15.5465,-0.00428,1.07318,1.01122
183.55,15.565,-0.00428,1.07567,1.01096
184.15,15.5834,-0.00428,1.08032,1.0107
184.75,15.6019,-0.004280015,1.08158,1.01045
185.35,15.6204,-0.004279863,1.08428,1.01019
185.95,15.63885,-0.004265989,1.08507,1.00993
186.55,15.6572,-0.005517897,1.08545,1.00967
187.15,15.6755,-0.005601366,1.09175,1.00941
187.75,15.6937,-0.005599993,1.09371,1.00915
188.35,15.712,-0.0056,1.09364,1.00889
188.95,15.73046,-0.0056,1.09616,1.00863
189.55,15.74898,-0.0056,1.09935,1.00836
190.15,15.7675,-0.0056,1.10463,1.0081
190.75,15.7859,-0.005600041,1.10337,1.00784
191.35,15.80415,-0.00559628,1.1101,1.00758
191.95,15.8225,-0.00577738,1.10963,1.00731
192.55,15.8408,-0.006912113,1.11008,1.00705
193.15,15.85919,-0.006919833,1.11428,1.00678
193.75,15.8775,-0.006914885,1.11733,1.00652
194.35,15.89585,-0.00634628,1.11837,1.00625
194.95,15.91417,-0.00560299,1.12135,1.00598
195.55,15.93246,-0.00560009,1.12358,1.00572
196.15,15.9508,-0.00559999,1.12434,1.00545
196.75,15.96909,-0.0056,1.12692,1.00518
197.35,15.9874,-0.0056,1.12969,1.00491
197.95,16.00579,-0.005600013,1.13333,1.00464
198.55,16.02417,-0.005598833,1.13598,1.00437
199.15,16.0425,-0.00566185,1.13982,1.0041
199.75,16.0608,-0.006580707,1.14159,1.00383
200.35,16.07904,-0.006589676,1.14475,1.00356
200.95,16.0973,-0.00659002,1.14693,1.00329
201.55,16.11561,-0.006589999,1.14633,1.00301
202.15,16.13391,-0.00659,1.15035,1.00274
202.75,16.15222,-0.00659,1.15323,1.00247
203.35,16.1705,-0.00659,1.15468,1.00219
203.95,16.18872,-0.00659,1.1588,1.00192
204.55,16.20692,-0.006589999,1.16005,1.00164
205.15,16.2252,-0.006589886,1.16391,1.00137
205.75,16.24344,-0.00659658,1.16594,1.00109
206.35,16.26161,-0.00701958,1.17038,1.00082
206.95,16.2798,-0.00724966,1.17265,1.00054
207.55,16.29802,-0.00725008,1.175,1.00026
208.15,16.31618,-0.00725,1.17843,0.99998
208.75,16.33447,-0.007249996,1.18052,0.9997
209.35,16.35277,-0.007249922,1.18435,0.99942
209.95,16.37099,-0.007259529,1.18665,0.99914
210.55,16.3892,-0.00761542,1.18836,0.99886
211.15,16.40744,-0.00757962,1.19024,0.99858
211.75,16.42567,-0.00757999,1.19705,0.9983
212.35,16.44391,-0.00758,1.19935,0.99802
212.95,16.46201,-0.00758,1.20289,0.99774
213.55,16.48,-0.00758,1.20646,0.99746
214.15,16.49815,-0.00758,1.20846,0.99717
214.75,16.51632,-0.00758,1.21144,0.99689
215.35,16.5347,-0.00758,1.215,0.9966
215.95,16.5531,-0.00758,1.21809,0.99632
216.55,16.5713,-0.007579874,1.22061,0.99603
217.15,16.58948,-0.007585609,1.22378,0.99575
217.75,16.60764,-0.007959492,1.22612,0.99546
218.35,16.62579,-0.008212365,1.22956,0.99517
218.95,16.64394,-0.008911116,1.2364,0.99489
219.55,16.66209,-0.00888951,1.23993,0.9946
220.15,16.68026,-0.008890002,1.24056,0.99431
220.75,16.69843,-0.00889,1.24561,0.99402
221.35,16.71667,-0.00889,1.24881,0.99373
221.95,16.73485,-0.00889,1.25364,0.99344
222.55,16.75307,-0.008890002,1.25629,0.99315
223.15,16.77126,-0.00888964,1.26026,0.99286
223.75,16.7894,-0.008905436,1.26414,0.99257
224.35,16.8076,-0.00782894,1.26928,0.99228
224.95,16.8257,-0.007581335,1.27346,0.99199
225.55,16.84383,-0.00757992,1.27931,0.99169
226.15,16.86197,-0.007580002,1.28223,0.9914
226.75,16.88012,-0.00758,1.2862,0.99111
227.35,16.89825,-0.00757976,1.29233,0.99081
227.95,16.91624,-0.00759167,1.29842,0.99052
228.55,16.93433,-0.00835441,1.30392,0.99022
229.15,16.9525,-0.008886348,1.31056,0.98993
229.75,16.97061,-0.008909547,1.31654,0.98963
230.35,16.98885,-0.009620997,1.32055,0.98933
230.95,17.00702,-0.00954961,1.32746,0.98904
231.55,17.02512,-0.009549954,1.33409,0.98874
232.15,17.04329,-0.00955,1.34148,0.98844
232.75,17.0614,-0.00955,1.35,0.98814
233.35,17.07955,-0.00955,1.35773,0.98784
233.95,17.0977,-0.00954993,1.36622,0.98754
234.55,17.11587,-0.009552865,1.37366,0.98724
235.15,17.13404,-0.009511627,1.38298,0.98694
235.75,17.15217,-0.00822302,1.39311,0.98664
236.35,17.1704,-0.008240854,1.4048,0.98634
236.95,17.18839,-0.008239974,1.41546,0.98604
237.55,17.2065,-0.008239971,1.42552,0.98573
238.15,17.22467,-0.008252955,1.43698,0.98543
238.75,17.24275,-0.009221596,1.45048,0.98513
239.35,17.2609,-0.00955144,1.46388,0.98482
239.95,17.27899,-0.009515033,1.47816,0.98452
240.55,17.2971,-0.0109147,1.49575,0.98421
241.15,17.3152,-0.01086905,1.5109,0.98391
241.75,17.33324,-0.01087,1.52995,0.9836
242.35,17.35141,-0.01087002,1.54809,0.98329
242.95,17.3696,-0.01086915,1.56962,0.98299
243.55,17.3877,-0.0108857,1.59227,0.98268
244.15,17.40585,-0.009604473,1.61857,0.98237
244.75,17.42398,-0.00955706,1.64284,0.98206
245.35,17.44205,-0.00956007,1.67444,0.98176
245.95,17.46023,-0.00956,1.70652,0.98145
246.55,17.47832,-0.00956,1.7409,0.98114
247.15,17.49642,-0.00955998,1.77931,0.98083
247.75,17.51459,-0.009560361,1.82353,0.98051
248.35,17.53272,-0.009566232,1.87089,0.9802
248.95,17.55097,-0.01070217,1.92421,0.97989
249.55,17.5691,-0.01087371,1.98363,0.97958
250.15,17.58718,-0.01087016,2.05213,0.97927
250.75,17.60533,-0.0108855,2.12576,0.97895
251.35,17.6235,-0.009648808,2.21159,0.97864
251.95,17.64175,-0.009548729,2.30256,0.97833
252.55,17.66,-0.00955,2.40148,0.97801
253.15,17.67819,-0.009549999,2.50809,0.9777
253.75,17.69641,-0.009550064,2.61964,0.97738
254.35,17.71461,-0.009548604,2.73458,0.97707
254.95,17.73281,-0.009528927,2.85007,0.97675
255.55,17.7511,-0.01090525,2.96236,0.97643
256.15,17.76935,-0.010869,3.06491,0.97611
256.75,17.78762,-0.01087003,3.15363,0.9758
257.35,17.80591,-0.01087054,3.21908,0.97548
257.95,17.8242,-0.01081821,3.25659,0.97516
258.55,17.84248,-0.0122417,3.26233,0.97484
259.15,17.8608,-0.01218945,3.2383,0.97452
259.75,17.879,-0.01218998,3.18327,0.9742
260.35,17.8973,-0.01219,3.10095,0.97388
260.95,17.91548,-0.01219001,2.99851,0.97356
261.55,17.93369,-0.01218991,2.888,0.97324
262.15,17.95188,-0.0121782,2.77029,0.97292
262.75,17.97,-0.01113344,2.65409,0.97259
263.35,17.988,-0.01085933,2.54031,0.97227
263.95,18.00613,-0.01024783,2.435,0.97195
264.55,18.0243,-0.01020637,2.33401,0.97162
265.15,18.0423,-0.0102101,2.24227,0.9713
265.75,18.06048,-0.01021,2.15826,0.97097
266.35,18.07852,-0.01021,2.0802,0.97065
266.95,18.0965,-0.01021,2.01002,0.97032
267.55,18.11456,-0.01021,1.94667,0.97
268.15,18.13259,-0.01021004,1.88873,0.96967
268.75,18.1506,-0.01020627,1.83495,0.96934
269.35,18.1686,-0.01033682,1.79002,0.96902
269.95,18.18654,-0.01153167,1.7485,0.96869
270.55,18.20438,-0.01152931,1.70886,0.96836
271.15,18.22233,-0.01153002,1.67661,0.96803
271.75,18.24026,-0.01153,1.64634,0.9677
272.35,18.25825,-0.01153092,1.61682,0.96737
272.95,18.27634,-0.01148476,1.59444,0.96704
273.55,18.29431,-0.01287328,1.57138,0.96671
274.15,18.31231,-0.01284106,1.55057,0.96638
274.75,18.33026,-0.01284003,1.53336,0.96605
275.35,18.34819,-0.01283768,1.51872,0.96572
275.95,18.36621,-0.0125483,1.50534,0.96539
276.55,18.38419,-0.011506,1.49356,0.96505
277.15,18.40215,-0.01152036,1.48051,0.96472
277.75,18.4201,-0.01152,1.47091,0.96439
278.35,18.438,-0.01151992,1.46368,0.96405
278.95,18.45599,-0.01152357,1.45491,0.96372
279.55,18.47399,-0.01191436,1.44738,0.96338
280.15,18.492,-0.01247448,1.44104,0.96305
280.75,18.51,-0.01283135,1.43614,0.96271
281.35,18.52797,-0.01284014,1.43098,0.96238
281.95,18.54596,-0.01284,1.42705,0.96204
282.55,18.56393,-0.01284,1.42465,0.9617
283.15,18.58195,-0.01284002,1.42218,0.96137
283.75,18.60002,-0.01283999,1.41889,0.96103
284.35,18.61798,-0.01281466,1.41789,0.96069
284.95,18.63605,-0.01352597,1.41666,0.96035
285.55,18.65406,-0.01349974,1.41299,0.96001
286.15,18.67201,-0.01350001,1.41222,0.95967
286.75,18.69,-0.01349874,1.41305,0.95933
287.35,18.70794,-0.01352866,1.41209,0.95899
287.95,18.72599,-0.01480661,1.41051,0.95865
288.55,18.74399,-0.01482109,1.41021,0.95831
289.15,18.76204,-0.01481997,1.4093,0.95797
289.75,18.7801,-0.01482,1.40843,0.95762
290.35,18.79811,-0.01482,1.40802,0.95728
290.95,18.81614,-0.01482,1.40795,0.95694
291.55,18.83416,-0.01482006,1.40924,0.95659
292.15,18.85219,-0.01482273,1.40984,0.95625
292.75,18.87021,-0.01453428,1.40729,0.95591
293.35,18.8882,-0.0135121,1.40702,0.95556
293.95,18.90625,-0.01350011,1.40937,0.95522
294.55,18.92429,-0.01349997,1.40859,0.95487
295.15,18.94227,-0.01350068,1.40873,0.95452
295.75,18.96034,-0.01349557,1.40956,0.95418
296.35,18.97842,-0.01471946,1.40851,0.95383
296.95,18.99654,-0.01482358,1.40763,0.95348
297.55,19.0146,-0.01481994,1.40746,0.95314
298.15,19.0326,-0.01482,1.40854,0.95279
298.75,19.05055,-0.01482,1.40847,0.95244
299.35,19.06847,-0.01482,1.40989,0.95209
299.95,19.08653,-0.01482,1.40855,0.95174
300.55,19.1046,-0.01482,1.40931,0.95139
301.15,19.12275,-0.01482,1.40999,0.95104
301.75,19.1409,-0.01482,1.40925,0.95069
302.35,19.15902,-0.01482,1.40996,0.95034
302.95,19.17709,-0.01482,1.40961,0.94999
303.55,19.19513,-0.01482,1.40859,0.94964
304.15,19.21312,-0.01482,1.40999,0.94928
304.75,19.2312,-0.01482134,1.41105,0.94893
305.35,19.24929,-0.01474481,1.41066,0.94858
305.95,19.26734,-0.01349059,1.41132,0.94822
306.55,19.28547,-0.01349953,1.41298,0.94787
307.15,19.3035,-0.01350002,1.41195,0.94751
307.75,19.32153,-0.01350004,1.41322,0.94716
308.35,19.3396,-0.01350046,1.41406,0.9468
308.95,19.3576,-0.01342819,1.41394,0.94645
309.55,19.37564,-0.01602899,1.41424,0.94609
310.15,19.3937,-0.01614011,1.41507,0.94574
310.75,19.4118,-0.01614001,1.41523,0.94538
311.35,19.4299,-0.01614,1.41413,0.94502
311.95,19.44799,-0.01614,1.41465,0.94467
312.55,19.4661,-0.01614,1.41389,0.94431
313.15,19.48414,-0.01614003,1.41372,0.94395
313.75,19.50225,-0.01613906,1.41486,0.94359
314.35,19.52027,-0.01614497,1.41535,0.94323
314.95,19.53838,-0.01741023,1.41516,0.94287
315.55,19.55648,-0.01745133,1.41582,0.94251
316.15,19.5746,-0.01745001,1.41673,0.94215
316.75,19.59274,-0.0174506,1.41613,0.94179
317.35,19.61086,-0.01729619,1.41706,0.94143
317.95,19.629,-0.01612097,1.41859,0.94107
318.55,19.6471,-0.01614014,1.41799,0.9407
319.15,19.66522,-0.01614087,1.41799,0.94034
319.75,19.68334,-0.01609134,1.41836,0.93998
320.35,19.70145,-0.01749294,1.41802,0.93962
320.95,19.7196,-0.01745038,1.41857,0.93925
321.55,19.73773,-0.01744995,1.41846,0.93889
322.15,19.7559,-0.01745,1.41982,0.93852
322.75,19.77405,-0.01745,1.41944,0.93816
323.35,19.79222,-0.01745,1.41988,0.93779
323.95,19.81046,-0.01745,1.41974,0.93743
324.55,19.8287,-0.01745,1.42062,0.93706
325.15,19.84681,-0.01745,1.42019,0.9367
325.75,19.86496,-0.01745124,1.42134,0.93633
326.35,19.8831,-0.01738685,1.42188,0.93596
326.95,19.90129,-0.01809511,1.42282,0.93559
327.55,19.9194,-0.01810962,1.42302,0.93523
328.15,19.9376,-0.0181288,1.42307,0.93486
328.75,19.95576,-0.01884044,1.42315,0.93449
329.35,19.97393,-0.01876938,1.42384,0.93412
329.95,19.9922,-0.01876997,1.42148,0.93375
330.55,20.01023,-0.01877,1.42365,0.93338
331.15,20.0284,-0.01877002,1.42498,0.93301
331.75,20.04655,-0.01877005,1.42455,0.93264
332.35,20.06475,-0.01874534,1.42446,0.93227
332.95,20.08299,-0.01945568,1.42525,0.9319
333.55,20.10126,-0.01942961,1.42632,0.93153
334.15,20.1195,-0.01943,1.42573,0.93115
334.75,20.1377,-0.01943,1.42579,0.93078
335.35,20.15596,-0.01943,1.42726,0.93041
335.95,20.1741,-0.01943001,1.42657,0.93004
336.55,20.1923,-0.01943025,1.42716,0.92966
337.15,20.2104,-0.01941104,1.42806,0.92929
337.75,20.2286,-0.0205639,1.42957,0.92891
338.35,20.24682,-0.02075018,1.43145,0.92854
338.95,20.26502,-0.02074998,1.43153,0.92816
339.55,20.2833,-0.02075344,1.43178,0.92779
340.15,20.30157,-0.02065077,1.43167,0.92741
340.75,20.31982,-0.01942774,1.43235,0.92704
341.35,20.3381,-0.01943126,1.4307,0.92666
341.95,20.35634,-0.01939718,1.43097,0.92628
342.55,20.37455,-0.0216012,1.43217,0.92591
343.15,20.39283,-0.02206866,1.43262,0.92553
343.75,20.41111,-0.02207013,1.43184,0.92515
344.35,20.4294,-0.02207,1.43372,0.92477
344.95,20.4477,-0.02207,1.43378,0.92439
345.55,20.46591,-0.02207,1.43222,0.92401
346.15,20.4842,-0.02207,1.43466,0.92363
346.75,20.50246,-0.02207,1.43415,0.92325
347.35,20.52076,-0.02207,1.43587,0.92287
347.95,20.53905,-0.02207,1.43553,0.92249
348.55,20.5573,-0.02207,1.43447,0.92211
349.15,20.5756,-0.02207,1.43549,0.92173
349.75,20.59388,-0.02207,1.43677,0.92135
350.35,20.61218,-0.02207,1.43606,0.92097
350.95,20.63052,-0.02207,1.43608,0.92058
351.55,20.6488,-0.02207,1.4373,0.9202
352.15,20.66699,-0.02207001,1.43902,0.91982
352.75,20.68526,-0.02207075,1.43901,0.91943
353.35,20.7036,-0.02202432,1.44032,0.91905
353.95,20.72191,-0.02394771,1.44124,0.91867
354.55,20.74026,-0.02469869,1.44228,0.91828
355.15,20.7586,-0.02469981,1.44412,0.9179
355.75,20.7769,-0.02470025,1.44369,0.91751
356.35,20.7952,-0.02469278,1.44355,0.91712
356.95,20.8135,-0.02401817,1.44386,0.91674
357.55,20.8318,-0.02461038,1.44403,0.91635
358.15,20.8502,-0.02470313,1.44441,0.91597
358.75,20.8686,-0.02469994,1.44584,0.91558
359.35,20.88695,-0.0247,1.44564,0.91519
359.95,20.9053,-0.0247,1.4454,0.9148
360.55,20.9236,-0.0247,1.4473,0.91441
361.15,20.9419,-0.0247,1.44862,0.91403
361.75,20.96014,-0.02469999,1.44834,0.91364
362.35,20.9785,-0.02469675,1.45038,0.91325
362.95,20.99667,-0.02496455,1.44932,0.91286
363.55,21.01502,-0.02600726,1.44885,0.91247
364.15,21.03343,-0.02602034,1.4504,0.91208
364.75,21.05184,-0.02649499,1.45047,0.91169
365.35,21.07037,-0.02732806,1.45293,0.9113
365.95,21.08877,-0.02733585,1.45268,0.91091
366.55,21.10708,-0.02698399,1.45212,0.91051
367.15,21.12548,-0.02670097,1.45218,0.91012
367.75,21.14387,-0.02613297,1.45478,0.90973
368.35,21.16226,-0.02735951,1.45416,0.90934
368.95,21.18068,-0.02733981,1.45566,0.90894
369.55,21.199,-0.02733999,1.45706,0.90855
370.15,21.2174,-0.02734,1.45767,0.90816
370.75,21.23578,-0.02734,1.46039,0.90776
371.35,21.25416,-0.02734,1.4596,0.90737
371.95,21.27261,-0.02734,1.46301,0.90697
372.55,21.29106,-0.02734,1.46359,0.90658
373.15,21.30939,-0.02734008,1.46456,0.90618
373.75,21.3278,-0.02733829,1.4686,0.90579
374.35,21.34617,-0.02731116,1.47055,0.90539
374.95,21.36449,-0.02844116,1.47293,0.90499
375.55,21.38288,-0.02865531,1.47505,0.9046
376.15,21.4013,-0.02864992,1.47818,0.9042
376.75,21.41969,-0.02865,1.47925,0.9038
377.35,21.43814,-0.02865086,1.48071,0.90341
377.95,21.45661,-0.02860614,1.48211,0.90301
378.55,21.47505,-0.03050972,1.48517,0.90261
379.15,21.4935,-0.03128912,1.4882,0.90221
379.75,21.51195,-0.03129012,1.49132,0.90181
380.35,21.53039,-0.03127117,1.49309,0.90141
380.95,21.54883,-0.03243804,1.49391,0.90101
381.55,21.56728,-0.03261064,1.49786,0.90061
382.15,21.58575,-0.03261066,1.50074,0.90021
382.75,21.60425,-0.0325582,1.50303,0.89981
383.35,21.62278,-0.03398507,1.50537,0.89941
383.95,21.6413,-0.0338512,1.50716,0.89901
384.55,21.6598,-0.03260719,1.51124,0.89861
385.15,21.67827,-0.03261487,1.51563,0.8982
385.75,21.69664,-0.03325697,1.51783,0.8978
386.35,21.71521,-0.03391519,1.52107,0.8974
386.95,21.73386,-0.03391985,1.52324,0.897
387.55,21.75242,-0.03390794,1.52614,0.89659
388.15,21.77104,-0.03517766,1.53117,0.89619
388.75,21.78957,-0.03524113,1.53348,0.89579
389.35,21.80799,-0.03524506,1.53656,0.89538
389.95,21.82651,-0.0358791,1.53869,0.89498
390.55,21.84497,-0.03666254,1.542,0.89457
391.15,21.86345,-0.03660202,1.54685,0.89417
391.75,21.88199,-0.03917813,1.55106,0.89376
392.35,21.90046,-0.03930791,1.55206,0.89335
392.95,21.91905,-0.04020286,1.55782,0.89295
393.55,21.93746,-0.04062122,1.56229,0.89254
394.15,21.95586,-0.04119584,1.56666,0.89214
394.75,21.9744,-0.04191719,1.56931,0.89173
395.35,21.9929,-0.04123344,1.5726,0.89132
395.95,22.0116,-0.0425185,1.58003,0.89091
396.55,22.03024,-0.04387017,1.58407,0.8905
397.15,22.0488,-0.04479669,1.58937,0.8901
397.75,22.0674,-0.04592924,1.59427,0.88969
398.35,22.08601,-0.047674,1.60046,0.88928
398.95,22.10456,-0.04967324,1.60461,0.88887
399.55,22.12313,-0.05045575,1.61322,0.88846
400.15,22.14169,-0.05210347,1.61921,0.88805
400.75,22.16014,-0.05337939,1.62605,0.88764
401.35,22.17867,-0.05438349,1.63095,0.88723
401.95,22.19732,-0.05537025,1.63938,0.88682
402.55,22.21594,-0.05727588,1.64486,0.88641
403.15,22.2347,-0.05868653,1.65237,0.886
403.75,22.2534,-0.06038873,1.65903,0.88558
404.35,22.27196,-0.06185763,1.66738,0.88517
404.95,22.2906,-0.06291703,1.67296,0.88476
405.55,22.30923,-0.06458561,1.68087,0.88435
406.15,22.32785,-0.06708824,1.6884,0.88393
406.75,22.3464,-0.06944894,1.69481,0.88352
407.35,22.36496,-0.0719694,1.70258,0.88311
407.95,22.38365,-0.07463594,1.70957,0.88269
408.55,22.40231,-0.07711839,1.71602,0.88228
409.15,22.42108,-0.08014875,1.72547,0.88186
409.75,22.4398,-0.08232445,1.73319,0.88145
410.35,22.45842,-0.08478017,1.73955,0.88103
410.95,22.4771,-0.08706738,1.74673,0.88062
411.55,22.49577,-0.08962232,1.75253,0.8802
412.15,22.51439,-0.09261837,1.75991,0.87979
412.75,22.53305,-0.09631903,1.76712,0.87937
413.35,22.5517,-0.1005,1.77486,0.87895
413.95,22.57035,-0.10356,1.77961,0.87854
414.55,22.589,-0.10737,1.78503,0.87812
415.15,22.6077,-0.11048,1.7947,0.8777
415.75,22.62633,-0.11435,1.8024,0.87728
416.35,22.64501,-0.11811,1.81301,0.87687
416.95,22.66369,-0.12246,1.81283,0.87645
417.55,22.68235,-0.12744,1.82166,0.87603
418.15,22.70105,-0.13235,1.82992,0.87561
418.75,22.7197,-0.13846,1.83233,0.87519
419.35,22.7384,-0.144,1.83931,0.87477
419.95,22.7571,-0.14972,1.84643,0.87435
420.55,22.77579,-0.15554,1.85367,0.87393
421.15,22.7945,-0.16145,1.86325,0.87351
421.75,22.81322,-0.16771,1.8701,0.87309
422.35,22.83192,-0.17379,1.87297,0.87267
422.95,22.8506,-0.17994,1.88179,0.87225
423.55,22.86934,-0.18684,1.88959,0.87183
424.15,22.88808,-0.19413,1.89996,0.87141
424.75,22.90683,-0.20219,1.91013,0.87098
425.35,22.9256,-0.21064,1.91958,0.87056
425.95,22.94439,-0.21952,1.93433,0.87014
426.55,22.96321,-0.22864,1.94637,0.86972
427.15,22.982,-0.23797,1.95594,0.86929
427.75,23.0006,-0.24768,1.96999,0.86887
428.35,23.0194,-0.25765,1.98227,0.86844
428.95,23.0381,-0.26838,1.98992,0.86802
429.55,23.05685,-0.27915,2.00032,0.8676
430.15,23.07576,-0.29073,2.01441,0.86717
430.75,23.09451,-0.30266,2.02402,0.86675
431.35,23.11328,-0.31427,2.04085,0.86632
431.95,23.1321,-0.32685,2.06067,0.8659
432.55,23.1509,-0.34011,2.07639,0.86547
433.15,23.16967,-0.35454,2.09201,0.86504
433.75,23.18854,-0.36959,2.10828,0.86462
434.35,23.20735,-0.38331,2.12652,0.86419
434.95,23.2262,-0.39836,2.14495,0.86376
435.55,23.245,-0.41411,2.16574,0.86334
436.15,23.26374,-0.43074,2.18671,0.86291
436.75,23.28255,-0.44784,2.20942,0.86248
437.35,23.3014,-0.46556,2.2344,0.86206
437.95,23.32011,-0.48503,2.26555,0.86163
438.55,23.33899,-0.50503,2.29869,0.8612
439.15,23.35783,-0.52524,2.32369,0.86077
439.75,23.3766,-0.5455,2.35036,0.86034
440.35,23.3954,-0.56694,2.36962,0.85991
440.95,23.41413,-0.58985,2.39292,0.85948
441.55,23.433,-0.61328,2.41342,0.85905
442.15,23.452,-0.63814,2.43089,0.85862
442.75,23.47106,-0.66309,2.45402,0.85819
443.35,23.49005,-0.68912,2.48618,0.85776
443.95,23.50892,-0.71586,2.50995,0.85733
444.55,23.5278,-0.74293,2.53909,0.8569
445.15,23.54665,-0.77076,2.56661,0.85647
445.75,23.56556,-0.79865,2.59301,0.85604
446.35,23.58447,-0.82863,2.61785,0.8556
446.95,23.60341,-0.8596,2.64006,0.85517
447.55,23.62238,-0.89177,2.66143,0.85474
448.15,23.6413,-0.92451,2.68058,0.85431
448.75,23.66023,-0.95728,2.70277,0.85387
449.35,23.6791,-0.99139,2.72035,0.85344
449.95,23.69803,-1.02585,2.73377,0.85301
450.55,23.71697,-1.06176,2.73764,0.85257
451.15,23.7358,-1.09794,2.75202,0.85214
451.75,23.75468,-1.13448,2.76287,0.85171
452.35,23.77365,-1.17279,2.77809,0.85127
452.95,23.79259,-1.21082,2.79598,0.85084
453.55,23.81155,-1.24996,2.81593,0.8504
454.15,23.8305,-1.28833,2.83068,0.84997
454.75,23.84937,-1.32844,2.8442,0.84953
455.35,23.86829,-1.36962,2.85519,0.8491
455.95,23.88727,-1.41098,2.86344,0.84866
456.55,23.90629,-1.4541,2.87334,0.84822
457.15,23.92531,-1.49704,2.88297,0.84779
457.75,23.9442,-1.54056,2.89064,0.84735
458.35,23.96322,-1.58424,2.89519,0.84691
458.95,23.9821,-1.62831,2.89955,0.84648
459.55,24.0011,-1.67339,2.90113,0.84604
460.15,24.02006,-1.71804,2.90022,0.8456
460.75,24.03898,-1.76349,2.89819,0.84516
461.35,24.05801,-1.80864,2.88749,0.84473
461.95,24.07698,-1.85531,2.88203,0.84429
462.55,24.09595,-1.90112,2.868,0.84385
463.15,24.11497,-1.94675,2.85463,0.84341
463.75,24.1339,-1.99266,2.83891,0.84297
464.35,24.1528,-2.03692,2.8149,0.84253
464.95,24.1717,-2.08129,2.79013,0.84209
465.55,24.19061,-2.12353,2.76384,0.84165
466.15,24.20956,-2.16729,2.7354,0.84121
466.75,24.2285,-2.21041,2.70402,0.84077
467.35,24.2474,-2.25244,2.66945,0.84033
467.95,24.26633,-2.29496,2.63001,0.83989
468.55,24.28526,-2.33475,2.59182,0.83945
469.15,24.30418,-2.37402,2.55043,0.83901
469.75,24.32302,-2.41201,2.50632,0.83857
470.35,24.3419,-2.44942,2.45778,0.83812
470.95,24.3608,-2.48598,2.41299,0.83768
471.55,24.3797,-2.52032,2.36162,0.83724
472.15,24.39869,-2.55391,2.30872,0.8368
472.75,24.4176,-2.58576,2.25518,0.83635
473.35,24.4365,-2.61649,2.19983,0.83591
473.95,24.45543,-2.64532,2.14341,0.83547
474.55,24.47429,-2.67227,2.08946,0.83503
475.15,24.49325,-2.69815,2.03171,0.83458
475.75,24.51216,-2.72207,1.97582,0.83414
476.35,24.53107,-2.74509,1.91792,0.83369
476.95,24.55001,-2.76636,1.86534,0.83325
477.55,24.56888,-2.7863,1.81172,0.8328
478.15,24.58776,-2.80525,1.75878,0.83236
478.75,24.60664,-2.82261,1.7094,0.83191
479.35,24.6253,-2.83958,1.65979,0.83147
479.95,24.644,-2.85496,1.61446,0.83102
480.55,24.66279,-2.86952,1.56854,0.83058
481.15,24.68154,-2.8832,1.52635,0.83013
481.75,24.70056,-2.8959,1.48326,0.82969
482.35,24.71955,-2.90799,1.44066,0.82924
482.95,24.7385,-2.91937,1.40112,0.82879
483.55,24.7575,-2.93061,1.36345,0.82835
484.15,24.77635,-2.94079,1.32609,0.8279
484.75,24.79518,-2.94988,1.29249,0.82745
485.35,24.81411,-2.95892,1.25649,0.827
485.95,24.8331,-2.96734,1.21862,0.82656
486.55,24.85199,-2.97478,1.18482,0.82611
487.15,24.87097,-2.98224,1.15178,0.82566
487.75,24.8899,-2.98946,1.11939,0.82521
488.35,24.90871,-2.99663,1.08831,0.82476
488.95,24.92768,-3.00348,1.05802,0.82432
489.55,24.94664,-3.00992,1.02885,0.82387
490.15,24.96564,-3.01577,0.99747,0.82342
490.75,24.9847,-3.02162,0.96885,0.82297
491.35,25.00366,-3.0272,0.93839,0.82252
491.95,25.02263,-3.03261,0.91201,0.82207
492.55,25.0415,-3.03879,0.88697,0.82162
493.15,25.0605,-3.04397,0.85885,0.82117
493.75,25.0794,-3.04898,0.83367,0.82072
494.35,25.09842,-3.05348,0.8109,0.82027
494.95,25.11744,-3.05721,0.78806,0.81982
495.55,25.13641,-3.06147,0.76435,0.81936
496.15,25.15537,-3.06573,0.74253,0.81891
496.75,25.1744,-3.06944,0.7177,0.81846
497.35,25.1934,-3.07307,0.69911,0.81801
497.95,25.2124,-3.0757,0.67962,0.81756
498.55,25.23141,-3.07908,0.65939,0.81711
499.15,25.2503,-3.08176,0.64012,0.81665
499.75,25.26933,-3.08452,0.62187,0.8162
500.35,25.28838,-3.0879,0.60455,0.81575
500.95,25.30743,-3.09075,0.58925,0.81529
501.55,25.3266,-3.09369,0.5728,0.81484
502.15,25.3456,-3.09588,0.55618,0.81439
502.75,25.36467,-3.09853,0.54142,0.81393
503.35,25.3837,-3.10151,0.52729,0.81348
503.95,25.4027,-3.10367,0.51516,0.81303
504.55,25.4218,-3.10549,0.50094,0.81257
505.15,25.4409,-3.10741,0.49444,0.81212
505.75,25.46004,-3.10952,0.47791,0.81166
506.35,25.4792,-3.11155,0.46497,0.81121
506.95,25.49837,-3.11335,0.45688,0.81075
507.55,25.51741,-3.11553,0.44769,0.8103
508.15,25.53646,-3.11749,0.43638,0.80984
508.75,25.5555,-3.11962,0.43243,0.80939
509.35,25.57463,-3.12136,0.42496,0.80893
509.95,25.59376,-3.12324,0.41801,0.80848
510.55,25.61285,-3.12495,0.4079,0.80802
511.15,25.63198,-3.12555,0.4049,0.80756
511.75,25.65109,-3.1266,0.39811,0.80711
512.35,25.6703,-3.12816,0.39057,0.80665
512.95,25.6895,-3.12892,0.3826,0.80619
513.55,25.70869,-3.12993,0.37798,0.80574
514.15,25.72789,-3.13142,0.37598,0.80528
514.75,25.747,-3.13313,0.37062,0.80482
515.35,25.76615,-3.1334,0.36799,0.80436
515.95,25.78533,-3.13449,0.36186,0.8039
516.55,25.8045,-3.13563,0.35761,0.80345
517.15,25.82364,-3.13734,0.35387,0.80299
517.75,25.84285,-3.13815,0.35031,0.80253
518.35,25.86202,-3.139,0.34663,0.80207
518.95,25.88113,-3.14051,0.34801,0.80161
519.55,25.90035,-3.14082,0.34316,0.80115
520.15,25.9195,-3.142,0.34054,0.80069
520.75,25.93875,-3.1435,0.33653,0.80023
521.35,25.95802,-3.14394,0.33455,0.79977
521.95,25.9773,-3.1453,0.33285,0.79931
522.55,25.99652,-3.14736,0.33086,0.79885
523.15,26.0157,-3.14768,0.3269,0.79839
523.75,26.03494,-3.14932,0.32416,0.79793
524.35,26.05415,-3.14926,0.32352,0.79747
524.95,26.07337,-3.15079,0.32226,0.79701
525.55,26.09251,-3.15079,0.31974,0.79655
526.15,26.11179,-3.15078,0.31841,0.79609
526.75,26.13102,-3.15078,0.31615,0.79563
527.35,26.15033,-3.15147,0.31283,0.79517
527.95,26.16956,-3.15211,0.31112,0.79471
528.55,26.1888,-3.15308,0.30902,0.79424
529.15,26.20802,-3.15363,0.3081,0.79378
529.75,26.2272,-3.15521,0.30691,0.79332
530.35,26.24635,-3.15518,0.30229,0.79286
530.95,26.26564,-3.15607,0.26318,0.7924
531.55,26.28485,-3.15649,0.27004,0.79193
532.15,26.30425,-3.15665,0.2787,0.79147
532.75,26.3236,-3.15783,0.28131,0.79101
533.35,26.34287,-3.15777,0.28305,0.79054
533.95,26.36216,-3.15918,0.28574,0.79008
534.55,26.3815,-3.15913,0.28657,0.78962
535.15,26.4008,-3.15918,0.28831,0.78915
535.75,26.42012,-3.16044,0.28778,0.78869
536.35,26.43941,-3.16042,0.28745,0.78823
536.95,26.4586,-3.1619,0.28894,0.78776
537.55,26.4779,-3.16187,0.28984,0.7873
538.15,26.4972,-3.16259,0.29055,0.78683
538.75,26.51659,-3.1632,0.29171,0.78637
539.35,26.53595,-3.16425,0.2898,0.7859
539.95,26.55527,-3.16479,0.28773,0.78544
540.55,26.5746,-3.16606,0.28937,0.78497
541.15,26.5939,-3.16603,0.28888,0.78451
541.75,26.61324,-3.16736,0.28781,0.78404
542.35,26.6326,-3.16736,0.28675,0.78358
542.95,26.65185,-3.16784,0.28834,0.78311
543.55,26.67103,-3.16867,0.28799,0.78264
544.15,26.69035,-3.16868,0.28948,0.78218
544.75,26.7097,-3.16866,0.28843,0.78171
545.35,26.72921,-3.16985,0.2881,0.78124
545.95,26.7488,-3.17,0.28918,0.78078
546.55,26.7682,-3.17004,0.28789,0.78031
547.15,26.78753,-3.17132,0.28699,0.77984
547.75,26.80685,-3.17132,0.28734,0.77938
548.35,26.8262,-3.1723,0.28876,0.77891
548.95,26.84553,-3.1723,0.28693,0.77844
549.55,26.86482,-3.17312,0.28545,0.77797
550.15,26.88425,-3.17362,0.2854,0.77751
550.75,26.9036,-3.17362,0.28466,0.77704
551.35,26.9228,-3.17362,0.28335,0.77657
551.95,26.94227,-3.17361,0.28195,0.7761
552.55,26.96167,-3.17474,0.28263,0.77563
553.15,26.98108,-3.17495,0.28147,0.77516
553.75,27.00064,-3.17568,0.27971,0.7747
554.35,27.02001,-3.17626,0.28088,0.77423
554.95,27.0394,-3.17626,0.28177,0.77376
555.55,27.0588,-3.17626,0.28104,0.77329
556.15,27.0781,-3.17668,0.27919,0.77282
556.75,27.0975,-3.17756,0.27756,0.77235
557.35,27.11688,-3.17757,0.27752,0.77188
557.95,27.1363,-3.17757,0.27599,0.77141
558.55,27.1557,-3.17757,0.27544,0.77094
559.15,27.1752,-3.17757,0.27655,0.77047
559.75,27.19455,-3.1776,0.27596,0.77
560.35,27.21395,-3.1789,0.2752,0.76953
560.95,27.23337,-3.17889,0.2751,0.76906
561.55,27.25272,-3.17889,0.27377,0.76859
562.15,27.2721,-3.17888,0.27459,0.76812
562.75,27.2915,-3.18016,0.27369,0.76765
563.35,27.31097,-3.18021,0.27384,0.76717
563.95,27.33043,-3.18021,0.27124,0.7667
564.55,27.3499,-3.18031,0.27146,0.76623
565.15,27.36935,-3.18155,0.27023,0.76576
565.75,27.3888,-3.18153,0.26933,0.76529
566.35,27.40823,-3.18152,0.26811,0.76482
566.95,27.42765,-3.18259,0.26767,0.76434
567.55,27.44708,-3.18284,0.26848,0.76387
568.15,27.4665,-3.18284,0.26695,0.7634
568.75,27.48589,-3.18284,0.26478,0.76293
569.35,27.50535,-3.18284,0.26572,0.76246
569.95,27.52481,-3.18282,0.26526,0.76198
570.55,27.5443,-3.18409,0.26314,0.76151
571.15,27.56377,-3.18416,0.26267,0.76104
571.75,27.5832,-3.18411,0.26402,0.76056
572.35,27.60258,-3.18553,0.26368,0.76009
572.95,27.622,-3.18548,0.26357,0.75962
573.55,27.64125,-3.18548,0.26221,0.75914
574.15,27.66067,-3.18548,0.26048,0.75867
574.75,27.6802,-3.18649,0.25669,0.7582
575.35,27.6998,-3.18679,0.25841,0.75772
575.95,27.7194,-3.18679,0.2573,0.75725
576.55,27.7389,-3.18679,0.25633,0.75677
577.15,27.75842,-3.18679,0.25622,0.7563
577.75,27.778,-3.18679,0.2568,0.75583
578.35,27.7975,-3.18754,0.25749,0.75535
578.95,27.817,-3.18811,0.25492,0.75488
579.55,27.83653,-3.18812,0.25419,0.7544
580.15,27.85603,-3.1891,0.25524,0.75393
580.75,27.8756,-3.18943,0.2535,0.75345
581.35,27.89507,-3.18943,0.25138,0.75298
581.95,27.9146,-3.18944,0.25301,0.7525
582.55,27.9341,-3.19019,0.25222,0.75202
583.15,27.95366,-3.19075,0.25237,0.75155
583.75,27.9732,-3.19075,0.25281,0.75107
584.35,27.99265,-3.19076,0.24774,0.7506
584.95,28.01212,-3.19199,0.2497,0.75012
585.55,28.03152,-3.19206,0.25096,0.74965
586.15,28.05091,-3.19206,0.24949,0.74917
586.75,28.07055,-3.19206,0.24862,0.74869
587.35,28.0901,-3.19273,0.24708,0.74822
587.95,28.10973,-3.19339,0.24606,0.74774
588.55,28.12935,-3.19221,0.24663,0.74726
589.15,28.1489,-3.1926,0.24529,0.74679
589.75,28.16845,-3.19338,0.24563,0.74631
590.35,28.18807,-3.19338,0.24528,0.74583
590.95,28.2076,-3.19338,0.24532,0.74536
591.55,28.2272,-3.19411,0.24492,0.74488
592.15,28.2467,-3.19504,0.24485,0.7444
592.75,28.26628,-3.19601,0.24323,0.74392
593.35,28.2858,-3.19734,0.24239,0.74345
593.95,28.30538,-3.19733,0.24164,0.74297
594.55,28.32497,-3.19728,0.23927,0.74249
595.15,28.3446,-3.19868,0.23981,0.74201
595.75,28.3642,-3.19865,0.23728,0.74153
596.35,28.38375,-3.19865,0.23663,0.74105
596.95,28.40332,-3.19866,0.23682,0.74058
597.55,28.4229,-3.19966,0.23705,0.7401
598.15,28.44255,-3.19997,0.23557,0.73962
598.75,28.46218,-3.19998,0.23595,0.73914
599.35,28.4818,-3.20085,0.23595,0.73866
599.95,28.50133,-3.20129,0.23717,0.73818
600.55,28.52095,-3.20129,0.23587,0.7377
601.15,28.54055,-3.20129,0.23451,0.73722
601.75,28.56022,-3.20164,0.23343,0.73675
602.35,28.5799,-3.2026,0.23283,0.73627
602.95,28.5995,-3.20258,0.23372,0.73579
603.55,28.61901,-3.20405,0.23285,0.73531
604.15,28.63856,-3.20403,0.23269,0.73483
604.75,28.65812,-3.20398,0.23165,0.73435
605.35,28.6778,-3.20538,0.22982,0.73387
605.95,28.6975,-3.20535,0.22839,0.73339
606.55,28.7172,-3.20535,0.22836,0.73291
607.15,28.7369,-3.20535,0.22981,0.73243
607.75,28.75645,-3.20535,0.22902,0.73195
608.35,28.776,-3.20535,0.2282,0.73147
608.95,28.7956,-3.20535,0.22612,0.73099
609.55,28.81525,-3.20536,0.22567,0.73051
610.15,28.83488,-3.20619,0.22679,0.73003
610.75,28.85455,-3.20666,0.22772,0.72954
611.35,28.8742,-3.20666,0.22689,0.72906
611.95,28.8938,-3.20898,0.22667,0.72858
612.55,28.9134,-3.20897,0.22864,0.7281
613.15,28.9328,-3.20898,0.22987,0.72762
613.75,28.9525,-3.21025,0.22846,0.72714
614.35,28.97225,-3.21029,0.22924,0.72666
614.95,28.99202,-3.21027,0.23035,0.72618
615.55,29.01189,-3.21158,0.22925,0.72569
616.15,29.03152,-3.21161,0.22815,0.72521
616.75,29.0512,-3.21201,0.22748,0.72473
617.35,29.0709,-3.21291,0.22862,0.72425
617.95,29.0904,-3.2129,0.22961,0.72377
618.55,29.1099,-3.21418,0.22778,0.72328
619.15,29.1296,-3.21435,0.22815,0.7228
619.75,29.14935,-3.21455,0.22651,0.72232
620.35,29.1692,-3.21566,0.22558,0.72184
620.95,29.189,-3.21567,0.22467,0.72136
621.55,29.2087,-3.21567,0.22601,0.72087
622.15,29.22833,-3.21578,0.2254,0.72039
622.75,29.248,-3.21697,0.22532,0.71991
623.35,29.2676,-3.21698,0.22696,0.71942
623.95,29.28722,-3.21771,0.22621,0.71894
624.55,29.30688,-3.2183,0.22589,0.71846
625.15,29.3266,-3.2183,0.22497,0.71798
625.75,29.34628,-3.21961,0.22721,0.71749
626.35,29.366,-3.21962,0.22824,0.71701
626.95,29.3857,-3.21962,0.22795,0.71653
627.55,29.4054,-3.21985,0.2267,0.71604
628.15,29.42507,-3.22095,0.22774,0.71556
628.75,29.44479,-3.22094,0.22811,0.71508
629.35,29.46453,-3.22089,0.22762,0.71459
629.95,29.4842,-3.22229,0.22828,0.71411
630.55,29.5039,-3.22225,0.22818,0.71362
631.15,29.5235,-3.22225,0.22978,0.71314
631.75,29.5432,-3.22223,0.22863,0.71266
632.35,29.56287,-3.22344,0.2304,0.71217
632.95,29.58254,-3.22357,0.22867,0.71169
633.55,29.6022,-3.22358,0.22968,0.7112
634.15,29.62187,-3.22446,0.22957,0.71072
634.75,29.64157,-3.2249,0.23042,0.71024
635.35,29.6613,-3.22571,0.22894,0.70975
635.95,29.68109,-3.22621,0.22985,0.70927
636.55,29.70085,-3.22626,0.22888,0.70878
637.15,29.72059,-3.22751,0.22761,0.7083
637.75,29.7403,-3.22752,0.2318,0.70781
638.35,29.76,-3.22719,0.22998,0.70733
638.95,29.7797,-3.2262,0.22695,0.70684
639.55,29.79948,-3.2262,0.2281,0.70636
640.15,29.81927,-3.22677,0.22879,0.70587
640.75,29.839,-3.22751,0.22817,0.70539
641.35,29.8586,-3.22774,0.22936,0.7049
641.95,29.87833,-3.22845,0.23153,0.70442
642.55,29.89801,-3.22986,0.23317,0.70393
643.15,29.91785,-3.22983,0.23267,0.70345
643.75,29.9376,-3.22981,0.23007,0.70296
644.35,29.95727,-3.23107,0.23127,0.70247
644.95,29.97699,-3.23117,0.23015,0.70199
645.55,29.99665,-3.23217,0.2314,0.7015
646.15,30.01635,-3.23278,0.23233,0.70102
646.75,30.03615,-3.23279,0.23368,0.70053
647.35,30.05586,-3.23279,0.23455,0.70005
647.95,30.0756,-3.23334,0.2337,0.69956
648.55,30.09525,-3.23411,0.23661,0.69907
649.15,30.11497,-3.23411,0.23764,0.69859
649.75,30.1347,-3.23411,0.23776,0.6981
650.35,30.1544,-3.23411,0.23832,0.69761
650.95,30.17425,-3.23488,0.24134,0.69713
651.55,30.19395,-3.23543,0.24112,0.69664
652.15,30.21368,-3.23543,0.24188,0.69616
652.75,30.23341,-3.23675,0.24259,0.69567
653.35,30.25313,-3.23675,0.24249,0.69518
653.95,30.2729,-3.23675,0.24451,0.6947
654.55,30.2927,-3.23673,0.2463,0.69421
655.15,30.3125,-3.23807,0.24861,0.69372
655.75,30.3322,-3.23806,0.24561,0.69323
656.35,30.35185,-3.23806,0.24758,0.69275
656.95,30.37153,-3.23803,0.24324,0.69226
657.55,30.3912,-3.23815,0.2453,0.69177
658.15,30.411,-3.23806,0.24674,0.69129
658.75,30.4308,-3.23806,0.24736,0.6908
659.35,30.45055,-3.23806,0.24504,0.69031
659.95,30.4703,-3.23806,0.24655,0.68983
660.55,30.4901,-3.23806,0.248,0.68934
661.15,30.5098,-3.23806,0.24699,0.68885
661.75,30.5295,-3.23802,0.24558,0.68836
662.35,30.5493,-3.23943,0.24626,0.68788
662.95,30.569,-3.23938,0.24591,0.68739
663.55,30.5888,-3.23939,0.25005,0.6869
664.15,30.6086,-3.24028,0.24928,0.68641
664.75,30.62834,-3.2407,0.25366,0.68593
665.35,30.6481,-3.24073,0.25273,0.68544
665.95,30.66785,-3.24203,0.2526,0.68495
666.55,30.6876,-3.24207,0.25338,0.68446
667.15,30.7073,-3.24331,0.2536,0.68397
667.75,30.727,-3.242,0.25743,0.68349
668.35,30.74675,-3.24201,0.25655,0.683
668.95,30.7665,-3.24333,0.25866,0.68251
669.55,30.7863,-3.24333,0.26196,0.68202
670.15,30.8061,-3.24333,0.26071,0.68153
670.75,30.82596,-3.24332,0.2604,0.68105
671.35,30.8458,-3.24463,0.26078,0.68056
671.95,30.8656,-3.24465,0.26284,0.68007
672.55,30.88532,-3.24465,0.26274,0.67958
673.15,30.90509,-3.24465,0.26514,0.67909
673.75,30.9248,-3.24415,0.26296,0.6786
674.35,30.9446,-3.24399,0.26098,0.67811
674.95,30.9644,-3.24399,0.26137,0.67763
675.55,30.9842,-3.24414,0.26418,0.67714
676.15,31.004,-3.24531,0.26326,0.67665
676.75,31.02376,-3.2453,0.26174,0.67616
677.35,31.0435,-3.24529,0.26318,0.67567
677.95,31.0633,-3.24489,0.2603,0.67518
678.55,31.0829,-3.24634,0.26456,0.67469
679.15,31.10258,-3.24629,0.26481,0.67421
679.75,31.1224,-3.24629,0.26321,0.67372
680.35,31.1422,-3.24619,0.26395,0.67323
680.95,31.1623,-3.24612,0.26684,0.67274
681.55,31.18208,-3.24727,0.26482,0.67225
682.15,31.2018,-3.24728,0.26582,0.67176
682.75,31.22164,-3.24728,0.26784,0.67127
683.35,31.24138,-3.24728,0.26779,0.67078
683.95,31.26115,-3.24726,0.26727,0.67029
684.55,31.28091,-3.24863,0.26514,0.6698
685.15,31.3007,-3.2486,0.26469,0.66931
685.75,31.3205,-3.2486,0.26663,0.66883
686.35,31.34034,-3.2486,0.26932,0.66834
686.95,31.3601,-3.24894,0.26748,0.66785
687.55,31.37991,-3.24991,0.26742,0.66736
688.15,31.39968,-3.24991,0.26619,0.66687
688.75,31.41944,-3.24991,0.26573,0.66638
689.35,31.43925,-3.2499,0.26692,0.66589
689.95,31.4591,-3.25092,0.26601,0.6654
690.55,31.47887,-3.2509,0.26713,0.66491
691.15,31.4987,-3.2509,0.26722,0.66442
691.75,31.51851,-3.2509,0.2682,0.66393
692.35,31.5383,-3.2509,0.26902,0.66344
692.95,31.5581,-3.25115,0.26828,0.66295
693.55,31.578,-3.25123,0.26855,0.66246
694.15,31.5978,-3.25123,0.26749,0.66197
694.75,31.61765,-3.25124,0.26619,0.66148
695.35,31.63755,-3.25237,0.26659,0.66099
695.95,31.65747,-3.25255,0.26661,0.6605
696.15,31.66395,-3.25255,0.26698,0.66034