File: 01_Data/Polyester_Microfiber_Sheet/STA/N2/30K_min/Polyester_Microfiber_Sheet_STA_N2_30KData_220526_R1.csv
##Temp./Â°C,Time/min,Mass loss(subtr.2)/mg,DSC(subtr.2)/(mW/mg),Sensit./(uV/mW)
48.586,10.00667,-0.00857,-0.00126359,1.054
49.186,10.53455,-0.008263029,0.03189389,1.05388
49.786,10.6536,-0.008468319,0.05951844,1.05375
50.386,10.73778,-0.00942892,0.08400074,1.05363
50.986,10.80671,-0.009880135,0.11054,1.05351
51.586,10.8664,-0.009665645,0.13012,1.05338
52.186,10.91986,-0.007247929,0.1535,1.05326
52.786,10.96826,-0.00834897,0.17097,1.05313
53.386,11.01285,-0.007484873,0.18968,1.05301
53.986,11.0547,-0.008575056,0.2078,1.05288
54.586,11.09412,-0.009189225,0.2254,1.05275
55.186,11.13195,-0.008983998,0.2408,1.05263
55.786,11.1681,-0.009335735,0.25538,1.0525
56.386,11.20164,-0.00872084,0.27045,1.05237
56.986,11.23504,-0.00914615,0.28345,1.05224
57.586,11.26791,-0.008839185,0.29568,1.05211
58.186,11.29936,-0.007724221,0.30986,1.05197
58.786,11.3302,-0.009113926,0.32336,1.05184
59.386,11.35984,-0.009021835,0.33624,1.05171
59.986,11.3887,-0.00804138,0.34648,1.05158
60.586,11.41662,-0.00851479,0.35793,1.05144
61.186,11.4445,-0.009120045,0.36841,1.05131
61.786,11.47257,-0.008610776,0.37908,1.05117
62.386,11.5001,-0.008690857,0.38866,1.05104
62.986,11.5268,-0.0088931,0.39616,1.0509
63.586,11.55298,-0.008568663,0.40887,1.05076
64.186,11.57872,-0.009797099,0.41583,1.05062
64.786,11.60409,-0.01139075,0.42898,1.05049
65.386,11.62921,-0.01126962,0.43535,1.05035
65.986,11.6541,-0.01025552,0.44303,1.05021
66.586,11.67896,-0.00861584,0.45272,1.05007
67.186,11.70343,-0.007968982,0.46066,1.04993
67.786,11.72762,-0.008597812,0.46864,1.04978
68.386,11.75158,-0.009271887,0.47775,1.04964
68.986,11.775,-0.009748348,0.48545,1.0495
69.586,11.7983,-0.00979963,0.49174,1.04935
70.186,11.82175,-0.009480269,0.50266,1.04921
70.786,11.8454,-0.009612652,0.51028,1.04906
71.386,11.86885,-0.009924861,0.51871,1.04892
71.986,11.89177,-0.01007636,0.52459,1.04877
72.586,11.9147,-0.01091463,0.53306,1.04863
73.186,11.93737,-0.01144603,0.5415,1.04848
73.786,11.95995,-0.01066796,0.5479,1.04833
74.386,11.9824,-0.00864783,0.5545,1.04818
74.986,12.00483,-0.008812412,0.56198,1.04803
75.586,12.0271,-0.008947913,0.56804,1.04788
76.186,12.0492,-0.008432412,0.57109,1.04773
76.786,12.07125,-0.007975184,0.57702,1.04758
77.386,12.09319,-0.008907395,0.58142,1.04743
77.986,12.11515,-0.008834492,0.57985,1.04727
78.586,12.13697,-0.00801857,0.58154,1.04712
79.186,12.15848,-0.008907665,0.58179,1.04697
79.786,12.18009,-0.00791377,0.57887,1.04681
80.386,12.20171,-0.008050108,0.57817,1.04666
80.986,12.22343,-0.00919101,0.57604,1.0465
81.586,12.24504,-0.00959422,0.57245,1.04634
82.186,12.26635,-0.009326546,0.57036,1.04619
82.786,12.2876,-0.01012763,0.56661,1.04603
83.386,12.3088,-0.009933343,0.5652,1.04587
83.986,12.33,-0.01116353,0.56095,1.04571
84.586,12.35112,-0.01020411,0.55945,1.04555
85.186,12.37215,-0.01093743,0.55857,1.04539
85.786,12.39308,-0.00943746,0.55505,1.04523
86.386,12.41412,-0.01020948,0.55239,1.04507
86.986,12.43505,-0.00977621,0.5542,1.04491
87.586,12.4559,-0.01039614,0.55041,1.04474
88.186,12.47674,-0.009692203,0.55087,1.04458
88.786,12.49747,-0.00850153,0.5504,1.04442
89.386,12.51807,-0.009619669,0.5469,1.04425
89.986,12.53872,-0.008231481,0.54484,1.04409
90.586,12.55936,-0.009516421,0.54383,1.04392
91.186,12.57996,-0.009550635,0.5454,1.04375
91.786,12.60031,-0.008937274,0.54383,1.04359
92.386,12.62083,-0.009674128,0.54171,1.04342
92.986,12.64129,-0.01011997,0.53996,1.04325
93.586,12.6618,-0.0108696,0.5388,1.04308
94.186,12.6821,-0.009740867,0.53871,1.04291
94.786,12.7026,-0.01100978,0.53891,1.04274
95.386,12.72287,-0.01090706,0.54042,1.04257
95.986,12.7432,-0.01029352,0.53682,1.0424
96.586,12.7636,-0.01097066,0.5375,1.04223
97.186,12.78384,-0.01026674,0.53836,1.04205
97.786,12.80424,-0.009612855,0.53887,1.04188
98.386,12.82446,-0.01101474,0.53795,1.04171
98.986,12.84477,-0.01096612,0.54055,1.04153
99.586,12.8649,-0.009780067,0.54289,1.04136
100.186,12.88508,-0.009668289,0.54431,1.04118
100.786,12.90522,-0.009670029,0.54494,1.041
101.386,12.92527,-0.009670015,0.54651,1.04083
101.986,12.94539,-0.009669196,0.54815,1.04065
102.586,12.96552,-0.00970903,0.55192,1.04047
103.186,12.9857,-0.008300017,0.55233,1.04029
103.786,13.00581,-0.009682676,0.55525,1.04011
104.386,13.02594,-0.009670297,0.55569,1.03993
104.986,13.04584,-0.00964047,0.55911,1.03975
105.586,13.06583,-0.01098939,0.56121,1.03957
106.186,13.08591,-0.01005807,0.56445,1.03939
106.786,13.1061,-0.009660785,0.56797,1.0392
107.386,13.12638,-0.009659909,0.57102,1.03902
107.986,13.14645,-0.009663362,0.57452,1.03884
108.586,13.16644,-0.008356685,0.57844,1.03865
109.186,13.1864,-0.00965686,0.57982,1.03847
109.786,13.2064,-0.009673832,0.58561,1.03828
110.386,13.2265,-0.008352435,0.58646,1.03809
110.986,13.2466,-0.00834996,0.58862,1.03791
111.586,13.26666,-0.00835004,0.59257,1.03772
112.186,13.2867,-0.009342836,0.59543,1.03753
112.786,13.3064,-0.00966969,0.60023,1.03734
113.386,13.3261,-0.0096699,0.60515,1.03715
113.986,13.34593,-0.00967741,0.60739,1.03696
114.586,13.3659,-0.01094973,0.60947,1.03677
115.186,13.3861,-0.01099859,0.61291,1.03658
115.786,13.4063,-0.0096769,0.61749,1.03639
116.386,13.4263,-0.009669851,0.62311,1.0362
116.986,13.44615,-0.009670005,0.62652,1.036
117.586,13.46606,-0.00966988,0.62693,1.03581
118.186,13.48585,-0.0096779,0.63187,1.03561
118.786,13.50571,-0.01092474,0.63404,1.03542
119.386,13.5255,-0.01098053,0.63911,1.03522
119.986,13.54539,-0.0110203,0.64286,1.03503
120.586,13.56525,-0.009638367,0.64431,1.03483
121.186,13.58508,-0.00966047,0.64765,1.03463
121.786,13.60493,-0.00966,0.65089,1.03444
122.386,13.62474,-0.00965955,0.65534,1.03424
122.986,13.64451,-0.009684122,0.65977,1.03404
123.586,13.6643,-0.009175661,0.66089,1.03384
124.186,13.684,-0.009664882,0.66554,1.03364
124.786,13.7037,-0.009670369,0.6711,1.03344
125.386,13.7234,-0.009657014,0.67396,1.03324
125.986,13.7431,-0.008647657,0.67428,1.03303
126.586,13.7626,-0.008928893,0.6785,1.03283
127.186,13.7822,-0.00966505,0.68281,1.03263
127.786,13.8018,-0.009670091,0.68425,1.03242
128.386,13.8214,-0.009669998,0.68969,1.03222
128.986,13.841,-0.00967,0.69327,1.03201
129.586,13.8605,-0.00966995,0.69556,1.03181
130.186,13.88006,-0.009670271,0.69919,1.0316
130.786,13.8996,-0.00872313,0.70282,1.0314
131.386,13.9191,-0.009622059,0.70572,1.03119
131.986,13.93856,-0.009671537,0.70977,1.03098
132.586,13.95798,-0.009669957,0.71475,1.03077
133.186,13.97746,-0.009670001,0.71586,1.03056
133.786,13.9969,-0.009669991,0.72029,1.03035
134.386,14.01635,-0.00967038,0.7236,1.03014
134.986,14.0357,-0.009653517,0.72701,1.02993
135.586,14.05504,-0.01028872,0.73115,1.02972
136.186,14.07436,-0.009664397,0.73565,1.02951
136.786,14.0937,-0.009659961,0.74123,1.02929
137.386,14.11302,-0.009659999,0.74241,1.02908
137.986,14.13238,-0.009659999,0.74409,1.02887
138.586,14.1517,-0.009660043,0.74853,1.02865
139.186,14.17087,-0.009657467,0.75114,1.02844
139.786,14.19019,-0.009836052,0.75698,1.02822
140.386,14.2094,-0.009992288,0.75896,1.02801
140.986,14.2286,-0.009999672,0.76155,1.02779
141.586,14.248,-0.01076021,0.76577,1.02757
142.186,14.2672,-0.01098048,0.76851,1.02735
142.786,14.2864,-0.01098001,0.77331,1.02714
143.386,14.3055,-0.01098,0.77753,1.02692
143.986,14.3246,-0.01097966,0.77761,1.0267
144.586,14.3437,-0.01099786,0.77945,1.02648
145.186,14.3629,-0.009800863,0.78089,1.02626
145.786,14.382,-0.009668659,0.78444,1.02603
146.386,14.4011,-0.009670019,0.78902,1.02581
146.986,14.42015,-0.00967,0.79083,1.02559
147.586,14.4392,-0.009670049,0.79385,1.02537
148.186,14.4583,-0.009665916,0.79664,1.02514
148.786,14.4773,-0.01003722,0.79942,1.02492
149.386,14.4963,-0.01065573,0.80257,1.02469
149.986,14.5154,-0.01066008,0.80362,1.02447
150.586,14.5344,-0.01066,0.80627,1.02424
151.186,14.5534,-0.01066,0.80766,1.02401
151.786,14.57231,-0.01065987,0.81184,1.02379
152.386,14.59111,-0.01066943,0.81281,1.02356
152.986,14.61006,-0.01102227,0.81604,1.02333
153.586,14.6291,-0.01098933,0.81828,1.0231
154.186,14.64824,-0.01098984,0.82244,1.02287
154.786,14.66735,-0.01099348,0.82291,1.02264
155.386,14.6863,-0.01003273,0.82823,1.02241
155.986,14.7051,-0.01016917,0.82826,1.02218
156.586,14.724,-0.01065643,0.83278,1.02195
157.186,14.74288,-0.01066009,0.83601,1.02172
157.786,14.7617,-0.01066,0.83805,1.02148
158.386,14.7806,-0.01066,0.8397,1.02125
158.986,14.7995,-0.01066,0.83982,1.02102
159.586,14.8184,-0.01066,0.84248,1.02078
160.186,14.8373,-0.01066,0.84731,1.02055
160.786,14.85617,-0.01066,0.84614,1.02031
161.386,14.87485,-0.01066,0.84803,1.02008
161.986,14.89365,-0.01066,0.85092,1.01984
162.586,14.9124,-0.01066042,0.85354,1.0196
163.186,14.93121,-0.01062582,0.85607,1.01936
163.786,14.9501,-0.0109714,0.859,1.01912
164.386,14.96892,-0.01098018,0.86026,1.01889
164.986,14.98771,-0.01098001,0.86344,1.01865
165.586,15.00654,-0.01098004,0.86568,1.01841
166.186,15.0253,-0.01096494,0.86736,1.01817
166.786,15.0441,-0.01222531,0.87185,1.01792
167.386,15.0628,-0.01230135,0.87288,1.01768
167.986,15.0816,-0.01229998,0.87415,1.01744
168.586,15.1003,-0.0123,0.87683,1.0172
169.186,15.119,-0.0123,0.87844,1.01695
169.786,15.13763,-0.0123,0.87949,1.01671
170.386,15.1562,-0.0123,0.88321,1.01646
170.986,15.17491,-0.0123,0.88516,1.01622
171.586,15.19365,-0.0123,0.88839,1.01597
172.186,15.21248,-0.0123,0.89025,1.01573
172.786,15.23129,-0.0123,0.89161,1.01548
173.386,15.25,-0.0123,0.89502,1.01523
173.986,15.26869,-0.0123,0.89559,1.01499
174.586,15.28731,-0.0123,0.90108,1.01474
175.186,15.30599,-0.0123,0.90188,1.01449
175.786,15.32461,-0.0123,0.90522,1.01424
176.386,15.3432,-0.0123,0.90893,1.01399
176.986,15.36165,-0.01229999,0.9102,1.01374
177.586,15.3801,-0.01230003,0.9118,1.01349
178.186,15.3987,-0.01231542,0.91271,1.01323
178.786,15.41719,-0.0110638,0.9145,1.01298
179.386,15.4359,-0.01097585,0.91623,1.01273
179.986,15.45442,-0.01104347,0.91698,1.01248
180.586,15.47291,-0.01230563,0.92074,1.01222
181.186,15.49146,-0.01229944,0.92283,1.01197
181.786,15.51,-0.01230002,0.92497,1.01171
182.386,15.5285,-0.0123,0.92524,1.01146
182.986,15.54698,-0.0123,0.92912,1.0112
183.586,15.5654,-0.0123,0.929,1.01094
184.186,15.5839,-0.0123,0.93522,1.01069
184.786,15.6023,-0.0123,0.9367,1.01043
185.386,15.62079,-0.0123,0.93832,1.01017
185.986,15.63931,-0.0123,0.94188,1.00991
186.586,15.65771,-0.01230001,0.94201,1.00965
187.186,15.67605,-0.01229969,0.94579,1.00939
187.786,15.6944,-0.01230636,0.94786,1.00913
188.386,15.71275,-0.01136828,0.95098,1.00887
188.986,15.73114,-0.01215159,0.95125,1.00861
189.586,15.74957,-0.01230047,0.95283,1.00835
190.186,15.7678,-0.0123663,0.95475,1.00809
190.786,15.7861,-0.01362743,0.95911,1.00782
191.386,15.8044,-0.01361953,0.96181,1.00756
191.986,15.8228,-0.01361144,0.96379,1.0073
192.586,15.84121,-0.01328039,0.96707,1.00703
193.186,15.8596,-0.01356182,0.96578,1.00677
193.786,15.8779,-0.01427148,0.96802,1.0065
194.386,15.89609,-0.01428025,0.96919,1.00623
194.986,15.91439,-0.01427997,0.9715,1.00597
195.586,15.9327,-0.01427951,0.97342,1.0057
196.186,15.9509,-0.01433212,0.97531,1.00543
196.786,15.96921,-0.01290744,0.97872,1.00516
197.386,15.98744,-0.01296056,0.98162,1.00489
197.986,16.00566,-0.01296002,0.98509,1.00463
198.586,16.02403,-0.0129599,0.98443,1.00436
199.186,16.04226,-0.0129635,0.98891,1.00408
199.786,16.0606,-0.01334128,0.99165,1.00381
200.386,16.0789,-0.01428617,0.99249,1.00354
200.986,16.09708,-0.01427969,0.99445,1.00327
201.586,16.11542,-0.01428001,0.99916,1.003
202.186,16.13372,-0.01428,1.00017,1.00272
202.786,16.152,-0.01428,1.00221,1.00245
203.386,16.1703,-0.01428,1.00397,1.00218
203.986,16.18843,-0.01428,1.00612,1.0019
204.586,16.2066,-0.01428,1.0092,1.00163
205.186,16.2248,-0.01428,1.0114,1.00135
205.786,16.24298,-0.01428006,1.01502,1.00108
206.386,16.26124,-0.01427865,1.01718,1.0008
206.986,16.2795,-0.014261,1.01866,1.00052
207.586,16.2978,-0.01562393,1.02049,1.00024
208.186,16.31602,-0.01558902,1.02235,0.99997
208.786,16.3342,-0.0155901,1.02721,0.99969
209.386,16.35239,-0.01559319,1.03156,0.99941
209.986,16.37058,-0.01519781,1.03221,0.99913
210.586,16.3888,-0.01493514,1.03502,0.99885
211.186,16.40707,-0.01493965,1.03832,0.99857
211.786,16.42527,-0.01489697,1.04182,0.99829
212.386,16.44344,-0.01630736,1.04392,0.998
212.986,16.46164,-0.01625911,1.04513,0.99772
213.586,16.47981,-0.01626,1.04735,0.99744
214.186,16.49801,-0.01626,1.05235,0.99716
214.786,16.51625,-0.01626012,1.05714,0.99687
215.386,16.53445,-0.01625773,1.05992,0.99659
215.986,16.55258,-0.01597719,1.06125,0.9963
216.586,16.57076,-0.01560535,1.06521,0.99602
217.186,16.5889,-0.01559987,1.06767,0.99573
217.786,16.60706,-0.0156,1.06947,0.99544
218.386,16.62529,-0.0156,1.07466,0.99516
218.986,16.64343,-0.0156,1.0767,0.99487
219.586,16.66164,-0.0156,1.08003,0.99458
220.186,16.67982,-0.0156,1.08208,0.99429
220.786,16.69795,-0.0156,1.08457,0.99401
221.386,16.71612,-0.0156,1.0881,0.99372
221.986,16.73425,-0.0156,1.09173,0.99343
222.586,16.7524,-0.01559999,1.09455,0.99314
223.186,16.77052,-0.01560037,1.09852,0.99284
223.786,16.78867,-0.01558838,1.10297,0.99255
224.386,16.80678,-0.01658923,1.10715,0.99226
224.986,16.82488,-0.01690722,1.11078,0.99197
225.586,16.84304,-0.01691007,1.11575,0.99168
226.186,16.86114,-0.01691045,1.11789,0.99138
226.786,16.87927,-0.01692016,1.12316,0.99109
227.386,16.8975,-0.01567258,1.1265,0.99079
227.986,16.9156,-0.01559864,1.13271,0.9905
228.586,16.9338,-0.01560001,1.13628,0.9902
229.186,16.952,-0.01560031,1.14191,0.98991
229.786,16.97009,-0.01558161,1.14908,0.98961
230.386,16.98825,-0.01670003,1.15368,0.98932
230.986,17.00636,-0.0169096,1.15958,0.98902
231.586,17.02448,-0.01691007,1.16447,0.98872
232.186,17.04261,-0.01691,1.16911,0.98842
232.786,17.06073,-0.01690997,1.17662,0.98812
233.386,17.07883,-0.01690861,1.18382,0.98782
233.986,17.097,-0.01705829,1.19297,0.98752
234.586,17.1152,-0.01756059,1.20327,0.98722
235.186,17.13334,-0.01757018,1.21124,0.98692
235.786,17.15146,-0.01821929,1.22134,0.98662
236.386,17.16959,-0.01823037,1.22926,0.98632
236.986,17.1876,-0.01822981,1.24113,0.98602
237.586,17.20565,-0.01822352,1.25136,0.98571
238.186,17.2238,-0.01786969,1.26215,0.98541
238.786,17.24184,-0.0179,1.27345,0.98511
239.386,17.25996,-0.01789942,1.28782,0.9848
239.986,17.27804,-0.01696581,1.30005,0.9845
240.586,17.29599,-0.0169188,1.31406,0.98419
241.186,17.31413,-0.01692001,1.33035,0.98389
241.786,17.33223,-0.01691981,1.3474,0.98358
242.386,17.3504,-0.0169339,1.36588,0.98328
242.986,17.3686,-0.0178139,1.38614,0.98297
243.586,17.3868,-0.01823038,1.40733,0.98266
244.186,17.40492,-0.01824531,1.43001,0.98235
244.786,17.42312,-0.01910076,1.45567,0.98205
245.386,17.44134,-0.01921096,1.48367,0.98174
245.986,17.4594,-0.01921001,1.51311,0.98143
246.586,17.47758,-0.01921,1.54558,0.98112
247.186,17.49569,-0.01921,1.58211,0.98081
247.786,17.5138,-0.01921,1.62239,0.9805
248.386,17.5319,-0.01921,1.66709,0.98018
248.986,17.55001,-0.01921,1.71876,0.97987
249.586,17.56812,-0.01921,1.77216,0.97956
250.186,17.58626,-0.01920997,1.8367,0.97925
250.786,17.60448,-0.01921501,1.90606,0.97894
251.386,17.6227,-0.01980384,1.98406,0.97862
251.986,17.64091,-0.0205268,2.06774,0.97831
252.586,17.65912,-0.02052991,2.15816,0.97799
253.186,17.6773,-0.02053003,2.25794,0.97768
253.786,17.6954,-0.02052913,2.36181,0.97736
254.386,17.71368,-0.0205363,2.47078,0.97705
254.986,17.73183,-0.01983843,2.5836,0.97673
255.586,17.75,-0.01987127,2.69021,0.97641
256.186,17.7683,-0.01986998,2.79502,0.9761
256.786,17.78652,-0.01987,2.88179,0.97578
257.386,17.80484,-0.01987,2.95383,0.97546
257.986,17.82317,-0.01986997,3.00273,0.97514
258.586,17.84137,-0.01987075,3.02695,0.97482
259.186,17.85959,-0.01987851,3.02217,0.9745
259.786,17.87781,-0.01919275,2.98724,0.97418
260.386,17.896,-0.0192105,2.92524,0.97386
260.986,17.9143,-0.01920999,2.83576,0.97354
261.586,17.9326,-0.01921,2.73076,0.97322
262.186,17.95084,-0.01921,2.61693,0.9729
262.786,17.96901,-0.01921,2.49973,0.97257
263.386,17.98714,-0.01921,2.38692,0.97225
263.986,18.00516,-0.01921,2.27849,0.97193
264.586,18.0232,-0.01920998,2.17603,0.9716
265.186,18.04127,-0.0192105,2.08436,0.97128
265.786,18.05933,-0.01921935,1.99888,0.97096
266.386,18.07741,-0.01992474,1.91941,0.97063
266.986,18.0954,-0.01987459,1.84592,0.9703
267.586,18.11337,-0.02020126,1.78382,0.96998
268.186,18.13139,-0.02020148,1.7225,0.96965
268.786,18.14937,-0.02019995,1.66619,0.96933
269.386,18.1673,-0.0202,1.62055,0.969
269.986,18.18524,-0.02019977,1.57606,0.96867
270.586,18.20315,-0.0202126,1.538,0.96834
271.186,18.22104,-0.02098942,1.50286,0.96801
271.786,18.239,-0.02151599,1.47236,0.96768
272.386,18.257,-0.02152023,1.44514,0.96735
272.986,18.2749,-0.02152,1.41984,0.96702
273.586,18.2929,-0.02152,1.39643,0.96669
274.186,18.31086,-0.02152,1.37476,0.96636
274.786,18.3288,-0.02152,1.35753,0.96603
275.386,18.3468,-0.02152,1.34056,0.9657
275.986,18.3647,-0.02152,1.32736,0.96537
276.586,18.38269,-0.02152,1.31264,0.96503
277.186,18.40069,-0.02152,1.30442,0.9647
277.786,18.41861,-0.02152,1.29251,0.96437
278.386,18.4366,-0.02152,1.28344,0.96403
278.986,18.45465,-0.0215199,1.27743,0.9637
279.586,18.47251,-0.02151782,1.26862,0.96336
280.186,18.49057,-0.02184642,1.26121,0.96303
280.786,18.5086,-0.02282663,1.25784,0.96269
281.386,18.52661,-0.02283999,1.25384,0.96236
281.986,18.54476,-0.02284001,1.24808,0.96202
282.586,18.56273,-0.02284002,1.24502,0.96168
283.186,18.5807,-0.02283981,1.24072,0.96135
283.786,18.5987,-0.02282884,1.23839,0.96101
284.386,18.61666,-0.02178376,1.23617,0.96067
284.986,18.63466,-0.02151703,1.23342,0.96033
285.586,18.65267,-0.0215199,1.23151,0.95999
286.186,18.67067,-0.02152505,1.23117,0.95965
286.786,18.68872,-0.02204596,1.22857,0.95931
287.386,18.7068,-0.02283957,1.22849,0.95897
287.986,18.72484,-0.02283978,1.22877,0.95863
288.586,18.7429,-0.02284117,1.22644,0.95829
289.186,18.76095,-0.02281996,1.22502,0.95795
289.786,18.77901,-0.02154068,1.22366,0.9576
290.386,18.7971,-0.02151884,1.22484,0.95726
290.986,18.8151,-0.02152002,1.22409,0.95692
291.586,18.83319,-0.02152,1.2242,0.95657
292.186,18.8512,-0.02152008,1.22436,0.95623
292.786,18.86928,-0.02151656,1.22465,0.95589
293.386,18.8873,-0.02155959,1.22402,0.95554
293.986,18.90533,-0.02252214,1.22549,0.9552
294.586,18.92336,-0.02303898,1.22508,0.95485
295.186,18.94144,-0.02317159,1.22438,0.9545
295.786,18.95955,-0.02317002,1.22339,0.95416
296.386,18.97756,-0.02317,1.22203,0.95381
296.986,18.99559,-0.02317,1.22293,0.95346
297.586,19.0136,-0.02317001,1.22225,0.95312
298.186,19.0316,-0.02317242,1.22297,0.95277
298.786,19.04958,-0.02302958,1.224,0.95242
299.386,19.06766,-0.02283829,1.22367,0.95207
299.986,19.08576,-0.02283995,1.22235,0.95172
300.586,19.10383,-0.02284005,1.22072,0.95137
301.186,19.12201,-0.0228385,1.22094,0.95102
301.786,19.14012,-0.02284361,1.22182,0.95067
302.386,19.1582,-0.02297867,1.22301,0.95032
302.986,19.1763,-0.02219623,1.22196,0.94997
303.586,19.1944,-0.02217938,1.22199,0.94961
304.186,19.2124,-0.02216824,1.22225,0.94926
304.786,19.2305,-0.02341742,1.21973,0.94891
305.386,19.24863,-0.02350131,1.22102,0.94856
305.986,19.26674,-0.0235,1.22156,0.9482
306.586,19.2849,-0.0235,1.2213,0.94785
307.186,19.30301,-0.0235,1.22042,0.94749
307.786,19.32118,-0.02350003,1.22052,0.94714
308.386,19.33933,-0.02350059,1.22157,0.94678
308.986,19.35749,-0.02343861,1.22255,0.94643
309.586,19.37559,-0.0245063,1.22206,0.94607
310.186,19.3935,-0.02448995,1.22295,0.94572
310.786,19.41155,-0.02448999,1.22436,0.94536
311.386,19.42967,-0.02449,1.22263,0.945
311.986,19.44781,-0.02449,1.22266,0.94464
312.586,19.4661,-0.02449,1.22224,0.94429
313.186,19.48422,-0.02448999,1.22207,0.94393
313.786,19.50228,-0.02449024,1.22234,0.94357
314.386,19.52037,-0.02448829,1.22361,0.94321
314.986,19.53855,-0.02533434,1.22351,0.94285
315.586,19.5567,-0.02579533,1.2235,0.94249
316.186,19.57487,-0.0258,1.22443,0.94213
316.786,19.59296,-0.02579923,1.22449,0.94177
317.386,19.6111,-0.02602623,1.22366,0.94141
317.986,19.6292,-0.02613254,1.22328,0.94105
318.586,19.64742,-0.02612997,1.22397,0.94068
319.186,19.6657,-0.02613,1.22338,0.94032
319.786,19.68383,-0.02613,1.22331,0.93996
320.386,19.70194,-0.02613,1.22404,0.93959
320.986,19.72007,-0.02613,1.22411,0.93923
321.586,19.7382,-0.02613,1.22315,0.93887
322.186,19.7563,-0.02613,1.22357,0.9385
322.786,19.77449,-0.02613,1.22369,0.93814
323.386,19.79265,-0.02613,1.22468,0.93777
323.986,19.8108,-0.02613,1.22475,0.93741
324.586,19.82901,-0.02613,1.2268,0.93704
325.186,19.84721,-0.02613,1.22618,0.93667
325.786,19.86541,-0.02613,1.22566,0.93631
326.386,19.88365,-0.02612974,1.22559,0.93594
326.986,19.9019,-0.0261379,1.22511,0.93557
327.586,19.92008,-0.02680042,1.22613,0.9352
328.186,19.93834,-0.02744311,1.22566,0.93484
328.786,19.95648,-0.02745026,1.22673,0.93447
329.386,19.97465,-0.02745,1.22618,0.9341
329.986,19.99284,-0.02745,1.22566,0.93373
330.586,20.01097,-0.02745,1.22572,0.93336
331.186,20.02919,-0.02745,1.22597,0.93299
331.786,20.04731,-0.02745,1.22632,0.93262
332.386,20.06553,-0.02745,1.22754,0.93225
332.986,20.08372,-0.02745,1.22787,0.93188
333.586,20.102,-0.02744994,1.22907,0.9315
334.186,20.12027,-0.02745035,1.22785,0.93113
334.786,20.13845,-0.02766082,1.22798,0.93076
335.386,20.1567,-0.02878784,1.22954,0.93039
335.986,20.1749,-0.02876968,1.23014,0.93001
336.586,20.19304,-0.02877,1.23,0.92964
337.186,20.21125,-0.02877,1.22885,0.92927
337.786,20.22948,-0.02877,1.22953,0.92889
338.386,20.24771,-0.02877,1.23049,0.92852
338.986,20.26596,-0.02877,1.23095,0.92814
339.586,20.2842,-0.02877,1.23228,0.92777
340.186,20.3024,-0.02877,1.23293,0.92739
340.786,20.32066,-0.02877,1.23155,0.92701
341.386,20.33894,-0.02877,1.23161,0.92664
341.986,20.35719,-0.02877,1.23331,0.92626
342.586,20.37546,-0.02877,1.23252,0.92588
343.186,20.39369,-0.02876997,1.23306,0.9255
343.786,20.41197,-0.02876691,1.23441,0.92513
344.386,20.43025,-0.02906093,1.23425,0.92475
344.986,20.44856,-0.03007691,1.23568,0.92437
345.586,20.46689,-0.03009005,1.23444,0.92399
346.186,20.48501,-0.03009001,1.2355,0.92361
346.786,20.50316,-0.03009,1.2349,0.92323
347.386,20.52141,-0.03009,1.23501,0.92285
347.986,20.53965,-0.03009,1.23524,0.92247
348.586,20.558,-0.03009002,1.23725,0.92209
349.186,20.5764,-0.03008886,1.2379,0.92171
349.786,20.5947,-0.0301197,1.23727,0.92133
350.386,20.61303,-0.03139448,1.23728,0.92094
350.986,20.63136,-0.0314008,1.23794,0.92056
351.586,20.64965,-0.03139997,1.2382,0.92018
352.186,20.66797,-0.0314,1.23955,0.91979
352.786,20.68606,-0.0314,1.23834,0.91941
353.386,20.7042,-0.0314,1.237,0.91903
353.986,20.72251,-0.0314,1.23855,0.91864
354.586,20.74085,-0.0314,1.2386,0.91826
355.186,20.75939,-0.0314,1.23969,0.91787
355.786,20.77792,-0.0314,1.23984,0.91749
356.386,20.79628,-0.03140003,1.24038,0.9171
356.986,20.81459,-0.03139933,1.24059,0.91672
357.586,20.8329,-0.03139182,1.23992,0.91633
358.186,20.85126,-0.03206032,1.24171,0.91594
358.786,20.86959,-0.03310992,1.24109,0.91556
359.386,20.88795,-0.03304836,1.24126,0.91517
359.986,20.9061,-0.03303925,1.24147,0.91478
360.586,20.92445,-0.03372742,1.24165,0.91439
361.186,20.9428,-0.0337095,1.24385,0.914
361.786,20.9612,-0.03370998,1.24451,0.91361
362.386,20.97971,-0.03370975,1.24379,0.91322
362.986,20.99804,-0.03376112,1.24533,0.91284
363.586,21.01641,-0.03229279,1.24639,0.91245
364.186,21.03475,-0.03375401,1.24795,0.91205
364.786,21.05307,-0.03371025,1.249,0.91166
365.386,21.07147,-0.03370996,1.25054,0.91127
365.986,21.08983,-0.03370998,1.25007,0.91088
366.586,21.10809,-0.03371042,1.25217,0.91049
367.186,21.12637,-0.03371338,1.25368,0.9101
367.786,21.14469,-0.03489013,1.25447,0.90971
368.386,21.1631,-0.03502353,1.25608,0.90931
368.986,21.18159,-0.03501989,1.25492,0.90892
369.586,21.20014,-0.03502017,1.25567,0.90853
370.186,21.21865,-0.03524478,1.25948,0.90813
370.786,21.23704,-0.0363562,1.26144,0.90774
371.386,21.2555,-0.03633964,1.26194,0.90734
371.986,21.27391,-0.03634,1.26508,0.90695
372.586,21.29235,-0.03634,1.26563,0.90655
373.186,21.31077,-0.03634,1.26592,0.90616
373.786,21.3291,-0.03633997,1.26817,0.90576
374.386,21.3475,-0.03634045,1.26953,0.90537
374.986,21.36587,-0.03635484,1.27151,0.90497
375.586,21.38429,-0.03564266,1.27307,0.90457
376.186,21.40278,-0.03686384,1.27357,0.90418
376.786,21.42119,-0.03700136,1.27467,0.90378
377.386,21.43968,-0.03700368,1.27642,0.90338
377.986,21.4581,-0.03819423,1.27811,0.90298
378.586,21.4766,-0.03832327,1.27899,0.90258
379.186,21.4951,-0.03832715,1.28229,0.90219
379.786,21.51349,-0.039,1.28492,0.90179
380.386,21.53196,-0.03963443,1.28784,0.90139
380.986,21.55044,-0.03963996,1.2889,0.90099
381.586,21.56885,-0.03964917,1.29128,0.90059
382.186,21.58729,-0.04037747,1.29505,0.90019
382.786,21.60575,-0.04094648,1.29782,0.89979
383.386,21.62422,-0.04095022,1.29883,0.89939
383.986,21.6427,-0.04094892,1.3029,0.89898
384.586,21.6612,-0.04097557,1.30909,0.89858
385.186,21.67964,-0.04226352,1.31053,0.89818
385.786,21.69811,-0.04227067,1.31287,0.89778
386.386,21.7166,-0.04227471,1.31707,0.89738
386.986,21.7351,-0.04277091,1.32274,0.89697
387.586,21.75364,-0.04358865,1.3238,0.89657
388.186,21.77208,-0.04357536,1.32749,0.89616
388.786,21.79056,-0.0448277,1.3327,0.89576
389.386,21.8089,-0.04491124,1.33535,0.89536
389.986,21.82723,-0.04491154,1.34012,0.89495
390.586,21.8457,-0.04717291,1.3434,0.89455
391.186,21.86429,-0.0472083,1.34548,0.89414
391.786,21.8829,-0.04742191,1.35056,0.89374
392.386,21.90149,-0.04863086,1.35378,0.89333
392.986,21.91992,-0.04928862,1.36025,0.89292
393.586,21.9384,-0.05004706,1.36419,0.89252
394.186,21.957,-0.05147543,1.36658,0.89211
394.786,21.97565,-0.05170226,1.37339,0.8917
395.386,21.99436,-0.05180444,1.37806,0.8913
395.986,22.01294,-0.05211446,1.38528,0.89089
396.586,22.0315,-0.05337944,1.39096,0.89048
397.186,22.05009,-0.05407417,1.39679,0.89007
397.786,22.06863,-0.05489601,1.40304,0.88966
398.386,22.08716,-0.05684351,1.40948,0.88925
398.986,22.10574,-0.05745027,1.41586,0.88884
399.586,22.12425,-0.05870958,1.422,0.88843
400.186,22.14283,-0.06069494,1.43063,0.88802
400.786,22.16143,-0.06211185,1.43743,0.88761
401.386,22.18,-0.0638996,1.44538,0.8872
401.986,22.1986,-0.06556132,1.45288,0.88679
402.586,22.21721,-0.06665702,1.46,0.88638
403.186,22.2358,-0.06800786,1.46826,0.88597
403.786,22.25433,-0.06988012,1.47518,0.88556
404.386,22.27289,-0.07119706,1.48321,0.88515
404.986,22.29149,-0.07293829,1.48955,0.88473
405.586,22.31012,-0.07497387,1.49759,0.88432
406.186,22.32876,-0.07769499,1.50566,0.88391
406.786,22.34733,-0.07988569,1.51519,0.88349
407.386,22.36595,-0.08234947,1.52122,0.88308
407.986,22.3845,-0.08445731,1.52956,0.88267
408.586,22.40316,-0.08692083,1.53695,0.88225
409.186,22.4219,-0.08885556,1.54659,0.88184
409.786,22.4405,-0.09140919,1.55374,0.88142
410.386,22.45911,-0.09464291,1.56239,0.88101
410.986,22.47774,-0.09813231,1.56899,0.88059
411.586,22.49642,-0.10167,1.57524,0.88018
412.186,22.5151,-0.1046,1.58449,0.87976
412.786,22.53368,-0.10819,1.5894,0.87935
413.386,22.55238,-0.11109,1.59721,0.87893
413.986,22.57101,-0.11569,1.60758,0.87851
414.586,22.58964,-0.11999,1.61248,0.87809
415.186,22.60837,-0.12471,1.6188,0.87768
415.786,22.62702,-0.12898,1.62865,0.87726
416.386,22.64569,-0.1343,1.6357,0.87684
416.986,22.66439,-0.13874,1.64303,0.87642
417.586,22.68304,-0.14348,1.64757,0.876
418.186,22.70158,-0.14864,1.65123,0.87559
418.786,22.72017,-0.15298,1.65996,0.87517
419.386,22.73873,-0.15866,1.66702,0.87475
419.986,22.75743,-0.16394,1.66889,0.87433
420.586,22.77619,-0.17062,1.67641,0.87391
421.186,22.7949,-0.17797,1.68646,0.87349
421.786,22.81361,-0.18399,1.68376,0.87307
422.386,22.83225,-0.19136,1.65593,0.87264
422.986,22.8509,-0.19783,1.63601,0.87222
423.586,22.86957,-0.2052,1.62595,0.8718
424.186,22.88823,-0.21328,1.61693,0.87138
424.786,22.90695,-0.22025,1.60515,0.87096
425.386,22.92565,-0.22949,1.58799,0.87054
425.986,22.94444,-0.23739,1.58149,0.87011
426.586,22.96317,-0.24614,1.5745,0.86969
427.186,22.98186,-0.25501,1.5686,0.86927
427.786,23.0005,-0.26322,1.55986,0.86884
428.386,23.01916,-0.27418,1.55506,0.86842
428.986,23.03791,-0.28329,1.55327,0.868
429.586,23.05666,-0.29418,1.54753,0.86757
430.186,23.07546,-0.30524,1.54322,0.86715
430.786,23.0942,-0.31508,1.5348,0.86672
431.386,23.11288,-0.3272,1.53235,0.8663
431.986,23.1316,-0.33751,1.52942,0.86587
432.586,23.1504,-0.35022,1.52521,0.86544
433.186,23.1692,-0.36273,1.51607,0.86502
433.786,23.18798,-0.37375,1.51134,0.86459
434.386,23.20673,-0.38802,1.50194,0.86417
434.986,23.22544,-0.39956,1.48905,0.86374
435.586,23.24421,-0.41336,1.47277,0.86331
436.186,23.26282,-0.42629,1.46527,0.86288
436.786,23.2815,-0.43854,1.45971,0.86246
437.386,23.30023,-0.45346,1.44792,0.86203
437.986,23.319,-0.46581,1.43982,0.8616
438.586,23.33782,-0.48137,1.44288,0.86117
439.186,23.35659,-0.49531,1.44391,0.86074
439.786,23.37537,-0.50956,1.44814,0.86032
440.386,23.39411,-0.52645,1.46291,0.85989
440.986,23.41287,-0.54138,1.48011,0.85946
441.586,23.43168,-0.56104,1.50108,0.85903
442.186,23.45051,-0.57862,1.52922,0.8586
442.786,23.46936,-0.59792,1.55338,0.85817
443.386,23.48818,-0.61906,1.58063,0.85774
443.986,23.50702,-0.63784,1.61877,0.8573
444.586,23.5258,-0.66244,1.64071,0.85687
445.186,23.5446,-0.68306,1.6717,0.85644
445.786,23.5635,-0.70778,1.70435,0.85601
446.386,23.58229,-0.73325,1.73957,0.85558
446.986,23.60115,-0.75708,1.7801,0.85515
447.586,23.62,-0.78693,1.82018,0.85471
448.186,23.63884,-0.81161,1.85548,0.85428
448.786,23.65774,-0.84273,1.89133,0.85385
449.386,23.67661,-0.87291,1.92501,0.85342
449.986,23.6955,-0.90328,1.96252,0.85298
450.586,23.71445,-0.93855,1.99167,0.85255
451.186,23.73336,-0.96834,2.02227,0.85211
451.786,23.75229,-1.00644,2.05695,0.85168
452.386,23.77122,-1.03736,2.08999,0.85125
452.986,23.79015,-1.07473,2.11332,0.85081
453.586,23.80904,-1.11285,2.13504,0.85038
454.186,23.82796,-1.14847,2.16381,0.84994
454.786,23.84684,-1.19182,2.18541,0.84951
455.386,23.86576,-1.22682,2.21046,0.84907
455.986,23.88474,-1.27087,2.23191,0.84863
456.586,23.90372,-1.31056,2.24922,0.8482
457.186,23.9227,-1.35253,2.27017,0.84776
457.786,23.94164,-1.39818,2.28763,0.84732
458.386,23.96058,-1.4373,2.30095,0.84689
458.986,23.97952,-1.48637,2.31255,0.84645
459.586,23.99844,-1.52654,2.3247,0.84601
460.186,24.0174,-1.57524,2.33177,0.84558
460.786,24.0364,-1.62064,2.33543,0.84514
461.386,24.0553,-1.66443,2.3354,0.8447
461.986,24.07433,-1.70847,2.33404,0.84426
462.586,24.0932,-1.75869,2.33028,0.84382
463.186,24.1123,-1.81526,2.32346,0.84338
463.786,24.13126,-1.86943,2.31158,0.84294
464.386,24.15019,-1.91687,2.29768,0.8425
464.986,24.1692,-1.9643,2.27927,0.84207
465.586,24.18811,-2.01062,2.25819,0.84163
466.186,24.20711,-2.05724,2.23452,0.84118
466.786,24.22615,-2.10366,2.2081,0.84074
467.386,24.24511,-2.14899,2.17758,0.8403
467.986,24.26408,-2.19564,2.14353,0.83986
468.586,24.28304,-2.23992,2.10558,0.83942
469.186,24.30203,-2.28562,2.06884,0.83898
469.786,24.32104,-2.32688,2.02585,0.83854
470.386,24.34005,-2.36132,1.98127,0.8381
470.986,24.35898,-2.40466,1.93429,0.83766
471.586,24.37789,-2.44036,1.88507,0.83721
472.186,24.39677,-2.47934,1.83525,0.83677
472.786,24.41562,-2.51673,1.78164,0.83633
473.386,24.43446,-2.54911,1.7299,0.83589
473.986,24.45324,-2.58591,1.67277,0.83544
474.586,24.47205,-2.61469,1.61883,0.835
475.186,24.49103,-2.64783,1.56397,0.83455
475.786,24.50998,-2.67626,1.51031,0.83411
476.386,24.52904,-2.7035,1.45369,0.83367
476.986,24.54797,-2.73122,1.40025,0.83322
477.586,24.5669,-2.75309,1.34642,0.83278
478.186,24.58577,-2.77874,1.29047,0.83233
478.786,24.6047,-2.79901,1.2379,0.83189
479.386,24.62357,-2.81997,1.18274,0.83144
479.986,24.64245,-2.83876,1.13321,0.831
480.586,24.66133,-2.85515,1.08392,0.83055
481.186,24.6802,-2.87412,1.03746,0.83011
481.786,24.6992,-2.88817,0.99036,0.82966
482.386,24.71808,-2.90392,0.94507,0.82921
482.986,24.737,-2.91643,0.89866,0.82877
483.586,24.75591,-2.92951,0.85122,0.82832
484.186,24.77485,-2.94398,0.80898,0.82787
484.786,24.7938,-2.95478,0.7667,0.82743
485.386,24.8126,-2.967,0.72885,0.82698
485.986,24.83152,-2.97641,0.69194,0.82653
486.586,24.85041,-2.9863,0.65341,0.82608
487.186,24.86937,-2.99559,0.61346,0.82563
487.786,24.8884,-3.00374,0.58042,0.82519
488.386,24.90735,-3.01272,0.54579,0.82474
488.986,24.9263,-3.01924,0.51515,0.82429
489.586,24.94516,-3.02757,0.48158,0.82384
490.186,24.96412,-3.03465,0.45202,0.82339
490.786,24.9831,-3.04218,0.42312,0.82294
491.386,25.00206,-3.04895,0.39523,0.82249
491.986,25.0211,-3.05433,0.36671,0.82204
492.586,25.04009,-3.06047,0.33959,0.82159
493.186,25.05911,-3.06494,0.31219,0.82114
493.786,25.0781,-3.07065,0.28667,0.82069
494.386,25.09704,-3.07558,0.2639,0.82024
494.986,25.11599,-3.08049,0.23825,0.81979
495.586,25.1349,-3.08498,0.21491,0.81934
496.186,25.15391,-3.0887,0.19551,0.81889
496.786,25.17291,-3.0935,0.17653,0.81843
497.386,25.19199,-3.09733,0.15918,0.81798
497.986,25.21102,-3.10106,0.13801,0.81753
498.586,25.23,-3.10481,0.12196,0.81708
499.186,25.24905,-3.10787,0.10413,0.81663
499.786,25.2681,-3.11155,0.08640355,0.81617
500.386,25.28707,-3.11483,0.07052668,0.81572
500.986,25.3061,-3.11835,0.05767057,0.81527
501.586,25.3251,-3.12169,0.04543775,0.81481
502.186,25.34415,-3.12471,0.0308448,0.81436
502.786,25.36335,-3.12765,0.01958026,0.81391
503.386,25.38254,-3.13003,0.007902279,0.81345
503.986,25.4016,-3.13242,-0.002247046,0.813
504.586,25.4207,-3.1347,-0.0140968,0.81255
505.186,25.43978,-3.13594,-0.02263641,0.81209
505.786,25.45862,-3.13765,-0.03251611,0.81164
506.386,25.4776,-3.13947,-0.04193499,0.81118
506.986,25.49674,-3.14161,-0.04891276,0.81073
507.586,25.51588,-3.14364,-0.05612645,0.81027
508.186,25.5352,-3.14579,-0.06460667,0.80982
508.786,25.55443,-3.14772,-0.07093777,0.80936
509.386,25.57346,-3.14904,-0.07436084,0.8089
509.986,25.5926,-3.151,-0.08285328,0.80845
510.586,25.61166,-3.15276,-0.08633608,0.80799
511.186,25.6308,-3.15469,-0.09024229,0.80754
511.786,25.64996,-3.15631,-0.09512571,0.80708
512.386,25.66903,-3.15712,-0.09958501,0.80662
512.986,25.6881,-3.15828,-0.10665,0.80616
513.586,25.70731,-3.15991,-0.10806,0.80571
514.186,25.72624,-3.15988,-0.11018,0.80525
514.786,25.74541,-3.16124,-0.11307,0.80479
515.386,25.7646,-3.1616,-0.11828,0.80433
515.986,25.78378,-3.1627,-0.12088,0.80388
516.586,25.80315,-3.16436,-0.12454,0.80342
517.186,25.8224,-3.16577,-0.12915,0.80296
517.786,25.8415,-3.16654,-0.13165,0.8025
518.386,25.8607,-3.16759,-0.13432,0.80204
518.986,25.87995,-3.16824,-0.13505,0.80158
519.586,25.89914,-3.16891,-0.13557,0.80113
520.186,25.91837,-3.16973,-0.12576,0.80067
520.786,25.9376,-3.1703,-0.12553,0.80021
521.386,25.95678,-3.1716,-0.12868,0.79975
521.986,25.97605,-3.17199,-0.1329,0.79929
522.586,25.99527,-3.17336,-0.13464,0.79883
523.186,26.0145,-3.17499,-0.13589,0.79837
523.786,26.03376,-3.17496,-0.13671,0.79791
524.386,26.053,-3.17627,-0.14027,0.79745
524.986,26.07224,-3.17623,-0.14139,0.79699
525.586,26.09144,-3.17784,-0.14241,0.79652
526.186,26.11066,-3.17775,-0.14348,0.79606
526.786,26.12996,-3.17917,-0.14649,0.7956
527.386,26.14924,-3.1785,-0.14801,0.79514
527.986,26.1685,-3.17916,-0.14929,0.79468
528.586,26.18776,-3.17909,-0.14863,0.79422
529.186,26.207,-3.18146,-0.14939,0.79375
529.786,26.22625,-3.18175,-0.15278,0.79329
530.386,26.24557,-3.18199,-0.15329,0.79283
530.986,26.26482,-3.18308,-0.15329,0.79237
531.586,26.2841,-3.18307,-0.15399,0.79191
532.186,26.30345,-3.18308,-0.15687,0.79144
532.786,26.3227,-3.18406,-0.15702,0.79098
533.386,26.34202,-3.18439,-0.15669,0.79052
533.986,26.3613,-3.18442,-0.15628,0.79005
534.586,26.3806,-3.18571,-0.15517,0.78959
535.186,26.39991,-3.1857,-0.15793,0.78913
535.786,26.4192,-3.18571,-0.15633,0.78866
536.386,26.4385,-3.18693,-0.15723,0.7882
536.986,26.45788,-3.18702,-0.15933,0.78773
537.586,26.47723,-3.18703,-0.16029,0.78727
538.186,26.49656,-3.18767,-0.16094,0.7868
538.786,26.5159,-3.18833,-0.16276,0.78634
539.386,26.5352,-3.18846,-0.16246,0.78587
539.986,26.5545,-3.19008,-0.16012,0.78541
540.586,26.57387,-3.19097,-0.1628,0.78494
541.186,26.59324,-3.19097,-0.16419,0.78448
541.786,26.6127,-3.19097,-0.16403,0.78401
542.386,26.6321,-3.19184,-0.16536,0.78355
542.986,26.65145,-3.19226,-0.16517,0.78308
543.586,26.6708,-3.19116,-0.1652,0.78262
544.186,26.6902,-3.19204,-0.16747,0.78215
544.786,26.7095,-3.19229,-0.16925,0.78168
545.386,26.72883,-3.19229,-0.16873,0.78122
545.986,26.74819,-3.19229,-0.16833,0.78075
546.586,26.7676,-3.19231,-0.16818,0.78028
547.186,26.78697,-3.19361,-0.16935,0.77982
547.786,26.8063,-3.19361,-0.17016,0.77935
548.386,26.82568,-3.19362,-0.17195,0.77888
548.986,26.845,-3.19482,-0.17177,0.77841
549.586,26.8644,-3.19493,-0.17286,0.77795
550.186,26.88383,-3.19493,-0.17277,0.77748
550.786,26.9032,-3.19517,-0.173,0.77701
551.386,26.92264,-3.19623,-0.17451,0.77654
551.986,26.942,-3.19624,-0.17634,0.77607
552.586,26.9615,-3.19625,-0.17873,0.7756
553.186,26.9809,-3.19701,-0.17929,0.77514
553.786,27.0002,-3.19756,-0.17809,0.77467
554.386,27.01955,-3.19756,-0.17987,0.7742
554.986,27.03885,-3.19756,-0.18051,0.77373
555.586,27.05824,-3.19756,-0.18058,0.77326
556.186,27.0777,-3.19756,-0.17987,0.77279
556.786,27.0972,-3.19754,-0.18035,0.77232
557.386,27.1166,-3.19877,-0.18029,0.77185
557.986,27.136,-3.19888,-0.1821,0.77138
558.586,27.1555,-3.19885,-0.18283,0.77091
559.186,27.1749,-3.20023,-0.18609,0.77044
559.786,27.1943,-3.20019,-0.18488,0.76997
560.386,27.2137,-3.20019,-0.18641,0.7695
560.986,27.23312,-3.20019,-0.18678,0.76903
561.586,27.25256,-3.20075,-0.18718,0.76856
562.186,27.272,-3.2015,-0.18893,0.76809
562.786,27.29147,-3.20152,-0.18781,0.76762
563.386,27.31089,-3.20273,-0.18723,0.76715
563.986,27.33033,-3.20219,-0.18825,0.76668
564.586,27.3498,-3.20215,-0.18928,0.7662
565.186,27.3692,-3.20334,-0.18803,0.76573
565.786,27.3887,-3.20349,-0.18991,0.76526
566.386,27.40813,-3.20349,-0.18877,0.76479
566.986,27.4277,-3.20349,-0.19025,0.76432
567.586,27.4471,-3.20349,-0.19082,0.76384
568.186,27.4666,-3.20349,-0.19142,0.76337
568.786,27.48607,-3.20477,-0.1919,0.7629
569.386,27.50546,-3.2048,-0.19387,0.76243
569.986,27.52492,-3.2048,-0.19479,0.76195
570.586,27.54441,-3.20497,-0.19595,0.76148
571.186,27.5639,-3.20614,-0.1963,0.76101
571.786,27.5834,-3.20678,-0.19542,0.76054
572.386,27.6029,-3.20743,-0.19614,0.76006
572.986,27.62234,-3.20799,-0.19517,0.75959
573.586,27.6418,-3.20874,-0.19745,0.75912
574.186,27.66126,-3.20878,-0.19714,0.75864
574.786,27.6807,-3.21008,-0.19492,0.75817
575.386,27.70018,-3.21007,-0.19738,0.75769
575.986,27.7197,-3.21102,-0.19794,0.75722
576.586,27.7392,-3.21138,-0.20055,0.75675
577.186,27.75868,-3.21138,-0.19867,0.75627
577.786,27.7782,-3.21157,-0.19996,0.7558
578.386,27.7977,-3.21271,-0.20068,0.75532
578.986,27.81717,-3.21268,-0.20076,0.75485
579.586,27.83673,-3.21194,-0.20131,0.75437
580.186,27.8562,-3.21342,-0.20354,0.7539
580.786,27.8756,-3.21337,-0.20178,0.75342
581.386,27.89493,-3.21337,-0.20414,0.75295
581.986,27.9144,-3.21335,-0.20327,0.75247
582.586,27.93413,-3.21472,-0.20322,0.752
583.186,27.95386,-3.21469,-0.2043,0.75152
583.786,27.97356,-3.21469,-0.20188,0.75104
584.386,27.99294,-3.21468,-0.20295,0.75057
584.986,28.0124,-3.21598,-0.20442,0.75009
585.586,28.0318,-3.216,-0.20537,0.74962
586.186,28.05139,-3.21619,-0.20655,0.74914
586.786,28.07109,-3.21733,-0.20723,0.74866
587.386,28.0907,-3.21732,-0.20633,0.74819
587.986,28.11025,-3.21761,-0.20593,0.74771
588.586,28.12975,-3.21863,-0.20883,0.74723
589.186,28.14929,-3.21864,-0.20903,0.74676
589.786,28.1688,-3.21864,-0.21129,0.74628
590.386,28.1884,-3.21864,-0.21024,0.7458
590.986,28.208,-3.21863,-0.21076,0.74533
591.586,28.22761,-3.21971,-0.20996,0.74485
592.186,28.2472,-3.22066,-0.21069,0.74437
592.786,28.2668,-3.22094,-0.2102,0.74389
593.386,28.28635,-3.22224,-0.21038,0.74342
593.986,28.30595,-3.22225,-0.21052,0.74294
594.586,28.32555,-3.22225,-0.21113,0.74246
595.186,28.3451,-3.22225,-0.21078,0.74198
595.786,28.36463,-3.22266,-0.21335,0.7415
596.386,28.3842,-3.22356,-0.21598,0.74103
596.986,28.4038,-3.22357,-0.21381,0.74055
597.586,28.4235,-3.22385,-0.21475,0.74007
598.186,28.443,-3.22487,-0.21712,0.73959
598.786,28.4626,-3.22432,-0.2176,0.73911
599.386,28.48204,-3.22355,-0.21864,0.73863
599.986,28.5016,-3.22495,-0.21815,0.73815
600.586,28.52119,-3.2249,-0.2181,0.73768
601.186,28.5408,-3.22565,-0.21901,0.7372
601.786,28.56039,-3.22657,-0.21906,0.73672
602.386,28.58002,-3.22752,-0.21914,0.73624
602.986,28.5996,-3.22882,-0.22159,0.73576
603.586,28.6193,-3.22884,-0.22236,0.73528
604.186,28.63885,-3.22884,-0.22099,0.7348
604.786,28.6584,-3.22885,-0.22082,0.73432
605.386,28.67806,-3.23001,-0.22343,0.73384
605.986,28.69766,-3.22924,-0.22257,0.73336
606.586,28.7173,-3.22918,-0.22427,0.73288
607.186,28.7369,-3.2293,-0.22479,0.7324
607.786,28.7565,-3.23052,-0.22505,0.73192
608.386,28.7762,-3.2305,-0.22521,0.73144
608.986,28.7958,-3.23106,-0.22493,0.73096
609.586,28.81545,-3.2318,-0.22545,0.73048
610.186,28.8351,-3.23192,-0.22483,0.73
610.786,28.8548,-3.23323,-0.22433,0.72952
611.386,28.8744,-3.23324,-0.22266,0.72903
611.986,28.89402,-3.23324,-0.22365,0.72855
612.586,28.91364,-3.2336,-0.22471,0.72807
613.186,28.93327,-3.23456,-0.22592,0.72759
613.786,28.95295,-3.23456,-0.22458,0.72711
614.386,28.9726,-3.23513,-0.22386,0.72663
614.986,28.99227,-3.23587,-0.22285,0.72615
615.586,29.01196,-3.23587,-0.22446,0.72567
616.186,29.03165,-3.23587,-0.22589,0.72518
616.786,29.05128,-3.23587,-0.22658,0.7247
617.386,29.07092,-3.23585,-0.22672,0.72422
617.986,29.09055,-3.23711,-0.22598,0.72374
618.586,29.1102,-3.2372,-0.22337,0.72326
619.186,29.1298,-3.23781,-0.22507,0.72277
619.786,29.1493,-3.23861,-0.22495,0.72229
620.386,29.16896,-3.23862,-0.22338,0.72181
620.986,29.1886,-3.23862,-0.22508,0.72133
621.586,29.20832,-3.23872,-0.2243,0.72084
622.186,29.228,-3.23957,-0.22533,0.72036
622.786,29.2477,-3.23963,-0.22552,0.71988
623.386,29.2674,-3.24093,-0.22643,0.7194
623.986,29.28712,-3.24093,-0.22789,0.71891
624.586,29.3068,-3.24224,-0.22882,0.71843
625.186,29.3265,-3.24224,-0.22977,0.71795
625.786,29.3462,-3.24253,-0.22902,0.71746
626.386,29.3658,-3.24356,-0.23259,0.71698
626.986,29.38539,-3.24356,-0.23029,0.7165
627.586,29.405,-3.24355,-0.23353,0.71601
628.186,29.4246,-3.24561,-0.23218,0.71553
628.786,29.44418,-3.24619,-0.2315,0.71505
629.386,29.4639,-3.24619,-0.23009,0.71456
629.986,29.4837,-3.24589,-0.23458,0.71408
630.586,29.50345,-3.24501,-0.23488,0.7136
631.186,29.5232,-3.24621,-0.23553,0.71311
631.786,29.54275,-3.2462,-0.23465,0.71263
632.386,29.5624,-3.24714,-0.23261,0.71214
632.986,29.58209,-3.24751,-0.23671,0.71166
633.586,29.60189,-3.24752,-0.23697,0.71117
634.186,29.62163,-3.24837,-0.23536,0.71069
634.786,29.64136,-3.24884,-0.23623,0.71021
635.386,29.66108,-3.24775,-0.23589,0.70972
635.986,29.68085,-3.2475,-0.23609,0.70924
636.586,29.70062,-3.24885,-0.23684,0.70875
637.186,29.72032,-3.24883,-0.23606,0.70827
637.786,29.74,-3.24916,-0.23629,0.70778
638.386,29.7598,-3.25015,-0.23829,0.7073
638.986,29.7795,-3.25145,-0.24825,0.70681
639.586,29.79924,-3.25146,-0.25621,0.70633
640.186,29.81887,-3.25146,-0.24982,0.70584
640.786,29.83848,-3.25146,-0.25006,0.70536
641.386,29.8581,-3.25189,-0.24857,0.70487
641.986,29.8779,-3.25237,-0.24499,0.70439
642.586,29.89763,-3.25147,-0.24475,0.7039
643.186,29.91739,-3.25146,-0.24293,0.70342
643.786,29.93716,-3.25147,-0.24181,0.70293
644.386,29.95686,-3.25254,-0.2418,0.70245
644.986,29.9766,-3.25278,-0.24363,0.70196
645.586,29.9963,-3.25274,-0.24346,0.70147
646.186,30.016,-3.25427,-0.24217,0.70099
646.786,30.03575,-3.2542,-0.24183,0.7005
647.386,30.05545,-3.25535,-0.24312,0.70002
647.986,30.07514,-3.25552,-0.23944,0.69953
648.586,30.09487,-3.25553,-0.23932,0.69904
649.186,30.1146,-3.25634,-0.23083,0.69856
649.786,30.13435,-3.25684,-0.22957,0.69807
650.386,30.1541,-3.25684,-0.23088,0.69759
650.986,30.17383,-3.25685,-0.23551,0.6971
651.586,30.19365,-3.25817,-0.23597,0.69661
652.186,30.21337,-3.25816,-0.23395,0.69613
652.786,30.23315,-3.25816,-0.23327,0.69564
653.386,30.2529,-3.25816,-0.2353,0.69515
653.986,30.27267,-3.25816,-0.23694,0.69467
654.586,30.29243,-3.25907,-0.23865,0.69418
655.186,30.3122,-3.25947,-0.23773,0.69369
655.786,30.332,-3.25947,-0.23826,0.69321
656.386,30.3517,-3.25947,-0.2401,0.69272
656.986,30.3714,-3.25947,-0.23933,0.69223
657.586,30.3912,-3.25964,-0.23902,0.69174
658.186,30.4109,-3.2608,-0.23931,0.69126
658.786,30.4306,-3.26079,-0.24163,0.69077
659.386,30.45037,-3.26079,-0.24036,0.69028
659.986,30.4701,-3.26073,-0.23956,0.6898
660.586,30.4898,-3.2618,-0.23989,0.68931
661.186,30.50955,-3.26178,-0.23889,0.68882
661.786,30.5294,-3.26178,-0.23881,0.68833
662.386,30.5492,-3.26196,-0.23958,0.68785
662.986,30.569,-3.26309,-0.24003,0.68736
663.586,30.58868,-3.2631,-0.24169,0.68687
664.186,30.6082,-3.26308,-0.24037,0.68638
664.786,30.62786,-3.26445,-0.24104,0.6859
665.386,30.64753,-3.26441,-0.24072,0.68541
665.986,30.66742,-3.26441,-0.24155,0.68492
666.586,30.6874,-3.26441,-0.24208,0.68443
667.186,30.70719,-3.26444,-0.24067,0.68394
667.786,30.727,-3.26573,-0.24029,0.68346
668.386,30.74676,-3.26573,-0.24181,0.68297
668.986,30.76657,-3.26573,-0.24114,0.68248
669.586,30.78635,-3.26704,-0.24412,0.68199
670.186,30.80612,-3.26705,-0.24443,0.6815
670.786,30.82585,-3.26705,-0.24588,0.68102
671.386,30.8456,-3.26705,-0.24452,0.68053
671.986,30.8653,-3.26701,-0.24739,0.68004
672.586,30.88503,-3.2684,-0.24835,0.67955
673.186,30.90467,-3.26837,-0.24842,0.67906
673.786,30.92437,-3.26837,-0.24746,0.67857
674.386,30.9441,-3.26832,-0.24742,0.67809
674.986,30.96408,-3.26972,-0.2449,0.6776
675.586,30.98405,-3.26967,-0.21467,0.67711
676.186,31.00398,-3.26892,-0.21691,0.67662
676.786,31.02373,-3.26869,-0.22914,0.67613
677.386,31.0435,-3.26867,-0.24089,0.67564
677.986,31.06332,-3.2699,-0.24873,0.67515
678.586,31.0831,-3.27001,-0.25381,0.67466
679.186,31.10295,-3.27001,-0.26258,0.67418
679.786,31.1227,-3.27001,-0.27021,0.67369
680.386,31.1425,-3.27001,-0.27239,0.6732
680.986,31.16228,-3.27001,-0.27504,0.67271
681.586,31.18205,-3.27001,-0.27938,0.67222
682.186,31.20185,-3.27001,-0.28251,0.67173
682.786,31.22165,-3.2705,-0.28972,0.67124
683.386,31.24145,-3.27133,-0.29574,0.67075
683.986,31.2612,-3.27133,-0.29969,0.67026
684.586,31.28087,-3.27138,-0.301,0.66977
685.186,31.3007,-3.27264,-0.30309,0.66929
685.786,31.32048,-3.27265,-0.30818,0.6688
686.386,31.3405,-3.27265,-0.30857,0.66831
686.986,31.3603,-3.27265,-0.31114,0.66782
687.586,31.38014,-3.27265,-0.31448,0.66733
688.186,31.4,-3.2733,-0.31641,0.66684
688.786,31.4198,-3.27396,-0.31692,0.66635
689.386,31.43961,-3.27396,-0.31711,0.66586
689.986,31.45942,-3.27455,-0.3215,0.66537
690.586,31.47925,-3.27528,-0.32591,0.66488
691.186,31.49901,-3.27528,-0.32519,0.66439
691.786,31.5189,-3.27528,-0.32807,0.6639
692.386,31.53871,-3.27531,-0.32859,0.66341
692.986,31.55855,-3.27522,-0.33112,0.66292
693.586,31.5784,-3.27528,-0.3348,0.66243
694.186,31.5982,-3.27528,-0.33676,0.66194
694.786,31.6181,-3.27528,-0.34181,0.66145
695.386,31.63792,-3.27528,-0.34487,0.66096
695.986,31.6578,-3.27528,-0.34741,0.66047
696.186,31.66452,-3.27528,-0.34836,0.66031