File: 01_Data/OSB/FTIR/IS/OSB_IS_REFLECT_MEAS_210623_R3.dpt
5996.41,0.47884
5992.55,0.48843
5988.69,0.48398
5984.84,0.49072
5980.98,0.48217
5977.12,0.47601
5973.27,0.47622
5969.41,0.47611
5965.55,0.47665
5961.69,0.47677
5957.84,0.47207
5953.98,0.47932
5950.12,0.47553
5946.26,0.47501
5942.41,0.48355
5938.55,0.47709
5934.69,0.48265
5930.83,0.48556
5926.98,0.48289
5923.12,0.47961
5919.26,0.47728
5915.4,0.47127
5911.55,0.47431
5907.69,0.47023
5903.83,0.47157
5899.97,0.46819
5896.12,0.46368
5892.26,0.46791
5888.4,0.47091
5884.54,0.47033
5880.69,0.47263
5876.83,0.46697
5872.97,0.46375
5869.11,0.46921
5865.26,0.46935
5861.4,0.47296
5857.54,0.47259
5853.68,0.47039
5849.83,0.47683
5845.97,0.47576
5842.11,0.46970
5838.25,0.47198
5834.4,0.47268
5830.54,0.46690
5826.68,0.46772
5822.82,0.47030
5818.97,0.47201
5815.11,0.46918
5811.25,0.47468
5807.39,0.46718
5803.54,0.46636
5799.68,0.46950
5795.82,0.46947
5791.96,0.46619
5788.11,0.47049
5784.25,0.47078
5780.39,0.46764
5776.53,0.46499
5772.68,0.46772
5768.82,0.47006
5764.96,0.47133
5761.11,0.46872
5757.25,0.46654
5753.39,0.46653
5749.53,0.47285
5745.68,0.47546
5741.82,0.47362
5737.96,0.47310
5734.1,0.46607
5730.25,0.46827
5726.39,0.47086
5722.53,0.47313
5718.67,0.47046
5714.82,0.46564
5710.96,0.46668
5707.1,0.46931
5703.24,0.46740
5699.39,0.46867
5695.53,0.46493
5691.67,0.46664
5687.81,0.46565
5683.96,0.46768
5680.1,0.46515
5676.24,0.47108
5672.38,0.46795
5668.53,0.46360
5664.67,0.46805
5660.81,0.46723
5656.95,0.46424
5653.1,0.46504
5649.24,0.46448
5645.38,0.46307
5641.52,0.46321
5637.67,0.46405
5633.81,0.47011
5629.95,0.46977
5626.09,0.47145
5622.24,0.46647
5618.38,0.46936
5614.52,0.46635
5610.66,0.46335
5606.81,0.46403
5602.95,0.46758
5599.09,0.46589
5595.23,0.46478
5591.38,0.47007
5587.52,0.46985
5583.66,0.46385
5579.8,0.47370
5575.95,0.47205
5572.09,0.47577
5568.23,0.47700
5564.38,0.46984
5560.52,0.47337
5556.66,0.47794
5552.8,0.47441
5548.95,0.46836
5545.09,0.46916
5541.23,0.47069
5537.37,0.47784
5533.52,0.47502
5529.66,0.47196
5525.8,0.46567
5521.94,0.46829
5518.09,0.48002
5514.23,0.47647
5510.37,0.46937
5506.51,0.47244
5502.66,0.47499
5498.8,0.47888
5494.94,0.47552
5491.08,0.47058
5487.23,0.47800
5483.37,0.47893
5479.51,0.48310
5475.65,0.48283
5471.8,0.47966
5467.94,0.48220
5464.08,0.48000
5460.22,0.48097
5456.37,0.48167
5452.51,0.48483
5448.65,0.48797
5444.79,0.48739
5440.94,0.48848
5437.08,0.48524
5433.22,0.48549
5429.36,0.48539
5425.51,0.48787
5421.65,0.49467
5417.79,0.49246
5413.93,0.48191
5410.08,0.48694
5406.22,0.48808
5402.36,0.48097
5398.5,0.48779
5394.65,0.48610
5390.79,0.49289
5386.93,0.48966
5383.07,0.48750
5379.22,0.48879
5375.36,0.48741
5371.5,0.48914
5367.65,0.49109
5363.79,0.48924
5359.93,0.49447
5356.07,0.48920
5352.22,0.48168
5348.36,0.48366
5344.5,0.47809
5340.64,0.47400
5336.79,0.47319
5332.93,0.47225
5329.07,0.47396
5325.21,0.47815
5321.36,0.46863
5317.5,0.45916
5313.64,0.45873
5309.78,0.45396
5305.93,0.44963
5302.07,0.44521
5298.21,0.43638
5294.35,0.43322
5290.5,0.42524
5286.64,0.41988
5282.78,0.40792
5278.92,0.40048
5275.07,0.39860
5271.21,0.39284
5267.35,0.38107
5263.49,0.36726
5259.64,0.36170
5255.78,0.35971
5251.92,0.34690
5248.06,0.33602
5244.21,0.33431
5240.35,0.33008
5236.49,0.32640
5232.63,0.32045
5228.78,0.31407
5224.92,0.31136
5221.06,0.30699
5217.2,0.30732
5213.35,0.30226
5209.49,0.30182
5205.63,0.29748
5201.77,0.29684
5197.92,0.29946
5194.06,0.29767
5190.2,0.29537
5186.34,0.29449
5182.49,0.29596
5178.63,0.29739
5174.77,0.29784
5170.91,0.29763
5167.06,0.30036
5163.2,0.30153
5159.34,0.30273
5155.49,0.30391
5151.63,0.30894
5147.77,0.31423
5143.91,0.31268
5140.06,0.31181
5136.2,0.31690
5132.34,0.31809
5128.48,0.32070
5124.63,0.32320
5120.77,0.32302
5116.91,0.32239
5113.05,0.32188
5109.2,0.32550
5105.34,0.33044
5101.48,0.33118
5097.62,0.33193
5093.77,0.33396
5089.91,0.33697
5086.05,0.34233
5082.19,0.34217
5078.34,0.34197
5074.48,0.34719
5070.62,0.34947
5066.76,0.35173
5062.91,0.35240
5059.05,0.35316
5055.19,0.35791
5051.33,0.36054
5047.48,0.36026
5043.62,0.36225
5039.76,0.36230
5035.9,0.36542
5032.05,0.36611
5028.19,0.36759
5024.33,0.37240
5020.47,0.37156
5016.62,0.37517
5012.76,0.37620
5008.9,0.37621
5005.04,0.38069
5001.19,0.37901
4997.33,0.37782
4993.47,0.37929
4989.61,0.38129
4985.76,0.38208
4981.9,0.37851
4978.04,0.37792
4974.18,0.37887
4970.33,0.38093
4966.47,0.38195
4962.61,0.38060
4958.76,0.37924
4954.9,0.38084
4951.04,0.37747
4947.18,0.37515
4943.33,0.37444
4939.47,0.37305
4935.61,0.36994
4931.75,0.36980
4927.9,0.36735
4924.04,0.36685
4920.18,0.36413
4916.32,0.35949
4912.47,0.35860
4908.61,0.35938
4904.75,0.35846
4900.89,0.35340
4897.04,0.35077
4893.18,0.34891
4889.32,0.34679
4885.46,0.34370
4881.61,0.33964
4877.75,0.33884
4873.89,0.33559
4870.03,0.33260
4866.18,0.33303
4862.32,0.33109
4858.46,0.32753
4854.6,0.32364
4850.75,0.32396
4846.89,0.32147
4843.03,0.31998
4839.17,0.31740
4835.32,0.31512
4831.46,0.31223
4827.6,0.31126
4823.74,0.30998
4819.89,0.30891
4816.03,0.30693
4812.17,0.30393
4808.31,0.30402
4804.46,0.30534
4800.6,0.30471
4796.74,0.30342
4792.88,0.30317
4789.03,0.30310
4785.17,0.30260
4781.31,0.30259
4777.45,0.30093
4773.6,0.30086
4769.74,0.29947
4765.88,0.29905
4762.02,0.29735
4758.17,0.29698
4754.31,0.29801
4750.45,0.29801
4746.6,0.30002
4742.74,0.29643
4738.88,0.29738
4735.02,0.29907
4731.17,0.29865
4727.31,0.29982
4723.45,0.29899
4719.59,0.29921
4715.74,0.29853
4711.88,0.30201
4708.02,0.30185
4704.16,0.30240
4700.31,0.30263
4696.45,0.30377
4692.59,0.30468
4688.73,0.30349
4684.88,0.30385
4681.02,0.30624
4677.16,0.30779
4673.3,0.30721
4669.45,0.30651
4665.59,0.30793
4661.73,0.30988
4657.87,0.31018
4654.02,0.31187
4650.16,0.31520
4646.3,0.31577
4642.44,0.31669
4638.59,0.31646
4634.73,0.31861
4630.87,0.32124
4627.01,0.32260
4623.16,0.32433
4619.3,0.32418
4615.44,0.32652
4611.58,0.32816
4607.73,0.33066
4603.87,0.33259
4600.01,0.33481
4596.15,0.33625
4592.3,0.33894
4588.44,0.33881
4584.58,0.34032
4580.72,0.34237
4576.87,0.34215
4573.01,0.34295
4569.15,0.34477
4565.29,0.34541
4561.44,0.34690
4557.58,0.34885
4553.72,0.34894
4549.87,0.35054
4546.01,0.35213
4542.15,0.35199
4538.29,0.35272
4534.44,0.35278
4530.58,0.35350
4526.72,0.35249
4522.86,0.35107
4519.01,0.35080
4515.15,0.35268
4511.29,0.35275
4507.43,0.35221
4503.58,0.35061
4499.72,0.35066
4495.86,0.34961
4492,0.34832
4488.15,0.34692
4484.29,0.34505
4480.43,0.34175
4476.57,0.34016
4472.72,0.33794
4468.86,0.33527
4465,0.32992
4461.14,0.32520
4457.29,0.32093
4453.43,0.31851
4449.57,0.31478
4445.71,0.31011
4441.86,0.30777
4438,0.30473
4434.14,0.29912
4430.28,0.29482
4426.43,0.29142
4422.57,0.28613
4418.71,0.28233
4414.85,0.27977
4411,0.27687
4407.14,0.27163
4403.28,0.27114
4399.42,0.27195
4395.57,0.27127
4391.71,0.27135
4387.85,0.27195
4383.99,0.27280
4380.14,0.27368
4376.28,0.27388
4372.42,0.27454
4368.56,0.27703
4364.71,0.27788
4360.85,0.27863
4356.99,0.27924
4353.14,0.27974
4349.28,0.27789
4345.42,0.27669
4341.56,0.27702
4337.71,0.27579
4333.85,0.27406
4329.99,0.27219
4326.13,0.27090
4322.28,0.26777
4318.42,0.26764
4314.56,0.26835
4310.7,0.26620
4306.85,0.26398
4302.99,0.26553
4299.13,0.26520
4295.27,0.26277
4291.42,0.26176
4287.56,0.26115
4283.7,0.26045
4279.84,0.25941
4275.99,0.25958
4272.13,0.26094
4268.27,0.26092
4264.41,0.26005
4260.56,0.26002
4256.7,0.26113
4252.84,0.26062
4248.98,0.26189
4245.13,0.26221
4241.27,0.26274
4237.41,0.26294
4233.55,0.26407
4229.7,0.26417
4225.84,0.26430
4221.98,0.26387
4218.12,0.26362
4214.27,0.26390
4210.41,0.26439
4206.55,0.26373
4202.69,0.26469
4198.84,0.26472
4194.98,0.26294
4191.12,0.26361
4187.26,0.26377
4183.41,0.26386
4179.55,0.26418
4175.69,0.26488
4171.83,0.26554
4167.98,0.26588
4164.12,0.26764
4160.26,0.26759
4156.4,0.26533
4152.55,0.26427
4148.69,0.26285
4144.83,0.26273
4140.98,0.26195
4137.12,0.26001
4133.26,0.25693
4129.4,0.25474
4125.55,0.25371
4121.69,0.25216
4117.83,0.25059
4113.97,0.24852
4110.12,0.24564
4106.26,0.24216
4102.4,0.23962
4098.54,0.23736
4094.69,0.23380
4090.83,0.23024
4086.97,0.22790
4083.11,0.22609
4079.26,0.22408
4075.4,0.22225
4071.54,0.22021
4067.68,0.21743
4063.83,0.21454
4059.97,0.21038
4056.11,0.20726
4052.25,0.20389
4048.4,0.20200
4044.54,0.20024
4040.68,0.19866
4036.82,0.19603
4032.97,0.19425
4029.11,0.19442
4025.25,0.19245
4021.39,0.19196
4017.54,0.19260
4013.68,0.19165
4009.82,0.19197
4005.96,0.19234
4002.11,0.19308
3998.25,0.19354
3994.39,0.19317
3990.53,0.19441
3986.68,0.19475
3982.82,0.19534
3978.96,0.19633
3975.1,0.19696
3971.25,0.19757
3967.39,0.19839
3963.53,0.19809
3959.67,0.19942
3955.82,0.20016
3951.96,0.20179
3948.1,0.20379
3944.25,0.20468
3940.39,0.20563
3936.53,0.20711
3932.67,0.20979
3928.82,0.21061
3924.96,0.21237
3921.1,0.21373
3917.24,0.21423
3913.39,0.21591
3909.53,0.21646
3905.67,0.21751
3901.81,0.21755
3897.96,0.21986
3894.1,0.22002
3890.24,0.21967
3886.38,0.22180
3882.53,0.22363
3878.67,0.22458
3874.81,0.22534
3870.95,0.22652
3867.1,0.22737
3863.24,0.22755
3859.38,0.22846
3855.52,0.22696
3851.67,0.22867
3847.81,0.23122
3843.95,0.23144
3840.09,0.23094
3836.24,0.23424
3832.38,0.23468
3828.52,0.23285
3824.66,0.23251
3820.81,0.23377
3816.95,0.23348
3813.09,0.23271
3809.23,0.23259
3805.38,0.23087
3801.52,0.22941
3797.66,0.22974
3793.8,0.23057
3789.95,0.23089
3786.09,0.23064
3782.23,0.23001
3778.37,0.22831
3774.52,0.22822
3770.66,0.22669
3766.8,0.22532
3762.94,0.22351
3759.09,0.22197
3755.23,0.21980
3751.37,0.21583
3747.51,0.21410
3743.66,0.21200
3739.8,0.21070
3735.94,0.20918
3732.09,0.20567
3728.23,0.20263
3724.37,0.19947
3720.51,0.19842
3716.66,0.19595
3712.8,0.19194
3708.94,0.18465
3705.08,0.17979
3701.23,0.17406
3697.37,0.16934
3693.51,0.16441
3689.65,0.15629
3685.8,0.14622
3681.94,0.13894
3678.08,0.13101
3674.22,0.12006
3670.37,0.11167
3666.51,0.10216
3662.65,0.09617
3658.79,0.08900
3654.94,0.08191
3651.08,0.07746
3647.22,0.07072
3643.36,0.06604
3639.51,0.06343
3635.65,0.05997
3631.79,0.05656
3627.93,0.05419
3624.08,0.05179
3620.22,0.05126
3616.36,0.04891
3612.5,0.04686
3608.65,0.04593
3604.79,0.04377
3600.93,0.04223
3597.07,0.04063
3593.22,0.03877
3589.36,0.03790
3585.5,0.03671
3581.64,0.03670
3577.79,0.03607
3573.93,0.03449
3570.07,0.03335
3566.21,0.03292
3562.36,0.03293
3558.5,0.03240
3554.64,0.03169
3550.78,0.03075
3546.93,0.03052
3543.07,0.03086
3539.21,0.02965
3535.36,0.02946
3531.5,0.02908
3527.64,0.02865
3523.78,0.02856
3519.93,0.02821
3516.07,0.02802
3512.21,0.02780
3508.35,0.02765
3504.5,0.02748
3500.64,0.02649
3496.78,0.02579
3492.92,0.02558
3489.07,0.02594
3485.21,0.02562
3481.35,0.02538
3477.49,0.02540
3473.64,0.02511
3469.78,0.02512
3465.92,0.02505
3462.06,0.02441
3458.21,0.02444
3454.35,0.02453
3450.49,0.02466
3446.63,0.02467
3442.78,0.02382
3438.92,0.02378
3435.06,0.02465
3431.2,0.02386
3427.35,0.02313
3423.49,0.02425
3419.63,0.02422
3415.77,0.02466
3411.92,0.02420
3408.06,0.02424
3404.2,0.02413
3400.34,0.02488
3396.49,0.02575
3392.63,0.02482
3388.77,0.02541
3384.91,0.02620
3381.06,0.02524
3377.2,0.02534
3373.34,0.02638
3369.48,0.02592
3365.63,0.02496
3361.77,0.02638
3357.91,0.02672
3354.05,0.02626
3350.2,0.02667
3346.34,0.02690
3342.48,0.02725
3338.63,0.02732
3334.77,0.02772
3330.91,0.02878
3327.05,0.02888
3323.2,0.02907
3319.34,0.02911
3315.48,0.02931
3311.62,0.02952
3307.77,0.02915
3303.91,0.02896
3300.05,0.02963
3296.19,0.03000
3292.34,0.03030
3288.48,0.03008
3284.62,0.03062
3280.76,0.03103
3276.91,0.03064
3273.05,0.03086
3269.19,0.03090
3265.33,0.03182
3261.48,0.03237
3257.62,0.03235
3253.76,0.03273
3249.9,0.03248
3246.05,0.03288
3242.19,0.03293
3238.33,0.03326
3234.47,0.03402
3230.62,0.03364
3226.76,0.03416
3222.9,0.03491
3219.04,0.03437
3215.19,0.03565
3211.33,0.03628
3207.47,0.03653
3203.61,0.03601
3199.76,0.03697
3195.9,0.03731
3192.04,0.03781
3188.18,0.03817
3184.33,0.03872
3180.47,0.03937
3176.61,0.03973
3172.75,0.03988
3168.9,0.04013
3165.04,0.04060
3161.18,0.04080
3157.32,0.04163
3153.47,0.04277
3149.61,0.04304
3145.75,0.04340
3141.89,0.04416
3138.04,0.04435
3134.18,0.04456
3130.32,0.04525
3126.47,0.04617
3122.61,0.04620
3118.75,0.04736
3114.89,0.04787
3111.04,0.04830
3107.18,0.04851
3103.32,0.04862
3099.46,0.04927
3095.61,0.05034
3091.75,0.05149
3087.89,0.05157
3084.03,0.05180
3080.18,0.05170
3076.32,0.05242
3072.46,0.05361
3068.6,0.05345
3064.75,0.05449
3060.89,0.05511
3057.03,0.05547
3053.17,0.05606
3049.32,0.05615
3045.46,0.05711
3041.6,0.05804
3037.74,0.05816
3033.89,0.05800
3030.03,0.05798
3026.17,0.05852
3022.31,0.05814
3018.46,0.05796
3014.6,0.05840
3010.74,0.05768
3006.88,0.05770
3003.03,0.05727
2999.17,0.05718
2995.31,0.05630
2991.45,0.05542
2987.6,0.05496
2983.74,0.05365
2979.88,0.05229
2976.02,0.04947
2972.17,0.04793
2968.31,0.04647
2964.45,0.04555
2960.59,0.04387
2956.74,0.04331
2952.88,0.04269
2949.02,0.04195
2945.16,0.04124
2941.31,0.04082
2937.45,0.04039
2933.59,0.04035
2929.74,0.03995
2925.88,0.04065
2922.02,0.04045
2918.16,0.04056
2914.31,0.04026
2910.45,0.04042
2906.59,0.04038
2902.73,0.04044
2898.88,0.04082
2895.02,0.04123
2891.16,0.04194
2887.3,0.04208
2883.45,0.04301
2879.59,0.04397
2875.73,0.04394
2871.87,0.04312
2868.02,0.04405
2864.16,0.04535
2860.3,0.04595
2856.44,0.04566
2852.59,0.04650
2848.73,0.04774
2844.87,0.04964
2841.01,0.05193
2837.16,0.05407
2833.3,0.05582
2829.44,0.05795
2825.58,0.06029
2821.73,0.06201
2817.87,0.06405
2814.01,0.06605
2810.15,0.06731
2806.3,0.06807
2802.44,0.06954
2798.58,0.07112
2794.72,0.07207
2790.87,0.07333
2787.01,0.07388
2783.15,0.07450
2779.29,0.07510
2775.44,0.07546
2771.58,0.07610
2767.72,0.07701
2763.86,0.07694
2760.01,0.07667
2756.15,0.07669
2752.29,0.07727
2748.43,0.07682
2744.58,0.07797
2740.72,0.07787
2736.86,0.07781
2733.01,0.07832
2729.15,0.07907
2725.29,0.07923
2721.43,0.08024
2717.58,0.08096
2713.72,0.08119
2709.86,0.08267
2706,0.08345
2702.15,0.08479
2698.29,0.08566
2694.43,0.08648
2690.57,0.08717
2686.72,0.08760
2682.86,0.08884
2679,0.09033
2675.14,0.09093
2671.29,0.09168
2667.43,0.09270
2663.57,0.09328
2659.71,0.09407
2655.86,0.09461
2652,0.09496
2648.14,0.09554
2644.28,0.09635
2640.43,0.09748
2636.57,0.09825
2632.71,0.09909
2628.85,0.09999
2625,0.10086
2621.14,0.10203
2617.28,0.10256
2613.42,0.10277
2609.57,0.10311
2605.71,0.10371
2601.85,0.10460
2597.99,0.10585
2594.14,0.10643
2590.28,0.10685
2586.42,0.10722
2582.56,0.10818
2578.71,0.10872
2574.85,0.10935
2570.99,0.10984
2567.13,0.10991
2563.28,0.11005
2559.42,0.11018
2555.56,0.11021
2551.7,0.10979
2547.85,0.10985
2543.99,0.11067
2540.13,0.11125
2536.27,0.11186
2532.42,0.11267
2528.56,0.11306
2524.7,0.11419
2520.85,0.11499
2516.99,0.11567
2513.13,0.11570
2509.27,0.11701
2505.42,0.11846
2501.56,0.11979
2497.7,0.12132
2493.84,0.12286
2489.99,0.12367
2486.13,0.12425
2482.27,0.12498
2478.41,0.12569
2474.56,0.12681
2470.7,0.12858
2466.84,0.12954
2462.98,0.13020
2459.13,0.13127
2455.27,0.13219
2451.41,0.13292
2447.55,0.13414
2443.7,0.13482
2439.84,0.13573
2435.98,0.13700
2432.12,0.13837
2428.27,0.13889
2424.41,0.14020
2420.55,0.14179
2416.69,0.14301
2412.84,0.14454
2408.98,0.14612
2405.12,0.14635
2401.26,0.14722
2397.41,0.14801
2393.55,0.14888
2389.69,0.14961
2385.83,0.14979
2381.98,0.15011
2378.12,0.15045
2374.26,0.14978
2370.4,0.14717
2366.55,0.14606
2362.69,0.14140
2358.83,0.14114
2354.97,0.14851
2351.12,0.14747
2347.26,0.14677
2343.4,0.14834
2339.54,0.14727
2335.69,0.14875
2331.83,0.14951
2327.97,0.14869
2324.12,0.15175
2320.26,0.15448
2316.4,0.15527
2312.54,0.15654
2308.69,0.15735
2304.83,0.15778
2300.97,0.15830
2297.11,0.15858
2293.26,0.15837
2289.4,0.15822
2285.54,0.15819
2281.68,0.15773
2277.83,0.15705
2273.97,0.15669
2270.11,0.15660
2266.25,0.15563
2262.4,0.15466
2258.54,0.15428
2254.68,0.15333
2250.82,0.15293
2246.97,0.15282
2243.11,0.15214
2239.25,0.15168
2235.39,0.15133
2231.54,0.15096
2227.68,0.15031
2223.82,0.15007
2219.96,0.15024
2216.11,0.15002
2212.25,0.14984
2208.39,0.14907
2204.53,0.14855
2200.68,0.14747
2196.82,0.14674
2192.96,0.14578
2189.1,0.14454
2185.25,0.14328
2181.39,0.14170
2177.53,0.14040
2173.67,0.13952
2169.82,0.13809
2165.96,0.13632
2162.1,0.13571
2158.24,0.13592
2154.39,0.13472
2150.53,0.13427
2146.67,0.13364
2142.81,0.13272
2138.96,0.13304
2135.1,0.13287
2131.24,0.13221
2127.38,0.13236
2123.53,0.13271
2119.67,0.13245
2115.81,0.13311
2111.96,0.13388
2108.1,0.13436
2104.24,0.13517
2100.38,0.13506
2096.53,0.13564
2092.67,0.13617
2088.81,0.13649
2084.95,0.13615
2081.1,0.13620
2077.24,0.13634
2073.38,0.13543
2069.52,0.13543
2065.67,0.13539
2061.81,0.13491
2057.95,0.13468
2054.09,0.13505
2050.24,0.13511
2046.38,0.13599
2042.52,0.13682
2038.66,0.13784
2034.81,0.13905
2030.95,0.14005
2027.09,0.14129
2023.23,0.14294
2019.38,0.14477
2015.52,0.14636
2011.66,0.14750
2007.8,0.14868
2003.95,0.14930
2000.09,0.14945
1996.23,0.15050
1992.37,0.15176
1988.52,0.15241
1984.66,0.15318
1980.8,0.15414
1976.94,0.15500
1973.09,0.15568
1969.23,0.15671
1965.37,0.15790
1961.51,0.15832
1957.66,0.15889
1953.8,0.16030
1949.94,0.16149
1946.08,0.16302
1942.23,0.16475
1938.37,0.16492
1934.51,0.16564
1930.65,0.16629
1926.8,0.16681
1922.94,0.16816
1919.08,0.16790
1915.23,0.16793
1911.37,0.16770
1907.51,0.16751
1903.65,0.16767
1899.8,0.16699
1895.94,0.16714
1892.08,0.16730
1888.22,0.16684
1884.37,0.16570
1880.51,0.16580
1876.65,0.16578
1872.79,0.16599
1868.94,0.16722
1865.08,0.16532
1861.22,0.16419
1857.36,0.16310
1853.51,0.16202
1849.65,0.16158
1845.79,0.16178
1841.93,0.16018
1838.08,0.15774
1834.22,0.15591
1830.36,0.15569
1826.5,0.15354
1822.65,0.15045
1818.79,0.14781
1814.93,0.14498
1811.07,0.14207
1807.22,0.13894
1803.36,0.13624
1799.5,0.13311
1795.64,0.12882
1791.79,0.12412
1787.93,0.11842
1784.07,0.11325
1780.21,0.10761
1776.36,0.10227
1772.5,0.09732
1768.64,0.08838
1764.78,0.08045
1760.93,0.07202
1757.07,0.06361
1753.21,0.05783
1749.35,0.05348
1745.5,0.04930
1741.64,0.04745
1737.78,0.04665
1733.92,0.04695
1730.07,0.04583
1726.21,0.04502
1722.35,0.04562
1718.5,0.04871
1714.64,0.05041
1710.78,0.05002
1706.92,0.05088
1703.07,0.05186
1699.21,0.05339
1695.35,0.05279
1691.49,0.05073
1687.64,0.05049
1683.78,0.04972
1679.92,0.04645
1676.06,0.04439
1672.21,0.04230
1668.35,0.04066
1664.49,0.03959
1660.63,0.03898
1656.78,0.03880
1652.92,0.04086
1649.06,0.04070
1645.2,0.03987
1641.35,0.03959
1637.49,0.04038
1633.63,0.03962
1629.77,0.03898
1625.92,0.04029
1622.06,0.04106
1618.2,0.04045
1614.34,0.03936
1610.49,0.03890
1606.63,0.03853
1602.77,0.03871
1598.91,0.03916
1595.06,0.04008
1591.2,0.04063
1587.34,0.04160
1583.48,0.04380
1579.63,0.04671
1575.77,0.05045
1571.91,0.05307
1568.05,0.05620
1564.2,0.05744
1560.34,0.05996
1556.48,0.06004
1552.62,0.05915
1548.77,0.05939
1544.91,0.05928
1541.05,0.05997
1537.19,0.05624
1533.34,0.05344
1529.48,0.05028
1525.62,0.04688
1521.76,0.04258
1517.91,0.03619
1514.05,0.03270
1510.19,0.03267
1506.34,0.03594
1502.48,0.03704
1498.62,0.03859
1494.76,0.03987
1490.91,0.04037
1487.05,0.03922
1483.19,0.03761
1479.33,0.03687
1475.48,0.03617
1471.62,0.03331
1467.76,0.03210
1463.9,0.03111
1460.05,0.03103
1456.19,0.03149
1452.33,0.03154
1448.47,0.03197
1444.62,0.03267
1440.76,0.03256
1436.9,0.03203
1433.04,0.03093
1429.19,0.03030
1425.33,0.03071
1421.47,0.03205
1417.61,0.03333
1413.76,0.03343
1409.9,0.03370
1406.04,0.03390
1402.18,0.03430
1398.33,0.03407
1394.47,0.03319
1390.61,0.03214
1386.75,0.03077
1382.9,0.02946
1379.04,0.02894
1375.18,0.02935
1371.32,0.02999
1367.47,0.03037
1363.61,0.03159
1359.75,0.03165
1355.89,0.03195
1352.04,0.03202
1348.18,0.03200
1344.32,0.03164
1340.46,0.03147
1336.61,0.03185
1332.75,0.03162
1328.89,0.03137
1325.03,0.03098
1321.18,0.03069
1317.32,0.03071
1313.46,0.03137
1309.61,0.03221
1305.75,0.03169
1301.89,0.03158
1298.03,0.03199
1294.18,0.03115
1290.32,0.03056
1286.46,0.02940
1282.6,0.02861
1278.75,0.02838
1274.89,0.02850
1271.03,0.02895
1267.17,0.02902
1263.32,0.02933
1259.46,0.02984
1255.6,0.03002
1251.74,0.03002
1247.89,0.03060
1244.03,0.03083
1240.17,0.03113
1236.31,0.03011
1232.46,0.03058
1228.6,0.03131
1224.74,0.03082
1220.88,0.03158
1217.03,0.03156
1213.17,0.03172
1209.31,0.03223
1205.45,0.03187
1201.6,0.03197
1197.74,0.03198
1193.88,0.03199
1190.02,0.03176
1186.17,0.03048
1182.31,0.02863
1178.45,0.02710
1174.59,0.02634
1170.74,0.02546
1166.88,0.02598
1163.02,0.02754
1159.16,0.02825
1155.31,0.02764
1151.45,0.02696
1147.59,0.02695
1143.73,0.02622
1139.88,0.02590
1136.02,0.02521
1132.16,0.02339
1128.3,0.02310
1124.45,0.02451
1120.59,0.02339
1116.73,0.02362
1112.88,0.02419
1109.02,0.02553
1105.16,0.02663
1101.3,0.02649
1097.45,0.02684
1093.59,0.02711
1089.73,0.02689
1085.87,0.02620
1082.02,0.02664
1078.16,0.02785
1074.3,0.03033
1070.44,0.03227
1066.59,0.03470
1062.73,0.03805
1058.87,0.04132
1055.01,0.04376
1051.16,0.04274
1047.3,0.04281
1043.44,0.04209
1039.58,0.04251
1035.73,0.04431
1031.87,0.04760
1028.01,0.04832
1024.15,0.04803
1020.3,0.04791
1016.44,0.04981
1012.58,0.05051
1008.72,0.04927
1004.87,0.04894
1001.01,0.05029
997.151,0.05098
993.294,0.05205
989.437,0.05355
985.579,0.05444
981.722,0.05656
977.864,0.05871
974.007,0.05868
970.149,0.06043
966.292,0.06071
962.434,0.06219
958.577,0.06276
954.719,0.06400
950.862,0.06465
947.005,0.06383
943.147,0.06484
939.29,0.06577
935.432,0.06750
931.575,0.06774
927.717,0.06840
923.86,0.06746
920.002,0.06606
916.145,0.06468
912.287,0.06279
908.43,0.06116
904.573,0.05971
900.715,0.05822
896.858,0.05873
893,0.05811
889.143,0.05832
885.285,0.06075
881.428,0.06138
877.57,0.06098
873.713,0.05957
869.856,0.06024
865.998,0.06082
862.141,0.06071
858.283,0.05827
854.426,0.05920
850.568,0.06006
846.711,0.05992
842.853,0.06002
838.996,0.05927
835.138,0.05740
831.281,0.05714
827.424,0.05481
823.566,0.05477
819.709,0.05196
815.851,0.05065
811.994,0.05154
808.136,0.04978
804.279,0.04924
800.421,0.05026
796.564,0.04985
792.706,0.05019
788.849,0.04975
784.992,0.04981
781.134,0.04920
777.277,0.04775
773.419,0.04853
769.562,0.04766
765.704,0.04654
761.847,0.04744
757.989,0.04709
754.132,0.04765
750.274,0.04624
746.417,0.04378
742.56,0.04509
738.702,0.04453
734.845,0.04400
730.987,0.04333
727.13,0.04222
723.272,0.04313
719.415,0.04155
715.557,0.04087
711.7,0.04037
707.843,0.04005
703.985,0.03985
700.128,0.03962
696.27,0.03903
692.413,0.03994
688.555,0.04029
684.698,0.04124
680.84,0.04061
676.983,0.03947
673.125,0.03772
669.268,0.03746
665.411,0.03789
661.553,0.03835
657.696,0.03991
653.838,0.04022
649.981,0.03756
646.123,0.03630
642.266,0.03881
638.408,0.04097
634.551,0.04005
630.693,0.03855
626.836,0.04062
622.979,0.03905
619.121,0.03895
615.264,0.04118
611.406,0.04117
607.549,0.04255
603.691,0.04094
599.834,0.04023
595.976,0.04260
592.119,0.04289
588.261,0.04191
584.404,0.04341
580.547,0.04216
576.689,0.04458
572.832,0.04523
568.974,0.04330
565.117,0.04461
561.259,0.04471
557.402,0.04508
553.544,0.04687
549.687,0.04577
545.83,0.04908
541.972,0.04809
538.115,0.04705
534.257,0.04819
530.4,0.04925
526.542,0.05255
522.685,0.05421
518.827,0.05638
514.97,0.05719
511.112,0.05537
507.255,0.05154
503.398,0.05124
499.54,0.05270
495.683,0.05344
491.825,0.04880
487.968,0.04886
484.11,0.05601
480.253,0.06063
476.395,0.05529
472.538,0.05173
468.68,0.05360
464.823,0.05055
460.966,0.05479
457.108,0.05209
453.251,0.06497
449.393,0.06705
445.536,0.04950
441.678,0.04763
437.821,0.05527
433.963,0.05654
430.106,0.06266
426.248,0.06147
422.391,0.07009
418.534,0.06596
414.676,0.04602
410.819,0.05916
406.961,0.08108
403.104,0.08090
399.246,0.08943