File: 01_Data/OSB/FTIR/IS/OSB_IS_REFLECT_MEAS_210623_R4.dpt
5996.41,0.44809
5992.55,0.45460
5988.69,0.45762
5984.84,0.44883
5980.98,0.44539
5977.12,0.44854
5973.27,0.45388
5969.41,0.44708
5965.55,0.44580
5961.69,0.44517
5957.84,0.44238
5953.98,0.44201
5950.12,0.45016
5946.26,0.45236
5942.41,0.45607
5938.55,0.45447
5934.69,0.44929
5930.83,0.44708
5926.98,0.45202
5923.12,0.44794
5919.26,0.44498
5915.4,0.44147
5911.55,0.44600
5907.69,0.44635
5903.83,0.44615
5899.97,0.43918
5896.12,0.44006
5892.26,0.44856
5888.4,0.45072
5884.54,0.44023
5880.69,0.44073
5876.83,0.44338
5872.97,0.44555
5869.11,0.44697
5865.26,0.44584
5861.4,0.44023
5857.54,0.44255
5853.68,0.44182
5849.83,0.45126
5845.97,0.45126
5842.11,0.44942
5838.25,0.44670
5834.4,0.44498
5830.54,0.44432
5826.68,0.44522
5822.82,0.44252
5818.97,0.44293
5815.11,0.43480
5811.25,0.43500
5807.39,0.43758
5803.54,0.43879
5799.68,0.44229
5795.82,0.44408
5791.96,0.43929
5788.11,0.44150
5784.25,0.44558
5780.39,0.44443
5776.53,0.44469
5772.68,0.44058
5768.82,0.43973
5764.96,0.44064
5761.11,0.44443
5757.25,0.44340
5753.39,0.44236
5749.53,0.44480
5745.68,0.45066
5741.82,0.45021
5737.96,0.44361
5734.1,0.44087
5730.25,0.44641
5726.39,0.44510
5722.53,0.44425
5718.67,0.44483
5714.82,0.44236
5710.96,0.44242
5707.1,0.44090
5703.24,0.43659
5699.39,0.43262
5695.53,0.43778
5691.67,0.44529
5687.81,0.44226
5683.96,0.43844
5680.1,0.43920
5676.24,0.44274
5672.38,0.44157
5668.53,0.43613
5664.67,0.44114
5660.81,0.43994
5656.95,0.43397
5653.1,0.43856
5649.24,0.43679
5645.38,0.43809
5641.52,0.43614
5637.67,0.43891
5633.81,0.44326
5629.95,0.44501
5626.09,0.44478
5622.24,0.44263
5618.38,0.44533
5614.52,0.44285
5610.66,0.43777
5606.81,0.44128
5602.95,0.44489
5599.09,0.44047
5595.23,0.44192
5591.38,0.44179
5587.52,0.44170
5583.66,0.44106
5579.8,0.44601
5575.95,0.44617
5572.09,0.44835
5568.23,0.45115
5564.38,0.44794
5560.52,0.44518
5556.66,0.44868
5552.8,0.44883
5548.95,0.44387
5545.09,0.44703
5541.23,0.44919
5537.37,0.45060
5533.52,0.45055
5529.66,0.44771
5525.8,0.44512
5521.94,0.44436
5518.09,0.45336
5514.23,0.44737
5510.37,0.44169
5506.51,0.44844
5502.66,0.45055
5498.8,0.44802
5494.94,0.44373
5491.08,0.44311
5487.23,0.45165
5483.37,0.45501
5479.51,0.45261
5475.65,0.44739
5471.8,0.45086
5467.94,0.45431
5464.08,0.45074
5460.22,0.45418
5456.37,0.45498
5452.51,0.46083
5448.65,0.46338
5444.79,0.46330
5440.94,0.46631
5437.08,0.46314
5433.22,0.46426
5429.36,0.46025
5425.51,0.46105
5421.65,0.46961
5417.79,0.46285
5413.93,0.46023
5410.08,0.46477
5406.22,0.46149
5402.36,0.45802
5398.5,0.46399
5394.65,0.46814
5390.79,0.46674
5386.93,0.46588
5383.07,0.46259
5379.22,0.46260
5375.36,0.46537
5371.5,0.46442
5367.65,0.46131
5363.79,0.46286
5359.93,0.46958
5356.07,0.46318
5352.22,0.45413
5348.36,0.45498
5344.5,0.45609
5340.64,0.44994
5336.79,0.45232
5332.93,0.45162
5329.07,0.44963
5325.21,0.45047
5321.36,0.44196
5317.5,0.43964
5313.64,0.44009
5309.78,0.43084
5305.93,0.42732
5302.07,0.42724
5298.21,0.42004
5294.35,0.41501
5290.5,0.40526
5286.64,0.40020
5282.78,0.39146
5278.92,0.38590
5275.07,0.38135
5271.21,0.37351
5267.35,0.36120
5263.49,0.34685
5259.64,0.34215
5255.78,0.33666
5251.92,0.33139
5248.06,0.32388
5244.21,0.31688
5240.35,0.31428
5236.49,0.30799
5232.63,0.30254
5228.78,0.29666
5224.92,0.29336
5221.06,0.29431
5217.2,0.29069
5213.35,0.28828
5209.49,0.28903
5205.63,0.28630
5201.77,0.28281
5197.92,0.28362
5194.06,0.28266
5190.2,0.28459
5186.34,0.28324
5182.49,0.27972
5178.63,0.28248
5174.77,0.28498
5170.91,0.28791
5167.06,0.29100
5163.2,0.28918
5159.34,0.28944
5155.49,0.28825
5151.63,0.29096
5147.77,0.29796
5143.91,0.29744
5140.06,0.29826
5136.2,0.30475
5132.34,0.30582
5128.48,0.30766
5124.63,0.30819
5120.77,0.30732
5116.91,0.30732
5113.05,0.31219
5109.2,0.31488
5105.34,0.31945
5101.48,0.31815
5097.62,0.31815
5093.77,0.32096
5089.91,0.32211
5086.05,0.32742
5082.19,0.32749
5078.34,0.32845
5074.48,0.33448
5070.62,0.33710
5066.76,0.33961
5062.91,0.33634
5059.05,0.33405
5055.19,0.33690
5051.33,0.34319
5047.48,0.34488
5043.62,0.34731
5039.76,0.34773
5035.9,0.35215
5032.05,0.35039
5028.19,0.35079
5024.33,0.35646
5020.47,0.35539
5016.62,0.35757
5012.76,0.35776
5008.9,0.35917
5005.04,0.36190
5001.19,0.36124
4997.33,0.36123
4993.47,0.36360
4989.61,0.36375
4985.76,0.36369
4981.9,0.36434
4978.04,0.36443
4974.18,0.36321
4970.33,0.36104
4966.47,0.36346
4962.61,0.36478
4958.76,0.36146
4954.9,0.36103
4951.04,0.35873
4947.18,0.36017
4943.33,0.35835
4939.47,0.35722
4935.61,0.35435
4931.75,0.35175
4927.9,0.34856
4924.04,0.34781
4920.18,0.34436
4916.32,0.34148
4912.47,0.34316
4908.61,0.33997
4904.75,0.33881
4900.89,0.33772
4897.04,0.33449
4893.18,0.33004
4889.32,0.32619
4885.46,0.32592
4881.61,0.32280
4877.75,0.31856
4873.89,0.31786
4870.03,0.31620
4866.18,0.31628
4862.32,0.31399
4858.46,0.31247
4854.6,0.30758
4850.75,0.30454
4846.89,0.30372
4843.03,0.30314
4839.17,0.30020
4835.32,0.29595
4831.46,0.29388
4827.6,0.29515
4823.74,0.29393
4819.89,0.29326
4816.03,0.28894
4812.17,0.29037
4808.31,0.29024
4804.46,0.29012
4800.6,0.28803
4796.74,0.28760
4792.88,0.28718
4789.03,0.28863
4785.17,0.28629
4781.31,0.28493
4777.45,0.28481
4773.6,0.28541
4769.74,0.28352
4765.88,0.28323
4762.02,0.28346
4758.17,0.28242
4754.31,0.28041
4750.45,0.28048
4746.6,0.28373
4742.74,0.28235
4738.88,0.28458
4735.02,0.28536
4731.17,0.28341
4727.31,0.28362
4723.45,0.28162
4719.59,0.28361
4715.74,0.28528
4711.88,0.28580
4708.02,0.28494
4704.16,0.28494
4700.31,0.28603
4696.45,0.28678
4692.59,0.28714
4688.73,0.28719
4684.88,0.28745
4681.02,0.28882
4677.16,0.29001
4673.3,0.29006
4669.45,0.29117
4665.59,0.29079
4661.73,0.29086
4657.87,0.29441
4654.02,0.29591
4650.16,0.29814
4646.3,0.29711
4642.44,0.29770
4638.59,0.29936
4634.73,0.30011
4630.87,0.30470
4627.01,0.30588
4623.16,0.30632
4619.3,0.30691
4615.44,0.30829
4611.58,0.31069
4607.73,0.31272
4603.87,0.31377
4600.01,0.31643
4596.15,0.31742
4592.3,0.31986
4588.44,0.31864
4584.58,0.32034
4580.72,0.32246
4576.87,0.32325
4573.01,0.32547
4569.15,0.32681
4565.29,0.32785
4561.44,0.32833
4557.58,0.32825
4553.72,0.32921
4549.87,0.33199
4546.01,0.33326
4542.15,0.33251
4538.29,0.33306
4534.44,0.33284
4530.58,0.33535
4526.72,0.33508
4522.86,0.33374
4519.01,0.33374
4515.15,0.33458
4511.29,0.33409
4507.43,0.33377
4503.58,0.33243
4499.72,0.33321
4495.86,0.33141
4492,0.32803
4488.15,0.32751
4484.29,0.32582
4480.43,0.32336
4476.57,0.32133
4472.72,0.31981
4468.86,0.31468
4465,0.30978
4461.14,0.30681
4457.29,0.30509
4453.43,0.30051
4449.57,0.29782
4445.71,0.29253
4441.86,0.28854
4438,0.28556
4434.14,0.28201
4430.28,0.27810
4426.43,0.27306
4422.57,0.26809
4418.71,0.26562
4414.85,0.26279
4411,0.26023
4407.14,0.25656
4403.28,0.25474
4399.42,0.25452
4395.57,0.25329
4391.71,0.25232
4387.85,0.25407
4383.99,0.25632
4380.14,0.25595
4376.28,0.25675
4372.42,0.25831
4368.56,0.25966
4364.71,0.26134
4360.85,0.26137
4356.99,0.26139
4353.14,0.26233
4349.28,0.26193
4345.42,0.26109
4341.56,0.25839
4337.71,0.25814
4333.85,0.25736
4329.99,0.25589
4326.13,0.25401
4322.28,0.25227
4318.42,0.25188
4314.56,0.25217
4310.7,0.24935
4306.85,0.24909
4302.99,0.24977
4299.13,0.24770
4295.27,0.24707
4291.42,0.24694
4287.56,0.24541
4283.7,0.24618
4279.84,0.24581
4275.99,0.24443
4272.13,0.24398
4268.27,0.24575
4264.41,0.24577
4260.56,0.24650
4256.7,0.24542
4252.84,0.24536
4248.98,0.24640
4245.13,0.24828
4241.27,0.24879
4237.41,0.24811
4233.55,0.24754
4229.7,0.24870
4225.84,0.24769
4221.98,0.24836
4218.12,0.24889
4214.27,0.24769
4210.41,0.24846
4206.55,0.24907
4202.69,0.24979
4198.84,0.24923
4194.98,0.24758
4191.12,0.24855
4187.26,0.24906
4183.41,0.24894
4179.55,0.24922
4175.69,0.24947
4171.83,0.25120
4167.98,0.25137
4164.12,0.25272
4160.26,0.25190
4156.4,0.25029
4152.55,0.24955
4148.69,0.24855
4144.83,0.24650
4140.98,0.24485
4137.12,0.24438
4133.26,0.24264
4129.4,0.24167
4125.55,0.24066
4121.69,0.23712
4117.83,0.23561
4113.97,0.23430
4110.12,0.23283
4106.26,0.22895
4102.4,0.22648
4098.54,0.22360
4094.69,0.22135
4090.83,0.21806
4086.97,0.21565
4083.11,0.21338
4079.26,0.21146
4075.4,0.20906
4071.54,0.20681
4067.68,0.20481
4063.83,0.20242
4059.97,0.19850
4056.11,0.19629
4052.25,0.19441
4048.4,0.19187
4044.54,0.18904
4040.68,0.18776
4036.82,0.18575
4032.97,0.18535
4029.11,0.18328
4025.25,0.18284
4021.39,0.18334
4017.54,0.18212
4013.68,0.18175
4009.82,0.18187
4005.96,0.18159
4002.11,0.18210
3998.25,0.18274
3994.39,0.18341
3990.53,0.18463
3986.68,0.18418
3982.82,0.18402
3978.96,0.18585
3975.1,0.18735
3971.25,0.18766
3967.39,0.18854
3963.53,0.19052
3959.67,0.19081
3955.82,0.19054
3951.96,0.19161
3948.1,0.19328
3944.25,0.19441
3940.39,0.19566
3936.53,0.19713
3932.67,0.19891
3928.82,0.19898
3924.96,0.20116
3921.1,0.20145
3917.24,0.20341
3913.39,0.20359
3909.53,0.20467
3905.67,0.20750
3901.81,0.20822
3897.96,0.20844
3894.1,0.20976
3890.24,0.21091
3886.38,0.21130
3882.53,0.21214
3878.67,0.21263
3874.81,0.21331
3870.95,0.21393
3867.1,0.21380
3863.24,0.21538
3859.38,0.21525
3855.52,0.21620
3851.67,0.21852
3847.81,0.21933
3843.95,0.21999
3840.09,0.21922
3836.24,0.22097
3832.38,0.22201
3828.52,0.22157
3824.66,0.22041
3820.81,0.22162
3816.95,0.22120
3813.09,0.22154
3809.23,0.22092
3805.38,0.21980
3801.52,0.21992
3797.66,0.22052
3793.8,0.21994
3789.95,0.22037
3786.09,0.22002
3782.23,0.21857
3778.37,0.21732
3774.52,0.21651
3770.66,0.21613
3766.8,0.21412
3762.94,0.21327
3759.09,0.21194
3755.23,0.21004
3751.37,0.20859
3747.51,0.20449
3743.66,0.20463
3739.8,0.20245
3735.94,0.20119
3732.09,0.19660
3728.23,0.19535
3724.37,0.19216
3720.51,0.18960
3716.66,0.18745
3712.8,0.18460
3708.94,0.17700
3705.08,0.17272
3701.23,0.16836
3697.37,0.16304
3693.51,0.15710
3689.65,0.15019
3685.8,0.14059
3681.94,0.13372
3678.08,0.12633
3674.22,0.11537
3670.37,0.10818
3666.51,0.09934
3662.65,0.09305
3658.79,0.08519
3654.94,0.07790
3651.08,0.07500
3647.22,0.06846
3643.36,0.06338
3639.51,0.05966
3635.65,0.05456
3631.79,0.05281
3627.93,0.05118
3624.08,0.04727
3620.22,0.04616
3616.36,0.04466
3612.5,0.04291
3608.65,0.04091
3604.79,0.03872
3600.93,0.03747
3597.07,0.03702
3593.22,0.03523
3589.36,0.03402
3585.5,0.03279
3581.64,0.03216
3577.79,0.03205
3573.93,0.03156
3570.07,0.02986
3566.21,0.02960
3562.36,0.02948
3558.5,0.02907
3554.64,0.02813
3550.78,0.02791
3546.93,0.02675
3543.07,0.02660
3539.21,0.02583
3535.36,0.02512
3531.5,0.02525
3527.64,0.02538
3523.78,0.02464
3519.93,0.02413
3516.07,0.02398
3512.21,0.02355
3508.35,0.02334
3504.5,0.02353
3500.64,0.02401
3496.78,0.02360
3492.92,0.02263
3489.07,0.02184
3485.21,0.02227
3481.35,0.02213
3477.49,0.02224
3473.64,0.02231
3469.78,0.02142
3465.92,0.02151
3462.06,0.02213
3458.21,0.02203
3454.35,0.02118
3450.49,0.02024
3446.63,0.02121
3442.78,0.02113
3438.92,0.02038
3435.06,0.02061
3431.2,0.02072
3427.35,0.02081
3423.49,0.02082
3419.63,0.02142
3415.77,0.02107
3411.92,0.02054
3408.06,0.02154
3404.2,0.02112
3400.34,0.02007
3396.49,0.01981
3392.63,0.02001
3388.77,0.02172
3384.91,0.02116
3381.06,0.02144
3377.2,0.02185
3373.34,0.02136
3369.48,0.02182
3365.63,0.02192
3361.77,0.02193
3357.91,0.02166
3354.05,0.02181
3350.2,0.02186
3346.34,0.02252
3342.48,0.02298
3338.63,0.02316
3334.77,0.02317
3330.91,0.02306
3327.05,0.02365
3323.2,0.02419
3319.34,0.02456
3315.48,0.02524
3311.62,0.02463
3307.77,0.02421
3303.91,0.02397
3300.05,0.02485
3296.19,0.02479
3292.34,0.02404
3288.48,0.02497
3284.62,0.02541
3280.76,0.02576
3276.91,0.02543
3273.05,0.02607
3269.19,0.02640
3265.33,0.02650
3261.48,0.02794
3257.62,0.02799
3253.76,0.02769
3249.9,0.02755
3246.05,0.02793
3242.19,0.02903
3238.33,0.02887
3234.47,0.02940
3230.62,0.02956
3226.76,0.03001
3222.9,0.02981
3219.04,0.03037
3215.19,0.03189
3211.33,0.03192
3207.47,0.03208
3203.61,0.03179
3199.76,0.03206
3195.9,0.03193
3192.04,0.03290
3188.18,0.03336
3184.33,0.03369
3180.47,0.03362
3176.61,0.03479
3172.75,0.03584
3168.9,0.03568
3165.04,0.03606
3161.18,0.03662
3157.32,0.03678
3153.47,0.03739
3149.61,0.03750
3145.75,0.03834
3141.89,0.03950
3138.04,0.04023
3134.18,0.04043
3130.32,0.04087
3126.47,0.04116
3122.61,0.04196
3118.75,0.04166
3114.89,0.04239
3111.04,0.04323
3107.18,0.04376
3103.32,0.04450
3099.46,0.04488
3095.61,0.04503
3091.75,0.04544
3087.89,0.04621
3084.03,0.04651
3080.18,0.04685
3076.32,0.04717
3072.46,0.04818
3068.6,0.04871
3064.75,0.04937
3060.89,0.04975
3057.03,0.04992
3053.17,0.05090
3049.32,0.05168
3045.46,0.05220
3041.6,0.05204
3037.74,0.05267
3033.89,0.05319
3030.03,0.05337
3026.17,0.05380
3022.31,0.05329
3018.46,0.05340
3014.6,0.05340
3010.74,0.05275
3006.88,0.05238
3003.03,0.05217
2999.17,0.05176
2995.31,0.05138
2991.45,0.05052
2987.6,0.04920
2983.74,0.04853
2979.88,0.04624
2976.02,0.04341
2972.17,0.04157
2968.31,0.04047
2964.45,0.03940
2960.59,0.03819
2956.74,0.03805
2952.88,0.03765
2949.02,0.03690
2945.16,0.03660
2941.31,0.03561
2937.45,0.03453
2933.59,0.03425
2929.74,0.03440
2925.88,0.03464
2922.02,0.03424
2918.16,0.03496
2914.31,0.03491
2910.45,0.03505
2906.59,0.03482
2902.73,0.03577
2898.88,0.03601
2895.02,0.03621
2891.16,0.03606
2887.3,0.03675
2883.45,0.03765
2879.59,0.03827
2875.73,0.03824
2871.87,0.03813
2868.02,0.03886
2864.16,0.03961
2860.3,0.03997
2856.44,0.04007
2852.59,0.04046
2848.73,0.04123
2844.87,0.04376
2841.01,0.04596
2837.16,0.04801
2833.3,0.04997
2829.44,0.05176
2825.58,0.05422
2821.73,0.05708
2817.87,0.05888
2814.01,0.06023
2810.15,0.06140
2806.3,0.06328
2802.44,0.06434
2798.58,0.06516
2794.72,0.06590
2790.87,0.06695
2787.01,0.06757
2783.15,0.06846
2779.29,0.06900
2775.44,0.06963
2771.58,0.07003
2767.72,0.07082
2763.86,0.07086
2760.01,0.07147
2756.15,0.07187
2752.29,0.07205
2748.43,0.07156
2744.58,0.07180
2740.72,0.07229
2736.86,0.07245
2733.01,0.07318
2729.15,0.07383
2725.29,0.07384
2721.43,0.07412
2717.58,0.07479
2713.72,0.07546
2709.86,0.07655
2706,0.07752
2702.15,0.07843
2698.29,0.07936
2694.43,0.08023
2690.57,0.08092
2686.72,0.08131
2682.86,0.08279
2679,0.08362
2675.14,0.08415
2671.29,0.08430
2667.43,0.08481
2663.57,0.08590
2659.71,0.08660
2655.86,0.08756
2652,0.08754
2648.14,0.08861
2644.28,0.08946
2640.43,0.08973
2636.57,0.09028
2632.71,0.09116
2628.85,0.09197
2625,0.09288
2621.14,0.09316
2617.28,0.09377
2613.42,0.09459
2609.57,0.09507
2605.71,0.09580
2601.85,0.09638
2597.99,0.09695
2594.14,0.09742
2590.28,0.09862
2586.42,0.09909
2582.56,0.09914
2578.71,0.09974
2574.85,0.10063
2570.99,0.10170
2567.13,0.10146
2563.28,0.10094
2559.42,0.10079
2555.56,0.10133
2551.7,0.10151
2547.85,0.10155
2543.99,0.10214
2540.13,0.10277
2536.27,0.10276
2532.42,0.10352
2528.56,0.10492
2524.7,0.10564
2520.85,0.10606
2516.99,0.10616
2513.13,0.10667
2509.27,0.10817
2505.42,0.10905
2501.56,0.11017
2497.7,0.11123
2493.84,0.11232
2489.99,0.11394
2486.13,0.11484
2482.27,0.11589
2478.41,0.11677
2474.56,0.11788
2470.7,0.11872
2466.84,0.11938
2462.98,0.12020
2459.13,0.12116
2455.27,0.12203
2451.41,0.12314
2447.55,0.12392
2443.7,0.12530
2439.84,0.12622
2435.98,0.12696
2432.12,0.12768
2428.27,0.12920
2424.41,0.13040
2420.55,0.13087
2416.69,0.13217
2412.84,0.13356
2408.98,0.13456
2405.12,0.13543
2401.26,0.13688
2397.41,0.13803
2393.55,0.13902
2389.69,0.13915
2385.83,0.13893
2381.98,0.13916
2378.12,0.13923
2374.26,0.13784
2370.4,0.13535
2366.55,0.13484
2362.69,0.13424
2358.83,0.13611
2354.97,0.13924
2351.12,0.13769
2347.26,0.13769
2343.4,0.13841
2339.54,0.13819
2335.69,0.13745
2331.83,0.13921
2327.97,0.14041
2324.12,0.14252
2320.26,0.14536
2316.4,0.14595
2312.54,0.14720
2308.69,0.14823
2304.83,0.14804
2300.97,0.14856
2297.11,0.14801
2293.26,0.14729
2289.4,0.14768
2285.54,0.14808
2281.68,0.14778
2277.83,0.14730
2273.97,0.14642
2270.11,0.14560
2266.25,0.14516
2262.4,0.14414
2258.54,0.14408
2254.68,0.14389
2250.82,0.14334
2246.97,0.14345
2243.11,0.14315
2239.25,0.14255
2235.39,0.14177
2231.54,0.14131
2227.68,0.14093
2223.82,0.14101
2219.96,0.14109
2216.11,0.14099
2212.25,0.14044
2208.39,0.14033
2204.53,0.14005
2200.68,0.13863
2196.82,0.13783
2192.96,0.13691
2189.1,0.13604
2185.25,0.13494
2181.39,0.13378
2177.53,0.13204
2173.67,0.13094
2169.82,0.13008
2165.96,0.12893
2162.1,0.12797
2158.24,0.12754
2154.39,0.12673
2150.53,0.12657
2146.67,0.12622
2142.81,0.12541
2138.96,0.12457
2135.1,0.12434
2131.24,0.12464
2127.38,0.12495
2123.53,0.12489
2119.67,0.12505
2115.81,0.12539
2111.96,0.12591
2108.1,0.12674
2104.24,0.12713
2100.38,0.12720
2096.53,0.12745
2092.67,0.12807
2088.81,0.12818
2084.95,0.12804
2081.1,0.12802
2077.24,0.12813
2073.38,0.12681
2069.52,0.12665
2065.67,0.12712
2061.81,0.12628
2057.95,0.12653
2054.09,0.12663
2050.24,0.12681
2046.38,0.12727
2042.52,0.12832
2038.66,0.12922
2034.81,0.13043
2030.95,0.13118
2027.09,0.13214
2023.23,0.13346
2019.38,0.13474
2015.52,0.13633
2011.66,0.13761
2007.8,0.13831
2003.95,0.13906
2000.09,0.13996
1996.23,0.14124
1992.37,0.14247
1988.52,0.14285
1984.66,0.14324
1980.8,0.14392
1976.94,0.14456
1973.09,0.14520
1969.23,0.14609
1965.37,0.14698
1961.51,0.14706
1957.66,0.14827
1953.8,0.14924
1949.94,0.15028
1946.08,0.15191
1942.23,0.15362
1938.37,0.15357
1934.51,0.15425
1930.65,0.15453
1926.8,0.15504
1922.94,0.15664
1919.08,0.15647
1915.23,0.15602
1911.37,0.15622
1907.51,0.15607
1903.65,0.15539
1899.8,0.15531
1895.94,0.15568
1892.08,0.15585
1888.22,0.15600
1884.37,0.15486
1880.51,0.15427
1876.65,0.15396
1872.79,0.15411
1868.94,0.15578
1865.08,0.15364
1861.22,0.15290
1857.36,0.15239
1853.51,0.15109
1849.65,0.15050
1845.79,0.15062
1841.93,0.14889
1838.08,0.14705
1834.22,0.14526
1830.36,0.14539
1826.5,0.14321
1822.65,0.14051
1818.79,0.13817
1814.93,0.13549
1811.07,0.13310
1807.22,0.12922
1803.36,0.12627
1799.5,0.12264
1795.64,0.11914
1791.79,0.11607
1787.93,0.10989
1784.07,0.10548
1780.21,0.10036
1776.36,0.09563
1772.5,0.09119
1768.64,0.08193
1764.78,0.07407
1760.93,0.06690
1757.07,0.05926
1753.21,0.05394
1749.35,0.04933
1745.5,0.04506
1741.64,0.04375
1737.78,0.04210
1733.92,0.04234
1730.07,0.04151
1726.21,0.04083
1722.35,0.04195
1718.5,0.04518
1714.64,0.04670
1710.78,0.04617
1706.92,0.04720
1703.07,0.04780
1699.21,0.04863
1695.35,0.04783
1691.49,0.04669
1687.64,0.04587
1683.78,0.04472
1679.92,0.04192
1676.06,0.04071
1672.21,0.03915
1668.35,0.03673
1664.49,0.03514
1660.63,0.03470
1656.78,0.03491
1652.92,0.03689
1649.06,0.03556
1645.2,0.03584
1641.35,0.03488
1637.49,0.03557
1633.63,0.03546
1629.77,0.03501
1625.92,0.03579
1622.06,0.03582
1618.2,0.03588
1614.34,0.03583
1610.49,0.03546
1606.63,0.03543
1602.77,0.03507
1598.91,0.03553
1595.06,0.03591
1591.2,0.03658
1587.34,0.03804
1583.48,0.04056
1579.63,0.04296
1575.77,0.04744
1571.91,0.04990
1568.05,0.05366
1564.2,0.05573
1560.34,0.05775
1556.48,0.05656
1552.62,0.05681
1548.77,0.05737
1544.91,0.05721
1541.05,0.05663
1537.19,0.05387
1533.34,0.05188
1529.48,0.04690
1525.62,0.04219
1521.76,0.03625
1517.91,0.03089
1514.05,0.02801
1510.19,0.02872
1506.34,0.03132
1502.48,0.03165
1498.62,0.03359
1494.76,0.03472
1490.91,0.03623
1487.05,0.03598
1483.19,0.03476
1479.33,0.03361
1475.48,0.03130
1471.62,0.02923
1467.76,0.02821
1463.9,0.02793
1460.05,0.02809
1456.19,0.02774
1452.33,0.02695
1448.47,0.02769
1444.62,0.02843
1440.76,0.02858
1436.9,0.02750
1433.04,0.02622
1429.19,0.02670
1425.33,0.02714
1421.47,0.02815
1417.61,0.02868
1413.76,0.02918
1409.9,0.02985
1406.04,0.03040
1402.18,0.03030
1398.33,0.03014
1394.47,0.02981
1390.61,0.02858
1386.75,0.02780
1382.9,0.02661
1379.04,0.02595
1375.18,0.02636
1371.32,0.02568
1367.47,0.02618
1363.61,0.02759
1359.75,0.02746
1355.89,0.02805
1352.04,0.02840
1348.18,0.02876
1344.32,0.02775
1340.46,0.02691
1336.61,0.02683
1332.75,0.02690
1328.89,0.02674
1325.03,0.02634
1321.18,0.02634
1317.32,0.02689
1313.46,0.02716
1309.61,0.02774
1305.75,0.02790
1301.89,0.02781
1298.03,0.02786
1294.18,0.02807
1290.32,0.02649
1286.46,0.02595
1282.6,0.02517
1278.75,0.02472
1274.89,0.02471
1271.03,0.02517
1267.17,0.02470
1263.32,0.02506
1259.46,0.02563
1255.6,0.02612
1251.74,0.02655
1247.89,0.02699
1244.03,0.02727
1240.17,0.02734
1236.31,0.02737
1232.46,0.02760
1228.6,0.02710
1224.74,0.02673
1220.88,0.02734
1217.03,0.02792
1213.17,0.02766
1209.31,0.02801
1205.45,0.02798
1201.6,0.02841
1197.74,0.02906
1193.88,0.02904
1190.02,0.02860
1186.17,0.02728
1182.31,0.02687
1178.45,0.02454
1174.59,0.02339
1170.74,0.02272
1166.88,0.02226
1163.02,0.02316
1159.16,0.02493
1155.31,0.02440
1151.45,0.02468
1147.59,0.02405
1143.73,0.02300
1139.88,0.02258
1136.02,0.02197
1132.16,0.02141
1128.3,0.02150
1124.45,0.02049
1120.59,0.02098
1116.73,0.02226
1112.88,0.02178
1109.02,0.02306
1105.16,0.02392
1101.3,0.02276
1097.45,0.02297
1093.59,0.02310
1089.73,0.02390
1085.87,0.02382
1082.02,0.02433
1078.16,0.02461
1074.3,0.02609
1070.44,0.02864
1066.59,0.03090
1062.73,0.03226
1058.87,0.03341
1055.01,0.03556
1051.16,0.03491
1047.3,0.03443
1043.44,0.03460
1039.58,0.03523
1035.73,0.03708
1031.87,0.04024
1028.01,0.04050
1024.15,0.04140
1020.3,0.04195
1016.44,0.04276
1012.58,0.04284
1008.72,0.04214
1004.87,0.04226
1001.01,0.04304
997.151,0.04433
993.294,0.04468
989.437,0.04553
985.579,0.04773
981.722,0.05046
977.864,0.05127
974.007,0.05246
970.149,0.05298
966.292,0.05338
962.434,0.05334
958.577,0.05518
954.719,0.05703
950.862,0.05696
947.005,0.05824
943.147,0.05918
939.29,0.05863
935.432,0.05991
931.575,0.06114
927.717,0.06089
923.86,0.06062
920.002,0.05960
916.145,0.05917
912.287,0.05859
908.43,0.05697
904.573,0.05253
900.715,0.05158
896.858,0.05139
893,0.05160
889.143,0.05330
885.285,0.05387
881.428,0.05324
877.57,0.05326
873.713,0.05423
869.856,0.05481
865.998,0.05413
862.141,0.05395
858.283,0.05429
854.426,0.05495
850.568,0.05544
846.711,0.05634
842.853,0.05613
838.996,0.05481
835.138,0.05310
831.281,0.05088
827.424,0.05050
823.566,0.04927
819.709,0.04772
815.851,0.04720
811.994,0.04622
808.136,0.04593
804.279,0.04792
800.421,0.04759
796.564,0.04654
792.706,0.04695
788.849,0.04703
784.992,0.04635
781.134,0.04481
777.277,0.04601
773.419,0.04476
769.562,0.04310
765.704,0.04327
761.847,0.04279
757.989,0.04297
754.132,0.04252
750.274,0.04179
746.417,0.04074
742.56,0.04055
738.702,0.04018
734.845,0.03956
730.987,0.03946
727.13,0.03897
723.272,0.03717
719.415,0.03724
715.557,0.03772
711.7,0.03673
707.843,0.03657
703.985,0.03552
700.128,0.03729
696.27,0.03678
692.413,0.03589
688.555,0.03664
684.698,0.03515
680.84,0.03446
676.983,0.03541
673.125,0.03461
669.268,0.03673
665.411,0.03537
661.553,0.03412
657.696,0.03448
653.838,0.03583
649.981,0.03585
646.123,0.03497
642.266,0.03500
638.408,0.03593
634.551,0.03617
630.693,0.03616
626.836,0.03342
622.979,0.03229
619.121,0.03536
615.264,0.03495
611.406,0.03505
607.549,0.03596
603.691,0.03767
599.834,0.03628
595.976,0.03726
592.119,0.03873
588.261,0.03871
584.404,0.03864
580.547,0.04134
576.689,0.04080
572.832,0.03959
568.974,0.04060
565.117,0.03718
561.259,0.03844
557.402,0.03989
553.544,0.04291
549.687,0.04456
545.83,0.04291
541.972,0.04208
538.115,0.04210
534.257,0.04325
530.4,0.04190
526.542,0.04216
522.685,0.04206
518.827,0.04564
514.97,0.04430
511.112,0.04493
507.255,0.04116
503.398,0.04817
499.54,0.05116
495.683,0.04444
491.825,0.04232
487.968,0.04875
484.11,0.05328
480.253,0.05264
476.395,0.04541
472.538,0.04500
468.68,0.05119
464.823,0.04598
460.966,0.04164
457.108,0.05107
453.251,0.04706
449.393,0.04408
445.536,0.04513
441.678,0.04775
437.821,0.04342
433.963,0.05113
430.106,0.05938
426.248,0.06028
422.391,0.06360
418.534,0.07092
414.676,0.04629
410.819,0.04742
406.961,0.05747
403.104,0.06618
399.246,0.05998