File: 01_Data/OSB/FTIR/IS/OSB_IS_REFLECT_MEAS_210623_R6.dpt
5996.41,0.52916
5992.55,0.53463
5988.69,0.54044
5984.84,0.53793
5980.98,0.52348
5977.12,0.52168
5973.27,0.51951
5969.41,0.52492
5965.55,0.52472
5961.69,0.52970
5957.84,0.52920
5953.98,0.53215
5950.12,0.53379
5946.26,0.52484
5942.41,0.53138
5938.55,0.53664
5934.69,0.52746
5930.83,0.53122
5926.98,0.53797
5923.12,0.53904
5919.26,0.53182
5915.4,0.51747
5911.55,0.52069
5907.69,0.51959
5903.83,0.52486
5899.97,0.52294
5896.12,0.51471
5892.26,0.52252
5888.4,0.52847
5884.54,0.52523
5880.69,0.52486
5876.83,0.52724
5872.97,0.52316
5869.11,0.52266
5865.26,0.52430
5861.4,0.52518
5857.54,0.52542
5853.68,0.52406
5849.83,0.52682
5845.97,0.53238
5842.11,0.52493
5838.25,0.52371
5834.4,0.52484
5830.54,0.52311
5826.68,0.52455
5822.82,0.52268
5818.97,0.52421
5815.11,0.52022
5811.25,0.52137
5807.39,0.52470
5803.54,0.52411
5799.68,0.52731
5795.82,0.52167
5791.96,0.51996
5788.11,0.52161
5784.25,0.52164
5780.39,0.52271
5776.53,0.52141
5772.68,0.52397
5768.82,0.51647
5764.96,0.52175
5761.11,0.52412
5757.25,0.52712
5753.39,0.52436
5749.53,0.52757
5745.68,0.52792
5741.82,0.53023
5737.96,0.52358
5734.1,0.51704
5730.25,0.52032
5726.39,0.52386
5722.53,0.52672
5718.67,0.52375
5714.82,0.52008
5710.96,0.51996
5707.1,0.52112
5703.24,0.52054
5699.39,0.52015
5695.53,0.52012
5691.67,0.52187
5687.81,0.52222
5683.96,0.52160
5680.1,0.52407
5676.24,0.52748
5672.38,0.52584
5668.53,0.52833
5664.67,0.52629
5660.81,0.52307
5656.95,0.52044
5653.1,0.51927
5649.24,0.51905
5645.38,0.52310
5641.52,0.52292
5637.67,0.51994
5633.81,0.52352
5629.95,0.52269
5626.09,0.52655
5622.24,0.52556
5618.38,0.52982
5614.52,0.52595
5610.66,0.52061
5606.81,0.52066
5602.95,0.52817
5599.09,0.52498
5595.23,0.52370
5591.38,0.52620
5587.52,0.52821
5583.66,0.52675
5579.8,0.52611
5575.95,0.52148
5572.09,0.53163
5568.23,0.53484
5564.38,0.52805
5560.52,0.52847
5556.66,0.53335
5552.8,0.53042
5548.95,0.52801
5545.09,0.52591
5541.23,0.52428
5537.37,0.53461
5533.52,0.53585
5529.66,0.53553
5525.8,0.52860
5521.94,0.52763
5518.09,0.53158
5514.23,0.52896
5510.37,0.52719
5506.51,0.52975
5502.66,0.53453
5498.8,0.53603
5494.94,0.52941
5491.08,0.52720
5487.23,0.53386
5483.37,0.53318
5479.51,0.53526
5475.65,0.53420
5471.8,0.53303
5467.94,0.53396
5464.08,0.53324
5460.22,0.53798
5456.37,0.53921
5452.51,0.54435
5448.65,0.54837
5444.79,0.54324
5440.94,0.55178
5437.08,0.54395
5433.22,0.54209
5429.36,0.54356
5425.51,0.54114
5421.65,0.54924
5417.79,0.54738
5413.93,0.54122
5410.08,0.54368
5406.22,0.54701
5402.36,0.54423
5398.5,0.54767
5394.65,0.55210
5390.79,0.54745
5386.93,0.54409
5383.07,0.54371
5379.22,0.54404
5375.36,0.54625
5371.5,0.54797
5367.65,0.54780
5363.79,0.54872
5359.93,0.54887
5356.07,0.54150
5352.22,0.53783
5348.36,0.53775
5344.5,0.53368
5340.64,0.53306
5336.79,0.53609
5332.93,0.53593
5329.07,0.53331
5325.21,0.53409
5321.36,0.52557
5317.5,0.52133
5313.64,0.52299
5309.78,0.51810
5305.93,0.51680
5302.07,0.51223
5298.21,0.50123
5294.35,0.49714
5290.5,0.49042
5286.64,0.48312
5282.78,0.47278
5278.92,0.46490
5275.07,0.46047
5271.21,0.45201
5267.35,0.44283
5263.49,0.42983
5259.64,0.42386
5255.78,0.42165
5251.92,0.41225
5248.06,0.40002
5244.21,0.39576
5240.35,0.39291
5236.49,0.38794
5232.63,0.37855
5228.78,0.37258
5224.92,0.36920
5221.06,0.36903
5217.2,0.36889
5213.35,0.36397
5209.49,0.36456
5205.63,0.36097
5201.77,0.35705
5197.92,0.35549
5194.06,0.35417
5190.2,0.35714
5186.34,0.35385
5182.49,0.35324
5178.63,0.35514
5174.77,0.35859
5170.91,0.36152
5167.06,0.36180
5163.2,0.36157
5159.34,0.36254
5155.49,0.36141
5151.63,0.36586
5147.77,0.37088
5143.91,0.37143
5140.06,0.37496
5136.2,0.37968
5132.34,0.38169
5128.48,0.38600
5124.63,0.38499
5120.77,0.38187
5116.91,0.38725
5113.05,0.38938
5109.2,0.39245
5105.34,0.39556
5101.48,0.39693
5097.62,0.39623
5093.77,0.39874
5089.91,0.39997
5086.05,0.40562
5082.19,0.40611
5078.34,0.40676
5074.48,0.41222
5070.62,0.41219
5066.76,0.41594
5062.91,0.42128
5059.05,0.41727
5055.19,0.41971
5051.33,0.42433
5047.48,0.42476
5043.62,0.42552
5039.76,0.42652
5035.9,0.43332
5032.05,0.43429
5028.19,0.43501
5024.33,0.44061
5020.47,0.43741
5016.62,0.44002
5012.76,0.44072
5008.9,0.44293
5005.04,0.44538
5001.19,0.44412
4997.33,0.44329
4993.47,0.44546
4989.61,0.44606
4985.76,0.44939
4981.9,0.44838
4978.04,0.44761
4974.18,0.44488
4970.33,0.44397
4966.47,0.44798
4962.61,0.44698
4958.76,0.44480
4954.9,0.44480
4951.04,0.44175
4947.18,0.44182
4943.33,0.44190
4939.47,0.43921
4935.61,0.43274
4931.75,0.43302
4927.9,0.43142
4924.04,0.42821
4920.18,0.42381
4916.32,0.42399
4912.47,0.42232
4908.61,0.42004
4904.75,0.42075
4900.89,0.41582
4897.04,0.41036
4893.18,0.40702
4889.32,0.40441
4885.46,0.40469
4881.61,0.40380
4877.75,0.39965
4873.89,0.39682
4870.03,0.39199
4866.18,0.39092
4862.32,0.39046
4858.46,0.38756
4854.6,0.38384
4850.75,0.38379
4846.89,0.38116
4843.03,0.38099
4839.17,0.37852
4835.32,0.37454
4831.46,0.37294
4827.6,0.37165
4823.74,0.37032
4819.89,0.36940
4816.03,0.36774
4812.17,0.36495
4808.31,0.36579
4804.46,0.36609
4800.6,0.36501
4796.74,0.36586
4792.88,0.36521
4789.03,0.36411
4785.17,0.36396
4781.31,0.36053
4777.45,0.35681
4773.6,0.35975
4769.74,0.35797
4765.88,0.35954
4762.02,0.35820
4758.17,0.35793
4754.31,0.35640
4750.45,0.35855
4746.6,0.35881
4742.74,0.35693
4738.88,0.35887
4735.02,0.35941
4731.17,0.35960
4727.31,0.36041
4723.45,0.35836
4719.59,0.36026
4715.74,0.36050
4711.88,0.36223
4708.02,0.36054
4704.16,0.36102
4700.31,0.36263
4696.45,0.36445
4692.59,0.36486
4688.73,0.36321
4684.88,0.36207
4681.02,0.36471
4677.16,0.36596
4673.3,0.36512
4669.45,0.36463
4665.59,0.36713
4661.73,0.36863
4657.87,0.37001
4654.02,0.37128
4650.16,0.37213
4646.3,0.37277
4642.44,0.37607
4638.59,0.37756
4634.73,0.37673
4630.87,0.38064
4627.01,0.38217
4623.16,0.38438
4619.3,0.38683
4615.44,0.38904
4611.58,0.39156
4607.73,0.39058
4603.87,0.39308
4600.01,0.39523
4596.15,0.39583
4592.3,0.39828
4588.44,0.40024
4584.58,0.40018
4580.72,0.40343
4576.87,0.40463
4573.01,0.40479
4569.15,0.40603
4565.29,0.40614
4561.44,0.40821
4557.58,0.40810
4553.72,0.40818
4549.87,0.40955
4546.01,0.41231
4542.15,0.41114
4538.29,0.41177
4534.44,0.41196
4530.58,0.41577
4526.72,0.41360
4522.86,0.41268
4519.01,0.41240
4515.15,0.41159
4511.29,0.41307
4507.43,0.41314
4503.58,0.41022
4499.72,0.41060
4495.86,0.40995
4492,0.40713
4488.15,0.40487
4484.29,0.40183
4480.43,0.39995
4476.57,0.39647
4472.72,0.39272
4468.86,0.38950
4465,0.38527
4461.14,0.37993
4457.29,0.37648
4453.43,0.37490
4449.57,0.37105
4445.71,0.36596
4441.86,0.36143
4438,0.35751
4434.14,0.35427
4430.28,0.34882
4426.43,0.34384
4422.57,0.34120
4418.71,0.33564
4414.85,0.33143
4411,0.32792
4407.14,0.32504
4403.28,0.32472
4399.42,0.32398
4395.57,0.32296
4391.71,0.32289
4387.85,0.32372
4383.99,0.32427
4380.14,0.32534
4376.28,0.32681
4372.42,0.32775
4368.56,0.33023
4364.71,0.33127
4360.85,0.33157
4356.99,0.33246
4353.14,0.33242
4349.28,0.33119
4345.42,0.32968
4341.56,0.32763
4337.71,0.32722
4333.85,0.32659
4329.99,0.32590
4326.13,0.32415
4322.28,0.32129
4318.42,0.32138
4314.56,0.32088
4310.7,0.32042
4306.85,0.31820
4302.99,0.31778
4299.13,0.31558
4295.27,0.31547
4291.42,0.31623
4287.56,0.31508
4283.7,0.31332
4279.84,0.31289
4275.99,0.31065
4272.13,0.31145
4268.27,0.31236
4264.41,0.31221
4260.56,0.31438
4256.7,0.31458
4252.84,0.31458
4248.98,0.31610
4245.13,0.31685
4241.27,0.31722
4237.41,0.31606
4233.55,0.31737
4229.7,0.31742
4225.84,0.31606
4221.98,0.31665
4218.12,0.31600
4214.27,0.31568
4210.41,0.31606
4206.55,0.31621
4202.69,0.31584
4198.84,0.31719
4194.98,0.31659
4191.12,0.31701
4187.26,0.31699
4183.41,0.31847
4179.55,0.31952
4175.69,0.31962
4171.83,0.32046
4167.98,0.32125
4164.12,0.32134
4160.26,0.32136
4156.4,0.32065
4152.55,0.32021
4148.69,0.31912
4144.83,0.31788
4140.98,0.31534
4137.12,0.31464
4133.26,0.31376
4129.4,0.31094
4125.55,0.30889
4121.69,0.30603
4117.83,0.30320
4113.97,0.30018
4110.12,0.29768
4106.26,0.29510
4102.4,0.29233
4098.54,0.28906
4094.69,0.28614
4090.83,0.28319
4086.97,0.27973
4083.11,0.27709
4079.26,0.27466
4075.4,0.27195
4071.54,0.27003
4067.68,0.26807
4063.83,0.26538
4059.97,0.26038
4056.11,0.25769
4052.25,0.25613
4048.4,0.25330
4044.54,0.24943
4040.68,0.24767
4036.82,0.24575
4032.97,0.24269
4029.11,0.24252
4025.25,0.24189
4021.39,0.24140
4017.54,0.24058
4013.68,0.23942
4009.82,0.23867
4005.96,0.23893
4002.11,0.23930
3998.25,0.23973
3994.39,0.24080
3990.53,0.24238
3986.68,0.24304
3982.82,0.24359
3978.96,0.24503
3975.1,0.24642
3971.25,0.24635
3967.39,0.24603
3963.53,0.24731
3959.67,0.24897
3955.82,0.24986
3951.96,0.25056
3948.1,0.25247
3944.25,0.25444
3940.39,0.25557
3936.53,0.25585
3932.67,0.25859
3928.82,0.26105
3924.96,0.26284
3921.1,0.26371
3917.24,0.26580
3913.39,0.26615
3909.53,0.26668
3905.67,0.26812
3901.81,0.26918
3897.96,0.26922
3894.1,0.27020
3890.24,0.27144
3886.38,0.27326
3882.53,0.27423
3878.67,0.27455
3874.81,0.27645
3870.95,0.27793
3867.1,0.27686
3863.24,0.27850
3859.38,0.27776
3855.52,0.27796
3851.67,0.28072
3847.81,0.28260
3843.95,0.28449
3840.09,0.28433
3836.24,0.28550
3832.38,0.28577
3828.52,0.28658
3824.66,0.28517
3820.81,0.28472
3816.95,0.28423
3813.09,0.28552
3809.23,0.28512
3805.38,0.28266
3801.52,0.28355
3797.66,0.28352
3793.8,0.28417
3789.95,0.28459
3786.09,0.28409
3782.23,0.28241
3778.37,0.28174
3774.52,0.28028
3770.66,0.27957
3766.8,0.27688
3762.94,0.27418
3759.09,0.27319
3755.23,0.26982
3751.37,0.26851
3747.51,0.26415
3743.66,0.26286
3739.8,0.26005
3735.94,0.25725
3732.09,0.25353
3728.23,0.25215
3724.37,0.24862
3720.51,0.24537
3716.66,0.24286
3712.8,0.23956
3708.94,0.23276
3705.08,0.22670
3701.23,0.22055
3697.37,0.21398
3693.51,0.20607
3689.65,0.19695
3685.8,0.18621
3681.94,0.17831
3678.08,0.16925
3674.22,0.15638
3670.37,0.14445
3666.51,0.13276
3662.65,0.12458
3658.79,0.11556
3654.94,0.10710
3651.08,0.10007
3647.22,0.09149
3643.36,0.08549
3639.51,0.08038
3635.65,0.07515
3631.79,0.07231
3627.93,0.06941
3624.08,0.06529
3620.22,0.06289
3616.36,0.05878
3612.5,0.05595
3608.65,0.05554
3604.79,0.05322
3600.93,0.05132
3597.07,0.05001
3593.22,0.04797
3589.36,0.04701
3585.5,0.04560
3581.64,0.04452
3577.79,0.04306
3573.93,0.04157
3570.07,0.04030
3566.21,0.04056
3562.36,0.03931
3558.5,0.03738
3554.64,0.03653
3550.78,0.03559
3546.93,0.03583
3543.07,0.03587
3539.21,0.03438
3535.36,0.03230
3531.5,0.03296
3527.64,0.03234
3523.78,0.03236
3519.93,0.03275
3516.07,0.03186
3512.21,0.03068
3508.35,0.02974
3504.5,0.02991
3500.64,0.02992
3496.78,0.02954
3492.92,0.02897
3489.07,0.02827
3485.21,0.02833
3481.35,0.02860
3477.49,0.02749
3473.64,0.02726
3469.78,0.02717
3465.92,0.02601
3462.06,0.02689
3458.21,0.02739
3454.35,0.02680
3450.49,0.02596
3446.63,0.02669
3442.78,0.02668
3438.92,0.02645
3435.06,0.02533
3431.2,0.02626
3427.35,0.02671
3423.49,0.02571
3419.63,0.02557
3415.77,0.02536
3411.92,0.02505
3408.06,0.02483
3404.2,0.02568
3400.34,0.02596
3396.49,0.02634
3392.63,0.02687
3388.77,0.02628
3384.91,0.02601
3381.06,0.02639
3377.2,0.02693
3373.34,0.02601
3369.48,0.02567
3365.63,0.02543
3361.77,0.02629
3357.91,0.02724
3354.05,0.02767
3350.2,0.02776
3346.34,0.02709
3342.48,0.02787
3338.63,0.02827
3334.77,0.02802
3330.91,0.02936
3327.05,0.03109
3323.2,0.03020
3319.34,0.03014
3315.48,0.03062
3311.62,0.03128
3307.77,0.03182
3303.91,0.03176
3300.05,0.03154
3296.19,0.03226
3292.34,0.03275
3288.48,0.03271
3284.62,0.03257
3280.76,0.03215
3276.91,0.03341
3273.05,0.03440
3269.19,0.03482
3265.33,0.03543
3261.48,0.03544
3257.62,0.03495
3253.76,0.03621
3249.9,0.03579
3246.05,0.03634
3242.19,0.03700
3238.33,0.03722
3234.47,0.03829
3230.62,0.03888
3226.76,0.03945
3222.9,0.04004
3219.04,0.04061
3215.19,0.04121
3211.33,0.04171
3207.47,0.04198
3203.61,0.04316
3199.76,0.04343
3195.9,0.04438
3192.04,0.04494
3188.18,0.04589
3184.33,0.04640
3180.47,0.04706
3176.61,0.04805
3172.75,0.04862
3168.9,0.04893
3165.04,0.04977
3161.18,0.05042
3157.32,0.05077
3153.47,0.05110
3149.61,0.05235
3145.75,0.05343
3141.89,0.05385
3138.04,0.05442
3134.18,0.05547
3130.32,0.05602
3126.47,0.05684
3122.61,0.05804
3118.75,0.05892
3114.89,0.05924
3111.04,0.05978
3107.18,0.06091
3103.32,0.06211
3099.46,0.06340
3095.61,0.06416
3091.75,0.06507
3087.89,0.06501
3084.03,0.06609
3080.18,0.06720
3076.32,0.06738
3072.46,0.06805
3068.6,0.06884
3064.75,0.06941
3060.89,0.06980
3057.03,0.07091
3053.17,0.07245
3049.32,0.07393
3045.46,0.07414
3041.6,0.07416
3037.74,0.07429
3033.89,0.07515
3030.03,0.07629
3026.17,0.07675
3022.31,0.07603
3018.46,0.07505
3014.6,0.07557
3010.74,0.07555
3006.88,0.07458
3003.03,0.07468
2999.17,0.07352
2995.31,0.07253
2991.45,0.07152
2987.6,0.07002
2983.74,0.06877
2979.88,0.06627
2976.02,0.06347
2972.17,0.06030
2968.31,0.05788
2964.45,0.05662
2960.59,0.05424
2956.74,0.05297
2952.88,0.05191
2949.02,0.05033
2945.16,0.04878
2941.31,0.04872
2937.45,0.04817
2933.59,0.04738
2929.74,0.04681
2925.88,0.04759
2922.02,0.04736
2918.16,0.04716
2914.31,0.04801
2910.45,0.04919
2906.59,0.04972
2902.73,0.04990
2898.88,0.04952
2895.02,0.04972
2891.16,0.05083
2887.3,0.05150
2883.45,0.05180
2879.59,0.05252
2875.73,0.05315
2871.87,0.05384
2868.02,0.05488
2864.16,0.05532
2860.3,0.05555
2856.44,0.05698
2852.59,0.05765
2848.73,0.05869
2844.87,0.06233
2841.01,0.06624
2837.16,0.06884
2833.3,0.07195
2829.44,0.07545
2825.58,0.07876
2821.73,0.08190
2817.87,0.08387
2814.01,0.08622
2810.15,0.08859
2806.3,0.09020
2802.44,0.09231
2798.58,0.09392
2794.72,0.09514
2790.87,0.09688
2787.01,0.09841
2783.15,0.09892
2779.29,0.09915
2775.44,0.09921
2771.58,0.10035
2767.72,0.10102
2763.86,0.10166
2760.01,0.10239
2756.15,0.10318
2752.29,0.10323
2748.43,0.10323
2744.58,0.10355
2740.72,0.10421
2736.86,0.10482
2733.01,0.10511
2729.15,0.10557
2725.29,0.10684
2721.43,0.10731
2717.58,0.10847
2713.72,0.10952
2709.86,0.11074
2706,0.11165
2702.15,0.11293
2698.29,0.11436
2694.43,0.11564
2690.57,0.11692
2686.72,0.11793
2682.86,0.11890
2679,0.11995
2675.14,0.12104
2671.29,0.12237
2667.43,0.12289
2663.57,0.12404
2659.71,0.12497
2655.86,0.12540
2652,0.12660
2648.14,0.12751
2644.28,0.12854
2640.43,0.12940
2636.57,0.13025
2632.71,0.13109
2628.85,0.13219
2625,0.13365
2621.14,0.13467
2617.28,0.13546
2613.42,0.13623
2609.57,0.13665
2605.71,0.13777
2601.85,0.13870
2597.99,0.13958
2594.14,0.14094
2590.28,0.14133
2586.42,0.14183
2582.56,0.14294
2578.71,0.14336
2574.85,0.14395
2570.99,0.14556
2567.13,0.14566
2563.28,0.14550
2559.42,0.14619
2555.56,0.14662
2551.7,0.14665
2547.85,0.14635
2543.99,0.14676
2540.13,0.14790
2536.27,0.14818
2532.42,0.14880
2528.56,0.14988
2524.7,0.15089
2520.85,0.15190
2516.99,0.15264
2513.13,0.15313
2509.27,0.15472
2505.42,0.15602
2501.56,0.15796
2497.7,0.15922
2493.84,0.16048
2489.99,0.16240
2486.13,0.16399
2482.27,0.16499
2478.41,0.16549
2474.56,0.16695
2470.7,0.16845
2466.84,0.16944
2462.98,0.17059
2459.13,0.17190
2455.27,0.17302
2451.41,0.17447
2447.55,0.17595
2443.7,0.17705
2439.84,0.17850
2435.98,0.18004
2432.12,0.18066
2428.27,0.18200
2424.41,0.18356
2420.55,0.18512
2416.69,0.18654
2412.84,0.18800
2408.98,0.18956
2405.12,0.19058
2401.26,0.19177
2397.41,0.19253
2393.55,0.19392
2389.69,0.19472
2385.83,0.19481
2381.98,0.19427
2378.12,0.19325
2374.26,0.19138
2370.4,0.19052
2366.55,0.19132
2362.69,0.19065
2358.83,0.18915
2354.97,0.18947
2351.12,0.18795
2347.26,0.19002
2343.4,0.19148
2339.54,0.18864
2335.69,0.18943
2331.83,0.19133
2327.97,0.19440
2324.12,0.19743
2320.26,0.19952
2316.4,0.20189
2312.54,0.20280
2308.69,0.20396
2304.83,0.20431
2300.97,0.20357
2297.11,0.20392
2293.26,0.20418
2289.4,0.20392
2285.54,0.20342
2281.68,0.20272
2277.83,0.20175
2273.97,0.20104
2270.11,0.20056
2266.25,0.19967
2262.4,0.19880
2258.54,0.19816
2254.68,0.19750
2250.82,0.19736
2246.97,0.19677
2243.11,0.19656
2239.25,0.19580
2235.39,0.19526
2231.54,0.19427
2227.68,0.19412
2223.82,0.19395
2219.96,0.19358
2216.11,0.19338
2212.25,0.19246
2208.39,0.19200
2204.53,0.19115
2200.68,0.18996
2196.82,0.18858
2192.96,0.18716
2189.1,0.18655
2185.25,0.18474
2181.39,0.18245
2177.53,0.18130
2173.67,0.17996
2169.82,0.17805
2165.96,0.17693
2162.1,0.17564
2158.24,0.17458
2154.39,0.17343
2150.53,0.17276
2146.67,0.17254
2142.81,0.17151
2138.96,0.17128
2135.1,0.17077
2131.24,0.17047
2127.38,0.17067
2123.53,0.17070
2119.67,0.17099
2115.81,0.17189
2111.96,0.17290
2108.1,0.17327
2104.24,0.17363
2100.38,0.17382
2096.53,0.17410
2092.67,0.17444
2088.81,0.17466
2084.95,0.17438
2081.1,0.17445
2077.24,0.17450
2073.38,0.17380
2069.52,0.17311
2065.67,0.17260
2061.81,0.17169
2057.95,0.17140
2054.09,0.17183
2050.24,0.17220
2046.38,0.17350
2042.52,0.17497
2038.66,0.17574
2034.81,0.17697
2030.95,0.17843
2027.09,0.17968
2023.23,0.18205
2019.38,0.18369
2015.52,0.18498
2011.66,0.18617
2007.8,0.18776
2003.95,0.18873
2000.09,0.19007
1996.23,0.19063
1992.37,0.19229
1988.52,0.19355
1984.66,0.19438
1980.8,0.19547
1976.94,0.19632
1973.09,0.19690
1969.23,0.19817
1965.37,0.19961
1961.51,0.20030
1957.66,0.20172
1953.8,0.20282
1949.94,0.20409
1946.08,0.20602
1942.23,0.20871
1938.37,0.20880
1934.51,0.20944
1930.65,0.20963
1926.8,0.21037
1922.94,0.21225
1919.08,0.21246
1915.23,0.21190
1911.37,0.21217
1907.51,0.21231
1903.65,0.21158
1899.8,0.21158
1895.94,0.21205
1892.08,0.21136
1888.22,0.21120
1884.37,0.21020
1880.51,0.20995
1876.65,0.20969
1872.79,0.21017
1868.94,0.21219
1865.08,0.20966
1861.22,0.20808
1857.36,0.20745
1853.51,0.20674
1849.65,0.20571
1845.79,0.20645
1841.93,0.20427
1838.08,0.20193
1834.22,0.20009
1830.36,0.19980
1826.5,0.19699
1822.65,0.19377
1818.79,0.19084
1814.93,0.18779
1811.07,0.18431
1807.22,0.18022
1803.36,0.17641
1799.5,0.17227
1795.64,0.16776
1791.79,0.16289
1787.93,0.15553
1784.07,0.14969
1780.21,0.14282
1776.36,0.13540
1772.5,0.12779
1768.64,0.11508
1764.78,0.10398
1760.93,0.09279
1757.07,0.08067
1753.21,0.07245
1749.35,0.06617
1745.5,0.05991
1741.64,0.05702
1737.78,0.05510
1733.92,0.05613
1730.07,0.05607
1726.21,0.05624
1722.35,0.05767
1718.5,0.06139
1714.64,0.06432
1710.78,0.06508
1706.92,0.06785
1703.07,0.06900
1699.21,0.07039
1695.35,0.06838
1691.49,0.06613
1687.64,0.06497
1683.78,0.06369
1679.92,0.05828
1676.06,0.05629
1672.21,0.05434
1668.35,0.05109
1664.49,0.04859
1660.63,0.04755
1656.78,0.04736
1652.92,0.04895
1649.06,0.04802
1645.2,0.04842
1641.35,0.04837
1637.49,0.04964
1633.63,0.04841
1629.77,0.04802
1625.92,0.04901
1622.06,0.04932
1618.2,0.04873
1614.34,0.04790
1610.49,0.04763
1606.63,0.04779
1602.77,0.04789
1598.91,0.04889
1595.06,0.04939
1591.2,0.05010
1587.34,0.05270
1583.48,0.05553
1579.63,0.05884
1575.77,0.06532
1571.91,0.06952
1568.05,0.07355
1564.2,0.07644
1560.34,0.07975
1556.48,0.08036
1552.62,0.08052
1548.77,0.08106
1544.91,0.08118
1541.05,0.07947
1537.19,0.07589
1533.34,0.07265
1529.48,0.06566
1525.62,0.05866
1521.76,0.05064
1517.91,0.04251
1514.05,0.03859
1510.19,0.03818
1506.34,0.04129
1502.48,0.04350
1498.62,0.04697
1494.76,0.04974
1490.91,0.05045
1487.05,0.04952
1483.19,0.04762
1479.33,0.04559
1475.48,0.04389
1471.62,0.03949
1467.76,0.03733
1463.9,0.03707
1460.05,0.03828
1456.19,0.03935
1452.33,0.03768
1448.47,0.03799
1444.62,0.03854
1440.76,0.03859
1436.9,0.03747
1433.04,0.03646
1429.19,0.03600
1425.33,0.03656
1421.47,0.03830
1417.61,0.04030
1413.76,0.04009
1409.9,0.04107
1406.04,0.04155
1402.18,0.04113
1398.33,0.04161
1394.47,0.04122
1390.61,0.03951
1386.75,0.03748
1382.9,0.03529
1379.04,0.03463
1375.18,0.03440
1371.32,0.03473
1367.47,0.03554
1363.61,0.03718
1359.75,0.03804
1355.89,0.03782
1352.04,0.03767
1348.18,0.03824
1344.32,0.03825
1340.46,0.03789
1336.61,0.03758
1332.75,0.03721
1328.89,0.03707
1325.03,0.03685
1321.18,0.03690
1317.32,0.03664
1313.46,0.03762
1309.61,0.03874
1305.75,0.03873
1301.89,0.03894
1298.03,0.03848
1294.18,0.03784
1290.32,0.03631
1286.46,0.03452
1282.6,0.03340
1278.75,0.03346
1274.89,0.03275
1271.03,0.03284
1267.17,0.03328
1263.32,0.03372
1259.46,0.03452
1255.6,0.03525
1251.74,0.03556
1247.89,0.03616
1244.03,0.03556
1240.17,0.03531
1236.31,0.03673
1232.46,0.03662
1228.6,0.03623
1224.74,0.03652
1220.88,0.03667
1217.03,0.03707
1213.17,0.03724
1209.31,0.03762
1205.45,0.03763
1201.6,0.03849
1197.74,0.03867
1193.88,0.03800
1190.02,0.03742
1186.17,0.03537
1182.31,0.03307
1178.45,0.03164
1174.59,0.03042
1170.74,0.03010
1166.88,0.03084
1163.02,0.03125
1159.16,0.03230
1155.31,0.03190
1151.45,0.03210
1147.59,0.03089
1143.73,0.03141
1139.88,0.03064
1136.02,0.02955
1132.16,0.02930
1128.3,0.02905
1124.45,0.02858
1120.59,0.02846
1116.73,0.02874
1112.88,0.02950
1109.02,0.03098
1105.16,0.03232
1101.3,0.03235
1097.45,0.03159
1093.59,0.03103
1089.73,0.02978
1085.87,0.03134
1082.02,0.03244
1078.16,0.03274
1074.3,0.03432
1070.44,0.03493
1066.59,0.03802
1062.73,0.04248
1058.87,0.04526
1055.01,0.04580
1051.16,0.04682
1047.3,0.04712
1043.44,0.04653
1039.58,0.04698
1035.73,0.05049
1031.87,0.05280
1028.01,0.05484
1024.15,0.05588
1020.3,0.05657
1016.44,0.05834
1012.58,0.05845
1008.72,0.06016
1004.87,0.06101
1001.01,0.06229
997.151,0.06388
993.294,0.06425
989.437,0.06673
985.579,0.07018
981.722,0.07432
977.864,0.07588
974.007,0.07721
970.149,0.07823
966.292,0.07797
962.434,0.07937
958.577,0.08116
954.719,0.08417
950.862,0.08569
947.005,0.08525
943.147,0.08472
939.29,0.08635
935.432,0.08776
931.575,0.08850
927.717,0.08883
923.86,0.08815
920.002,0.08727
916.145,0.08817
912.287,0.08486
908.43,0.08086
904.573,0.07816
900.715,0.07649
896.858,0.07612
893,0.07828
889.143,0.07975
885.285,0.08028
881.428,0.08188
877.57,0.08187
873.713,0.08028
869.856,0.07818
865.998,0.07975
862.141,0.07965
858.283,0.07966
854.426,0.08041
850.568,0.08174
846.711,0.08220
842.853,0.08366
838.996,0.08073
835.138,0.07966
831.281,0.07902
827.424,0.07716
823.566,0.07535
819.709,0.07290
815.851,0.07076
811.994,0.07050
808.136,0.07103
804.279,0.07065
800.421,0.07183
796.564,0.07188
792.706,0.07154
788.849,0.07079
784.992,0.07027
781.134,0.06947
777.277,0.06908
773.419,0.06932
769.562,0.06811
765.704,0.06712
761.847,0.06664
757.989,0.06486
754.132,0.06464
750.274,0.06403
746.417,0.06339
742.56,0.06191
738.702,0.06077
734.845,0.06166
730.987,0.05978
727.13,0.05838
723.272,0.05876
719.415,0.05742
715.557,0.05647
711.7,0.05614
707.843,0.05479
703.985,0.05473
700.128,0.05617
696.27,0.05686
692.413,0.05644
688.555,0.05541
684.698,0.05383
680.84,0.05430
676.983,0.05340
673.125,0.05119
669.268,0.05615
665.411,0.05658
661.553,0.05548
657.696,0.05484
653.838,0.05417
649.981,0.05359
646.123,0.05425
642.266,0.05411
638.408,0.05310
634.551,0.05156
630.693,0.05176
626.836,0.05155
622.979,0.05181
619.121,0.05440
615.264,0.05372
611.406,0.05450
607.549,0.05670
603.691,0.05837
599.834,0.05779
595.976,0.05649
592.119,0.05966
588.261,0.05984
584.404,0.06101
580.547,0.06060
576.689,0.05886
572.832,0.05893
568.974,0.06107
565.117,0.06116
561.259,0.06418
557.402,0.06518
553.544,0.06221
549.687,0.06441
545.83,0.06564
541.972,0.06362
538.115,0.06543
534.257,0.06763
530.4,0.06936
526.542,0.06754
522.685,0.06817
518.827,0.06702
514.97,0.07056
511.112,0.06915
507.255,0.07203
503.398,0.07246
499.54,0.06876
495.683,0.06579
491.825,0.06839
487.968,0.07083
484.11,0.07521
480.253,0.07183
476.395,0.07143
472.538,0.07446
468.68,0.07455
464.823,0.06556
460.966,0.07384
457.108,0.07985
453.251,0.07992
449.393,0.07645
445.536,0.07172
441.678,0.08015
437.821,0.08426
433.963,0.08094
430.106,0.08570
426.248,0.07879
422.391,0.07678
418.534,0.08425
414.676,0.08305
410.819,0.08370
406.961,0.07769
403.104,0.08186
399.246,0.08642