File: 01_Data/OSB/FTIR/IS/OSB_IS_REFLECT_MEAS_210623_R2.dpt
5996.41,0.45695
5992.55,0.45524
5988.69,0.45730
5984.84,0.45689
5980.98,0.45574
5977.12,0.45054
5973.27,0.44760
5969.41,0.45323
5965.55,0.44982
5961.69,0.45067
5957.84,0.45070
5953.98,0.45668
5950.12,0.45356
5946.26,0.45196
5942.41,0.45922
5938.55,0.45230
5934.69,0.45123
5930.83,0.45505
5926.98,0.45168
5923.12,0.45603
5919.26,0.45874
5915.4,0.44654
5911.55,0.44941
5907.69,0.44401
5903.83,0.44904
5899.97,0.44972
5896.12,0.44944
5892.26,0.45107
5888.4,0.45225
5884.54,0.44793
5880.69,0.44798
5876.83,0.44939
5872.97,0.44519
5869.11,0.44094
5865.26,0.44445
5861.4,0.44868
5857.54,0.45612
5853.68,0.45439
5849.83,0.44675
5845.97,0.44761
5842.11,0.44703
5838.25,0.44267
5834.4,0.44061
5830.54,0.44001
5826.68,0.44097
5822.82,0.44415
5818.97,0.44674
5815.11,0.44408
5811.25,0.45240
5807.39,0.44450
5803.54,0.43922
5799.68,0.44165
5795.82,0.44219
5791.96,0.43939
5788.11,0.44983
5784.25,0.44251
5780.39,0.43959
5776.53,0.44312
5772.68,0.44668
5768.82,0.44395
5764.96,0.44057
5761.11,0.44822
5757.25,0.45455
5753.39,0.44695
5749.53,0.44414
5745.68,0.45115
5741.82,0.45340
5737.96,0.44626
5734.1,0.44663
5730.25,0.45101
5726.39,0.45639
5722.53,0.44965
5718.67,0.44862
5714.82,0.44927
5710.96,0.44579
5707.1,0.44112
5703.24,0.44440
5699.39,0.44069
5695.53,0.44102
5691.67,0.44448
5687.81,0.44603
5683.96,0.44850
5680.1,0.44222
5676.24,0.44579
5672.38,0.44327
5668.53,0.43893
5664.67,0.44161
5660.81,0.43798
5656.95,0.43618
5653.1,0.44021
5649.24,0.44045
5645.38,0.44050
5641.52,0.44026
5637.67,0.43684
5633.81,0.44366
5629.95,0.44485
5626.09,0.44378
5622.24,0.44356
5618.38,0.44380
5614.52,0.44600
5610.66,0.44279
5606.81,0.43843
5602.95,0.44533
5599.09,0.44884
5595.23,0.44543
5591.38,0.44527
5587.52,0.44747
5583.66,0.44282
5579.8,0.44484
5575.95,0.44161
5572.09,0.44526
5568.23,0.44699
5564.38,0.44532
5560.52,0.44941
5556.66,0.45061
5552.8,0.45206
5548.95,0.45026
5545.09,0.44265
5541.23,0.44546
5537.37,0.45240
5533.52,0.45002
5529.66,0.44824
5525.8,0.44540
5521.94,0.44524
5518.09,0.45029
5514.23,0.44930
5510.37,0.45030
5506.51,0.45021
5502.66,0.44782
5498.8,0.44802
5494.94,0.44448
5491.08,0.44287
5487.23,0.44852
5483.37,0.44980
5479.51,0.45232
5475.65,0.45236
5471.8,0.45412
5467.94,0.45803
5464.08,0.45345
5460.22,0.45971
5456.37,0.46200
5452.51,0.46266
5448.65,0.46321
5444.79,0.46432
5440.94,0.46289
5437.08,0.46072
5433.22,0.45944
5429.36,0.45803
5425.51,0.46262
5421.65,0.46950
5417.79,0.46902
5413.93,0.45852
5410.08,0.46358
5406.22,0.46118
5402.36,0.45792
5398.5,0.46352
5394.65,0.46717
5390.79,0.46979
5386.93,0.46521
5383.07,0.46468
5379.22,0.46506
5375.36,0.46489
5371.5,0.46774
5367.65,0.46452
5363.79,0.46560
5359.93,0.46649
5356.07,0.45831
5352.22,0.45292
5348.36,0.45795
5344.5,0.45401
5340.64,0.44957
5336.79,0.44788
5332.93,0.45019
5329.07,0.45020
5325.21,0.44817
5321.36,0.44272
5317.5,0.43924
5313.64,0.43909
5309.78,0.43603
5305.93,0.43085
5302.07,0.42450
5298.21,0.41581
5294.35,0.41155
5290.5,0.40468
5286.64,0.40166
5282.78,0.39381
5278.92,0.38460
5275.07,0.37842
5271.21,0.36812
5267.35,0.35734
5263.49,0.34594
5259.64,0.34057
5255.78,0.33670
5251.92,0.32684
5248.06,0.31664
5244.21,0.31294
5240.35,0.31056
5236.49,0.30815
5232.63,0.30190
5228.78,0.29610
5224.92,0.29218
5221.06,0.29198
5217.2,0.28919
5213.35,0.28270
5209.49,0.28526
5205.63,0.28189
5201.77,0.28161
5197.92,0.27972
5194.06,0.27840
5190.2,0.27883
5186.34,0.27972
5182.49,0.27874
5178.63,0.28062
5174.77,0.28269
5170.91,0.28341
5167.06,0.28318
5163.2,0.28196
5159.34,0.28282
5155.49,0.28267
5151.63,0.28497
5147.77,0.29311
5143.91,0.29415
5140.06,0.29581
5136.2,0.29659
5132.34,0.29486
5128.48,0.30075
5124.63,0.30347
5120.77,0.30133
5116.91,0.30217
5113.05,0.30609
5109.2,0.31127
5105.34,0.31211
5101.48,0.31209
5097.62,0.31341
5093.77,0.31529
5089.91,0.32115
5086.05,0.32555
5082.19,0.32373
5078.34,0.32559
5074.48,0.32935
5070.62,0.32864
5066.76,0.33151
5062.91,0.33337
5059.05,0.33087
5055.19,0.33399
5051.33,0.34073
5047.48,0.34233
5043.62,0.34210
5039.76,0.34174
5035.9,0.34621
5032.05,0.34684
5028.19,0.35108
5024.33,0.35479
5020.47,0.35077
5016.62,0.35153
5012.76,0.35375
5008.9,0.35468
5005.04,0.35889
5001.19,0.35648
4997.33,0.35634
4993.47,0.36044
4989.61,0.36108
4985.76,0.36326
4981.9,0.36184
4978.04,0.35896
4974.18,0.35872
4970.33,0.35934
4966.47,0.36133
4962.61,0.36020
4958.76,0.35627
4954.9,0.35530
4951.04,0.35279
4947.18,0.35266
4943.33,0.35138
4939.47,0.35199
4935.61,0.34728
4931.75,0.34581
4927.9,0.34447
4924.04,0.34436
4920.18,0.34040
4916.32,0.33799
4912.47,0.33580
4908.61,0.33122
4904.75,0.32937
4900.89,0.32864
4897.04,0.32590
4893.18,0.32168
4889.32,0.31820
4885.46,0.31745
4881.61,0.31453
4877.75,0.31291
4873.89,0.31250
4870.03,0.30905
4866.18,0.30730
4862.32,0.30526
4858.46,0.30218
4854.6,0.29845
4850.75,0.29792
4846.89,0.29728
4843.03,0.29602
4839.17,0.29460
4835.32,0.29004
4831.46,0.28735
4827.6,0.28502
4823.74,0.28376
4819.89,0.28386
4816.03,0.28297
4812.17,0.28023
4808.31,0.28108
4804.46,0.28134
4800.6,0.28062
4796.74,0.28088
4792.88,0.28201
4789.03,0.28087
4785.17,0.27868
4781.31,0.27582
4777.45,0.27300
4773.6,0.27439
4769.74,0.27274
4765.88,0.27331
4762.02,0.27284
4758.17,0.27285
4754.31,0.27585
4750.45,0.27541
4746.6,0.27350
4742.74,0.27447
4738.88,0.27478
4735.02,0.27685
4731.17,0.27582
4727.31,0.27596
4723.45,0.27474
4719.59,0.27519
4715.74,0.27760
4711.88,0.27792
4708.02,0.27640
4704.16,0.27608
4700.31,0.27866
4696.45,0.28105
4692.59,0.28178
4688.73,0.28039
4684.88,0.27978
4681.02,0.28207
4677.16,0.28336
4673.3,0.28206
4669.45,0.28249
4665.59,0.28453
4661.73,0.28606
4657.87,0.28804
4654.02,0.28801
4650.16,0.28854
4646.3,0.28801
4642.44,0.29201
4638.59,0.29309
4634.73,0.29368
4630.87,0.29607
4627.01,0.29743
4623.16,0.29847
4619.3,0.30070
4615.44,0.30234
4611.58,0.30509
4607.73,0.30690
4603.87,0.30656
4600.01,0.30877
4596.15,0.31026
4592.3,0.31205
4588.44,0.31304
4584.58,0.31264
4580.72,0.31613
4576.87,0.31856
4573.01,0.31732
4569.15,0.31981
4565.29,0.32013
4561.44,0.32219
4557.58,0.32304
4553.72,0.32335
4549.87,0.32374
4546.01,0.32580
4542.15,0.32660
4538.29,0.32578
4534.44,0.32627
4530.58,0.32835
4526.72,0.32683
4522.86,0.32781
4519.01,0.32802
4515.15,0.32679
4511.29,0.32771
4507.43,0.32681
4503.58,0.32601
4499.72,0.32623
4495.86,0.32428
4492,0.32320
4488.15,0.32221
4484.29,0.31895
4480.43,0.31707
4476.57,0.31396
4472.72,0.31111
4468.86,0.30757
4465,0.30476
4461.14,0.30176
4457.29,0.29947
4453.43,0.29562
4449.57,0.29119
4445.71,0.28646
4441.86,0.28319
4438,0.27981
4434.14,0.27538
4430.28,0.26993
4426.43,0.26614
4422.57,0.26143
4418.71,0.25707
4414.85,0.25531
4411,0.25335
4407.14,0.25000
4403.28,0.24912
4399.42,0.24816
4395.57,0.24817
4391.71,0.24685
4387.85,0.24880
4383.99,0.25008
4380.14,0.25046
4376.28,0.25108
4372.42,0.25352
4368.56,0.25636
4364.71,0.25578
4360.85,0.25690
4356.99,0.25627
4353.14,0.25685
4349.28,0.25552
4345.42,0.25630
4341.56,0.25483
4337.71,0.25189
4333.85,0.25202
4329.99,0.25173
4326.13,0.25079
4322.28,0.24888
4318.42,0.24735
4314.56,0.24684
4310.7,0.24608
4306.85,0.24396
4302.99,0.24336
4299.13,0.24375
4295.27,0.24205
4291.42,0.24091
4287.56,0.23967
4283.7,0.23960
4279.84,0.23837
4275.99,0.23839
4272.13,0.23883
4268.27,0.23844
4264.41,0.23955
4260.56,0.24121
4256.7,0.24089
4252.84,0.24085
4248.98,0.24160
4245.13,0.24238
4241.27,0.24244
4237.41,0.24218
4233.55,0.24273
4229.7,0.24239
4225.84,0.24295
4221.98,0.24298
4218.12,0.24178
4214.27,0.24112
4210.41,0.24165
4206.55,0.24244
4202.69,0.24304
4198.84,0.24331
4194.98,0.24225
4191.12,0.24292
4187.26,0.24314
4183.41,0.24354
4179.55,0.24464
4175.69,0.24557
4171.83,0.24496
4167.98,0.24656
4164.12,0.24614
4160.26,0.24532
4156.4,0.24443
4152.55,0.24336
4148.69,0.24349
4144.83,0.24221
4140.98,0.23976
4137.12,0.23894
4133.26,0.23809
4129.4,0.23575
4125.55,0.23408
4121.69,0.23199
4117.83,0.22962
4113.97,0.22753
4110.12,0.22553
4106.26,0.22392
4102.4,0.22095
4098.54,0.21728
4094.69,0.21388
4090.83,0.21252
4086.97,0.21022
4083.11,0.20708
4079.26,0.20542
4075.4,0.20300
4071.54,0.20115
4067.68,0.19818
4063.83,0.19480
4059.97,0.19219
4056.11,0.19019
4052.25,0.18812
4048.4,0.18496
4044.54,0.18356
4040.68,0.18283
4036.82,0.18052
4032.97,0.17857
4029.11,0.17687
4025.25,0.17685
4021.39,0.17554
4017.54,0.17527
4013.68,0.17585
4009.82,0.17523
4005.96,0.17599
4002.11,0.17566
3998.25,0.17739
3994.39,0.17859
3990.53,0.17880
3986.68,0.17844
3982.82,0.17886
3978.96,0.17956
3975.1,0.18030
3971.25,0.18151
3967.39,0.18186
3963.53,0.18282
3959.67,0.18389
3955.82,0.18362
3951.96,0.18424
3948.1,0.18597
3944.25,0.18720
3940.39,0.18928
3936.53,0.19096
3932.67,0.19176
3928.82,0.19344
3924.96,0.19463
3921.1,0.19541
3917.24,0.19713
3913.39,0.19757
3909.53,0.19757
3905.67,0.19789
3901.81,0.19865
3897.96,0.20098
3894.1,0.20254
3890.24,0.20310
3886.38,0.20434
3882.53,0.20434
3878.67,0.20507
3874.81,0.20619
3870.95,0.20658
3867.1,0.20614
3863.24,0.20833
3859.38,0.20734
3855.52,0.20479
3851.67,0.20841
3847.81,0.21204
3843.95,0.21250
3840.09,0.21269
3836.24,0.21510
3832.38,0.21449
3828.52,0.21475
3824.66,0.21427
3820.81,0.21384
3816.95,0.21289
3813.09,0.21306
3809.23,0.21244
3805.38,0.21039
3801.52,0.21147
3797.66,0.21209
3793.8,0.21270
3789.95,0.21292
3786.09,0.21282
3782.23,0.21190
3778.37,0.21051
3774.52,0.20906
3770.66,0.20778
3766.8,0.20691
3762.94,0.20535
3759.09,0.20407
3755.23,0.20164
3751.37,0.19814
3747.51,0.19571
3743.66,0.19675
3739.8,0.19417
3735.94,0.19292
3732.09,0.18952
3728.23,0.18832
3724.37,0.18654
3720.51,0.18309
3716.66,0.18003
3712.8,0.17762
3708.94,0.17130
3705.08,0.16722
3701.23,0.16320
3697.37,0.15773
3693.51,0.15235
3689.65,0.14552
3685.8,0.13647
3681.94,0.13062
3678.08,0.12209
3674.22,0.11239
3670.37,0.10629
3666.51,0.09790
3662.65,0.09173
3658.79,0.08608
3654.94,0.08018
3651.08,0.07591
3647.22,0.06849
3643.36,0.06396
3639.51,0.06099
3635.65,0.05865
3631.79,0.05672
3627.93,0.05329
3624.08,0.04990
3620.22,0.04839
3616.36,0.04649
3612.5,0.04488
3608.65,0.04460
3604.79,0.04360
3600.93,0.04132
3597.07,0.04018
3593.22,0.03911
3589.36,0.03889
3585.5,0.03769
3581.64,0.03579
3577.79,0.03568
3573.93,0.03480
3570.07,0.03360
3566.21,0.03269
3562.36,0.03232
3558.5,0.03206
3554.64,0.03197
3550.78,0.03086
3546.93,0.02990
3543.07,0.02990
3539.21,0.02950
3535.36,0.02923
3531.5,0.02892
3527.64,0.02811
3523.78,0.02801
3519.93,0.02820
3516.07,0.02718
3512.21,0.02615
3508.35,0.02666
3504.5,0.02724
3500.64,0.02708
3496.78,0.02660
3492.92,0.02601
3489.07,0.02527
3485.21,0.02483
3481.35,0.02475
3477.49,0.02509
3473.64,0.02440
3469.78,0.02453
3465.92,0.02465
3462.06,0.02461
3458.21,0.02424
3454.35,0.02359
3450.49,0.02356
3446.63,0.02395
3442.78,0.02457
3438.92,0.02450
3435.06,0.02432
3431.2,0.02439
3427.35,0.02534
3423.49,0.02520
3419.63,0.02442
3415.77,0.02451
3411.92,0.02418
3408.06,0.02406
3404.2,0.02411
3400.34,0.02496
3396.49,0.02570
3392.63,0.02581
3388.77,0.02567
3384.91,0.02535
3381.06,0.02524
3377.2,0.02515
3373.34,0.02539
3369.48,0.02632
3365.63,0.02643
3361.77,0.02616
3357.91,0.02669
3354.05,0.02691
3350.2,0.02725
3346.34,0.02721
3342.48,0.02697
3338.63,0.02752
3334.77,0.02832
3330.91,0.02848
3327.05,0.02907
3323.2,0.02880
3319.34,0.02936
3315.48,0.02779
3311.62,0.02883
3307.77,0.02965
3303.91,0.02905
3300.05,0.02882
3296.19,0.02977
3292.34,0.02977
3288.48,0.02961
3284.62,0.03006
3280.76,0.03018
3276.91,0.03157
3273.05,0.03103
3269.19,0.03081
3265.33,0.03137
3261.48,0.03217
3257.62,0.03291
3253.76,0.03323
3249.9,0.03347
3246.05,0.03346
3242.19,0.03313
3238.33,0.03370
3234.47,0.03353
3230.62,0.03422
3226.76,0.03437
3222.9,0.03475
3219.04,0.03531
3215.19,0.03615
3211.33,0.03647
3207.47,0.03706
3203.61,0.03689
3199.76,0.03717
3195.9,0.03783
3192.04,0.03846
3188.18,0.03866
3184.33,0.03849
3180.47,0.03973
3176.61,0.03969
3172.75,0.03939
3168.9,0.04093
3165.04,0.04157
3161.18,0.04165
3157.32,0.04211
3153.47,0.04246
3149.61,0.04296
3145.75,0.04364
3141.89,0.04423
3138.04,0.04482
3134.18,0.04519
3130.32,0.04489
3126.47,0.04590
3122.61,0.04717
3118.75,0.04735
3114.89,0.04730
3111.04,0.04844
3107.18,0.04849
3103.32,0.04856
3099.46,0.04949
3095.61,0.04959
3091.75,0.04989
3087.89,0.05098
3084.03,0.05129
3080.18,0.05162
3076.32,0.05229
3072.46,0.05332
3068.6,0.05344
3064.75,0.05383
3060.89,0.05474
3057.03,0.05497
3053.17,0.05480
3049.32,0.05490
3045.46,0.05577
3041.6,0.05688
3037.74,0.05780
3033.89,0.05771
3030.03,0.05827
3026.17,0.05851
3022.31,0.05836
3018.46,0.05789
3014.6,0.05761
3010.74,0.05780
3006.88,0.05697
3003.03,0.05589
2999.17,0.05600
2995.31,0.05526
2991.45,0.05434
2987.6,0.05359
2983.74,0.05250
2979.88,0.05042
2976.02,0.04952
2972.17,0.04752
2968.31,0.04537
2964.45,0.04354
2960.59,0.04346
2956.74,0.04330
2952.88,0.04256
2949.02,0.04170
2945.16,0.04083
2941.31,0.04035
2937.45,0.04040
2933.59,0.03917
2929.74,0.03921
2925.88,0.03992
2922.02,0.04031
2918.16,0.04099
2914.31,0.04134
2910.45,0.03976
2906.59,0.04001
2902.73,0.04032
2898.88,0.04125
2895.02,0.04120
2891.16,0.04148
2887.3,0.04153
2883.45,0.04222
2879.59,0.04279
2875.73,0.04327
2871.87,0.04292
2868.02,0.04362
2864.16,0.04394
2860.3,0.04466
2856.44,0.04566
2852.59,0.04708
2848.73,0.04781
2844.87,0.04976
2841.01,0.05209
2837.16,0.05295
2833.3,0.05429
2829.44,0.05618
2825.58,0.05741
2821.73,0.05945
2817.87,0.06151
2814.01,0.06301
2810.15,0.06422
2806.3,0.06526
2802.44,0.06750
2798.58,0.06799
2794.72,0.06834
2790.87,0.06982
2787.01,0.07032
2783.15,0.07046
2779.29,0.07071
2775.44,0.07104
2771.58,0.07228
2767.72,0.07229
2763.86,0.07280
2760.01,0.07290
2756.15,0.07314
2752.29,0.07349
2748.43,0.07434
2744.58,0.07424
2740.72,0.07418
2736.86,0.07419
2733.01,0.07468
2729.15,0.07467
2725.29,0.07511
2721.43,0.07565
2717.58,0.07678
2713.72,0.07768
2709.86,0.07781
2706,0.07886
2702.15,0.07998
2698.29,0.08071
2694.43,0.08147
2690.57,0.08214
2686.72,0.08353
2682.86,0.08381
2679,0.08438
2675.14,0.08514
2671.29,0.08622
2667.43,0.08683
2663.57,0.08718
2659.71,0.08772
2655.86,0.08876
2652,0.08884
2648.14,0.08945
2644.28,0.08993
2640.43,0.09062
2636.57,0.09143
2632.71,0.09196
2628.85,0.09322
2625,0.09390
2621.14,0.09435
2617.28,0.09486
2613.42,0.09531
2609.57,0.09605
2605.71,0.09690
2601.85,0.09729
2597.99,0.09714
2594.14,0.09796
2590.28,0.09921
2586.42,0.09930
2582.56,0.09934
2578.71,0.10007
2574.85,0.10032
2570.99,0.10067
2567.13,0.10080
2563.28,0.10107
2559.42,0.10146
2555.56,0.10146
2551.7,0.10125
2547.85,0.10183
2543.99,0.10217
2540.13,0.10235
2536.27,0.10285
2532.42,0.10341
2528.56,0.10390
2524.7,0.10480
2520.85,0.10574
2516.99,0.10605
2513.13,0.10631
2509.27,0.10701
2505.42,0.10819
2501.56,0.10979
2497.7,0.11086
2493.84,0.11183
2489.99,0.11310
2486.13,0.11380
2482.27,0.11466
2478.41,0.11511
2474.56,0.11618
2470.7,0.11759
2466.84,0.11783
2462.98,0.11841
2459.13,0.11901
2455.27,0.12045
2451.41,0.12144
2447.55,0.12216
2443.7,0.12304
2439.84,0.12438
2435.98,0.12565
2432.12,0.12632
2428.27,0.12757
2424.41,0.12824
2420.55,0.12929
2416.69,0.13022
2412.84,0.13130
2408.98,0.13234
2405.12,0.13339
2401.26,0.13435
2397.41,0.13514
2393.55,0.13564
2389.69,0.13637
2385.83,0.13627
2381.98,0.13608
2378.12,0.13548
2374.26,0.13422
2370.4,0.13243
2366.55,0.13062
2362.69,0.12840
2358.83,0.13160
2354.97,0.13332
2351.12,0.13244
2347.26,0.13343
2343.4,0.13589
2339.54,0.13557
2335.69,0.13516
2331.83,0.13584
2327.97,0.13664
2324.12,0.13940
2320.26,0.14117
2316.4,0.14180
2312.54,0.14315
2308.69,0.14375
2304.83,0.14479
2300.97,0.14481
2297.11,0.14428
2293.26,0.14419
2289.4,0.14420
2285.54,0.14389
2281.68,0.14347
2277.83,0.14317
2273.97,0.14265
2270.11,0.14191
2266.25,0.14168
2262.4,0.14132
2258.54,0.14078
2254.68,0.14027
2250.82,0.13957
2246.97,0.13997
2243.11,0.13945
2239.25,0.13877
2235.39,0.13838
2231.54,0.13842
2227.68,0.13782
2223.82,0.13750
2219.96,0.13741
2216.11,0.13763
2212.25,0.13718
2208.39,0.13696
2204.53,0.13639
2200.68,0.13563
2196.82,0.13461
2192.96,0.13358
2189.1,0.13253
2185.25,0.13162
2181.39,0.13019
2177.53,0.12973
2173.67,0.12823
2169.82,0.12710
2165.96,0.12596
2162.1,0.12526
2158.24,0.12445
2154.39,0.12373
2150.53,0.12322
2146.67,0.12284
2142.81,0.12226
2138.96,0.12167
2135.1,0.12113
2131.24,0.12140
2127.38,0.12202
2123.53,0.12231
2119.67,0.12240
2115.81,0.12281
2111.96,0.12311
2108.1,0.12355
2104.24,0.12403
2100.38,0.12368
2096.53,0.12470
2092.67,0.12505
2088.81,0.12521
2084.95,0.12512
2081.1,0.12510
2077.24,0.12519
2073.38,0.12461
2069.52,0.12465
2065.67,0.12476
2061.81,0.12397
2057.95,0.12341
2054.09,0.12313
2050.24,0.12380
2046.38,0.12485
2042.52,0.12562
2038.66,0.12637
2034.81,0.12774
2030.95,0.12876
2027.09,0.12974
2023.23,0.13074
2019.38,0.13198
2015.52,0.13330
2011.66,0.13416
2007.8,0.13509
2003.95,0.13595
2000.09,0.13687
1996.23,0.13770
1992.37,0.13892
1988.52,0.13935
1984.66,0.14011
1980.8,0.14103
1976.94,0.14173
1973.09,0.14210
1969.23,0.14312
1965.37,0.14399
1961.51,0.14448
1957.66,0.14552
1953.8,0.14627
1949.94,0.14723
1946.08,0.14908
1942.23,0.15111
1938.37,0.15048
1934.51,0.15092
1930.65,0.15174
1926.8,0.15243
1922.94,0.15379
1919.08,0.15369
1915.23,0.15324
1911.37,0.15332
1907.51,0.15361
1903.65,0.15284
1899.8,0.15278
1895.94,0.15273
1892.08,0.15304
1888.22,0.15314
1884.37,0.15222
1880.51,0.15135
1876.65,0.15091
1872.79,0.15079
1868.94,0.15278
1865.08,0.15092
1861.22,0.15002
1857.36,0.14941
1853.51,0.14849
1849.65,0.14808
1845.79,0.14849
1841.93,0.14624
1838.08,0.14466
1834.22,0.14346
1830.36,0.14313
1826.5,0.14081
1822.65,0.13838
1818.79,0.13628
1814.93,0.13456
1811.07,0.13265
1807.22,0.12896
1803.36,0.12638
1799.5,0.12353
1795.64,0.12018
1791.79,0.11702
1787.93,0.11138
1784.07,0.10762
1780.21,0.10303
1776.36,0.09765
1772.5,0.09351
1768.64,0.08505
1764.78,0.07796
1760.93,0.07136
1757.07,0.06349
1753.21,0.05776
1749.35,0.05347
1745.5,0.04874
1741.64,0.04732
1737.78,0.04609
1733.92,0.04733
1730.07,0.04575
1726.21,0.04484
1722.35,0.04641
1718.5,0.04943
1714.64,0.05003
1710.78,0.04988
1706.92,0.05207
1703.07,0.05326
1699.21,0.05448
1695.35,0.05333
1691.49,0.05144
1687.64,0.05038
1683.78,0.04954
1679.92,0.04680
1676.06,0.04632
1672.21,0.04499
1668.35,0.04311
1664.49,0.04107
1660.63,0.04038
1656.78,0.04093
1652.92,0.04307
1649.06,0.04094
1645.2,0.04127
1641.35,0.04031
1637.49,0.04203
1633.63,0.04103
1629.77,0.04076
1625.92,0.04149
1622.06,0.04186
1618.2,0.04128
1614.34,0.04016
1610.49,0.03958
1606.63,0.03960
1602.77,0.03937
1598.91,0.04002
1595.06,0.04077
1591.2,0.04145
1587.34,0.04326
1583.48,0.04543
1579.63,0.04760
1575.77,0.05149
1571.91,0.05410
1568.05,0.05743
1564.2,0.05821
1560.34,0.06100
1556.48,0.06122
1552.62,0.06043
1548.77,0.06089
1544.91,0.06172
1541.05,0.06232
1537.19,0.05800
1533.34,0.05511
1529.48,0.04981
1525.62,0.04534
1521.76,0.03966
1517.91,0.03474
1514.05,0.03245
1510.19,0.03412
1506.34,0.03623
1502.48,0.03593
1498.62,0.03905
1494.76,0.04067
1490.91,0.04090
1487.05,0.04053
1483.19,0.03865
1479.33,0.03743
1475.48,0.03621
1471.62,0.03376
1467.76,0.03163
1463.9,0.03191
1460.05,0.03234
1456.19,0.03268
1452.33,0.03182
1448.47,0.03325
1444.62,0.03364
1440.76,0.03302
1436.9,0.03267
1433.04,0.03146
1429.19,0.03126
1425.33,0.03141
1421.47,0.03266
1417.61,0.03428
1413.76,0.03391
1409.9,0.03477
1406.04,0.03542
1402.18,0.03505
1398.33,0.03535
1394.47,0.03491
1390.61,0.03344
1386.75,0.03184
1382.9,0.03020
1379.04,0.02940
1375.18,0.03034
1371.32,0.03075
1367.47,0.03141
1363.61,0.03269
1359.75,0.03277
1355.89,0.03338
1352.04,0.03318
1348.18,0.03290
1344.32,0.03253
1340.46,0.03278
1336.61,0.03256
1332.75,0.03199
1328.89,0.03129
1325.03,0.03153
1321.18,0.03103
1317.32,0.03158
1313.46,0.03235
1309.61,0.03275
1305.75,0.03302
1301.89,0.03221
1298.03,0.03184
1294.18,0.03157
1290.32,0.03081
1286.46,0.02999
1282.6,0.02972
1278.75,0.02965
1274.89,0.02928
1271.03,0.03030
1267.17,0.03164
1263.32,0.03169
1259.46,0.03226
1255.6,0.03217
1251.74,0.03218
1247.89,0.03214
1244.03,0.03228
1240.17,0.03225
1236.31,0.03292
1232.46,0.03230
1228.6,0.03266
1224.74,0.03310
1220.88,0.03356
1217.03,0.03385
1213.17,0.03390
1209.31,0.03393
1205.45,0.03392
1201.6,0.03349
1197.74,0.03396
1193.88,0.03372
1190.02,0.03255
1186.17,0.03109
1182.31,0.03020
1178.45,0.02863
1174.59,0.02720
1170.74,0.02650
1166.88,0.02716
1163.02,0.02801
1159.16,0.02903
1155.31,0.02879
1151.45,0.02882
1147.59,0.02884
1143.73,0.02799
1139.88,0.02800
1136.02,0.02717
1132.16,0.02667
1128.3,0.02678
1124.45,0.02579
1120.59,0.02545
1116.73,0.02574
1112.88,0.02726
1109.02,0.02815
1105.16,0.02915
1101.3,0.02892
1097.45,0.02896
1093.59,0.02862
1089.73,0.02928
1085.87,0.03013
1082.02,0.02945
1078.16,0.02935
1074.3,0.03049
1070.44,0.03181
1066.59,0.03478
1062.73,0.03844
1058.87,0.04290
1055.01,0.04513
1051.16,0.04509
1047.3,0.04356
1043.44,0.04318
1039.58,0.04479
1035.73,0.04713
1031.87,0.04984
1028.01,0.05074
1024.15,0.05068
1020.3,0.05181
1016.44,0.05250
1012.58,0.05241
1008.72,0.05309
1004.87,0.05312
1001.01,0.05316
997.151,0.05323
993.294,0.05394
989.437,0.05578
985.579,0.05725
981.722,0.05879
977.864,0.06134
974.007,0.06186
970.149,0.06213
966.292,0.06156
962.434,0.06341
958.577,0.06429
954.719,0.06507
950.862,0.06591
947.005,0.06633
943.147,0.06647
939.29,0.06715
935.432,0.06708
931.575,0.06725
927.717,0.06844
923.86,0.06792
920.002,0.06868
916.145,0.06736
912.287,0.06532
908.43,0.06380
904.573,0.06105
900.715,0.05988
896.858,0.05906
893,0.05993
889.143,0.06133
885.285,0.06205
881.428,0.06058
877.57,0.06060
873.713,0.06170
869.856,0.06248
865.998,0.06250
862.141,0.06175
858.283,0.06125
854.426,0.06034
850.568,0.06026
846.711,0.06342
842.853,0.06335
838.996,0.06172
835.138,0.05964
831.281,0.05823
827.424,0.05799
823.566,0.05728
819.709,0.05599
815.851,0.05378
811.994,0.05229
808.136,0.05245
804.279,0.05366
800.421,0.05496
796.564,0.05405
792.706,0.05404
788.849,0.05374
784.992,0.05131
781.134,0.05084
777.277,0.05086
773.419,0.04943
769.562,0.05059
765.704,0.05088
761.847,0.04968
757.989,0.04799
754.132,0.04777
750.274,0.04674
746.417,0.04591
742.56,0.04453
738.702,0.04445
734.845,0.04628
730.987,0.04448
727.13,0.04443
723.272,0.04379
719.415,0.04279
715.557,0.04269
711.7,0.04223
707.843,0.04100
703.985,0.04152
700.128,0.04224
696.27,0.04151
692.413,0.03922
688.555,0.04007
684.698,0.04058
680.84,0.04139
676.983,0.04113
673.125,0.04120
669.268,0.04135
665.411,0.03945
661.553,0.03945
657.696,0.04094
653.838,0.04260
649.981,0.04201
646.123,0.03997
642.266,0.03993
638.408,0.04010
634.551,0.04116
630.693,0.03938
626.836,0.03957
622.979,0.03900
619.121,0.03972
615.264,0.04186
611.406,0.04126
607.549,0.04231
603.691,0.04217
599.834,0.04144
595.976,0.04163
592.119,0.04066
588.261,0.04441
584.404,0.04718
580.547,0.04636
576.689,0.04727
572.832,0.04473
568.974,0.04497
565.117,0.04260
561.259,0.04171
557.402,0.04672
553.544,0.04773
549.687,0.04669
545.83,0.04775
541.972,0.04620
538.115,0.04178
534.257,0.04517
530.4,0.04737
526.542,0.04940
522.685,0.05207
518.827,0.05408
514.97,0.04995
511.112,0.05003
507.255,0.05172
503.398,0.05167
499.54,0.05284
495.683,0.05419
491.825,0.05557
487.968,0.05307
484.11,0.05679
480.253,0.05709
476.395,0.05971
472.538,0.05923
468.68,0.05595
464.823,0.05078
460.966,0.04808
457.108,0.04179
453.251,0.04894
449.393,0.05982
445.536,0.05878
441.678,0.05005
437.821,0.06042
433.963,0.06479
430.106,0.05813
426.248,0.05848
422.391,0.05680
418.534,0.04519
414.676,0.05485
410.819,0.04727
406.961,0.04954
403.104,0.04952
399.246,0.04281