File: 01_Data/OSB/FTIR/IS/OSB_IS_REFLECT_MEAS_210623_R5.dpt
5996.41,0.53286
5992.55,0.53114
5988.69,0.52873
5984.84,0.52452
5980.98,0.52609
5977.12,0.52023
5973.27,0.52461
5969.41,0.52527
5965.55,0.52869
5961.69,0.53211
5957.84,0.52459
5953.98,0.52373
5950.12,0.52660
5946.26,0.52321
5942.41,0.52588
5938.55,0.52808
5934.69,0.52464
5930.83,0.52380
5926.98,0.52677
5923.12,0.52855
5919.26,0.52974
5915.4,0.52612
5911.55,0.52887
5907.69,0.52107
5903.83,0.52509
5899.97,0.52030
5896.12,0.51669
5892.26,0.51738
5888.4,0.52599
5884.54,0.52363
5880.69,0.52158
5876.83,0.52555
5872.97,0.52286
5869.11,0.51859
5865.26,0.52197
5861.4,0.52877
5857.54,0.52869
5853.68,0.52112
5849.83,0.52521
5845.97,0.53180
5842.11,0.52205
5838.25,0.52429
5834.4,0.52371
5830.54,0.52076
5826.68,0.52256
5822.82,0.51727
5818.97,0.51636
5815.11,0.52126
5811.25,0.52537
5807.39,0.51906
5803.54,0.51635
5799.68,0.52329
5795.82,0.51995
5791.96,0.52173
5788.11,0.51978
5784.25,0.51590
5780.39,0.51806
5776.53,0.52046
5772.68,0.52158
5768.82,0.52106
5764.96,0.51915
5761.11,0.51635
5757.25,0.51954
5753.39,0.51898
5749.53,0.51980
5745.68,0.52182
5741.82,0.52907
5737.96,0.52472
5734.1,0.52006
5730.25,0.52339
5726.39,0.52374
5722.53,0.52801
5718.67,0.52147
5714.82,0.51323
5710.96,0.51821
5707.1,0.52147
5703.24,0.52069
5699.39,0.51973
5695.53,0.51794
5691.67,0.51915
5687.81,0.51964
5683.96,0.51997
5680.1,0.51557
5676.24,0.51853
5672.38,0.51728
5668.53,0.51893
5664.67,0.52015
5660.81,0.51495
5656.95,0.51720
5653.1,0.52224
5649.24,0.51923
5645.38,0.52004
5641.52,0.51556
5637.67,0.51615
5633.81,0.52180
5629.95,0.51616
5626.09,0.52500
5622.24,0.52361
5618.38,0.52677
5614.52,0.52027
5610.66,0.51715
5606.81,0.52223
5602.95,0.52452
5599.09,0.51925
5595.23,0.51624
5591.38,0.51928
5587.52,0.52448
5583.66,0.52378
5579.8,0.52705
5575.95,0.52437
5572.09,0.53038
5568.23,0.53545
5564.38,0.52957
5560.52,0.52583
5556.66,0.52944
5552.8,0.52434
5548.95,0.51842
5545.09,0.52020
5541.23,0.52638
5537.37,0.53446
5533.52,0.52909
5529.66,0.52796
5525.8,0.52450
5521.94,0.52734
5518.09,0.53331
5514.23,0.52666
5510.37,0.52194
5506.51,0.52701
5502.66,0.53089
5498.8,0.53141
5494.94,0.52615
5491.08,0.52402
5487.23,0.52728
5483.37,0.52817
5479.51,0.52976
5475.65,0.53115
5471.8,0.53445
5467.94,0.53554
5464.08,0.53380
5460.22,0.53832
5456.37,0.54106
5452.51,0.54416
5448.65,0.54217
5444.79,0.54282
5440.94,0.54449
5437.08,0.53905
5433.22,0.54235
5429.36,0.53867
5425.51,0.54192
5421.65,0.54743
5417.79,0.54520
5413.93,0.53269
5410.08,0.54148
5406.22,0.54253
5402.36,0.53854
5398.5,0.54239
5394.65,0.54698
5390.79,0.55088
5386.93,0.54709
5383.07,0.54657
5379.22,0.54431
5375.36,0.54203
5371.5,0.54532
5367.65,0.54490
5363.79,0.54374
5359.93,0.54761
5356.07,0.54045
5352.22,0.53378
5348.36,0.53661
5344.5,0.53182
5340.64,0.53157
5336.79,0.52916
5332.93,0.52581
5329.07,0.52924
5325.21,0.53462
5321.36,0.52645
5317.5,0.52110
5313.64,0.51883
5309.78,0.51132
5305.93,0.51004
5302.07,0.51196
5298.21,0.50170
5294.35,0.49654
5290.5,0.48957
5286.64,0.48288
5282.78,0.47559
5278.92,0.46637
5275.07,0.46077
5271.21,0.45084
5267.35,0.43677
5263.49,0.42520
5259.64,0.42123
5255.78,0.41542
5251.92,0.40798
5248.06,0.39715
5244.21,0.39305
5240.35,0.38981
5236.49,0.38290
5232.63,0.37615
5228.78,0.37154
5224.92,0.36868
5221.06,0.36449
5217.2,0.36379
5213.35,0.35878
5209.49,0.35894
5205.63,0.35653
5201.77,0.35446
5197.92,0.35394
5194.06,0.35368
5190.2,0.35551
5186.34,0.35339
5182.49,0.35171
5178.63,0.35288
5174.77,0.35389
5170.91,0.35646
5167.06,0.35910
5163.2,0.35900
5159.34,0.36036
5155.49,0.35904
5151.63,0.36257
5147.77,0.36823
5143.91,0.36806
5140.06,0.36869
5136.2,0.37144
5132.34,0.37729
5128.48,0.38236
5124.63,0.38347
5120.77,0.38178
5116.91,0.38162
5113.05,0.38282
5109.2,0.38831
5105.34,0.38991
5101.48,0.39213
5097.62,0.39260
5093.77,0.39490
5089.91,0.39820
5086.05,0.40189
5082.19,0.40129
5078.34,0.40044
5074.48,0.40664
5070.62,0.40804
5066.76,0.41259
5062.91,0.41616
5059.05,0.41157
5055.19,0.41591
5051.33,0.42009
5047.48,0.42143
5043.62,0.42267
5039.76,0.42426
5035.9,0.42905
5032.05,0.42884
5028.19,0.43186
5024.33,0.43445
5020.47,0.43055
5016.62,0.43358
5012.76,0.43749
5008.9,0.43927
5005.04,0.44225
5001.19,0.44027
4997.33,0.44143
4993.47,0.44413
4989.61,0.44410
4985.76,0.44662
4981.9,0.44409
4978.04,0.44356
4974.18,0.44283
4970.33,0.44178
4966.47,0.44231
4962.61,0.44189
4958.76,0.44271
4954.9,0.44015
4951.04,0.43776
4947.18,0.43663
4943.33,0.43605
4939.47,0.43538
4935.61,0.43130
4931.75,0.42852
4927.9,0.42716
4924.04,0.42828
4920.18,0.42295
4916.32,0.42001
4912.47,0.41870
4908.61,0.41589
4904.75,0.41636
4900.89,0.41374
4897.04,0.40535
4893.18,0.40359
4889.32,0.40127
4885.46,0.40046
4881.61,0.39758
4877.75,0.39586
4873.89,0.39422
4870.03,0.39097
4866.18,0.39207
4862.32,0.38985
4858.46,0.38760
4854.6,0.38271
4850.75,0.38243
4846.89,0.37964
4843.03,0.37391
4839.17,0.37159
4835.32,0.37033
4831.46,0.36846
4827.6,0.36778
4823.74,0.36623
4819.89,0.36716
4816.03,0.36467
4812.17,0.36130
4808.31,0.36176
4804.46,0.36285
4800.6,0.36262
4796.74,0.36224
4792.88,0.36050
4789.03,0.36018
4785.17,0.36067
4781.31,0.36027
4777.45,0.35743
4773.6,0.35677
4769.74,0.35540
4765.88,0.35824
4762.02,0.35561
4758.17,0.35277
4754.31,0.35233
4750.45,0.35327
4746.6,0.35595
4742.74,0.35488
4738.88,0.35713
4735.02,0.35737
4731.17,0.35629
4727.31,0.35673
4723.45,0.35475
4719.59,0.35546
4715.74,0.35677
4711.88,0.35794
4708.02,0.35740
4704.16,0.35758
4700.31,0.35747
4696.45,0.35944
4692.59,0.35944
4688.73,0.36178
4684.88,0.35889
4681.02,0.36095
4677.16,0.36146
4673.3,0.36168
4669.45,0.36192
4665.59,0.36249
4661.73,0.36421
4657.87,0.36704
4654.02,0.36734
4650.16,0.36886
4646.3,0.36981
4642.44,0.37347
4638.59,0.37366
4634.73,0.37519
4630.87,0.37714
4627.01,0.37888
4623.16,0.38006
4619.3,0.38104
4615.44,0.38318
4611.58,0.38504
4607.73,0.38760
4603.87,0.38953
4600.01,0.39249
4596.15,0.39153
4592.3,0.39410
4588.44,0.39481
4584.58,0.39524
4580.72,0.39869
4576.87,0.39886
4573.01,0.40049
4569.15,0.40228
4565.29,0.40328
4561.44,0.40617
4557.58,0.40651
4553.72,0.40517
4549.87,0.40598
4546.01,0.40867
4542.15,0.40784
4538.29,0.40792
4534.44,0.41012
4530.58,0.41202
4526.72,0.40943
4522.86,0.41068
4519.01,0.41020
4515.15,0.41018
4511.29,0.41120
4507.43,0.40924
4503.58,0.40809
4499.72,0.40891
4495.86,0.40601
4492,0.40530
4488.15,0.40269
4484.29,0.39933
4480.43,0.39626
4476.57,0.39290
4472.72,0.39230
4468.86,0.38882
4465,0.38468
4461.14,0.38011
4457.29,0.37422
4453.43,0.37069
4449.57,0.36690
4445.71,0.36360
4441.86,0.35838
4438,0.35629
4434.14,0.35083
4430.28,0.34562
4426.43,0.34158
4422.57,0.33841
4418.71,0.33431
4414.85,0.33182
4411,0.32807
4407.14,0.32252
4403.28,0.32116
4399.42,0.32121
4395.57,0.32072
4391.71,0.31993
4387.85,0.32074
4383.99,0.32219
4380.14,0.32214
4376.28,0.32341
4372.42,0.32607
4368.56,0.32643
4364.71,0.32719
4360.85,0.32802
4356.99,0.32924
4353.14,0.32913
4349.28,0.32737
4345.42,0.32721
4341.56,0.32539
4337.71,0.32435
4333.85,0.32236
4329.99,0.32223
4326.13,0.31995
4322.28,0.31889
4318.42,0.31838
4314.56,0.31662
4310.7,0.31572
4306.85,0.31492
4302.99,0.31562
4299.13,0.31463
4295.27,0.31271
4291.42,0.31041
4287.56,0.30964
4283.7,0.30939
4279.84,0.30911
4275.99,0.30813
4272.13,0.30863
4268.27,0.31007
4264.41,0.30854
4260.56,0.31105
4256.7,0.31189
4252.84,0.31165
4248.98,0.31293
4245.13,0.31340
4241.27,0.31254
4237.41,0.31307
4233.55,0.31451
4229.7,0.31511
4225.84,0.31440
4221.98,0.31430
4218.12,0.31308
4214.27,0.31268
4210.41,0.31456
4206.55,0.31433
4202.69,0.31459
4198.84,0.31461
4194.98,0.31432
4191.12,0.31417
4187.26,0.31390
4183.41,0.31433
4179.55,0.31553
4175.69,0.31686
4171.83,0.31797
4167.98,0.31707
4164.12,0.31833
4160.26,0.31833
4156.4,0.31722
4152.55,0.31635
4148.69,0.31574
4144.83,0.31339
4140.98,0.31166
4137.12,0.30986
4133.26,0.30881
4129.4,0.30683
4125.55,0.30508
4121.69,0.30256
4117.83,0.29977
4113.97,0.29840
4110.12,0.29607
4106.26,0.29245
4102.4,0.29033
4098.54,0.28660
4094.69,0.28304
4090.83,0.27984
4086.97,0.27735
4083.11,0.27515
4079.26,0.27235
4075.4,0.26942
4071.54,0.26682
4067.68,0.26388
4063.83,0.26113
4059.97,0.25735
4056.11,0.25409
4052.25,0.25157
4048.4,0.24953
4044.54,0.24607
4040.68,0.24453
4036.82,0.24181
4032.97,0.23940
4029.11,0.23858
4025.25,0.23833
4021.39,0.23789
4017.54,0.23590
4013.68,0.23558
4009.82,0.23475
4005.96,0.23456
4002.11,0.23629
3998.25,0.23793
3994.39,0.23804
3990.53,0.23949
3986.68,0.23950
3982.82,0.23969
3978.96,0.24092
3975.1,0.24122
3971.25,0.24244
3967.39,0.24300
3963.53,0.24478
3959.67,0.24565
3955.82,0.24663
3951.96,0.24772
3948.1,0.24877
3944.25,0.25053
3940.39,0.25240
3936.53,0.25365
3932.67,0.25586
3928.82,0.25764
3924.96,0.26000
3921.1,0.26099
3917.24,0.26152
3913.39,0.26259
3909.53,0.26425
3905.67,0.26495
3901.81,0.26670
3897.96,0.26911
3894.1,0.26964
3890.24,0.27214
3886.38,0.27318
3882.53,0.27245
3878.67,0.27198
3874.81,0.27238
3870.95,0.27358
3867.1,0.27510
3863.24,0.27599
3859.38,0.27613
3855.52,0.27383
3851.67,0.27709
3847.81,0.28013
3843.95,0.27927
3840.09,0.28031
3836.24,0.28186
3832.38,0.28329
3828.52,0.28324
3824.66,0.28215
3820.81,0.28151
3816.95,0.28269
3813.09,0.28396
3809.23,0.28274
3805.38,0.28149
3801.52,0.28075
3797.66,0.28251
3793.8,0.28310
3789.95,0.28310
3786.09,0.28100
3782.23,0.27979
3778.37,0.27919
3774.52,0.27810
3770.66,0.27629
3766.8,0.27549
3762.94,0.27346
3759.09,0.27170
3755.23,0.26819
3751.37,0.26412
3747.51,0.26323
3743.66,0.26125
3739.8,0.25979
3735.94,0.25830
3732.09,0.25340
3728.23,0.25003
3724.37,0.24694
3720.51,0.24411
3716.66,0.24097
3712.8,0.23548
3708.94,0.22877
3705.08,0.22374
3701.23,0.21736
3697.37,0.21149
3693.51,0.20443
3689.65,0.19402
3685.8,0.18321
3681.94,0.17506
3678.08,0.16586
3674.22,0.15270
3670.37,0.14121
3666.51,0.12998
3662.65,0.12123
3658.79,0.11243
3654.94,0.10349
3651.08,0.09678
3647.22,0.08874
3643.36,0.08397
3639.51,0.07878
3635.65,0.07359
3631.79,0.07035
3627.93,0.06659
3624.08,0.06368
3620.22,0.06101
3616.36,0.05895
3612.5,0.05725
3608.65,0.05469
3604.79,0.05274
3600.93,0.05049
3597.07,0.04783
3593.22,0.04735
3589.36,0.04669
3585.5,0.04458
3581.64,0.04313
3577.79,0.04170
3573.93,0.04071
3570.07,0.03971
3566.21,0.03921
3562.36,0.03868
3558.5,0.03638
3554.64,0.03566
3550.78,0.03592
3546.93,0.03490
3543.07,0.03375
3539.21,0.03365
3535.36,0.03338
3531.5,0.03217
3527.64,0.03243
3523.78,0.03207
3519.93,0.03144
3516.07,0.03084
3512.21,0.03080
3508.35,0.03047
3504.5,0.02957
3500.64,0.02910
3496.78,0.02872
3492.92,0.02884
3489.07,0.02818
3485.21,0.02769
3481.35,0.02734
3477.49,0.02765
3473.64,0.02728
3469.78,0.02688
3465.92,0.02724
3462.06,0.02677
3458.21,0.02682
3454.35,0.02760
3450.49,0.02642
3446.63,0.02643
3442.78,0.02712
3438.92,0.02578
3435.06,0.02555
3431.2,0.02561
3427.35,0.02635
3423.49,0.02654
3419.63,0.02639
3415.77,0.02612
3411.92,0.02638
3408.06,0.02608
3404.2,0.02662
3400.34,0.02673
3396.49,0.02640
3392.63,0.02695
3388.77,0.02742
3384.91,0.02715
3381.06,0.02729
3377.2,0.02712
3373.34,0.02742
3369.48,0.02756
3365.63,0.02721
3361.77,0.02755
3357.91,0.02763
3354.05,0.02715
3350.2,0.02752
3346.34,0.02780
3342.48,0.02791
3338.63,0.02857
3334.77,0.02938
3330.91,0.03099
3327.05,0.03072
3323.2,0.03042
3319.34,0.03109
3315.48,0.03158
3311.62,0.03167
3307.77,0.03137
3303.91,0.03218
3300.05,0.03309
3296.19,0.03273
3292.34,0.03246
3288.48,0.03246
3284.62,0.03383
3280.76,0.03386
3276.91,0.03364
3273.05,0.03321
3269.19,0.03427
3265.33,0.03501
3261.48,0.03595
3257.62,0.03598
3253.76,0.03617
3249.9,0.03624
3246.05,0.03655
3242.19,0.03669
3238.33,0.03786
3234.47,0.03832
3230.62,0.03811
3226.76,0.03924
3222.9,0.04018
3219.04,0.04036
3215.19,0.04129
3211.33,0.04136
3207.47,0.04127
3203.61,0.04232
3199.76,0.04375
3195.9,0.04380
3192.04,0.04412
3188.18,0.04464
3184.33,0.04495
3180.47,0.04550
3176.61,0.04571
3172.75,0.04714
3168.9,0.04752
3165.04,0.04766
3161.18,0.04869
3157.32,0.04950
3153.47,0.04995
3149.61,0.05045
3145.75,0.05169
3141.89,0.05200
3138.04,0.05268
3134.18,0.05333
3130.32,0.05426
3126.47,0.05553
3122.61,0.05586
3118.75,0.05676
3114.89,0.05710
3111.04,0.05741
3107.18,0.05799
3103.32,0.05962
3099.46,0.06008
3095.61,0.06092
3091.75,0.06156
3087.89,0.06127
3084.03,0.06225
3080.18,0.06320
3076.32,0.06417
3072.46,0.06496
3068.6,0.06541
3064.75,0.06644
3060.89,0.06758
3057.03,0.06820
3053.17,0.06866
3049.32,0.06939
3045.46,0.06964
3041.6,0.06972
3037.74,0.07056
3033.89,0.07148
3030.03,0.07186
3026.17,0.07201
3022.31,0.07247
3018.46,0.07293
3014.6,0.07106
3010.74,0.07048
3006.88,0.07004
3003.03,0.06967
2999.17,0.06910
2995.31,0.06846
2991.45,0.06844
2987.6,0.06674
2983.74,0.06456
2979.88,0.06255
2976.02,0.06031
2972.17,0.05742
2968.31,0.05503
2964.45,0.05374
2960.59,0.05286
2956.74,0.05194
2952.88,0.05081
2949.02,0.04868
2945.16,0.04855
2941.31,0.04790
2937.45,0.04754
2933.59,0.04738
2929.74,0.04647
2925.88,0.04644
2922.02,0.04627
2918.16,0.04656
2914.31,0.04703
2910.45,0.04792
2906.59,0.04838
2902.73,0.04811
2898.88,0.04866
2895.02,0.04954
2891.16,0.04989
2887.3,0.05025
2883.45,0.05066
2879.59,0.05098
2875.73,0.05194
2871.87,0.05297
2868.02,0.05302
2864.16,0.05310
2860.3,0.05462
2856.44,0.05603
2852.59,0.05619
2848.73,0.05722
2844.87,0.06064
2841.01,0.06320
2837.16,0.06603
2833.3,0.06862
2829.44,0.07141
2825.58,0.07424
2821.73,0.07723
2817.87,0.07945
2814.01,0.08235
2810.15,0.08452
2806.3,0.08571
2802.44,0.08704
2798.58,0.08847
2794.72,0.09014
2790.87,0.09173
2787.01,0.09220
2783.15,0.09359
2779.29,0.09471
2775.44,0.09501
2771.58,0.09594
2767.72,0.09642
2763.86,0.09646
2760.01,0.09736
2756.15,0.09754
2752.29,0.09821
2748.43,0.09826
2744.58,0.09823
2740.72,0.09872
2736.86,0.09941
2733.01,0.09994
2729.15,0.10022
2725.29,0.10117
2721.43,0.10209
2717.58,0.10310
2713.72,0.10437
2709.86,0.10576
2706,0.10659
2702.15,0.10767
2698.29,0.10840
2694.43,0.10954
2690.57,0.11052
2686.72,0.11180
2682.86,0.11286
2679,0.11444
2675.14,0.11568
2671.29,0.11649
2667.43,0.11759
2663.57,0.11831
2659.71,0.11913
2655.86,0.11973
2652,0.12036
2648.14,0.12173
2644.28,0.12265
2640.43,0.12316
2636.57,0.12400
2632.71,0.12501
2628.85,0.12597
2625,0.12735
2621.14,0.12818
2617.28,0.12924
2613.42,0.13017
2609.57,0.13101
2605.71,0.13204
2601.85,0.13265
2597.99,0.13327
2594.14,0.13429
2590.28,0.13491
2586.42,0.13594
2582.56,0.13685
2578.71,0.13768
2574.85,0.13796
2570.99,0.13868
2567.13,0.13886
2563.28,0.13903
2559.42,0.13972
2555.56,0.14010
2551.7,0.14009
2547.85,0.14020
2543.99,0.14082
2540.13,0.14194
2536.27,0.14228
2532.42,0.14294
2528.56,0.14415
2524.7,0.14544
2520.85,0.14657
2516.99,0.14653
2513.13,0.14744
2509.27,0.14885
2505.42,0.15051
2501.56,0.15259
2497.7,0.15374
2493.84,0.15502
2489.99,0.15605
2486.13,0.15745
2482.27,0.15884
2478.41,0.16011
2474.56,0.16119
2470.7,0.16251
2466.84,0.16412
2462.98,0.16517
2459.13,0.16671
2455.27,0.16749
2451.41,0.16827
2447.55,0.16968
2443.7,0.17101
2439.84,0.17287
2435.98,0.17400
2432.12,0.17488
2428.27,0.17635
2424.41,0.17821
2420.55,0.17942
2416.69,0.18071
2412.84,0.18246
2408.98,0.18367
2405.12,0.18484
2401.26,0.18608
2397.41,0.18736
2393.55,0.18857
2389.69,0.18898
2385.83,0.18902
2381.98,0.18941
2378.12,0.18991
2374.26,0.18944
2370.4,0.18665
2366.55,0.18449
2362.69,0.18199
2358.83,0.18100
2354.97,0.18294
2351.12,0.18413
2347.26,0.18489
2343.4,0.18627
2339.54,0.18394
2335.69,0.18436
2331.83,0.18665
2327.97,0.18969
2324.12,0.19288
2320.26,0.19575
2316.4,0.19751
2312.54,0.19808
2308.69,0.19898
2304.83,0.20006
2300.97,0.20001
2297.11,0.19943
2293.26,0.19943
2289.4,0.19968
2285.54,0.19944
2281.68,0.19882
2277.83,0.19839
2273.97,0.19785
2270.11,0.19735
2266.25,0.19620
2262.4,0.19549
2258.54,0.19466
2254.68,0.19408
2250.82,0.19362
2246.97,0.19309
2243.11,0.19265
2239.25,0.19236
2235.39,0.19133
2231.54,0.19126
2227.68,0.19076
2223.82,0.19033
2219.96,0.19049
2216.11,0.18979
2212.25,0.18932
2208.39,0.18874
2204.53,0.18776
2200.68,0.18667
2196.82,0.18619
2192.96,0.18515
2189.1,0.18328
2185.25,0.18195
2181.39,0.17989
2177.53,0.17828
2173.67,0.17713
2169.82,0.17613
2165.96,0.17448
2162.1,0.17328
2158.24,0.17238
2154.39,0.17122
2150.53,0.17070
2146.67,0.16999
2142.81,0.16940
2138.96,0.16863
2135.1,0.16861
2131.24,0.16847
2127.38,0.16878
2123.53,0.16881
2119.67,0.16931
2115.81,0.16939
2111.96,0.17044
2108.1,0.17092
2104.24,0.17142
2100.38,0.17163
2096.53,0.17173
2092.67,0.17166
2088.81,0.17201
2084.95,0.17245
2081.1,0.17216
2077.24,0.17163
2073.38,0.17124
2069.52,0.17097
2065.67,0.17046
2061.81,0.16988
2057.95,0.16987
2054.09,0.17016
2050.24,0.17019
2046.38,0.17148
2042.52,0.17297
2038.66,0.17373
2034.81,0.17461
2030.95,0.17600
2027.09,0.17782
2023.23,0.18010
2019.38,0.18185
2015.52,0.18338
2011.66,0.18461
2007.8,0.18590
2003.95,0.18685
2000.09,0.18735
1996.23,0.18871
1992.37,0.19038
1988.52,0.19127
1984.66,0.19208
1980.8,0.19298
1976.94,0.19392
1973.09,0.19501
1969.23,0.19634
1965.37,0.19755
1961.51,0.19882
1957.66,0.20021
1953.8,0.20114
1949.94,0.20173
1946.08,0.20369
1942.23,0.20586
1938.37,0.20622
1934.51,0.20724
1930.65,0.20772
1926.8,0.20873
1922.94,0.21022
1919.08,0.21020
1915.23,0.20993
1911.37,0.21011
1907.51,0.21028
1903.65,0.20911
1899.8,0.20890
1895.94,0.20945
1892.08,0.20932
1888.22,0.20879
1884.37,0.20750
1880.51,0.20765
1876.65,0.20751
1872.79,0.20816
1868.94,0.20962
1865.08,0.20751
1861.22,0.20637
1857.36,0.20567
1853.51,0.20385
1849.65,0.20320
1845.79,0.20378
1841.93,0.20146
1838.08,0.19910
1834.22,0.19743
1830.36,0.19646
1826.5,0.19351
1822.65,0.19017
1818.79,0.18712
1814.93,0.18379
1811.07,0.18040
1807.22,0.17600
1803.36,0.17259
1799.5,0.16811
1795.64,0.16324
1791.79,0.15773
1787.93,0.15063
1784.07,0.14464
1780.21,0.13806
1776.36,0.13119
1772.5,0.12380
1768.64,0.11221
1764.78,0.10164
1760.93,0.09062
1757.07,0.07989
1753.21,0.07193
1749.35,0.06561
1745.5,0.06014
1741.64,0.05764
1737.78,0.05607
1733.92,0.05561
1730.07,0.05541
1726.21,0.05506
1722.35,0.05639
1718.5,0.06019
1714.64,0.06187
1710.78,0.06229
1706.92,0.06382
1703.07,0.06429
1699.21,0.06598
1695.35,0.06470
1691.49,0.06315
1687.64,0.06304
1683.78,0.06142
1679.92,0.05705
1676.06,0.05437
1672.21,0.05220
1668.35,0.04941
1664.49,0.04710
1660.63,0.04628
1656.78,0.04674
1652.92,0.04901
1649.06,0.04725
1645.2,0.04659
1641.35,0.04697
1637.49,0.04794
1633.63,0.04728
1629.77,0.04765
1625.92,0.04827
1622.06,0.04832
1618.2,0.04791
1614.34,0.04714
1610.49,0.04661
1606.63,0.04675
1602.77,0.04667
1598.91,0.04716
1595.06,0.04828
1591.2,0.04938
1587.34,0.05124
1583.48,0.05372
1579.63,0.05753
1575.77,0.06238
1571.91,0.06642
1568.05,0.07065
1564.2,0.07341
1560.34,0.07697
1556.48,0.07695
1552.62,0.07706
1548.77,0.07708
1544.91,0.07776
1541.05,0.07894
1537.19,0.07501
1533.34,0.06954
1529.48,0.06369
1525.62,0.05792
1521.76,0.05069
1517.91,0.04319
1514.05,0.03950
1510.19,0.03938
1506.34,0.04282
1502.48,0.04312
1498.62,0.04573
1494.76,0.04813
1490.91,0.04835
1487.05,0.04779
1483.19,0.04653
1479.33,0.04479
1475.48,0.04355
1471.62,0.04060
1467.76,0.03701
1463.9,0.03640
1460.05,0.03702
1456.19,0.03737
1452.33,0.03734
1448.47,0.03802
1444.62,0.03864
1440.76,0.03850
1436.9,0.03762
1433.04,0.03627
1429.19,0.03633
1425.33,0.03647
1421.47,0.03700
1417.61,0.03907
1413.76,0.03980
1409.9,0.04025
1406.04,0.04135
1402.18,0.04110
1398.33,0.04147
1394.47,0.03986
1390.61,0.03889
1386.75,0.03780
1382.9,0.03612
1379.04,0.03551
1375.18,0.03588
1371.32,0.03503
1367.47,0.03530
1363.61,0.03684
1359.75,0.03766
1355.89,0.03774
1352.04,0.03847
1348.18,0.03812
1344.32,0.03659
1340.46,0.03692
1336.61,0.03734
1332.75,0.03727
1328.89,0.03670
1325.03,0.03586
1321.18,0.03633
1317.32,0.03645
1313.46,0.03732
1309.61,0.03800
1305.75,0.03772
1301.89,0.03807
1298.03,0.03799
1294.18,0.03724
1290.32,0.03643
1286.46,0.03465
1282.6,0.03416
1278.75,0.03364
1274.89,0.03321
1271.03,0.03338
1267.17,0.03385
1263.32,0.03446
1259.46,0.03489
1255.6,0.03583
1251.74,0.03576
1247.89,0.03595
1244.03,0.03586
1240.17,0.03590
1236.31,0.03594
1232.46,0.03643
1228.6,0.03661
1224.74,0.03653
1220.88,0.03703
1217.03,0.03688
1213.17,0.03686
1209.31,0.03686
1205.45,0.03738
1201.6,0.03740
1197.74,0.03720
1193.88,0.03772
1190.02,0.03708
1186.17,0.03580
1182.31,0.03322
1178.45,0.03159
1174.59,0.03005
1170.74,0.02979
1166.88,0.02992
1163.02,0.03122
1159.16,0.03210
1155.31,0.03395
1151.45,0.03327
1147.59,0.03136
1143.73,0.03119
1139.88,0.03128
1136.02,0.03017
1132.16,0.02824
1128.3,0.02775
1124.45,0.02817
1120.59,0.02968
1116.73,0.02897
1112.88,0.02933
1109.02,0.03074
1105.16,0.03119
1101.3,0.03033
1097.45,0.03040
1093.59,0.03112
1089.73,0.03121
1085.87,0.03015
1082.02,0.03205
1078.16,0.03226
1074.3,0.03379
1070.44,0.03634
1066.59,0.03975
1062.73,0.04418
1058.87,0.04657
1055.01,0.04764
1051.16,0.04760
1047.3,0.04860
1043.44,0.04772
1039.58,0.04839
1035.73,0.05136
1031.87,0.05326
1028.01,0.05513
1024.15,0.05573
1020.3,0.05627
1016.44,0.05918
1012.58,0.06017
1008.72,0.05972
1004.87,0.06001
1001.01,0.06066
997.151,0.06305
993.294,0.06406
989.437,0.06433
985.579,0.06731
981.722,0.07038
977.864,0.07349
974.007,0.07541
970.149,0.07629
966.292,0.07719
962.434,0.08003
958.577,0.07984
954.719,0.08107
950.862,0.08321
947.005,0.08403
943.147,0.08487
939.29,0.08474
935.432,0.08539
931.575,0.08658
927.717,0.08775
923.86,0.08711
920.002,0.08638
916.145,0.08490
912.287,0.08245
908.43,0.07890
904.573,0.07557
900.715,0.07356
896.858,0.07504
893,0.07568
889.143,0.07700
885.285,0.07762
881.428,0.07780
877.57,0.07720
873.713,0.07658
869.856,0.07677
865.998,0.07709
862.141,0.07649
858.283,0.07778
854.426,0.07885
850.568,0.07942
846.711,0.08016
842.853,0.07966
838.996,0.07927
835.138,0.07892
831.281,0.07559
827.424,0.07424
823.566,0.07167
819.709,0.06966
815.851,0.06959
811.994,0.06785
808.136,0.06779
804.279,0.06644
800.421,0.06739
796.564,0.06940
792.706,0.06896
788.849,0.06787
784.992,0.06623
781.134,0.06509
777.277,0.06340
773.419,0.06313
769.562,0.06297
765.704,0.06243
761.847,0.06173
757.989,0.06079
754.132,0.06100
750.274,0.06002
746.417,0.05995
742.56,0.05995
738.702,0.05796
734.845,0.05707
730.987,0.05795
727.13,0.05792
723.272,0.05704
719.415,0.05512
715.557,0.05404
711.7,0.05557
707.843,0.05410
703.985,0.05470
700.128,0.05566
696.27,0.05444
692.413,0.05448
688.555,0.05291
684.698,0.05244
680.84,0.05094
676.983,0.04993
673.125,0.05125
669.268,0.05154
665.411,0.05046
661.553,0.05229
657.696,0.05372
653.838,0.05423
649.981,0.05172
646.123,0.05251
642.266,0.05490
638.408,0.05332
634.551,0.05136
630.693,0.05193
626.836,0.05230
622.979,0.05191
619.121,0.05361
615.264,0.05776
611.406,0.05896
607.549,0.05831
603.691,0.05706
599.834,0.05733
595.976,0.05919
592.119,0.05797
588.261,0.05791
584.404,0.05771
580.547,0.06281
576.689,0.06237
572.832,0.06082
568.974,0.06220
565.117,0.06173
561.259,0.06332
557.402,0.06278
553.544,0.06211
549.687,0.06303
545.83,0.06609
541.972,0.07102
538.115,0.06592
534.257,0.06434
530.4,0.06744
526.542,0.07107
522.685,0.06914
518.827,0.06757
514.97,0.06671
511.112,0.06748
507.255,0.07354
503.398,0.07040
499.54,0.07275
495.683,0.06876
491.825,0.06991
487.968,0.07310
484.11,0.07656
480.253,0.07609
476.395,0.07332
472.538,0.07200
468.68,0.07418
464.823,0.07176
460.966,0.06609
457.108,0.07555
453.251,0.07365
449.393,0.06596
445.536,0.06832
441.678,0.07229
437.821,0.07283
433.963,0.08422
430.106,0.09091
426.248,0.08502
422.391,0.07434
418.534,0.09435
414.676,0.09497
410.819,0.08904
406.961,0.08921
403.104,0.08753
399.246,0.08164