File: 01_Data/OSB/FTIR/IS/OSB_IS_REFLECT_MEAS_210623_R1.dpt
5996.41,0.47369
5992.55,0.47100
5988.69,0.47114
5984.84,0.46655
5980.98,0.46858
5977.12,0.46747
5973.27,0.46471
5969.41,0.47510
5965.55,0.47819
5961.69,0.47675
5957.84,0.47681
5953.98,0.48166
5950.12,0.47768
5946.26,0.47279
5942.41,0.48308
5938.55,0.48475
5934.69,0.47918
5930.83,0.47061
5926.98,0.47268
5923.12,0.47572
5919.26,0.47651
5915.4,0.47232
5911.55,0.46156
5907.69,0.46090
5903.83,0.46455
5899.97,0.46185
5896.12,0.45845
5892.26,0.46769
5888.4,0.46290
5884.54,0.47033
5880.69,0.47332
5876.83,0.47316
5872.97,0.47109
5869.11,0.47760
5865.26,0.46872
5861.4,0.47117
5857.54,0.47110
5853.68,0.46541
5849.83,0.46758
5845.97,0.47392
5842.11,0.46639
5838.25,0.46763
5834.4,0.46842
5830.54,0.46101
5826.68,0.46668
5822.82,0.46702
5818.97,0.46705
5815.11,0.46243
5811.25,0.46027
5807.39,0.46022
5803.54,0.46412
5799.68,0.46425
5795.82,0.46786
5791.96,0.46778
5788.11,0.46887
5784.25,0.46336
5780.39,0.46155
5776.53,0.46458
5772.68,0.46541
5768.82,0.46477
5764.96,0.46532
5761.11,0.46391
5757.25,0.46438
5753.39,0.46809
5749.53,0.46722
5745.68,0.46395
5741.82,0.47046
5737.96,0.46846
5734.1,0.46106
5730.25,0.46852
5726.39,0.46439
5722.53,0.46656
5718.67,0.46758
5714.82,0.46314
5710.96,0.46274
5707.1,0.46128
5703.24,0.45885
5699.39,0.46359
5695.53,0.46469
5691.67,0.46091
5687.81,0.46087
5683.96,0.46511
5680.1,0.46043
5676.24,0.45823
5672.38,0.46523
5668.53,0.45933
5664.67,0.46116
5660.81,0.46122
5656.95,0.45403
5653.1,0.45895
5649.24,0.45959
5645.38,0.46033
5641.52,0.45797
5637.67,0.45763
5633.81,0.46407
5629.95,0.45791
5626.09,0.46166
5622.24,0.46462
5618.38,0.46473
5614.52,0.46397
5610.66,0.45725
5606.81,0.45512
5602.95,0.46214
5599.09,0.46335
5595.23,0.45786
5591.38,0.46307
5587.52,0.46894
5583.66,0.46200
5579.8,0.46336
5575.95,0.46509
5572.09,0.46923
5568.23,0.46841
5564.38,0.46421
5560.52,0.46403
5556.66,0.46907
5552.8,0.46755
5548.95,0.46105
5545.09,0.46496
5541.23,0.47158
5537.37,0.47735
5533.52,0.47197
5529.66,0.46519
5525.8,0.46340
5521.94,0.46691
5518.09,0.47555
5514.23,0.47305
5510.37,0.46641
5506.51,0.46928
5502.66,0.46942
5498.8,0.47001
5494.94,0.47013
5491.08,0.46800
5487.23,0.47239
5483.37,0.47465
5479.51,0.47509
5475.65,0.47450
5471.8,0.47355
5467.94,0.47471
5464.08,0.47306
5460.22,0.47642
5456.37,0.47845
5452.51,0.48517
5448.65,0.48251
5444.79,0.47904
5440.94,0.48262
5437.08,0.47961
5433.22,0.48160
5429.36,0.48236
5425.51,0.48458
5421.65,0.49013
5417.79,0.48284
5413.93,0.47608
5410.08,0.48283
5406.22,0.48488
5402.36,0.48327
5398.5,0.48346
5394.65,0.48532
5390.79,0.48997
5386.93,0.48719
5383.07,0.48259
5379.22,0.48056
5375.36,0.48222
5371.5,0.48568
5367.65,0.48588
5363.79,0.49024
5359.93,0.48758
5356.07,0.47554
5352.22,0.47300
5348.36,0.47649
5344.5,0.47508
5340.64,0.46682
5336.79,0.46383
5332.93,0.46635
5329.07,0.46600
5325.21,0.47099
5321.36,0.46299
5317.5,0.45492
5313.64,0.45349
5309.78,0.45124
5305.93,0.44812
5302.07,0.44405
5298.21,0.43652
5294.35,0.43252
5290.5,0.42261
5286.64,0.41593
5282.78,0.40695
5278.92,0.39705
5275.07,0.39170
5271.21,0.38556
5267.35,0.37639
5263.49,0.36083
5259.64,0.35689
5255.78,0.35129
5251.92,0.34160
5248.06,0.33261
5244.21,0.32922
5240.35,0.32667
5236.49,0.32301
5232.63,0.31605
5228.78,0.31005
5224.92,0.30713
5221.06,0.30380
5217.2,0.30636
5213.35,0.30449
5209.49,0.30278
5205.63,0.29824
5201.77,0.29708
5197.92,0.29833
5194.06,0.29251
5190.2,0.29348
5186.34,0.29429
5182.49,0.29143
5178.63,0.29621
5174.77,0.29589
5170.91,0.29724
5167.06,0.29846
5163.2,0.29822
5159.34,0.30360
5155.49,0.30095
5151.63,0.29967
5147.77,0.30657
5143.91,0.30736
5140.06,0.30856
5136.2,0.31204
5132.34,0.31527
5128.48,0.32114
5124.63,0.32264
5120.77,0.31812
5116.91,0.32004
5113.05,0.32408
5109.2,0.32870
5105.34,0.32990
5101.48,0.32830
5097.62,0.32588
5093.77,0.33018
5089.91,0.33542
5086.05,0.34021
5082.19,0.33919
5078.34,0.33886
5074.48,0.34275
5070.62,0.34413
5066.76,0.34589
5062.91,0.34944
5059.05,0.34861
5055.19,0.34918
5051.33,0.35588
5047.48,0.35716
5043.62,0.35753
5039.76,0.35839
5035.9,0.36067
5032.05,0.35956
5028.19,0.36185
5024.33,0.36829
5020.47,0.36789
5016.62,0.36848
5012.76,0.37195
5008.9,0.37575
5005.04,0.37515
5001.19,0.37222
4997.33,0.37203
4993.47,0.37527
4989.61,0.37846
4985.76,0.37969
4981.9,0.37864
4978.04,0.37806
4974.18,0.37922
4970.33,0.37956
4966.47,0.37912
4962.61,0.37996
4958.76,0.37882
4954.9,0.37516
4951.04,0.37256
4947.18,0.37258
4943.33,0.37329
4939.47,0.36993
4935.61,0.36530
4931.75,0.36326
4927.9,0.36361
4924.04,0.36513
4920.18,0.36091
4916.32,0.35709
4912.47,0.35822
4908.61,0.35586
4904.75,0.35507
4900.89,0.35241
4897.04,0.34792
4893.18,0.34565
4889.32,0.34265
4885.46,0.34100
4881.61,0.33855
4877.75,0.33491
4873.89,0.33379
4870.03,0.32941
4866.18,0.32805
4862.32,0.32621
4858.46,0.32445
4854.6,0.32026
4850.75,0.32075
4846.89,0.32016
4843.03,0.31717
4839.17,0.31279
4835.32,0.31235
4831.46,0.31088
4827.6,0.30877
4823.74,0.30730
4819.89,0.30582
4816.03,0.30347
4812.17,0.30283
4808.31,0.30337
4804.46,0.30204
4800.6,0.30046
4796.74,0.30014
4792.88,0.30037
4789.03,0.30054
4785.17,0.29925
4781.31,0.29832
4777.45,0.29666
4773.6,0.29616
4769.74,0.29275
4765.88,0.29421
4762.02,0.29329
4758.17,0.29288
4754.31,0.29381
4750.45,0.29584
4746.6,0.29366
4742.74,0.29565
4738.88,0.29679
4735.02,0.29704
4731.17,0.29676
4727.31,0.29903
4723.45,0.29921
4719.59,0.29717
4715.74,0.29775
4711.88,0.29970
4708.02,0.29964
4704.16,0.30145
4700.31,0.30346
4696.45,0.30401
4692.59,0.30358
4688.73,0.30381
4684.88,0.30225
4681.02,0.30487
4677.16,0.30615
4673.3,0.30439
4669.45,0.30560
4665.59,0.30690
4661.73,0.30809
4657.87,0.30809
4654.02,0.30776
4650.16,0.31026
4646.3,0.30904
4642.44,0.31198
4638.59,0.31419
4634.73,0.31355
4630.87,0.31676
4627.01,0.31901
4623.16,0.31936
4619.3,0.31979
4615.44,0.32297
4611.58,0.32449
4607.73,0.32505
4603.87,0.32683
4600.01,0.32943
4596.15,0.33053
4592.3,0.33143
4588.44,0.33485
4584.58,0.33508
4580.72,0.33644
4576.87,0.33761
4573.01,0.33844
4569.15,0.34033
4565.29,0.34006
4561.44,0.34157
4557.58,0.34181
4553.72,0.34463
4549.87,0.34749
4546.01,0.34883
4542.15,0.34786
4538.29,0.34761
4534.44,0.34777
4530.58,0.35091
4526.72,0.35001
4522.86,0.34943
4519.01,0.34763
4515.15,0.34779
4511.29,0.34935
4507.43,0.34989
4503.58,0.34757
4499.72,0.34837
4495.86,0.34627
4492,0.34564
4488.15,0.34398
4484.29,0.34175
4480.43,0.33848
4476.57,0.33620
4472.72,0.33338
4468.86,0.32915
4465,0.32553
4461.14,0.32303
4457.29,0.31877
4453.43,0.31432
4449.57,0.31130
4445.71,0.30744
4441.86,0.30345
4438,0.29996
4434.14,0.29476
4430.28,0.29170
4426.43,0.28731
4422.57,0.28276
4418.71,0.27904
4414.85,0.27541
4411,0.27306
4407.14,0.27069
4403.28,0.26755
4399.42,0.26667
4395.57,0.26730
4391.71,0.26630
4387.85,0.26729
4383.99,0.26865
4380.14,0.26955
4376.28,0.27127
4372.42,0.27212
4368.56,0.27220
4364.71,0.27419
4360.85,0.27582
4356.99,0.27456
4353.14,0.27537
4349.28,0.27402
4345.42,0.27274
4341.56,0.27175
4337.71,0.27072
4333.85,0.27053
4329.99,0.27036
4326.13,0.26722
4322.28,0.26389
4318.42,0.26403
4314.56,0.26470
4310.7,0.26360
4306.85,0.26248
4302.99,0.26085
4299.13,0.25919
4295.27,0.25914
4291.42,0.25839
4287.56,0.25757
4283.7,0.25688
4279.84,0.25650
4275.99,0.25485
4272.13,0.25596
4268.27,0.25758
4264.41,0.25713
4260.56,0.25733
4256.7,0.25862
4252.84,0.25815
4248.98,0.25887
4245.13,0.26048
4241.27,0.26064
4237.41,0.26013
4233.55,0.26147
4229.7,0.26160
4225.84,0.26179
4221.98,0.26163
4218.12,0.26057
4214.27,0.26052
4210.41,0.26143
4206.55,0.26126
4202.69,0.26086
4198.84,0.26059
4194.98,0.25980
4191.12,0.26177
4187.26,0.26153
4183.41,0.26182
4179.55,0.26122
4175.69,0.26194
4171.83,0.26302
4167.98,0.26366
4164.12,0.26414
4160.26,0.26323
4156.4,0.26322
4152.55,0.26146
4148.69,0.26045
4144.83,0.26021
4140.98,0.25827
4137.12,0.25702
4133.26,0.25345
4129.4,0.25322
4125.55,0.25310
4121.69,0.24931
4117.83,0.24634
4113.97,0.24487
4110.12,0.24176
4106.26,0.23975
4102.4,0.23820
4098.54,0.23406
4094.69,0.23125
4090.83,0.22935
4086.97,0.22765
4083.11,0.22446
4079.26,0.22067
4075.4,0.21768
4071.54,0.21509
4067.68,0.21355
4063.83,0.21150
4059.97,0.20823
4056.11,0.20506
4052.25,0.20141
4048.4,0.19815
4044.54,0.19647
4040.68,0.19561
4036.82,0.19400
4032.97,0.19213
4029.11,0.19192
4025.25,0.18996
4021.39,0.19026
4017.54,0.18965
4013.68,0.18912
4009.82,0.18901
4005.96,0.18914
4002.11,0.18859
3998.25,0.18942
3994.39,0.19108
3990.53,0.19256
3986.68,0.19320
3982.82,0.19334
3978.96,0.19455
3975.1,0.19437
3971.25,0.19490
3967.39,0.19657
3963.53,0.19713
3959.67,0.19838
3955.82,0.19836
3951.96,0.19980
3948.1,0.20144
3944.25,0.20202
3940.39,0.20430
3936.53,0.20531
3932.67,0.20687
3928.82,0.20702
3924.96,0.20849
3921.1,0.21001
3917.24,0.21089
3913.39,0.21262
3909.53,0.21245
3905.67,0.21289
3901.81,0.21401
3897.96,0.21533
3894.1,0.21617
3890.24,0.21835
3886.38,0.21936
3882.53,0.21954
3878.67,0.22176
3874.81,0.22080
3870.95,0.22118
3867.1,0.22179
3863.24,0.22328
3859.38,0.22355
3855.52,0.22201
3851.67,0.22606
3847.81,0.22676
3843.95,0.22616
3840.09,0.22651
3836.24,0.23007
3832.38,0.23048
3828.52,0.22976
3824.66,0.22893
3820.81,0.22748
3816.95,0.22726
3813.09,0.22898
3809.23,0.22847
3805.38,0.22697
3801.52,0.22729
3797.66,0.22824
3793.8,0.22809
3789.95,0.22813
3786.09,0.22759
3782.23,0.22665
3778.37,0.22608
3774.52,0.22443
3770.66,0.22260
3766.8,0.22111
3762.94,0.21913
3759.09,0.21849
3755.23,0.21505
3751.37,0.21217
3747.51,0.20922
3743.66,0.20859
3739.8,0.20612
3735.94,0.20329
3732.09,0.20031
3728.23,0.19817
3724.37,0.19720
3720.51,0.19554
3716.66,0.19268
3712.8,0.18624
3708.94,0.18102
3705.08,0.17776
3701.23,0.17270
3697.37,0.16697
3693.51,0.16103
3689.65,0.15191
3685.8,0.14355
3681.94,0.13654
3678.08,0.12737
3674.22,0.11613
3670.37,0.10881
3666.51,0.10100
3662.65,0.09343
3658.79,0.08640
3654.94,0.08014
3651.08,0.07507
3647.22,0.06952
3643.36,0.06556
3639.51,0.06212
3635.65,0.05823
3631.79,0.05488
3627.93,0.05305
3624.08,0.04972
3620.22,0.04809
3616.36,0.04597
3612.5,0.04494
3608.65,0.04391
3604.79,0.04212
3600.93,0.04028
3597.07,0.04007
3593.22,0.03957
3589.36,0.03737
3585.5,0.03606
3581.64,0.03570
3577.79,0.03537
3573.93,0.03375
3570.07,0.03323
3566.21,0.03380
3562.36,0.03220
3558.5,0.03124
3554.64,0.03013
3550.78,0.03000
3546.93,0.02991
3543.07,0.02974
3539.21,0.02894
3535.36,0.02848
3531.5,0.02902
3527.64,0.02972
3523.78,0.02905
3519.93,0.02841
3516.07,0.02806
3512.21,0.02749
3508.35,0.02705
3504.5,0.02685
3500.64,0.02629
3496.78,0.02500
3492.92,0.02539
3489.07,0.02580
3485.21,0.02485
3481.35,0.02459
3477.49,0.02481
3473.64,0.02481
3469.78,0.02474
3465.92,0.02494
3462.06,0.02461
3458.21,0.02434
3454.35,0.02386
3450.49,0.02352
3446.63,0.02360
3442.78,0.02395
3438.92,0.02498
3435.06,0.02421
3431.2,0.02395
3427.35,0.02492
3423.49,0.02446
3419.63,0.02445
3415.77,0.02441
3411.92,0.02481
3408.06,0.02390
3404.2,0.02459
3400.34,0.02500
3396.49,0.02533
3392.63,0.02563
3388.77,0.02586
3384.91,0.02514
3381.06,0.02516
3377.2,0.02499
3373.34,0.02483
3369.48,0.02491
3365.63,0.02535
3361.77,0.02541
3357.91,0.02516
3354.05,0.02598
3350.2,0.02643
3346.34,0.02607
3342.48,0.02661
3338.63,0.02619
3334.77,0.02661
3330.91,0.02720
3327.05,0.02775
3323.2,0.02817
3319.34,0.02840
3315.48,0.02802
3311.62,0.02890
3307.77,0.02854
3303.91,0.02837
3300.05,0.02903
3296.19,0.02811
3292.34,0.02869
3288.48,0.02942
3284.62,0.02933
3280.76,0.02935
3276.91,0.02998
3273.05,0.03040
3269.19,0.03135
3265.33,0.03124
3261.48,0.03101
3257.62,0.03200
3253.76,0.03232
3249.9,0.03265
3246.05,0.03290
3242.19,0.03311
3238.33,0.03327
3234.47,0.03277
3230.62,0.03377
3226.76,0.03441
3222.9,0.03424
3219.04,0.03412
3215.19,0.03435
3211.33,0.03600
3207.47,0.03512
3203.61,0.03544
3199.76,0.03650
3195.9,0.03671
3192.04,0.03722
3188.18,0.03794
3184.33,0.03867
3180.47,0.03860
3176.61,0.03928
3172.75,0.03995
3168.9,0.03998
3165.04,0.04000
3161.18,0.04071
3157.32,0.04114
3153.47,0.04098
3149.61,0.04177
3145.75,0.04211
3141.89,0.04251
3138.04,0.04365
3134.18,0.04377
3130.32,0.04398
3126.47,0.04456
3122.61,0.04483
3118.75,0.04524
3114.89,0.04605
3111.04,0.04640
3107.18,0.04728
3103.32,0.04855
3099.46,0.04910
3095.61,0.04933
3091.75,0.04925
3087.89,0.04965
3084.03,0.04993
3080.18,0.05044
3076.32,0.05125
3072.46,0.05177
3068.6,0.05279
3064.75,0.05334
3060.89,0.05412
3057.03,0.05488
3053.17,0.05531
3049.32,0.05528
3045.46,0.05576
3041.6,0.05616
3037.74,0.05652
3033.89,0.05616
3030.03,0.05635
3026.17,0.05687
3022.31,0.05674
3018.46,0.05712
3014.6,0.05688
3010.74,0.05601
3006.88,0.05647
3003.03,0.05635
2999.17,0.05602
2995.31,0.05516
2991.45,0.05451
2987.6,0.05358
2983.74,0.05237
2979.88,0.05073
2976.02,0.04865
2972.17,0.04691
2968.31,0.04520
2964.45,0.04455
2960.59,0.04349
2956.74,0.04281
2952.88,0.04194
2949.02,0.04024
2945.16,0.03994
2941.31,0.03978
2937.45,0.03917
2933.59,0.03946
2929.74,0.03896
2925.88,0.03898
2922.02,0.03967
2918.16,0.03949
2914.31,0.03930
2910.45,0.03983
2906.59,0.03990
2902.73,0.04003
2898.88,0.03977
2895.02,0.03998
2891.16,0.03979
2887.3,0.04136
2883.45,0.04230
2879.59,0.04272
2875.73,0.04299
2871.87,0.04325
2868.02,0.04376
2864.16,0.04419
2860.3,0.04436
2856.44,0.04410
2852.59,0.04588
2848.73,0.04750
2844.87,0.04866
2841.01,0.05074
2837.16,0.05264
2833.3,0.05467
2829.44,0.05651
2825.58,0.05873
2821.73,0.06096
2817.87,0.06231
2814.01,0.06371
2810.15,0.06531
2806.3,0.06659
2802.44,0.06817
2798.58,0.06908
2794.72,0.06992
2790.87,0.07051
2787.01,0.07170
2783.15,0.07277
2779.29,0.07248
2775.44,0.07304
2771.58,0.07367
2767.72,0.07414
2763.86,0.07468
2760.01,0.07514
2756.15,0.07472
2752.29,0.07514
2748.43,0.07539
2744.58,0.07553
2740.72,0.07598
2736.86,0.07648
2733.01,0.07645
2729.15,0.07740
2725.29,0.07776
2721.43,0.07824
2717.58,0.07833
2713.72,0.07964
2709.86,0.08040
2706,0.08175
2702.15,0.08268
2698.29,0.08307
2694.43,0.08403
2690.57,0.08471
2686.72,0.08542
2682.86,0.08647
2679,0.08759
2675.14,0.08817
2671.29,0.08893
2667.43,0.08965
2663.57,0.09040
2659.71,0.09125
2655.86,0.09143
2652,0.09218
2648.14,0.09287
2644.28,0.09352
2640.43,0.09436
2636.57,0.09574
2632.71,0.09680
2628.85,0.09767
2625,0.09857
2621.14,0.09889
2617.28,0.09966
2613.42,0.09978
2609.57,0.10109
2605.71,0.10135
2601.85,0.10231
2597.99,0.10279
2594.14,0.10366
2590.28,0.10358
2586.42,0.10392
2582.56,0.10445
2578.71,0.10549
2574.85,0.10547
2570.99,0.10585
2567.13,0.10617
2563.28,0.10618
2559.42,0.10668
2555.56,0.10654
2551.7,0.10721
2547.85,0.10769
2543.99,0.10781
2540.13,0.10814
2536.27,0.10879
2532.42,0.10925
2528.56,0.10947
2524.7,0.11036
2520.85,0.11145
2516.99,0.11195
2513.13,0.11242
2509.27,0.11310
2505.42,0.11430
2501.56,0.11603
2497.7,0.11761
2493.84,0.11828
2489.99,0.11909
2486.13,0.12018
2482.27,0.12153
2478.41,0.12282
2474.56,0.12347
2470.7,0.12463
2466.84,0.12545
2462.98,0.12616
2459.13,0.12708
2455.27,0.12812
2451.41,0.12883
2447.55,0.12997
2443.7,0.13118
2439.84,0.13210
2435.98,0.13261
2432.12,0.13418
2428.27,0.13572
2424.41,0.13675
2420.55,0.13771
2416.69,0.13858
2412.84,0.13939
2408.98,0.14078
2405.12,0.14171
2401.26,0.14230
2397.41,0.14322
2393.55,0.14375
2389.69,0.14447
2385.83,0.14498
2381.98,0.14453
2378.12,0.14344
2374.26,0.14287
2370.4,0.14226
2366.55,0.14159
2362.69,0.13959
2358.83,0.13983
2354.97,0.14214
2351.12,0.14243
2347.26,0.14196
2343.4,0.14342
2339.54,0.14364
2335.69,0.14280
2331.83,0.14364
2327.97,0.14535
2324.12,0.14751
2320.26,0.15010
2316.4,0.15021
2312.54,0.15134
2308.69,0.15192
2304.83,0.15188
2300.97,0.15290
2297.11,0.15331
2293.26,0.15311
2289.4,0.15324
2285.54,0.15325
2281.68,0.15264
2277.83,0.15207
2273.97,0.15191
2270.11,0.15146
2266.25,0.15107
2262.4,0.15018
2258.54,0.14877
2254.68,0.14825
2250.82,0.14847
2246.97,0.14854
2243.11,0.14800
2239.25,0.14770
2235.39,0.14711
2231.54,0.14660
2227.68,0.14630
2223.82,0.14657
2219.96,0.14589
2216.11,0.14562
2212.25,0.14525
2208.39,0.14505
2204.53,0.14465
2200.68,0.14360
2196.82,0.14266
2192.96,0.14186
2189.1,0.14102
2185.25,0.13925
2181.39,0.13808
2177.53,0.13690
2173.67,0.13565
2169.82,0.13438
2165.96,0.13350
2162.1,0.13277
2158.24,0.13179
2154.39,0.13119
2150.53,0.13074
2146.67,0.12989
2142.81,0.12900
2138.96,0.12930
2135.1,0.12901
2131.24,0.12841
2127.38,0.12871
2123.53,0.12923
2119.67,0.12962
2115.81,0.12988
2111.96,0.13018
2108.1,0.13066
2104.24,0.13076
2100.38,0.13105
2096.53,0.13204
2092.67,0.13230
2088.81,0.13250
2084.95,0.13297
2081.1,0.13294
2077.24,0.13284
2073.38,0.13230
2069.52,0.13187
2065.67,0.13147
2061.81,0.13108
2057.95,0.13121
2054.09,0.13125
2050.24,0.13164
2046.38,0.13263
2042.52,0.13305
2038.66,0.13404
2034.81,0.13538
2030.95,0.13636
2027.09,0.13753
2023.23,0.13902
2019.38,0.14081
2015.52,0.14207
2011.66,0.14298
2007.8,0.14406
2003.95,0.14486
2000.09,0.14558
1996.23,0.14647
1992.37,0.14827
1988.52,0.14885
1984.66,0.14903
1980.8,0.14995
1976.94,0.15042
1973.09,0.15087
1969.23,0.15203
1965.37,0.15318
1961.51,0.15385
1957.66,0.15454
1953.8,0.15511
1949.94,0.15627
1946.08,0.15834
1942.23,0.16100
1938.37,0.16032
1934.51,0.16077
1930.65,0.16141
1926.8,0.16237
1922.94,0.16353
1919.08,0.16350
1915.23,0.16325
1911.37,0.16330
1907.51,0.16367
1903.65,0.16302
1899.8,0.16234
1895.94,0.16260
1892.08,0.16294
1888.22,0.16291
1884.37,0.16151
1880.51,0.16083
1876.65,0.16098
1872.79,0.16114
1868.94,0.16268
1865.08,0.16037
1861.22,0.15947
1857.36,0.15866
1853.51,0.15758
1849.65,0.15707
1845.79,0.15751
1841.93,0.15545
1838.08,0.15311
1834.22,0.15158
1830.36,0.15175
1826.5,0.14966
1822.65,0.14657
1818.79,0.14348
1814.93,0.14083
1811.07,0.13833
1807.22,0.13495
1803.36,0.13230
1799.5,0.12933
1795.64,0.12507
1791.79,0.12172
1787.93,0.11554
1784.07,0.11072
1780.21,0.10573
1776.36,0.10033
1772.5,0.09618
1768.64,0.08712
1764.78,0.07909
1760.93,0.07159
1757.07,0.06369
1753.21,0.05786
1749.35,0.05319
1745.5,0.04991
1741.64,0.04788
1737.78,0.04627
1733.92,0.04703
1730.07,0.04535
1726.21,0.04475
1722.35,0.04525
1718.5,0.04781
1714.64,0.04917
1710.78,0.04902
1706.92,0.05040
1703.07,0.05171
1699.21,0.05359
1695.35,0.05186
1691.49,0.04940
1687.64,0.04824
1683.78,0.04858
1679.92,0.04530
1676.06,0.04346
1672.21,0.04247
1668.35,0.04051
1664.49,0.03917
1660.63,0.03838
1656.78,0.03814
1652.92,0.04106
1649.06,0.03992
1645.2,0.03927
1641.35,0.03894
1637.49,0.04064
1633.63,0.03974
1629.77,0.03793
1625.92,0.03894
1622.06,0.03949
1618.2,0.03931
1614.34,0.03925
1610.49,0.03858
1606.63,0.03805
1602.77,0.03768
1598.91,0.03774
1595.06,0.03879
1591.2,0.03947
1587.34,0.04106
1583.48,0.04305
1579.63,0.04573
1575.77,0.05003
1571.91,0.05150
1568.05,0.05462
1564.2,0.05542
1560.34,0.05930
1556.48,0.06113
1552.62,0.05844
1548.77,0.05879
1544.91,0.05986
1541.05,0.06222
1537.19,0.05710
1533.34,0.05449
1529.48,0.05082
1525.62,0.04597
1521.76,0.04004
1517.91,0.03523
1514.05,0.03257
1510.19,0.03341
1506.34,0.03654
1502.48,0.03514
1498.62,0.03739
1494.76,0.03804
1490.91,0.03828
1487.05,0.03800
1483.19,0.03619
1479.33,0.03568
1475.48,0.03514
1471.62,0.03288
1467.76,0.03149
1463.9,0.03090
1460.05,0.03149
1456.19,0.03387
1452.33,0.03088
1448.47,0.03106
1444.62,0.03136
1440.76,0.03125
1436.9,0.03132
1433.04,0.02992
1429.19,0.02966
1425.33,0.02998
1421.47,0.03106
1417.61,0.03217
1413.76,0.03151
1409.9,0.03242
1406.04,0.03313
1402.18,0.03281
1398.33,0.03301
1394.47,0.03257
1390.61,0.03181
1386.75,0.03099
1382.9,0.02970
1379.04,0.02890
1375.18,0.02878
1371.32,0.02950
1367.47,0.02989
1363.61,0.03054
1359.75,0.03098
1355.89,0.03111
1352.04,0.03115
1348.18,0.03146
1344.32,0.03060
1340.46,0.03036
1336.61,0.02972
1332.75,0.02957
1328.89,0.02972
1325.03,0.02993
1321.18,0.03004
1317.32,0.03020
1313.46,0.03009
1309.61,0.03073
1305.75,0.03079
1301.89,0.03064
1298.03,0.03090
1294.18,0.03069
1290.32,0.03003
1286.46,0.02891
1282.6,0.02814
1278.75,0.02807
1274.89,0.02772
1271.03,0.02737
1267.17,0.02786
1263.32,0.02802
1259.46,0.02809
1255.6,0.02885
1251.74,0.03048
1247.89,0.03038
1244.03,0.02926
1240.17,0.02953
1236.31,0.02990
1232.46,0.03009
1228.6,0.03075
1224.74,0.03022
1220.88,0.03014
1217.03,0.03070
1213.17,0.03144
1209.31,0.03158
1205.45,0.03133
1201.6,0.03085
1197.74,0.03118
1193.88,0.03195
1190.02,0.03145
1186.17,0.02914
1182.31,0.02820
1178.45,0.02743
1174.59,0.02624
1170.74,0.02580
1166.88,0.02533
1163.02,0.02599
1159.16,0.02676
1155.31,0.02748
1151.45,0.02658
1147.59,0.02568
1143.73,0.02553
1139.88,0.02601
1136.02,0.02566
1132.16,0.02484
1128.3,0.02451
1124.45,0.02354
1120.59,0.02358
1116.73,0.02430
1112.88,0.02398
1109.02,0.02602
1105.16,0.02692
1101.3,0.02721
1097.45,0.02576
1093.59,0.02582
1089.73,0.02555
1085.87,0.02575
1082.02,0.02746
1078.16,0.02821
1074.3,0.02968
1070.44,0.03071
1066.59,0.03278
1062.73,0.03667
1058.87,0.03962
1055.01,0.04133
1051.16,0.04063
1047.3,0.03922
1043.44,0.03782
1039.58,0.03913
1035.73,0.04244
1031.87,0.04490
1028.01,0.04566
1024.15,0.04638
1020.3,0.04692
1016.44,0.04742
1012.58,0.04737
1008.72,0.04749
1004.87,0.04682
1001.01,0.04681
997.151,0.04783
993.294,0.04983
989.437,0.05036
985.579,0.05221
981.722,0.05467
977.864,0.05634
974.007,0.05697
970.149,0.05757
966.292,0.05743
962.434,0.05815
958.577,0.05915
954.719,0.06006
950.862,0.06132
947.005,0.06201
943.147,0.06243
939.29,0.06341
935.432,0.06375
931.575,0.06343
927.717,0.06407
923.86,0.06433
920.002,0.06479
916.145,0.06275
912.287,0.06116
908.43,0.05863
904.573,0.05712
900.715,0.05636
896.858,0.05461
893,0.05507
889.143,0.05718
885.285,0.05872
881.428,0.05876
877.57,0.06016
873.713,0.05825
869.856,0.05779
865.998,0.05582
862.141,0.05733
858.283,0.05729
854.426,0.05752
850.568,0.05831
846.711,0.05756
842.853,0.05706
838.996,0.05565
835.138,0.05614
831.281,0.05484
827.424,0.05445
823.566,0.05438
819.709,0.05203
815.851,0.04841
811.994,0.04821
808.136,0.04891
804.279,0.04882
800.421,0.05029
796.564,0.05132
792.706,0.05027
788.849,0.04868
784.992,0.04894
781.134,0.04872
777.277,0.04831
773.419,0.04730
769.562,0.04675
765.704,0.04550
761.847,0.04480
757.989,0.04458
754.132,0.04320
750.274,0.04349
746.417,0.04293
742.56,0.04305
738.702,0.04292
734.845,0.04400
730.987,0.04457
727.13,0.04219
723.272,0.04069
719.415,0.03941
715.557,0.03823
711.7,0.03898
707.843,0.03998
703.985,0.04042
700.128,0.04048
696.27,0.03989
692.413,0.03766
688.555,0.03753
684.698,0.03877
680.84,0.03842
676.983,0.03641
673.125,0.03649
669.268,0.03798
665.411,0.03850
661.553,0.03743
657.696,0.03738
653.838,0.03972
649.981,0.03808
646.123,0.03916
642.266,0.03950
638.408,0.03857
634.551,0.03775
630.693,0.03841
626.836,0.03972
622.979,0.03785
619.121,0.03810
615.264,0.03913
611.406,0.04072
607.549,0.04131
603.691,0.04121
599.834,0.04388
595.976,0.04439
592.119,0.04389
588.261,0.04097
584.404,0.04433
580.547,0.04611
576.689,0.04126
572.832,0.04126
568.974,0.04566
565.117,0.04690
561.259,0.04669
557.402,0.04805
553.544,0.04991
549.687,0.05021
545.83,0.04834
541.972,0.04435
538.115,0.04739
534.257,0.05104
530.4,0.05010
526.542,0.04663
522.685,0.04404
518.827,0.05214
514.97,0.05387
511.112,0.05043
507.255,0.04797
503.398,0.04560
499.54,0.05017
495.683,0.04994
491.825,0.05123
487.968,0.05126
484.11,0.05782
480.253,0.05538
476.395,0.05278
472.538,0.05544
468.68,0.05268
464.823,0.05431
460.966,0.05190
457.108,0.05240
453.251,0.05294
449.393,0.05549
445.536,0.05739
441.678,0.05549
437.821,0.05463
433.963,0.05764
430.106,0.06074
426.248,0.05843
422.391,0.04400
418.534,0.04117
414.676,0.04764
410.819,0.05933
406.961,0.05334
403.104,0.04993
399.246,0.04862