File: 01_Data/OSB/FTIR/IS/OSB_IS_REFLECT_MEAS_210623_R7.dpt
5996.41,0.47993
5992.55,0.48262
5988.69,0.48095
5984.84,0.48524
5980.98,0.48449
5977.12,0.47510
5973.27,0.46996
5969.41,0.47165
5965.55,0.48146
5961.69,0.47738
5957.84,0.47021
5953.98,0.47818
5950.12,0.48352
5946.26,0.48508
5942.41,0.48067
5938.55,0.47024
5934.69,0.47174
5930.83,0.47661
5926.98,0.47463
5923.12,0.47738
5919.26,0.47789
5915.4,0.47257
5911.55,0.47522
5907.69,0.47702
5903.83,0.47577
5899.97,0.47069
5896.12,0.46855
5892.26,0.47257
5888.4,0.47133
5884.54,0.46876
5880.69,0.46477
5876.83,0.46812
5872.97,0.47281
5869.11,0.47771
5865.26,0.47482
5861.4,0.47118
5857.54,0.46819
5853.68,0.46476
5849.83,0.47553
5845.97,0.47329
5842.11,0.46506
5838.25,0.46142
5834.4,0.46445
5830.54,0.46743
5826.68,0.47116
5822.82,0.47470
5818.97,0.47307
5815.11,0.46836
5811.25,0.46547
5807.39,0.46489
5803.54,0.46468
5799.68,0.46789
5795.82,0.46748
5791.96,0.46907
5788.11,0.46520
5784.25,0.46769
5780.39,0.46964
5776.53,0.47334
5772.68,0.46890
5768.82,0.46643
5764.96,0.47200
5761.11,0.46777
5757.25,0.46908
5753.39,0.47066
5749.53,0.46723
5745.68,0.46993
5741.82,0.47708
5737.96,0.47255
5734.1,0.46674
5730.25,0.46766
5726.39,0.47119
5722.53,0.47668
5718.67,0.47551
5714.82,0.47100
5710.96,0.46791
5707.1,0.46560
5703.24,0.46732
5699.39,0.46634
5695.53,0.46694
5691.67,0.46740
5687.81,0.46751
5683.96,0.46944
5680.1,0.46579
5676.24,0.46938
5672.38,0.47152
5668.53,0.46994
5664.67,0.46844
5660.81,0.46045
5656.95,0.45826
5653.1,0.46642
5649.24,0.46601
5645.38,0.46591
5641.52,0.46189
5637.67,0.46504
5633.81,0.46763
5629.95,0.47081
5626.09,0.47275
5622.24,0.47235
5618.38,0.47078
5614.52,0.46839
5610.66,0.46518
5606.81,0.46464
5602.95,0.47167
5599.09,0.46924
5595.23,0.46755
5591.38,0.47312
5587.52,0.47735
5583.66,0.47244
5579.8,0.47490
5575.95,0.47248
5572.09,0.47683
5568.23,0.47615
5564.38,0.46916
5560.52,0.47482
5556.66,0.47573
5552.8,0.47207
5548.95,0.47184
5545.09,0.47133
5541.23,0.47562
5537.37,0.48308
5533.52,0.47714
5529.66,0.47267
5525.8,0.47094
5521.94,0.47590
5518.09,0.48096
5514.23,0.47255
5510.37,0.47091
5506.51,0.47584
5502.66,0.47948
5498.8,0.47980
5494.94,0.47458
5491.08,0.47091
5487.23,0.47681
5483.37,0.48155
5479.51,0.47829
5475.65,0.47689
5471.8,0.48004
5467.94,0.48196
5464.08,0.48041
5460.22,0.48531
5456.37,0.48410
5452.51,0.48835
5448.65,0.48984
5444.79,0.48426
5440.94,0.49027
5437.08,0.48897
5433.22,0.48981
5429.36,0.48687
5425.51,0.49178
5421.65,0.49733
5417.79,0.49021
5413.93,0.48409
5410.08,0.48949
5406.22,0.49115
5402.36,0.48757
5398.5,0.49046
5394.65,0.49257
5390.79,0.49659
5386.93,0.49024
5383.07,0.48697
5379.22,0.48883
5375.36,0.49174
5371.5,0.49427
5367.65,0.49112
5363.79,0.49091
5359.93,0.49228
5356.07,0.48250
5352.22,0.47620
5348.36,0.47739
5344.5,0.47520
5340.64,0.47434
5336.79,0.47343
5332.93,0.47348
5329.07,0.47691
5325.21,0.47726
5321.36,0.46943
5317.5,0.46486
5313.64,0.46344
5309.78,0.45769
5305.93,0.45548
5302.07,0.45253
5298.21,0.44575
5294.35,0.43820
5290.5,0.42977
5286.64,0.42137
5282.78,0.41255
5278.92,0.40953
5275.07,0.40082
5271.21,0.39170
5267.35,0.38090
5263.49,0.36505
5259.64,0.36020
5255.78,0.35836
5251.92,0.34950
5248.06,0.33948
5244.21,0.33205
5240.35,0.32794
5236.49,0.32563
5232.63,0.31592
5228.78,0.30834
5224.92,0.30955
5221.06,0.30868
5217.2,0.30926
5213.35,0.30560
5209.49,0.30275
5205.63,0.30314
5201.77,0.30043
5197.92,0.29669
5194.06,0.29798
5190.2,0.29837
5186.34,0.29823
5182.49,0.29678
5178.63,0.29967
5174.77,0.30273
5170.91,0.30297
5167.06,0.30465
5163.2,0.30330
5159.34,0.30634
5155.49,0.30480
5151.63,0.30730
5147.77,0.31130
5143.91,0.31392
5140.06,0.31591
5136.2,0.31928
5132.34,0.32151
5128.48,0.32666
5124.63,0.32850
5120.77,0.32532
5116.91,0.32701
5113.05,0.32580
5109.2,0.32800
5105.34,0.33107
5101.48,0.33365
5097.62,0.33548
5093.77,0.33803
5089.91,0.34076
5086.05,0.34558
5082.19,0.34518
5078.34,0.34638
5074.48,0.35015
5070.62,0.35092
5066.76,0.35627
5062.91,0.35467
5059.05,0.35231
5055.19,0.35497
5051.33,0.36135
5047.48,0.36277
5043.62,0.36226
5039.76,0.36555
5035.9,0.37163
5032.05,0.37182
5028.19,0.37234
5024.33,0.37447
5020.47,0.37327
5016.62,0.37435
5012.76,0.37720
5008.9,0.38049
5005.04,0.38259
5001.19,0.38155
4997.33,0.38057
4993.47,0.38168
4989.61,0.38477
4985.76,0.38573
4981.9,0.38425
4978.04,0.38487
4974.18,0.38422
4970.33,0.38313
4966.47,0.38422
4962.61,0.38458
4958.76,0.38319
4954.9,0.38373
4951.04,0.38307
4947.18,0.37844
4943.33,0.38029
4939.47,0.37972
4935.61,0.37274
4931.75,0.37255
4927.9,0.37160
4924.04,0.37050
4920.18,0.36586
4916.32,0.36383
4912.47,0.36187
4908.61,0.36034
4904.75,0.36036
4900.89,0.35582
4897.04,0.35195
4893.18,0.35057
4889.32,0.35111
4885.46,0.34730
4881.61,0.34362
4877.75,0.34194
4873.89,0.34074
4870.03,0.33839
4866.18,0.33733
4862.32,0.33364
4858.46,0.33053
4854.6,0.32737
4850.75,0.32921
4846.89,0.32941
4843.03,0.32538
4839.17,0.32109
4835.32,0.31872
4831.46,0.31558
4827.6,0.31591
4823.74,0.31384
4819.89,0.31164
4816.03,0.31075
4812.17,0.31101
4808.31,0.31053
4804.46,0.30988
4800.6,0.30985
4796.74,0.30928
4792.88,0.30815
4789.03,0.30811
4785.17,0.30777
4781.31,0.30656
4777.45,0.30531
4773.6,0.30422
4769.74,0.30189
4765.88,0.30352
4762.02,0.30309
4758.17,0.30088
4754.31,0.29897
4750.45,0.30089
4746.6,0.30208
4742.74,0.30352
4738.88,0.30517
4735.02,0.30615
4731.17,0.30472
4727.31,0.30641
4723.45,0.30456
4719.59,0.30343
4715.74,0.30297
4711.88,0.30521
4708.02,0.30497
4704.16,0.30642
4700.31,0.30697
4696.45,0.30936
4692.59,0.31017
4688.73,0.30908
4684.88,0.30660
4681.02,0.30695
4677.16,0.30994
4673.3,0.31035
4669.45,0.30955
4665.59,0.31082
4661.73,0.31083
4657.87,0.31353
4654.02,0.31581
4650.16,0.31658
4646.3,0.31869
4642.44,0.31955
4638.59,0.32007
4634.73,0.32145
4630.87,0.32329
4627.01,0.32450
4623.16,0.32513
4619.3,0.32689
4615.44,0.32915
4611.58,0.33112
4607.73,0.33428
4603.87,0.33583
4600.01,0.33868
4596.15,0.33827
4592.3,0.33943
4588.44,0.34145
4584.58,0.34238
4580.72,0.34345
4576.87,0.34407
4573.01,0.34488
4569.15,0.34516
4565.29,0.34506
4561.44,0.34805
4557.58,0.35106
4553.72,0.35272
4549.87,0.35155
4546.01,0.35110
4542.15,0.35147
4538.29,0.35246
4534.44,0.35530
4530.58,0.35718
4526.72,0.35229
4522.86,0.35449
4519.01,0.35357
4515.15,0.35337
4511.29,0.35398
4507.43,0.35548
4503.58,0.35451
4499.72,0.35340
4495.86,0.35012
4492,0.34867
4488.15,0.34743
4484.29,0.34609
4480.43,0.34254
4476.57,0.34040
4472.72,0.33822
4468.86,0.33306
4465,0.32948
4461.14,0.32499
4457.29,0.32112
4453.43,0.31771
4449.57,0.31499
4445.71,0.31187
4441.86,0.30697
4438,0.30301
4434.14,0.29881
4430.28,0.29464
4426.43,0.29006
4422.57,0.28488
4418.71,0.28097
4414.85,0.27861
4411,0.27658
4407.14,0.27308
4403.28,0.27277
4399.42,0.27100
4395.57,0.26973
4391.71,0.27049
4387.85,0.26992
4383.99,0.27147
4380.14,0.27253
4376.28,0.27289
4372.42,0.27493
4368.56,0.27630
4364.71,0.27598
4360.85,0.27637
4356.99,0.27502
4353.14,0.27628
4349.28,0.27631
4345.42,0.27529
4341.56,0.27471
4337.71,0.27394
4333.85,0.27322
4329.99,0.27235
4326.13,0.27063
4322.28,0.26983
4318.42,0.26843
4314.56,0.26795
4310.7,0.26690
4306.85,0.26507
4302.99,0.26391
4299.13,0.26392
4295.27,0.26212
4291.42,0.26069
4287.56,0.26081
4283.7,0.25986
4279.84,0.25934
4275.99,0.25859
4272.13,0.25829
4268.27,0.25984
4264.41,0.25993
4260.56,0.26015
4256.7,0.25971
4252.84,0.26117
4248.98,0.26278
4245.13,0.26262
4241.27,0.26321
4237.41,0.26379
4233.55,0.26412
4229.7,0.26452
4225.84,0.26339
4221.98,0.26309
4218.12,0.26366
4214.27,0.26280
4210.41,0.26293
4206.55,0.26294
4202.69,0.26409
4198.84,0.26391
4194.98,0.26316
4191.12,0.26282
4187.26,0.26480
4183.41,0.26423
4179.55,0.26499
4175.69,0.26488
4171.83,0.26616
4167.98,0.26723
4164.12,0.26858
4160.26,0.26718
4156.4,0.26497
4152.55,0.26467
4148.69,0.26339
4144.83,0.26266
4140.98,0.26076
4137.12,0.25926
4133.26,0.25818
4129.4,0.25721
4125.55,0.25477
4121.69,0.25222
4117.83,0.24999
4113.97,0.24769
4110.12,0.24596
4106.26,0.24390
4102.4,0.24051
4098.54,0.23758
4094.69,0.23524
4090.83,0.23277
4086.97,0.22941
4083.11,0.22773
4079.26,0.22476
4075.4,0.22202
4071.54,0.22071
4067.68,0.21755
4063.83,0.21493
4059.97,0.21212
4056.11,0.20973
4052.25,0.20767
4048.4,0.20364
4044.54,0.20094
4040.68,0.19971
4036.82,0.19931
4032.97,0.19745
4029.11,0.19637
4025.25,0.19534
4021.39,0.19431
4017.54,0.19373
4013.68,0.19261
4009.82,0.19260
4005.96,0.19259
4002.11,0.19351
3998.25,0.19409
3994.39,0.19403
3990.53,0.19594
3986.68,0.19587
3982.82,0.19611
3978.96,0.19662
3975.1,0.19830
3971.25,0.19872
3967.39,0.19897
3963.53,0.19926
3959.67,0.20019
3955.82,0.20171
3951.96,0.20322
3948.1,0.20449
3944.25,0.20620
3940.39,0.20725
3936.53,0.20708
3932.67,0.20965
3928.82,0.21103
3924.96,0.21191
3921.1,0.21259
3917.24,0.21444
3913.39,0.21574
3909.53,0.21587
3905.67,0.21725
3901.81,0.21831
3897.96,0.21958
3894.1,0.21940
3890.24,0.22115
3886.38,0.22333
3882.53,0.22390
3878.67,0.22430
3874.81,0.22384
3870.95,0.22466
3867.1,0.22478
3863.24,0.22589
3859.38,0.22651
3855.52,0.22648
3851.67,0.22973
3847.81,0.23041
3843.95,0.23017
3840.09,0.22881
3836.24,0.23038
3832.38,0.23044
3828.52,0.23220
3824.66,0.23253
3820.81,0.23160
3816.95,0.23098
3813.09,0.23210
3809.23,0.23118
3805.38,0.23029
3801.52,0.23122
3797.66,0.22997
3793.8,0.23106
3789.95,0.23122
3786.09,0.22988
3782.23,0.22786
3778.37,0.22802
3774.52,0.22737
3770.66,0.22494
3766.8,0.22449
3762.94,0.22299
3759.09,0.22089
3755.23,0.21774
3751.37,0.21453
3747.51,0.21165
3743.66,0.21255
3739.8,0.21020
3735.94,0.20831
3732.09,0.20424
3728.23,0.20146
3724.37,0.19844
3720.51,0.19610
3716.66,0.19397
3712.8,0.18963
3708.94,0.18309
3705.08,0.17827
3701.23,0.17357
3697.37,0.16786
3693.51,0.16138
3689.65,0.15387
3685.8,0.14416
3681.94,0.13707
3678.08,0.12804
3674.22,0.11748
3670.37,0.11089
3666.51,0.10167
3662.65,0.09365
3658.79,0.08659
3654.94,0.07909
3651.08,0.07423
3647.22,0.06892
3643.36,0.06500
3639.51,0.06147
3635.65,0.05752
3631.79,0.05542
3627.93,0.05410
3624.08,0.05086
3620.22,0.04842
3616.36,0.04664
3612.5,0.04566
3608.65,0.04427
3604.79,0.04232
3600.93,0.04120
3597.07,0.04062
3593.22,0.03854
3589.36,0.03706
3585.5,0.03727
3581.64,0.03726
3577.79,0.03598
3573.93,0.03531
3570.07,0.03501
3566.21,0.03491
3562.36,0.03365
3558.5,0.03298
3554.64,0.03162
3550.78,0.03060
3546.93,0.03070
3543.07,0.03066
3539.21,0.03066
3535.36,0.02973
3531.5,0.02856
3527.64,0.02837
3523.78,0.02843
3519.93,0.02857
3516.07,0.02795
3512.21,0.02745
3508.35,0.02722
3504.5,0.02670
3500.64,0.02687
3496.78,0.02715
3492.92,0.02663
3489.07,0.02587
3485.21,0.02578
3481.35,0.02607
3477.49,0.02591
3473.64,0.02556
3469.78,0.02535
3465.92,0.02507
3462.06,0.02503
3458.21,0.02357
3454.35,0.02399
3450.49,0.02442
3446.63,0.02484
3442.78,0.02443
3438.92,0.02496
3435.06,0.02477
3431.2,0.02427
3427.35,0.02404
3423.49,0.02491
3419.63,0.02481
3415.77,0.02497
3411.92,0.02428
3408.06,0.02442
3404.2,0.02483
3400.34,0.02471
3396.49,0.02371
3392.63,0.02433
3388.77,0.02510
3384.91,0.02483
3381.06,0.02446
3377.2,0.02409
3373.34,0.02516
3369.48,0.02540
3365.63,0.02449
3361.77,0.02440
3357.91,0.02485
3354.05,0.02567
3350.2,0.02678
3346.34,0.02623
3342.48,0.02635
3338.63,0.02773
3334.77,0.02802
3330.91,0.02700
3327.05,0.02728
3323.2,0.02798
3319.34,0.02808
3315.48,0.02834
3311.62,0.02881
3307.77,0.02831
3303.91,0.02805
3300.05,0.02850
3296.19,0.02874
3292.34,0.02970
3288.48,0.02956
3284.62,0.03005
3280.76,0.03089
3276.91,0.03033
3273.05,0.03064
3269.19,0.03051
3265.33,0.03081
3261.48,0.03185
3257.62,0.03172
3253.76,0.03178
3249.9,0.03269
3246.05,0.03279
3242.19,0.03289
3238.33,0.03362
3234.47,0.03431
3230.62,0.03450
3226.76,0.03452
3222.9,0.03511
3219.04,0.03551
3215.19,0.03582
3211.33,0.03616
3207.47,0.03674
3203.61,0.03724
3199.76,0.03748
3195.9,0.03737
3192.04,0.03797
3188.18,0.03827
3184.33,0.03865
3180.47,0.03982
3176.61,0.03998
3172.75,0.04017
3168.9,0.04116
3165.04,0.04181
3161.18,0.04250
3157.32,0.04221
3153.47,0.04307
3149.61,0.04328
3145.75,0.04341
3141.89,0.04378
3138.04,0.04502
3134.18,0.04644
3130.32,0.04601
3126.47,0.04608
3122.61,0.04665
3118.75,0.04773
3114.89,0.04850
3111.04,0.04920
3107.18,0.04946
3103.32,0.04941
3099.46,0.04967
3095.61,0.05067
3091.75,0.05143
3087.89,0.05241
3084.03,0.05302
3080.18,0.05294
3076.32,0.05344
3072.46,0.05447
3068.6,0.05453
3064.75,0.05485
3060.89,0.05534
3057.03,0.05580
3053.17,0.05617
3049.32,0.05651
3045.46,0.05715
3041.6,0.05819
3037.74,0.05877
3033.89,0.05827
3030.03,0.05854
3026.17,0.05884
3022.31,0.05880
3018.46,0.05880
3014.6,0.05881
3010.74,0.05789
3006.88,0.05758
3003.03,0.05717
2999.17,0.05693
2995.31,0.05680
2991.45,0.05663
2987.6,0.05533
2983.74,0.05304
2979.88,0.05211
2976.02,0.05108
2972.17,0.04925
2968.31,0.04781
2964.45,0.04638
2960.59,0.04550
2956.74,0.04485
2952.88,0.04460
2949.02,0.04382
2945.16,0.04246
2941.31,0.04189
2937.45,0.04155
2933.59,0.04155
2929.74,0.04154
2925.88,0.04185
2922.02,0.04218
2918.16,0.04142
2914.31,0.04146
2910.45,0.04186
2906.59,0.04208
2902.73,0.04173
2898.88,0.04105
2895.02,0.04262
2891.16,0.04293
2887.3,0.04335
2883.45,0.04426
2879.59,0.04435
2875.73,0.04517
2871.87,0.04599
2868.02,0.04634
2864.16,0.04690
2860.3,0.04722
2856.44,0.04759
2852.59,0.04882
2848.73,0.05036
2844.87,0.05177
2841.01,0.05365
2837.16,0.05549
2833.3,0.05736
2829.44,0.05937
2825.58,0.06149
2821.73,0.06284
2817.87,0.06431
2814.01,0.06594
2810.15,0.06726
2806.3,0.06867
2802.44,0.07014
2798.58,0.07069
2794.72,0.07177
2790.87,0.07320
2787.01,0.07386
2783.15,0.07433
2779.29,0.07467
2775.44,0.07530
2771.58,0.07561
2767.72,0.07609
2763.86,0.07665
2760.01,0.07708
2756.15,0.07709
2752.29,0.07731
2748.43,0.07723
2744.58,0.07748
2740.72,0.07750
2736.86,0.07818
2733.01,0.07896
2729.15,0.07918
2725.29,0.07981
2721.43,0.08091
2717.58,0.08129
2713.72,0.08177
2709.86,0.08276
2706,0.08381
2702.15,0.08439
2698.29,0.08538
2694.43,0.08641
2690.57,0.08677
2686.72,0.08669
2682.86,0.08813
2679,0.08908
2675.14,0.08937
2671.29,0.09022
2667.43,0.09140
2663.57,0.09240
2659.71,0.09289
2655.86,0.09317
2652,0.09319
2648.14,0.09452
2644.28,0.09493
2640.43,0.09552
2636.57,0.09619
2632.71,0.09691
2628.85,0.09826
2625,0.09944
2621.14,0.09949
2617.28,0.09995
2613.42,0.10042
2609.57,0.10088
2605.71,0.10140
2601.85,0.10225
2597.99,0.10262
2594.14,0.10338
2590.28,0.10402
2586.42,0.10442
2582.56,0.10576
2578.71,0.10643
2574.85,0.10627
2570.99,0.10642
2567.13,0.10669
2563.28,0.10706
2559.42,0.10740
2555.56,0.10757
2551.7,0.10819
2547.85,0.10849
2543.99,0.10874
2540.13,0.10873
2536.27,0.10910
2532.42,0.10951
2528.56,0.11075
2524.7,0.11148
2520.85,0.11254
2516.99,0.11317
2513.13,0.11364
2509.27,0.11469
2505.42,0.11614
2501.56,0.11694
2497.7,0.11815
2493.84,0.11916
2489.99,0.12036
2486.13,0.12137
2482.27,0.12199
2478.41,0.12290
2474.56,0.12404
2470.7,0.12467
2466.84,0.12525
2462.98,0.12605
2459.13,0.12687
2455.27,0.12840
2451.41,0.12947
2447.55,0.13039
2443.7,0.13129
2439.84,0.13166
2435.98,0.13240
2432.12,0.13412
2428.27,0.13460
2424.41,0.13580
2420.55,0.13742
2416.69,0.13794
2412.84,0.13934
2408.98,0.14052
2405.12,0.14101
2401.26,0.14209
2397.41,0.14356
2393.55,0.14408
2389.69,0.14442
2385.83,0.14484
2381.98,0.14493
2378.12,0.14472
2374.26,0.14211
2370.4,0.14158
2366.55,0.14023
2362.69,0.13822
2358.83,0.14102
2354.97,0.14309
2351.12,0.14186
2347.26,0.14187
2343.4,0.14387
2339.54,0.14305
2335.69,0.14199
2331.83,0.14402
2327.97,0.14464
2324.12,0.14739
2320.26,0.15061
2316.4,0.15139
2312.54,0.15242
2308.69,0.15444
2304.83,0.15395
2300.97,0.15346
2297.11,0.15299
2293.26,0.15275
2289.4,0.15326
2285.54,0.15329
2281.68,0.15275
2277.83,0.15176
2273.97,0.15106
2270.11,0.15114
2266.25,0.15096
2262.4,0.15023
2258.54,0.14904
2254.68,0.14888
2250.82,0.14913
2246.97,0.14914
2243.11,0.14847
2239.25,0.14767
2235.39,0.14725
2231.54,0.14693
2227.68,0.14635
2223.82,0.14625
2219.96,0.14630
2216.11,0.14608
2212.25,0.14536
2208.39,0.14501
2204.53,0.14438
2200.68,0.14381
2196.82,0.14323
2192.96,0.14221
2189.1,0.14157
2185.25,0.14025
2181.39,0.13867
2177.53,0.13799
2173.67,0.13661
2169.82,0.13547
2165.96,0.13488
2162.1,0.13373
2158.24,0.13337
2154.39,0.13265
2150.53,0.13182
2146.67,0.13074
2142.81,0.13055
2138.96,0.13027
2135.1,0.13006
2131.24,0.12976
2127.38,0.13017
2123.53,0.13077
2119.67,0.13070
2115.81,0.13098
2111.96,0.13130
2108.1,0.13160
2104.24,0.13182
2100.38,0.13208
2096.53,0.13254
2092.67,0.13305
2088.81,0.13286
2084.95,0.13275
2081.1,0.13303
2077.24,0.13309
2073.38,0.13202
2069.52,0.13163
2065.67,0.13186
2061.81,0.13146
2057.95,0.13108
2054.09,0.13143
2050.24,0.13181
2046.38,0.13207
2042.52,0.13302
2038.66,0.13365
2034.81,0.13443
2030.95,0.13610
2027.09,0.13696
2023.23,0.13806
2019.38,0.13964
2015.52,0.14112
2011.66,0.14166
2007.8,0.14254
2003.95,0.14354
2000.09,0.14468
1996.23,0.14508
1992.37,0.14610
1988.52,0.14709
1984.66,0.14760
1980.8,0.14815
1976.94,0.14893
1973.09,0.14940
1969.23,0.15070
1965.37,0.15151
1961.51,0.15168
1957.66,0.15280
1953.8,0.15397
1949.94,0.15472
1946.08,0.15576
1942.23,0.15799
1938.37,0.15777
1934.51,0.15821
1930.65,0.15855
1926.8,0.15888
1922.94,0.16034
1919.08,0.16033
1915.23,0.15941
1911.37,0.16000
1907.51,0.16042
1903.65,0.15950
1899.8,0.15941
1895.94,0.15943
1892.08,0.15912
1888.22,0.15887
1884.37,0.15807
1880.51,0.15769
1876.65,0.15732
1872.79,0.15720
1868.94,0.15871
1865.08,0.15692
1861.22,0.15601
1857.36,0.15507
1853.51,0.15411
1849.65,0.15356
1845.79,0.15395
1841.93,0.15196
1838.08,0.15005
1834.22,0.14803
1830.36,0.14719
1826.5,0.14631
1822.65,0.14388
1818.79,0.14101
1814.93,0.13839
1811.07,0.13614
1807.22,0.13234
1803.36,0.12952
1799.5,0.12671
1795.64,0.12307
1791.79,0.11905
1787.93,0.11281
1784.07,0.10837
1780.21,0.10397
1776.36,0.09893
1772.5,0.09472
1768.64,0.08596
1764.78,0.07763
1760.93,0.07053
1757.07,0.06342
1753.21,0.05691
1749.35,0.05255
1745.5,0.04790
1741.64,0.04588
1737.78,0.04496
1733.92,0.04527
1730.07,0.04445
1726.21,0.04457
1722.35,0.04534
1718.5,0.04786
1714.64,0.04974
1710.78,0.04931
1706.92,0.05099
1703.07,0.05208
1699.21,0.05238
1695.35,0.05091
1691.49,0.04987
1687.64,0.04885
1683.78,0.04808
1679.92,0.04522
1676.06,0.04429
1672.21,0.04230
1668.35,0.03978
1664.49,0.03874
1660.63,0.03851
1656.78,0.03779
1652.92,0.03862
1649.06,0.03863
1645.2,0.03874
1641.35,0.03795
1637.49,0.03934
1633.63,0.03914
1629.77,0.03946
1625.92,0.03970
1622.06,0.03911
1618.2,0.03827
1614.34,0.03767
1610.49,0.03803
1606.63,0.03765
1602.77,0.03747
1598.91,0.03846
1595.06,0.03914
1591.2,0.04015
1587.34,0.04157
1583.48,0.04297
1579.63,0.04542
1575.77,0.04951
1571.91,0.05221
1568.05,0.05588
1564.2,0.05687
1560.34,0.06097
1556.48,0.06136
1552.62,0.05953
1548.77,0.05953
1544.91,0.06120
1541.05,0.06280
1537.19,0.05642
1533.34,0.05294
1529.48,0.04911
1525.62,0.04539
1521.76,0.03948
1517.91,0.03465
1514.05,0.03226
1510.19,0.03331
1506.34,0.03576
1502.48,0.03551
1498.62,0.03747
1494.76,0.03904
1490.91,0.04039
1487.05,0.03879
1483.19,0.03712
1479.33,0.03689
1475.48,0.03649
1471.62,0.03416
1467.76,0.03189
1463.9,0.03134
1460.05,0.03285
1456.19,0.03389
1452.33,0.03191
1448.47,0.03258
1444.62,0.03244
1440.76,0.03167
1436.9,0.03167
1433.04,0.03111
1429.19,0.03132
1425.33,0.03113
1421.47,0.03138
1417.61,0.03291
1413.76,0.03391
1409.9,0.03428
1406.04,0.03430
1402.18,0.03408
1398.33,0.03440
1394.47,0.03389
1390.61,0.03262
1386.75,0.03151
1382.9,0.03071
1379.04,0.03048
1375.18,0.03080
1371.32,0.03065
1367.47,0.03121
1363.61,0.03183
1359.75,0.03200
1355.89,0.03226
1352.04,0.03260
1348.18,0.03260
1344.32,0.03223
1340.46,0.03225
1336.61,0.03141
1332.75,0.03151
1328.89,0.03192
1325.03,0.03157
1321.18,0.03095
1317.32,0.03137
1313.46,0.03186
1309.61,0.03251
1305.75,0.03282
1301.89,0.03319
1298.03,0.03283
1294.18,0.03227
1290.32,0.03202
1286.46,0.03085
1282.6,0.03009
1278.75,0.02955
1274.89,0.02935
1271.03,0.02930
1267.17,0.02985
1263.32,0.03049
1259.46,0.03116
1255.6,0.03163
1251.74,0.03237
1247.89,0.03243
1244.03,0.03166
1240.17,0.03246
1236.31,0.03271
1232.46,0.03226
1228.6,0.03236
1224.74,0.03283
1220.88,0.03295
1217.03,0.03372
1213.17,0.03445
1209.31,0.03417
1205.45,0.03352
1201.6,0.03438
1197.74,0.03504
1193.88,0.03510
1190.02,0.03432
1186.17,0.03313
1182.31,0.03188
1178.45,0.02960
1174.59,0.02812
1170.74,0.02757
1166.88,0.02848
1163.02,0.02897
1159.16,0.02967
1155.31,0.03021
1151.45,0.03067
1147.59,0.02993
1143.73,0.02894
1139.88,0.02921
1136.02,0.02782
1132.16,0.02718
1128.3,0.02741
1124.45,0.02792
1120.59,0.02774
1116.73,0.02801
1112.88,0.02756
1109.02,0.02751
1105.16,0.02877
1101.3,0.02987
1097.45,0.02954
1093.59,0.02809
1089.73,0.02833
1085.87,0.02859
1082.02,0.02983
1078.16,0.03021
1074.3,0.03108
1070.44,0.03390
1066.59,0.03600
1062.73,0.03695
1058.87,0.03911
1055.01,0.04151
1051.16,0.04234
1047.3,0.04164
1043.44,0.04071
1039.58,0.04161
1035.73,0.04475
1031.87,0.04646
1028.01,0.04766
1024.15,0.04827
1020.3,0.04812
1016.44,0.04843
1012.58,0.04977
1008.72,0.05026
1004.87,0.05057
1001.01,0.05131
997.151,0.05207
993.294,0.05365
989.437,0.05513
985.579,0.05725
981.722,0.05919
977.864,0.06106
974.007,0.06248
970.149,0.06194
966.292,0.06262
962.434,0.06416
958.577,0.06402
954.719,0.06601
950.862,0.06750
947.005,0.06665
943.147,0.06636
939.29,0.06771
935.432,0.06954
931.575,0.06953
927.717,0.06968
923.86,0.06935
920.002,0.06926
916.145,0.06803
912.287,0.06571
908.43,0.06361
904.573,0.06220
900.715,0.06173
896.858,0.06098
893,0.06204
889.143,0.06334
885.285,0.06414
881.428,0.06419
877.57,0.06298
873.713,0.06338
869.856,0.06364
865.998,0.06399
862.141,0.06326
858.283,0.06390
854.426,0.06344
850.568,0.06484
846.711,0.06439
842.853,0.06299
838.996,0.06248
835.138,0.06296
831.281,0.05987
827.424,0.05878
823.566,0.05850
819.709,0.05661
815.851,0.05458
811.994,0.05435
808.136,0.05422
804.279,0.05530
800.421,0.05568
796.564,0.05595
792.706,0.05536
788.849,0.05468
784.992,0.05540
781.134,0.05443
777.277,0.05429
773.419,0.05389
769.562,0.05274
765.704,0.05254
761.847,0.05175
757.989,0.05187
754.132,0.05088
750.274,0.05086
746.417,0.04830
742.56,0.04821
738.702,0.04886
734.845,0.04908
730.987,0.04932
727.13,0.04841
723.272,0.04749
719.415,0.04685
715.557,0.04530
711.7,0.04603
707.843,0.04602
703.985,0.04619
700.128,0.04616
696.27,0.04513
692.413,0.04478
688.555,0.04473
684.698,0.04444
680.84,0.04179
676.983,0.04131
673.125,0.04356
669.268,0.04449
665.411,0.04427
661.553,0.04379
657.696,0.04659
653.838,0.04733
649.981,0.04430
646.123,0.04383
642.266,0.04498
638.408,0.04434
634.551,0.04370
630.693,0.04391
626.836,0.04424
622.979,0.04397
619.121,0.04576
615.264,0.04362
611.406,0.04415
607.549,0.04865
603.691,0.04821
599.834,0.04643
595.976,0.04899
592.119,0.04794
588.261,0.04872
584.404,0.05080
580.547,0.05353
576.689,0.05364
572.832,0.05463
568.974,0.05291
565.117,0.04739
561.259,0.04839
557.402,0.05154
553.544,0.05147
549.687,0.04829
545.83,0.05000
541.972,0.05593
538.115,0.05547
534.257,0.05134
530.4,0.05314
526.542,0.05576
522.685,0.05622
518.827,0.05517
514.97,0.05763
511.112,0.05608
507.255,0.05260
503.398,0.05556
499.54,0.05965
495.683,0.05551
491.825,0.05843
487.968,0.06313
484.11,0.05949
480.253,0.05780
476.395,0.06301
472.538,0.06192
468.68,0.05615
464.823,0.05363
460.966,0.06236
457.108,0.06032
453.251,0.06311
449.393,0.06534
445.536,0.06318
441.678,0.06394
437.821,0.05989
433.963,0.05701
430.106,0.05423
426.248,0.06160
422.391,0.06406
418.534,0.06048
414.676,0.06809
410.819,0.06616
406.961,0.06139
403.104,0.05955
399.246,0.06500