File: 01_Data/PETG/STA/N2/3K_min/PETG_STA_N2_3KData_210831_R1.csv
##Temp./Â°C,Time/min,Mass loss(subtr.2)/mg,DSC(subtr.2)/(mW/mg),Sensit./(uV/mW)
50.033,10.01,0.00692,-0.01525808,0.99771
50.633,12.17612,0.00558324,-0.004022267,0.99818
51.233,12.84723,0.006910139,0.006024161,0.99864
51.833,13.364,0.0057979,0.009191434,0.99909
52.433,13.8133,0.006914685,0.01310875,0.99955
53.033,14.222,0.006391693,0.01328136,0.99999
53.633,14.6004,0.00690998,0.01874974,1.00044
54.233,14.9518,0.00719704,0.01951855,1.00088
54.833,15.28576,0.00473844,0.0226872,1.00132
55.433,15.60516,0.005840765,0.02561437,1.00175
56.033,15.91061,0.005590314,0.0264923,1.00218
56.633,16.20448,0.00696556,0.02894487,1.0026
57.233,16.48965,0.00690999,0.03015934,1.00303
57.833,16.7672,0.005605175,0.03224966,1.00344
58.433,17.03912,0.005584606,0.03495201,1.00386
59.033,17.3037,0.00559997,0.03558685,1.00427
59.633,17.56237,0.006920003,0.0364439,1.00467
60.233,17.81869,0.006911404,0.0394934,1.00507
60.833,18.0705,0.00692001,0.03973765,1.00547
61.433,18.3182,0.00566127,0.03914351,1.00587
62.033,18.56145,0.00658885,0.03996441,1.00626
62.633,18.80086,0.006579985,0.03939096,1.00664
63.233,19.03904,0.007252243,0.04135713,1.00702
63.833,19.27469,0.00789903,0.0417347,1.0074
64.433,19.50895,0.008559758,0.04205552,1.00778
65.033,19.7396,0.008229606,0.04198817,1.00815
65.633,19.9684,0.008593788,0.043762,1.00852
66.233,20.195,0.00855523,0.04362376,1.00888
66.833,20.42042,0.008559997,0.04451566,1.00924
67.433,20.6436,0.00856,0.04523586,1.0096
68.033,20.8659,0.008558515,0.0448828,1.00995
68.633,21.0859,0.008610815,0.04423366,1.0103
69.233,21.30526,0.00724169,0.04401833,1.01064
69.833,21.52355,0.007905099,0.04406924,1.01098
70.433,21.74018,0.007249947,0.04427634,1.01132
71.033,21.9562,0.005940641,0.04526651,1.01165
71.633,22.1706,0.00687158,0.04299606,1.01198
72.233,22.38541,0.00725843,0.04668318,1.0123
72.833,22.59986,0.007239196,0.04440181,1.01263
73.433,22.81375,0.006909559,0.04563385,1.01294
74.033,23.02642,0.00660911,0.04452215,1.01326
74.633,23.23791,0.00592446,0.0449313,1.01357
75.233,23.44895,0.00558639,0.04507668,1.01387
75.833,23.65963,0.00658972,0.04487147,1.01418
76.433,23.86939,0.004579817,0.0447886,1.01447
77.033,24.07818,0.007259877,0.04454642,1.01477
77.633,24.28689,0.006260486,0.0439495,1.01506
78.233,24.49457,0.006266705,0.04348619,1.01535
78.833,24.7031,0.006249023,0.04286386,1.01563
79.433,24.91116,0.00758129,0.04242835,1.01591
80.033,25.11937,0.00625538,0.04322555,1.01619
80.633,25.32619,0.004621261,0.04348745,1.01646
81.233,25.53252,0.003629508,0.04239208,1.01673
81.833,25.73787,0.00560001,0.04278635,1.017
82.433,25.94349,0.006920184,0.04202053,1.01726
83.033,26.14818,0.00690513,0.0408977,1.01752
83.633,26.3533,0.006232398,0.03997488,1.01777
84.233,26.5574,0.007946886,0.04021797,1.01802
84.833,26.7607,0.005278395,0.03908048,1.01827
85.433,26.96408,0.006586971,0.03960027,1.01851
86.033,27.16579,0.006579509,0.03927959,1.01875
86.633,27.36647,0.005634244,0.03866716,1.01898
87.233,27.56816,0.006223293,0.03885339,1.01922
87.833,27.7697,0.006260303,0.03963312,1.01944
88.433,27.9729,0.00658,0.03747209,1.01967
89.033,28.1744,0.007579914,0.03737583,1.01989
89.633,28.3747,0.00758,0.0380056,1.02011
90.233,28.57477,0.007332452,0.03787904,1.02032
90.833,28.7748,0.005916986,0.03590913,1.02053
91.433,28.97462,0.004940003,0.03825223,1.02074
92.033,29.174,0.00646367,0.03667518,1.02094
92.633,29.37313,0.00493984,0.03883219,1.02114
93.233,29.57248,0.00626,0.03901744,1.02133
93.833,29.77154,0.006249991,0.03878192,1.02153
94.433,29.97,0.006250036,0.0393288,1.02171
95.033,30.16793,0.00592897,0.03926719,1.0219
95.633,30.3655,0.00724999,0.03844086,1.02208
96.233,30.5629,0.007244295,0.03851969,1.02226
96.833,30.75977,0.00593002,0.03982999,1.02243
97.433,30.95678,0.00625861,0.03921408,1.0226
98.033,31.1533,0.00643599,0.03995275,1.02277
98.633,31.3504,0.006943124,0.04084389,1.02293
99.233,31.54761,0.007883284,0.04135953,1.02309
99.833,31.7445,0.0072392,0.04195032,1.02325
100.433,31.94125,0.008196976,0.04065598,1.0234
101.033,32.13727,0.00725,0.04136908,1.02355
101.633,32.33375,0.007595028,0.042571,1.02369
102.233,32.52935,0.00724475,0.04166328,1.02383
102.833,32.72566,0.00856,0.04153694,1.02397
103.433,32.92163,0.007239734,0.04216238,1.02411
104.033,33.11696,0.00725,0.04294543,1.02424
104.633,33.31248,0.00744497,0.04353524,1.02436
105.233,33.5075,0.00724,0.04396693,1.02449
105.833,33.70263,0.007848561,0.04550646,1.02461
106.433,33.89782,0.007900072,0.04494111,1.02473
107.033,34.09276,0.007530323,0.04644586,1.02484
107.633,34.2877,0.007577815,0.04651691,1.02495
108.233,34.4821,0.00853836,0.04599252,1.02506
108.833,34.67634,0.007213371,0.04810756,1.02516
109.433,34.87086,0.00823,0.0482586,1.02526
110.033,35.06557,0.008560439,0.0500802,1.02535
110.633,35.26084,0.00856,0.04972786,1.02545
111.233,35.45486,0.00855987,0.05101131,1.02554
111.833,35.64915,0.00855698,0.04930488,1.02562
112.433,35.84352,0.00856,0.0493731,1.0257
113.033,36.03852,0.00758031,0.04939955,1.02578
113.633,36.23348,0.00769052,0.0513017,1.02586
114.233,36.4279,0.008890156,0.04969841,1.02593
114.833,36.622,0.008559053,0.05076671,1.026
115.433,36.81612,0.00855995,0.05078421,1.02606
116.033,37.01005,0.00725,0.0526162,1.02612
116.633,37.20467,0.00790885,0.05237683,1.02618
117.233,37.39905,0.008560023,0.0512731,1.02623
117.833,37.5936,0.009107197,0.05311889,1.02629
118.433,37.78795,0.00894454,0.05578657,1.02633
119.033,37.98231,0.007427441,0.05201715,1.02638
119.633,38.1765,0.008560001,0.0551213,1.02642
120.233,38.37096,0.008229683,0.05343169,1.02646
120.833,38.5657,0.00724,0.05375126,1.02649
121.433,38.76,0.00591775,0.05414301,1.02652
122.033,38.954,0.00691,0.05390562,1.02655
122.633,39.1477,0.008229695,0.05674443,1.02657
123.233,39.34174,0.00823,0.05563317,1.02659
123.833,39.5362,0.006233521,0.05481674,1.02661
124.433,39.73055,0.007242436,0.05657655,1.02662
125.033,39.92415,0.00856003,0.05508804,1.02664
125.633,40.11757,0.00725003,0.0557511,1.02664
126.233,40.31051,0.008596213,0.05953087,1.02665
126.833,40.5039,0.007250845,0.05666467,1.02665
127.433,40.69805,0.00758,0.05628528,1.02664
128.033,40.8919,0.00626,0.05596949,1.02664
128.633,41.08551,0.006263911,0.05928962,1.02663
129.233,41.27835,0.006259944,0.05922548,1.02662
129.833,41.4715,0.00823439,0.0595011,1.0266
130.433,41.66489,0.00562371,0.05869597,1.02658
131.033,41.85785,0.006919939,0.05875061,1.02656
131.633,42.05052,0.0056074,0.05978903,1.02653
132.233,42.24243,0.005600644,0.0608386,1.0265
132.833,42.4343,0.006988381,0.06105408,1.02647
133.433,42.62665,0.006609517,0.06076475,1.02644
134.033,42.81879,0.006579985,0.06098189,1.0264
134.633,43.0107,0.007570125,0.060904,1.02636
135.233,43.20261,0.00758045,0.0607596,1.02631
135.833,43.39447,0.00626,0.060626,1.02626
136.433,43.5862,0.007571621,0.06044902,1.02621
137.033,43.77754,0.007900011,0.059086,1.02616
137.633,43.969,0.00724,0.05923504,1.0261
138.233,44.16063,0.00724021,0.06193971,1.02604
138.833,44.3525,0.00856,0.06156794,1.02597
139.433,44.5443,0.008560001,0.06261701,1.0259
140.033,44.73575,0.00844256,0.06155085,1.02583
140.633,44.92733,0.00823,0.06237692,1.02576
141.233,45.11886,0.00823,0.06281252,1.02568
141.833,45.31007,0.008229978,0.06247988,1.0256
142.433,45.50093,0.00691,0.06068194,1.02552
143.033,45.69127,0.006908229,0.061842,1.02543
143.633,45.88162,0.00692225,0.06080675,1.02534
144.233,46.07205,0.00626,0.06236512,1.02525
144.833,46.26279,0.00758,0.0621641,1.02515
145.433,46.4542,0.005353491,0.06235307,1.02505
146.033,46.64574,0.006453922,0.0624543,1.02495
146.633,46.83701,0.00529394,0.06155449,1.02484
147.233,47.0278,0.00674528,0.06318475,1.02474
147.833,47.2183,0.005966841,0.06380733,1.02462
148.433,47.4095,0.004610027,0.06406881,1.02451
149.033,47.60066,0.006250055,0.06189836,1.02439
149.633,47.79258,0.004940002,0.06352307,1.02427
150.233,47.98369,0.00656401,0.06492577,1.02415
150.833,48.17437,0.00527172,0.06440746,1.02402
151.433,48.36505,0.005270464,0.06396223,1.02389
152.033,48.5556,0.006589148,0.06380409,1.02376
152.633,48.74564,0.00659,0.06408307,1.02362
153.233,48.93592,0.005263309,0.06373171,1.02348
153.833,49.12597,0.005234117,0.06391139,1.02334
154.433,49.31622,0.004609989,0.064267,1.02319
155.033,49.5068,0.00526975,0.06295087,1.02304
155.633,49.69769,0.005291793,0.06229961,1.02289
156.233,49.88798,0.005930606,0.06246255,1.02274
156.833,50.07783,0.004605663,0.0637966,1.02258
157.433,50.26818,0.005599997,0.06271452,1.02242
158.033,50.4574,0.005141181,0.06262132,1.02226
158.633,50.64829,0.003957485,0.06371029,1.02209
159.233,50.8387,0.005270001,0.06372873,1.02192
159.833,51.0291,0.003949792,0.06431735,1.02175
160.433,51.2205,0.004939531,0.06411359,1.02157
161.033,51.4107,0.00626,0.06221852,1.02139
161.633,51.60123,0.00723193,0.06120607,1.02121
162.233,51.7911,0.006251575,0.06185766,1.02103
162.833,51.98142,0.005274084,0.06230704,1.02084
163.433,52.1717,0.007570323,0.06497792,1.02065
164.033,52.36252,0.00757,0.06448022,1.02046
164.633,52.55333,0.00756957,0.06373492,1.02026
165.233,52.7442,0.00592848,0.06258675,1.02006
165.833,52.93487,0.007440194,0.06310083,1.01986
166.433,53.12549,0.00757989,0.06357852,1.01966
167.033,53.3164,0.00755524,0.06310445,1.01945
167.633,53.5067,0.008220718,0.06542631,1.01924
168.233,53.69701,0.006910006,0.06265516,1.01902
168.833,53.8867,0.00758735,0.06445412,1.01881
169.433,54.0769,0.00757,0.06384161,1.01859
170.033,54.26736,0.00822627,0.06418229,1.01837
170.633,54.45771,0.006910318,0.06393,1.01814
171.233,54.6485,0.00757949,0.06440556,1.01792
171.833,54.8381,0.006744175,0.06301063,1.01769
172.433,55.02743,0.00757,0.06351334,1.01745
173.033,55.2168,0.00757,0.06119211,1.01722
173.633,55.4065,0.008926367,0.06164796,1.01698
174.233,55.5968,0.007829695,0.06191763,1.01674
174.833,55.7869,0.008234346,0.06373793,1.01649
175.433,55.9767,0.00757,0.06558651,1.01624
176.033,56.1668,0.00757,0.06484586,1.01599
176.633,56.3571,0.00757,0.06431494,1.01574
177.233,56.5472,0.007576435,0.06445266,1.01549
177.833,56.73647,0.00757982,0.06664125,1.01523
178.433,56.92601,0.008657197,0.06485015,1.01497
179.033,57.1162,0.007249975,0.06490215,1.0147
179.633,57.30591,0.00725,0.06576305,1.01444
180.233,57.49715,0.008566681,0.06676006,1.01417
180.833,57.6875,0.00955227,0.06593879,1.01389
181.433,57.8771,0.00691,0.06477731,1.01362
182.033,58.0669,0.00691,0.06409624,1.01334
182.633,58.2571,0.006764627,0.06612647,1.01306
183.233,58.4474,0.006906381,0.06534513,1.01278
183.833,58.63799,0.005600309,0.06550473,1.01249
184.433,58.8279,0.00691998,0.06667899,1.01221
185.033,59.01769,0.00626,0.06694377,1.01191
185.633,59.2073,0.00626,0.06708414,1.01162
186.233,59.39676,0.006231689,0.06776973,1.01132
186.833,59.58661,0.00494,0.06587773,1.01103
187.433,59.7761,0.004933056,0.06581448,1.01072
188.033,59.96592,0.006250021,0.06574034,1.01042
188.633,60.1558,0.00492299,0.06721816,1.01011
189.233,60.34571,0.003975966,0.06689212,1.0098
189.833,60.53565,0.006238383,0.0681156,1.00949
190.433,60.72509,0.004940066,0.06626363,1.00918
191.033,60.9143,0.00494,0.06702292,1.00886
191.633,61.1035,0.005677543,0.06866063,1.00854
192.233,61.29302,0.005928863,0.06872835,1.00822
192.833,61.48239,0.005930445,0.06855722,1.00789
193.433,61.6718,0.004936604,0.06749652,1.00756
194.033,61.8606,0.004624752,0.06906142,1.00723
194.633,62.0493,0.00625983,0.06930765,1.0069
195.233,62.23828,0.00757,0.06941367,1.00657
195.833,62.42804,0.00754936,0.0695465,1.00623
196.433,62.6175,0.00625,0.07078674,1.00589
197.033,62.8072,0.007569959,0.07228496,1.00555
197.633,62.99714,0.00757,0.07050132,1.0052
198.233,63.1869,0.0085598,0.07045895,1.00485
198.833,63.37676,0.008560455,0.06917708,1.0045
199.433,63.56605,0.00987969,0.07026319,1.00415
200.033,63.75489,0.01017569,0.0693635,1.00379
200.633,63.94438,0.01020987,0.06900512,1.00344
201.233,64.1344,0.008883181,0.06896168,1.00308
201.833,64.3242,0.01030654,0.06739856,1.00271
202.433,64.5139,0.008910335,0.0682744,1.00235
203.033,64.70315,0.00822999,0.068345,1.00198
203.633,64.89246,0.00823003,0.06641882,1.00161
204.233,65.0814,0.00823,0.0694239,1.00124
204.833,65.27017,0.006910001,0.06825719,1.00086
205.433,65.45939,0.007896283,0.06921307,1.00049
206.033,65.64878,0.006561331,0.07001656,1.00011
206.633,65.83841,0.006362497,0.06951742,0.99972
207.233,66.02824,0.006254693,0.06984515,0.99934
207.833,66.21849,0.00757,0.06993473,0.99895
208.433,66.40845,0.006260002,0.06996831,0.99856
209.033,66.59872,0.006598464,0.07006791,0.99817
209.633,66.78829,0.008226954,0.06813106,0.99778
210.233,66.9778,0.00593,0.06963158,0.99738
210.833,67.16753,0.006260007,0.07130649,0.99698
211.433,67.35691,0.006259987,0.0719016,0.99658
212.033,67.5463,0.00659,0.07387597,0.99618
212.633,67.736,0.006221246,0.07183256,0.99577
213.233,67.92564,0.00622814,0.07136654,0.99536
213.833,68.11606,0.006229633,0.07210256,0.99495
214.433,68.30614,0.00624949,0.07293958,0.99454
215.033,68.49582,0.00626,0.07269061,0.99412
215.633,68.6852,0.004767697,0.07343043,0.99371
216.233,68.87422,0.00560777,0.07344995,0.99329
216.833,69.06352,0.00596326,0.07386258,0.99286
217.433,69.25287,0.007236733,0.075496,0.99244
218.033,69.44236,0.007516297,0.07531104,0.99201
218.633,69.6311,0.00626043,0.07434481,0.99159
219.233,69.8207,0.00757,0.07595968,0.99115
219.833,70.00995,0.00888691,0.074867,0.99072
220.433,70.20016,0.00757001,0.07436546,0.99029
221.033,70.39001,0.008889987,0.07528986,0.98985
221.633,70.57972,0.01020851,0.07674317,0.98941
222.233,70.7697,0.008230732,0.07623257,0.98897
222.833,70.9597,0.009549999,0.07860655,0.98852
223.433,71.14964,0.01053943,0.07901737,0.98808
224.033,71.33941,0.009219951,0.07675528,0.98763
224.633,71.52892,0.00922136,0.07793666,0.98718
225.233,71.7179,0.0079,0.0785408,0.98672
225.833,71.90765,0.0079,0.07903863,0.98627
226.433,72.09742,0.008889925,0.08032121,0.98581
227.033,72.28713,0.00889005,0.08025985,0.98535
227.633,72.4781,0.007921954,0.08430413,0.98489
228.233,72.6683,0.00791001,0.08273455,0.98443
228.833,72.858,0.00842044,0.08417133,0.98396
229.433,73.04823,0.007582008,0.08339135,0.98349
230.033,73.23793,0.007091704,0.08416265,0.98302
230.633,73.42829,0.006759721,0.0845463,0.98255
231.233,73.61888,0.006916265,0.08563532,0.98208
231.833,73.809,0.008213126,0.08675027,0.9816
232.433,73.99823,0.007240099,0.08652539,0.98112
233.033,74.18804,0.008559601,0.08778329,0.98064
233.633,74.37813,0.0079,0.08901201,0.98016
234.233,74.56926,0.008584059,0.08959668,0.97968
234.833,74.75975,0.00659,0.09038071,0.97919
235.433,74.94963,0.00659,0.09169857,0.9787
236.033,75.1396,0.00659,0.09188612,0.97821
236.633,75.3298,0.00626827,0.09488156,0.97772
237.233,75.51965,0.00658941,0.09580435,0.97722
237.833,75.70974,0.00593,0.09950124,0.97673
238.433,75.89972,0.00593,0.10101,0.97623
239.033,76.0899,0.007909981,0.10067,0.97573
239.633,76.2801,0.007569994,0.10492,0.97522
240.233,76.47052,0.00823136,0.10668,0.97472
240.833,76.66017,0.00758,0.11137,0.97421
241.433,76.8497,0.00692,0.1131,0.9737
242.033,77.03956,0.00692,0.11693,0.97319
242.633,77.22938,0.00692,0.11967,0.97268
243.233,77.41949,0.00692,0.12328,0.97217
243.833,77.61007,0.007569942,0.12862,0.97165
244.433,77.80078,0.00757,0.13227,0.97113
245.033,77.99132,0.00691999,0.13755,0.97061
245.633,78.18194,0.00920708,0.14217,0.97009
246.233,78.37171,0.007917142,0.14731,0.96957
246.833,78.56188,0.00658,0.15516,0.96904
247.433,78.7516,0.007903871,0.16104,0.96852
248.033,78.9414,0.00722919,0.17015,0.96799
248.633,79.13269,0.00626,0.17748,0.96745
249.233,79.32388,0.00756976,0.18854,0.96692
249.833,79.5152,0.006249745,0.19786,0.96639
250.433,79.70618,0.006614676,0.2086,0.96585
251.033,79.897,0.00625184,0.21995,0.96531
251.633,80.0876,0.007569999,0.22976,0.96477
252.233,80.27847,0.00631431,0.23996,0.96423
252.833,80.4695,0.00691001,0.25168,0.96369
253.433,80.66075,0.00624225,0.26227,0.96314
254.033,80.85206,0.006648752,0.26826,0.96259
254.633,81.0429,0.00557536,0.27178,0.96204
255.233,81.2334,0.004943455,0.27019,0.96149
255.833,81.42405,0.004591998,0.26197,0.96094
256.433,81.61395,0.00427309,0.23881,0.96038
257.033,81.8041,0.00428,0.21155,0.95983
257.633,81.99422,0.00560044,0.18283,0.95927
258.233,82.1837,0.003300237,0.15718,0.95871
258.833,82.3734,0.004254788,0.13812,0.95815
259.433,82.56304,0.00429,0.1224,0.95759
260.033,82.7531,0.00290875,0.11133,0.95702
260.633,82.94279,0.00429,0.10557,0.95645
261.233,83.1329,0.004289999,0.10097,0.95589
261.833,83.32324,0.005269957,0.09829359,0.95532
262.433,83.51341,0.003959662,0.09447603,0.95474
263.033,83.7039,0.003300001,0.09332069,0.95417
263.633,83.89381,0.005894236,0.09047009,0.9536
264.233,84.08325,0.00461,0.08884316,0.95302
264.833,84.27319,0.003306635,0.08819948,0.95244
265.433,84.46333,0.005929999,0.08688428,0.95186
266.033,84.65374,0.005270036,0.08641138,0.95128
266.633,84.84427,0.005590249,0.08648571,0.9507
267.233,85.03456,0.00484576,0.0862343,0.95011
267.833,85.225,0.00559064,0.08369016,0.94953
268.433,85.41595,0.004279768,0.08173426,0.94894
269.033,85.60683,0.006581427,0.08427763,0.94835
269.633,85.798,0.005271719,0.08162213,0.94776
270.233,85.98871,0.004607073,0.08075637,0.94717
270.833,86.17953,0.00692177,0.08137926,0.94657
271.433,86.36991,0.0055998,0.07934637,0.94598
272.033,86.56059,0.00558369,0.08052932,0.94538
272.633,86.75123,0.0056,0.08068917,0.94478
273.233,86.9417,0.00626,0.08059126,0.94418
273.833,87.1326,0.004952656,0.08085368,0.94358
274.433,87.32332,0.005270146,0.08224271,0.94297
275.033,87.5141,0.006601389,0.08069862,0.94237
275.633,87.705,0.00527016,0.08103152,0.94176
276.233,87.896,0.006587298,0.08211695,0.94115
276.833,88.08707,0.00527,0.08152275,0.94055
277.433,88.27798,0.00527,0.08011445,0.93993
278.033,88.46902,0.00559011,0.08088805,0.93932
278.633,88.66006,0.00427821,0.07995669,0.93871
279.233,88.85092,0.004284983,0.08306796,0.93809
279.833,89.04216,0.004198035,0.08219305,0.93748
280.433,89.23325,0.004945392,0.08459587,0.93686
281.033,89.42504,0.005270146,0.08462712,0.93624
281.633,89.6165,0.00416736,0.08145794,0.93562
282.233,89.80755,0.00396,0.08294829,0.935
282.833,89.99886,0.00396,0.082436,0.93437
283.433,90.18989,0.00494,0.0839929,0.93375
284.033,90.38075,0.002640633,0.08421479,0.93312
284.633,90.57172,0.003619679,0.08322386,0.93249
285.233,90.76241,0.002308773,0.08422609,0.93187
285.833,90.95331,0.003300001,0.08605823,0.93124
286.433,91.1448,0.0033,0.08568064,0.9306
287.033,91.33628,0.002755239,0.08603144,0.92997
287.633,91.52815,0.001609605,0.08571731,0.92934
288.233,91.72023,0.00297029,0.08557592,0.9287
288.833,91.91179,0.0008632057,0.08344177,0.92806
289.433,92.10369,0.001966328,0.08618346,0.92742
290.033,92.29562,0.003290854,0.08476582,0.92678
290.633,92.48728,0.002088816,0.08457419,0.92614
291.233,92.6789,0.00329007,0.08418121,0.9255
291.833,92.87006,0.002639995,0.08440454,0.92486
292.433,93.0609,0.00262996,0.08332604,0.92421
293.033,93.2521,0.00263,0.08427402,0.92357
293.633,93.44309,0.002309239,0.08321422,0.92292
294.233,93.6346,0.002300076,0.08326614,0.92227
294.833,93.82624,0.00132,0.08574337,0.92162
295.433,94.0179,0.001969461,0.08381842,0.92097
296.033,94.2096,0.0006477825,0.08427746,0.92032
296.633,94.40148,0.000341277,0.0863767,0.91967
297.233,94.59308,0.001000353,0.08571096,0.91901
297.833,94.78511,0.001,0.08601514,0.91835
298.433,94.97718,0.0009999877,0.08460448,0.9177
299.033,95.1692,0.001328966,0.08516573,0.91704
299.633,95.36106,0.00165,0.08470199,0.91638
300.233,95.55291,0.0003333325,0.08683914,0.91572
300.833,95.74486,-0.0009799318,0.08556451,0.91506
301.433,95.93705,0.0003400206,0.08564099,0.9144
302.033,96.12976,-0.000319764,0.08676082,0.91373
302.633,96.32235,0.00100088,0.08821207,0.91307
303.233,96.51488,0.000340001,0.08767705,0.9124
303.833,96.7073,0.00165,0.08854376,0.91173
304.433,96.8993,0.00131977,0.08922385,0.91106
305.033,97.09132,0.0006699997,0.08911518,0.91039
305.633,97.28311,0.00067,0.08925117,0.90972
306.233,97.47451,0.0006699906,0.08926764,0.90905
306.833,97.6661,0.000329732,0.09029498,0.90838
307.433,97.85795,0.0003276915,0.08779893,0.90771
308.033,98.0502,-0.0006483787,0.08821482,0.90703
308.633,98.242,-0.0006500035,0.08932745,0.90636
309.233,98.43396,-0.0006427659,0.08897574,0.90568
309.833,98.6258,-0.001305417,0.0895872,0.905
310.433,98.8182,-0.0032701,0.08887182,0.90432
311.033,99.01003,-0.001317679,0.08893642,0.90364
311.633,99.20134,-0.001316541,0.09141787,0.90296
312.233,99.39264,-0.001330139,0.09397768,0.90228
312.833,99.58377,-0.0024421,0.09321559,0.9016
313.433,99.77515,-1.32426e-05,0.09291544,0.90091
314.033,99.96679,-0.002246523,0.09405196,0.90023
314.633,100.159,-0.001990984,0.09381188,0.89954
315.233,100.351,-0.001309717,0.09428259,0.89885
315.833,100.544,-0.001639929,0.09541032,0.89817
316.433,100.7364,-0.00164,0.09614195,0.89748
317.033,100.9288,-0.001675621,0.0949154,0.89679
317.633,101.121,-0.001639939,0.09440571,0.8961
318.233,101.313,-0.001641725,0.09719175,0.8954
318.833,101.506,-0.000628689,0.09508911,0.89471
319.433,101.698,-0.0006151319,0.09357301,0.89402
320.033,101.891,-0.0009805846,0.09191761,0.89332
320.633,102.084,0.0003263519,0.0948426,0.89263
321.233,102.277,-0.001986475,0.09601668,0.89193
321.833,102.469,-0.0006499876,0.09320866,0.89124
322.433,102.663,-0.00197,0.09497884,0.89054
323.033,102.855,-0.0009900025,0.0969551,0.88984
323.633,103.048,-0.0009899982,0.09655228,0.88914
324.233,103.241,-0.0009799991,0.09767771,0.88844
324.833,103.433,-0.002344878,0.09657364,0.88774
325.433,103.6253,-0.002966257,0.09620888,0.88704
326.033,103.817,-0.002300018,0.094653,0.88633
326.633,104.009,-0.003610001,0.09596254,0.88563
327.233,104.202,-0.00163971,0.09501544,0.88493
327.833,104.394,-0.00163998,0.09867904,0.88422
328.433,104.587,-0.00295,0.09483842,0.88351
329.033,104.78,-0.002300549,0.09484201,0.88281
329.633,104.973,-0.005263734,0.0961329,0.8821
330.233,105.166,-0.00263,0.09807319,0.88139
330.833,105.359,-0.003910915,0.09865111,0.88068
331.433,105.552,-0.00471976,0.09853043,0.87997
332.033,105.745,-0.005590009,0.09856127,0.87926
332.633,105.9387,-0.006781354,0.09814136,0.87855
333.233,106.132,-0.00592,0.09760376,0.87784
333.833,106.325,-0.005920911,0.10011,0.87713
334.433,106.518,-0.004611848,0.09985309,0.87641
335.033,106.71,-0.00692246,0.10107,0.8757
335.633,106.903,-0.00793226,0.10006,0.87498
336.233,107.096,-0.008220065,0.10065,0.87427
336.833,107.289,-0.0069,0.10093,0.87355
337.433,107.483,-0.008218305,0.10146,0.87283
338.033,107.676,-0.009197886,0.10304,0.87212
338.633,107.87,-0.00954,0.10055,0.8714
339.233,108.064,-0.009540036,0.10005,0.87068
339.833,108.257,-0.01084737,0.10033,0.86996
340.433,108.451,-0.01085,0.10391,0.86924
341.033,108.644,-0.009871391,0.10327,0.86852
341.633,108.8379,-0.01118153,0.1056,0.8678
342.233,109.031,-0.01179297,0.10449,0.86708
342.833,109.2249,-0.01183997,0.10494,0.86635
343.433,109.419,-0.01380979,0.10338,0.86563
344.033,109.612,-0.0148,0.10574,0.86491
344.633,109.806,-0.01546176,0.10486,0.86418
345.233,109.999,-0.01546794,0.10676,0.86346
345.833,110.193,-0.01579001,0.10665,0.86273
346.433,110.387,-0.01842,0.10653,0.86201
347.033,110.581,-0.01841999,0.10828,0.86128
347.633,110.775,-0.01710976,0.11049,0.86055
348.233,110.968,-0.01940999,0.11068,0.85982
348.833,111.1619,-0.01976771,0.11113,0.8591
349.433,111.356,-0.02104999,0.11191,0.85837
350.033,111.55,-0.02039002,0.1127,0.85764
350.633,111.743,-0.02106,0.11443,0.85691
351.233,111.937,-0.02172021,0.11709,0.85618
351.833,112.1313,-0.02172022,0.11805,0.85545
352.433,112.326,-0.02401374,0.11907,0.85472
353.033,112.521,-0.02404392,0.1205,0.85398
353.633,112.715,-0.02283762,0.1196,0.85325
354.233,112.9096,-0.02401,0.12271,0.85252
354.833,113.104,-0.0253308,0.12359,0.85179
355.433,113.298,-0.0278376,0.12565,0.85105
356.033,113.493,-0.02696646,0.12739,0.85032
356.633,113.688,-0.02960992,0.12923,0.84959
357.233,113.882,-0.03093043,0.12969,0.84885
357.833,114.077,-0.03225037,0.13062,0.84812
358.433,114.271,-0.03454462,0.13162,0.84738
359.033,114.466,-0.03586014,0.1325,0.84664
359.633,114.66,-0.0378401,0.13474,0.84591
360.233,114.854,-0.03784037,0.13643,0.84517
360.833,115.047,-0.04113078,0.13902,0.84443
361.433,115.242,-0.04277303,0.14269,0.8437
362.033,115.436,-0.04639007,0.144,0.84296
362.633,115.632,-0.04901928,0.14527,0.84222
363.233,115.827,-0.05173713,0.14709,0.84148
363.833,116.021,-0.05569865,0.14753,0.84074
364.433,116.215,-0.05694459,0.15176,0.84
365.033,116.41,-0.05964589,0.15253,0.83926
365.633,116.604,-0.06332627,0.15274,0.83852
366.233,116.8,-0.06590484,0.15531,0.83778
366.833,116.994,-0.06919503,0.15462,0.83704
367.433,117.19,-0.07249192,0.14798,0.8363
368.033,117.385,-0.07646912,0.14622,0.83556
368.633,117.579,-0.08037175,0.14542,0.83482
369.233,117.774,-0.08320089,0.14598,0.83408
369.833,117.9684,-0.08817655,0.14828,0.83334
370.433,118.163,-0.09262662,0.14903,0.8326
371.033,118.359,-0.09777997,0.15084,0.83185
371.633,118.554,-0.10321,0.15484,0.83111
372.233,118.75,-0.10849,0.15604,0.83037
372.833,118.946,-0.11362,0.15914,0.82962
373.433,119.142,-0.11803,0.16055,0.82888
374.033,119.337,-0.12417,0.16428,0.82814
374.633,119.533,-0.12954,0.167,0.82739
375.233,119.729,-0.13486,0.16715,0.82665
375.833,119.924,-0.14187,0.17005,0.82591
376.433,120.119,-0.14769,0.17119,0.82516
377.033,120.315,-0.15395,0.17407,0.82442
377.633,120.5096,-0.16219,0.17863,0.82367
378.233,120.705,-0.16874,0.17923,0.82293
378.833,120.8998,-0.17592,0.18319,0.82218
379.433,121.095,-0.18434,0.18581,0.82144
380.033,121.29,-0.19316,0.18938,0.82069
380.633,121.485,-0.20282,0.19136,0.81995
381.233,121.68,-0.21233,0.19468,0.8192
381.833,121.876,-0.22186,0.19904,0.81846
382.433,122.0716,-0.23098,0.20188,0.81771
383.033,122.267,-0.24203,0.20401,0.81697
383.633,122.463,-0.25514,0.2075,0.81622
384.233,122.658,-0.26632,0.20857,0.81547
384.833,122.854,-0.27658,0.21142,0.81473
385.433,123.049,-0.29018,0.2133,0.81398
386.033,123.245,-0.30199,0.21569,0.81324
386.633,123.44,-0.31567,0.21765,0.81249
387.233,123.635,-0.32819,0.21863,0.81174
387.833,123.831,-0.34347,0.22293,0.811
388.433,124.026,-0.35596,0.22509,0.81025
389.033,124.2205,-0.37043,0.22608,0.8095
389.633,124.415,-0.38493,0.22976,0.80876
390.233,124.61,-0.40055,0.23464,0.80801
390.833,124.805,-0.41741,0.23649,0.80726
391.433,125,-0.43314,0.24163,0.80652
392.033,125.195,-0.44944,0.2448,0.80577
392.633,125.39,-0.46661,0.24697,0.80502
393.233,125.586,-0.48347,0.25203,0.80428
393.833,125.782,-0.50326,0.25667,0.80353
394.433,125.978,-0.52192,0.26084,0.80278
395.033,126.174,-0.54261,0.26424,0.80204
395.633,126.37,-0.56361,0.26688,0.80129
396.233,126.566,-0.58479,0.27006,0.80055
396.833,126.762,-0.60736,0.27626,0.7998
397.433,126.957,-0.63258,0.27981,0.79905
398.033,127.154,-0.65394,0.28709,0.79831
398.633,127.351,-0.67838,0.29168,0.79756
399.233,127.547,-0.70553,0.29581,0.79681
399.833,127.7434,-0.73199,0.30038,0.79607
400.433,127.939,-0.75832,0.30534,0.79532
401.033,128.135,-0.78822,0.31225,0.79458
401.633,128.331,-0.81874,0.3184,0.79383
402.233,128.527,-0.8485,0.32261,0.79309
402.833,128.723,-0.87847,0.32862,0.79234
403.433,128.919,-0.90983,0.33146,0.7916
404.033,129.116,-0.9434,0.33723,0.79085
404.633,129.312,-0.97916,0.34186,0.79011
405.233,129.508,-1.01516,0.3466,0.78936
405.833,129.704,-1.04923,0.3528,0.78862
406.433,129.899,-1.08765,0.35527,0.78787
407.033,130.094,-1.12633,0.36209,0.78713
407.633,130.29,-1.16771,0.36714,0.78638
408.233,130.486,-1.20703,0.36786,0.78564
408.833,130.682,-1.24989,0.37227,0.7849
409.433,130.8782,-1.29382,0.37943,0.78415
410.033,131.075,-1.33885,0.38165,0.78341
410.633,131.271,-1.38392,0.38755,0.78267
411.233,131.467,-1.43137,0.39121,0.78192
411.833,131.664,-1.48032,0.39174,0.78118
412.433,131.86,-1.52957,0.39557,0.78044
413.033,132.058,-1.57848,0.39807,0.77969
413.633,132.254,-1.63028,0.39941,0.77895
414.233,132.451,-1.68069,0.4034,0.77821
414.833,132.647,-1.73517,0.4045,0.77747
415.433,132.8433,-1.78802,0.40831,0.77673
416.033,133.04,-1.84161,0.4079,0.77599
416.633,133.236,-1.89766,0.40843,0.77525
417.233,133.432,-1.95354,0.40795,0.77451
417.833,133.628,-2.00801,0.40781,0.77377
418.433,133.824,-2.06394,0.40726,0.77303
419.033,134.021,-2.12263,0.40509,0.77229
419.633,134.217,-2.17659,0.40267,0.77155
420.233,134.4146,-2.23366,0.40099,0.77081
420.833,134.611,-2.28724,0.39633,0.77007
421.433,134.809,-2.34229,0.38882,0.76933
422.033,135.006,-2.39667,0.38292,0.76859
422.633,135.203,-2.44883,0.37395,0.76786
423.233,135.4,-2.5001,0.36597,0.76712
423.833,135.597,-2.54896,0.35611,0.76638
424.433,135.793,-2.59637,0.34087,0.76564
425.033,135.99,-2.64367,0.33231,0.76491
425.633,136.187,-2.68819,0.32216,0.76417
426.233,136.3834,-2.73012,0.31067,0.76344
426.833,136.58,-2.76817,0.29733,0.7627
427.433,136.776,-2.8083,0.28516,0.76197
428.033,136.973,-2.84277,0.2722,0.76123
428.633,137.1689,-2.87559,0.25906,0.7605
429.233,137.366,-2.90614,0.24662,0.75976
429.833,137.562,-2.93324,0.23208,0.75903
430.433,137.759,-2.96167,0.21788,0.7583
431.033,137.956,-2.98535,0.20521,0.75757
431.633,138.153,-3.00896,0.19286,0.75683
432.233,138.349,-3.02966,0.18338,0.7561
432.833,138.546,-3.04957,0.17465,0.75537
433.433,138.743,-3.06754,0.166,0.75464
434.033,138.9398,-3.08414,0.15823,0.75391
434.633,139.1367,-3.10142,0.14949,0.75318
435.233,139.334,-3.11652,0.14457,0.75245
435.833,139.531,-3.1315,0.13629,0.75172
436.433,139.729,-3.14123,0.1335,0.751
437.033,139.926,-3.15603,0.12617,0.75027
437.633,140.123,-3.16668,0.12193,0.74954
438.233,140.32,-3.1787,0.11559,0.74881
438.833,140.517,-3.19105,0.11091,0.74809
439.433,140.715,-3.19771,0.10581,0.74736
440.033,140.912,-3.2083,0.10629,0.74664
440.633,141.11,-3.21719,0.10063,0.74591
441.233,141.307,-3.22563,0.09985539,0.74519
441.833,141.504,-3.23408,0.0934557,0.74446
442.433,141.701,-3.23734,0.08945531,0.74374
443.033,141.898,-3.24824,0.08642393,0.74302
443.633,142.096,-3.25362,0.08352375,0.7423
444.233,142.294,-3.2608,0.07752616,0.74157
444.833,142.491,-3.26667,0.07455187,0.74085
445.433,142.689,-3.27237,0.07292525,0.74013
446.033,142.887,-3.27902,0.06641157,0.73941
446.633,143.084,-3.2835,0.06467804,0.73869
447.233,143.281,-3.28857,0.06093552,0.73797
447.833,143.4777,-3.29429,0.05992974,0.73726
448.433,143.674,-3.29847,0.05913789,0.73654
449.033,143.871,-3.30238,0.05528759,0.73582
449.633,144.069,-3.30763,0.05784427,0.73511
450.233,144.267,-3.31178,0.06045445,0.73439
450.833,144.465,-3.31564,0.06042421,0.73368
451.433,144.6633,-3.32021,0.05698751,0.73296
452.033,144.862,-3.32217,0.05903286,0.73225
452.633,145.06,-3.32612,0.0573506,0.73153
453.233,145.258,-3.33007,0.05612963,0.73082
453.833,145.456,-3.33269,0.05280732,0.73011
454.433,145.654,-3.33895,0.05236152,0.7294
455.033,145.851,-3.34027,0.05209308,0.72869
455.633,146.049,-3.34292,0.0480184,0.72798
456.233,146.247,-3.34446,0.04862847,0.72727
456.833,146.445,-3.34763,0.04887846,0.72656
457.433,146.643,-3.34996,0.0479558,0.72585
458.033,146.842,-3.3538,0.04751997,0.72514
458.633,147.041,-3.35643,0.04765371,0.72444
459.233,147.239,-3.35837,0.04520871,0.72373
459.833,147.437,-3.361,0.03417143,0.72303
460.433,147.634,-3.36355,0.0337244,0.72232
461.033,147.832,-3.3656,0.03507411,0.72162
461.633,148.03,-3.36692,0.03683889,0.72091
462.233,148.228,-3.36955,0.04130102,0.72021
462.833,148.425,-3.37203,0.03434907,0.71951
463.433,148.624,-3.37219,0.03172078,0.71881
464.033,148.822,-3.37431,0.02883785,0.71811
464.633,149.02,-3.37613,0.01577327,0.71741
465.233,149.218,-3.37745,0.009343488,0.71671
465.833,149.416,-3.37879,0.006665612,0.71601
466.433,149.614,-3.38008,0.002296132,0.71532
467.033,149.812,-3.38404,-0.002105515,0.71462
467.633,150.011,-3.38535,-0.004500554,0.71392
468.233,150.21,-3.38667,-0.006654825,0.71323
468.833,150.41,-3.38655,-0.0119234,0.71253
469.433,150.61,-3.38919,-0.01713642,0.71184
470.033,150.809,-3.39117,-0.02097149,0.71115
470.633,151.009,-3.39314,-0.02540182,0.71046
471.233,151.209,-3.39446,-0.02837629,0.70977
471.833,151.409,-3.39347,-0.02847363,0.70908
472.433,151.609,-3.39609,-0.02823582,0.70839
473.033,151.808,-3.39603,-0.02857393,0.7077
473.633,152.006,-3.39777,-0.03075835,0.70701
474.233,152.204,-3.39741,-0.02954309,0.70632
474.833,152.402,-3.39972,-0.02988406,0.70564
475.433,152.6,-3.40137,-0.02912291,0.70495
476.033,152.799,-3.40268,-0.02653153,0.70427
476.633,152.997,-3.40259,-0.02464676,0.70358
477.233,153.196,-3.404,-0.02490944,0.7029
477.833,153.395,-3.40531,-0.02054511,0.70222
478.433,153.594,-3.40531,-0.0176391,0.70154
479.033,153.794,-3.4079,-0.01655904,0.70086
479.633,153.994,-3.40827,-0.01619081,0.70018
480.233,154.194,-3.40832,-0.01380346,0.6995
480.833,154.394,-3.41037,-0.01405116,0.69882
481.433,154.592,-3.4109,-0.01435323,0.69815
482.033,154.791,-3.41287,-0.01527414,0.69747
482.633,154.989,-3.41156,-0.01519086,0.69679
483.233,155.187,-3.41321,-0.01466858,0.69612
483.833,155.386,-3.41321,-0.01516382,0.69545
484.433,155.585,-3.41452,-0.01317289,0.69477
485.033,155.785,-3.41575,-0.01098228,0.6941
485.633,155.984,-3.41811,-0.01142525,0.69343
486.233,156.183,-3.41745,-0.009458356,0.69276
486.833,156.383,-3.4188,-0.01087385,0.69209
487.433,156.582,-3.42011,-0.008570181,0.69143
488.033,156.781,-3.42012,-0.00931397,0.69076
488.633,156.981,-3.42016,-0.007605595,0.69009
489.233,157.18,-3.42143,-0.01029143,0.68943
489.833,157.38,-3.42242,-0.009238994,0.68877
490.433,157.579,-3.42374,-0.00870551,0.6881
491.033,157.7783,-3.42506,-0.005212853,0.68744
491.633,157.978,-3.42538,0.000363859,0.68678
492.233,158.179,-3.4267,5.2016e-05,0.68612
492.833,158.379,-3.4267,-0.0004118685,0.68546
493.433,158.579,-3.42801,-0.00183988,0.6848
494.033,158.779,-3.4267,0.001970679,0.68414
494.633,158.979,-3.42801,0.001267988,0.68349
495.233,159.178,-3.43031,5.435033e-05,0.68283
495.833,159.378,-3.43098,-0.002730246,0.68218
496.433,159.578,-3.43065,-0.002661733,0.68152
497.033,159.778,-3.43196,-0.001517254,0.68087
497.633,159.978,-3.43149,-0.0008241019,0.68022
498.233,160.178,-3.43196,-0.000715231,0.67957
498.833,160.378,-3.43328,0.0004699276,0.67892
499.433,160.578,-3.43522,0.0002573968,0.67827
500.033,160.779,-3.43592,0.0004985591,0.67763
500.633,160.979,-3.43657,0.00161042,0.67698
501.233,161.179,-3.43723,0.00192925,0.67633
501.833,161.379,-3.43591,0.003387503,0.67569
502.433,161.58,-3.43723,0.00575649,0.67505
503.033,161.781,-3.43854,0.003910418,0.6744
503.633,161.983,-3.43851,0.00373147,0.67376
504.233,162.183,-3.43854,0.004530419,0.67312
504.833,162.384,-3.44019,0.002250867,0.67248
505.433,162.583,-3.44022,0.003215559,0.67185
506.033,162.783,-3.44019,0.003725,0.67121
506.633,162.982,-3.44149,0.001021881,0.67057
507.233,163.181,-3.44216,0.0004700382,0.66994
507.833,163.38,-3.44217,0.006341637,0.66931
508.433,163.58,-3.44414,0.002321604,0.66867
509.033,163.781,-3.44414,0.002002608,0.66804
509.633,163.982,-3.44414,-0.00119165,0.66741
510.233,164.183,-3.44414,0.003203304,0.66678
510.833,164.384,-3.44512,0.007354625,0.66615
511.433,164.585,-3.44548,0.004189148,0.66553
512.033,164.785,-3.44542,0.004291317,0.6649
512.633,164.984,-3.44513,0.00352179,0.66427
513.233,165.184,-3.44612,0.003071963,0.66365
513.833,165.383,-3.44579,0.00343677,0.66303
514.433,165.584,-3.44579,0.005514808,0.66241
515.033,165.784,-3.44645,0.006215276,0.66179
515.633,165.9848,-3.44644,0.007324959,0.66117
516.233,166.1859,-3.44644,0.006252579,0.66055
516.833,166.3871,-3.44776,0.00709008,0.65993
517.433,166.588,-3.44676,0.009614432,0.65931
518.033,166.789,-3.44776,0.006921593,0.6587
518.633,166.99,-3.4494,0.00860716,0.65809
519.233,167.191,-3.45006,0.01029597,0.65747
519.833,167.392,-3.45006,0.01109291,0.65686
520.433,167.594,-3.45138,0.01132411,0.65625
521.033,167.794,-3.45041,0.01018383,0.65564
521.633,167.995,-3.45202,0.01225863,0.65503
522.233,168.195,-3.4527,0.00948577,0.65443
522.833,168.396,-3.45072,0.008168073,0.65382
523.433,168.596,-3.45335,0.006875428,0.65322
524.033,168.796,-3.45468,0.00593453,0.65261
524.633,168.995,-3.45467,0.005713632,0.65201
525.233,169.195,-3.45496,0.006978429,0.65141
525.833,169.395,-3.45664,0.006418114,0.65081
526.433,169.5958,-3.45699,0.005557585,0.65021
527.033,169.797,-3.45964,0.004328417,0.64961
527.633,169.999,-3.45831,0.005323938,0.64902
528.233,170.201,-3.45958,0.00733029,0.64842
528.833,170.403,-3.45993,0.00560008,0.64783
529.433,170.605,-3.46125,0.004936806,0.64724
530.033,170.806,-3.46225,0.003536333,0.64664
530.633,171.006,-3.46256,0.004957277,0.64605
531.233,171.206,-3.46289,0.004273205,0.64547
531.833,171.407,-3.46171,0.004873262,0.64488
532.433,171.6078,-3.46144,0.00594217,0.64429
533.033,171.809,-3.46123,0.002848828,0.64371
533.633,172.0098,-3.46257,0.001931484,0.64312
534.233,172.21,-3.46388,7.021651e-07,0.64254
534.833,172.41,-3.46619,-0.005513324,0.64196
535.433,172.61,-3.46991,-0.001434746,0.64138
536.033,172.812,-3.46991,-0.001238115,0.6408
536.633,173.014,-3.4685,-0.00546211,0.64022
537.233,173.216,-3.46861,-0.009149925,0.63964
537.833,173.418,-3.46761,-0.008201575,0.63907
538.433,173.619,-3.47025,-0.007271775,0.63849
539.033,173.821,-3.47059,-0.009140304,0.63792
539.633,174.021,-3.4722,-0.01067231,0.63735
540.233,174.222,-3.47319,-0.01005664,0.63678
540.833,174.424,-3.47452,-0.01326994,0.63621
541.433,174.627,-3.47156,-0.01419353,0.63564
542.033,174.831,-3.46583,-0.01510335,0.63507
542.633,175.034,-3.46585,-0.01509644,0.63451
543.233,175.236,-3.46856,-0.01276942,0.63394
543.833,175.438,-3.46849,-0.01186706,0.63338
544.433,175.641,-3.46981,-0.00923022,0.63282
545.033,175.841,-3.47112,-0.006301492,0.63226
545.633,176.043,-3.4711,-0.00345665,0.6317
546.233,176.245,-3.47112,-0.00273721,0.63114
546.833,176.448,-3.47409,-0.001090544,0.63059
547.433,176.651,-3.47539,4.85556e-05,0.63003
548.033,176.8529,-3.4754,-6.29873e-05,0.62948
548.633,177.055,-3.47671,-0.0007012357,0.62892
549.233,177.256,-3.47672,0.00148303,0.62837
549.833,177.457,-3.47672,-0.001561796,0.62782
550.433,177.659,-3.47902,-0.002059111,0.62727
551.033,177.8621,-3.47803,-0.00293191,0.62673
551.633,178.065,-3.47934,-0.00348405,0.62618
552.233,178.268,-3.48066,-0.005505449,0.62564
552.833,178.471,-3.48099,-0.01003956,0.62509
553.433,178.674,-3.48226,-0.00665598,0.62455
554.033,178.877,-3.481,-0.009323805,0.62401
554.633,179.079,-3.481,-0.01161615,0.62347
555.233,179.281,-3.48132,-0.009754502,0.62293
555.833,179.484,-3.48264,-0.01642201,0.6224
556.433,179.686,-3.48396,-0.01709197,0.62186
557.033,179.888,-3.48396,-0.01943716,0.62133
557.633,180.091,-3.48393,-0.01565128,0.62079
558.233,180.2917,-3.48657,-0.01754053,0.62026
558.833,180.494,-3.48527,-0.01374302,0.61973
559.433,180.696,-3.48623,-0.00621137,0.6192
560.033,180.898,-3.48756,-0.008147949,0.61868
560.633,181.099,-3.48626,-0.0129072,0.61815
561.233,181.3,-3.48857,-0.01518413,0.61763
561.833,181.501,-3.48857,-0.00585997,0.6171
562.433,181.703,-3.48891,-0.00999682,0.61658
563.033,181.906,-3.48889,-0.00773144,0.61606
563.633,182.1083,-3.48955,-0.00795297,0.61554
564.233,182.311,-3.49087,-0.008366505,0.61502
564.833,182.514,-3.49218,-0.005738893,0.61451
565.433,182.716,-3.49218,-0.003259735,0.61399
566.033,182.919,-3.49218,-0.006364166,0.61348
566.633,183.121,-3.49218,-0.005031512,0.61296
567.233,183.324,-3.4935,-0.00709773,0.61245
567.833,183.526,-3.49439,-0.00631264,0.61194
568.433,183.729,-3.49284,-0.004357303,0.61144
569.033,183.932,-3.49548,-0.002680795,0.61093
569.633,184.134,-3.49449,-0.000365629,0.61042
570.233,184.337,-3.49565,-0.002895253,0.60992
570.833,184.539,-3.49477,-5.8914e-06,0.60942
571.433,184.742,-3.4958,0.00468195,0.60892
572.033,184.945,-3.4958,0.001443228,0.60842
572.633,185.149,-3.49712,-0.000258221,0.60792
573.233,185.352,-3.49733,0.000127037,0.60742
573.833,185.555,-3.49711,0.00410255,0.60692
574.433,185.757,-3.49886,0.00123143,0.60643
575.033,185.96,-3.49843,-0.000304095,0.60594
575.633,186.162,-3.49927,0.001778305,0.60545
576.233,186.3654,-3.49977,0.002089751,0.60496
576.833,186.568,-3.49975,0.000618945,0.60447
577.433,186.7713,-3.50008,0.003727264,0.60398
578.033,186.974,-3.50271,0.005818028,0.60349
578.633,187.177,-3.50139,0.004736123,0.60301
579.233,187.379,-3.50236,0.01234575,0.60253
579.833,187.582,-3.50238,0.01058605,0.60204
580.433,187.785,-3.5037,0.01019013,0.60156
581.033,187.989,-3.50436,0.01472851,0.60109
581.633,188.1933,-3.50369,0.01659287,0.60061
582.233,188.397,-3.50501,0.01327773,0.60013
582.833,188.599,-3.50512,0.01229173,0.59966
583.433,188.801,-3.5048,0.01231638,0.59919
584.033,189.004,-3.5048,0.01306977,0.59871
584.633,189.207,-3.50512,0.01361055,0.59824
585.233,189.409,-3.50545,0.01161155,0.59777
585.833,189.612,-3.50776,0.01228369,0.59731
586.433,189.816,-3.50891,0.01277208,0.59684
587.033,190.019,-3.50918,0.012347,0.59638
587.633,190.221,-3.51005,0.0125609,0.59591
588.233,190.425,-3.51017,0.01060817,0.59545
588.833,190.6281,-3.51115,0.01247995,0.59499
589.433,190.832,-3.51083,0.01266842,0.59453
590.033,191.0358,-3.5105,0.01042859,0.59408
590.633,191.24,-3.51149,0.00770297,0.59362
591.233,191.444,-3.51142,0.0086271,0.59317
591.833,191.647,-3.51182,0.009127724,0.59271
592.433,191.8505,-3.5128,0.008111307,0.59226
593.033,192.053,-3.51411,0.005775413,0.59181
593.633,192.256,-3.51181,0.01021776,0.59136
594.233,192.459,-3.51412,0.009274527,0.59092
594.833,192.662,-3.51412,0.01106611,0.59047
595.433,192.866,-3.51379,0.01444445,0.59003
596.033,193.069,-3.51606,0.01078848,0.58958
596.633,193.272,-3.51478,0.01121819,0.58914
597.233,193.476,-3.5161,0.01426505,0.5887
597.833,193.679,-3.51611,0.01557123,0.58827
598.433,193.882,-3.51675,0.01629434,0.58783
599.033,194.085,-3.51675,0.01282294,0.58739
599.633,194.288,-3.51739,0.0129294,0.58696
600.233,194.491,-3.51774,0.01603091,0.58653
600.833,194.694,-3.51644,0.01856043,0.5861
601.433,194.898,-3.52037,0.01765692,0.58567
602.033,195.1024,-3.52004,0.01718415,0.58524
602.633,195.306,-3.52036,0.01854981,0.58481
603.233,195.51,-3.52037,0.01873062,0.58439
603.833,195.713,-3.52037,0.01646419,0.58396
604.433,195.916,-3.52037,0.01482164,0.58354
605.033,196.119,-3.52168,0.01151574,0.58312
605.633,196.323,-3.52168,0.01358072,0.5827
606.233,196.5265,-3.52169,0.01049423,0.58229
606.833,196.73,-3.52135,0.01033685,0.58187
607.433,196.933,-3.52037,0.009332697,0.58145
608.033,197.1372,-3.5204,0.01139756,0.58104
608.633,197.342,-3.52169,0.01320017,0.58063
609.233,197.547,-3.52301,0.01577218,0.58022
609.833,197.751,-3.52333,0.01742358,0.57981
610.433,197.956,-3.52202,0.01932211,0.5794
611.033,198.161,-3.52333,0.02304927,0.579
611.633,198.366,-3.52358,0.02757557,0.57859
612.233,198.5698,-3.52333,0.02911306,0.57819
612.833,198.773,-3.52465,0.0293965,0.57779
613.433,198.977,-3.52597,0.02974739,0.57739
614.033,199.18,-3.52597,0.02731232,0.57699
614.633,199.384,-3.52498,0.03063905,0.5766
615.233,199.5881,-3.52629,0.02683511,0.5762
615.833,199.792,-3.52493,0.02561655,0.57581
616.433,199.995,-3.52629,0.02846517,0.57541
617.033,200.198,-3.52563,0.03077387,0.57502
617.633,200.401,-3.52695,0.03046161,0.57463
618.233,200.604,-3.52714,0.03083084,0.57425
618.833,200.809,-3.52871,0.03127776,0.57386
619.433,201.014,-3.52926,0.02957871,0.57348
620.033,201.218,-3.53003,0.03160188,0.57309
620.633,201.422,-3.53002,0.03294106,0.57271
621.233,201.626,-3.53035,0.03840033,0.57233
621.833,201.83,-3.53068,0.03739568,0.57195
622.433,202.034,-3.53068,0.03977368,0.57158
623.033,202.238,-3.53331,0.03810962,0.5712
623.633,202.441,-3.53199,0.04385559,0.57083
624.233,202.645,-3.53158,0.04551721,0.57045
624.833,202.8494,-3.53265,0.04681551,0.57008
625.433,203.054,-3.53265,0.05061349,0.56971
626.033,203.258,-3.5326,0.05425918,0.56934
626.633,203.462,-3.53217,0.05423437,0.56898
627.233,203.667,-3.53232,0.05576887,0.56861
627.833,203.8711,-3.53331,0.05808925,0.56825
628.433,204.074,-3.53435,0.0571028,0.56789
629.033,204.278,-3.53397,0.05390158,0.56753
629.633,204.482,-3.53134,0.05890412,0.56717
630.233,204.687,-3.53398,0.0581366,0.56681
630.833,204.892,-3.53398,0.05330645,0.56645
631.433,205.096,-3.53388,0.05277225,0.5661
632.033,205.299,-3.53431,0.05351384,0.56575
632.633,205.503,-3.53431,0.05260345,0.56539
633.233,205.706,-3.53594,0.05408323,0.56504
633.833,205.909,-3.53627,0.04989272,0.5647
634.433,206.112,-3.53528,0.04886041,0.56435
635.033,206.315,-3.53536,0.04810958,0.564
635.633,206.519,-3.53661,0.04947309,0.56366
636.233,206.723,-3.53792,0.04905152,0.56332
636.833,206.9272,-3.53661,0.05424163,0.56298
637.433,207.131,-3.53582,0.05110664,0.56264
638.033,207.335,-3.53628,0.05315562,0.5623
638.633,207.539,-3.53725,0.05345919,0.56196
639.233,207.744,-3.53727,0.05083405,0.56163
639.833,207.948,-3.53628,0.04918941,0.56129
640.433,208.153,-3.53762,0.04853628,0.56096
641.033,208.358,-3.53627,0.04951844,0.56063
641.633,208.563,-3.53627,0.05418731,0.5603
642.233,208.768,-3.53726,0.0525365,0.55998
642.833,208.973,-3.53726,0.05430394,0.55965
643.433,209.178,-3.53726,0.05676338,0.55933
644.033,209.384,-3.537,0.05537419,0.559
644.633,209.589,-3.53792,0.06400572,0.55868
645.233,209.794,-3.53792,0.06287175,0.55836
645.833,209.9983,-3.53726,0.06435858,0.55804