File: 01_Data/Pine_Lap_Siding_Wood/STA/N2/3K_min/Pine_Lap_Siding_Wood_STA_N2_3KData_220321_R1.csv
##Temp./Â°C,Time/min,DSC(subtr.2)/(mW/mg),Mass loss(subtr.2)/mg,Sensit./(uV/mW)
50.026,10.01667,0.02756891,-0.02961,1.04805
50.726,11.1316,0.05128033,-0.03119861,1.04774
51.426,11.52369,0.06519934,-0.03244413,1.04743
52.126,11.8453,0.07467117,-0.03363339,1.04712
52.826,12.13952,0.07768539,-0.03231399,1.04681
53.526,12.42034,0.08311593,-0.03186732,1.04651
54.226,12.6908,0.08577282,-0.03380458,1.0462
54.926,12.95531,0.08659633,-0.03392497,1.04589
55.626,13.21408,0.08981858,-0.03506021,1.04558
56.326,13.4704,0.09243431,-0.03659756,1.04527
57.026,13.7233,0.0933337,-0.0362152,1.04496
57.726,13.97605,0.09328983,-0.03644777,1.04466
58.426,14.2252,0.09393843,-0.03590246,1.04435
59.126,14.4721,0.09660989,-0.03706352,1.04404
59.826,14.7168,0.0982376,-0.03838436,1.04374
60.526,14.9605,0.10171,-0.03694457,1.04343
61.226,15.20307,0.10207,-0.03888566,1.04312
61.926,15.4453,0.10507,-0.03937751,1.04282
62.626,15.687,0.10404,-0.03971791,1.04251
63.326,15.92668,0.10359,-0.03954087,1.04221
64.026,16.16617,0.10513,-0.04104362,1.0419
64.726,16.40469,0.10519,-0.04158965,1.0416
65.426,16.64314,0.10558,-0.04155424,1.04129
66.126,16.8807,0.10536,-0.04398873,1.04099
66.826,17.11758,0.10482,-0.04398372,1.04068
67.526,17.3534,0.10305,-0.04399899,1.04038
68.226,17.58899,0.10347,-0.04387683,1.04008
68.926,17.82559,0.10498,-0.04508949,1.03977
69.626,18.0616,0.10719,-0.04518901,1.03947
70.326,18.29586,0.10513,-0.04520307,1.03917
71.026,18.5295,0.10489,-0.04846895,1.03887
71.726,18.76366,0.10533,-0.0499066,1.03856
72.426,18.99744,0.10528,-0.04749003,1.03826
73.126,19.2317,0.10557,-0.0478957,1.03796
73.826,19.46654,0.10737,-0.04946165,1.03766
74.526,19.7015,0.10227,-0.05078,1.03736
75.226,19.9357,0.10515,-0.04950937,1.03706
75.926,20.16969,0.10422,-0.05078537,1.03675
76.626,20.40363,0.10242,-0.05140806,1.03645
77.326,20.6385,0.10128,-0.05146626,1.03615
78.026,20.8725,0.1022,-0.05395381,1.03585
78.726,21.10586,0.101,-0.05224832,1.03555
79.426,21.33902,0.10085,-0.05301934,1.03525
80.126,21.5724,0.09986725,-0.0541487,1.03495
80.826,21.80586,0.09905857,-0.05419,1.03465
81.526,22.03813,0.09771216,-0.05550667,1.03435
82.226,22.26977,0.09733036,-0.05495119,1.03406
82.926,22.50158,0.09549317,-0.0535534,1.03376
83.626,22.7339,0.09809911,-0.05615991,1.03346
84.326,22.96619,0.0964653,-0.05812979,1.03316
85.026,23.1995,0.09304986,-0.05714001,1.03286
85.726,23.43221,0.09333812,-0.05615999,1.03256
86.426,23.66514,0.09365972,-0.05615181,1.03227
87.126,23.89698,0.09213513,-0.05546586,1.03197
87.826,24.12912,0.08994617,-0.05626879,1.03167
88.526,24.36123,0.08836796,-0.05714002,1.03138
89.226,24.5937,0.08689571,-0.05711284,1.03108
89.926,24.8276,0.08728247,-0.05974898,1.03078
90.626,25.06172,0.08489129,-0.05909537,1.03049
91.326,25.29559,0.08442962,-0.05715134,1.03019
92.026,25.52851,0.0864641,-0.05977583,1.02989
92.726,25.7621,0.08588354,-0.05955778,1.0296
93.426,25.99561,0.08510595,-0.05874872,1.0293
94.126,26.22948,0.08283145,-0.05954761,1.02901
94.826,26.4622,0.08635651,-0.06011022,1.02871
95.526,26.69555,0.08457253,-0.05882563,1.02842
96.226,26.92812,0.08374515,-0.06142042,1.02812
96.926,27.16194,0.08299769,-0.06058372,1.02783
97.626,27.39426,0.0822366,-0.06043056,1.02753
98.326,27.6268,0.08443164,-0.05847385,1.02724
99.026,27.8582,0.08216667,-0.06076982,1.02695
99.726,28.0895,0.08282617,-0.06076926,1.02665
100.426,28.32095,0.08320406,-0.05937187,1.02636
101.126,28.55097,0.08412717,-0.06144971,1.02606
101.826,28.7828,0.08173187,-0.06011343,1.02577
102.526,29.0135,0.07991991,-0.0625402,1.02548
103.226,29.24522,0.08321947,-0.06108705,1.02519
103.926,29.4754,0.08065855,-0.06132013,1.02489
104.626,29.7065,0.07921188,-0.06284839,1.0246
105.326,29.9383,0.07955828,-0.06208836,1.02431
106.026,30.1702,0.08185067,-0.06132112,1.02402
106.726,30.40162,0.08337151,-0.06141881,1.02372
107.426,30.63355,0.08232079,-0.06274,1.02343
108.126,30.86467,0.08280383,-0.06274,1.02314
108.826,31.0957,0.08104409,-0.06339082,1.02285
109.526,31.32589,0.08686348,-0.06246322,1.02256
110.226,31.55586,0.08710385,-0.06164115,1.02227
110.926,31.78517,0.0847856,-0.06529,1.02198
111.626,32.01413,0.08789158,-0.06406014,1.02168
112.326,32.24329,0.08724887,-0.06473877,1.02139
113.026,32.47263,0.08773364,-0.06442801,1.0211
113.726,32.70243,0.08712896,-0.06307278,1.02081
114.426,32.93277,0.0875628,-0.06306,1.02052
115.126,33.16448,0.08759324,-0.06310971,1.02023
115.826,33.39569,0.08892651,-0.06417439,1.01994
116.526,33.62689,0.08628776,-0.062081,1.01965
117.226,33.8581,0.08718504,-0.06408251,1.01936
117.926,34.09043,0.08925672,-0.06360242,1.01908
118.626,34.32273,0.08716005,-0.06379357,1.01879
119.326,34.55518,0.08697793,-0.06396514,1.0185
120.026,34.78715,0.08949636,-0.06437983,1.01821
120.726,35.0186,0.0862397,-0.06312481,1.01792
121.426,35.2496,0.08745582,-0.06241003,1.01763
122.126,35.48065,0.08774219,-0.06356209,1.01734
122.826,35.71155,0.08870489,-0.06504001,1.01705
123.526,35.94202,0.09063815,-0.0660947,1.01677
124.226,36.17106,0.09037302,-0.06503901,1.01648
124.926,36.39968,0.09238024,-0.06403497,1.01619
125.626,36.62797,0.09368039,-0.06405885,1.0159
126.326,36.85637,0.0942868,-0.06406,1.01561
127.026,37.0848,0.09513892,-0.06339491,1.01533
127.726,37.3138,0.09459295,-0.06210778,1.01504
128.426,37.54383,0.09213756,-0.06339951,1.01475
129.126,37.7744,0.09122682,-0.0647435,1.01446
129.826,38.0049,0.09196054,-0.06569986,1.01418
130.526,38.23554,0.09346839,-0.06605698,1.01389
131.226,38.46544,0.09368187,-0.06504376,1.0136
131.926,38.69477,0.09329664,-0.06732225,1.01332
132.626,38.92333,0.09414231,-0.06475189,1.01303
133.326,39.15169,0.09351618,-0.06536958,1.01274
134.026,39.38026,0.09423751,-0.06468315,1.01246
134.726,39.60888,0.09659191,-0.0647164,1.01217
135.426,39.83827,0.09609607,-0.06603,1.01189
136.126,40.0678,0.09685084,-0.06668739,1.0116
136.826,40.29759,0.09453248,-0.06672888,1.01131
137.526,40.5269,0.09578212,-0.06609869,1.01103
138.226,40.75692,0.09641227,-0.06602137,1.01074
138.926,40.9869,0.09438466,-0.06668874,1.01046
139.626,41.21719,0.09517367,-0.06539833,1.01017
140.326,41.44683,0.09634416,-0.06468487,1.00989
141.026,41.6764,0.0956278,-0.06737937,1.0096
141.726,41.90586,0.09853691,-0.06603131,1.00932
142.426,42.13452,0.09354597,-0.06733525,1.00903
143.126,42.36319,0.09636629,-0.06868977,1.00875
143.826,42.59205,0.09788583,-0.06833878,1.00846
144.526,42.8211,0.09596858,-0.06997349,1.00818
145.226,43.0503,0.09779825,-0.06833923,1.00789
145.926,43.27916,0.10032,-0.06817657,1.00761
146.626,43.50861,0.0982598,-0.07039971,1.00732
147.326,43.73764,0.09620872,-0.06900863,1.00704
148.026,43.9676,0.09643715,-0.06734933,1.00675
148.726,44.19775,0.09911259,-0.06866,1.00647
149.426,44.42858,0.09733078,-0.06865841,1.00619
150.126,44.6583,0.09577449,-0.06733635,1.0059
150.826,44.88765,0.09862626,-0.06865999,1.00562
151.526,45.1164,0.10011,-0.06833,1.00533
152.226,45.34478,0.09983886,-0.06801227,1.00505
152.926,45.57305,0.1004,-0.06868283,1.00477
153.626,45.80123,0.09915224,-0.06685436,1.00448
154.326,46.02989,0.09820408,-0.06800275,1.0042
155.026,46.25868,0.09746742,-0.06822997,1.00392
155.726,46.48735,0.09740081,-0.06956475,1.00363
156.426,46.71671,0.10088,-0.07184996,1.00335
157.126,46.9456,0.09901558,-0.06912649,1.00307
157.826,47.17393,0.0983898,-0.06920946,1.00278
158.526,47.40245,0.10002,-0.06921284,1.0025
159.226,47.63174,0.1014,-0.07012998,1.00222
159.926,47.86105,0.10373,-0.07162023,1.00193
160.626,48.0895,0.10262,-0.06796284,1.00165
161.326,48.31733,0.10693,-0.06898128,1.00137
162.026,48.54497,0.10342,-0.07031,1.00108
162.726,48.77244,0.1043,-0.0724429,1.0008
163.426,48.99922,0.10234,-0.0712812,1.00052
164.126,49.2271,0.10274,-0.07103511,1.00024
164.826,49.45535,0.10354,-0.07228076,0.99995
165.526,49.68333,0.10031,-0.07096,0.99967
166.226,49.91258,0.10295,-0.07096,0.99939
166.926,50.14161,0.10204,-0.07237166,0.99911
167.626,50.37191,0.10261,-0.0722798,0.99882
168.326,50.60028,0.10386,-0.07228,0.99854
169.026,50.8288,0.1049,-0.07229775,0.99826
169.726,51.05675,0.10596,-0.07184378,0.99798
170.426,51.28468,0.10578,-0.0732839,0.99769
171.126,51.51249,0.10183,-0.07393026,0.99741
171.826,51.74001,0.1045,-0.07295524,0.99713
172.526,51.96748,0.10384,-0.07292978,0.99685
173.226,52.1946,0.10598,-0.07326046,0.99656
173.926,52.42256,0.10692,-0.07523995,0.99628
174.626,52.65087,0.10389,-0.07525466,0.996
175.326,52.8791,0.1053,-0.07391087,0.99572
176.026,53.1066,0.10788,-0.07417829,0.99543
176.726,53.33393,0.10902,-0.07623101,0.99515
177.426,53.56137,0.10683,-0.07492,0.99487
178.126,53.7889,0.10708,-0.07622777,0.99459
178.826,54.017,0.10365,-0.07490569,0.99431
179.526,54.24541,0.10431,-0.07524013,0.99402
180.226,54.47388,0.10468,-0.07578128,0.99374
180.926,54.7017,0.10344,-0.07523991,0.99346
181.626,54.9304,0.10574,-0.07655,0.99318
182.326,55.15871,0.10498,-0.07566329,0.99289
183.026,55.38703,0.10706,-0.07749312,0.99261
183.726,55.61446,0.10672,-0.07693824,0.99233
184.426,55.842,0.10672,-0.07589583,0.99205
185.126,56.06995,0.10736,-0.07820185,0.99177
185.826,56.29745,0.10855,-0.07838681,0.99148
186.526,56.5255,0.10959,-0.07853048,0.9912
187.226,56.753,0.1094,-0.07853549,0.99092
187.926,56.97871,0.10831,-0.07853036,0.99064
188.626,57.2042,0.11113,-0.07861899,0.99035
189.326,57.42966,0.11191,-0.08102974,0.99007
190.026,57.6572,0.10921,-0.08191057,0.98979
190.726,57.88466,0.11112,-0.08050002,0.98951
191.426,58.1122,0.11036,-0.08170062,0.98923
192.126,58.3395,0.11201,-0.08182474,0.98894
192.826,58.56596,0.11223,-0.08313972,0.98866
193.526,58.79147,0.11191,-0.08112148,0.98838
194.226,59.0173,0.11328,-0.08380431,0.9881
194.926,59.2442,0.10884,-0.08279991,0.98781
195.626,59.4727,0.10957,-0.08446756,0.98753
196.326,59.70085,0.11112,-0.08512,0.98725
197.026,59.92901,0.10983,-0.08517636,0.98697
197.726,60.15609,0.10837,-0.08253262,0.98668
198.426,60.38415,0.10889,-0.0854779,0.9864
199.126,60.61185,0.11064,-0.08675601,0.98612
199.826,60.84049,0.11291,-0.08736028,0.98584
200.526,61.0686,0.11231,-0.08680305,0.98555
201.226,61.29635,0.11295,-0.08947041,0.98527
201.926,61.5229,0.11326,-0.08675998,0.98499
202.626,61.74839,0.11582,-0.088105,0.9847
203.326,61.9747,0.11254,-0.08669397,0.98442
204.026,62.2023,0.1108,-0.08676992,0.98414
204.726,62.43133,0.11292,-0.08942124,0.98385
205.426,62.6604,0.11166,-0.09212791,0.98357
206.126,62.88955,0.11235,-0.09063171,0.98329
206.826,63.11824,0.11102,-0.09169001,0.98301
207.526,63.3473,0.11201,-0.09072485,0.98272
208.226,63.57526,0.11052,-0.09103105,0.98244
208.926,63.80299,0.11253,-0.09203695,0.98216
209.626,64.03009,0.11218,-0.09301026,0.98187
210.326,64.2583,0.11398,-0.09298555,0.98159
211.026,64.48595,0.11432,-0.09464812,0.9813
211.726,64.71338,0.11217,-0.0972848,0.98102
212.426,64.9408,0.11513,-0.09729603,0.98074
213.126,65.16855,0.11613,-0.09729095,0.98045
213.826,65.39647,0.11637,-0.09688664,0.98017
214.526,65.62358,0.11503,-0.09961017,0.97989
215.226,65.85115,0.11491,-0.09926262,0.9796
215.926,66.07885,0.11589,-0.09925997,0.97932
216.626,66.3071,0.1181,-0.10082,0.97903
217.326,66.5343,0.11823,-0.10091,0.97875
218.026,66.761,0.12081,-0.10223,0.97846
218.726,66.98659,0.12215,-0.10355,0.97818
219.426,67.21223,0.12376,-0.10218,0.97789
220.126,67.43754,0.12363,-0.10357,0.97761
220.826,67.66355,0.12494,-0.10485,0.97732
221.526,67.88931,0.12398,-0.10717,0.97704
222.226,68.1155,0.12043,-0.10749,0.97676
222.926,68.34174,0.12331,-0.11021,0.97647
223.626,68.56791,0.12486,-0.11113,0.97618
224.326,68.79449,0.12351,-0.11112,0.9759
225.026,69.02126,0.12572,-0.11243,0.97561
225.726,69.2495,0.12709,-0.11473,0.97533
226.426,69.4771,0.12605,-0.11598,0.97504
227.126,69.70487,0.12671,-0.11761,0.97476
227.826,69.93189,0.12706,-0.11796,0.97447
228.526,70.1585,0.12816,-0.12099,0.97418
229.226,70.38542,0.12765,-0.12262,0.9739
229.926,70.6126,0.12731,-0.12394,0.97361
230.626,70.84025,0.12921,-0.1249,0.97333
231.326,71.06741,0.12803,-0.12691,0.97304
232.026,71.295,0.12768,-0.12825,0.97275
232.726,71.5231,0.13007,-0.12954,0.97247
233.426,71.75103,0.12983,-0.13288,0.97218
234.126,71.97782,0.13175,-0.13445,0.97189
234.826,72.20434,0.13259,-0.13757,0.9716
235.526,72.42973,0.13152,-0.13732,0.97132
236.226,72.65554,0.13484,-0.13906,0.97103
236.926,72.88081,0.13633,-0.14256,0.97074
237.626,73.10772,0.13624,-0.14429,0.97045
238.326,73.33521,0.13687,-0.14729,0.97017
239.026,73.56317,0.13753,-0.14859,0.96988
239.726,73.7902,0.13824,-0.14994,0.96959
240.426,74.0167,0.13715,-0.15389,0.9693
241.126,74.2435,0.13576,-0.1578,0.96901
241.826,74.46986,0.13523,-0.15799,0.96873
242.526,74.6968,0.13885,-0.16311,0.96844
243.226,74.92355,0.13907,-0.16572,0.96815
243.926,75.1511,0.13695,-0.16705,0.96786
244.626,75.37822,0.13638,-0.16824,0.96757
245.326,75.60601,0.13719,-0.16872,0.96728
246.026,75.83422,0.13824,-0.1754,0.96699
246.726,76.06257,0.13709,-0.178,0.9667
247.426,76.29078,0.139,-0.18151,0.96641
248.126,76.51864,0.13531,-0.18307,0.96612
248.826,76.74593,0.13739,-0.18701,0.96583
249.526,76.9727,0.13836,-0.19229,0.96554
250.226,77.19869,0.14056,-0.19493,0.96525
250.926,77.42557,0.13781,-0.19843,0.96496
251.626,77.6528,0.1358,-0.2026,0.96467
252.326,77.88107,0.13493,-0.20525,0.96438
253.026,78.10897,0.13176,-0.20917,0.96409
253.726,78.33686,0.13367,-0.21442,0.96379
254.426,78.56458,0.12935,-0.21973,0.9635
255.126,78.79258,0.13069,-0.22365,0.96321
255.826,79.01987,0.13123,-0.22537,0.96292
256.526,79.24655,0.13056,-0.23,0.96263
257.226,79.47248,0.12994,-0.23346,0.96233
257.926,79.69839,0.13203,-0.23878,0.96204
258.626,79.92577,0.13453,-0.24268,0.96175
259.326,80.15348,0.13264,-0.24816,0.96146
260.026,80.38186,0.13576,-0.25276,0.96116
260.726,80.60915,0.13329,-0.25796,0.96087
261.426,80.8368,0.13394,-0.26339,0.96057
262.126,81.06393,0.13603,-0.2686,0.96028
262.826,81.2908,0.13661,-0.27394,0.95999
263.526,81.51779,0.13528,-0.27856,0.95969
264.226,81.7457,0.13645,-0.28309,0.9594
264.926,81.97409,0.13401,-0.28918,0.9591
265.626,82.20233,0.13343,-0.29762,0.95881
266.326,82.43007,0.13715,-0.30299,0.95851
267.026,82.65731,0.13617,-0.30833,0.95822
267.726,82.88454,0.13793,-0.3156,0.95792
268.426,83.1117,0.13621,-0.32236,0.95763
269.126,83.33936,0.13375,-0.32809,0.95733
269.826,83.56658,0.13457,-0.33531,0.95704
270.526,83.79381,0.13654,-0.34318,0.95674
271.226,84.02071,0.13972,-0.35019,0.95644
271.926,84.24842,0.13712,-0.35701,0.95614
272.626,84.47624,0.13851,-0.36514,0.95585
273.326,84.7042,0.14227,-0.37335,0.95555
274.026,84.93204,0.14096,-0.38026,0.95525
274.726,85.15951,0.14045,-0.38817,0.95496
275.426,85.3871,0.14504,-0.39643,0.95466
276.126,85.61282,0.14103,-0.40373,0.95436
276.826,85.83876,0.14422,-0.41128,0.95406
277.526,86.06359,0.14515,-0.41916,0.95376
278.226,86.28939,0.14808,-0.42983,0.95346
278.926,86.515,0.14758,-0.43879,0.95316
279.626,86.7411,0.14513,-0.44814,0.95286
280.326,86.96725,0.14686,-0.45826,0.95256
281.026,87.19453,0.14639,-0.46569,0.95226
281.726,87.42236,0.14929,-0.47632,0.95196
282.426,87.65084,0.15167,-0.48651,0.95166
283.126,87.87924,0.14991,-0.49681,0.95136
283.826,88.10811,0.15081,-0.50831,0.95106
284.526,88.337,0.15291,-0.51829,0.95076
285.226,88.56522,0.15412,-0.52852,0.95046
285.926,88.79319,0.15687,-0.54081,0.95016
286.626,89.02121,0.15895,-0.55101,0.94985
287.326,89.24967,0.15933,-0.56232,0.94955
288.026,89.47845,0.16132,-0.576,0.94925
288.726,89.7073,0.16157,-0.58683,0.94895
289.426,89.9356,0.16204,-0.59744,0.94864
290.126,90.16366,0.16301,-0.61098,0.94834
290.826,90.39113,0.16487,-0.62405,0.94804
291.526,90.61847,0.16692,-0.63829,0.94773
292.226,90.8455,0.16919,-0.65115,0.94743
292.926,91.07285,0.17018,-0.66427,0.94712
293.626,91.3006,0.17018,-0.67918,0.94682
294.326,91.52802,0.17399,-0.69264,0.94651
295.026,91.75528,0.17707,-0.70736,0.94621
295.726,91.98218,0.17817,-0.72065,0.9459
296.426,92.2097,0.18147,-0.73563,0.94559
297.126,92.4373,0.18095,-0.75057,0.94529
297.826,92.66509,0.1834,-0.76728,0.94498
298.526,92.893,0.18427,-0.78263,0.94467
299.226,93.12089,0.18485,-0.79812,0.94437
299.926,93.35003,0.18383,-0.8131,0.94406
300.626,93.57935,0.18627,-0.82996,0.94375
301.326,93.80957,0.18632,-0.8465,0.94344
302.026,94.03841,0.18851,-0.86414,0.94313
302.726,94.26727,0.19074,-0.88071,0.94283
303.426,94.49518,0.19036,-0.89707,0.94252
304.126,94.72391,0.1946,-0.91632,0.94221
304.826,94.95167,0.19547,-0.93304,0.9419
305.526,95.17907,0.19492,-0.95093,0.94159
306.226,95.40595,0.19715,-0.96943,0.94128
306.926,95.6331,0.20192,-0.9878,0.94097
307.626,95.8604,0.20343,-1.00659,0.94066
308.326,96.08719,0.20454,-1.02466,0.94034
309.026,96.31424,0.20576,-1.04324,0.94003
309.726,96.54183,0.20446,-1.06287,0.93972
310.426,96.7698,0.20654,-1.08067,0.93941
311.126,96.997,0.20814,-1.1005,0.9391
311.826,97.22446,0.2094,-1.12024,0.93878
312.526,97.45093,0.21329,-1.13929,0.93847
313.226,97.6778,0.21392,-1.15948,0.93816
313.926,97.90552,0.21261,-1.17911,0.93784
314.626,98.13416,0.21536,-1.1998,0.93753
315.326,98.3627,0.21885,-1.21951,0.93721
316.026,98.58972,0.21653,-1.23914,0.9369
316.726,98.81688,0.21815,-1.25954,0.93658
317.426,99.04463,0.22032,-1.27958,0.93627
318.126,99.2727,0.22141,-1.30164,0.93595
318.826,99.50104,0.21994,-1.32233,0.93563
319.526,99.7296,0.22269,-1.34398,0.93532
320.226,99.9584,0.22394,-1.36625,0.935
320.926,100.188,0.22812,-1.38852,0.93468
321.626,100.416,0.22921,-1.40943,0.93436
322.326,100.645,0.23292,-1.43024,0.93405
323.026,100.874,0.23345,-1.45291,0.93373
323.726,101.103,0.2352,-1.47553,0.93341
324.426,101.331,0.23916,-1.49701,0.93309
325.126,101.56,0.24021,-1.52005,0.93277
325.826,101.789,0.24213,-1.54258,0.93245
326.526,102.018,0.24435,-1.56412,0.93213
327.226,102.248,0.24528,-1.58773,0.93181
327.926,102.478,0.24807,-1.61282,0.93149
328.626,102.709,0.25033,-1.63827,0.93117
329.326,102.94,0.25527,-1.66195,0.93084
330.026,103.17,0.25784,-1.68853,0.93052
330.726,103.399,0.26126,-1.71201,0.9302
331.426,103.628,0.26756,-1.73826,0.92988
332.126,103.857,0.26862,-1.76448,0.92955
332.826,104.086,0.27582,-1.79032,0.92923
333.526,104.315,0.2788,-1.8183,0.92891
334.226,104.544,0.28423,-1.84462,0.92858
334.926,104.775,0.28733,-1.87271,0.92826
335.626,105.005,0.29435,-1.90263,0.92793
336.326,105.236,0.29726,-1.92973,0.92761
337.026,105.467,0.29912,-1.96023,0.92728
337.726,105.699,0.30571,-1.99092,0.92695
338.426,105.928,0.30864,-2.01997,0.92663
339.126,106.158,0.31502,-2.04991,0.9263
339.826,106.387,0.31827,-2.08335,0.92597
340.526,106.615,0.32771,-2.11305,0.92564
341.226,106.842,0.3251,-2.14522,0.92532
341.926,107.07,0.32989,-2.17757,0.92499
342.626,107.298,0.33344,-2.20859,0.92466
343.326,107.527,0.33431,-2.24261,0.92433
344.026,107.756,0.33374,-2.27675,0.924
344.726,107.986,0.33623,-2.30836,0.92367
345.426,108.217,0.3346,-2.343,0.92334
346.126,108.447,0.33252,-2.37479,0.923
346.826,108.679,0.32983,-2.409,0.92267
347.526,108.91,0.32752,-2.44305,0.92234
348.226,109.14,0.32224,-2.47512,0.92201
348.926,109.368,0.31948,-2.50851,0.92168
349.626,109.597,0.31322,-2.53897,0.92134
350.326,109.825,0.30725,-2.57034,0.92101
351.026,110.052,0.29466,-2.60079,0.92067
351.726,110.279,0.28961,-2.62888,0.92034
352.426,110.505,0.27504,-2.65903,0.92
353.126,110.732,0.26725,-2.68432,0.91967
353.826,110.959,0.25363,-2.70889,0.91933
354.526,111.186,0.24004,-2.7365,0.919
355.226,111.415,0.22489,-2.75725,0.91866
355.926,111.645,0.20716,-2.77846,0.91832
356.626,111.875,0.19172,-2.79861,0.91799
357.326,112.105,0.17693,-2.81748,0.91765
358.026,112.335,0.16236,-2.83425,0.91731
358.726,112.564,0.14778,-2.84988,0.91697
359.426,112.794,0.13528,-2.86399,0.91663
360.126,113.023,0.11845,-2.87697,0.91629
360.826,113.2533,0.10863,-2.8865,0.91595
361.526,113.483,0.09564209,-2.89766,0.91561
362.226,113.712,0.08450065,-2.90627,0.91527
362.926,113.941,0.07380155,-2.91333,0.91493
363.626,114.17,0.06747395,-2.92017,0.91458
364.326,114.4,0.06218544,-2.92664,0.91424
365.026,114.629,0.0536784,-2.93131,0.9139
365.726,114.858,0.05106385,-2.93518,0.91356
366.426,115.087,0.04969533,-2.93965,0.91321
367.126,115.317,0.04655602,-2.94375,0.91287
367.826,115.547,0.04247622,-2.94541,0.91252
368.526,115.777,0.04048101,-2.94935,0.91218
369.226,116.007,0.04029391,-2.95321,0.91183
369.926,116.236,0.03845634,-2.95362,0.91149
370.626,116.466,0.03733889,-2.95855,0.91114
371.326,116.696,0.03694882,-2.96093,0.91079
372.026,116.925,0.04093426,-2.9642,0.91044
372.726,117.153,0.03880205,-2.9651,0.9101
373.426,117.3824,0.03612372,-2.9691,0.90975
374.126,117.611,0.04126358,-2.9708,0.9094
374.826,117.84,0.03917378,-2.97304,0.90905
375.526,118.069,0.03573628,-2.97633,0.9087
376.226,118.298,0.03640986,-2.9786,0.90835
376.926,118.528,0.03371699,-2.97896,0.908
377.626,118.758,0.03586572,-2.98156,0.90765
378.326,118.989,0.03573715,-2.98428,0.9073
379.026,119.219,0.03088257,-2.98686,0.90694
379.726,119.45,0.03289706,-2.98819,0.90659
380.426,119.681,0.02831966,-2.99085,0.90624
381.126,119.91,0.03068443,-2.99128,0.90588
381.826,120.14,0.02881868,-2.9936,0.90553
382.526,120.3691,0.03103693,-2.99705,0.90517
383.226,120.5987,0.024971,-2.99937,0.90482
383.926,120.828,0.02399165,-2.99958,0.90446
384.626,121.056,0.02463624,-3.00439,0.90411
385.326,121.284,0.02381756,-3.006,0.90375
386.026,121.513,0.02422969,-3.007,0.90339
386.726,121.743,0.02128478,-3.00759,0.90303
387.426,121.973,0.02200202,-3.01453,0.90268
388.126,122.204,0.02116774,-3.01452,0.90232
388.826,122.435,0.02212637,-3.01839,0.90196
389.526,122.665,0.0200382,-3.01959,0.9016
390.226,122.8945,0.0178063,-3.01971,0.90124
390.926,123.124,0.01799729,-3.02229,0.90088
391.626,123.354,0.01425467,-3.02491,0.90052
392.326,123.584,0.01412444,-3.02758,0.90016
393.026,123.814,0.01313143,-3.02887,0.89979
393.726,124.045,0.01567639,-3.03255,0.89943
394.426,124.275,0.01334051,-3.03241,0.89907
395.126,124.506,0.01118644,-3.03543,0.8987
395.826,124.736,0.0115362,-3.03639,0.89834
396.526,124.966,0.01068906,-3.03907,0.89797
397.226,125.196,0.009910335,-3.04168,0.89761
397.926,125.427,0.007573659,-3.04312,0.89724
398.626,125.658,0.00762505,-3.04609,0.89688
399.326,125.89,0.004663001,-3.04731,0.89651
400.026,126.122,0.006411023,-3.05091,0.89614
400.726,126.354,0.002998783,-3.05354,0.89577
401.426,126.584,0.004338901,-3.05486,0.89541
402.126,126.813,0.002507335,-3.0562,0.89504
402.826,127.043,0.00349129,-3.05811,0.89467
403.526,127.272,0.003186461,-3.06079,0.8943
404.226,127.503,0.002614906,-3.06339,0.89393
404.926,127.734,0.002094866,-3.06474,0.89356
405.626,127.965,0.00171345,-3.06802,0.89318
406.326,128.196,-0.001127902,-3.06935,0.89281
407.026,128.4273,-0.000904927,-3.07132,0.89244
407.726,128.658,-0.004326977,-3.07333,0.89207
408.426,128.889,-0.00129956,-3.07675,0.89169
409.126,129.12,0.001836398,-3.07993,0.89132
409.826,129.351,0.000975048,-3.08087,0.89094
410.526,129.581,0.001085312,-3.08218,0.89057
411.226,129.812,-0.002870471,-3.08479,0.89019
411.926,130.042,-0.003879065,-3.086,0.88982
412.626,130.272,-0.00305002,-3.08886,0.88944
413.326,130.502,-0.00378814,-3.09146,0.88906
414.026,130.733,-0.006798182,-3.09172,0.88868
414.726,130.9644,-0.003702352,-3.09567,0.8883
415.426,131.196,-0.007070589,-3.09567,0.88793
416.126,131.427,-0.005297267,-3.09961,0.88755
416.826,131.658,-0.002395523,-3.10119,0.88717
417.526,131.888,-0.00384984,-3.10096,0.88678
418.226,132.118,-0.005178357,-3.10258,0.8864
418.926,132.349,-0.004993556,-3.10521,0.88602
419.626,132.579,-0.001554031,-3.10914,0.88564
420.326,132.81,-0.00281422,-3.11052,0.88526
421.026,133.041,-0.002400446,-3.11297,0.88487
421.726,133.273,-0.00271536,-3.11444,0.88449
422.426,133.504,0.00254222,-3.11705,0.8841
423.126,133.7357,0.001603698,-3.11703,0.88372
423.826,133.967,0.001267549,-3.12067,0.88333
424.526,134.197,0.002924193,-3.12074,0.88295
425.226,134.429,0.002627229,-3.12346,0.88256
425.926,134.66,0.00177026,-3.12722,0.88217
426.626,134.892,0.005832505,-3.12895,0.88178
427.326,135.124,0.004244589,-3.13037,0.88139
428.026,135.357,0.008239768,-3.13087,0.88101
428.726,135.588,0.008556473,-3.13287,0.88062
429.426,135.819,0.00724649,-3.13546,0.88023
430.126,136.0486,0.006899511,-3.13679,0.87983
430.826,136.278,0.01125291,-3.13919,0.87944
431.526,136.508,0.01282663,-3.14108,0.87905
432.226,136.739,0.01185543,-3.14141,0.87866
432.926,136.969,0.01086695,-3.14338,0.87827
433.626,137.199,0.01349801,-3.14371,0.87787
434.326,137.43,0.01485768,-3.14627,0.87748
435.026,137.662,0.01479228,-3.14874,0.87708
435.726,137.895,0.01505837,-3.15039,0.87669
436.426,138.129,0.01458868,-3.148,0.87629
437.126,138.362,0.01404298,-3.15002,0.87589
437.826,138.595,0.01584118,-3.15461,0.8755
438.526,138.827,0.01826916,-3.15424,0.8751
439.226,139.059,0.01866987,-3.15582,0.8747
439.926,139.29,0.01847743,-3.1571,0.8743
440.626,139.521,0.02042496,-3.15853,0.8739
441.326,139.752,0.02120837,-3.15852,0.8735
442.026,139.984,0.02107047,-3.16019,0.8731
442.726,140.216,0.01742129,-3.16246,0.8727
443.426,140.447,0.02176818,-3.16379,0.8723
444.126,140.679,0.02170527,-3.16509,0.87189
444.826,140.91,0.02265768,-3.16446,0.87149
445.526,141.143,0.02209829,-3.16707,0.87109
446.226,141.375,0.02254163,-3.16694,0.87068
446.926,141.606,0.02284769,-3.16939,0.87028
447.626,141.837,0.02282859,-3.16938,0.86987
448.326,142.069,0.02352636,-3.17188,0.86947
449.026,142.301,0.02307309,-3.17066,0.86906
449.726,142.533,0.02521107,-3.17332,0.86865
450.426,142.765,0.02639002,-3.17326,0.86825
451.126,142.997,0.02743641,-3.17533,0.86784
451.826,143.229,0.02682805,-3.17466,0.86743
452.526,143.461,0.02569561,-3.17661,0.86702
453.226,143.693,0.02411369,-3.17648,0.86661
453.926,143.926,0.02878896,-3.17934,0.8662
454.626,144.158,0.03254282,-3.17859,0.86579
455.326,144.389,0.03673956,-3.17879,0.86537
456.026,144.621,0.03706706,-3.18131,0.86496
456.726,144.853,0.03952439,-3.18258,0.86455
457.426,145.084,0.03993235,-3.18322,0.86413
458.126,145.316,0.04027292,-3.18319,0.86372
458.826,145.548,0.04226287,-3.18384,0.8633
459.526,145.781,0.04326217,-3.18616,0.86289
460.226,146.014,0.04377352,-3.18704,0.86247
460.926,146.246,0.04023089,-3.18715,0.86205
461.626,146.479,0.04225449,-3.18869,0.86164
462.326,146.711,0.03909976,-3.18945,0.86122
463.026,146.9432,0.04135244,-3.18978,0.8608
463.726,147.176,0.04106938,-3.19044,0.86038
464.426,147.409,0.04102494,-3.19174,0.85996
465.126,147.641,0.04168978,-3.19274,0.85954
465.826,147.874,0.04172101,-3.19339,0.85912
466.526,148.107,0.04406246,-3.19333,0.8587
467.226,148.34,0.04547126,-3.19567,0.85827
467.926,148.573,0.04692846,-3.19471,0.85785
468.626,148.805,0.04770679,-3.19581,0.85743
469.326,149.036,0.04897433,-3.19676,0.857
470.026,149.267,0.04942306,-3.198,0.85658
470.726,149.497,0.05117564,-3.20072,0.85615
471.426,149.727,0.04839365,-3.20078,0.85573
472.126,149.959,0.0489226,-3.19963,0.8553
472.826,150.191,0.04860123,-3.20299,0.85487
473.526,150.4227,0.04549955,-3.20173,0.85444
474.226,150.655,0.04817584,-3.20294,0.85401
474.926,150.887,0.04680358,-3.20426,0.85359
475.626,151.119,0.04688708,-3.20459,0.85316
476.326,151.351,0.04747797,-3.20524,0.85272
477.026,151.583,0.04517008,-3.20492,0.85229
477.726,151.815,0.04423509,-3.20689,0.85186
478.426,152.048,0.04173747,-3.20688,0.85143
479.126,152.281,0.04067123,-3.20821,0.851
479.826,152.514,0.03496874,-3.20886,0.85056
480.526,152.747,0.03594398,-3.20881,0.85013
481.226,152.982,0.03272542,-3.20915,0.84969
481.926,153.217,0.02979736,-3.21183,0.84926
482.626,153.451,0.03018565,-3.21219,0.84882
483.326,153.686,0.02817631,-3.21116,0.84838
484.026,153.919,0.0301801,-3.21315,0.84795
484.726,154.153,0.02908868,-3.21313,0.84751
485.426,154.385,0.02856257,-3.2138,0.84707
486.126,154.617,0.02720456,-3.21644,0.84663
486.826,154.849,0.02759871,-3.21641,0.84619
487.526,155.08,0.02594702,-3.21605,0.84575
488.226,155.312,0.02676777,-3.21814,0.84531
488.926,155.544,0.0268393,-3.21937,0.84487
489.626,155.778,0.02395502,-3.21972,0.84442
490.326,156.011,0.02567857,-3.21938,0.84398
491.026,156.245,0.02389128,-3.2207,0.84354
491.726,156.4783,0.02115392,-3.22103,0.84309
492.426,156.711,0.02097923,-3.22334,0.84265
493.126,156.9426,0.02156344,-3.22429,0.8422
493.826,157.174,0.02175865,-3.22405,0.84175
494.526,157.4055,0.02259783,-3.22532,0.84131
495.226,157.638,0.02278887,-3.22532,0.84086
495.926,157.872,0.01995947,-3.22604,0.84041
496.626,158.105,0.01921568,-3.22541,0.83996
497.326,158.337,0.01870071,-3.22645,0.83951
498.026,158.5705,0.01712524,-3.2272,0.83906
498.726,158.804,0.00999428,-3.22855,0.83861
499.426,159.038,0.007838556,-3.22992,0.83816
500.126,159.2731,0.00689054,-3.22986,0.83771
500.826,159.508,0.00725231,-3.2314,0.83725
501.526,159.742,0.004404947,-3.23235,0.8368
502.226,159.975,0.0080057,-3.23359,0.83635
502.926,160.206,0.008810208,-3.23344,0.83589
503.626,160.437,0.008227085,-3.23422,0.83544
504.326,160.668,0.008353049,-3.23427,0.83498
505.026,160.898,0.0100939,-3.23506,0.83452
505.726,161.128,0.008244975,-3.2365,0.83407
506.426,161.36,0.009113465,-3.23651,0.83361
507.126,161.592,0.007862693,-3.23651,0.83315
507.826,161.8252,0.009419387,-3.23651,0.83269
508.526,162.058,0.00459708,-3.23651,0.83223
509.226,162.293,0.003994556,-3.23782,0.83177
509.926,162.526,0.00285272,-3.23782,0.83131
510.626,162.7609,0.003635109,-3.23914,0.83085
511.326,162.995,0.005427385,-3.23914,0.83038
512.026,163.229,0.00620335,-3.23987,0.82992
512.726,163.463,0.009619445,-3.24144,0.82946
513.426,163.697,0.004739854,-3.24144,0.82899
514.126,163.931,0.00425902,-3.24182,0.82853
514.826,164.1641,0.01025166,-3.24176,0.82806
515.526,164.3982,0.008938805,-3.24308,0.82759
516.226,164.633,0.008453898,-3.24407,0.82713
516.926,164.869,0.008458347,-3.24506,0.82666
517.626,165.104,0.00521751,-3.24671,0.82619
518.326,165.339,0.006667231,-3.24802,0.82572
519.026,165.573,0.005619145,-3.24849,0.82525
519.726,165.807,0.00733988,-3.2487,0.82478
520.426,166.039,0.006125949,-3.24791,0.82431
521.126,166.272,0.006476616,-3.24841,0.82384
521.826,166.507,0.007340054,-3.24966,0.82336
522.526,166.741,0.005469636,-3.24934,0.82289
523.226,166.976,0.006016166,-3.24937,0.82242
523.926,167.209,0.00348059,-3.25168,0.82194
524.626,167.441,0.003986048,-3.25197,0.82147
525.326,167.674,0.003931052,-3.25326,0.82099
526.026,167.908,0.004491545,-3.25198,0.82052
526.726,168.1433,0.003456252,-3.25459,0.82004
527.426,168.379,0.00218556,-3.25467,0.81956
528.126,168.615,0.000446313,-3.25527,0.81908
528.826,168.852,0.0060665,-3.25593,0.8186
529.526,169.089,0.00128382,-3.25719,0.81812
530.226,169.325,0.00110574,-3.25592,0.81764
530.926,169.56,0.001370004,-3.25851,0.81716
531.626,169.795,0.000195612,-3.25891,0.81668
532.326,170.0278,0.002536867,-3.25857,0.8162
533.026,170.26,0.004291341,-3.25986,0.81571
533.726,170.492,0.000843864,-3.26119,0.81523
534.426,170.724,0.002540255,-3.26173,0.81475
535.126,170.956,0.0036748,-3.26215,0.81426
535.826,171.188,0.0013398,-3.26153,0.81378
536.526,171.421,0.000320443,-3.26316,0.81329
537.226,171.654,0.0006513448,-3.26315,0.8128
537.926,171.888,0.001337627,-3.26512,0.81231
538.626,172.123,-5.78159e-05,-3.2648,0.81183
539.326,172.359,0.0005374892,-3.26415,0.81134
540.026,172.594,0.0008421742,-3.26663,0.81085
540.726,172.828,0.002297574,-3.26646,0.81036
541.426,173.061,0.003912383,-3.26682,0.80987
542.126,173.294,0.001210541,-3.26648,0.80937
542.826,173.528,0.002342186,-3.26776,0.80888
543.526,173.763,0.00320105,-3.26909,0.80839
544.226,174,0.003971459,-3.26842,0.8079
544.926,174.237,0.002058139,-3.26777,0.8074
545.626,174.474,0.00227028,-3.27045,0.80691
546.326,174.708,0.0046229,-3.26973,0.80641
547.026,174.942,0.002148131,-3.27105,0.80591
547.726,175.174,0.00672592,-3.27,0.80542
548.426,175.407,0.003509378,-3.27205,0.80492
549.126,175.6402,0.00594876,-3.27333,0.80442
549.826,175.874,0.00520041,-3.27235,0.80392
550.526,176.107,0.005266964,-3.27435,0.80342
551.226,176.341,0.00498574,-3.27325,0.80292
551.926,176.575,0.006541085,-3.2755,0.80242
552.626,176.8101,0.007581888,-3.27631,0.80192
553.326,177.044,0.004495405,-3.27763,0.80142
554.026,177.278,0.00578156,-3.27659,0.80091
554.726,177.512,0.00647496,-3.27715,0.80041
555.426,177.747,0.006619004,-3.27796,0.79991
556.126,177.981,0.00300089,-3.27895,0.7994
556.826,178.215,0.00534129,-3.27928,0.7989
557.526,178.449,0.00820865,-3.2796,0.79839
558.226,178.684,0.007664319,-3.28092,0.79788
558.926,178.92,0.008231174,-3.28074,0.79738
559.626,179.155,0.008181337,-3.28154,0.79687
560.326,179.389,0.007352994,-3.28094,0.79636
561.026,179.624,0.008355024,-3.28214,0.79585
561.726,179.858,0.007725033,-3.28369,0.79534
562.426,180.093,0.00809351,-3.28356,0.79483
563.126,180.328,0.00642209,-3.28293,0.79432
563.826,180.563,0.00630971,-3.28424,0.7938
564.526,180.798,0.009787674,-3.28483,0.79329
565.226,181.035,0.008967499,-3.28587,0.79278
565.926,181.2712,0.008832018,-3.28719,0.79226
566.626,181.508,0.00650494,-3.28652,0.79175
567.326,181.744,0.00662985,-3.28785,0.79123
568.026,181.979,0.008363239,-3.28903,0.79072
568.726,182.214,0.00662482,-3.28817,0.7902
569.426,182.448,0.00748463,-3.28817,0.78968
570.126,182.681,0.006566959,-3.28948,0.78916
570.826,182.914,0.00975569,-3.28982,0.78865
571.526,183.147,0.01035544,-3.28981,0.78813
572.226,183.381,0.00930866,-3.29136,0.78761
572.926,183.616,0.01080715,-3.29113,0.78709
573.626,183.853,0.008937405,-3.29113,0.78656
574.326,184.089,0.01113238,-3.29251,0.78604
575.026,184.325,0.01034135,-3.29145,0.78552
575.726,184.562,0.01026998,-3.29138,0.785
576.426,184.797,0.009881975,-3.29272,0.78447
577.126,185.032,0.01156131,-3.29508,0.78395
577.826,185.267,0.01181194,-3.29409,0.78342
578.526,185.501,0.01437241,-3.29408,0.7829
579.226,185.737,0.01567055,-3.29669,0.78237
579.926,185.972,0.01438108,-3.29574,0.78184
580.626,186.207,0.01145577,-3.29729,0.78131
581.326,186.442,0.01258737,-3.29758,0.78078
582.026,186.676,0.01621521,-3.29673,0.78025
582.726,186.91,0.01551822,-3.29834,0.77972
583.426,187.144,0.01335859,-3.29749,0.77919
584.126,187.3778,0.01880072,-3.29813,0.77866
584.826,187.611,0.01574177,-3.2987,0.77813
585.526,187.844,0.01806329,-3.29869,0.7776
586.226,188.078,0.01511577,-3.2987,0.77706
586.926,188.312,0.01731739,-3.30109,0.77653
587.626,188.547,0.01677524,-3.30217,0.776
588.326,188.781,0.01629407,-3.30225,0.77546
589.026,189.016,0.01633234,-3.30133,0.77492
589.726,189.251,0.01769116,-3.30166,0.77439
590.426,189.4863,0.015719,-3.30298,0.77385
591.126,189.721,0.01593087,-3.30343,0.77331
591.826,189.956,0.01830342,-3.30301,0.77277
592.526,190.192,0.01689689,-3.30416,0.77224
593.226,190.428,0.01665119,-3.30429,0.7717
593.926,190.665,0.01997013,-3.30561,0.77116
594.626,190.902,0.01742417,-3.30495,0.77061
595.326,191.139,0.01801859,-3.30633,0.77007
596.026,191.376,0.01924079,-3.30561,0.76953
596.726,191.611,0.01846649,-3.30798,0.76899
597.426,191.846,0.02156729,-3.30664,0.76844
598.126,192.082,0.02063695,-3.30587,0.7679
598.826,192.317,0.02091909,-3.30758,0.76735
599.526,192.552,0.02777173,-3.30923,0.76681
600.226,192.786,0.02089964,-3.30963,0.76626
600.926,193.02,0.02270129,-3.30891,0.76571
601.626,193.2544,0.02392527,-3.30956,0.76517
602.326,193.489,0.02392485,-3.30955,0.76462
603.026,193.725,0.02518017,-3.3089,0.76407
603.726,193.961,0.02535415,-3.31026,0.76352
604.426,194.197,0.02640225,-3.31152,0.76297
605.126,194.433,0.02699334,-3.3089,0.76242
605.826,194.669,0.02875372,-3.3112,0.76187
606.526,194.905,0.02805217,-3.30989,0.76132
607.226,195.142,0.02717479,-3.31252,0.76076
607.926,195.379,0.02772559,-3.31252,0.76021
608.626,195.615,0.02802435,-3.31383,0.75965
609.326,195.85,0.03011778,-3.31383,0.7591
610.026,196.085,0.02953053,-3.31416,0.75854
610.726,196.32,0.02797822,-3.31418,0.75799
611.426,196.555,0.02571765,-3.31515,0.75743
612.126,196.789,0.02422906,-3.31419,0.75687
612.826,197.023,0.02633626,-3.31548,0.75632
613.526,197.257,0.0269388,-3.31612,0.75576
614.226,197.492,0.02712822,-3.31613,0.7552
614.926,197.7274,0.02536756,-3.3163,0.75464
615.626,197.963,0.02872958,-3.31614,0.75408
616.326,198.198,0.02177305,-3.31713,0.75352
617.026,198.433,0.02707387,-3.31613,0.75296
617.726,198.6679,0.02761368,-3.31719,0.75239
618.426,198.903,0.02573081,-3.31765,0.75183
619.126,199.138,0.02655345,-3.31649,0.75127
619.826,199.375,0.02487438,-3.31779,0.7507
620.526,199.613,0.02998882,-3.32153,0.75014
621.226,199.851,0.02766235,-3.31888,0.74957
621.926,200.087,0.02833526,-3.3202,0.74901
622.626,200.322,0.02522751,-3.32156,0.74844
623.326,200.556,0.02906585,-3.32125,0.74787
624.026,200.791,0.02750389,-3.32119,0.7473
624.726,201.026,0.03137195,-3.32119,0.74673
625.426,201.262,0.02885904,-3.32118,0.74617
626.126,201.498,0.03134418,-3.32154,0.7456
626.826,201.734,0.02968461,-3.3225,0.74502
627.526,201.969,0.03027772,-3.32315,0.74445
628.226,202.205,0.02761131,-3.32382,0.74388
628.926,202.441,0.02646352,-3.32381,0.74331
629.626,202.677,0.02795664,-3.32587,0.74274
630.326,202.913,0.02811729,-3.32446,0.74216
631.026,203.149,0.02714019,-3.32481,0.74159
631.726,203.385,0.0269482,-3.32521,0.74101
632.426,203.621,0.0283784,-3.32447,0.74044
633.126,203.856,0.02727459,-3.32656,0.73986
633.826,204.093,0.02538293,-3.32779,0.73928
634.526,204.328,0.02861495,-3.32706,0.73871
635.226,204.563,0.02704549,-3.32773,0.73813
635.926,204.7989,0.02706084,-3.32777,0.73755
636.626,205.033,0.02972702,-3.32777,0.73697
637.326,205.267,0.02922934,-3.32811,0.73639
638.026,205.5,0.02690815,-3.3281,0.73581
638.726,205.734,0.02848613,-3.32877,0.73523
639.426,205.969,0.02876806,-3.33048,0.73465
640.126,206.2042,0.03139755,-3.32983,0.73407
640.826,206.44,0.03472013,-3.33073,0.73348
641.526,206.677,0.03555239,-3.33073,0.7329
642.226,206.915,0.03350073,-3.32941,0.73231
642.926,207.153,0.0316491,-3.32941,0.73173
643.626,207.39,0.0344418,-3.33028,0.73114
644.326,207.626,0.03355078,-3.33091,0.73056
645.026,207.863,0.03472297,-3.33074,0.72997
645.726,208.1,0.03189547,-3.33336,0.72938
646.426,208.336,0.0342287,-3.33286,0.7288
647.126,208.572,0.03344102,-3.33205,0.72821
647.826,208.8076,0.03223603,-3.3327,0.72762
648.526,209.043,0.02853188,-3.33402,0.72703
649.226,209.279,0.03143217,-3.3327,0.72644
649.926,209.514,0.03050987,-3.33363,0.72585
650.626,209.75,0.03203445,-3.33269,0.72526
651.326,209.985,0.02991229,-3.33345,0.72466
652.026,210.22,0.0290751,-3.33466,0.72407
652.726,210.455,0.02814381,-3.32304,0.72348
653.426,210.69,0.0300329,-3.332,0.72288
654.126,210.925,0.03258382,-3.33656,0.72229
654.826,211.16,0.03236566,-3.33787,0.72169
655.526,211.396,0.03544288,-3.33886,0.7211
656.226,211.631,0.03358053,-3.33621,0.7205
656.926,211.868,0.02883686,-3.33226,0.71991
657.626,212.105,0.03204299,-3.33587,0.71931
658.326,212.341,0.03925139,-3.34332,0.71871
659.026,212.578,0.03753083,-3.34587,0.71811
659.726,212.813,0.03171681,-3.33854,0.71751
660.426,213.047,0.03285521,-3.3382,0.71691
661.126,213.279,0.03412877,-3.33687,0.71631
661.826,213.513,0.03433247,-3.33818,0.71571
662.526,213.749,0.03355928,-3.33818,0.71511
663.226,213.986,0.03363575,-3.33721,0.71451
663.926,214.223,0.03309658,-3.33819,0.71391
664.626,214.46,0.03310094,-3.33818,0.7133
665.326,214.697,0.03491757,-3.33884,0.7127
666.026,214.933,0.03711139,-3.3395,0.71209
666.726,215.1696,0.03722161,-3.34084,0.71149
667.426,215.406,0.03914434,-3.34002,0.71088
668.126,215.642,0.03776417,-3.34148,0.71028
668.826,215.877,0.03649891,-3.34035,0.70967
669.526,216.112,0.03925952,-3.34218,0.70906
670.226,216.3459,0.04031361,-3.34179,0.70845
670.926,216.581,0.03510307,-3.34213,0.70785
671.626,216.816,0.03750452,-3.3421,0.70724
672.326,217.053,0.03820659,-3.34345,0.70663
673.026,217.293,0.03690845,-3.34305,0.70602
673.726,217.532,0.03783471,-3.34278,0.70541
674.426,217.771,0.03628013,-3.34347,0.70479
675.126,218.008,0.03417636,-3.34477,0.70418
675.826,218.245,0.03613184,-3.34307,0.70357
676.526,218.48,0.03736857,-3.34576,0.70296
677.226,218.715,0.03624453,-3.34575,0.70234
677.926,218.949,0.03771138,-3.34476,0.70173
678.626,219.184,0.03931002,-3.34543,0.70111
679.326,219.418,0.03877741,-3.34608,0.7005
680.026,219.652,0.04027576,-3.34712,0.69988
680.726,219.887,0.04098986,-3.34734,0.69927
681.426,220.125,0.04090933,-3.34773,0.69865
682.126,220.362,0.03949152,-3.3476,0.69803
682.826,220.6,0.04227846,-3.34641,0.69741
683.526,220.836,0.04198886,-3.34838,0.6968
684.226,221.073,0.04410661,-3.34932,0.69618
684.926,221.309,0.04193538,-3.34872,0.69556
685.626,221.545,0.04322881,-3.35003,0.69494
686.326,221.781,0.04290234,-3.35102,0.69432
687.026,222.017,0.04110738,-3.35069,0.69369
687.726,222.253,0.04704672,-3.34937,0.69307
688.426,222.489,0.04902283,-3.35168,0.69245
689.126,222.7259,0.04804978,-3.35101,0.69183
689.826,222.962,0.04588714,-3.35071,0.6912
690.526,223.199,0.05174324,-3.35135,0.69058
691.226,223.4368,0.04755573,-3.35299,0.68995
691.926,223.675,0.04965699,-3.35351,0.68933
692.626,223.911,0.04869681,-3.35233,0.6887
693.326,224.148,0.05089006,-3.35365,0.68808
694.026,224.384,0.04636003,-3.35232,0.68745
694.726,224.62,0.04627726,-3.35344,0.68682
695.426,224.855,0.0462752,-3.35365,0.68619
696.126,225.089,0.04875088,-3.35497,0.68557
696.826,225.323,0.04485918,-3.35496,0.68494
697.526,225.557,0.05033036,-3.35431,0.68431
698.226,225.7924,0.04777344,-3.3549,0.68368
698.926,226.029,0.04967451,-3.35563,0.68305
699.626,226.267,0.04900519,-3.35661,0.68242
700.326,226.507,0.04958833,-3.35493,0.68178
701.026,226.747,0.04729194,-3.35667,0.68115
701.726,226.986,0.04544116,-3.3559,0.68052
702.426,227.225,0.04469192,-3.35661,0.67989
703.126,227.464,0.04181426,-3.35724,0.67925
703.826,227.701,0.04250446,-3.35793,0.67862
704.526,227.937,0.04614422,-3.35661,0.67798
705.226,228.172,0.0461178,-3.35793,0.67735
705.926,228.407,0.04204971,-3.35933,0.67671
706.626,228.644,0.04371693,-3.35928,0.67608
707.326,228.88,0.04149633,-3.35859,0.67544
708.026,229.1158,0.04078444,-3.3599,0.6748
708.726,229.351,0.03398898,-3.35929,0.67416
709.426,229.586,0.03926562,-3.35825,0.67353
710.126,229.8206,0.0406902,-3.35948,0.67289
710.826,230.056,0.04251725,-3.35967,0.67225
711.526,230.291,0.04108638,-3.36089,0.67161
712.226,230.526,0.0411412,-3.3609,0.67097
712.926,230.762,0.03693194,-3.3598,0.67033
713.626,231,0.03638729,-3.36023,0.66968
714.326,231.239,0.03707407,-3.36121,0.66904
715.026,231.479,0.03551479,-3.36121,0.6684
715.726,231.717,0.03287769,-3.36024,0.66776
716.426,231.9539,0.03289158,-3.36162,0.66711
717.126,232.189,0.03058021,-3.36155,0.66647
717.826,232.424,0.03283954,-3.36075,0.66583
718.526,232.659,0.03452149,-3.36137,0.66518
719.226,232.893,0.03284234,-3.36224,0.66454
719.926,233.129,0.03103796,-3.36319,0.66389
720.626,233.3663,0.03444618,-3.36153,0.66324
721.326,233.604,0.03297279,-3.36287,0.6626
722.026,233.842,0.03486427,-3.36294,0.66195
722.726,234.078,0.0336371,-3.36482,0.6613
723.426,234.315,0.02916989,-3.36418,0.66065
724.126,234.552,0.03187705,-3.36558,0.66
724.826,234.789,0.02988152,-3.36645,0.65936
725.526,235.025,0.03165662,-3.3655,0.65871
726.226,235.2614,0.0281545,-3.36547,0.65806
726.926,235.497,0.02423813,-3.36582,0.6574
727.626,235.732,0.02540675,-3.36485,0.65675
728.326,235.967,0.02648004,-3.36615,0.6561
729.026,236.202,0.02281842,-3.36628,0.65545
729.726,236.438,0.02535146,-3.36747,0.6548
730.426,236.675,0.0290055,-3.36616,0.65414
731.126,236.913,0.02619918,-3.3678,0.65349
731.826,237.153,0.0226589,-3.36663,0.65284
732.526,237.393,0.01840174,-3.36648,0.65218
733.226,237.6317,0.01885458,-3.36919,0.65153
733.926,237.87,0.01876743,-3.3691,0.65087
734.626,238.108,0.02375868,-3.36844,0.65022
735.326,238.3462,0.01674598,-3.36846,0.64956
736.026,238.583,0.01572123,-3.36846,0.6489
736.726,238.8189,0.01054723,-3.36846,0.64825
737.426,239.056,0.0126345,-3.36808,0.64759
738.126,239.295,0.01335267,-3.36945,0.64693
738.826,239.534,0.01059996,-3.36911,0.64627
739.526,239.773,0.00581814,-3.36879,0.64561
740.226,240.0102,0.007625523,-3.36977,0.64495
740.926,240.247,0.00664987,-3.36982,0.64429
741.626,240.485,0.00552644,-3.36944,0.64363
742.326,240.721,0.002930921,-3.36944,0.64297
743.026,240.958,0.004889455,-3.36944,0.64231
743.726,241.195,0.00681479,-3.37041,0.64165
744.426,241.433,0.003850913,-3.37109,0.64099
745.126,241.672,0.001008165,-3.37036,0.64033
745.826,241.91,-0.000150558,-3.37044,0.63966
746.526,242.148,-0.00365536,-3.37109,0.639
747.226,242.385,-0.001330998,-3.37044,0.63833
747.926,242.62,-0.004957404,-3.37044,0.63767
748.626,242.856,-0.005720372,-3.37142,0.63701
749.326,243.093,-0.009103686,-3.37142,0.63634
750.026,243.3309,-0.004589236,-3.37142,0.63568