File: 01_Data/Bean_Bag_Chair_Outer_Cover/MCC/Bean_Bag_Chair_Outer_Cover_MCC_30K_min_220318_R5.txt
Sample ID:	C:\MCC\MCC Cal\Test\Bean_Bag_Chair_Outer_Cover\Bean_Bag_Chair_Outer_Cover_MCC_30K_min_220318_R5.txt
Sample Weight (mg):	4.13
Heating Rate (C/s):	0.5
Combustor Temp (C):	900
N2 Flow Rate (cc/min):	80
O2 Flow Rate (cc/min):	20
Calibration File:	C:\MCC\MCC Cal\Coeff1 JN10440_30_210304.txt.txt
T Correction Coefficients:	0	1.024463	0
Time Shift (s):	14
*
Time (s)	Temperature (C)	N2 flow rate (cc/min)	O2 flow rate (cc/min)	Flow Rate (cc/min)	Oxygen (%)	HRR (W/g)	Heating rate (C/s)
0.000	110.772	80.005	19.993	103.738	20.095	0.152	-0.006
2.000	110.756	80.004	19.995	103.740	20.092	0.377	0.016
4.000	110.761	80.005	19.993	103.748	20.096	0.030	0.000
6.000	110.745	80.006	19.995	103.741	20.095	0.145	0.008
8.000	110.760	80.006	19.993	103.753	20.093	0.275	-0.002
10.001	110.745	80.006	19.994	103.779	20.089	0.562	0.017
12.001	110.734	80.006	19.994	103.808	20.086	0.848	-0.002
14.000	110.763	80.005	19.992	103.841	20.080	1.287	0.021
16.000	110.843	80.007	19.993	103.856	20.076	1.617	0.023
18.000	110.936	80.006	19.993	103.870	20.074	1.756	0.042
20.000	111.008	80.004	19.993	103.887	20.070	2.073	0.030
22.000	111.154	80.003	19.994	103.893	20.068	2.266	0.052
24.000	111.335	80.002	19.994	103.902	20.063	2.624	0.085
26.000	111.487	80.002	19.994	103.926	20.061	2.774	0.117
28.000	111.684	80.003	19.994	103.936	20.056	3.173	0.091
30.000	111.956	80.002	19.994	103.938	20.054	3.355	0.150
32.000	112.202	80.003	19.994	103.948	20.054	3.321	0.150
34.000	112.518	80.003	19.994	103.940	20.054	3.330	0.169
36.000	112.861	80.002	19.993	103.952	20.051	3.537	0.167
38.000	113.218	80.003	19.994	103.941	20.052	3.467	0.197
40.000	113.589	80.003	19.994	103.934	20.053	3.385	0.212
42.000	113.958	80.004	19.994	103.934	20.052	3.463	0.200
44.001	114.376	80.005	19.994	103.936	20.054	3.328	0.201
46.001	114.778	80.004	19.994	103.959	20.055	3.252	0.216
48.000	115.271	80.004	19.994	103.971	20.054	3.376	0.248
50.000	115.715	80.004	19.994	103.972	20.051	3.606	0.230
52.001	116.242	80.002	19.995	103.971	20.051	3.563	0.259
54.000	116.791	80.003	19.996	103.974	20.049	3.706	0.298
56.000	117.316	80.002	19.995	103.971	20.046	3.992	0.286
58.001	117.881	80.003	19.995	103.970	20.044	4.118	0.304
60.000	118.487	80.004	19.995	103.970	20.047	3.882	0.295
62.000	119.070	80.003	19.995	103.968	20.049	3.730	0.303
64.001	119.700	80.004	19.996	103.968	20.047	3.893	0.318
66.000	120.310	80.004	19.994	103.968	20.043	4.193	0.341
68.000	120.924	80.005	19.995	103.964	20.048	3.812	0.322
70.000	121.595	80.006	19.995	103.968	20.047	3.880	0.322
72.001	122.255	80.006	19.995	103.970	20.047	3.882	0.340
74.000	122.944	80.006	19.994	103.968	20.047	3.875	0.347
76.002	123.642	80.004	19.994	103.978	20.051	3.598	0.381
78.001	124.315	80.004	19.993	103.987	20.048	3.826	0.344
80.001	125.020	80.005	19.992	103.973	20.049	3.756	0.341
82.001	125.786	80.004	19.993	103.986	20.044	4.127	0.365
84.001	126.550	80.005	19.993	103.975	20.043	4.243	0.389
86.000	127.275	80.005	19.994	103.974	20.043	4.195	0.346
88.000	127.983	80.005	19.994	103.983	20.044	4.152	0.383
90.000	128.814	80.004	19.994	103.991	20.048	3.842	0.393
92.000	129.566	80.006	19.993	103.983	20.041	4.379	0.384
94.000	130.354	80.007	19.993	103.976	20.039	4.480	0.368
96.000	131.131	80.006	19.993	103.978	20.039	4.506	0.413
98.000	131.958	80.004	19.993	103.987	20.040	4.404	0.426
100.000	132.786	80.004	19.993	104.004	20.042	4.283	0.395
102.000	133.559	80.005	19.994	103.992	20.041	4.330	0.408
104.000	134.427	80.004	19.992	103.987	20.040	4.403	0.405
106.001	135.259	80.003	19.995	104.007	20.042	4.277	0.367
108.000	136.135	80.003	19.994	104.001	20.042	4.274	0.446
110.001	137.033	80.005	19.993	103.994	20.042	4.303	0.461
112.000	137.886	80.004	19.994	104.003	20.041	4.393	0.416
114.000	138.848	80.004	19.994	103.987	20.038	4.564	0.487
116.000	139.705	80.004	19.994	103.981	20.043	4.180	0.460
118.000	140.634	80.004	19.994	103.985	20.042	4.281	0.467
120.000	141.509	80.004	19.993	103.988	20.046	3.945	0.426
122.000	142.442	80.003	19.994	103.980	20.042	4.260	0.456
124.001	143.399	80.004	19.994	103.992	20.042	4.245	0.474
126.001	144.318	80.004	19.994	103.983	20.042	4.295	0.466
128.000	145.276	80.002	19.995	103.982	20.041	4.364	0.470
130.000	146.241	80.003	19.995	103.966	20.041	4.370	0.484
132.000	147.160	80.003	19.994	103.969	20.043	4.231	0.436
134.000	148.137	80.004	19.993	103.971	20.044	4.134	0.504
136.000	149.079	80.004	19.994	103.973	20.044	4.147	0.441
138.000	150.017	80.003	19.994	103.977	20.044	4.153	0.443
140.000	150.981	80.003	19.994	103.972	20.045	4.058	0.453
142.000	151.926	80.003	19.994	103.971	20.043	4.242	0.487
144.000	152.880	80.003	19.994	103.972	20.038	4.559	0.469
146.000	153.828	80.004	19.995	103.973	20.040	4.420	0.460
148.001	154.759	80.004	19.994	103.972	20.044	4.101	0.502
150.000	155.763	80.005	19.995	103.972	20.041	4.346	0.478
152.000	156.700	80.005	19.995	103.971	20.043	4.231	0.477
154.000	157.722	80.004	19.994	103.972	20.045	4.012	0.507
156.000	158.674	80.003	19.994	103.971	20.043	4.236	0.503
158.000	159.640	80.004	19.995	103.972	20.041	4.396	0.461
160.000	160.627	80.002	19.995	103.972	20.043	4.210	0.519
162.000	161.634	80.003	19.995	103.968	20.045	4.062	0.496
164.000	162.587	80.003	19.994	103.971	20.042	4.255	0.479
166.000	163.613	80.006	19.994	103.974	20.044	4.096	0.497
168.000	164.652	80.005	19.995	103.971	20.043	4.168	0.531
170.000	165.576	80.005	19.993	103.972	20.043	4.220	0.464
172.000	166.613	80.006	19.993	103.972	20.047	3.923	0.509
174.000	167.585	80.006	19.993	103.968	20.044	4.139	0.485
176.000	168.569	80.008	19.994	103.963	20.043	4.178	0.489
178.000	169.585	80.006	19.993	103.954	20.046	4.004	0.510
180.000	170.602	80.006	19.993	103.949	20.046	3.994	0.506
182.000	171.564	80.006	19.994	103.959	20.045	4.009	0.492
184.000	172.588	80.005	19.993	103.952	20.047	3.916	0.502
186.000	173.598	80.004	19.994	103.960	20.045	4.046	0.549
188.000	174.566	80.005	19.993	103.940	20.045	4.007	0.477
190.000	175.555	80.004	19.994	103.942	20.046	3.935	0.469
192.000	176.594	80.004	19.994	103.938	20.046	3.998	0.516
194.000	177.596	80.004	19.994	103.956	20.049	3.737	0.522
196.000	178.564	80.004	19.994	103.946	20.045	4.076	0.485
198.000	179.530	80.003	19.994	103.955	20.044	4.156	0.447
200.000	180.521	80.005	19.994	103.942	20.045	4.024	0.485
202.000	181.546	80.006	19.995	103.939	20.044	4.108	0.489
204.000	182.604	80.005	19.993	103.938	20.047	3.924	0.513
206.000	183.582	80.004	19.994	103.935	20.049	3.716	0.502
208.000	184.576	80.004	19.993	103.947	20.047	3.889	0.497
210.000	185.593	80.005	19.993	103.936	20.049	3.709	0.521
212.000	186.584	80.003	19.994	103.934	20.047	3.907	0.504
214.000	187.574	80.004	19.993	103.936	20.047	3.915	0.522
216.000	188.603	80.003	19.993	103.939	20.046	3.959	0.490
218.000	189.639	80.003	19.994	103.936	20.043	4.189	0.503
220.000	190.631	80.004	19.994	103.933	20.047	3.909	0.506
222.000	191.615	80.003	19.994	103.934	20.044	4.137	0.475
224.000	192.596	80.002	19.995	103.936	20.048	3.779	0.494
226.000	193.592	80.003	19.995	103.932	20.044	4.152	0.490
228.000	194.580	80.005	19.993	103.932	20.047	3.867	0.503
230.000	195.551	80.005	19.994	103.933	20.045	4.010	0.484
232.000	196.533	80.005	19.995	103.932	20.053	3.433	0.502
234.000	197.523	80.006	19.994	103.937	20.047	3.891	0.509
236.000	198.517	80.006	19.994	103.936	20.050	3.678	0.485
238.000	199.522	80.005	19.993	103.936	20.052	3.529	0.524
240.000	200.496	80.004	19.995	103.928	20.051	3.602	0.474
242.000	201.530	80.004	19.995	103.929	20.052	3.485	0.492
244.000	202.494	80.004	19.994	103.922	20.048	3.832	0.512
246.000	203.533	80.004	19.994	103.928	20.055	3.223	0.516
248.000	204.486	80.005	19.994	103.928	20.049	3.694	0.449
250.000	205.542	80.006	19.994	103.924	20.054	3.314	0.528
252.001	206.489	80.004	19.995	103.917	20.051	3.555	0.489
254.000	207.495	80.005	19.995	103.924	20.049	3.704	0.477
256.001	208.502	80.006	19.994	103.926	20.053	3.424	0.484
258.000	209.477	80.005	19.995	103.924	20.049	3.743	0.469
260.000	210.451	80.005	19.995	103.926	20.053	3.448	0.477
262.000	211.475	80.005	19.994	103.924	20.050	3.646	0.523
264.000	212.481	80.006	19.994	103.924	20.050	3.635	0.515
266.000	213.410	80.005	19.994	103.917	20.053	3.383	0.471
268.001	214.389	80.005	19.993	103.918	20.050	3.624	0.486
270.000	215.352	80.004	19.994	103.922	20.053	3.381	0.465
272.000	216.337	80.003	19.992	103.922	20.052	3.494	0.510
274.000	217.298	80.004	19.993	103.931	20.051	3.565	0.495
276.000	218.285	80.004	19.994	103.924	20.049	3.735	0.480
278.000	219.258	80.005	19.994	103.922	20.052	3.507	0.495
280.000	220.242	80.004	19.994	103.911	20.054	3.370	0.493
282.000	221.223	80.004	19.993	103.929	20.051	3.578	0.502
284.000	222.185	80.004	19.993	103.913	20.053	3.390	0.502
286.000	223.141	80.004	19.994	103.918	20.047	3.878	0.480
288.000	224.155	80.003	19.993	103.930	20.048	3.802	0.482
290.000	225.156	80.003	19.994	103.932	20.046	3.954	0.496
292.000	226.138	80.003	19.994	103.926	20.046	3.976	0.498
294.000	227.097	80.003	19.994	103.924	20.044	4.136	0.487
296.000	228.103	80.003	19.993	103.932	20.048	3.832	0.486
298.000	229.128	80.004	19.993	103.931	20.047	3.900	0.521
300.000	230.088	80.004	19.993	103.934	20.046	3.939	0.475
302.000	231.104	80.004	19.994	103.926	20.049	3.751	0.504
304.000	232.083	80.004	19.994	103.928	20.049	3.763	0.508
306.000	233.073	80.004	19.994	103.923	20.048	3.769	0.512
308.000	234.031	80.004	19.994	103.922	20.048	3.771	0.526
310.001	235.041	80.004	19.994	103.928	20.048	3.771	0.495
312.000	236.024	80.005	19.994	103.917	20.045	4.042	0.511
314.000	237.024	80.006	19.993	103.914	20.044	4.112	0.504
316.000	238.021	80.005	19.993	103.919	20.044	4.086	0.517
318.000	238.980	80.005	19.995	103.914	20.043	4.164	0.487
320.000	239.978	80.005	19.995	103.919	20.046	3.992	0.479
322.000	240.982	80.006	19.994	103.899	20.041	4.329	0.505
324.000	241.946	80.005	19.995	103.919	20.042	4.249	0.459
326.000	242.928	80.006	19.994	103.925	20.040	4.435	0.523
328.000	243.943	80.004	19.994	103.922	20.042	4.272	0.486
330.000	244.900	80.005	19.994	103.908	20.043	4.220	0.454
332.000	245.905	80.004	19.994	103.907	20.043	4.173	0.470
334.000	246.922	80.004	19.993	103.919	20.041	4.368	0.521
336.000	247.880	80.005	19.994	103.916	20.043	4.240	0.457
338.000	248.903	80.005	19.994	103.909	20.039	4.489	0.504
340.000	249.917	80.005	19.993	103.915	20.038	4.631	0.487
342.000	250.951	80.006	19.993	103.906	20.039	4.530	0.515
344.000	251.971	80.006	19.994	103.913	20.037	4.704	0.518
346.000	252.902	80.005	19.994	103.919	20.034	4.900	0.486
348.000	253.948	80.003	19.995	103.912	20.036	4.767	0.494
350.000	254.901	80.003	19.996	103.906	20.033	5.004	0.492
352.000	255.890	80.002	19.997	103.908	20.034	4.886	0.519
354.000	256.882	80.002	19.995	103.905	20.032	5.053	0.491
356.000	257.878	80.002	19.994	103.907	20.033	4.999	0.505
358.000	258.836	80.003	19.994	103.916	20.035	4.858	0.477
360.000	259.807	80.003	19.994	103.914	20.036	4.721	0.486
362.000	260.764	80.003	19.994	103.902	20.037	4.679	0.487
364.000	261.754	80.004	19.994	103.898	20.032	5.050	0.498
366.000	262.742	80.004	19.994	103.895	20.031	5.160	0.499
368.000	263.697	80.003	19.993	103.906	20.030	5.186	0.488
370.000	264.699	80.005	19.995	103.905	20.030	5.212	0.498
372.000	265.704	80.005	19.994	103.915	20.026	5.511	0.493
374.000	266.688	80.003	19.995	103.927	20.025	5.645	0.488
376.000	267.666	80.003	19.993	103.919	20.026	5.559	0.475
378.000	268.663	80.003	19.994	103.916	20.024	5.704	0.485
380.000	269.664	80.004	19.994	103.911	20.021	5.960	0.506
382.001	270.673	80.003	19.993	103.913	20.022	5.855	0.511
384.000	271.665	80.004	19.994	103.906	20.023	5.736	0.493
386.000	272.637	80.004	19.994	103.907	20.023	5.798	0.465
388.000	273.615	80.004	19.994	103.911	20.021	5.947	0.467
390.000	274.600	80.005	19.995	103.912	20.017	6.247	0.488
392.000	275.589	80.006	19.994	103.907	20.013	6.562	0.478
394.000	276.619	80.006	19.994	103.926	20.018	6.168	0.486
396.000	277.602	80.006	19.993	103.925	20.014	6.462	0.518
398.000	278.626	80.006	19.993	103.908	20.015	6.417	0.489
400.000	279.579	80.007	19.996	103.916	20.017	6.271	0.479
402.000	280.577	80.006	19.995	103.920	20.008	6.954	0.479
404.000	281.559	80.006	19.993	103.916	20.012	6.651	0.495
406.000	282.523	80.005	19.994	103.912	20.006	7.080	0.476
408.000	283.553	80.006	19.994	103.926	20.007	7.035	0.507
410.000	284.525	80.004	19.996	103.920	20.000	7.570	0.491
412.000	285.494	80.005	19.994	103.899	19.999	7.671	0.484
414.000	286.507	80.003	19.994	103.917	19.997	7.839	0.486
416.000	287.423	80.006	19.995	103.923	19.996	7.902	0.464
418.000	288.397	80.005	19.994	103.904	19.993	8.101	0.488
420.000	289.376	80.006	19.994	103.925	19.990	8.356	0.471
422.000	290.397	80.005	19.994	103.928	19.989	8.477	0.519
424.000	291.365	80.005	19.994	103.928	19.986	8.679	0.498
426.000	292.374	80.005	19.992	103.930	19.982	8.993	0.501
428.000	293.336	80.005	19.993	103.924	19.980	9.128	0.457
430.000	294.383	80.005	19.994	103.926	19.977	9.356	0.536
432.000	295.352	80.005	19.995	103.933	19.972	9.764	0.510
434.000	296.393	80.004	19.995	103.933	19.970	9.911	0.523
436.000	297.324	80.004	19.994	103.931	19.962	10.573	0.462
438.000	298.317	80.004	19.994	103.931	19.960	10.692	0.506
440.000	299.311	80.005	19.995	103.934	19.959	10.838	0.478
442.000	300.306	80.003	19.995	103.937	19.951	11.393	0.503
444.000	301.312	80.002	19.997	103.929	19.947	11.760	0.484
446.000	302.310	80.002	19.996	103.930	19.943	12.063	0.472
448.000	303.314	80.005	19.995	103.933	19.936	12.629	0.507
450.000	304.257	80.004	19.995	103.951	19.932	12.928	0.484
452.000	305.266	80.005	19.996	103.939	19.926	13.366	0.511
454.000	306.264	80.005	19.995	103.944	19.920	13.840	0.482
456.000	307.239	80.004	19.994	103.944	19.918	14.027	0.489
458.000	308.236	80.005	19.996	103.960	19.906	14.945	0.501
460.000	309.271	80.005	19.994	103.950	19.902	15.270	0.528
462.000	310.253	80.004	19.994	103.956	19.894	15.929	0.491
464.000	311.236	80.005	19.994	103.966	19.888	16.390	0.508
466.000	312.258	80.005	19.994	103.970	19.880	17.023	0.535
468.000	313.221	80.004	19.994	103.971	19.866	18.085	0.508
470.000	314.253	80.004	19.994	103.975	19.860	18.621	0.500
472.000	315.249	80.004	19.994	103.983	19.852	19.249	0.521
474.000	316.206	80.004	19.995	104.000	19.844	19.838	0.509
476.000	317.173	80.005	19.994	103.998	19.833	20.711	0.485
478.000	318.205	80.006	19.994	104.001	19.822	21.580	0.511
480.000	319.212	80.006	19.994	104.007	19.808	22.713	0.506
482.000	320.190	80.005	19.993	104.006	19.796	23.643	0.502
484.000	321.232	80.004	19.994	104.011	19.781	24.824	0.537
486.000	322.251	80.006	19.993	104.012	19.771	25.594	0.536
488.000	323.282	80.004	19.994	104.027	19.753	26.993	0.495
490.000	324.319	80.004	19.993	104.043	19.739	28.088	0.556
492.000	325.322	80.004	19.993	104.048	19.725	29.231	0.507
494.000	326.371	80.004	19.993	104.049	19.706	30.676	0.510
496.000	327.379	80.005	19.993	104.064	19.688	32.152	0.478
498.000	328.395	80.006	19.993	104.079	19.668	33.664	0.510
500.000	329.473	80.007	19.995	104.072	19.653	34.874	0.570
502.000	330.452	80.007	19.994	104.086	19.628	36.865	0.469
504.000	331.475	80.008	19.994	104.086	19.601	38.954	0.517
506.001	332.463	80.007	19.994	104.085	19.574	41.120	0.494
508.000	333.526	80.006	19.994	104.092	19.551	42.964	0.546
510.000	334.525	80.005	19.995	104.115	19.521	45.336	0.474
512.000	335.478	80.004	19.994	104.123	19.494	47.436	0.490
514.000	336.526	80.005	19.994	104.138	19.463	49.885	0.510
516.000	337.503	80.005	19.995	104.160	19.431	52.409	0.493
518.000	338.450	80.004	19.995	104.161	19.399	54.893	0.474
520.000	339.457	80.005	19.995	104.178	19.362	57.880	0.500
522.000	340.436	80.004	19.995	104.201	19.325	60.784	0.530
524.000	341.418	80.005	19.994	104.210	19.287	63.775	0.527
526.000	342.437	80.004	19.995	104.235	19.247	66.977	0.493
528.000	343.378	80.003	19.994	104.242	19.203	70.422	0.500
530.000	344.330	80.005	19.995	104.257	19.159	73.895	0.463
532.000	345.344	80.004	19.995	104.281	19.118	77.138	0.468
534.000	346.346	80.005	19.995	104.291	19.073	80.730	0.521
536.000	347.279	80.003	19.995	104.312	19.027	84.343	0.524
538.000	348.248	80.004	19.995	104.321	18.978	88.181	0.503
540.000	349.162	80.003	19.995	104.336	18.933	91.793	0.411
542.000	350.151	80.003	19.995	104.358	18.880	95.991	0.552
544.000	351.419	80.004	19.996	104.368	18.830	99.920	0.404
546.000	352.293	80.003	19.996	104.395	18.781	103.814	0.577
548.000	353.245	80.002	19.995	104.403	18.726	108.143	0.536
550.000	354.203	80.001	19.997	104.412	18.676	112.155	0.492
552.000	355.198	80.002	19.995	104.438	18.633	115.549	0.506
554.000	356.165	80.002	19.993	104.448	18.585	119.281	0.469
556.000	357.110	80.003	19.992	104.471	18.543	122.644	0.494
558.000	358.137	80.004	19.993	104.477	18.500	126.014	0.447
560.000	359.082	80.003	19.996	104.488	18.460	129.125	0.505
562.000	360.079	80.006	19.993	104.483	18.426	131.849	0.496
564.000	361.065	80.004	19.993	104.482	18.394	134.370	0.520
566.000	362.045	80.005	19.994	104.478	18.371	136.121	0.468
568.000	363.033	80.004	19.996	104.477	18.346	138.099	0.491
570.000	364.011	80.004	19.992	104.476	18.330	139.304	0.495
572.000	364.993	80.003	19.994	104.474	18.320	140.103	0.466
574.000	366.007	80.006	19.996	104.468	18.315	140.455	0.526
576.000	366.977	80.005	19.994	104.443	18.315	140.419	0.480
578.000	367.959	80.005	19.995	104.434	18.327	139.419	0.478
580.000	368.994	80.007	19.995	104.410	18.343	138.140	0.515
582.000	369.992	80.007	19.994	104.382	18.366	136.282	0.499
584.000	370.963	80.007	19.994	104.366	18.396	133.864	0.497
586.000	372.002	80.007	19.993	104.345	18.440	130.318	0.525
588.000	372.991	80.005	19.993	104.308	18.484	126.800	0.550
590.000	373.999	80.007	19.993	104.278	18.542	122.208	0.464
592.000	375.057	80.006	19.993	104.250	18.606	117.142	0.492
594.000	376.038	80.006	19.995	104.218	18.673	111.836	0.511
596.000	377.079	80.007	19.993	104.172	18.749	105.855	0.514
598.000	378.079	80.005	19.992	104.126	18.832	99.320	0.517
600.000	379.129	80.002	19.994	104.097	18.919	92.456	0.542
602.000	380.149	80.004	19.994	104.060	19.008	85.427	0.515
604.000	381.145	80.003	19.996	104.032	19.095	78.602	0.482
606.000	382.187	80.002	19.995	103.994	19.191	71.076	0.558
608.000	383.204	80.005	19.995	103.972	19.286	63.588	0.502
610.000	384.239	80.004	19.995	103.964	19.372	56.853	0.515
612.000	385.261	80.004	19.996	103.936	19.458	50.077	0.505
614.000	386.293	80.005	19.995	103.925	19.536	44.003	0.498
616.000	387.341	80.004	19.996	103.908	19.614	37.862	0.517
618.000	388.402	80.004	19.994	103.890	19.680	32.675	0.540
620.000	389.477	80.002	19.995	103.882	19.738	28.138	0.538
622.000	390.526	80.003	19.994	103.858	19.789	24.090	0.520
624.000	391.641	80.003	19.994	103.862	19.834	20.571	0.567
626.000	392.706	80.002	19.994	103.857	19.873	17.508	0.566
628.001	393.814	80.000	19.996	103.855	19.907	14.895	0.526
630.000	394.886	80.003	19.994	103.855	19.937	12.523	0.515
632.000	395.989	80.004	19.994	103.853	19.957	10.908	0.523
634.000	397.041	80.003	19.996	103.851	19.974	9.628	0.506
636.000	398.128	80.003	19.994	103.848	19.985	8.774	0.572
638.000	399.201	80.003	19.996	103.849	19.999	7.622	0.553
640.000	400.240	80.006	19.996	103.849	20.009	6.885	0.540
642.000	401.289	80.004	19.995	103.849	20.015	6.425	0.528
644.000	402.368	80.007	19.995	103.849	20.017	6.276	0.524
646.000	403.420	80.006	19.994	103.848	20.024	5.725	0.510
648.000	404.460	80.006	19.993	103.851	20.023	5.762	0.517
650.000	405.480	80.007	19.995	103.851	20.030	5.198	0.494
652.000	406.490	80.003	19.996	103.849	20.032	5.064	0.495
654.000	407.600	80.005	19.996	103.848	20.025	5.584	0.523
656.000	408.611	80.005	19.994	103.850	20.029	5.302	0.511
658.000	409.572	80.004	19.995	103.852	20.030	5.191	0.483
660.000	410.655	80.007	19.993	103.848	20.031	5.170	0.519
662.000	411.615	80.006	19.992	103.851	20.032	5.044	0.499
664.000	412.644	80.006	19.993	103.851	20.036	4.758	0.528
666.000	413.623	80.006	19.994	103.848	20.032	5.025	0.527
668.000	414.573	80.007	19.993	103.841	20.033	4.977	0.493
670.000	415.616	80.006	19.994	103.851	20.034	4.908	0.525
672.000	416.559	80.005	19.994	103.852	20.036	4.730	0.475
674.000	417.536	80.006	19.992	103.854	20.034	4.925	0.488
676.000	418.538	80.006	19.994	103.854	20.035	4.834	0.457
678.000	419.529	80.004	19.994	103.854	20.035	4.791	0.481
680.000	420.512	80.004	19.994	103.855	20.036	4.732	0.490
682.000	421.545	80.002	19.994	103.855	20.038	4.556	0.505
684.000	422.511	80.004	19.992	103.855	20.038	4.608	0.475
686.000	423.494	80.005	19.993	103.855	20.036	4.745	0.477
688.000	424.489	80.005	19.994	103.854	20.037	4.691	0.495
690.000	425.480	80.004	19.994	103.857	20.036	4.736	0.499
692.000	426.480	80.003	19.994	103.855	20.036	4.775	0.491
694.000	427.483	80.004	19.993	103.855	20.037	4.634	0.494
696.000	428.540	80.002	19.993	103.854	20.039	4.510	0.504
698.000	429.511	80.006	19.995	103.852	20.040	4.398	0.501
700.000	430.492	80.002	19.994	103.851	20.038	4.623	0.500
702.000	431.491	80.004	19.995	103.851	20.036	4.743	0.490
704.000	432.511	80.004	19.995	103.849	20.035	4.792	0.520
706.000	433.525	80.001	19.993	103.842	20.038	4.602	0.525
708.000	434.522	80.004	19.996	103.848	20.039	4.526	0.472
710.000	435.515	80.005	19.998	103.850	20.037	4.701	0.492
712.000	436.545	80.003	19.994	103.851	20.039	4.489	0.488
714.000	437.553	80.001	19.995	103.849	20.041	4.354	0.470
716.000	438.514	80.004	19.994	103.845	20.039	4.480	0.470
718.000	439.539	80.003	19.993	103.846	20.037	4.705	0.503
720.000	440.583	80.005	19.995	103.852	20.037	4.673	0.533
722.000	441.562	80.005	19.994	103.851	20.038	4.595	0.485
724.000	442.541	80.005	19.995	103.845	20.036	4.712	0.473
726.000	443.577	80.005	19.995	103.842	20.037	4.664	0.496
728.000	444.600	80.006	19.994	103.842	20.039	4.547	0.498
730.000	445.597	80.005	19.995	103.846	20.039	4.547	0.482
732.000	446.559	80.005	19.996	103.851	20.037	4.682	0.502
734.000	447.551	80.004	19.995	103.851	20.038	4.560	0.516
736.000	448.555	80.004	19.995	103.845	20.040	4.443	0.511
738.000	449.533	80.003	19.995	103.847	20.036	4.749	0.493
740.000	450.574	80.004	19.996	103.851	20.037	4.690	0.503
742.000	451.609	80.005	19.996	103.847	20.040	4.461	0.523
744.001	452.676	80.005	19.996	103.851	20.037	4.632	0.542
746.000	453.630	80.004	19.994	103.852	20.041	4.324	0.488
748.000	454.647	80.007	19.993	103.850	20.038	4.619	0.511
750.001	455.711	80.008	19.993	103.849	20.041	4.341	0.516
752.000	456.692	80.006	19.994	103.850	20.039	4.539	0.488
754.000	457.728	80.005	19.993	103.855	20.039	4.474	0.483
756.000	458.759	80.005	19.994	103.850	20.040	4.471	0.537
758.000	459.755	80.005	19.994	103.842	20.042	4.302	0.522
760.000	460.773	80.004	19.995	103.847	20.040	4.430	0.500
762.000	461.796	80.004	19.995	103.852	20.042	4.309	0.515
764.000	462.861	80.005	19.994	103.854	20.041	4.341	0.529
766.000	463.829	80.004	19.996	103.850	20.039	4.515	0.473
768.000	464.841	80.003	19.995	103.848	20.041	4.376	0.476
770.000	465.881	80.003	19.994	103.851	20.043	4.187	0.511
772.000	466.922	80.003	19.996	103.843	20.041	4.380	0.490
774.000	467.919	80.005	19.993	103.849	20.041	4.378	0.510
776.000	468.927	80.005	19.993	103.853	20.039	4.508	0.496
778.000	469.980	80.003	19.993	103.851	20.038	4.606	0.512
780.000	471.002	80.003	19.994	103.849	20.043	4.170	0.527
782.000	472.032	80.005	19.992	103.849	20.039	4.476	0.507
784.000	473.071	80.004	19.994	103.849	20.037	4.697	0.530
786.000	474.072	80.004	19.994	103.852	20.038	4.560	0.518
788.000	475.184	80.005	19.993	103.852	20.038	4.567	0.531
790.000	476.172	80.004	19.995	103.849	20.039	4.537	0.527
792.000	477.153	80.005	19.993	103.846	20.042	4.244	0.499
794.000	478.191	80.004	19.995	103.842	20.042	4.259	0.514
796.000	479.207	80.002	19.995	103.849	20.041	4.383	0.495
798.000	480.194	80.003	19.995	103.852	20.042	4.296	0.489
800.000	481.230	80.003	19.994	103.853	20.041	4.359	0.541
802.000	482.232	80.004	19.994	103.852	20.042	4.244	0.524
804.000	483.182	80.004	19.995	103.854	20.043	4.209	0.502
806.000	484.215	80.005	19.995	103.851	20.044	4.092	0.510
808.000	485.184	80.006	19.995	103.852	20.044	4.105	0.488
810.000	486.216	80.006	19.995	103.854	20.043	4.179	0.515
812.000	487.243	80.005	19.994	103.851	20.044	4.149	0.498
814.000	488.256	80.006	19.994	103.849	20.040	4.413	0.505
816.000	489.264	80.004	19.994	103.842	20.043	4.166	0.503
818.000	490.344	80.005	19.995	103.850	20.042	4.287	0.541
820.000	491.329	80.004	19.994	103.854	20.041	4.346	0.514
822.000	492.383	80.004	19.993	103.854	20.040	4.400	0.515
824.000	493.394	80.004	19.995	103.855	20.040	4.406	0.507
826.000	494.498	80.006	19.995	103.848	20.042	4.243	0.534
828.000	495.495	80.004	19.993	103.846	20.045	4.050	0.515
830.000	496.493	80.006	19.996	103.848	20.043	4.221	0.504
832.000	497.510	80.007	19.995	103.848	20.042	4.309	0.499
834.000	498.559	80.006	19.995	103.845	20.043	4.234	0.515
836.000	499.562	80.006	19.995	103.840	20.043	4.191	0.495
838.000	500.595	80.006	19.994	103.826	20.038	4.575	0.508
840.001	501.602	80.005	19.994	103.832	20.040	4.417	0.508
842.000	502.644	80.005	19.994	103.833	20.039	4.504	0.531
844.000	503.625	80.004	19.994	103.836	20.038	4.617	0.480
846.000	504.678	80.004	19.994	103.828	20.040	4.465	0.516
848.000	505.715	80.004	19.995	103.838	20.039	4.519	0.552
850.000	506.700	80.004	19.994	103.836	20.040	4.428	0.512
852.000	507.729	80.004	19.993	103.847	20.040	4.448	0.496
854.000	508.731	80.004	19.993	103.841	20.035	4.803	0.526
856.000	509.729	80.004	19.994	103.850	20.040	4.417	0.518
858.000	510.789	80.004	19.994	103.850	20.042	4.269	0.537
860.000	511.744	80.003	19.994	103.852	20.044	4.143	0.490
862.000	512.758	80.004	19.996	103.851	20.041	4.320	0.472
864.000	513.808	80.004	19.994	103.844	20.044	4.120	0.522
866.000	514.858	80.005	19.994	103.848	20.039	4.523	0.522
868.000	515.839	80.004	19.994	103.849	20.042	4.315	0.515
870.000	516.893	80.004	19.993	103.839	20.042	4.287	0.517
872.000	517.879	80.004	19.993	103.840	20.044	4.095	0.524
874.000	518.912	80.003	19.993	103.846	20.040	4.462	0.534
876.000	519.896	80.003	19.992	103.840	20.043	4.233	0.524
878.000	520.892	80.003	19.994	103.842	20.044	4.126	0.491
880.000	521.931	80.002	19.994	103.829	20.043	4.224	0.479
882.000	522.959	80.004	19.993	103.832	20.043	4.184	0.517
884.000	523.957	80.005	19.993	103.819	20.047	3.922	0.509
886.000	524.990	80.005	19.993	103.840	20.045	4.054	0.484
888.000	526.061	80.005	19.994	103.849	20.045	4.025	0.563
890.000	527.046	80.006	19.995	103.842	20.044	4.114	0.509
892.000	528.099	80.005	19.994	103.828	20.046	3.977	0.512
894.000	529.108	80.005	19.994	103.834	20.045	4.023	0.518
896.000	530.106	80.004	19.995	103.822	20.048	3.790	0.486
898.000	531.115	80.005	19.995	103.838	20.048	3.773	0.508
900.000	532.109	80.005	19.994	103.849	20.045	4.044	0.474
902.000	533.117	80.005	19.995	103.847	20.045	4.038	0.525
904.000	534.135	80.005	19.995	103.846	20.045	4.051	0.496
906.000	535.173	80.003	19.994	103.846	20.047	3.923	0.529
908.000	536.196	80.005	19.994	103.848	20.046	4.000	0.524
910.000	537.216	80.006	19.994	103.845	20.044	4.145	0.521
912.000	538.283	80.007	19.995	103.844	20.047	3.872	0.505
914.000	539.372	80.006	19.994	103.851	20.045	4.063	0.539
916.000	540.387	80.007	19.994	103.852	20.047	3.846	0.529
918.000	541.413	80.006	19.993	103.827	20.049	3.714	0.520
920.000	542.430	80.006	19.995	103.821	20.048	3.799	0.516
922.000	543.451	80.006	19.995	103.820	20.049	3.764	0.508
924.000	544.463	80.004	19.994	103.823	20.048	3.835	0.499
926.000	545.493	80.004	19.995	103.832	20.044	4.097	0.529
928.000	546.501	80.002	19.995	103.830	20.048	3.798	0.491
930.000	547.481	80.003	19.996	103.829	20.049	3.753	0.478
932.000	548.527	80.003	19.995	103.833	20.048	3.823	0.520
934.000	549.462	80.004	19.994	103.827	20.045	4.029	0.489
936.000	550.523	80.005	19.993	103.827	20.045	4.033	0.493
938.000	551.523	80.003	19.995	103.818	20.048	3.825	0.501
940.001	552.476	80.002	19.994	103.818	20.046	3.992	0.484
942.000	553.508	80.003	19.995	103.836	20.050	3.677	0.486
944.000	554.560	80.003	19.994	103.838	20.046	3.940	0.514
946.000	555.602	80.003	19.994	103.842	20.049	3.760	0.522
948.000	556.593	80.002	19.993	103.824	20.049	3.720	0.509
950.000	557.618	80.001	19.994	103.846	20.045	4.050	0.516
952.001	558.697	80.002	19.994	103.841	20.044	4.104	0.533
954.000	559.756	80.003	19.994	103.845	20.046	3.937	0.503
956.000	560.832	80.003	19.995	103.845	20.047	3.866	0.549
958.000	561.901	80.003	19.995	103.827	20.045	4.046	0.522
960.000	562.959	80.002	19.994	103.829	20.047	3.892	0.527
962.000	564.022	80.002	19.994	103.819	20.049	3.738	0.552
964.000	565.045	80.004	19.994	103.821	20.048	3.773	0.526
966.000	566.097	80.004	19.995	103.829	20.046	3.976	0.547
968.000	567.183	80.005	19.993	103.834	20.049	3.714	0.547
970.000	568.243	80.006	19.994	103.839	20.049	3.700	0.518
972.001	569.265	80.005	19.994	103.825	20.050	3.679	0.509
974.000	570.341	80.006	19.994	103.833	20.050	3.675	0.541
976.000	571.418	80.006	19.993	103.828	20.049	3.738	0.547
978.000	572.465	80.006	19.994	103.826	20.047	3.849	0.529
980.000	573.549	80.006	19.994	103.818	20.044	4.132	0.516
982.000	574.617	80.004	19.993	103.816	20.044	4.112	0.520
984.000	575.716	80.005	19.994	103.821	20.046	3.974	0.518
986.000	576.748	80.006	19.994	103.827	20.050	3.677	0.522
988.000	577.793	80.005	19.994	103.829	20.046	3.948	0.515
990.000	578.850	80.005	19.994	103.827	20.052	3.512	0.529
992.000	579.873	80.006	19.994	103.816	20.049	3.735	0.532
994.000	580.900	80.006	19.994	103.819	20.049	3.720	0.536
996.001	581.928	80.005	19.994	103.812	20.050	3.679	0.538
998.000	582.968	80.007	19.994	103.814	20.048	3.807	0.531
1000.000	583.956	80.005	19.994	103.814	20.049	3.753	0.521
1002.000	585.004	80.005	19.994	103.818	20.049	3.703	0.525
1004.000	586.008	80.005	19.995	103.817	20.048	3.785	0.512
1006.000	586.982	80.004	19.994	103.815	20.047	3.900	0.496
1008.000	588.007	80.004	19.995	103.819	20.047	3.909	0.502
1010.000	589.038	80.002	19.995	103.830	20.049	3.742	0.508
1012.000	590.027	80.004	19.995	103.834	20.048	3.783	0.523
1014.000	591.071	80.002	19.995	103.822	20.047	3.887	0.523
1016.000	592.041	80.003	19.995	103.816	20.047	3.908	0.482
1018.000	593.068	80.002	19.995	103.817	20.047	3.863	0.534
1020.000	594.102	80.003	19.995	103.820	20.045	4.023	0.509
1022.000	595.113	80.005	19.995	103.824	20.049	3.746	0.532
1024.000	596.131	80.003	19.996	103.817	20.051	3.586	0.506
1026.000	597.151	80.003	19.994	103.816	20.048	3.835	0.503
1028.000	598.122	80.003	19.996	103.813	20.048	3.777	0.497
1030.000	599.153	80.003	19.995	103.817	20.046	3.943	0.507
1032.000	600.192	80.004	19.995	103.811	20.048	3.844	0.505
1034.000	601.205	80.004	19.993	103.825	20.048	3.837	0.507
1036.000	602.283	80.004	19.993	103.823	20.051	3.568	0.541
1038.000	603.291	80.003	19.994	103.822	20.049	3.735	0.510
1040.000	604.333	80.003	19.994	103.820	20.049	3.701	0.532
1042.000	605.412	80.004	19.994	103.817	20.048	3.831	0.533
1044.000	606.464	80.004	19.995	103.826	20.049	3.740	0.549
1046.000	607.519	80.004	19.995	103.829	20.049	3.733	0.537
1048.000	608.631	80.005	19.994	103.826	20.050	3.679	0.534
1050.000	609.720	80.004	19.994	103.819	20.050	3.672	0.554
1052.000	610.791	80.006	19.994	103.827	20.050	3.677	0.531
1054.000	611.855	80.006	19.994	103.814	20.050	3.633	0.551
1056.000	612.963	80.006	19.994	103.827	20.049	3.731	0.517
1058.000	614.047	80.006	19.994	103.822	20.054	3.334	0.530
1060.000	615.128	80.004	19.994	103.812	20.055	3.219	0.539
1062.000	616.203	80.005	19.994	103.814	20.055	3.291	0.544
1064.000	617.310	80.005	19.995	103.817	20.051	3.603	0.546
1066.000	618.378	80.006	19.995	103.824	20.051	3.562	0.547
1068.000	619.409	80.005	19.993	103.820	20.051	3.568	0.526
1070.000	620.485	80.005	19.994	103.819	20.055	3.273	0.554
1072.000	621.552	80.007	19.993	103.819	20.050	3.659	0.549
1074.000	622.609	80.007	19.994	103.821	20.049	3.709	0.525
1076.000	623.634	80.006	19.993	103.817	20.049	3.739	0.536
1078.000	624.695	80.006	19.994	103.815	20.052	3.464	0.511
1080.000	625.713	80.006	19.993	103.818	20.055	3.260	0.518
1082.000	626.736	80.005	19.994	103.816	20.054	3.371	0.507
1084.000	627.770	80.004	19.993	103.814	20.049	3.687	0.526
1086.000	628.742	80.005	19.993	103.815	20.052	3.501	0.482
1088.000	629.767	80.002	19.993	103.813	20.053	3.434	0.494
1090.000	630.824	80.004	19.994	103.813	20.049	3.711	0.526
1092.000	631.818	80.004	19.995	103.812	20.051	3.562	0.510
1094.000	632.811	80.003	19.995	103.811	20.054	3.327	0.501
1096.000	633.826	80.003	19.995	103.813	20.052	3.488	0.507
1098.000	634.833	80.003	19.994	103.812	20.051	3.551	0.508
1100.000	635.821	80.005	19.994	103.813	20.056	3.191	0.497
1102.000	636.852	80.004	19.994	103.819	20.058	3.031	0.511
1104.001	637.816	80.004	19.995	103.815	20.057	3.130	0.501
1106.000	638.762	80.005	19.994	103.813	20.059	2.974	0.455
1108.000	639.771	80.004	19.995	103.813	20.054	3.362	0.474
1110.000	640.761	80.004	19.994	103.809	20.055	3.284	0.489
1112.000	641.721	80.004	19.996	103.812	20.053	3.384	0.491
1114.000	642.764	80.004	19.996	103.812	20.052	3.484	0.532
1116.000	643.774	80.003	19.996	103.810	20.055	3.288	0.517
1118.000	644.755	80.004	19.996	103.810	20.053	3.375	0.466
1120.000	645.731	80.004	19.996	103.812	20.052	3.527	0.492
1122.000	646.721	80.003	19.996	103.812	20.054	3.325	0.521
1124.000	647.746	80.003	19.995	103.815	20.054	3.367	0.496
1126.000	648.759	80.002	19.995	103.811	20.049	3.709	0.534
1128.000	649.753	80.004	19.993	103.809	20.049	3.750	0.506
1130.000	650.827	80.005	19.996	103.815	20.051	3.542	0.529
1132.000	651.820	80.005	19.995	103.815	20.050	3.679	0.488
1134.000	652.831	80.007	19.994	103.814	20.049	3.700	0.518
1136.000	653.856	80.005	19.993	103.815	20.051	3.546	0.486
1138.001	654.880	80.005	19.995	103.815	20.053	3.451	0.499
1140.000	655.912	80.004	19.994	103.815	20.052	3.488	0.525
1142.000	656.954	80.004	19.993	103.815	20.050	3.620	0.515
1144.000	657.985	80.006	19.995	103.814	20.052	3.464	0.499
1146.000	658.964	80.005	19.993	103.813	20.054	3.334	0.547
1148.000	659.990	80.005	19.993	103.803	20.049	3.692	0.528
1150.000	661.001	80.005	19.994	103.801	20.050	3.631	0.494
1152.000	662.000	80.006	19.994	103.814	20.052	3.525	0.501
1154.000	662.985	80.006	19.995	103.814	20.050	3.659	0.504
1156.000	664.005	80.006	19.994	103.814	20.048	3.774	0.497
1158.000	665.004	80.006	19.992	103.813	20.051	3.607	0.518
1160.000	665.955	80.007	19.993	103.811	20.050	3.661	0.486
1162.000	667.030	80.007	19.994	103.812	20.049	3.694	0.466
1164.000	668.029	80.007	19.993	103.806	20.049	3.731	0.515
1166.000	669.021	80.006	19.993	103.805	20.047	3.846	0.474
1168.000	670.085	80.006	19.994	103.808	20.049	3.704	0.499
1170.000	671.068	80.006	19.994	103.810	20.051	3.538	0.522
1172.000	672.089	80.005	19.994	103.811	20.052	3.520	0.500
1174.000	673.135	80.006	19.995	103.812	20.051	3.538	0.500
1176.000	674.203	80.005	19.995	103.813	20.050	3.674	0.494
1178.000	675.203	80.004	19.995	103.805	20.052	3.477	0.512
1180.001	676.272	80.005	19.995	103.811	20.051	3.531	0.514
1182.000	677.337	80.006	19.996	103.810	20.053	3.395	0.562
1184.000	678.361	80.003	19.995	103.811	20.051	3.544	0.517
1186.000	679.358	80.004	19.996	103.812	20.053	3.440	0.498
1188.000	680.410	80.005	19.994	103.808	20.050	3.674	0.518
1190.000	681.438	80.005	19.995	103.808	20.050	3.609	0.481
1192.000	682.450	80.004	19.994	103.814	20.051	3.585	0.504
1194.000	683.474	80.005	19.995	103.815	20.046	3.978	0.494
1196.001	684.626	80.004	19.996	103.814	20.049	3.692	0.577
1198.000	685.556	80.003	19.995	103.814	20.045	4.021	0.499
1200.000	686.589	80.004	19.994	103.770	20.050	3.618	0.499
1202.000	687.663	80.003	19.995	103.758	20.051	3.568	0.540
1204.000	688.698	80.003	19.995	103.873	20.050	3.627	0.515
1206.000	689.731	80.004	19.996	103.811	20.046	3.939	0.519
1208.000	690.823	80.003	19.995	103.813	20.050	3.661	0.532
1210.001	691.865	80.003	19.996	103.818	20.051	3.564	0.553
1212.000	692.946	80.003	19.994	103.824	20.049	3.705	0.529
1214.000	694.023	80.005	19.996	103.814	20.051	3.566	0.559
1216.000	695.117	80.005	19.995	103.815	20.053	3.442	0.540
1218.000	696.140	80.006	19.995	103.808	20.051	3.605	0.509
1220.000	697.227	80.005	19.994	103.808	20.050	3.644	0.557
1222.000	698.294	80.006	19.995	103.811	20.054	3.353	0.535
1224.000	699.309	80.005	19.994	103.814	20.048	3.824	0.540
1226.000	700.317	80.004	19.993	103.807	20.048	3.820	0.505
1228.000	701.339	80.003	19.994	103.807	20.046	3.997	0.510
1230.000	702.397	80.004	19.995	103.813	20.046	3.999	0.526
1232.000	703.424	80.006	19.993	103.812	20.047	3.867	0.526
1234.000	704.446	80.006	19.994	103.812	20.048	3.832	0.534
1236.000	705.455	80.005	19.995	103.811	20.048	3.799	0.483
1238.000	706.474	80.006	19.993	103.813	20.049	3.740	0.545
1240.000	707.470	80.006	19.994	103.811	20.050	3.675	0.510
1242.000	708.537	80.007	19.992	103.809	20.050	3.610	0.505
1244.000	709.551	80.006	19.993	103.801	20.047	3.889	0.489
1246.000	710.627	80.006	19.992	103.801	20.047	3.885	0.528
1248.000	711.594	80.006	19.995	103.715	20.048	3.772	0.491
1250.000	712.666	80.004	19.995	103.841	20.048	3.833	0.509
1252.000	713.675	80.005	19.994	103.881	20.052	3.475	0.493
1254.000	714.698	80.004	19.994	103.812	20.050	3.631	0.509
1256.000	715.736	80.004	19.994	103.812	20.049	3.744	0.513
1258.000	716.778	80.004	19.993	103.815	20.051	3.588	0.511
1260.000	717.744	80.003	19.995	103.816	20.055	3.232	0.518
1262.000	718.818	80.003	19.993	103.819	20.050	3.629	0.547
1264.000	719.814	80.003	19.994	103.820	20.052	3.523	0.515
1266.001	720.870	80.004	19.993	103.820	20.052	3.458	0.528
1268.000	721.918	80.004	19.995	103.814	20.055	3.289	0.515
1270.000	722.906	80.003	19.994	103.815	20.053	3.405	0.537
1272.000	723.961	80.004	19.995	103.818	20.048	3.822	0.506
1274.000	725.021	80.004	19.994	103.814	20.049	3.753	0.534
1276.000	726.053	80.004	19.994	103.812	20.051	3.577	0.517
1278.000	727.076	80.004	19.995	103.815	20.049	3.761	0.511
1280.000	728.064	80.003	19.995	103.811	20.050	3.620	0.466
1282.000	729.080	80.003	19.994	103.810	20.055	3.243	0.526
1284.000	730.138	80.003	19.995	103.817	20.053	3.440	0.529
1286.000	731.117	80.004	19.995	103.816	20.052	3.494	0.455
1288.000	732.158	80.004	19.995	103.806	20.052	3.492	0.492
1290.000	733.094	80.006	19.994	103.813	20.054	3.338	0.454
1292.000	734.155	80.006	19.995	103.812	20.054	3.366	0.500
1294.000	735.172	80.006	19.994	103.813	20.055	3.269	0.495
1296.000	736.169	80.006	19.994	103.808	20.050	3.646	0.499
1298.000	737.172	80.007	19.995	103.810	20.052	3.466	0.491
1300.000	738.152	80.005	19.996	103.807	20.052	3.479	0.490
1302.000	739.152	80.006	19.995	103.808	20.052	3.494	0.497
1304.000	740.122	80.005	19.995	103.810	20.053	3.388	0.474
1306.000	741.174	80.004	19.996	103.806	20.051	3.535	0.486
1308.000	742.156	80.004	19.994	103.806	20.052	3.503	0.484
1310.000	743.133	80.005	19.997	103.811	20.051	3.583	0.513
1311.000	743.684	80.005	19.995	103.809	20.051	3.565	0.528