File: 01_Data/Bean_Bag_Chair_Outer_Cover/MCC/Bean_Bag_Chair_Outer_Cover_MCC_30K_min_220311_O2.txt
Sample ID:	C:\MCC\MCC Cal\Test\Bean_Bag_Chair_Outer_Cover_MCC_30K_min_220311_R2.txt
Sample Weight (mg):	4.15
Heating Rate (C/s):	1
Combustor Temp (C):	900
N2 Flow Rate (cc/min):	80
O2 Flow Rate (cc/min):	20
Calibration File:	C:\MCC\MCC Cal\Coeff1 JN10440_30_210304.txt.txt
T Correction Coefficients:	0	1.024463	0
Time Shift (s):	14
*
Time (s)	Temperature (C)	N2 flow rate (cc/min)	O2 flow rate (cc/min)	Flow Rate (cc/min)	Oxygen (%)	HRR (W/g)	Heating rate (C/s)
0.000	109.128	80.005	19.993	103.610	19.904	0.282	-0.011
1.000	109.186	80.005	19.993	103.619	19.905	0.222	0.025
2.000	109.157	80.004	19.993	103.625	19.906	0.098	-0.038
3.000	109.146	80.004	19.994	103.628	19.906	0.135	-0.009
4.000	109.147	80.005	19.993	103.632	19.907	0.026	0.005
5.000	109.172	80.004	19.994	103.633	19.912	-0.347	0.003
6.000	109.114	80.005	19.994	103.633	19.903	0.328	-0.041
7.000	109.109	80.006	19.995	103.634	19.901	0.533	0.016
8.000	109.108	80.004	19.994	103.645	19.903	0.349	0.005
9.000	109.155	80.005	19.995	103.667	19.902	0.443	0.026
10.000	109.147	80.004	19.994	103.695	19.893	1.111	-0.005
11.000	109.179	80.006	19.994	103.710	19.895	0.963	0.024
12.000	109.177	80.005	19.994	103.723	19.889	1.458	0.003
13.000	109.181	80.004	19.994	103.753	19.885	1.734	0.017
14.000	109.250	80.005	19.994	103.794	19.880	2.184	0.038
15.000	109.273	80.006	19.994	103.830	19.877	2.392	0.041
16.000	109.378	80.008	19.993	103.868	19.877	2.390	0.080
17.000	109.457	80.007	19.993	103.904	19.867	3.131	0.094
18.000	109.562	80.007	19.994	103.918	19.868	3.102	0.084
19.000	109.687	80.007	19.994	103.917	19.863	3.468	0.113
20.000	109.769	80.006	19.993	103.903	19.858	3.850	0.113
21.000	109.862	80.006	19.992	103.903	19.856	4.002	0.086
22.000	110.046	80.006	19.992	103.905	19.859	3.782	0.184
23.000	110.220	80.004	19.992	103.910	19.858	3.846	0.168
24.000	110.399	80.005	19.992	103.925	19.857	3.930	0.172
25.000	110.595	80.005	19.992	103.941	19.852	4.329	0.190
26.000	110.791	80.004	19.992	103.950	19.849	4.580	0.204
27.000	110.976	80.005	19.992	103.955	19.849	4.584	0.186
28.000	111.161	80.005	19.991	103.964	19.850	4.464	0.176
29.000	111.459	80.004	19.994	103.969	19.844	4.992	0.260
30.000	111.661	80.005	19.994	103.970	19.847	4.769	0.231
31.000	111.934	80.004	19.992	103.986	19.843	5.056	0.267
32.000	112.175	80.004	19.992	103.998	19.838	5.457	0.263
33.000	112.536	80.004	19.994	104.000	19.842	5.114	0.322
34.001	112.786	80.005	19.994	103.996	19.840	5.244	0.250
35.000	113.104	80.004	19.993	104.011	19.842	5.122	0.319
36.000	113.452	80.004	19.993	103.962	19.840	5.307	0.327
37.000	113.827	80.004	19.992	103.932	19.843	5.054	0.386
38.000	114.156	80.003	19.993	103.966	19.839	5.354	0.322
39.000	114.532	80.004	19.992	104.066	19.836	5.570	0.359
40.000	114.923	80.003	19.993	104.085	19.836	5.613	0.389
41.000	115.276	80.004	19.992	104.039	19.835	5.671	0.371
42.000	115.650	80.004	19.994	104.027	19.836	5.590	0.384
43.000	116.039	80.004	19.993	104.029	19.835	5.637	0.389
44.000	116.484	80.004	19.994	104.029	19.837	5.547	0.422
45.000	116.897	80.004	19.993	104.029	19.832	5.873	0.421
46.000	117.317	80.004	19.993	104.030	19.835	5.689	0.401
47.000	117.826	80.004	19.994	104.029	19.837	5.489	0.503
48.000	118.280	80.003	19.992	104.031	19.837	5.534	0.448
49.000	118.745	80.004	19.993	104.031	19.834	5.725	0.457
50.000	119.220	80.004	19.993	104.030	19.831	5.961	0.481
51.000	119.711	80.004	19.994	104.030	19.834	5.778	0.498
52.000	120.242	80.005	19.993	104.037	19.830	6.098	0.513
53.000	120.711	80.004	19.993	104.037	19.833	5.868	0.484
54.000	121.222	80.004	19.992	104.037	19.832	5.920	0.506
55.001	121.785	80.003	19.992	104.037	19.834	5.754	0.560
56.000	122.325	80.005	19.994	104.042	19.830	6.087	0.544
57.000	122.853	80.004	19.992	104.041	19.834	5.748	0.538
58.000	123.461	80.005	19.992	104.039	19.832	5.890	0.590
59.000	123.987	80.005	19.993	104.036	19.831	5.969	0.548
60.000	124.599	80.004	19.993	104.036	19.831	5.986	0.582
61.001	125.217	80.003	19.992	104.036	19.832	5.939	0.614
62.000	125.799	80.005	19.994	104.033	19.834	5.752	0.584
63.000	126.410	80.004	19.993	104.042	19.834	5.759	0.590
64.000	126.997	80.004	19.993	104.056	19.831	5.974	0.598
65.000	127.592	80.004	19.993	104.065	19.830	6.058	0.605
66.000	128.227	80.003	19.994	104.066	19.826	6.341	0.629
67.001	128.841	80.004	19.993	104.065	19.824	6.540	0.609
68.000	129.452	80.005	19.993	104.065	19.825	6.445	0.634
69.000	130.144	80.004	19.994	104.065	19.829	6.158	0.665
70.001	130.799	80.005	19.993	104.065	19.828	6.214	0.644
71.000	131.468	80.005	19.993	104.066	19.826	6.354	0.675
72.000	132.153	80.006	19.994	104.066	19.823	6.624	0.676
73.000	132.817	80.006	19.993	104.066	19.825	6.448	0.677
74.001	133.532	80.005	19.992	104.068	19.822	6.665	0.704
75.000	134.232	80.006	19.995	104.074	19.825	6.425	0.694
76.001	134.939	80.005	19.994	104.084	19.823	6.625	0.715
77.000	135.632	80.006	19.995	104.082	19.822	6.719	0.693
78.000	136.327	80.006	19.994	104.074	19.823	6.637	0.706
79.001	137.048	80.004	19.994	104.068	19.820	6.828	0.725
80.000	137.813	80.006	19.994	104.073	19.820	6.839	0.734
81.000	138.547	80.005	19.994	104.086	19.817	7.049	0.749
82.000	139.290	80.005	19.994	104.085	19.823	6.646	0.728
83.000	140.077	80.005	19.994	104.086	19.821	6.788	0.771
84.000	140.842	80.005	19.995	104.083	19.820	6.835	0.775
85.000	141.617	80.004	19.993	104.091	19.820	6.842	0.774
86.000	142.431	80.004	19.994	104.093	19.822	6.717	0.800
87.000	143.205	80.004	19.994	104.093	19.819	6.963	0.766
88.000	143.981	80.004	19.993	104.089	19.816	7.185	0.800
89.001	144.806	80.004	19.994	104.086	19.822	6.657	0.822
90.000	145.603	80.007	19.993	104.094	19.821	6.733	0.795
91.000	146.405	80.006	19.993	104.090	19.822	6.728	0.821
92.000	147.249	80.005	19.994	104.088	19.819	6.959	0.795
93.001	148.074	80.007	19.993	104.095	19.819	6.943	0.846
94.000	148.899	80.005	19.995	104.106	19.822	6.671	0.832
95.000	149.758	80.005	19.996	104.100	19.817	7.059	0.849
96.000	150.629	80.006	19.995	104.100	19.818	7.026	0.874
97.000	151.441	80.006	19.994	104.101	19.817	7.091	0.820
98.000	152.326	80.007	19.995	104.095	19.817	7.094	0.861
99.000	153.182	80.006	19.993	104.045	19.814	7.301	0.857
100.000	154.004	80.006	19.995	104.024	19.816	7.146	0.860
101.001	154.918	80.006	19.995	104.072	19.822	6.720	0.880
102.000	155.796	80.007	19.994	104.140	19.816	7.183	0.877
103.000	156.664	80.005	19.994	104.153	19.823	6.591	0.881
104.000	157.538	80.005	19.994	104.106	19.819	6.932	0.865
105.001	158.476	80.004	19.994	104.089	19.819	6.889	0.936
106.000	159.330	80.006	19.994	104.076	19.823	6.606	0.874
107.000	160.259	80.004	19.993	104.071	19.818	6.988	0.903
108.000	161.162	80.003	19.994	104.076	19.816	7.200	0.915
109.000	162.091	80.004	19.995	104.084	19.817	7.069	0.897
110.001	162.947	80.004	19.994	104.081	19.820	6.887	0.899
111.000	163.923	80.003	19.994	104.071	19.817	7.108	0.922
112.001	164.848	80.003	19.994	104.073	19.815	7.241	0.954
113.000	165.809	80.004	19.994	104.078	19.816	7.133	0.946
114.000	166.757	80.003	19.994	104.075	19.819	6.964	0.936
115.000	167.729	80.003	19.995	104.071	19.818	7.017	0.986
116.000	168.670	80.004	19.994	104.070	19.813	7.402	0.948
117.000	169.587	80.003	19.993	104.071	19.818	6.997	0.908
118.000	170.558	80.004	19.993	104.070	19.816	7.171	0.964
119.000	171.509	80.004	19.993	104.068	19.819	6.911	0.965
120.000	172.466	80.004	19.994	104.068	19.821	6.769	0.945
121.000	173.417	80.005	19.993	104.068	19.823	6.587	0.957
122.000	174.384	80.003	19.993	104.070	19.823	6.593	0.965
123.000	175.343	80.004	19.993	104.071	19.822	6.711	0.958
124.000	176.315	80.005	19.993	104.071	19.824	6.535	0.985
125.000	177.311	80.003	19.994	104.065	19.822	6.726	0.980
126.000	178.299	80.005	19.994	104.055	19.823	6.616	0.995
127.000	179.267	80.004	19.994	104.053	19.822	6.683	0.965
128.000	180.247	80.004	19.993	104.054	19.822	6.658	0.995
129.000	181.276	80.004	19.993	104.056	19.827	6.313	1.001
130.000	182.257	80.004	19.993	104.051	19.821	6.756	0.985
131.000	183.237	80.004	19.993	104.040	19.823	6.599	0.978
132.000	184.242	80.003	19.992	104.038	19.824	6.528	1.019
133.000	185.234	80.004	19.994	104.037	19.824	6.560	0.987
134.000	186.303	80.005	19.993	104.039	19.824	6.564	1.052
135.000	187.351	80.005	19.993	104.041	19.822	6.652	1.033
136.000	188.344	80.004	19.994	104.036	19.823	6.616	1.012
137.000	189.312	80.004	19.993	104.032	19.825	6.483	0.978
138.000	190.385	80.005	19.993	104.032	19.825	6.418	1.034
139.000	191.394	80.004	19.995	104.041	19.827	6.332	1.045
140.000	192.411	80.004	19.993	104.042	19.826	6.339	1.008
141.000	193.362	80.004	19.992	104.038	19.823	6.590	0.975
142.000	194.429	80.004	19.993	104.027	19.826	6.392	1.037
143.000	195.464	80.005	19.993	104.026	19.825	6.420	1.043
144.000	196.467	80.004	19.994	104.024	19.826	6.388	1.004
145.000	197.496	80.005	19.994	104.020	19.827	6.259	1.023
146.000	198.538	80.004	19.992	104.021	19.825	6.477	1.044
147.000	199.554	80.005	19.995	104.025	19.825	6.428	1.030
148.000	200.625	80.005	19.993	104.017	19.829	6.115	1.036
149.000	201.635	80.005	19.993	104.009	19.828	6.220	1.029
150.000	202.654	80.006	19.993	104.010	19.824	6.501	1.018
151.000	203.680	80.006	19.993	104.021	19.826	6.340	1.041
152.000	204.730	80.004	19.993	104.017	19.825	6.479	1.045
153.000	205.804	80.006	19.995	104.008	19.827	6.297	1.071
154.000	206.808	80.006	19.995	104.003	19.826	6.371	1.011
155.000	207.891	80.005	19.993	104.010	19.829	6.159	1.059
156.000	208.929	80.006	19.992	104.010	19.827	6.299	1.051
157.000	209.946	80.005	19.993	104.005	19.828	6.181	1.025
158.000	210.991	80.006	19.993	103.998	19.829	6.106	1.049
159.000	212.043	80.006	19.992	103.993	19.829	6.140	1.044
160.000	213.061	80.006	19.993	103.995	19.827	6.286	1.027
161.000	214.134	80.006	19.993	103.996	19.832	5.876	1.046
162.000	215.195	80.006	19.993	103.993	19.831	5.962	1.064
163.000	216.191	80.005	19.993	103.990	19.825	6.441	1.016
164.000	217.282	80.005	19.992	103.989	19.826	6.389	1.054
165.000	218.269	80.005	19.994	103.989	19.829	6.108	1.041
166.000	219.322	80.004	19.993	103.987	19.824	6.513	1.031
167.000	220.342	80.004	19.993	103.987	19.826	6.411	1.038
168.000	221.418	80.005	19.993	103.988	19.830	6.045	1.043
169.000	222.458	80.004	19.993	103.988	19.830	6.030	1.056
170.000	223.500	80.004	19.994	103.988	19.827	6.267	1.033
171.000	224.550	80.005	19.994	103.987	19.830	6.040	1.067
172.000	225.589	80.004	19.993	103.986	19.827	6.280	1.022
173.000	226.601	80.005	19.994	103.977	19.824	6.513	1.022
174.000	227.636	80.004	19.993	103.967	19.830	6.095	1.024
175.000	228.686	80.005	19.994	103.956	19.830	6.056	1.059
176.000	229.729	80.006	19.994	103.953	19.829	6.121	1.038
177.000	230.780	80.005	19.993	103.964	19.825	6.457	1.037
178.000	231.767	80.005	19.994	103.970	19.823	6.568	1.026
179.001	232.794	80.005	19.993	103.972	19.826	6.373	1.005
180.000	233.857	80.007	19.993	103.968	19.830	6.035	1.063
181.000	234.876	80.006	19.992	103.963	19.825	6.455	1.011
182.000	235.903	80.005	19.994	103.969	19.825	6.437	1.039
183.000	236.919	80.006	19.995	103.970	19.828	6.247	1.030
184.000	237.952	80.007	19.995	103.962	19.829	6.161	1.013
185.000	238.960	80.004	19.993	103.951	19.826	6.343	1.024
186.000	239.946	80.006	19.994	103.947	19.829	6.161	0.996
187.000	240.995	80.006	19.994	103.948	19.827	6.315	1.007
188.000	242.007	80.005	19.993	103.949	19.826	6.390	1.030
189.000	243.069	80.004	19.992	103.948	19.825	6.456	1.041
190.000	244.011	80.005	19.993	103.945	19.826	6.341	0.982
191.000	245.033	80.005	19.993	103.945	19.823	6.583	1.008
192.000	246.049	80.005	19.993	103.945	19.824	6.504	1.013
193.000	247.062	80.004	19.993	103.946	19.822	6.652	1.031
194.000	248.113	80.004	19.994	103.946	19.825	6.414	1.030
195.000	249.136	80.004	19.993	103.945	19.824	6.501	1.020
196.000	250.148	80.005	19.994	103.945	19.823	6.623	1.010
197.000	251.211	80.005	19.994	103.945	19.823	6.621	1.064
198.000	252.237	80.003	19.994	103.946	19.817	7.077	1.007
199.000	253.156	80.003	19.994	103.945	19.818	7.024	0.978
200.000	254.164	80.004	19.994	103.943	19.815	7.257	1.015
201.000	255.179	80.004	19.994	103.943	19.818	7.007	0.989
202.000	256.202	80.005	19.995	103.945	19.821	6.765	1.019
203.000	257.187	80.005	19.995	103.947	19.820	6.806	0.989
204.000	258.204	80.004	19.994	103.947	19.817	7.043	1.024
205.000	259.234	80.004	19.994	103.941	19.817	7.043	1.007
206.000	260.229	80.002	19.995	103.937	19.813	7.358	0.987
207.000	261.189	80.003	19.994	103.938	19.818	6.979	0.982
208.000	262.209	80.003	19.994	103.942	19.815	7.269	1.006
209.000	263.144	80.006	19.993	103.936	19.814	7.301	0.958
210.000	264.148	80.005	19.994	103.938	19.810	7.635	1.019
211.000	265.132	80.006	19.993	103.942	19.814	7.300	0.963
212.000	266.107	80.006	19.994	103.943	19.810	7.626	0.973
213.000	267.118	80.004	19.994	103.943	19.807	7.894	1.010
214.000	268.093	80.006	19.994	103.944	19.808	7.791	0.989
215.000	269.111	80.006	19.996	103.945	19.807	7.827	1.004
216.000	270.117	80.005	19.995	103.944	19.808	7.744	0.983
217.000	271.112	80.006	19.993	103.945	19.814	7.313	1.010
218.000	272.131	80.005	19.995	103.946	19.811	7.517	1.010
219.000	273.084	80.004	19.993	103.949	19.809	7.678	0.976
220.000	274.106	80.003	19.993	103.949	19.804	8.080	1.029
221.000	275.109	80.003	19.993	103.946	19.804	8.103	0.992
222.000	276.107	80.004	19.993	103.944	19.804	8.073	1.002
223.000	277.060	80.004	19.994	103.946	19.800	8.418	0.955
224.000	278.058	80.004	19.993	103.949	19.798	8.581	0.997
225.000	279.087	80.003	19.994	103.947	19.800	8.371	0.999
226.000	280.088	80.004	19.993	103.949	19.797	8.654	0.996
227.000	281.056	80.004	19.993	103.950	19.794	8.849	0.993
228.000	282.062	80.006	19.994	103.946	19.791	9.100	1.009
229.000	283.051	80.005	19.993	103.945	19.790	9.196	0.976
230.000	284.045	80.004	19.993	103.948	19.787	9.393	1.013
231.000	285.021	80.003	19.992	103.942	19.786	9.502	0.962
232.000	286.018	80.004	19.992	103.942	19.787	9.455	1.003
233.000	287.018	80.006	19.993	103.940	19.780	9.991	0.995
234.000	288.011	80.006	19.993	103.945	19.779	10.071	1.002
235.000	288.942	80.005	19.992	103.950	19.772	10.573	0.944
236.000	289.988	80.005	19.993	103.949	19.773	10.489	1.016
237.000	290.975	80.006	19.992	103.949	19.770	10.748	1.006
238.000	291.986	80.005	19.993	103.948	19.765	11.138	1.013
239.000	292.977	80.006	19.993	103.949	19.768	10.902	0.977
240.000	293.991	80.005	19.993	103.948	19.768	10.903	1.021
241.000	294.958	80.005	19.993	103.949	19.758	11.709	0.968
242.000	295.957	80.006	19.994	103.950	19.756	11.817	1.003
243.000	296.936	80.006	19.993	103.950	19.750	12.299	0.999
244.000	297.928	80.005	19.994	103.954	19.748	12.462	0.986
245.000	298.954	80.006	19.993	103.962	19.748	12.434	1.000
246.000	299.932	80.007	19.994	103.966	19.740	13.084	0.994
247.000	300.919	80.005	19.992	103.962	19.734	13.570	0.967
248.000	301.931	80.006	19.994	103.964	19.732	13.759	1.039
249.000	302.884	80.006	19.993	103.965	19.724	14.312	0.950
250.000	303.935	80.007	19.993	103.958	19.721	14.586	1.025
251.000	304.930	80.006	19.993	103.967	19.716	14.990	1.004
252.000	305.928	80.006	19.993	103.978	19.711	15.382	1.000
253.000	306.912	80.005	19.995	103.985	19.699	16.283	0.980
254.000	307.899	80.007	19.993	103.985	19.699	16.296	0.997
255.000	308.914	80.007	19.992	103.986	19.691	16.905	0.998
256.000	309.909	80.007	19.992	103.986	19.688	17.134	0.996
257.000	310.888	80.006	19.993	103.991	19.682	17.614	0.978
258.000	311.908	80.006	19.993	104.004	19.674	18.254	1.019
259.000	312.960	80.008	19.993	104.006	19.668	18.769	1.049
260.000	313.954	80.007	19.993	104.007	19.653	19.885	0.982
261.000	314.915	80.007	19.993	104.008	19.647	20.364	0.975
262.000	315.908	80.007	19.993	104.013	19.638	21.098	1.010
263.000	316.933	80.008	19.995	104.017	19.630	21.748	1.009
264.000	317.917	80.007	19.994	104.024	19.615	22.910	1.011
265.000	318.932	80.009	19.993	104.023	19.607	23.537	1.010
266.000	319.919	80.007	19.993	104.024	19.596	24.415	0.979
267.000	320.935	80.006	19.994	104.023	19.586	25.182	0.982
268.000	321.901	80.006	19.994	104.023	19.572	26.250	1.012
269.000	322.901	80.007	19.994	104.031	19.562	27.068	1.006
270.000	323.935	80.007	19.993	104.047	19.548	28.181	1.000
271.000	324.928	80.007	19.995	104.061	19.531	29.505	1.012
272.000	325.952	80.005	19.994	104.070	19.512	30.971	0.992
273.000	326.935	80.005	19.995	104.082	19.502	31.765	0.988
274.000	327.921	80.006	19.995	104.092	19.487	32.937	1.012
275.000	328.927	80.005	19.996	104.094	19.470	34.283	1.000
276.000	329.942	80.004	19.994	104.114	19.455	35.469	1.011
277.000	330.932	80.004	19.994	104.127	19.436	36.974	1.004
278.000	331.904	80.005	19.994	104.138	19.414	38.657	0.963
279.000	332.935	80.005	19.995	104.147	19.393	40.340	1.032
280.000	333.956	80.004	19.994	104.155	19.368	42.349	1.005
281.000	335.009	80.003	19.994	104.169	19.349	43.810	1.035
282.000	335.980	80.004	19.994	104.177	19.316	46.423	1.005
283.000	337.010	80.003	19.994	104.190	19.291	48.401	1.020
284.000	337.992	80.005	19.993	104.205	19.258	51.023	0.983
285.000	339.014	80.005	19.994	104.220	19.227	53.420	1.021
286.000	339.989	80.005	19.993	104.236	19.196	55.897	1.008
287.000	341.036	80.004	19.993	104.253	19.164	58.422	1.011
288.000	342.023	80.003	19.993	104.267	19.130	61.125	1.001
289.000	343.033	80.004	19.993	104.282	19.091	64.154	1.000
290.000	344.043	80.005	19.995	104.307	19.054	67.102	1.017
291.000	345.022	80.004	19.993	104.328	19.007	70.769	1.003
292.000	346.012	80.006	19.994	104.341	18.966	74.067	0.969
293.000	347.031	80.005	19.994	104.357	18.923	77.436	0.996
294.000	348.031	80.004	19.994	104.385	18.875	81.241	1.007
295.000	349.007	80.005	19.994	104.409	18.824	85.276	0.978
296.000	350.018	80.005	19.994	104.431	18.772	89.430	1.030
297.000	351.006	80.005	19.994	104.453	18.717	93.722	0.989
298.000	351.994	80.003	19.995	104.480	18.658	98.416	0.979
299.000	353.046	80.003	19.995	104.510	18.597	103.248	1.065
300.000	354.015	80.003	19.995	104.536	18.538	107.924	0.969
301.000	355.072	80.002	19.994	104.563	18.474	113.013	1.018
302.000	356.091	80.003	19.994	104.583	18.407	118.283	1.024
303.000	357.048	80.003	19.994	104.612	18.346	123.183	0.981
304.000	358.055	80.003	19.993	104.639	18.273	128.901	1.008
305.000	359.022	80.004	19.993	104.666	18.205	134.276	0.969
306.000	360.023	80.004	19.994	104.694	18.129	140.297	1.008
307.000	361.014	80.005	19.994	104.723	18.058	145.899	0.999
308.000	361.999	80.006	19.993	104.753	17.984	151.761	0.968
309.000	362.996	80.005	19.994	104.783	17.906	157.914	1.008
310.000	363.964	80.003	19.993	104.810	17.831	163.864	0.979
311.000	364.957	80.003	19.994	104.830	17.754	169.854	0.976
312.000	365.965	80.006	19.993	104.853	17.675	176.033	0.999
313.000	366.955	80.004	19.995	104.875	17.601	181.855	0.987
314.000	367.937	80.006	19.994	104.900	17.523	187.989	0.993
315.000	368.900	80.006	19.993	104.919	17.449	193.781	0.964
316.000	369.890	80.005	19.994	104.932	17.370	200.035	0.981
317.000	370.898	80.005	19.994	104.942	17.302	205.368	0.997
318.000	371.881	80.005	19.994	104.942	17.230	211.002	0.985
319.000	372.874	80.006	19.993	104.945	17.162	216.331	1.005
320.000	373.849	80.007	19.993	104.945	17.100	221.118	0.980
321.000	374.842	80.006	19.993	104.941	17.041	225.672	1.014
322.000	375.855	80.005	19.994	104.924	16.982	230.269	0.976
323.000	376.835	80.005	19.993	104.903	16.933	234.059	0.983
324.000	377.833	80.006	19.992	104.880	16.887	237.652	1.001
325.000	378.796	80.006	19.993	104.865	16.846	240.790	0.964
326.000	379.800	80.006	19.995	104.855	16.811	243.430	1.002
327.000	380.781	80.005	19.992	104.847	16.788	245.137	0.994
328.000	381.756	80.005	19.993	104.839	16.778	245.785	0.970
329.000	382.742	80.006	19.994	104.823	16.762	246.972	0.990
330.000	383.717	80.005	19.992	104.800	16.760	246.984	0.961
331.000	384.715	80.005	19.993	104.761	16.771	246.027	1.007
332.000	385.738	80.006	19.993	104.734	16.785	244.801	1.010
333.000	386.743	80.004	19.994	104.707	16.811	242.701	1.003
334.000	387.740	80.006	19.995	104.677	16.848	239.686	1.003
335.000	388.746	80.006	19.995	104.641	16.892	236.143	0.993
336.001	389.738	80.006	19.995	104.609	16.948	231.611	1.004
337.000	390.746	80.006	19.993	104.568	17.014	226.375	1.009
338.000	391.757	80.005	19.993	104.523	17.089	220.493	1.011
339.000	392.762	80.005	19.993	104.480	17.169	214.123	1.008
340.000	393.821	80.007	19.993	104.436	17.268	206.365	1.035
341.000	394.844	80.006	19.993	104.388	17.365	198.764	1.021
342.000	395.862	80.008	19.993	104.332	17.469	190.582	1.020
343.000	396.867	80.007	19.993	104.286	17.585	181.525	1.032
344.000	397.895	80.007	19.993	104.238	17.703	172.291	1.005
345.000	398.909	80.009	19.993	104.195	17.827	162.575	1.021
346.000	399.902	80.008	19.993	104.146	17.955	152.561	1.017
347.000	400.983	80.008	19.993	104.110	18.086	142.353	1.052
348.000	401.945	80.007	19.993	104.075	18.214	132.300	0.992
349.000	403.013	80.006	19.993	104.046	18.350	121.675	1.050
350.000	404.020	80.007	19.992	104.017	18.477	111.754	1.019
351.000	405.067	80.007	19.992	103.997	18.605	101.766	1.024
352.000	406.103	80.005	19.994	103.975	18.729	92.072	1.046
353.000	407.116	80.008	19.992	103.961	18.844	83.056	1.012
354.000	408.188	80.005	19.993	103.949	18.949	74.893	1.075
355.000	409.188	80.005	19.993	103.939	19.053	66.713	0.995
356.000	410.256	80.005	19.993	103.934	19.150	59.152	1.078
357.000	411.301	80.006	19.994	103.931	19.234	52.627	1.028
358.000	412.348	80.004	19.992	103.927	19.310	46.656	1.039
359.000	413.349	80.003	19.993	103.911	19.384	40.920	1.029
360.000	414.386	80.003	19.993	103.904	19.444	36.215	1.023
361.000	415.406	80.006	19.993	103.903	19.500	31.779	1.034
362.000	416.445	80.004	19.993	103.901	19.548	28.049	1.037
363.000	417.502	80.003	19.993	103.890	19.589	24.866	1.039
364.000	418.554	80.004	19.994	103.886	19.626	21.993	1.051
365.000	419.617	80.004	19.994	103.889	19.654	19.783	1.064
366.000	420.631	80.006	19.994	103.896	19.682	17.642	1.041
367.000	421.680	80.003	19.993	103.888	19.703	15.957	1.045
368.000	422.746	80.009	19.994	103.876	19.720	14.633	1.039
369.000	423.777	80.006	19.993	103.871	19.735	13.485	1.031
370.000	424.810	80.006	19.994	103.870	19.747	12.502	1.053
371.000	425.855	80.004	19.993	103.859	19.760	11.514	1.041
372.000	426.919	80.005	19.994	103.844	19.767	10.945	1.049
373.000	427.958	80.004	19.993	103.834	19.775	10.312	1.027
374.000	428.975	80.003	19.994	103.835	19.782	9.803	1.037
375.000	430.002	80.004	19.993	103.835	19.788	9.311	1.036
376.000	431.029	80.005	19.994	103.832	19.792	9.005	1.028
377.000	432.108	80.005	19.993	103.831	19.794	8.861	1.049
378.000	433.141	80.005	19.994	103.827	19.797	8.631	1.039
379.000	434.185	80.004	19.993	103.827	19.800	8.411	1.040
380.000	435.228	80.006	19.993	103.828	19.802	8.223	1.049
381.000	436.254	80.005	19.994	103.821	19.808	7.778	1.054
382.000	437.318	80.006	19.994	103.818	19.807	7.827	1.023
383.000	438.340	80.004	19.995	103.819	19.809	7.659	1.046
384.000	439.372	80.006	19.994	103.827	19.810	7.581	1.021
385.000	440.391	80.005	19.994	103.825	19.815	7.204	1.037
386.000	441.409	80.004	19.994	103.822	19.812	7.493	1.038
387.000	442.425	80.005	19.995	103.818	19.819	6.891	0.993
388.000	443.478	80.004	19.995	103.813	19.819	6.873	1.045
389.000	444.515	80.004	19.997	103.805	19.821	6.724	1.045
390.000	445.532	80.002	19.996	103.803	19.820	6.863	1.018
391.000	446.514	80.003	19.995	103.808	19.818	6.949	1.006
392.000	447.565	80.004	19.996	103.803	19.821	6.728	1.028
393.000	448.624	80.006	19.998	103.804	19.821	6.751	1.053
394.000	449.593	80.004	19.997	103.813	19.819	6.927	0.983
395.000	450.622	80.006	19.996	103.823	19.819	6.906	1.025
396.000	451.639	80.008	19.995	103.822	19.820	6.801	1.008
397.000	452.686	80.005	19.994	103.819	19.820	6.851	1.040
398.000	453.688	80.007	19.995	103.805	19.818	7.013	1.011
399.000	454.726	80.009	19.995	103.798	19.822	6.640	1.038
400.000	455.743	80.007	19.994	103.801	19.823	6.590	1.030
401.000	456.761	80.011	19.993	103.814	19.826	6.370	1.003
402.000	457.793	80.006	19.994	103.819	19.824	6.492	1.013
403.000	458.779	80.006	19.994	103.808	19.825	6.477	1.037
404.000	459.846	80.006	19.993	103.796	19.824	6.554	1.013
405.000	460.860	80.007	19.993	103.805	19.823	6.588	1.023
406.000	461.850	80.009	19.993	103.809	19.823	6.574	1.007
407.000	462.871	80.007	19.992	103.815	19.826	6.343	1.023
408.000	463.893	80.005	19.993	103.815	19.825	6.413	1.004
409.000	464.850	80.003	19.993	103.811	19.826	6.351	0.983
410.000	465.884	80.007	19.992	103.798	19.825	6.411	1.031
411.000	466.872	80.005	19.993	103.793	19.828	6.210	0.987
412.000	467.909	80.005	19.994	103.793	19.827	6.289	1.025
413.000	468.900	80.006	19.993	103.790	19.826	6.332	1.004
414.000	469.913	80.006	19.993	103.787	19.824	6.518	1.010
415.000	470.957	80.005	19.993	103.791	19.828	6.167	1.039
416.000	471.974	80.005	19.993	103.793	19.825	6.456	1.010
417.000	472.973	80.008	19.993	103.797	19.825	6.432	1.008
418.000	474.015	80.006	19.993	103.797	19.825	6.443	1.027
419.000	475.058	80.006	19.994	103.788	19.825	6.417	1.037
420.000	476.062	80.005	19.993	103.786	19.827	6.302	1.010
421.000	477.065	80.006	19.993	103.789	19.829	6.124	1.019
422.000	478.072	80.008	19.993	103.792	19.829	6.141	1.004
423.000	479.112	80.007	19.993	103.792	19.829	6.139	1.037
424.000	480.104	80.008	19.994	103.791	19.824	6.544	0.997
425.000	481.085	80.006	19.993	103.791	19.823	6.582	0.987
426.000	482.142	80.006	19.995	103.791	19.830	6.048	1.035
427.000	483.117	80.008	19.993	103.790	19.828	6.223	1.016
428.000	484.172	80.007	19.994	103.791	19.828	6.175	1.019
429.000	485.137	80.008	19.993	103.796	19.829	6.102	0.995
430.000	486.143	80.006	19.992	103.796	19.826	6.384	0.985
431.000	487.175	80.008	19.992	103.796	19.830	6.065	1.021
432.000	488.181	80.006	19.993	103.793	19.831	5.984	1.028
433.000	489.208	80.006	19.994	103.792	19.825	6.463	1.007
434.000	490.222	80.005	19.993	103.793	19.829	6.097	1.012
435.000	491.244	80.006	19.993	103.796	19.832	5.875	1.041
436.000	492.240	80.006	19.992	103.799	19.832	5.869	0.982
437.000	493.234	80.004	19.992	103.799	19.833	5.828	1.015
438.000	494.298	80.005	19.992	103.806	19.835	5.646	1.044
439.000	495.321	80.004	19.992	103.813	19.834	5.710	1.015
440.000	496.341	80.005	19.993	103.815	19.833	5.844	1.020
441.000	497.342	80.003	19.993	103.811	19.835	5.650	1.013
442.000	498.369	80.006	19.993	103.805	19.836	5.557	1.018
443.000	499.430	80.006	19.993	103.800	19.836	5.568	1.045
444.000	500.383	80.007	19.992	103.800	19.836	5.582	0.989
445.000	501.455	80.007	19.994	103.805	19.837	5.505	1.039
446.000	502.452	80.004	19.993	103.804	19.832	5.885	1.023
447.000	503.465	80.005	19.994	103.807	19.837	5.509	1.011
448.000	504.491	80.008	19.992	103.815	19.834	5.747	1.038
449.000	505.517	80.003	19.994	103.812	19.838	5.451	1.002
450.000	506.541	80.006	19.994	103.801	19.836	5.569	1.035
451.000	507.580	80.004	19.993	103.797	19.837	5.538	1.020
452.000	508.589	80.003	19.995	103.794	19.839	5.342	1.026
453.000	509.584	80.013	19.993	103.789	19.833	5.791	0.998
454.000	510.617	80.007	19.995	103.795	19.840	5.241	1.025
455.000	511.603	80.005	19.994	103.803	19.839	5.333	1.001
456.000	512.666	80.007	19.995	103.809	19.838	5.412	1.034
457.000	513.686	80.005	19.993	103.805	19.837	5.489	1.030
458.000	514.656	80.005	19.994	103.802	19.843	5.021	1.002
459.000	515.730	80.007	19.993	103.809	19.843	5.015	1.046
460.000	516.725	80.006	19.995	103.803	19.842	5.107	1.026
461.000	517.795	80.004	19.994	103.797	19.839	5.328	1.026
462.000	518.804	80.002	19.994	103.792	19.839	5.381	1.022
463.000	519.827	80.005	19.994	103.792	19.840	5.236	1.021
464.000	520.846	80.005	19.993	103.791	19.837	5.467	1.025
465.000	521.838	80.003	19.996	103.791	19.841	5.225	1.005
466.000	522.862	80.006	19.994	103.791	19.837	5.524	1.040
467.000	523.888	80.003	19.994	103.790	19.840	5.258	0.989
468.000	524.903	80.002	19.994	103.788	19.839	5.331	1.026
469.000	525.921	80.002	19.994	103.788	19.840	5.301	1.022
470.000	526.987	80.007	19.993	103.795	19.840	5.271	1.046
471.000	527.955	79.996	19.994	103.797	19.838	5.463	0.996
472.000	529.045	80.002	19.994	103.771	19.843	5.010	1.062
473.000	530.020	80.001	19.995	103.732	19.843	5.057	0.999
474.000	531.064	80.019	19.992	103.732	19.841	5.156	1.034
475.000	532.051	80.005	19.994	103.817	19.841	5.158	0.986
476.000	533.084	80.001	19.994	103.854	19.846	4.805	1.044
477.000	534.113	80.002	19.994	103.845	19.847	4.689	1.013
478.000	535.136	80.004	19.993	103.797	19.847	4.751	1.023
479.000	536.176	80.002	19.994	103.792	19.846	4.796	1.056
480.000	537.168	80.005	19.994	103.793	19.843	5.070	0.997
481.000	538.197	80.004	19.995	103.791	19.848	4.660	1.038
482.000	539.216	79.995	19.996	103.791	19.849	4.604	1.008
483.000	540.210	80.001	19.993	103.789	19.847	4.696	1.002
484.000	541.291	80.011	19.993	103.791	19.846	4.784	1.042
485.000	542.267	80.008	19.994	103.796	19.845	4.865	0.994
486.000	543.277	80.007	19.993	103.794	19.844	4.931	1.014
487.000	544.317	80.009	19.994	103.791	19.845	4.903	1.010
488.000	545.276	80.007	19.993	103.790	19.846	4.771	1.005
489.000	546.300	80.002	19.996	103.790	19.847	4.702	1.007
490.000	547.347	80.014	19.992	103.791	19.851	4.384	1.031
491.000	548.350	80.002	19.993	103.795	19.849	4.598	1.047
492.000	549.355	80.008	19.993	103.797	19.845	4.867	1.004
493.000	550.426	80.006	19.994	103.795	19.847	4.726	1.024
494.000	551.383	80.005	19.994	103.795	19.847	4.724	0.991
495.000	552.433	80.005	19.994	103.798	19.850	4.512	1.026
496.000	553.451	80.010	19.994	103.792	19.850	4.506	0.991
497.000	554.429	80.005	19.993	103.789	19.850	4.505	1.038
498.000	555.445	80.005	19.993	103.789	19.848	4.618	0.999
499.000	556.503	80.009	19.992	103.793	19.852	4.347	1.036
500.000	557.501	80.005	19.994	103.794	19.852	4.351	0.992
501.000	558.456	80.005	19.993	103.794	19.856	3.992	1.003
502.000	559.474	80.006	19.994	103.793	19.851	4.407	1.030
503.000	560.534	80.001	19.995	103.795	19.852	4.369	1.019
504.000	561.560	80.007	19.993	103.794	19.854	4.148	0.995
505.000	562.594	80.006	19.992	103.792	19.853	4.253	1.042
506.000	563.538	80.008	19.993	103.796	19.852	4.360	0.979
507.000	564.535	79.991	19.994	103.796	19.852	4.356	1.015
508.000	565.528	80.001	19.993	103.791	19.852	4.354	0.992
509.000	566.603	80.008	19.994	103.782	19.851	4.405	1.039
510.000	567.571	80.010	19.993	103.783	19.854	4.187	0.983
511.000	568.518	80.007	19.993	103.789	19.852	4.349	1.007
512.000	569.630	80.008	19.993	103.792	19.852	4.349	1.089
513.000	570.522	80.009	19.993	103.791	19.851	4.439	0.858
514.000	572.064	80.007	19.994	103.792	19.852	4.336	1.247
515.000	573.441	80.007	19.995	103.794	19.853	4.289	1.654
516.000	573.564	80.007	19.993	103.792	19.854	4.191	0.226
517.000	574.609	80.007	19.993	103.791	19.851	4.399	1.141
518.000	575.777	80.009	19.993	103.796	19.852	4.324	1.004
519.000	576.750	80.004	19.993	103.798	19.856	4.027	0.947
520.000	577.828	80.007	19.993	103.797	19.857	3.905	1.031
521.000	578.812	80.006	19.993	103.797	19.851	4.394	1.000
522.000	579.709	80.006	19.993	103.794	19.852	4.355	0.981
523.000	580.780	80.009	19.992	103.793	19.854	4.199	1.055
524.000	581.839	80.008	19.994	103.793	19.856	4.020	1.000
525.000	582.785	80.017	19.996	103.790	19.855	4.118	0.996
526.000	583.835	80.001	19.993	103.786	19.851	4.388	1.010
527.000	584.829	80.008	19.993	103.789	19.853	4.294	1.038
528.000	585.894	80.011	19.992	103.792	19.853	4.240	1.049
529.000	586.990	79.997	19.993	103.794	19.853	4.283	1.024
530.000	587.882	80.004	19.993	103.797	19.849	4.555	0.969
531.000	588.920	79.999	19.994	103.795	19.854	4.170	1.049
532.000	590.030	80.006	19.992	103.785	19.854	4.155	1.024
533.000	591.088	80.006	19.993	103.783	19.857	3.977	1.023
534.000	592.036	80.007	19.994	103.786	19.850	4.454	1.023
535.000	593.043	80.017	19.991	103.790	19.854	4.163	0.893
536.000	594.094	80.006	19.995	103.790	19.853	4.253	1.123
537.000	595.156	80.006	19.995	103.792	19.854	4.189	1.098
538.000	596.170	80.008	19.994	103.791	19.855	4.134	1.020
539.000	597.186	80.006	19.993	103.795	19.856	4.001	1.015
540.000	598.163	80.006	19.994	103.792	19.856	3.988	0.996
541.000	599.206	80.006	19.993	103.788	19.854	4.206	1.054
542.000	600.192	80.005	19.993	103.786	19.855	4.060	0.987
543.000	601.272	80.011	19.993	103.787	19.857	3.930	1.061
544.000	602.268	80.006	19.994	103.792	19.856	4.033	1.009
545.000	603.306	80.006	19.993	103.794	19.857	3.941	1.034
546.000	604.343	80.008	19.993	103.794	19.859	3.763	1.041
547.000	605.353	80.011	19.994	103.797	19.856	3.986	1.006
548.000	606.419	80.005	19.992	103.796	19.854	4.157	1.055
549.000	607.425	80.004	19.992	103.796	19.855	4.116	1.001
550.000	608.479	80.005	19.994	103.796	19.856	3.992	1.040
551.000	609.460	80.006	19.994	103.790	19.855	4.097	1.003
552.000	610.524	80.006	19.993	103.786	19.857	3.934	1.080
553.000	611.577	80.005	19.994	103.782	19.859	3.755	1.023
554.000	612.576	80.006	19.993	103.788	19.860	3.691	1.023
555.000	613.624	80.001	19.994	103.794	19.856	4.002	1.037
556.000	614.655	80.003	19.994	103.782	19.859	3.780	1.047
557.000	615.681	80.004	19.994	103.779	19.858	3.831	1.026
558.000	616.716	80.004	19.994	103.786	19.853	4.259	1.016
559.000	617.816	80.005	19.994	103.786	19.859	3.767	1.108
560.000	618.853	80.007	19.994	103.786	19.859	3.812	1.017
561.000	619.846	80.006	19.993	103.787	19.860	3.684	1.007
562.000	620.911	80.007	19.994	103.786	19.855	4.096	1.056
563.000	621.962	80.001	19.995	103.787	19.858	3.891	1.046
564.000	622.978	80.006	19.994	103.789	19.858	3.832	1.022
565.000	624.042	80.006	19.992	103.785	19.861	3.656	1.046
566.000	625.070	80.013	19.993	103.779	19.859	3.750	1.044
567.000	626.099	80.007	19.993	103.774	19.862	3.528	1.034
568.000	627.135	80.005	19.993	103.774	19.860	3.722	1.032
569.000	628.151	80.006	19.993	103.776	19.860	3.679	1.031
570.000	629.182	80.011	19.993	103.778	19.861	3.657	1.027
571.000	630.245	80.002	19.995	103.786	19.859	3.814	1.070
572.000	631.094	80.005	19.994	103.778	19.858	3.867	0.991
573.000	632.306	80.002	19.995	103.771	19.858	3.835	1.061
574.000	633.359	80.010	19.994	103.778	19.854	4.173	1.064
575.001	634.404	80.009	19.993	103.782	19.855	4.086	1.034
576.000	635.424	80.008	19.994	103.781	19.857	3.921	1.023
577.000	636.466	80.007	19.994	103.777	19.857	3.940	1.052
578.000	637.515	80.001	19.995	103.770	19.857	3.945	1.043
579.000	638.555	80.007	19.994	103.766	19.859	3.748	1.037
580.000	639.619	80.006	19.994	103.758	19.857	3.942	1.053
581.000	640.616	80.005	19.995	103.754	19.856	4.006	1.024
582.000	641.664	80.006	19.995	103.760	19.856	3.991	1.022
583.000	642.730	80.009	19.994	103.770	19.856	4.050	1.063
584.000	643.729	80.009	19.995	103.773	19.858	3.853	1.023
585.000	644.735	80.008	19.995	103.769	19.858	3.897	1.014
586.000	645.771	80.008	19.995	103.774	19.861	3.606	1.011
587.000	646.822	80.007	19.995	103.779	19.854	4.192	1.038
588.000	647.783	80.004	19.995	103.776	19.854	4.198	0.994
589.000	648.849	80.006	19.994	103.777	19.858	3.882	1.063
590.000	649.855	80.018	19.992	103.774	19.861	3.635	0.994
591.000	650.862	80.018	19.993	103.766	19.859	3.814	1.020
592.000	651.954	79.996	19.995	103.759	19.856	3.985	1.035
593.000	652.965	80.034	19.991	103.767	19.858	3.897	1.044
594.000	653.984	80.009	19.993	103.781	19.856	4.051	1.032
595.000	655.013	79.996	19.994	103.778	19.860	3.714	1.025
596.000	656.037	80.009	19.993	103.771	19.860	3.690	1.035
597.000	657.085	80.011	19.993	103.763	19.859	3.804	1.034
598.000	658.113	80.008	19.994	103.758	19.861	3.596	1.026
599.000	659.118	79.993	19.992	103.759	19.863	3.506	1.014
600.000	660.161	80.012	19.992	103.768	19.865	3.337	1.025
601.000	661.122	80.004	19.994	103.779	19.861	3.613	0.997
602.000	662.106	80.003	19.994	103.775	19.861	3.642	0.980
603.000	663.169	80.010	19.992	103.765	19.859	3.794	1.035
604.000	664.153	80.005	19.994	103.762	19.862	3.550	1.001
605.000	665.154	80.018	19.992	103.763	19.860	3.730	1.012
606.000	666.162	80.022	19.993	103.772	19.860	3.681	0.994
607.000	667.169	80.031	19.989	103.772	19.860	3.741	1.011
608.000	668.142	80.001	19.994	103.776	19.861	3.626	0.997
609.000	669.205	80.009	19.994	103.766	19.859	3.788	1.016
610.000	670.207	80.002	19.995	103.764	19.860	3.711	1.012
611.000	671.183	80.004	19.993	103.765	19.861	3.641	0.988
612.000	672.219	80.002	19.995	103.763	19.860	3.743	1.025
613.000	673.193	80.001	19.996	103.756	19.863	3.478	1.001
614.000	674.217	80.002	19.994	103.751	19.859	3.790	1.008
615.000	675.158	80.001	19.995	103.746	19.865	3.316	0.953
616.001	676.207	79.997	19.995	103.756	19.861	3.617	1.047
617.000	677.177	79.997	19.996	103.762	19.859	3.773	0.978
618.000	678.181	80.000	19.994	103.774	19.861	3.647	0.979
619.000	679.184	80.007	19.995	103.768	19.863	3.457	1.015
620.000	680.183	80.012	19.993	103.765	19.865	3.307	0.982
621.000	681.179	80.010	19.992	103.766	19.866	3.241	0.999
622.000	682.174	80.001	19.994	103.764	19.864	3.367	0.990
623.000	683.143	80.011	19.995	103.758	19.863	3.483	0.983
624.000	684.134	80.005	19.993	103.758	19.861	3.595	0.976
625.000	685.146	80.005	19.994	103.764	19.862	3.549	1.023
626.000	686.121	79.989	19.995	103.767	19.864	3.417	0.976
627.000	687.083	79.999	19.994	103.761	19.860	3.697	0.979
628.000	688.103	80.002	19.994	103.763	19.864	3.376	1.003
629.000	689.083	80.017	19.994	103.772	19.860	3.677	0.981
630.000	690.118	80.009	19.992	103.778	19.865	3.288	1.026
631.000	691.090	80.002	19.992	103.773	19.865	3.343	0.972
632.000	692.063	80.006	19.993	103.772	19.862	3.531	0.993
633.000	693.086	80.009	19.994	103.771	19.862	3.538	1.011
634.000	694.121	80.003	19.993	103.784	19.861	3.649	1.016
635.001	695.095	80.019	19.993	103.791	19.861	3.642	1.004
636.000	696.112	80.022	19.992	103.784	19.866	3.217	1.010
637.000	697.135	80.010	19.993	103.776	19.862	3.572	1.008
638.000	698.108	80.000	19.995	103.775	19.863	3.465	0.997
639.000	699.104	80.002	19.995	103.770	19.866	3.258	1.003
640.000	700.152	80.007	19.993	103.768	19.864	3.362	1.009
641.000	701.143	80.010	19.994	103.762	19.865	3.324	1.006
642.000	702.153	80.011	19.994	103.761	19.864	3.358	1.010
643.000	703.148	80.002	19.993	103.758	19.865	3.334	1.006
644.000	704.135	80.006	19.994	103.756	19.866	3.255	0.980
645.000	705.169	80.000	19.995	103.754	19.863	3.471	1.037
646.000	706.164	79.995	19.993	103.750	19.863	3.458	0.999
647.000	707.153	79.994	19.994	103.752	19.864	3.382	0.994
648.000	708.171	79.991	19.996	103.754	19.865	3.315	1.006
649.000	709.145	80.000	19.997	103.758	19.864	3.424	0.990
650.000	710.208	80.021	19.991	103.754	19.863	3.450	1.050
651.000	711.233	80.001	19.995	103.756	19.864	3.367	1.011
652.000	712.196	80.012	19.995	103.754	19.859	3.762	1.006
653.000	713.194	80.009	19.993	103.747	19.863	3.439	0.988
654.000	714.219	80.006	19.995	103.747	19.863	3.441	1.016
655.000	715.257	80.013	19.993	103.748	19.865	3.311	1.007
656.000	716.285	80.018	19.993	103.750	19.862	3.549	1.063
657.000	717.336	80.015	19.994	103.750	19.864	3.420	1.002
658.000	718.336	80.006	19.995	103.751	19.859	3.766	1.033
659.000	719.332	80.004	19.994	103.751	19.861	3.657	0.999
660.000	720.371	80.010	19.994	103.757	19.862	3.521	1.037
661.000	721.351	80.006	19.994	103.758	19.869	3.016	0.998
662.000	722.374	79.991	19.994	103.751	19.867	3.134	0.994
663.000	723.351	80.001	19.995	103.748	19.871	2.880	0.981
664.000	724.396	80.009	19.995	103.744	19.869	3.006	1.061
665.000	725.383	80.010	19.993	103.743	19.865	3.303	1.002
666.000	726.359	80.003	19.994	103.752	19.867	3.181	0.965
667.000	727.396	80.007	19.994	103.758	19.867	3.153	1.023
668.000	728.402	80.006	19.993	103.756	19.865	3.305	1.022
669.000	729.428	80.008	19.993	103.756	19.864	3.390	0.965
670.000	730.342	80.015	19.992	103.755	19.867	3.198	0.975
671.000	731.333	80.005	19.992	103.756	19.866	3.239	0.981
672.000	732.301	80.007	19.993	103.758	19.866	3.228	0.998
673.000	733.300	80.010	19.992	103.763	19.864	3.359	0.980
674.000	734.292	80.004	19.993	103.762	19.866	3.237	0.966
675.000	735.255	79.994	19.994	103.761	19.867	3.166	0.998
676.000	736.242	80.007	19.994	103.757	19.865	3.305	0.980
677.000	737.236	80.011	19.994	103.755	19.866	3.275	0.996
677.500	737.724	79.994	19.995	103.753	19.865	3.333	0.972