File: 01_Data/Bean_Bag_Chair_Outer_Cover/MCC/Bean_Bag_Chair_Outer_Cover_MCC_30K_min_220316_R4.txt
Sample ID:	C:\MCC\MCC Cal\Test\Bean_Bag_Chair_Outer_Cover\Bean_Bag_Chair_Outer_Cover_MCC_30K_min_220316_R4.txt
Sample Weight (mg):	4.58
Heating Rate (C/s):	0.5
Combustor Temp (C):	900
N2 Flow Rate (cc/min):	80
O2 Flow Rate (cc/min):	20
Calibration File:	C:\MCC\MCC Cal\Coeff1 JN10440_30_210304.txt.txt
T Correction Coefficients:	0	1.024463	0
Time Shift (s):	14
*
Time (s)	Temperature (C)	N2 flow rate (cc/min)	O2 flow rate (cc/min)	Flow Rate (cc/min)	Oxygen (%)	HRR (W/g)	Heating rate (C/s)
-0.001	107.609	80.006	19.995	103.694	19.983	0.252	-0.000
2.000	107.582	80.006	19.994	103.693	19.983	0.231	-0.027
4.000	107.593	80.008	19.995	103.694	19.980	0.473	-0.024
6.000	107.574	80.008	19.994	103.707	19.987	-0.056	-0.007
8.000	107.559	80.008	19.993	103.706	19.979	0.523	-0.004
9.999	107.569	80.007	19.992	103.713	19.981	0.408	0.002
11.999	107.559	80.007	19.993	103.714	19.976	0.728	0.002
14.000	107.549	80.007	19.993	103.729	19.972	0.992	-0.012
16.000	107.609	80.007	19.993	103.748	19.973	0.953	0.021
18.000	107.595	80.005	19.992	103.736	19.979	0.508	-0.044
20.000	107.651	80.005	19.993	103.747	19.974	0.846	0.000
22.000	107.734	80.004	19.991	103.769	19.972	0.990	0.033
24.000	107.786	80.005	19.993	103.781	19.970	1.133	0.030
26.000	107.831	80.007	19.992	103.793	19.965	1.513	0.005
28.000	107.973	80.005	19.992	103.815	19.966	1.428	0.070
30.000	108.049	80.006	19.992	103.839	19.960	1.871	0.061
32.000	108.198	80.006	19.994	103.845	19.955	2.225	0.094
33.999	108.358	80.006	19.994	103.870	19.956	2.170	0.067
35.999	108.601	80.005	19.993	103.878	19.947	2.796	0.113
37.999	108.830	80.006	19.993	103.885	19.951	2.473	0.126
39.999	109.078	80.005	19.993	103.868	19.951	2.498	0.132
41.999	109.367	80.007	19.996	103.868	19.948	2.702	0.164
43.999	109.656	80.007	19.993	103.870	19.949	2.653	0.140
45.999	109.987	80.007	19.992	103.869	19.954	2.307	0.175
47.999	110.330	80.008	19.994	103.897	19.949	2.678	0.169
49.999	110.648	80.005	19.993	103.900	19.949	2.624	0.154
51.999	111.034	80.006	19.995	103.901	19.949	2.673	0.180
53.999	111.458	80.006	19.993	103.927	19.941	3.230	0.213
56.001	111.838	80.007	19.994	103.937	19.939	3.376	0.207
57.999	112.335	80.007	19.994	103.920	19.941	3.240	0.238
60.000	112.849	80.007	19.994	103.945	19.939	3.348	0.220
62.000	113.370	80.006	19.995	103.946	19.933	3.766	0.280
64.000	113.912	80.006	19.993	103.955	19.934	3.707	0.254
65.999	114.447	80.007	19.994	103.949	19.936	3.550	0.271
67.999	114.973	80.009	19.993	103.952	19.935	3.662	0.280
69.999	115.565	80.008	19.995	103.960	19.935	3.670	0.261
71.999	116.186	80.008	19.993	103.957	19.936	3.591	0.298
73.999	116.805	80.008	19.996	103.963	19.930	4.003	0.347
75.999	117.477	80.007	19.995	103.965	19.930	3.961	0.298
77.999	118.152	80.007	19.993	103.962	19.927	4.204	0.313
79.999	118.787	80.006	19.994	103.961	19.932	3.848	0.352
81.999	119.531	80.005	19.993	103.960	19.928	4.124	0.362
83.999	120.282	80.004	19.994	103.957	19.930	4.010	0.384
85.999	121.024	80.007	19.995	103.961	19.928	4.157	0.386
88.000	121.777	80.006	19.994	103.974	19.930	4.029	0.363
90.000	122.556	80.007	19.994	103.974	19.926	4.244	0.401
91.999	123.372	80.009	19.994	103.982	19.923	4.525	0.411
94.000	124.196	80.009	19.995	103.975	19.924	4.449	0.424
95.999	124.969	80.008	19.994	103.981	19.926	4.291	0.414
97.999	125.793	80.010	19.995	103.975	19.926	4.249	0.408
99.999	126.637	80.009	19.993	103.955	19.927	4.191	0.377
101.999	127.500	80.008	19.993	103.964	19.923	4.509	0.417
103.999	128.355	80.008	19.993	103.963	19.923	4.461	0.431
105.999	129.231	80.007	19.992	103.965	19.923	4.491	0.415
107.999	130.109	80.008	19.995	103.976	19.925	4.353	0.415
110.000	131.023	80.007	19.994	103.976	19.926	4.293	0.442
111.999	131.952	80.006	19.994	103.972	19.925	4.345	0.436
113.999	132.820	80.008	19.993	103.967	19.925	4.318	0.419
115.999	133.767	80.006	19.993	103.962	19.923	4.507	0.466
117.999	134.676	80.006	19.993	103.965	19.923	4.514	0.449
119.999	135.623	80.005	19.994	103.974	19.922	4.570	0.483
121.999	136.564	80.006	19.994	103.970	19.923	4.503	0.465
123.999	137.519	80.008	19.993	103.964	19.923	4.493	0.458
125.999	138.497	80.006	19.993	103.968	19.922	4.561	0.453
128.000	139.432	80.007	19.994	103.959	19.923	4.484	0.491
130.000	140.438	80.006	19.994	103.956	19.925	4.315	0.481
132.000	141.403	80.007	19.993	103.963	19.924	4.425	0.482
134.000	142.325	80.006	19.994	103.956	19.924	4.443	0.486
136.000	143.338	80.005	19.993	103.965	19.923	4.460	0.466
138.000	144.367	80.005	19.993	103.970	19.926	4.298	0.518
140.000	145.316	80.005	19.993	103.950	19.923	4.502	0.482
142.000	146.316	80.005	19.994	103.950	19.924	4.418	0.478
144.000	147.296	80.005	19.994	103.950	19.926	4.300	0.495
146.000	148.275	80.006	19.994	103.952	19.919	4.778	0.470
148.000	149.340	80.007	19.994	103.949	19.927	4.236	0.490
150.000	150.321	80.006	19.993	103.949	19.922	4.539	0.496
152.000	151.318	80.007	19.994	103.949	19.919	4.795	0.503
154.000	152.324	80.008	19.994	103.948	19.923	4.500	0.493
156.000	153.340	80.008	19.996	103.947	19.926	4.290	0.505
158.000	154.289	80.007	19.994	103.946	19.923	4.485	0.493
160.000	155.258	80.006	19.994	103.945	19.920	4.676	0.461
162.000	156.289	80.008	19.995	103.944	19.922	4.566	0.501
164.000	157.270	80.006	19.994	103.944	19.921	4.606	0.506
166.000	158.197	80.006	19.994	103.945	19.922	4.529	0.473
168.000	159.269	80.006	19.996	103.945	19.921	4.604	0.520
170.000	160.245	80.006	19.996	103.944	19.924	4.386	0.484
172.000	161.233	80.008	19.995	103.943	19.922	4.533	0.520
174.000	162.220	80.008	19.993	103.937	19.924	4.418	0.507
176.000	163.207	80.010	19.993	103.938	19.923	4.480	0.484
178.000	164.196	80.009	19.995	103.943	19.924	4.435	0.523
180.000	165.232	80.008	19.995	103.930	19.927	4.186	0.517
182.000	166.257	80.008	19.995	103.914	19.927	4.204	0.487
184.000	167.277	80.007	19.996	103.907	19.924	4.416	0.510
186.000	168.281	80.007	19.996	103.917	19.924	4.428	0.512
188.000	169.239	80.006	19.994	103.914	19.923	4.460	0.473
190.000	170.251	80.007	19.993	103.907	19.924	4.422	0.492
192.000	171.240	80.006	19.994	103.908	19.922	4.547	0.477
194.000	172.253	80.007	19.993	103.912	19.924	4.405	0.518
196.000	173.223	80.005	19.994	103.917	19.925	4.316	0.504
198.000	174.152	80.006	19.994	103.915	19.924	4.431	0.468
200.000	175.184	80.007	19.993	103.912	19.922	4.534	0.514
202.000	176.162	80.007	19.994	103.915	19.925	4.350	0.486
204.000	177.140	80.006	19.994	103.915	19.924	4.449	0.467
206.000	178.121	80.006	19.993	103.914	19.926	4.312	0.490
208.000	179.116	80.006	19.994	103.910	19.923	4.510	0.474
210.000	180.099	80.006	19.994	103.911	19.920	4.701	0.491
212.000	181.091	80.008	19.994	103.910	19.924	4.455	0.471
214.000	182.067	80.004	19.993	103.910	19.922	4.551	0.491
216.000	183.032	80.007	19.993	103.911	19.924	4.416	0.477
218.000	184.011	80.006	19.994	103.914	19.922	4.535	0.521
220.000	184.981	80.008	19.993	103.911	19.922	4.551	0.506
222.000	186.008	80.006	19.993	103.911	19.924	4.398	0.519
224.000	186.984	80.006	19.993	103.910	19.922	4.582	0.496
226.000	187.971	80.006	19.992	103.907	19.924	4.451	0.486
228.000	188.959	80.006	19.994	103.908	19.925	4.352	0.488
230.000	189.922	80.006	19.992	103.908	19.924	4.452	0.528
232.000	190.901	80.007	19.994	103.908	19.924	4.398	0.502
234.000	191.879	80.008	19.994	103.906	19.924	4.395	0.474
236.000	192.886	80.008	19.994	103.906	19.923	4.504	0.505
238.000	193.881	80.009	19.992	103.906	19.924	4.445	0.496
240.000	194.810	80.010	19.993	103.906	19.927	4.175	0.473
242.000	195.851	80.008	19.993	103.906	19.924	4.398	0.486
244.000	196.761	80.008	19.993	103.906	19.922	4.593	0.478
246.000	197.791	80.008	19.993	103.907	19.921	4.601	0.498
248.000	198.805	80.008	19.995	103.905	19.923	4.470	0.509
250.000	199.748	80.008	19.993	103.906	19.919	4.745	0.467
252.000	200.721	80.009	19.995	103.904	19.918	4.828	0.509
254.000	201.722	80.010	19.992	103.906	19.921	4.597	0.502
256.000	202.680	80.007	19.994	103.904	19.920	4.715	0.479
258.000	203.668	80.007	19.993	103.905	19.920	4.718	0.506
260.000	204.652	80.008	19.994	103.905	19.922	4.568	0.483
262.000	205.636	80.008	19.994	103.902	19.919	4.794	0.511
264.000	206.587	80.009	19.995	103.906	19.915	5.065	0.494
266.000	207.577	80.008	19.993	103.907	19.917	4.944	0.470
268.000	208.561	80.008	19.994	103.906	19.919	4.799	0.494
270.000	209.564	80.006	19.993	103.908	19.918	4.857	0.494
272.000	210.519	80.005	19.994	103.909	19.920	4.724	0.498
274.000	211.560	80.008	19.994	103.908	19.915	5.054	0.518
276.000	212.441	80.006	19.996	103.908	19.914	5.106	0.492
278.000	213.405	80.006	19.994	103.907	19.914	5.119	0.472
280.000	214.436	80.005	19.995	103.909	19.917	4.947	0.486
282.000	215.404	80.006	19.995	103.907	19.911	5.367	0.464
284.000	216.400	80.007	19.996	103.904	19.916	4.970	0.476
286.000	217.410	80.007	19.993	103.908	19.915	5.020	0.506
288.000	218.407	80.007	19.994	103.908	19.913	5.162	0.496
290.000	219.341	80.007	19.994	103.905	19.915	5.034	0.476
292.000	220.366	80.006	19.995	103.888	19.914	5.156	0.511
294.000	221.330	80.006	19.995	103.884	19.914	5.126	0.478
296.000	222.348	80.006	19.993	103.877	19.916	5.001	0.492
298.000	223.311	80.008	19.992	103.883	19.916	5.016	0.495
300.000	224.302	80.007	19.995	103.884	19.917	4.925	0.482
302.000	225.288	80.007	19.992	103.883	19.911	5.318	0.489
304.000	226.281	80.006	19.993	103.878	19.913	5.211	0.493
306.000	227.216	80.006	19.993	103.878	19.913	5.176	0.486
308.000	228.227	80.007	19.993	103.883	19.915	5.027	0.497
310.000	229.235	80.005	19.993	103.878	19.914	5.112	0.509
312.000	230.221	80.005	19.994	103.877	19.914	5.097	0.518
314.000	231.164	80.008	19.993	103.877	19.912	5.235	0.443
316.000	232.162	80.008	19.994	103.891	19.911	5.356	0.464
318.000	233.155	80.010	19.993	103.883	19.911	5.360	0.487
320.000	234.104	80.007	19.994	103.880	19.913	5.189	0.486
322.000	235.069	80.008	19.994	103.881	19.910	5.405	0.474
324.000	236.069	80.008	19.994	103.886	19.910	5.394	0.494
326.000	237.048	80.007	19.993	103.884	19.907	5.602	0.521
328.000	237.967	80.008	19.993	103.901	19.908	5.558	0.456
330.000	238.944	80.008	19.993	103.883	19.908	5.552	0.491
332.000	239.923	80.008	19.993	103.879	19.909	5.490	0.466
334.000	240.896	80.008	19.993	103.881	19.909	5.452	0.468
336.000	241.877	80.008	19.994	103.885	19.906	5.672	0.506
338.000	242.846	80.010	19.993	103.893	19.907	5.593	0.503
340.000	243.838	80.007	19.993	103.891	19.904	5.857	0.471
342.000	244.828	80.003	19.994	103.883	19.906	5.671	0.468
344.000	245.857	80.011	19.992	103.889	19.904	5.834	0.515
346.000	246.846	80.008	19.992	103.892	19.904	5.841	0.525
348.000	247.816	80.008	19.994	103.904	19.905	5.779	0.494
350.000	248.842	80.009	19.993	103.898	19.901	6.068	0.508
352.000	249.848	80.008	19.993	103.905	19.900	6.151	0.504
354.000	250.855	80.009	19.994	103.908	19.901	6.024	0.520
356.000	251.890	80.006	19.995	103.897	19.899	6.191	0.495
358.000	252.929	80.009	19.992	103.888	19.899	6.152	0.532
360.000	253.901	80.008	19.996	103.882	19.898	6.259	0.509
362.000	254.930	80.009	19.992	103.880	19.896	6.392	0.512
364.000	255.928	80.007	19.993	103.874	19.894	6.529	0.497
366.000	256.954	80.007	19.994	103.880	19.896	6.398	0.528
368.000	257.988	80.006	19.994	103.870	19.899	6.184	0.517
370.000	258.986	80.006	19.997	103.879	19.890	6.841	0.513
372.000	260.047	80.008	19.996	103.882	19.887	7.023	0.487
374.000	261.054	80.007	19.995	103.885	19.894	6.564	0.492
376.000	262.011	80.008	19.994	103.876	19.890	6.794	0.496
378.000	263.079	80.014	19.994	103.880	19.887	7.025	0.493
380.000	264.098	80.008	19.994	103.885	19.889	6.864	0.500
382.000	265.124	80.006	19.995	103.891	19.887	7.023	0.504
384.000	266.067	79.985	19.996	103.901	19.886	7.109	0.493
386.000	267.128	80.017	19.991	103.897	19.885	7.201	0.523
388.000	268.112	80.004	19.995	103.886	19.881	7.457	0.506
390.000	269.106	80.003	19.998	103.877	19.886	7.128	0.481
392.000	270.131	80.015	19.993	103.890	19.880	7.510	0.497
394.000	271.168	80.006	19.995	103.896	19.879	7.592	0.527
396.000	272.207	80.014	19.992	103.878	19.879	7.621	0.498
398.000	273.182	80.009	19.994	103.880	19.873	8.017	0.490
400.000	274.158	80.003	19.994	103.878	19.869	8.339	0.496
402.000	275.171	80.009	19.992	103.892	19.870	8.214	0.524
404.000	276.181	80.009	19.993	103.889	19.867	8.435	0.494
406.000	277.181	80.012	19.995	103.902	19.860	8.978	0.494
408.000	278.163	80.009	19.992	103.908	19.862	8.817	0.472
410.000	279.148	80.009	19.995	103.910	19.858	9.084	0.459
412.000	280.159	80.007	19.991	103.910	19.855	9.290	0.504
414.000	281.122	80.004	19.994	103.904	19.850	9.682	0.463
416.000	282.116	80.010	19.994	103.910	19.852	9.531	0.494
418.000	283.144	80.009	19.992	103.910	19.851	9.598	0.509
420.000	284.129	80.010	19.995	103.911	19.846	9.926	0.491
422.000	285.082	80.011	19.992	103.907	19.843	10.134	0.480
424.000	286.082	80.018	19.992	103.906	19.837	10.601	0.489
426.000	287.097	80.015	19.992	103.907	19.833	10.850	0.532
428.000	288.077	80.007	19.993	103.904	19.830	11.070	0.433
430.000	289.092	80.010	19.993	103.898	19.825	11.442	0.501
432.000	290.050	80.012	19.993	103.904	19.823	11.546	0.485
434.000	291.079	80.007	19.991	103.907	19.814	12.219	0.527
436.000	292.083	80.009	19.993	103.910	19.815	12.164	0.479
438.000	293.055	80.010	19.995	103.909	19.813	12.243	0.453
440.000	294.076	80.004	19.994	103.906	19.804	12.925	0.503
442.000	295.061	80.010	19.994	103.921	19.800	13.224	0.481
444.000	296.046	80.001	19.996	103.914	19.793	13.692	0.524
446.000	297.054	80.012	19.991	103.917	19.787	14.144	0.497
448.000	298.036	80.007	19.994	103.923	19.784	14.342	0.517
450.000	299.017	80.015	19.994	103.914	19.779	14.656	0.509
452.000	300.011	80.010	19.993	103.929	19.769	15.384	0.515
454.000	301.019	80.006	19.995	103.944	19.763	15.842	0.483
456.000	301.996	80.007	19.995	103.949	19.759	16.080	0.484
458.000	303.009	80.014	19.994	103.948	19.755	16.424	0.513
460.000	303.955	79.995	20.000	103.944	19.746	17.038	0.492
462.000	304.946	80.000	19.994	103.948	19.736	17.703	0.457
464.000	306.010	80.011	19.990	103.952	19.729	18.249	0.546
466.000	306.987	79.995	19.993	103.960	19.718	19.007	0.528
468.000	307.985	80.003	19.996	103.959	19.710	19.590	0.498
470.000	308.995	80.005	19.994	103.960	19.703	20.095	0.497
472.000	310.006	80.011	19.995	103.962	19.690	21.000	0.506
474.000	310.984	80.012	19.994	103.979	19.678	21.884	0.473
476.000	312.005	80.002	19.995	103.982	19.666	22.731	0.484
478.000	312.997	80.011	19.993	103.983	19.654	23.554	0.485
480.000	313.987	80.013	19.991	103.987	19.637	24.763	0.489
482.000	314.988	80.009	19.992	103.987	19.629	25.346	0.528
484.000	315.989	80.007	20.002	103.985	19.611	26.595	0.499
486.000	316.970	80.007	19.992	103.996	19.598	27.524	0.500
488.000	317.971	80.004	19.997	104.017	19.582	28.686	0.510
490.000	318.981	80.014	19.993	104.016	19.565	29.899	0.510
492.000	320.013	80.024	19.990	104.029	19.544	31.374	0.513
494.000	320.990	80.013	19.994	104.043	19.522	32.931	0.498
496.000	322.023	80.023	19.994	104.058	19.503	34.305	0.524
498.000	323.047	80.009	19.994	104.063	19.476	36.195	0.539
500.000	324.031	80.014	19.995	104.068	19.455	37.707	0.512
502.000	325.063	80.012	19.990	104.082	19.430	39.462	0.523
504.000	326.116	80.012	19.991	104.093	19.406	41.166	0.510
506.000	327.094	80.025	19.993	104.099	19.379	43.130	0.515
508.000	328.073	79.999	19.997	104.100	19.350	45.190	0.509
510.000	329.046	80.012	19.995	104.113	19.321	47.200	0.499
512.000	330.099	80.017	19.995	104.137	19.286	49.759	0.510
514.000	331.116	80.013	19.993	104.146	19.254	51.982	0.532
516.000	332.104	80.013	19.996	104.164	19.219	54.475	0.474
518.000	333.164	80.009	19.991	104.175	19.183	57.046	0.530
520.000	334.189	79.989	19.994	104.184	19.142	59.946	0.495
522.000	335.265	80.015	20.000	104.210	19.111	62.172	0.525
524.000	336.310	80.010	19.992	104.223	19.067	65.356	0.533
526.000	337.256	79.998	19.993	104.234	19.027	68.179	0.511
528.000	338.282	80.000	19.995	104.264	18.988	70.951	0.537
530.000	339.308	80.011	19.995	104.260	18.943	74.217	0.508
532.000	340.332	80.005	19.995	104.282	18.897	77.483	0.487
534.000	341.314	79.989	19.991	104.300	18.852	80.673	0.461
536.000	342.343	80.016	19.994	104.321	18.808	83.848	0.489
538.000	343.323	80.002	19.992	104.336	18.760	87.261	0.480
540.000	344.316	80.000	19.996	104.356	18.715	90.425	0.484
542.000	345.310	80.004	19.996	104.379	18.664	94.040	0.487
544.000	346.362	80.008	19.995	104.373	18.621	97.131	0.494
546.000	347.313	80.019	19.992	104.387	18.571	100.729	0.489
548.000	348.331	80.005	19.991	104.418	18.525	104.010	0.498
550.000	349.326	80.010	19.999	104.421	18.476	107.510	0.490
552.000	350.324	80.006	19.994	104.417	18.437	110.236	0.505
554.000	351.326	79.998	19.999	104.434	18.393	113.408	0.500
556.000	352.358	80.012	19.994	104.450	18.353	116.217	0.536
558.000	353.331	80.015	19.991	104.457	18.312	119.160	0.525
560.000	354.312	80.007	19.995	104.464	18.279	121.507	0.502
562.000	355.309	79.999	19.998	104.471	18.244	123.974	0.458
564.000	356.331	80.009	19.995	104.461	18.213	126.222	0.498
566.000	357.322	80.025	19.994	104.469	18.192	127.660	0.492
568.000	358.349	80.018	19.990	104.465	18.163	129.678	0.511
570.000	359.327	80.006	19.996	104.459	18.148	130.732	0.500
572.000	360.296	80.008	19.991	104.457	18.135	131.646	0.468
574.000	361.339	80.014	19.993	104.457	18.123	132.528	0.535
576.000	362.306	80.008	19.996	104.447	18.125	132.347	0.486
578.000	363.294	80.007	19.994	104.428	18.124	132.400	0.481
580.000	364.322	80.010	19.994	104.417	18.137	131.435	0.504
582.000	365.297	80.007	19.997	104.410	18.153	130.217	0.501
584.000	366.322	80.008	19.994	104.389	18.171	128.952	0.532
586.000	367.331	80.006	19.992	104.365	18.202	126.691	0.505
588.000	368.271	80.004	19.999	104.344	18.237	124.152	0.473
590.000	369.327	80.011	19.995	104.329	18.278	121.230	0.493
592.000	370.338	80.011	19.989	104.293	18.327	117.719	0.484
594.000	371.359	80.007	19.996	104.265	18.377	114.121	0.510
596.000	372.366	80.012	19.990	104.240	18.435	110.021	0.517
598.000	373.398	80.003	19.993	104.205	18.501	105.310	0.494
600.000	374.399	80.006	19.997	104.178	18.574	100.061	0.501
602.000	375.396	80.009	19.993	104.148	18.641	95.338	0.508
604.000	376.416	80.012	19.991	104.119	18.715	90.055	0.498
606.000	377.437	80.011	19.994	104.092	18.792	84.608	0.535
608.000	378.464	80.016	19.992	104.068	18.863	79.560	0.501
610.000	379.459	80.002	19.995	104.037	18.941	74.047	0.537
612.000	380.498	80.013	19.994	104.026	19.010	69.135	0.532
614.000	381.492	80.012	19.995	104.000	19.082	63.985	0.478
616.000	382.456	80.005	19.994	103.972	19.155	58.827	0.484
618.000	383.477	80.007	19.997	103.948	19.221	54.163	0.506
620.000	384.494	80.007	19.993	103.937	19.290	49.276	0.509
622.000	385.548	80.008	19.995	103.917	19.355	44.669	0.541
624.000	386.512	80.003	20.000	103.907	19.410	40.740	0.504
626.000	387.525	80.003	19.988	103.883	19.467	36.763	0.512
628.000	388.532	80.004	19.996	103.867	19.515	33.351	0.516
630.000	389.544	80.000	19.996	103.858	19.567	29.693	0.517
632.000	390.541	80.009	19.995	103.863	19.606	26.882	0.534
634.000	391.570	80.007	19.995	103.846	19.645	24.127	0.518
636.000	392.567	80.005	19.998	103.832	19.684	21.390	0.504
638.000	393.593	80.006	20.001	103.839	19.712	19.415	0.485
640.000	394.631	80.007	19.997	103.827	19.742	17.290	0.459
642.000	395.624	80.003	19.991	103.829	19.764	15.745	0.476
644.000	396.654	80.007	20.002	103.828	19.786	14.178	0.494
646.000	397.639	80.008	19.992	103.827	19.806	12.735	0.484
648.000	398.648	80.005	19.994	103.831	19.821	11.704	0.507
650.000	399.646	80.008	19.993	103.829	19.833	10.861	0.493
652.000	400.620	80.007	19.999	103.830	19.845	10.033	0.454
654.000	401.625	80.012	19.993	103.832	19.851	9.563	0.479
656.000	402.692	80.010	19.995	103.829	19.858	9.060	0.510
658.000	403.679	80.005	19.997	103.831	19.859	9.020	0.526
660.000	404.695	80.009	19.996	103.826	19.863	8.725	0.480
662.000	405.675	80.010	19.995	103.831	19.864	8.694	0.493
664.000	406.688	80.006	19.995	103.828	19.868	8.375	0.509
666.000	407.706	80.007	19.996	103.828	19.869	8.296	0.482
668.000	408.733	80.008	19.995	103.831	19.871	8.168	0.518
670.000	409.744	80.008	19.994	103.827	19.874	7.921	0.502
672.000	410.723	80.007	19.995	103.829	19.871	8.185	0.502
674.000	411.752	80.007	19.995	103.830	19.875	7.914	0.525
676.000	412.718	80.007	19.994	103.833	19.875	7.846	0.474
678.000	413.734	80.012	19.991	103.829	19.872	8.076	0.499
680.000	414.716	80.008	19.994	103.828	19.871	8.172	0.478
682.000	415.735	80.009	19.996	103.827	19.875	7.850	0.522
684.000	416.698	80.011	19.994	103.828	19.874	7.962	0.491
686.000	417.722	80.010	19.995	103.829	19.876	7.823	0.522
688.000	418.737	80.011	19.995	103.827	19.876	7.777	0.512
690.000	419.719	80.010	19.993	103.826	19.874	7.964	0.486
692.000	420.742	80.010	19.996	103.829	19.874	7.927	0.521
694.000	421.713	80.004	19.993	103.829	19.874	7.939	0.483
696.000	422.747	80.008	19.991	103.826	19.874	7.935	0.539
698.000	423.687	80.004	19.995	103.826	19.875	7.860	0.458
700.000	424.715	80.007	19.993	103.825	19.873	7.996	0.504
702.000	425.716	80.008	19.994	103.827	19.876	7.783	0.509
704.000	426.704	80.008	19.995	103.827	19.873	8.045	0.493
706.000	427.705	80.007	19.993	103.828	19.872	8.107	0.497
708.000	428.726	80.008	19.995	103.828	19.873	8.049	0.492
710.000	429.723	80.009	19.994	103.823	19.871	8.153	0.503
712.000	430.739	80.012	19.991	103.830	19.871	8.157	0.494
714.000	431.724	80.006	19.994	103.833	19.871	8.130	0.519
716.000	432.750	80.007	19.995	103.830	19.875	7.887	0.519
718.000	433.730	80.006	19.994	103.831	19.871	8.188	0.492
720.000	434.764	80.007	19.993	103.831	19.871	8.200	0.520
722.000	435.779	80.005	19.994	103.832	19.871	8.155	0.527
724.000	436.822	80.007	19.992	103.834	19.873	8.005	0.524
726.000	437.808	80.006	19.994	103.834	19.875	7.857	0.516
728.000	438.832	80.007	19.994	103.833	19.876	7.833	0.510
730.000	439.840	80.007	19.994	103.845	19.877	7.772	0.499
732.000	440.833	80.007	19.994	103.835	19.875	7.862	0.499
734.000	441.821	80.009	19.994	103.831	19.873	8.010	0.486
736.000	442.927	80.009	19.994	103.835	19.875	7.914	0.512
738.000	443.911	80.010	19.993	103.829	19.873	7.991	0.521
740.000	444.958	80.008	19.995	103.829	19.873	8.008	0.557
742.000	445.969	80.008	19.995	103.830	19.872	8.077	0.506
744.000	446.916	80.008	19.994	103.828	19.872	8.116	0.505
746.000	447.982	80.009	19.994	103.827	19.871	8.197	0.521
748.000	448.947	80.009	19.994	103.826	19.873	8.035	0.510
750.000	449.935	80.008	19.993	103.825	19.872	8.121	0.470
752.000	450.940	80.009	19.994	103.827	19.870	8.248	0.498
754.000	451.928	80.009	19.994	103.823	19.876	7.792	0.499
756.000	452.948	80.010	19.995	103.826	19.874	7.985	0.495
758.000	453.940	80.010	19.993	103.826	19.875	7.891	0.530
760.000	454.930	80.010	19.995	103.820	19.874	7.959	0.506
762.000	455.976	80.011	19.993	103.813	19.870	8.255	0.520
764.000	456.982	80.009	19.995	103.824	19.872	8.079	0.517
766.000	457.955	80.009	19.993	103.825	19.872	8.072	0.514
768.000	458.988	80.009	19.996	103.825	19.873	8.029	0.520
770.000	460.009	80.007	19.994	103.823	19.875	7.874	0.501
772.000	460.962	80.006	19.994	103.819	19.874	7.976	0.500
774.000	461.997	80.007	19.995	103.824	19.871	8.153	0.519
776.000	463.009	80.008	19.994	103.820	19.872	8.128	0.522
778.000	463.970	80.008	19.994	103.828	19.873	8.028	0.504
780.000	464.990	80.007	19.994	103.828	19.873	8.056	0.497
782.000	465.980	80.008	19.993	103.830	19.871	8.197	0.508
784.000	466.963	80.008	19.993	103.829	19.877	7.760	0.505
786.000	467.949	80.007	19.994	103.829	19.875	7.860	0.505
788.000	468.908	80.007	19.993	103.828	19.872	8.105	0.469
790.000	469.929	80.007	19.994	103.826	19.874	7.975	0.512
792.000	470.949	80.008	19.993	103.822	19.874	7.922	0.491
794.000	471.950	80.007	19.995	103.828	19.873	8.041	0.493
796.000	472.940	80.007	19.994	103.830	19.871	8.147	0.497
798.000	473.971	80.008	19.994	103.831	19.870	8.214	0.512
800.000	475.021	80.006	19.994	103.829	19.871	8.158	0.521
802.000	475.963	80.007	19.993	103.824	19.872	8.097	0.488
804.000	476.969	80.007	19.993	103.832	19.875	7.865	0.488
806.000	478.002	80.006	19.994	103.830	19.873	8.029	0.527
808.000	479.001	80.006	19.993	103.833	19.872	8.061	0.509
810.000	479.997	80.008	19.993	103.825	19.871	8.129	0.508
812.000	480.970	80.008	19.994	103.823	19.874	7.962	0.480
814.000	481.981	80.008	19.993	103.822	19.872	8.105	0.466
816.000	482.985	80.008	19.993	103.820	19.871	8.144	0.503
818.000	483.988	80.009	19.994	103.820	19.872	8.086	0.510
820.000	485.001	80.008	19.994	103.823	19.873	7.998	0.502
822.000	486.015	80.010	19.993	103.824	19.873	8.033	0.488
824.000	487.006	80.009	19.993	103.816	19.872	8.068	0.480
826.000	488.000	80.008	19.994	103.811	19.873	7.992	0.490
828.000	489.064	80.009	19.996	103.819	19.871	8.133	0.539
830.000	490.045	80.009	19.995	103.811	19.874	7.949	0.508
832.000	491.055	80.008	19.995	103.821	19.874	7.958	0.497
834.000	492.084	80.009	19.994	103.825	19.874	7.962	0.500
836.000	493.086	80.008	19.994	103.825	19.873	8.033	0.512
838.000	494.151	80.009	19.995	103.820	19.872	8.062	0.536
840.000	495.205	80.009	19.994	103.826	19.874	7.933	0.515
842.000	496.200	80.011	19.994	103.827	19.874	7.936	0.512
844.000	497.188	80.010	19.994	103.825	19.870	8.243	0.486
846.000	498.230	80.010	19.994	103.825	19.872	8.064	0.549
848.000	499.251	80.010	19.995	103.826	19.873	8.031	0.488
850.000	500.275	80.009	19.994	103.826	19.872	8.098	0.517
852.000	501.259	80.008	19.994	103.819	19.869	8.289	0.473
854.000	502.320	80.007	19.995	103.824	19.872	8.111	0.513
856.000	503.332	80.006	19.995	103.814	19.879	7.614	0.492
858.000	504.329	80.007	19.994	103.799	19.870	8.215	0.482
860.000	505.375	80.007	19.995	103.810	19.875	7.910	0.500
862.000	506.393	80.005	19.994	103.820	19.873	8.008	0.502
864.000	507.446	80.006	19.995	103.817	19.874	7.933	0.496
866.000	508.438	80.006	19.994	103.811	19.872	8.060	0.494
868.000	509.511	80.006	19.995	103.801	19.875	7.908	0.507
870.000	510.508	80.008	19.993	103.819	19.874	7.952	0.491
872.000	511.473	80.009	19.992	103.827	19.877	7.721	0.529
874.000	512.500	80.008	19.993	103.823	19.877	7.732	0.456
876.000	513.558	80.008	19.994	103.826	19.874	7.934	0.500
878.000	514.599	80.009	19.993	103.826	19.871	8.128	0.569
880.000	515.639	80.007	19.995	103.823	19.873	8.020	0.513
882.000	516.640	80.008	19.994	103.822	19.876	7.842	0.481
884.000	517.683	80.008	19.996	103.821	19.871	8.128	0.524
886.000	518.709	80.007	19.993	103.810	19.872	8.104	0.514
888.000	519.745	80.008	19.994	103.810	19.871	8.128	0.486
890.000	520.737	80.008	19.995	103.802	19.868	8.387	0.528
892.000	521.766	80.006	19.995	103.799	19.871	8.174	0.492
894.000	522.785	80.006	19.994	103.806	19.869	8.286	0.504
896.000	523.817	80.007	19.994	103.809	19.874	7.953	0.532
898.000	524.817	80.009	19.993	103.802	19.867	8.473	0.546
900.000	525.815	80.009	19.994	103.798	19.875	7.898	0.537
902.000	526.846	80.009	19.994	103.800	19.872	8.060	0.492
904.000	527.787	80.010	19.993	103.807	19.872	8.116	0.461
906.000	528.886	80.010	19.993	103.802	19.872	8.089	0.579
908.000	529.677	80.008	19.993	103.818	19.871	8.128	0.401
910.000	531.302	80.010	19.993	103.800	19.871	8.182	0.565
912.000	532.016	80.008	19.992	103.798	19.871	8.166	0.627
914.000	532.930	80.008	19.993	103.802	19.871	8.130	0.969
916.000	533.797	80.008	19.993	103.800	19.871	8.175	0.581
918.000	534.965	80.007	19.993	103.803	19.873	8.035	0.416
920.000	535.967	80.009	19.995	103.812	19.872	8.070	0.481
922.000	536.977	80.011	19.994	103.805	19.871	8.133	0.551
924.000	538.046	80.009	19.994	103.805	19.868	8.392	0.491
926.000	539.092	80.010	19.994	103.797	19.869	8.310	0.552
928.000	540.135	80.010	19.994	103.793	19.870	8.216	0.516
930.000	541.177	80.008	19.994	103.796	19.867	8.434	0.583
932.000	542.190	80.008	19.994	103.797	19.870	8.226	0.504
934.000	543.230	80.009	19.993	103.798	19.871	8.131	0.480
936.000	544.269	80.008	19.993	103.807	19.870	8.211	0.532
938.000	545.360	80.007	19.993	103.796	19.872	8.104	0.528
940.000	546.408	80.006	19.993	103.813	19.871	8.193	0.541
942.000	547.451	80.006	19.993	103.799	19.870	8.230	0.505
944.000	548.515	80.007	19.993	103.811	19.869	8.326	0.502
946.000	549.575	80.005	19.994	103.821	19.871	8.176	0.526
948.000	550.663	80.006	19.995	103.805	19.867	8.449	0.544
950.000	551.707	80.007	19.996	103.801	19.868	8.383	0.526
952.000	552.751	80.007	19.994	103.814	19.871	8.187	0.563
954.000	553.815	80.007	19.995	103.812	19.873	8.039	0.506
956.000	554.904	80.007	19.995	103.806	19.870	8.241	0.537
958.000	555.944	80.009	19.995	103.808	19.872	8.064	0.498
960.000	556.995	80.007	19.996	103.791	19.872	8.099	0.487
962.000	558.064	80.007	19.995	103.798	19.870	8.266	0.521
964.000	559.120	80.007	19.994	103.800	19.869	8.297	0.529
966.000	560.166	80.007	19.994	103.799	19.869	8.270	0.483
968.000	561.291	80.008	19.993	103.797	19.869	8.278	0.569
970.000	562.295	80.007	19.993	103.798	19.869	8.323	0.527
972.000	563.359	80.007	19.994	103.805	19.864	8.655	0.502
974.000	564.415	80.007	19.994	103.795	19.869	8.289	0.536
976.000	565.422	80.007	19.994	103.804	19.869	8.334	0.493
978.000	566.484	80.007	19.994	103.806	19.868	8.399	0.526
980.000	567.517	80.007	19.994	103.810	19.865	8.557	0.534
982.000	568.544	80.009	19.993	103.804	19.869	8.330	0.521
984.000	569.575	80.009	19.994	103.793	19.865	8.569	0.531
986.000	570.623	80.009	19.993	103.804	19.870	8.230	0.508
988.000	571.647	80.009	19.993	103.811	19.869	8.336	0.517
990.000	572.731	80.009	19.994	103.804	19.867	8.449	0.528
992.000	573.786	80.009	19.994	103.804	19.869	8.334	0.534
994.000	574.822	80.007	19.994	103.810	19.869	8.309	0.526
996.000	575.830	80.008	19.994	103.800	19.865	8.580	0.516
998.000	576.892	80.007	19.993	103.807	19.867	8.417	0.521
1000.000	577.942	80.007	19.993	103.799	19.869	8.278	0.525
1002.000	578.995	80.008	19.993	103.803	19.868	8.364	0.501
1004.000	579.986	80.008	19.992	103.802	19.868	8.379	0.533
1006.000	581.031	80.010	19.993	103.798	19.867	8.467	0.502
1008.000	582.102	80.010	19.994	103.807	19.866	8.543	0.520
1010.000	583.116	80.010	19.994	103.810	19.864	8.645	0.490
1012.000	584.190	80.011	19.992	103.799	19.866	8.505	0.536
1014.000	585.137	80.009	19.994	103.793	19.867	8.473	0.508
1016.000	586.185	80.009	19.994	103.788	19.865	8.554	0.511
1018.000	587.214	80.010	19.994	103.798	19.864	8.669	0.520
1020.000	588.194	80.007	19.995	103.794	19.865	8.618	0.482
1022.000	589.210	80.008	19.994	103.801	19.863	8.753	0.512
1024.000	590.232	80.009	19.994	103.793	19.866	8.531	0.523
1026.000	591.246	80.008	19.994	103.791	19.866	8.533	0.493
1027.999	592.274	80.007	19.995	103.788	19.865	8.567	0.489
1029.999	593.267	80.008	19.995	103.788	19.866	8.487	0.528
1031.999	594.340	80.009	19.993	103.791	19.865	8.553	0.539
1033.999	595.366	80.008	19.994	103.792	19.867	8.456	0.535
1035.999	596.410	80.008	19.993	103.796	19.864	8.637	0.508
1038.000	597.479	80.008	19.995	103.791	19.864	8.687	0.526
1039.999	598.521	80.008	19.994	103.789	19.864	8.621	0.522
1042.001	599.552	80.008	19.996	103.796	19.865	8.552	0.492
1043.999	600.628	80.007	19.994	103.797	19.868	8.391	0.539
1045.999	601.691	80.008	19.994	103.792	19.864	8.676	0.523
1048.001	602.744	80.007	19.995	103.790	19.864	8.683	0.516
1049.999	603.780	80.006	19.995	103.791	19.866	8.511	0.531
1051.999	604.832	80.006	19.996	103.790	19.865	8.618	0.519
1054.001	605.858	80.007	19.995	103.793	19.866	8.550	0.497
1055.999	606.931	80.007	19.995	103.794	19.867	8.475	0.518
1057.999	608.008	80.007	19.994	103.802	19.866	8.499	0.562
1059.999	609.076	80.008	19.995	103.806	19.867	8.472	0.519
1061.999	610.091	80.009	19.993	103.798	19.866	8.535	0.511
1063.999	611.173	80.008	19.994	103.792	19.864	8.691	0.538
1065.999	612.235	80.007	19.992	103.792	19.867	8.454	0.547
1068.000	613.285	80.009	19.995	103.794	19.865	8.608	0.513
1069.999	614.289	80.009	19.994	103.792	19.864	8.691	0.513
1071.999	615.384	80.009	19.992	103.792	19.862	8.787	0.511
1073.999	616.448	80.009	19.993	103.795	19.862	8.804	0.522
1076.000	617.535	80.009	19.994	103.788	19.861	8.885	0.510
1077.999	618.532	80.008	19.993	103.789	19.863	8.695	0.503
1079.999	619.569	80.007	19.993	103.789	19.862	8.805	0.533
1081.999	620.578	80.009	19.994	103.788	19.860	8.922	0.512
1083.999	621.632	80.010	19.992	103.788	19.864	8.689	0.485
1085.999	622.648	80.008	19.993	103.790	19.860	8.956	0.510
1087.999	623.678	80.010	19.993	103.793	19.862	8.806	0.496
1090.001	624.680	80.010	19.993	103.793	19.866	8.506	0.491
1091.999	625.700	80.010	19.993	103.792	19.862	8.820	0.501
1093.999	626.739	80.010	19.993	103.787	19.862	8.785	0.495
1095.999	627.759	80.011	19.993	103.788	19.865	8.569	0.502
1097.999	628.753	80.011	19.993	103.786	19.863	8.692	0.501
1099.999	629.733	80.009	19.994	103.787	19.863	8.762	0.497
1101.999	630.764	80.009	19.993	103.791	19.861	8.891	0.486
1104.000	631.707	80.008	19.993	103.793	19.861	8.847	0.480
1105.999	632.713	80.007	19.994	103.790	19.861	8.866	0.483
1107.999	633.673	80.008	19.993	103.788	19.858	9.109	0.511
1109.999	634.669	80.008	19.994	103.789	19.859	8.983	0.476
1111.999	635.670	80.008	19.993	103.792	19.858	9.099	0.499
1113.999	636.633	80.009	19.994	103.792	19.857	9.138	0.481
1115.999	637.584	80.008	19.994	103.790	19.857	9.124	0.479
1118.000	638.565	80.007	19.994	103.791	19.859	9.005	0.470
1119.999	639.516	80.007	19.994	103.790	19.857	9.139	0.473
1121.999	640.465	80.007	19.994	103.790	19.858	9.047	0.474
1123.999	641.426	80.007	19.993	103.790	19.856	9.201	0.488
1126.000	642.393	80.007	19.992	103.793	19.847	9.835	0.484
1128.001	643.322	80.007	19.995	103.794	19.860	8.935	0.474
1130.000	644.314	80.006	19.993	103.791	19.858	9.060	0.510
1132.000	645.242	80.008	19.995	103.791	19.856	9.207	0.487
1134.001	646.182	80.007	19.993	103.792	19.856	9.207	0.445
1135.999	647.206	80.007	19.994	103.791	19.860	8.908	0.516
1138.000	648.108	80.005	19.995	103.792	19.858	9.110	0.422
1140.000	648.331	80.007	19.994	103.788	19.871	8.138	-0.007
1141.999	650.099	80.007	19.995	103.787	19.854	9.392	0.377
1143.999	651.112	80.007	19.995	103.788	19.851	9.583	0.820
1145.999	652.130	80.007	19.995	103.788	19.856	9.240	0.670
1147.999	653.081	80.008	19.996	103.788	19.854	9.362	0.411
1149.999	654.149	80.008	19.994	103.789	19.857	9.184	0.533
1151.999	655.262	80.009	19.996	103.789	19.858	9.072	0.524
1153.999	656.856	80.010	19.994	103.794	19.858	9.112	0.976
1155.999	656.991	80.010	19.994	103.798	19.860	8.943	0.382
1158.000	658.205	80.009	19.993	103.795	19.861	8.891	0.803
1159.999	659.169	80.009	19.995	103.798	19.857	9.137	0.161
1162.000	660.101	80.008	19.993	103.788	19.860	8.960	0.460
1163.999	661.151	80.009	19.994	103.786	19.856	9.208	0.472
1165.999	662.149	80.008	19.995	103.787	19.856	9.241	0.503
1168.000	663.127	80.009	19.993	103.788	19.856	9.253	0.504
1169.999	664.085	80.009	19.994	103.788	19.858	9.091	0.489
1172.000	665.103	80.009	19.994	103.789	19.857	9.138	0.507
1173.999	666.064	80.010	19.993	103.788	19.856	9.236	0.471
1175.999	667.100	80.009	19.994	103.789	19.851	9.590	0.519
1177.999	668.120	80.009	19.995	103.792	19.853	9.418	0.502
1179.999	669.161	80.009	19.994	103.791	19.854	9.352	0.539
1182.000	670.202	80.009	19.993	103.793	19.854	9.392	0.554
1183.999	671.217	80.008	19.994	103.792	19.851	9.542	0.534
1185.999	672.258	80.008	19.993	103.792	19.852	9.523	0.535
1188.000	673.284	80.008	19.995	103.805	19.851	9.575	0.496
1190.000	674.386	80.008	19.994	103.803	19.852	9.489	0.512
1191.999	675.431	80.008	19.993	103.800	19.853	9.456	0.501
1193.999	676.508	80.008	19.994	103.794	19.853	9.446	0.515
1195.999	677.627	80.006	19.994	103.797	19.852	9.490	0.530
1197.999	678.690	80.008	19.992	103.795	19.849	9.709	0.519
1200.001	679.742	80.008	19.993	103.800	19.849	9.692	0.537
1202.000	680.814	80.008	19.992	103.798	19.850	9.665	0.532
1203.999	681.885	80.010	19.993	103.798	19.849	9.738	0.548
1205.999	682.962	80.010	19.993	103.795	19.850	9.663	0.523
1207.999	684.030	80.009	19.993	103.789	19.847	9.886	0.557
1209.999	685.121	80.008	19.994	103.789	19.847	9.829	0.534
1211.999	686.188	80.008	19.994	103.787	19.848	9.798	0.504
1213.999	687.253	80.008	19.994	103.787	19.850	9.680	0.542
1215.999	688.275	80.008	19.994	103.789	19.845	9.975	0.533
1217.999	689.385	80.009	19.994	103.789	19.846	9.906	0.566
1220.000	690.429	80.007	19.994	103.788	19.845	9.971	0.528
1221.999	691.509	80.008	19.994	103.790	19.847	9.877	0.510
1223.999	692.545	80.007	19.993	103.790	19.847	9.852	0.545
1226.000	693.639	80.007	19.995	103.789	19.849	9.699	0.514
1227.999	694.695	80.010	19.995	103.790	19.848	9.796	0.537
1229.999	695.713	80.009	19.994	103.789	19.845	9.994	0.508
1231.999	696.795	80.009	19.993	103.790	19.849	9.696	0.538
1234.001	697.858	80.010	19.994	103.792	19.847	9.887	0.507
1235.999	698.933	80.009	19.994	103.787	19.850	9.653	0.519
1237.999	699.971	80.009	19.995	103.787	19.847	9.861	0.514
1239.999	701.082	80.008	19.994	103.789	19.848	9.808	0.561
1241.999	702.117	80.008	19.994	103.792	19.848	9.761	0.529
1244.000	703.172	80.007	19.995	103.791	19.847	9.838	0.527
1245.999	704.226	80.008	19.994	103.790	19.848	9.759	0.534
1247.999	705.292	80.007	19.996	103.790	19.848	9.794	0.532
1250.000	706.313	80.009	19.995	103.792	19.847	9.836	0.511
1251.999	707.353	80.009	19.994	103.793	19.850	9.613	0.498
1253.999	708.412	80.009	19.994	103.792	19.848	9.771	0.489
1256.000	709.472	80.011	19.994	103.790	19.847	9.879	0.519
1257.999	710.503	80.010	19.993	103.791	19.845	10.019	0.533
1260.000	711.530	80.011	19.992	103.791	19.849	9.748	0.503
1261.999	712.559	80.010	19.993	103.791	19.847	9.892	0.494
1263.999	713.601	80.009	19.994	103.792	19.847	9.854	0.503
1266.001	714.660	80.009	19.992	103.792	19.845	10.031	0.531
1268.000	715.678	80.007	19.993	103.791	19.846	9.958	0.531
1270.000	716.713	80.007	19.993	103.791	19.848	9.759	0.516
1271.999	717.698	80.007	19.994	103.788	19.845	10.032	0.479
1273.999	718.702	80.007	19.993	103.789	19.845	9.984	0.500
1276.000	719.703	80.008	19.995	103.789	19.844	10.055	0.495
1277.999	720.687	80.008	19.993	103.789	19.844	10.069	0.487
1279.999	721.694	80.009	19.992	103.789	19.845	9.996	0.514
1282.000	722.682	80.007	19.995	103.788	19.848	9.821	0.449
1283.999	723.672	80.008	19.993	103.788	19.845	9.973	0.466
1285.999	724.655	80.008	19.993	103.783	19.840	10.348	0.482
1287.999	725.683	80.009	19.993	103.786	19.841	10.266	0.507
1289.999	726.665	80.009	19.993	103.789	19.839	10.420	0.465
1291.999	727.623	80.009	19.993	103.787	19.840	10.339	0.487
1293.999	728.661	80.009	19.994	103.787	19.841	10.295	0.496
1295.999	729.652	80.008	19.994	103.787	19.841	10.278	0.502
1297.999	730.630	80.008	19.994	103.789	19.837	10.543	0.479
1299.999	731.574	80.007	19.993	103.788	19.840	10.333	0.483
1302.000	732.578	80.008	19.994	103.790	19.841	10.250	0.506
1303.999	733.581	80.007	19.994	103.789	19.838	10.481	0.506
1305.999	734.593	80.007	19.992	103.790	19.843	10.167	0.486
1307.999	735.579	80.007	19.995	103.796	19.843	10.119	0.476
1309.999	736.527	80.007	19.994	103.791	19.839	10.433	0.470
1311.999	737.540	80.008	19.993	103.790	19.841	10.300	0.505
1313.999	738.550	80.008	19.994	103.788	19.844	10.100	0.481
1315.999	739.574	80.008	19.994	103.790	19.843	10.127	0.499
1317.999	740.576	80.008	19.995	103.790	19.844	10.085	0.500
1319.999	741.614	80.009	19.994	103.790	19.843	10.168	0.514
1321.999	742.606	80.009	19.993	103.790	19.841	10.268	0.487
1324.001	743.593	80.009	19.993	103.789	19.838	10.522	0.469