File: 01_Data/Bean_Bag_Chair_Outer_Cover/MCC/Bean_Bag_Chair_Outer_Cover_MCC_30K_min_220311_O3.txt
Sample ID:	C:\MCC\MCC Cal\Test\Bean_Bag_Chair_Outer_Cover_MCC_30K_min_220311_R3.txt
Sample Weight (mg):	4.12
Heating Rate (C/s):	1
Combustor Temp (C):	900
N2 Flow Rate (cc/min):	80
O2 Flow Rate (cc/min):	20
Calibration File:	C:\MCC\MCC Cal\Coeff1 JN10440_30_210304.txt.txt
T Correction Coefficients:	0	1.024463	0
Time Shift (s):	14
*
Time (s)	Temperature (C)	N2 flow rate (cc/min)	O2 flow rate (cc/min)	Flow Rate (cc/min)	Oxygen (%)	HRR (W/g)	Heating rate (C/s)
0.000	106.410	80.008	19.993	103.595	19.902	0.308	0.021
1.000	106.405	80.010	19.994	103.596	19.904	0.161	-0.022
2.000	106.394	80.008	19.995	103.597	19.904	0.192	-0.019
3.000	106.398	80.010	19.993	103.596	19.905	0.097	-0.003
4.000	106.422	80.009	19.995	103.594	19.905	0.101	0.030
5.000	106.410	80.010	19.994	103.603	19.902	0.341	-0.032
6.000	106.398	80.009	19.994	103.618	19.902	0.334	0.006
7.001	106.425	80.010	19.994	103.629	19.902	0.334	0.009
8.000	106.401	80.010	19.993	103.650	19.895	0.910	0.004
9.000	106.416	80.010	19.995	103.675	19.888	1.445	0.012
10.000	106.419	80.010	19.994	103.701	19.888	1.453	0.007
11.000	106.484	80.010	19.994	103.728	19.882	1.924	0.028
12.000	106.507	80.009	19.995	103.762	19.880	2.055	0.050
13.000	106.578	80.009	19.994	103.792	19.877	2.318	0.050
14.000	106.632	80.009	19.994	103.822	19.874	2.560	0.054
15.001	106.666	80.008	19.994	103.845	19.872	2.688	0.051
16.000	106.758	80.008	19.994	103.859	19.866	3.171	0.086
17.000	106.863	80.007	19.995	103.862	19.863	3.404	0.114
18.000	106.980	80.008	19.994	103.878	19.860	3.618	0.091
19.000	107.081	80.007	19.995	103.894	19.859	3.713	0.098
20.000	107.215	80.007	19.994	103.906	19.856	3.969	0.151
21.000	107.399	80.007	19.994	103.907	19.852	4.232	0.153
22.000	107.566	80.006	19.994	103.912	19.850	4.383	0.172
23.000	107.728	80.007	19.993	103.915	19.848	4.558	0.159
24.000	107.940	80.007	19.995	103.924	19.849	4.461	0.192
25.000	108.127	80.007	19.993	103.931	19.851	4.327	0.208
26.000	108.329	80.007	19.994	103.947	19.847	4.661	0.205
27.000	108.560	80.006	19.993	103.961	19.844	4.886	0.212
28.000	108.805	80.007	19.995	103.962	19.845	4.831	0.272
29.000	109.108	80.009	19.993	103.964	19.842	5.088	0.270
30.000	109.355	80.008	19.993	103.976	19.844	4.921	0.234
31.000	109.639	80.007	19.993	103.991	19.843	4.955	0.293
32.000	109.931	80.008	19.994	103.992	19.839	5.267	0.306
33.000	110.244	80.007	19.994	103.989	19.839	5.321	0.299
34.000	110.597	80.008	19.993	103.992	19.840	5.244	0.343
35.001	110.911	80.007	19.994	103.992	19.842	5.058	0.309
36.000	111.228	80.007	19.993	103.988	19.839	5.307	0.332
37.000	111.600	80.007	19.994	103.989	19.838	5.364	0.360
38.001	111.998	80.007	19.994	103.994	19.839	5.280	0.386
39.000	112.363	80.007	19.994	104.008	19.835	5.586	0.366
40.000	112.770	80.008	19.994	104.012	19.835	5.612	0.395
41.000	113.131	80.006	19.994	104.002	19.834	5.717	0.388
42.000	113.596	80.006	19.994	104.002	19.833	5.778	0.435
43.000	113.985	80.006	19.994	104.014	19.832	5.873	0.394
44.000	114.424	80.006	19.994	104.026	19.833	5.741	0.438
45.000	114.871	80.005	19.994	104.027	19.834	5.693	0.446
46.001	115.322	80.005	19.995	104.029	19.829	6.044	0.455
47.000	115.824	80.005	19.994	104.044	19.832	5.807	0.480
48.000	116.295	80.005	19.994	104.059	19.832	5.821	0.468
49.000	116.799	80.005	19.994	104.060	19.830	6.024	0.482
50.001	117.275	80.004	19.995	104.054	19.832	5.854	0.510
51.000	117.803	80.006	19.995	104.045	19.832	5.869	0.520
52.000	118.340	80.007	19.994	104.038	19.829	6.081	0.526
53.000	118.873	80.006	19.994	104.047	19.826	6.275	0.563
54.000	119.424	80.008	19.994	104.054	19.829	6.112	0.530
55.000	119.963	80.008	19.994	104.046	19.829	6.082	0.530
56.000	120.537	80.008	19.994	104.040	19.827	6.240	0.549
57.000	121.108	80.007	19.994	104.046	19.830	6.014	0.592
58.000	121.695	80.008	19.995	104.055	19.830	6.011	0.575
59.000	122.336	80.009	19.994	104.048	19.831	5.888	0.604
60.000	122.909	80.009	19.995	104.048	19.831	5.919	0.599
61.000	123.507	80.009	19.993	104.054	19.828	6.157	0.614
62.000	124.134	80.008	19.994	104.059	19.830	6.031	0.622
63.001	124.745	80.007	19.995	104.058	19.832	5.874	0.610
64.001	125.408	80.009	19.993	104.053	19.830	5.995	0.665
65.001	126.018	80.008	19.994	104.040	19.830	6.025	0.606
66.000	126.677	80.007	19.994	104.039	19.831	5.927	0.668
67.000	127.346	80.008	19.995	104.051	19.831	5.953	0.632
68.000	128.004	80.007	19.995	104.053	19.829	6.101	0.672
69.000	128.694	80.008	19.994	104.051	19.829	6.074	0.710
70.000	129.369	80.007	19.997	104.052	19.829	6.044	0.643
71.000	130.085	80.008	19.996	104.053	19.832	5.822	0.719
72.000	130.734	80.007	19.995	104.057	19.831	5.930	0.659
73.001	131.463	80.008	19.995	104.058	19.833	5.733	0.713
74.000	132.141	80.007	19.995	104.056	19.830	6.018	0.691
75.000	132.904	80.008	19.994	104.056	19.832	5.861	0.733
76.000	133.597	80.009	19.995	104.059	19.830	5.980	0.722
77.001	134.328	80.007	19.995	104.052	19.831	5.902	0.721
78.000	135.053	80.007	19.997	104.040	19.828	6.120	0.716
79.000	135.782	80.008	19.994	104.036	19.828	6.127	0.746
80.000	136.562	80.008	19.994	104.048	19.828	6.150	0.761
81.000	137.334	80.008	19.993	104.058	19.830	5.973	0.756
82.000	138.064	80.009	19.995	104.059	19.832	5.805	0.760
83.000	138.876	80.009	19.993	104.055	19.833	5.801	0.779
84.001	139.585	80.009	19.993	104.056	19.830	6.034	0.727
85.000	140.407	80.010	19.994	104.059	19.829	6.088	0.802
86.001	141.208	80.009	19.994	104.061	19.828	6.133	0.817
87.000	142.009	80.010	19.994	104.062	19.830	5.997	0.787
88.000	142.799	80.008	19.993	104.062	19.834	5.680	0.799
89.000	143.642	80.008	19.993	104.062	19.829	6.079	0.809
90.001	144.460	80.007	19.995	104.063	19.834	5.697	0.825
91.000	145.261	80.006	19.993	104.063	19.830	5.967	0.820
92.000	146.081	80.006	19.994	104.064	19.828	6.159	0.836
93.000	146.918	80.006	19.993	104.065	19.830	5.975	0.827
94.000	147.748	80.006	19.995	104.065	19.833	5.745	0.813
95.000	148.581	80.005	19.994	104.066	19.832	5.874	0.848
96.000	149.441	80.006	19.994	104.067	19.832	5.878	0.839
97.000	150.278	80.007	19.994	104.067	19.831	5.919	0.856
98.001	151.135	80.006	19.994	104.067	19.836	5.539	0.851
99.000	151.969	80.006	19.994	104.066	19.834	5.688	0.834
100.000	152.842	80.004	19.993	104.066	19.837	5.412	0.874
101.000	153.758	80.005	19.994	104.064	19.835	5.628	0.896
102.000	154.594	80.006	19.994	104.062	19.835	5.595	0.839
103.000	155.437	80.006	19.994	104.062	19.834	5.683	0.859
104.000	156.380	80.004	19.995	104.063	19.834	5.666	0.922
105.000	157.191	80.005	19.995	104.065	19.836	5.519	0.844
106.000	158.064	80.006	19.994	104.064	19.836	5.529	0.858
107.000	158.991	80.004	19.994	104.062	19.833	5.751	0.902
108.000	159.857	80.006	19.994	104.062	19.836	5.553	0.895
109.000	160.812	80.007	19.993	104.064	19.839	5.296	0.933
110.000	161.690	80.007	19.993	104.066	19.834	5.679	0.890
111.001	162.641	80.007	19.994	104.063	19.837	5.471	0.964
112.000	163.567	80.007	19.994	104.061	19.839	5.327	0.908
113.000	164.474	80.005	19.993	104.051	19.835	5.591	0.927
114.000	165.470	80.008	19.993	104.047	19.836	5.530	0.959
115.000	166.374	80.008	19.993	104.052	19.841	5.123	0.927
116.000	167.276	80.008	19.993	104.053	19.838	5.380	0.903
117.000	168.214	80.005	19.994	104.041	19.839	5.261	0.923
118.000	169.179	80.006	19.994	104.030	19.842	5.082	0.962
119.000	170.114	80.008	19.993	104.033	19.840	5.186	0.934
120.000	171.042	80.006	19.994	104.039	19.840	5.186	0.920
121.000	171.978	80.006	19.995	104.043	19.837	5.432	0.941
122.000	172.959	80.007	19.994	104.044	19.841	5.158	0.967
123.000	173.893	80.006	19.994	104.042	19.841	5.116	0.960
124.000	174.850	80.005	19.995	104.054	19.841	5.131	0.948
125.000	175.804	80.007	19.994	104.047	19.842	5.067	0.957
126.000	176.780	80.007	19.993	104.034	19.843	4.991	0.962
127.000	177.719	80.007	19.994	104.025	19.840	5.213	0.949
128.000	178.669	80.007	19.993	104.027	19.842	5.053	0.955
129.000	179.672	80.007	19.993	104.038	19.844	4.902	0.993
130.000	180.628	80.009	19.995	104.042	19.847	4.691	0.960
131.000	181.646	80.007	19.995	104.046	19.843	4.943	1.003
132.000	182.610	80.007	19.996	104.043	19.846	4.699	0.987
133.000	183.584	80.007	19.996	104.033	19.847	4.697	0.948
134.000	184.556	80.007	19.995	104.026	19.848	4.589	0.984
135.000	185.567	80.007	19.994	104.024	19.846	4.714	1.004
136.000	186.610	80.008	19.995	104.023	19.844	4.883	1.028
137.000	187.589	80.007	19.995	104.022	19.845	4.831	1.002
138.000	188.609	80.008	19.995	104.022	19.841	5.110	1.000
139.000	189.596	80.008	19.994	104.021	19.848	4.600	0.991
140.000	190.600	80.007	19.994	104.020	19.845	4.812	1.022
141.000	191.592	80.006	19.995	104.021	19.848	4.595	0.989
142.000	192.627	80.008	19.994	104.022	19.846	4.770	1.018
143.000	193.618	80.008	19.995	104.019	19.845	4.838	0.993
144.000	194.600	80.009	19.994	104.012	19.849	4.506	0.996
145.000	195.629	80.007	19.995	104.002	19.845	4.791	1.016
146.000	196.660	80.007	19.994	104.010	19.845	4.840	1.005
147.000	197.693	80.005	19.994	104.016	19.844	4.916	1.046
148.000	198.668	80.007	19.994	104.020	19.851	4.381	1.002
149.000	199.665	80.008	19.993	104.021	19.847	4.633	1.010
150.000	200.706	80.006	19.995	104.022	19.849	4.521	1.014
151.000	201.707	80.007	19.993	104.022	19.849	4.527	1.012
152.000	202.704	80.007	19.995	104.007	19.850	4.450	0.982
153.000	203.738	80.008	19.993	103.997	19.847	4.633	1.043
154.000	204.781	80.007	19.994	103.993	19.848	4.568	1.029
155.000	205.783	80.008	19.994	103.993	19.849	4.529	1.021
156.000	206.805	80.009	19.994	103.995	19.848	4.583	1.050
157.000	207.877	80.008	19.996	103.991	19.848	4.592	1.022
158.000	208.902	80.007	19.996	103.991	19.849	4.473	1.014
159.000	209.918	80.007	19.994	103.990	19.850	4.458	1.046
160.000	210.954	80.009	19.994	103.989	19.847	4.693	1.032
161.000	212.001	80.007	19.996	103.986	19.850	4.389	1.035
162.000	212.996	80.007	19.993	103.985	19.849	4.525	1.004
163.000	214.017	80.008	19.994	103.984	19.849	4.469	1.035
164.000	215.055	80.009	19.993	103.981	19.849	4.499	1.032
165.000	216.093	80.008	19.995	103.981	19.850	4.450	1.059
166.000	217.163	80.006	19.993	103.980	19.850	4.447	1.018
167.000	218.181	80.007	19.995	103.979	19.848	4.568	1.039
168.000	219.190	80.006	19.994	103.975	19.847	4.652	1.004
169.000	220.188	80.005	19.996	103.981	19.848	4.612	1.031
170.000	221.240	80.005	19.994	103.983	19.851	4.345	1.032
171.000	222.292	80.005	19.995	103.981	19.849	4.528	1.043
172.000	223.348	80.006	19.994	103.982	19.848	4.554	1.066
173.000	224.370	80.005	19.995	103.980	19.848	4.608	1.010
174.000	225.407	80.005	19.994	103.980	19.849	4.487	1.032
175.000	226.406	80.007	19.994	103.979	19.849	4.493	1.024
176.000	227.464	80.006	19.993	103.985	19.851	4.325	1.074
177.000	228.528	80.007	19.994	103.975	19.850	4.390	1.028
178.000	229.601	80.007	19.995	103.973	19.847	4.653	1.051
179.000	230.579	80.006	19.994	103.967	19.850	4.413	1.020
180.000	231.652	80.006	19.994	103.955	19.848	4.541	1.032
181.000	232.642	80.005	19.995	103.949	19.850	4.405	1.016
182.000	233.672	80.005	19.993	103.954	19.853	4.196	1.050
183.000	234.719	80.005	19.993	103.956	19.853	4.159	1.024
184.000	235.712	80.007	19.993	103.951	19.850	4.402	0.987
185.000	236.751	80.005	19.994	103.947	19.852	4.295	1.051
186.000	237.755	80.006	19.994	103.947	19.849	4.513	1.004
187.000	238.765	80.006	19.994	103.948	19.850	4.381	1.014
188.000	239.775	80.006	19.993	103.948	19.849	4.472	1.016
189.000	240.795	80.006	19.994	103.946	19.851	4.357	1.004
190.000	241.796	80.013	19.995	103.946	19.852	4.243	1.003
191.000	242.817	80.014	19.996	103.949	19.852	4.223	1.036
192.000	243.860	80.005	19.996	103.952	19.846	4.711	1.045
193.000	244.859	80.006	19.994	103.951	19.849	4.490	0.996
194.000	245.851	80.005	19.994	103.945	19.847	4.685	0.996
195.000	246.879	80.006	19.995	103.939	19.849	4.488	1.018
196.000	247.889	80.006	19.993	103.940	19.847	4.623	1.029
197.000	248.920	80.006	19.993	103.944	19.846	4.732	0.994
198.000	249.946	80.005	19.995	103.946	19.847	4.674	1.049
199.000	250.975	80.005	19.996	103.946	19.846	4.704	1.027
200.000	251.981	80.006	19.995	103.942	19.846	4.760	1.013
201.000	252.980	80.005	19.995	103.943	19.843	4.931	0.977
202.000	253.968	80.004	19.995	103.942	19.840	5.186	0.991
203.000	254.965	80.006	19.994	103.901	19.842	5.080	0.997
204.000	256.009	80.004	19.994	103.871	19.842	5.039	1.048
205.000	256.963	80.005	19.994	103.894	19.842	5.048	0.962
206.000	257.972	80.007	19.993	103.974	19.838	5.336	1.010
207.000	259.004	80.007	19.994	104.004	19.835	5.593	1.002
208.000	259.962	80.007	19.993	103.971	19.840	5.174	0.989
209.000	260.959	80.008	19.993	103.946	19.836	5.518	0.997
210.000	261.948	80.008	19.994	103.941	19.837	5.423	0.990
211.000	262.930	80.006	19.994	103.940	19.835	5.600	0.989
212.000	263.930	80.007	19.993	103.941	19.835	5.613	0.980
213.000	264.923	80.008	19.994	103.944	19.837	5.460	1.003
214.000	265.913	80.007	19.995	103.947	19.834	5.652	0.982
215.000	266.902	80.009	19.993	103.946	19.835	5.602	1.003
216.000	267.907	80.007	19.993	103.946	19.832	5.859	0.999
217.000	268.867	80.007	19.994	103.936	19.831	5.900	0.958
218.000	269.858	80.009	19.993	103.931	19.829	6.042	0.984
219.000	270.868	80.007	19.994	103.934	19.826	6.286	1.019
220.000	271.862	80.007	19.994	103.945	19.824	6.478	1.000
221.000	272.845	80.006	19.995	103.946	19.823	6.579	0.979
222.000	273.797	80.006	19.994	103.946	19.820	6.761	0.961
223.000	274.815	80.006	19.994	103.946	19.817	7.045	1.004
224.000	275.777	80.007	19.994	103.946	19.818	6.948	0.969
225.000	276.812	80.006	19.994	103.946	19.819	6.830	1.018
226.000	277.754	80.006	19.994	103.947	19.818	6.944	0.958
227.000	278.762	80.007	19.995	103.947	19.812	7.412	1.007
228.000	279.749	80.005	19.994	103.947	19.811	7.466	1.001
229.000	280.704	80.005	19.994	103.947	19.812	7.427	0.954
230.000	281.705	80.006	19.994	103.948	19.808	7.702	0.988
231.000	282.676	80.007	19.994	103.949	19.804	8.061	0.970
232.000	283.687	80.008	19.993	103.950	19.801	8.267	0.995
233.000	284.630	80.007	19.993	103.951	19.797	8.564	0.962
234.000	285.642	80.009	19.994	103.950	19.794	8.824	1.000
235.000	286.615	80.009	19.993	103.951	19.792	9.016	0.980
236.000	287.638	80.009	19.994	103.952	19.788	9.286	1.023
237.000	288.554	80.008	19.994	103.950	19.784	9.600	0.929
238.000	289.581	80.007	19.993	103.948	19.785	9.542	1.024
239.000	290.581	80.009	19.994	103.947	19.777	10.157	0.988
240.000	291.609	80.008	19.994	103.948	19.774	10.369	1.031
241.000	292.570	80.007	19.993	103.960	19.768	10.841	0.968
242.000	293.572	80.009	19.993	103.974	19.765	11.105	0.990
243.000	294.546	80.006	19.993	103.981	19.762	11.336	0.981
244.000	295.558	80.006	19.994	103.977	19.755	11.926	1.002
245.000	296.575	80.006	19.996	103.966	19.754	12.002	1.012
246.000	297.530	80.005	19.996	103.957	19.748	12.417	0.964
247.000	298.530	80.005	19.995	103.966	19.743	12.878	0.993
248.000	299.501	80.005	19.995	103.977	19.736	13.429	0.978
249.000	300.507	80.004	19.996	103.979	19.729	13.954	0.996
250.000	301.479	80.006	19.996	103.979	19.724	14.386	0.986
251.000	302.452	80.004	19.995	103.984	19.718	14.816	0.987
252.000	303.423	80.005	19.996	103.984	19.711	15.400	0.971
253.000	304.434	80.004	19.996	103.984	19.701	16.180	1.005
254.000	305.435	80.005	19.995	103.990	19.698	16.396	0.985
255.000	306.390	80.005	19.995	103.997	19.688	17.215	0.960
256.000	307.416	80.004	19.995	104.001	19.683	17.603	1.026
257.000	308.405	80.005	19.995	104.003	19.674	18.263	0.975
258.000	309.362	80.006	19.994	104.015	19.665	19.035	0.965
259.000	310.391	80.006	19.994	104.020	19.658	19.543	1.028
260.000	311.385	80.005	19.995	104.022	19.644	20.653	1.008
261.000	312.422	80.006	19.994	104.023	19.636	21.326	1.028
262.000	313.397	80.006	19.994	104.028	19.621	22.495	0.978
263.000	314.438	80.004	19.996	104.039	19.609	23.420	1.035
264.000	315.412	80.005	19.994	104.050	19.597	24.384	0.976
265.000	316.376	80.006	19.994	104.054	19.584	25.390	0.977
266.000	317.394	80.006	19.995	104.060	19.573	26.267	1.002
267.000	318.421	80.005	19.994	104.066	19.560	27.314	1.005
268.000	319.423	80.007	19.994	104.071	19.547	28.329	1.017
269.000	320.398	80.007	19.993	104.080	19.533	29.479	0.990
270.000	321.477	80.006	19.994	104.093	19.516	30.759	1.039
271.000	322.430	80.006	19.995	104.102	19.498	32.202	0.986
272.000	323.402	80.005	19.993	104.109	19.482	33.514	0.995
273.000	324.439	80.006	19.994	104.120	19.461	35.140	1.012
274.000	325.402	80.005	19.994	104.137	19.443	36.566	0.993
275.000	326.417	80.005	19.993	104.150	19.418	38.568	1.005
276.000	327.446	80.006	19.994	104.153	19.398	40.128	1.023
277.000	328.453	80.004	19.995	104.160	19.373	42.088	1.001
278.000	329.464	80.005	19.994	104.171	19.351	43.883	1.011
279.000	330.460	80.006	19.994	104.184	19.325	45.898	1.019
280.000	331.459	80.006	19.994	104.205	19.296	48.209	0.986
281.000	332.482	80.006	19.994	104.225	19.271	50.174	1.012
282.000	333.505	80.005	19.993	104.235	19.241	52.566	1.022
283.000	334.584	80.004	19.994	104.245	19.208	55.236	1.060
284.000	335.573	80.006	19.994	104.253	19.178	57.607	1.015
285.000	336.577	80.006	19.994	104.262	19.149	59.931	0.992
286.000	337.586	80.007	19.993	104.275	19.114	62.685	1.010
287.000	338.616	80.007	19.994	104.296	19.078	65.533	1.035
288.000	339.666	80.007	19.993	104.317	19.037	68.788	1.043
289.000	340.649	80.007	19.994	104.331	19.002	71.567	0.982
290.000	341.649	80.006	19.993	104.340	18.961	74.849	1.008
291.000	342.683	80.008	19.993	104.356	18.919	78.154	1.035
292.000	343.711	80.006	19.993	104.385	18.881	81.210	1.016
293.000	344.671	80.008	19.993	104.407	18.834	84.912	0.971
294.000	345.705	80.007	19.993	104.425	18.793	88.167	1.016
295.000	346.701	80.007	19.993	104.441	18.742	92.231	1.009
296.000	347.726	80.007	19.994	104.461	18.696	95.920	1.016
297.000	348.753	80.006	19.994	104.480	18.645	99.966	1.027
298.000	349.758	80.006	19.992	104.507	18.592	104.243	1.023
299.000	350.799	80.007	19.994	104.523	18.538	108.494	1.025
300.000	351.791	80.007	19.993	104.539	18.487	112.551	1.008
301.000	352.824	80.007	19.993	104.553	18.433	116.835	1.020
302.000	353.856	80.005	19.993	104.574	18.379	121.153	1.037
303.000	354.844	80.007	19.993	104.595	18.326	125.433	0.985
304.000	355.839	80.006	19.994	104.612	18.267	130.121	1.013
305.000	356.835	80.008	19.994	104.631	18.211	134.552	0.983
306.000	357.842	80.006	19.994	104.649	18.152	139.267	1.017
307.000	358.860	80.007	19.995	104.666	18.093	143.917	1.026
308.000	359.862	80.008	19.994	104.695	18.036	148.490	0.983
309.000	360.814	80.007	19.996	104.717	17.975	153.299	0.981
310.000	361.877	80.007	19.995	104.731	17.914	158.176	1.029
311.000	362.845	80.007	19.995	104.746	17.853	162.987	0.990
312.000	363.856	80.008	19.996	104.761	17.796	167.494	1.009
313.000	364.872	80.008	19.995	104.778	17.740	171.939	1.000
314.000	365.909	80.008	19.994	104.794	17.679	176.764	1.014
315.000	366.877	80.007	19.995	104.811	17.623	181.137	0.994
316.000	367.872	80.009	19.994	104.823	17.566	185.667	1.000
317.000	368.917	80.007	19.994	104.830	17.509	190.137	1.047
318.000	369.915	80.008	19.994	104.832	17.455	194.398	0.989
319.000	370.926	80.007	19.994	104.836	17.404	198.382	0.997
320.000	371.910	80.006	19.995	104.840	17.353	202.421	1.004
321.000	372.924	80.007	19.995	104.840	17.311	205.682	0.995
322.000	373.954	80.007	19.994	104.828	17.265	209.256	1.019
323.000	374.949	80.004	19.995	104.813	17.227	212.274	1.003
324.000	375.966	80.006	19.994	104.799	17.193	214.863	1.030
325.000	376.958	80.005	19.994	104.786	17.163	217.140	0.977
326.000	377.963	80.006	19.994	104.770	17.139	219.050	1.030
327.000	378.941	80.006	19.994	104.757	17.122	220.309	0.974
328.000	379.977	80.005	19.994	104.741	17.108	221.397	1.012
329.000	380.974	80.006	19.994	104.726	17.105	221.522	1.016
330.000	381.944	80.006	19.994	104.711	17.101	221.765	0.979
331.000	382.921	80.005	19.994	104.695	17.113	220.738	0.989
332.000	383.941	80.006	19.995	104.672	17.125	219.721	1.022
333.000	384.979	80.005	19.994	104.644	17.150	217.689	1.005
334.000	385.959	80.005	19.995	104.614	17.179	215.339	0.972
335.000	386.942	80.006	19.994	104.578	17.217	212.312	1.003
336.000	387.945	80.005	19.996	104.547	17.259	208.898	1.006
337.000	388.939	80.005	19.993	104.519	17.315	204.445	0.987
338.000	389.950	80.004	19.996	104.496	17.373	199.772	1.017
339.000	390.955	80.004	19.995	104.468	17.439	194.486	0.996
340.000	391.989	80.006	19.995	104.436	17.510	188.859	1.019
341.000	392.952	80.005	19.995	104.399	17.587	182.691	1.002
342.000	393.995	80.005	19.995	104.365	17.671	176.055	1.020
343.000	395.036	80.006	19.994	104.334	17.756	169.250	1.047
344.000	396.036	80.007	19.994	104.310	17.843	162.360	0.998
345.000	397.059	80.005	19.994	104.280	17.939	154.813	1.020
346.000	398.045	80.005	19.995	104.248	18.034	147.265	1.007
347.000	399.105	80.006	19.995	104.210	18.134	139.357	1.025
348.000	400.101	80.005	19.995	104.174	18.237	131.240	1.030
349.000	401.131	80.006	19.994	104.137	18.344	122.882	1.003
350.000	402.175	80.006	19.995	104.103	18.446	114.816	1.026
351.000	403.175	80.005	19.994	104.067	18.555	106.257	1.020
352.000	404.187	80.007	19.994	104.025	18.664	97.721	1.031
353.000	405.211	80.005	19.994	103.991	18.768	89.516	1.004
354.000	406.218	80.005	19.993	103.962	18.874	81.191	1.006
355.000	407.236	80.005	19.993	103.930	18.972	73.516	1.016
356.000	408.283	80.006	19.994	103.903	19.070	65.750	1.048
357.000	409.306	80.004	19.993	103.884	19.158	58.819	1.036
358.000	410.313	80.004	19.992	103.866	19.246	51.909	1.008
359.000	411.345	80.005	19.995	103.853	19.322	45.955	1.033
360.000	412.386	80.004	19.995	103.849	19.398	39.992	1.023
361.000	413.385	80.005	19.994	103.861	19.459	35.159	1.020
362.000	414.334	80.006	19.993	103.869	19.518	30.533	0.964
363.000	415.396	80.005	19.994	103.870	19.567	26.660	1.022
364.000	416.343	80.006	19.994	103.871	19.614	23.003	0.965
365.000	417.360	80.006	19.994	103.874	19.651	20.043	1.018
366.000	418.396	80.007	19.994	103.879	19.689	17.074	1.040
367.000	419.375	80.009	19.994	103.880	19.716	14.932	0.977
368.000	420.410	80.007	19.993	103.871	19.740	13.077	1.033
369.000	421.414	80.007	19.993	103.868	19.762	11.321	0.994
370.000	422.443	80.007	19.995	103.863	19.783	9.687	1.033
371.000	423.409	80.008	19.995	103.859	19.794	8.834	0.981
372.000	424.397	80.006	19.994	103.851	19.811	7.517	0.978
373.000	425.447	80.007	19.994	103.839	19.820	6.784	1.056
374.000	426.458	80.008	19.995	103.830	19.825	6.412	0.998
375.000	427.431	80.006	19.994	103.828	19.834	5.660	0.973
376.000	428.450	80.007	19.994	103.828	19.839	5.261	1.000
377.000	429.493	80.006	19.993	103.829	19.847	4.634	1.032
378.000	430.477	80.007	19.994	103.828	19.850	4.424	1.008
379.000	431.440	80.007	19.995	103.828	19.853	4.211	0.998
380.000	432.515	80.007	19.994	103.828	19.855	3.996	1.036
381.000	433.522	80.005	19.994	103.828	19.857	3.858	1.015
382.000	434.563	80.007	19.994	103.824	19.857	3.828	1.036
383.000	435.541	80.006	19.994	103.815	19.865	3.268	1.003
384.000	436.597	80.006	19.994	103.815	19.865	3.221	1.043
385.000	437.580	80.007	19.994	103.821	19.868	3.018	0.983
386.000	438.590	80.007	19.994	103.828	19.868	3.035	1.018
387.000	439.608	80.007	19.994	103.822	19.867	3.096	1.018
388.000	440.641	80.008	19.993	103.809	19.870	2.863	1.018
389.000	441.606	80.007	19.994	103.780	19.869	2.945	0.978
390.000	442.638	80.008	19.995	103.749	19.871	2.745	1.012
391.000	443.642	80.007	19.995	103.746	19.872	2.678	1.025
392.000	444.633	80.008	19.994	103.798	19.876	2.348	0.989
393.000	445.642	80.008	19.994	103.862	19.872	2.667	1.006
394.000	446.675	80.008	19.993	103.871	19.876	2.359	1.004
395.000	447.651	80.007	19.994	103.823	19.873	2.595	1.000
396.000	448.655	80.007	19.994	103.801	19.876	2.378	1.010
397.000	449.691	80.007	19.994	103.804	19.873	2.641	1.032
398.000	450.690	80.006	19.994	103.803	19.877	2.290	0.993
399.000	451.721	80.007	19.994	103.804	19.877	2.318	1.047
400.000	452.750	80.004	19.994	103.810	19.877	2.281	1.012
401.000	453.719	80.005	19.993	103.811	19.877	2.281	0.993
402.000	454.732	80.004	19.995	103.804	19.875	2.423	1.014
403.000	455.745	80.004	19.994	103.795	19.878	2.229	0.991
404.000	456.768	80.006	19.994	103.796	19.877	2.303	1.025
405.000	457.744	80.005	19.995	103.793	19.877	2.296	0.983
406.000	458.794	80.004	19.994	103.793	19.876	2.339	1.048
407.000	459.828	80.004	19.996	103.793	19.877	2.287	1.038
408.000	460.799	80.005	19.993	103.794	19.878	2.219	1.005
409.000	461.839	80.004	19.994	103.795	19.877	2.292	0.988
410.000	462.849	80.005	19.994	103.794	19.879	2.122	1.027
411.000	463.864	80.006	19.993	103.793	19.879	2.124	1.010
412.000	464.838	80.004	19.994	103.793	19.882	1.902	0.973
413.000	465.856	80.005	19.993	103.793	19.883	1.796	1.020
414.000	466.858	80.005	19.994	103.793	19.881	1.997	1.014
415.000	467.858	80.005	19.995	103.801	19.884	1.719	0.993
416.000	468.860	80.005	19.994	103.800	19.882	1.913	1.021
417.000	469.859	80.006	19.993	103.797	19.883	1.805	0.991
418.000	470.911	80.004	19.994	103.793	19.885	1.650	1.037
419.000	471.917	80.004	19.994	103.795	19.884	1.775	1.003
420.000	472.933	80.003	19.994	103.795	19.888	1.389	1.002
421.000	473.956	80.005	19.994	103.790	19.886	1.579	1.032
422.000	474.980	80.004	19.993	103.787	19.887	1.478	1.040
423.000	476.001	80.005	19.993	103.787	19.892	1.135	1.011
424.000	477.032	80.004	19.994	103.793	19.889	1.331	1.028
425.000	478.048	80.004	19.994	103.793	19.889	1.348	1.023
426.000	479.066	80.005	19.994	103.792	19.890	1.303	1.003
427.000	480.093	80.005	19.995	103.791	19.889	1.342	1.035
428.000	481.130	80.006	19.995	103.792	19.892	1.107	1.042
429.000	482.114	80.004	19.995	103.793	19.891	1.189	0.983
430.000	483.135	80.003	19.996	103.793	19.890	1.258	1.025
431.000	484.140	80.003	19.996	103.803	19.890	1.288	1.004
432.000	485.155	80.005	19.996	103.813	19.892	1.075	1.024
433.000	486.185	80.004	19.994	103.807	19.893	1.004	1.014
434.000	487.209	80.005	19.995	103.798	19.889	1.335	1.025
435.000	488.236	80.005	19.995	103.794	19.891	1.157	1.031
436.000	489.238	80.005	19.995	103.795	19.893	1.038	1.005
437.000	490.262	80.004	19.994	103.796	19.889	1.321	1.018
438.000	491.250	80.005	19.995	103.797	19.892	1.079	0.998
439.000	492.277	80.006	19.994	103.796	19.893	1.066	1.014
440.000	493.303	80.006	19.995	103.797	19.890	1.295	1.044
441.000	494.339	80.007	19.993	103.806	19.894	0.974	1.018
442.000	495.374	80.007	19.995	103.814	19.892	1.114	1.040
443.000	496.415	80.006	19.994	103.817	19.896	0.788	1.031
444.000	497.407	80.007	19.994	103.807	19.895	0.864	0.997
445.000	498.488	80.007	19.993	103.797	19.896	0.812	1.054
446.000	499.428	80.008	19.993	103.798	19.896	0.758	0.970
447.000	500.494	80.007	19.995	103.804	19.897	0.700	1.049
448.000	501.454	80.007	19.995	103.806	19.897	0.726	0.987
449.000	502.497	80.005	19.993	103.796	19.897	0.719	1.032
450.000	503.483	80.006	19.993	103.793	19.899	0.599	1.001
451.000	504.486	80.006	19.994	103.793	19.897	0.683	1.004
452.000	505.538	80.007	19.993	103.791	19.900	0.489	1.031
453.000	506.515	80.007	19.993	103.790	19.900	0.470	0.993
454.000	507.538	80.006	19.994	103.803	19.902	0.299	1.006
455.000	508.562	80.005	19.994	103.810	19.899	0.534	1.044
456.000	509.562	80.006	19.995	103.809	19.900	0.455	1.003
457.000	510.536	80.007	19.994	103.800	19.903	0.280	0.982
458.000	511.568	80.006	19.994	103.796	19.902	0.319	1.029
459.000	512.608	80.005	19.994	103.792	19.906	0.028	1.035
460.000	513.658	80.006	19.996	103.793	19.904	0.153	0.999
461.000	514.666	80.007	19.995	103.799	19.907	-0.088	1.041
462.000	515.702	80.007	19.995	103.802	19.908	-0.164	1.042
463.000	516.721	80.006	19.995	103.805	19.910	-0.310	1.009
464.000	517.778	80.007	19.994	103.798	19.908	-0.151	1.048
465.000	518.788	80.007	19.993	103.792	19.910	-0.314	1.009
466.000	519.772	80.008	19.994	103.797	19.911	-0.362	1.010
467.000	520.822	80.007	19.993	103.801	19.912	-0.485	1.035
468.000	521.853	80.008	19.993	103.802	19.908	-0.181	1.030
469.000	522.812	80.009	19.992	103.795	19.909	-0.248	0.978
470.000	523.907	80.008	19.994	103.793	19.910	-0.306	1.073
471.000	524.948	80.007	19.994	103.793	19.907	-0.080	1.031
472.000	525.938	80.008	19.995	103.794	19.908	-0.185	1.013
473.000	526.978	80.008	19.994	103.795	19.909	-0.228	1.043
474.000	528.021	80.007	19.992	103.799	19.910	-0.278	1.030
475.000	529.075	80.006	19.993	103.798	19.909	-0.241	1.034
476.000	530.076	80.005	19.994	103.796	19.907	-0.095	1.031
477.000	531.105	80.006	19.993	103.792	19.912	-0.433	1.034
478.000	532.173	80.006	19.994	103.794	19.912	-0.457	1.043
479.000	533.179	80.005	19.994	103.795	19.912	-0.463	1.029
480.000	534.207	80.006	19.993	103.795	19.911	-0.396	1.014
481.000	535.263	80.006	19.994	103.794	19.911	-0.373	1.062
482.000	536.272	80.005	19.995	103.794	19.913	-0.556	1.019
483.000	537.291	80.005	19.994	103.794	19.915	-0.715	1.011
484.000	538.375	80.006	19.993	103.794	19.914	-0.579	1.058
485.000	539.415	80.004	19.993	103.796	19.914	-0.590	1.047
486.000	540.389	80.004	19.993	103.798	19.912	-0.480	0.998
487.000	541.416	80.006	19.994	103.797	19.913	-0.508	1.037
488.000	542.444	80.006	19.994	103.793	19.915	-0.691	1.027
489.000	543.510	80.004	19.994	103.795	19.914	-0.595	1.038
490.000	544.529	80.006	19.995	103.795	19.913	-0.560	1.014
491.000	545.518	80.006	19.995	103.795	19.914	-0.584	1.012
492.000	546.493	80.005	19.995	103.793	19.915	-0.732	0.991
493.000	547.597	80.005	19.995	103.792	19.912	-0.480	1.070
494.000	548.603	80.006	19.994	103.792	19.914	-0.640	1.013
495.000	549.631	80.006	19.994	103.791	19.915	-0.666	1.024
496.000	550.661	80.006	19.996	103.790	19.915	-0.709	1.039
497.000	551.664	80.006	19.994	103.790	19.917	-0.879	0.994
498.000	552.696	80.006	19.994	103.789	19.914	-0.648	1.058
499.000	553.711	80.006	19.994	103.799	19.915	-0.694	0.985
500.000	554.731	80.007	19.994	103.800	19.917	-0.816	1.044
501.000	555.763	80.005	19.995	103.793	19.916	-0.737	1.035
502.000	556.783	80.004	19.994	103.789	19.916	-0.743	1.014
503.000	557.788	80.004	19.995	103.790	19.915	-0.719	1.009
504.000	558.819	80.006	19.994	103.791	19.917	-0.844	1.009
505.000	559.810	80.006	19.994	103.791	19.919	-0.984	1.012
506.000	560.839	80.005	19.994	103.785	19.920	-1.120	1.018
507.000	561.892	80.005	19.994	103.785	19.921	-1.154	1.050
508.000	562.849	80.004	19.996	103.787	19.921	-1.191	0.989
509.000	563.871	80.004	19.994	103.789	19.918	-0.913	0.992
510.000	564.880	80.005	19.994	103.789	19.920	-1.092	1.016
511.000	565.877	80.004	19.995	103.789	19.919	-1.045	0.997
512.000	566.878	80.005	19.994	103.789	19.922	-1.264	1.010
513.000	567.886	80.005	19.994	103.790	19.921	-1.131	1.012
514.000	568.909	80.006	19.995	103.790	19.921	-1.139	1.026
515.000	569.895	80.006	19.995	103.789	19.917	-0.823	0.989
516.000	570.940	80.005	19.995	103.789	19.916	-0.812	1.026
517.000	571.977	80.007	19.996	103.789	19.921	-1.161	1.013
518.000	572.972	80.006	19.994	103.789	19.918	-0.971	1.002
519.000	574.017	80.005	19.994	103.789	19.919	-0.982	1.035
520.000	575.001	80.007	19.995	103.789	19.917	-0.821	1.017
521.000	576.044	80.006	19.995	103.789	19.919	-1.025	1.017
522.000	577.075	80.006	19.995	103.788	19.921	-1.142	1.026
523.000	578.038	80.005	19.996	103.788	19.919	-0.995	0.986
524.000	579.051	80.004	19.994	103.788	19.918	-0.894	1.018
525.000	580.039	80.005	19.995	103.788	19.918	-0.969	1.009
526.000	581.078	80.005	19.995	103.788	19.919	-0.982	1.011
527.000	582.077	80.005	19.996	103.789	19.919	-1.017	1.004
528.001	583.071	80.006	19.994	103.789	19.920	-1.101	1.011
529.000	584.056	80.006	19.995	103.791	19.921	-1.204	0.981
530.000	585.058	80.007	19.993	103.792	19.920	-1.051	0.966
531.000	586.056	80.005	19.994	103.793	19.920	-1.055	1.028
532.000	587.043	80.006	19.994	103.792	19.922	-1.282	0.981
533.000	588.062	80.006	19.993	103.792	19.921	-1.189	1.015
534.000	589.079	80.007	19.994	103.793	19.923	-1.305	1.002
535.000	590.091	80.006	19.994	103.794	19.920	-1.103	1.006
536.000	591.117	80.006	19.994	103.793	19.919	-1.010	1.047
537.000	592.132	80.006	19.994	103.790	19.919	-0.987	1.004
538.000	593.104	80.007	19.994	103.791	19.920	-1.129	0.981
539.000	594.156	80.006	19.994	103.793	19.919	-1.015	1.079
540.000	595.206	80.007	19.994	103.796	19.918	-0.900	0.997
541.000	596.251	80.007	19.994	103.797	19.918	-0.969	1.075
542.000	597.257	80.007	19.994	103.799	19.918	-0.935	0.978
543.000	598.283	80.007	19.993	103.798	19.920	-1.083	1.035
544.000	599.344	80.007	19.994	103.794	19.919	-1.008	1.059
545.000	600.318	80.007	19.993	103.794	19.918	-0.933	1.001
546.000	601.355	80.008	19.992	103.794	19.921	-1.131	1.027
547.000	602.381	80.008	19.992	103.793	19.917	-0.868	1.030
548.000	603.422	80.008	19.992	103.795	19.918	-0.909	1.028
549.000	604.426	80.009	19.992	103.799	19.921	-1.148	1.030
550.000	605.479	80.007	19.994	103.798	19.919	-0.997	1.042
551.000	606.503	80.008	19.993	103.797	19.918	-0.896	1.010
552.000	607.535	80.007	19.992	103.796	19.917	-0.874	1.045
553.000	608.563	80.007	19.993	103.795	19.920	-1.070	1.022
554.000	609.587	80.007	19.992	103.794	19.919	-1.019	1.045
555.000	610.642	80.007	19.992	103.794	19.916	-0.765	1.034
556.000	611.656	80.006	19.993	103.790	19.920	-1.062	1.024
557.000	612.716	80.005	19.994	103.790	19.918	-0.909	1.062
558.000	613.708	80.006	19.994	103.792	19.917	-0.864	1.004
559.000	614.786	80.005	19.993	103.792	19.917	-0.851	1.041
560.000	615.851	80.006	19.994	103.789	19.915	-0.678	1.057
561.000	616.897	80.005	19.994	103.789	19.920	-1.073	1.058
562.000	617.884	80.005	19.995	103.792	19.916	-0.803	1.045
563.000	618.981	80.007	19.994	103.792	19.917	-0.836	1.064
564.000	619.992	80.005	19.992	103.791	19.919	-0.997	0.998
565.000	621.024	80.007	19.992	103.790	19.921	-1.159	1.029
566.000	622.047	80.005	19.993	103.790	19.922	-1.226	1.024
567.000	623.097	80.005	19.994	103.790	19.920	-1.118	1.038
568.000	624.131	80.006	19.994	103.790	19.922	-1.281	1.059
569.000	625.129	80.007	19.994	103.789	19.916	-0.765	0.983
570.000	626.212	80.006	19.993	103.790	19.918	-0.928	1.068
571.000	627.218	80.006	19.993	103.790	19.917	-0.868	1.024
572.000	628.249	80.006	19.994	103.792	19.920	-1.053	1.039
573.000	629.331	80.006	19.995	103.792	19.920	-1.070	1.025
574.000	630.327	80.007	19.993	103.791	19.918	-0.926	1.048
575.000	631.339	80.006	19.994	103.789	19.918	-0.967	1.020
576.000	632.374	80.007	19.994	103.788	19.919	-1.038	1.024
577.000	633.398	80.005	19.995	103.788	19.920	-1.081	1.037
578.000	634.455	80.005	19.993	103.779	19.920	-1.096	1.042
579.000	635.489	80.005	19.994	103.772	19.921	-1.202	1.049
580.000	636.558	80.005	19.995	103.777	19.920	-1.073	1.044
581.000	637.544	80.004	19.994	103.788	19.921	-1.154	1.005
582.000	638.630	80.004	19.994	103.786	19.923	-1.340	1.047
583.000	639.499	80.005	19.994	103.785	19.921	-1.191	1.020
584.000	640.641	80.004	19.994	103.785	19.920	-1.083	1.012
585.000	641.603	80.004	19.993	103.789	19.919	-0.999	0.980
586.000	642.659	80.005	19.995	103.788	19.917	-0.864	1.032
587.000	643.639	80.006	19.995	103.788	19.918	-0.907	1.001
588.000	644.618	80.005	19.995	103.788	19.923	-1.322	0.999
589.000	645.636	80.005	19.994	103.790	19.922	-1.279	0.990
590.000	646.654	80.005	19.994	103.790	19.924	-1.381	1.025
591.000	647.678	80.004	19.994	103.783	19.923	-1.348	1.032
592.000	648.674	80.005	19.995	103.780	19.923	-1.322	0.993
593.001	649.702	80.005	19.993	103.785	19.922	-1.232	1.023
594.000	650.702	80.006	19.993	103.791	19.921	-1.148	1.010
595.000	651.716	80.006	19.995	103.790	19.926	-1.540	1.012
596.000	652.698	80.005	19.993	103.790	19.927	-1.613	0.993
597.000	653.712	80.007	19.993	103.789	19.924	-1.383	1.006
598.000	654.744	80.008	19.994	103.788	19.925	-1.445	1.020
599.000	655.743	80.007	19.994	103.788	19.923	-1.335	1.005
600.000	656.718	80.005	19.994	103.790	19.924	-1.417	0.973
601.000	657.750	80.008	19.993	103.788	19.925	-1.454	1.017
602.000	658.738	80.007	19.994	103.780	19.922	-1.219	1.012
603.000	659.744	80.007	19.994	103.775	19.924	-1.381	1.000
604.000	660.726	80.008	19.994	103.781	19.925	-1.495	0.972
605.000	661.705	80.006	19.994	103.787	19.926	-1.536	1.009
606.000	662.709	80.006	19.994	103.786	19.922	-1.271	0.997
607.000	663.656	80.007	19.995	103.787	19.923	-1.340	0.962
608.000	664.706	80.007	19.993	103.791	19.924	-1.383	1.022
609.000	665.721	80.005	19.994	103.790	19.921	-1.133	1.015
610.000	666.677	80.005	19.995	103.790	19.921	-1.131	0.955
611.000	667.717	80.005	19.996	103.792	19.923	-1.363	1.024
612.000	668.688	80.005	19.997	103.791	19.924	-1.396	0.988
613.000	669.646	80.007	19.995	103.789	19.926	-1.523	0.972
614.000	670.668	80.005	19.995	103.784	19.923	-1.307	0.988
615.000	671.658	80.005	19.995	103.782	19.922	-1.210	1.017
616.000	672.657	80.005	19.995	103.784	19.923	-1.340	0.997
617.000	673.686	80.006	19.995	103.787	19.926	-1.531	0.999
618.000	674.696	80.006	19.994	103.787	19.920	-1.107	1.013
619.000	675.713	80.006	19.995	103.787	19.927	-1.635	1.042
620.000	676.745	80.007	19.994	103.787	19.924	-1.417	0.999
621.000	677.692	80.007	19.994	103.787	19.926	-1.546	0.975
622.000	678.696	80.006	19.995	103.790	19.923	-1.350	0.992
623.000	679.679	80.007	19.993	103.790	19.925	-1.518	0.994
624.000	680.668	80.009	19.992	103.787	19.925	-1.469	0.997
625.000	681.679	80.008	19.994	103.785	19.928	-1.689	1.018
626.000	682.713	80.008	19.993	103.785	19.923	-1.359	1.013
627.000	683.688	80.009	19.993	103.785	19.922	-1.275	0.988
628.000	684.683	80.008	19.994	103.786	19.926	-1.546	0.998
629.000	685.686	80.008	19.994	103.786	19.927	-1.654	0.987
630.000	686.686	80.007	19.993	103.786	19.925	-1.512	1.001
631.000	687.685	80.007	19.994	103.781	19.923	-1.320	1.011
632.000	688.711	80.008	19.994	103.778	19.924	-1.400	1.009
633.000	689.729	80.008	19.992	103.776	19.921	-1.200	1.014
634.000	690.715	80.006	19.993	103.778	19.921	-1.152	1.009
635.000	691.692	80.005	19.994	103.783	19.922	-1.234	0.992
636.000	692.725	80.006	19.993	103.786	19.922	-1.219	0.997
637.000	693.800	80.006	19.993	103.789	19.921	-1.172	1.080
638.000	694.828	80.006	19.994	103.789	19.923	-1.322	1.016
639.000	695.863	80.006	19.994	103.786	19.925	-1.488	1.038
640.000	696.836	80.008	19.994	103.785	19.923	-1.361	0.997
641.000	697.882	80.005	19.993	103.782	19.927	-1.602	1.027
642.000	698.883	80.006	19.995	103.784	19.925	-1.514	1.012
643.000	699.895	80.004	19.994	103.784	19.926	-1.585	1.021
644.000	700.934	80.007	19.994	103.787	19.926	-1.523	1.002
645.000	701.949	80.007	19.994	103.787	19.925	-1.484	1.039
646.000	702.972	80.005	19.994	103.787	19.922	-1.245	1.001
647.000	703.976	80.007	19.993	103.788	19.925	-1.471	1.035
648.000	704.990	80.006	19.993	103.788	19.926	-1.555	1.016
649.000	706.005	80.007	19.993	103.788	19.926	-1.546	1.002
650.000	706.988	80.005	19.994	103.789	19.926	-1.570	1.015
651.000	708.008	80.006	19.994	103.788	19.925	-1.497	0.999
652.000	709.060	80.005	19.993	103.788	19.924	-1.366	1.028
653.000	710.093	80.007	19.994	103.789	19.924	-1.441	1.048
654.000	711.156	80.005	19.994	103.791	19.926	-1.529	1.035
655.000	712.135	80.006	19.993	103.791	19.923	-1.357	1.005
656.000	713.176	80.005	19.994	103.793	19.926	-1.534	1.026
657.000	714.181	80.006	19.993	103.793	19.923	-1.359	1.037
658.000	715.210	80.007	19.995	103.792	19.922	-1.239	1.010
659.000	716.239	80.006	19.992	103.792	19.926	-1.531	1.062
660.000	717.274	80.006	19.993	103.789	19.922	-1.236	1.010
661.000	718.291	80.007	19.993	103.788	19.926	-1.540	1.026
662.000	719.328	80.005	19.994	103.786	19.924	-1.381	1.030
663.000	720.337	80.005	19.993	103.786	19.925	-1.480	1.003
664.000	721.349	80.006	19.992	103.788	19.926	-1.592	1.040
665.000	722.380	80.006	19.993	103.790	19.924	-1.417	0.993
666.000	723.376	80.005	19.993	103.789	19.924	-1.370	1.034
667.000	724.428	80.004	19.993	103.789	19.925	-1.449	1.018
668.000	725.438	80.007	19.993	103.792	19.923	-1.340	0.995
669.000	726.451	80.005	19.994	103.792	19.922	-1.208	1.044
670.000	727.481	80.005	19.995	103.794	19.925	-1.445	1.010
671.000	728.533	80.005	19.995	103.793	19.925	-1.477	1.056
672.000	729.522	80.003	19.993	103.793	19.921	-1.148	1.017
673.000	730.564	80.006	19.994	103.793	19.924	-1.368	1.026
674.000	731.588	80.006	19.994	103.792	19.922	-1.236	1.034
675.000	732.647	80.005	19.995	103.789	19.923	-1.331	1.045
676.000	733.652	80.006	19.993	103.783	19.919	-1.034	0.997
677.000	734.702	80.005	19.993	103.784	19.924	-1.421	1.056
678.000	735.709	80.008	19.995	103.783	19.924	-1.391	1.013
679.000	736.713	80.007	19.994	103.788	19.920	-1.105	1.012