File: 01_Data/Bean_Bag_Chair_Outer_Cover/MCC/Bean_Bag_Chair_Outer_Cover_MCC_30K_min_220330_R6.txt
Sample ID:	C:\MCC\MCC Cal\Test\Bean_Bag_Chair_Outer_Cover\Bean_Bag_Chair_Outer_Cover_MCC_30K_min_220330_R6.txt
Sample Weight (mg):	4.94
Heating Rate (C/s):	0.5
Combustor Temp (C):	900
N2 Flow Rate (cc/min):	80
O2 Flow Rate (cc/min):	20
Calibration File:	C:\MCC\MCC Cal\Coeff1 JN10440_30_210304.txt.txt
T Correction Coefficients:	0	1.024463	0
Time Shift (s):	14
*
Time (s)	Temperature (C)	N2 flow rate (cc/min)	O2 flow rate (cc/min)	Flow Rate (cc/min)	Oxygen (%)	HRR (W/g)	Heating rate (C/s)
0.000	108.526	80.010	19.992	103.685	20.079	-0.071	-0.028
2.000	108.489	80.011	19.993	103.677	20.076	0.081	-0.021
4.000	108.478	80.013	19.994	103.671	20.080	-0.138	-0.024
6.001	108.488	80.012	19.992	103.684	20.075	0.169	-0.001
8.001	108.475	80.012	19.993	103.676	20.075	0.150	-0.016
10.000	108.477	80.013	19.994	103.681	20.074	0.221	0.005
12.000	108.487	80.014	19.993	103.690	20.071	0.433	-0.011
14.000	108.498	80.012	19.992	103.617	20.070	0.533	0.009
16.000	108.532	80.012	19.993	103.787	20.069	0.544	0.013
18.000	108.560	80.012	19.993	103.800	20.067	0.691	0.021
20.000	108.575	80.010	19.994	103.740	20.061	1.074	0.003
22.000	108.645	80.011	19.993	103.794	20.059	1.233	0.053
24.000	108.738	80.011	19.993	103.800	20.055	1.484	0.064
26.000	108.821	80.010	19.994	103.814	20.052	1.654	0.027
28.000	108.979	80.012	19.995	103.831	20.047	2.043	0.047
30.000	109.125	80.010	19.994	103.858	20.048	1.934	0.068
32.001	109.332	80.009	19.994	103.858	20.046	2.110	0.108
34.000	109.516	80.009	19.993	103.874	20.040	2.457	0.088
36.001	109.786	80.010	19.994	103.889	20.041	2.412	0.100
38.000	110.094	80.010	19.994	103.895	20.037	2.684	0.175
40.000	110.398	80.012	19.994	103.897	20.037	2.697	0.172
42.001	110.728	80.011	19.993	103.902	20.033	2.947	0.144
44.001	111.103	80.011	19.992	103.926	20.028	3.278	0.179
46.000	111.499	80.012	19.993	103.939	20.029	3.176	0.189
48.000	111.904	80.010	19.993	103.940	20.030	3.120	0.199
50.001	112.386	80.010	19.993	103.943	20.026	3.364	0.217
52.000	112.833	80.010	19.993	103.941	20.024	3.551	0.244
54.000	113.377	80.011	19.994	103.947	20.025	3.450	0.258
56.000	113.914	80.009	19.993	103.951	20.026	3.411	0.292
58.000	114.464	80.010	19.993	103.943	20.026	3.428	0.259
60.000	115.051	80.009	19.993	103.952	20.021	3.724	0.326
62.000	115.675	80.010	19.996	103.968	20.022	3.636	0.292
64.000	116.304	80.009	19.993	103.978	20.022	3.636	0.345
66.000	116.948	80.010	19.993	103.980	20.020	3.780	0.343
68.001	117.678	80.011	19.992	103.979	20.022	3.627	0.351
70.000	118.372	80.013	19.992	103.978	20.019	3.841	0.365
72.000	119.080	80.012	19.993	103.977	20.019	3.881	0.325
74.000	119.852	80.012	19.992	103.973	20.016	4.021	0.398
76.000	120.626	80.013	19.993	103.976	20.019	3.841	0.409
78.000	121.400	80.012	19.992	103.977	20.016	4.056	0.392
80.000	122.216	80.013	19.993	103.972	20.017	3.994	0.390
82.000	123.022	80.011	19.993	103.975	20.017	3.981	0.426
84.000	123.844	80.011	19.993	103.971	20.020	3.774	0.399
86.000	124.661	80.012	19.994	103.971	20.019	3.885	0.383
88.000	125.586	80.012	19.992	103.976	20.017	3.963	0.445
90.000	126.461	80.013	19.993	103.967	20.018	3.888	0.442
92.000	127.332	80.012	19.992	103.968	20.021	3.722	0.480
94.000	128.220	80.014	19.993	103.977	20.020	3.776	0.432
96.000	129.102	80.013	19.993	103.975	20.018	3.925	0.416
98.000	130.061	80.014	19.992	103.972	20.017	3.969	0.454
100.000	130.963	80.012	19.992	103.970	20.017	3.981	0.444
102.000	131.899	80.012	19.993	103.966	20.015	4.101	0.455
104.000	132.821	80.011	19.993	103.973	20.017	3.979	0.475
106.001	133.810	80.011	19.993	103.970	20.016	4.034	0.489
108.000	134.793	80.011	19.993	103.977	20.019	3.841	0.493
110.000	135.688	80.010	19.994	103.975	20.017	4.007	0.467
112.001	136.679	80.011	19.993	103.974	20.022	3.628	0.506
114.000	137.646	80.011	19.994	103.973	20.019	3.876	0.479
116.001	138.638	80.011	19.992	103.966	20.018	3.912	0.504
118.000	139.637	80.010	19.992	103.969	20.019	3.852	0.482
120.001	140.636	80.009	19.993	103.970	20.018	3.950	0.506
122.000	141.583	80.009	19.993	103.961	20.018	3.913	0.479
124.000	142.615	80.011	19.993	103.955	20.020	3.780	0.522
126.000	143.624	80.010	19.992	103.957	20.022	3.661	0.496
128.000	144.632	80.010	19.993	103.964	20.023	3.603	0.484
130.000	145.632	80.010	19.994	103.952	20.025	3.432	0.483
132.000	146.624	80.010	19.993	103.953	20.019	3.840	0.487
134.000	147.605	80.011	19.993	103.947	20.021	3.704	0.491
136.000	148.635	80.009	19.993	103.940	20.020	3.815	0.533
138.000	149.705	80.010	19.994	103.939	20.024	3.523	0.520
140.000	150.709	80.011	19.994	103.940	20.023	3.582	0.487
142.000	151.708	80.010	19.994	103.940	20.024	3.512	0.497
144.000	152.726	80.010	19.993	103.940	20.022	3.670	0.512
146.000	153.712	80.011	19.993	103.941	20.025	3.486	0.511
148.000	154.700	80.011	19.993	103.938	20.022	3.630	0.509
150.000	155.706	80.011	19.993	103.932	20.024	3.526	0.475
152.000	156.744	80.012	19.993	103.929	20.024	3.519	0.506
154.000	157.716	80.012	19.993	103.936	20.023	3.615	0.499
156.000	158.720	80.012	19.992	103.937	20.027	3.341	0.506
158.000	159.759	80.012	19.993	103.938	20.023	3.599	0.507
160.000	160.742	80.012	19.992	103.938	20.026	3.360	0.506
162.000	161.720	80.012	19.993	103.937	20.030	3.148	0.485
164.000	162.709	80.011	19.992	103.933	20.029	3.168	0.502
166.001	163.699	80.013	19.992	103.931	20.028	3.248	0.474
168.000	164.780	80.011	19.993	103.929	20.030	3.132	0.515
170.000	165.805	80.013	19.993	103.926	20.027	3.299	0.513
172.000	166.781	80.012	19.991	103.912	20.029	3.175	0.498
174.000	167.795	80.012	19.993	103.931	20.030	3.117	0.510
176.000	168.776	80.012	19.993	103.922	20.029	3.222	0.534
178.000	169.775	80.012	19.992	103.933	20.029	3.211	0.524
180.000	170.804	80.013	19.992	103.932	20.032	3.006	0.484
182.000	171.731	80.013	19.991	103.915	20.029	3.202	0.493
184.000	172.767	80.015	19.992	103.903	20.027	3.315	0.511
186.000	173.759	80.013	19.993	103.907	20.029	3.215	0.496
188.000	174.688	80.013	19.993	103.902	20.027	3.306	0.486
190.000	175.682	80.012	19.993	103.903	20.028	3.273	0.491
192.001	176.675	80.013	19.993	103.912	20.025	3.453	0.465
194.000	177.682	80.010	19.992	103.906	20.026	3.423	0.522
196.000	178.616	80.010	19.993	103.904	20.024	3.534	0.465
198.000	179.612	80.011	19.993	103.904	20.030	3.133	0.524
200.000	180.585	80.009	19.993	103.905	20.027	3.324	0.521
202.000	181.591	80.011	19.994	103.911	20.026	3.425	0.508
204.000	182.532	80.011	19.993	103.903	20.027	3.333	0.462
206.000	183.464	80.010	19.993	103.897	20.033	2.941	0.465
208.000	184.471	80.011	19.994	103.903	20.031	3.084	0.483
210.000	185.485	80.011	19.993	103.901	20.032	3.015	0.515
212.000	186.475	80.011	19.993	103.899	20.031	3.093	0.538
214.000	187.421	80.011	19.993	103.900	20.031	3.068	0.457
216.000	188.350	80.010	19.992	103.901	20.028	3.249	0.457
218.000	189.391	80.011	19.993	103.899	20.029	3.227	0.506
220.000	190.430	80.011	19.993	103.897	20.031	3.053	0.531
222.000	191.400	80.010	19.993	103.898	20.029	3.186	0.530
224.000	192.306	80.010	19.994	103.900	20.026	3.385	0.468
226.000	193.330	80.011	19.995	103.900	20.028	3.287	0.511
228.000	194.311	80.010	19.995	103.898	20.026	3.407	0.487
230.000	195.271	80.009	19.995	103.900	20.027	3.345	0.476
232.001	196.227	80.009	19.995	103.900	20.031	3.084	0.497
234.000	197.197	80.010	19.996	103.899	20.024	3.554	0.487
236.000	198.132	80.011	19.994	103.899	20.030	3.138	0.428
238.000	199.096	80.011	19.993	103.895	20.025	3.429	0.460
240.000	200.067	80.010	19.992	103.891	20.024	3.550	0.459
242.000	201.066	80.011	19.992	103.900	20.026	3.398	0.476
244.000	202.076	80.011	19.994	103.900	20.026	3.425	0.478
246.000	203.071	80.012	19.994	103.900	20.025	3.441	0.532
248.000	203.993	80.010	19.993	103.898	20.026	3.405	0.473
250.000	204.962	80.011	19.994	103.902	20.026	3.422	0.468
252.000	205.931	80.012	19.992	103.899	20.022	3.647	0.485
254.000	206.866	80.011	19.991	103.900	20.021	3.690	0.493
256.000	207.888	80.012	19.992	103.896	20.015	4.129	0.490
258.000	208.928	80.011	19.992	103.898	20.016	4.062	0.497
260.000	209.899	80.012	19.993	103.902	20.020	3.817	0.464
262.000	210.860	80.012	19.993	103.900	20.022	3.639	0.476
264.000	211.816	80.011	19.992	103.902	20.020	3.779	0.463
266.000	212.787	80.013	19.991	103.899	20.018	3.909	0.484
268.000	213.781	80.013	19.992	103.901	20.022	3.623	0.501
270.000	214.709	80.013	19.992	103.898	20.021	3.721	0.459
272.000	215.686	80.013	19.993	103.898	20.021	3.753	0.494
274.000	216.698	80.013	19.993	103.896	20.017	3.958	0.502
276.000	217.708	80.012	19.992	103.899	20.019	3.827	0.533
278.000	218.694	80.010	19.992	103.895	20.026	3.374	0.488
280.000	219.682	80.012	19.992	103.891	20.021	3.740	0.504
282.000	220.675	80.011	19.993	103.894	20.019	3.832	0.514
284.000	221.687	80.011	19.992	103.895	20.017	3.969	0.505
286.000	222.686	80.012	19.991	103.899	20.017	3.980	0.556
288.000	223.678	80.010	19.992	103.880	20.014	4.158	0.517
290.000	224.642	80.011	19.994	103.893	20.019	3.879	0.516
292.000	225.698	80.012	19.993	103.875	20.018	3.942	0.514
294.000	226.645	80.012	19.995	103.883	20.017	3.964	0.447
296.000	227.670	80.013	19.993	103.895	20.015	4.105	0.483
298.000	228.696	80.011	19.993	103.899	20.012	4.339	0.515
300.000	229.685	80.012	19.994	103.898	20.017	4.000	0.508
302.000	230.674	80.010	19.992	103.894	20.015	4.105	0.505
304.000	231.691	80.010	19.994	103.890	20.013	4.243	0.507
306.000	232.709	80.011	19.993	103.897	20.015	4.134	0.498
308.000	233.720	80.010	19.993	103.897	20.012	4.337	0.501
310.000	234.717	80.010	19.993	103.895	20.013	4.278	0.501
312.000	235.639	80.010	19.992	103.895	20.014	4.167	0.510
314.000	236.721	80.010	19.993	103.889	20.014	4.171	0.513
316.001	237.714	80.009	19.994	103.895	20.018	3.933	0.515
318.000	238.669	80.012	19.994	103.893	20.014	4.192	0.462
320.000	239.673	80.012	19.993	103.890	20.016	4.027	0.488
322.000	240.654	80.011	19.993	103.892	20.016	4.040	0.516
324.000	241.654	80.011	19.993	103.889	20.014	4.199	0.579
326.000	242.442	80.010	19.994	103.900	20.012	4.317	0.374
328.000	243.686	80.010	19.993	103.893	20.012	4.337	0.549
330.000	244.902	80.010	19.993	103.896	20.008	4.544	0.606
332.000	245.640	80.011	19.993	103.886	20.009	4.523	0.485
334.000	246.702	80.010	19.993	103.885	20.008	4.552	0.521
336.000	247.797	80.012	19.994	103.877	20.011	4.401	0.480
338.000	248.697	80.011	19.994	103.888	20.008	4.602	0.477
340.000	249.799	80.011	19.993	103.900	20.007	4.660	0.482
342.000	250.771	80.012	19.994	103.897	20.005	4.778	0.489
344.000	251.786	80.012	19.992	103.896	20.008	4.553	0.512
346.000	252.770	80.012	19.993	103.898	20.007	4.663	0.503
348.000	253.785	80.012	19.992	103.892	20.003	4.910	0.483
350.000	254.808	80.012	19.992	103.882	20.002	4.995	0.499
352.000	255.845	80.014	19.992	103.894	20.005	4.745	0.487
354.000	256.766	80.014	19.994	103.897	19.999	5.154	0.473
356.000	257.799	80.013	19.994	103.881	20.003	4.920	0.523
358.000	258.816	80.013	19.993	103.882	19.998	5.240	0.503
360.000	259.829	80.013	19.993	103.880	19.999	5.155	0.497
362.000	260.749	80.011	19.993	103.879	20.000	5.130	0.446
364.000	261.780	80.011	19.993	103.890	19.992	5.592	0.501
366.000	262.796	80.012	19.993	103.896	19.992	5.607	0.539
368.000	263.742	80.011	19.993	103.881	19.996	5.381	0.444
370.000	264.749	80.011	19.994	103.878	19.992	5.609	0.492
372.000	265.751	80.012	19.994	103.882	19.993	5.572	0.524
374.001	266.708	80.013	19.993	103.878	19.993	5.579	0.480
376.000	267.719	80.013	19.993	103.891	19.989	5.811	0.520
378.000	268.696	80.011	19.993	103.882	19.987	5.941	0.498
380.000	269.684	80.011	19.993	103.867	19.985	6.095	0.481
382.001	270.716	80.013	19.992	103.875	19.985	6.064	0.511
384.000	271.652	80.014	19.992	103.878	19.982	6.280	0.495
386.001	272.669	80.010	19.992	103.869	19.980	6.434	0.499
388.000	273.616	80.011	19.992	103.882	19.981	6.364	0.477
390.000	274.534	80.012	19.992	103.893	19.978	6.550	0.467
392.000	275.518	80.011	19.993	103.888	19.975	6.741	0.449
394.000	276.453	80.011	19.993	103.898	19.976	6.694	0.420
396.000	277.403	80.010	19.993	103.885	19.970	7.072	0.469
398.000	278.397	80.010	19.994	103.890	19.969	7.149	0.488
400.000	279.324	80.009	19.993	103.891	19.969	7.133	0.479
402.000	280.312	80.010	19.993	103.898	19.965	7.394	0.489
404.000	281.270	80.007	19.992	103.898	19.962	7.608	0.433
406.000	282.226	80.011	19.994	103.903	19.958	7.853	0.481
408.000	283.180	80.011	19.993	103.897	19.954	8.107	0.513
410.000	284.168	80.013	19.994	103.890	19.950	8.363	0.509
412.000	285.137	80.014	19.993	103.892	19.948	8.490	0.492
414.000	286.054	80.014	19.994	103.898	19.948	8.479	0.450
416.000	287.029	80.013	19.993	103.892	19.942	8.893	0.485
418.000	287.991	80.012	19.992	103.895	19.937	9.236	0.471
420.000	288.950	80.011	19.993	103.898	19.936	9.330	0.488
422.000	289.890	80.010	19.993	103.898	19.931	9.645	0.472
424.000	290.911	80.010	19.993	103.899	19.924	10.062	0.490
426.000	291.891	80.012	19.994	103.900	19.917	10.567	0.501
428.000	292.855	80.013	19.992	103.901	19.915	10.701	0.520
430.000	293.805	80.011	19.994	103.912	19.910	11.036	0.456
432.000	294.773	80.010	19.994	103.910	19.904	11.388	0.468
434.000	295.780	80.013	19.994	103.917	19.895	11.971	0.482
436.000	296.784	80.015	19.993	103.934	19.895	11.963	0.511
438.001	297.763	80.013	19.995	103.931	19.883	12.753	0.510
440.000	298.743	80.013	19.993	103.933	19.881	12.909	0.516
442.000	299.759	80.012	19.994	103.935	19.874	13.370	0.515
444.000	300.723	80.013	19.993	103.937	19.869	13.727	0.482
446.001	301.750	80.013	19.993	103.940	19.862	14.163	0.492
448.000	302.697	80.012	19.992	103.938	19.854	14.704	0.481
450.001	303.735	80.012	19.993	103.938	19.840	15.588	0.526
452.000	304.686	80.012	19.992	103.939	19.834	15.995	0.446
454.000	305.741	80.012	19.993	103.968	19.822	16.785	0.536
456.000	306.737	80.012	19.993	103.976	19.815	17.274	0.528
458.000	307.773	80.012	19.992	103.976	19.802	18.112	0.523
460.000	308.780	80.011	19.993	103.975	19.791	18.810	0.517
462.000	309.788	80.009	19.993	103.976	19.781	19.471	0.506
464.000	310.792	80.011	19.992	103.979	19.770	20.204	0.508
466.000	311.802	80.011	19.993	103.983	19.756	21.119	0.504
468.000	312.842	80.010	19.992	103.988	19.740	22.158	0.517
470.000	313.839	80.011	19.993	103.995	19.729	22.909	0.508
472.000	314.855	80.011	19.993	103.995	19.714	23.925	0.485
474.001	315.884	80.011	19.993	104.016	19.698	24.960	0.498
476.000	316.898	80.009	19.994	104.017	19.680	26.112	0.478
478.000	317.891	80.011	19.993	104.016	19.664	27.183	0.526
480.000	318.867	80.011	19.994	104.022	19.645	28.434	0.532
482.000	319.840	80.011	19.993	104.021	19.625	29.760	0.510
484.000	320.834	80.011	19.993	104.036	19.605	31.065	0.509
486.000	321.878	80.010	19.993	104.053	19.578	32.844	0.524
488.000	322.834	80.011	19.992	104.061	19.556	34.309	0.450
490.000	323.863	80.011	19.993	104.083	19.531	35.935	0.479
492.000	324.835	80.011	19.992	104.086	19.511	37.254	0.515
494.000	325.880	80.013	19.993	104.095	19.479	39.405	0.510
496.000	326.868	80.014	19.993	104.105	19.450	41.282	0.504
498.000	327.883	80.013	19.993	104.128	19.417	43.488	0.508
500.000	328.871	80.013	19.992	104.133	19.387	45.433	0.499
502.000	329.913	80.013	19.993	104.150	19.352	47.750	0.516
504.000	330.900	80.012	19.993	104.152	19.316	50.177	0.521
506.000	331.979	80.011	19.994	104.169	19.279	52.583	0.549
508.000	332.920	80.012	19.992	104.186	19.243	55.004	0.478
510.000	333.918	80.012	19.992	104.212	19.207	57.348	0.494
512.000	334.894	80.010	19.993	104.222	19.160	60.473	0.477
514.000	335.920	80.011	19.992	104.243	19.125	62.788	0.506
516.000	336.898	80.012	19.993	104.253	19.080	65.735	0.502
518.000	337.899	80.013	19.993	104.263	19.036	68.647	0.468
520.000	338.867	80.014	19.993	104.289	18.993	71.511	0.472
522.000	339.838	80.012	19.993	104.307	18.946	74.614	0.463
524.000	340.837	80.013	19.992	104.327	18.895	78.028	0.492
526.000	341.867	80.012	19.993	104.330	18.844	81.362	0.543
528.000	342.839	80.012	19.993	104.355	18.798	84.435	0.492
530.000	343.756	80.011	19.994	104.377	18.746	87.846	0.451
532.000	344.747	80.010	19.993	104.390	18.696	91.156	0.499
534.000	345.736	80.009	19.996	104.413	18.643	94.699	0.497
536.000	346.715	80.009	19.995	104.445	18.593	98.029	0.463
538.000	347.668	80.010	19.994	104.449	18.544	101.270	0.456
540.000	348.669	80.009	19.994	104.449	18.496	104.410	0.487
542.000	349.654	80.011	19.994	104.460	18.450	107.452	0.487
544.000	350.670	80.011	19.994	104.483	18.401	110.693	0.472
546.000	351.629	80.012	19.992	104.504	18.349	114.159	0.493
548.000	352.649	80.011	19.993	104.521	18.309	116.755	0.510
550.000	353.645	80.010	19.992	104.524	18.269	119.392	0.498
552.000	354.646	80.011	19.993	104.524	18.229	122.020	0.487
554.000	355.622	80.010	19.993	104.529	18.194	124.364	0.470
556.000	356.640	80.012	19.994	104.531	18.164	126.323	0.489
558.000	357.664	80.011	19.992	104.547	18.134	128.293	0.532
560.000	358.650	80.010	19.992	104.536	18.118	129.285	0.514
562.000	359.622	80.012	19.993	104.526	18.105	130.104	0.481
564.000	360.693	80.011	19.993	104.530	18.087	131.326	0.519
566.000	361.689	80.010	19.993	104.502	18.090	131.076	0.513
568.000	362.688	80.012	19.993	104.494	18.087	131.209	0.519
570.000	363.734	80.011	19.993	104.479	18.102	130.168	0.546
572.000	364.689	80.011	19.993	104.450	18.116	129.208	0.510
574.000	365.690	80.012	19.993	104.441	18.141	127.546	0.498
576.000	366.797	80.011	19.992	104.421	18.175	125.311	0.557
578.000	367.732	80.012	19.992	104.385	18.216	122.532	0.455
580.000	368.718	80.014	19.992	104.351	18.267	119.123	0.509
582.000	369.720	80.013	19.992	104.320	18.319	115.665	0.504
584.000	370.725	80.014	19.992	104.283	18.382	111.483	0.507
586.000	371.710	80.014	19.991	104.254	18.447	107.186	0.503
588.000	372.712	80.012	19.991	104.237	18.520	102.390	0.531
590.000	373.718	80.012	19.992	104.199	18.602	96.990	0.524
592.000	374.760	80.013	19.992	104.164	18.686	91.395	0.523
594.000	375.740	80.012	19.994	104.135	18.767	86.059	0.495
596.000	376.723	80.012	19.993	104.108	18.861	79.909	0.501
598.001	377.770	80.013	19.993	104.071	18.951	73.990	0.539
600.000	378.761	80.011	19.992	104.048	19.033	68.594	0.493
602.000	379.734	80.011	19.993	104.021	19.117	63.009	0.486
604.000	380.808	80.011	19.993	104.007	19.201	57.556	0.534
606.000	381.802	80.012	19.993	103.971	19.283	52.143	0.529
608.000	382.845	80.014	19.994	103.960	19.360	47.083	0.504
610.000	383.917	80.014	19.993	103.936	19.433	42.313	0.518
612.000	384.946	80.013	19.993	103.905	19.497	38.067	0.508
614.000	385.977	80.014	19.993	103.896	19.558	34.053	0.508
616.000	386.970	80.012	19.993	103.889	19.619	30.058	0.514
618.000	388.053	80.011	19.993	103.860	19.676	26.355	0.555
620.000	389.075	80.012	19.995	103.860	19.719	23.512	0.490
622.000	390.147	80.012	19.993	103.852	19.762	20.706	0.498
624.000	391.176	80.010	19.993	103.845	19.801	18.161	0.518
626.000	392.193	80.010	19.994	103.838	19.833	16.049	0.543
628.001	393.208	80.011	19.994	103.833	19.861	14.199	0.505
630.000	394.290	80.010	19.994	103.833	19.888	12.467	0.530
632.000	395.342	80.011	19.995	103.824	19.909	11.036	0.538
634.000	396.349	80.011	19.995	103.825	19.927	9.894	0.502
636.000	397.341	80.011	19.995	103.822	19.944	8.788	0.523
638.000	398.366	80.011	19.995	103.831	19.962	7.614	0.520
640.000	399.397	80.011	19.995	103.828	19.969	7.144	0.513
642.000	400.421	80.011	19.993	103.822	19.971	7.003	0.534
644.000	401.389	80.012	19.995	103.820	19.980	6.427	0.495
646.000	402.431	80.012	19.994	103.819	19.993	5.582	0.541
648.000	403.364	80.012	19.993	103.824	19.996	5.359	0.482
650.000	404.359	80.012	19.993	103.823	19.996	5.375	0.463
652.000	405.290	80.012	19.994	103.821	19.999	5.159	0.434
654.000	406.294	80.010	19.994	103.830	20.003	4.931	0.494
656.000	407.207	80.011	19.994	103.825	20.005	4.750	0.463
658.000	408.150	80.012	19.993	103.824	20.008	4.547	0.470
660.000	409.085	80.011	19.993	103.823	20.010	4.465	0.448
662.000	410.025	80.013	19.994	103.818	20.010	4.429	0.477
664.000	410.965	80.012	19.993	103.826	20.011	4.398	0.464
666.000	411.900	80.013	19.993	103.825	20.007	4.605	0.468
668.000	412.785	80.012	19.992	103.827	20.008	4.539	0.474
670.000	413.770	80.012	19.992	103.827	20.003	4.878	0.468
672.000	414.678	80.012	19.993	103.826	20.007	4.657	0.466
674.000	415.679	80.013	19.992	103.826	20.009	4.534	0.501
676.000	416.567	80.012	19.992	103.826	20.006	4.715	0.423
678.000	417.537	80.011	19.993	103.823	20.009	4.490	0.497
680.000	418.487	80.012	19.992	103.822	20.010	4.416	0.489
682.000	419.460	80.013	19.993	103.822	20.008	4.543	0.485
684.000	420.398	80.013	19.993	103.821	20.011	4.362	0.474
686.000	421.350	80.013	19.992	103.818	20.006	4.681	0.473
688.000	422.335	80.015	19.994	103.816	20.005	4.766	0.484
690.000	423.326	80.014	19.992	103.821	20.005	4.757	0.491
692.000	424.271	80.015	19.992	103.818	20.007	4.621	0.475
694.000	425.272	80.015	19.993	103.818	20.005	4.738	0.517
696.000	426.212	80.014	19.993	103.819	20.005	4.775	0.484
698.000	427.156	80.013	19.992	103.819	20.008	4.546	0.495
700.000	428.096	80.013	19.992	103.820	20.010	4.445	0.486
702.000	429.036	80.010	19.992	103.821	20.013	4.256	0.486
704.000	429.998	80.012	19.994	103.816	20.009	4.476	0.478
706.000	431.023	80.011	19.992	103.816	20.011	4.389	0.511
708.000	431.903	80.011	19.993	103.821	20.006	4.708	0.440
710.000	432.889	80.011	19.992	103.820	20.009	4.498	0.464
712.000	433.871	80.011	19.995	103.818	20.013	4.228	0.452
714.000	434.852	80.012	19.995	103.822	20.011	4.379	0.489
716.000	435.814	80.012	19.994	103.822	20.011	4.385	0.488
718.000	436.760	80.012	19.993	103.823	20.011	4.393	0.488
720.000	437.731	80.011	19.993	103.824	20.014	4.186	0.488
722.000	438.635	80.010	19.992	103.828	20.009	4.532	0.453
724.000	439.637	80.012	19.993	103.831	20.015	4.135	0.516
726.000	440.623	80.011	19.995	103.835	20.011	4.351	0.462
728.000	441.577	80.011	19.993	103.826	20.011	4.365	0.457
730.000	442.545	80.012	19.995	103.825	20.013	4.242	0.486
732.000	443.565	80.010	19.993	103.824	20.008	4.546	0.536
734.000	444.548	80.010	19.994	103.823	20.010	4.414	0.464
736.001	445.497	80.009	19.994	103.822	20.010	4.460	0.466
738.000	446.519	80.009	19.995	103.824	20.011	4.373	0.476
740.000	447.539	80.010	19.993	103.824	20.010	4.418	0.516
742.000	448.489	80.011	19.994	103.822	20.010	4.416	0.477
744.000	449.522	80.012	19.994	103.822	20.014	4.207	0.504
746.000	450.543	80.011	19.993	103.825	20.010	4.443	0.518
748.000	451.578	80.012	19.991	103.822	20.017	3.966	0.527
750.000	452.599	80.013	19.992	103.823	20.012	4.276	0.508
752.000	453.623	80.013	19.992	103.821	20.015	4.106	0.559
754.000	454.659	80.012	19.993	103.820	20.013	4.249	0.504
756.000	455.713	80.011	19.993	103.822	20.017	3.965	0.527
758.000	456.800	80.013	19.993	103.823	20.011	4.349	0.547
760.000	457.782	80.012	19.992	103.816	20.014	4.164	0.514
762.000	458.856	80.012	19.992	103.816	20.009	4.532	0.540
764.000	459.878	80.011	19.994	103.822	20.010	4.416	0.515
766.000	460.902	80.012	19.993	103.823	20.021	3.721	0.511
768.001	461.966	80.011	19.992	103.821	20.021	3.685	0.533
770.000	462.995	80.014	19.994	103.822	20.019	3.865	0.539
772.000	464.006	80.013	19.993	103.820	20.016	4.052	0.532
774.001	465.006	80.014	19.995	103.820	20.014	4.160	0.473
776.000	466.001	80.014	19.993	103.818	20.017	4.012	0.489
778.000	467.088	80.014	19.993	103.812	20.011	4.391	0.542
780.000	468.116	80.014	19.993	103.808	20.022	3.676	0.526
782.000	469.158	80.014	19.993	103.821	20.018	3.897	0.526
784.000	470.139	80.013	19.993	103.820	20.017	3.951	0.497
786.000	471.182	80.011	19.993	103.824	20.017	3.952	0.524
788.000	472.183	80.009	19.990	103.822	20.017	3.990	0.520
790.000	473.238	80.011	19.992	103.820	20.017	3.981	0.513
792.000	474.304	80.008	19.991	103.819	20.019	3.828	0.535
794.000	475.261	80.010	19.994	103.814	20.015	4.111	0.508
796.000	476.308	80.011	19.993	103.808	20.019	3.879	0.505
798.000	477.362	80.010	19.992	103.821	20.015	4.120	0.524
800.000	478.350	80.009	19.993	103.824	20.017	3.986	0.496
802.000	479.376	80.010	19.993	103.819	20.018	3.912	0.495
804.000	480.405	80.010	19.994	103.812	20.017	3.979	0.529
806.000	481.442	80.012	19.993	103.818	20.013	4.251	0.526
808.000	482.408	80.012	19.993	103.818	20.017	3.979	0.517
810.000	483.481	80.012	19.994	103.821	20.016	4.071	0.543
812.000	484.473	80.012	19.994	103.819	20.017	3.995	0.529
814.000	485.450	80.011	19.994	103.819	20.016	4.030	0.513
816.000	486.474	80.010	19.993	103.821	20.012	4.311	0.470
818.000	487.517	80.011	19.993	103.816	20.017	3.965	0.539
820.000	488.536	80.010	19.992	103.813	20.019	3.839	0.524
822.000	489.560	80.010	19.994	103.818	20.015	4.139	0.531
824.000	490.582	80.010	19.994	103.815	20.016	4.052	0.492
826.000	491.615	80.012	19.994	103.819	20.015	4.115	0.528
828.000	492.640	80.010	19.994	103.821	20.020	3.783	0.507
830.000	493.700	80.011	19.993	103.819	20.018	3.943	0.517
832.000	494.767	80.012	19.994	103.819	20.021	3.727	0.539
834.000	495.808	80.011	19.996	103.819	20.021	3.734	0.493
836.000	496.813	80.012	19.994	103.820	20.022	3.680	0.512
838.000	497.908	80.010	19.994	103.813	20.019	3.863	0.544
840.000	499.008	80.011	19.994	103.820	20.018	3.905	0.561
842.000	500.066	80.011	19.993	103.824	20.019	3.840	0.541
844.000	501.147	80.011	19.992	103.821	20.019	3.854	0.528
846.000	502.234	80.011	19.991	103.820	20.026	3.366	0.542
848.000	503.325	80.011	19.993	103.822	20.021	3.707	0.576
850.000	504.462	80.012	19.992	103.821	20.014	4.149	0.563
852.000	505.578	80.012	19.993	103.824	20.017	3.957	0.572
854.000	506.695	80.012	19.993	103.823	20.019	3.845	0.557
856.000	507.805	80.012	19.993	103.822	20.015	4.079	0.539
858.000	508.942	80.012	19.992	103.822	20.017	4.012	0.583
860.000	510.059	80.012	19.993	103.825	20.019	3.821	0.568
862.000	511.172	80.014	19.992	103.807	20.018	3.892	0.592
864.000	512.258	80.013	19.993	103.820	20.015	4.140	0.555
866.000	513.370	80.013	19.992	103.816	20.016	4.038	0.524
868.001	514.500	80.012	19.992	103.821	20.020	3.783	0.580
870.000	515.635	80.011	19.992	103.821	20.021	3.706	0.545
872.000	516.754	80.012	19.992	103.821	20.020	3.788	0.567
874.001	517.839	80.011	19.994	103.815	20.018	3.940	0.558
876.000	518.915	80.013	19.993	103.815	20.023	3.616	0.551
878.000	519.966	80.012	19.993	103.805	20.018	3.902	0.552
880.000	521.055	80.012	19.991	103.795	20.021	3.694	0.525
882.000	522.145	80.012	19.993	103.803	20.020	3.772	0.559
884.000	523.226	80.013	19.993	103.813	20.021	3.742	0.515
886.000	524.299	80.012	19.992	103.796	20.019	3.865	0.532
888.000	525.350	80.012	19.992	103.805	20.017	3.953	0.534
890.000	526.429	80.012	19.994	103.800	20.017	4.002	0.592
892.000	527.477	80.011	19.992	103.810	20.020	3.801	0.539
894.001	528.527	80.011	19.994	103.817	20.024	3.491	0.539
896.000	529.555	80.012	19.993	103.821	20.020	3.812	0.485
898.000	530.627	80.013	19.994	103.816	20.020	3.794	0.506
900.000	531.682	80.011	19.994	103.796	20.019	3.823	0.527
902.000	532.685	80.011	19.994	103.804	20.025	3.467	0.506
904.000	533.702	80.010	19.993	103.809	20.021	3.704	0.522
906.000	534.710	80.010	19.995	103.798	20.027	3.339	0.506
908.000	535.751	80.009	19.994	103.813	20.029	3.225	0.512
910.000	536.851	80.011	19.994	103.812	20.023	3.571	0.540
912.000	537.837	80.010	19.993	103.799	20.024	3.511	0.531
914.000	538.883	80.012	19.992	103.815	20.025	3.442	0.507
916.000	539.969	80.012	19.993	103.819	20.024	3.514	0.521
918.000	541.041	80.011	19.994	103.817	20.025	3.444	0.526
920.000	542.079	80.012	19.993	103.822	20.024	3.516	0.524
922.000	543.141	80.012	19.992	103.816	20.021	3.719	0.526
924.000	544.175	80.012	19.992	103.816	20.023	3.578	0.519
926.000	545.221	80.011	19.994	103.802	20.019	3.853	0.531
928.000	546.293	80.012	19.993	103.803	20.017	4.012	0.545
930.000	547.342	80.012	19.994	103.812	20.015	4.120	0.505
932.000	548.331	80.010	19.994	103.791	20.017	3.954	0.514
934.000	549.391	80.011	19.993	103.805	20.017	3.986	0.510
936.000	550.420	80.011	19.994	103.797	20.019	3.881	0.505
938.000	551.457	80.012	19.994	103.814	20.020	3.815	0.507
940.000	552.450	80.011	19.993	103.815	20.020	3.803	0.506
942.000	553.477	80.012	19.992	103.821	20.017	3.971	0.512
944.000	554.485	80.014	19.992	103.804	20.020	3.755	0.487
946.000	555.483	80.013	19.992	103.815	20.015	4.109	0.489
948.000	556.475	80.013	19.991	103.809	20.020	3.790	0.483
950.000	557.538	80.014	19.992	103.804	20.020	3.788	0.502
952.000	558.542	80.012	19.991	103.804	20.025	3.456	0.508
954.000	559.518	80.013	19.994	103.800	20.023	3.592	0.480
956.000	560.541	80.011	19.994	103.803	20.024	3.535	0.516
958.000	561.574	80.012	19.993	103.799	20.022	3.623	0.522
960.000	562.577	80.011	19.992	103.791	20.022	3.632	0.495
962.000	563.557	80.011	19.993	103.799	20.022	3.648	0.479
964.000	564.560	80.011	19.994	103.800	20.027	3.328	0.480
966.000	565.532	80.010	19.993	103.787	20.026	3.412	0.494
968.000	566.508	80.013	19.993	103.783	20.025	3.458	0.531
970.000	567.454	80.012	19.992	103.788	20.019	3.855	0.483
972.000	568.415	80.011	19.991	103.787	20.018	3.891	0.501
974.000	569.413	80.013	19.993	103.801	20.017	3.953	0.481
976.000	570.424	80.011	19.991	103.798	20.023	3.601	0.489
978.000	571.373	80.012	19.994	103.799	20.023	3.558	0.485
980.000	572.349	80.011	19.992	103.803	20.021	3.699	0.467
982.000	573.387	80.011	19.992	103.801	20.020	3.777	0.495
984.000	574.366	80.011	19.993	103.797	20.023	3.587	0.506
986.000	575.427	80.012	19.991	103.807	20.020	3.781	0.528
988.000	576.367	80.009	19.992	103.806	20.028	3.255	0.450
990.000	577.429	80.010	19.992	103.791	20.024	3.495	0.512
992.000	578.465	80.011	19.993	103.803	20.022	3.643	0.500
994.000	579.477	80.012	19.993	103.807	20.026	3.393	0.503
996.000	580.450	80.011	19.993	103.817	20.024	3.527	0.524
998.000	581.521	80.011	19.994	103.812	20.022	3.654	0.513
1000.000	582.525	80.011	19.993	103.806	20.023	3.563	0.520
1002.000	583.579	80.012	19.991	103.806	20.026	3.391	0.529
1004.000	584.530	80.012	19.992	103.809	20.027	3.317	0.468
1006.000	585.577	80.012	19.993	103.805	20.028	3.258	0.536
1008.000	586.588	80.011	19.992	103.796	20.023	3.579	0.525
1010.000	587.554	80.012	19.993	103.791	20.024	3.533	0.471
1012.000	588.605	80.011	19.993	103.787	20.022	3.680	0.556
1014.000	589.600	80.011	19.995	103.798	20.026	3.379	0.475
1016.000	590.577	80.012	19.993	103.793	20.028	3.250	0.496
1018.000	591.549	80.011	19.994	103.786	20.025	3.428	0.483
1020.000	592.625	80.012	19.994	103.800	20.024	3.511	0.513
1022.000	593.546	80.011	19.993	103.813	20.028	3.228	0.485
1024.000	594.604	80.011	19.993	103.810	20.024	3.507	0.540
1026.000	595.565	80.012	19.993	103.815	20.027	3.308	0.529
1028.000	596.590	80.013	19.994	103.805	20.024	3.514	0.533
1030.000	597.544	80.012	19.993	103.816	20.023	3.592	0.454
1032.001	598.568	80.013	19.994	103.805	20.022	3.656	0.511
1034.001	599.485	80.013	19.992	103.799	20.022	3.659	0.465
1036.000	600.527	80.013	19.995	103.800	20.023	3.590	0.517
1038.000	601.515	80.012	19.993	103.802	20.023	3.565	0.508
1040.000	602.486	80.012	19.992	103.801	20.022	3.675	0.491
1042.000	603.513	80.012	19.993	103.804	20.022	3.675	0.517
1044.000	604.536	80.011	19.993	103.806	20.021	3.704	0.516
1046.000	605.498	80.011	19.993	103.799	20.025	3.467	0.499
1048.000	606.537	80.011	19.993	103.808	20.024	3.523	0.539
1050.000	607.548	80.010	19.993	103.801	20.025	3.423	0.524
1052.000	608.589	80.012	19.992	103.798	20.027	3.317	0.525
1054.001	609.627	80.012	19.993	103.789	20.029	3.173	0.489
1056.000	610.681	80.012	19.992	103.791	20.030	3.158	0.513
1058.000	611.722	80.012	19.992	103.793	20.028	3.257	0.546
1060.000	612.729	80.011	19.992	103.794	20.029	3.220	0.510
1062.000	613.818	80.011	19.992	103.791	20.026	3.364	0.526
1064.000	614.907	80.011	19.992	103.792	20.031	3.090	0.523
1066.000	615.965	80.011	19.994	103.801	20.027	3.329	0.546
1068.000	617.027	80.011	19.992	103.803	20.027	3.322	0.537
1070.001	618.086	80.010	19.993	103.789	20.031	3.054	0.538
1072.000	619.168	80.009	19.992	103.792	20.025	3.451	0.540
1074.000	620.194	80.009	19.993	103.802	20.027	3.329	0.532
1076.000	621.259	80.010	19.993	103.798	20.023	3.603	0.546
1078.000	622.333	80.011	19.993	103.796	20.026	3.358	0.521
1080.000	623.371	80.010	19.993	103.795	20.027	3.340	0.531
1082.000	624.387	80.013	19.993	103.798	20.025	3.447	0.502
1084.000	625.472	80.011	19.993	103.789	20.030	3.133	0.541
1086.001	626.495	80.013	19.993	103.802	20.027	3.327	0.502
1088.000	627.536	80.013	19.992	103.787	20.023	3.568	0.524
1090.000	628.604	80.012	19.992	103.782	20.033	2.899	0.536
1092.000	629.602	80.012	19.994	103.788	20.026	3.392	0.507
1094.000	630.683	80.012	19.993	103.785	20.034	2.847	0.556
1096.000	631.679	80.013	19.993	103.782	20.031	3.054	0.516
1098.001	632.737	80.011	19.993	103.781	20.032	3.012	0.508
1100.000	633.739	80.012	19.994	103.777	20.031	3.070	0.559
1102.000	634.809	80.012	19.994	103.787	20.030	3.126	0.566
1104.000	635.825	80.014	19.993	103.782	20.033	2.923	0.561
1106.000	636.855	80.012	19.994	103.784	20.031	3.068	0.502
1108.001	637.843	80.013	19.994	103.786	20.034	2.849	0.489
1110.001	638.857	80.013	19.993	103.786	20.033	2.916	0.497
1112.000	639.894	80.014	19.992	103.793	20.034	2.840	0.487
1114.001	640.896	80.013	19.992	103.785	20.032	3.015	0.477
1116.000	641.846	80.013	19.992	103.785	20.029	3.177	0.470
1118.000	642.844	80.014	19.993	103.783	20.033	2.941	0.500
1120.000	643.854	80.013	19.993	103.786	20.035	2.822	0.514
1122.000	644.802	80.012	19.993	103.786	20.033	2.921	0.480
1124.000	645.788	80.011	19.993	103.787	20.029	3.206	0.500
1126.000	646.740	80.011	19.994	103.786	20.033	2.912	0.465
1128.000	647.752	80.010	19.994	103.789	20.029	3.171	0.489
1130.000	648.776	80.010	19.993	103.793	20.027	3.309	0.530
1132.000	649.786	80.010	19.993	103.782	20.027	3.334	0.530
1134.000	650.791	80.010	19.995	103.782	20.031	3.090	0.517
1136.000	651.798	80.010	19.994	103.783	20.026	3.420	0.526
1138.000	652.799	80.010	19.993	103.784	20.029	3.218	0.466
1140.000	653.825	80.011	19.994	103.788	20.024	3.508	0.514
1142.000	654.842	80.011	19.994	103.785	20.027	3.322	0.530
1144.000	655.868	80.011	19.993	103.786	20.025	3.441	0.529
1146.000	656.883	80.013	19.992	103.786	20.026	3.402	0.527
1148.000	657.919	80.011	19.992	103.785	20.022	3.641	0.530
1150.000	658.971	80.013	19.993	103.784	20.025	3.425	0.526
1152.000	660.037	80.011	19.992	103.781	20.027	3.334	0.529
1154.000	661.011	80.012	19.992	103.782	20.026	3.387	0.521
1156.001	662.055	80.012	19.994	103.791	20.027	3.343	0.499
1158.000	663.104	80.011	19.992	103.786	20.028	3.269	0.531
1160.000	664.179	80.010	19.992	103.783	20.026	3.418	0.519
1162.000	665.223	80.011	19.992	103.786	20.027	3.294	0.524
1164.000	666.261	80.012	19.993	103.783	20.027	3.339	0.527
1166.000	667.260	80.012	19.992	103.783	20.024	3.490	0.507
1168.000	668.274	80.012	19.992	103.781	20.029	3.209	0.506
1170.000	669.303	80.013	19.993	103.781	20.028	3.253	0.517
1172.000	670.300	80.014	19.992	103.781	20.029	3.218	0.483
1174.000	671.338	80.014	19.993	103.772	20.028	3.269	0.503
1176.001	672.327	80.013	19.993	103.775	20.026	3.367	0.493
1178.000	673.286	80.014	19.993	103.781	20.028	3.246	0.477
1180.001	674.320	80.013	19.991	103.780	20.023	3.561	0.488
1182.000	675.391	80.013	19.992	103.783	20.028	3.265	0.517
1184.000	676.372	80.013	19.992	103.784	20.028	3.240	0.509
1186.000	677.434	80.013	19.992	103.791	20.029	3.191	0.537
1188.000	678.494	80.013	19.992	103.792	20.028	3.274	0.536
1190.000	679.526	80.013	19.992	103.797	20.026	3.392	0.511
1192.000	680.572	80.014	19.992	103.785	20.026	3.380	0.526
1194.000	681.575	80.014	19.993	103.784	20.026	3.418	0.503
1196.001	682.646	80.014	19.993	103.787	20.022	3.623	0.545
1198.001	683.744	80.014	19.993	103.783	20.026	3.407	0.522
1200.000	684.809	80.014	19.993	103.783	20.027	3.353	0.543
1202.000	685.856	80.013	19.994	103.789	20.024	3.505	0.528
1204.000	686.945	80.013	19.993	103.788	20.026	3.402	0.539
1206.000	687.980	80.012	19.993	103.798	20.030	3.155	0.528
1208.000	689.054	80.012	19.993	103.787	20.031	3.053	0.532
1210.000	690.150	80.011	19.993	103.785	20.026	3.410	0.572
1212.000	691.200	80.011	19.993	103.786	20.029	3.206	0.540
1214.000	692.256	80.011	19.993	103.791	20.028	3.273	0.521
1216.000	693.319	80.011	19.993	103.782	20.031	3.054	0.511
1218.001	694.421	80.012	19.994	103.782	20.031	3.068	0.536
1220.001	695.551	80.011	19.993	103.782	20.029	3.195	0.557
1222.000	696.618	80.011	19.994	103.785	20.024	3.515	0.536
1224.000	697.689	80.010	19.994	103.790	20.027	3.307	0.499
1226.000	698.755	80.012	19.993	103.786	20.027	3.342	0.534
1228.000	699.845	80.011	19.994	103.792	20.029	3.222	0.532
1230.000	700.899	80.011	19.993	103.787	20.025	3.448	0.540
1232.000	701.920	80.011	19.994	103.780	20.025	3.432	0.508
1234.000	702.966	80.011	19.994	103.781	20.028	3.278	0.526
1236.000	704.035	80.011	19.994	103.782	20.026	3.392	0.522
1238.001	705.073	80.012	19.994	103.781	20.025	3.436	0.503
1240.001	706.094	80.012	19.993	103.782	20.026	3.416	0.535
1242.000	707.133	80.011	19.995	103.783	20.029	3.164	0.509
1244.000	708.149	80.011	19.993	103.783	20.027	3.293	0.485
1246.000	709.171	80.012	19.994	103.784	20.029	3.170	0.522
1248.000	710.213	80.011	19.993	103.786	20.027	3.351	0.510
1250.000	711.224	80.012	19.993	103.787	20.028	3.260	0.464
1252.001	712.257	80.012	19.994	103.791	20.028	3.262	0.490
1254.000	713.299	80.013	19.993	103.790	20.026	3.405	0.531
1256.000	714.407	80.013	19.993	103.789	20.026	3.403	0.528
1258.000	715.430	80.014	19.993	103.789	20.026	3.403	0.515
1260.000	716.513	80.013	19.992	103.788	20.026	3.367	0.531
1262.000	717.512	80.013	19.993	103.780	20.025	3.461	0.571
1264.000	718.570	80.012	19.994	103.784	20.024	3.503	0.547
1266.000	719.580	80.012	19.993	103.784	20.026	3.392	0.520
1268.000	720.605	80.011	19.992	103.786	20.026	3.412	0.532
1270.000	721.629	80.012	19.992	103.786	20.025	3.439	0.527
1272.000	722.670	80.012	19.992	103.786	20.027	3.342	0.525
1274.001	723.695	80.013	19.992	103.788	20.027	3.296	0.537
1276.000	724.702	80.016	19.993	103.786	20.031	3.072	0.504
1278.001	725.767	80.013	19.992	103.787	20.028	3.233	0.537
1280.000	726.786	80.014	19.992	103.784	20.027	3.318	0.544
1282.001	727.848	80.016	19.992	103.782	20.029	3.206	0.529
1284.000	728.873	80.014	19.992	103.783	20.030	3.133	0.504
1286.001	729.868	80.014	19.993	103.783	20.029	3.209	0.505
1288.000	730.975	80.014	19.991	103.781	20.028	3.284	0.545
1290.001	731.994	80.013	19.993	103.783	20.028	3.285	0.531
1292.000	733.016	80.011	19.991	103.785	20.023	3.581	0.551
1294.000	734.035	80.012	19.994	103.783	20.027	3.293	0.526
1296.000	735.049	80.012	19.994	103.782	20.026	3.385	0.526
1298.001	736.085	80.012	19.994	103.782	20.022	3.622	0.538
1300.001	737.095	80.012	19.993	103.784	20.027	3.334	0.512
1302.000	738.085	80.011	19.993	103.785	20.026	3.401	0.480
1304.000	739.093	80.012	19.993	103.779	20.028	3.235	0.501
1306.000	740.114	80.012	19.992	103.782	20.027	3.345	0.516
1308.000	741.162	80.013	19.993	103.783	20.025	3.468	0.531
1310.000	742.124	80.012	19.994	103.782	20.022	3.640	0.502
1312.000	743.115	80.012	19.992	103.782	20.019	3.872	0.482
1313.500	743.835	80.012	19.995	103.783	20.025	3.452	0.481