File: 01_Data/Bean_Bag_Chair_Outer_Cover/MCC/Bean_Bag_Chair_Outer_Cover_MCC_30K_min_220310_R1.txt
Sample ID:	C:\MCC\MCC Cal\Test\Bean_Bag_Chair_Outer_Cover_MCC_30K_min_220310_R1.txt
Sample Weight (mg):	4.44
Heating Rate (C/s):	0.5
Combustor Temp (C):	900
N2 Flow Rate (cc/min):	80
O2 Flow Rate (cc/min):	20
Calibration File:	C:\MCC\MCC Cal\Coeff1 JN10440_30_210304.txt.txt
T Correction Coefficients:	0	1.024463	0
Time Shift (s):	14
*
Time (s)	Temperature (C)	N2 flow rate (cc/min)	O2 flow rate (cc/min)	Flow Rate (cc/min)	Oxygen (%)	HRR (W/g)	Heating rate (C/s)
-0.001	107.503	80.005	19.993	103.642	20.091	0.172	0.014
2.000	107.455	80.006	19.994	103.646	20.092	0.060	-0.027
4.000	107.478	80.005	19.995	103.650	20.091	0.176	-0.011
6.000	107.486	80.005	19.994	103.653	20.093	0.022	-0.006
8.000	107.509	80.005	19.994	103.663	20.096	-0.224	0.029
10.000	107.471	80.004	19.994	103.669	20.089	0.288	-0.004
12.000	107.487	80.006	19.993	103.671	20.093	-0.028	0.003
14.000	107.521	80.005	19.995	103.679	20.091	0.172	0.019
16.000	107.530	80.006	19.993	103.699	20.087	0.458	-0.001
18.000	107.567	80.007	19.993	103.718	20.084	0.690	0.008
20.000	107.610	80.006	19.993	103.753	20.079	1.046	0.017
22.000	107.717	80.005	19.995	103.781	20.074	1.404	0.078
24.000	107.816	80.005	19.994	103.824	20.068	1.818	0.094
26.000	107.935	80.007	19.994	103.831	20.069	1.784	0.085
28.000	108.163	80.008	19.995	103.842	20.068	1.842	0.104
30.000	108.355	80.007	19.995	103.856	20.063	2.200	0.112
32.000	108.585	80.006	19.994	103.852	20.061	2.349	0.125
33.999	108.880	80.008	19.995	103.856	20.061	2.335	0.155
35.999	109.130	80.007	19.993	103.862	20.057	2.631	0.137
38.000	109.485	80.007	19.995	103.856	20.060	2.442	0.178
40.000	109.827	80.008	19.994	103.850	20.062	2.236	0.176
41.999	110.198	80.007	19.994	103.836	20.058	2.538	0.170
43.999	110.556	80.008	19.993	103.829	20.060	2.394	0.183
45.999	110.994	80.008	19.993	103.830	20.063	2.228	0.218
47.999	111.397	80.007	19.994	103.835	20.059	2.502	0.227
49.999	111.769	80.008	19.995	103.862	20.061	2.333	0.206
51.999	112.227	80.008	19.994	103.866	20.065	2.073	0.244
53.999	112.710	80.007	19.993	103.850	20.058	2.559	0.243
55.999	113.165	80.007	19.993	103.855	20.058	2.577	0.233
57.999	113.669	80.009	19.993	103.867	20.059	2.475	0.233
59.999	114.226	80.009	19.992	103.873	20.057	2.609	0.290
61.999	114.717	80.006	19.994	103.898	20.055	2.779	0.252
64.000	115.240	80.006	19.992	103.891	20.054	2.875	0.248
65.999	115.838	80.006	19.993	103.887	20.051	3.083	0.299
67.999	116.413	80.005	19.993	103.898	20.054	2.855	0.303
69.999	117.012	80.006	19.994	103.901	20.052	2.983	0.307
71.999	117.634	80.007	19.993	103.899	20.051	3.107	0.336
73.999	118.306	80.005	19.994	103.900	20.050	3.169	0.325
75.999	118.920	80.006	19.994	103.902	20.049	3.191	0.323
77.999	119.568	80.007	19.993	103.904	20.051	3.085	0.330
79.999	120.259	80.008	19.994	103.905	20.051	3.107	0.368
81.999	120.960	80.006	19.993	103.906	20.050	3.130	0.341
83.999	121.670	80.007	19.994	103.906	20.047	3.340	0.354
85.999	122.407	80.006	19.994	103.906	20.046	3.442	0.375
87.999	123.143	80.006	19.993	103.905	20.048	3.320	0.391
89.999	123.921	80.005	19.994	103.906	20.044	3.602	0.382
91.999	124.673	80.006	19.994	103.906	20.050	3.160	0.383
93.999	125.440	80.006	19.994	103.914	20.047	3.372	0.385
95.999	126.252	80.005	19.995	103.908	20.048	3.292	0.394
97.999	127.026	80.005	19.994	103.919	20.048	3.320	0.420
99.999	127.861	80.006	19.994	103.909	20.044	3.594	0.416
101.999	128.629	80.004	19.995	103.912	20.048	3.288	0.426
103.999	129.455	80.005	19.993	103.916	20.047	3.382	0.405
105.999	130.330	80.006	19.994	103.919	20.046	3.414	0.438
107.999	131.178	80.007	19.993	103.923	20.047	3.398	0.389
109.999	132.066	80.006	19.995	103.923	20.048	3.320	0.427
111.999	132.927	80.006	19.994	103.927	20.048	3.282	0.431
113.999	133.814	80.008	19.993	103.920	20.047	3.384	0.473
115.999	134.738	80.006	19.994	103.918	20.046	3.474	0.463
117.999	135.600	80.007	19.993	103.915	20.043	3.682	0.435
120.000	136.512	80.005	19.994	103.921	20.046	3.412	0.476
121.999	137.439	80.005	19.994	103.933	20.044	3.564	0.460
123.999	138.375	80.006	19.995	103.923	20.044	3.574	0.458
125.999	139.291	80.005	19.994	103.927	20.046	3.464	0.468
127.999	140.249	80.007	19.994	103.918	20.044	3.622	0.465
130.000	141.162	80.008	19.994	103.928	20.047	3.370	0.488
132.000	142.124	80.006	19.994	103.918	20.048	3.269	0.481
134.000	143.084	80.007	19.993	103.932	20.047	3.356	0.501
136.000	144.071	80.009	19.993	103.918	20.047	3.370	0.508
138.000	145.034	80.009	19.992	103.911	20.047	3.386	0.483
140.000	145.990	80.007	19.993	103.903	20.047	3.354	0.467
142.000	146.974	80.009	19.992	103.908	20.048	3.309	0.476
144.000	147.994	80.007	19.993	103.909	20.050	3.171	0.534
146.000	148.966	80.007	19.992	103.914	20.047	3.393	0.524
148.000	149.952	80.008	19.993	103.908	20.050	3.177	0.505
150.000	150.890	80.006	19.994	103.909	20.047	3.367	0.450
152.000	151.930	80.005	19.994	103.906	20.047	3.347	0.513
154.000	152.904	80.006	19.994	103.903	20.048	3.292	0.509
156.000	153.864	80.006	19.994	103.904	20.049	3.197	0.489
158.000	154.874	80.007	19.993	103.904	20.043	3.636	0.507
160.000	155.844	80.006	19.994	103.903	20.048	3.310	0.512
162.000	156.857	80.005	19.994	103.903	20.046	3.468	0.512
164.000	157.833	80.005	19.994	103.903	20.047	3.357	0.509
166.000	158.861	80.004	19.993	103.902	20.045	3.510	0.503
168.000	159.824	80.006	19.993	103.893	20.045	3.477	0.499
170.000	160.795	80.005	19.995	103.913	20.052	3.031	0.480
172.000	161.820	80.005	19.994	103.907	20.048	3.291	0.527
174.000	162.801	80.006	19.993	103.906	20.048	3.269	0.466
176.000	163.800	80.005	19.994	103.907	20.047	3.349	0.528
178.000	164.843	80.005	19.992	103.900	20.051	3.085	0.516
180.000	165.794	80.006	19.994	103.892	20.048	3.259	0.473
182.000	166.813	80.004	19.993	103.900	20.052	2.985	0.492
184.000	167.823	80.006	19.994	103.902	20.054	2.851	0.495
186.000	168.814	80.005	19.993	103.906	20.056	2.713	0.493
188.000	169.827	80.007	19.993	103.896	20.054	2.861	0.494
190.000	170.820	80.005	19.994	103.887	20.052	3.005	0.482
192.000	171.835	80.007	19.994	103.894	20.052	3.016	0.490
194.000	172.842	80.007	19.994	103.887	20.054	2.851	0.509
196.000	173.848	80.007	19.995	103.886	20.055	2.802	0.501
198.000	174.845	80.007	19.994	103.887	20.053	2.902	0.521
199.999	175.866	80.006	19.994	103.884	20.054	2.818	0.517
201.999	176.861	80.006	19.994	103.874	20.054	2.850	0.484
203.999	177.773	80.006	19.994	103.883	20.050	3.144	0.458
205.999	178.778	80.005	19.993	103.880	20.055	2.782	0.462
207.999	179.807	80.006	19.994	103.866	20.054	2.854	0.537
209.999	180.783	80.006	19.993	103.880	20.054	2.864	0.479
211.999	181.782	80.005	19.994	103.878	20.056	2.710	0.491
213.999	182.739	80.006	19.994	103.873	20.056	2.722	0.472
215.999	183.717	80.006	19.995	103.866	20.056	2.716	0.474
217.999	184.712	80.007	19.994	103.862	20.058	2.580	0.514
219.999	185.697	80.007	19.995	103.870	20.054	2.870	0.494
221.999	186.737	80.007	19.994	103.871	20.052	2.984	0.511
223.999	187.735	80.005	19.995	103.867	20.054	2.840	0.527
225.999	188.702	80.007	19.993	103.863	20.052	3.016	0.499
227.999	189.676	80.006	19.994	103.864	20.054	2.856	0.507
229.999	190.700	80.005	19.995	103.866	20.051	3.044	0.518
231.999	191.667	80.007	19.993	103.867	20.052	3.010	0.493
233.999	192.601	80.005	19.993	103.865	20.054	2.878	0.459
235.999	193.574	80.005	19.993	103.866	20.052	2.998	0.462
237.999	194.590	80.006	19.994	103.866	20.055	2.782	0.496
239.999	195.533	80.004	19.994	103.866	20.052	3.000	0.453
241.999	196.496	80.006	19.993	103.867	20.051	3.046	0.469
244.000	197.455	80.005	19.992	103.866	20.057	2.616	0.461
245.999	198.435	80.005	19.994	103.867	20.054	2.842	0.502
247.999	199.435	80.005	19.994	103.865	20.057	2.666	0.511
249.999	200.396	80.005	19.992	103.866	20.053	2.896	0.496
251.999	201.344	80.005	19.992	103.867	20.057	2.654	0.484
253.999	202.347	80.005	19.993	103.867	20.055	2.814	0.481
255.999	203.319	80.005	19.992	103.868	20.054	2.886	0.505
258.000	204.322	80.006	19.994	103.866	20.056	2.680	0.480
260.000	205.334	80.005	19.994	103.866	20.055	2.816	0.504
262.000	206.270	80.005	19.994	103.863	20.055	2.770	0.499
264.000	207.277	80.005	19.994	103.864	20.054	2.878	0.517
266.000	208.303	80.007	19.992	103.864	20.056	2.720	0.528
268.000	209.230	80.005	19.994	103.864	20.059	2.498	0.479
270.000	210.226	80.006	19.994	103.865	20.055	2.784	0.520
272.000	211.232	80.006	19.993	103.865	20.056	2.682	0.516
274.000	212.206	80.007	19.994	103.863	20.054	2.890	0.483
276.000	213.170	80.007	19.994	103.863	20.055	2.766	0.479
278.000	214.131	80.008	19.993	103.864	20.053	2.958	0.479
280.000	215.140	80.007	19.993	103.862	20.056	2.740	0.515
282.000	216.145	80.007	19.994	103.862	20.053	2.952	0.491
284.000	217.142	80.007	19.994	103.862	20.056	2.726	0.550
286.000	218.111	80.006	19.995	103.861	20.052	2.970	0.496
288.000	219.080	80.007	19.995	103.862	20.051	3.090	0.508
290.000	220.091	80.005	19.995	103.863	20.054	2.878	0.515
292.000	221.102	80.008	19.995	103.863	20.054	2.822	0.526
294.000	222.077	80.006	19.995	103.864	20.054	2.848	0.499
296.000	223.054	80.006	19.993	103.864	20.052	2.972	0.482
298.000	224.064	80.007	19.994	103.865	20.050	3.156	0.480
300.000	225.067	80.006	19.993	103.864	20.049	3.208	0.507
302.000	226.045	80.008	19.994	103.864	20.052	2.982	0.489
304.000	227.080	80.009	19.993	103.864	20.048	3.256	0.535
306.000	228.044	80.008	19.993	103.863	20.051	3.066	0.473
308.000	229.112	80.006	19.994	103.861	20.053	2.918	0.523
310.000	230.061	80.006	19.993	103.861	20.050	3.126	0.492
312.000	231.049	80.005	19.994	103.864	20.052	2.984	0.500
314.000	232.129	80.004	19.995	103.864	20.051	3.044	0.544
316.000	233.089	80.004	19.994	103.864	20.046	3.414	0.476
318.000	234.088	80.005	19.994	103.863	20.052	2.968	0.529
320.000	235.159	80.004	19.994	103.861	20.049	3.186	0.524
322.000	236.103	80.004	19.994	103.860	20.051	3.084	0.489
324.000	237.128	80.005	19.994	103.863	20.050	3.162	0.512
326.000	238.100	80.006	19.993	103.860	20.049	3.198	0.477
328.000	239.141	80.005	19.994	103.848	20.049	3.186	0.497
330.000	240.100	80.005	19.995	103.861	20.048	3.300	0.483
332.000	241.095	80.006	19.993	103.861	20.048	3.322	0.501
334.000	242.126	80.005	19.994	103.857	20.044	3.558	0.492
336.000	243.132	80.006	19.992	103.859	20.044	3.580	0.532
338.000	244.084	80.006	19.992	103.860	20.048	3.280	0.479
340.000	245.097	80.006	19.994	103.852	20.045	3.478	0.490
342.000	246.127	80.006	19.993	103.859	20.047	3.394	0.512
344.000	247.120	80.004	19.993	103.858	20.045	3.530	0.503
346.000	248.124	80.004	19.995	103.850	20.043	3.660	0.482
348.000	249.113	80.006	19.994	103.854	20.043	3.634	0.511
350.000	250.128	80.005	19.995	103.854	20.044	3.577	0.493
352.000	251.157	80.006	19.993	103.848	20.044	3.612	0.529
354.000	252.234	80.006	19.994	103.847	20.041	3.810	0.556
356.000	253.197	80.007	19.993	103.852	20.041	3.830	0.520
358.000	254.166	80.007	19.993	103.855	20.044	3.599	0.483
360.000	255.165	80.007	19.992	103.848	20.040	3.866	0.490
362.000	256.156	80.008	19.993	103.843	20.039	3.952	0.509
364.000	257.132	80.008	19.993	103.854	20.039	3.946	0.506
366.000	258.151	80.007	19.992	103.855	20.041	3.816	0.485
368.000	259.154	80.006	19.993	103.844	20.038	4.038	0.505
370.000	260.116	80.006	19.993	103.855	20.042	3.750	0.473
372.000	261.131	80.008	19.993	103.856	20.041	3.816	0.475
374.000	262.105	80.007	19.993	103.857	20.034	4.312	0.507
376.000	263.145	80.006	19.994	103.861	20.038	4.030	0.497
378.000	264.111	80.008	19.994	103.861	20.035	4.244	0.536
380.000	265.107	80.007	19.995	103.864	20.036	4.172	0.495
382.000	266.126	80.008	19.995	103.856	20.035	4.266	0.507
384.000	267.157	80.007	19.994	103.858	20.034	4.304	0.526
386.000	268.171	80.007	19.993	103.864	20.032	4.426	0.510
388.000	269.152	80.008	19.994	103.863	20.030	4.634	0.511
390.000	270.139	80.007	19.994	103.860	20.031	4.554	0.495
392.000	271.179	80.007	19.994	103.858	20.031	4.528	0.505
394.000	272.216	80.006	19.993	103.854	20.024	5.042	0.537
396.000	273.197	80.006	19.994	103.858	20.026	4.918	0.493
398.000	274.202	80.006	19.995	103.862	20.026	4.908	0.494
400.000	275.206	80.005	19.994	103.863	20.024	5.080	0.516
402.000	276.220	80.006	19.996	103.862	20.021	5.240	0.517
404.000	277.227	80.005	19.994	103.863	20.019	5.394	0.526
406.000	278.255	80.006	19.994	103.863	20.021	5.246	0.538
408.000	279.243	80.007	19.994	103.863	20.012	5.912	0.513
410.000	280.258	80.004	19.994	103.862	20.013	5.844	0.513
412.000	281.253	80.006	19.995	103.863	20.012	5.926	0.489
414.000	282.255	80.006	19.994	103.860	20.009	6.109	0.521
416.000	283.269	80.006	19.994	103.862	20.003	6.567	0.498
418.000	284.290	80.004	19.995	103.864	20.004	6.510	0.532
420.000	285.308	80.005	19.994	103.867	20.003	6.573	0.538
422.000	286.273	80.007	19.993	103.867	19.999	6.857	0.487
424.000	287.316	80.006	19.993	103.868	19.996	7.097	0.513
426.000	288.317	80.006	19.994	103.867	19.993	7.295	0.485
428.000	289.368	80.006	19.992	103.868	19.993	7.281	0.561
430.000	290.363	80.005	19.993	103.871	19.990	7.515	0.495
432.000	291.401	80.005	19.994	103.875	19.983	8.016	0.498
434.000	292.488	80.006	19.993	103.881	19.983	8.040	0.522
436.000	293.509	80.008	19.993	103.867	19.977	8.509	0.514
438.000	294.471	80.006	19.992	103.875	19.970	8.971	0.482
440.000	295.518	80.007	19.993	103.880	19.967	9.223	0.488
442.000	296.525	80.007	19.993	103.880	19.964	9.458	0.514
444.000	297.575	80.008	19.993	103.889	19.959	9.784	0.520
446.000	298.616	80.007	19.993	103.892	19.955	10.078	0.508
448.000	299.622	80.006	19.993	103.899	19.950	10.468	0.528
450.000	300.604	80.007	19.993	103.893	19.946	10.742	0.497
452.000	301.657	80.007	19.994	103.899	19.943	10.990	0.537
454.000	302.624	80.007	19.993	103.900	19.936	11.459	0.492
456.000	303.642	80.007	19.994	103.902	19.927	12.109	0.477
458.000	304.651	80.008	19.994	103.901	19.925	12.306	0.507
460.000	305.698	80.007	19.993	103.901	19.918	12.809	0.520
462.000	306.675	80.008	19.994	103.902	19.912	13.245	0.494
464.000	307.706	80.009	19.992	103.902	19.903	13.901	0.503
466.000	308.748	80.009	19.993	103.903	19.896	14.405	0.526
468.000	309.761	80.009	19.993	103.906	19.888	14.969	0.521
470.000	310.726	80.009	19.993	103.913	19.875	15.934	0.497
472.000	311.765	80.008	19.994	103.926	19.871	16.197	0.539
474.000	312.819	80.007	19.994	103.925	19.857	17.262	0.538
476.000	313.829	80.007	19.995	103.931	19.848	17.910	0.531
478.000	314.803	80.005	19.994	103.940	19.839	18.537	0.521
480.000	315.837	80.006	19.994	103.938	19.826	19.542	0.514
482.000	316.819	80.006	19.994	103.939	19.816	20.229	0.472
484.000	317.842	80.007	19.994	103.943	19.802	21.265	0.496
486.000	318.845	80.008	19.993	103.945	19.793	21.952	0.471
488.000	319.826	80.005	19.994	103.947	19.782	22.730	0.504
490.000	320.805	80.006	19.994	103.966	19.766	23.941	0.504
492.000	321.812	80.006	19.993	103.977	19.754	24.790	0.494
494.000	322.791	80.006	19.995	103.979	19.736	26.084	0.493
496.000	323.814	80.005	19.995	103.984	19.719	27.327	0.517
498.000	324.827	80.007	19.994	103.984	19.701	28.678	0.516
500.000	325.813	80.006	19.993	103.994	19.682	30.086	0.488
502.000	326.840	80.005	19.993	104.013	19.668	31.060	0.498
504.000	327.832	80.005	19.995	104.019	19.645	32.784	0.503
506.000	328.837	80.004	19.994	104.022	19.623	34.406	0.503
508.000	329.867	80.004	19.995	104.026	19.598	36.185	0.517
510.000	330.821	80.005	19.994	104.041	19.575	37.894	0.493
512.000	331.832	80.005	19.995	104.061	19.547	39.932	0.520
514.000	332.820	80.003	19.993	104.064	19.525	41.607	0.497
516.000	333.840	80.006	19.994	104.087	19.492	44.026	0.512
518.000	334.843	80.005	19.993	104.098	19.466	45.941	0.482
520.000	335.868	80.007	19.994	104.105	19.436	48.091	0.494
522.000	336.887	80.008	19.993	104.121	19.399	50.804	0.510
524.000	337.887	80.008	19.993	104.134	19.363	53.467	0.483
526.000	338.901	80.009	19.994	104.148	19.327	56.114	0.539
528.000	339.923	80.008	19.993	104.166	19.286	59.129	0.520
530.000	340.914	80.007	19.995	104.176	19.253	61.552	0.500
532.000	341.966	80.007	19.993	104.206	19.207	64.913	0.518
534.000	342.949	80.006	19.993	104.214	19.165	68.033	0.481
536.000	343.964	80.007	19.994	104.229	19.119	71.415	0.487
538.000	344.944	80.006	19.995	104.249	19.073	74.804	0.506
540.000	345.992	80.006	19.994	104.254	19.025	78.358	0.503
542.000	346.991	80.007	19.994	104.277	18.976	81.902	0.511
544.000	348.015	80.009	19.994	104.296	18.927	85.554	0.525
546.000	349.026	80.009	19.992	104.321	18.875	89.374	0.490
548.000	350.072	80.008	19.993	104.332	18.827	92.900	0.527
550.000	351.051	80.008	19.993	104.359	18.774	96.803	0.479
552.000	352.102	80.009	19.992	104.370	18.721	100.673	0.540
554.000	353.111	80.008	19.993	104.382	18.667	104.662	0.496
556.000	354.159	80.006	19.993	104.408	18.616	108.405	0.546
558.000	355.112	80.005	19.993	104.418	18.560	112.516	0.499
560.000	356.163	80.006	19.992	104.426	18.511	116.151	0.524
562.000	357.154	80.006	19.994	104.448	18.466	119.474	0.512
564.000	358.187	80.006	19.993	104.452	18.419	122.917	0.519
566.000	359.186	80.006	19.995	104.458	18.373	126.251	0.481
568.000	360.187	80.006	19.994	104.474	18.336	129.004	0.514
570.000	361.215	80.006	19.994	104.477	18.299	131.695	0.524
572.000	362.168	80.006	19.993	104.483	18.263	134.328	0.459
574.000	363.230	80.006	19.995	104.479	18.240	135.964	0.521
576.000	364.214	80.006	19.994	104.467	18.215	137.798	0.495
578.000	365.238	80.007	19.993	104.458	18.202	138.681	0.524
580.000	366.252	80.006	19.994	104.455	18.190	139.574	0.502
582.000	367.272	80.006	19.993	104.450	18.184	139.993	0.523
584.000	368.236	80.007	19.994	104.426	18.189	139.540	0.490
586.000	369.266	80.006	19.994	104.411	18.198	138.835	0.503
588.000	370.273	80.006	19.994	104.394	18.220	137.230	0.519
590.000	371.286	80.005	19.996	104.370	18.250	134.969	0.524
592.000	372.288	80.006	19.995	104.350	18.285	132.364	0.510
594.000	373.316	80.005	19.994	104.320	18.332	128.883	0.509
596.000	374.323	80.006	19.994	104.283	18.389	124.661	0.520
598.000	375.325	80.005	19.996	104.251	18.451	120.017	0.509
600.000	376.328	80.006	19.994	104.216	18.521	114.893	0.492
602.000	377.350	80.008	19.995	104.173	18.603	108.909	0.507
604.000	378.358	80.008	19.994	104.139	18.685	102.844	0.501
606.000	379.328	80.008	19.996	104.100	18.773	96.428	0.491
608.000	380.361	80.009	19.995	104.054	18.868	89.414	0.501
610.000	381.384	80.009	19.994	104.018	18.963	82.520	0.520
612.000	382.434	80.008	19.994	103.987	19.058	75.558	0.532
614.000	383.449	80.008	19.994	103.965	19.154	68.516	0.505
616.000	384.496	80.007	19.992	103.933	19.254	61.217	0.537
618.000	385.503	80.007	19.994	103.908	19.345	54.588	0.493
620.000	386.529	80.007	19.993	103.890	19.440	47.655	0.517
622.000	387.535	80.008	19.993	103.866	19.521	41.714	0.501
624.000	388.563	80.008	19.994	103.851	19.598	36.091	0.512
626.000	389.547	80.009	19.993	103.831	19.671	30.771	0.482
628.000	390.561	80.009	19.993	103.827	19.734	26.216	0.482
630.000	391.609	80.008	19.992	103.822	19.792	21.977	0.526
632.000	392.622	80.010	19.993	103.801	19.844	18.196	0.498
634.000	393.675	80.009	19.993	103.799	19.883	15.312	0.527
636.000	394.674	80.008	19.992	103.799	19.919	12.733	0.501
638.000	395.654	80.006	19.995	103.788	19.947	10.681	0.474
640.000	396.704	80.007	19.993	103.796	19.966	9.254	0.495
642.000	397.698	80.005	19.994	103.794	19.982	8.106	0.520
644.000	398.745	80.005	19.993	103.791	19.998	6.969	0.512
646.000	399.766	80.006	19.993	103.790	20.010	6.072	0.506
648.000	400.772	80.007	19.993	103.790	20.018	5.504	0.465
650.000	401.809	80.006	19.995	103.786	20.027	4.853	0.469
652.000	402.826	80.007	19.995	103.789	20.028	4.757	0.529
654.000	403.788	80.007	19.993	103.787	20.029	4.697	0.473
656.000	404.757	80.008	19.993	103.788	20.032	4.431	0.477
658.000	405.771	80.008	19.993	103.793	20.036	4.130	0.491
660.000	406.786	80.006	19.993	103.790	20.040	3.875	0.518
662.000	407.798	80.006	19.994	103.788	20.040	3.849	0.503
664.000	408.779	80.006	19.993	103.788	20.042	3.722	0.486
666.000	409.775	80.006	19.994	103.788	20.040	3.890	0.465
668.000	410.762	80.005	19.994	103.798	20.040	3.856	0.481
670.000	411.781	80.006	19.996	103.802	20.041	3.804	0.514
672.001	412.764	80.006	19.995	103.788	20.040	3.864	0.498
674.000	413.748	80.006	19.994	103.788	20.043	3.640	0.486
676.000	414.717	80.005	19.993	103.793	20.043	3.664	0.492
678.000	415.717	80.006	19.994	103.798	20.043	3.662	0.494
680.000	416.696	80.006	19.994	103.807	20.046	3.458	0.483
682.000	417.701	80.006	19.994	103.801	20.046	3.408	0.497
684.000	418.673	80.006	19.994	103.803	20.046	3.436	0.488
686.000	419.692	80.007	19.993	103.797	20.044	3.580	0.506
688.000	420.695	80.006	19.994	103.805	20.045	3.494	0.489
690.000	421.701	80.006	19.994	103.801	20.043	3.684	0.521
692.000	422.697	80.006	19.995	103.791	20.048	3.272	0.492
694.000	423.718	80.005	19.996	103.794	20.044	3.590	0.518
696.000	424.744	80.005	19.994	103.798	20.043	3.628	0.504
698.000	425.755	80.006	19.994	103.794	20.047	3.350	0.502
700.000	426.752	80.007	19.995	103.806	20.044	3.570	0.486
702.000	427.783	80.006	19.994	103.804	20.043	3.676	0.521
704.000	428.810	80.007	19.993	103.795	20.042	3.700	0.524
706.000	429.866	80.007	19.993	103.805	20.044	3.616	0.502
708.000	430.887	80.008	19.994	103.801	20.046	3.414	0.521
710.000	431.933	80.008	19.995	103.801	20.048	3.308	0.529
712.000	432.934	80.008	19.994	103.809	20.042	3.729	0.521
714.000	433.960	80.009	19.993	103.799	20.044	3.615	0.514
716.000	434.999	80.007	19.993	103.794	20.040	3.872	0.517
718.000	436.071	80.007	19.994	103.796	20.042	3.762	0.518
720.000	437.112	80.007	19.994	103.795	20.041	3.774	0.531
722.000	438.138	80.006	19.994	103.789	20.042	3.758	0.531
724.000	439.193	80.007	19.994	103.787	20.045	3.536	0.499
726.000	440.220	80.007	19.994	103.793	20.043	3.662	0.525
728.000	441.255	80.005	19.994	103.795	20.041	3.818	0.525
730.000	442.307	80.006	19.994	103.792	20.045	3.506	0.512
732.000	443.323	80.007	19.993	103.798	20.044	3.554	0.537
734.000	444.395	80.006	19.993	103.794	20.045	3.536	0.517
736.000	445.445	80.006	19.994	103.790	20.042	3.730	0.525
738.000	446.474	80.007	19.993	103.795	20.045	3.478	0.521
740.000	447.544	80.009	19.993	103.792	20.044	3.566	0.525
742.000	448.540	80.007	19.995	103.786	20.041	3.782	0.501
744.000	449.659	80.009	19.993	103.794	20.042	3.704	0.555
746.000	450.647	80.008	19.994	103.801	20.044	3.618	0.506
748.000	451.720	80.006	19.993	103.793	20.046	3.468	0.532
750.000	452.722	80.007	19.992	103.804	20.044	3.609	0.522
752.000	453.742	80.005	19.993	103.802	20.043	3.644	0.511
754.000	454.809	80.005	19.994	103.795	20.044	3.602	0.537
756.000	455.812	80.005	19.994	103.798	20.042	3.729	0.509
758.000	456.878	80.005	19.995	103.797	20.045	3.488	0.510
760.000	457.901	80.006	19.995	103.791	20.044	3.572	0.517
762.000	458.949	80.005	19.994	103.789	20.046	3.440	0.523
764.000	459.976	80.006	19.994	103.805	20.051	3.044	0.502
766.000	460.997	80.008	19.994	103.800	20.047	3.358	0.511
768.000	462.037	80.007	19.993	103.788	20.050	3.120	0.520
770.000	463.049	80.006	19.994	103.789	20.049	3.246	0.513
772.000	464.002	80.007	19.994	103.792	20.049	3.236	0.504
774.000	465.028	80.007	19.995	103.789	20.048	3.312	0.513
776.000	466.011	80.008	19.995	103.786	20.048	3.294	0.507
778.000	467.031	80.007	19.993	103.784	20.048	3.304	0.493
780.000	468.023	80.006	19.994	103.784	20.044	3.561	0.479
782.000	469.012	80.008	19.994	103.785	20.047	3.386	0.497
784.000	470.010	80.005	19.994	103.784	20.048	3.318	0.488
786.000	471.019	80.008	19.994	103.785	20.045	3.505	0.534
788.000	471.984	80.007	19.995	103.784	20.046	3.435	0.484
790.000	472.994	80.009	19.995	103.783	20.049	3.188	0.485
792.000	474.039	80.008	19.994	103.783	20.049	3.234	0.505
794.000	475.067	80.010	19.994	103.784	20.047	3.336	0.531
796.000	476.088	80.009	19.995	103.786	20.051	3.082	0.506
798.000	477.099	80.009	19.994	103.783	20.047	3.364	0.512
800.000	478.110	80.009	19.994	103.785	20.049	3.194	0.514
802.000	479.124	80.009	19.994	103.790	20.047	3.392	0.526
804.000	480.169	80.007	19.994	103.785	20.044	3.579	0.536
806.000	481.153	80.008	19.994	103.788	20.045	3.480	0.498
808.000	482.204	80.006	19.994	103.789	20.046	3.422	0.523
810.000	483.224	80.006	19.993	103.790	20.048	3.326	0.508
812.000	484.256	80.007	19.994	103.788	20.048	3.282	0.522
814.000	485.318	80.006	19.994	103.788	20.047	3.350	0.519
816.000	486.353	80.007	19.994	103.788	20.045	3.534	0.530
818.000	487.370	80.006	19.993	103.789	20.047	3.356	0.507
820.000	488.412	80.007	19.993	103.789	20.052	2.996	0.518
822.000	489.501	80.006	19.994	103.788	20.053	2.918	0.554
824.000	490.486	80.008	19.994	103.787	20.043	3.688	0.514
826.000	491.562	80.008	19.994	103.788	20.045	3.534	0.464
828.000	492.591	80.007	19.993	103.787	20.048	3.270	0.534
830.000	493.588	80.006	19.995	103.789	20.049	3.196	0.522
832.000	494.607	80.006	19.994	103.790	20.050	3.146	0.484
834.000	495.673	80.006	19.994	103.791	20.049	3.228	0.495
836.000	496.746	80.007	19.992	103.790	20.049	3.222	0.534
838.000	497.688	80.006	19.993	103.789	20.046	3.472	0.521
840.000	498.771	80.005	19.994	103.790	20.050	3.156	0.523
842.000	499.751	80.008	19.993	103.788	20.051	3.064	0.510
844.000	500.768	80.007	19.993	103.787	20.049	3.228	0.479
846.000	501.785	80.008	19.993	103.787	20.048	3.272	0.482
848.000	502.783	80.008	19.995	103.787	20.052	3.016	0.511
850.000	503.816	80.009	19.993	103.786	20.048	3.256	0.512
852.000	504.801	80.009	19.993	103.785	20.050	3.174	0.520
854.000	505.820	80.008	19.994	103.785	20.051	3.070	0.506
856.000	506.881	80.008	19.993	103.781	20.051	3.102	0.509
858.000	507.877	80.007	19.995	103.782	20.053	2.906	0.451
860.000	508.898	80.007	19.994	103.784	20.056	2.730	0.510
862.000	509.893	80.007	19.993	103.785	20.052	3.012	0.515
864.000	510.909	80.008	19.995	103.784	20.053	2.900	0.502
866.000	511.919	80.007	19.994	103.784	20.053	2.898	0.492
868.000	512.931	80.007	19.993	103.785	20.054	2.838	0.509
870.000	513.965	80.009	19.993	103.786	20.056	2.722	0.509
872.000	514.999	80.009	19.995	103.785	20.057	2.634	0.488
874.000	516.072	80.008	19.994	103.784	20.057	2.636	0.540
876.000	517.108	80.008	19.994	103.785	20.054	2.854	0.526
878.000	518.119	80.009	19.995	103.786	20.055	2.764	0.525
880.000	519.137	80.008	19.993	103.787	20.055	2.782	0.538
882.000	520.119	80.007	19.994	103.786	20.054	2.840	0.498
884.000	521.195	80.006	19.995	103.785	20.056	2.732	0.495
886.000	522.165	80.006	19.995	103.786	20.054	2.880	0.495
888.000	523.176	80.006	19.994	103.782	20.054	2.874	0.516
890.000	524.236	80.005	19.997	103.782	20.054	2.846	0.491
892.000	525.212	80.006	19.994	103.786	20.053	2.950	0.499
894.000	526.253	80.007	19.994	103.786	20.056	2.712	0.514
896.000	527.232	80.006	19.995	103.779	20.053	2.930	0.488
898.000	528.282	80.006	19.992	103.787	20.051	3.104	0.522
900.000	529.271	80.007	19.994	103.790	20.055	2.780	0.495
902.000	530.275	80.007	19.994	103.789	20.053	2.890	0.488
904.000	531.259	80.006	19.994	103.786	20.053	2.930	0.463
906.000	532.311	80.007	19.993	103.787	20.054	2.862	0.515
908.000	533.314	80.006	19.995	103.785	20.056	2.706	0.507
910.000	534.346	80.008	19.993	103.784	20.052	3.018	0.517
912.000	535.387	80.007	19.994	103.782	20.054	2.886	0.520
914.000	536.381	80.008	19.994	103.784	20.054	2.828	0.490
916.000	537.375	80.007	19.993	103.783	20.054	2.824	0.489
918.000	538.419	80.007	19.994	103.784	20.053	2.920	0.492
920.000	539.438	80.006	19.995	103.784	20.054	2.820	0.532
922.000	540.438	80.007	19.995	103.786	20.055	2.762	0.516
924.000	541.464	80.007	19.995	103.785	20.053	2.890	0.516
926.000	542.436	80.007	19.994	103.783	20.053	2.930	0.506
928.000	543.507	80.007	19.994	103.781	20.057	2.606	0.498
930.000	544.443	80.009	19.994	103.783	20.054	2.830	0.486
932.000	545.490	80.008	19.993	103.785	20.053	2.900	0.505
934.000	546.505	80.009	19.993	103.786	20.054	2.870	0.478
936.000	547.558	80.011	19.993	103.786	20.050	3.109	0.496
938.000	548.600	80.009	19.994	103.785	20.049	3.194	0.524
940.000	549.559	80.009	19.994	103.785	20.052	3.000	0.526
942.000	550.655	80.007	19.993	103.779	20.050	3.130	0.532
944.000	551.641	80.008	19.993	103.782	20.046	3.458	0.498
946.000	552.662	80.007	19.994	103.774	20.050	3.132	0.519
948.000	553.657	80.008	19.994	103.786	20.056	2.716	0.520
950.000	554.639	80.007	19.994	103.786	20.049	3.186	0.485
952.000	555.766	80.008	19.994	103.788	20.048	3.326	0.543
954.000	556.770	80.010	19.994	103.789	20.049	3.241	0.534
956.000	557.827	80.010	19.994	103.788	20.049	3.204	0.605
958.000	558.701	80.009	19.994	103.784	20.050	3.124	0.488
960.000	559.599	80.009	19.994	103.787	20.051	3.102	0.441
962.000	561.284	80.008	19.994	103.787	20.049	3.238	0.569
964.000	561.823	80.008	19.993	103.785	20.048	3.254	0.617
966.000	562.699	80.007	19.993	103.776	20.049	3.224	0.470
968.000	563.710	80.006	19.993	103.782	20.050	3.144	0.410
970.000	564.743	80.006	19.993	103.784	20.049	3.240	0.383
972.000	565.774	80.007	19.993	103.784	20.049	3.243	0.463
974.000	566.864	80.007	19.994	103.782	20.052	3.034	0.469
976.000	567.790	80.006	19.995	103.783	20.047	3.351	0.490
978.000	568.867	80.006	19.994	103.783	20.047	3.397	0.534
980.000	569.830	80.007	19.995	103.784	20.047	3.349	0.473
982.000	570.889	80.007	19.994	103.782	20.045	3.537	0.459
984.000	571.874	80.005	19.995	103.776	20.049	3.197	0.531
986.000	572.886	80.006	19.994	103.778	20.048	3.323	0.517
988.000	573.897	80.007	19.995	103.776	20.047	3.335	0.511
990.000	574.997	80.007	19.994	103.774	20.049	3.209	0.556
992.000	575.994	80.007	19.994	103.775	20.047	3.395	0.480
994.000	576.994	80.006	19.993	103.782	20.050	3.137	0.486
996.000	578.015	80.007	19.994	103.774	20.046	3.413	0.471
998.000	579.068	80.007	19.994	103.775	20.047	3.349	0.485
1000.000	580.106	80.006	19.993	103.774	20.050	3.139	0.520
1002.000	581.134	80.005	19.994	103.781	20.049	3.250	0.510
1004.000	582.120	80.006	19.993	103.779	20.049	3.182	0.500
1006.000	583.099	80.005	19.993	103.771	20.054	2.874	0.513
1008.000	584.170	80.006	19.992	103.779	20.052	2.982	0.519
1010.000	585.191	80.006	19.992	103.769	20.051	3.044	0.509
1012.000	586.171	80.008	19.994	103.777	20.051	3.083	0.529
1014.000	587.157	80.008	19.994	103.782	20.051	3.099	0.493
1016.000	588.172	80.007	19.994	103.782	20.052	3.018	0.505
1018.000	589.231	80.008	19.994	103.785	20.048	3.270	0.527
1020.000	590.219	80.008	19.993	103.784	20.048	3.326	0.490
1022.000	591.283	80.007	19.993	103.776	20.050	3.156	0.519
1024.000	592.296	80.008	19.994	103.774	20.048	3.295	0.517
1026.000	593.281	80.007	19.994	103.778	20.048	3.303	0.506
1027.999	594.319	80.006	19.993	103.783	20.048	3.309	0.513
1029.999	595.391	80.007	19.994	103.790	20.049	3.245	0.533
1032.001	596.389	80.008	19.993	103.790	20.051	3.057	0.512
1034.000	597.441	80.009	19.993	103.780	20.051	3.100	0.516
1036.000	598.458	80.009	19.994	103.779	20.050	3.125	0.524
1038.000	599.475	80.008	19.994	103.771	20.047	3.365	0.513
1040.000	600.509	80.008	19.994	103.780	20.051	3.091	0.527
1042.000	601.530	80.010	19.994	103.761	20.047	3.377	0.527
1044.000	602.535	80.008	19.994	103.772	20.048	3.255	0.494
1046.000	603.600	80.008	19.993	103.771	20.047	3.355	0.513
1048.000	604.594	80.008	19.995	103.768	20.047	3.337	0.509
1050.000	605.608	80.009	19.993	103.765	20.051	3.047	0.458
1052.000	606.630	80.007	19.993	103.770	20.050	3.175	0.484
1054.000	607.662	80.006	19.993	103.774	20.047	3.385	0.543
1056.000	608.689	80.007	19.993	103.773	20.047	3.331	0.539
1058.000	609.718	80.006	19.994	103.777	20.049	3.214	0.517
1060.000	610.718	80.006	19.995	103.772	20.047	3.343	0.510
1062.000	611.767	80.008	19.995	103.767	20.049	3.247	0.527
1064.000	612.753	80.007	19.994	103.774	20.047	3.337	0.492
1066.000	613.774	80.008	19.993	103.784	20.046	3.419	0.534
1068.000	614.799	80.007	19.993	103.782	20.047	3.361	0.509
1070.000	615.849	80.007	19.995	103.774	20.047	3.377	0.513
1072.000	616.898	80.006	19.995	103.779	20.045	3.495	0.526
1074.001	617.894	80.006	19.995	103.777	20.048	3.293	0.495
1076.000	618.916	80.006	19.995	103.781	20.048	3.309	0.523
1078.000	619.939	80.006	19.994	103.777	20.044	3.565	0.517
1080.000	620.939	80.006	19.994	103.776	20.049	3.247	0.517
1082.000	622.016	80.006	19.994	103.779	20.044	3.609	0.511
1084.000	623.021	80.006	19.995	103.776	20.046	3.423	0.522
1086.000	624.086	80.008	19.993	103.770	20.045	3.525	0.521
1088.000	625.095	80.007	19.993	103.779	20.044	3.549	0.533
1090.000	626.121	80.008	19.993	103.774	20.050	3.150	0.509
1092.000	627.155	80.008	19.993	103.778	20.049	3.188	0.524
1094.000	628.187	80.008	19.994	103.774	20.051	3.041	0.532
1096.000	629.191	80.007	19.994	103.778	20.052	3.000	0.504
1098.000	630.204	80.010	19.993	103.782	20.050	3.175	0.518
1100.000	631.279	80.008	19.994	103.784	20.052	3.010	0.522
1102.000	632.280	80.009	19.993	103.782	20.050	3.116	0.511
1104.000	633.353	80.008	19.994	103.774	20.048	3.292	0.515
1106.000	634.436	80.009	19.993	103.777	20.048	3.301	0.558
1108.000	635.483	80.008	19.993	103.774	20.048	3.311	0.515
1110.000	636.568	80.008	19.995	103.777	20.046	3.425	0.536
1112.000	637.592	80.009	19.993	103.783	20.045	3.495	0.523
1114.000	638.649	80.009	19.994	103.780	20.047	3.327	0.505
1116.000	639.723	80.009	19.994	103.782	20.047	3.397	0.534
1118.000	640.786	80.009	19.994	103.770	20.045	3.505	0.534
1120.000	641.873	80.009	19.993	103.757	20.043	3.673	0.544
1122.000	642.943	80.011	19.994	103.761	20.045	3.533	0.524
1124.000	643.996	80.011	19.994	103.771	20.040	3.850	0.528
1126.000	645.020	80.011	19.994	103.780	20.042	3.721	0.525
1128.000	646.098	80.011	19.993	103.782	20.045	3.475	0.527
1130.000	647.184	80.008	19.995	103.781	20.046	3.431	0.528
1132.000	648.256	80.007	19.995	103.782	20.045	3.499	0.531
1134.000	649.294	80.006	19.994	103.768	20.047	3.385	0.550
1136.000	650.421	80.007	19.994	103.767	20.044	3.592	0.557
1138.000	651.466	80.007	19.993	103.767	20.046	3.455	0.536
1140.000	652.519	80.007	19.994	103.773	20.047	3.341	0.537
1142.000	653.586	80.008	19.993	103.767	20.046	3.443	0.523
1144.000	654.682	80.007	19.994	103.761	20.046	3.429	0.528
1146.000	655.708	80.008	19.993	103.755	20.043	3.684	0.528
1148.000	656.833	80.006	19.995	103.756	20.047	3.373	0.522
1150.000	657.877	80.006	19.995	103.757	20.045	3.543	0.521
1152.000	658.964	80.007	19.993	103.766	20.047	3.377	0.535
1154.000	660.043	80.006	19.993	103.761	20.045	3.539	0.548
1156.000	661.039	80.005	19.994	103.761	20.046	3.463	0.500
1158.000	662.150	80.007	19.994	103.766	20.048	3.269	0.557
1160.000	663.003	80.006	19.994	103.760	20.043	3.659	0.491
1162.000	664.032	80.005	19.994	103.769	20.045	3.503	0.345
1164.000	665.092	80.006	19.994	103.774	20.044	3.563	0.252
1166.000	666.231	80.006	19.994	103.770	20.045	3.503	0.463
1168.000	667.203	80.006	19.995	103.761	20.044	3.585	0.534
1170.000	668.262	80.007	19.995	103.760	20.042	3.723	0.514
1172.000	669.281	80.006	19.994	103.763	20.043	3.687	0.516
1174.000	670.297	80.008	19.995	103.767	20.038	3.982	0.524
1176.001	671.314	80.009	19.995	103.763	20.044	3.556	0.532
1178.000	672.324	80.009	19.995	103.776	20.046	3.428	0.442
1180.001	673.323	80.009	19.994	103.760	20.044	3.613	0.491
1182.000	674.366	80.008	19.993	103.773	20.043	3.642	0.549
1184.000	675.335	80.009	19.993	103.766	20.044	3.572	0.549
1186.000	676.375	80.008	19.993	103.751	20.039	3.922	0.612
1188.000	677.156	80.008	19.993	103.747	20.043	3.654	0.409
1190.000	678.295	80.008	19.994	103.756	20.044	3.589	0.419
1192.000	679.393	80.007	19.993	103.768	20.045	3.510	0.517
1194.000	680.419	80.008	19.994	103.750	20.047	3.374	0.486
1196.000	681.416	80.008	19.995	103.753	20.045	3.509	0.492
1198.000	682.415	80.009	19.994	103.755	20.047	3.327	0.475
1200.000	683.392	80.008	19.994	103.760	20.045	3.536	0.488
1202.000	684.414	80.009	19.994	103.755	20.045	3.487	0.528
1204.000	685.417	80.010	19.993	103.750	20.046	3.424	0.522
1206.000	686.411	80.009	19.993	103.759	20.050	3.157	0.463
1208.000	687.423	80.010	19.993	103.762	20.047	3.343	0.503
1210.000	688.410	80.010	19.993	103.749	20.046	3.453	0.456
1212.000	689.437	80.007	19.993	103.757	20.042	3.743	0.480
1214.001	690.419	80.006	19.993	103.752	20.040	3.875	0.477
1216.000	691.390	80.006	19.993	103.755	20.043	3.668	0.469
1218.000	692.408	80.007	19.993	103.753	20.046	3.417	0.504
1220.000	693.397	80.008	19.993	103.761	20.044	3.617	0.490
1222.000	694.420	80.007	19.993	103.777	20.041	3.823	0.516
1224.000	695.415	80.007	19.992	103.778	20.042	3.738	0.505
1226.000	696.400	80.006	19.993	103.763	20.042	3.740	0.505
1228.000	697.444	80.007	19.994	103.757	20.044	3.617	0.508
1230.000	698.445	80.007	19.993	103.765	20.042	3.691	0.520
1232.000	699.516	80.007	19.993	103.762	20.039	3.934	0.519
1234.000	700.524	80.009	19.994	103.761	20.041	3.764	0.491
1236.000	701.538	80.008	19.995	103.746	20.040	3.840	0.510
1238.000	702.594	80.007	19.995	103.763	20.040	3.894	0.500
1240.000	703.615	80.007	19.994	103.768	20.040	3.872	0.527
1242.000	704.640	80.007	19.993	103.758	20.041	3.832	0.477
1244.001	705.656	80.007	19.994	103.757	20.040	3.854	0.527
1246.000	706.674	80.007	19.995	103.749	20.041	3.782	0.505
1248.000	707.714	80.007	19.993	103.754	20.041	3.792	0.504
1250.000	708.767	80.008	19.995	103.751	20.040	3.842	0.526
1252.000	709.762	80.008	19.995	103.770	20.039	3.916	0.500
1254.000	710.807	80.007	19.996	103.750	20.041	3.784	0.496
1256.000	711.852	80.008	19.994	103.756	20.043	3.620	0.529
1258.000	712.866	80.008	19.995	103.755	20.038	4.050	0.529
1260.000	713.890	80.008	19.995	103.747	20.039	3.970	0.532
1262.000	714.903	80.008	19.995	103.755	20.035	4.218	0.510
1264.000	715.914	80.008	19.994	103.747	20.040	3.858	0.512
1266.000	716.920	80.008	19.995	103.753	20.039	3.938	0.517
1268.000	717.916	80.007	19.994	103.748	20.036	4.194	0.530
1270.000	718.908	80.007	19.995	103.755	20.039	3.948	0.468
1272.000	719.904	80.007	19.994	103.751	20.039	3.966	0.517
1274.000	720.905	80.008	19.994	103.756	20.040	3.866	0.534
1276.000	721.891	80.007	19.994	103.757	20.040	3.878	0.495
1278.000	722.886	80.009	19.993	103.752	20.039	3.944	0.495
1280.000	723.911	80.007	19.994	103.756	20.040	3.858	0.513
1282.000	724.860	80.008	19.993	103.752	20.036	4.138	0.493
1284.000	725.865	80.008	19.992	103.756	20.039	3.968	0.475
1286.000	726.866	80.010	19.993	103.754	20.034	4.324	0.489
1288.000	727.864	80.009	19.992	103.755	20.036	4.128	0.502
1290.000	728.815	80.007	19.993	103.756	20.036	4.142	0.486
1292.000	729.827	80.008	19.992	103.758	20.037	4.080	0.516
1294.000	730.803	80.008	19.993	103.751	20.037	4.078	0.476
1296.000	731.786	80.007	19.993	103.757	20.040	3.892	0.479
1298.000	732.812	80.006	19.994	103.757	20.038	3.982	0.504
1300.000	733.816	80.006	19.994	103.750	20.037	4.076	0.520
1302.000	734.730	80.007	19.993	103.747	20.035	4.223	0.491
1304.000	735.738	80.006	19.993	103.753	20.035	4.211	0.462
1306.000	736.724	80.007	19.994	103.752	20.037	4.107	0.484
1308.000	737.715	80.007	19.995	103.755	20.041	3.816	0.504
1310.001	738.697	80.006	19.995	103.749	20.039	3.950	0.497
1312.000	739.638	80.007	19.994	103.748	20.039	3.970	0.477
1314.000	740.656	80.007	19.994	103.748	20.037	4.126	0.484
1316.000	741.617	80.006	19.993	103.748	20.036	4.176	0.519
1318.000	742.607	80.007	19.993	103.746	20.036	4.186	0.483
1320.000	743.587	80.007	19.993	103.748	20.039	3.946	0.497