File: 01_Data/PineLap_SidingA/MCC/PineLap_SidingA_MCC_30K_min_211123_R4.txt
Sample ID:	C:\MCC\MCC Cal\Test\PineLap_SidingA\PineLap_SidingA_MCC_30K_min_211123_R4.txt
Sample Weight (mg):	4.72
Heating Rate (C/s):	0.5
Combustor Temp (C):	900
N2 Flow Rate (cc/min):	80
O2 Flow Rate (cc/min):	20
Calibration File:	C:\MCC\MCC Cal\Coeff1 JN10440_30_210304.txt.txt
T Correction Coefficients:	0	1.024463	0
Time Shift (s):	14
*
Time (s)	Temperature (C)	N2 flow rate (cc/min)	O2 flow rate (cc/min)	Flow Rate (cc/min)	Oxygen (%)	HRR (W/g)	Heating rate (C/s)
0.000	109.179	80.008	19.995	103.133	20.040	-0.338	0.025
2.000	109.170	80.009	19.993	103.134	20.044	-0.593	0.013
4.000	109.180	80.009	19.995	103.133	20.044	-0.604	0.017
6.000	109.201	80.009	19.994	103.136	20.043	-0.535	0.016
8.001	109.138	80.002	19.995	103.139	20.042	-0.490	-0.029
10.000	109.192	80.013	19.996	103.152	20.041	-0.419	0.028
12.001	109.146	80.004	19.995	103.159	20.042	-0.494	-0.014
14.001	109.167	80.014	19.991	103.167	20.037	-0.150	-0.000
16.000	109.174	80.009	19.999	103.174	20.034	0.043	0.009
18.000	109.186	80.007	20.005	103.170	20.036	-0.079	-0.034
20.000	109.209	80.010	19.997	103.174	20.039	-0.282	0.031
22.000	109.241	80.007	19.995	103.170	20.036	-0.092	-0.000
24.000	109.245	80.003	20.002	103.170	20.034	0.103	0.003
26.000	109.350	80.008	19.992	103.193	20.031	0.253	0.046
28.000	109.360	80.008	19.991	103.237	20.035	-0.006	0.006
30.001	109.468	80.004	20.002	103.229	20.026	0.629	0.083
32.000	109.568	80.008	19.996	103.221	20.029	0.419	0.070
34.000	109.648	80.006	19.997	103.204	20.027	0.541	0.016
36.000	109.738	80.007	19.998	103.219	20.022	0.874	0.043
38.000	109.904	80.010	19.995	103.246	20.024	0.786	0.055
40.001	110.055	80.010	19.995	103.251	20.019	1.078	0.074
42.000	110.222	80.011	19.995	103.277	20.017	1.250	0.090
44.000	110.383	80.007	19.991	103.266	20.020	1.058	0.075
46.000	110.605	80.011	19.993	103.275	20.021	0.927	0.144
48.000	110.815	80.004	19.996	103.280	20.016	1.281	0.113
50.000	111.052	80.010	19.992	103.275	20.012	1.577	0.119
52.000	111.317	80.015	19.994	103.283	20.011	1.633	0.113
54.000	111.570	80.008	19.993	103.309	20.012	1.599	0.129
56.001	111.834	80.012	19.988	103.323	20.010	1.716	0.135
58.000	112.192	80.017	19.993	103.331	20.009	1.759	0.168
60.001	112.560	80.008	19.994	103.333	20.009	1.794	0.209
62.000	112.919	80.010	19.990	103.346	20.008	1.822	0.163
64.001	113.265	80.011	19.995	103.352	20.001	2.304	0.196
66.000	113.694	80.012	19.994	103.364	20.001	2.343	0.224
68.000	114.120	80.015	19.994	103.365	20.006	1.954	0.211
70.000	114.610	80.012	19.994	103.362	20.002	2.235	0.223
72.000	115.058	80.007	19.993	103.359	20.000	2.370	0.221
74.000	115.618	80.003	19.995	103.366	19.999	2.488	0.246
76.000	116.127	80.009	19.996	103.371	20.002	2.226	0.264
78.000	116.685	80.008	19.992	103.390	20.002	2.274	0.308
80.000	117.242	80.006	19.992	103.386	20.000	2.379	0.259
82.000	117.818	80.011	19.990	103.366	20.000	2.417	0.319
84.001	118.459	80.006	19.989	103.396	20.002	2.263	0.322
86.001	119.038	80.006	19.996	103.389	19.999	2.483	0.297
88.000	119.734	80.011	19.997	103.398	20.000	2.374	0.347
90.000	120.412	80.008	19.996	103.379	20.001	2.309	0.354
92.000	121.133	80.009	19.996	103.398	20.001	2.339	0.355
94.000	121.849	80.008	19.996	103.395	19.995	2.743	0.360
96.001	122.578	80.009	19.995	103.399	19.999	2.444	0.385
98.000	123.290	80.007	19.995	103.413	19.994	2.804	0.362
100.000	124.076	80.010	19.994	103.418	19.992	2.911	0.385
102.000	124.883	80.008	19.994	103.424	19.995	2.731	0.394
104.000	125.668	80.006	19.997	103.405	19.992	2.912	0.396
106.001	126.501	80.006	19.996	103.421	19.997	2.591	0.397
108.000	127.338	80.006	19.995	103.401	19.996	2.656	0.411
110.000	128.184	80.008	19.995	103.383	19.999	2.474	0.412
112.000	129.070	80.008	19.993	103.375	19.997	2.572	0.427
114.000	129.945	80.011	19.995	103.384	19.994	2.783	0.421
116.000	130.826	80.009	19.993	103.399	20.001	2.304	0.464
118.000	131.730	80.011	19.996	103.400	19.994	2.785	0.442
120.000	132.643	80.011	19.995	103.361	19.998	2.519	0.438
122.000	133.506	80.010	19.994	103.361	20.004	2.111	0.416
124.000	134.479	80.009	19.996	103.379	19.998	2.525	0.465
126.000	135.423	80.009	19.996	103.378	20.005	2.025	0.485
128.000	136.358	80.009	19.995	103.368	20.002	2.240	0.461
130.000	137.316	80.009	19.995	103.365	20.004	2.118	0.487
132.000	138.283	80.006	19.995	103.362	20.008	1.828	0.487
134.000	139.196	80.009	19.994	103.367	20.010	1.717	0.499
136.000	140.194	80.010	19.993	103.373	20.006	1.995	0.505
138.000	141.156	80.010	19.994	103.361	20.010	1.725	0.493
140.000	142.127	80.010	19.994	103.372	20.002	2.275	0.520
142.000	143.097	80.010	19.993	103.358	20.012	1.605	0.490
144.000	144.069	80.012	19.994	103.364	20.011	1.650	0.472
146.000	145.079	80.011	19.993	103.372	20.007	1.919	0.452
148.000	146.108	80.010	19.993	103.397	20.006	1.995	0.513
150.000	147.078	80.011	19.994	103.337	20.006	1.964	0.510
152.000	148.125	80.011	19.995	103.358	20.018	1.152	0.581
154.000	149.079	80.009	19.994	103.364	20.012	1.545	0.421
156.000	150.090	80.010	19.997	103.348	20.013	1.538	0.496
158.000	150.997	80.013	19.992	103.359	20.011	1.631	0.489
160.000	152.014	80.009	19.993	103.356	20.009	1.807	0.507
162.000	153.033	80.010	19.992	103.356	20.014	1.406	0.505
164.000	154.005	80.008	19.992	103.360	20.001	2.318	0.493
166.000	155.048	80.010	19.994	103.357	20.014	1.451	0.510
168.000	156.019	80.010	19.996	103.347	20.010	1.713	0.488
170.000	157.016	80.012	19.993	103.345	20.013	1.475	0.499
172.000	157.985	80.010	19.995	103.334	20.019	1.120	0.502
174.000	158.991	80.011	19.993	103.338	20.022	0.917	0.498
176.000	160.010	80.010	19.994	103.344	20.022	0.861	0.530
178.000	160.970	80.009	19.991	103.338	20.019	1.062	0.493
180.000	161.982	80.013	19.991	103.328	20.018	1.153	0.479
182.000	162.983	80.011	19.994	103.324	20.023	0.854	0.512
184.000	163.997	80.011	19.994	103.328	20.019	1.069	0.500
186.000	165.020	80.009	19.996	103.337	20.020	1.002	0.513
188.000	166.046	80.009	19.994	103.326	20.024	0.747	0.459
190.000	167.061	80.009	19.995	103.324	20.021	0.945	0.485
192.000	168.075	80.010	19.994	103.328	20.032	0.215	0.517
194.000	169.085	80.010	19.998	103.326	20.025	0.657	0.528
196.000	170.035	80.010	19.994	103.323	20.025	0.700	0.499
198.000	171.023	80.010	19.995	103.327	20.025	0.652	0.472
200.000	172.022	80.011	19.994	103.324	20.024	0.781	0.497
202.000	173.046	80.010	19.995	103.325	20.026	0.637	0.506
204.000	174.021	80.008	19.995	103.327	20.028	0.502	0.506
206.001	175.021	80.009	19.993	103.326	20.029	0.440	0.481
208.000	176.037	80.011	19.994	103.324	20.025	0.685	0.483
210.000	177.004	80.011	19.995	103.324	20.029	0.429	0.508
212.001	177.987	80.008	19.995	103.325	20.030	0.374	0.501
214.000	179.014	80.009	19.994	103.326	20.026	0.622	0.504
216.001	179.997	80.008	19.996	103.325	20.031	0.281	0.499
218.000	181.000	80.009	19.996	103.324	20.025	0.651	0.497
220.000	181.998	80.011	19.996	103.313	20.028	0.474	0.492
222.000	183.014	80.010	19.996	103.312	20.034	0.095	0.491
224.000	183.966	80.012	19.995	103.313	20.031	0.275	0.477
226.000	184.896	80.011	19.996	103.308	20.029	0.402	0.490
228.001	185.940	80.013	19.994	103.313	20.033	0.155	0.467
230.000	186.939	80.012	19.995	103.306	20.026	0.606	0.484
232.000	187.948	80.014	19.994	103.295	20.031	0.286	0.477
234.000	188.926	80.011	19.994	103.300	20.028	0.468	0.512
236.000	189.911	80.011	19.994	103.306	20.030	0.335	0.486
238.000	190.899	80.010	19.994	103.294	20.028	0.477	0.529
240.000	191.855	80.010	19.995	103.296	20.031	0.260	0.475
242.000	192.854	80.009	19.994	103.298	20.027	0.515	0.508
244.000	193.768	80.008	19.994	103.309	20.032	0.228	0.460
246.000	194.760	80.011	19.995	103.311	20.033	0.170	0.456
248.000	195.747	80.010	19.995	103.308	20.034	0.060	0.533
250.000	196.696	80.011	19.994	103.293	20.034	0.045	0.459
252.000	197.668	80.011	19.994	103.296	20.034	0.101	0.567
254.000	198.648	80.012	19.994	103.295	20.031	0.260	0.515
256.000	199.646	80.010	19.995	103.305	20.032	0.225	0.482
258.000	200.615	80.012	19.995	103.293	20.033	0.152	0.492
260.000	201.636	80.011	19.995	103.300	20.032	0.189	0.529
262.000	202.576	80.009	19.993	103.292	20.032	0.185	0.520
264.000	203.602	80.009	19.995	103.288	20.030	0.371	0.504
266.000	204.560	80.011	19.994	103.290	20.033	0.122	0.470
268.000	205.549	80.010	19.995	103.296	20.037	-0.153	0.538
270.000	206.545	80.008	19.993	103.285	20.029	0.384	0.536
272.000	207.509	80.010	19.997	103.284	20.035	0.024	0.481
274.000	208.495	80.009	19.995	103.286	20.034	0.075	0.473
276.000	209.472	80.009	19.993	103.294	20.030	0.314	0.519
278.000	210.399	80.009	19.994	103.291	20.034	0.088	0.490
280.000	211.383	80.010	19.996	103.289	20.036	-0.051	0.485
282.000	212.355	80.011	19.995	103.291	20.041	-0.415	0.476
284.000	213.365	80.011	19.995	103.289	20.035	-0.015	0.472
286.000	214.309	80.010	19.994	103.288	20.037	-0.129	0.472
288.000	215.313	80.012	19.994	103.289	20.037	-0.146	0.514
290.000	216.299	80.009	19.994	103.287	20.039	-0.238	0.498
292.000	217.259	80.010	19.995	103.282	20.042	-0.473	0.482
294.000	218.253	80.008	19.995	103.283	20.042	-0.459	0.492
296.000	219.239	80.008	19.995	103.284	20.042	-0.449	0.510
298.000	220.197	80.012	19.994	103.283	20.045	-0.661	0.466
300.000	221.177	80.011	19.994	103.280	20.039	-0.255	0.466
302.000	222.153	80.010	19.994	103.283	20.042	-0.457	0.497
304.000	223.121	80.010	19.995	103.283	20.042	-0.492	0.494
306.000	224.127	80.011	19.996	103.283	20.037	-0.127	0.497
308.000	225.096	80.013	19.996	103.280	20.038	-0.206	0.493
310.000	226.114	80.010	19.995	103.280	20.046	-0.764	0.474
312.000	227.099	80.011	19.994	103.283	20.043	-0.573	0.479
314.000	228.036	80.010	19.995	103.281	20.045	-0.672	0.528
316.000	229.073	80.010	19.995	103.269	20.041	-0.415	0.515
318.000	230.053	80.008	19.996	103.282	20.040	-0.322	0.483
320.000	231.029	80.010	19.995	103.281	20.046	-0.717	0.501
322.000	232.048	80.010	19.995	103.282	20.048	-0.881	0.470
324.000	233.029	80.010	19.994	103.283	20.045	-0.648	0.518
326.000	234.033	80.011	19.991	103.281	20.045	-0.685	0.525
328.000	235.026	80.009	19.998	103.278	20.046	-0.780	0.486
330.000	235.993	80.005	19.999	103.281	20.046	-0.717	0.470
332.000	237.017	80.010	19.996	103.284	20.044	-0.597	0.518
334.000	237.993	80.009	19.995	103.281	20.046	-0.726	0.496
336.000	239.020	80.013	19.994	103.287	20.047	-0.784	0.516
338.000	239.960	80.007	19.994	103.281	20.046	-0.758	0.488
340.000	240.979	80.010	19.995	103.270	20.045	-0.706	0.493
342.000	241.948	80.008	19.994	103.283	20.046	-0.741	0.493
344.000	242.969	80.008	19.994	103.282	20.047	-0.816	0.480
346.000	243.949	80.009	19.994	103.283	20.049	-0.984	0.505
348.000	244.916	80.008	19.995	103.283	20.045	-0.648	0.486
350.000	245.960	80.009	19.994	103.279	20.045	-0.657	0.476
352.000	246.959	80.008	19.995	103.286	20.049	-0.934	0.510
354.000	247.957	80.007	19.995	103.287	20.050	-1.022	0.481
356.000	248.967	80.011	19.995	103.282	20.050	-1.038	0.509
358.000	249.968	80.008	19.994	103.281	20.049	-0.977	0.506
360.000	251.034	80.008	19.995	103.273	20.045	-0.674	0.516
362.000	252.013	80.012	19.994	103.268	20.048	-0.900	0.499
364.000	253.040	80.010	19.994	103.279	20.045	-0.713	0.514
366.000	254.058	80.013	19.994	103.275	20.039	-0.275	0.513
368.000	255.006	80.010	19.995	103.255	20.045	-0.696	0.497
370.000	256.000	80.011	19.994	103.262	20.042	-0.475	0.462
372.000	256.996	80.009	19.995	103.284	20.048	-0.910	0.499
374.000	258.005	80.010	19.995	103.279	20.046	-0.724	0.491
376.000	259.032	80.010	19.995	103.284	20.039	-0.247	0.509
378.000	260.011	80.009	19.996	103.286	20.045	-0.668	0.487
380.000	260.970	80.011	19.994	103.298	20.045	-0.651	0.461
382.000	262.001	80.010	19.996	103.304	20.044	-0.634	0.502
384.000	263.039	80.009	19.995	103.289	20.046	-0.737	0.512
386.000	264.040	80.010	19.994	103.287	20.044	-0.634	0.512
388.000	265.035	80.010	19.995	103.278	20.049	-0.984	0.496
390.000	266.000	80.010	19.993	103.264	20.051	-1.068	0.487
392.000	266.975	80.012	19.994	103.253	20.051	-1.082	0.507
394.000	267.984	80.012	19.993	103.247	20.049	-0.977	0.477
396.000	268.974	80.011	19.992	103.250	20.047	-0.797	0.498
398.000	270.020	80.011	19.994	103.248	20.048	-0.911	0.515
400.000	271.021	80.009	19.994	103.261	20.046	-0.746	0.527
402.000	272.080	80.011	19.993	103.264	20.045	-0.679	0.551
404.000	273.038	80.008	19.995	103.278	20.051	-1.102	0.477
406.000	274.069	80.010	19.993	103.307	20.049	-0.962	0.509
408.000	275.042	80.009	19.995	103.288	20.050	-1.029	0.495
410.000	276.051	80.008	19.996	103.241	20.054	-1.322	0.494
412.000	277.058	80.007	19.993	103.246	20.048	-0.907	0.500
414.000	278.038	80.009	19.995	103.253	20.053	-1.199	0.494
416.000	279.013	80.006	19.998	103.272	20.053	-1.194	0.503
418.000	280.004	80.010	19.996	103.248	20.057	-1.506	0.523
420.000	281.016	80.009	19.995	103.299	20.052	-1.142	0.490
422.000	282.029	80.011	19.994	103.273	20.047	-0.827	0.488
424.000	283.032	80.011	19.993	103.247	20.056	-1.431	0.513
426.000	284.044	80.010	19.995	103.272	20.050	-0.988	0.471
428.000	285.061	80.009	19.994	103.266	20.053	-1.244	0.490
430.000	286.082	80.008	19.991	103.276	20.052	-1.125	0.520
432.000	287.117	80.009	19.995	103.261	20.056	-1.401	0.501
434.000	288.132	80.009	19.995	103.244	20.049	-0.952	0.503
436.000	289.113	80.010	19.994	103.269	20.052	-1.127	0.472
438.000	290.176	80.009	19.995	103.271	20.053	-1.199	0.515
440.000	291.159	80.009	19.995	103.267	20.057	-1.484	0.498
442.000	292.207	80.010	19.994	103.263	20.056	-1.403	0.502
444.000	293.248	80.011	19.994	103.264	20.054	-1.272	0.514
446.000	294.310	80.011	19.994	103.279	20.056	-1.463	0.520
448.000	295.322	80.012	19.995	103.269	20.055	-1.381	0.491
450.000	296.380	80.010	19.995	103.252	20.054	-1.297	0.533
452.000	297.375	80.013	19.993	103.268	20.054	-1.299	0.496
454.000	298.472	80.010	19.995	103.271	20.055	-1.370	0.561
456.000	299.480	80.011	19.994	103.265	20.054	-1.308	0.518
458.000	300.505	80.010	19.995	103.261	20.059	-1.637	0.509
460.000	301.523	80.010	19.994	103.267	20.058	-1.587	0.517
462.000	302.543	80.012	19.995	103.263	20.053	-1.237	0.545
464.000	303.565	80.010	19.993	103.259	20.053	-1.222	0.518
466.000	304.595	80.012	19.994	103.269	20.056	-1.441	0.518
468.000	305.620	80.011	19.994	103.269	20.056	-1.448	0.478
470.000	306.666	80.012	19.994	103.262	20.058	-1.570	0.522
472.000	307.709	80.011	19.994	103.253	20.054	-1.319	0.526
474.000	308.712	80.013	19.994	103.254	20.054	-1.325	0.508
476.000	309.733	80.011	19.993	103.248	20.057	-1.478	0.531
478.000	310.723	80.012	19.993	103.247	20.057	-1.532	0.479
480.000	311.752	80.011	19.996	103.250	20.056	-1.448	0.485
482.000	312.797	80.011	19.993	103.260	20.051	-1.117	0.507
484.000	313.822	80.008	19.994	103.251	20.050	-1.001	0.528
486.000	314.820	80.010	19.995	103.246	20.052	-1.192	0.516
488.000	315.812	80.009	19.995	103.249	20.049	-0.971	0.514
490.000	316.796	80.009	19.995	103.252	20.051	-1.087	0.492
492.000	317.790	80.009	19.994	103.264	20.047	-0.825	0.464
494.000	318.789	80.009	19.994	103.263	20.051	-1.087	0.489
496.000	319.747	80.009	19.996	103.246	20.047	-0.797	0.476
498.000	320.710	80.009	19.994	103.250	20.048	-0.870	0.490
500.000	321.731	80.009	19.996	103.265	20.046	-0.745	0.502
502.000	322.665	80.009	19.996	103.265	20.043	-0.571	0.496
504.000	323.695	80.009	19.996	103.276	20.044	-0.602	0.531
506.001	324.647	80.008	19.994	103.283	20.047	-0.804	0.463
508.001	325.660	80.009	19.995	103.282	20.042	-0.458	0.513
510.000	326.639	80.008	19.998	103.266	20.035	-0.030	0.480
512.000	327.611	80.009	19.997	103.243	20.039	-0.238	0.492
514.000	328.586	80.009	19.995	103.246	20.035	0.021	0.502
516.000	329.558	80.010	19.995	103.245	20.032	0.187	0.475
518.000	330.587	80.009	19.994	103.245	20.028	0.456	0.517
520.000	331.501	80.008	19.996	103.250	20.026	0.599	0.492
522.000	332.472	80.007	19.995	103.248	20.020	1.050	0.492
524.000	333.474	80.010	19.994	103.264	20.022	0.889	0.472
526.000	334.465	80.011	19.995	103.265	20.029	0.428	0.502
528.000	335.435	80.010	19.995	103.252	20.023	0.827	0.491
530.000	336.443	80.010	19.994	103.248	20.023	0.825	0.466
532.000	337.391	80.010	19.994	103.267	20.022	0.908	0.493
534.000	338.417	80.011	19.995	103.255	20.020	0.994	0.514
536.000	339.407	80.010	19.995	103.253	20.020	1.003	0.530
538.000	340.394	80.009	19.994	103.266	20.022	0.894	0.525
540.000	341.417	80.008	19.994	103.257	20.017	1.197	0.527
542.000	342.397	80.008	19.995	103.281	20.020	0.993	0.501
544.000	343.409	80.011	19.995	103.278	20.017	1.240	0.492
546.000	344.413	80.010	19.993	103.260	20.020	1.053	0.507
548.000	345.433	80.010	19.993	103.260	20.020	1.005	0.500
550.000	346.441	80.011	19.994	103.252	20.020	1.023	0.485
552.000	347.462	80.011	19.994	103.248	20.022	0.859	0.516
554.000	348.485	80.012	19.993	103.253	20.024	0.780	0.530
556.000	349.462	80.012	19.994	103.252	20.018	1.165	0.497
558.000	350.509	80.012	19.995	103.250	20.018	1.139	0.520
560.000	351.493	80.011	19.994	103.241	20.017	1.199	0.499
562.000	352.476	80.010	19.992	103.244	20.026	0.623	0.497
564.000	353.539	80.010	19.995	103.243	20.021	0.971	0.517
566.000	354.535	80.010	19.994	103.245	20.022	0.877	0.487
568.000	355.591	80.007	19.995	103.253	20.025	0.701	0.526
570.000	356.543	80.010	19.996	103.257	20.023	0.789	0.471
572.000	357.564	80.010	19.995	103.244	20.026	0.647	0.474
574.001	358.594	80.009	19.996	103.246	20.026	0.593	0.505
576.000	359.611	80.007	19.996	103.240	20.026	0.602	0.533
578.000	360.558	80.009	19.995	103.233	20.025	0.709	0.479
580.000	361.583	80.009	19.996	103.239	20.024	0.773	0.505
582.000	362.590	80.010	19.994	103.248	20.024	0.743	0.518
584.000	363.575	80.010	19.994	103.244	20.026	0.640	0.492
586.000	364.616	80.009	19.995	103.247	20.023	0.788	0.532
588.000	365.596	80.008	19.995	103.247	20.020	1.018	0.527
590.000	366.594	80.009	19.995	103.248	20.021	0.956	0.501
592.000	367.594	80.009	19.995	103.246	20.021	0.962	0.498
594.000	368.601	80.008	19.995	103.248	20.017	1.253	0.524
596.000	369.585	80.007	19.995	103.248	20.020	1.031	0.474
598.000	370.617	80.008	19.996	103.244	20.018	1.169	0.491
600.000	371.579	80.007	19.996	103.246	20.014	1.463	0.524
602.000	372.570	80.007	19.995	103.245	20.015	1.351	0.500
604.000	373.595	80.007	19.997	103.245	20.011	1.671	0.521
606.000	374.587	80.008	19.996	103.249	20.007	1.890	0.519
608.000	375.565	80.009	19.995	103.249	20.003	2.153	0.488
610.000	376.594	80.010	19.995	103.249	20.001	2.346	0.501
612.000	377.582	80.010	19.995	103.248	19.999	2.468	0.456
614.000	378.575	80.011	19.995	103.248	19.997	2.591	0.529
616.000	379.589	80.011	19.994	103.248	19.994	2.784	0.485
618.000	380.594	80.010	19.995	103.245	19.989	3.143	0.537
620.000	381.551	80.009	19.996	103.241	19.984	3.457	0.499
622.000	382.560	80.010	19.995	103.245	19.983	3.560	0.485
624.000	383.554	80.010	19.994	103.245	19.981	3.670	0.484
626.000	384.573	80.009	19.994	103.245	19.969	4.490	0.521
628.000	385.564	80.009	19.994	103.244	19.969	4.540	0.500
630.000	386.567	80.010	19.994	103.234	19.964	4.847	0.504
632.000	387.590	80.010	19.995	103.233	19.958	5.240	0.496
634.000	388.581	80.010	19.995	103.236	19.957	5.339	0.527
636.000	389.592	80.011	19.994	103.246	19.951	5.745	0.519
638.000	390.609	80.012	19.995	103.244	19.946	6.093	0.498
640.000	391.662	80.013	19.995	103.244	19.941	6.451	0.497
642.000	392.659	80.012	19.994	103.242	19.932	7.006	0.512
644.000	393.687	80.011	19.994	103.244	19.928	7.276	0.532
646.000	394.725	80.011	19.995	103.245	19.919	7.891	0.512
648.000	395.795	80.010	19.994	103.245	19.912	8.370	0.530
650.000	396.777	80.009	19.994	103.246	19.909	8.593	0.536
652.000	397.782	80.009	19.994	103.248	19.900	9.186	0.513
654.000	398.820	80.010	19.994	103.249	19.891	9.850	0.529
656.000	399.845	80.009	19.994	103.249	19.890	9.887	0.487
658.000	400.883	80.009	19.995	103.250	19.885	10.266	0.527
660.000	401.908	80.008	19.995	103.250	19.875	10.895	0.521
662.000	402.898	80.008	19.995	103.250	19.871	11.187	0.506
664.000	403.952	80.008	19.995	103.247	19.868	11.377	0.497
666.000	404.982	80.007	19.995	103.249	19.862	11.785	0.507
668.000	405.976	80.008	19.995	103.248	19.859	11.987	0.511
670.000	406.983	80.008	19.996	103.239	19.856	12.200	0.507
672.000	408.074	80.008	19.995	103.246	19.852	12.457	0.513
674.000	409.073	80.009	19.994	103.238	19.853	12.440	0.512
676.000	410.077	80.007	19.995	103.233	19.854	12.375	0.514
678.000	411.142	80.007	19.994	103.236	19.854	12.338	0.547
680.000	412.142	80.009	19.994	103.230	19.852	12.511	0.514
682.000	413.163	80.008	19.996	103.223	19.858	12.114	0.494
684.000	414.151	80.008	19.995	103.239	19.859	12.012	0.498
686.000	415.152	80.008	19.995	103.242	19.865	11.589	0.497
688.000	416.159	80.008	19.996	103.243	19.872	11.098	0.494
690.000	417.200	80.010	19.995	103.243	19.876	10.843	0.521
692.000	418.247	80.008	19.995	103.236	19.882	10.457	0.483
694.000	419.220	80.010	19.994	103.240	19.892	9.754	0.477
696.000	420.246	80.011	19.995	103.240	19.900	9.215	0.516
698.000	421.300	80.010	19.996	103.241	19.909	8.599	0.495
700.000	422.298	80.010	19.994	103.234	19.921	7.766	0.492
702.000	423.301	80.010	19.995	103.231	19.925	7.534	0.496
704.000	424.321	80.009	19.995	103.238	19.935	6.849	0.482
706.000	425.354	80.012	19.995	103.237	19.942	6.346	0.540
708.000	426.331	80.010	19.995	103.235	19.954	5.518	0.486
710.000	427.338	80.010	19.994	103.229	19.959	5.219	0.486
712.000	428.362	80.010	19.994	103.193	19.972	4.289	0.535
714.000	429.353	80.012	19.993	103.197	19.983	3.537	0.481
716.000	430.321	80.012	19.994	103.289	19.988	3.199	0.482
718.000	431.334	80.011	19.994	103.222	19.998	2.557	0.502
720.000	432.327	80.011	19.995	103.236	20.004	2.095	0.524
722.000	433.389	80.011	19.993	103.230	20.008	1.874	0.518
724.000	434.409	80.011	19.996	103.220	20.012	1.582	0.485
726.000	435.463	80.009	19.995	103.233	20.015	1.337	0.541
728.000	436.455	80.009	19.995	103.232	20.022	0.922	0.505
730.000	437.514	80.009	19.995	103.232	20.026	0.619	0.513
732.001	438.528	80.008	19.994	103.240	20.028	0.458	0.525
734.000	439.564	80.009	19.995	103.224	20.030	0.314	0.536
736.000	440.572	80.008	19.994	103.222	20.031	0.249	0.507
738.000	441.568	80.009	19.994	103.244	20.035	-0.022	0.518
740.000	442.621	80.008	19.994	103.251	20.038	-0.200	0.529
742.000	443.632	80.010	19.993	103.229	20.041	-0.378	0.484
744.000	444.660	80.007	19.994	103.221	20.039	-0.253	0.505
746.000	445.695	80.009	19.993	103.225	20.043	-0.527	0.502
748.000	446.695	80.009	19.995	103.238	20.044	-0.580	0.520
750.000	447.688	80.010	19.995	103.237	20.046	-0.776	0.482
752.000	448.748	80.009	19.995	103.236	20.046	-0.770	0.488
754.000	449.755	80.009	19.994	103.237	20.047	-0.791	0.504
756.000	450.792	80.010	19.995	103.233	20.045	-0.690	0.539
758.000	451.824	80.008	19.995	103.228	20.048	-0.862	0.547
760.000	452.838	80.008	19.995	103.226	20.048	-0.898	0.503
762.000	453.898	80.007	19.995	103.228	20.046	-0.759	0.523
764.000	454.893	80.008	19.995	103.177	20.051	-1.122	0.504
766.000	455.928	80.008	19.996	103.260	20.051	-1.100	0.491
768.001	456.950	80.009	19.995	103.224	20.047	-0.806	0.485
770.000	457.965	80.009	19.995	103.233	20.050	-1.033	0.524
772.000	459.013	80.010	19.995	103.235	20.052	-1.134	0.549
774.000	460.024	80.011	19.995	103.231	20.050	-0.991	0.528
776.000	461.054	80.010	19.994	103.241	20.051	-1.074	0.503
778.000	462.111	80.010	19.994	103.243	20.054	-1.264	0.527
780.000	463.159	80.009	19.994	103.238	20.054	-1.326	0.529
782.000	464.132	80.011	19.995	103.242	20.058	-1.566	0.488
784.000	465.101	80.010	19.995	103.242	20.058	-1.568	0.479
786.000	466.151	80.007	19.996	103.243	20.056	-1.465	0.499
788.000	467.181	80.009	19.996	103.241	20.064	-1.943	0.511
790.000	468.180	80.007	19.997	103.216	20.063	-1.887	0.502
792.000	469.231	80.008	19.995	103.221	20.065	-2.065	0.500
794.000	470.219	80.009	19.995	103.237	20.063	-1.889	0.493
796.000	471.263	80.009	19.996	103.228	20.065	-2.018	0.506
798.000	472.265	80.011	19.995	103.224	20.066	-2.138	0.517
800.000	473.264	80.010	19.995	103.208	20.066	-2.130	0.508
802.000	474.358	80.010	19.995	103.217	20.066	-2.106	0.558
804.001	475.363	80.010	19.993	103.224	20.071	-2.462	0.498
806.000	476.379	80.009	19.993	103.214	20.069	-2.289	0.519
808.000	477.374	80.010	19.995	103.229	20.072	-2.517	0.511
810.000	478.396	80.009	19.994	103.219	20.072	-2.508	0.517
812.000	479.403	80.009	19.994	103.221	20.076	-2.809	0.508
814.001	480.433	80.008	19.995	103.238	20.079	-2.985	0.538
816.001	481.439	80.008	19.995	103.223	20.081	-3.157	0.505
818.000	482.462	80.010	19.994	103.209	20.079	-2.987	0.508
820.000	483.440	80.008	19.995	103.224	20.082	-3.222	0.480
822.000	484.458	80.008	19.994	103.228	20.084	-3.340	0.511
824.000	485.464	80.008	19.995	103.225	20.087	-3.568	0.515
826.000	486.488	80.009	19.994	103.221	20.090	-3.782	0.513
828.000	487.505	80.010	19.995	103.228	20.089	-3.694	0.491
830.000	488.546	80.009	19.995	103.208	20.092	-3.905	0.540
832.000	489.558	80.010	19.996	103.217	20.095	-4.120	0.538
834.000	490.567	80.010	19.995	103.208	20.096	-4.169	0.467
836.000	491.588	80.010	19.995	103.218	20.096	-4.175	0.516
838.000	492.621	80.009	19.995	103.219	20.095	-4.094	0.493
840.000	493.704	80.009	19.994	103.208	20.101	-4.476	0.554
842.000	494.741	80.010	19.995	103.210	20.100	-4.466	0.545
844.000	495.751	80.010	19.995	103.211	20.099	-4.336	0.505
846.000	496.748	80.008	19.994	103.223	20.103	-4.659	0.502
848.000	497.777	80.010	19.995	103.219	20.101	-4.492	0.533
850.000	498.761	80.009	19.995	103.223	20.109	-5.048	0.502
852.000	499.813	80.009	19.994	103.213	20.107	-4.935	0.522
854.000	500.837	80.010	19.995	103.218	20.109	-5.033	0.542
856.000	501.864	80.010	19.996	103.231	20.112	-5.244	0.552
858.000	502.866	80.010	19.995	103.211	20.112	-5.244	0.481
860.000	503.875	80.009	19.995	103.217	20.111	-5.155	0.506
862.000	504.869	80.010	19.996	103.212	20.111	-5.214	0.459
864.000	505.946	80.012	19.995	103.212	20.115	-5.465	0.527
866.001	506.973	80.009	19.993	103.217	20.116	-5.494	0.536
868.000	508.013	80.009	19.995	103.218	20.118	-5.659	0.551
870.000	509.055	80.011	19.994	103.211	20.117	-5.592	0.548
872.000	510.045	80.010	19.994	103.220	20.119	-5.725	0.502
874.000	511.064	80.012	19.994	103.210	20.116	-5.521	0.517
876.000	512.113	80.010	19.994	103.211	20.120	-5.799	0.564
878.000	513.105	80.011	19.995	103.210	20.120	-5.816	0.521
880.000	514.180	80.010	19.996	103.210	20.125	-6.110	0.519
882.000	515.202	80.011	19.996	103.211	20.124	-6.046	0.498
884.000	516.255	80.011	19.995	103.218	20.126	-6.200	0.513
886.000	517.297	80.010	19.996	103.211	20.125	-6.141	0.554
888.000	518.353	80.009	19.994	103.206	20.125	-6.143	0.510
890.000	519.371	80.010	19.995	103.209	20.123	-6.022	0.515
892.000	520.389	80.010	19.996	103.217	20.129	-6.396	0.501
894.000	521.461	80.009	19.995	103.209	20.125	-6.153	0.545
896.000	522.474	80.009	19.994	103.212	20.127	-6.245	0.510
898.000	523.523	80.009	19.995	103.207	20.125	-6.151	0.527
900.000	524.583	80.008	19.994	103.208	20.126	-6.227	0.530
902.000	525.593	80.009	19.995	103.212	20.129	-6.398	0.493
904.000	526.605	80.009	19.996	103.210	20.128	-6.375	0.502
906.000	527.655	80.009	19.994	103.214	20.129	-6.394	0.527
908.000	528.713	80.008	19.995	103.216	20.131	-6.551	0.513
910.000	529.711	80.009	19.994	103.208	20.135	-6.837	0.503
912.001	530.764	80.010	19.994	103.209	20.134	-6.770	0.508
914.000	531.841	80.007	19.994	103.210	20.134	-6.766	0.531
916.000	532.854	80.009	19.995	103.211	20.136	-6.865	0.504
918.000	533.872	80.009	19.994	103.211	20.131	-6.577	0.514
920.000	534.910	80.009	19.993	103.214	20.133	-6.686	0.508
922.000	535.968	80.009	19.994	103.212	20.134	-6.785	0.508
924.000	536.991	80.009	19.995	103.215	20.136	-6.920	0.517
926.000	538.032	80.009	19.993	103.210	20.138	-7.017	0.504
928.000	539.021	80.008	19.994	103.211	20.136	-6.858	0.526
930.000	540.068	80.010	19.995	103.211	20.135	-6.819	0.535
932.000	541.057	80.007	19.994	103.210	20.133	-6.710	0.510
934.000	542.069	80.010	19.994	103.211	20.137	-6.923	0.502
936.000	543.079	80.009	19.995	103.217	20.134	-6.762	0.528
938.000	544.086	80.010	19.994	103.215	20.136	-6.916	0.542
940.000	545.090	80.010	19.993	103.213	20.136	-6.884	0.518
942.000	546.077	80.011	19.994	103.210	20.136	-6.871	0.512
944.000	547.102	80.010	19.995	103.207	20.141	-7.229	0.510
946.000	548.115	80.011	19.995	103.206	20.137	-6.985	0.511
948.000	549.114	80.010	19.995	103.209	20.138	-7.028	0.493
950.000	550.150	80.010	19.995	103.207	20.139	-7.097	0.515
952.000	551.145	80.007	19.995	103.211	20.134	-6.768	0.511
954.000	552.184	80.010	19.995	103.217	20.138	-7.009	0.514
956.000	553.213	80.010	19.995	103.222	20.140	-7.192	0.505
958.000	554.263	80.012	19.995	103.213	20.138	-7.037	0.516
960.000	555.309	80.010	19.995	103.208	20.144	-7.453	0.546
962.000	556.335	80.012	19.995	103.207	20.138	-7.032	0.506
964.000	557.348	80.012	19.994	103.207	20.143	-7.344	0.549
966.000	558.357	80.012	19.994	103.206	20.143	-7.362	0.504
968.000	559.409	80.011	19.995	103.206	20.139	-7.086	0.536
970.000	560.426	80.013	19.995	103.205	20.146	-7.569	0.522
972.000	561.443	80.010	19.995	103.215	20.140	-7.180	0.487
974.000	562.520	80.009	19.995	103.205	20.138	-7.021	0.496
976.000	563.543	80.008	19.995	103.207	20.139	-7.084	0.511
978.000	564.560	80.009	19.995	103.207	20.137	-6.948	0.519
980.000	565.596	80.008	19.995	103.219	20.142	-7.271	0.539
982.000	566.609	80.009	19.996	103.209	20.139	-7.127	0.534
984.000	567.614	80.007	19.995	103.212	20.141	-7.260	0.522
986.000	568.665	80.007	19.995	103.211	20.138	-7.045	0.503
988.000	569.700	80.009	19.995	103.215	20.135	-6.807	0.519
990.000	570.718	80.008	19.995	103.208	20.137	-6.957	0.532
992.000	571.749	80.008	19.995	103.209	20.139	-7.060	0.519
994.000	572.761	80.010	19.994	103.210	20.144	-7.432	0.499
996.000	573.785	80.010	19.994	103.208	20.142	-7.297	0.515
998.000	574.846	80.008	19.995	103.210	20.144	-7.406	0.528
1000.000	575.849	80.008	19.994	103.214	20.142	-7.269	0.478
1002.000	576.899	80.009	19.994	103.213	20.142	-7.295	0.530
1004.001	577.865	80.008	19.994	103.211	20.143	-7.389	0.490
1006.000	578.938	80.009	19.995	103.206	20.148	-7.673	0.515
1008.000	579.959	80.009	19.995	103.208	20.145	-7.499	0.483
1010.000	580.968	80.007	19.995	103.207	20.145	-7.531	0.515
1012.000	582.012	80.008	19.995	103.208	20.148	-7.722	0.493
1014.000	583.008	80.010	19.995	103.208	20.152	-7.965	0.431
1016.000	584.026	80.010	19.996	103.208	20.149	-7.776	0.482
1018.000	585.053	80.009	19.995	103.212	20.146	-7.582	0.513
1020.000	586.052	80.009	19.995	103.213	20.148	-7.698	0.484
1022.000	587.101	80.012	19.994	103.211	20.148	-7.740	0.512
1024.001	588.100	80.010	19.994	103.207	20.143	-7.393	0.522
1026.000	589.125	80.011	19.994	103.208	20.145	-7.479	0.537
1028.000	590.149	80.011	19.995	103.211	20.145	-7.511	0.504
1030.000	591.180	80.011	19.994	103.217	20.144	-7.457	0.465
1032.000	592.160	80.010	19.994	103.214	20.146	-7.566	0.526
1034.000	593.147	80.010	19.995	103.209	20.148	-7.713	0.479
1036.000	594.205	80.010	19.995	103.189	20.149	-7.773	0.499
1038.001	595.195	80.010	19.995	103.183	20.145	-7.513	0.503
1040.000	596.248	80.010	19.993	103.263	20.148	-7.703	0.517
1042.000	597.224	80.011	19.995	103.212	20.151	-7.935	0.507
1044.000	598.263	80.011	19.995	103.211	20.149	-7.753	0.520
1046.001	599.267	80.009	19.992	103.222	20.149	-7.802	0.506
1048.000	600.287	80.012	19.995	103.219	20.152	-7.977	0.509
1050.000	601.331	80.012	19.995	103.208	20.150	-7.827	0.517
1052.000	602.325	80.008	19.995	103.207	20.152	-7.997	0.513
1054.000	603.357	80.009	19.994	103.204	20.149	-7.802	0.505
1056.000	604.365	80.010	19.995	103.206	20.148	-7.720	0.492
1058.001	605.374	80.008	19.995	103.208	20.149	-7.776	0.495
1060.000	606.404	80.008	19.994	103.223	20.147	-7.666	0.529
1062.000	607.437	80.008	19.995	103.214	20.150	-7.829	0.488
1064.000	608.424	80.008	19.995	103.213	20.152	-7.957	0.476
1066.000	609.470	80.008	19.994	103.210	20.152	-7.987	0.510
1068.000	610.453	80.008	19.995	103.211	20.153	-8.021	0.526
1070.000	611.503	80.008	19.995	103.212	20.153	-8.034	0.546
1072.000	612.498	80.008	19.996	103.213	20.154	-8.137	0.526
1074.001	613.535	80.009	19.995	103.214	20.154	-8.139	0.507
1076.001	614.579	80.008	19.996	103.205	20.153	-8.058	0.544
1078.001	615.602	80.009	19.996	103.207	20.152	-8.010	0.526
1080.000	616.651	80.009	19.996	103.205	20.154	-8.118	0.508
1082.000	617.667	80.011	19.995	103.213	20.153	-8.077	0.525
1084.000	618.688	80.010	19.995	103.216	20.154	-8.111	0.521
1086.000	619.714	80.008	19.995	103.209	20.153	-8.016	0.498
1088.000	620.696	80.009	19.995	103.207	20.153	-8.030	0.492
1090.000	621.739	80.009	19.994	103.210	20.152	-7.960	0.506
1092.001	622.750	80.009	19.996	103.213	20.152	-7.996	0.516
1094.000	623.785	80.009	19.996	103.208	20.151	-7.918	0.531
1096.000	624.804	80.009	19.995	103.215	20.153	-8.049	0.502
1098.000	625.817	80.011	19.994	103.209	20.153	-8.041	0.493
1100.000	626.809	80.010	19.995	103.211	20.151	-7.929	0.494
1102.000	627.863	80.011	19.994	103.225	20.153	-8.082	0.514
1104.000	628.845	80.011	19.994	103.210	20.152	-7.967	0.492
1106.000	629.846	80.009	19.994	103.212	20.152	-7.968	0.493
1108.000	630.859	80.011	19.996	103.219	20.152	-7.974	0.499
1110.000	631.865	80.011	19.995	103.232	20.153	-8.053	0.508
1112.000	632.899	80.010	19.995	103.227	20.151	-7.910	0.511
1114.000	633.886	80.010	19.995	103.230	20.153	-8.077	0.486
1116.000	634.926	80.011	19.994	103.231	20.154	-8.088	0.510
1118.000	635.927	80.010	19.994	103.224	20.155	-8.159	0.516
1120.000	636.974	80.012	19.994	103.237	20.152	-7.979	0.510
1122.000	637.931	80.012	19.994	103.240	20.154	-8.102	0.492
1124.001	638.959	80.012	19.995	103.233	20.154	-8.128	0.508
1126.000	639.922	80.011	19.994	103.227	20.156	-8.256	0.432
1128.001	640.994	80.013	19.994	103.228	20.155	-8.162	0.507
1130.000	642.010	80.012	19.994	103.233	20.156	-8.278	0.512
1132.001	643.023	80.012	19.994	103.246	20.153	-8.080	0.515
1134.000	643.998	80.011	19.994	103.243	20.156	-8.265	0.507
1136.000	644.992	80.009	19.995	103.235	20.155	-8.158	0.518
1138.000	645.991	80.010	19.994	103.236	20.156	-8.248	0.515
1140.001	646.986	80.009	19.996	103.241	20.153	-8.065	0.481
1142.000	647.996	80.007	19.996	103.242	20.156	-8.278	0.493
1144.000	649.010	80.009	19.995	103.245	20.155	-8.179	0.520
1146.000	650.022	80.008	19.995	103.243	20.158	-8.400	0.527
1148.000	651.065	80.009	19.995	103.240	20.159	-8.453	0.514
1150.001	652.014	80.009	19.995	103.244	20.159	-8.430	0.495
1152.000	653.057	80.008	19.996	103.241	20.157	-8.347	0.520
1154.000	654.065	80.010	19.995	103.245	20.159	-8.449	0.525
1156.000	655.078	80.010	19.995	103.248	20.156	-8.255	0.481
1158.000	656.081	80.011	19.996	103.250	20.156	-8.245	0.497
1160.001	657.119	80.008	19.995	103.254	20.154	-8.131	0.504
1162.000	658.139	80.011	19.995	103.251	20.158	-8.420	0.520
1164.000	659.097	80.009	19.996	103.266	20.159	-8.435	0.459
1166.001	660.169	80.009	19.995	103.274	20.155	-8.222	0.532
1168.000	661.209	80.008	19.997	103.252	20.157	-8.317	0.556
1170.000	662.136	80.007	19.997	103.253	20.158	-8.391	0.482
1172.000	663.087	80.007	19.996	103.265	20.159	-8.446	0.489
1174.000	664.111	80.008	19.996	103.262	20.155	-8.215	0.500
1176.000	665.136	80.007	19.995	103.263	20.154	-8.155	0.497
1178.000	666.142	80.011	19.995	103.265	20.156	-8.250	0.507
1180.000	667.100	80.010	19.995	103.258	20.154	-8.143	0.470
1182.000	668.165	80.010	19.994	103.255	20.152	-8.009	0.520
1184.000	669.158	80.011	19.994	103.262	20.151	-7.916	0.510
1186.000	670.140	80.009	19.994	103.272	20.151	-7.913	0.498
1188.000	671.138	80.011	19.994	103.269	20.154	-8.117	0.507
1190.000	672.158	80.011	19.994	103.256	20.153	-8.044	0.508
1192.000	673.159	80.009	19.994	103.271	20.154	-8.117	0.491
1194.000	674.173	80.010	19.995	103.273	20.153	-8.038	0.510
1196.000	675.196	80.009	19.995	103.288	20.153	-8.059	0.506
1198.000	676.196	80.009	19.994	103.287	20.151	-7.913	0.488
1200.000	677.244	80.009	19.995	103.287	20.151	-7.926	0.521
1202.000	678.278	80.008	19.995	103.293	20.149	-7.749	0.499
1204.000	679.259	80.012	19.995	103.286	20.148	-7.691	0.509
1206.000	680.324	80.013	19.994	103.284	20.151	-7.897	0.497
1208.001	681.292	80.012	19.995	103.287	20.151	-7.913	0.499
1210.000	682.350	80.011	19.994	103.289	20.150	-7.878	0.529
1212.000	683.302	80.012	19.994	103.287	20.149	-7.790	0.517
1214.000	684.331	80.011	19.995	103.302	20.149	-7.770	0.506
1216.000	685.349	80.011	19.994	103.301	20.150	-7.836	0.512
1218.001	686.352	80.010	19.994	103.294	20.149	-7.801	0.487
1220.000	687.383	80.010	19.995	103.292	20.152	-7.965	0.480
1222.000	688.358	80.010	19.994	103.294	20.150	-7.822	0.467
1224.001	689.402	80.010	19.994	103.308	20.147	-7.645	0.509
1226.000	690.407	80.007	19.994	103.308	20.149	-7.812	0.526
1228.000	691.380	80.010	19.995	103.314	20.150	-7.876	0.479
1230.000	692.401	80.009	19.995	103.320	20.149	-7.777	0.513
1232.000	693.443	80.008	19.996	103.297	20.146	-7.588	0.512
1234.000	694.471	80.010	19.995	103.315	20.148	-7.686	0.524
1236.001	695.453	80.009	19.995	103.312	20.149	-7.755	0.508
1238.000	696.476	80.008	19.996	103.323	20.146	-7.600	0.508
1240.001	697.463	80.010	19.995	103.326	20.146	-7.602	0.513
1242.000	698.513	80.009	19.995	103.328	20.144	-7.432	0.494
1244.001	699.497	80.007	19.995	103.328	20.146	-7.569	0.502
1246.000	700.507	80.009	19.995	103.333	20.142	-7.313	0.490
1248.000	701.546	80.008	19.995	103.337	20.143	-7.372	0.509
1250.000	702.518	80.009	19.995	103.335	20.143	-7.406	0.483
1252.000	703.551	80.007	19.995	103.348	20.144	-7.445	0.520
1254.000	704.505	80.006	19.995	103.343	20.144	-7.424	0.477
1256.001	705.551	80.008	19.996	103.355	20.143	-7.370	0.518
1258.000	706.497	80.006	19.995	103.355	20.145	-7.542	0.506
1260.000	707.538	80.007	19.995	103.365	20.145	-7.501	0.513
1262.000	708.525	80.008	19.995	103.365	20.145	-7.511	0.515
1264.000	709.575	80.008	19.995	103.364	20.146	-7.575	0.524
1266.000	710.568	80.009	19.996	103.366	20.147	-7.654	0.511
1268.001	711.558	80.010	19.996	103.363	20.141	-7.267	0.484
1270.000	712.568	80.010	19.995	103.363	20.144	-7.478	0.509
1272.000	713.567	80.009	19.995	103.365	20.142	-7.279	0.507
1274.000	714.563	80.008	19.994	103.366	20.143	-7.388	0.532
1276.000	715.586	80.010	19.994	103.376	20.140	-7.187	0.504
1278.000	716.647	80.010	19.994	103.380	20.142	-7.279	0.521
1280.000	717.594	80.008	19.995	103.398	20.139	-7.105	0.496
1282.000	718.589	80.010	19.994	103.401	20.143	-7.352	0.482
1284.000	719.609	80.011	19.995	103.401	20.143	-7.413	0.489
1286.001	720.611	80.011	19.994	103.399	20.139	-7.078	0.503
1288.001	721.608	80.013	19.994	103.400	20.141	-7.222	0.487
1290.000	722.611	80.011	19.995	103.401	20.139	-7.080	0.514
1292.000	723.620	80.012	19.995	103.399	20.138	-7.030	0.488
1294.000	724.619	80.011	19.995	103.405	20.133	-6.717	0.503
1296.000	725.637	80.010	19.994	103.419	20.134	-6.794	0.502
1298.000	726.607	80.009	19.995	103.420	20.131	-6.562	0.501
1300.000	727.641	80.009	19.995	103.416	20.135	-6.840	0.525
1302.001	728.633	80.007	19.995	103.434	20.132	-6.644	0.487
1304.000	729.642	80.008	19.995	103.427	20.131	-6.535	0.511
1306.000	730.670	80.010	19.995	103.437	20.130	-6.477	0.507
1308.000	731.660	80.008	19.994	103.441	20.130	-6.489	0.516
1310.000	732.679	80.010	19.994	103.443	20.130	-6.500	0.494
1312.000	733.669	80.009	19.995	103.455	20.128	-6.369	0.533
1314.001	734.715	80.007	19.995	103.463	20.129	-6.461	0.550
1316.000	735.695	80.009	19.994	103.454	20.126	-6.236	0.508
1318.001	736.693	80.009	19.995	103.450	20.130	-6.503	0.494
1320.000	737.702	80.008	19.994	103.458	20.129	-6.420	0.509
1322.001	738.714	80.009	19.995	103.480	20.132	-6.653	0.518
1324.000	739.721	80.009	19.995	103.471	20.129	-6.407	0.502
1326.000	740.696	80.009	19.995	103.482	20.127	-6.280	0.506
1328.000	741.731	80.008	19.996	103.480	20.127	-6.300	0.516
1330.000	742.712	80.009	19.995	103.484	20.128	-6.385	0.495
1331.500	743.466	80.007	19.996	103.483	20.127	-6.306	0.503