File: 01_Data/PineLap_SidingA/MCC/PineLap_SidingA_MCC_30K_min_211119_R1.txt
Sample ID:	C:\MCC\MCC Cal\Test\PineLap_SidingA_MCC_30K_min_211119_R1.txt
Sample Weight (mg):	4.77
Heating Rate (C/s):	0.5
Combustor Temp (C):	900
N2 Flow Rate (cc/min):	80
O2 Flow Rate (cc/min):	20
Calibration File:	C:\MCC\MCC Cal\Coeff1 JN10440_30_210304.txt.txt
T Correction Coefficients:	0	1.024463	0
Time Shift (s):	14
*
Time (s)	Temperature (C)	N2 flow rate (cc/min)	O2 flow rate (cc/min)	Flow Rate (cc/min)	Oxygen (%)	HRR (W/g)	Heating rate (C/s)
0.000	106.680	80.005	19.995	103.038	20.289	-0.185	0.020
2.000	106.680	80.007	19.998	103.040	20.286	0.026	-0.001
4.000	106.680	80.006	19.994	103.045	20.286	0.051	0.007
6.000	106.653	80.006	19.995	103.038	20.285	0.086	-0.004
8.000	106.683	80.005	19.996	103.055	20.283	0.240	0.007
10.000	106.679	80.006	19.995	103.055	20.283	0.216	-0.004
12.001	106.668	80.007	19.993	103.058	20.280	0.425	-0.028
14.001	106.763	80.006	19.994	103.083	20.282	0.311	0.058
16.000	106.764	80.007	19.996	103.130	20.279	0.498	0.012
18.000	106.832	80.006	19.996	103.117	20.278	0.566	0.036
20.000	106.920	80.005	19.994	103.118	20.275	0.747	0.046
22.000	106.948	80.006	19.995	103.101	20.274	0.824	0.040
24.000	107.060	80.003	19.995	103.103	20.274	0.850	0.050
26.000	107.155	80.003	19.996	103.095	20.276	0.691	0.063
28.000	107.242	80.005	19.995	103.092	20.274	0.823	0.032
30.000	107.340	80.003	19.994	103.114	20.268	1.206	0.048
32.000	107.465	80.004	19.994	103.155	20.265	1.420	0.039
34.001	107.592	80.004	19.994	103.186	20.264	1.494	0.068
36.000	107.775	80.006	19.994	103.182	20.258	1.944	0.080
38.000	107.937	80.005	19.994	103.200	20.259	1.873	0.107
40.001	108.143	80.005	19.995	103.212	20.253	2.249	0.112
42.001	108.333	80.010	19.995	103.186	20.251	2.407	0.105
44.000	108.575	80.008	19.994	103.163	20.249	2.508	0.121
46.000	108.878	80.008	19.994	103.282	20.247	2.648	0.163
48.000	109.193	80.010	19.995	103.254	20.249	2.526	0.176
50.000	109.564	80.009	19.995	103.240	20.247	2.627	0.172
52.000	109.873	80.008	19.995	103.244	20.245	2.779	0.184
54.000	110.218	80.008	19.995	103.248	20.245	2.816	0.192
56.000	110.695	80.007	19.994	103.265	20.241	3.032	0.224
58.001	111.116	80.006	19.994	103.262	20.238	3.276	0.236
60.001	111.540	80.006	19.994	103.252	20.240	3.104	0.223
62.000	112.046	80.008	19.995	103.248	20.239	3.165	0.259
64.000	112.557	80.007	19.994	103.258	20.242	2.994	0.261
66.000	113.016	80.007	19.994	103.255	20.239	3.209	0.256
68.000	113.560	80.007	19.994	103.255	20.239	3.167	0.278
70.000	114.092	80.010	19.994	103.264	20.240	3.159	0.280
72.000	114.668	80.010	19.994	103.267	20.238	3.259	0.315
74.001	115.214	80.005	19.992	103.274	20.239	3.178	0.269
76.000	115.815	80.005	19.992	103.285	20.236	3.393	0.291
78.000	116.426	80.007	19.994	103.285	20.238	3.263	0.309
80.000	117.029	80.006	19.995	103.270	20.240	3.129	0.320
82.000	117.721	80.007	19.994	103.285	20.237	3.340	0.330
84.000	118.344	80.007	19.995	103.290	20.239	3.211	0.318
86.001	119.032	80.006	19.994	103.292	20.235	3.481	0.336
88.000	119.724	80.006	19.994	103.293	20.233	3.603	0.374
90.000	120.431	80.006	19.996	103.302	20.230	3.797	0.336
92.000	121.148	80.006	19.995	103.305	20.231	3.720	0.352
94.000	121.856	80.005	19.994	103.292	20.229	3.878	0.360
96.001	122.648	80.007	19.994	103.296	20.229	3.883	0.391
98.001	123.405	80.005	19.993	103.304	20.231	3.707	0.361
100.000	124.127	80.006	19.994	103.313	20.233	3.622	0.383
102.000	124.961	80.006	19.995	103.298	20.229	3.846	0.371
104.000	125.718	80.004	19.994	103.310	20.227	4.004	0.363
106.000	126.550	80.006	19.994	103.302	20.228	3.925	0.417
108.000	127.332	80.006	19.995	103.293	20.229	3.905	0.409
110.001	128.177	80.005	19.996	103.305	20.225	4.127	0.406
112.000	129.053	80.006	19.996	103.296	20.227	4.042	0.423
114.001	129.924	80.006	19.995	103.297	20.228	3.945	0.464
116.000	130.764	80.005	19.996	103.305	20.226	4.101	0.460
118.000	131.612	80.006	19.996	103.308	20.230	3.802	0.461
120.000	132.476	80.006	19.996	103.298	20.230	3.804	0.458
122.000	133.382	80.008	19.996	103.299	20.229	3.849	0.437
124.000	134.278	80.007	19.995	103.297	20.230	3.828	0.446
126.000	135.145	80.008	19.995	103.299	20.227	4.026	0.444
128.000	136.088	80.008	19.995	103.297	20.226	4.070	0.456
130.000	136.995	80.009	19.994	103.293	20.227	4.002	0.458
132.000	137.948	80.008	19.994	103.294	20.231	3.771	0.470
134.000	138.837	80.006	19.993	103.294	20.230	3.833	0.436
136.000	139.794	80.006	19.995	103.314	20.230	3.830	0.459
138.000	140.734	80.007	19.995	103.303	20.228	3.923	0.438
140.000	141.654	80.006	19.993	103.297	20.227	3.985	0.445
142.000	142.627	80.007	19.994	103.297	20.227	3.981	0.471
144.000	143.616	80.007	19.993	103.299	20.227	4.001	0.494
146.000	144.549	80.009	19.994	103.306	20.225	4.139	0.456
148.000	145.543	80.012	19.994	103.302	20.226	4.071	0.502
150.000	146.514	80.007	19.994	103.291	20.227	3.994	0.501
152.000	147.439	80.008	19.993	103.302	20.226	4.057	0.442
154.000	148.456	80.008	19.994	103.291	20.228	3.963	0.507
156.000	149.417	80.009	19.994	103.290	20.224	4.225	0.496
158.000	150.432	80.007	19.993	103.291	20.225	4.176	0.531
160.000	151.388	80.006	19.993	103.292	20.228	3.935	0.495
162.000	152.407	80.004	19.993	103.291	20.226	4.071	0.510
164.000	153.371	80.006	19.994	103.291	20.226	4.053	0.501
166.000	154.371	80.007	19.994	103.290	20.223	4.258	0.500
168.000	155.285	80.007	19.994	103.289	20.226	4.062	0.452
170.000	156.296	80.006	19.993	103.290	20.227	4.007	0.527
172.000	157.313	80.007	19.994	103.287	20.228	3.934	0.528
174.000	158.293	80.006	19.994	103.285	20.225	4.135	0.484
176.000	159.325	80.006	19.992	103.288	20.225	4.120	0.523
178.000	160.312	80.006	19.996	103.291	20.225	4.170	0.514
180.000	161.325	80.006	19.994	103.287	20.226	4.109	0.514
182.000	162.349	80.007	19.995	103.289	20.223	4.267	0.511
184.000	163.344	80.004	19.995	103.286	20.228	3.915	0.515
186.000	164.374	80.005	19.996	103.286	20.230	3.816	0.516
188.000	165.369	80.006	19.997	103.283	20.226	4.067	0.497
190.000	166.393	80.006	19.995	103.286	20.230	3.834	0.522
192.000	167.393	80.006	19.995	103.280	20.228	3.939	0.517
194.000	168.411	80.004	19.994	103.267	20.229	3.860	0.513
196.000	169.395	80.005	19.996	103.287	20.231	3.720	0.494
198.000	170.407	80.005	19.994	103.282	20.228	3.961	0.485
200.000	171.447	80.005	19.995	103.276	20.225	4.116	0.492
202.000	172.439	80.006	19.993	103.276	20.225	4.142	0.481
204.000	173.407	80.026	20.001	103.282	20.230	3.816	0.485
206.000	174.470	80.007	19.996	103.278	20.228	3.962	0.523
208.000	175.469	80.006	19.996	103.274	20.229	3.861	0.518
210.000	176.421	80.007	19.997	103.265	20.229	3.852	0.486
212.000	177.459	80.006	19.994	103.269	20.226	4.043	0.533
214.000	178.438	80.007	19.995	103.271	20.227	4.008	0.522
216.000	179.402	80.006	19.998	103.271	20.228	3.964	0.485
218.000	180.447	80.004	19.996	103.268	20.226	4.088	0.512
220.000	181.443	80.007	19.995	103.264	20.225	4.160	0.491
222.000	182.417	80.005	19.995	103.260	20.226	4.066	0.496
224.000	183.421	80.005	19.995	103.267	20.226	4.070	0.520
226.000	184.376	80.006	19.994	103.259	20.228	3.912	0.496
228.000	185.422	80.007	19.994	103.265	20.229	3.862	0.515
230.000	186.398	80.008	19.995	103.256	20.228	3.919	0.509
232.000	187.425	80.008	19.995	103.255	20.228	3.934	0.516
234.000	188.396	80.010	19.993	103.251	20.230	3.832	0.470
236.000	189.367	80.008	19.995	103.253	20.230	3.816	0.498
238.000	190.344	80.007	19.994	103.250	20.232	3.699	0.500
240.000	191.390	80.007	19.996	103.250	20.232	3.679	0.500
242.000	192.399	80.006	19.994	103.250	20.232	3.640	0.521
244.000	193.361	80.023	20.000	103.264	20.230	3.837	0.482
246.000	194.387	80.024	20.002	103.292	20.232	3.659	0.528
248.000	195.337	80.042	20.009	103.296	20.236	3.382	0.503
250.000	196.318	80.042	20.009	103.295	20.235	3.492	0.498
252.000	197.279	80.044	20.009	103.287	20.236	3.393	0.450
254.000	198.293	80.028	20.003	103.279	20.233	3.632	0.481
256.000	199.300	80.025	20.000	103.251	20.231	3.712	0.523
258.000	200.216	80.008	19.996	103.250	20.234	3.553	0.470
260.000	201.183	80.007	19.997	103.247	20.229	3.875	0.474
262.000	202.230	80.008	19.995	103.249	20.228	3.908	0.519
264.000	203.177	80.006	19.995	103.253	20.227	3.987	0.484
266.000	204.130	80.006	19.995	103.252	20.226	4.092	0.479
268.000	205.121	80.008	19.994	103.252	20.229	3.844	0.498
270.000	206.100	80.007	19.995	103.251	20.227	4.022	0.488
272.000	207.094	80.005	19.995	103.251	20.225	4.172	0.501
274.000	208.117	80.003	19.994	103.252	20.227	4.011	0.497
276.000	209.072	80.004	19.995	103.251	20.229	3.897	0.496
278.000	210.030	80.006	19.995	103.250	20.224	4.200	0.481
280.000	211.046	80.005	19.996	103.252	20.225	4.139	0.507
282.000	212.006	80.005	19.995	103.252	20.223	4.310	0.508
284.000	212.942	80.005	19.994	103.251	20.223	4.308	0.466
286.000	213.958	80.004	19.994	103.252	20.221	4.390	0.491
288.000	214.939	80.007	19.995	103.252	20.226	4.104	0.487
290.001	215.896	80.006	19.996	103.254	20.224	4.178	0.499
292.000	216.897	80.007	19.994	103.254	20.222	4.332	0.470
294.000	217.870	80.008	19.995	103.251	20.224	4.218	0.484
296.000	218.828	80.008	19.995	103.251	20.226	4.097	0.480
298.000	219.839	80.007	19.994	103.248	20.224	4.196	0.498
300.000	220.804	80.006	19.997	103.248	20.225	4.167	0.486
302.000	221.799	80.006	19.997	103.248	20.226	4.058	0.490
304.000	222.822	80.008	19.995	103.247	20.228	3.945	0.524
306.000	223.775	80.007	19.995	103.247	20.228	3.923	0.477
308.000	224.777	80.006	19.996	103.247	20.229	3.846	0.496
310.000	225.801	80.006	19.995	103.245	20.227	3.987	0.505
312.000	226.764	80.007	19.996	103.247	20.228	3.950	0.496
314.000	227.773	80.007	19.992	103.246	20.228	3.928	0.515
316.000	228.818	80.007	19.994	103.247	20.229	3.888	0.553
318.000	229.826	80.007	19.994	103.246	20.223	4.289	0.534
320.000	230.836	80.007	19.995	103.249	20.222	4.311	0.527
322.000	231.803	80.006	19.995	103.242	20.227	4.038	0.481
324.000	232.793	80.004	19.993	103.242	20.223	4.245	0.476
326.000	233.848	80.004	19.994	103.241	20.223	4.280	0.502
328.000	234.811	80.005	19.994	103.248	20.225	4.137	0.484
330.000	235.801	80.002	19.994	103.243	20.223	4.301	0.496
332.000	236.810	80.004	19.994	103.244	20.222	4.317	0.527
334.000	237.790	80.005	19.994	103.238	20.223	4.271	0.480
336.000	238.787	80.004	19.993	103.246	20.221	4.386	0.525
338.000	239.766	80.006	19.994	103.246	20.222	4.351	0.484
340.000	240.753	80.005	19.993	103.246	20.222	4.359	0.471
342.000	241.732	80.005	19.994	103.246	20.220	4.477	0.483
344.000	242.711	80.004	19.994	103.232	20.221	4.392	0.503
346.000	243.745	80.006	19.994	103.243	20.221	4.436	0.511
348.000	244.743	80.006	19.993	103.234	20.219	4.571	0.493
350.000	245.742	80.005	19.994	103.240	20.218	4.627	0.487
352.000	246.720	80.004	19.994	103.248	20.217	4.693	0.515
354.000	247.725	80.005	19.993	103.250	20.217	4.698	0.518
356.000	248.722	80.004	19.993	103.246	20.214	4.884	0.491
358.000	249.789	80.005	19.994	103.232	20.214	4.895	0.522
360.000	250.812	80.005	19.994	103.243	20.214	4.873	0.528
362.000	251.784	80.004	19.994	103.243	20.214	4.851	0.483
364.000	252.825	80.006	19.995	103.240	20.212	4.988	0.547
366.000	253.779	80.007	19.994	103.235	20.214	4.901	0.479
368.000	254.846	80.005	19.994	103.216	20.213	4.944	0.549
370.000	255.851	80.007	19.995	103.229	20.213	4.948	0.526
372.001	256.825	80.006	19.997	103.220	20.214	4.899	0.518
374.000	257.847	80.006	19.994	103.223	20.215	4.822	0.491
376.000	258.870	80.006	19.994	103.220	20.213	4.928	0.543
378.000	259.879	80.007	19.995	103.224	20.215	4.816	0.527
380.000	260.825	80.006	19.995	103.214	20.218	4.631	0.475
382.000	261.817	80.006	19.994	103.220	20.216	4.757	0.499
384.000	262.836	80.006	19.995	103.229	20.216	4.739	0.531
386.000	263.853	80.007	19.994	103.225	20.211	5.073	0.499
388.000	264.855	80.007	19.995	103.227	20.212	5.039	0.495
390.000	265.864	80.008	19.994	103.227	20.210	5.126	0.530
392.000	266.878	80.008	19.994	103.218	20.212	5.021	0.496
394.000	267.922	80.007	19.995	103.224	20.207	5.366	0.498
396.000	268.869	80.007	19.994	103.225	20.209	5.201	0.500
398.000	269.933	80.007	19.995	103.216	20.210	5.160	0.513
400.000	270.949	80.007	19.994	103.213	20.211	5.082	0.524
402.000	271.948	80.007	19.994	103.215	20.211	5.102	0.523
404.000	272.992	80.005	19.995	103.213	20.211	5.067	0.518
406.000	273.960	80.005	19.994	103.218	20.213	4.961	0.513
408.000	274.987	80.003	19.995	103.218	20.210	5.173	0.523
410.001	276.029	80.007	19.994	103.213	20.211	5.115	0.516
412.001	277.022	80.005	19.996	103.224	20.211	5.061	0.502
414.000	278.041	80.004	19.994	103.226	20.214	4.902	0.489
416.000	279.059	80.005	19.995	103.227	20.214	4.917	0.499
418.000	280.092	80.004	19.994	103.222	20.211	5.074	0.493
420.000	281.100	80.005	19.994	103.223	20.212	4.990	0.516
422.000	282.083	80.005	19.993	103.220	20.214	4.896	0.505
424.000	283.097	80.005	19.994	103.215	20.214	4.878	0.500
426.000	284.104	80.004	19.994	103.216	20.211	5.087	0.499
428.000	285.136	80.005	19.994	103.212	20.213	4.979	0.505
430.000	286.171	80.006	19.994	103.214	20.213	4.959	0.522
432.000	287.190	80.005	19.994	103.211	20.212	5.032	0.544
434.000	288.189	80.004	19.994	103.215	20.211	5.120	0.504
436.000	289.255	80.004	19.994	103.211	20.215	4.838	0.497
438.000	290.258	80.006	19.994	103.212	20.212	5.019	0.501
440.000	291.281	80.004	19.995	103.215	20.212	5.034	0.509
442.000	292.285	80.005	19.993	103.211	20.214	4.903	0.503
444.000	293.304	80.005	19.994	103.211	20.213	4.955	0.514
446.000	294.319	80.006	19.994	103.211	20.210	5.142	0.522
448.000	295.340	80.007	19.994	103.211	20.209	5.232	0.470
450.000	296.373	80.008	19.994	103.213	20.210	5.121	0.511
452.000	297.373	80.008	19.994	103.208	20.211	5.065	0.501
454.000	298.384	80.008	19.993	103.210	20.211	5.074	0.477
456.000	299.372	80.008	19.995	103.209	20.210	5.144	0.506
458.000	300.381	80.007	19.994	103.212	20.209	5.239	0.494
460.000	301.394	80.007	19.995	103.205	20.211	5.089	0.515
462.000	302.404	80.007	19.995	103.208	20.209	5.246	0.511
464.000	303.388	80.006	19.994	103.211	20.208	5.267	0.522
466.000	304.352	80.006	19.995	103.212	20.205	5.523	0.464
468.000	305.391	80.006	19.995	103.210	20.203	5.650	0.506
470.000	306.392	80.005	19.995	103.214	20.206	5.430	0.490
472.000	307.346	80.005	19.994	103.212	20.206	5.395	0.488
474.000	308.390	80.006	19.994	103.213	20.201	5.792	0.535
476.000	309.382	80.007	19.993	103.215	20.204	5.553	0.498
478.000	310.361	80.008	19.995	103.213	20.201	5.772	0.510
480.000	311.361	80.008	19.994	103.214	20.201	5.756	0.519
482.000	312.397	80.009	19.994	103.216	20.201	5.761	0.536
484.000	313.388	80.005	19.994	103.209	20.199	5.869	0.489
486.000	314.405	80.005	19.994	103.213	20.196	6.120	0.511
488.001	315.367	80.005	19.994	103.215	20.197	6.018	0.469
490.000	316.355	80.004	19.995	103.213	20.197	6.043	0.506
492.000	317.348	80.004	19.995	103.215	20.193	6.271	0.495
494.000	318.347	80.004	19.995	103.214	20.192	6.403	0.500
496.000	319.338	80.004	19.995	103.212	20.190	6.503	0.501
498.000	320.323	80.005	19.995	103.210	20.186	6.775	0.502
500.000	321.306	80.004	19.996	103.209	20.182	7.068	0.501
502.000	322.304	80.007	19.994	103.210	20.183	7.000	0.502
504.000	323.291	80.006	19.995	103.209	20.181	7.134	0.486
506.000	324.289	80.005	19.993	103.211	20.179	7.231	0.492
508.000	325.226	80.005	19.995	103.211	20.176	7.431	0.496
510.000	326.191	80.006	19.994	103.211	20.174	7.578	0.522
512.000	327.176	80.006	19.995	103.210	20.173	7.671	0.457
514.000	328.147	80.006	19.995	103.212	20.172	7.750	0.457
516.000	329.131	80.005	19.995	103.209	20.170	7.859	0.511
518.000	330.095	80.004	19.995	103.210	20.171	7.810	0.487
520.000	331.077	80.006	19.994	103.216	20.165	8.158	0.474
522.000	332.027	80.005	19.994	103.212	20.167	8.039	0.499
524.000	332.981	80.005	19.994	103.212	20.164	8.292	0.470
526.000	334.001	80.004	19.995	103.213	20.159	8.598	0.500
528.000	334.945	80.005	19.995	103.210	20.163	8.340	0.495
530.000	335.966	80.006	19.994	103.212	20.159	8.611	0.518
532.000	336.875	80.007	19.994	103.214	20.159	8.600	0.467
534.000	337.850	80.008	19.994	103.212	20.158	8.640	0.493
536.000	338.820	80.006	19.994	103.210	20.159	8.565	0.483
538.000	339.800	80.007	19.993	103.215	20.162	8.386	0.475
540.000	340.739	80.007	19.993	103.212	20.163	8.340	0.479
542.000	341.728	80.007	19.993	103.213	20.159	8.602	0.505
544.000	342.655	80.006	19.994	103.212	20.155	8.864	0.485
546.000	343.593	80.007	19.994	103.212	20.158	8.664	0.462
548.000	344.557	80.007	19.993	103.213	20.157	8.739	0.481
550.001	345.518	80.005	19.994	103.214	20.160	8.514	0.470
552.000	346.498	80.006	19.993	103.219	20.155	8.863	0.512
554.000	347.489	80.007	19.994	103.217	20.157	8.722	0.507
556.000	348.485	80.007	19.996	103.213	20.158	8.647	0.500
558.001	349.475	80.007	19.994	103.210	20.158	8.682	0.509
560.000	350.518	80.008	19.995	103.208	20.156	8.776	0.545
562.000	351.503	80.007	19.995	103.210	20.158	8.640	0.502
564.000	352.547	80.008	19.995	103.207	20.157	8.703	0.487
566.000	353.567	80.006	19.994	103.207	20.152	9.062	0.524
568.000	354.608	80.007	19.993	103.213	20.154	8.940	0.492
570.000	355.624	80.005	19.994	103.212	20.155	8.885	0.491
572.000	356.719	80.005	19.995	103.210	20.155	8.858	0.541
574.000	357.698	80.006	19.994	103.215	20.157	8.757	0.499
576.000	358.757	80.006	19.994	103.212	20.155	8.851	0.516
578.000	359.792	80.006	19.994	103.210	20.157	8.743	0.553
580.000	360.844	80.004	19.994	103.208	20.152	9.046	0.515
582.000	361.890	80.007	19.995	103.209	20.153	8.982	0.525
584.000	362.923	80.005	19.995	103.206	20.153	9.028	0.511
586.000	363.991	80.005	19.995	103.208	20.148	9.338	0.547
588.000	365.037	80.006	19.995	103.212	20.149	9.302	0.509
590.000	366.099	80.004	19.996	103.207	20.152	9.063	0.532
592.000	367.146	80.005	19.995	103.205	20.149	9.241	0.493
594.000	368.196	80.006	19.995	103.206	20.147	9.382	0.525
596.000	369.211	80.006	19.995	103.201	20.143	9.653	0.528
598.000	370.319	80.005	19.994	103.212	20.143	9.674	0.507
600.000	371.360	80.006	19.994	103.211	20.140	9.851	0.537
602.000	372.388	80.005	19.995	103.212	20.138	10.020	0.525
604.000	373.516	80.005	19.995	103.212	20.135	10.189	0.555
606.000	374.545	80.005	19.995	103.211	20.133	10.366	0.489
608.000	375.590	80.004	19.995	103.211	20.128	10.692	0.502
610.000	376.640	80.006	19.994	103.213	20.125	10.872	0.504
612.000	377.742	80.006	19.995	103.213	20.124	10.941	0.544
614.000	378.818	80.006	19.993	103.211	20.118	11.354	0.577
616.000	379.800	80.006	19.993	103.212	20.113	11.680	0.551
618.000	380.853	80.008	19.993	103.207	20.110	11.900	0.531
620.000	381.915	80.007	19.995	103.208	20.103	12.403	0.509
622.000	382.939	80.008	19.994	103.210	20.098	12.694	0.565
624.000	383.953	80.006	19.995	103.202	20.096	12.827	0.532
626.000	385.009	80.007	19.995	103.190	20.088	13.368	0.558
628.000	386.008	80.007	19.994	103.202	20.083	13.715	0.517
630.000	386.996	80.006	19.994	103.184	20.074	14.308	0.516
632.000	387.983	80.007	19.994	103.185	20.071	14.530	0.495
634.000	388.991	80.006	19.994	103.187	20.066	14.842	0.500
636.000	389.935	80.007	19.995	103.181	20.062	15.129	0.467
638.000	390.909	80.008	19.994	103.188	20.055	15.631	0.467
640.000	391.891	80.010	19.994	103.188	20.047	16.182	0.444
642.000	392.848	80.009	19.994	103.185	20.043	16.417	0.471
644.000	393.847	80.009	19.995	103.189	20.037	16.850	0.495
646.000	394.823	80.009	19.994	103.177	20.031	17.247	0.506
648.000	395.727	80.008	19.994	103.175	20.025	17.671	0.459
650.000	396.711	80.007	19.994	103.178	20.019	18.036	0.500
652.000	397.651	80.006	19.995	103.177	20.012	18.530	0.472
654.000	398.581	80.005	19.995	103.199	20.005	18.974	0.490
656.000	399.543	80.005	19.995	103.186	20.003	19.140	0.482
658.000	400.527	80.005	19.995	103.198	19.994	19.751	0.493
660.000	401.401	80.004	19.995	103.195	19.981	20.580	0.512
662.000	402.356	80.004	19.994	103.201	19.984	20.406	0.497
664.000	403.314	80.005	19.994	103.197	19.984	20.435	0.478
666.000	404.232	80.005	19.995	103.188	19.977	20.853	0.450
668.000	405.184	80.006	19.994	103.207	19.978	20.792	0.424
670.000	406.210	80.006	19.995	103.205	19.972	21.226	0.490
672.000	407.139	80.005	19.994	103.189	19.972	21.217	0.486
674.001	408.190	80.005	19.993	103.200	19.972	21.222	0.438
676.000	409.166	80.006	19.996	103.188	19.969	21.404	0.424
678.000	409.636	80.003	19.995	103.187	19.968	21.495	0.311
680.000	411.056	80.005	19.996	103.183	19.971	21.299	0.878
682.001	411.851	80.004	19.995	103.190	19.977	20.907	0.429
684.000	412.830	80.005	19.995	103.199	19.980	20.686	0.458
686.000	413.864	80.006	19.996	103.179	19.982	20.508	0.496
688.000	414.820	80.007	19.996	103.185	19.992	19.858	0.470
690.000	415.748	80.005	19.996	103.201	19.995	19.636	0.481
692.000	416.804	80.005	19.995	103.191	20.000	19.336	0.555
694.000	417.725	80.008	19.994	103.188	20.007	18.874	0.491
696.000	418.798	80.006	19.994	103.189	20.013	18.422	0.531
698.000	419.760	80.007	19.993	103.194	20.023	17.756	0.494
700.000	420.812	80.008	19.994	103.198	20.031	17.226	0.567
702.000	421.809	80.007	19.994	103.182	20.037	16.858	0.520
704.000	422.825	80.007	19.994	103.191	20.043	16.444	0.524
706.000	423.814	80.006	19.994	103.184	20.055	15.595	0.505
708.000	424.855	80.007	19.994	103.179	20.063	15.065	0.539
710.000	425.883	80.007	19.994	103.186	20.069	14.665	0.530
712.000	426.908	80.006	19.995	103.197	20.077	14.097	0.536
714.000	427.930	80.005	19.995	103.205	20.086	13.545	0.498
716.000	428.969	80.006	19.995	103.189	20.091	13.191	0.522
718.000	429.988	80.006	19.994	103.186	20.101	12.526	0.515
720.000	431.041	80.007	19.993	103.175	20.105	12.228	0.491
722.000	432.087	80.007	19.994	103.197	20.113	11.691	0.528
724.000	433.111	80.008	19.993	103.201	20.115	11.562	0.496
726.000	434.215	80.010	19.993	103.205	20.122	11.110	0.543
728.000	435.260	80.008	19.993	103.204	20.127	10.764	0.522
730.001	436.375	80.009	19.994	103.198	20.131	10.493	0.533
732.000	437.498	80.007	19.993	103.192	20.135	10.226	0.572
734.000	438.581	80.004	19.993	103.201	20.138	10.044	0.557
736.000	439.740	80.006	19.994	103.200	20.141	9.836	0.564
738.000	440.811	80.005	19.995	103.191	20.139	9.919	0.558
740.000	441.881	80.005	19.994	103.195	20.141	9.786	0.514
742.000	443.020	80.006	19.994	103.200	20.145	9.557	0.592
744.000	444.143	80.004	19.995	103.199	20.146	9.439	0.563
746.000	445.263	80.004	19.995	103.206	20.148	9.351	0.586
748.000	446.378	80.006	19.995	103.200	20.149	9.300	0.568
750.000	447.478	80.005	19.994	103.196	20.148	9.325	0.563
752.000	448.606	80.005	19.994	103.193	20.149	9.255	0.563
754.001	449.748	80.006	19.994	103.195	20.151	9.108	0.590
756.000	450.865	80.006	19.995	103.180	20.150	9.220	0.580
758.000	451.987	80.007	19.994	103.194	20.150	9.180	0.551
760.000	453.077	80.005	19.995	103.186	20.152	9.060	0.551
762.000	454.186	80.006	19.994	103.192	20.151	9.155	0.566
764.000	455.356	80.006	19.995	103.203	20.152	9.066	0.560
766.000	456.495	80.005	19.994	103.200	20.150	9.177	0.577
768.000	457.599	80.004	19.995	103.193	20.150	9.175	0.551
770.000	458.695	80.005	19.995	103.186	20.150	9.190	0.547
772.000	459.864	80.005	19.996	103.187	20.149	9.268	0.572
774.000	461.004	80.005	19.996	103.176	20.153	9.025	0.580
776.000	462.034	80.005	19.996	103.190	20.153	9.026	0.536
778.000	463.138	80.005	19.995	103.178	20.150	9.215	0.531
780.000	464.245	80.007	19.995	103.180	20.149	9.278	0.529
782.000	465.338	80.007	19.994	103.190	20.150	9.170	0.541
784.000	466.356	80.007	19.994	103.174	20.153	8.970	0.552
786.000	467.486	80.006	19.995	103.174	20.154	8.945	0.589
788.000	468.523	80.006	19.994	103.179	20.155	8.844	0.526
790.000	469.571	80.008	19.993	103.189	20.156	8.814	0.529
792.000	470.631	80.007	19.993	103.194	20.161	8.478	0.534
794.000	471.696	80.007	19.993	103.192	20.164	8.273	0.529
796.000	472.735	80.008	19.994	103.197	20.167	8.084	0.547
798.000	473.800	80.006	19.994	103.181	20.164	8.252	0.525
800.001	474.863	80.006	19.994	103.189	20.168	7.983	0.534
802.000	475.947	80.009	19.993	103.179	20.169	7.897	0.524
804.000	476.941	80.007	19.994	103.174	20.170	7.869	0.517
806.000	477.999	80.008	19.994	103.185	20.170	7.851	0.550
808.000	479.043	80.008	19.994	103.177	20.175	7.529	0.530
810.000	480.086	80.008	19.994	103.175	20.174	7.557	0.496
812.000	481.091	80.007	19.993	103.174	20.176	7.430	0.479
814.000	482.121	80.007	19.993	103.175	20.180	7.175	0.506
816.000	483.093	80.005	19.994	103.173	20.178	7.279	0.496
818.000	484.154	80.006	19.993	103.173	20.181	7.113	0.520
820.000	485.127	80.007	19.994	103.175	20.180	7.172	0.482
822.000	486.128	80.006	19.994	103.177	20.180	7.159	0.493
824.000	487.132	80.006	19.994	103.177	20.183	6.970	0.508
826.000	488.114	80.007	19.994	103.172	20.188	6.653	0.438
828.000	489.125	80.008	19.995	103.172	20.186	6.796	0.508
830.000	490.105	80.006	19.994	103.172	20.191	6.417	0.493
832.000	491.120	80.007	19.995	103.180	20.190	6.523	0.490
834.000	492.083	80.007	19.994	103.176	20.192	6.347	0.472
836.000	493.066	80.007	19.995	103.174	20.194	6.239	0.497
838.000	494.092	80.007	19.994	103.175	20.198	5.984	0.516
840.000	495.102	80.007	19.995	103.169	20.199	5.921	0.507
842.000	496.078	80.004	19.995	103.169	20.198	5.942	0.504
844.000	497.083	80.006	19.995	103.168	20.198	5.939	0.502
846.000	498.064	80.005	19.995	103.172	20.196	6.093	0.482
848.001	499.091	80.005	19.995	103.170	20.203	5.637	0.514
850.000	500.035	80.004	19.994	103.178	20.204	5.572	0.478
852.000	501.073	80.004	19.995	103.175	20.206	5.420	0.522
854.000	502.016	80.005	19.993	103.176	20.206	5.451	0.482
856.000	502.952	80.005	19.996	103.183	20.207	5.336	0.471
858.000	503.951	80.006	19.994	103.175	20.209	5.190	0.482
860.001	504.912	80.005	19.995	103.175	20.206	5.396	0.479
862.000	505.964	80.007	19.995	103.174	20.206	5.411	0.566
864.000	506.915	80.007	19.995	103.173	20.211	5.083	0.508
866.000	507.889	80.006	19.995	103.172	20.207	5.321	0.492
868.000	508.874	80.006	19.995	103.173	20.210	5.134	0.494
870.000	509.852	80.006	19.996	103.175	20.214	4.913	0.506
872.000	510.820	80.005	19.995	103.174	20.214	4.893	0.484
874.000	511.792	80.006	19.994	103.174	20.213	4.966	0.473
876.000	512.730	80.006	19.995	103.174	20.213	4.953	0.492
878.000	513.747	80.006	19.994	103.175	20.217	4.682	0.505
880.000	514.734	80.006	19.994	103.172	20.216	4.777	0.496
882.000	515.725	80.007	19.995	103.174	20.213	4.931	0.488
884.000	516.718	80.008	19.994	103.175	20.216	4.744	0.481
886.000	517.704	80.009	19.993	103.170	20.217	4.654	0.474
888.000	518.677	80.008	19.993	103.169	20.217	4.667	0.474
890.000	519.705	80.008	19.994	103.170	20.219	4.557	0.509
892.000	520.682	80.009	19.994	103.170	20.220	4.471	0.511
894.000	521.651	80.008	19.994	103.169	20.216	4.763	0.501
896.000	522.629	80.006	19.993	103.170	20.217	4.689	0.488
898.000	523.618	80.006	19.995	103.170	20.219	4.530	0.487
900.000	524.591	80.007	19.995	103.169	20.216	4.731	0.491
902.000	525.584	80.007	19.994	103.172	20.217	4.656	0.479
904.000	526.593	80.007	19.995	103.171	20.217	4.700	0.494
906.000	527.606	80.006	19.994	103.171	20.219	4.526	0.506
908.000	528.596	80.008	19.996	103.171	20.222	4.367	0.495
910.000	529.639	80.007	19.995	103.170	20.222	4.363	0.509
912.000	530.639	80.007	19.993	103.172	20.221	4.404	0.532
914.000	531.630	80.007	19.994	103.172	20.218	4.594	0.489
916.001	532.641	80.006	19.994	103.173	20.221	4.389	0.494
918.000	533.639	80.008	19.994	103.174	20.220	4.481	0.509
920.000	534.687	80.007	19.994	103.173	20.221	4.400	0.520
922.000	535.716	80.006	19.994	103.173	20.221	4.398	0.471
924.000	536.734	80.007	19.994	103.174	20.226	4.043	0.488
926.000	537.739	80.004	19.994	103.174	20.221	4.440	0.501
928.000	538.797	80.006	19.994	103.172	20.221	4.384	0.526
930.000	539.822	80.006	19.995	103.169	20.223	4.303	0.532
932.000	540.797	80.006	19.996	103.172	20.222	4.341	0.532
934.000	541.808	80.004	19.994	103.174	20.222	4.372	0.514
936.001	542.847	80.005	19.994	103.174	20.227	4.008	0.526
938.000	543.872	80.006	19.994	103.175	20.227	3.993	0.527
940.000	544.837	80.006	19.995	103.176	20.224	4.229	0.510
942.000	545.834	80.008	19.995	103.174	20.226	4.061	0.515
944.000	546.849	80.007	19.995	103.173	20.227	4.019	0.505
946.000	547.906	80.008	19.995	103.171	20.223	4.301	0.541
948.000	548.856	80.007	19.994	103.169	20.223	4.257	0.509
950.000	549.872	80.007	19.995	103.170	20.223	4.273	0.468
952.000	550.896	80.007	19.996	103.171	20.226	4.070	0.498
954.001	551.911	80.007	19.995	103.170	20.224	4.204	0.503
956.000	552.957	80.006	19.995	103.170	20.223	4.246	0.509
958.000	553.977	80.006	19.995	103.170	20.223	4.283	0.533
960.000	555.037	80.008	19.995	103.171	20.226	4.076	0.516
962.000	556.116	80.006	19.995	103.171	20.223	4.281	0.544
964.000	557.153	80.008	19.997	103.171	20.222	4.319	0.518
966.000	558.166	80.008	19.995	103.169	20.226	4.055	0.537
968.000	559.221	80.009	19.995	103.170	20.226	4.050	0.537
970.000	560.238	80.009	19.994	103.169	20.225	4.156	0.515
972.000	561.346	80.009	19.994	103.169	20.221	4.433	0.521
974.000	562.394	80.008	19.993	103.169	20.227	4.025	0.505
976.000	563.450	80.008	19.994	103.169	20.223	4.279	0.540
978.000	564.480	80.007	19.995	103.170	20.222	4.310	0.519
980.000	565.548	80.006	19.994	103.171	20.224	4.199	0.523
982.000	566.623	80.005	19.993	103.172	20.223	4.301	0.539
984.000	567.663	80.005	19.994	103.174	20.219	4.576	0.554
986.000	568.761	80.006	19.994	103.176	20.214	4.862	0.523
988.000	569.824	80.006	19.995	103.175	20.220	4.464	0.560
990.000	570.916	80.006	19.995	103.174	20.219	4.554	0.533
992.001	572.032	80.005	19.994	103.184	20.220	4.479	0.554
994.000	573.144	80.005	19.994	103.176	20.218	4.585	0.571
996.000	574.247	80.005	19.993	103.175	20.220	4.459	0.588
998.000	575.373	80.006	19.993	103.178	20.219	4.528	0.559
1000.000	576.406	80.005	19.993	103.177	20.221	4.398	0.510
1002.001	577.591	80.007	19.993	103.175	20.219	4.576	0.574
1004.000	578.685	80.006	19.993	103.175	20.219	4.519	0.565
1006.000	579.763	80.005	19.995	103.176	20.223	4.306	0.514
1008.000	580.893	80.006	19.994	103.177	20.224	4.239	0.564
1010.000	581.971	80.006	19.994	103.175	20.222	4.336	0.567
1012.000	583.088	80.005	19.994	103.171	20.222	4.328	0.559
1014.000	584.140	80.006	19.993	103.172	20.224	4.216	0.538
1016.000	585.222	80.005	19.994	103.170	20.224	4.201	0.550
1018.000	586.302	80.004	19.993	103.173	20.222	4.336	0.517
1020.000	587.370	80.004	19.993	103.172	20.219	4.546	0.524
1022.000	588.456	80.006	19.994	103.145	20.218	4.596	0.530
1024.000	589.502	80.007	19.994	103.108	20.219	4.539	0.518
1026.000	590.583	80.007	19.995	103.230	20.220	4.466	0.546
1028.001	591.640	80.008	19.996	103.172	20.224	4.213	0.515
1030.000	592.715	80.007	19.994	103.172	20.223	4.285	0.528
1032.000	593.803	80.007	19.994	103.173	20.223	4.301	0.549
1034.000	594.847	80.005	19.994	103.172	20.223	4.266	0.536
1036.000	595.891	80.007	19.995	103.176	20.222	4.345	0.502
1038.000	596.947	80.007	19.996	103.176	20.220	4.479	0.541
1040.000	597.944	80.005	19.994	103.172	20.221	4.376	0.504
1042.000	598.971	80.008	19.994	103.172	20.221	4.411	0.514
1044.000	600.009	80.007	19.994	103.173	20.227	3.979	0.515
1046.000	601.045	80.007	19.995	103.173	20.226	4.088	0.526
1048.001	602.063	80.007	19.995	103.176	20.224	4.233	0.510
1050.000	603.030	80.007	19.994	103.178	20.223	4.253	0.470
1052.000	604.048	80.008	19.995	103.175	20.222	4.325	0.492
1054.000	605.009	80.007	19.995	103.173	20.228	3.964	0.475
1056.001	605.996	80.006	19.994	103.172	20.226	4.063	0.532
1058.000	606.951	80.007	19.995	103.176	20.222	4.325	0.476
1060.000	607.965	80.005	19.994	103.174	20.222	4.345	0.507
1062.001	608.933	80.005	19.994	103.172	20.221	4.418	0.493
1064.000	609.938	80.006	19.995	103.174	20.219	4.527	0.484
1066.001	610.902	80.005	19.994	103.179	20.218	4.623	0.484
1068.000	611.892	80.006	19.994	103.177	20.218	4.631	0.507
1070.000	612.908	80.006	19.994	103.179	20.218	4.638	0.513
1072.000	613.848	80.006	19.994	103.178	20.220	4.457	0.485
1074.001	614.836	80.007	19.995	103.176	20.216	4.721	0.486
1076.000	615.781	80.006	19.995	103.175	20.220	4.457	0.473
1078.000	616.808	80.006	19.993	103.175	20.219	4.539	0.497
1080.000	617.768	80.007	19.994	103.172	20.219	4.536	0.463
1082.000	618.703	80.006	19.995	103.174	20.220	4.492	0.447
1084.001	619.697	80.005	19.995	103.172	20.221	4.428	0.462
1086.001	620.655	80.006	19.993	103.176	20.218	4.643	0.501
1088.000	621.612	80.006	19.995	103.171	20.218	4.619	0.471
1090.000	622.601	80.006	19.994	103.179	20.218	4.591	0.506
1092.000	623.533	80.006	19.994	103.174	20.222	4.363	0.478
1094.000	624.507	80.005	19.994	103.178	20.224	4.188	0.481
1096.000	625.477	80.004	19.995	103.195	20.222	4.331	0.491
1098.000	626.442	80.006	19.994	103.192	20.225	4.118	0.469
1100.001	627.413	80.006	19.994	103.180	20.223	4.270	0.508
1102.000	628.446	80.005	19.994	103.175	20.223	4.305	0.539
1104.000	629.410	80.008	19.994	103.175	20.222	4.363	0.513
1106.000	630.407	80.007	19.993	103.189	20.221	4.434	0.554
1108.000	631.425	80.008	19.994	103.189	20.220	4.509	0.532
1110.001	632.416	80.007	19.995	103.190	20.220	4.464	0.491
1112.000	633.423	80.007	19.994	103.180	20.217	4.659	0.514
1114.000	634.491	80.007	19.995	103.191	20.221	4.377	0.555
1116.000	635.518	80.007	19.994	103.200	20.220	4.456	0.520
1118.001	636.502	80.006	19.994	103.206	20.217	4.700	0.497
1120.000	637.486	80.005	19.995	103.183	20.217	4.706	0.476
1122.000	638.537	80.007	19.997	103.185	20.217	4.713	0.542
1124.000	639.585	80.005	19.995	103.196	20.214	4.869	0.541
1126.000	640.647	80.006	19.994	103.206	20.216	4.759	0.530
1128.001	641.694	80.007	19.994	103.204	20.219	4.559	0.563
1130.000	642.723	80.007	19.994	103.211	20.218	4.612	0.525
1132.001	643.781	80.007	19.994	103.211	20.215	4.845	0.563
1134.001	644.880	80.008	19.994	103.212	20.216	4.746	0.563
1136.000	645.912	80.008	19.994	103.211	20.216	4.751	0.564
1138.000	646.992	80.008	19.994	103.212	20.217	4.699	0.531
1140.000	648.078	80.006	19.995	103.212	20.215	4.829	0.481
1142.000	649.249	80.005	19.994	103.208	20.211	5.076	0.553
1144.000	650.288	80.005	19.995	103.212	20.220	4.501	0.530
1146.000	651.349	80.004	19.995	103.210	20.217	4.689	0.546
1148.000	652.507	80.006	19.996	103.215	20.216	4.760	0.656
1150.001	653.658	80.006	19.995	103.214	20.216	4.781	0.563
1152.000	654.757	80.005	19.995	103.215	20.215	4.794	0.559
1154.000	655.819	80.006	19.995	103.213	20.208	5.261	0.558
1156.000	656.902	80.005	19.995	103.203	20.211	5.120	0.518
1158.000	658.018	80.006	19.996	103.154	20.212	5.031	0.521
1160.000	659.128	80.007	19.994	103.277	20.211	5.090	0.523
1162.001	660.220	80.006	19.994	103.221	20.210	5.184	0.542
1164.000	661.328	80.007	19.994	103.217	20.213	4.960	0.562
1166.001	662.394	80.006	19.994	103.219	20.212	4.999	0.525
1168.000	663.435	80.007	19.994	103.223	20.214	4.911	0.525
1170.000	664.552	80.005	19.993	103.239	20.212	5.026	0.529
1172.000	665.583	80.005	19.995	103.242	20.213	4.942	0.553
1174.001	666.645	80.005	19.993	103.245	20.214	4.909	0.518
1176.000	667.710	80.004	19.994	103.247	20.208	5.265	0.521
1178.001	668.785	80.005	19.995	103.250	20.209	5.255	0.493
1180.000	669.860	80.004	19.993	103.245	20.208	5.259	0.510
1182.000	670.944	80.004	19.994	103.247	20.203	5.610	0.551
1184.000	671.994	80.006	19.994	103.254	20.210	5.179	0.547
1186.000	673.055	80.006	19.993	103.251	20.206	5.456	0.540
1188.000	674.061	80.008	19.993	103.246	20.205	5.508	0.530
1190.001	675.173	80.007	19.993	103.246	20.206	5.447	0.511
1192.000	676.234	80.007	19.994	103.251	20.204	5.535	0.548
1194.000	677.252	80.007	19.993	103.252	20.202	5.689	0.531
1196.001	678.276	80.006	19.993	103.252	20.201	5.751	0.502
1198.000	679.327	80.006	19.994	103.265	20.204	5.543	0.524
1200.000	680.340	80.006	19.994	103.264	20.207	5.386	0.492
1202.000	681.355	80.006	19.994	103.267	20.203	5.603	0.538
1204.000	682.352	80.006	19.994	103.264	20.207	5.334	0.488
1206.000	683.408	80.005	19.995	103.256	20.205	5.518	0.505
1208.000	684.440	80.007	19.995	103.269	20.205	5.488	0.509
1210.000	685.386	80.007	19.994	103.263	20.203	5.641	0.512
1212.000	686.450	80.028	19.999	103.288	20.204	5.562	0.534
1214.001	687.468	80.008	19.995	103.291	20.204	5.582	0.473
1216.000	688.479	80.008	19.996	103.279	20.205	5.500	0.510
1218.000	689.500	80.008	19.995	103.282	20.203	5.612	0.513
1220.001	690.521	80.007	19.994	103.282	20.205	5.510	0.503
1222.001	691.487	80.006	19.996	103.287	20.201	5.747	0.510
1224.000	692.508	80.006	19.994	103.287	20.201	5.789	0.483
1226.000	693.502	80.006	19.995	103.291	20.200	5.836	0.527
1228.000	694.529	80.005	19.994	103.288	20.199	5.919	0.507
1230.000	695.558	80.007	19.994	103.258	20.198	5.961	0.502
1232.000	696.554	80.005	19.994	103.263	20.201	5.795	0.483
1234.000	697.542	80.006	19.995	103.358	20.200	5.836	0.482
1236.001	698.504	80.006	19.995	103.303	20.199	5.918	0.472
1238.001	699.498	80.005	19.995	103.307	20.198	5.940	0.457
1240.000	700.562	80.005	19.994	103.304	20.198	5.982	0.511
1242.001	701.575	80.005	19.996	103.311	20.197	6.032	0.494
1244.001	702.526	80.004	19.996	103.326	20.196	6.074	0.488
1246.000	703.529	80.005	19.995	103.329	20.191	6.449	0.499
1248.000	704.547	80.006	19.996	103.327	20.197	6.053	0.508
1250.000	705.550	80.005	19.994	103.321	20.192	6.358	0.489
1252.000	706.527	80.006	19.995	103.328	20.195	6.146	0.509
1254.000	707.528	80.006	19.995	103.329	20.193	6.311	0.469
1256.000	708.538	80.006	19.995	103.331	20.193	6.342	0.490
1258.001	709.546	80.006	19.995	103.333	20.190	6.528	0.507
1260.000	710.530	80.004	19.994	103.339	20.189	6.581	0.497
1262.000	711.572	80.004	19.993	103.345	20.190	6.539	0.497
1264.000	712.577	80.005	19.993	103.351	20.189	6.598	0.504
1266.000	713.567	80.007	19.994	103.366	20.185	6.833	0.469
1268.000	714.552	80.006	19.996	103.358	20.190	6.538	0.479
1270.000	715.543	80.007	19.996	103.365	20.188	6.616	0.495
1272.000	716.580	80.008	19.994	103.362	20.192	6.378	0.508
1274.000	717.589	80.008	19.994	103.367	20.189	6.584	0.501
1276.000	718.563	80.009	19.995	103.367	20.186	6.794	0.480
1278.000	719.628	80.006	19.994	103.374	20.185	6.866	0.518
1280.000	720.596	80.008	19.994	103.380	20.186	6.772	0.489
1282.001	721.615	80.006	19.994	103.370	20.182	7.090	0.513
1284.000	722.590	80.005	19.994	103.378	20.180	7.181	0.478
1286.000	723.628	80.007	19.995	103.387	20.180	7.169	0.512
1288.000	724.654	80.006	19.995	103.404	20.183	6.959	0.508
1290.000	725.598	80.008	19.994	103.397	20.184	6.923	0.481
1292.000	726.615	80.008	19.993	103.403	20.180	7.193	0.527
1294.001	727.600	80.009	19.995	103.396	20.176	7.452	0.485
1296.000	728.588	80.008	19.992	103.403	20.179	7.232	0.491
1298.000	729.634	80.008	19.993	103.401	20.182	7.050	0.514
1300.000	730.628	80.009	19.993	103.399	20.180	7.184	0.508
1302.000	731.581	80.010	19.994	103.404	20.171	7.781	0.469
1304.001	732.609	80.007	19.995	103.410	20.177	7.392	0.504
1306.000	733.578	80.005	19.995	103.408	20.177	7.416	0.484
1308.000	734.601	80.005	19.995	103.410	20.177	7.416	0.471
1310.001	735.610	80.005	19.995	103.409	20.176	7.461	0.528
1312.000	736.564	80.007	19.996	103.412	20.177	7.391	0.479
1314.001	737.599	80.006	19.994	103.409	20.173	7.649	0.531
1316.000	738.568	80.007	19.995	103.423	20.176	7.483	0.582
1318.000	739.564	80.006	19.995	103.407	20.178	7.300	0.522
1320.001	740.547	80.006	19.994	103.427	20.176	7.495	0.474
1322.000	741.507	80.004	19.995	103.430	20.176	7.493	0.440
1324.000	742.491	80.006	19.994	103.424	20.174	7.628	0.522
1326.000	743.476	80.006	19.994	103.415	20.173	7.664	0.479
1327.000	743.954	80.005	19.995	103.425	20.177	7.372	0.463