File: 01_Data/Rubber_Foam_Pipe_Insulation/STA/N2/10K_min/Rubber_Foam_Pipe_Insulation_STA_N2_10KData_220921_R1.csv
##Temp./Â°C,Time/min,Mass loss(subtr.2)/mg,DSC(subtr.2)/(mW/mg),Sensit./(uV/mW)
50.19,10.00917,0.00494,0.0114592,1.02684
50.79,10.79873,0.00517427,0.10301,1.02679
51.39,11.0185,0.005924683,0.17481,1.02673
51.99,11.1836,0.00723672,0.23643,1.02668
52.59,11.32235,0.006042789,0.28907,1.02663
53.19,11.44605,0.005819237,0.33652,1.02658
53.79,11.55943,0.007806546,0.37894,1.02653
54.39,11.66505,0.007922647,0.41751,1.02647
54.99,11.7658,0.007147103,0.45149,1.02642
55.59,11.8627,0.00597754,0.47931,1.02637
56.19,11.95589,0.006195701,0.50554,1.02631
56.79,12.0462,0.00666062,0.53158,1.02626
57.39,12.1328,0.009180331,0.55254,1.02621
57.99,12.21906,0.007249969,0.57293,1.02615
58.59,12.30407,0.007960047,0.59172,1.0261
59.19,12.3865,0.00799758,0.61411,1.02604
59.79,12.4672,0.00863717,0.62943,1.02599
60.39,12.54798,0.007791313,0.64478,1.02593
60.99,12.62733,0.005966801,0.65869,1.02588
61.59,12.70533,0.007587725,0.67366,1.02582
62.19,12.78225,0.00779318,0.6858,1.02577
62.79,12.85835,0.008196019,0.69642,1.02571
63.39,12.93341,0.007551575,0.7061,1.02565
63.99,13.0078,0.007782626,0.71656,1.0256
64.59,13.08205,0.007775506,0.72338,1.02554
65.19,13.15575,0.007828327,0.72908,1.02548
65.79,13.22874,0.00684582,0.73418,1.02543
66.39,13.3013,0.007901788,0.73976,1.02537
66.99,13.37294,0.008789663,0.74412,1.02531
67.59,13.4445,0.00780818,0.7492,1.02525
68.19,13.5152,0.00746056,0.75192,1.0252
68.79,13.58565,0.006473136,0.75615,1.02514
69.39,13.6555,0.00651104,0.76108,1.02508
69.99,13.7249,0.006490123,0.7636,1.02502
70.59,13.7942,0.00773702,0.76827,1.02496
71.19,13.86295,0.00684472,0.77085,1.0249
71.79,13.9314,0.00646531,0.77481,1.02484
72.39,13.99966,0.006493594,0.77929,1.02478
72.99,14.06737,0.00675502,0.78412,1.02472
73.59,14.13478,0.00658507,0.78939,1.02466
74.19,14.20175,0.006302318,0.79384,1.0246
74.79,14.26873,0.006189737,0.79687,1.02454
75.39,14.33561,0.00648223,0.80128,1.02448
75.99,14.4022,0.00645362,0.80492,1.02442
76.59,14.4682,0.005071956,0.81028,1.02435
77.19,14.53394,0.006310756,0.81658,1.02429
77.79,14.59941,0.005722403,0.82276,1.02423
78.39,14.6648,0.00504953,0.82648,1.02417
78.99,14.7295,0.005060007,0.83304,1.02411
79.59,14.7943,0.005058216,0.83862,1.02404
80.19,14.8588,0.003739386,0.84469,1.02398
80.79,14.92361,0.00406066,0.85091,1.02392
81.39,14.98841,0.00526494,0.85625,1.02385
81.99,15.05264,0.005355156,0.86191,1.02379
82.59,15.11629,0.003960336,0.86653,1.02372
83.19,15.179,0.00264398,0.86989,1.02366
83.79,15.2417,0.003985993,0.87682,1.02359
84.39,15.3039,0.003457606,0.88003,1.02353
84.99,15.36616,0.004627437,0.88733,1.02346
85.59,15.4289,0.003957785,0.8883,1.0234
86.19,15.49133,0.002642423,0.89469,1.02333
86.79,15.55441,0.001358738,0.8989,1.02327
87.39,15.6172,0.001332603,0.90216,1.0232
87.99,15.6799,0.00171229,0.90523,1.02313
88.59,15.74259,0.001266543,0.90929,1.02307
89.19,15.8044,0.001146766,0.91436,1.023
89.79,15.8659,-5.063687e-06,0.91959,1.02293
90.39,15.92734,0.00132127,0.92271,1.02286
90.99,15.98869,0.0006998194,0.92704,1.0228
91.59,16.05034,0.001243382,0.93054,1.02273
92.19,16.11145,-5.099967e-06,0.93726,1.02266
92.79,16.17261,-0.0001444625,0.94041,1.02259
93.39,16.23321,-0.001310259,0.94295,1.02252
93.99,16.29391,-0.00124364,0.94922,1.02245
94.59,16.35454,-0.0013177,0.95095,1.02238
95.19,16.415,-0.001679058,0.95686,1.02231
95.79,16.47561,-0.001650323,0.96025,1.02224
96.39,16.53586,-0.002653772,0.96244,1.02217
96.99,16.59608,-0.00166677,0.96787,1.0221
97.59,16.656,-0.00222892,0.97272,1.02203
98.19,16.71586,-0.002634438,0.9778,1.02196
98.79,16.77583,-0.002643758,0.98217,1.02188
99.39,16.83548,-0.003952203,0.9874,1.02181
99.99,16.89528,-0.005219452,0.99049,1.02174
100.59,16.95501,-0.00525823,0.99519,1.02167
101.19,17.01475,-0.004463034,1.00111,1.0216
101.79,17.07453,-0.005261841,1.00594,1.02152
102.39,17.13409,-0.006586,1.01016,1.02145
102.99,17.19355,-0.00805697,1.01194,1.02137
103.59,17.25284,-0.006917097,1.01807,1.0213
104.19,17.31206,-0.006919987,1.02022,1.02123
104.79,17.37141,-0.007482819,1.02464,1.02115
105.39,17.4306,-0.007899796,1.02868,1.02108
105.99,17.48969,-0.007619341,1.03245,1.021
106.59,17.54869,-0.007900018,1.03506,1.02093
107.19,17.60751,-0.008422,1.03806,1.02085
107.79,17.6664,-0.008371424,1.03991,1.02077
108.39,17.72537,-0.00958911,1.04018,1.0207
108.99,17.7844,-0.009550015,1.0432,1.02062
109.59,17.8434,-0.009544184,1.04486,1.02054
110.19,17.90229,-0.0108581,1.04748,1.02047
110.79,17.96058,-0.01086703,1.05287,1.02039
111.39,18.01913,-0.01217998,1.05615,1.02031
111.99,18.0779,-0.01185187,1.05994,1.02023
112.59,18.13684,-0.01315928,1.06484,1.02015
113.19,18.19611,-0.01218989,1.06763,1.02007
113.79,18.25491,-0.01328685,1.07106,1.02
114.39,18.31334,-0.0135294,1.07518,1.01992
114.99,18.37185,-0.01316609,1.08082,1.01984
115.59,18.43054,-0.01447779,1.08521,1.01976
116.19,18.48924,-0.01579919,1.08641,1.01968
116.79,18.548,-0.0144904,1.09263,1.01959
117.39,18.60602,-0.01449,1.09532,1.01951
117.99,18.6645,-0.01448639,1.10091,1.01943
118.59,18.7229,-0.01579593,1.10294,1.01935
119.19,18.78119,-0.01580999,1.10774,1.01927
119.79,18.84011,-0.01778019,1.10641,1.01919
120.39,18.8983,-0.01778,1.10595,1.0191
120.99,18.9568,-0.01778,1.10451,1.01902
121.59,19.0152,-0.01777267,1.10156,1.01894
122.19,19.07347,-0.01909823,1.09881,1.01885
122.79,19.13224,-0.01923935,1.09416,1.01877
123.39,19.1906,-0.02041986,1.09316,1.01869
123.99,19.24879,-0.01943405,1.09166,1.0186
124.59,19.30686,-0.01942395,1.09078,1.01852
125.19,19.36501,-0.02076217,1.09137,1.01843
125.79,19.42331,-0.02207537,1.09034,1.01834
126.39,19.48156,-0.02338514,1.08896,1.01826
126.99,19.53963,-0.02337797,1.09136,1.01817
127.59,19.59764,-0.02202532,1.09172,1.01809
128.19,19.65587,-0.02454748,1.0938,1.018
128.79,19.71346,-0.02469993,1.09397,1.01791
129.39,19.77143,-0.0247,1.09528,1.01782
129.99,19.82921,-0.02470001,1.09668,1.01774
130.59,19.88662,-0.02578202,1.09716,1.01765
131.19,19.9447,-0.02526493,1.09779,1.01756
131.79,20.0025,-0.02667987,1.10087,1.01747
132.39,20.0603,-0.02668028,1.10069,1.01738
132.99,20.1184,-0.02734943,1.10592,1.01729
133.59,20.17609,-0.02862374,1.10803,1.0172
134.19,20.23386,-0.02865004,1.10693,1.01711
134.79,20.29177,-0.02938217,1.11097,1.01702
135.39,20.3496,-0.03061994,1.11178,1.01693
135.99,20.40725,-0.03062147,1.11294,1.01684
136.59,20.46472,-0.03194606,1.11479,1.01675
137.19,20.52225,-0.03193998,1.1172,1.01665
137.79,20.57976,-0.03232224,1.11885,1.01656
138.39,20.63747,-0.03410738,1.12081,1.01647
138.99,20.6951,-0.03424432,1.12291,1.01638
139.59,20.75245,-0.03523918,1.12429,1.01628
140.19,20.8101,-0.03392079,1.1247,1.01619
140.79,20.86757,-0.03525914,1.12707,1.0161
141.39,20.92517,-0.03522958,1.12695,1.016
141.99,20.98274,-0.03654594,1.13069,1.01591
142.59,21.04022,-0.0381868,1.12935,1.01581
143.19,21.09747,-0.03812878,1.13122,1.01572
143.79,21.15486,-0.03951988,1.133,1.01562
144.39,21.2121,-0.03952,1.13443,1.01552
144.99,21.26941,-0.03951985,1.13622,1.01543
145.59,21.32684,-0.0407795,1.13863,1.01533
146.19,21.38413,-0.0421599,1.13882,1.01523
146.79,21.44152,-0.04216054,1.14159,1.01513
147.39,21.49878,-0.04313598,1.14226,1.01504
147.99,21.5563,-0.04313997,1.14473,1.01494
148.59,21.61347,-0.04309795,1.14524,1.01484
149.19,21.6707,-0.04577401,1.14657,1.01474
149.79,21.72788,-0.04577,1.14662,1.01464
150.39,21.78494,-0.04577131,1.14878,1.01454
150.99,21.84202,-0.04827201,1.14911,1.01444
151.59,21.89892,-0.0484127,1.15051,1.01434
152.19,21.95586,-0.0494235,1.15128,1.01424
152.79,22.01287,-0.04955113,1.15231,1.01414
153.39,22.07,-0.05105018,1.15241,1.01404
153.99,22.12731,-0.05105,1.15378,1.01393
154.59,22.18446,-0.05105001,1.15379,1.01383
155.19,22.2413,-0.05106321,1.15439,1.01373
155.79,22.2982,-0.05368977,1.1564,1.01363
156.39,22.35504,-0.05499602,1.15909,1.01352
156.99,22.41207,-0.05499,1.16024,1.01342
157.59,22.46895,-0.05499001,1.16196,1.01331
158.19,22.52594,-0.05537916,1.16301,1.01321
158.79,22.5829,-0.05762834,1.16538,1.0131
159.39,22.63992,-0.05762993,1.16822,1.013
159.99,22.6968,-0.05899468,1.16967,1.01289
160.59,22.75396,-0.05919913,1.17024,1.01279
161.19,22.81108,-0.06024038,1.17494,1.01268
161.79,22.86769,-0.06254518,1.17554,1.01257
162.39,22.92475,-0.06290105,1.17933,1.01246
162.99,22.98167,-0.06475369,1.1832,1.01236
163.59,23.03877,-0.06553843,1.18696,1.01225
164.19,23.09636,-0.06683416,1.19016,1.01214
164.79,23.15335,-0.06787966,1.19345,1.01203
165.39,23.2101,-0.06886767,1.19676,1.01192
165.99,23.26686,-0.07046178,1.19984,1.01181
166.59,23.32374,-0.07079173,1.20575,1.0117
167.19,23.38073,-0.07215641,1.20679,1.01159
167.79,23.43763,-0.07343108,1.2113,1.01148
168.39,23.49478,-0.0747374,1.21473,1.01137
168.99,23.552,-0.07746526,1.21898,1.01126
169.59,23.6093,-0.07905564,1.22303,1.01115
170.19,23.66656,-0.08134925,1.2287,1.01103
170.79,23.7236,-0.08263579,1.23281,1.01092
171.39,23.78061,-0.08406845,1.2398,1.01081
171.99,23.83766,-0.08529497,1.24345,1.01069
172.59,23.89488,-0.08661454,1.24969,1.01058
173.19,23.95204,-0.08881181,1.25518,1.01046
173.79,24.0091,-0.08924973,1.26154,1.01035
174.39,24.06614,-0.0905088,1.26731,1.01023
174.99,24.12306,-0.09206773,1.2734,1.01012
175.59,24.18007,-0.09425908,1.27996,1.01
176.19,24.23722,-0.09586051,1.28573,1.00989
176.79,24.29434,-0.09869587,1.29371,1.00977
177.39,24.35134,-0.10017,1.30109,1.00965
177.99,24.40853,-0.10275,1.30649,1.00953
178.59,24.4655,-0.10655,1.31344,1.00942
179.19,24.52253,-0.1076,1.31854,1.0093
179.79,24.5797,-0.10982,1.32569,1.00918
180.39,24.63663,-0.11126,1.33215,1.00906
180.99,24.6936,-0.11354,1.33967,1.00894
181.59,24.75057,-0.11538,1.34734,1.00882
182.19,24.80745,-0.11717,1.35492,1.0087
182.79,24.86444,-0.11993,1.36045,1.00858
183.39,24.92137,-0.12222,1.36872,1.00846
183.99,24.97832,-0.125,1.37673,1.00833
184.59,25.03519,-0.12806,1.3839,1.00821
185.19,25.09211,-0.13116,1.39146,1.00809
185.79,25.14904,-0.1337,1.39614,1.00796
186.39,25.206,-0.13544,1.40518,1.00784
186.99,25.26291,-0.13862,1.41217,1.00772
187.59,25.31958,-0.14128,1.41951,1.00759
188.19,25.3764,-0.14399,1.42629,1.00747
188.79,25.4332,-0.14684,1.43624,1.00734
189.39,25.49008,-0.1495,1.44338,1.00722
189.99,25.54721,-0.15167,1.45092,1.00709
190.59,25.60409,-0.1547,1.45907,1.00696
191.19,25.66115,-0.15945,1.46567,1.00684
191.79,25.7182,-0.16239,1.4729,1.00671
192.39,25.77515,-0.16516,1.47965,1.00658
192.99,25.83204,-0.16864,1.48681,1.00645
193.59,25.88905,-0.1718,1.49383,1.00632
194.19,25.94584,-0.17485,1.49899,1.0062
194.79,26.00282,-0.17927,1.50837,1.00607
195.39,26.05955,-0.1839,1.51448,1.00594
195.99,26.11635,-0.18667,1.51857,1.0058
196.59,26.17301,-0.18996,1.52748,1.00567
197.19,26.2299,-0.19433,1.53341,1.00554
197.79,26.2869,-0.19765,1.53969,1.00541
198.39,26.3438,-0.20119,1.54562,1.00528
198.99,26.401,-0.20494,1.55042,1.00515
199.59,26.45788,-0.2093,1.5565,1.00501
200.19,26.5149,-0.21288,1.56291,1.00488
200.79,26.572,-0.21643,1.5682,1.00474
201.39,26.62903,-0.22052,1.57137,1.00461
201.99,26.686,-0.22638,1.578,1.00447
202.59,26.74257,-0.22928,1.58211,1.00434
203.19,26.79955,-0.23265,1.58696,1.0042
203.79,26.8563,-0.23788,1.58952,1.00407
204.39,26.91328,-0.24328,1.59509,1.00393
204.99,26.97036,-0.24714,1.59828,1.00379
205.59,27.02719,-0.25052,1.60147,1.00366
206.19,27.0842,-0.25533,1.60578,1.00352
206.79,27.14142,-0.25895,1.61001,1.00338
207.39,27.1985,-0.26346,1.61148,1.00324
207.99,27.2549,-0.26878,1.61563,1.0031
208.59,27.31195,-0.27328,1.6173,1.00296
209.19,27.3687,-0.27704,1.6189,1.00282
209.79,27.42578,-0.28156,1.62084,1.00268
210.39,27.48327,-0.2866,1.62466,1.00254
210.99,27.54035,-0.29232,1.62526,1.0024
211.59,27.59739,-0.29739,1.63095,1.00225
212.19,27.654,-0.30138,1.62979,1.00211
212.79,27.71098,-0.30601,1.63163,1.00197
213.39,27.76775,-0.31188,1.63385,1.00182
213.99,27.82473,-0.31674,1.63641,1.00168
214.59,27.88161,-0.321,1.63764,1.00153
215.19,27.9384,-0.32631,1.63898,1.00139
215.79,27.9956,-0.33038,1.64342,1.00124
216.39,28.05286,-0.33625,1.64528,1.0011
216.99,28.1098,-0.34095,1.64825,1.00095
217.59,28.16667,-0.34612,1.65132,1.0008
218.19,28.22342,-0.35195,1.65687,1.00066
218.79,28.28015,-0.35697,1.66128,1.00051
219.39,28.3369,-0.36395,1.66514,1.00036
219.99,28.39374,-0.36863,1.67149,1.00021
220.59,28.4505,-0.37331,1.6791,1.00006
221.19,28.50722,-0.37771,1.68662,0.99991
221.79,28.56425,-0.38314,1.69514,0.99976
222.39,28.6212,-0.39066,1.70462,0.99961
222.99,28.6779,-0.3952,1.71735,0.99946
223.59,28.7347,-0.40191,1.73099,0.99931
224.19,28.7916,-0.40748,1.74435,0.99916
224.79,28.84872,-0.41394,1.76001,0.999
225.39,28.90601,-0.41993,1.77813,0.99885
225.99,28.96305,-0.42653,1.79342,0.9987
226.59,29.0202,-0.43135,1.81667,0.99854
227.19,29.0772,-0.43993,1.83577,0.99839
227.79,29.1341,-0.44633,1.85942,0.99823
228.39,29.1909,-0.45418,1.88445,0.99808
228.99,29.2478,-0.46075,1.91034,0.99792
229.59,29.30493,-0.46794,1.93436,0.99776
230.19,29.362,-0.47519,1.96458,0.99761
230.79,29.419,-0.48345,1.9947,0.99745
231.39,29.4763,-0.49261,2.02425,0.99729
231.99,29.5335,-0.50131,2.05802,0.99713
232.59,29.59078,-0.50937,2.09267,0.99697
233.19,29.6483,-0.51889,2.12689,0.99681
233.79,29.70556,-0.5277,2.16132,0.99665
234.39,29.7628,-0.53741,2.20356,0.99649
234.99,29.81999,-0.54744,2.24139,0.99633
235.59,29.877,-0.55755,2.2828,0.99617
236.19,29.9345,-0.56846,2.32553,0.99601
236.79,29.9921,-0.58,2.37258,0.99584
237.39,30.0498,-0.59229,2.41743,0.99568
237.99,30.10738,-0.60303,2.46846,0.99552
238.59,30.1648,-0.6149,2.51698,0.99535
239.19,30.2222,-0.62808,2.57036,0.99519
239.79,30.27989,-0.64136,2.6189,0.99502
240.39,30.33735,-0.65449,2.66125,0.99486
240.99,30.39498,-0.66842,2.68708,0.99469
241.59,30.45247,-0.68313,2.68538,0.99452
242.19,30.51002,-0.69944,2.64491,0.99436
242.79,30.56728,-0.71486,2.57361,0.99419
243.39,30.62422,-0.72688,2.48077,0.99402
243.99,30.68125,-0.74212,2.37704,0.99385
244.59,30.73824,-0.75644,2.26865,0.99368
245.19,30.79512,-0.7713,2.15825,0.99351
245.79,30.852,-0.7862,2.05382,0.99334
246.39,30.90857,-0.80167,1.95286,0.99317
246.99,30.96511,-0.81774,1.86897,0.993
247.59,31.02151,-0.83253,1.79917,0.99283
248.19,31.0781,-0.8488,1.74462,0.99266
248.79,31.1346,-0.86691,1.70419,0.99248
249.39,31.19102,-0.88581,1.6842,0.99231
249.99,31.2478,-0.90489,1.67421,0.99214
250.59,31.3045,-0.92447,1.67788,0.99196
251.19,31.3612,-0.94584,1.68828,0.99179
251.79,31.418,-0.96683,1.7043,0.99161
252.39,31.47488,-0.98857,1.72518,0.99144
252.99,31.53162,-1.01228,1.74719,0.99126
253.59,31.58847,-1.03473,1.76542,0.99108
254.19,31.6454,-1.06026,1.78663,0.9909
254.79,31.7027,-1.08524,1.79969,0.99073
255.39,31.75961,-1.11092,1.80579,0.99055
255.99,31.8165,-1.13968,1.80447,0.99037
256.59,31.87293,-1.16514,1.78511,0.99019
257.19,31.9299,-1.19534,1.75604,0.99001
257.79,31.98692,-1.22346,1.7204,0.98983
258.39,32.0441,-1.25472,1.6793,0.98965
258.99,32.101,-1.28726,1.63039,0.98946
259.59,32.15765,-1.32138,1.56801,0.98928
260.19,32.21436,-1.35862,1.48559,0.9891
260.79,32.27095,-1.39484,1.36905,0.98892
261.39,32.32763,-1.43952,1.19861,0.98873
261.99,32.38375,-1.48413,0.94751,0.98855
262.59,32.43947,-1.53764,0.59832,0.98836
263.19,32.49492,-1.59677,0.12136,0.98818
263.79,32.55008,-1.66231,-0.46821,0.98799
264.39,32.60437,-1.7408,-1.12953,0.9878
264.99,32.65818,-1.8222,-1.77812,0.98762
265.59,32.71158,-1.91128,-2.2965,0.98743
266.19,32.76493,-2.00758,-2.60741,0.98724
266.79,32.81848,-2.09702,-2.66757,0.98705
267.39,32.8727,-2.18047,-2.48815,0.98686
267.99,32.9276,-2.25769,-2.12707,0.98667
268.59,32.9834,-2.32053,-1.66599,0.98648
269.19,33.04014,-2.37537,-1.14961,0.98629
269.79,33.09746,-2.42259,-0.65307,0.9861
270.39,33.1555,-2.46251,-0.19665,0.98591
270.99,33.2142,-2.4969,0.20825,0.98571
271.59,33.27332,-2.52592,0.55443,0.98552
272.19,33.33232,-2.55561,0.84667,0.98533
272.79,33.39115,-2.57936,1.09277,0.98513
273.39,33.44977,-2.60318,1.30083,0.98494
273.99,33.50825,-2.62426,1.47348,0.98474
274.59,33.56716,-2.64602,1.62143,0.98454
275.19,33.62611,-2.66545,1.74986,0.98435
275.79,33.68476,-2.68528,1.85983,0.98415
276.39,33.7438,-2.70444,1.95441,0.98395
276.99,33.8027,-2.72281,2.03559,0.98375
277.59,33.86172,-2.74015,2.11138,0.98356
278.19,33.92057,-2.7584,2.17442,0.98336
278.79,33.97913,-2.77574,2.22955,0.98316
279.39,34.0374,-2.79288,2.28069,0.98296
279.99,34.09578,-2.80983,2.32512,0.98275
280.59,34.15398,-2.82616,2.36357,0.98255
281.19,34.212,-2.8436,2.39748,0.98235
281.79,34.27012,-2.85968,2.42385,0.98215
282.39,34.3283,-2.87607,2.44622,0.98194
282.99,34.38625,-2.89106,2.46113,0.98174
283.59,34.4444,-2.90613,2.47134,0.98153
284.19,34.5024,-2.92095,2.47767,0.98133
284.79,34.56022,-2.93661,2.4792,0.98112
285.39,34.61826,-2.95168,2.47451,0.98092
285.99,34.67601,-2.96581,2.46362,0.98071
286.59,34.73375,-2.98119,2.44789,0.9805
287.19,34.79148,-2.99442,2.42732,0.9803
287.79,34.84916,-3.01003,2.4031,0.98009
288.39,34.90685,-3.02271,2.3706,0.97988
288.99,34.96448,-3.03542,2.33899,0.97967
289.59,35.0219,-3.04845,2.30211,0.97946
290.19,35.07938,-3.06001,2.26411,0.97925
290.79,35.13668,-3.07449,2.21919,0.97904
291.39,35.19407,-3.08603,2.18088,0.97882
291.99,35.25143,-3.0983,2.13768,0.97861
292.59,35.3087,-3.11049,2.09706,0.9784
293.19,35.366,-3.12153,2.05394,0.97818
293.79,35.42315,-3.1343,2.01436,0.97797
294.39,35.4803,-3.145,1.97718,0.97775
294.99,35.53751,-3.15703,1.93881,0.97754
295.59,35.5944,-3.16775,1.90296,0.97732
296.19,35.6517,-3.17778,1.86923,0.97711
296.79,35.70903,-3.18851,1.83385,0.97689
297.39,35.76644,-3.19868,1.80195,0.97667
297.99,35.82356,-3.20813,1.77336,0.97645
298.59,35.88057,-3.22024,1.7455,0.97623
299.19,35.93776,-3.2295,1.71862,0.97601
299.79,35.99497,-3.23976,1.69462,0.97579
300.39,36.0522,-3.24983,1.66934,0.97557
300.99,36.10923,-3.25892,1.6477,0.97535
301.59,36.1663,-3.26829,1.62984,0.97513
302.19,36.2235,-3.27793,1.60965,0.97491
302.79,36.2805,-3.28703,1.59199,0.97468
303.39,36.33768,-3.29707,1.57466,0.97446
303.99,36.39444,-3.30718,1.55851,0.97423
304.59,36.45146,-3.3168,1.54456,0.97401
305.19,36.5086,-3.32676,1.52871,0.97378
305.79,36.56562,-3.33483,1.5201,0.97356
306.39,36.62281,-3.34339,1.50715,0.97333
306.99,36.68,-3.35251,1.49479,0.9731
307.59,36.73701,-3.36215,1.48401,0.97288
308.19,36.79418,-3.37018,1.47564,0.97265
308.79,36.85153,-3.37892,1.46738,0.97242
309.39,36.90871,-3.38936,1.45755,0.97219
309.99,36.9662,-3.39867,1.45244,0.97196
310.59,37.02316,-3.4074,1.44456,0.97173
311.19,37.0801,-3.4161,1.44126,0.9715
311.79,37.13739,-3.42571,1.43523,0.97126
312.39,37.19463,-3.43421,1.43075,0.97103
312.99,37.25229,-3.44397,1.42459,0.9708
313.59,37.30961,-3.45406,1.42016,0.97056
314.19,37.36679,-3.4618,1.4165,0.97033
314.79,37.42413,-3.46919,1.41233,0.97009
315.39,37.48126,-3.47935,1.41091,0.96986
315.99,37.53852,-3.48989,1.4055,0.96962
316.59,37.59599,-3.49829,1.40518,0.96938
317.19,37.65339,-3.50639,1.40271,0.96915
317.79,37.71097,-3.51597,1.40033,0.96891
318.39,37.7684,-3.52518,1.39798,0.96867
318.99,37.82598,-3.53375,1.39715,0.96843
319.59,37.8834,-3.54338,1.39424,0.96819
320.19,37.94061,-3.55266,1.39349,0.96795
320.79,37.99799,-3.56107,1.39115,0.96771
321.39,38.0552,-3.57041,1.39001,0.96747
321.99,38.11269,-3.57918,1.38907,0.96722
322.59,38.17015,-3.58614,1.38794,0.96698
323.19,38.22759,-3.59691,1.38681,0.96674
323.79,38.28533,-3.60486,1.38718,0.96649
324.39,38.34281,-3.6141,1.38736,0.96625
324.99,38.40062,-3.62338,1.38845,0.966
325.59,38.45817,-3.63227,1.38893,0.96575
326.19,38.51573,-3.64161,1.39122,0.96551
326.79,38.5732,-3.65179,1.39103,0.96526
327.39,38.63085,-3.66058,1.39406,0.96501
327.99,38.68872,-3.66799,1.39336,0.96476
328.59,38.7466,-3.67847,1.39685,0.96451
329.19,38.80417,-3.68679,1.39959,0.96426
329.79,38.86188,-3.69624,1.40093,0.96401
330.39,38.9195,-3.70567,1.40441,0.96376
330.99,38.9771,-3.71449,1.40604,0.96351
331.59,39.03464,-3.72368,1.40894,0.96326
332.19,39.0923,-3.73314,1.41338,0.963
332.79,39.15017,-3.74233,1.4142,0.96275
333.39,39.208,-3.75242,1.41652,0.9625
333.99,39.26559,-3.76193,1.42044,0.96224
334.59,39.32326,-3.77245,1.42128,0.96199
335.19,39.38082,-3.78213,1.42418,0.96173
335.79,39.43882,-3.79108,1.42772,0.96147
336.39,39.49653,-3.80065,1.42994,0.96121
336.99,39.55425,-3.81033,1.43328,0.96096
337.59,39.61184,-3.81936,1.43378,0.9607
338.19,39.66948,-3.82885,1.43519,0.96044
338.79,39.7271,-3.8389,1.43695,0.96018
339.39,39.78434,-3.84957,1.43813,0.95992
339.99,39.8418,-3.85861,1.43917,0.95966
340.59,39.8994,-3.86768,1.43892,0.95939
341.19,39.9574,-3.8771,1.4396,0.95913
341.79,40.01566,-3.88826,1.44057,0.95887
342.39,40.0737,-3.89705,1.44114,0.9586
342.99,40.1313,-3.90731,1.44196,0.95834
343.59,40.18906,-3.91759,1.44053,0.95807
344.19,40.24668,-3.92811,1.44299,0.95781
344.79,40.3043,-3.93788,1.44264,0.95754
345.39,40.36193,-3.94662,1.44235,0.95728
345.99,40.4195,-3.95624,1.44231,0.95701
346.59,40.47733,-3.96765,1.44079,0.95674
347.19,40.53528,-3.97668,1.4386,0.95647
347.79,40.5934,-3.98724,1.43455,0.9562
348.39,40.6509,-3.99622,1.43267,0.95593
348.99,40.70861,-4.00505,1.42737,0.95566
349.59,40.76625,-4.01479,1.4227,0.95539
350.19,40.8234,-4.02541,1.41989,0.95512
350.79,40.88077,-4.0342,1.41248,0.95484
351.39,40.93822,-4.04437,1.40701,0.95457
351.99,40.99564,-4.05487,1.39672,0.9543
352.59,41.05363,-4.06564,1.39151,0.95402
353.19,41.1113,-4.07488,1.38117,0.95375
353.79,41.16907,-4.08445,1.37544,0.95347
354.39,41.22704,-4.0928,1.3657,0.95319
354.99,41.28496,-4.1021,1.35459,0.95292
355.59,41.34264,-4.11251,1.34505,0.95264
356.19,41.40059,-4.12183,1.33614,0.95236
356.79,41.45876,-4.13098,1.32685,0.95208
357.39,41.51705,-4.14037,1.31644,0.9518
357.99,41.5755,-4.15002,1.30708,0.95152
358.59,41.63335,-4.16002,1.29614,0.95124
359.19,41.69138,-4.1687,1.28754,0.95096
359.79,41.7492,-4.17801,1.27925,0.95067
360.39,41.80712,-4.18504,1.27041,0.95039
360.99,41.865,-4.19541,1.26454,0.95011
361.59,41.92289,-4.20475,1.25591,0.94982
362.19,41.9809,-4.21373,1.24977,0.94954
362.79,42.0388,-4.22548,1.24359,0.94925
363.39,42.0968,-4.23403,1.24353,0.94896
363.99,42.15449,-4.24243,1.24178,0.94868
364.59,42.2124,-4.2524,1.24205,0.94839
365.19,42.27057,-4.2613,1.2473,0.9481
365.79,42.32875,-4.27168,1.25501,0.94781
366.39,42.38681,-4.2814,1.26712,0.94752
366.99,42.44478,-4.29087,1.28366,0.94723
367.59,42.5028,-4.29984,1.30598,0.94694
368.19,42.56092,-4.30984,1.33042,0.94665
368.79,42.61907,-4.32214,1.35541,0.94636
369.39,42.6773,-4.33383,1.38468,0.94606
369.99,42.73553,-4.34664,1.41686,0.94577
370.59,42.7936,-4.35776,1.45195,0.94547
371.19,42.85185,-4.36902,1.48282,0.94518
371.79,42.91022,-4.3815,1.51353,0.94488
372.39,42.96845,-4.39371,1.54294,0.94459
372.99,43.0268,-4.40602,1.56688,0.94429
373.59,43.08525,-4.41894,1.58921,0.94399
374.19,43.14373,-4.4329,1.60384,0.94369
374.79,43.20218,-4.44678,1.61729,0.9434
375.39,43.26064,-4.45942,1.62313,0.9431
375.99,43.31888,-4.47224,1.62707,0.9428
376.59,43.37707,-4.4869,1.62763,0.94249
377.19,43.4353,-4.50045,1.62591,0.94219
377.79,43.4935,-4.51257,1.62022,0.94189
378.39,43.55194,-4.52635,1.61447,0.94159
378.99,43.61027,-4.53848,1.60784,0.94128
379.59,43.6687,-4.55116,1.59632,0.94098
380.19,43.7271,-4.56382,1.58775,0.94067
380.79,43.78532,-4.57682,1.57459,0.94037
381.39,43.84344,-4.59035,1.56282,0.94006
381.99,43.9016,-4.6027,1.54825,0.93976
382.59,43.9597,-4.61549,1.53388,0.93945
383.19,44.0178,-4.62698,1.51897,0.93914
383.79,44.07598,-4.63954,1.50508,0.93883
384.39,44.13387,-4.65094,1.48676,0.93852
384.99,44.19206,-4.66298,1.47232,0.93821
385.59,44.25032,-4.67472,1.4539,0.9379
386.19,44.30838,-4.68642,1.43667,0.93759
386.79,44.36676,-4.69899,1.41867,0.93728
387.39,44.42459,-4.71034,1.3999,0.93696
387.99,44.4826,-4.72153,1.3841,0.93665
388.59,44.54067,-4.73278,1.36486,0.93633
389.19,44.5989,-4.74381,1.3486,0.93602
389.79,44.65692,-4.75508,1.33005,0.9357
390.39,44.71513,-4.76639,1.31158,0.93539
390.99,44.7733,-4.77715,1.29477,0.93507
391.59,44.8314,-4.78855,1.27737,0.93475
392.19,44.88943,-4.79998,1.26427,0.93443
392.79,44.94741,-4.80937,1.24643,0.93412
393.39,45.00541,-4.81986,1.23162,0.9338
393.99,45.0634,-4.8309,1.21912,0.93348
394.59,45.1216,-4.84077,1.20157,0.93315
395.19,45.1796,-4.85064,1.18861,0.93283
395.79,45.2376,-4.86208,1.17409,0.93251
396.39,45.2956,-4.8723,1.16158,0.93219
396.99,45.35355,-4.88164,1.15088,0.93186
397.59,45.41148,-4.89189,1.14055,0.93154
398.19,45.46976,-4.90345,1.13101,0.93121
398.79,45.52776,-4.9146,1.12111,0.93089
399.39,45.5858,-4.92464,1.11238,0.93056
399.99,45.64387,-4.9355,1.10442,0.93023
400.59,45.70216,-4.94529,1.09746,0.92991
401.19,45.76057,-4.95681,1.08966,0.92958
401.79,45.81884,-4.96677,1.08478,0.92925
402.39,45.87708,-4.97692,1.07805,0.92892
402.99,45.93542,-4.98769,1.07263,0.92859
403.59,45.99387,-4.99805,1.07065,0.92826
404.19,46.05203,-5.00859,1.06582,0.92792
404.79,46.1102,-5.01899,1.06374,0.92759
405.39,46.1686,-5.02974,1.05902,0.92726
405.99,46.22691,-5.04071,1.05601,0.92692
406.59,46.28552,-5.05245,1.05364,0.92659
407.19,46.34408,-5.0639,1.05114,0.92625
407.79,46.40248,-5.07411,1.05116,0.92592
408.39,46.46083,-5.08557,1.04786,0.92558
408.99,46.51914,-5.09778,1.04529,0.92524
409.59,46.57735,-5.10879,1.04307,0.92491
410.19,46.63578,-5.12114,1.04317,0.92457
410.79,46.69407,-5.13315,1.04281,0.92423
411.39,46.75243,-5.14457,1.04092,0.92389
411.99,46.81065,-5.15555,1.0388,0.92355
412.59,46.86878,-5.16827,1.03752,0.92321
413.19,46.9268,-5.18097,1.03611,0.92286
413.79,46.98469,-5.19364,1.03482,0.92252
414.39,47.0426,-5.20716,1.03423,0.92218
414.99,47.10106,-5.21943,1.0342,0.92183
415.59,47.15981,-5.23281,1.03386,0.92149
416.19,47.2185,-5.2434,1.03368,0.92114
416.79,47.27714,-5.25768,1.03372,0.9208
417.39,47.33547,-5.27224,1.03412,0.92045
417.99,47.39374,-5.28527,1.036,0.9201
418.59,47.4521,-5.29884,1.0365,0.91975
419.19,47.51034,-5.31186,1.03712,0.91941
419.79,47.5685,-5.32593,1.03581,0.91906
420.39,47.62685,-5.34008,1.03842,0.91871
420.99,47.6853,-5.35347,1.03914,0.91835
421.59,47.74386,-5.36868,1.04159,0.918
422.19,47.80234,-5.38255,1.04311,0.91765
422.79,47.86061,-5.39799,1.04578,0.9173
423.39,47.91897,-5.4151,1.05039,0.91694
423.99,47.97735,-5.42988,1.05382,0.91659
424.59,48.03588,-5.44363,1.05761,0.91623
425.19,48.09434,-5.46123,1.06048,0.91588
425.79,48.15279,-5.47646,1.06418,0.91552
426.39,48.2113,-5.49315,1.07004,0.91516
426.99,48.26988,-5.50975,1.07529,0.91481
427.59,48.32826,-5.52694,1.08094,0.91445
428.19,48.3867,-5.54433,1.08578,0.91409
428.79,48.44531,-5.56047,1.09211,0.91373
429.39,48.5039,-5.57869,1.09834,0.91337
429.99,48.56238,-5.59606,1.10782,0.91301
430.59,48.62058,-5.61429,1.11705,0.91264
431.19,48.67893,-5.63234,1.12503,0.91228
431.79,48.73753,-5.65241,1.13127,0.91192
432.39,48.79596,-5.66956,1.14076,0.91155
432.99,48.85491,-5.68959,1.14777,0.91119
433.59,48.91364,-5.70865,1.15574,0.91082
434.19,48.9722,-5.72831,1.16578,0.91046
434.79,49.03115,-5.74835,1.17552,0.91009
435.39,49.0899,-5.76875,1.18582,0.90972
435.99,49.1488,-5.79007,1.19661,0.90936
436.59,49.2073,-5.81104,1.20372,0.90899
437.19,49.2658,-5.83153,1.21467,0.90862
437.79,49.32441,-5.85213,1.22523,0.90825
438.39,49.38295,-5.87497,1.23303,0.90788
438.99,49.44184,-5.89613,1.24463,0.9075
439.59,49.5006,-5.91918,1.25495,0.90713
440.19,49.55942,-5.94022,1.2661,0.90676
440.79,49.61764,-5.9629,1.27356,0.90639
441.39,49.67634,-5.98493,1.28267,0.90601
441.99,49.73507,-6.00841,1.292,0.90564
442.59,49.79408,-6.03061,1.30141,0.90526
443.19,49.8528,-6.05345,1.30981,0.90488
443.79,49.91134,-6.07688,1.32017,0.90451
444.39,49.97003,-6.1002,1.32807,0.90413
444.99,50.02879,-6.12489,1.33949,0.90375
445.59,50.088,-6.14874,1.34573,0.90337
446.19,50.1468,-6.17318,1.35425,0.90299
446.79,50.20557,-6.19733,1.36037,0.90261
447.39,50.26423,-6.22092,1.36767,0.90223
447.99,50.32281,-6.24522,1.37516,0.90185
448.59,50.38154,-6.27079,1.38168,0.90147
449.19,50.44031,-6.29399,1.38991,0.90108
449.79,50.49909,-6.31831,1.39615,0.9007
450.39,50.558,-6.34302,1.40154,0.90031
450.99,50.61638,-6.36895,1.40991,0.89993
451.59,50.67525,-6.39304,1.41486,0.89954
452.19,50.734,-6.41879,1.41985,0.89915
452.79,50.7928,-6.4441,1.42565,0.89877
453.39,50.8517,-6.46835,1.43161,0.89838
453.99,50.91028,-6.49352,1.43714,0.89799
454.59,50.9687,-6.51904,1.44067,0.8976
455.19,51.02707,-6.54392,1.44299,0.89721
455.79,51.0854,-6.5662,1.44286,0.89682
456.39,51.14386,-6.59219,1.44064,0.89643
456.99,51.20304,-6.61655,1.43478,0.89604
457.59,51.26238,-6.64221,1.4295,0.89564
458.19,51.32158,-6.66555,1.42386,0.89525
458.79,51.38046,-6.69058,1.41711,0.89486
459.39,51.43918,-6.71335,1.40929,0.89446
459.99,51.4981,-6.73812,1.40095,0.89406
460.59,51.5567,-6.7606,1.39444,0.89367
461.19,51.61555,-6.78452,1.38424,0.89327
461.79,51.67425,-6.8071,1.37366,0.89287
462.39,51.73296,-6.83058,1.36491,0.89247
462.99,51.79188,-6.85324,1.3558,0.89208
463.59,51.8506,-6.87579,1.34737,0.89168
464.19,51.90933,-6.8986,1.33934,0.89128
464.79,51.96817,-6.91989,1.33057,0.89087
465.39,52.02688,-6.94199,1.32237,0.89047
465.99,52.08549,-6.96288,1.31363,0.89007
466.59,52.14425,-6.985,1.30601,0.88967
467.19,52.2029,-7.00596,1.29788,0.88926
467.79,52.2613,-7.02614,1.29117,0.88886
468.39,52.32011,-7.04542,1.28131,0.88845
468.99,52.37873,-7.06591,1.27466,0.88805
469.59,52.43786,-7.08607,1.26425,0.88764
470.19,52.49706,-7.10572,1.25919,0.88723
470.79,52.5562,-7.1235,1.25308,0.88682
471.39,52.6151,-7.14338,1.24533,0.88642
471.99,52.67414,-7.16057,1.23817,0.88601
472.59,52.73294,-7.17915,1.23088,0.8856
473.19,52.79181,-7.19626,1.22263,0.88519
473.79,52.85075,-7.21329,1.21867,0.88477
474.39,52.90956,-7.22952,1.21485,0.88436
474.99,52.96855,-7.24602,1.20924,0.88395
475.59,53.02746,-7.26367,1.20533,0.88354
476.19,53.08625,-7.27836,1.19888,0.88312
476.79,53.14512,-7.29496,1.19918,0.88271
477.39,53.2039,-7.30903,1.19732,0.88229
477.99,53.263,-7.3239,1.19749,0.88187
478.59,53.32198,-7.33884,1.19909,0.88146
479.19,53.38109,-7.35344,1.20107,0.88104
479.79,53.44,-7.36815,1.20393,0.88062
480.39,53.49873,-7.38018,1.20748,0.8802
480.99,53.5575,-7.39217,1.2137,0.87978
481.59,53.61648,-7.40679,1.22124,0.87936
482.19,53.6753,-7.4181,1.22942,0.87894
482.79,53.7342,-7.43129,1.23817,0.87852
483.39,53.7931,-7.44395,1.25046,0.8781
483.99,53.85205,-7.45682,1.26574,0.87767
484.59,53.9113,-7.46805,1.28252,0.87725
485.19,53.97048,-7.4791,1.30087,0.87683
485.79,54.0294,-7.49164,1.32473,0.8764
486.39,54.08856,-7.50261,1.34611,0.87597
486.99,54.1477,-7.51426,1.37142,0.87555
487.59,54.20674,-7.52668,1.40122,0.87512
488.19,54.26594,-7.53718,1.4333,0.87469
488.79,54.32506,-7.55029,1.46547,0.87426
489.39,54.3841,-7.56228,1.49936,0.87383
489.99,54.44333,-7.57247,1.5361,0.87341
490.59,54.5024,-7.58504,1.57419,0.87297
491.19,54.5616,-7.59752,1.61265,0.87254
491.79,54.62065,-7.60937,1.6567,0.87211
492.39,54.68,-7.62229,1.70234,0.87168
492.99,54.73891,-7.63471,1.749,0.87125
493.59,54.79781,-7.64604,1.79155,0.87081
494.19,54.85728,-7.65796,1.83333,0.87038
494.79,54.9166,-7.67111,1.87094,0.86994
495.39,54.97628,-7.68481,1.90402,0.86951
495.99,55.03584,-7.69882,1.92723,0.86907
496.59,55.095,-7.71113,1.94721,0.86863
497.19,55.1543,-7.72342,1.95831,0.86819
497.79,55.2136,-7.73539,1.96763,0.86775
498.39,55.27275,-7.74947,1.96825,0.86732
498.99,55.33195,-7.76326,1.96889,0.86687
499.59,55.3911,-7.7745,1.96442,0.86643
500.19,55.4498,-7.78735,1.956,0.86599
500.79,55.5089,-7.79928,1.94435,0.86555
501.39,55.5681,-7.81128,1.92858,0.86511
501.99,55.62772,-7.82279,1.91399,0.86466
502.59,55.6875,-7.83507,1.89569,0.86422
503.19,55.7466,-7.848,1.87688,0.86378
503.79,55.80565,-7.8583,1.85518,0.86333
504.39,55.8646,-7.86926,1.83428,0.86288
504.99,55.92357,-7.88087,1.80998,0.86244
505.59,55.98265,-7.89091,1.78454,0.86199
506.19,56.0418,-7.89999,1.76191,0.86154
506.79,56.10099,-7.91105,1.73609,0.86109
507.39,56.1602,-7.92076,1.70635,0.86064
507.99,56.2194,-7.93066,1.68003,0.86019
508.59,56.27831,-7.94028,1.65181,0.85974
509.19,56.33713,-7.94908,1.62379,0.85929
509.79,56.39611,-7.95884,1.59637,0.85884
510.39,56.4552,-7.96919,1.56896,0.85839
510.99,56.51444,-7.97687,1.54066,0.85793
511.59,56.57343,-7.98454,1.51296,0.85748
512.19,56.6325,-7.99362,1.48467,0.85702
512.79,56.69145,-8.00113,1.45825,0.85657
513.39,56.75037,-8.00819,1.43369,0.85611
513.99,56.8096,-8.01695,1.40339,0.85565
514.59,56.8688,-8.02342,1.37852,0.8552
515.19,56.92795,-8.0307,1.35236,0.85474
515.79,56.987,-8.0393,1.32659,0.85428
516.39,57.0459,-8.04543,1.30233,0.85382
516.99,57.10504,-8.05195,1.27686,0.85336
517.59,57.1641,-8.05871,1.25277,0.8529
518.19,57.2231,-8.06368,1.22979,0.85244
518.79,57.2822,-8.06983,1.20797,0.85198
519.39,57.34125,-8.07683,1.18706,0.85151
519.99,57.4,-8.08241,1.16505,0.85105
520.59,57.4589,-8.08747,1.1474,0.85059
521.19,57.51795,-8.09152,1.13086,0.85012
521.79,57.57731,-8.09741,1.10882,0.84965
522.39,57.6369,-8.10422,1.0931,0.84919
522.99,57.6962,-8.10885,1.07297,0.84872
523.59,57.75532,-8.11435,1.05622,0.84825
524.19,57.81465,-8.12091,1.03898,0.84779
524.79,57.87376,-8.12524,1.02342,0.84732
525.39,57.9332,-8.13034,1.00773,0.84685
525.99,57.99256,-8.13502,0.99004,0.84638
526.59,58.0518,-8.13824,0.97569,0.84591
527.19,58.111,-8.14209,0.9582,0.84544
527.79,58.1702,-8.14756,0.94469,0.84496
528.39,58.22971,-8.15076,0.92822,0.84449
528.99,58.28859,-8.15549,0.91574,0.84402
529.59,58.34779,-8.15974,0.90236,0.84354
530.19,58.40693,-8.16273,0.89149,0.84307
530.79,58.46645,-8.16456,0.88113,0.84259
531.39,58.5261,-8.16865,0.86723,0.84212
531.99,58.5854,-8.17134,0.86094,0.84164
532.59,58.64456,-8.17495,0.85224,0.84116
533.19,58.70366,-8.17955,0.84056,0.84069
533.79,58.7629,-8.183,0.83481,0.84021
534.39,58.8222,-8.18652,0.82697,0.83973
534.99,58.8814,-8.18904,0.82095,0.83925
535.59,58.9408,-8.19132,0.8113,0.83877
536.19,59.00003,-8.19538,0.80621,0.83829
536.79,59.05919,-8.1987,0.79941,0.8378
537.39,59.11846,-8.20178,0.79604,0.83732
537.99,59.17779,-8.20528,0.79104,0.83684
538.59,59.2371,-8.20872,0.78391,0.83635
539.19,59.2965,-8.21163,0.78226,0.83587
539.79,59.3558,-8.21407,0.77866,0.83539
540.39,59.41466,-8.21725,0.77123,0.8349
540.99,59.474,-8.22018,0.76658,0.83441
541.59,59.53337,-8.22343,0.76267,0.83393
542.19,59.5928,-8.22737,0.7589,0.83344
542.79,59.65224,-8.23011,0.75698,0.83295
543.39,59.71142,-8.2329,0.7541,0.83246
543.99,59.77074,-8.23434,0.75018,0.83197
544.59,59.8301,-8.23691,0.74702,0.83148
545.19,59.88964,-8.23815,0.74424,0.83099
545.79,59.9493,-8.24163,0.74154,0.8305
546.39,60.00866,-8.24323,0.74292,0.83001
546.99,60.06815,-8.24581,0.73961,0.82951
547.59,60.1273,-8.24875,0.73589,0.82902
548.19,60.18675,-8.25137,0.73674,0.82853
548.79,60.2461,-8.25316,0.73462,0.82803
549.39,60.30529,-8.25631,0.73535,0.82754
549.99,60.36466,-8.25938,0.73346,0.82704
550.59,60.424,-8.26084,0.731,0.82654
551.19,60.48355,-8.26281,0.72947,0.82605
551.79,60.5431,-8.26542,0.72912,0.82555
552.39,60.60233,-8.26976,0.72703,0.82505
552.99,60.6616,-8.27136,0.72595,0.82455
553.59,60.72075,-8.27248,0.72502,0.82405
554.19,60.7802,-8.27313,0.72767,0.82355
554.79,60.83967,-8.27692,0.72418,0.82305
555.39,60.89915,-8.27917,0.72541,0.82255
555.99,60.95855,-8.28167,0.72558,0.82205
556.59,61.01792,-8.28297,0.72571,0.82154
557.19,61.07724,-8.28584,0.7255,0.82104
557.79,61.1364,-8.28808,0.72601,0.82054
558.39,61.1959,-8.29029,0.72503,0.82003
558.99,61.2553,-8.2945,0.72475,0.81953
559.59,61.31482,-8.29714,0.72686,0.81902
560.19,61.37405,-8.29792,0.72644,0.81851
560.79,61.43335,-8.2995,0.72877,0.81801
561.39,61.4925,-8.30181,0.73,0.8175
561.99,61.55185,-8.30497,0.73088,0.81699
562.59,61.6113,-8.30799,0.73145,0.81648
563.19,61.67035,-8.30978,0.73319,0.81597
563.79,61.7302,-8.31139,0.73396,0.81546
564.39,61.78985,-8.31411,0.73572,0.81495
564.99,61.84933,-8.31541,0.73776,0.81444
565.59,61.9089,-8.31846,0.73868,0.81392
566.19,61.96829,-8.32107,0.74071,0.81341
566.79,62.02757,-8.32253,0.74332,0.8129
567.39,62.0866,-8.32409,0.74531,0.81238
567.99,62.14594,-8.32698,0.74724,0.81187
568.59,62.20556,-8.33023,0.75192,0.81135
569.19,62.2657,-8.33078,0.75338,0.81084
569.79,62.3253,-8.33312,0.75919,0.81032
570.39,62.38463,-8.33566,0.76263,0.8098
570.99,62.44396,-8.33731,0.76468,0.80929
571.59,62.5034,-8.33894,0.76933,0.80877
572.19,62.5631,-8.34172,0.77402,0.80825
572.79,62.6229,-8.34462,0.77751,0.80773
573.39,62.68252,-8.34722,0.78151,0.80721
573.99,62.7422,-8.34909,0.78909,0.80669
574.59,62.80158,-8.35069,0.79353,0.80617
575.19,62.86116,-8.35314,0.80022,0.80564
575.79,62.92051,-8.35606,0.80402,0.80512
576.39,62.97991,-8.35832,0.80941,0.8046
576.99,63.03951,-8.3614,0.8188,0.80407
577.59,63.09901,-8.36326,0.82451,0.80355
578.19,63.15877,-8.36587,0.83524,0.80302
578.79,63.21846,-8.37008,0.84193,0.8025
579.39,63.27814,-8.3701,0.85095,0.80197
579.99,63.3377,-8.37324,0.85805,0.80145
580.59,63.3973,-8.37638,0.86697,0.80092
581.19,63.4569,-8.3791,0.88069,0.80039
581.79,63.5165,-8.382,0.888,0.79986
582.39,63.57636,-8.38451,0.90256,0.79933
582.99,63.63625,-8.38737,0.91185,0.7988
583.59,63.696,-8.39039,0.92608,0.79827
584.19,63.756,-8.39263,0.94135,0.79774
584.79,63.8157,-8.3963,0.95465,0.79721
585.39,63.8756,-8.39924,0.97089,0.79668
585.99,63.93524,-8.40222,0.98659,0.79614
586.59,63.995,-8.40481,1.00205,0.79561
587.19,64.05476,-8.40792,1.017,0.79508
587.79,64.1145,-8.41076,1.02957,0.79454
588.39,64.1743,-8.41362,1.04034,0.79401
588.99,64.23391,-8.41493,1.04413,0.79347
589.59,64.29351,-8.41933,1.04298,0.79293
590.19,64.3531,-8.42002,1.0303,0.7924
590.79,64.41285,-8.4231,1.00907,0.79186
591.39,64.47239,-8.42722,0.9831,0.79132
591.99,64.53203,-8.43046,0.96003,0.79078
592.59,64.59167,-8.43514,0.93732,0.79024
593.19,64.6511,-8.43841,0.91305,0.7897
593.79,64.71081,-8.44037,0.89407,0.78916
594.39,64.77033,-8.44347,0.87868,0.78862
594.99,64.82992,-8.44568,0.86091,0.78808
595.59,64.88946,-8.44839,0.84433,0.78754
596.19,64.94879,-8.4514,0.83017,0.78699
596.79,65.0082,-8.45355,0.81691,0.78645
597.39,65.06758,-8.45658,0.8039,0.78591
597.99,65.12709,-8.45813,0.79174,0.78536
598.59,65.18669,-8.46059,0.77995,0.78482
599.19,65.2465,-8.46263,0.76659,0.78427
599.79,65.3061,-8.46526,0.758,0.78373
600.39,65.36565,-8.46841,0.74413,0.78318
600.99,65.42509,-8.46997,0.73537,0.78263
601.59,65.4845,-8.47253,0.72101,0.78208
602.19,65.54404,-8.47508,0.70961,0.78153
602.79,65.60365,-8.47711,0.70159,0.78099
603.39,65.66295,-8.48124,0.69026,0.78044
603.99,65.72259,-8.48252,0.6803,0.77989
604.59,65.78198,-8.48569,0.67178,0.77933
605.19,65.84151,-8.48873,0.6641,0.77878
605.79,65.90127,-8.4907,0.65039,0.77823
606.39,65.96099,-8.4929,0.64094,0.77768
606.99,66.02065,-8.49492,0.63099,0.77713
607.59,66.08046,-8.49688,0.62026,0.77657
608.19,66.14017,-8.49631,0.6119,0.77602
608.79,66.19995,-8.49958,0.60237,0.77546
609.39,66.25959,-8.50127,0.5943,0.77491
609.99,66.31925,-8.50304,0.58453,0.77435
610.59,66.37921,-8.50566,0.57268,0.77379
611.19,66.43889,-8.50816,0.56705,0.77324
611.79,66.49846,-8.51085,0.55637,0.77268
612.39,66.55789,-8.51079,0.55153,0.77212
612.99,66.61748,-8.51349,0.5434,0.77156
613.59,66.6772,-8.51491,0.5352,0.771
614.19,66.7372,-8.51621,0.52643,0.77044
614.79,66.79697,-8.51743,0.5201,0.76988
615.39,66.85647,-8.51898,0.51145,0.76932
615.99,66.9161,-8.52079,0.50357,0.76876
616.59,66.9758,-8.52197,0.495,0.7682
617.19,67.03564,-8.52305,0.48776,0.76764
617.79,67.09527,-8.52435,0.48028,0.76707
618.39,67.15491,-8.52583,0.47281,0.76651
618.99,67.214,-8.52718,0.46738,0.76595
619.59,67.27324,-8.52851,0.46014,0.76538
620.19,67.33243,-8.52945,0.45188,0.76482
620.79,67.39225,-8.53157,0.44538,0.76425
621.39,67.45233,-8.5333,0.43615,0.76368
621.99,67.5125,-8.53282,0.43013,0.76312
622.59,67.57242,-8.53491,0.42276,0.76255
623.19,67.63213,-8.53678,0.41461,0.76198
623.79,67.6917,-8.53813,0.40653,0.76141
624.39,67.75149,-8.53948,0.4021,0.76084
624.99,67.81098,-8.53949,0.39399,0.76028
625.59,67.8706,-8.54089,0.38524,0.75971
626.19,67.93029,-8.5421,0.37757,0.75913
626.79,67.98985,-8.54358,0.37142,0.75856
627.39,68.04943,-8.54486,0.37049,0.75799
627.99,68.10895,-8.54617,0.36184,0.75742
628.59,68.16848,-8.54749,0.35528,0.75685
629.19,68.2282,-8.54848,0.35187,0.75627
629.79,68.28794,-8.5498,0.34252,0.7557
630.39,68.34756,-8.55111,0.33826,0.75513
630.99,68.4071,-8.55243,0.33339,0.75455
631.59,68.46669,-8.55375,0.32714,0.75398
632.19,68.52638,-8.55485,0.32338,0.7534
632.79,68.5862,-8.55541,0.31607,0.75282
633.39,68.64596,-8.55538,0.31498,0.75225
633.99,68.7057,-8.55673,0.30801,0.75167
634.59,68.7656,-8.55803,0.30078,0.75109
635.19,68.82531,-8.55932,0.29583,0.75051
635.79,68.88509,-8.56162,0.29006,0.74993
636.39,68.94466,-8.56149,0.28708,0.74935
636.99,69.00439,-8.56331,0.28064,0.74877
637.59,69.06411,-8.562,0.27679,0.74819
638.19,69.12379,-8.56453,0.27263,0.74761
638.79,69.18359,-8.56563,0.26738,0.74703
639.39,69.2431,-8.56627,0.26588,0.74645
639.99,69.30265,-8.56725,0.2622,0.74587
640.59,69.36239,-8.56722,0.25794,0.74528
641.19,69.42251,-8.56856,0.25538,0.7447
641.79,69.48225,-8.56881,0.25687,0.74412
642.39,69.54224,-8.56933,0.25074,0.74353
642.99,69.602,-8.57022,0.24921,0.74295
643.59,69.6618,-8.57032,0.24887,0.74236
644.19,69.72171,-8.57153,0.24323,0.74178
644.79,69.78145,-8.57217,0.24287,0.74119
645.39,69.8413,-8.5735,0.24393,0.7406
645.99,69.90128,-8.57482,0.24435,0.74001
646.59,69.9614,-8.57612,0.24317,0.73943
647.19,70.02121,-8.57613,0.24201,0.73884
647.79,70.08116,-8.57482,0.23964,0.73825
648.39,70.14094,-8.57482,0.2422,0.73766
648.99,70.2007,-8.57615,0.23825,0.73707
649.59,70.2607,-8.57878,0.24028,0.73648
650.19,70.32056,-8.58009,0.23925,0.73589
650.79,70.3806,-8.57988,0.24006,0.7353
651.39,70.4405,-8.58009,0.23842,0.73471
651.99,70.50015,-8.58015,0.23833,0.73411
652.59,70.5599,-8.58141,0.23312,0.73352
653.19,70.61995,-8.58141,0.23166,0.73293
653.79,70.67981,-8.58272,0.22886,0.73233
654.39,70.74,-8.58141,0.22683,0.73174
654.99,70.79978,-8.58273,0.22707,0.73114
655.59,70.85977,-8.58279,0.22578,0.73055
656.19,70.9196,-8.58536,0.22385,0.72995
656.79,70.97986,-8.58536,0.22252,0.72936
657.39,71.0399,-8.58657,0.22229,0.72876
657.99,71.09994,-8.58657,0.21968,0.72816
658.59,71.15972,-8.58657,0.2186,0.72756
659.19,71.2196,-8.58624,0.21976,0.72697
659.79,71.2794,-8.58658,0.21817,0.72637
660.39,71.33941,-8.5892,0.21647,0.72577
660.99,71.39958,-8.58824,0.21648,0.72517
661.59,71.45963,-8.58921,0.21478,0.72457
662.19,71.51971,-8.58923,0.21414,0.72397
662.79,71.5797,-8.59052,0.21141,0.72337
663.39,71.63971,-8.59052,0.21139,0.72277
663.99,71.69955,-8.59117,0.21156,0.72217
664.59,71.7594,-8.59186,0.2115,0.72156
665.19,71.81928,-8.59217,0.20954,0.72096
665.79,71.87901,-8.59217,0.20919,0.72036
666.39,71.93871,-8.59349,0.2115,0.71975
666.99,71.99845,-8.59349,0.20931,0.71915
667.59,72.05824,-8.59318,0.21057,0.71854
668.19,72.1182,-8.59448,0.2083,0.71794
668.79,72.1781,-8.59316,0.2073,0.71733
669.39,72.23796,-8.59317,0.21089,0.71673
669.99,72.29769,-8.595,0.20898,0.71612
670.59,72.3573,-8.5971,0.2089,0.71552
671.19,72.41722,-8.59711,0.20744,0.71491
671.79,72.477,-8.59711,0.20816,0.7143
672.39,72.53692,-8.59776,0.20615,0.71369
672.99,72.59692,-8.59776,0.20894,0.71308
673.59,72.65683,-8.59735,0.20669,0.71247
674.19,72.71676,-8.59842,0.20684,0.71186
674.79,72.77656,-8.59833,0.20787,0.71125
675.39,72.83634,-8.59903,0.20691,0.71064
675.99,72.89609,-8.59842,0.20471,0.71003
676.59,72.9558,-8.59881,0.20849,0.70942
677.19,73.0154,-8.60073,0.20833,0.70881
677.79,73.07477,-8.60073,0.20848,0.7082
678.39,73.13461,-8.6021,0.20752,0.70759
678.99,73.19448,-8.60205,0.20707,0.70697
679.59,73.25431,-8.60145,0.20709,0.70636
680.19,73.31438,-8.60205,0.20876,0.70575
680.79,73.37451,-8.60322,0.20824,0.70513
681.39,73.435,-8.60497,0.2114,0.70452
681.99,73.49565,-8.60534,0.21043,0.7039
682.59,73.55597,-8.60525,0.20916,0.70329
683.19,73.6159,-8.60666,0.2089,0.70267
683.79,73.67614,-8.60534,0.20895,0.70205
684.39,73.73649,-8.60665,0.20946,0.70144
684.99,73.79677,-8.60803,0.21036,0.70082
685.59,73.85682,-8.60798,0.20882,0.7002
686.19,73.91685,-8.60929,0.21051,0.69959
686.79,73.977,-8.60929,0.21039,0.69897
687.39,74.0373,-8.61062,0.21113,0.69835
687.99,74.09764,-8.61083,0.21166,0.69773
688.59,74.158,-8.61193,0.21329,0.69711
689.19,74.21814,-8.61193,0.21358,0.69649
689.79,74.27853,-8.61321,0.21512,0.69587
690.39,74.3386,-8.61325,0.21349,0.69525
690.99,74.39875,-8.61391,0.21478,0.69463
691.59,74.45876,-8.6139,0.21711,0.694
692.19,74.51907,-8.61489,0.2176,0.69338
692.79,74.5792,-8.61588,0.21917,0.69276
693.39,74.6395,-8.61588,0.21964,0.69214
693.99,74.69968,-8.61486,0.22263,0.69151
694.59,74.75978,-8.61621,0.22173,0.69089
695.19,74.82002,-8.6162,0.2245,0.69027
695.79,74.88016,-8.61753,0.22397,0.68964
696.39,74.9401,-8.61753,0.22559,0.68902
696.99,75.00027,-8.61884,0.22797,0.68839
697.59,75.06051,-8.61889,0.22569,0.68777
698.19,75.12071,-8.62016,0.22832,0.68714
698.79,75.181,-8.62147,0.22801,0.68651
699.39,75.24133,-8.62149,0.23024,0.68589
699.99,75.30156,-8.6228,0.23119,0.68526
700.59,75.36179,-8.62247,0.23215,0.68463
701.19,75.42211,-8.62337,0.23825,0.684
701.79,75.48232,-8.62378,0.24107,0.68338
702.39,75.5424,-8.62237,0.24274,0.68275
702.99,75.60243,-8.62244,0.24432,0.68212
703.59,75.66254,-8.6251,0.24671,0.68149
704.19,75.72281,-8.62409,0.24998,0.68086
704.79,75.78322,-8.6241,0.25189,0.68023
705.39,75.8434,-8.62511,0.25264,0.6796
705.99,75.9036,-8.62643,0.25781,0.67897
706.59,75.9636,-8.62642,0.25937,0.67834
707.19,76.02378,-8.62799,0.26087,0.6777
707.79,76.08389,-8.62817,0.26325,0.67707
708.39,76.1439,-8.62947,0.26782,0.67644
708.99,76.20394,-8.62917,0.27235,0.67581
709.59,76.264,-8.62917,0.27693,0.67517
710.19,76.32422,-8.63043,0.27995,0.67454
710.79,76.38432,-8.62944,0.27984,0.67391
711.39,76.44447,-8.63048,0.2853,0.67327
711.99,76.50442,-8.63174,0.28637,0.67264
712.59,76.56451,-8.63188,0.29023,0.672
713.19,76.62456,-8.63312,0.29452,0.67137
713.79,76.68463,-8.63367,0.2969,0.67073
714.39,76.74468,-8.63411,0.29836,0.6701
714.99,76.80479,-8.63411,0.30213,0.66946
715.59,76.86505,-8.6354,0.30852,0.66882
716.19,76.92528,-8.63678,0.31309,0.66819
716.79,76.98521,-8.63674,0.31796,0.66755
717.39,77.04515,-8.6381,0.32085,0.66691
717.99,77.1052,-8.63805,0.3294,0.66627
718.59,77.16539,-8.63937,0.33334,0.66563
719.19,77.22572,-8.64001,0.34058,0.665
719.79,77.28573,-8.64069,0.34579,0.66436
720.39,77.3456,-8.64072,0.35803,0.66372
720.99,77.40536,-8.64102,0.36526,0.66308
721.59,77.46551,-8.64107,0.37172,0.66244
722.19,77.526,-8.64102,0.37816,0.6618
722.79,77.58633,-8.64225,0.38388,0.66116
723.39,77.64671,-8.64367,0.39023,0.66052
723.99,77.70692,-8.64497,0.39671,0.65987
724.59,77.76716,-8.64365,0.40219,0.65923
725.19,77.82735,-8.64497,0.40887,0.65859
725.79,77.88747,-8.64518,0.41218,0.65795
726.39,77.94766,-8.64629,0.41542,0.6573
726.99,78.0079,-8.64653,0.41507,0.65666
727.59,78.06826,-8.6476,0.4149,0.65602
728.19,78.12862,-8.64761,0.41357,0.65537
728.79,78.18881,-8.64893,0.40875,0.65473
729.39,78.24898,-8.64893,0.4054,0.65409
729.99,78.30926,-8.64893,0.40079,0.65344
730.59,78.36952,-8.65025,0.39389,0.6528
731.19,78.42981,-8.65155,0.38384,0.65215
731.79,78.48969,-8.65057,0.38034,0.65151
732.39,78.5496,-8.65188,0.37247,0.65086
732.99,78.6099,-8.65194,0.36457,0.65021
733.59,78.67023,-8.65321,0.35493,0.64957
734.19,78.73099,-8.65452,0.34842,0.64892
734.79,78.79134,-8.65585,0.33999,0.64827
735.39,78.8516,-8.65552,0.33199,0.64763
735.99,78.91194,-8.6551,0.31917,0.64698
736.59,78.97219,-8.65551,0.31027,0.64633
737.19,79.03234,-8.65684,0.29746,0.64568
737.79,79.09252,-8.65754,0.29146,0.64503
738.39,79.1527,-8.65684,0.2897,0.64438
738.99,79.21308,-8.65935,0.28515,0.64374
739.59,79.27338,-8.66077,0.28256,0.64309
740.19,79.33358,-8.66078,0.28023,0.64244
740.79,79.39384,-8.6622,0.27824,0.64179
741.39,79.45408,-8.66251,0.27535,0.64114
741.99,79.51475,-8.66236,0.27406,0.64049
742.59,79.57519,-8.66341,0.2748,0.63983
743.19,79.63541,-8.66338,0.27324,0.63918
743.79,79.69577,-8.66445,0.27281,0.63853
744.39,79.7561,-8.66469,0.27243,0.63788
744.99,79.8164,-8.66606,0.27338,0.63723
745.59,79.8767,-8.66601,0.26871,0.63658
746.19,79.93679,-8.66737,0.26984,0.63592
746.79,79.9967,-8.66869,0.27253,0.63527