File: 01_Data/Rubber_Foam_Pipe_Insulation/STA/N2/10K_min/Rubber_Foam_Pipe_Insulation_STA_N2_10KData_220922_R4.csv
##Temp./Â°C,Time/min,Mass loss(subtr.2)/mg,DSC(subtr.2)/(mW/mg),Sensit./(uV/mW)
50.426,10.00917,-0.00044,-0.007320341,1.02682
51.026,10.79921,0.002528138,0.02306297,1.02677
51.626,11.01657,-0.003636078,0.04504739,1.02671
52.226,11.1782,3.404936e-05,0.06247827,1.02666
52.826,11.3186,-0.001755455,0.07819758,1.02661
53.426,11.44202,0.004199613,0.08879587,1.02656
54.026,11.555,0.000224508,0.10158,1.02651
54.626,11.661,0.00429987,0.1125,1.02645
55.226,11.7612,0.003084165,0.11866,1.0264
55.826,11.8576,0.00465006,0.12849,1.02635
56.426,11.9505,0.006701545,0.13529,1.02629
57.026,12.03999,0.009021021,0.14076,1.02624
57.626,12.12704,0.004457858,0.14857,1.02618
58.226,12.2122,0.003009828,0.15336,1.02613
58.826,12.29605,0.0003015943,0.15898,1.02608
59.426,12.37819,-0.002323922,0.16445,1.02602
60.026,12.4591,-0.00142409,0.16776,1.02597
60.626,12.5388,0.001290825,0.17213,1.02591
61.226,12.61713,0.004528158,0.17522,1.02586
61.826,12.695,0.006349774,0.17786,1.0258
62.426,12.77196,0.00400774,0.17987,1.02574
63.026,12.84751,0.000143593,0.18321,1.02569
63.626,12.9225,-0.001734997,0.18595,1.02563
64.226,12.9967,-0.00289836,0.18995,1.02558
64.826,13.07067,-0.00296454,0.1901,1.02552
65.426,13.14371,-0.00194363,0.19152,1.02546
66.026,13.2164,-0.0002258513,0.19378,1.0254
66.626,13.28844,0.00105303,0.1946,1.02535
67.226,13.3599,0.002414837,0.195,1.02529
67.826,13.43072,0.00504037,0.19662,1.02523
68.426,13.50105,0.005937144,0.19581,1.02517
69.026,13.57116,0.00405933,0.19673,1.02511
69.626,13.641,0.001404198,0.19801,1.02506
70.226,13.7106,0.000799868,0.19748,1.025
70.826,13.7798,-0.0007287314,0.1999,1.02494
71.426,13.8486,-0.00220038,0.20001,1.02488
72.026,13.9168,-0.004010697,0.20476,1.02482
72.626,13.98451,-0.004061885,0.20397,1.02476
73.226,14.05192,-0.0009584706,0.20667,1.0247
73.826,14.1194,-0.001115541,0.20779,1.02464
74.426,14.18649,-0.0009445086,0.20963,1.02458
75.026,14.2535,0.003187631,0.21037,1.02452
75.626,14.3196,0.004385605,0.21092,1.02445
76.226,14.3858,0.00713183,0.21232,1.02439
76.826,14.4517,0.009707681,0.21094,1.02433
77.426,14.5178,0.008875185,0.21285,1.02427
78.026,14.58332,0.00672386,0.2164,1.02421
78.626,14.64846,0.003236013,0.21726,1.02414
79.226,14.71326,0.001234916,0.21693,1.02408
79.826,14.7782,0.00134437,0.21949,1.02402
80.426,14.8431,0.002922523,0.21847,1.02395
81.026,14.9077,0.00221324,0.22057,1.02389
81.626,14.9719,0.0003399785,0.22064,1.02383
82.226,15.036,0.000205408,0.22512,1.02376
82.826,15.10011,-0.0006342742,0.22866,1.0237
83.426,15.16381,-0.0002557915,0.22592,1.02363
84.026,15.2272,-0.000695715,0.2287,1.02357
84.626,15.29013,-0.001252512,0.22931,1.0235
85.226,15.3528,-0.00256187,0.23157,1.02344
85.826,15.41562,-0.00274122,0.232,1.02337
86.426,15.47815,-0.003019414,0.23452,1.02331
87.026,15.54057,-0.0027427,0.23524,1.02324
87.626,15.603,-0.003224921,0.23559,1.02317
88.226,15.66504,-0.002124164,0.23612,1.02311
88.826,15.7271,-0.002160192,0.23805,1.02304
89.426,15.7888,-0.0007589054,0.23995,1.02297
90.026,15.85034,-0.0016762,0.23969,1.0229
90.626,15.9117,-0.003361737,0.24074,1.02284
91.226,15.97303,-0.004437801,0.24006,1.02277
91.826,16.03405,-0.00270015,0.24159,1.0227
92.426,16.0949,-0.000769995,0.24157,1.02263
93.026,16.15588,-0.0007674416,0.24193,1.02256
93.626,16.21677,-0.002496989,0.2449,1.02249
94.226,16.27749,-0.004036349,0.24453,1.02242
94.826,16.33812,-0.00406017,0.24684,1.02235
95.426,16.39837,-0.004059521,0.24819,1.02228
96.026,16.45859,-0.00306835,0.24931,1.02221
96.626,16.51868,-0.00307,0.24984,1.02214
97.226,16.5789,-0.003070041,0.24968,1.02207
97.826,16.63893,-0.00165934,0.25155,1.022
98.426,16.69879,-0.00131822,0.25208,1.02193
99.026,16.75861,-0.001330025,0.25583,1.02186
99.626,16.81825,-0.001305262,0.25471,1.02178
100.226,16.87787,-0.001293148,0.25628,1.02171
100.826,16.93746,-0.004172697,0.25855,1.02164
101.426,16.99704,-0.00595524,0.25939,1.02157
102.026,17.05656,-0.007449199,0.26015,1.02149
102.626,17.11601,-0.00276995,0.25874,1.02142
103.226,17.17539,0.001758829,0.26154,1.02135
103.826,17.2346,0.003070432,0.26181,1.02127
104.426,17.29373,0.003047707,0.26226,1.0212
105.026,17.3524,0.000393463,0.26244,1.02112
105.626,17.41147,-0.002054023,0.26637,1.02105
106.226,17.47055,-0.00283948,0.26746,1.02097
106.826,17.53006,-0.00491041,0.26541,1.0209
107.426,17.58911,-0.00625735,0.26619,1.02082
108.026,17.64783,-0.00690832,0.26675,1.02074
108.626,17.70684,-0.00674612,0.26776,1.02067
109.226,17.7656,-0.006678479,0.26963,1.02059
109.826,17.82464,-0.00844559,0.26881,1.02051
110.426,17.8837,-0.008449295,0.27032,1.02044
111.026,17.94259,-0.006711248,0.27163,1.02036
111.626,18.00149,-0.00648811,0.27279,1.02028
112.226,18.06005,-0.0064792,0.27346,1.0202
112.826,18.11882,-0.007136179,0.27461,1.02012
113.426,18.17764,-0.005818915,0.27541,1.02004
114.026,18.23648,-0.005819999,0.27811,1.01996
114.626,18.2952,-0.005819927,0.27966,1.01988
115.226,18.35383,-0.005575676,0.28042,1.0198
115.826,18.4124,-0.00582249,0.28316,1.01972
116.426,18.47099,-0.007130514,0.28239,1.01964
117.026,18.52946,-0.006445115,0.28141,1.01956
117.626,18.58791,-0.005808759,0.28432,1.01948
118.226,18.64647,-0.004407132,0.28545,1.0194
118.826,18.70497,-0.005819886,0.28798,1.01932
119.426,18.76321,-0.005819601,0.28546,1.01924
120.026,18.82185,-0.00711539,0.28783,1.01915
120.626,18.88028,-0.007139249,0.28374,1.01907
121.226,18.9386,-0.00846324,0.28403,1.01899
121.826,18.9967,-0.008805729,0.28249,1.0189
122.426,19.05474,-0.009756861,0.28107,1.01882
123.026,19.11296,-0.007484071,0.28167,1.01874
123.626,19.17096,-0.005811452,0.2804,1.01865
124.226,19.22916,-0.00580999,0.27932,1.01857
124.826,19.28743,-0.004507265,0.27952,1.01848
125.426,19.3458,-0.006580587,0.27957,1.0184
126.026,19.4036,-0.009436758,0.28054,1.01831
126.626,19.46167,-0.009549917,0.2811,1.01822
127.226,19.51976,-0.00819958,0.28093,1.01814
127.826,19.57781,-0.00822999,0.28023,1.01805
128.426,19.6358,-0.007845513,0.28037,1.01796
129.026,19.69351,-0.008481155,0.28237,1.01788
129.626,19.75134,-0.009177449,0.28319,1.01779
130.226,19.809,-0.01186045,0.28327,1.0177
130.826,19.8669,-0.01186004,0.28435,1.01761
131.426,19.9248,-0.01146417,0.2834,1.01752
132.026,19.98264,-0.00847006,0.28498,1.01744
132.626,20.04046,-0.009964666,0.28315,1.01735
133.226,20.09795,-0.01130084,0.28541,1.01726
133.826,20.15531,-0.01199706,0.28781,1.01717
134.426,20.21327,-0.0148802,0.28844,1.01708
135.026,20.271,-0.01593785,0.28818,1.01698
135.626,20.32863,-0.01603003,0.28942,1.01689
136.226,20.38635,-0.0159971,0.28724,1.0168
136.826,20.44383,-0.01175404,0.28804,1.01671
137.426,20.5015,-0.01053063,0.28832,1.01662
138.026,20.5591,-0.01186011,0.28746,1.01653
138.626,20.61662,-0.01177172,0.29035,1.01643
139.226,20.67415,-0.0136295,0.28965,1.01634
139.826,20.7315,-0.01576327,0.29168,1.01625
140.426,20.78878,-0.0177785,0.29147,1.01615
141.026,20.84617,-0.01830473,0.29259,1.01606
141.626,20.9036,-0.01843896,0.29234,1.01596
142.226,20.96112,-0.01568089,0.29335,1.01587
142.826,21.01879,-0.01579719,0.29361,1.01577
143.426,21.0762,-0.014492,0.29503,1.01568
144.026,21.1338,-0.01357137,0.29222,1.01558
144.626,21.1908,-0.01482037,0.29299,1.01549
145.226,21.24778,-0.01481967,0.29205,1.01539
145.826,21.30482,-0.01611798,0.29542,1.01529
146.426,21.3618,-0.01608416,0.29508,1.01519
147.026,21.41924,-0.01713225,0.29324,1.0151
147.626,21.47648,-0.01844946,0.29627,1.015
148.226,21.53377,-0.01844993,0.29495,1.0149
148.826,21.59094,-0.01693875,0.29692,1.0148
149.426,21.6481,-0.01570489,0.29606,1.0147
150.026,21.70514,-0.01570004,0.29644,1.0146
150.626,21.76224,-0.01576135,0.29641,1.0145
151.226,21.8194,-0.01570636,0.29752,1.0144
151.826,21.87654,-0.01872661,0.29866,1.0143
152.426,21.93368,-0.02007796,0.29763,1.0142
153.026,21.9907,-0.02141458,0.29805,1.0141
153.626,22.0477,-0.02140923,0.29813,1.014
154.226,22.10484,-0.02041993,0.29934,1.01389
154.826,22.16196,-0.02174412,0.30049,1.01379
155.426,22.21905,-0.02305641,0.30198,1.01369
156.026,22.27589,-0.02152215,0.3012,1.01358
156.626,22.33292,-0.01793888,0.30106,1.01348
157.226,22.3899,-0.01491523,0.30411,1.01338
157.826,22.4466,-0.01813186,0.3024,1.01327
158.426,22.50348,-0.02176008,0.30436,1.01317
159.026,22.56032,-0.02531284,0.3063,1.01306
159.626,22.61735,-0.02724831,0.30604,1.01296
160.226,22.67468,-0.02409476,0.30794,1.01285
160.826,22.73162,-0.02251915,0.30817,1.01274
161.426,22.78858,-0.02382915,0.31006,1.01264
162.026,22.84555,-0.02521845,0.31061,1.01253
162.626,22.9026,-0.02773075,0.31217,1.01242
163.226,22.95965,-0.02772243,0.31357,1.01231
163.826,23.0161,-0.02234353,0.3128,1.01221
164.426,23.07295,-0.02330314,0.31478,1.0121
165.026,23.12988,-0.02815535,0.31556,1.01199
165.626,23.18692,-0.02940875,0.31828,1.01188
166.226,23.24438,-0.02941811,0.32004,1.01177
166.826,23.30131,-0.0279331,0.32051,1.01166
167.426,23.3584,-0.02679001,0.32175,1.01155
168.026,23.41535,-0.02668998,0.32481,1.01144
168.626,23.47231,-0.02676884,0.32646,1.01133
169.226,23.52935,-0.02820989,0.32688,1.01121
169.826,23.58651,-0.02963549,0.32862,1.0111
170.426,23.64349,-0.03093629,0.33072,1.01099
171.026,23.70044,-0.03093772,0.33307,1.01088
171.626,23.75732,-0.03227134,0.33327,1.01076
172.226,23.8142,-0.03227,0.33659,1.01065
172.826,23.87109,-0.03227264,0.33702,1.01053
173.426,23.92791,-0.03292838,0.33941,1.01042
174.026,23.98501,-0.03293504,0.33938,1.0103
174.626,24.04218,-0.03228968,0.34252,1.01019
175.226,24.09957,-0.03429657,0.34478,1.01007
175.826,24.1566,-0.03623098,0.34648,1.00996
176.426,24.21347,-0.03909208,0.35013,1.00984
177.026,24.2704,-0.04040029,0.34993,1.00972
177.626,24.3274,-0.04040037,0.35539,1.00961
178.226,24.3843,-0.03914163,0.35639,1.00949
178.826,24.44124,-0.03908001,0.3587,1.00937
179.426,24.49811,-0.03908,0.35973,1.00925
180.026,24.55499,-0.04016966,0.36412,1.00913
180.626,24.61197,-0.04347557,0.36626,1.00901
181.226,24.6691,-0.04401284,0.3675,1.00889
181.826,24.72622,-0.04501077,0.371,1.00877
182.426,24.7834,-0.04371638,0.37398,1.00865
183.026,24.84048,-0.0441161,0.37533,1.00853
183.626,24.89738,-0.04805448,0.37819,1.00841
184.226,24.95436,-0.0471051,0.38122,1.00829
184.826,25.01122,-0.04808411,0.3821,1.00816
185.426,25.06833,-0.05072267,0.38493,1.00804
186.026,25.12535,-0.05233658,0.38765,1.00792
186.626,25.18236,-0.05467898,0.39037,1.00779
187.226,25.239,-0.0559929,0.3918,1.00767
187.826,25.29588,-0.05599002,0.39415,1.00754
188.426,25.35274,-0.05599,0.39708,1.00742
189.026,25.4097,-0.05599,0.3994,1.00729
189.626,25.46678,-0.05599029,0.40072,1.00717
190.226,25.52348,-0.05703037,0.40242,1.00704
190.826,25.58049,-0.05729595,0.40358,1.00691
191.426,25.63736,-0.05598246,0.40592,1.00679
192.026,25.69445,-0.05731198,0.40926,1.00666
192.626,25.75129,-0.06192769,0.40923,1.00653
193.226,25.80804,-0.06443671,0.41176,1.0064
193.826,25.8649,-0.06443999,0.41399,1.00627
194.426,25.9217,-0.06443873,0.41628,1.00614
195.026,25.97856,-0.0642295,0.41753,1.00601
195.626,26.03565,-0.06421706,0.41919,1.00588
196.226,26.09224,-0.06558861,0.41946,1.00575
196.826,26.14905,-0.06817394,0.42101,1.00562
197.426,26.20611,-0.07011993,0.4248,1.00549
198.026,26.26298,-0.07266132,0.42587,1.00536
198.626,26.32044,-0.07581839,0.42715,1.00523
199.226,26.3774,-0.07746281,0.42681,1.00509
199.826,26.43427,-0.08039833,0.42967,1.00496
200.426,26.49125,-0.08001929,0.43066,1.00483
201.026,26.5481,-0.07805351,0.43033,1.00469
201.626,26.6049,-0.07805652,0.43093,1.00456
202.226,26.6618,-0.07806392,0.43076,1.00442
202.826,26.7186,-0.08077768,0.43294,1.00429
203.426,26.7754,-0.08352845,0.43361,1.00415
204.026,26.83213,-0.08480015,0.43506,1.00401
204.626,26.8888,-0.08679839,0.43505,1.00388
205.226,26.9453,-0.08867214,0.43484,1.00374
205.826,27.00217,-0.09012986,0.4343,1.0036
206.426,27.05892,-0.09012948,0.43688,1.00346
207.026,27.1159,-0.09144172,0.43671,1.00332
207.626,27.1729,-0.09272951,0.43666,1.00318
208.226,27.22976,-0.09463768,0.4361,1.00304
208.826,27.2866,-0.09590212,0.43617,1.0029
209.426,27.3436,-0.09907085,0.43853,1.00276
210.026,27.40059,-0.102,0.43624,1.00262
210.626,27.4574,-0.10328,0.43906,1.00248
211.226,27.5141,-0.10512,0.43716,1.00234
211.826,27.571,-0.10142,0.43711,1.0022
212.426,27.62783,-0.10008,0.43751,1.00205
213.026,27.6848,-0.10532,0.44019,1.00191
213.626,27.7417,-0.11076,0.44042,1.00177
214.226,27.7982,-0.11203,0.44286,1.00162
214.826,27.85528,-0.112,0.44124,1.00148
215.426,27.9121,-0.11329,0.44304,1.00133
216.026,27.96923,-0.11428,0.44408,1.00119
216.626,28.02615,-0.11492,0.44489,1.00104
217.226,28.08297,-0.1163,0.44761,1.00089
217.826,28.13958,-0.11859,0.45011,1.00075
218.426,28.19637,-0.12179,0.45258,1.0006
219.026,28.25315,-0.12606,0.455,1.00045
219.626,28.31012,-0.12715,0.4589,1.0003
220.226,28.3673,-0.12846,0.46329,1.00015
220.826,28.4243,-0.12871,0.46776,1.0
221.426,28.48123,-0.12977,0.47263,0.99985
222.026,28.53805,-0.13109,0.47795,0.9997
222.626,28.595,-0.13105,0.48191,0.99955
223.226,28.65199,-0.13229,0.48691,0.9994
223.826,28.7089,-0.13435,0.49548,0.99925
224.426,28.76574,-0.13772,0.50401,0.9991
225.026,28.8229,-0.13934,0.50967,0.99894
225.626,28.8799,-0.14195,0.5184,0.99879
226.226,28.93726,-0.14596,0.528,0.99864
226.826,28.99438,-0.15001,0.53808,0.99848
227.426,29.05136,-0.15568,0.54878,0.99833
228.026,29.10797,-0.15823,0.56252,0.99817
228.626,29.16505,-0.1621,0.57198,0.99801
229.226,29.222,-0.15918,0.58446,0.99786
229.826,29.2794,-0.16009,0.59768,0.9977
230.426,29.33666,-0.16358,0.61118,0.99754
231.026,29.3937,-0.1665,0.62791,0.99739
231.626,29.45073,-0.16992,0.6421,0.99723
232.226,29.5079,-0.17325,0.66095,0.99707
232.826,29.5649,-0.17774,0.67831,0.99691
233.426,29.62193,-0.1834,0.69766,0.99675
234.026,29.6791,-0.18872,0.71819,0.99659
234.626,29.73625,-0.19242,0.73616,0.99643
235.226,29.7934,-0.19031,0.756,0.99627
235.826,29.85067,-0.18684,0.77731,0.99611
236.426,29.9079,-0.19608,0.80014,0.99594
237.026,29.96493,-0.20394,0.82612,0.99578
237.626,30.02212,-0.20765,0.84774,0.99562
238.226,30.0793,-0.21123,0.87164,0.99545
238.826,30.13625,-0.21632,0.8979,0.99529
239.426,30.1935,-0.2212,0.92096,0.99512
240.026,30.2504,-0.22728,0.94234,0.99496
240.626,30.3077,-0.23373,0.95864,0.99479
241.226,30.3653,-0.23991,0.95853,0.99463
241.826,30.42254,-0.24651,0.93924,0.99446
242.426,30.47999,-0.25096,0.90217,0.99429
243.026,30.53711,-0.257,0.85204,0.99412
243.626,30.59409,-0.26162,0.79796,0.99396
244.226,30.6507,-0.26621,0.74371,0.99379
244.826,30.7075,-0.27092,0.68895,0.99362
245.426,30.7642,-0.27749,0.64006,0.99345
246.026,30.82102,-0.28141,0.59696,0.99328
246.626,30.87805,-0.28478,0.56198,0.99311
247.226,30.93465,-0.28979,0.53458,0.99293
247.826,30.9916,-0.29658,0.52112,0.99276
248.426,31.04856,-0.30294,0.51229,0.99259
249.026,31.10551,-0.30799,0.51141,0.99242
249.626,31.1626,-0.31585,0.51649,0.99224
250.226,31.21942,-0.32447,0.52643,0.99207
250.826,31.2763,-0.33155,0.53576,0.99189
251.426,31.3334,-0.33765,0.55008,0.99172
252.026,31.39044,-0.34536,0.56215,0.99154
252.626,31.44763,-0.35381,0.5745,0.99137
253.226,31.50474,-0.36168,0.58838,0.99119
253.826,31.5618,-0.37076,0.59584,0.99101
254.426,31.6189,-0.37871,0.60366,0.99083
255.026,31.67623,-0.38837,0.60774,0.99066
255.626,31.73306,-0.3971,0.6103,0.99048
256.226,31.7898,-0.40585,0.61003,0.9903
256.826,31.84678,-0.41465,0.607,0.99012
257.426,31.9038,-0.42479,0.60096,0.98994
258.026,31.9608,-0.43463,0.5921,0.98976
258.626,32.018,-0.44489,0.57612,0.98957
259.226,32.075,-0.45829,0.55844,0.98939
259.826,32.13216,-0.47178,0.53192,0.98921
260.426,32.18973,-0.48502,0.48828,0.98903
261.026,32.24665,-0.49811,0.43404,0.98884
261.626,32.3037,-0.51637,0.35939,0.98866
262.226,32.36052,-0.53061,0.26666,0.98847
262.826,32.4172,-0.54812,0.15921,0.98829
263.426,32.47376,-0.5699,0.03849491,0.9881
264.026,32.5304,-0.59233,-0.07313489,0.98792
264.626,32.58697,-0.61669,-0.17331,0.98773
265.226,32.64342,-0.64052,-0.24099,0.98754
265.826,32.69985,-0.66387,-0.26669,0.98735
266.426,32.75609,-0.68789,-0.2493,0.98717
267.026,32.8127,-0.7114,-0.18986,0.98698
267.626,32.8694,-0.73332,-0.1005,0.98679
268.226,32.92641,-0.75171,0.00791598,0.9866
268.826,32.98361,-0.76854,0.11687,0.98641
269.426,33.0411,-0.78365,0.22552,0.98621
270.026,33.0986,-0.79666,0.32403,0.98602
270.626,33.15613,-0.81065,0.41,0.98583
271.226,33.21355,-0.81939,0.47951,0.98564
271.826,33.27066,-0.82657,0.53829,0.98544
272.426,33.32816,-0.83734,0.58343,0.98525
273.026,33.3857,-0.8435,0.61688,0.98505
273.626,33.4433,-0.84528,0.64354,0.98486
274.226,33.50092,-0.85501,0.65889,0.98466
274.826,33.55832,-0.86747,0.67003,0.98447
275.426,33.61568,-0.87036,0.6763,0.98427
276.026,33.6729,-0.87691,0.67857,0.98407
276.626,33.73042,-0.88559,0.67277,0.98387
277.226,33.78768,-0.89522,0.66553,0.98368
277.826,33.84502,-0.90083,0.66127,0.98348
278.426,33.9022,-0.90623,0.64765,0.98328
279.026,33.9594,-0.9121,0.63474,0.98308
279.626,34.01655,-0.91557,0.6218,0.98288
280.226,34.07332,-0.91824,0.60684,0.98267
280.826,34.13041,-0.92518,0.5929,0.98247
281.426,34.18742,-0.93027,0.57997,0.98227
282.026,34.24443,-0.93513,0.56454,0.98207
282.626,34.30203,-0.93697,0.55049,0.98186
283.226,34.359,-0.94192,0.53568,0.98166
283.826,34.41633,-0.9467,0.52192,0.98145
284.426,34.47335,-0.95005,0.50877,0.98125
285.026,34.5305,-0.95196,0.49606,0.98104
285.626,34.58783,-0.95474,0.4852,0.98084
286.226,34.64501,-0.95926,0.47633,0.98063
286.826,34.70194,-0.96262,0.46396,0.98042
287.426,34.75912,-0.96499,0.45762,0.98021
288.026,34.8161,-0.96734,0.44417,0.98
288.626,34.87311,-0.97106,0.43878,0.9798
289.226,34.93,-0.97538,0.42912,0.97959
289.826,34.98718,-0.98036,0.42461,0.97937
290.426,35.04446,-0.98348,0.41714,0.97916
291.026,35.10219,-0.98678,0.4118,0.97895
291.626,35.15954,-0.98981,0.40374,0.97874
292.226,35.21676,-0.99397,0.40016,0.97853
292.826,35.2739,-0.99881,0.39494,0.97831
293.426,35.3311,-1.00396,0.39166,0.9781
294.026,35.38839,-1.00495,0.38617,0.97788
294.626,35.44555,-1.00635,0.38224,0.97767
295.226,35.50265,-1.00821,0.37979,0.97745
295.826,35.5598,-1.01124,0.3747,0.97724
296.426,35.61699,-1.0138,0.37087,0.97702
297.026,35.67413,-1.01526,0.36698,0.9768
297.626,35.7313,-1.01877,0.36276,0.97658
298.226,35.78881,-1.02043,0.36207,0.97637
298.826,35.84622,-1.02454,0.3582,0.97615
299.426,35.90399,-1.02825,0.35713,0.97593
300.026,35.96139,-1.03147,0.35264,0.97571
300.626,36.01858,-1.03403,0.35142,0.97549
301.226,36.07597,-1.03565,0.34761,0.97526
301.826,36.13292,-1.03866,0.34663,0.97504
302.426,36.19025,-1.04172,0.34396,0.97482
303.026,36.24775,-1.04402,0.3405,0.9746
303.626,36.30543,-1.04593,0.33817,0.97437
304.226,36.36311,-1.04981,0.33708,0.97415
304.826,36.4204,-1.05158,0.33688,0.97392
305.426,36.4777,-1.05503,0.33425,0.9737
306.026,36.53513,-1.05759,0.33251,0.97347
306.626,36.59274,-1.05891,0.33191,0.97324
307.226,36.64996,-1.06192,0.33058,0.97301
307.826,36.70731,-1.06522,0.3283,0.97279
308.426,36.76475,-1.06569,0.3262,0.97256
309.026,36.82227,-1.06891,0.32744,0.97233
309.626,36.87997,-1.07195,0.32488,0.9721
310.226,36.93759,-1.07299,0.32359,0.97187
310.826,36.99518,-1.07451,0.3221,0.97164
311.426,37.0527,-1.07686,0.32055,0.9714
312.026,37.11,-1.08025,0.3204,0.97117
312.626,37.16745,-1.08508,0.31955,0.97094
313.226,37.22486,-1.08884,0.3175,0.97071
313.826,37.2823,-1.09327,0.317,0.97047
314.426,37.33996,-1.09481,0.31956,0.97024
315.026,37.39755,-1.09423,0.31705,0.97
315.626,37.45503,-1.0906,0.31684,0.96976
316.226,37.51265,-1.09502,0.31545,0.96953
316.826,37.5702,-1.09772,0.31557,0.96929
317.426,37.6277,-1.10132,0.31547,0.96905
318.026,37.6852,-1.10389,0.31407,0.96881
318.626,37.74269,-1.10509,0.31241,0.96857
319.226,37.8001,-1.10776,0.31317,0.96834
319.826,37.85754,-1.10975,0.31279,0.96809
320.426,37.915,-1.11371,0.31458,0.96785
321.026,37.97263,-1.11796,0.31155,0.96761
321.626,38.02993,-1.11947,0.31203,0.96737
322.226,38.08746,-1.12125,0.31126,0.96713
322.826,38.14496,-1.12259,0.3092,0.96688
323.426,38.2027,-1.12424,0.3077,0.96664
324.026,38.2607,-1.12618,0.30804,0.9664
324.626,38.31812,-1.12962,0.30636,0.96615
325.226,38.37558,-1.13155,0.3072,0.9659
325.826,38.43253,-1.13539,0.30623,0.96566
326.426,38.48986,-1.13721,0.30531,0.96541
327.026,38.54737,-1.13981,0.30562,0.96516
327.626,38.60519,-1.14179,0.30579,0.96491
328.226,38.6633,-1.14585,0.30401,0.96467
328.826,38.7209,-1.14871,0.30485,0.96442
329.426,38.77845,-1.15024,0.30262,0.96417
330.026,38.8362,-1.15079,0.30315,0.96391
330.626,38.89365,-1.15216,0.30383,0.96366
331.226,38.95138,-1.15474,0.30254,0.96341
331.826,39.009,-1.15875,0.30222,0.96316
332.426,39.06668,-1.16052,0.30274,0.9629
333.026,39.12464,-1.16354,0.30069,0.96265
333.626,39.1822,-1.16595,0.30147,0.9624
334.226,39.2398,-1.16797,0.2996,0.96214
334.826,39.29746,-1.1714,0.30032,0.96188
335.426,39.35499,-1.17355,0.30107,0.96163
336.026,39.41291,-1.17705,0.30078,0.96137
336.626,39.47071,-1.17874,0.30113,0.96111
337.226,39.52851,-1.18007,0.29964,0.96085
337.826,39.58615,-1.18311,0.29816,0.9606
338.426,39.64383,-1.18621,0.29654,0.96034
339.026,39.7016,-1.18891,0.29638,0.96008
339.626,39.75945,-1.18964,0.29681,0.95981
340.226,39.81718,-1.19217,0.29536,0.95955
340.826,39.87482,-1.19253,0.29554,0.95929
341.426,39.93255,-1.19527,0.29461,0.95903
342.026,39.99021,-1.19813,0.29573,0.95876
342.626,40.0481,-1.20082,0.2927,0.9585
343.226,40.10603,-1.20381,0.29193,0.95824
343.826,40.16386,-1.20786,0.29101,0.95797
344.426,40.22156,-1.21017,0.29037,0.9577
345.026,40.2793,-1.21057,0.29165,0.95744
345.626,40.33695,-1.21481,0.28917,0.95717
346.226,40.39458,-1.21894,0.28818,0.9569
346.826,40.45276,-1.22209,0.28845,0.95663
347.426,40.51057,-1.22157,0.28578,0.95636
348.026,40.5687,-1.22307,0.28501,0.95609
348.626,40.62663,-1.22442,0.28678,0.95582
349.226,40.68434,-1.22475,0.28462,0.95555
349.826,40.74212,-1.22735,0.28332,0.95528
350.426,40.79994,-1.23048,0.28326,0.95501
351.026,40.85778,-1.23481,0.28163,0.95474
351.626,40.91561,-1.23931,0.28304,0.95446
352.226,40.97351,-1.24243,0.28104,0.95419
352.826,41.0315,-1.24362,0.28005,0.95391
353.426,41.08941,-1.24374,0.27963,0.95364
354.026,41.14743,-1.24733,0.27919,0.95336
354.626,41.20528,-1.24568,0.27626,0.95308
355.226,41.26308,-1.24824,0.27537,0.95281
355.826,41.32067,-1.25409,0.27593,0.95253
356.426,41.3786,-1.25702,0.27434,0.95225
357.026,41.43653,-1.26008,0.27255,0.95197
357.626,41.49445,-1.26229,0.27112,0.95169
358.226,41.5527,-1.2641,0.27038,0.95141
358.826,41.61057,-1.26568,0.26992,0.95113
359.426,41.66843,-1.26852,0.2686,0.95084
360.026,41.72616,-1.27145,0.26589,0.95056
360.626,41.7841,-1.27288,0.26579,0.95028
361.226,41.842,-1.277,0.26404,0.94999
361.826,41.9003,-1.27967,0.26502,0.94971
362.426,41.95816,-1.28119,0.26334,0.94942
363.026,42.01593,-1.28388,0.26254,0.94914
363.626,42.0738,-1.28601,0.2627,0.94885
364.226,42.13187,-1.28873,0.26326,0.94856
364.826,42.1898,-1.29091,0.263,0.94828
365.426,42.24794,-1.2939,0.26439,0.94799
366.026,42.30595,-1.2962,0.26667,0.9477
366.626,42.36395,-1.29928,0.26922,0.94741
367.226,42.42187,-1.30059,0.27144,0.94712
367.826,42.47968,-1.30475,0.28013,0.94683
368.426,42.53771,-1.30761,0.28611,0.94653
369.026,42.5957,-1.30916,0.2955,0.94624
369.626,42.65405,-1.31238,0.31094,0.94595
370.226,42.71239,-1.31744,0.3258,0.94565
370.826,42.77048,-1.31973,0.34614,0.94536
371.426,42.82825,-1.32273,0.36945,0.94506
372.026,42.8864,-1.32633,0.3957,0.94477
372.626,42.94467,-1.32932,0.42147,0.94447
373.226,43.00315,-1.33315,0.44948,0.94417
373.826,43.06183,-1.33924,0.47507,0.94388
374.426,43.12016,-1.34457,0.49987,0.94358
375.026,43.17843,-1.34652,0.51912,0.94328
375.626,43.23679,-1.35045,0.53634,0.94298
376.226,43.29508,-1.35745,0.54901,0.94268
376.826,43.35345,-1.36157,0.55271,0.94238
377.426,43.41193,-1.36623,0.55533,0.94207
378.026,43.47017,-1.37098,0.55448,0.94177
378.626,43.52839,-1.37573,0.54866,0.94147
379.226,43.58663,-1.38106,0.53787,0.94116
379.826,43.64492,-1.38552,0.52734,0.94086
380.426,43.7031,-1.39059,0.51754,0.94055
381.026,43.76133,-1.39706,0.50538,0.94025
381.626,43.81955,-1.40396,0.49109,0.93994
382.226,43.87774,-1.40924,0.48031,0.93963
382.826,43.93589,-1.4133,0.46921,0.93933
383.426,43.994,-1.41534,0.45632,0.93902
384.026,44.0522,-1.42016,0.44168,0.93871
384.626,44.1105,-1.42325,0.43112,0.9384
385.226,44.1685,-1.42635,0.42233,0.93809
385.826,44.22645,-1.42921,0.40904,0.93778
386.426,44.28459,-1.4322,0.39468,0.93747
387.026,44.34278,-1.43554,0.3839,0.93715
387.626,44.40136,-1.43894,0.37321,0.93684
388.226,44.4598,-1.44327,0.36187,0.93653
388.826,44.518,-1.44713,0.35265,0.93621
389.426,44.57633,-1.45085,0.34248,0.9359
390.026,44.63455,-1.45419,0.33204,0.93558
390.626,44.69275,-1.45716,0.32325,0.93526
391.226,44.75094,-1.4604,0.31618,0.93495
391.826,44.80907,-1.46396,0.30323,0.93463
392.426,44.8673,-1.46543,0.29947,0.93431
393.026,44.9253,-1.4674,0.29147,0.93399
393.626,44.98343,-1.46949,0.28172,0.93367
394.226,45.04155,-1.47357,0.27588,0.93335
394.826,45.0998,-1.47631,0.26927,0.93303
395.426,45.15817,-1.48,0.26292,0.93271
396.026,45.21654,-1.48572,0.25704,0.93238
396.626,45.27489,-1.48895,0.25307,0.93206
397.226,45.33274,-1.49115,0.24807,0.93174
397.826,45.39091,-1.49212,0.24235,0.93141
398.426,45.44913,-1.49546,0.23876,0.93109
399.026,45.5073,-1.49743,0.23387,0.93076
399.626,45.5655,-1.50132,0.23327,0.93043
400.226,45.62359,-1.50423,0.22808,0.9301
400.826,45.68189,-1.50566,0.22525,0.92978
401.426,45.74022,-1.50995,0.22158,0.92945
402.026,45.79834,-1.51351,0.22007,0.92912
402.626,45.85644,-1.51378,0.2182,0.92879
403.226,45.9146,-1.51482,0.21795,0.92846
403.826,45.9729,-1.51985,0.21483,0.92813
404.426,46.03135,-1.52372,0.21331,0.92779
405.026,46.08965,-1.52537,0.21172,0.92746
405.626,46.1479,-1.53011,0.21195,0.92713
406.226,46.2059,-1.53476,0.21006,0.92679
406.826,46.26398,-1.53947,0.20832,0.92646
407.426,46.3224,-1.54077,0.20636,0.92612
408.026,46.38078,-1.54249,0.20635,0.92579
408.626,46.43956,-1.5455,0.2073,0.92545
409.226,46.49779,-1.54716,0.20599,0.92511
409.826,46.55577,-1.54961,0.20586,0.92477
410.426,46.61407,-1.55407,0.20581,0.92443
411.026,46.67225,-1.55749,0.20519,0.9241
411.626,46.73103,-1.56029,0.20552,0.92375
412.226,46.78954,-1.56246,0.20533,0.92341
412.826,46.84791,-1.56569,0.20579,0.92307
413.426,46.90647,-1.56941,0.20638,0.92273
414.026,46.96482,-1.57253,0.2066,0.92239
414.626,47.02335,-1.57658,0.20537,0.92204
415.226,47.08169,-1.58116,0.20689,0.9217
415.826,47.14017,-1.58356,0.20588,0.92135
416.426,47.19865,-1.58678,0.20672,0.92101
417.026,47.25705,-1.59053,0.20545,0.92066
417.626,47.31561,-1.5952,0.20806,0.92031
418.226,47.37373,-1.59869,0.20809,0.91997
418.826,47.43226,-1.6038,0.20981,0.91962
419.426,47.49088,-1.60775,0.21173,0.91927
420.026,47.54965,-1.61264,0.21209,0.91892
420.626,47.60836,-1.61824,0.21198,0.91857
421.226,47.66693,-1.62319,0.21321,0.91822
421.826,47.72532,-1.62604,0.21733,0.91786
422.426,47.78382,-1.62896,0.21688,0.91751
423.026,47.8427,-1.6329,0.21875,0.91716
423.626,47.90161,-1.63796,0.22104,0.9168
424.226,47.96015,-1.64409,0.22212,0.91645
424.826,48.01879,-1.65099,0.22337,0.91609
425.426,48.0773,-1.65812,0.22607,0.91574
426.026,48.1359,-1.66436,0.22914,0.91538
426.626,48.19454,-1.66706,0.23029,0.91502
427.226,48.25294,-1.66892,0.23331,0.91467
427.826,48.31142,-1.67229,0.23285,0.91431
428.426,48.37,-1.67977,0.23439,0.91395
429.026,48.4289,-1.68481,0.2353,0.91359
429.626,48.4875,-1.68853,0.23795,0.91323
430.226,48.54593,-1.69328,0.23931,0.91286
430.826,48.6044,-1.70023,0.24371,0.9125
431.426,48.6629,-1.70345,0.24571,0.91214
432.026,48.72187,-1.70671,0.2485,0.91178
432.626,48.7806,-1.71191,0.25188,0.91141
433.226,48.83916,-1.71898,0.25474,0.91105
433.826,48.89768,-1.72577,0.25682,0.91068
434.426,48.95612,-1.73135,0.25936,0.91031
435.026,49.0148,-1.73632,0.26262,0.90995
435.626,49.07336,-1.74414,0.26473,0.90958
436.226,49.13171,-1.7512,0.26949,0.90921
436.826,49.1903,-1.75767,0.27066,0.90884
437.426,49.24899,-1.76519,0.272,0.90847
438.026,49.30788,-1.77392,0.2758,0.9081
438.626,49.36632,-1.77892,0.27765,0.90773
439.226,49.42483,-1.78542,0.28168,0.90736
439.826,49.48345,-1.79218,0.28396,0.90699
440.426,49.54228,-1.79839,0.28781,0.90661
441.026,49.60111,-1.80646,0.28714,0.90624
441.626,49.65981,-1.81313,0.29021,0.90586
442.226,49.71844,-1.82108,0.29235,0.90549
442.826,49.7772,-1.82562,0.29418,0.90511
443.426,49.8358,-1.82965,0.29738,0.90474
444.026,49.8944,-1.83689,0.30037,0.90436
444.626,49.9531,-1.84433,0.3014,0.90398
445.226,50.01187,-1.85282,0.30193,0.9036
445.826,50.0707,-1.8612,0.30616,0.90322
446.426,50.1295,-1.86757,0.30805,0.90284
447.026,50.18824,-1.87412,0.30902,0.90246
447.626,50.24674,-1.88116,0.3116,0.90208
448.226,50.30535,-1.88689,0.31488,0.9017
448.826,50.36385,-1.89346,0.31512,0.90131
449.426,50.42268,-1.90074,0.31596,0.90093
450.026,50.48149,-1.90908,0.31834,0.90055
450.626,50.54037,-1.91651,0.31927,0.90016
451.226,50.59915,-1.92362,0.32079,0.89978
451.826,50.65769,-1.93327,0.32001,0.89939
452.426,50.71632,-1.9429,0.31947,0.899
453.026,50.77498,-1.95137,0.32371,0.89862
453.626,50.83361,-1.96264,0.32618,0.89823
454.226,50.89245,-1.96893,0.32699,0.89784
454.826,50.9512,-1.97274,0.32535,0.89745
455.426,51.0099,-1.97606,0.32661,0.89706
456.026,51.06857,-1.98359,0.32628,0.89667
456.626,51.12723,-1.9906,0.32802,0.89627
457.226,51.18627,-1.99792,0.32542,0.89588
457.826,51.24504,-2.00629,0.32397,0.89549
458.426,51.30385,-2.01362,0.3229,0.89509
459.026,51.36292,-2.01918,0.32117,0.8947
459.626,51.4218,-2.0257,0.31652,0.8943
460.226,51.4807,-2.03446,0.31276,0.89391
460.826,51.5394,-2.0421,0.31103,0.89351
461.426,51.598,-2.04892,0.30609,0.89311
462.026,51.6567,-2.05724,0.30189,0.89272
462.626,51.71547,-2.06345,0.29819,0.89232
463.226,51.77432,-2.06976,0.29231,0.89192
463.826,51.83315,-2.07618,0.28949,0.89152
464.426,51.89203,-2.08218,0.28474,0.89112
465.026,51.9507,-2.08643,0.28271,0.89072
465.626,52.00953,-2.09306,0.27728,0.89031
466.226,52.06831,-2.09795,0.27638,0.88991
466.826,52.12722,-2.10372,0.27078,0.88951
467.426,52.18605,-2.1077,0.26703,0.8891
468.026,52.24517,-2.11526,0.26544,0.8887
468.626,52.3041,-2.12192,0.26332,0.88829
469.226,52.3631,-2.12814,0.26179,0.88789
469.826,52.42207,-2.1337,0.25531,0.88748
470.426,52.4809,-2.13761,0.25581,0.88707
471.026,52.5398,-2.14367,0.25431,0.88666
471.626,52.59865,-2.1473,0.25146,0.88625
472.226,52.6576,-2.15127,0.25012,0.88584
472.826,52.71655,-2.15569,0.2495,0.88543
473.426,52.7755,-2.16133,0.24779,0.88502
474.026,52.8346,-2.16617,0.24677,0.88461
474.626,52.8935,-2.17022,0.2495,0.8842
475.226,52.9525,-2.17329,0.24711,0.88379
475.826,53.0114,-2.17614,0.24819,0.88337
476.426,53.0702,-2.17985,0.25209,0.88296
477.026,53.1292,-2.18589,0.25487,0.88254
477.626,53.188,-2.19141,0.25372,0.88213
478.226,53.24689,-2.19481,0.25803,0.88171
478.826,53.30571,-2.19531,0.26172,0.88129
479.426,53.36456,-2.1967,0.26732,0.88088
480.026,53.42344,-2.20004,0.27123,0.88046
480.626,53.48216,-2.20463,0.27822,0.88004
481.226,53.54093,-2.20767,0.28205,0.87962
481.826,53.5996,-2.20938,0.29054,0.8792
482.426,53.6582,-2.2151,0.29576,0.87878
483.026,53.71703,-2.22093,0.30136,0.87835
483.626,53.776,-2.22504,0.31195,0.87793
484.226,53.835,-2.23003,0.31773,0.87751
484.826,53.894,-2.22995,0.32515,0.87708
485.426,53.95293,-2.23091,0.33456,0.87666
486.026,54.0118,-2.23627,0.33943,0.87623
486.626,54.0709,-2.24106,0.34682,0.87581
487.226,54.12987,-2.24543,0.35427,0.87538
487.826,54.1887,-2.24721,0.36058,0.87495
488.426,54.2477,-2.25247,0.36733,0.87452
489.026,54.30669,-2.25569,0.37307,0.8741
489.626,54.3656,-2.25826,0.37729,0.87367
490.226,54.4245,-2.25993,0.38238,0.87324
490.826,54.48335,-2.26361,0.38491,0.8728
491.426,54.5423,-2.26695,0.38837,0.87237
492.026,54.60128,-2.26856,0.39153,0.87194
492.626,54.6603,-2.27381,0.39474,0.87151
493.226,54.71917,-2.28173,0.39392,0.87107
493.826,54.77809,-2.28487,0.39603,0.87064
494.426,54.83706,-2.28507,0.39616,0.87021
495.026,54.89609,-2.28236,0.39498,0.86977
495.626,54.95516,-2.28407,0.39165,0.86933
496.226,55.0144,-2.28923,0.39045,0.8689
496.826,55.07334,-2.29277,0.38827,0.86846
497.426,55.13234,-2.29836,0.38512,0.86802
498.026,55.19155,-2.30207,0.383,0.86758
498.626,55.2506,-2.30659,0.37875,0.86714
499.226,55.30975,-2.30797,0.37203,0.8667
499.826,55.36875,-2.30972,0.3692,0.86626
500.426,55.42795,-2.31296,0.36305,0.86582
501.026,55.4865,-2.31381,0.35998,0.86538
501.626,55.5456,-2.31641,0.35303,0.86493
502.226,55.60479,-2.32099,0.34786,0.86449
502.826,55.66412,-2.32333,0.34309,0.86405
503.426,55.72356,-2.3257,0.33554,0.8636
504.026,55.7826,-2.32996,0.3276,0.86315
504.626,55.84177,-2.33256,0.32651,0.86271
505.226,55.90054,-2.33404,0.31907,0.86226
505.826,55.9598,-2.33577,0.31063,0.86181
506.426,56.0189,-2.33872,0.30588,0.86136
507.026,56.0781,-2.34126,0.29794,0.86092
507.626,56.13766,-2.34405,0.29375,0.86047
508.226,56.1968,-2.34535,0.2874,0.86002
508.826,56.25603,-2.34801,0.28274,0.85956
509.426,56.31531,-2.35075,0.27711,0.85911
510.026,56.3745,-2.3526,0.27064,0.85866
510.626,56.4337,-2.35352,0.26562,0.85821
511.226,56.4922,-2.35455,0.26167,0.85775
511.826,56.55129,-2.35667,0.25377,0.8573
512.426,56.61045,-2.35676,0.25098,0.85684
513.026,56.6697,-2.35934,0.24615,0.85639
513.626,56.72911,-2.36066,0.2426,0.85593
514.226,56.7883,-2.36481,0.23647,0.85547
514.826,56.84731,-2.36771,0.22948,0.85502
515.426,56.9065,-2.36939,0.22666,0.85456
516.026,56.9658,-2.37054,0.22305,0.8541
516.626,57.025,-2.37054,0.21615,0.85364
517.226,57.08418,-2.36986,0.21039,0.85318
517.826,57.1435,-2.37282,0.20531,0.85272
518.426,57.2028,-2.37671,0.20001,0.85226
519.026,57.26191,-2.37861,0.19583,0.85179
519.626,57.32114,-2.38123,0.19298,0.85133
520.226,57.3801,-2.38413,0.18671,0.85087
520.826,57.4392,-2.3857,0.18429,0.8504
521.426,57.49834,-2.38746,0.17998,0.84994
522.026,57.5577,-2.38625,0.17589,0.84947
522.626,57.61691,-2.38715,0.17308,0.84901
523.226,57.67621,-2.38744,0.16831,0.84854
523.826,57.7355,-2.38866,0.16463,0.84807
524.426,57.7948,-2.39008,0.15896,0.8476
525.026,57.8541,-2.39053,0.1553,0.84713
525.626,57.9134,-2.39272,0.15118,0.84666
526.226,57.97276,-2.39407,0.14798,0.84619
526.826,58.0321,-2.39405,0.14412,0.84572
527.426,58.0916,-2.39493,0.13878,0.84525
528.026,58.1508,-2.39686,0.13556,0.84478
528.626,58.21011,-2.3981,0.13274,0.8443
529.226,58.26964,-2.39812,0.12958,0.84383
529.826,58.3291,-2.39942,0.1288,0.84336
530.426,58.3886,-2.39942,0.12391,0.84288
531.026,58.448,-2.40197,0.12095,0.84241
531.626,58.5072,-2.40336,0.11936,0.84193
532.226,58.5665,-2.40471,0.11556,0.84145
532.826,58.6258,-2.40344,0.11183,0.84098
533.426,58.68518,-2.40338,0.10807,0.8405
534.026,58.7445,-2.40338,0.10915,0.84002
534.626,58.8038,-2.40493,0.10754,0.83954
535.226,58.8631,-2.40882,0.10657,0.83906
535.826,58.9223,-2.41146,0.10757,0.83858
536.426,58.9817,-2.40959,0.10422,0.8381
537.026,59.0411,-2.40945,0.10108,0.83761
537.626,59.1006,-2.40832,0.10203,0.83713
538.226,59.16004,-2.40963,0.1013,0.83665
538.826,59.2193,-2.41226,0.10226,0.83616
539.426,59.27887,-2.41357,0.10187,0.83568
540.026,59.33855,-2.41487,0.10086,0.83519
540.626,59.39838,-2.41714,0.10175,0.83471
541.226,59.45782,-2.42023,0.10256,0.83422
541.826,59.51715,-2.42111,0.09913681,0.83373
542.426,59.57646,-2.42028,0.0975258,0.83325
543.026,59.63584,-2.4216,0.09902545,0.83276
543.626,59.6954,-2.42301,0.0985362,0.83227
544.226,59.75506,-2.4216,0.09697504,0.83178
544.826,59.8143,-2.421,0.0995112,0.83129
545.426,59.87384,-2.42226,0.09925204,0.8308
546.026,59.93342,-2.42595,0.09927694,0.83031
546.626,59.9932,-2.42763,0.09827534,0.82981
547.226,60.05265,-2.42763,0.09879324,0.82932
547.826,60.1122,-2.42601,0.09812238,0.82883
548.426,60.1716,-2.42415,0.09700875,0.82833
549.026,60.231,-2.42388,0.09908234,0.82784
549.626,60.2904,-2.42795,0.09790697,0.82734
550.226,60.3497,-2.43271,0.09998804,0.82685
550.826,60.40902,-2.43531,0.09732736,0.82635
551.426,60.4684,-2.43663,0.09896961,0.82585
552.026,60.52763,-2.43663,0.09886864,0.82535
552.626,60.5869,-2.43664,0.1001,0.82485
553.226,60.64617,-2.43399,0.10047,0.82435
553.826,60.7057,-2.43272,0.1008,0.82385
554.426,60.7652,-2.43263,0.09860361,0.82335
555.026,60.8245,-2.43351,0.10178,0.82285
555.626,60.88378,-2.43269,0.10421,0.82235
556.226,60.9429,-2.43401,0.10305,0.82185
556.826,61.0022,-2.43425,0.10488,0.82135
557.426,61.06134,-2.43677,0.10736,0.82084
558.026,61.12079,-2.43686,0.10728,0.82034
558.626,61.1801,-2.4383,0.10917,0.81983
559.226,61.23953,-2.44261,0.11166,0.81933
559.826,61.2989,-2.44912,0.1138,0.81882
560.426,61.35836,-2.44922,0.11436,0.81831
561.026,61.4178,-2.44762,0.11732,0.81781
561.626,61.47715,-2.44891,0.1175,0.8173
562.226,61.53643,-2.44912,0.11843,0.81679
562.826,61.59574,-2.44962,0.12111,0.81628
563.426,61.6553,-2.45252,0.12336,0.81577
564.026,61.71507,-2.4549,0.12492,0.81526
564.626,61.7745,-2.45543,0.12938,0.81475
565.226,61.83401,-2.45677,0.13187,0.81423
565.826,61.8934,-2.4541,0.13258,0.81372
566.426,61.953,-2.45564,0.13693,0.81321
567.026,62.01251,-2.45815,0.13816,0.8127
567.626,62.07216,-2.45816,0.14174,0.81218
568.226,62.13174,-2.45805,0.1449,0.81167
568.826,62.191,-2.45815,0.14748,0.81115
569.426,62.2506,-2.45815,0.15228,0.81063
570.026,62.3102,-2.45959,0.15326,0.81012
570.626,62.36984,-2.4609,0.15592,0.8096
571.226,62.42955,-2.46221,0.15792,0.80908
571.826,62.48895,-2.46353,0.16059,0.80856
572.426,62.5485,-2.46414,0.16305,0.80804
573.026,62.60791,-2.4633,0.16245,0.80752
573.626,62.66743,-2.46082,0.16521,0.807
574.226,62.7271,-2.45943,0.16768,0.80648
574.826,62.78666,-2.46118,0.17004,0.80596
575.426,62.84616,-2.46582,0.17342,0.80544
576.026,62.90575,-2.46884,0.17442,0.80492
576.626,62.96515,-2.47125,0.17397,0.80439
577.226,63.0248,-2.47279,0.17482,0.80387
577.826,63.0845,-2.47134,0.17455,0.80334
578.426,63.14416,-2.4727,0.17453,0.80282
579.026,63.20411,-2.47551,0.17206,0.80229
579.626,63.2638,-2.47833,0.17009,0.80177
580.226,63.32329,-2.48089,0.16847,0.80124
580.826,63.3829,-2.48352,0.16782,0.80071
581.426,63.44246,-2.48491,0.16255,0.80018
582.026,63.50209,-2.48493,0.15677,0.79965
582.626,63.5618,-2.48396,0.15355,0.79912
583.226,63.62137,-2.48263,0.14733,0.79859
583.826,63.68105,-2.48261,0.14341,0.79806
584.426,63.74058,-2.48697,0.13902,0.79753
585.026,63.8002,-2.49119,0.13422,0.797
585.626,63.8597,-2.49252,0.13023,0.79647
586.226,63.9193,-2.49098,0.12489,0.79593
586.826,63.97896,-2.49098,0.12168,0.7954
587.426,64.0386,-2.49027,0.11882,0.79487
588.026,64.09818,-2.49236,0.11636,0.79433
588.626,64.1578,-2.49263,0.11465,0.7938
589.226,64.21735,-2.49372,0.11036,0.79326
589.826,64.27711,-2.49502,0.10265,0.79272
590.426,64.33671,-2.49372,0.1024,0.79219
591.026,64.3964,-2.49505,0.09981237,0.79165
591.626,64.45615,-2.49765,0.0993787,0.79111
592.226,64.51578,-2.49871,0.09611513,0.79057
592.826,64.5754,-2.5004,0.09369366,0.79003
593.426,64.63502,-2.50076,0.09077242,0.78949
594.026,64.6946,-2.50209,0.08836651,0.78895
594.626,64.75437,-2.50365,0.0868639,0.78841
595.226,64.81397,-2.50331,0.08339261,0.78787
595.826,64.87371,-2.50338,0.08176421,0.78732
596.426,64.93338,-2.50598,0.07687054,0.78678
597.026,64.99319,-2.50726,0.07515751,0.78624
597.626,65.05298,-2.50865,0.0725376,0.78569
598.226,65.11256,-2.50865,0.06713198,0.78515
598.826,65.17219,-2.51008,0.06544562,0.7846
599.426,65.2316,-2.51123,0.06386323,0.78406
600.026,65.29131,-2.51238,0.06297711,0.78351
600.626,65.35118,-2.51138,0.06118193,0.78296
601.226,65.41115,-2.51404,0.05673239,0.78242
601.826,65.471,-2.51389,0.05601739,0.78187
602.426,65.53069,-2.5115,0.05573125,0.78132
603.026,65.5904,-2.51151,0.0523943,0.78077
603.626,65.65008,-2.51282,0.05072041,0.78022
604.226,65.70988,-2.51281,0.04626972,0.77967
604.826,65.76956,-2.5138,0.04409617,0.77912
605.426,65.82902,-2.51513,0.04176575,0.77857
606.026,65.88863,-2.51706,0.04229513,0.77801
606.626,65.9481,-2.51915,0.04051967,0.77746
607.226,66.0078,-2.51919,0.03788913,0.77691
607.826,66.06764,-2.51773,0.03508075,0.77635
608.426,66.1273,-2.51776,0.03243245,0.7758
609.026,66.1871,-2.51776,0.03399879,0.77524
609.626,66.24681,-2.51912,0.03231851,0.77469
610.226,66.30627,-2.52038,0.02773355,0.77413
610.826,66.36605,-2.52213,0.02757698,0.77358
611.426,66.42589,-2.52436,0.02683342,0.77302
612.026,66.48592,-2.52468,0.02548134,0.77246
612.626,66.54575,-2.52564,0.0250511,0.7719
613.226,66.60551,-2.52713,0.02312793,0.77134
613.826,66.66529,-2.52508,0.02252298,0.77078
614.426,66.72492,-2.52722,0.01960383,0.77022
615.026,66.78464,-2.5281,0.01850982,0.76966
615.626,66.84443,-2.5287,0.01648434,0.7691
616.226,66.90406,-2.52988,0.01542755,0.76854
616.826,66.96375,-2.52995,0.01391261,0.76798
617.426,67.02333,-2.53003,0.01052033,0.76742
618.026,67.08315,-2.52864,0.00748796,0.76685
618.626,67.14301,-2.52992,0.004952383,0.76629
619.226,67.2029,-2.5318,0.00214059,0.76572
619.826,67.26276,-2.53193,0.002196502,0.76516
620.426,67.3225,-2.53195,0.0009049652,0.76459
621.026,67.382,-2.5335,-0.00248068,0.76403
621.626,67.44181,-2.53725,-0.001867178,0.76346
622.226,67.50154,-2.53719,-0.002699451,0.76289
622.826,67.5613,-2.53584,-0.005623694,0.76233
623.426,67.62141,-2.53589,-0.00811407,0.76176
624.026,67.6811,-2.53557,-0.008336079,0.76119
624.626,67.74078,-2.53412,-0.01341076,0.76062
625.226,67.80051,-2.53292,-0.0144824,0.76005
625.826,67.8601,-2.53292,-0.01496788,0.75948
626.426,67.91996,-2.53457,-0.01950808,0.75891
627.026,67.97973,-2.53587,-0.02210698,0.75834
627.626,68.03984,-2.53588,-0.02406053,0.75777
628.226,68.0997,-2.53588,-0.02383282,0.75719
628.826,68.15954,-2.53874,-0.02563168,0.75662
629.426,68.21936,-2.5438,-0.02810366,0.75605
630.026,68.2793,-2.54434,-0.03058551,0.75547
630.626,68.33909,-2.54236,-0.03285302,0.7549
631.226,68.39899,-2.54247,-0.03264391,0.75433
631.826,68.4587,-2.54377,-0.03689489,0.75375
632.426,68.51847,-2.54279,-0.04059291,0.75317
633.026,68.57818,-2.54369,-0.04508517,0.7526
633.626,68.63778,-2.54542,-0.04694857,0.75202
634.226,68.6975,-2.54543,-0.04620491,0.75144
634.826,68.75697,-2.54543,-0.05178759,0.75086
635.426,68.81659,-2.54542,-0.05302279,0.75029
636.026,68.8762,-2.54675,-0.05586535,0.74971
636.626,68.9357,-2.54675,-0.05784052,0.74913
637.226,68.99546,-2.54675,-0.0574768,0.74855
637.826,69.0552,-2.54675,-0.0588342,0.74797
638.426,69.1151,-2.54675,-0.06369101,0.74738
639.026,69.1748,-2.54672,-0.06357249,0.7468
639.626,69.23447,-2.54695,-0.06610471,0.74622
640.226,69.29405,-2.54642,-0.06780415,0.74564
640.826,69.3537,-2.54518,-0.07006603,0.74506
641.426,69.41345,-2.5451,-0.07269712,0.74447
642.026,69.4731,-2.5451,-0.07159025,0.74389
642.626,69.53288,-2.54396,-0.07354436,0.7433
643.226,69.5925,-2.54268,-0.07775666,0.74272
643.826,69.65228,-2.54268,-0.07883577,0.74213
644.426,69.712,-2.54624,-0.08002921,0.74155
645.026,69.77163,-2.55218,-0.07768153,0.74096
645.626,69.83149,-2.55344,-0.07777874,0.74037
646.226,69.8912,-2.55292,-0.07966393,0.73978
646.826,69.95105,-2.55076,-0.08311295,0.7392
647.426,70.01093,-2.54906,-0.08376778,0.73861
648.026,70.07075,-2.54894,-0.0855614,0.73802
648.626,70.13065,-2.55155,-0.08670364,0.73743
649.226,70.19045,-2.55158,-0.08708919,0.73684
649.826,70.2505,-2.55289,-0.09002823,0.73625
650.426,70.3105,-2.5539,-0.09303228,0.73566
651.026,70.37045,-2.55257,-0.09261653,0.73506
651.626,70.43042,-2.55257,-0.09301349,0.73447
652.226,70.4903,-2.55257,-0.09602174,0.73388
652.826,70.55049,-2.55388,-0.09567669,0.73329
653.426,70.61041,-2.55257,-0.09416601,0.73269
654.026,70.67052,-2.55124,-0.10042,0.7321
654.626,70.73057,-2.54993,-0.0977625,0.7315
655.226,70.79075,-2.54999,-0.0972421,0.73091
655.826,70.85081,-2.55125,-0.09733213,0.73031
656.426,70.91073,-2.55123,-0.09780431,0.72972
657.026,70.97064,-2.55257,-0.09970822,0.72912
657.626,71.03062,-2.55257,-0.09812526,0.72852
658.226,71.09063,-2.55531,-0.09841398,0.72793
658.826,71.15064,-2.55796,-0.0954161,0.72733
659.426,71.21081,-2.55828,-0.09688069,0.72673
660.026,71.27087,-2.55681,-0.09785168,0.72613
660.626,71.33102,-2.55564,-0.09899993,0.72553
661.226,71.39103,-2.55645,-0.09728516,0.72493
661.826,71.45103,-2.55693,-0.09718965,0.72433
662.426,71.51111,-2.5589,-0.09656094,0.72373
663.026,71.57117,-2.55857,-0.09845547,0.72313
663.626,71.63124,-2.55838,-0.09781178,0.72253
664.226,71.69135,-2.55652,-0.09716052,0.72193
664.826,71.75149,-2.55575,-0.09566278,0.72133
665.426,71.81147,-2.55575,-0.0959823,0.72072
666.026,71.87136,-2.55612,-0.09824629,0.72012
666.626,71.93123,-2.55474,-0.09724228,0.71952
667.226,71.99123,-2.55616,-0.0956338,0.71891
667.826,72.05141,-2.55738,-0.09540914,0.71831
668.426,72.11147,-2.55739,-0.09429932,0.7177
669.026,72.17158,-2.55607,-0.09653599,0.7171
669.626,72.23167,-2.55475,-0.09621753,0.71649
670.226,72.29179,-2.55476,-0.0953916,0.71588
670.826,72.35191,-2.55627,-0.09368481,0.71528
671.426,72.41196,-2.55695,-0.09508202,0.71467
672.026,72.47204,-2.55682,-0.09503383,0.71406
672.626,72.5321,-2.55564,-0.09561201,0.71345
673.226,72.59225,-2.55564,-0.09496782,0.71284
673.826,72.65212,-2.55564,-0.09430028,0.71223
674.426,72.71231,-2.55684,-0.09570842,0.71162
675.026,72.77238,-2.56005,-0.0945953,0.71101
675.626,72.83246,-2.56552,-0.09269126,0.7104
676.226,72.89281,-2.56947,-0.09264487,0.70979
676.826,72.95254,-2.56824,-0.09336042,0.70918
677.426,73.01241,-2.56684,-0.09377667,0.70857
678.026,73.07229,-2.56555,-0.09382918,0.70796
678.626,73.13217,-2.56413,-0.09519553,0.70735
679.226,73.19215,-2.56283,-0.09517206,0.70673
679.826,73.2523,-2.56082,-0.09403527,0.70612
680.426,73.31226,-2.56,-0.09409509,0.7055
681.026,73.37223,-2.55885,-0.09198057,0.70489
681.626,73.43226,-2.56182,-0.09474631,0.70428
682.226,73.49251,-2.56676,-0.08989181,0.70366
682.826,73.55272,-2.5697,-0.09068913,0.70304
683.426,73.61291,-2.56964,-0.09181267,0.70243
684.026,73.673,-2.56706,-0.09199657,0.70181
684.626,73.73309,-2.56846,-0.08871256,0.7012
685.226,73.7932,-2.56717,-0.08965647,0.70058
685.826,73.85339,-2.56503,-0.08938088,0.69996
686.426,73.91362,-2.56304,-0.09092367,0.69934
687.026,73.97378,-2.5613,-0.08976856,0.69872
687.626,74.03394,-2.56124,-0.08823922,0.6981
688.226,74.09432,-2.56124,-0.08891147,0.69748
688.826,74.1545,-2.56125,-0.08608656,0.69687
689.426,74.21464,-2.56255,-0.08745344,0.69624
690.026,74.27472,-2.5625,-0.08390323,0.69562
690.626,74.33462,-2.56387,-0.08151093,0.695
691.226,74.39456,-2.56513,-0.08190624,0.69438
691.826,74.4547,-2.5656,-0.08221336,0.69376
692.426,74.5146,-2.56684,-0.08303971,0.69314
693.026,74.57477,-2.56656,-0.08269864,0.69252
693.626,74.63476,-2.56683,-0.08446808,0.69189
694.226,74.69452,-2.56548,-0.08382112,0.69127
694.826,74.75457,-2.56685,-0.08475596,0.69064
695.426,74.81459,-2.56823,-0.08431829,0.69002
696.026,74.87468,-2.56815,-0.08238514,0.6894
696.626,74.93476,-2.56556,-0.08511692,0.68877
697.226,74.9945,-2.56551,-0.08461305,0.68815
697.826,75.0543,-2.56672,-0.0829732,0.68752
698.426,75.11426,-2.56684,-0.08467439,0.68689
699.026,75.1742,-2.56821,-0.08474434,0.68627
699.626,75.23415,-2.56816,-0.08326599,0.68564
700.226,75.29423,-2.56775,-0.07968431,0.68501
700.826,75.35416,-2.56821,-0.08036333,0.68439
701.426,75.4143,-2.56852,-0.07836403,0.68376
702.026,75.47436,-2.57191,-0.07784632,0.68313
702.626,75.53439,-2.57439,-0.07689243,0.6825
703.226,75.5946,-2.57517,-0.07384482,0.68187
703.826,75.65467,-2.57138,-0.07425286,0.68124
704.426,75.7146,-2.56703,-0.07154704,0.68061
705.026,75.77462,-2.56689,-0.07116778,0.67998
705.626,75.8347,-2.57243,-0.06766699,0.67935
706.226,75.89488,-2.57506,-0.0665477,0.67872
706.826,75.9552,-2.57241,-0.06477683,0.67809
707.426,76.01531,-2.57357,-0.06441856,0.67746
708.026,76.07547,-2.5722,-0.06435829,0.67682
708.626,76.13575,-2.57152,-0.06235084,0.67619
709.226,76.1961,-2.57424,-0.06062063,0.67556
709.826,76.25628,-2.57675,-0.06034299,0.67492
710.426,76.31663,-2.57672,-0.05905461,0.67429
711.026,76.37653,-2.57946,-0.05744452,0.67366
711.626,76.43679,-2.57859,-0.05772084,0.67302
712.226,76.49709,-2.57526,-0.06043342,0.67239
712.826,76.55744,-2.57209,-0.05861842,0.67175
713.426,76.61786,-2.57057,-0.05800167,0.67112
714.026,76.67798,-2.57058,-0.05811581,0.67048
714.626,76.73827,-2.57521,-0.05854219,0.66985
715.226,76.79819,-2.57981,-0.05571475,0.66921
715.826,76.85871,-2.58111,-0.05396429,0.66857
716.426,76.91894,-2.57979,-0.05432896,0.66794
717.026,76.97916,-2.57946,-0.05350538,0.6673
717.626,77.03944,-2.57814,-0.05353998,0.66666
718.226,77.09963,-2.57816,-0.05245559,0.66602
718.826,77.15984,-2.57814,-0.05004804,0.66538
719.426,77.2202,-2.57854,-0.05269075,0.66474
720.026,77.28053,-2.57945,-0.05228603,0.66411
720.626,77.34091,-2.57953,-0.05000664,0.66347
721.226,77.4011,-2.57942,-0.05157104,0.66283
721.826,77.46136,-2.58076,-0.04920047,0.66219
722.426,77.5214,-2.57772,-0.04791177,0.66154
723.026,77.5815,-2.57718,-0.04577947,0.6609
723.626,77.64186,-2.57947,-0.04627145,0.66026
724.226,77.7019,-2.58125,-0.04577955,0.65962
724.826,77.76187,-2.58307,-0.04571224,0.65898
725.426,77.82231,-2.58177,-0.04740806,0.65834
726.026,77.88274,-2.58177,-0.04296133,0.65769
726.626,77.94338,-2.58182,-0.04168978,0.65705
727.226,78.00386,-2.58309,-0.04226516,0.65641
727.826,78.06395,-2.58309,-0.04501449,0.65577
728.426,78.12402,-2.58277,-0.04297412,0.65512
729.026,78.18392,-2.58087,-0.04132993,0.65448
729.626,78.2439,-2.58045,-0.03812893,0.65383
730.226,78.30413,-2.5817,-0.03531279,0.65319
730.826,78.3644,-2.58331,-0.03371196,0.65254
731.426,78.4249,-2.58492,-0.03261818,0.6519
732.026,78.4851,-2.58523,-0.02810265,0.65125
732.626,78.54519,-2.58391,-0.02790002,0.65061
733.226,78.6052,-2.58539,-0.03071887,0.64996
733.826,78.66519,-2.58539,-0.0294819,0.64931
734.426,78.72515,-2.58648,-0.02924268,0.64867
735.026,78.7853,-2.58869,-0.02661816,0.64802
735.626,78.84544,-2.59034,-0.02722655,0.64737
736.226,78.90576,-2.59154,-0.02784817,0.64672
736.826,78.96595,-2.5916,-0.02945673,0.64608
737.426,79.02617,-2.59055,-0.03098276,0.64543
738.026,79.08604,-2.59216,-0.0302685,0.64478
738.626,79.14608,-2.5934,-0.02845229,0.64413
739.226,79.2063,-2.59002,-0.02941516,0.64348
739.826,79.26666,-2.58603,-0.03117964,0.64283
740.426,79.32732,-2.58452,-0.0272346,0.64218
741.026,79.38769,-2.58454,-0.02856987,0.64153
741.626,79.44804,-2.58671,-0.02779922,0.64088
742.226,79.50848,-2.5916,-0.02579436,0.64023
742.826,79.56883,-2.59516,-0.02374547,0.63958
743.426,79.62923,-2.59802,-0.02352286,0.63893
744.026,79.68964,-2.59647,-0.02178151,0.63828
744.626,79.74972,-2.59353,-0.02003961,0.63762
745.226,79.80966,-2.5895,-0.02005206,0.63697
745.826,79.87006,-2.58605,-0.0179216,0.63632
746.426,79.9307,-2.58756,-0.01456115,0.63567
747.026,79.99149,-2.59066,-0.01307795,0.63501