File: 01_Data/Rubber_Foam_Pipe_Insulation/STA/N2/10K_min/Rubber_Foam_Pipe_Insulation_STA_N2_10KData_220921_R2.csv
##Temp./Â°C,Time/min,Mass loss(subtr.2)/mg,DSC(subtr.2)/(mW/mg),Sensit./(uV/mW)
50.373,10.01,0.00494,-0.01077366,1.02682
50.973,10.7997,0.004955049,0.02101717,1.02677
51.573,11.01596,0.004353265,0.04197515,1.02672
52.173,11.18004,0.00559014,0.06149771,1.02667
52.773,11.31903,0.004871766,0.07824632,1.02662
53.373,11.44176,0.005510116,0.09292634,1.02656
53.973,11.55435,0.0059756,0.10451,1.02651
54.573,11.66065,0.004177688,0.11511,1.02646
55.173,11.76106,0.004556356,0.12502,1.0264
55.773,11.85685,0.0054824,0.13126,1.02635
56.373,11.9496,0.005069455,0.13788,1.0263
56.973,12.0394,0.00580952,0.14582,1.02624
57.573,12.12699,0.00415761,0.15296,1.02619
58.173,12.2128,0.005566321,0.16083,1.02614
58.773,12.29553,0.00565345,0.16578,1.02608
59.373,12.37755,0.00559672,0.16929,1.02603
59.973,12.45858,0.006204556,0.17665,1.02597
60.573,12.53894,0.005613843,0.1784,1.02592
61.173,12.61777,0.005657509,0.18051,1.02586
61.773,12.69564,0.006046984,0.18367,1.02581
62.373,12.77206,0.005336401,0.18583,1.02575
62.973,12.84804,0.00583411,0.18893,1.02569
63.573,12.92308,0.00463178,0.19048,1.02564
64.173,12.9975,0.005019402,0.19205,1.02558
64.773,13.07131,0.005582656,0.19462,1.02552
65.373,13.1448,0.0055847,0.19779,1.02547
65.973,13.2174,0.005633321,0.19722,1.02541
66.573,13.2893,0.004672097,0.20068,1.02535
67.173,13.36069,0.004286522,0.2023,1.02529
67.773,13.43188,0.004385715,0.2013,1.02524
68.373,13.50288,0.005682749,0.20276,1.02518
68.973,13.57327,0.005050102,0.20519,1.02512
69.573,13.64306,0.004264379,0.20595,1.02506
70.173,13.71207,0.004371707,0.20548,1.025
70.773,13.7809,0.0043907,0.20676,1.02494
71.373,13.84946,0.004391288,0.21067,1.02488
71.973,13.91814,0.004387519,0.21165,1.02482
72.573,13.9864,0.005642036,0.21206,1.02476
73.173,14.0544,0.005700939,0.21445,1.0247
73.773,14.1219,0.00441493,0.21502,1.02464
74.373,14.18888,0.004390496,0.21826,1.02458
74.973,14.25578,0.005146675,0.21836,1.02452
75.573,14.3223,0.005157933,0.22185,1.02446
76.173,14.38865,0.005768272,0.22321,1.0244
76.773,14.45405,0.005670852,0.22307,1.02434
77.373,14.5194,0.00470778,0.22301,1.02427
77.973,14.58394,0.003653501,0.22529,1.02421
78.573,14.6489,0.00307001,0.22626,1.02415
79.173,14.71316,0.003331413,0.22617,1.02409
79.773,14.77784,0.00577503,0.22933,1.02402
80.373,14.8422,0.004297276,0.23065,1.02396
80.973,14.9067,0.00438809,0.23145,1.0239
81.573,14.9709,0.00309984,0.23229,1.02383
82.173,15.03539,0.002974745,0.23333,1.02377
82.773,15.0998,0.00439201,0.23363,1.0237
83.373,15.164,0.00438705,0.23639,1.02364
83.973,15.2274,0.003224822,0.23809,1.02357
84.573,15.2905,0.004387602,0.23716,1.02351
85.173,15.3536,0.003360035,0.23932,1.02344
85.773,15.4162,0.003071499,0.24111,1.02338
86.373,15.4787,0.004392017,0.23999,1.02331
86.973,15.541,0.003064227,0.24185,1.02325
87.573,15.60325,0.00294645,0.2425,1.02318
88.173,15.6654,0.003570027,0.24347,1.02311
88.773,15.72724,0.003160405,0.24545,1.02305
89.373,15.78902,0.00306559,0.24726,1.02298
89.973,15.8507,0.00175748,0.24761,1.02291
90.573,15.91235,0.003164836,0.24996,1.02284
91.173,15.97396,0.00178111,0.24995,1.02277
91.773,16.0346,0.003068375,0.25165,1.02271
92.373,16.09515,0.002003018,0.25444,1.02264
92.973,16.15539,0.002474929,0.25535,1.02257
93.573,16.21571,0.002116826,0.25738,1.0225
94.173,16.2763,0.00307515,0.25737,1.02243
94.773,16.33667,0.00308099,0.25844,1.02236
95.373,16.39655,0.003066091,0.26135,1.02229
95.973,16.45691,0.002815932,0.26136,1.02222
96.573,16.517,0.002380849,0.26268,1.02215
97.173,16.5772,0.00295213,0.26396,1.02208
97.773,16.63811,0.0017551,0.2654,1.02201
98.373,16.6987,0.001741384,0.26738,1.02193
98.973,16.7595,0.00174454,0.26862,1.02186
99.573,16.81973,0.001775,0.26973,1.02179
100.173,16.87947,0.00105707,0.27147,1.02172
100.773,16.939,0.000442504,0.27255,1.02165
101.373,16.99855,0.00169419,0.27375,1.02157
101.973,17.05795,0.00167112,0.27544,1.0215
102.573,17.11744,0.002620674,0.27701,1.02143
103.173,17.17681,0.001350257,0.27833,1.02135
103.773,17.23607,0.000459433,0.27828,1.02128
104.373,17.2951,0.00178927,0.2808,1.0212
104.973,17.3541,0.000441998,0.28045,1.02113
105.573,17.41305,0.001854095,0.28085,1.02105
106.173,17.472,0.001759288,0.28285,1.02098
106.773,17.5309,0.000439139,0.28252,1.0209
107.373,17.58982,0.000774777,0.28287,1.02083
107.973,17.64882,0.0004296325,0.28382,1.02075
108.573,17.7077,0.0003807663,0.28394,1.02067
109.173,17.76671,0.0004399702,0.28581,1.0206
109.773,17.82561,0.000440012,0.28547,1.02052
110.373,17.88458,0.0004688499,0.28544,1.02044
110.973,17.94331,0.0004422561,0.28715,1.02036
111.573,18.00187,0.000365054,0.28923,1.02029
112.173,18.06072,-0.0008924329,0.29167,1.02021
112.773,18.1193,-0.00085656,0.29411,1.02013
113.373,18.17829,-0.0008799764,0.29374,1.02005
113.973,18.23713,-0.0008795724,0.2958,1.01997
114.573,18.29583,-0.002175216,0.29745,1.01989
115.173,18.354,-0.0008789488,0.29877,1.01981
115.773,18.41273,-0.002185814,0.29981,1.01973
116.373,18.47118,-0.00122598,0.30372,1.01965
116.973,18.5302,-0.001210032,0.30176,1.01957
117.573,18.5888,-0.0024854,0.3021,1.01949
118.173,18.6476,-0.002529356,0.30343,1.01941
118.773,18.706,-0.00220718,0.30288,1.01933
119.373,18.7645,-0.00293555,0.30239,1.01924
119.973,18.8229,-0.002108989,0.30107,1.01916
120.573,18.8814,-0.002206567,0.29936,1.01908
121.173,18.93988,-0.00350996,0.29836,1.01899
121.773,18.99823,-0.00352217,0.29757,1.01891
122.373,19.05663,-0.00312562,0.29714,1.01883
122.973,19.1148,-0.00319029,0.29665,1.01874
123.573,19.1732,-0.0024378,0.29573,1.01866
124.173,19.23141,-0.00285973,0.29602,1.01857
124.773,19.2895,-0.00220101,0.29586,1.01849
125.373,19.34769,-0.0035263,0.29488,1.0184
125.973,19.40581,-0.00221549,0.29605,1.01832
126.573,19.4639,-0.003511619,0.29808,1.01823
127.173,19.5221,-0.00385505,0.29685,1.01815
127.773,19.58021,-0.005160062,0.29676,1.01806
128.373,19.63811,-0.005117671,0.29875,1.01797
128.973,19.6962,-0.005153955,0.29759,1.01788
129.573,19.75423,-0.005159997,0.29826,1.0178
130.173,19.81223,-0.005160001,0.29713,1.01771
130.773,19.87017,-0.005160191,0.29952,1.01762
131.373,19.92792,-0.003833988,0.3015,1.01753
131.973,19.98549,-0.005147685,0.29994,1.01744
132.573,20.04285,-0.00515998,0.30216,1.01735
133.173,20.10054,-0.005154215,0.30156,1.01726
133.773,20.1583,-0.00614167,0.30349,1.01717
134.373,20.21632,-0.00549749,0.3042,1.01708
134.973,20.27386,-0.005522785,0.30422,1.01699
135.573,20.33142,-0.005507459,0.30417,1.0169
136.173,20.3889,-0.006479773,0.3056,1.01681
136.773,20.44656,-0.00648,0.30406,1.01672
137.373,20.50403,-0.006480796,0.30663,1.01663
137.973,20.5617,-0.007838237,0.3076,1.01653
138.573,20.61944,-0.006858556,0.30766,1.01644
139.173,20.67699,-0.006480104,0.30892,1.01635
139.773,20.7343,-0.0078987,0.30939,1.01625
140.373,20.79138,-0.008124062,0.30868,1.01616
140.973,20.8488,-0.008129955,0.30941,1.01607
141.573,20.9057,-0.0088798,0.30989,1.01597
142.173,20.96344,-0.008239296,0.31084,1.01588
142.773,21.02113,-0.00812001,0.31054,1.01578
143.373,21.0787,-0.008120081,0.31138,1.01569
143.973,21.13625,-0.008722838,0.31073,1.01559
144.573,21.19344,-0.009440035,0.31073,1.01549
145.173,21.25068,-0.00944,0.31087,1.0154
145.773,21.30775,-0.009439914,0.31045,1.0153
146.373,21.36514,-0.009092219,0.31321,1.0152
146.973,21.42236,-0.01010089,0.31293,1.0151
147.573,21.4797,-0.009441069,0.31418,1.01501
148.173,21.53681,-0.01010796,0.31433,1.01491
148.773,21.5938,-0.01076004,0.31363,1.01481
149.373,21.65094,-0.01076,0.3133,1.01471
149.973,21.70758,-0.01076122,0.31371,1.01461
150.573,21.76492,-0.01146749,0.31212,1.01451
151.173,21.82222,-0.01273043,0.31491,1.01441
151.773,21.87957,-0.01272512,0.31461,1.01431
152.373,21.93684,-0.01273645,0.31421,1.01421
152.973,21.99383,-0.01274,0.31517,1.01411
153.573,22.05092,-0.01273901,0.31677,1.014
154.173,22.10811,-0.01529709,0.31738,1.0139
154.773,22.16525,-0.01536994,0.31695,1.0138
155.373,22.2222,-0.01536943,0.31769,1.0137
155.973,22.279,-0.01469721,0.32023,1.01359
156.573,22.33611,-0.01569223,0.32152,1.01349
157.173,22.39334,-0.01602989,0.32093,1.01339
157.773,22.45058,-0.01603703,0.32022,1.01328
158.373,22.50777,-0.0153806,0.32274,1.01318
158.973,22.56476,-0.01537977,0.32268,1.01307
159.573,22.62182,-0.01618715,0.32313,1.01297
160.173,22.67904,-0.01734092,0.32341,1.01286
160.773,22.7363,-0.01734001,0.32624,1.01275
161.373,22.79334,-0.01737075,0.32548,1.01265
161.973,22.8504,-0.0186601,0.32893,1.01254
162.573,22.90723,-0.01866,0.3303,1.01243
163.173,22.96399,-0.01865052,0.33026,1.01232
163.773,23.02099,-0.02064157,0.33204,1.01222
164.373,23.078,-0.02064,0.33335,1.01211
164.973,23.1353,-0.02063998,0.3343,1.012
165.573,23.19238,-0.02061529,0.33657,1.01189
166.173,23.24945,-0.02196036,0.33834,1.01178
166.773,23.30651,-0.02196135,0.34105,1.01167
167.373,23.36338,-0.02260079,0.34274,1.01156
167.973,23.42024,-0.02361983,0.34397,1.01145
168.573,23.47715,-0.02394815,0.3449,1.01134
169.173,23.53417,-0.02458864,0.3473,1.01122
169.773,23.59141,-0.02459,0.34911,1.01111
170.373,23.64866,-0.02459,0.35121,1.011
170.973,23.7054,-0.02466109,0.35204,1.01089
171.573,23.7619,-0.02722895,0.35557,1.01077
172.173,23.81857,-0.02723,0.35837,1.01066
172.773,23.87537,-0.02723,0.35933,1.01054
173.373,23.93277,-0.02723008,0.36103,1.01043
173.973,23.99005,-0.0285525,0.36398,1.01031
174.573,24.0469,-0.02990225,0.36564,1.0102
175.173,24.1035,-0.02987002,0.36711,1.01008
175.773,24.16035,-0.02987,0.36885,1.00997
176.373,24.21744,-0.0298707,0.37208,1.00985
176.973,24.27465,-0.03046318,0.37598,1.00973
177.573,24.33224,-0.03117742,0.37708,1.00962
178.173,24.38926,-0.03249094,0.37938,1.0095
178.773,24.44608,-0.03283303,0.38404,1.00938
179.373,24.50287,-0.03381032,0.38621,1.00926
179.973,24.5597,-0.0341047,0.3865,1.00914
180.573,24.61658,-0.03644513,0.3889,1.00902
181.173,24.67355,-0.03711245,0.39236,1.0089
181.773,24.73038,-0.03842708,0.39499,1.00878
182.373,24.78734,-0.03843785,0.39688,1.00866
182.973,24.8444,-0.04040877,0.39962,1.00854
183.573,24.90138,-0.04039904,0.40195,1.00842
184.173,24.95831,-0.04173658,0.40512,1.0083
184.773,25.01483,-0.04172014,0.40663,1.00817
185.373,25.07133,-0.04309754,0.40915,1.00805
185.973,25.12825,-0.04436227,0.4116,1.00793
186.573,25.1848,-0.0443565,0.41488,1.0078
187.173,25.2422,-0.04565843,0.41656,1.00768
187.773,25.2993,-0.04566999,0.41946,1.00755
188.373,25.35635,-0.04561793,0.42116,1.00743
188.973,25.4137,-0.04796747,0.42286,1.0073
189.573,25.47075,-0.04961927,0.42598,1.00718
190.173,25.52766,-0.05094322,0.4269,1.00705
190.773,25.58466,-0.05093413,0.43118,1.00693
191.373,25.64149,-0.05224682,0.43066,1.0068
191.973,25.6985,-0.05358132,0.43438,1.00667
192.573,25.75558,-0.05489296,0.4352,1.00654
193.173,25.81267,-0.05576984,0.43632,1.00641
193.773,25.8698,-0.05620912,0.43723,1.00628
194.373,25.92665,-0.05752848,0.44121,1.00616
194.973,25.98365,-0.05903969,0.44335,1.00603
195.573,26.04004,-0.06016111,0.44332,1.0059
196.173,26.09636,-0.06158996,0.44507,1.00576
196.773,26.15278,-0.06368937,0.4458,1.00563
197.373,26.20934,-0.06471783,0.44821,1.0055
197.973,26.26657,-0.06580464,0.44887,1.00537
198.573,26.3238,-0.06612736,0.45095,1.00524
199.173,26.3807,-0.06740292,0.45147,1.0051
199.773,26.43747,-0.07005508,0.45297,1.00497
200.373,26.49457,-0.07007269,0.45255,1.00484
200.973,26.55187,-0.0713689,0.45474,1.0047
201.573,26.60919,-0.07329948,0.45548,1.00457
202.173,26.6666,-0.07337851,0.45498,1.00443
202.773,26.72358,-0.07531093,0.45746,1.0043
203.373,26.7805,-0.07676981,0.4572,1.00416
203.973,26.83737,-0.07804566,0.45916,1.00403
204.573,26.89433,-0.07928299,0.45957,1.00389
205.173,26.9512,-0.07980976,0.45851,1.00375
205.773,27.00785,-0.08187792,0.45896,1.00361
206.373,27.0647,-0.08338859,0.45873,1.00347
206.973,27.1214,-0.08469498,0.46031,1.00334
207.573,27.17823,-0.08597906,0.45928,1.0032
208.173,27.2352,-0.08728143,0.46029,1.00306
208.773,27.2919,-0.0886378,0.46034,1.00292
209.373,27.3488,-0.08985784,0.46218,1.00278
209.973,27.4056,-0.09232673,0.4613,1.00264
210.573,27.46237,-0.09340653,0.46228,1.00249
211.173,27.5192,-0.09519379,0.46233,1.00235
211.773,27.57566,-0.09696333,0.46431,1.00221
212.373,27.63239,-0.09782568,0.46494,1.00207
212.973,27.689,-0.09937817,0.46504,1.00192
213.573,27.7458,-0.10178,0.46581,1.00178
214.173,27.8026,-0.1021,0.46599,1.00163
214.773,27.8592,-0.10341,0.46787,1.00149
215.373,27.91596,-0.10525,0.46812,1.00134
215.973,27.9727,-0.10692,0.46849,1.0012
216.573,28.02957,-0.10803,0.47098,1.00105
217.173,28.0866,-0.10978,0.47066,1.00091
217.773,28.1434,-0.11133,0.47514,1.00076
218.373,28.20028,-0.11275,0.47559,1.00061
218.973,28.2572,-0.11443,0.4795,1.00046
219.573,28.31382,-0.11575,0.4831,1.00031
220.173,28.37081,-0.11862,0.48824,1.00017
220.773,28.4277,-0.12052,0.49182,1.00002
221.373,28.4845,-0.12045,0.49785,0.99987
221.973,28.5416,-0.12298,0.50162,0.99972
222.573,28.59855,-0.12519,0.50713,0.99956
223.173,28.6556,-0.12757,0.51433,0.99941
223.773,28.7125,-0.12889,0.52287,0.99926
224.373,28.76935,-0.13018,0.52951,0.99911
224.973,28.8261,-0.13208,0.53843,0.99896
225.573,28.8825,-0.1345,0.54732,0.9988
226.173,28.93865,-0.13637,0.55723,0.99865
226.773,28.99489,-0.14025,0.5696,0.99849
227.373,29.05159,-0.14209,0.57962,0.99834
227.973,29.10853,-0.14482,0.59325,0.99818
228.573,29.16602,-0.14654,0.60497,0.99803
229.173,29.22355,-0.15007,0.61848,0.99787
229.773,29.28104,-0.15324,0.63267,0.99772
230.373,29.33855,-0.15622,0.64876,0.99756
230.973,29.3962,-0.15917,0.66544,0.9974
231.573,29.45324,-0.16166,0.68204,0.99724
232.173,29.5102,-0.16402,0.69866,0.99708
232.773,29.5673,-0.16731,0.71759,0.99692
233.373,29.62425,-0.17158,0.73777,0.99676
233.973,29.68167,-0.1753,0.75598,0.9966
234.573,29.73878,-0.17939,0.77984,0.99644
235.173,29.7959,-0.18164,0.80039,0.99628
235.773,29.8531,-0.18578,0.82229,0.99612
236.373,29.9102,-0.19059,0.8479,0.99596
236.973,29.9674,-0.19463,0.87182,0.99579
237.573,30.0246,-0.19915,0.89735,0.99563
238.173,30.0816,-0.20322,0.92218,0.99547
238.773,30.13885,-0.20894,0.94961,0.9953
239.373,30.19602,-0.21374,0.97232,0.99514
239.973,30.25318,-0.21819,0.99727,0.99497
240.573,30.3106,-0.22429,1.01382,0.99481
241.173,30.36757,-0.23033,1.01728,0.99464
241.773,30.4248,-0.23534,0.99775,0.99447
242.373,30.4818,-0.24244,0.96002,0.99431
242.973,30.53902,-0.2467,0.90463,0.99414
243.573,30.5956,-0.25205,0.84753,0.99397
244.173,30.6525,-0.25765,0.78881,0.9938
244.773,30.70938,-0.26177,0.73519,0.99363
245.373,30.76653,-0.26787,0.68352,0.99346
245.973,30.8235,-0.27289,0.63722,0.99329
246.573,30.88042,-0.27834,0.59763,0.99312
247.173,30.9372,-0.28377,0.57365,0.99295
247.773,30.99405,-0.28962,0.55373,0.99278
248.373,31.05077,-0.29598,0.5478,0.9926
248.973,31.1076,-0.30231,0.54911,0.99243
249.573,31.1646,-0.30911,0.556,0.99226
250.173,31.22127,-0.31774,0.5667,0.99208
250.773,31.2782,-0.32508,0.57968,0.99191
251.373,31.3353,-0.33209,0.59447,0.99173
251.973,31.3924,-0.33972,0.60842,0.99156
252.573,31.44953,-0.34525,0.62326,0.99138
253.173,31.50675,-0.35343,0.63471,0.99121
253.773,31.56375,-0.36301,0.64635,0.99103
254.373,31.62084,-0.37173,0.65717,0.99085
254.973,31.67812,-0.38136,0.66103,0.99067
255.573,31.73542,-0.39063,0.66597,0.99049
256.173,31.79273,-0.39994,0.66826,0.99031
256.773,31.84992,-0.4085,0.66749,0.99013
257.373,31.9066,-0.41864,0.66396,0.98995
257.973,31.96378,-0.43108,0.65693,0.98977
258.573,32.02098,-0.44145,0.64612,0.98959
259.173,32.0781,-0.45176,0.63115,0.98941
259.773,32.13555,-0.46424,0.60986,0.98923
260.373,32.19266,-0.47821,0.5756,0.98904
260.973,32.24977,-0.49146,0.52755,0.98886
261.573,32.30665,-0.50625,0.46406,0.98867
262.173,32.36337,-0.52297,0.3855,0.98849
262.773,32.42007,-0.54147,0.29516,0.9883
263.373,32.47651,-0.5618,0.1937,0.98812
263.973,32.53317,-0.58257,0.08907492,0.98793
264.573,32.58977,-0.60577,-0.002334567,0.98775
265.173,32.64606,-0.62983,-0.07159749,0.98756
265.773,32.7028,-0.65425,-0.10736,0.98737
266.373,32.75925,-0.67921,-0.10167,0.98718
266.973,32.8159,-0.70127,-0.05793548,0.98699
267.573,32.8726,-0.72291,0.01857471,0.9868
268.173,32.92942,-0.7422,0.11347,0.98661
268.773,32.98639,-0.75701,0.21968,0.98642
269.373,33.04355,-0.77618,0.32243,0.98623
269.973,33.10131,-0.78873,0.41544,0.98604
270.573,33.159,-0.80196,0.49714,0.98585
271.173,33.21699,-0.81336,0.56892,0.98565
271.773,33.27465,-0.82314,0.62062,0.98546
272.373,33.33228,-0.83209,0.66381,0.98527
272.973,33.38982,-0.84114,0.69581,0.98507
273.573,33.4474,-0.84913,0.71713,0.98488
274.173,33.50496,-0.85606,0.73197,0.98468
274.773,33.56243,-0.86329,0.74104,0.98448
275.373,33.61975,-0.87121,0.73987,0.98429
275.973,33.6772,-0.87723,0.738,0.98409
276.573,33.73473,-0.88382,0.73043,0.98389
277.173,33.79233,-0.88949,0.72121,0.98369
277.773,33.84982,-0.8945,0.7081,0.98349
278.373,33.90733,-0.90041,0.69217,0.98329
278.973,33.96476,-0.90548,0.67499,0.98309
279.573,34.02203,-0.91075,0.66072,0.98289
280.173,34.07938,-0.91599,0.6427,0.98269
280.773,34.1366,-0.92145,0.62508,0.98249
281.373,34.19372,-0.92627,0.60607,0.98229
281.973,34.2509,-0.93079,0.5879,0.98208
282.573,34.308,-0.93593,0.57364,0.98188
283.173,34.3651,-0.93996,0.55741,0.98168
283.773,34.42215,-0.94387,0.54193,0.98147
284.373,34.4794,-0.94754,0.52829,0.98127
284.973,34.53667,-0.95121,0.51261,0.98106
285.573,34.59393,-0.95494,0.50152,0.98085
286.173,34.65116,-0.95959,0.49011,0.98065
286.773,34.70848,-0.96303,0.47812,0.98044
287.373,34.7659,-0.96625,0.4662,0.98023
287.973,34.82339,-0.96934,0.45626,0.98002
288.573,34.8806,-0.97237,0.44734,0.97981
289.173,34.93782,-0.97543,0.43948,0.9796
289.773,34.99517,-0.97852,0.43107,0.97939
290.373,35.0524,-0.98191,0.42443,0.97918
290.973,35.10964,-0.98652,0.41855,0.97897
291.573,35.16675,-0.98953,0.41138,0.97876
292.173,35.22379,-0.99079,0.40695,0.97855
292.773,35.28106,-0.99465,0.40076,0.97833
293.373,35.33821,-0.99766,0.39443,0.97812
293.973,35.3956,-1.00054,0.39013,0.9779
294.573,35.45276,-1.00382,0.3876,0.97769
295.173,35.51005,-1.00507,0.38383,0.97747
295.773,35.56716,-1.00763,0.3809,0.97726
296.373,35.6245,-1.01014,0.37642,0.97704
296.973,35.6818,-1.01373,0.37134,0.97682
297.573,35.7391,-1.01713,0.36822,0.9766
298.173,35.79653,-1.02039,0.36606,0.97639
298.773,35.85392,-1.02354,0.36424,0.97617
299.373,35.91138,-1.02564,0.36127,0.97595
299.973,35.9686,-1.02854,0.35889,0.97573
300.573,36.02583,-1.03095,0.35594,0.9755
301.173,36.0832,-1.03269,0.35205,0.97528
301.773,36.14071,-1.03657,0.35037,0.97506
302.373,36.19809,-1.03837,0.34919,0.97484
302.973,36.25541,-1.04121,0.34617,0.97461
303.573,36.31268,-1.04251,0.34408,0.97439
304.173,36.37005,-1.04504,0.34323,0.97417
304.773,36.4275,-1.04837,0.34012,0.97394
305.373,36.48492,-1.05073,0.3381,0.97372
305.973,36.54234,-1.05271,0.33895,0.97349
306.573,36.5993,-1.05542,0.33668,0.97326
307.173,36.65688,-1.05837,0.33669,0.97303
307.773,36.71448,-1.06166,0.3352,0.97281
308.373,36.77217,-1.06414,0.33516,0.97258
308.973,36.82975,-1.06555,0.33226,0.97235
309.573,36.8871,-1.06849,0.33407,0.97212
310.173,36.94446,-1.07035,0.33162,0.97189
310.773,37.00203,-1.0726,0.33206,0.97166
311.373,37.05966,-1.07389,0.33106,0.97142
311.973,37.11701,-1.07663,0.33059,0.97119
312.573,37.17445,-1.07973,0.32972,0.97096
313.173,37.23187,-1.08186,0.32781,0.97073
313.773,37.28944,-1.08377,0.32955,0.97049
314.373,37.34648,-1.0867,0.32778,0.97026
314.973,37.40382,-1.08938,0.33033,0.97002
315.573,37.4613,-1.09132,0.32586,0.96979
316.173,37.51891,-1.09437,0.3256,0.96955
316.773,37.577,-1.09745,0.32657,0.96931
317.373,37.63476,-1.1002,0.32489,0.96907
317.973,37.6925,-1.10253,0.32688,0.96884
318.573,37.74995,-1.10354,0.32491,0.9686
319.173,37.80762,-1.10621,0.32335,0.96836
319.773,37.8651,-1.10772,0.32297,0.96812
320.373,37.9223,-1.10924,0.32228,0.96788
320.973,37.98008,-1.11199,0.3213,0.96763
321.573,38.03753,-1.1133,0.32125,0.96739
322.173,38.0952,-1.11617,0.31953,0.96715
322.773,38.1531,-1.1186,0.31975,0.96691
323.373,38.21072,-1.12186,0.31946,0.96666
323.973,38.26822,-1.1246,0.31976,0.96642
324.573,38.3256,-1.12606,0.32067,0.96617
325.173,38.38317,-1.12765,0.31938,0.96593
325.773,38.44083,-1.13053,0.31852,0.96568
326.373,38.49835,-1.1318,0.31536,0.96543
326.973,38.55604,-1.13491,0.31695,0.96518
327.573,38.6134,-1.13694,0.31599,0.96494
328.173,38.67111,-1.13886,0.31654,0.96469
328.773,38.72887,-1.1415,0.31497,0.96444
329.373,38.7866,-1.14413,0.31479,0.96419
329.973,38.84432,-1.14584,0.31492,0.96394
330.573,38.90185,-1.14886,0.31433,0.96368
331.173,38.95947,-1.15007,0.31301,0.96343
331.773,39.01704,-1.1539,0.31219,0.96318
332.373,39.07454,-1.15553,0.31181,0.96293
332.973,39.1323,-1.15807,0.31031,0.96267
333.573,39.1899,-1.15876,0.30837,0.96242
334.173,39.2476,-1.1615,0.30878,0.96216
334.773,39.30493,-1.16445,0.30847,0.96191
335.373,39.36268,-1.16634,0.30796,0.96165
335.973,39.42044,-1.16816,0.30714,0.96139
336.573,39.47814,-1.17186,0.30566,0.96114
337.173,39.53625,-1.17332,0.30487,0.96088
337.773,39.59394,-1.17462,0.30493,0.96062
338.373,39.65144,-1.17644,0.30467,0.96036
338.973,39.70921,-1.17935,0.30158,0.9601
339.573,39.76696,-1.18066,0.30172,0.95984
340.173,39.82475,-1.18469,0.30063,0.95958
340.773,39.88289,-1.18738,0.30054,0.95931
341.373,39.9407,-1.18896,0.29794,0.95905
341.973,39.99855,-1.19184,0.29792,0.95879
342.573,40.05636,-1.19309,0.29623,0.95852
343.173,40.11424,-1.1974,0.29575,0.95826
343.773,40.17216,-1.19779,0.29529,0.95799
344.373,40.23002,-1.20026,0.29395,0.95773
344.973,40.28768,-1.20186,0.29531,0.95746
345.573,40.34565,-1.20443,0.29249,0.95719
346.173,40.40352,-1.20882,0.29134,0.95693
346.773,40.4617,-1.20907,0.28996,0.95666
347.373,40.51967,-1.21191,0.28921,0.95639
347.973,40.57765,-1.21361,0.28845,0.95612
348.573,40.6357,-1.21504,0.2863,0.95585
349.173,40.69365,-1.21806,0.28868,0.95558
349.773,40.7516,-1.2217,0.28763,0.95531
350.373,40.80959,-1.22552,0.28552,0.95503
350.973,40.86743,-1.22682,0.28537,0.95476
351.573,40.92536,-1.22878,0.28546,0.95449
352.173,40.9833,-1.22993,0.28509,0.95421
352.773,41.04121,-1.23409,0.28397,0.95394
353.373,41.09912,-1.23526,0.28361,0.95366
353.973,41.1571,-1.23794,0.28341,0.95338
354.573,41.21485,-1.24011,0.28471,0.95311
355.173,41.27277,-1.24242,0.28318,0.95283
355.773,41.33052,-1.2453,0.28235,0.95255
356.373,41.38847,-1.24671,0.28007,0.95227
356.973,41.44658,-1.24951,0.28001,0.95199
357.573,41.5047,-1.25131,0.28042,0.95171
358.173,41.56281,-1.25414,0.27949,0.95143
358.773,41.6207,-1.25713,0.27914,0.95115
359.373,41.67881,-1.2599,0.27821,0.95087
359.973,41.7365,-1.26192,0.27923,0.95059
360.573,41.7947,-1.26448,0.27793,0.9503
361.173,41.85283,-1.26714,0.27599,0.95002
361.773,41.91091,-1.26961,0.27676,0.94973
362.373,41.96914,-1.27053,0.27636,0.94945
362.973,42.02709,-1.27345,0.27451,0.94916
363.573,42.08512,-1.27676,0.27495,0.94888
364.173,42.14329,-1.27921,0.27745,0.94859
364.773,42.20112,-1.28016,0.28075,0.9483
365.373,42.25918,-1.28204,0.27888,0.94801
365.973,42.31712,-1.28643,0.28139,0.94772
366.573,42.37519,-1.2901,0.28525,0.94743
367.173,42.4334,-1.29155,0.28853,0.94714
367.773,42.49151,-1.29229,0.29505,0.94685
368.373,42.54967,-1.29475,0.30366,0.94656
368.973,42.60781,-1.29745,0.31473,0.94627
369.573,42.66592,-1.30021,0.32835,0.94597
370.173,42.7241,-1.30323,0.3453,0.94568
370.773,42.7823,-1.30675,0.36837,0.94538
371.373,42.8405,-1.31114,0.39225,0.94509
371.973,42.89887,-1.31443,0.42039,0.94479
372.573,42.95712,-1.31877,0.44798,0.9445
373.173,43.01546,-1.32264,0.48334,0.9442
373.773,43.07359,-1.32728,0.51506,0.9439
374.373,43.1318,-1.33139,0.54468,0.9436
374.973,43.19021,-1.33773,0.57352,0.9433
375.573,43.2483,-1.34354,0.59526,0.943
376.173,43.30677,-1.34892,0.61118,0.9427
376.773,43.36507,-1.35348,0.61952,0.9424
377.373,43.42348,-1.35765,0.62525,0.9421
377.973,43.4818,-1.36234,0.62362,0.9418
378.573,43.54,-1.36691,0.6185,0.94149
379.173,43.59819,-1.37286,0.61208,0.94119
379.773,43.65637,-1.37889,0.59946,0.94089
380.373,43.71461,-1.38322,0.5875,0.94058
380.973,43.7729,-1.38775,0.57274,0.94028
381.573,43.83132,-1.39127,0.55796,0.93997
382.173,43.88963,-1.39662,0.54347,0.93966
382.773,43.9478,-1.40109,0.52817,0.93935
383.373,44.006,-1.40616,0.51094,0.93905
383.973,44.06398,-1.41024,0.49981,0.93874
384.573,44.12215,-1.41481,0.48378,0.93843
385.173,44.1804,-1.4174,0.46922,0.93812
385.773,44.23855,-1.42088,0.45647,0.9378
386.373,44.2967,-1.42582,0.44335,0.93749
386.973,44.35479,-1.43101,0.42966,0.93718
387.573,44.41283,-1.43403,0.41911,0.93687
388.173,44.47087,-1.4372,0.40499,0.93655
388.773,44.52902,-1.44156,0.39217,0.93624
389.373,44.58703,-1.44486,0.37929,0.93592
389.973,44.64499,-1.44696,0.37093,0.93561
390.573,44.70317,-1.45079,0.3613,0.93529
391.173,44.7612,-1.45396,0.35006,0.93497
391.773,44.8194,-1.45745,0.34112,0.93466
392.373,44.87754,-1.46033,0.33414,0.93434
392.973,44.93562,-1.46385,0.32517,0.93402
393.573,44.9937,-1.46689,0.31715,0.9337
394.173,45.05166,-1.46988,0.31056,0.93338
394.773,45.1096,-1.47018,0.30501,0.93306
395.373,45.16775,-1.47471,0.29817,0.93273
395.973,45.226,-1.47797,0.29154,0.93241
396.573,45.284,-1.48046,0.28684,0.93209
397.173,45.3422,-1.48327,0.28233,0.93176
397.773,45.40043,-1.48528,0.27765,0.93144
398.373,45.4584,-1.48697,0.27503,0.93111
398.973,45.51647,-1.48961,0.27111,0.93079
399.573,45.57456,-1.49288,0.26668,0.93046
400.173,45.63282,-1.4962,0.26449,0.93013
400.773,45.6911,-1.49899,0.26315,0.92981
401.373,45.7493,-1.50298,0.25983,0.92948
401.973,45.8071,-1.50659,0.25585,0.92915
402.573,45.8648,-1.50817,0.25358,0.92882
403.173,45.92253,-1.51237,0.25243,0.92849
403.773,45.98017,-1.51337,0.25193,0.92816
404.373,46.0385,-1.51627,0.25104,0.92782
404.973,46.097,-1.51923,0.24958,0.92749
405.573,46.1556,-1.52134,0.24808,0.92716
406.173,46.2143,-1.52443,0.24835,0.92682
406.773,46.27299,-1.52851,0.24795,0.92649
407.373,46.33166,-1.53262,0.24531,0.92615
407.973,46.3902,-1.535,0.24494,0.92582
408.573,46.44858,-1.53864,0.2447,0.92548
409.173,46.5069,-1.54069,0.24638,0.92514
409.773,46.56515,-1.54399,0.24661,0.9248
410.373,46.6235,-1.54594,0.24636,0.92446
410.973,46.68186,-1.54985,0.24601,0.92413
411.573,46.74028,-1.55409,0.24676,0.92378
412.173,46.79892,-1.55734,0.24598,0.92344
412.773,46.85733,-1.56151,0.24769,0.9231
413.373,46.91584,-1.56511,0.24569,0.92276
413.973,46.97424,-1.56805,0.24665,0.92242
414.573,47.03255,-1.57185,0.24982,0.92207
415.173,47.09085,-1.57423,0.24973,0.92173
415.773,47.14935,-1.57849,0.25072,0.92138
416.373,47.208,-1.58132,0.25003,0.92104
416.973,47.26678,-1.58507,0.24986,0.92069
417.573,47.32528,-1.58992,0.24897,0.92034
418.173,47.38373,-1.59404,0.2519,0.92
418.773,47.4422,-1.59775,0.25437,0.91965
419.373,47.50062,-1.60158,0.25646,0.9193
419.973,47.55917,-1.60538,0.25684,0.91895
420.573,47.61772,-1.60922,0.2586,0.9186
421.173,47.6763,-1.61448,0.25906,0.91825
421.773,47.7349,-1.61922,0.25937,0.9179
422.373,47.79333,-1.6225,0.26243,0.91754
422.973,47.85187,-1.62762,0.265,0.91719
423.573,47.91045,-1.63086,0.26463,0.91684
424.173,47.96904,-1.63533,0.26877,0.91648
424.773,48.0276,-1.64102,0.27022,0.91613
425.373,48.08607,-1.64453,0.27232,0.91577
425.973,48.14472,-1.65018,0.27496,0.91541
426.573,48.20319,-1.65475,0.27775,0.91506
427.173,48.26174,-1.66009,0.28087,0.9147
427.773,48.32038,-1.66502,0.28054,0.91434
428.373,48.37892,-1.66977,0.28505,0.91398
428.973,48.43752,-1.67587,0.28696,0.91362
429.573,48.49599,-1.68079,0.2903,0.91326
430.173,48.55444,-1.68635,0.29445,0.9129
430.773,48.61288,-1.69209,0.29661,0.91253
431.373,48.67145,-1.69663,0.30029,0.91217
431.973,48.73007,-1.70264,0.30415,0.91181
432.573,48.78862,-1.70835,0.30545,0.91144
433.173,48.8471,-1.71349,0.30747,0.91108
433.773,48.90569,-1.72014,0.31062,0.91071
434.373,48.964,-1.72594,0.31327,0.91035
434.973,49.02257,-1.73198,0.3175,0.90998
435.573,49.08113,-1.73798,0.31979,0.90961
436.173,49.13975,-1.74388,0.32053,0.90924
436.773,49.1985,-1.74876,0.3246,0.90887
437.373,49.25724,-1.75534,0.32568,0.9085
437.973,49.3157,-1.76268,0.32936,0.90813
438.573,49.37427,-1.77003,0.33268,0.90776
439.173,49.43269,-1.77653,0.33626,0.90739
439.773,49.49111,-1.78263,0.33738,0.90702
440.373,49.54958,-1.78888,0.34079,0.90665
440.973,49.6081,-1.79462,0.34313,0.90627
441.573,49.667,-1.80189,0.34526,0.9059
442.173,49.7256,-1.81032,0.3481,0.90552
442.773,49.78393,-1.81646,0.35049,0.90515
443.373,49.84265,-1.82179,0.35013,0.90477
443.973,49.90115,-1.83021,0.35319,0.90439
444.573,49.96,-1.83689,0.35699,0.90401
445.173,50.01877,-1.8439,0.35825,0.90364
445.773,50.0774,-1.85132,0.35853,0.90326
446.373,50.13629,-1.85845,0.35989,0.90288
446.973,50.1952,-1.86503,0.36078,0.90249
447.573,50.25371,-1.87182,0.36283,0.90211
448.173,50.3125,-1.87978,0.36462,0.90173
448.773,50.3712,-1.88703,0.36626,0.90135
449.373,50.43014,-1.89444,0.36605,0.90096
449.973,50.48898,-1.90168,0.3664,0.90058
450.573,50.54789,-1.90891,0.36727,0.9002
451.173,50.60689,-1.91662,0.36697,0.89981
451.773,50.66564,-1.92403,0.3696,0.89942
452.373,50.7245,-1.93184,0.36905,0.89904
452.973,50.7831,-1.93869,0.36884,0.89865
453.573,50.84176,-1.9471,0.36767,0.89826
454.173,50.90036,-1.95319,0.37026,0.89787
454.773,50.95903,-1.96062,0.37058,0.89748
455.373,51.01783,-1.96845,0.36893,0.89709
455.973,51.07691,-1.97503,0.36936,0.8967
456.573,51.13562,-1.98205,0.37054,0.89631
457.173,51.1943,-1.98806,0.37156,0.89592
457.773,51.25298,-1.99564,0.36759,0.89552
458.373,51.31162,-2.00361,0.36584,0.89513
458.973,51.37042,-2.01051,0.36511,0.89473
459.573,51.42931,-2.01783,0.36119,0.89434
460.173,51.4882,-2.02424,0.35975,0.89394
460.773,51.54697,-2.0293,0.35728,0.89355
461.373,51.6058,-2.03628,0.35357,0.89315
461.973,51.66475,-2.04276,0.34804,0.89275
462.573,51.7237,-2.05042,0.34603,0.89235
463.173,51.78266,-2.05602,0.34312,0.89195
463.773,51.84155,-2.06209,0.33954,0.89155
464.373,51.90044,-2.06814,0.33685,0.89115
464.973,51.95925,-2.07448,0.33384,0.89075
465.573,52.01817,-2.08063,0.32864,0.89035
466.173,52.077,-2.08606,0.32603,0.88995
466.773,52.1359,-2.0923,0.32497,0.88954
467.373,52.1946,-2.09763,0.32192,0.88914
467.973,52.25347,-2.10372,0.32076,0.88873
468.573,52.31236,-2.10926,0.3182,0.88833
469.173,52.37137,-2.11517,0.31761,0.88792
469.773,52.43039,-2.12072,0.31658,0.88752
470.373,52.4892,-2.12698,0.31605,0.88711
470.973,52.5483,-2.13074,0.31279,0.8867
471.573,52.60728,-2.13451,0.31108,0.88629
472.173,52.6663,-2.13828,0.30961,0.88588
472.773,52.72509,-2.14423,0.30787,0.88547
473.373,52.7836,-2.14841,0.31061,0.88506
473.973,52.84242,-2.15431,0.31101,0.88465
474.573,52.9013,-2.15716,0.31022,0.88424
475.173,52.9601,-2.16119,0.31464,0.88382
475.773,53.0191,-2.16541,0.31463,0.88341
476.373,53.0779,-2.17009,0.31874,0.88299
476.973,53.13669,-2.17322,0.32043,0.88258
477.573,53.19554,-2.17733,0.32222,0.88216
478.173,53.2545,-2.18149,0.32489,0.88175
478.773,53.31352,-2.18497,0.33058,0.88133
479.373,53.37248,-2.18881,0.33424,0.88091
479.973,53.43156,-2.19272,0.3387,0.88049
480.573,53.4906,-2.19646,0.34597,0.88007
481.173,53.54956,-2.19947,0.35404,0.87965
481.773,53.60881,-2.20349,0.3587,0.87923
482.373,53.6678,-2.20593,0.36531,0.87881
482.973,53.72681,-2.20993,0.37493,0.87839
483.573,53.7859,-2.21285,0.38107,0.87797
484.173,53.84506,-2.21604,0.38662,0.87754
484.773,53.90404,-2.21905,0.39339,0.87712
485.373,53.9626,-2.22236,0.39888,0.8767
485.973,54.0216,-2.22554,0.40605,0.87627
486.573,54.08065,-2.22988,0.41192,0.87584
487.173,54.13986,-2.23211,0.41658,0.87542
487.773,54.19921,-2.23489,0.42069,0.87499
488.373,54.25829,-2.23998,0.42417,0.87456
488.973,54.31726,-2.24445,0.42868,0.87413
489.573,54.3762,-2.24768,0.43378,0.8737
490.173,54.4354,-2.24987,0.43542,0.87327
490.773,54.4947,-2.25249,0.4387,0.87284
491.373,54.55393,-2.25628,0.44146,0.87241
491.973,54.61306,-2.25901,0.44411,0.87198
492.573,54.67213,-2.26206,0.44295,0.87155
493.173,54.73117,-2.26526,0.44299,0.87111
493.773,54.79031,-2.26835,0.44385,0.87068
494.373,54.84935,-2.27129,0.44233,0.87024
494.973,54.9084,-2.27353,0.44079,0.86981
495.573,54.9675,-2.27665,0.43796,0.86937
496.173,55.0265,-2.27977,0.43701,0.86894
496.773,55.08568,-2.28138,0.43295,0.8685
497.373,55.1447,-2.28435,0.4295,0.86806
497.973,55.2037,-2.28776,0.42627,0.86762
498.573,55.2627,-2.29103,0.42378,0.86718
499.173,55.3218,-2.29407,0.41885,0.86674
499.773,55.381,-2.29685,0.417,0.8663
500.373,55.44007,-2.29864,0.41126,0.86586
500.973,55.4991,-2.30032,0.40468,0.86542
501.573,55.558,-2.30301,0.40063,0.86497
502.173,55.61708,-2.30448,0.39749,0.86453
502.773,55.6762,-2.30711,0.39196,0.86408
503.373,55.73535,-2.31035,0.3869,0.86364
503.973,55.7943,-2.31305,0.3817,0.86319
504.573,55.8533,-2.3146,0.37783,0.86275
505.173,55.9124,-2.31744,0.37107,0.8623
505.773,55.9714,-2.32045,0.36449,0.86185
506.373,56.03065,-2.32252,0.36004,0.8614
506.973,56.08984,-2.32465,0.35361,0.86096
507.573,56.14898,-2.32786,0.34772,0.86051
508.173,56.2081,-2.32984,0.3424,0.86006
508.773,56.2671,-2.33184,0.33689,0.8596
509.373,56.32598,-2.3328,0.33199,0.85915
509.973,56.38508,-2.33435,0.32684,0.8587
510.573,56.44406,-2.33642,0.32038,0.85825
511.173,56.5033,-2.33785,0.31538,0.85779
511.773,56.56253,-2.33978,0.30937,0.85734
512.373,56.62164,-2.34199,0.3082,0.85688
512.973,56.68108,-2.34387,0.30328,0.85643
513.573,56.74026,-2.3464,0.29854,0.85597
514.173,56.7995,-2.348,0.29367,0.85551
514.773,56.85861,-2.349,0.28887,0.85506
515.373,56.9177,-2.35083,0.28672,0.8546
515.973,56.9769,-2.35025,0.27967,0.85414
516.573,57.0361,-2.35264,0.27459,0.85368
517.173,57.09547,-2.35407,0.26878,0.85322
517.773,57.1547,-2.35533,0.26649,0.85276
518.373,57.21409,-2.35688,0.25747,0.8523
518.973,57.27345,-2.35904,0.25557,0.85183
519.573,57.3328,-2.36088,0.25303,0.85137
520.173,57.39207,-2.36338,0.24702,0.85091
520.773,57.4513,-2.36471,0.24058,0.85044
521.373,57.5105,-2.36601,0.23805,0.84998
521.973,57.5699,-2.36604,0.23373,0.84951
522.573,57.6293,-2.36737,0.22784,0.84905
523.173,57.68857,-2.36868,0.22362,0.84858
523.773,57.7479,-2.3699,0.21945,0.84811
524.373,57.8073,-2.3713,0.21725,0.84764
524.973,57.8667,-2.37236,0.21281,0.84717
525.573,57.9262,-2.37494,0.20708,0.8467
526.173,57.98562,-2.37493,0.20497,0.84623
526.773,58.04492,-2.37626,0.20138,0.84576
527.373,58.10434,-2.37757,0.19728,0.84529
527.973,58.16375,-2.37829,0.19438,0.84482
528.573,58.22297,-2.38032,0.19264,0.84435
529.173,58.28224,-2.3789,0.18905,0.84387
529.773,58.3416,-2.38021,0.18541,0.8434
530.373,58.4011,-2.3817,0.181,0.84292
530.973,58.46068,-2.38284,0.17815,0.84245
531.573,58.52019,-2.38285,0.17578,0.84197
532.173,58.5796,-2.38417,0.17567,0.8415
532.773,58.6391,-2.38548,0.17193,0.84102
533.373,58.69849,-2.38682,0.1703,0.84054
533.973,58.75776,-2.38807,0.17111,0.84006
534.573,58.817,-2.38942,0.16709,0.83958
535.173,58.87639,-2.39075,0.16878,0.8391
535.773,58.9355,-2.39184,0.16701,0.83862
536.373,58.9948,-2.39208,0.16621,0.83814
536.973,59.05404,-2.39198,0.166,0.83766
537.573,59.1131,-2.39297,0.16485,0.83717
538.173,59.1725,-2.39338,0.16479,0.83669
538.773,59.23203,-2.39602,0.16353,0.83621
539.373,59.29084,-2.39733,0.16336,0.83572
539.973,59.34998,-2.39734,0.16784,0.83524
540.573,59.40883,-2.39734,0.16631,0.83475
541.173,59.4679,-2.39867,0.16734,0.83426
541.773,59.52771,-2.39865,0.16803,0.83378
542.373,59.5872,-2.39997,0.16704,0.83329
542.973,59.64728,-2.40129,0.16799,0.8328
543.573,59.7072,-2.40129,0.16873,0.83231
544.173,59.7672,-2.4026,0.16956,0.83182
544.773,59.8268,-2.40256,0.16957,0.83133
545.373,59.88589,-2.40253,0.16982,0.83084
545.973,59.94531,-2.40392,0.17002,0.83035
546.573,60.00466,-2.40533,0.1712,0.82986
547.173,60.0642,-2.40656,0.17179,0.82936
547.773,60.12372,-2.40688,0.17486,0.82887
548.373,60.18303,-2.40819,0.17448,0.82838
548.973,60.2425,-2.40907,0.17434,0.82788
549.573,60.3019,-2.40966,0.17661,0.82739
550.173,60.36113,-2.41084,0.17564,0.82689
550.773,60.4206,-2.41084,0.17842,0.82639
551.373,60.4798,-2.41116,0.17691,0.8259
551.973,60.53921,-2.41248,0.17884,0.8254
552.573,60.59856,-2.4138,0.17872,0.8249
553.173,60.65781,-2.41408,0.17967,0.8244
553.773,60.7169,-2.41545,0.17825,0.8239
554.373,60.77612,-2.41643,0.1803,0.8234
554.973,60.83545,-2.41676,0.18311,0.8229
555.573,60.89473,-2.41806,0.18263,0.8224
556.173,60.9542,-2.418,0.18345,0.82189
556.773,61.0134,-2.4194,0.18548,0.82139
557.373,61.073,-2.42081,0.18663,0.82089
557.973,61.1324,-2.41967,0.18644,0.82038
558.573,61.19206,-2.42072,0.18737,0.81988
559.173,61.25176,-2.42073,0.19004,0.81937
559.773,61.31122,-2.42236,0.19369,0.81886
560.373,61.37055,-2.42445,0.19318,0.81836
560.973,61.42977,-2.42577,0.19383,0.81785
561.573,61.4892,-2.42708,0.19646,0.81734
562.173,61.54869,-2.42718,0.19683,0.81683
562.773,61.6083,-2.4276,0.20046,0.81632
563.373,61.6677,-2.42971,0.20264,0.81581
563.973,61.72715,-2.43034,0.20369,0.8153
564.573,61.7866,-2.43104,0.20854,0.81479
565.173,61.8462,-2.43301,0.21164,0.81428
565.773,61.9056,-2.43434,0.21215,0.81377
566.373,61.96519,-2.43569,0.21526,0.81325
566.973,62.02463,-2.43564,0.21981,0.81274
567.573,62.08405,-2.43584,0.21982,0.81223
568.173,62.1434,-2.43695,0.22447,0.81171
568.773,62.20279,-2.43697,0.22635,0.8112
569.373,62.26236,-2.43825,0.22925,0.81068
569.973,62.322,-2.4409,0.23243,0.81016
570.573,62.38151,-2.4423,0.23635,0.80965
571.173,62.4409,-2.44291,0.23863,0.80913
571.773,62.5005,-2.44327,0.2413,0.80861
572.373,62.56001,-2.44487,0.24264,0.80809
572.973,62.61974,-2.4442,0.24397,0.80757
573.573,62.67926,-2.44551,0.25174,0.80705
574.173,62.73868,-2.44819,0.24956,0.80653
574.773,62.79838,-2.44849,0.25148,0.80601
575.373,62.8579,-2.44959,0.2526,0.80548
575.973,62.91746,-2.4508,0.25393,0.80496
576.573,62.977,-2.45226,0.25512,0.80444
577.173,63.0365,-2.45352,0.25339,0.80391
577.773,63.0961,-2.45493,0.25159,0.80339
578.373,63.1556,-2.45618,0.24917,0.80286
578.973,63.21504,-2.45751,0.24658,0.80234
579.573,63.2744,-2.45742,0.24461,0.80181
580.173,63.33405,-2.45882,0.24299,0.80128
580.773,63.3935,-2.46015,0.23673,0.80076
581.373,63.4531,-2.4615,0.22989,0.80023
581.973,63.5125,-2.46212,0.22487,0.7997
582.573,63.57206,-2.46113,0.21974,0.79917
583.173,63.6316,-2.46211,0.2155,0.79864
583.773,63.691,-2.4634,0.2106,0.79811
584.373,63.7507,-2.46474,0.20675,0.79758
584.973,63.8102,-2.46717,0.20484,0.79705
585.573,63.8695,-2.46847,0.20044,0.79651
586.173,63.9291,-2.46979,0.1989,0.79598
586.773,63.9887,-2.46979,0.19592,0.79545
587.373,64.04836,-2.46983,0.19258,0.79491
587.973,64.10818,-2.47122,0.19065,0.79438
588.573,64.1677,-2.47252,0.18791,0.79384
589.173,64.22729,-2.47384,0.18459,0.79331
589.773,64.28693,-2.47515,0.18374,0.79277
590.373,64.3467,-2.47622,0.18052,0.79223
590.973,64.4063,-2.47684,0.18046,0.79169
591.573,64.46592,-2.4764,0.17379,0.79116
592.173,64.52554,-2.47783,0.17137,0.79062
592.773,64.58508,-2.48018,0.16746,0.79008
593.373,64.6447,-2.48087,0.1664,0.78954
593.973,64.70443,-2.48172,0.16589,0.789
594.573,64.76402,-2.48295,0.1621,0.78846
595.173,64.82365,-2.48308,0.15847,0.78791
595.773,64.88319,-2.48441,0.1561,0.78737
596.373,64.94277,-2.48578,0.15416,0.78683
596.973,65.00232,-2.4899,0.15308,0.78628
597.573,65.0617,-2.48845,0.15278,0.78574
598.173,65.12129,-2.48833,0.14952,0.7852
598.773,65.18087,-2.48846,0.14714,0.78465
599.373,65.24056,-2.48978,0.14465,0.7841
599.973,65.30031,-2.48978,0.14167,0.78356
600.573,65.36001,-2.49043,0.14128,0.78301
601.173,65.41976,-2.49174,0.14116,0.78246
601.773,65.47954,-2.49307,0.13786,0.78192
602.373,65.53918,-2.49307,0.13795,0.78137
602.973,65.59897,-2.49438,0.13664,0.78082
603.573,65.65875,-2.4957,0.13568,0.78027
604.173,65.7184,-2.49701,0.1336,0.77972
604.773,65.77831,-2.49634,0.13268,0.77917
605.373,65.83792,-2.49772,0.13373,0.77861
605.973,65.89774,-2.49768,0.13349,0.77806
606.573,65.95747,-2.49898,0.13114,0.77751
607.173,66.01734,-2.499,0.12848,0.77696
607.773,66.07724,-2.50029,0.13054,0.7764
608.373,66.1371,-2.5004,0.12942,0.77585
608.973,66.19681,-2.50129,0.12938,0.77529
609.573,66.2565,-2.50262,0.12985,0.77474
610.173,66.3163,-2.50261,0.12869,0.77418
610.773,66.37615,-2.50322,0.12493,0.77363
611.373,66.4361,-2.50328,0.12713,0.77307
611.973,66.49575,-2.5046,0.12526,0.77251
612.573,66.55546,-2.5055,0.12601,0.77195
613.173,66.61491,-2.50696,0.12701,0.77139
613.773,66.67455,-2.50723,0.12627,0.77083
614.373,66.73415,-2.50867,0.12529,0.77027
614.973,66.79381,-2.50891,0.12492,0.76971
615.573,66.85345,-2.51019,0.12299,0.76915
616.173,66.9131,-2.51019,0.1207,0.76859
616.773,66.9728,-2.50958,0.12224,0.76803
617.373,67.03237,-2.51002,0.12153,0.76747
617.973,67.09204,-2.51132,0.11867,0.7669
618.573,67.15172,-2.51151,0.11622,0.76634
619.173,67.2115,-2.51361,0.11679,0.76577
619.773,67.27123,-2.51677,0.11507,0.76521
620.373,67.33102,-2.51564,0.11277,0.76464
620.973,67.39065,-2.51426,0.11005,0.76408
621.573,67.45039,-2.51425,0.10913,0.76351
622.173,67.50999,-2.51425,0.107,0.76294
622.773,67.56958,-2.51557,0.1066,0.76238
623.373,67.6292,-2.51648,0.10343,0.76181
623.973,67.6889,-2.51688,0.10186,0.76124
624.573,67.74865,-2.5182,0.09912184,0.76067
625.173,67.80865,-2.5182,0.09869149,0.7601
625.773,67.8686,-2.51955,0.09678495,0.75953
626.373,67.9284,-2.51952,0.09354511,0.75896
626.973,67.98815,-2.52087,0.09267668,0.75839
627.573,68.04785,-2.52101,0.09360467,0.75782
628.173,68.10771,-2.52052,0.09175305,0.75725
628.773,68.16762,-2.52186,0.08998704,0.75667
629.373,68.22737,-2.52183,0.09042622,0.7561
629.973,68.28706,-2.52381,0.08709816,0.75553
630.573,68.3468,-2.52414,0.08532496,0.75495
631.173,68.40634,-2.52553,0.08099736,0.75438
631.773,68.4658,-2.52451,0.07956694,0.7538
632.373,68.5252,-2.52545,0.07595303,0.75322
632.973,68.5848,-2.52545,0.0762154,0.75265
633.573,68.64475,-2.52576,0.06870297,0.75207
634.173,68.70451,-2.52675,0.06930371,0.75149
634.773,68.76438,-2.52669,0.06644454,0.75092
635.373,68.82409,-2.52809,0.062549,0.75034
635.973,68.88376,-2.52809,0.0563458,0.74976
636.573,68.94355,-2.52811,0.05133764,0.74918
637.173,69.00312,-2.52909,0.05369954,0.7486
637.773,69.06299,-2.52911,0.05001815,0.74802
638.373,69.1228,-2.52939,0.05076381,0.74744
638.973,69.18228,-2.5294,0.04599469,0.74685
639.573,69.2423,-2.53073,0.04523919,0.74627
640.173,69.30219,-2.53208,0.04382832,0.74569
640.773,69.36245,-2.53204,0.03915272,0.74511
641.373,69.42269,-2.53204,0.03673713,0.74452
641.973,69.48255,-2.53072,0.0353328,0.74394
642.573,69.5426,-2.53188,0.03334747,0.74335
643.173,69.60255,-2.53204,0.03259947,0.74277
643.773,69.66248,-2.53204,0.03037234,0.74218
644.373,69.72247,-2.53336,0.02766742,0.7416
644.973,69.7822,-2.53417,0.02765731,0.74101
645.573,69.84238,-2.53335,0.02591674,0.74042
646.173,69.90239,-2.53335,0.02327079,0.73984
646.773,69.9623,-2.53465,0.02224856,0.73925
647.373,70.02229,-2.53467,0.02008427,0.73866
647.973,70.08179,-2.53467,0.01802895,0.73807
648.573,70.14156,-2.53467,0.01765573,0.73748
649.173,70.20155,-2.53599,0.01721168,0.73689
649.773,70.26175,-2.53606,0.01691866,0.7363
650.373,70.322,-2.53599,0.01433131,0.73571
650.973,70.382,-2.53599,0.01271728,0.73512
651.573,70.44174,-2.53599,0.01215071,0.73452
652.173,70.50139,-2.53708,0.01011894,0.73393
652.773,70.5613,-2.53731,0.008150785,0.73334
653.373,70.6211,-2.53731,0.007563824,0.73275
653.973,70.68104,-2.53731,0.006942564,0.73215
654.573,70.7409,-2.53736,0.005332025,0.73156
655.173,70.80077,-2.53731,0.003878629,0.73096
655.773,70.86064,-2.53731,0.005494242,0.73037
656.373,70.92054,-2.53731,0.001927474,0.72977
656.973,70.98059,-2.53863,0.004978242,0.72917
657.573,71.04058,-2.53994,0.00182507,0.72858
658.173,71.10044,-2.53994,0.005257186,0.72798
658.773,71.16028,-2.53994,0.003180835,0.72738
659.373,71.21998,-2.53994,0.00551143,0.72678
659.973,71.28005,-2.53994,0.002891877,0.72619
660.573,71.34002,-2.53994,0.004469745,0.72559
661.173,71.4001,-2.54028,0.00313947,0.72499
661.773,71.46002,-2.54027,0.003423165,0.72439
662.373,71.51994,-2.54027,0.002103572,0.72379
662.973,71.57984,-2.54159,0.003431983,0.72318
663.573,71.63982,-2.54159,0.005286148,0.72258
664.173,71.69995,-2.54159,0.005810767,0.72198
664.773,71.7599,-2.54257,0.00766347,0.72138
665.373,71.81973,-2.54321,0.005804561,0.72078
665.973,71.8796,-2.54541,0.006112772,0.72017
666.573,71.93953,-2.54579,0.006443634,0.71957
667.173,71.9996,-2.54118,0.01007613,0.71896
667.773,72.05959,-2.53983,0.007188138,0.71836
668.373,72.11968,-2.54079,0.009548212,0.71775
668.973,72.17981,-2.54245,0.00691129,0.71715
669.573,72.2397,-2.54246,0.009055929,0.71654
670.173,72.29989,-2.54378,0.00853914,0.71594
670.773,72.35988,-2.54378,0.008270382,0.71533
671.373,72.41996,-2.54378,0.01013737,0.71472
671.973,72.48,-2.54598,0.01148551,0.71411
672.573,72.54007,-2.54521,0.0136288,0.71351
673.173,72.59999,-2.54477,0.01257671,0.7129
673.773,72.65985,-2.54542,0.01365262,0.71229
674.373,72.71976,-2.54752,0.01393758,0.71168
674.973,72.77972,-2.54816,0.01392196,0.71107
675.573,72.83986,-2.54819,0.01475384,0.71046
676.173,72.89985,-2.54752,0.01481071,0.70985
676.773,72.95996,-2.5462,0.01667575,0.70924
677.373,73.01995,-2.54412,0.01400073,0.70862
677.973,73.07974,-2.54455,0.01237056,0.70801
678.573,73.13933,-2.54455,0.01433702,0.7074
679.173,73.19933,-2.54518,0.01215067,0.70679
679.773,73.25925,-2.54521,0.01234309,0.70617
680.373,73.31973,-2.54521,0.0132658,0.70556
680.973,73.3798,-2.54521,0.01137126,0.70494
681.573,73.43965,-2.54719,0.0132436,0.70433
682.173,73.4997,-2.54717,0.01352536,0.70371
682.773,73.55966,-2.54851,0.01354596,0.7031
683.373,73.61961,-2.54984,0.01579422,0.70248
683.973,73.67968,-2.54983,0.01307961,0.70187
684.573,73.73984,-2.54983,0.012237,0.70125
685.173,73.79978,-2.5495,0.01333281,0.70063
685.773,73.8601,-2.54851,0.01389803,0.70001
686.373,73.92027,-2.54851,0.01909945,0.6994
686.973,73.98046,-2.54982,0.0169301,0.69878
687.573,74.04055,-2.54982,0.01778067,0.69816
688.173,74.10028,-2.55048,0.01778976,0.69754
688.773,74.1601,-2.55114,0.01972023,0.69692
689.373,74.22022,-2.55114,0.01973186,0.6963
689.973,74.2804,-2.55015,0.02088285,0.69568
690.573,74.34059,-2.55113,0.02220455,0.69506
691.173,74.40054,-2.55114,0.02245446,0.69444
691.773,74.4605,-2.55114,0.02640413,0.69381
692.373,74.52045,-2.55114,0.0275151,0.69319
692.973,74.5805,-2.55114,0.02915582,0.69257
693.573,74.64056,-2.55147,0.03001813,0.69195
694.173,74.7007,-2.55278,0.03175292,0.69132
694.773,74.76071,-2.55279,0.03095851,0.6907
695.373,74.82089,-2.55278,0.03263491,0.69008
695.973,74.88086,-2.55378,0.03465117,0.68945
696.573,74.94103,-2.55246,0.03368094,0.68883
697.173,75.00114,-2.55246,0.03610872,0.6882
697.773,75.06124,-2.55246,0.03794526,0.68758
698.373,75.12127,-2.55245,0.03590441,0.68695
698.973,75.18123,-2.55378,0.03811973,0.68632
699.573,75.241,-2.55378,0.04102827,0.6857
700.173,75.3013,-2.55246,0.04350014,0.68507
700.773,75.36152,-2.55446,0.04350551,0.68444
701.373,75.4219,-2.55444,0.04435774,0.68381
701.973,75.48204,-2.55444,0.04393423,0.68318
702.573,75.54213,-2.55445,0.04850192,0.68256
703.173,75.60213,-2.55576,0.04839108,0.68193
703.773,75.6622,-2.55712,0.04946084,0.6813
704.373,75.72231,-2.55575,0.04954797,0.68067
704.973,75.78233,-2.55643,0.05442956,0.68004
705.573,75.84236,-2.55636,0.05407954,0.67941
706.173,75.9025,-2.55778,0.05474237,0.67877
706.773,75.96279,-2.55938,0.05959284,0.67814
707.373,76.023,-2.55936,0.06079728,0.67751
707.973,76.08317,-2.55676,0.06005223,0.67688
708.573,76.14288,-2.55806,0.06391772,0.67625
709.173,76.20233,-2.55806,0.06595635,0.67561
709.773,76.2621,-2.55807,0.06718471,0.67498
710.373,76.32204,-2.55937,0.06475868,0.67435
710.973,76.38215,-2.55937,0.06869848,0.67371
711.573,76.44261,-2.55937,0.07036082,0.67308
712.173,76.50268,-2.55937,0.07495952,0.67244
712.773,76.5632,-2.55937,0.07684366,0.67181
713.373,76.62349,-2.56066,0.07727315,0.67117
713.973,76.68382,-2.56069,0.07755821,0.67054
714.573,76.74395,-2.56069,0.07870527,0.6699
715.173,76.80388,-2.5607,0.07702105,0.66927
715.773,76.86407,-2.56165,0.07789783,0.66863
716.373,76.92448,-2.56259,0.07952223,0.66799
716.973,76.98516,-2.56266,0.07982627,0.66735
717.573,77.0453,-2.56273,0.08004925,0.66672
718.173,77.10539,-2.56201,0.08494708,0.66608
718.773,77.1656,-2.562,0.08416283,0.66544
719.373,77.22596,-2.56333,0.08943569,0.6648
719.973,77.28626,-2.56233,0.0873473,0.66416
720.573,77.34669,-2.56225,0.0905586,0.66352
721.173,77.40684,-2.56366,0.08989702,0.66288
721.773,77.46709,-2.56361,0.09148981,0.66224
722.373,77.5273,-2.56496,0.09431488,0.6616
722.973,77.58751,-2.56564,0.09702138,0.66096
723.573,77.64771,-2.56564,0.09643643,0.66032
724.173,77.7082,-2.56685,0.09522739,0.65968
724.773,77.76859,-2.5656,0.09749491,0.65904
725.373,77.82892,-2.56629,0.10072,0.65839
725.973,77.88915,-2.56629,0.10136,0.65775
726.573,77.94928,-2.56761,0.10838,0.65711
727.173,78.0095,-2.5679,0.10808,0.65647
727.773,78.0699,-2.56761,0.1076,0.65582
728.373,78.13015,-2.56761,0.11149,0.65518
728.973,78.1906,-2.56893,0.11221,0.65453
729.573,78.2509,-2.57026,0.11773,0.65389
730.173,78.3112,-2.57024,0.11769,0.65324
730.773,78.37133,-2.57024,0.12156,0.6526
731.373,78.4315,-2.57024,0.12276,0.65195
731.973,78.49186,-2.56886,0.12826,0.65131
732.573,78.55212,-2.57024,0.13023,0.65066
733.173,78.61276,-2.57025,0.13709,0.65002
733.773,78.67311,-2.57022,0.13791,0.64937
734.373,78.73334,-2.57105,0.1439,0.64872
734.973,78.7937,-2.57222,0.14826,0.64808
735.573,78.85405,-2.57222,0.15197,0.64743
736.173,78.9144,-2.57358,0.15702,0.64678
736.773,78.97468,-2.57353,0.16085,0.64613
737.373,79.0351,-2.574,0.16594,0.64548
737.973,79.09541,-2.57487,0.17043,0.64484
738.573,79.15598,-2.57584,0.17543,0.64419
739.173,79.2162,-2.57556,0.18082,0.64354
739.773,79.2765,-2.57682,0.19147,0.64289
740.373,79.3369,-2.57686,0.20269,0.64224
740.973,79.39706,-2.57683,0.20983,0.64159
741.573,79.4575,-2.57815,0.22072,0.64094
742.173,79.51786,-2.57815,0.22725,0.64029
742.773,79.57826,-2.5795,0.2318,0.63964
743.373,79.6386,-2.57941,0.23436,0.63898
743.973,79.69882,-2.57946,0.23445,0.63833
744.573,79.7591,-2.58132,0.23006,0.63768
745.173,79.8192,-2.58177,0.23123,0.63703
745.773,79.8797,-2.58309,0.22895,0.63638
746.373,79.94028,-2.58411,0.22832,0.63572
746.873,79.99082,-2.58309,0.22433,0.63518