File: 01_Data/Rubber_Foam_Pipe_Insulation/STA/N2/10K_min/Rubber_Foam_Pipe_Insulation_STA_N2_10KData_220922_R3.csv
##Temp./Â°C,Time/min,Mass loss(subtr.2)/mg,DSC(subtr.2)/(mW/mg),Sensit./(uV/mW)
50.37,10.01,0.02097,0.00387177,1.02682
50.97,10.8034,0.01985051,0.03615392,1.02677
51.57,11.0221,0.02349207,0.05855129,1.02672
52.17,11.18383,0.02599499,0.07942501,1.02667
52.77,11.32123,0.02290623,0.09584375,1.02662
53.37,11.4445,0.02528136,0.10961,1.02656
53.97,11.5573,0.02551144,0.12207,1.02651
54.57,11.66259,0.02656185,0.13369,1.02646
55.17,11.7628,0.02658637,0.14144,1.0264
55.77,11.8588,0.0272349,0.15156,1.02635
56.37,11.95173,0.02702622,0.15684,1.0263
56.97,12.04162,0.0208121,0.16533,1.02624
57.57,12.129,0.01688842,0.17299,1.02619
58.17,12.21453,0.01772706,0.17987,1.02614
58.77,12.2979,0.02091768,0.18697,1.02608
59.37,12.38025,0.02589571,0.18988,1.02603
59.97,12.46106,0.02540433,0.19609,1.02597
60.57,12.5408,0.02659049,0.19876,1.02592
61.17,12.6187,0.02604313,0.20347,1.02586
61.77,12.696,0.02445277,0.2059,1.02581
62.37,12.77309,0.02529962,0.21019,1.02575
62.97,12.84935,0.02413437,0.21353,1.02569
63.57,12.9248,0.02489915,0.21516,1.02564
64.17,12.99883,0.0268828,0.21726,1.02558
64.77,13.07262,0.02695641,0.22,1.02552
65.37,13.1462,0.02418546,0.21854,1.02547
65.97,13.2191,0.02145426,0.22046,1.02541
66.57,13.291,0.02284938,0.22165,1.02535
67.17,13.36195,0.02441508,0.22311,1.02529
67.77,13.4333,0.02801457,0.2251,1.02524
68.37,13.5039,0.02919173,0.22611,1.02518
68.97,13.57455,0.02774789,0.22975,1.02512
69.57,13.6443,0.02598236,0.22973,1.02506
70.17,13.71372,0.0270275,0.23015,1.025
70.77,13.7824,0.02980479,0.23153,1.02494
71.37,13.851,0.0285277,0.23472,1.02488
71.97,13.91932,0.02723336,0.23483,1.02482
72.57,13.98735,0.02545185,0.2372,1.02476
73.17,14.05515,0.02320786,0.23913,1.0247
73.77,14.12274,0.02069798,0.23952,1.02464
74.37,14.19006,0.0234983,0.2428,1.02458
74.97,14.25593,0.0231605,0.24563,1.02452
75.57,14.3223,0.02361828,0.24519,1.02446
76.17,14.3884,0.02224815,0.24844,1.0244
76.77,14.455,0.02065719,0.24874,1.02434
77.37,14.52029,0.02405019,0.25028,1.02427
77.97,14.58567,0.02837387,0.25016,1.02421
78.57,14.6509,0.02898907,0.25116,1.02415
79.17,14.71626,0.02784993,0.25099,1.02409
79.77,14.78113,0.0250213,0.2547,1.02402
80.37,14.84575,0.02239178,0.25627,1.02396
80.97,14.9098,0.02108681,0.25478,1.0239
81.57,14.9739,0.02141475,0.25816,1.02383
82.17,15.03786,0.02288678,0.2581,1.02377
82.77,15.10191,0.02532135,0.25957,1.0237
83.37,15.16564,0.02536251,0.26074,1.02364
83.97,15.2292,0.0266811,0.26006,1.02357
84.57,15.29217,0.02535439,0.26242,1.02351
85.17,15.3549,0.02407504,0.26207,1.02344
85.77,15.4177,0.0242508,0.26323,1.02338
86.37,15.48037,0.02536712,0.26417,1.02331
86.97,15.5432,0.02404015,0.26665,1.02325
87.57,15.60491,0.0240888,0.269,1.02318
88.17,15.66709,0.02271979,0.26842,1.02311
88.77,15.7287,0.02274118,0.27133,1.02305
89.37,15.79079,0.02274075,0.27136,1.02298
89.97,15.8524,0.02273195,0.27472,1.02291
90.57,15.91368,0.02311411,0.27501,1.02284
91.17,15.97499,0.02600475,0.27688,1.02277
91.77,16.0361,0.02581112,0.27819,1.02271
92.37,16.09778,0.02459978,0.27655,1.02264
92.97,16.15858,0.02459962,0.28113,1.02257
93.57,16.21949,0.02588147,0.2807,1.0225
94.17,16.2803,0.02692007,0.28143,1.02243
94.77,16.34071,0.02723171,0.2818,1.02236
95.37,16.4011,0.02890052,0.28327,1.02229
95.97,16.46145,0.02878205,0.2841,1.02222
96.57,16.52159,0.02604263,0.28744,1.02215
97.17,16.58168,0.02469592,0.28891,1.02208
97.77,16.64126,0.02327942,0.29015,1.02201
98.37,16.7011,0.02193285,0.2911,1.02194
98.97,16.76074,0.02195999,0.29261,1.02186
99.57,16.82065,0.02195415,0.2951,1.02179
100.17,16.88064,0.0232712,0.29644,1.02172
100.77,16.9403,0.02459061,0.29683,1.02165
101.37,17,0.02590976,0.29743,1.02157
101.97,17.0594,0.02592964,0.30133,1.0215
102.57,17.11873,0.02718841,0.3014,1.02143
103.17,17.1776,0.02544738,0.30327,1.02135
103.77,17.2367,0.02459677,0.30373,1.02128
104.37,17.29533,0.02326974,0.30686,1.0212
104.97,17.35442,0.02195339,0.30741,1.02113
105.57,17.41388,0.02196,0.3082,1.02105
106.17,17.47329,0.02196125,0.30798,1.02098
106.77,17.53293,0.02331533,0.30782,1.0209
107.37,17.59197,0.02326069,0.30842,1.02083
107.97,17.65089,0.02460308,0.30926,1.02075
108.57,17.7099,0.02459976,0.30975,1.02067
109.17,17.7687,0.02590791,0.30974,1.0206
109.77,17.82732,0.02724075,0.30945,1.02052
110.37,17.88616,0.02492807,0.3126,1.02044
110.97,17.94511,0.02278076,0.31375,1.02037
111.57,18.00414,0.02221499,0.31534,1.02029
112.17,18.06309,0.02509879,0.31488,1.02021
112.77,18.12163,0.02371963,0.31747,1.02013
113.37,18.1802,0.02370672,0.32072,1.02005
113.97,18.239,0.01997192,0.32191,1.01997
114.57,18.29725,0.01958004,0.3219,1.01989
115.17,18.35613,0.02063733,0.3251,1.01981
115.77,18.41466,0.02096987,0.32536,1.01973
116.37,18.473,0.02096162,0.32563,1.01965
116.97,18.53161,0.01964738,0.3283,1.01957
117.57,18.59013,0.01964943,0.32888,1.01949
118.17,18.6488,0.01862237,0.32884,1.01941
118.77,18.70727,0.01990422,0.32841,1.01933
119.37,18.76575,0.02281721,0.32815,1.01924
119.97,18.82398,0.02548274,0.32809,1.01916
120.57,18.88242,0.02552465,0.32816,1.01908
121.17,18.94061,0.02333921,0.32544,1.019
121.77,18.9987,0.02272994,0.32446,1.01891
122.37,19.057,0.02271739,0.32297,1.01883
122.97,19.11521,0.02081103,0.32273,1.01874
123.57,19.17367,0.01997996,0.32319,1.01866
124.17,19.2319,0.01998001,0.32544,1.01857
124.77,19.2899,0.01997927,0.32418,1.01849
125.37,19.34797,0.01949036,0.32249,1.0184
125.97,19.40587,0.02158381,0.32495,1.01832
126.57,19.4636,0.02130952,0.3228,1.01823
127.17,19.52211,0.0213402,0.32359,1.01815
127.77,19.5802,0.0199802,0.323,1.01806
128.37,19.63824,0.01866894,0.32471,1.01797
128.97,19.69645,0.02009138,0.32568,1.01789
129.57,19.75411,0.0187026,0.3247,1.0178
130.17,19.81194,0.02017146,0.3258,1.01771
130.77,19.86972,0.0200956,0.3254,1.01762
131.37,19.92752,0.01874432,0.32624,1.01753
131.97,19.98537,0.01871925,0.32734,1.01744
132.57,20.04324,0.01975211,0.32795,1.01735
133.17,20.101,0.02043102,0.32737,1.01726
133.77,20.15857,0.01957217,0.32911,1.01717
134.37,20.21639,0.01878685,0.32912,1.01708
134.97,20.27417,0.01882265,0.33005,1.01699
135.57,20.332,0.01746079,0.32996,1.0169
136.17,20.38961,0.01745959,0.32919,1.01681
136.77,20.44716,0.01613607,0.32936,1.01672
137.37,20.50477,0.01614001,0.32969,1.01663
137.97,20.56236,0.01615198,0.33009,1.01653
138.57,20.61958,0.01746103,0.33113,1.01644
139.17,20.67698,0.01770427,0.33266,1.01635
139.77,20.7344,0.01746332,0.33315,1.01625
140.37,20.79184,0.0166642,0.33387,1.01616
140.97,20.84977,0.0188976,0.33201,1.01607
141.57,20.90717,0.0202103,0.33379,1.01597
142.17,20.9645,0.02018998,0.33371,1.01588
142.77,21.02176,0.01680954,0.33595,1.01578
143.37,21.0791,0.01193189,0.33701,1.01569
143.97,21.13644,0.00870062,0.33746,1.01559
144.57,21.194,0.00919606,0.33975,1.01549
145.17,21.2512,0.01197472,0.33848,1.0154
145.77,21.3085,0.01363971,0.33886,1.0153
146.37,21.36574,0.01555651,0.33786,1.0152
146.97,21.42282,0.01481994,0.33995,1.01511
147.57,21.48019,0.01381449,0.33906,1.01501
148.17,21.5374,0.01483206,0.34009,1.01491
148.77,21.59467,0.01491656,0.33959,1.01481
149.37,21.65192,0.01401044,0.34066,1.01471
149.97,21.70917,0.0132449,0.3416,1.01461
150.57,21.76649,0.01218766,0.33984,1.01451
151.17,21.8237,0.009445026,0.3423,1.01441
151.77,21.8806,0.00955018,0.34251,1.01431
152.37,21.9377,0.01085815,0.34009,1.01421
152.97,21.99478,0.01086987,0.34307,1.01411
153.57,22.052,0.01072114,0.34496,1.01401
154.17,22.10916,0.009515035,0.34431,1.0139
154.77,22.16617,0.01278425,0.34577,1.0138
155.37,22.2229,0.01218333,0.34591,1.0137
155.97,22.2798,0.01220126,0.3461,1.01359
156.57,22.3372,0.01087662,0.34854,1.01349
157.17,22.39455,0.009550365,0.34914,1.01339
157.77,22.4517,0.008234655,0.34857,1.01328
158.37,22.50862,0.008240026,0.35165,1.01318
158.97,22.56564,0.007311693,0.35174,1.01307
159.57,22.62248,0.005623614,0.35368,1.01297
160.17,22.6794,0.005585493,0.35471,1.01286
160.77,22.7364,0.005600552,0.35587,1.01275
161.37,22.79325,0.0056,0.35801,1.01265
161.97,22.8504,0.005600025,0.35785,1.01254
162.57,22.90748,0.00427734,0.35836,1.01243
163.17,22.96451,0.002906394,0.36062,1.01232
163.77,23.02153,0.0008623678,0.36384,1.01222
164.37,23.0785,0.00033063,0.36417,1.01211
164.97,23.13555,0.0017465,0.36524,1.012
165.57,23.19256,0.0017548,0.36513,1.01189
166.17,23.24963,0.001760001,0.36784,1.01178
166.77,23.30667,0.00176,0.36883,1.01167
167.37,23.36371,0.00176,0.36931,1.01156
167.97,23.42095,0.00176,0.37228,1.01145
168.57,23.47798,0.001759585,0.37159,1.01134
169.17,23.53506,-0.0008541884,0.37369,1.01122
169.77,23.5922,-0.002195917,0.37797,1.01111
170.37,23.6491,-0.00352559,0.37899,1.011
170.97,23.7062,-0.004903513,0.38012,1.01089
171.57,23.7632,-0.00483004,0.38426,1.01077
172.17,23.82031,-0.004830918,0.38649,1.01066
172.77,23.87732,-0.00470839,0.38802,1.01054
173.37,23.93435,-0.00471679,0.39034,1.01043
173.97,23.9915,-0.006030636,0.39145,1.01032
174.57,24.04854,-0.00603546,0.39483,1.0102
175.17,24.10548,-0.007358455,0.39489,1.01008
175.77,24.16251,-0.007359819,0.39668,1.00997
176.37,24.2192,-0.007970651,0.39877,1.00985
176.97,24.27601,-0.007983745,0.40186,1.00973
177.57,24.333,-0.008677921,0.40549,1.00962
178.17,24.39013,-0.00998027,0.40583,1.0095
178.77,24.44719,-0.009979997,0.40913,1.00938
179.37,24.50429,-0.009979845,0.41127,1.00926
179.97,24.56126,-0.01033082,0.41393,1.00914
180.57,24.6185,-0.01084377,0.41563,1.00902
181.17,24.67537,-0.01259478,0.41992,1.0089
181.77,24.7322,-0.01261999,0.42154,1.00878
182.37,24.78875,-0.01261998,0.42356,1.00866
182.97,24.8454,-0.01252472,0.42645,1.00854
183.57,24.90168,-0.01697882,0.42817,1.00842
184.17,24.95855,-0.02029432,0.43225,1.0083
184.77,25.01605,-0.02097409,0.43463,1.00817
185.37,25.07317,-0.020997,0.43778,1.00805
185.97,25.13012,-0.02229003,0.43991,1.00793
186.57,25.1869,-0.02238545,0.44046,1.0078
187.17,25.2438,-0.02096981,0.44344,1.00768
187.77,25.30051,-0.02227282,0.44577,1.00756
188.37,25.35746,-0.02364866,0.449,1.00743
188.97,25.4143,-0.02479983,0.45379,1.0073
189.57,25.47114,-0.02557146,0.45383,1.00718
190.17,25.52792,-0.02673334,0.45704,1.00705
190.77,25.58468,-0.02792284,0.4583,1.00693
191.37,25.6415,-0.02820798,0.45885,1.0068
191.97,25.6984,-0.02953205,0.4626,1.00667
192.57,25.75558,-0.02952964,0.46501,1.00654
193.17,25.81261,-0.03025533,0.46582,1.00641
193.77,25.8695,-0.03016562,0.46653,1.00629
194.37,25.92633,-0.03260041,0.46748,1.00616
194.97,25.9831,-0.03555771,0.46958,1.00603
195.57,26.04007,-0.03546261,0.46902,1.0059
196.17,26.0967,-0.03811379,0.47001,1.00577
196.77,26.1536,-0.0394005,0.47407,1.00563
197.37,26.21068,-0.03941038,0.47425,1.0055
197.97,26.26765,-0.03941147,0.47402,1.00537
198.57,26.32495,-0.04111572,0.47621,1.00524
199.17,26.38195,-0.04368853,0.47661,1.00511
199.77,26.43869,-0.04507743,0.4805,1.00497
200.37,26.49577,-0.04631594,0.47932,1.00484
200.97,26.5528,-0.04873982,0.47955,1.0047
201.57,26.61005,-0.05004989,0.48094,1.00457
202.17,26.66709,-0.04920199,0.48184,1.00443
202.77,26.72403,-0.05125113,0.48147,1.0043
203.37,26.78101,-0.05334439,0.48442,1.00416
203.97,26.838,-0.05564725,0.48344,1.00403
204.57,26.8949,-0.05595117,0.48547,1.00389
205.17,26.9519,-0.05664006,0.48334,1.00375
205.77,27.0088,-0.05664,0.48354,1.00361
206.37,27.06587,-0.05664073,0.48228,1.00348
206.97,27.12289,-0.05704182,0.48445,1.00334
207.57,27.17987,-0.05937153,0.48517,1.0032
208.17,27.2368,-0.06466549,0.48417,1.00306
208.77,27.29375,-0.06744384,0.48582,1.00292
209.37,27.35067,-0.06882964,0.48576,1.00278
209.97,27.40762,-0.06883,0.48711,1.00264
210.57,27.4646,-0.06882695,0.4848,1.00249
211.17,27.52165,-0.07023552,0.48564,1.00235
211.77,27.57845,-0.07157171,0.48683,1.00221
212.37,27.63529,-0.07286635,0.48746,1.00207
212.97,27.69193,-0.07288998,0.48847,1.00192
213.57,27.7488,-0.07312882,0.49009,1.00178
214.17,27.80572,-0.07547416,0.48968,1.00164
214.77,27.8625,-0.07707369,0.49297,1.00149
215.37,27.91938,-0.07856908,0.49383,1.00135
215.97,27.97615,-0.07991004,0.49539,1.0012
216.57,28.0329,-0.08130003,0.49736,1.00105
217.17,28.08965,-0.08395876,0.49821,1.00091
217.77,28.14622,-0.08788946,0.50151,1.00076
218.37,28.20325,-0.08934202,0.50544,1.00061
218.97,28.26022,-0.09057071,0.50674,1.00046
219.57,28.3171,-0.0918821,0.51105,1.00032
220.17,28.37405,-0.09319819,0.5154,1.00017
220.77,28.4305,-0.09323072,0.51943,1.00002
221.37,28.48725,-0.09448664,0.52546,0.99987
221.97,28.5442,-0.09831609,0.53156,0.99972
222.57,28.60111,-0.10002,0.53603,0.99957
223.17,28.65826,-0.10144,0.54006,0.99941
223.77,28.71515,-0.10407,0.54908,0.99926
224.37,28.77202,-0.10566,0.55845,0.99911
224.97,28.8288,-0.10837,0.56807,0.99896
225.57,28.88562,-0.1096,0.57534,0.9988
226.17,28.9422,-0.11234,0.58707,0.99865
226.77,28.99904,-0.11394,0.59732,0.9985
227.37,29.056,-0.11601,0.60795,0.99834
227.97,29.11295,-0.11834,0.61918,0.99818
228.57,29.16975,-0.12218,0.63407,0.99803
229.17,29.2268,-0.12522,0.64577,0.99787
229.77,29.28374,-0.12673,0.66073,0.99772
230.37,29.3413,-0.12994,0.67609,0.99756
230.97,29.3984,-0.13298,0.69281,0.9974
231.57,29.4553,-0.13639,0.70739,0.99724
232.17,29.51243,-0.14113,0.72669,0.99708
232.77,29.5695,-0.14423,0.74552,0.99692
233.37,29.62685,-0.14704,0.76499,0.99676
233.97,29.68425,-0.14974,0.78708,0.9966
234.57,29.74135,-0.15333,0.80573,0.99644
235.17,29.79843,-0.15714,0.82704,0.99628
235.77,29.8557,-0.1605,0.85287,0.99612
236.37,29.91283,-0.16539,0.87744,0.99596
236.97,29.9699,-0.16917,0.90053,0.9958
237.57,30.027,-0.17426,0.9282,0.99563
238.17,30.08445,-0.18027,0.94948,0.99547
238.77,30.14197,-0.18683,0.97873,0.9953
239.37,30.19932,-0.19195,1.00384,0.99514
239.97,30.25665,-0.19588,1.0254,0.99497
240.57,30.31375,-0.20052,1.04276,0.99481
241.17,30.37095,-0.2067,1.04506,0.99464
241.77,30.42827,-0.21198,1.02419,0.99447
242.37,30.48535,-0.21781,0.98436,0.99431
242.97,30.5424,-0.22239,0.9298,0.99414
243.57,30.59934,-0.22654,0.87529,0.99397
244.17,30.65618,-0.22999,0.81646,0.9938
244.77,30.71313,-0.23377,0.76145,0.99363
245.37,30.76977,-0.2405,0.71232,0.99346
245.97,30.8266,-0.24793,0.66599,0.99329
246.57,30.8834,-0.2554,0.63027,0.99312
247.17,30.94016,-0.26019,0.60281,0.99295
247.77,30.99676,-0.26366,0.58833,0.99278
248.37,31.05317,-0.27047,0.58155,0.99261
248.97,31.1096,-0.27962,0.58325,0.99243
249.57,31.16638,-0.28814,0.59054,0.99226
250.17,31.2235,-0.29143,0.60442,0.99208
250.77,31.28081,-0.29818,0.61844,0.99191
251.37,31.33755,-0.30602,0.63142,0.99173
251.97,31.39445,-0.31446,0.64568,0.99156
252.57,31.4513,-0.32367,0.65997,0.99138
253.17,31.50832,-0.33104,0.67501,0.99121
253.77,31.56539,-0.3398,0.68612,0.99103
254.37,31.6226,-0.34827,0.69488,0.99085
254.97,31.67972,-0.35674,0.70164,0.99067
255.57,31.73695,-0.36511,0.70445,0.99049
256.17,31.7941,-0.37394,0.70698,0.99031
256.77,31.85142,-0.38177,0.70724,0.99013
257.37,31.9086,-0.39327,0.7031,0.98995
257.97,31.9657,-0.40401,0.69672,0.98977
258.57,32.02262,-0.41677,0.68712,0.98959
259.17,32.0795,-0.42859,0.67441,0.98941
259.77,32.13641,-0.44081,0.65315,0.98923
260.37,32.19339,-0.45386,0.62324,0.98904
260.97,32.25057,-0.46682,0.57998,0.98886
261.57,32.30761,-0.48224,0.52226,0.98868
262.17,32.36441,-0.49833,0.44861,0.98849
262.77,32.42113,-0.5172,0.3636,0.98831
263.37,32.47773,-0.53757,0.26742,0.98812
263.97,32.53433,-0.55974,0.16778,0.98793
264.57,32.5909,-0.58321,0.07440232,0.98775
265.17,32.64745,-0.60552,0.00616347,0.98756
265.77,32.70387,-0.63004,-0.03128722,0.98737
266.37,32.76007,-0.65445,-0.02893288,0.98718
266.97,32.81684,-0.6778,0.01425675,0.98699
267.57,32.87372,-0.70057,0.08502591,0.9868
268.17,32.9307,-0.7196,0.17752,0.98661
268.77,32.98818,-0.73734,0.2797,0.98642
269.37,33.04535,-0.75077,0.38098,0.98623
269.97,33.10259,-0.76325,0.47211,0.98604
270.57,33.1599,-0.77484,0.55009,0.98585
271.17,33.21739,-0.78807,0.61606,0.98565
271.77,33.27496,-0.79705,0.67005,0.98546
272.37,33.3328,-0.80545,0.71258,0.98527
272.97,33.39043,-0.81485,0.74471,0.98507
273.57,33.44792,-0.82265,0.76621,0.98488
274.17,33.50548,-0.83161,0.77996,0.98468
274.77,33.56286,-0.84045,0.78488,0.98449
275.37,33.62027,-0.84535,0.788,0.98429
275.97,33.67778,-0.85214,0.7821,0.98409
276.57,33.73527,-0.8553,0.77437,0.98389
277.17,33.7926,-0.86163,0.76196,0.98369
277.77,33.84962,-0.86932,0.75007,0.9835
278.37,33.90679,-0.87594,0.7347,0.9833
278.97,33.96403,-0.88223,0.71706,0.9831
279.57,34.02165,-0.88832,0.69928,0.98289
280.17,34.07901,-0.89372,0.68093,0.98269
280.77,34.13626,-0.90052,0.66191,0.98249
281.37,34.19352,-0.90303,0.64315,0.98229
281.97,34.25026,-0.90516,0.62448,0.98209
282.57,34.30725,-0.90929,0.60981,0.98188
283.17,34.3645,-0.91443,0.591,0.98168
283.77,34.4219,-0.91989,0.57392,0.98147
284.37,34.47943,-0.92322,0.55951,0.98127
284.97,34.53683,-0.92787,0.54467,0.98106
285.57,34.59385,-0.9304,0.53077,0.98086
286.17,34.65104,-0.93392,0.51736,0.98065
286.77,34.7083,-0.93625,0.50585,0.98044
287.37,34.76549,-0.93964,0.49371,0.98023
287.97,34.82266,-0.94392,0.48757,0.98002
288.57,34.87986,-0.94763,0.4761,0.97981
289.17,34.93657,-0.95144,0.46753,0.9796
289.77,34.99372,-0.95476,0.45979,0.97939
290.37,35.0509,-0.95718,0.45164,0.97918
290.97,35.10835,-0.95983,0.44533,0.97897
291.57,35.16576,-0.96434,0.43938,0.97876
292.17,35.22309,-0.96827,0.43451,0.97855
292.77,35.28034,-0.97061,0.42997,0.97833
293.37,35.33748,-0.97245,0.42438,0.97812
293.97,35.39495,-0.9734,0.41916,0.9779
294.57,35.45224,-0.97539,0.41519,0.97769
295.17,35.5095,-0.97983,0.41262,0.97747
295.77,35.56686,-0.98316,0.40832,0.97726
296.37,35.62397,-0.98749,0.40577,0.97704
296.97,35.68143,-0.98771,0.4024,0.97682
297.57,35.73873,-0.99015,0.39743,0.97661
298.17,35.79603,-0.99167,0.39573,0.97639
298.77,35.85329,-0.99409,0.39398,0.97617
299.37,35.9105,-0.99617,0.39162,0.97595
299.97,35.96784,-1.00003,0.38941,0.97573
300.57,36.0252,-1.00143,0.3862,0.97551
301.17,36.08252,-1.00491,0.38341,0.97528
301.77,36.13986,-1.00693,0.38151,0.97506
302.37,36.1971,-1.00929,0.37937,0.97484
302.97,36.25436,-1.01199,0.37673,0.97462
303.57,36.3118,-1.01376,0.37735,0.97439
304.17,36.36916,-1.01792,0.37666,0.97417
304.77,36.42665,-1.02467,0.37611,0.97394
305.37,36.4841,-1.02921,0.37541,0.97372
305.97,36.54149,-1.03021,0.37445,0.97349
306.57,36.59892,-1.0302,0.37386,0.97326
307.17,36.65632,-1.03151,0.37256,0.97304
307.77,36.71376,-1.03321,0.37125,0.97281
308.37,36.77124,-1.03448,0.3692,0.97258
308.97,36.82886,-1.03693,0.36784,0.97235
309.57,36.8863,-1.03982,0.3667,0.97212
310.17,36.94377,-1.04259,0.36522,0.97189
310.77,37.00092,-1.04394,0.36499,0.97166
311.37,37.05839,-1.04571,0.36265,0.97143
311.97,37.11586,-1.04816,0.36218,0.97119
312.57,37.17358,-1.05092,0.3632,0.97096
313.17,37.2313,-1.05404,0.36053,0.97073
313.77,37.28862,-1.0577,0.3598,0.97049
314.37,37.34604,-1.05901,0.35838,0.97026
314.97,37.4032,-1.0613,0.35943,0.97002
315.57,37.4609,-1.06218,0.35849,0.96979
316.17,37.51833,-1.06409,0.35677,0.96955
316.77,37.57578,-1.067,0.35669,0.96931
317.37,37.6335,-1.07045,0.35756,0.96907
317.97,37.69123,-1.07296,0.3571,0.96884
318.57,37.74865,-1.07565,0.35505,0.9686
319.17,37.80627,-1.07679,0.35463,0.96836
319.77,37.86367,-1.07696,0.35425,0.96812
320.37,37.92131,-1.07828,0.35376,0.96788
320.97,37.97915,-1.08061,0.35316,0.96763
321.57,38.03686,-1.08342,0.35141,0.96739
322.17,38.09446,-1.08774,0.35349,0.96715
322.77,38.152,-1.09055,0.35312,0.96691
323.37,38.2095,-1.09047,0.35133,0.96666
323.97,38.2671,-1.09318,0.34955,0.96642
324.57,38.32455,-1.09469,0.35055,0.96617
325.17,38.38216,-1.09852,0.35023,0.96593
325.77,38.43971,-1.10134,0.34895,0.96568
326.37,38.49735,-1.10266,0.34601,0.96543
326.97,38.55502,-1.10268,0.34689,0.96519
327.57,38.6128,-1.1059,0.34534,0.96494
328.17,38.67045,-1.11071,0.34383,0.96469
328.77,38.7282,-1.1133,0.34319,0.96444
329.37,38.78591,-1.11491,0.34232,0.96419
329.97,38.84359,-1.11869,0.34301,0.96394
330.57,38.90143,-1.12178,0.34149,0.96369
331.17,38.95908,-1.12243,0.3398,0.96343
331.77,39.01672,-1.12386,0.34041,0.96318
332.37,39.0745,-1.12648,0.34149,0.96293
332.97,39.13238,-1.12847,0.34015,0.96267
333.57,39.19003,-1.1311,0.33971,0.96242
334.17,39.2479,-1.13453,0.33814,0.96216
334.77,39.30535,-1.1367,0.33681,0.96191
335.37,39.36295,-1.13863,0.33627,0.96165
335.97,39.4208,-1.14068,0.33519,0.9614
336.57,39.47838,-1.14198,0.33683,0.96114
337.17,39.53654,-1.1452,0.33457,0.96088
337.77,39.5944,-1.14689,0.33391,0.96062
338.37,39.65218,-1.14816,0.33506,0.96036
338.97,39.71007,-1.15096,0.33363,0.9601
339.57,39.76789,-1.15284,0.33201,0.95984
340.17,39.82574,-1.15499,0.33155,0.95958
340.77,39.88349,-1.15727,0.33248,0.95932
341.37,39.9414,-1.15982,0.33198,0.95905
341.97,39.99909,-1.16219,0.33016,0.95879
342.57,40.05684,-1.16402,0.32885,0.95853
343.17,40.11459,-1.16575,0.3289,0.95826
343.77,40.17237,-1.1682,0.32878,0.958
344.37,40.23018,-1.17172,0.32736,0.95773
344.97,40.2881,-1.17476,0.32749,0.95746
345.57,40.3457,-1.1776,0.32764,0.9572
346.17,40.4034,-1.18019,0.32804,0.95693
346.77,40.46123,-1.18203,0.32658,0.95666
347.37,40.5187,-1.18258,0.32732,0.95639
347.97,40.57648,-1.1845,0.32461,0.95612
348.57,40.63431,-1.18585,0.32512,0.95585
349.17,40.69214,-1.18774,0.32432,0.95558
349.77,40.75036,-1.19213,0.32478,0.95531
350.37,40.80819,-1.1953,0.32327,0.95503
350.97,40.866,-1.198,0.32217,0.95476
351.57,40.92375,-1.20233,0.32254,0.95449
352.17,40.98158,-1.20185,0.32149,0.95421
352.77,41.0393,-1.20327,0.31953,0.95394
353.37,41.0972,-1.20576,0.32016,0.95366
353.97,41.15501,-1.20838,0.32021,0.95339
354.57,41.21324,-1.2097,0.31713,0.95311
355.17,41.27114,-1.21279,0.31967,0.95283
355.77,41.32913,-1.21578,0.31877,0.95255
356.37,41.38711,-1.21737,0.32003,0.95227
356.97,41.44493,-1.22069,0.3175,0.952
357.57,41.5028,-1.2208,0.31545,0.95172
358.17,41.5608,-1.22316,0.31557,0.95143
358.77,41.61874,-1.22612,0.31414,0.95115
359.37,41.67661,-1.22945,0.31244,0.95087
359.97,41.73445,-1.23263,0.31398,0.95059
360.57,41.79245,-1.23501,0.31282,0.9503
361.17,41.85049,-1.23626,0.31188,0.95002
361.77,41.90862,-1.23792,0.31259,0.94974
362.37,41.96672,-1.24041,0.30945,0.94945
362.97,42.02467,-1.24338,0.30986,0.94916
363.57,42.0826,-1.24556,0.31088,0.94888
364.17,42.14053,-1.24738,0.31012,0.94859
364.77,42.19862,-1.24867,0.31158,0.9483
365.37,42.25656,-1.25158,0.31317,0.94801
365.97,42.31443,-1.25428,0.31399,0.94772
366.57,42.37243,-1.25742,0.31898,0.94743
367.17,42.43019,-1.26031,0.32222,0.94714
367.77,42.4882,-1.26332,0.32669,0.94685
368.37,42.54623,-1.26835,0.33746,0.94656
368.97,42.6043,-1.27162,0.34852,0.94627
369.57,42.66255,-1.27434,0.36389,0.94597
370.17,42.72085,-1.2757,0.38203,0.94568
370.77,42.77916,-1.27568,0.40312,0.94539
371.37,42.8373,-1.27709,0.43018,0.94509
371.97,42.89539,-1.2828,0.46004,0.9448
372.57,42.9535,-1.29083,0.49357,0.9445
373.17,43.01162,-1.29227,0.52628,0.9442
373.77,43.0699,-1.295,0.55994,0.9439
374.37,43.128,-1.2995,0.59279,0.9436
374.97,43.18622,-1.30424,0.61706,0.94331
375.57,43.24451,-1.31126,0.63941,0.94301
376.17,43.3029,-1.3183,0.65133,0.94271
376.77,43.3611,-1.32539,0.66295,0.9424
377.37,43.41939,-1.33147,0.66557,0.9421
377.97,43.47763,-1.3359,0.66349,0.9418
378.57,43.5359,-1.33829,0.65581,0.9415
379.17,43.59402,-1.343,0.64658,0.94119
379.77,43.65214,-1.34924,0.63546,0.94089
380.37,43.71014,-1.35495,0.62331,0.94058
380.97,43.7682,-1.35878,0.60801,0.94028
381.57,43.82634,-1.36334,0.59439,0.93997
382.17,43.8844,-1.36786,0.5794,0.93966
382.77,43.94236,-1.3743,0.56547,0.93936
383.37,44.0006,-1.37737,0.5504,0.93905
383.97,44.0587,-1.38303,0.53226,0.93874
384.57,44.11658,-1.38707,0.52051,0.93843
385.17,44.17485,-1.39039,0.50576,0.93812
385.77,44.23302,-1.39277,0.49155,0.93781
386.37,44.29107,-1.39626,0.47861,0.93749
386.97,44.34923,-1.39951,0.46353,0.93718
387.57,44.40735,-1.40111,0.45026,0.93687
388.17,44.46542,-1.40557,0.43815,0.93655
388.77,44.52343,-1.41116,0.42477,0.93624
389.37,44.5814,-1.4143,0.41361,0.93592
389.97,44.63967,-1.4177,0.40417,0.93561
390.57,44.69781,-1.42191,0.39439,0.93529
391.17,44.7562,-1.424,0.38499,0.93498
391.77,44.81429,-1.42846,0.37388,0.93466
392.37,44.8724,-1.43337,0.36524,0.93434
392.97,44.9307,-1.43642,0.35877,0.93402
393.57,44.98863,-1.43952,0.34997,0.9337
394.17,45.04676,-1.44126,0.34243,0.93338
394.77,45.10499,-1.44461,0.33502,0.93306
395.37,45.16323,-1.44741,0.32989,0.93274
395.97,45.22153,-1.44964,0.32408,0.93241
396.57,45.2797,-1.45065,0.31669,0.93209
397.17,45.33791,-1.45195,0.31169,0.93177
397.77,45.39594,-1.45635,0.30646,0.93144
398.37,45.45409,-1.45756,0.30164,0.93112
398.97,45.5124,-1.45924,0.29716,0.93079
399.57,45.5706,-1.46379,0.29335,0.93046
400.17,45.62878,-1.46725,0.28969,0.93014
400.77,45.68707,-1.47035,0.28538,0.92981
401.37,45.74548,-1.4711,0.28272,0.92948
401.97,45.80362,-1.47368,0.28057,0.92915
402.57,45.862,-1.47758,0.27947,0.92882
403.17,45.92029,-1.48034,0.27812,0.92849
403.77,45.97848,-1.48388,0.27581,0.92816
404.37,46.0373,-1.48902,0.27429,0.92783
404.97,46.0956,-1.4905,0.272,0.92749
405.57,46.15398,-1.49306,0.27188,0.92716
406.17,46.21218,-1.49479,0.27035,0.92682
406.77,46.27037,-1.49747,0.26949,0.92649
407.37,46.3286,-1.50121,0.26985,0.92615
407.97,46.387,-1.50293,0.26998,0.92582
408.57,46.44552,-1.50506,0.26993,0.92548
409.17,46.50397,-1.50824,0.26952,0.92514
409.77,46.56259,-1.51155,0.26959,0.92481
410.37,46.62099,-1.51566,0.27015,0.92447
410.97,46.67951,-1.51914,0.27202,0.92413
411.57,46.7377,-1.52099,0.27135,0.92379
412.17,46.79592,-1.52557,0.26994,0.92345
412.77,46.85429,-1.52825,0.27131,0.9231
413.37,46.9125,-1.53109,0.27314,0.92276
413.97,46.9713,-1.53563,0.27213,0.92242
414.57,47.02985,-1.53893,0.27472,0.92207
415.17,47.08833,-1.54262,0.27351,0.92173
415.77,47.14679,-1.54726,0.27593,0.92139
416.37,47.20524,-1.55104,0.27513,0.92104
416.97,47.2637,-1.55351,0.27716,0.92069
417.57,47.32216,-1.55819,0.27846,0.92035
418.17,47.38069,-1.56438,0.28053,0.92
418.77,47.43913,-1.56719,0.28238,0.91965
419.37,47.49754,-1.56862,0.28403,0.9193
419.97,47.5561,-1.57325,0.28668,0.91895
420.57,47.61449,-1.57847,0.28671,0.9186
421.17,47.67283,-1.5811,0.29085,0.91825
421.77,47.73128,-1.58402,0.29069,0.9179
422.37,47.7898,-1.59074,0.29134,0.91754
422.97,47.84857,-1.59456,0.29562,0.91719
423.57,47.9075,-1.59875,0.29561,0.91684
424.17,47.96626,-1.60478,0.29815,0.91648
424.77,48.02468,-1.6084,0.30265,0.91613
425.37,48.08314,-1.6127,0.30472,0.91577
425.97,48.14157,-1.61872,0.30786,0.91541
426.57,48.20009,-1.62666,0.31075,0.91506
427.17,48.25848,-1.63239,0.31399,0.9147
427.77,48.3168,-1.63742,0.31733,0.91434
428.37,48.37546,-1.64029,0.31851,0.91398
428.97,48.43419,-1.64342,0.32295,0.91362
429.57,48.49268,-1.64738,0.3244,0.91326
430.17,48.55151,-1.65072,0.32721,0.9129
430.77,48.60971,-1.65635,0.32798,0.91254
431.37,48.66818,-1.66481,0.33274,0.91217
431.97,48.7268,-1.66959,0.33553,0.91181
432.57,48.78556,-1.67185,0.33981,0.91145
433.17,48.84499,-1.67764,0.34057,0.91108
433.77,48.9037,-1.68707,0.34401,0.91071
434.37,48.96235,-1.69217,0.34512,0.91035
434.97,49.02095,-1.69855,0.34747,0.90998
435.57,49.07955,-1.70564,0.35042,0.90961
436.17,49.13819,-1.71183,0.35323,0.90925
436.77,49.19704,-1.72017,0.35458,0.90888
437.37,49.2558,-1.72755,0.35716,0.90851
437.97,49.31471,-1.73245,0.36006,0.90814
438.57,49.3733,-1.7396,0.36471,0.90776
439.17,49.4322,-1.74786,0.36479,0.90739
439.77,49.49093,-1.753,0.36579,0.90702
440.37,49.5497,-1.75869,0.36728,0.90665
440.97,49.6085,-1.76538,0.36869,0.90627
441.57,49.66715,-1.77096,0.37161,0.9059
442.17,49.72603,-1.77643,0.37365,0.90552
442.77,49.7847,-1.78249,0.37721,0.90515
443.37,49.8435,-1.78913,0.37787,0.90477
443.97,49.90235,-1.7961,0.38014,0.90439
444.57,49.96105,-1.80224,0.38105,0.90402
445.17,50.01985,-1.80887,0.38295,0.90364
445.77,50.07861,-1.81748,0.38465,0.90326
446.37,50.1374,-1.8262,0.38612,0.90288
446.97,50.19627,-1.83346,0.38798,0.9025
447.57,50.2552,-1.83922,0.38936,0.90212
448.17,50.31414,-1.84697,0.39011,0.90173
448.77,50.37305,-1.85272,0.39136,0.90135
449.37,50.43199,-1.85975,0.39139,0.90097
449.97,50.49073,-1.86628,0.39389,0.90058
450.57,50.54938,-1.87389,0.39342,0.9002
451.17,50.6081,-1.88129,0.39393,0.89981
451.77,50.66676,-1.88985,0.39348,0.89943
452.37,50.72544,-1.89803,0.39719,0.89904
452.97,50.78419,-1.90724,0.39689,0.89865
453.57,50.84308,-1.91563,0.3979,0.89826
454.17,50.90188,-1.92351,0.39999,0.89787
454.77,50.9608,-1.92914,0.39901,0.89748
455.37,51.01955,-1.93368,0.39843,0.89709
455.97,51.07841,-1.9405,0.3998,0.8967
456.57,51.13733,-1.94964,0.40055,0.89631
457.17,51.19616,-1.95653,0.39931,0.89592
457.77,51.25501,-1.96378,0.39911,0.89553
458.37,51.3138,-1.9708,0.39827,0.89513
458.97,51.37263,-1.97873,0.39514,0.89474
459.57,51.4315,-1.98502,0.39309,0.89434
460.17,51.4904,-1.98986,0.38814,0.89395
460.77,51.54929,-1.99685,0.38688,0.89355
461.37,51.60807,-2.00376,0.38126,0.89315
461.97,51.6668,-2.00769,0.37756,0.89275
462.57,51.72547,-2.01386,0.37466,0.89236
463.17,51.78414,-2.02011,0.37161,0.89196
463.77,51.84301,-2.02637,0.36995,0.89156
464.37,51.9017,-2.03061,0.36813,0.89116
464.97,51.96046,-2.0414,0.36447,0.89075
465.57,52.01924,-2.04862,0.3624,0.89035
466.17,52.07804,-2.05213,0.36084,0.88995
466.77,52.13727,-2.05447,0.35661,0.88955
467.37,52.19604,-2.05783,0.35262,0.88914
467.97,52.25499,-2.06443,0.35144,0.88874
468.57,52.31388,-2.07563,0.35177,0.88833
469.17,52.37279,-2.07865,0.34742,0.88792
469.77,52.43159,-2.08704,0.346,0.88752
470.37,52.49026,-2.08851,0.34639,0.88711
470.97,52.54905,-2.09231,0.34395,0.8867
471.57,52.60785,-2.10189,0.34605,0.88629
472.17,52.66661,-2.10688,0.34429,0.88588
472.77,52.72557,-2.11249,0.34559,0.88547
473.37,52.7844,-2.11872,0.34585,0.88506
473.97,52.8433,-2.12463,0.34548,0.88465
474.57,52.90218,-2.12789,0.34876,0.88424
475.17,52.96088,-2.13136,0.35147,0.88382
475.77,53.0195,-2.13449,0.35292,0.88341
476.37,53.07812,-2.13747,0.35399,0.883
476.97,53.1368,-2.1409,0.35791,0.88258
477.57,53.19557,-2.14296,0.36236,0.88217
478.17,53.2545,-2.1457,0.36646,0.88175
478.77,53.31341,-2.15113,0.37378,0.88133
479.37,53.37231,-2.15523,0.37867,0.88091
479.97,53.43124,-2.15967,0.38565,0.8805
480.57,53.49004,-2.16613,0.39473,0.88008
481.17,53.54874,-2.17137,0.40004,0.87966
481.77,53.60767,-2.17563,0.40798,0.87924
482.37,53.6666,-2.17852,0.41582,0.87881
482.97,53.7259,-2.17994,0.4199,0.87839
483.57,53.7851,-2.17864,0.42739,0.87797
484.17,53.84411,-2.18053,0.43485,0.87755
484.77,53.9031,-2.18585,0.44179,0.87712
485.37,53.9621,-2.18909,0.44665,0.8767
485.97,54.021,-2.19198,0.45023,0.87627
486.57,54.08015,-2.19523,0.45478,0.87585
487.17,54.1393,-2.19862,0.45951,0.87542
487.77,54.19842,-2.20446,0.46256,0.87499
488.37,54.25721,-2.21167,0.46941,0.87456
488.97,54.3162,-2.21517,0.47234,0.87414
489.57,54.37515,-2.21788,0.47275,0.87371
490.17,54.43469,-2.21927,0.47581,0.87328
490.77,54.49377,-2.21933,0.47354,0.87285
491.37,54.5531,-2.22051,0.47442,0.87241
491.97,54.6121,-2.23059,0.477,0.87198
492.57,54.67116,-2.23674,0.47714,0.87155
493.17,54.7302,-2.2332,0.47398,0.87112
493.77,54.789,-2.23675,0.47306,0.87068
494.37,54.8479,-2.24023,0.4714,0.87025
494.97,54.9069,-2.24023,0.46855,0.86981
495.57,54.966,-2.23897,0.46665,0.86937
496.17,55.02515,-2.2426,0.46291,0.86894
496.77,55.08444,-2.24948,0.45949,0.8685
497.37,55.14355,-2.25492,0.45869,0.86806
497.97,55.20242,-2.2576,0.45279,0.86762
498.57,55.26119,-2.26133,0.45108,0.86718
499.17,55.3199,-2.26383,0.4458,0.86674
499.77,55.3789,-2.26472,0.44327,0.8663
500.37,55.43832,-2.26508,0.43641,0.86586
500.97,55.49781,-2.26716,0.43378,0.86542
501.57,55.55692,-2.26841,0.42881,0.86497
502.17,55.616,-2.27214,0.42623,0.86453
502.77,55.67507,-2.27539,0.42229,0.86409
503.37,55.7342,-2.27665,0.41569,0.86364
503.97,55.7932,-2.2791,0.41161,0.8632
504.57,55.85219,-2.28135,0.40681,0.86275
505.17,55.9111,-2.28391,0.40144,0.8623
505.77,55.97022,-2.28688,0.39626,0.86186
506.37,56.02933,-2.2882,0.39315,0.86141
506.97,56.0886,-2.28873,0.38799,0.86096
507.57,56.14793,-2.2929,0.38303,0.86051
508.17,56.20709,-2.29658,0.37838,0.86006
508.77,56.2661,-2.29829,0.3738,0.85961
509.37,56.32495,-2.29984,0.3685,0.85915
509.97,56.38394,-2.30087,0.3638,0.8587
510.57,56.4428,-2.30389,0.35966,0.85825
511.17,56.50184,-2.30519,0.35593,0.8578
511.77,56.5611,-2.31006,0.35016,0.85734
512.37,56.6204,-2.31313,0.34527,0.85689
512.97,56.6797,-2.31442,0.34066,0.85643
513.57,56.73894,-2.31683,0.33423,0.85597
514.17,56.7982,-2.31761,0.33116,0.85552
514.77,56.8574,-2.3162,0.32926,0.85506
515.37,56.91664,-2.31751,0.32197,0.8546
515.97,56.97597,-2.31883,0.31828,0.85414
516.57,57.03526,-2.32011,0.31399,0.85368
517.17,57.0946,-2.32244,0.30749,0.85322
517.77,57.15381,-2.3238,0.30381,0.85276
518.37,57.2129,-2.32247,0.29886,0.8523
518.97,57.27205,-2.32378,0.29541,0.85184
519.57,57.33121,-2.32645,0.2908,0.85137
520.17,57.39043,-2.32809,0.28764,0.85091
520.77,57.44973,-2.32903,0.28142,0.85045
521.37,57.50906,-2.33034,0.27734,0.84998
521.97,57.56833,-2.33393,0.27357,0.84952
522.57,57.62771,-2.3392,0.26905,0.84905
523.17,57.68702,-2.34004,0.26439,0.84858
523.77,57.7462,-2.33914,0.25947,0.84811
524.37,57.8053,-2.33919,0.25668,0.84765
524.97,57.86436,-2.33782,0.2518,0.84718
525.57,57.9235,-2.33782,0.24685,0.84671
526.17,57.9828,-2.33915,0.24136,0.84624
526.77,58.04217,-2.33914,0.24,0.84577
527.37,58.1015,-2.34037,0.23872,0.84529
527.97,58.1608,-2.34403,0.23481,0.84482
528.57,58.22008,-2.34562,0.23138,0.84435
529.17,58.2792,-2.34816,0.2282,0.84388
529.77,58.3384,-2.34849,0.22415,0.8434
530.37,58.3978,-2.34978,0.22167,0.84293
530.97,58.457,-2.34844,0.21991,0.84245
531.57,58.51636,-2.35098,0.2183,0.84197
532.17,58.5755,-2.3526,0.21551,0.8415
532.77,58.6348,-2.35394,0.2155,0.84102
533.37,58.69432,-2.35525,0.21105,0.84054
533.97,58.75371,-2.35528,0.2108,0.84006
534.57,58.8132,-2.35656,0.21053,0.83958
535.17,58.87255,-2.35661,0.20819,0.8391
535.77,58.93196,-2.3565,0.20839,0.83862
536.37,58.99139,-2.35913,0.20755,0.83814
536.97,59.0507,-2.35814,0.20537,0.83766
537.57,59.11005,-2.35945,0.20397,0.83718
538.17,59.1694,-2.35912,0.20451,0.83669
538.77,59.2287,-2.35946,0.20249,0.83621
539.37,59.288,-2.35954,0.20285,0.83573
539.97,59.34723,-2.35977,0.2041,0.83524
540.57,59.4065,-2.36115,0.20401,0.83475
541.17,59.4658,-2.36421,0.20441,0.83427
541.77,59.5253,-2.36638,0.20353,0.83378
542.37,59.58478,-2.36681,0.20572,0.83329
542.97,59.64424,-2.3653,0.20563,0.8328
543.57,59.70374,-2.36242,0.20439,0.83231
544.17,59.76345,-2.36389,0.20264,0.83182
544.77,59.82304,-2.36532,0.20239,0.83133
545.37,59.88275,-2.3667,0.20231,0.83084
545.97,59.9423,-2.36615,0.20397,0.83035
546.57,60.0018,-2.36538,0.20321,0.82986
547.17,60.0612,-2.36538,0.205,0.82937
547.77,60.1206,-2.36694,0.20562,0.82887
548.37,60.1801,-2.37241,0.2066,0.82838
548.97,60.23976,-2.37591,0.20924,0.82788
549.57,60.2993,-2.37621,0.2075,0.82739
550.17,60.3588,-2.37571,0.20843,0.82689
550.77,60.4182,-2.37703,0.20932,0.82639
551.37,60.4777,-2.3774,0.20857,0.8259
551.97,60.5372,-2.37713,0.2084,0.8254
552.57,60.5967,-2.38209,0.20883,0.8249
553.17,60.6562,-2.38481,0.21028,0.8244
553.77,60.7155,-2.38451,0.21261,0.8239
554.37,60.7749,-2.38434,0.21306,0.8234
554.97,60.83418,-2.3835,0.21613,0.8229
555.57,60.89365,-2.38343,0.2166,0.8224
556.17,60.95325,-2.38482,0.21777,0.8219
556.77,61.0127,-2.38485,0.21756,0.82139
557.37,61.0722,-2.3835,0.21824,0.82089
557.97,61.1318,-2.38433,0.22065,0.82038
558.57,61.1913,-2.38622,0.22172,0.81988
559.17,61.2507,-2.38626,0.22338,0.81937
559.77,61.3099,-2.38943,0.22449,0.81887
560.37,61.36945,-2.3907,0.22763,0.81836
560.97,61.42885,-2.39173,0.2265,0.81785
561.57,61.4884,-2.39304,0.22702,0.81734
562.17,61.54786,-2.3924,0.23032,0.81684
562.77,61.6072,-2.39239,0.23324,0.81633
563.37,61.66673,-2.39376,0.23573,0.81582
563.97,61.7263,-2.3937,0.23897,0.81531
564.57,61.78592,-2.39245,0.24167,0.81479
565.17,61.8455,-2.39391,0.24305,0.81428
565.77,61.90491,-2.39676,0.24715,0.81377
566.37,61.96439,-2.39893,0.24954,0.81326
566.97,62.0239,-2.40106,0.2542,0.81274
567.57,62.0835,-2.40107,0.25567,0.81223
568.17,62.143,-2.40135,0.25864,0.81171
568.77,62.20281,-2.40238,0.26256,0.8112
569.37,62.26235,-2.40238,0.26593,0.81068
569.97,62.32173,-2.40349,0.26728,0.81017
570.57,62.38129,-2.405,0.27375,0.80965
571.17,62.4406,-2.40636,0.27434,0.80913
571.77,62.50005,-2.40732,0.27884,0.80861
572.37,62.55964,-2.40895,0.27853,0.80809
572.97,62.61911,-2.40898,0.28251,0.80757
573.57,62.67855,-2.41154,0.28593,0.80705
574.17,62.73802,-2.41194,0.28536,0.80653
574.77,62.7975,-2.41218,0.28866,0.80601
575.37,62.85697,-2.41208,0.29024,0.80549
575.97,62.91639,-2.41442,0.28856,0.80496
576.57,62.976,-2.41611,0.28841,0.80444
577.17,63.0354,-2.41617,0.28681,0.80392
577.77,63.09502,-2.41752,0.28653,0.80339
578.37,63.15449,-2.41751,0.28504,0.80287
578.97,63.2139,-2.41884,0.28182,0.80234
579.57,63.27341,-2.419,0.27659,0.80181
580.17,63.33294,-2.42106,0.27411,0.80129
580.77,63.3921,-2.42149,0.2688,0.80076
581.37,63.45182,-2.42481,0.2634,0.80023
581.97,63.5114,-2.42713,0.25767,0.7997
582.57,63.5713,-2.42948,0.25467,0.79917
583.17,63.63126,-2.42973,0.25061,0.79864
583.77,63.69086,-2.43141,0.24613,0.79811
584.37,63.75023,-2.43103,0.24305,0.79758
584.97,63.8098,-2.43167,0.2418,0.79705
585.57,63.86945,-2.434,0.23694,0.79652
586.17,63.9293,-2.43462,0.23414,0.79598
586.77,63.989,-2.43466,0.23183,0.79545
587.37,64.04848,-2.43667,0.22979,0.79492
587.97,64.10758,-2.43807,0.2263,0.79438
588.57,64.16704,-2.43937,0.22459,0.79385
589.17,64.22659,-2.43937,0.22375,0.79331
589.77,64.28665,-2.44002,0.2182,0.79277
590.37,64.3466,-2.44066,0.21541,0.79224
590.97,64.4064,-2.44168,0.21219,0.7917
591.57,64.4661,-2.44301,0.21068,0.79116
592.17,64.5257,-2.4441,0.20847,0.79062
592.77,64.58519,-2.44424,0.20641,0.79008
593.37,64.64463,-2.44308,0.20368,0.78954
593.97,64.70421,-2.44433,0.20047,0.789
594.57,64.76389,-2.44424,0.19829,0.78846
595.17,64.82366,-2.44566,0.19758,0.78792
595.77,64.88345,-2.44567,0.19849,0.78737
596.37,64.94309,-2.447,0.19596,0.78683
596.97,65.00264,-2.44839,0.19523,0.78629
597.57,65.06232,-2.4497,0.19405,0.78574
598.17,65.122,-2.4511,0.19343,0.7852
598.77,65.18154,-2.45365,0.19478,0.78465
599.37,65.24127,-2.45275,0.19255,0.78411
599.97,65.30109,-2.45146,0.19075,0.78356
600.57,65.36084,-2.45082,0.19169,0.78301
601.17,65.42109,-2.45286,0.19131,0.78247
601.77,65.4809,-2.45343,0.19093,0.78192
602.37,65.54065,-2.45608,0.18967,0.78137
602.97,65.60041,-2.4584,0.19008,0.78082
603.57,65.66014,-2.46134,0.18925,0.78027
604.17,65.7203,-2.46265,0.18886,0.77972
604.77,65.78007,-2.46397,0.18733,0.77917
605.37,65.83989,-2.46397,0.18843,0.77862
605.97,65.89967,-2.46529,0.18591,0.77807
606.57,65.95939,-2.46529,0.18258,0.77751
607.17,66.0192,-2.46397,0.18303,0.77696
607.77,66.07902,-2.46401,0.18336,0.77641
608.37,66.13883,-2.46528,0.17988,0.77585
608.97,66.1987,-2.46792,0.17856,0.7753
609.57,66.25845,-2.46785,0.18098,0.77474
610.17,66.31826,-2.46925,0.18019,0.77418
610.77,66.37816,-2.46792,0.17847,0.77363
611.37,66.43786,-2.47051,0.1764,0.77307
611.97,66.4973,-2.47176,0.17309,0.77251
612.57,66.55719,-2.47193,0.17407,0.77195
613.17,66.61689,-2.4699,0.17315,0.7714
613.77,66.6768,-2.4699,0.17419,0.77084
614.37,66.73683,-2.47122,0.17337,0.77028
614.97,66.79642,-2.47122,0.17123,0.76972
615.57,66.85614,-2.47122,0.16972,0.76915
616.17,66.91566,-2.47151,0.17063,0.76859
616.77,66.97507,-2.47411,0.17193,0.76803
617.37,67.03493,-2.47321,0.16836,0.76747
617.97,67.0947,-2.4755,0.17001,0.76691
618.57,67.15481,-2.4767,0.16593,0.76634
619.17,67.2145,-2.47802,0.16575,0.76578
619.77,67.27417,-2.47949,0.16572,0.76521
620.37,67.33396,-2.47875,0.16368,0.76465
620.97,67.3938,-2.48014,0.16328,0.76408
621.57,67.4538,-2.47878,0.16118,0.76351
622.17,67.5136,-2.48008,0.1622,0.76295
622.77,67.57358,-2.47881,0.16186,0.76238
623.37,67.63339,-2.48121,0.15981,0.76181
623.97,67.69319,-2.48402,0.15542,0.76124
624.57,67.7532,-2.48568,0.155,0.76067
625.17,67.813,-2.48702,0.1537,0.7601
625.77,67.8728,-2.4857,0.15284,0.75953
626.37,67.93255,-2.48706,0.14685,0.75896
626.97,67.99221,-2.48624,0.14772,0.75839
627.57,68.05206,-2.48565,0.14739,0.75782
628.17,68.11183,-2.48538,0.1446,0.75725
628.77,68.17169,-2.48538,0.14552,0.75668
629.37,68.23161,-2.48538,0.14362,0.7561
629.97,68.2914,-2.48537,0.14123,0.75553
630.57,68.35101,-2.4867,0.13833,0.75495
631.17,68.41078,-2.48802,0.13729,0.75438
631.77,68.4705,-2.48802,0.13587,0.7538
632.37,68.53021,-2.48934,0.13423,0.75323
632.97,68.58991,-2.49033,0.13054,0.75265
633.57,68.6497,-2.48953,0.13089,0.75207
634.17,68.70921,-2.48955,0.12745,0.7515
634.77,68.76873,-2.48955,0.12819,0.75092
635.37,68.82834,-2.49085,0.12552,0.75034
635.97,68.8879,-2.49202,0.12638,0.74976
636.57,68.9477,-2.49688,0.12352,0.74918
637.17,69.00742,-2.50071,0.12344,0.7486
637.77,69.06702,-2.49944,0.1185,0.74802
638.37,69.1267,-2.49942,0.11573,0.74744
638.97,69.1864,-2.49804,0.11337,0.74686
639.57,69.246,-2.49658,0.11301,0.74628
640.17,69.3057,-2.49525,0.10911,0.74569
640.77,69.36533,-2.49517,0.10589,0.74511
641.37,69.425,-2.49533,0.10444,0.74453
641.97,69.4846,-2.49429,0.1009,0.74394
642.57,69.54434,-2.49478,0.09987683,0.74336
643.17,69.60407,-2.49831,0.09899803,0.74277
643.77,69.66396,-2.50237,0.09709814,0.74219
644.37,69.7239,-2.50506,0.09528944,0.7416
644.97,69.78371,-2.50414,0.09252726,0.74101
645.57,69.84345,-2.50283,0.0871455,0.74043
646.17,69.90343,-2.50285,0.08768092,0.73984
646.77,69.96333,-2.50415,0.08851169,0.73925
647.37,70.0233,-2.50387,0.08525999,0.73866
647.97,70.08312,-2.50149,0.0833279,0.73807
648.57,70.14273,-2.49811,0.08166298,0.73748
649.17,70.20244,-2.49712,0.07975768,0.73689
649.77,70.2624,-2.49712,0.07894219,0.7363
650.37,70.32252,-2.49732,0.07415742,0.73571
650.97,70.38249,-2.49844,0.07558011,0.73512
651.57,70.44246,-2.49854,0.0743271,0.73453
652.17,70.5021,-2.5009,0.07508057,0.73394
652.77,70.56204,-2.50108,0.0710852,0.73334
653.37,70.622,-2.5024,0.07159272,0.73275
653.97,70.6821,-2.50255,0.07068698,0.73215
654.57,70.74216,-2.5037,0.07053969,0.73156
655.17,70.80199,-2.50032,0.06749534,0.73097
655.77,70.8618,-2.50009,0.0664887,0.73037
656.37,70.9216,-2.50151,0.06904599,0.72977
656.97,70.9815,-2.50173,0.06592964,0.72918
657.57,71.0414,-2.50173,0.06610462,0.72858
658.17,71.10115,-2.50305,0.06787972,0.72798
658.77,71.16104,-2.50305,0.0647162,0.72739
659.37,71.22094,-2.50439,0.06612031,0.72679
659.97,71.28098,-2.50406,0.06432484,0.72619
660.57,71.34085,-2.50393,0.06375845,0.72559
661.17,71.40083,-2.50467,0.06806862,0.72499
661.77,71.46082,-2.51044,0.06749641,0.72439
662.37,71.52079,-2.51216,0.06643989,0.72379
662.97,71.5806,-2.51035,0.06643035,0.72319
663.57,71.6403,-2.50654,0.06525344,0.72259
664.17,71.70031,-2.50349,0.06476656,0.72198
664.77,71.75971,-2.50349,0.06612376,0.72138
665.37,71.81957,-2.50349,0.06450951,0.72078
665.97,71.87961,-2.5048,0.06651127,0.72018
666.57,71.93983,-2.5071,0.06368976,0.71957
667.17,72.00024,-2.50744,0.06530742,0.71897
667.77,72.0603,-2.50876,0.06455907,0.71836
668.37,72.12048,-2.50689,0.06251465,0.71776
668.97,72.18055,-2.50406,0.06256293,0.71715
669.57,72.24039,-2.50536,0.06311979,0.71655
670.17,72.30036,-2.50668,0.06265989,0.71594
670.77,72.36018,-2.50821,0.06299827,0.71533
671.37,72.42026,-2.50689,0.06092507,0.71473
671.97,72.48029,-2.50657,0.06199972,0.71412
672.57,72.54035,-2.50657,0.062924,0.71351
673.17,72.60042,-2.50595,0.06165452,0.7129
673.77,72.66037,-2.5069,0.06098448,0.71229
674.37,72.7204,-2.50934,0.06606141,0.71168
674.97,72.7805,-2.51095,0.06443122,0.71107
675.57,72.84042,-2.51095,0.06290607,0.71046
676.17,72.9005,-2.50744,0.05916946,0.70985
676.77,72.96064,-2.50511,0.05869844,0.70924
677.37,73.0207,-2.50692,0.05951606,0.70863
677.97,73.0809,-2.50875,0.06383165,0.70802
678.57,73.14094,-2.5114,0.05964937,0.7074
679.17,73.20088,-2.50943,0.0627383,0.70679
679.77,73.261,-2.5081,0.05922105,0.70618
680.37,73.321,-2.50872,0.06214829,0.70556
680.97,73.38112,-2.50975,0.06178367,0.70495
681.57,73.44136,-2.51204,0.06443641,0.70433
682.17,73.5014,-2.51376,0.06650991,0.70372
682.77,73.5617,-2.51582,0.06405323,0.7031
683.37,73.6219,-2.51632,0.06514996,0.70249
683.97,73.68188,-2.51501,0.06658755,0.70187
684.57,73.74201,-2.51369,0.06407038,0.70125
685.17,73.8022,-2.50983,0.06661878,0.70064
685.77,73.8622,-2.51376,0.06781076,0.70002
686.37,73.92279,-2.51678,0.06612413,0.6994
686.97,73.98314,-2.51358,0.06533497,0.69878
687.57,74.04346,-2.51028,0.06709008,0.69816
688.17,74.10387,-2.51043,0.0688348,0.69754
688.77,74.164,-2.51503,0.06791217,0.69692
689.37,74.22362,-2.51609,0.07074107,0.6963
689.97,74.28372,-2.51708,0.06933814,0.69568
690.57,74.3437,-2.51823,0.07073155,0.69506
691.17,74.404,-2.52141,0.06897721,0.69444
691.77,74.46432,-2.52141,0.06968898,0.69382
692.37,74.52433,-2.5227,0.07408969,0.6932
692.97,74.58436,-2.52269,0.07195762,0.69257
693.57,74.64447,-2.51755,0.07207188,0.69195
694.17,74.7046,-2.51572,0.07344574,0.69133
694.77,74.76475,-2.51546,0.07557505,0.6907
695.37,74.825,-2.51415,0.07653213,0.69008
695.97,74.8849,-2.51368,0.07554844,0.68945
696.57,74.945,-2.51562,0.07656379,0.68883
697.17,75.00485,-2.51582,0.07706205,0.6882
697.77,75.0649,-2.51701,0.08237836,0.68758
698.37,75.12501,-2.51754,0.08030543,0.68695
698.97,75.1855,-2.51901,0.08603668,0.68633
699.57,75.24584,-2.52201,0.08573082,0.6857
700.17,75.306,-2.52248,0.08812198,0.68507
700.77,75.36617,-2.52248,0.08731565,0.68444
701.37,75.4263,-2.52248,0.08875928,0.68382
701.97,75.48635,-2.52248,0.0902305,0.68319
702.57,75.54632,-2.52103,0.08967996,0.68256
703.17,75.60628,-2.51813,0.08949784,0.68193
703.77,75.66635,-2.51809,0.09579542,0.6813
704.37,75.72649,-2.51798,0.09336059,0.68067
704.97,75.78659,-2.52002,0.09405806,0.68004
705.57,75.8468,-2.52143,0.09700138,0.67941
706.17,75.90697,-2.52149,0.09648826,0.67878
706.77,75.96719,-2.52281,0.09672357,0.67815
707.37,76.02724,-2.52151,0.09537994,0.67751
707.97,76.08726,-2.52158,0.09681437,0.67688
708.57,76.1474,-2.52145,0.09993239,0.67625
709.17,76.20756,-2.52281,0.0991515,0.67562
709.77,76.2674,-2.52282,0.10282,0.67498
710.37,76.32766,-2.52044,0.10176,0.67435
710.97,76.38756,-2.51974,0.10453,0.67372
711.57,76.44788,-2.52232,0.10585,0.67308
712.17,76.5083,-2.5238,0.10709,0.67245
712.77,76.56857,-2.52327,0.10982,0.67181
713.37,76.62898,-2.52076,0.11107,0.67118
713.97,76.6893,-2.52052,0.10877,0.67054
714.57,76.74946,-2.52736,0.11247,0.66991
715.17,76.80977,-2.52993,0.11313,0.66927
715.77,76.86973,-2.53126,0.11555,0.66863
716.37,76.9302,-2.53018,0.11539,0.66799
716.97,76.99043,-2.52984,0.11749,0.66736
717.57,77.05081,-2.52852,0.11865,0.66672
718.17,77.1112,-2.52984,0.11953,0.66608
718.77,77.1714,-2.52982,0.12075,0.66544
719.37,77.23184,-2.52831,0.1232,0.6648
719.97,77.2923,-2.53043,0.12287,0.66416
720.57,77.3527,-2.52988,0.12552,0.66353
721.17,77.413,-2.52731,0.12702,0.66289
721.77,77.4735,-2.52746,0.1294,0.66225
722.37,77.53371,-2.52944,0.13256,0.6616
722.97,77.59401,-2.53279,0.13452,0.66096
723.57,77.65422,-2.53379,0.13725,0.66032
724.17,77.71441,-2.53534,0.1393,0.65968
724.77,77.77466,-2.53684,0.13765,0.65904
725.37,77.83484,-2.5353,0.13992,0.6584
725.97,77.89514,-2.53269,0.1389,0.65775
726.57,77.9553,-2.53412,0.14346,0.65711
727.17,78.01556,-2.53676,0.14676,0.65647
727.77,78.0758,-2.5375,0.14827,0.65583
728.37,78.13574,-2.53807,0.15165,0.65518
728.97,78.19589,-2.53772,0.15104,0.65454
729.57,78.25595,-2.53786,0.15475,0.65389
730.17,78.31588,-2.53764,0.15595,0.65325
730.77,78.37591,-2.53654,0.15472,0.6526
731.37,78.4359,-2.53618,0.1574,0.65196
731.97,78.496,-2.53611,0.16096,0.65131
732.57,78.55627,-2.53489,0.16079,0.65067
733.17,78.61635,-2.53489,0.1627,0.65002
733.77,78.67647,-2.53488,0.16403,0.64937
734.37,78.73665,-2.53621,0.16951,0.64873
734.97,78.79688,-2.53621,0.16885,0.64808
735.57,78.8571,-2.5356,0.16902,0.64743
736.17,78.91715,-2.53723,0.16789,0.64678
736.77,78.97729,-2.53791,0.17166,0.64614
737.37,79.03737,-2.53909,0.17332,0.64549
737.97,79.09784,-2.53906,0.1789,0.64484
738.57,79.15807,-2.54037,0.1839,0.64419
739.17,79.21837,-2.54171,0.18554,0.64354
739.77,79.2786,-2.54166,0.18655,0.64289
740.37,79.3391,-2.54032,0.19207,0.64224
740.97,79.39944,-2.53928,0.19761,0.64159
741.57,79.4598,-2.53959,0.20057,0.64094
742.17,79.51985,-2.54069,0.20369,0.64029
742.77,79.58017,-2.5451,0.20837,0.63964
743.37,79.64073,-2.54843,0.21123,0.63899
743.97,79.70088,-2.55168,0.21987,0.63834
744.57,79.76132,-2.553,0.22862,0.63768
745.17,79.82173,-2.55083,0.24055,0.63703
745.77,79.88221,-2.54861,0.26039,0.63638
746.37,79.94282,-2.54856,0.28307,0.63573
746.87,79.9932,-2.54993,0.29622,0.63518