File: 01_Data/Engineered_Flooring/STA/N2/30K_min/EF_STA_N2_30KData_211512_R3.csv
##Temp./Â°C,Time/min,Mass loss(subtr.2)/mg,DSC(subtr.2)/(mW/mg),Sensit./(uV/mW)
48.459,10.01,-0.00657,0.00540619,1.06964
49.059,10.52823,-0.00586532,0.04107765,1.06959
49.659,10.6485,-0.005329751,0.07348027,1.06953
50.259,10.7338,-0.006555129,0.1045,1.06948
50.859,10.8035,-0.0061368,0.13041,1.06942
51.459,10.8636,-0.00584669,0.15566,1.06937
52.059,10.9165,-0.006290175,0.18075,1.06931
52.659,10.9648,-0.005690946,0.2013,1.06925
53.259,11.0092,-0.00629669,0.22247,1.06919
53.859,11.05026,-0.00582134,0.24356,1.06913
54.459,11.08945,-0.006725676,0.26484,1.06907
55.059,11.12752,-0.006019408,0.28359,1.06901
55.659,11.16441,-0.005838183,0.30212,1.06894
56.259,11.19917,-0.005885639,0.32194,1.06888
56.859,11.23237,-0.007580116,0.33653,1.06881
57.459,11.2647,-0.00774638,0.3526,1.06875
58.059,11.29594,-0.00731771,0.36516,1.06868
58.659,11.32668,-0.007460784,0.37671,1.06861
59.259,11.35662,-0.00724151,0.38928,1.06854
59.859,11.38585,-0.006270785,0.40041,1.06847
60.459,11.4145,-0.004908975,0.40889,1.0684
61.059,11.44246,-0.00529857,0.42163,1.06833
61.659,11.4701,-0.00570276,0.43361,1.06826
62.259,11.49709,-0.00627388,0.44495,1.06818
62.859,11.52369,-0.006741525,0.45661,1.06811
63.459,11.54991,-0.007887339,0.46611,1.06803
64.059,11.57591,-0.008206442,0.47564,1.06795
64.659,11.60165,-0.008015012,0.48583,1.06787
65.259,11.62694,-0.00820977,0.49479,1.06779
65.859,11.65203,-0.008416412,0.50521,1.06771
66.459,11.6769,-0.007397339,0.51465,1.06763
67.059,11.70145,-0.00706474,0.5242,1.06755
67.659,11.72573,-0.00630002,0.53416,1.06747
68.259,11.74991,-0.005597673,0.54085,1.06738
68.859,11.77383,-0.005084405,0.552,1.0673
69.459,11.79758,-0.005049378,0.56132,1.06721
70.059,11.82122,-0.005380639,0.56888,1.06712
70.659,11.8446,-0.005936399,0.57557,1.06704
71.259,11.86783,-0.005539919,0.58515,1.06695
71.859,11.891,-0.00683385,0.59463,1.06686
72.459,11.91398,-0.007454741,0.60126,1.06676
73.059,11.9366,-0.00706941,0.61,1.06667
73.659,11.9594,-0.006551178,0.61931,1.06658
74.259,11.9821,-0.007522132,0.62582,1.06649
74.859,12.0047,-0.007929703,0.63256,1.06639
75.459,12.02731,-0.009022541,0.64359,1.06629
76.059,12.04955,-0.00881743,0.6505,1.0662
76.659,12.07189,-0.008590061,0.65531,1.0661
77.259,12.09408,-0.008920921,0.66376,1.066
77.859,12.11615,-0.009348012,0.67138,1.0659
78.459,12.13827,-0.009010605,0.67848,1.0658
79.059,12.16013,-0.007672991,0.68356,1.0657
79.659,12.18196,-0.008478536,0.69118,1.06559
80.259,12.20373,-0.007857459,0.69828,1.06549
80.859,12.2254,-0.008557071,0.70372,1.06539
81.459,12.2471,-0.00847508,0.71137,1.06528
82.059,12.2686,-0.007942614,0.71781,1.06517
82.659,12.2901,-0.009215727,0.72197,1.06507
83.259,12.31157,-0.00874594,0.72962,1.06496
83.859,12.333,-0.008181598,0.73677,1.06485
84.459,12.3543,-0.00939333,0.74136,1.06474
85.059,12.37548,-0.00987503,0.74838,1.06462
85.659,12.39668,-0.0112826,0.75554,1.06451
86.259,12.41778,-0.01011197,0.7605,1.0644
86.859,12.43887,-0.01099557,0.76583,1.06428
87.459,12.46,-0.01007988,0.7725,1.06417
88.059,12.48095,-0.01007388,0.77701,1.06405
88.659,12.50186,-0.0103285,0.78329,1.06393
89.259,12.5227,-0.01096046,0.78934,1.06382
89.859,12.5436,-0.01177072,0.79525,1.0637
90.459,12.56437,-0.0128472,0.80175,1.06358
91.059,12.5852,-0.01312408,0.80429,1.06346
91.659,12.60598,-0.01268304,0.81152,1.06333
92.259,12.6267,-0.01320701,0.81752,1.06321
92.859,12.64747,-0.01312941,0.82044,1.06309
93.459,12.66807,-0.01233894,0.82501,1.06296
94.059,12.68867,-0.01305581,0.83141,1.06284
94.659,12.70928,-0.01314672,0.83344,1.06271
95.259,12.72977,-0.01315023,0.8409,1.06258
95.859,12.75024,-0.01314509,0.84546,1.06245
96.459,12.7708,-0.01415166,0.85124,1.06232
97.059,12.7913,-0.01315301,0.85373,1.06219
97.659,12.81179,-0.01312635,0.85895,1.06206
98.259,12.8323,-0.01429571,0.86177,1.06193
98.859,12.85275,-0.01444712,0.86415,1.06179
99.459,12.87319,-0.01305565,0.86855,1.06166
100.059,12.89357,-0.01317716,0.87065,1.06152
100.659,12.91393,-0.01456726,0.87384,1.06139
101.259,12.93427,-0.01448871,0.88031,1.06125
101.859,12.9546,-0.01471045,0.88049,1.06111
102.459,12.97494,-0.01590291,0.88144,1.06097
103.059,12.99526,-0.01506341,0.88632,1.06083
103.659,13.01556,-0.01503158,0.88818,1.06069
104.259,13.0359,-0.01639553,0.89297,1.06055
104.859,13.05615,-0.01643853,0.893,1.06041
105.459,13.07633,-0.0164399,0.89454,1.06026
106.059,13.09656,-0.01643999,0.89821,1.06012
106.659,13.11685,-0.01644001,0.89873,1.05997
107.259,13.1372,-0.01644013,0.9004,1.05982
107.859,13.1574,-0.01644171,0.90118,1.05968
108.459,13.17764,-0.01661041,0.90178,1.05953
109.059,13.1978,-0.01780164,0.90336,1.05938
109.659,13.218,-0.01776236,0.90455,1.05923
110.259,13.2382,-0.01775522,0.90665,1.05908
110.859,13.2584,-0.01769658,0.90662,1.05893
111.459,13.27863,-0.01910714,0.90811,1.05877
112.059,13.2988,-0.01840381,0.91062,1.05862
112.659,13.31894,-0.01841899,0.91294,1.05846
113.259,13.3391,-0.01841971,0.91456,1.05831
113.859,13.35917,-0.01841706,0.9155,1.05815
114.459,13.37936,-0.01838745,0.91606,1.05799
115.059,13.39947,-0.01973616,0.91676,1.05783
115.659,13.4196,-0.0197248,0.91978,1.05767
116.259,13.4396,-0.02039767,0.92002,1.05751
116.859,13.4596,-0.02101894,0.9188,1.05735
117.459,13.47969,-0.02171272,0.91912,1.05719
118.059,13.4997,-0.0217102,0.91922,1.05703
118.659,13.51971,-0.02171001,0.91945,1.05686
119.259,13.5397,-0.02170998,0.92126,1.0567
119.859,13.5596,-0.02170962,0.92088,1.05653
120.459,13.57965,-0.02170493,0.92197,1.05636
121.059,13.59963,-0.02076193,0.9223,1.0562
121.659,13.61961,-0.02039804,0.92242,1.05603
122.259,13.63959,-0.02037827,0.92319,1.05586
122.859,13.65957,-0.02170806,0.92112,1.05569
123.459,13.67945,-0.02170986,0.92362,1.05552
124.059,13.6994,-0.02171058,0.92254,1.05534
124.659,13.7193,-0.02171956,0.92394,1.05517
125.259,13.73911,-0.02262009,0.92439,1.055
125.859,13.7589,-0.02303133,0.92522,1.05482
126.459,13.77866,-0.02303013,0.92611,1.05465
127.059,13.79817,-0.02303003,0.92574,1.05447
127.659,13.81795,-0.0230303,0.92868,1.05429
128.259,13.8377,-0.02303445,0.9263,1.05411
128.859,13.8574,-0.02309607,0.92719,1.05393
129.459,13.8773,-0.02233107,0.92597,1.05375
130.059,13.8971,-0.02236031,0.92647,1.05357
130.659,13.9168,-0.02227486,0.92945,1.05339
131.259,13.93649,-0.0236568,0.9295,1.05321
131.859,13.9562,-0.02368851,0.92904,1.05302
132.459,13.97577,-0.02368988,0.93135,1.05284
133.059,13.9953,-0.02368999,0.93231,1.05265
133.659,14.01491,-0.02369,0.93318,1.05246
134.259,14.0345,-0.02369,0.93525,1.05228
134.859,14.05405,-0.02368997,0.93504,1.05209
135.459,14.07368,-0.02368964,0.93694,1.0519
136.059,14.09325,-0.02368551,0.93747,1.05171
136.659,14.11271,-0.02363764,0.94029,1.05152
137.259,14.13219,-0.02481967,0.94091,1.05133
137.859,14.1517,-0.02499628,0.94109,1.05113
138.459,14.1711,-0.02543269,0.94554,1.05094
139.059,14.1906,-0.02631216,0.9444,1.05075
139.659,14.21001,-0.02631998,0.94872,1.05055
140.259,14.2294,-0.02631946,0.95026,1.05035
140.859,14.24877,-0.0260822,0.95439,1.05016
141.459,14.2681,-0.02496483,0.95616,1.04996
142.059,14.2875,-0.02499602,0.95878,1.04976
142.659,14.30685,-0.02499232,0.96083,1.04956
143.259,14.32615,-0.02489336,0.9623,1.04936
143.859,14.3454,-0.02608414,0.96578,1.04916
144.459,14.36464,-0.02599291,0.96739,1.04896
145.059,14.38381,-0.02593665,0.96994,1.04875
145.659,14.403,-0.02671671,0.9708,1.04855
146.259,14.4223,-0.02663841,0.97393,1.04834
146.859,14.44155,-0.02700452,0.97893,1.04814
147.459,14.46088,-0.02698114,0.97938,1.04793
148.059,14.4802,-0.02698002,0.9812,1.04772
148.659,14.49942,-0.02697999,0.98571,1.04751
149.259,14.5186,-0.02697999,0.98682,1.0473
149.859,14.53774,-0.02697984,0.99231,1.04709
150.459,14.5569,-0.02697751,0.9945,1.04688
151.059,14.57603,-0.0269442,0.99752,1.04667
151.659,14.59521,-0.0273398,1.00328,1.04646
152.259,14.6144,-0.02728235,1.00683,1.04625
152.859,14.6334,-0.02767548,1.0118,1.04603
153.459,14.6525,-0.02764231,1.01338,1.04582
154.059,14.67162,-0.02764005,1.01614,1.0456
154.659,14.69072,-0.02763953,1.01832,1.04538
155.259,14.7098,-0.02764136,1.02424,1.04516
155.859,14.72885,-0.0282048,1.02868,1.04495
156.459,14.74792,-0.02897075,1.03152,1.04473
157.059,14.7669,-0.0289523,1.03299,1.04451
157.659,14.7859,-0.02895018,1.03949,1.04428
158.259,14.8049,-0.02894956,1.04116,1.04406
158.859,14.8239,-0.02894467,1.04591,1.04384
159.459,14.84286,-0.02889486,1.04878,1.04362
160.059,14.8619,-0.03006444,1.05335,1.04339
160.659,14.88081,-0.03026297,1.05775,1.04317
161.259,14.89983,-0.03025044,1.06042,1.04294
161.859,14.91886,-0.03157407,1.06619,1.04271
162.459,14.93779,-0.03157919,1.07092,1.04249
163.059,14.95677,-0.03157991,1.07505,1.04226
163.659,14.9758,-0.03157999,1.07822,1.04203
164.259,14.9947,-0.03158,1.08183,1.0418
164.859,15.01358,-0.03157998,1.08702,1.04157
165.459,15.03249,-0.03157975,1.09461,1.04133
166.059,15.05129,-0.03157832,1.09747,1.0411
166.659,15.0702,-0.03192362,1.10168,1.04087
167.259,15.089,-0.03291664,1.10719,1.04063
167.859,15.108,-0.03290281,1.11009,1.0404
168.459,15.1269,-0.0329013,1.11544,1.04016
169.059,15.1459,-0.03291403,1.12322,1.03992
169.659,15.16485,-0.03315584,1.12553,1.03969
170.259,15.1837,-0.03429709,1.13043,1.03945
170.859,15.20255,-0.03562192,1.13638,1.03921
171.459,15.22136,-0.03553809,1.142,1.03897
172.059,15.2402,-0.03553502,1.14668,1.03873
172.659,15.25903,-0.03681531,1.15309,1.03848
173.259,15.27788,-0.0368442,1.1565,1.03824
173.859,15.2967,-0.03684933,1.16572,1.038
174.459,15.31541,-0.03684994,1.16986,1.03775
175.059,15.33417,-0.03685,1.17616,1.03751
175.659,15.3529,-0.03685,1.18339,1.03726
176.259,15.37165,-0.03684999,1.18794,1.03702
176.859,15.3904,-0.03684997,1.19483,1.03677
177.459,15.40904,-0.03685091,1.19974,1.03652
178.059,15.42774,-0.03702582,1.20727,1.03627
178.659,15.44646,-0.03824056,1.21284,1.03602
179.259,15.4651,-0.03823544,1.22081,1.03577
179.859,15.4838,-0.03970848,1.22771,1.03552
180.459,15.5025,-0.03969771,1.23513,1.03527
181.059,15.5211,-0.04105372,1.24112,1.03501
181.659,15.5398,-0.04102226,1.25047,1.03476
182.259,15.5585,-0.04185956,1.25686,1.0345
182.859,15.57712,-0.04247975,1.26577,1.03425
183.459,15.59569,-0.04372295,1.27492,1.03399
184.059,15.61421,-0.04369262,1.28421,1.03374
184.659,15.6327,-0.0450473,1.29065,1.03348
185.259,15.65125,-0.04494162,1.29954,1.03322
185.859,15.66978,-0.04593089,1.30734,1.03296
186.459,15.6883,-0.04627951,1.31695,1.0327
187.059,15.7069,-0.04622932,1.32545,1.03244
187.659,15.72546,-0.04736005,1.33492,1.03218
188.259,15.744,-0.04752926,1.34349,1.03191
188.859,15.76247,-0.04614737,1.35316,1.03165
189.459,15.78098,-0.04734971,1.36358,1.03139
190.059,15.79946,-0.04771059,1.37357,1.03112
190.659,15.8179,-0.04895575,1.38222,1.03086
191.259,15.8364,-0.04910182,1.39459,1.03059
191.859,15.85489,-0.04997696,1.40484,1.03032
192.459,15.8734,-0.05142375,1.41521,1.03005
193.059,15.8918,-0.05269721,1.42668,1.02978
193.659,15.9103,-0.05340498,1.4397,1.02952
194.259,15.92869,-0.05393615,1.45041,1.02924
194.859,15.9472,-0.05493263,1.46128,1.02897
195.459,15.9656,-0.05635151,1.47504,1.0287
196.059,15.98415,-0.0575338,1.48464,1.02843
196.659,16.0027,-0.0583135,1.49745,1.02816
197.259,16.0212,-0.06014246,1.51152,1.02788
197.859,16.03956,-0.06071565,1.52282,1.02761
198.459,16.05803,-0.06165311,1.53533,1.02733
199.059,16.07633,-0.0626393,1.54823,1.02705
199.659,16.09471,-0.06295909,1.56169,1.02678
200.259,16.11311,-0.06456213,1.57581,1.0265
200.859,16.1315,-0.06544147,1.58746,1.02622
201.459,16.1499,-0.06623464,1.60125,1.02594
202.059,16.16838,-0.0680461,1.61392,1.02566
202.659,16.18682,-0.06945717,1.62737,1.02538
203.259,16.20523,-0.07019965,1.64365,1.0251
203.859,16.2237,-0.07140245,1.65618,1.02482
204.459,16.2421,-0.07331327,1.67063,1.02453
205.059,16.2605,-0.07519696,1.6849,1.02425
205.659,16.27884,-0.07626999,1.69606,1.02396
206.259,16.2972,-0.07807066,1.71306,1.02368
206.859,16.31547,-0.0797257,1.72553,1.02339
207.459,16.33385,-0.08068168,1.74158,1.0231
208.059,16.35223,-0.08145728,1.75249,1.02282
208.659,16.37061,-0.08317727,1.76959,1.02253
209.259,16.3889,-0.08368215,1.78334,1.02224
209.859,16.40728,-0.08532981,1.79721,1.02195
210.459,16.4256,-0.0870428,1.81171,1.02166
211.059,16.44399,-0.08928391,1.82696,1.02137
211.659,16.4623,-0.09111863,1.84088,1.02108
212.259,16.48072,-0.09282555,1.85503,1.02078
212.859,16.49908,-0.09446132,1.86799,1.02049
213.459,16.51742,-0.09543657,1.88227,1.02019
214.059,16.53574,-0.09706084,1.89695,1.0199
214.659,16.55404,-0.09891348,1.9103,1.0196
215.259,16.5724,-0.10102,1.92303,1.01931
215.859,16.59072,-0.10318,1.93678,1.01901
216.459,16.60905,-0.10492,1.95053,1.01871
217.059,16.6274,-0.10655,1.95983,1.01841
217.659,16.64573,-0.1081,1.9733,1.01811
218.259,16.66408,-0.11002,1.9872,1.01781
218.859,16.6824,-0.11205,1.99815,1.01751
219.459,16.7007,-0.11403,2.00982,1.01721
220.059,16.71901,-0.11574,2.01993,1.01691
220.659,16.73736,-0.11751,2.03231,1.01661
221.259,16.75566,-0.1199,2.04291,1.0163
221.859,16.774,-0.12249,2.0525,1.016
222.459,16.7923,-0.12429,2.06209,1.01569
223.059,16.8107,-0.12653,2.0705,1.01539
223.659,16.8289,-0.12826,2.07957,1.01508
224.259,16.8472,-0.1299,2.08744,1.01477
224.859,16.8655,-0.13155,2.09694,1.01447
225.459,16.88374,-0.13342,2.10415,1.01416
226.059,16.902,-0.13545,2.1117,1.01385
226.659,16.9203,-0.13757,2.11609,1.01354
227.259,16.9386,-0.13983,2.12435,1.01323
227.859,16.95683,-0.1425,2.1297,1.01292
228.459,16.97512,-0.14499,2.13373,1.0126
229.059,16.99338,-0.14741,2.14006,1.01229
229.659,17.01161,-0.14966,2.14372,1.01198
230.259,17.0298,-0.15156,2.1479,1.01166
230.859,17.04811,-0.15357,2.15103,1.01135
231.459,17.0664,-0.15571,2.15304,1.01103
232.059,17.08461,-0.15818,2.15399,1.01072
232.659,17.1029,-0.16038,2.15414,1.0104
233.259,17.12118,-0.16289,2.15741,1.01008
233.859,17.13942,-0.16566,2.15726,1.00976
234.459,17.15772,-0.16815,2.15675,1.00944
235.059,17.176,-0.17001,2.15851,1.00912
235.659,17.19428,-0.17263,2.15432,1.0088
236.259,17.21255,-0.17543,2.15345,1.00848
236.859,17.23075,-0.17721,2.14937,1.00816
237.459,17.249,-0.17899,2.14884,1.00784
238.059,17.2672,-0.18111,2.14624,1.00752
238.659,17.28548,-0.18359,2.14302,1.00719
239.259,17.30368,-0.18754,2.13895,1.00687
239.859,17.32193,-0.18962,2.13549,1.00654
240.459,17.34015,-0.19164,2.12949,1.00622
241.059,17.35834,-0.19417,2.12696,1.00589
241.659,17.37659,-0.19539,2.12111,1.00556
242.259,17.39481,-0.19785,2.11719,1.00523
242.859,17.41306,-0.19989,2.11051,1.00491
243.459,17.43125,-0.20232,2.1043,1.00458
244.059,17.4495,-0.20448,2.09778,1.00425
244.659,17.46762,-0.20655,2.09402,1.00392
245.259,17.4858,-0.20904,2.08565,1.00359
245.859,17.504,-0.21176,2.07889,1.00325
246.459,17.52221,-0.21416,2.07563,1.00292
247.059,17.5404,-0.21645,2.06593,1.00259
247.659,17.55861,-0.21856,2.05902,1.00225
248.259,17.57682,-0.22047,2.05254,1.00192
248.859,17.59497,-0.22381,2.04491,1.00158
249.459,17.61316,-0.22801,2.03764,1.00125
250.059,17.63135,-0.2308,2.02937,1.00091
250.659,17.64949,-0.23321,2.02229,1.00058
251.259,17.6676,-0.23587,2.0132,1.00024
251.859,17.6858,-0.23819,2.00705,0.9999
252.459,17.70401,-0.24044,1.9971,0.99956
253.059,17.7222,-0.24275,1.98966,0.99922
253.659,17.74033,-0.24562,1.98177,0.99888
254.259,17.7586,-0.24876,1.97429,0.99854
254.859,17.77671,-0.25248,1.96686,0.9982
255.459,17.79484,-0.25557,1.95755,0.99786
256.059,17.81298,-0.25918,1.94851,0.99751
256.659,17.83127,-0.26173,1.94271,0.99717
257.259,17.84941,-0.26448,1.93351,0.99683
257.859,17.86756,-0.26614,1.92163,0.99648
258.459,17.8857,-0.26886,1.91441,0.99614
259.059,17.90383,-0.27147,1.90466,0.99579
259.659,17.92193,-0.27379,1.89698,0.99544
260.259,17.94006,-0.27674,1.88843,0.9951
260.859,17.95821,-0.27968,1.88172,0.99475
261.459,17.97636,-0.28228,1.87161,0.9944
262.059,17.9945,-0.28568,1.86356,0.99405
262.659,18.01265,-0.28951,1.85448,0.9937
263.259,18.0308,-0.29192,1.84521,0.99335
263.859,18.04897,-0.29452,1.83794,0.993
264.459,18.06711,-0.29791,1.83046,0.99265
265.059,18.08522,-0.29988,1.82504,0.9923
265.659,18.1034,-0.30261,1.81513,0.99194
266.259,18.12151,-0.30498,1.80434,0.99159
266.859,18.13963,-0.30837,1.79609,0.99124
267.459,18.15774,-0.31262,1.79019,0.99088
268.059,18.1759,-0.31569,1.78233,0.99053
268.659,18.194,-0.31911,1.77328,0.99017
269.259,18.2121,-0.32315,1.76472,0.98981
269.859,18.2302,-0.32592,1.75642,0.98946
270.459,18.2484,-0.3294,1.7506,0.9891
271.059,18.2666,-0.33312,1.74152,0.98874
271.659,18.28471,-0.33691,1.73422,0.98838
272.259,18.30278,-0.34055,1.72432,0.98802
272.859,18.32086,-0.34512,1.7154,0.98766
273.459,18.3389,-0.34863,1.70864,0.9873
274.059,18.35698,-0.35187,1.70311,0.98694
274.659,18.37507,-0.35482,1.69403,0.98658
275.259,18.39321,-0.3593,1.68621,0.98622
275.859,18.41141,-0.36345,1.67922,0.98585
276.459,18.42954,-0.36779,1.66962,0.98549
277.059,18.4477,-0.37165,1.65888,0.98513
277.659,18.46582,-0.37531,1.65349,0.98476
278.259,18.48395,-0.38016,1.64528,0.9844
278.859,18.5021,-0.38387,1.63691,0.98403
279.459,18.52025,-0.38933,1.62824,0.98366
280.059,18.53836,-0.39316,1.61851,0.9833
280.659,18.55649,-0.3976,1.61207,0.98293
281.259,18.5747,-0.40128,1.60184,0.98256
281.859,18.59282,-0.40587,1.59425,0.98219
282.459,18.61092,-0.41029,1.5856,0.98182
283.059,18.6291,-0.41458,1.5761,0.98145
283.659,18.64726,-0.41914,1.56928,0.98108
284.259,18.66535,-0.42311,1.55935,0.98071
284.859,18.68347,-0.42845,1.5489,0.98034
285.459,18.7016,-0.43319,1.54092,0.97997
286.059,18.7197,-0.43972,1.53192,0.97959
286.659,18.7378,-0.44542,1.52282,0.97922
287.259,18.75593,-0.45114,1.51534,0.97885
287.859,18.77403,-0.45612,1.50538,0.97847
288.459,18.7922,-0.46181,1.49371,0.9781
289.059,18.8103,-0.46686,1.48257,0.97772
289.659,18.8285,-0.47129,1.47594,0.97734
290.259,18.8466,-0.47771,1.46567,0.97697
290.859,18.8648,-0.48351,1.45584,0.97659
291.459,18.88291,-0.4903,1.4457,0.97621
292.059,18.90105,-0.49557,1.43562,0.97583
292.659,18.91916,-0.50229,1.42669,0.97545
293.259,18.93731,-0.50725,1.41542,0.97507
293.859,18.9555,-0.51475,1.40561,0.97469
294.459,18.97361,-0.52064,1.39378,0.97431
295.059,18.99176,-0.52772,1.3831,0.97393
295.659,19.00994,-0.53458,1.37347,0.97355
296.259,19.02806,-0.54134,1.36348,0.97317
296.859,19.04607,-0.54872,1.35173,0.97279
297.459,19.06427,-0.55384,1.33889,0.9724
298.059,19.08239,-0.56126,1.32974,0.97202
298.659,19.10047,-0.56759,1.31532,0.97163
299.259,19.11862,-0.57591,1.30527,0.97125
299.859,19.1369,-0.58228,1.29468,0.97086
300.459,19.15496,-0.59053,1.28336,0.97048
301.059,19.17315,-0.59817,1.27063,0.97009
301.659,19.19129,-0.6067,1.25862,0.9697
302.259,19.20942,-0.61438,1.24595,0.96932
302.859,19.22757,-0.62148,1.23673,0.96893
303.459,19.24571,-0.6293,1.22327,0.96854
304.059,19.2638,-0.6363,1.20953,0.96815
304.659,19.282,-0.64537,1.20168,0.96776
305.259,19.30012,-0.65246,1.18695,0.96737
305.859,19.3183,-0.66164,1.17895,0.96698
306.459,19.33628,-0.66882,1.16446,0.96659
307.059,19.35434,-0.67731,1.15504,0.96619
307.659,19.3725,-0.68484,1.14335,0.9658
308.259,19.3906,-0.693,1.13292,0.96541
308.859,19.40875,-0.70217,1.11948,0.96502
309.459,19.4271,-0.7118,1.11162,0.96462
310.059,19.4454,-0.72094,1.10135,0.96423
310.659,19.46357,-0.72849,1.08977,0.96383
311.259,19.48178,-0.73836,1.07808,0.96344
311.859,19.49996,-0.74594,1.06846,0.96304
312.459,19.5181,-0.75533,1.05786,0.96264
313.059,19.53629,-0.76238,1.04959,0.96225
313.659,19.5545,-0.7719,1.04059,0.96185
314.259,19.5727,-0.78002,1.03111,0.96145
314.859,19.5909,-0.78903,1.02096,0.96105
315.459,19.60914,-0.79753,1.01193,0.96065
316.059,19.62728,-0.80552,1.00321,0.96025
316.659,19.64549,-0.81499,0.99437,0.95985
317.259,19.66366,-0.82298,0.98475,0.95945
317.859,19.6818,-0.83342,0.97796,0.95905
318.459,19.69997,-0.84171,0.97002,0.95865
319.059,19.71818,-0.85216,0.9616,0.95825
319.659,19.73633,-0.86008,0.95407,0.95785
320.259,19.75455,-0.86999,0.94769,0.95744
320.859,19.77277,-0.87869,0.93887,0.95704
321.459,19.791,-0.88771,0.93358,0.95664
322.059,19.80922,-0.89702,0.92519,0.95623
322.659,19.82745,-0.906,0.91937,0.95583
323.259,19.84565,-0.91668,0.91255,0.95542
323.859,19.86386,-0.92547,0.9057,0.95501
324.459,19.88212,-0.93659,0.89912,0.95461
325.059,19.9004,-0.94491,0.89445,0.9542
325.659,19.91858,-0.95547,0.88918,0.95379
326.259,19.93683,-0.96386,0.88317,0.95339
326.859,19.95504,-0.97363,0.87735,0.95298
327.459,19.9732,-0.98274,0.87352,0.95257
328.059,19.99147,-0.99274,0.86958,0.95216
328.659,20.0097,-1.00263,0.86401,0.95175
329.259,20.02798,-1.01218,0.85992,0.95134
329.859,20.04628,-1.02219,0.8566,0.95093
330.459,20.06456,-1.03073,0.85218,0.95052
331.059,20.08278,-1.0413,0.84607,0.95011
331.659,20.10105,-1.05017,0.84526,0.94969
332.259,20.1194,-1.06216,0.84258,0.94928
332.859,20.1377,-1.07155,0.83805,0.94887
333.459,20.15599,-1.08266,0.8331,0.94845
334.059,20.1743,-1.09168,0.83206,0.94804
334.659,20.19258,-1.10193,0.82914,0.94763
335.259,20.2108,-1.11149,0.82863,0.94721
335.859,20.2291,-1.1216,0.82625,0.9468
336.459,20.24738,-1.13291,0.82525,0.94638
337.059,20.26565,-1.14336,0.82479,0.94596
337.659,20.28395,-1.15507,0.82021,0.94555
338.259,20.3022,-1.16395,0.82185,0.94513
338.859,20.32049,-1.17557,0.81877,0.94471
339.459,20.33878,-1.18508,0.81908,0.94429
340.059,20.3571,-1.19769,0.81866,0.94388
340.659,20.37548,-1.2074,0.81924,0.94346
341.259,20.3938,-1.21865,0.82089,0.94304
341.859,20.41216,-1.22867,0.82092,0.94262
342.459,20.43055,-1.23962,0.82189,0.9422
343.059,20.44892,-1.25058,0.82182,0.94178
343.659,20.46725,-1.26127,0.82468,0.94136
344.259,20.48562,-1.27315,0.82429,0.94093
344.859,20.504,-1.28362,0.82748,0.94051
345.459,20.52235,-1.29676,0.82988,0.94009
346.059,20.54066,-1.30676,0.82946,0.93967
346.659,20.5591,-1.31948,0.83114,0.93924
347.259,20.5775,-1.32973,0.83546,0.93882
347.859,20.59587,-1.34246,0.83796,0.93839
348.459,20.61413,-1.35332,0.84291,0.93797
349.059,20.63256,-1.36576,0.84474,0.93754
349.659,20.6509,-1.37738,0.84917,0.93712
350.259,20.6693,-1.3895,0.84974,0.93669
350.859,20.68773,-1.4022,0.85245,0.93627
351.459,20.7062,-1.41393,0.85836,0.93584
352.059,20.72458,-1.42771,0.86358,0.93541
352.659,20.743,-1.43885,0.86644,0.93499
353.259,20.76137,-1.45246,0.87029,0.93456
353.859,20.7798,-1.4635,0.87378,0.93413
354.459,20.79818,-1.47811,0.87828,0.9337
355.059,20.8166,-1.48989,0.8828,0.93327
355.659,20.83496,-1.50339,0.88845,0.93284
356.259,20.85339,-1.51518,0.89408,0.93241
356.859,20.8718,-1.52895,0.90073,0.93198
357.459,20.89029,-1.54247,0.90555,0.93155
358.059,20.90873,-1.55612,0.91122,0.93112
358.659,20.92717,-1.57037,0.9149,0.93069
359.259,20.94562,-1.58304,0.92209,0.93025
359.859,20.96405,-1.59861,0.92554,0.92982
360.459,20.98252,-1.61105,0.93391,0.92939
361.059,21.00092,-1.62794,0.93994,0.92896
361.659,21.0194,-1.64054,0.94541,0.92852
362.259,21.0379,-1.65695,0.95195,0.92809
362.859,21.05636,-1.66994,0.95728,0.92765
363.459,21.07483,-1.68619,0.96655,0.92722
364.059,21.0933,-1.70024,0.97077,0.92678
364.659,21.11185,-1.71623,0.97803,0.92635
365.259,21.13039,-1.73154,0.98608,0.92591
365.859,21.14891,-1.74698,0.99365,0.92547
366.459,21.1674,-1.76332,0.99909,0.92504
367.059,21.1859,-1.7777,1.00645,0.9246
367.659,21.20436,-1.79488,1.0132,0.92416
368.259,21.2228,-1.80954,1.01955,0.92373
368.859,21.2413,-1.82867,1.02468,0.92329
369.459,21.25989,-1.84317,1.02985,0.92285
370.059,21.27835,-1.86184,1.03679,0.92241
370.659,21.2969,-1.87657,1.04262,0.92197
371.259,21.31545,-1.89527,1.05065,0.92153
371.859,21.33398,-1.91154,1.05715,0.92109
372.459,21.35249,-1.92992,1.06407,0.92065
373.059,21.37107,-1.94689,1.06693,0.92021
373.659,21.38961,-1.96456,1.07297,0.91977
374.259,21.40815,-1.98362,1.07864,0.91932
374.859,21.42672,-2.00107,1.08241,0.91888
375.459,21.44529,-2.02104,1.08677,0.91844
376.059,21.46388,-2.03756,1.09239,0.918
376.659,21.48248,-2.05826,1.09559,0.91755
377.259,21.50106,-2.07477,1.09871,0.91711
377.859,21.51964,-2.09625,1.10068,0.91667
378.459,21.53819,-2.1131,1.10065,0.91622
379.059,21.55671,-2.13424,1.10232,0.91578
379.659,21.57526,-2.15129,1.10013,0.91533
380.259,21.59368,-2.17106,1.09975,0.91489
380.859,21.61213,-2.18952,1.09943,0.91444
381.459,21.63062,-2.20849,1.09854,0.91399
382.059,21.64921,-2.22741,1.09313,0.91355
382.659,21.66778,-2.24488,1.08746,0.9131
383.259,21.6865,-2.26467,1.08049,0.91265
383.859,21.70512,-2.28172,1.07427,0.91221
384.459,21.7238,-2.3022,1.06319,0.91176
385.059,21.7424,-2.31846,1.05626,0.91131
385.659,21.76098,-2.33935,1.04356,0.91086
386.259,21.77959,-2.35523,1.03207,0.91041
386.859,21.79825,-2.37473,1.01774,0.90996
387.459,21.81692,-2.38991,1.00214,0.90951
388.059,21.83551,-2.40859,0.98394,0.90906
388.659,21.85417,-2.42437,0.96359,0.90861
389.259,21.8727,-2.44188,0.94431,0.90816
389.859,21.8914,-2.45727,0.92472,0.90771
390.459,21.91,-2.47262,0.90203,0.90726
391.059,21.92858,-2.488,0.8769,0.90681
391.659,21.94718,-2.5015,0.85238,0.90636
392.259,21.96583,-2.51718,0.82341,0.9059
392.859,21.9844,-2.52888,0.79728,0.90545
393.459,22.00299,-2.54258,0.77148,0.905
394.059,22.02165,-2.5532,0.74426,0.90454
394.659,22.04026,-2.56626,0.71661,0.90409
395.259,22.05888,-2.57598,0.68658,0.90364
395.859,22.07753,-2.58769,0.65811,0.90318
396.459,22.09619,-2.59613,0.63048,0.90273
397.059,22.11479,-2.60528,0.60437,0.90227
397.659,22.13341,-2.61222,0.57539,0.90182
398.259,22.15205,-2.61982,0.55167,0.90136
398.859,22.17067,-2.62663,0.52573,0.90091
399.459,22.18929,-2.63306,0.50631,0.90045
400.059,22.20795,-2.63921,0.48571,0.89999
400.659,22.22658,-2.64433,0.46195,0.89954
401.259,22.24522,-2.64989,0.4438,0.89908
401.859,22.26388,-2.65456,0.42519,0.89862
402.459,22.28256,-2.65979,0.40919,0.89816
403.059,22.30119,-2.66294,0.39496,0.89771
403.659,22.31974,-2.66654,0.37935,0.89725
404.259,22.33836,-2.66984,0.36801,0.89679
404.859,22.35698,-2.67287,0.35763,0.89633
405.459,22.37557,-2.67502,0.34501,0.89587
406.059,22.3942,-2.67832,0.33629,0.89541
406.659,22.4129,-2.68188,0.32366,0.89495
407.259,22.43157,-2.68426,0.31959,0.89449
407.859,22.4502,-2.68635,0.30767,0.89403
408.459,22.4689,-2.68897,0.30105,0.89357
409.059,22.48765,-2.69221,0.29222,0.89311
409.659,22.50636,-2.69576,0.28726,0.89265
410.259,22.52508,-2.6978,0.27934,0.89218
410.859,22.54375,-2.69824,0.27832,0.89172
411.459,22.56251,-2.70004,0.27101,0.89126
412.059,22.58119,-2.70244,0.26661,0.8908
412.659,22.59991,-2.70528,0.25962,0.89033
413.259,22.6187,-2.70823,0.25383,0.88987
413.859,22.6374,-2.71101,0.25013,0.88941
414.459,22.65609,-2.71298,0.2474,0.88894
415.059,22.67484,-2.71503,0.24243,0.88848
415.659,22.69356,-2.7169,0.24039,0.88801
416.259,22.71227,-2.71928,0.23393,0.88755
416.859,22.73098,-2.72107,0.23274,0.88709
417.459,22.74975,-2.72303,0.23047,0.88662
418.059,22.7685,-2.72522,0.22335,0.88615
418.659,22.78721,-2.72716,0.22195,0.88569
419.259,22.80601,-2.72947,0.21977,0.88522
419.859,22.82481,-2.73201,0.21312,0.88476
420.459,22.8435,-2.73376,0.21421,0.88429
421.059,22.8623,-2.73557,0.21166,0.88382
421.659,22.88111,-2.73735,0.2103,0.88336
422.259,22.89986,-2.73939,0.20578,0.88289
422.859,22.9186,-2.7412,0.20184,0.88242
423.459,22.93742,-2.74299,0.20213,0.88195
424.059,22.95619,-2.74494,0.19993,0.88148
424.659,22.975,-2.74701,0.19922,0.88102
425.259,22.99374,-2.74919,0.19321,0.88055
425.859,23.01256,-2.75157,0.19495,0.88008
426.459,23.03141,-2.75438,0.19242,0.87961
427.059,23.05021,-2.75621,0.19009,0.87914
427.659,23.069,-2.75804,0.19086,0.87867
428.259,23.0879,-2.76035,0.18983,0.8782
428.859,23.10671,-2.76134,0.18688,0.87773
429.459,23.12554,-2.76245,0.18808,0.87726
430.059,23.1444,-2.76421,0.18562,0.87679
430.659,23.16323,-2.76589,0.18426,0.87632
431.259,23.182,-2.76835,0.18427,0.87585
431.859,23.2009,-2.77056,0.18324,0.87537
432.459,23.21963,-2.77282,0.18251,0.8749
433.059,23.23847,-2.7751,0.1821,0.87443
433.659,23.2573,-2.77717,0.18134,0.87396
434.259,23.27613,-2.77848,0.18152,0.87348
434.859,23.29494,-2.78,0.18362,0.87301
435.459,23.3138,-2.78158,0.18201,0.87254
436.059,23.33261,-2.78374,0.18182,0.87207
436.659,23.3515,-2.7861,0.18407,0.87159
437.259,23.37031,-2.7887,0.18316,0.87112
437.859,23.3892,-2.79055,0.18577,0.87064
438.459,23.40812,-2.79241,0.18372,0.87017
439.059,23.42698,-2.79395,0.18538,0.8697
439.659,23.4458,-2.79561,0.18777,0.86922
440.259,23.46472,-2.79733,0.18892,0.86875
440.859,23.4836,-2.79929,0.18738,0.86827
441.459,23.50246,-2.80111,0.18882,0.8678
442.059,23.52135,-2.80295,0.19164,0.86732
442.659,23.54025,-2.8048,0.19066,0.86684
443.259,23.55914,-2.80687,0.19322,0.86637
443.859,23.57803,-2.80918,0.19671,0.86589
444.459,23.59694,-2.81121,0.19691,0.86541
445.059,23.61587,-2.81255,0.20071,0.86494
445.659,23.63481,-2.814,0.19992,0.86446
446.259,23.65375,-2.81506,0.20425,0.86398
446.859,23.67274,-2.8168,0.20511,0.86351
447.459,23.69175,-2.81861,0.20504,0.86303
448.059,23.7107,-2.82007,0.20774,0.86255
448.659,23.72966,-2.82188,0.20897,0.86207
449.259,23.74861,-2.82357,0.21471,0.86159
449.859,23.76756,-2.82503,0.21657,0.86112
450.459,23.78649,-2.82652,0.21738,0.86064
451.059,23.8054,-2.82827,0.21905,0.86016
451.659,23.82435,-2.83057,0.22436,0.85968
452.259,23.8433,-2.83187,0.22567,0.8592
452.859,23.8623,-2.83364,0.22944,0.85872
453.459,23.88128,-2.83528,0.22833,0.85824
454.059,23.90029,-2.83716,0.23015,0.85776
454.659,23.91928,-2.83904,0.23537,0.85728
455.259,23.9382,-2.84079,0.23638,0.8568
455.859,23.95721,-2.84258,0.24022,0.85632
456.459,23.9762,-2.84416,0.24299,0.85584
457.059,23.99522,-2.84578,0.24421,0.85536
457.659,24.01425,-2.84741,0.24699,0.85487
458.259,24.03335,-2.84907,0.25168,0.85439
458.859,24.05238,-2.85017,0.25172,0.85391
459.459,24.07134,-2.85188,0.25541,0.85343
460.059,24.09035,-2.85337,0.25718,0.85295
460.659,24.10934,-2.85527,0.2592,0.85247
461.259,24.12836,-2.857,0.26025,0.85198
461.859,24.14743,-2.85865,0.26458,0.8515
462.459,24.16646,-2.85927,0.2648,0.85102
463.059,24.1855,-2.86056,0.26773,0.85053
463.659,24.20453,-2.86153,0.27398,0.85005
464.259,24.22354,-2.86261,0.27323,0.84957
464.859,24.2425,-2.86449,0.27479,0.84908
465.459,24.26154,-2.86734,0.27667,0.8486
466.059,24.2804,-2.86895,0.28047,0.84812
466.659,24.29937,-2.86997,0.28062,0.84763
467.259,24.31849,-2.87067,0.28533,0.84715
467.859,24.33758,-2.87218,0.28741,0.84666
468.459,24.35673,-2.87391,0.29101,0.84618
469.059,24.37601,-2.87582,0.29139,0.84569
469.659,24.39517,-2.87751,0.29294,0.84521
470.259,24.4143,-2.87904,0.29364,0.84472
470.859,24.43339,-2.87993,0.2978,0.84424
471.459,24.45253,-2.88146,0.29783,0.84375
472.059,24.47155,-2.88317,0.30179,0.84327
472.659,24.49044,-2.88392,0.30094,0.84278
473.259,24.50935,-2.88522,0.30041,0.84229
473.859,24.52843,-2.88646,0.30585,0.84181
474.459,24.54745,-2.887,0.30395,0.84132
475.059,24.5665,-2.88863,0.30757,0.84084
475.659,24.5856,-2.89003,0.31185,0.84035
476.259,24.60485,-2.89112,0.31069,0.83986
476.859,24.62395,-2.89288,0.31252,0.83937
477.459,24.64315,-2.89483,0.31567,0.83889
478.059,24.66245,-2.89638,0.31523,0.8384
478.659,24.6817,-2.89764,0.316,0.83791
479.259,24.70084,-2.89868,0.31835,0.83742
479.859,24.72,-2.90009,0.32051,0.83694
480.459,24.7391,-2.9011,0.32408,0.83645
481.059,24.75825,-2.90221,0.32213,0.83596
481.659,24.77745,-2.90333,0.32427,0.83547
482.259,24.79656,-2.90488,0.32713,0.83498
482.859,24.81577,-2.90621,0.32676,0.83449
483.459,24.83492,-2.90734,0.32794,0.83401
484.059,24.85406,-2.90873,0.32882,0.83352
484.659,24.87306,-2.90951,0.32729,0.83303
485.259,24.89216,-2.90958,0.33095,0.83254
485.859,24.9114,-2.91057,0.33309,0.83205
486.459,24.93054,-2.91177,0.3345,0.83156
487.059,24.94973,-2.91245,0.33463,0.83107
487.659,24.96904,-2.91408,0.33737,0.83058
488.259,24.9882,-2.91564,0.33801,0.83009
488.859,25.0074,-2.91695,0.33996,0.8296
489.459,25.02657,-2.9175,0.3408,0.82911
490.059,25.04573,-2.91957,0.34128,0.82862
490.659,25.06496,-2.92011,0.34096,0.82813
491.259,25.08415,-2.92116,0.34567,0.82764
491.859,25.10333,-2.92182,0.3437,0.82715
492.459,25.1225,-2.92242,0.34872,0.82665
493.059,25.14172,-2.92329,0.34654,0.82616
493.659,25.16088,-2.92434,0.35035,0.82567
494.259,25.18011,-2.92664,0.35061,0.82518
494.859,25.1993,-2.92825,0.34949,0.82469
495.459,25.2185,-2.92913,0.35291,0.8242
496.059,25.23774,-2.92963,0.35056,0.82371
496.659,25.257,-2.93045,0.35222,0.82321
497.259,25.27616,-2.93157,0.35376,0.82272
497.859,25.2954,-2.93302,0.35559,0.82223
498.459,25.3146,-2.93458,0.35348,0.82174
499.059,25.33391,-2.93481,0.35415,0.82124
499.659,25.35312,-2.93596,0.35608,0.82075
500.259,25.37229,-2.93622,0.35556,0.82026
500.859,25.39152,-2.9368,0.35893,0.81977
501.459,25.41076,-2.93786,0.35949,0.81927
502.059,25.42999,-2.93936,0.35928,0.81878
502.659,25.44925,-2.94117,0.36028,0.81829
503.259,25.4685,-2.94143,0.36039,0.81779
503.859,25.48775,-2.94331,0.36169,0.8173
504.459,25.507,-2.94478,0.36045,0.81681
505.059,25.5262,-2.94552,0.36428,0.81631
505.659,25.5455,-2.94634,0.36105,0.81582
506.259,25.56478,-2.94742,0.36707,0.81532
506.859,25.5839,-2.94761,0.36567,0.81483
507.459,25.6032,-2.94891,0.36933,0.81434
508.059,25.62242,-2.94973,0.36858,0.81384
508.659,25.6417,-2.95069,0.36944,0.81335
509.259,25.66092,-2.95222,0.36953,0.81285
509.859,25.68027,-2.95255,0.37016,0.81236
510.459,25.69952,-2.95374,0.36916,0.81186
511.059,25.71868,-2.95427,0.36957,0.81137
511.659,25.738,-2.95529,0.36977,0.81087
512.259,25.7573,-2.95637,0.37013,0.81038
512.859,25.77658,-2.95659,0.37126,0.80988
513.459,25.79593,-2.95713,0.36976,0.80939
514.059,25.81525,-2.95793,0.37223,0.80889
514.659,25.83456,-2.95945,0.37317,0.8084
515.259,25.85385,-2.95994,0.37682,0.8079
515.859,25.8732,-2.96114,0.37163,0.80741
516.459,25.89248,-2.96238,0.37336,0.80691
517.059,25.91178,-2.96268,0.37534,0.80642
517.659,25.93104,-2.96408,0.37352,0.80592
518.259,25.95035,-2.96405,0.37659,0.80542
518.859,25.96965,-2.96535,0.37815,0.80493
519.459,25.98892,-2.96591,0.37827,0.80443
520.059,26.00826,-2.96687,0.37704,0.80393
520.659,26.02751,-2.96839,0.38124,0.80344
521.259,26.04681,-2.96848,0.38142,0.80294
521.859,26.06616,-2.96975,0.37844,0.80245
522.459,26.08547,-2.97017,0.37973,0.80195
523.059,26.1048,-2.97208,0.37895,0.80145
523.659,26.12415,-2.97231,0.37911,0.80095
524.259,26.14345,-2.97324,0.37995,0.80046
524.859,26.16281,-2.9742,0.38092,0.79996
525.459,26.18214,-2.97478,0.379,0.79946
526.059,26.2015,-2.97641,0.38015,0.79897
526.659,26.2208,-2.97633,0.37946,0.79847
527.259,26.2402,-2.97699,0.38129,0.79797
527.859,26.2595,-2.97765,0.38205,0.79747
528.459,26.2788,-2.97852,0.3802,0.79698
529.059,26.2981,-2.9791,0.37998,0.79648
529.659,26.31744,-2.97981,0.37944,0.79598
530.259,26.33675,-2.98039,0.38194,0.79548
530.859,26.3561,-2.98142,0.38291,0.79499
531.459,26.3755,-2.98168,0.38086,0.79449
532.059,26.3948,-2.98323,0.37926,0.79399
532.659,26.4141,-2.98327,0.38114,0.79349
533.259,26.4335,-2.98419,0.38318,0.793
533.859,26.4528,-2.98478,0.38237,0.7925
534.459,26.4722,-2.98563,0.38326,0.792
535.059,26.4915,-2.98576,0.38245,0.7915
535.659,26.51093,-2.98708,0.38384,0.791
536.259,26.5303,-2.98707,0.38388,0.7905
536.859,26.5496,-2.98836,0.38766,0.79001
537.459,26.56904,-2.98778,0.38807,0.78951
538.059,26.5884,-2.98858,0.38341,0.78901
538.659,26.6078,-2.98905,0.38693,0.78851
539.259,26.6272,-2.98896,0.38479,0.78801
539.859,26.6466,-2.99033,0.38713,0.78751
540.459,26.6659,-2.99039,0.3902,0.78701
541.059,26.6853,-2.9909,0.38828,0.78651
541.659,26.7046,-2.99191,0.39297,0.78602
542.259,26.724,-2.99264,0.39081,0.78552
542.859,26.7434,-2.99318,0.39315,0.78502
543.459,26.76282,-2.99382,0.39428,0.78452
544.059,26.7822,-2.99447,0.39618,0.78402
544.659,26.8016,-2.99566,0.39517,0.78352
545.259,26.82102,-2.99603,0.39363,0.78302
545.859,26.84044,-2.99873,0.39501,0.78252
546.459,26.85987,-2.99869,0.39283,0.78202
547.059,26.8793,-3.00002,0.39646,0.78152
547.659,26.8987,-3.00001,0.39824,0.78102
548.259,26.9181,-3.0012,0.3962,0.78052
548.859,26.9376,-3.00129,0.39678,0.78002
549.459,26.957,-3.00269,0.40008,0.77952
550.059,26.97642,-3.0032,0.40182,0.77902
550.659,26.99585,-3.00443,0.40121,0.77852
551.259,27.01525,-3.00559,0.39914,0.77802
551.859,27.03463,-3.00591,0.39943,0.77752
552.459,27.05408,-3.00669,0.40215,0.77702
553.059,27.07357,-3.00725,0.40213,0.77652
553.659,27.093,-3.0075,0.40372,0.77603
554.259,27.1124,-3.00867,0.4014,0.77553
554.859,27.1319,-3.00953,0.40276,0.77503
555.459,27.1513,-3.01067,0.40139,0.77453
556.059,27.1707,-3.01105,0.4015,0.77402
556.659,27.19013,-3.01198,0.40394,0.77352
557.259,27.20962,-3.01199,0.40346,0.77302
557.859,27.2291,-3.01288,0.40404,0.77252
558.459,27.2485,-3.01329,0.40645,0.77202
559.059,27.268,-3.01321,0.40508,0.77152
559.659,27.28742,-3.01457,0.40809,0.77102
560.259,27.3069,-3.01416,0.40921,0.77052
560.859,27.32633,-3.01447,0.40538,0.77002
561.459,27.3459,-3.0147,0.40868,0.76952
562.059,27.36538,-3.01463,0.41088,0.76902
562.659,27.3848,-3.01596,0.40825,0.76852
563.259,27.40424,-3.01606,0.41052,0.76802
563.859,27.4237,-3.01651,0.41061,0.76752
564.459,27.44308,-3.01884,0.41012,0.76702
565.059,27.4625,-3.01936,0.41203,0.76652
565.659,27.482,-3.02007,0.40964,0.76602
566.259,27.5015,-3.0201,0.41023,0.76552
566.859,27.52105,-3.02016,0.41301,0.76502
567.459,27.54056,-3.02141,0.41148,0.76452
568.059,27.5601,-3.02175,0.41139,0.76402
568.659,27.5796,-3.02296,0.40986,0.76352
569.259,27.59917,-3.02431,0.41197,0.76302
569.859,27.61872,-3.0243,0.41194,0.76251
570.459,27.63825,-3.02588,0.41528,0.76201
571.059,27.65778,-3.02583,0.41406,0.76151
571.659,27.6773,-3.0272,0.41655,0.76101
572.259,27.69687,-3.02721,0.4139,0.76051
572.859,27.7164,-3.02712,0.415,0.76001
573.459,27.7359,-3.0285,0.41573,0.75951
574.059,27.7555,-3.02855,0.41256,0.75901
574.659,27.77502,-3.02881,0.41615,0.75851
575.259,27.79454,-3.02992,0.416,0.75801
575.859,27.81405,-3.03006,0.4168,0.75751
576.459,27.8336,-3.03122,0.41581,0.75701
577.059,27.85316,-3.03117,0.41902,0.75651
577.659,27.87275,-3.03177,0.41343,0.756
578.259,27.8923,-3.03247,0.41624,0.7555
578.859,27.9119,-3.0325,0.41573,0.755
579.459,27.9315,-3.03398,0.41479,0.7545
580.059,27.95109,-3.03391,0.41888,0.754
580.659,27.9707,-3.0339,0.41863,0.7535
581.259,27.99029,-3.03492,0.42095,0.753
581.859,28.0099,-3.03523,0.41644,0.7525
582.459,28.0294,-3.03523,0.41477,0.752
583.059,28.049,-3.03523,0.41626,0.7515
583.659,28.0686,-3.03654,0.41775,0.751
584.259,28.0882,-3.03775,0.41969,0.75049
584.859,28.10779,-3.03925,0.41633,0.74999
585.459,28.12746,-3.03944,0.41542,0.74949
586.059,28.14705,-3.04053,0.42031,0.74899
586.659,28.1667,-3.0396,0.41663,0.74849
587.259,28.1864,-3.04088,0.41665,0.74799
587.859,28.20601,-3.04116,0.41618,0.74749
588.459,28.2257,-3.04218,0.41829,0.74699
589.059,28.2453,-3.04209,0.41593,0.74649
589.659,28.26496,-3.04319,0.41688,0.74599
590.259,28.2846,-3.0434,0.41701,0.74549
590.859,28.3042,-3.04445,0.41572,0.74499
591.459,28.32392,-3.04476,0.41447,0.74448
592.059,28.34358,-3.0448,0.41464,0.74398
592.659,28.36325,-3.04619,0.41415,0.74348
593.259,28.38291,-3.04609,0.41365,0.74298
593.859,28.40253,-3.04606,0.41105,0.74248
594.459,28.4221,-3.04693,0.411,0.74198
595.059,28.44175,-3.04738,0.41042,0.74148
595.659,28.4614,-3.04817,0.40894,0.74098
596.259,28.48102,-3.04871,0.40964,0.74048
596.859,28.50065,-3.04872,0.40893,0.73998
597.459,28.52035,-3.04873,0.40753,0.73948
598.059,28.54,-3.05004,0.40465,0.73898
598.659,28.55968,-3.05004,0.40287,0.73848
599.259,28.5794,-3.05032,0.40118,0.73798
599.859,28.59913,-3.05136,0.40059,0.73747
600.459,28.6188,-3.05131,0.39846,0.73697
601.059,28.63846,-3.05203,0.40034,0.73647
601.659,28.6581,-3.05201,0.3978,0.73597
602.259,28.6778,-3.05203,0.3983,0.73547
602.859,28.69742,-3.05275,0.39695,0.73497
603.459,28.7171,-3.05336,0.39413,0.73447
604.059,28.73678,-3.05399,0.39132,0.73397
604.659,28.75647,-3.05465,0.39065,0.73347
605.259,28.7762,-3.05475,0.38898,0.73297
605.859,28.79587,-3.05604,0.39144,0.73247
606.459,28.8156,-3.05599,0.38764,0.73197
607.059,28.83532,-3.05649,0.38664,0.73147
607.659,28.8551,-3.05691,0.38429,0.73097
608.259,28.87482,-3.05689,0.38285,0.73047
608.859,28.89459,-3.05797,0.38338,0.72997
609.459,28.9143,-3.05827,0.38027,0.72947
610.059,28.93395,-3.0586,0.38142,0.72897
610.659,28.95368,-3.05958,0.37871,0.72847
611.259,28.9733,-3.0596,0.37941,0.72797
611.859,28.9931,-3.06098,0.3783,0.72747
612.459,29.01275,-3.06089,0.37896,0.72697
613.059,29.03248,-3.06146,0.37526,0.72647
613.659,29.0522,-3.06218,0.37721,0.72597
614.259,29.07197,-3.06217,0.37343,0.72547
614.859,29.09173,-3.06292,0.37547,0.72497
615.459,29.1115,-3.06287,0.37168,0.72447
616.059,29.1312,-3.06288,0.37236,0.72397
616.659,29.151,-3.06423,0.36997,0.72347
617.259,29.1707,-3.06418,0.36856,0.72297
617.859,29.1905,-3.06521,0.36477,0.72247
618.459,29.21022,-3.06561,0.36253,0.72197
619.059,29.22996,-3.0666,0.3612,0.72147
619.659,29.24969,-3.06693,0.36155,0.72097
620.259,29.2694,-3.06754,0.36212,0.72047
620.859,29.28919,-3.06839,0.35863,0.71997
621.459,29.30898,-3.06768,0.3564,0.71947
622.059,29.32876,-3.06825,0.35613,0.71897
622.659,29.34849,-3.06902,0.35546,0.71847
623.259,29.3683,-3.06901,0.35624,0.71798
623.859,29.38802,-3.069,0.35218,0.71748
624.459,29.40772,-3.06893,0.35373,0.71698
625.059,29.42745,-3.07031,0.35226,0.71648
625.659,29.4472,-3.07048,0.35269,0.71598
626.259,29.4669,-3.0717,0.35124,0.71548
626.859,29.4867,-3.07159,0.35082,0.71498
627.459,29.5064,-3.07279,0.35204,0.71448
628.059,29.5262,-3.07295,0.35172,0.71398
628.659,29.54594,-3.07305,0.351,0.71349
629.259,29.5657,-3.07436,0.34956,0.71299
629.859,29.58554,-3.07429,0.34347,0.71249
630.459,29.60533,-3.07427,0.3436,0.71199
631.059,29.6251,-3.07514,0.34423,0.71149
631.659,29.645,-3.07556,0.3446,0.71099
632.259,29.6647,-3.07554,0.34245,0.71049
632.859,29.68445,-3.07661,0.33945,0.71
633.459,29.7042,-3.0769,0.33773,0.7095
634.059,29.72397,-3.07693,0.33863,0.709
634.659,29.74373,-3.07723,0.33729,0.7085
635.259,29.7635,-3.07823,0.33803,0.708
635.859,29.78327,-3.07822,0.33167,0.7075
636.459,29.80299,-3.07819,0.33327,0.70701
637.059,29.82276,-3.0791,0.33351,0.70651
637.659,29.8425,-3.07948,0.33345,0.70601
638.259,29.8623,-3.0807,0.33364,0.70551
638.859,29.88212,-3.08093,0.33335,0.70501
639.459,29.9019,-3.0821,0.33129,0.70452
640.059,29.9217,-3.08237,0.32923,0.70402
640.659,29.9415,-3.08317,0.33147,0.70352
641.259,29.9613,-3.0837,0.33178,0.70302
641.859,29.9811,-3.08371,0.33341,0.70253
642.459,30.00093,-3.08371,0.32962,0.70203
643.059,30.02078,-3.08376,0.33112,0.70153
643.659,30.0406,-3.08502,0.32662,0.70104
644.259,30.0604,-3.08502,0.32849,0.70054
644.859,30.0801,-3.08502,0.32885,0.70004
645.459,30.09993,-3.08534,0.32878,0.69954
646.059,30.1197,-3.08634,0.32476,0.69905
646.659,30.13955,-3.08634,0.32295,0.69855
647.259,30.1594,-3.08634,0.32093,0.69805
647.859,30.17922,-3.08635,0.32415,0.69756
648.459,30.199,-3.08724,0.32281,0.69706
649.059,30.21888,-3.08766,0.3201,0.69656
649.659,30.23866,-3.08768,0.31845,0.69607
650.259,30.25853,-3.0885,0.32013,0.69557
650.859,30.2783,-3.08897,0.31997,0.69507
651.459,30.2981,-3.08897,0.32035,0.69458
652.059,30.3179,-3.08897,0.3175,0.69408
652.659,30.3377,-3.09029,0.31889,0.69359
653.259,30.35756,-3.09045,0.31577,0.69309
653.859,30.37742,-3.09188,0.31584,0.69259
654.459,30.39725,-3.09204,0.31464,0.6921
655.059,30.41703,-3.09246,0.30952,0.6916
655.659,30.4369,-3.09339,0.31136,0.69111
656.259,30.45672,-3.09336,0.31148,0.69061
656.859,30.4765,-3.09336,0.31134,0.69011
657.459,30.4964,-3.09347,0.30901,0.68962
658.059,30.5161,-3.09475,0.30989,0.68912
658.659,30.536,-3.09469,0.30741,0.68863
659.259,30.5558,-3.09468,0.30441,0.68813
659.859,30.57569,-3.09463,0.30388,0.68764
660.459,30.59565,-3.09577,0.30225,0.68714
661.059,30.6155,-3.09598,0.30132,0.68665
661.659,30.6353,-3.09601,0.2994,0.68615
662.259,30.6552,-3.09647,0.29775,0.68566
662.859,30.675,-3.09732,0.29343,0.68516
663.459,30.69482,-3.09731,0.2916,0.68467
664.059,30.71463,-3.09737,0.29367,0.68417
664.659,30.73449,-3.09873,0.29169,0.68368
665.259,30.7543,-3.09873,0.29047,0.68319
665.859,30.7742,-3.09758,0.2886,0.68269
666.459,30.79402,-3.09904,0.28741,0.6822
667.059,30.8139,-3.09896,0.28692,0.6817
667.659,30.8337,-3.09895,0.28668,0.68121
668.259,30.8535,-3.09891,0.28601,0.68072
668.859,30.8733,-3.09988,0.28405,0.68022
669.459,30.89317,-3.10026,0.28528,0.67973
670.059,30.91305,-3.10027,0.28276,0.67923
670.659,30.93293,-3.10029,0.28193,0.67874
671.259,30.9529,-3.10167,0.28269,0.67825
671.859,30.9727,-3.10159,0.28154,0.67775
672.459,30.9926,-3.10158,0.27812,0.67726
673.059,31.0125,-3.10215,0.27897,0.67677
673.659,31.03237,-3.10288,0.27637,0.67627
674.259,31.0523,-3.1029,0.27521,0.67578
674.859,31.0721,-3.1029,0.27436,0.67529
675.459,31.09198,-3.10344,0.27552,0.6748
676.059,31.1119,-3.10431,0.26779,0.6743
676.659,31.13182,-3.10433,0.27127,0.67381
677.259,31.15175,-3.10434,0.26999,0.67332
677.859,31.17166,-3.10571,0.27138,0.67283
678.459,31.19155,-3.10564,0.27137,0.67233
679.059,31.21146,-3.10564,0.26892,0.67184
679.659,31.23132,-3.10563,0.26673,0.67135
680.259,31.2512,-3.1064,0.26478,0.67086
680.859,31.27106,-3.10695,0.26387,0.67036
681.459,31.2909,-3.10696,0.26668,0.66987
682.059,31.3108,-3.10696,0.26229,0.66938
682.659,31.3307,-3.10736,0.26427,0.66889
683.259,31.3507,-3.10827,0.26262,0.6684
683.859,31.37061,-3.10828,0.26017,0.66791
684.459,31.3905,-3.1083,0.25924,0.66742
685.059,31.4104,-3.1096,0.25915,0.66692
685.659,31.4303,-3.10959,0.25784,0.66643
686.259,31.45028,-3.11027,0.25685,0.66594
686.859,31.4702,-3.11091,0.25507,0.66545
687.459,31.4902,-3.11091,0.24994,0.66496
688.059,31.51009,-3.11223,0.25545,0.66447
688.659,31.53,-3.11189,0.25229,0.66398
689.259,31.5499,-3.11189,0.24907,0.66349
689.859,31.56982,-3.11189,0.24679,0.663
690.459,31.5897,-3.11189,0.24781,0.66251
691.059,31.6097,-3.1122,0.24401,0.66202
691.659,31.62971,-3.11321,0.24593,0.66153
692.259,31.64967,-3.11321,0.24275,0.66104
692.859,31.6696,-3.11288,0.24021,0.66055
693.459,31.68948,-3.11322,0.23916,0.66006
694.059,31.7094,-3.11322,0.23919,0.65957
694.659,31.7293,-3.11322,0.23805,0.65908
695.259,31.7492,-3.11448,0.23448,0.65859
695.859,31.76922,-3.11453,0.23299,0.6581
696.459,31.7891,-3.11453,0.23044,0.65761
697.059,31.8091,-3.11453,0.22998,0.65712
697.659,31.8291,-3.11453,0.22666,0.65664
698.259,31.8491,-3.11454,0.22877,0.65615
698.859,31.86903,-3.11543,0.22755,0.65566
699.459,31.889,-3.11585,0.22635,0.65517
700.059,31.90895,-3.11586,0.22199,0.65468
700.659,31.92887,-3.11642,0.22476,0.65419
701.259,31.94884,-3.11718,0.21967,0.6537
701.859,31.9688,-3.11718,0.21561,0.65322
702.459,31.9887,-3.11772,0.21692,0.65273
703.059,32.0088,-3.11849,0.21395,0.65224
703.659,32.0287,-3.11848,0.21441,0.65175
704.259,32.04862,-3.11848,0.21498,0.65127
704.859,32.06855,-3.11848,0.21054,0.65078
705.459,32.0884,-3.11848,0.21031,0.65029
706.059,32.1083,-3.11848,0.20955,0.6498
706.659,32.12828,-3.11869,0.20336,0.64932
707.259,32.1482,-3.11983,0.20547,0.64883
707.859,32.1683,-3.11976,0.20094,0.64834
708.459,32.18841,-3.12084,0.19803,0.64786
709.059,32.20841,-3.11977,0.19833,0.64737
709.659,32.22848,-3.12032,0.19528,0.64688
710.259,32.24848,-3.12112,0.19683,0.6464
710.859,32.26852,-3.12111,0.18974,0.64591
711.459,32.28855,-3.1211,0.18802,0.64542
712.059,32.30849,-3.12103,0.18899,0.64494
712.659,32.32853,-3.12335,0.18622,0.64445
713.259,32.34855,-3.12341,0.18581,0.64397
713.859,32.36855,-3.12342,0.18098,0.64348
714.459,32.38863,-3.12342,0.18256,0.643
715.059,32.40869,-3.12342,0.18162,0.64251
715.659,32.4287,-3.12342,0.1769,0.64203
716.259,32.44878,-3.12342,0.17633,0.64154
716.859,32.46883,-3.12465,0.17527,0.64106
717.459,32.48887,-3.12473,0.17428,0.64057
718.059,32.50897,-3.12474,0.17112,0.64009
718.659,32.52901,-3.12563,0.17117,0.6396
719.259,32.549,-3.1258,0.16914,0.63912
719.859,32.56903,-3.12471,0.17017,0.63863
720.459,32.58905,-3.12473,0.16724,0.63815
721.059,32.60902,-3.12473,0.1642,0.63766
721.659,32.62903,-3.12473,0.16436,0.63718
722.259,32.649,-3.12474,0.16187,0.6367
722.859,32.66902,-3.12563,0.15895,0.63621
723.459,32.68906,-3.12605,0.15885,0.63573
724.059,32.70909,-3.12606,0.1578,0.63525
724.659,32.72917,-3.12663,0.15663,0.63476
725.259,32.74924,-3.12737,0.16101,0.63428
725.859,32.7693,-3.12736,0.1633,0.6338
726.459,32.78934,-3.12736,0.16148,0.63331
727.059,32.80939,-3.12736,0.15766,0.63283
727.659,32.82922,-3.12736,0.15921,0.63235
728.259,32.84929,-3.12736,0.15721,0.63187
728.859,32.86934,-3.12734,0.15767,0.63138
729.459,32.88942,-3.12866,0.15603,0.6309
730.059,32.9096,-3.12738,0.1554,0.63042
730.659,32.92973,-3.12736,0.15552,0.62994
731.259,32.94982,-3.12736,0.15289,0.62946
731.859,32.96994,-3.12867,0.14888,0.62897
732.459,32.98999,-3.12867,0.15166,0.62849
733.059,33.0101,-3.12867,0.1479,0.62801
733.659,33.03013,-3.12868,0.15018,0.62753
734.259,33.05017,-3.12999,0.14866,0.62705
734.859,33.0702,-3.13,0.14736,0.62657
735.459,33.09025,-3.13132,0.1487,0.62609
736.059,33.11034,-3.13131,0.14539,0.62561
736.659,33.13044,-3.13132,0.14508,0.62513
737.259,33.15051,-3.13031,0.14184,0.62465
737.859,33.1706,-3.13131,0.14128,0.62417
738.459,33.19073,-3.13131,0.14452,0.62369
739.059,33.21082,-3.1313,0.13888,0.62321
739.659,33.23089,-3.13204,0.13971,0.62273
740.259,33.251,-3.13188,0.13926,0.62225
740.859,33.27111,-3.13132,0.13667,0.62177
741.459,33.29125,-3.13129,0.13635,0.62129
742.059,33.3122,-3.13246,0.13496,0.62081
742.659,33.33229,-3.13263,0.13959,0.62033