File: 01_Data/Engineered_Flooring/STA/N2/30K_min/Engineered_Flooring_STA_N2_30KData_211512_R2.csv
##Temp./Â°C,Time/min,Mass loss(subtr.2)/mg,DSC(subtr.2)/(mW/mg),Sensit./(uV/mW)
48.472,10.01,-0.00999,0.0135861,1.06964
49.072,10.5314,-0.009444025,0.06272747,1.06959
49.672,10.6486,-0.008766366,0.10464,1.06953
50.272,10.73317,-0.01029777,0.14,1.06948
50.872,10.8016,-0.01042309,0.1725,1.06942
51.472,10.8613,-0.01049272,0.20254,1.06937
52.072,10.9148,-0.01019291,0.23041,1.06931
52.672,10.96292,-0.009564869,0.25779,1.06925
53.272,11.00721,-0.00923134,0.28321,1.06919
53.872,11.0489,-0.009775103,0.30738,1.06913
54.472,11.08838,-0.009916297,0.33381,1.06907
55.072,11.12601,-0.009752105,0.35714,1.06901
55.672,11.16203,-0.009309972,0.37919,1.06894
56.272,11.1964,-0.01062298,0.39916,1.06888
56.872,11.2294,-0.01106224,0.414,1.06881
57.472,11.26165,-0.01069021,0.43145,1.06875
58.072,11.29302,-0.009263929,0.4475,1.06868
58.672,11.3238,-0.009123113,0.46286,1.06861
59.272,11.35368,-0.009707214,0.47724,1.06854
59.872,11.38299,-0.009788729,0.49082,1.06847
60.472,11.41137,-0.009637421,0.50429,1.0684
61.072,11.43927,-0.009611445,0.51714,1.06833
61.672,11.46668,-0.01116921,0.5346,1.06825
62.272,11.49367,-0.01113745,0.54717,1.06818
62.872,11.52017,-0.009321361,0.55792,1.0681
63.472,11.54637,-0.009090485,0.57026,1.06803
64.072,11.5723,-0.009927066,0.58456,1.06795
64.672,11.59797,-0.01084384,0.59884,1.06787
65.272,11.6233,-0.01105592,0.608,1.06779
65.872,11.64834,-0.01057678,0.61978,1.06771
66.472,11.67305,-0.009975263,0.63284,1.06763
67.072,11.6975,-0.00992728,0.64243,1.06755
67.672,11.7218,-0.009986329,0.65428,1.06746
68.272,11.74589,-0.01023445,0.6638,1.06738
68.872,11.76985,-0.01042707,0.67645,1.0673
69.472,11.7936,-0.01029613,0.68647,1.06721
70.072,11.817,-0.01028097,0.69577,1.06712
70.672,11.84038,-0.01040829,0.70697,1.06703
71.272,11.86357,-0.01199666,0.71469,1.06694
71.872,11.88654,-0.01170569,0.72766,1.06685
72.472,11.90958,-0.01174839,0.73473,1.06676
73.072,11.93229,-0.01128942,0.74433,1.06667
73.672,11.9549,-0.01090601,0.75325,1.06658
74.272,11.97755,-0.01073349,0.76118,1.06648
74.872,11.9999,-0.01153405,0.77029,1.06639
75.472,12.02243,-0.0110542,0.77829,1.06629
76.072,12.04477,-0.01105161,0.78963,1.0662
76.672,12.06701,-0.01234205,0.79477,1.0661
77.272,12.0892,-0.01259835,0.80196,1.066
77.872,12.11116,-0.01112105,0.81191,1.0659
78.472,12.13309,-0.01141097,0.81883,1.0658
79.072,12.15502,-0.01118278,0.82951,1.0657
79.672,12.17682,-0.01101559,0.83702,1.06559
80.272,12.19857,-0.01234904,0.8432,1.06549
80.872,12.22025,-0.01221792,0.85099,1.06538
81.472,12.24179,-0.01302034,0.85811,1.06528
82.072,12.26327,-0.01282458,0.86476,1.06517
82.672,12.28479,-0.01348845,0.87359,1.06506
83.272,12.3062,-0.01291244,0.8819,1.06495
83.872,12.32765,-0.01154678,0.88637,1.06484
84.472,12.34901,-0.0128291,0.89345,1.06473
85.072,12.3702,-0.0121689,0.90351,1.06462
85.672,12.39138,-0.01312406,0.90896,1.06451
86.272,12.41244,-0.01327413,0.91782,1.0644
86.872,12.43343,-0.01467196,0.92391,1.06428
87.472,12.45449,-0.01420489,0.92856,1.06417
88.072,12.4754,-0.01472925,0.93701,1.06405
88.672,12.4964,-0.01346354,0.94329,1.06393
89.272,12.51728,-0.01468591,0.94938,1.06381
89.872,12.53814,-0.01465795,0.95849,1.06369
90.472,12.55897,-0.01573286,0.96148,1.06357
91.072,12.57978,-0.01469929,0.96927,1.06345
91.672,12.6005,-0.0157308,0.9755,1.06333
92.272,12.62118,-0.0159281,0.98134,1.06321
92.872,12.64184,-0.01551635,0.98924,1.06308
93.472,12.66245,-0.01602137,0.99278,1.06296
94.072,12.68298,-0.01628753,0.99835,1.06283
94.672,12.70364,-0.01650796,1.00407,1.06271
95.272,12.7241,-0.01606534,1.01002,1.06258
95.872,12.74463,-0.01737548,1.01651,1.06245
96.472,12.76515,-0.01744889,1.02255,1.06232
97.072,12.7856,-0.01745691,1.02839,1.06219
97.672,12.80614,-0.01754917,1.03365,1.06206
98.272,12.82668,-0.01618391,1.03631,1.06192
98.872,12.84708,-0.01682163,1.04145,1.06179
99.472,12.86748,-0.0174404,1.048,1.06166
100.072,12.8878,-0.01739687,1.04892,1.06152
100.672,12.90814,-0.01868556,1.05464,1.06138
101.272,12.9285,-0.01875153,1.05911,1.06125
101.872,12.9489,-0.01870824,1.06325,1.06111
102.472,12.96923,-0.02006662,1.0664,1.06097
103.072,12.98959,-0.02006833,1.06807,1.06083
103.672,13.00994,-0.02006681,1.07387,1.06069
104.272,13.03023,-0.02139076,1.07515,1.06055
104.872,13.05056,-0.02138517,1.07931,1.0604
105.472,13.07086,-0.02212208,1.08132,1.06026
106.072,13.09106,-0.02270285,1.08601,1.06011
106.672,13.1113,-0.02270928,1.08837,1.05997
107.272,13.1315,-0.0227078,1.09114,1.05982
107.872,13.15175,-0.02320307,1.09342,1.05967
108.472,13.17198,-0.02399238,1.09162,1.05953
109.072,13.1923,-0.02389274,1.09506,1.05938
109.672,13.21255,-0.02338336,1.09858,1.05923
110.272,13.23279,-0.02397836,1.09934,1.05907
110.872,13.2529,-0.02466546,1.1025,1.05892
111.472,13.273,-0.02469132,1.10352,1.05877
112.072,13.29314,-0.02473469,1.10418,1.05861
112.672,13.3133,-0.02395976,1.10456,1.05846
113.272,13.33349,-0.02402474,1.10799,1.0583
113.872,13.3537,-0.02402687,1.10532,1.05815
114.472,13.3738,-0.02399071,1.10787,1.05799
115.072,13.3939,-0.02500709,1.10862,1.05783
115.672,13.41402,-0.02533595,1.10958,1.05767
116.272,13.4341,-0.02534899,1.11147,1.05751
116.872,13.45418,-0.02534993,1.11477,1.05735
117.472,13.47434,-0.02535,1.11709,1.05719
118.072,13.49433,-0.02535,1.1188,1.05702
118.672,13.51435,-0.02535001,1.11893,1.05686
119.272,13.53435,-0.02535011,1.12093,1.05669
119.872,13.55435,-0.02535157,1.12038,1.05653
120.472,13.57434,-0.02537166,1.12054,1.05636
121.072,13.59436,-0.02573507,1.12162,1.05619
121.672,13.6143,-0.02666662,1.12331,1.05602
122.272,13.6342,-0.0266548,1.12462,1.05585
122.872,13.6541,-0.02658273,1.12594,1.05568
123.472,13.6739,-0.02787979,1.124,1.05551
124.072,13.69387,-0.0279781,1.12626,1.05534
124.672,13.71372,-0.02798007,1.12756,1.05517
125.272,13.73354,-0.02798274,1.12505,1.05499
125.872,13.75332,-0.02801606,1.12628,1.05482
126.472,13.77309,-0.02709372,1.12753,1.05464
127.072,13.79287,-0.02807306,1.12711,1.05447
127.672,13.8127,-0.02797732,1.12978,1.05429
128.272,13.83249,-0.02797051,1.12844,1.05411
128.872,13.8523,-0.02797003,1.12983,1.05393
129.472,13.872,-0.02796999,1.12932,1.05375
130.072,13.89163,-0.02796992,1.13256,1.05357
130.672,13.91131,-0.0279691,1.13165,1.05339
131.272,13.93094,-0.02796122,1.13409,1.0532
131.872,13.9505,-0.02867396,1.13409,1.05302
132.472,13.9701,-0.02928907,1.13399,1.05283
133.072,13.98971,-0.02929018,1.13269,1.05265
133.672,14.0093,-0.02929003,1.13635,1.05246
134.272,14.02885,-0.02929,1.13585,1.05227
134.872,14.04846,-0.02929,1.13886,1.05208
135.472,14.068,-0.02929,1.13906,1.0519
136.072,14.08743,-0.02929,1.14099,1.05171
136.672,14.1069,-0.02929,1.14162,1.05151
137.272,14.1264,-0.02929,1.14574,1.05132
137.872,14.1459,-0.02929005,1.14515,1.05113
138.472,14.1654,-0.02929065,1.14912,1.05094
139.072,14.18489,-0.02929857,1.14895,1.05074
139.672,14.2042,-0.02942376,1.15159,1.05055
140.272,14.22357,-0.02959009,1.15324,1.05035
140.872,14.2429,-0.03004686,1.15552,1.05015
141.472,14.26224,-0.03063434,1.15696,1.04995
142.072,14.2816,-0.03061143,1.16109,1.04976
142.672,14.30091,-0.03060999,1.16233,1.04956
143.272,14.3201,-0.03060989,1.16385,1.04935
143.872,14.33937,-0.0308903,1.16661,1.04915
144.472,14.35861,-0.03195537,1.16861,1.04895
145.072,14.37791,-0.03193293,1.17112,1.04875
145.672,14.3972,-0.03193203,1.17504,1.04854
146.272,14.41649,-0.03195566,1.17625,1.04834
146.872,14.4357,-0.03246756,1.17973,1.04813
147.472,14.45491,-0.0332475,1.18284,1.04793
148.072,14.474,-0.03324623,1.1863,1.04772
148.672,14.4931,-0.03259394,1.18955,1.04751
149.272,14.51215,-0.03194047,1.19165,1.0473
149.872,14.5311,-0.03191034,1.19636,1.04709
150.472,14.5502,-0.03259548,1.20024,1.04688
151.072,14.5693,-0.03325714,1.20287,1.04667
151.672,14.58845,-0.0341108,1.20628,1.04645
152.272,14.60779,-0.03420613,1.21226,1.04624
152.872,14.62698,-0.03381675,1.21449,1.04603
153.472,14.646,-0.03286795,1.21853,1.04581
154.072,14.66489,-0.03290293,1.22237,1.04559
154.672,14.6839,-0.03286977,1.22547,1.04538
155.272,14.70285,-0.03380408,1.22946,1.04516
155.872,14.72194,-0.03421901,1.23353,1.04494
156.472,14.7411,-0.03422944,1.23656,1.04472
157.072,14.7604,-0.03422986,1.24204,1.0445
157.672,14.77946,-0.03423198,1.24594,1.04428
158.272,14.79848,-0.03429532,1.24985,1.04406
158.872,14.8174,-0.0329286,1.25543,1.04384
159.472,14.8364,-0.03290626,1.25759,1.04361
160.072,14.85532,-0.03284185,1.264,1.04339
160.672,14.87425,-0.03451878,1.26544,1.04316
161.272,14.8932,-0.03555491,1.27178,1.04294
161.872,14.9122,-0.03555029,1.27633,1.04271
162.472,14.9312,-0.0355499,1.28139,1.04248
163.072,14.95011,-0.03554987,1.28661,1.04225
163.672,14.96905,-0.03556208,1.28944,1.04202
164.272,14.988,-0.03634447,1.29572,1.04179
164.872,15.0069,-0.03687451,1.30165,1.04156
165.472,15.02581,-0.03687056,1.30578,1.04133
166.072,15.0446,-0.03687166,1.31095,1.0411
166.672,15.06352,-0.03688807,1.31571,1.04086
167.272,15.08239,-0.03705319,1.31939,1.04063
167.872,15.1012,-0.03818415,1.32686,1.04039
168.472,15.1201,-0.03818003,1.3315,1.04016
169.072,15.1389,-0.03817991,1.33563,1.03992
169.672,15.1577,-0.03817856,1.3408,1.03968
170.272,15.17653,-0.03815693,1.34489,1.03944
170.872,15.19539,-0.03878736,1.34964,1.0392
171.472,15.2141,-0.04023645,1.35684,1.03896
172.072,15.233,-0.04013503,1.36478,1.03872
172.672,15.25172,-0.04050642,1.36849,1.03848
173.272,15.2705,-0.04048072,1.37466,1.03824
173.872,15.28924,-0.04047964,1.37925,1.03799
174.472,15.30805,-0.04047244,1.38676,1.03775
175.072,15.32678,-0.04034869,1.39202,1.0375
175.672,15.3455,-0.0421027,1.3975,1.03726
176.272,15.36425,-0.042121,1.40361,1.03701
176.872,15.3829,-0.04212065,1.41017,1.03676
177.472,15.40165,-0.04212439,1.41661,1.03651
178.072,15.4204,-0.04213312,1.4228,1.03627
178.672,15.4391,-0.04340785,1.42831,1.03602
179.272,15.45784,-0.04343492,1.43757,1.03576
179.872,15.4766,-0.04345323,1.44379,1.03551
180.472,15.4952,-0.04372035,1.45305,1.03526
181.072,15.5139,-0.04482674,1.46067,1.03501
181.672,15.53254,-0.0449147,1.4661,1.03475
182.272,15.5512,-0.04715115,1.47405,1.0345
182.872,15.5698,-0.04739286,1.48453,1.03424
183.472,15.5884,-0.04823294,1.49106,1.03399
184.072,15.60705,-0.0487143,1.49987,1.03373
184.672,15.6257,-0.04871229,1.50692,1.03347
185.272,15.6442,-0.04875667,1.51622,1.03321
185.872,15.66276,-0.05012167,1.52624,1.03295
186.472,15.6813,-0.05003745,1.53311,1.03269
187.072,15.6997,-0.05002238,1.54286,1.03243
187.672,15.71827,-0.05128171,1.55307,1.03217
188.272,15.73676,-0.051728,1.56186,1.03191
188.872,15.75525,-0.05276716,1.57171,1.03164
189.472,15.77379,-0.05406545,1.58096,1.03138
190.072,15.7923,-0.05393272,1.59221,1.03112
190.672,15.81074,-0.05500985,1.60149,1.03085
191.272,15.8292,-0.05526236,1.61203,1.03058
191.872,15.8477,-0.05660394,1.62476,1.03032
192.472,15.86617,-0.05703445,1.63523,1.03005
193.072,15.88471,-0.05819791,1.64517,1.02978
193.672,15.9032,-0.05881891,1.65556,1.02951
194.272,15.9217,-0.05952291,1.66979,1.02924
194.872,15.9402,-0.06023594,1.68148,1.02897
195.472,15.9586,-0.06100635,1.69263,1.0287
196.072,15.97711,-0.06223431,1.70547,1.02842
196.672,15.99562,-0.06248922,1.71574,1.02815
197.272,16.01401,-0.06330537,1.73037,1.02788
197.872,16.0325,-0.06391722,1.74197,1.0276
198.472,16.051,-0.06576241,1.75389,1.02733
199.072,16.06936,-0.06629115,1.76392,1.02705
199.672,16.08773,-0.06717259,1.77918,1.02677
200.272,16.1062,-0.06889512,1.79347,1.02649
200.872,16.1246,-0.06984475,1.80721,1.02621
201.472,16.14301,-0.07039286,1.81826,1.02593
202.072,16.1615,-0.07214466,1.83262,1.02565
202.672,16.17989,-0.07270791,1.84683,1.02537
203.272,16.19836,-0.07354196,1.85897,1.02509
203.872,16.2168,-0.07529341,1.87287,1.02481
204.472,16.23519,-0.07646892,1.88692,1.02453
205.072,16.25356,-0.07721725,1.90174,1.02424
205.672,16.272,-0.07866679,1.91479,1.02396
206.272,16.29041,-0.0797762,1.92953,1.02367
206.872,16.30884,-0.08073434,1.94304,1.02339
207.472,16.3272,-0.08234952,1.95804,1.0231
208.072,16.3456,-0.08420519,1.97264,1.02281
208.672,16.36393,-0.08589784,1.98537,1.02252
209.272,16.38229,-0.08764174,2.00273,1.02223
209.872,16.40052,-0.08824497,2.01418,1.02194
210.472,16.41899,-0.08932002,2.029,1.02165
211.072,16.43735,-0.0905373,2.04253,1.02136
211.672,16.45576,-0.09325589,2.05757,1.02107
212.272,16.4741,-0.09530289,2.07362,1.02078
212.872,16.4926,-0.0971806,2.08489,1.02048
213.472,16.51096,-0.09890534,2.1003,1.02019
214.072,16.52939,-0.10025,2.11054,1.01989
214.672,16.54775,-0.10082,2.1263,1.0196
215.272,16.56614,-0.10237,2.13959,1.0193
215.872,16.5845,-0.10392,2.15106,1.019
216.472,16.60286,-0.1055,2.16671,1.01871
217.072,16.6212,-0.10705,2.17747,1.01841
217.672,16.63953,-0.10998,2.19129,1.01811
218.272,16.65789,-0.11162,2.20175,1.01781
218.872,16.67618,-0.11313,2.21508,1.01751
219.472,16.69454,-0.11471,2.2281,1.0172
220.072,16.7129,-0.11631,2.23993,1.0169
220.672,16.73118,-0.11846,2.2494,1.0166
221.272,16.7495,-0.12083,2.26078,1.0163
221.872,16.76775,-0.12238,2.2714,1.01599
222.472,16.78606,-0.12323,2.28021,1.01569
223.072,16.80435,-0.12483,2.28998,1.01538
223.672,16.82262,-0.12662,2.3005,1.01507
224.272,16.84092,-0.12854,2.30621,1.01477
224.872,16.85924,-0.13047,2.31466,1.01446
225.472,16.8775,-0.13314,2.32277,1.01415
226.072,16.89582,-0.13584,2.33027,1.01384
226.672,16.91412,-0.13824,2.33786,1.01353
227.272,16.9324,-0.14076,2.34456,1.01322
227.872,16.95064,-0.1429,2.3484,1.01291
228.472,16.96892,-0.14509,2.35252,1.0126
229.072,16.98719,-0.14727,2.35605,1.01228
229.672,17.00546,-0.14919,2.35822,1.01197
230.272,17.02376,-0.15089,2.36291,1.01166
230.872,17.04202,-0.15255,2.36609,1.01134
231.472,17.06034,-0.15414,2.36677,1.01103
232.072,17.07859,-0.15658,2.36883,1.01071
232.672,17.09681,-0.15923,2.37271,1.01039
233.272,17.115,-0.16129,2.37252,1.01007
233.872,17.1333,-0.16348,2.37343,1.00976
234.472,17.1515,-0.16468,2.37052,1.00944
235.072,17.16984,-0.1665,2.36841,1.00912
235.672,17.18821,-0.16833,2.3673,1.0088
236.272,17.2065,-0.17103,2.36885,1.00848
236.872,17.22482,-0.17339,2.36278,1.00815
237.472,17.24305,-0.17706,2.36078,1.00783
238.072,17.26126,-0.17983,2.35631,1.00751
238.672,17.27945,-0.18189,2.35328,1.00718
239.272,17.29767,-0.18398,2.34906,1.00686
239.872,17.31589,-0.18611,2.3451,1.00653
240.472,17.33415,-0.18878,2.34179,1.00621
241.072,17.3523,-0.19067,2.33548,1.00588
241.672,17.37051,-0.19291,2.33194,1.00556
242.272,17.38874,-0.19526,2.32456,1.00523
242.872,17.4069,-0.19797,2.31698,1.0049
243.472,17.42509,-0.20079,2.31286,1.00457
244.072,17.44333,-0.20297,2.30622,1.00424
244.672,17.46153,-0.20585,2.2982,1.00391
245.272,17.4797,-0.20891,2.29321,1.00358
245.872,17.49792,-0.2109,2.28656,1.00325
246.472,17.5161,-0.2136,2.27755,1.00291
247.072,17.53432,-0.21591,2.27072,1.00258
247.672,17.55255,-0.21835,2.26348,1.00225
248.272,17.57079,-0.22025,2.25498,1.00191
248.872,17.58895,-0.22196,2.24709,1.00158
249.472,17.607,-0.22423,2.23784,1.00124
250.072,17.62504,-0.22713,2.23216,1.00091
250.672,17.64319,-0.22943,2.22381,1.00057
251.272,17.6613,-0.23167,2.21692,1.00023
251.872,17.67942,-0.23404,2.20634,0.99989
252.472,17.69771,-0.23664,2.19915,0.99955
253.072,17.71598,-0.23937,2.19157,0.99921
253.672,17.7341,-0.24179,2.18159,0.99887
254.272,17.75228,-0.24465,2.17274,0.99853
254.872,17.7704,-0.24751,2.16534,0.99819
255.472,17.78857,-0.2494,2.15815,0.99785
256.072,17.8067,-0.25167,2.14796,0.99751
256.672,17.82484,-0.25482,2.1408,0.99716
257.272,17.84303,-0.25748,2.12738,0.99682
257.872,17.86122,-0.26009,2.12278,0.99647
258.472,17.87935,-0.26296,2.11077,0.99613
259.072,17.8975,-0.2659,2.10264,0.99578
259.672,17.91568,-0.26872,2.09614,0.99544
260.272,17.93378,-0.271,2.08581,0.99509
260.872,17.95191,-0.27438,2.07577,0.99474
261.472,17.97,-0.27905,2.0702,0.99439
262.072,17.98817,-0.28161,2.06031,0.99404
262.672,18.00629,-0.28482,2.05208,0.99369
263.272,18.02444,-0.28817,2.04241,0.99334
263.872,18.04253,-0.29098,2.0329,0.99299
264.472,18.06073,-0.29379,2.02454,0.99264
265.072,18.0788,-0.29691,2.01678,0.99229
265.672,18.09691,-0.30009,2.00928,0.99194
266.272,18.11501,-0.30301,2.00165,0.99158
266.872,18.13315,-0.30532,1.99117,0.99123
267.472,18.15126,-0.30853,1.98496,0.99087
268.072,18.1694,-0.31096,1.97752,0.99052
268.672,18.18754,-0.31388,1.96389,0.99016
269.272,18.20566,-0.31755,1.95674,0.98981
269.872,18.2238,-0.32175,1.9513,0.98945
270.472,18.24193,-0.32477,1.94041,0.98909
271.072,18.2601,-0.32766,1.93231,0.98873
271.672,18.2782,-0.33221,1.92509,0.98837
272.272,18.2963,-0.33554,1.91542,0.98802
272.872,18.31439,-0.33873,1.90537,0.98766
273.472,18.33246,-0.34173,1.89609,0.98729
274.072,18.35059,-0.34607,1.88858,0.98693
274.672,18.36873,-0.35078,1.87944,0.98657
275.272,18.3868,-0.35404,1.87116,0.98621
275.872,18.40491,-0.35745,1.86262,0.98585
276.472,18.42305,-0.36172,1.8555,0.98548
277.072,18.44114,-0.36515,1.84724,0.98512
277.672,18.45925,-0.36901,1.83887,0.98475
278.272,18.4774,-0.37352,1.82955,0.98439
278.872,18.4956,-0.3776,1.8199,0.98402
279.472,18.51373,-0.3815,1.80891,0.98366
280.072,18.5319,-0.38534,1.80155,0.98329
280.672,18.55002,-0.38994,1.79206,0.98292
281.272,18.5682,-0.39455,1.78538,0.98255
281.872,18.58625,-0.39832,1.77312,0.98218
282.472,18.60438,-0.40344,1.76287,0.98181
283.072,18.6225,-0.40808,1.7533,0.98144
283.672,18.64065,-0.41296,1.74458,0.98107
284.272,18.65871,-0.41754,1.73298,0.9807
284.872,18.67684,-0.42202,1.72465,0.98033
285.472,18.69497,-0.42756,1.71293,0.97996
286.072,18.7131,-0.43246,1.70345,0.97959
286.672,18.73112,-0.43874,1.6934,0.97921
287.272,18.74932,-0.44307,1.68286,0.97884
287.872,18.76747,-0.44898,1.67314,0.97846
288.472,18.78556,-0.45434,1.66289,0.97809
289.072,18.80371,-0.45987,1.65036,0.97771
289.672,18.8218,-0.46477,1.64142,0.97734
290.272,18.83995,-0.47021,1.62981,0.97696
290.872,18.8581,-0.47639,1.61796,0.97658
291.472,18.87623,-0.482,1.60767,0.9762
292.072,18.89442,-0.48889,1.59452,0.97583
292.672,18.91256,-0.49423,1.58369,0.97545
293.272,18.93069,-0.50128,1.57142,0.97507
293.872,18.9489,-0.5065,1.55979,0.97469
294.472,18.96707,-0.51304,1.54838,0.97431
295.072,18.98522,-0.51861,1.53546,0.97392
295.672,19.0034,-0.52547,1.52145,0.97354
296.272,19.0216,-0.53196,1.50967,0.97316
296.872,19.03977,-0.53879,1.50009,0.97278
297.472,19.05794,-0.54554,1.48596,0.97239
298.072,19.07609,-0.55184,1.47428,0.97201
298.672,19.09424,-0.55943,1.45998,0.97163
299.272,19.1124,-0.56573,1.44862,0.97124
299.872,19.13053,-0.57409,1.4353,0.97086
300.472,19.1487,-0.58027,1.42233,0.97047
301.072,19.16682,-0.5884,1.4126,0.97008
301.672,19.185,-0.59386,1.39936,0.9697
302.272,19.20316,-0.59968,1.38627,0.96931
302.872,19.22133,-0.60601,1.37404,0.96892
303.472,19.2395,-0.61347,1.35783,0.96853
304.072,19.25764,-0.62183,1.34728,0.96814
304.672,19.2758,-0.62943,1.33254,0.96775
305.272,19.29393,-0.63804,1.32049,0.96736
305.872,19.31202,-0.6452,1.30976,0.96697
306.472,19.3301,-0.65456,1.29668,0.96658
307.072,19.34825,-0.66145,1.28481,0.96619
307.672,19.36638,-0.66984,1.27369,0.96579
308.272,19.38448,-0.67675,1.25867,0.9654
308.872,19.40268,-0.68618,1.2475,0.96501
309.472,19.42087,-0.69421,1.23451,0.96461
310.072,19.43909,-0.70238,1.22391,0.96422
310.672,19.45726,-0.7112,1.21436,0.96382
311.272,19.47542,-0.71895,1.19959,0.96343
311.872,19.4934,-0.72848,1.19051,0.96303
312.472,19.51135,-0.73596,1.17906,0.96264
313.072,19.5294,-0.74548,1.16493,0.96224
313.672,19.5476,-0.75301,1.15743,0.96184
314.272,19.56587,-0.76193,1.14623,0.96144
314.872,19.58428,-0.7696,1.13523,0.96104
315.472,19.60268,-0.77856,1.12579,0.96065
316.072,19.62097,-0.78717,1.11608,0.96025
316.672,19.63915,-0.79554,1.10607,0.95985
317.272,19.65737,-0.80463,1.09407,0.95944
317.872,19.6755,-0.8128,1.08775,0.95904
318.472,19.6937,-0.82257,1.08028,0.95864
319.072,19.7119,-0.83014,1.07191,0.95824
319.672,19.73015,-0.84017,1.06433,0.95784
320.272,19.74835,-0.84814,1.05483,0.95743
320.872,19.7666,-0.85846,1.04688,0.95703
321.472,19.78484,-0.86669,1.04066,0.95663
322.072,19.80305,-0.87616,1.03026,0.95622
322.672,19.82122,-0.88479,1.02476,0.95582
323.272,19.83941,-0.89347,1.01768,0.95541
323.872,19.85764,-0.90402,1.01083,0.95501
324.472,19.8759,-0.91225,1.00014,0.9546
325.072,19.894,-0.92204,0.99528,0.95419
325.672,19.91231,-0.92992,0.99327,0.95379
326.272,19.9305,-0.94006,0.98568,0.95338
326.872,19.94875,-0.94814,0.9811,0.95297
327.472,19.96699,-0.95857,0.97725,0.95256
328.072,19.9853,-0.9666,0.97008,0.95215
328.672,20.00359,-0.97648,0.96716,0.95174
329.272,20.02189,-0.9854,0.96135,0.95133
329.872,20.04017,-0.99507,0.95549,0.95092
330.472,20.0584,-1.00464,0.95257,0.95051
331.072,20.07667,-1.01361,0.95138,0.9501
331.672,20.09494,-1.0249,0.94607,0.94968
332.272,20.1132,-1.03362,0.94233,0.94927
332.872,20.1315,-1.0448,0.94054,0.94886
333.472,20.1498,-1.05324,0.9383,0.94845
334.072,20.1681,-1.064,0.93306,0.94803
334.672,20.18646,-1.07237,0.9316,0.94762
335.272,20.20475,-1.08277,0.92587,0.9472
335.872,20.223,-1.09178,0.92627,0.94679
336.472,20.24132,-1.10175,0.92462,0.94637
337.072,20.2596,-1.11107,0.92464,0.94595
337.672,20.27788,-1.12027,0.92356,0.94554
338.272,20.29627,-1.13106,0.92274,0.94512
338.872,20.31462,-1.14072,0.92218,0.9447
339.472,20.333,-1.15226,0.92053,0.94428
340.072,20.35138,-1.16089,0.92082,0.94387
340.672,20.36969,-1.17217,0.92216,0.94345
341.272,20.38802,-1.18119,0.92329,0.94303
341.872,20.40635,-1.19281,0.92283,0.94261
342.472,20.42464,-1.20221,0.92397,0.94219
343.072,20.44295,-1.21357,0.92456,0.94177
343.672,20.46132,-1.2239,0.92465,0.94135
344.272,20.47966,-1.23484,0.92599,0.94092
344.872,20.498,-1.246,0.92891,0.9405
345.472,20.5164,-1.256,0.92538,0.94008
346.072,20.5348,-1.26752,0.93241,0.93966
346.672,20.55312,-1.277,0.92936,0.93923
347.272,20.57151,-1.28902,0.9353,0.93881
347.872,20.58989,-1.29862,0.93629,0.93839
348.472,20.60829,-1.31116,0.93834,0.93796
349.072,20.62667,-1.32115,0.94019,0.93754
349.672,20.6451,-1.3334,0.94495,0.93711
350.272,20.66349,-1.34388,0.94933,0.93668
350.872,20.6819,-1.35613,0.95094,0.93626
351.472,20.7003,-1.36787,0.95596,0.93583
352.072,20.71872,-1.37967,0.95874,0.9354
352.672,20.73711,-1.39246,0.96411,0.93498
353.272,20.75554,-1.40415,0.967,0.93455
353.872,20.77393,-1.41802,0.97088,0.93412
354.472,20.79235,-1.42906,0.97459,0.93369
355.072,20.81079,-1.44289,0.98116,0.93326
355.672,20.82919,-1.45348,0.98192,0.93283
356.272,20.84763,-1.46735,0.98592,0.9324
356.872,20.86613,-1.47903,0.99174,0.93197
357.472,20.8846,-1.49319,0.99983,0.93154
358.072,20.90307,-1.5064,1.00121,0.93111
358.672,20.92158,-1.52074,1.00928,0.93068
359.272,20.94005,-1.53378,1.01378,0.93025
359.872,20.9585,-1.54584,1.0182,0.92981
360.472,20.97691,-1.55899,1.02491,0.92938
361.072,20.99537,-1.57172,1.02908,0.92895
361.672,21.01379,-1.58868,1.03437,0.92851
362.272,21.03221,-1.60196,1.04235,0.92808
362.872,21.05069,-1.61807,1.04647,0.92764
363.472,21.06908,-1.63075,1.05318,0.92721
364.072,21.08755,-1.64713,1.05928,0.92677
364.672,21.1061,-1.66021,1.06768,0.92634
365.272,21.1247,-1.67647,1.07204,0.9259
365.872,21.1432,-1.69105,1.07591,0.92547
366.472,21.16175,-1.70751,1.08169,0.92503
367.072,21.18028,-1.72292,1.08792,0.92459
367.672,21.19877,-1.73812,1.09592,0.92415
368.272,21.21726,-1.75425,1.10003,0.92372
368.872,21.23574,-1.76885,1.1057,0.92328
369.472,21.25431,-1.78653,1.1119,0.92284
370.072,21.27281,-1.80085,1.11829,0.9224
370.672,21.29135,-1.81912,1.12604,0.92196
371.272,21.3099,-1.83387,1.13042,0.92152
371.872,21.32846,-1.85307,1.13601,0.92108
372.472,21.34701,-1.86786,1.14111,0.92064
373.072,21.36555,-1.886,1.145,0.9202
373.672,21.38411,-1.90163,1.15075,0.91976
374.272,21.40263,-1.92074,1.15385,0.91931
374.872,21.42119,-1.93791,1.16134,0.91887
375.472,21.43974,-1.95553,1.16304,0.91843
376.072,21.45831,-1.97383,1.16464,0.91799
376.672,21.47685,-1.99069,1.16887,0.91754
377.272,21.4954,-2.01021,1.17062,0.9171
377.872,21.51391,-2.02667,1.17293,0.91666
378.472,21.53247,-2.04708,1.17318,0.91621
379.072,21.55104,-2.06334,1.17351,0.91577
379.672,21.5697,-2.08446,1.17442,0.91532
380.272,21.58833,-2.10117,1.17251,0.91488
380.872,21.60697,-2.12152,1.17068,0.91443
381.472,21.62557,-2.13734,1.1664,0.91398
382.072,21.64418,-2.15641,1.16134,0.91354
382.672,21.6628,-2.17439,1.15768,0.91309
383.272,21.68132,-2.19297,1.15109,0.91264
383.872,21.69991,-2.21099,1.1437,0.9122
384.472,21.71856,-2.22865,1.13683,0.91175
385.072,21.73721,-2.24757,1.12691,0.9113
385.672,21.75581,-2.26373,1.11495,0.91085
386.272,21.7744,-2.28243,1.10124,0.9104
386.872,21.79301,-2.29688,1.09115,0.90995
387.472,21.8116,-2.31518,1.07385,0.9095
388.072,21.83018,-2.32901,1.05977,0.90905
388.672,21.8488,-2.34726,1.04331,0.9086
389.272,21.86725,-2.36093,1.02675,0.90815
389.872,21.88574,-2.37762,1.00662,0.9077
390.472,21.90431,-2.39061,0.98785,0.90725
391.072,21.92291,-2.4049,0.96407,0.9068
391.672,21.94154,-2.41739,0.94344,0.90635
392.272,21.96027,-2.43021,0.92097,0.90589
392.872,21.97912,-2.44314,0.89749,0.90544
393.472,21.99779,-2.45383,0.87359,0.90499
394.072,22.0164,-2.46515,0.85132,0.90453
394.672,22.0351,-2.47464,0.82583,0.90408
395.272,22.05366,-2.48516,0.80398,0.90363
395.872,22.07222,-2.49313,0.77908,0.90317
396.472,22.09084,-2.50298,0.76102,0.90272
397.072,22.10949,-2.51018,0.74104,0.90226
397.672,22.12818,-2.51847,0.72037,0.90181
398.272,22.14684,-2.52567,0.70227,0.90135
398.872,22.1654,-2.53225,0.68311,0.9009
399.472,22.18405,-2.53729,0.66649,0.90044
400.072,22.20266,-2.54266,0.65247,0.89998
400.672,22.22131,-2.54753,0.63766,0.89953
401.272,22.23998,-2.55207,0.6221,0.89907
401.872,22.25864,-2.55628,0.60926,0.89861
402.472,22.27734,-2.56054,0.59874,0.89815
403.072,22.29608,-2.56378,0.58674,0.8977
403.672,22.3148,-2.56712,0.57496,0.89724
404.272,22.3335,-2.57059,0.56349,0.89678
404.872,22.35217,-2.57426,0.55625,0.89632
405.472,22.37086,-2.57704,0.54593,0.89586
406.072,22.38949,-2.5799,0.54042,0.8954
406.672,22.40819,-2.58225,0.5321,0.89494
407.272,22.42688,-2.58461,0.52884,0.89448
407.872,22.4456,-2.58677,0.51831,0.89402
408.472,22.46425,-2.58996,0.51202,0.89356
409.072,22.48293,-2.59302,0.50732,0.8931
409.672,22.50166,-2.59534,0.49845,0.89264
410.272,22.52034,-2.59697,0.49292,0.89217
410.872,22.53902,-2.59892,0.48727,0.89171
411.472,22.55781,-2.60071,0.48544,0.89125
412.072,22.57659,-2.60269,0.47947,0.89079
412.672,22.59531,-2.60501,0.47727,0.89032
413.272,22.6141,-2.60735,0.47079,0.88986
413.872,22.63289,-2.60969,0.4655,0.8894
414.472,22.65158,-2.612,0.46327,0.88893
415.072,22.6703,-2.61418,0.45658,0.88847
415.672,22.68905,-2.61613,0.4535,0.888
416.272,22.7078,-2.61797,0.45245,0.88754
416.872,22.7266,-2.62021,0.4483,0.88708
417.472,22.74541,-2.62227,0.44332,0.88661
418.072,22.76422,-2.62426,0.44032,0.88614
418.672,22.78302,-2.62649,0.43894,0.88568
419.272,22.80176,-2.62877,0.43327,0.88521
419.872,22.82046,-2.63086,0.4314,0.88475
420.472,22.83919,-2.63273,0.42926,0.88428
421.072,22.85791,-2.6344,0.42591,0.88381
421.672,22.87668,-2.63606,0.42341,0.88335
422.272,22.89548,-2.63834,0.42234,0.88288
422.872,22.91431,-2.64032,0.41897,0.88241
423.472,22.93313,-2.64268,0.41812,0.88194
424.072,22.95196,-2.64489,0.41473,0.88147
424.672,22.9708,-2.64731,0.4132,0.88101
425.272,22.98958,-2.6502,0.41112,0.88054
425.872,23.00839,-2.65202,0.41035,0.88007
426.472,23.0273,-2.6538,0.40786,0.8796
427.072,23.046,-2.65561,0.40532,0.87913
427.672,23.06486,-2.65728,0.40339,0.87866
428.272,23.0837,-2.65889,0.40451,0.87819
428.872,23.10247,-2.66073,0.40243,0.87772
429.472,23.1213,-2.6632,0.399,0.87725
430.072,23.14016,-2.66529,0.39516,0.87678
430.672,23.159,-2.66682,0.3967,0.87631
431.272,23.17786,-2.66841,0.39656,0.87584
431.872,23.1967,-2.67013,0.395,0.87536
432.472,23.2155,-2.67208,0.39602,0.87489
433.072,23.23433,-2.67453,0.39525,0.87442
433.672,23.25314,-2.67683,0.39473,0.87395
434.272,23.27199,-2.67832,0.39343,0.87347
434.872,23.29085,-2.68015,0.39555,0.873
435.472,23.3097,-2.68191,0.3927,0.87253
436.072,23.3286,-2.68376,0.39466,0.87206
436.672,23.34744,-2.68601,0.39476,0.87158
437.272,23.36632,-2.68767,0.39364,0.87111
437.872,23.38518,-2.68914,0.39559,0.87063
438.472,23.40409,-2.69025,0.39557,0.87016
439.072,23.423,-2.69193,0.39689,0.86969
439.672,23.44191,-2.6936,0.39798,0.86921
440.272,23.4608,-2.69564,0.396,0.86874
440.872,23.47963,-2.69793,0.39953,0.86826
441.472,23.49851,-2.69954,0.39722,0.86778
442.072,23.5174,-2.70166,0.39781,0.86731
442.672,23.5364,-2.70429,0.40016,0.86683
443.272,23.55534,-2.70643,0.40152,0.86636
443.872,23.5744,-2.70835,0.40095,0.86588
444.472,23.59326,-2.71003,0.40356,0.8654
445.072,23.61218,-2.71127,0.40293,0.86493
445.672,23.63111,-2.71236,0.40537,0.86445
446.272,23.65001,-2.71342,0.40678,0.86397
446.872,23.66897,-2.71451,0.40658,0.8635
447.472,23.68789,-2.71623,0.40864,0.86302
448.072,23.7068,-2.71799,0.40805,0.86254
448.672,23.72575,-2.71976,0.41208,0.86206
449.272,23.74468,-2.72147,0.41113,0.86158
449.872,23.76361,-2.7231,0.41378,0.8611
450.472,23.78262,-2.72425,0.41644,0.86063
451.072,23.80163,-2.72632,0.41732,0.86015
451.672,23.82058,-2.72805,0.41827,0.85967
452.272,23.83962,-2.73027,0.42151,0.85919
452.872,23.8587,-2.73276,0.42166,0.85871
453.472,23.87773,-2.73418,0.42425,0.85823
454.072,23.89676,-2.73516,0.42641,0.85775
454.672,23.9158,-2.73646,0.42892,0.85727
455.272,23.9348,-2.73769,0.43143,0.85679
455.872,23.9538,-2.73884,0.4327,0.85631
456.472,23.97271,-2.74021,0.434,0.85583
457.072,23.99173,-2.74151,0.43621,0.85535
457.672,24.01073,-2.7429,0.43687,0.85486
458.272,24.02975,-2.74423,0.442,0.85438
458.872,24.04875,-2.74694,0.44139,0.8539
459.472,24.0678,-2.74918,0.44483,0.85342
460.072,24.08683,-2.75071,0.45031,0.85294
460.672,24.10591,-2.75202,0.44929,0.85245
461.272,24.12492,-2.75273,0.452,0.85197
461.872,24.14398,-2.75418,0.45239,0.85149
462.472,24.163,-2.75606,0.45717,0.85101
463.072,24.18206,-2.75752,0.45709,0.85052
463.672,24.2011,-2.75887,0.4607,0.85004
464.272,24.2202,-2.75983,0.46258,0.84956
464.872,24.23929,-2.76133,0.46582,0.84907
465.472,24.25834,-2.76301,0.46955,0.84859
466.072,24.27741,-2.76458,0.46876,0.84811
466.672,24.29644,-2.76553,0.47231,0.84762
467.272,24.3155,-2.76685,0.47177,0.84714
467.872,24.33461,-2.76851,0.47699,0.84665
468.472,24.3537,-2.77029,0.47565,0.84617
469.072,24.37285,-2.77251,0.47962,0.84568
469.672,24.39198,-2.77325,0.48379,0.8452
470.272,24.4111,-2.77485,0.4833,0.84471
470.872,24.43015,-2.77639,0.4854,0.84423
471.472,24.44925,-2.7774,0.48761,0.84374
472.072,24.4683,-2.77841,0.48742,0.84326
472.672,24.4874,-2.77957,0.49137,0.84277
473.272,24.50645,-2.78141,0.49375,0.84228
473.872,24.52554,-2.78314,0.49509,0.8418
474.472,24.5447,-2.78444,0.49644,0.84131
475.072,24.5638,-2.78517,0.4986,0.84082
475.672,24.58295,-2.78647,0.50326,0.84034
476.272,24.60205,-2.78775,0.50379,0.83985
476.872,24.62108,-2.78824,0.50482,0.83936
477.472,24.64014,-2.78856,0.50465,0.83888
478.072,24.6593,-2.79028,0.50487,0.83839
478.672,24.6784,-2.79175,0.50632,0.8379
479.272,24.69754,-2.79333,0.50915,0.83741
479.872,24.71676,-2.79429,0.51117,0.83693
480.472,24.73592,-2.79517,0.51214,0.83644
481.072,24.755,-2.79709,0.51197,0.83595
481.672,24.7742,-2.79826,0.51436,0.83546
482.272,24.79328,-2.79945,0.51578,0.83497
482.872,24.81245,-2.80085,0.51785,0.83448
483.472,24.83161,-2.80281,0.51939,0.83399
484.072,24.85074,-2.8041,0.5203,0.83351
484.672,24.86991,-2.80445,0.52173,0.83302
485.272,24.88907,-2.8061,0.52179,0.83253
485.872,24.90825,-2.80769,0.52218,0.83204
486.472,24.9274,-2.80865,0.52379,0.83155
487.072,24.94663,-2.80986,0.52508,0.83106
487.672,24.96582,-2.81111,0.52497,0.83057
488.272,24.98496,-2.81271,0.52854,0.83008
488.872,25.00403,-2.81298,0.5248,0.82959
489.472,25.02321,-2.81413,0.5282,0.8291
490.072,25.04234,-2.81502,0.53028,0.82861
490.672,25.06156,-2.81576,0.53051,0.82812
491.272,25.08077,-2.81719,0.53044,0.82763
491.872,25.10006,-2.81861,0.53124,0.82713
492.472,25.1192,-2.81887,0.53004,0.82664
493.072,25.1385,-2.82014,0.53113,0.82615
493.672,25.15759,-2.82168,0.53341,0.82566
494.272,25.17679,-2.82251,0.53278,0.82517
494.872,25.196,-2.82333,0.53511,0.82468
495.472,25.21519,-2.82432,0.53547,0.82419
496.072,25.2344,-2.82486,0.53405,0.82369
496.672,25.2536,-2.82654,0.53563,0.8232
497.272,25.2728,-2.82662,0.53741,0.82271
497.872,25.29186,-2.82782,0.53907,0.82222
498.472,25.31099,-2.82858,0.54108,0.82173
499.072,25.33023,-2.82972,0.53969,0.82123
499.672,25.3494,-2.83121,0.53904,0.82074
500.272,25.36871,-2.83305,0.54069,0.82025
500.872,25.38808,-2.83357,0.5405,0.81976
501.472,25.40725,-2.83462,0.54045,0.81926
502.072,25.4265,-2.83592,0.53993,0.81877
502.672,25.44569,-2.83609,0.5404,0.81828
503.272,25.46495,-2.83721,0.5401,0.81778
503.872,25.48418,-2.83746,0.54213,0.81729
504.472,25.5034,-2.83818,0.54301,0.8168
505.072,25.5227,-2.83888,0.54383,0.8163
505.672,25.54198,-2.84049,0.54077,0.81581
506.272,25.56119,-2.84208,0.54156,0.81531
506.872,25.5805,-2.84321,0.54017,0.81482
507.472,25.59978,-2.84472,0.54544,0.81433
508.072,25.61907,-2.84638,0.54169,0.81383
508.672,25.6383,-2.84666,0.54401,0.81334
509.272,25.65757,-2.84795,0.54364,0.81284
509.872,25.67684,-2.84781,0.54301,0.81235
510.472,25.6961,-2.84919,0.54624,0.81185
511.072,25.71536,-2.84947,0.54237,0.81136
511.672,25.73461,-2.85075,0.54487,0.81086
512.272,25.75382,-2.85217,0.54529,0.81037
512.872,25.77313,-2.85262,0.54751,0.80987
513.472,25.79241,-2.85414,0.54416,0.80938
514.072,25.81176,-2.85405,0.5446,0.80888
514.672,25.83103,-2.85595,0.5442,0.80839
515.272,25.85037,-2.8568,0.54438,0.80789
515.872,25.8697,-2.85831,0.54373,0.8074
516.472,25.8889,-2.85976,0.54333,0.8069
517.072,25.90824,-2.8598,0.54496,0.8064
517.672,25.9276,-2.86116,0.54522,0.80591
518.272,25.94691,-2.86173,0.54605,0.80541
518.872,25.96625,-2.86306,0.53986,0.80492
519.472,25.98555,-2.86259,0.54312,0.80442
520.072,26.0049,-2.86293,0.53915,0.80392
520.672,26.02424,-2.86333,0.54175,0.80343
521.272,26.0436,-2.86441,0.53792,0.80293
521.872,26.0629,-2.86569,0.53868,0.80243
522.472,26.08225,-2.86608,0.53797,0.80194
523.072,26.10158,-2.8675,0.53791,0.80144
523.672,26.12094,-2.8688,0.53863,0.80094
524.272,26.14033,-2.86938,0.53816,0.80045
524.872,26.1597,-2.87046,0.5336,0.79995
525.472,26.17904,-2.8715,0.53289,0.79945
526.072,26.1984,-2.87288,0.5354,0.79896
526.672,26.21777,-2.87285,0.53383,0.79846
527.272,26.2372,-2.87409,0.53207,0.79796
527.872,26.2566,-2.87416,0.53315,0.79746
528.472,26.276,-2.87547,0.53037,0.79697
529.072,26.29539,-2.8758,0.53258,0.79647
529.672,26.31478,-2.87736,0.53131,0.79597
530.272,26.33415,-2.87672,0.52692,0.79547
530.872,26.3535,-2.87767,0.52683,0.79498
531.472,26.3728,-2.87905,0.52679,0.79448
532.072,26.39224,-2.87924,0.52676,0.79398
532.672,26.4116,-2.88007,0.52487,0.79348
533.272,26.431,-2.88058,0.52374,0.79298
533.872,26.4505,-2.88215,0.52502,0.79249
534.472,26.46984,-2.88276,0.52245,0.79199
535.072,26.48923,-2.88363,0.52471,0.79149
535.672,26.5087,-2.88507,0.5263,0.79099
536.272,26.52812,-2.8851,0.52523,0.79049
536.872,26.54753,-2.88583,0.52453,0.78999
537.472,26.567,-2.88641,0.52355,0.7895
538.072,26.5864,-2.8867,0.52395,0.789
538.672,26.6058,-2.88866,0.52575,0.7885
539.272,26.62515,-2.88862,0.52339,0.788
539.872,26.64456,-2.89009,0.51907,0.7875
540.472,26.66393,-2.8905,0.52381,0.787
541.072,26.68334,-2.89197,0.52454,0.7865
541.672,26.7027,-2.89209,0.525,0.786
542.272,26.72213,-2.89304,0.52464,0.78551
542.872,26.74157,-2.89199,0.52241,0.78501
543.472,26.76097,-2.89321,0.52413,0.78451
544.072,26.7804,-2.89321,0.52683,0.78401
544.672,26.79982,-2.89451,0.52196,0.78351
545.272,26.81922,-2.89453,0.51943,0.78301
545.872,26.83864,-2.89537,0.52231,0.78251
546.472,26.85806,-2.89579,0.52007,0.78201
547.072,26.87748,-2.89712,0.51954,0.78151
547.672,26.89694,-2.89715,0.52138,0.78101
548.272,26.91637,-2.89855,0.51789,0.78051
548.872,26.9358,-2.89859,0.51782,0.78001
549.472,26.95528,-2.89886,0.51605,0.77951
550.072,26.9747,-2.89993,0.51629,0.77901
550.672,26.99418,-2.89981,0.51888,0.77851
551.272,27.0136,-2.90127,0.51655,0.77801
551.872,27.0331,-2.90155,0.5141,0.77751
552.472,27.05248,-2.90302,0.51505,0.77701
553.072,27.07185,-2.90347,0.51691,0.77651
553.672,27.09133,-2.90425,0.51459,0.77601
554.272,27.1108,-2.90501,0.51382,0.77551
554.872,27.1303,-2.9056,0.51321,0.77501
555.472,27.1498,-2.9056,0.51455,0.77451
556.072,27.1693,-2.90619,0.51395,0.77401
556.672,27.18877,-2.90692,0.51249,0.77351
557.272,27.2082,-2.9071,0.50969,0.77301
557.872,27.2275,-2.90853,0.51052,0.77251
558.472,27.24695,-2.9092,0.51065,0.77201
559.072,27.26635,-2.90999,0.51022,0.77151
559.672,27.2858,-2.91007,0.51211,0.77101
560.272,27.30544,-2.91139,0.50946,0.77051
560.872,27.32501,-2.91137,0.50865,0.77001
561.472,27.3445,-2.9127,0.50856,0.76951
562.072,27.364,-2.91261,0.50864,0.76901
562.672,27.38345,-2.91332,0.50567,0.76851
563.272,27.40295,-2.91393,0.50693,0.76801
563.872,27.4224,-2.91606,0.50386,0.76751
564.472,27.4418,-2.91676,0.50533,0.76701
565.072,27.4614,-2.91677,0.50579,0.76651
565.672,27.48095,-2.91751,0.50576,0.76601
566.272,27.50048,-2.91809,0.50565,0.76551
566.872,27.52004,-2.91809,0.50113,0.76501
567.472,27.53945,-2.91903,0.50441,0.76451
568.072,27.5589,-2.91941,0.50109,0.76401
568.672,27.57831,-2.91943,0.50007,0.76351
569.272,27.5978,-2.92019,0.50038,0.763
569.872,27.61735,-2.92073,0.50147,0.7625
570.472,27.63697,-2.92068,0.49764,0.762
571.072,27.65646,-2.92194,0.49997,0.7615
571.672,27.676,-2.92204,0.49467,0.761
572.272,27.69554,-2.92348,0.50026,0.7605
572.872,27.71503,-2.92357,0.49932,0.76
573.472,27.73453,-2.92438,0.49595,0.7595
574.072,27.7541,-2.92488,0.49727,0.759
574.672,27.7737,-2.92506,0.49706,0.7585
575.272,27.7933,-2.92626,0.4971,0.758
575.872,27.8128,-2.92621,0.49643,0.7575
576.472,27.8324,-2.92616,0.49408,0.757
577.072,27.85195,-2.92734,0.4909,0.75649
577.672,27.87149,-2.92752,0.49119,0.75599
578.272,27.8911,-2.92784,0.4911,0.75549
578.872,27.91062,-2.92753,0.49021,0.75499
579.472,27.93021,-2.92753,0.48858,0.75449
580.072,27.94978,-2.92753,0.48719,0.75399
580.672,27.9694,-2.92754,0.49102,0.75349
581.272,27.98889,-2.92851,0.48489,0.75299
581.872,28.0085,-2.929,0.4858,0.75249
582.472,28.028,-2.93173,0.48647,0.75199
583.072,28.04765,-2.93312,0.48488,0.75149
583.672,28.06725,-2.93327,0.48288,0.75098
584.272,28.08683,-2.93452,0.48212,0.75048
584.872,28.10643,-2.93468,0.48225,0.74998
585.472,28.126,-2.93523,0.47967,0.74948
586.072,28.14565,-2.93598,0.48,0.74898
586.672,28.16522,-2.93597,0.4796,0.74848
587.272,28.18491,-2.93592,0.47788,0.74798
587.872,28.20454,-2.93699,0.4805,0.74748
588.472,28.2241,-2.93727,0.47585,0.74698
589.072,28.2437,-2.93799,0.47653,0.74648
589.672,28.2633,-2.93837,0.47852,0.74598
590.272,28.28299,-2.9379,0.4764,0.74548
590.872,28.3026,-2.9391,0.47464,0.74497
591.472,28.32228,-2.93921,0.47306,0.74447
592.072,28.342,-2.94039,0.47148,0.74397
592.672,28.36164,-2.94056,0.46667,0.74347
593.272,28.38128,-2.94134,0.46606,0.74297
593.872,28.4009,-2.94188,0.46413,0.74247
594.472,28.4206,-2.94189,0.46452,0.74197
595.072,28.44023,-2.94189,0.46263,0.74147
595.672,28.45988,-2.94221,0.46013,0.74097
596.272,28.47965,-2.94322,0.4608,0.74047
596.872,28.4994,-2.94349,0.45858,0.73997
597.472,28.5191,-2.94455,0.45731,0.73947
598.072,28.53874,-2.94476,0.45573,0.73897
598.672,28.5585,-2.94587,0.45417,0.73847
599.272,28.5781,-2.94584,0.45286,0.73796
599.872,28.5978,-2.94579,0.44842,0.73746
600.472,28.61751,-2.94705,0.44839,0.73696
601.072,28.6372,-2.94715,0.44363,0.73646
601.672,28.65687,-2.94717,0.44303,0.73596
602.272,28.67656,-2.94754,0.43981,0.73546
602.872,28.69632,-2.94851,0.43671,0.73496
603.472,28.716,-2.94857,0.43687,0.73446
604.072,28.73576,-2.94987,0.43341,0.73396
604.672,28.75546,-2.94975,0.43105,0.73346
605.272,28.7751,-2.95085,0.42949,0.73296
605.872,28.79475,-2.95109,0.42896,0.73246
606.472,28.81451,-2.95191,0.42619,0.73196
607.072,28.8342,-2.9524,0.42543,0.73146
607.672,28.85388,-2.95246,0.41969,0.73096
608.272,28.87361,-2.95384,0.41998,0.73046
608.872,28.8933,-2.95374,0.41622,0.72996
609.472,28.91297,-2.95437,0.41619,0.72946
610.072,28.9327,-2.95504,0.41137,0.72896
610.672,28.95233,-2.95507,0.41179,0.72846
611.272,28.9719,-2.9552,0.41033,0.72796
611.872,28.99168,-2.95637,0.40946,0.72746
612.472,29.0114,-2.95635,0.40506,0.72696
613.072,29.0311,-2.95744,0.40298,0.72646
613.672,29.051,-2.9581,0.40385,0.72596
614.272,29.07082,-2.95973,0.39812,0.72546
614.872,29.0906,-2.96032,0.39598,0.72496
615.472,29.11028,-2.96032,0.39512,0.72446
616.072,29.12997,-2.95966,0.3917,0.72396
616.672,29.1497,-2.95837,0.39224,0.72346
617.272,29.16941,-2.95768,0.39117,0.72296
617.872,29.1891,-2.95793,0.3889,0.72246
618.472,29.2088,-2.95944,0.38572,0.72196
619.072,29.22853,-2.96112,0.38354,0.72146
619.672,29.2482,-2.96161,0.38126,0.72096
620.272,29.26803,-2.96381,0.37625,0.72046
620.872,29.2878,-2.96458,0.37171,0.71996
621.472,29.30752,-2.96526,0.37531,0.71946
622.072,29.3273,-2.96637,0.37124,0.71896
622.672,29.347,-2.96657,0.37465,0.71846
623.272,29.36679,-2.9667,0.37004,0.71796
623.872,29.38653,-2.96796,0.36869,0.71747
624.472,29.40625,-2.9679,0.3663,0.71697
625.072,29.426,-2.96789,0.36576,0.71647
625.672,29.44568,-2.9679,0.3649,0.71597
626.272,29.46531,-2.96818,0.36533,0.71547
626.872,29.48488,-2.96926,0.36151,0.71497
627.472,29.5046,-2.96922,0.36223,0.71447
628.072,29.5244,-2.96926,0.35846,0.71397
628.672,29.5442,-2.9706,0.35913,0.71347
629.272,29.5641,-2.97032,0.35479,0.71298
629.872,29.58408,-2.96907,0.353,0.71248
630.472,29.60378,-2.97041,0.35346,0.71198
631.072,29.6235,-2.97048,0.35075,0.71148
631.672,29.64325,-2.97145,0.35047,0.71098
632.272,29.66303,-2.97183,0.34758,0.71048
632.872,29.68283,-2.97184,0.35011,0.70998
633.472,29.70262,-2.97184,0.3441,0.70949
634.072,29.72239,-2.97182,0.34209,0.70899
634.672,29.74212,-2.97267,0.34044,0.70849
635.272,29.7619,-2.97315,0.3374,0.70799
635.872,29.7817,-2.97327,0.33322,0.70749
636.472,29.80139,-2.97447,0.33622,0.707
637.072,29.82113,-2.97447,0.33326,0.7065
637.672,29.84093,-2.9745,0.33147,0.706
638.272,29.86072,-2.97581,0.33073,0.7055
638.872,29.88058,-2.97579,0.33055,0.705
639.472,29.90042,-2.97582,0.33142,0.70451
640.072,29.92029,-2.9771,0.32389,0.70401
640.672,29.94008,-2.9771,0.32618,0.70351
641.272,29.95983,-2.97742,0.3245,0.70301
641.872,29.9795,-2.97843,0.32385,0.70252
642.472,29.99933,-2.97842,0.31999,0.70202
643.072,30.019,-2.97786,0.31846,0.70152
643.672,30.03875,-2.97796,0.31803,0.70102
644.272,30.05858,-2.97842,0.31708,0.70053
644.872,30.0784,-2.97842,0.31925,0.70003
645.472,30.09812,-2.97834,0.31455,0.69953
646.072,30.1179,-2.97973,0.31381,0.69904
646.672,30.1377,-2.97974,0.31308,0.69854
647.272,30.15745,-2.97976,0.3122,0.69804
647.872,30.17725,-2.98046,0.30885,0.69755
648.472,30.1971,-2.98106,0.30893,0.69705
649.072,30.21697,-2.98105,0.309,0.69655
649.672,30.23684,-2.98097,0.3097,0.69606
650.272,30.2567,-2.98234,0.30708,0.69556
650.872,30.27657,-2.98239,0.30739,0.69506
651.472,30.2964,-2.98299,0.30639,0.69457
652.072,30.3162,-2.9837,0.3007,0.69407
652.672,30.336,-2.98369,0.30146,0.69357
653.272,30.3558,-2.98369,0.304,0.69308
653.872,30.37555,-2.98364,0.30122,0.69258
654.472,30.39535,-2.98477,0.29891,0.69209
655.072,30.4152,-2.98499,0.29768,0.69159
655.672,30.435,-2.98506,0.29803,0.6911
656.272,30.45481,-2.9864,0.29449,0.6906
656.872,30.47468,-2.98618,0.29539,0.6901
657.472,30.49458,-2.98602,0.29379,0.68961
658.072,30.5145,-2.98639,0.29284,0.68911
658.672,30.5343,-2.98732,0.29161,0.68862
659.272,30.5542,-2.98732,0.2883,0.68812
659.872,30.57406,-2.98751,0.28684,0.68763
660.472,30.59393,-2.98867,0.28586,0.68713
661.072,30.6138,-2.98862,0.28417,0.68664
661.672,30.63359,-2.9893,0.28219,0.68614
662.272,30.6534,-2.98961,0.28272,0.68565
662.872,30.67315,-2.98898,0.2822,0.68515
663.472,30.69293,-2.98908,0.28063,0.68466
664.072,30.71272,-2.99032,0.27632,0.68416
664.672,30.73256,-2.99027,0.27318,0.68367
665.272,30.75245,-2.99027,0.27286,0.68317
665.872,30.7723,-2.99024,0.27139,0.68268
666.472,30.7922,-2.9928,0.26762,0.68219
667.072,30.812,-2.9929,0.26768,0.68169
667.672,30.83186,-2.9929,0.26851,0.6812
668.272,30.85175,-2.99291,0.26368,0.6807
668.872,30.8716,-2.993,0.2636,0.68021
669.472,30.8915,-2.99319,0.2614,0.67972
670.072,30.91136,-2.99323,0.26198,0.67922
670.672,30.9312,-2.99322,0.25736,0.67873
671.272,30.951,-2.99398,0.25636,0.67824
671.872,30.9709,-2.99453,0.25461,0.67774
672.472,30.99085,-2.99454,0.25275,0.67725
673.072,31.0107,-2.99453,0.25228,0.67676
673.672,31.03053,-2.99557,0.24747,0.67626
674.272,31.05041,-2.99586,0.25022,0.67577
674.872,31.0702,-2.99586,0.24382,0.67528
675.472,31.0901,-2.99586,0.24681,0.67478
676.072,31.10998,-2.99718,0.24133,0.67429
676.672,31.12984,-2.99718,0.24293,0.6738
677.272,31.14971,-2.9975,0.23806,0.67331
677.872,31.1696,-2.99751,0.23527,0.67281
678.472,31.1895,-2.99751,0.23113,0.67232
679.072,31.20938,-2.99878,0.23415,0.67183
679.672,31.2292,-2.99883,0.23225,0.67134
680.272,31.2491,-2.99973,0.22644,0.67085
680.872,31.2689,-3.00014,0.22587,0.67035
681.472,31.2888,-3.00014,0.22605,0.66986
682.072,31.3087,-3.00014,0.22496,0.66937
682.672,31.3286,-3.00136,0.2227,0.66888
683.272,31.3485,-3.00145,0.22219,0.66839
683.872,31.36845,-3.00146,0.21904,0.6679
684.472,31.38829,-3.00148,0.21503,0.6674
685.072,31.40816,-3.00227,0.21718,0.66691
685.672,31.42813,-3.00277,0.21539,0.66642
686.272,31.4479,-3.00277,0.21403,0.66593
686.872,31.46773,-3.00277,0.21286,0.66544
687.472,31.4876,-3.00277,0.20981,0.66495
688.072,31.5075,-3.00279,0.20938,0.66446
688.672,31.5274,-3.00351,0.20666,0.66397
689.272,31.54753,-3.0041,0.20118,0.66348
689.872,31.5675,-3.00425,0.19898,0.66299
690.472,31.5875,-3.00545,0.19911,0.6625
691.072,31.6074,-3.00541,0.19933,0.66201
691.672,31.62728,-3.00546,0.19653,0.66152
692.272,31.6472,-3.00463,0.19376,0.66103
692.872,31.6671,-3.00544,0.18924,0.66054
693.472,31.68699,-3.0054,0.18784,0.66005
694.072,31.70699,-3.0054,0.1865,0.65956
694.672,31.72687,-3.0054,0.18643,0.65907
695.272,31.7468,-3.00542,0.18412,0.65858
695.872,31.7667,-3.00582,0.18224,0.65809
696.472,31.7866,-3.00641,0.17925,0.6576
697.072,31.80657,-3.0064,0.17362,0.65711
697.672,31.82651,-3.00635,0.17364,0.65662
698.272,31.84648,-3.00755,0.16935,0.65614
698.872,31.86644,-3.0077,0.17023,0.65565
699.472,31.8864,-3.00771,0.16804,0.65516
700.072,31.9064,-3.00782,0.16519,0.65467
700.672,31.9263,-3.0091,0.16244,0.65418
701.272,31.94623,-3.00903,0.16013,0.65369
701.872,31.9662,-3.00902,0.15718,0.65321
702.472,31.98619,-3.01002,0.15766,0.65272
703.072,32.00622,-3.01033,0.15348,0.65223
703.672,32.02623,-3.01035,0.15108,0.65174
704.272,32.04623,-3.01035,0.14793,0.65126
704.872,32.0662,-3.01035,0.14358,0.65077
705.472,32.086,-3.01044,0.14203,0.65028
706.072,32.10595,-3.01174,0.13813,0.64979
706.672,32.12596,-3.01167,0.13607,0.64931
707.272,32.1459,-3.01166,0.13675,0.64882
707.872,32.16598,-3.01166,0.13316,0.64833
708.472,32.186,-3.01166,0.12942,0.64785
709.072,32.20596,-3.01166,0.12863,0.64736
709.672,32.22595,-3.01169,0.12558,0.64687
710.272,32.2459,-3.01223,0.12282,0.64639
710.872,32.26593,-3.01299,0.12161,0.6459
711.472,32.2859,-3.01298,0.12088,0.64541
712.072,32.3059,-3.01298,0.1179,0.64493
712.672,32.32586,-3.01301,0.11712,0.64444
713.272,32.34581,-3.01353,0.112,0.64396
713.872,32.3658,-3.01429,0.11363,0.64347
714.472,32.38573,-3.0142,0.10749,0.64299
715.072,32.4056,-3.01556,0.10937,0.6425
715.672,32.4256,-3.01561,0.10479,0.64201
716.272,32.4456,-3.0156,0.1037,0.64153
716.872,32.46561,-3.01551,0.10347,0.64104
717.472,32.48567,-3.01688,0.09981094,0.64056
718.072,32.50568,-3.01693,0.09992496,0.64008
718.672,32.5257,-3.01693,0.09570808,0.63959
719.272,32.54582,-3.01689,0.09756789,0.63911
719.872,32.56586,-3.01814,0.09323027,0.63862
720.472,32.5859,-3.01715,0.09215555,0.63814
721.072,32.6059,-3.01724,0.08843866,0.63765
721.672,32.62587,-3.01715,0.08802804,0.63717
722.272,32.64583,-3.01852,0.08818199,0.63669
722.872,32.66578,-3.01857,0.08295289,0.6362
723.472,32.68581,-3.01857,0.08482945,0.63572
724.072,32.7059,-3.01857,0.08226172,0.63524
724.672,32.72592,-3.01858,0.08062437,0.63475
725.272,32.74599,-3.01891,0.08255449,0.63427
725.872,32.76607,-3.01993,0.07968104,0.63379
726.472,32.7861,-3.01984,0.07714264,0.6333
727.072,32.80617,-3.02101,0.07620111,0.63282
727.672,32.82622,-3.02119,0.07238386,0.63234
728.272,32.84628,-3.0212,0.07589366,0.63186
728.872,32.86636,-3.0212,0.07190685,0.63137
729.472,32.8864,-3.02123,0.07141331,0.63089
730.072,32.9064,-3.02182,0.0716543,0.63041
730.672,32.92646,-3.02253,0.06707874,0.62993
731.272,32.94647,-3.0215,0.06540205,0.62945
731.872,32.9665,-3.02122,0.06357881,0.62896
732.472,32.98662,-3.0212,0.05909318,0.62848
733.072,33.00673,-3.0212,0.06061195,0.628
733.672,33.0268,-3.0212,0.05529383,0.62752
734.272,33.0469,-3.02115,0.05645199,0.62704
734.872,33.06694,-3.02237,0.05227497,0.62656
735.472,33.087,-3.0225,0.0550768,0.62608
736.072,33.10705,-3.02251,0.05443847,0.6256
736.672,33.1271,-3.02253,0.04972408,0.62512
737.272,33.14719,-3.02322,0.04805577,0.62464
737.872,33.16726,-3.02383,0.0494812,0.62416
738.472,33.1873,-3.02382,0.04436247,0.62368
739.072,33.2074,-3.02374,0.04394477,0.6232
739.672,33.22744,-3.02513,0.0440481,0.62272
740.272,33.2475,-3.02515,0.04395367,0.62224
740.872,33.26763,-3.02516,0.04020297,0.62176
741.472,33.2877,-3.02562,0.04025948,0.62128
742.072,33.3089,-3.02647,0.04027975,0.6208
742.672,33.33021,-3.02646,0.03514695,0.62032
742.772,33.33234,-3.02646,0.03530788,0.62024