File: 01_Data/Engineered_Flooring/STA/N2/30K_min/Engineered_Flooring_STA_N2_30KData_211512_R1.csv
##Temp./Â°C,Time/min,Mass loss(subtr.2)/mg,DSC(subtr.2)/(mW/mg),Sensit./(uV/mW)
48.482,10.01,0.00164,0.01042058,1.06964
49.082,10.53158,0.001203611,0.05394919,1.06958
49.682,10.6518,-0.000223202,0.08858681,1.06953
50.282,10.737,0.000906322,0.12265,1.06948
50.882,10.80547,0.000704609,0.15265,1.06942
51.482,10.86559,0.0008552751,0.177,1.06936
52.082,10.91923,0.002203722,0.20153,1.06931
52.682,10.96727,0.000635137,0.22431,1.06925
53.282,11.01174,0.001788989,0.24597,1.06919
53.882,11.05335,0.0009236424,0.26761,1.06913
54.482,11.0931,0.001656653,0.28673,1.06907
55.082,11.13087,0.0016439,0.30723,1.06901
55.682,11.1668,0.0008992267,0.32445,1.06894
56.282,11.20138,0.0005702257,0.344,1.06888
56.882,11.2356,0.002426789,0.35664,1.06881
57.482,11.2682,0.0027759,0.36984,1.06875
58.082,11.2994,0.003717035,0.38447,1.06868
58.682,11.32978,0.001872929,0.39533,1.06861
59.282,11.3594,0.001204896,0.40676,1.06854
59.882,11.38893,0.001532323,0.41793,1.06847
60.482,11.41763,0.00123305,0.43166,1.0684
61.082,11.44585,0.00250937,0.4403,1.06833
61.682,11.47338,0.003528205,0.45205,1.06825
62.282,11.5006,0.00373081,0.46465,1.06818
62.882,11.5273,0.003191362,0.47206,1.0681
63.482,11.55372,0.001828395,0.48261,1.06803
64.082,11.57967,0.0007710956,0.49415,1.06795
64.682,11.60538,0.00101603,0.50374,1.06787
65.282,11.63072,0.002071336,0.5165,1.06779
65.882,11.65576,0.002151516,0.52205,1.06771
66.482,11.6805,0.001761205,0.5318,1.06763
67.082,11.7051,0.001525898,0.53988,1.06755
67.682,11.72948,0.00158656,0.55113,1.06746
68.282,11.7537,0.002474558,0.55789,1.06738
68.882,11.77773,0.002433574,0.56554,1.06729
69.482,11.80156,0.001738235,0.57602,1.06721
70.082,11.82516,0.002053493,0.58221,1.06712
70.682,11.84854,0.001821345,0.59046,1.06703
71.282,11.87176,0.002581645,0.59844,1.06694
71.882,11.8949,0.002681,0.6078,1.06685
72.482,11.91799,0.002281585,0.61554,1.06676
73.082,11.9409,0.002157387,0.62229,1.06667
73.682,11.9638,0.002008688,0.6311,1.06658
74.282,11.98663,0.001959271,0.63895,1.06648
74.882,12.00928,0.001227199,0.6445,1.06639
75.482,12.03181,-0.000558609,0.65166,1.06629
76.082,12.054,-0.0001546868,0.66006,1.06619
76.682,12.0761,0.0001556713,0.66557,1.0661
77.282,12.09827,-0.000260904,0.6738,1.066
77.882,12.12032,0.0005125278,0.68014,1.0659
78.482,12.14235,0.0006514021,0.68728,1.0658
79.082,12.16424,-0.0004584013,0.69485,1.06569
79.682,12.18598,0.0006200519,0.70267,1.06559
80.282,12.20765,-0.0004772725,0.70667,1.06549
80.882,12.22937,0.000972477,0.71348,1.06538
81.482,12.25103,6.28434e-05,0.71639,1.06528
82.082,12.27263,0.0008105348,0.72625,1.06517
82.682,12.29415,0.0006107263,0.73168,1.06506
83.282,12.3156,-0.00048199,0.73835,1.06495
83.882,12.337,0.000114338,0.7431,1.06484
84.482,12.3584,-0.00067851,0.74699,1.06473
85.082,12.37974,-0.000330799,0.75373,1.06462
85.682,12.40103,-0.0006532933,0.76174,1.06451
86.282,12.42216,-0.000642071,0.76659,1.06439
86.882,12.44322,-0.0005919626,0.77097,1.06428
87.482,12.46422,-0.00196801,0.77798,1.06416
88.082,12.48517,-0.0009489697,0.78313,1.06405
88.682,12.50605,-0.00169884,0.7891,1.06393
89.282,12.52696,-0.001864977,0.79223,1.06381
89.882,12.54781,-0.002054911,0.79872,1.06369
90.482,12.56868,-0.001985171,0.80424,1.06357
91.082,12.58961,-0.001872479,0.80786,1.06345
91.682,12.6103,-0.002217712,0.81244,1.06333
92.282,12.6311,-0.00316069,0.81814,1.06321
92.882,12.6518,-0.001806707,0.82311,1.06308
93.482,12.6723,-0.0032678,0.82958,1.06296
94.082,12.69295,-0.00319575,0.8342,1.06283
94.682,12.71354,-0.003184047,0.83628,1.0627
95.282,12.73409,-0.003919429,0.84285,1.06258
95.882,12.75469,-0.0040452,0.84393,1.06245
96.482,12.77524,-0.003123153,0.84961,1.06232
97.082,12.79575,-0.004294855,0.85348,1.06219
97.682,12.81632,-0.003492405,0.8563,1.06205
98.282,12.8368,-0.0031985,0.85938,1.06192
98.882,12.85719,-0.004285914,0.86452,1.06179
99.482,12.87758,-0.004497765,0.86638,1.06165
100.082,12.898,-0.004509251,0.86789,1.06152
100.682,12.91835,-0.004509558,0.87302,1.06138
101.282,12.93875,-0.004505425,0.87482,1.06124
101.882,12.95928,-0.005773999,0.87767,1.06111
102.482,12.9796,-0.005818121,0.88098,1.06097
103.082,12.99985,-0.005819952,0.87985,1.06083
103.682,13.02013,-0.005820019,0.88363,1.06069
104.282,13.0405,-0.00738903,0.8872,1.06054
104.882,13.06082,-0.00733923,0.88982,1.0604
105.482,13.08117,-0.007374916,0.88955,1.06026
106.082,13.10148,-0.007352163,0.89161,1.06011
106.682,13.12173,-0.007350795,0.89356,1.05997
107.282,13.14197,-0.007360124,0.8946,1.05982
107.882,13.1622,-0.00752112,0.89575,1.05967
108.482,13.18251,-0.00867617,0.89907,1.05952
109.082,13.2027,-0.008670453,0.89728,1.05937
109.682,13.2229,-0.008670037,0.89894,1.05922
110.282,13.24324,-0.008670049,0.89946,1.05907
110.882,13.26344,-0.008670694,0.90034,1.05892
111.482,13.28362,-0.008680116,0.90002,1.05877
112.082,13.30379,-0.008853384,0.90044,1.05861
112.682,13.3239,-0.01004323,0.90459,1.05846
113.282,13.344,-0.01000441,0.90388,1.0583
113.882,13.3641,-0.01018897,0.9055,1.05814
114.482,13.3842,-0.01135177,0.9079,1.05799
115.082,13.4044,-0.01130367,0.90883,1.05783
115.682,13.4245,-0.01130022,0.90965,1.05767
116.282,13.4446,-0.01129942,0.91007,1.05751
116.882,13.46463,-0.01129157,0.91336,1.05735
117.482,13.4847,-0.01114843,0.91297,1.05718
118.082,13.50465,-0.01098078,0.91301,1.05702
118.682,13.52472,-0.01102835,0.91401,1.05686
119.282,13.54481,-0.01238275,0.91363,1.05669
119.882,13.5648,-0.01229667,0.9155,1.05653
120.482,13.58479,-0.01229048,0.91544,1.05636
121.082,13.60472,-0.01229004,0.91488,1.05619
121.682,13.6246,-0.01229001,0.9141,1.05602
122.282,13.64453,-0.01229006,0.91377,1.05585
122.882,13.6644,-0.01229085,0.91356,1.05568
123.482,13.68425,-0.01230161,0.91618,1.05551
124.082,13.7041,-0.01249181,0.91538,1.05534
124.682,13.7239,-0.01366239,0.91433,1.05516
125.282,13.74378,-0.01361373,0.91618,1.05499
125.882,13.76363,-0.01360991,0.91717,1.05482
126.482,13.7836,-0.01360515,0.91631,1.05464
127.082,13.8034,-0.01354429,0.91695,1.05446
127.682,13.8232,-0.01478804,0.91733,1.05428
128.282,13.8429,-0.01491814,0.91727,1.05411
128.882,13.8627,-0.01491987,0.91878,1.05393
129.482,13.8823,-0.01492005,0.91895,1.05375
130.082,13.90201,-0.01492073,0.92055,1.05356
130.682,13.92172,-0.01493017,0.91953,1.05338
131.282,13.9414,-0.01630162,0.92378,1.0532
131.882,13.961,-0.0162435,0.92228,1.05302
132.482,13.9807,-0.01624018,0.924,1.05283
133.082,14.0002,-0.01624,0.92306,1.05264
133.682,14.01975,-0.01624,0.92399,1.05246
134.282,14.03925,-0.01623997,0.92849,1.05227
134.882,14.0588,-0.01623933,0.92696,1.05208
135.482,14.0783,-0.01622819,0.92664,1.05189
136.082,14.09784,-0.01572942,0.92877,1.0517
136.682,14.1173,-0.01524109,0.93141,1.05151
137.282,14.13685,-0.01524932,0.93228,1.05132
137.882,14.1563,-0.01525094,0.93461,1.05113
138.482,14.17578,-0.01526389,0.93591,1.05093
139.082,14.19525,-0.01553208,0.93943,1.05074
139.682,14.21465,-0.01660955,0.94051,1.05054
140.282,14.234,-0.01656368,0.94247,1.05035
140.882,14.25339,-0.01656026,0.94341,1.05015
141.482,14.2727,-0.01656003,0.94678,1.04995
142.082,14.292,-0.01656012,0.9472,1.04975
142.682,14.3113,-0.01656108,0.94942,1.04955
143.282,14.33056,-0.01656594,0.95308,1.04935
143.882,14.3498,-0.01754194,0.95468,1.04915
144.482,14.36905,-0.01754663,0.95636,1.04895
145.082,14.38825,-0.01753727,0.96137,1.04874
145.682,14.40751,-0.01841523,0.96281,1.04854
146.282,14.4267,-0.01852866,0.96381,1.04833
146.882,14.4459,-0.01853465,0.96731,1.04813
147.482,14.46502,-0.01848233,0.96947,1.04792
148.082,14.4842,-0.01853232,0.97355,1.04771
148.682,14.50335,-0.01754559,0.97443,1.04751
149.282,14.52246,-0.01754962,0.97879,1.0473
149.882,14.5416,-0.01754922,0.98219,1.04709
150.482,14.56069,-0.01754568,0.98546,1.04688
151.082,14.5798,-0.01787505,0.98795,1.04666
151.682,14.5989,-0.01787602,0.99114,1.04645
152.282,14.61795,-0.01783789,0.99399,1.04624
152.882,14.63695,-0.01906251,0.99686,1.04602
153.482,14.656,-0.01918916,1.00171,1.04581
154.082,14.6751,-0.01920326,1.0037,1.04559
154.682,14.69415,-0.01927392,1.00851,1.04537
155.282,14.71325,-0.02025038,1.01186,1.04516
155.882,14.7324,-0.02019476,1.01181,1.04494
156.482,14.7515,-0.02019737,1.01749,1.04472
157.082,14.7704,-0.02021588,1.02129,1.0445
157.682,14.7894,-0.02150701,1.02444,1.04428
158.282,14.80834,-0.02150938,1.02787,1.04405
158.882,14.8272,-0.02150992,1.03204,1.04383
159.482,14.84619,-0.02150999,1.03505,1.04361
160.082,14.8652,-0.02151,1.04104,1.04338
160.682,14.8841,-0.02151001,1.04569,1.04316
161.282,14.9031,-0.02151009,1.04992,1.04293
161.882,14.92201,-0.02151077,1.05261,1.0427
162.482,14.94098,-0.02151514,1.05876,1.04248
163.082,14.9599,-0.02281436,1.06002,1.04225
163.682,14.97884,-0.02281452,1.06365,1.04202
164.282,14.9977,-0.02282001,1.06791,1.04179
164.882,15.01663,-0.02283342,1.07023,1.04156
165.482,15.03549,-0.02311356,1.07534,1.04132
166.082,15.05441,-0.02418219,1.08107,1.04109
166.682,15.07325,-0.02413371,1.08695,1.04086
167.282,15.0921,-0.02413002,1.09007,1.04062
167.882,15.11098,-0.02412879,1.09473,1.04039
168.482,15.1298,-0.02413254,1.09964,1.04015
169.082,15.1486,-0.0249931,1.10187,1.03991
169.682,15.16748,-0.02545357,1.10935,1.03968
170.282,15.18634,-0.02545242,1.11304,1.03944
170.882,15.20512,-0.02547741,1.11905,1.0392
171.482,15.2239,-0.02582305,1.12358,1.03896
172.082,15.24284,-0.02641255,1.13012,1.03872
172.682,15.2616,-0.02643855,1.13622,1.03848
173.282,15.28028,-0.02643998,1.14087,1.03823
173.882,15.2991,-0.02644001,1.14724,1.03799
174.482,15.31781,-0.02644004,1.15387,1.03774
175.082,15.33651,-0.02644066,1.15828,1.0375
175.682,15.35529,-0.0264489,1.16326,1.03725
176.282,15.37408,-0.0265654,1.16985,1.03701
176.882,15.39282,-0.02675436,1.17669,1.03676
177.482,15.4116,-0.02678426,1.18206,1.03651
178.082,15.43033,-0.0277723,1.1886,1.03626
178.682,15.449,-0.02903097,1.19546,1.03601
179.282,15.46761,-0.02905665,1.1995,1.03576
179.882,15.4862,-0.02897198,1.20921,1.03551
180.482,15.50477,-0.03031717,1.21377,1.03526
181.082,15.5234,-0.0303814,1.22112,1.035
181.682,15.5421,-0.03090567,1.22785,1.03475
182.282,15.5607,-0.03203273,1.23559,1.03449
182.882,15.5793,-0.03203916,1.24282,1.03424
183.482,15.5979,-0.03281935,1.25219,1.03398
184.082,15.6165,-0.03335581,1.25828,1.03373
184.682,15.63495,-0.03336341,1.26536,1.03347
185.282,15.65351,-0.03351487,1.27346,1.03321
185.882,15.67206,-0.03471136,1.28341,1.03295
186.482,15.6905,-0.03466653,1.28949,1.03269
187.082,15.7089,-0.03522921,1.30153,1.03243
187.682,15.72744,-0.03600857,1.30963,1.03217
188.282,15.746,-0.03607926,1.32026,1.0319
188.882,15.7645,-0.03739598,1.3286,1.03164
189.482,15.78314,-0.03732864,1.33801,1.03138
190.082,15.80176,-0.03880943,1.34621,1.03111
190.682,15.82019,-0.03873168,1.35875,1.03085
191.282,15.8385,-0.04012245,1.36758,1.03058
191.882,15.8567,-0.04004915,1.37645,1.03031
192.482,15.87519,-0.04140218,1.3876,1.03004
193.082,15.89365,-0.04139717,1.39876,1.02977
193.682,15.91221,-0.04259864,1.40893,1.0295
194.282,15.93082,-0.04276945,1.42182,1.02923
194.882,15.94938,-0.04367968,1.43342,1.02896
195.482,15.96776,-0.04548511,1.44479,1.02869
196.082,15.9862,-0.0468279,1.45594,1.02842
196.682,16.00463,-0.04749738,1.4686,1.02815
197.282,16.02313,-0.04859302,1.48033,1.02787
197.882,16.0416,-0.05032105,1.49196,1.0276
198.482,16.0601,-0.04970363,1.5054,1.02732
199.082,16.07856,-0.05051617,1.51664,1.02704
199.682,16.09698,-0.05227124,1.53037,1.02677
200.282,16.1154,-0.05346553,1.54122,1.02649
200.882,16.13379,-0.05421706,1.55564,1.02621
201.482,16.15223,-0.05578714,1.56819,1.02593
202.082,16.17067,-0.05699282,1.58139,1.02565
202.682,16.18906,-0.05779966,1.59433,1.02537
203.282,16.20745,-0.05943972,1.60701,1.02509
203.882,16.22586,-0.06055476,1.62019,1.0248
204.482,16.24419,-0.06175805,1.63577,1.02452
205.082,16.26256,-0.06362898,1.64895,1.02424
205.682,16.281,-0.06428949,1.66482,1.02395
206.282,16.2994,-0.06502046,1.67765,1.02367
206.882,16.3178,-0.06663212,1.69192,1.02338
207.482,16.3362,-0.06817028,1.70617,1.02309
208.082,16.35456,-0.06953927,1.71766,1.02281
208.682,16.37295,-0.0711431,1.73236,1.02252
209.282,16.39131,-0.07227247,1.74646,1.02223
209.882,16.4097,-0.0741463,1.76047,1.02194
210.482,16.42807,-0.07597054,1.77222,1.02165
211.082,16.4465,-0.0773856,1.78804,1.02136
211.682,16.46483,-0.0783304,1.80213,1.02106
212.282,16.48319,-0.07979571,1.81455,1.02077
212.882,16.50155,-0.08168227,1.82697,1.02048
213.482,16.51987,-0.08346992,1.84257,1.02018
214.082,16.5382,-0.0846649,1.85443,1.01989
214.682,16.55658,-0.08645735,1.86719,1.01959
215.282,16.57497,-0.08806901,1.87974,1.0193
215.882,16.5933,-0.08981271,1.89189,1.019
216.482,16.6117,-0.09157158,1.90485,1.0187
217.082,16.63009,-0.09324347,1.91501,1.0184
217.682,16.64852,-0.09470419,1.92746,1.0181
218.282,16.66686,-0.09629867,1.94233,1.0178
218.882,16.68528,-0.09817838,1.95074,1.0175
219.482,16.7037,-0.1001,1.96308,1.0172
220.082,16.72203,-0.10123,1.97269,1.0169
220.682,16.7403,-0.10348,1.98473,1.01659
221.282,16.75862,-0.10537,1.99475,1.01629
221.882,16.7769,-0.10719,2.00201,1.01599
222.482,16.79518,-0.11044,2.01253,1.01568
223.082,16.8135,-0.11239,2.02061,1.01538
223.682,16.83183,-0.11426,2.02812,1.01507
224.282,16.85014,-0.11574,2.03739,1.01476
224.882,16.86843,-0.11735,2.04403,1.01445
225.482,16.88672,-0.11966,2.0477,1.01415
226.082,16.90498,-0.12213,2.05666,1.01384
226.682,16.9233,-0.12446,2.06406,1.01353
227.282,16.9416,-0.12612,2.06826,1.01321
227.882,16.95996,-0.12779,2.07124,1.0129
228.482,16.9783,-0.12951,2.07735,1.01259
229.082,16.99661,-0.13215,2.07949,1.01228
229.682,17.01493,-0.13528,2.08306,1.01196
230.282,17.03321,-0.13724,2.08523,1.01165
230.882,17.0515,-0.13934,2.08753,1.01134
231.482,17.06975,-0.14114,2.08993,1.01102
232.082,17.08802,-0.14312,2.08833,1.0107
232.682,17.10622,-0.14519,2.09094,1.01039
233.282,17.12453,-0.14765,2.0921,1.01007
233.882,17.14281,-0.1501,2.08799,1.00975
234.482,17.16102,-0.15222,2.09035,1.00943
235.082,17.17936,-0.15426,2.08983,1.00911
235.682,17.19772,-0.15637,2.08706,1.00879
236.282,17.21602,-0.15825,2.087,1.00847
236.882,17.23432,-0.16119,2.08231,1.00815
237.482,17.25265,-0.16302,2.08089,1.00783
238.082,17.2709,-0.16509,2.07639,1.0075
238.682,17.28913,-0.16765,2.07422,1.00718
239.282,17.3073,-0.16992,2.06957,1.00685
239.882,17.32551,-0.17207,2.06445,1.00653
240.482,17.34362,-0.17335,2.05914,1.0062
241.082,17.36185,-0.17574,2.05514,1.00588
241.682,17.38007,-0.17793,2.04895,1.00555
242.282,17.39836,-0.18001,2.04372,1.00522
242.882,17.4166,-0.18197,2.03921,1.00489
243.482,17.43492,-0.18463,2.03207,1.00456
244.082,17.45316,-0.18717,2.02616,1.00423
244.682,17.4713,-0.19133,2.02008,1.0039
245.282,17.48949,-0.19432,2.01388,1.00357
245.882,17.50766,-0.19631,2.00535,1.00324
246.482,17.52585,-0.19823,2.00021,1.00291
247.082,17.5441,-0.20018,1.99245,1.00258
247.682,17.5623,-0.20218,1.98579,1.00224
248.282,17.58055,-0.20461,1.97985,1.00191
248.882,17.59874,-0.20705,1.97051,1.00157
249.482,17.61692,-0.20978,1.96471,1.00124
250.082,17.63502,-0.21209,1.95539,1.0009
250.682,17.6532,-0.21514,1.94839,1.00056
251.282,17.67142,-0.21813,1.94172,1.00023
251.882,17.6896,-0.21986,1.93119,0.99989
252.482,17.70779,-0.22214,1.92443,0.99955
253.082,17.726,-0.22481,1.91461,0.99921
253.682,17.74421,-0.22717,1.90616,0.99887
254.282,17.7623,-0.2295,1.90199,0.99853
254.882,17.7804,-0.23237,1.89391,0.99819
255.482,17.79859,-0.23534,1.88411,0.99784
256.082,17.81675,-0.23814,1.87506,0.9975
256.682,17.83492,-0.24012,1.86548,0.99716
257.282,17.85312,-0.24309,1.86004,0.99681
257.882,17.8714,-0.24634,1.85205,0.99647
258.482,17.88959,-0.24838,1.84602,0.99612
259.082,17.9077,-0.25054,1.83483,0.99578
259.682,17.92584,-0.25208,1.82617,0.99543
260.282,17.944,-0.25502,1.8192,0.99508
260.882,17.9621,-0.2583,1.81072,0.99474
261.482,17.98021,-0.26129,1.8005,0.99439
262.082,17.99836,-0.26416,1.79478,0.99404
262.682,18.0164,-0.26681,1.78518,0.99369
263.282,18.0345,-0.26937,1.77723,0.99334
263.882,18.05262,-0.27303,1.76978,0.99299
264.482,18.07074,-0.27751,1.76156,0.99264
265.082,18.08887,-0.2797,1.7537,0.99228
265.682,18.1071,-0.2824,1.74465,0.99193
266.282,18.12526,-0.28573,1.73654,0.99158
266.882,18.14339,-0.28844,1.7305,0.99122
267.482,18.16156,-0.29151,1.72096,0.99087
268.082,18.17974,-0.29524,1.71349,0.99051
268.682,18.1979,-0.299,1.70716,0.99016
269.282,18.21603,-0.30241,1.69785,0.9898
269.882,18.23411,-0.30513,1.69259,0.98944
270.482,18.2522,-0.30864,1.68316,0.98909
271.082,18.27029,-0.31244,1.67623,0.98873
271.682,18.28839,-0.31481,1.67073,0.98837
272.282,18.30648,-0.31781,1.66089,0.98801
272.882,18.32463,-0.3217,1.65319,0.98765
273.482,18.3427,-0.32501,1.647,0.98729
274.082,18.36076,-0.32825,1.63643,0.98693
274.682,18.37885,-0.33187,1.63005,0.98657
275.282,18.39697,-0.3358,1.62112,0.9862
275.882,18.4151,-0.33972,1.61342,0.98584
276.482,18.4332,-0.34317,1.60617,0.98548
277.082,18.45141,-0.34739,1.598,0.98511
277.682,18.46957,-0.35178,1.59015,0.98475
278.282,18.48769,-0.35479,1.58165,0.98438
278.882,18.50583,-0.35868,1.57375,0.98402
279.482,18.52401,-0.36356,1.56569,0.98365
280.082,18.54214,-0.36728,1.55853,0.98328
280.682,18.5603,-0.37127,1.54677,0.98291
281.282,18.57845,-0.37569,1.53849,0.98255
281.882,18.59657,-0.37991,1.53233,0.98218
282.482,18.61469,-0.38398,1.52026,0.98181
283.082,18.63285,-0.38843,1.51402,0.98144
283.682,18.65097,-0.39322,1.50298,0.98107
284.282,18.66909,-0.39829,1.49143,0.9807
284.882,18.68722,-0.40294,1.48367,0.98032
285.482,18.70534,-0.40818,1.47714,0.97995
286.082,18.7235,-0.41244,1.46716,0.97958
286.682,18.7416,-0.41786,1.45741,0.97921
287.282,18.75978,-0.4218,1.44783,0.97883
287.882,18.7779,-0.42736,1.44058,0.97846
288.482,18.79607,-0.4322,1.43106,0.97808
289.082,18.8141,-0.43805,1.42129,0.97771
289.682,18.83221,-0.44301,1.41177,0.97733
290.282,18.85031,-0.44864,1.39888,0.97695
290.882,18.86846,-0.45495,1.38994,0.97658
291.482,18.88664,-0.46032,1.3799,0.9762
292.082,18.90486,-0.46727,1.36979,0.97582
292.682,18.92306,-0.47292,1.3592,0.97544
293.282,18.9413,-0.47997,1.34981,0.97506
293.882,18.95945,-0.48541,1.33549,0.97468
294.482,18.97757,-0.49245,1.32758,0.9743
295.082,18.9957,-0.49778,1.31496,0.97392
295.682,19.0138,-0.50381,1.30519,0.97354
296.282,19.03191,-0.50836,1.29687,0.97315
296.882,19.05005,-0.51423,1.28192,0.97277
297.482,19.0682,-0.52079,1.27272,0.97239
298.082,19.0863,-0.52749,1.26126,0.972
298.682,19.10441,-0.53541,1.24836,0.97162
299.282,19.12258,-0.54158,1.23836,0.97123
299.882,19.14068,-0.54924,1.22426,0.97085
300.482,19.15883,-0.55533,1.21558,0.97046
301.082,19.17701,-0.56351,1.20429,0.97008
301.682,19.19516,-0.56991,1.19096,0.96969
302.282,19.21327,-0.57848,1.17975,0.9693
302.882,19.2314,-0.58574,1.1637,0.96891
303.482,19.24953,-0.59286,1.15662,0.96852
304.082,19.2677,-0.60035,1.1444,0.96813
304.682,19.28582,-0.6073,1.13052,0.96774
305.282,19.30398,-0.6158,1.11959,0.96735
305.882,19.32215,-0.62299,1.11038,0.96696
306.482,19.3403,-0.63238,1.09987,0.96657
307.082,19.35843,-0.63924,1.0879,0.96618
307.682,19.37657,-0.64778,1.07428,0.96579
308.282,19.39473,-0.65426,1.06423,0.96539
308.882,19.41295,-0.66205,1.0519,0.965
309.482,19.43112,-0.66962,1.04069,0.96461
310.082,19.44931,-0.67761,1.0296,0.96421
310.682,19.4675,-0.68621,1.01795,0.96382
311.282,19.48561,-0.69341,1.00821,0.96342
311.882,19.50374,-0.70154,0.99604,0.96303
312.482,19.52189,-0.70899,0.98658,0.96263
313.082,19.54006,-0.71848,0.97739,0.96223
313.682,19.5582,-0.72573,0.96889,0.96183
314.282,19.57643,-0.7358,0.95889,0.96144
314.882,19.59457,-0.7434,0.95001,0.96104
315.482,19.6128,-0.7522,0.93781,0.96064
316.082,19.63094,-0.76061,0.93003,0.96024
316.682,19.64912,-0.76889,0.92177,0.95984
317.282,19.66732,-0.77727,0.91242,0.95944
317.882,19.68555,-0.78492,0.90376,0.95904
318.482,19.70375,-0.79474,0.89753,0.95864
319.082,19.722,-0.8028,0.88647,0.95823
319.682,19.74018,-0.81331,0.88074,0.95783
320.282,19.75835,-0.8211,0.8729,0.95743
320.882,19.77652,-0.8307,0.86378,0.95702
321.482,19.7947,-0.83828,0.85799,0.95662
322.082,19.81289,-0.84709,0.85119,0.95622
322.682,19.83108,-0.85534,0.84408,0.95581
323.282,19.8493,-0.86405,0.83883,0.95541
323.882,19.86756,-0.87326,0.83243,0.955
324.482,19.88578,-0.88155,0.82623,0.95459
325.082,19.90403,-0.89156,0.81869,0.95419
325.682,19.92225,-0.8994,0.81247,0.95378
326.282,19.94046,-0.90953,0.80782,0.95337
326.882,19.95865,-0.91731,0.80422,0.95296
327.482,19.97689,-0.92758,0.79935,0.95255
328.082,19.9951,-0.9361,0.79384,0.95214
328.682,20.01332,-0.94614,0.78999,0.95173
329.282,20.03154,-0.95505,0.78581,0.95132
329.882,20.04976,-0.96434,0.78196,0.95091
330.482,20.06794,-0.97403,0.77725,0.9505
331.082,20.08618,-0.98293,0.77444,0.95009
331.682,20.1044,-0.99319,0.77234,0.94968
332.282,20.12269,-1.00185,0.76975,0.94927
332.882,20.141,-1.01245,0.76803,0.94885
333.482,20.15925,-1.02038,0.76613,0.94844
334.082,20.17752,-1.03084,0.76327,0.94802
334.682,20.19581,-1.03959,0.76166,0.94761
335.282,20.21407,-1.05144,0.75836,0.9472
335.882,20.23228,-1.06088,0.75732,0.94678
336.482,20.25058,-1.07045,0.75787,0.94636
337.082,20.26889,-1.07935,0.75419,0.94595
337.682,20.2872,-1.08754,0.75485,0.94553
338.282,20.3055,-1.09741,0.75518,0.94511
338.882,20.32386,-1.10709,0.75186,0.9447
339.482,20.34218,-1.11998,0.75375,0.94428
340.082,20.36045,-1.1297,0.75328,0.94386
340.682,20.3787,-1.1415,0.75371,0.94344
341.282,20.39706,-1.15049,0.75871,0.94302
341.882,20.4154,-1.16104,0.75769,0.9426
342.482,20.43366,-1.17016,0.76077,0.94218
343.082,20.45205,-1.18138,0.76214,0.94176
343.682,20.47039,-1.1919,0.76362,0.94134
344.282,20.48872,-1.2012,0.76318,0.94092
344.882,20.50704,-1.21224,0.76945,0.9405
345.482,20.52542,-1.22208,0.76911,0.94007
346.082,20.54368,-1.23367,0.77347,0.93965
346.682,20.562,-1.243,0.77514,0.93923
347.282,20.5804,-1.25526,0.77925,0.9388
347.882,20.59874,-1.26513,0.78291,0.93838
348.482,20.61713,-1.27747,0.7847,0.93795
349.082,20.63555,-1.28767,0.78735,0.93753
349.682,20.65397,-1.29948,0.79291,0.9371
350.282,20.67239,-1.31053,0.79537,0.93668
350.882,20.69071,-1.32317,0.8014,0.93625
351.482,20.70911,-1.33509,0.80679,0.93582
352.082,20.7275,-1.34625,0.8074,0.9354
352.682,20.7459,-1.35906,0.81281,0.93497
353.282,20.76428,-1.36967,0.81791,0.93454
353.882,20.78279,-1.3822,0.8207,0.93411
354.482,20.8012,-1.39303,0.82621,0.93368
355.082,20.81958,-1.4071,0.82769,0.93325
355.682,20.83795,-1.41799,0.83476,0.93282
356.282,20.85641,-1.43151,0.83776,0.93239
356.882,20.87485,-1.44259,0.8426,0.93196
357.482,20.89333,-1.45578,0.84938,0.93153
358.082,20.91179,-1.46827,0.85505,0.9311
358.682,20.9303,-1.48169,0.85888,0.93067
359.282,20.9487,-1.49548,0.86505,0.93024
359.882,20.96719,-1.5086,0.87119,0.92981
360.482,20.98558,-1.52347,0.87638,0.92937
361.082,21.00404,-1.53548,0.88413,0.92894
361.682,21.02251,-1.55061,0.89135,0.92851
362.282,21.04095,-1.56276,0.89599,0.92807
362.882,21.0594,-1.57901,0.90385,0.92764
363.482,21.07797,-1.59184,0.90747,0.9272
364.082,21.0964,-1.60774,0.91367,0.92677
364.682,21.11486,-1.62068,0.92224,0.92633
365.282,21.13341,-1.63621,0.92854,0.92589
365.882,21.15188,-1.65031,0.93667,0.92546
366.482,21.1704,-1.6654,0.94477,0.92502
367.082,21.18893,-1.68098,0.94832,0.92458
367.682,21.20745,-1.69609,0.95668,0.92415
368.282,21.22598,-1.7142,0.96259,0.92371
368.882,21.24446,-1.72939,0.96968,0.92327
369.482,21.26291,-1.74652,0.97471,0.92283
370.082,21.28138,-1.75932,0.98231,0.92239
370.682,21.2999,-1.77627,0.98573,0.92195
371.282,21.3184,-1.79139,0.99159,0.92151
371.882,21.33697,-1.81152,0.99728,0.92107
372.482,21.35551,-1.82738,1.00293,0.92063
373.082,21.37407,-1.84563,1.01011,0.92019
373.682,21.39256,-1.86166,1.01404,0.91975
374.282,21.4111,-1.87937,1.01947,0.91931
374.882,21.42963,-1.89684,1.02218,0.91886
375.482,21.44817,-1.91372,1.0267,0.91842
376.082,21.46673,-1.93214,1.03136,0.91798
376.682,21.48525,-1.94854,1.03149,0.91754
377.282,21.50382,-1.96816,1.03296,0.91709
377.882,21.5223,-1.98411,1.03559,0.91665
378.482,21.54085,-2.00421,1.03634,0.9162
379.082,21.5594,-2.01952,1.03704,0.91576
379.682,21.578,-2.0395,1.0358,0.91531
380.282,21.59656,-2.05657,1.03546,0.91487
380.882,21.6152,-2.07615,1.03377,0.91442
381.482,21.6338,-2.09259,1.02997,0.91398
382.082,21.6524,-2.11109,1.02607,0.91353
382.682,21.67095,-2.12857,1.02266,0.91308
383.282,21.68955,-2.14649,1.01449,0.91264
383.882,21.7082,-2.16495,1.00927,0.91219
384.482,21.7268,-2.18118,0.99988,0.91174
385.082,21.74535,-2.19979,0.98728,0.91129
385.682,21.76398,-2.21524,0.97935,0.91084
386.282,21.78259,-2.23261,0.96688,0.91039
386.882,21.80125,-2.24663,0.95164,0.90995
387.482,21.8199,-2.26449,0.93553,0.9095
388.082,21.8385,-2.27859,0.91908,0.90905
388.682,21.8571,-2.29602,0.89858,0.9086
389.282,21.87575,-2.30995,0.88043,0.90814
389.882,21.89436,-2.32566,0.85976,0.90769
390.482,21.91296,-2.33898,0.83863,0.90724
391.082,21.93168,-2.35265,0.81836,0.90679
391.682,21.95032,-2.36522,0.78941,0.90634
392.282,21.96895,-2.3767,0.76904,0.90589
392.882,21.9876,-2.38893,0.7429,0.90543
393.482,22.00618,-2.40008,0.71753,0.90498
394.082,22.0247,-2.41261,0.69203,0.90453
394.682,22.0433,-2.42189,0.66827,0.90407
395.282,22.062,-2.4323,0.64215,0.90362
395.882,22.08064,-2.43982,0.61649,0.90316
396.482,22.0993,-2.44898,0.59523,0.90271
397.082,22.11795,-2.45557,0.57085,0.90225
397.682,22.13658,-2.46483,0.5459,0.9018
398.282,22.1552,-2.4709,0.52802,0.90134
398.882,22.17377,-2.47714,0.50683,0.90089
399.482,22.19245,-2.48248,0.48851,0.90043
400.082,22.21108,-2.48783,0.47067,0.89998
400.682,22.2298,-2.4929,0.45418,0.89952
401.282,22.24842,-2.49736,0.43841,0.89906
401.882,22.26701,-2.50166,0.42301,0.8986
402.482,22.28559,-2.50514,0.41061,0.89815
403.082,22.30426,-2.50896,0.39856,0.89769
403.682,22.32289,-2.51256,0.38659,0.89723
404.282,22.34158,-2.5152,0.3758,0.89677
404.882,22.3603,-2.51803,0.36582,0.89631
405.482,22.37905,-2.52106,0.35708,0.89585
406.082,22.39776,-2.52382,0.34751,0.89539
406.682,22.41643,-2.52651,0.33903,0.89493
407.282,22.4351,-2.52869,0.33171,0.89447
407.882,22.45378,-2.53143,0.32625,0.89401
408.482,22.47243,-2.53358,0.31899,0.89355
409.082,22.49109,-2.53511,0.31152,0.89309
409.682,22.50979,-2.53723,0.30684,0.89263
410.282,22.5285,-2.53957,0.29746,0.89217
410.882,22.54723,-2.5422,0.29423,0.8917
411.482,22.56599,-2.54419,0.28883,0.89124
412.082,22.58472,-2.5461,0.28467,0.89078
412.682,22.60343,-2.54775,0.27961,0.89032
413.282,22.6221,-2.54941,0.27353,0.88985
413.882,22.64087,-2.55163,0.27031,0.88939
414.482,22.6596,-2.55378,0.26799,0.88893
415.082,22.6784,-2.55562,0.26569,0.88846
415.682,22.6972,-2.55909,0.25917,0.888
416.282,22.71585,-2.56164,0.25743,0.88753
416.882,22.73463,-2.56373,0.25471,0.88707
417.482,22.7534,-2.56575,0.24741,0.8866
418.082,22.77218,-2.56739,0.24466,0.88614
418.682,22.791,-2.56905,0.24189,0.88567
419.282,22.80981,-2.57136,0.23906,0.8852
419.882,22.82858,-2.57341,0.23604,0.88474
420.482,22.84731,-2.57522,0.23203,0.88427
421.082,22.86606,-2.57674,0.2296,0.8838
421.682,22.88489,-2.57839,0.22824,0.88334
422.282,22.9037,-2.5801,0.22524,0.88287
422.882,22.9224,-2.58192,0.22119,0.8824
423.482,22.94122,-2.58329,0.21797,0.88193
424.082,22.96001,-2.58476,0.21671,0.88147
424.682,22.97875,-2.58683,0.21505,0.881
425.282,22.9975,-2.58857,0.21399,0.88053
425.882,23.01636,-2.59078,0.21272,0.88006
426.482,23.03516,-2.59321,0.21118,0.87959
427.082,23.05396,-2.59507,0.2082,0.87912
427.682,23.07275,-2.59599,0.20809,0.87865
428.282,23.09156,-2.59755,0.2073,0.87818
428.882,23.1103,-2.59982,0.20574,0.87771
429.482,23.1292,-2.60223,0.20503,0.87724
430.082,23.148,-2.60397,0.20456,0.87677
430.682,23.16689,-2.60567,0.20207,0.8763
431.282,23.18575,-2.60755,0.20331,0.87583
431.882,23.20456,-2.60961,0.20041,0.87536
432.482,23.22344,-2.61173,0.19907,0.87488
433.082,23.24231,-2.61354,0.19766,0.87441
433.682,23.26115,-2.61531,0.19896,0.87394
434.282,23.28005,-2.61712,0.20064,0.87347
434.882,23.29897,-2.61878,0.19963,0.87299
435.482,23.3178,-2.61997,0.19988,0.87252
436.082,23.33663,-2.62138,0.19874,0.87205
436.682,23.3555,-2.62295,0.20009,0.87157
437.282,23.37432,-2.6246,0.19783,0.8711
437.882,23.39316,-2.62646,0.19836,0.87063
438.482,23.41199,-2.62867,0.1989,0.87015
439.082,23.4309,-2.63103,0.20116,0.86968
439.682,23.44979,-2.63289,0.20096,0.8692
440.282,23.4687,-2.63463,0.20038,0.86873
440.882,23.48762,-2.63624,0.20009,0.86825
441.482,23.50654,-2.63779,0.20286,0.86778
442.082,23.52541,-2.63882,0.20492,0.8673
442.682,23.5443,-2.64062,0.20553,0.86683
443.282,23.56319,-2.64219,0.20688,0.86635
443.882,23.58212,-2.64401,0.2082,0.86587
444.482,23.601,-2.6458,0.20849,0.8654
445.082,23.62,-2.64772,0.21219,0.86492
445.682,23.63886,-2.64927,0.21166,0.86444
446.282,23.65778,-2.65039,0.21406,0.86397
446.882,23.67671,-2.65226,0.21487,0.86349
447.482,23.69565,-2.65394,0.21557,0.86301
448.082,23.71454,-2.65537,0.21886,0.86253
448.682,23.73351,-2.65722,0.21958,0.86205
449.282,23.7524,-2.65961,0.22037,0.86158
449.882,23.7713,-2.66088,0.2249,0.8611
450.482,23.7902,-2.66254,0.22688,0.86062
451.082,23.80914,-2.66374,0.23031,0.86014
451.682,23.82803,-2.66511,0.23171,0.85966
452.282,23.84694,-2.66666,0.23124,0.85918
452.882,23.86576,-2.6684,0.23356,0.8587
453.482,23.88472,-2.66987,0.23577,0.85822
454.082,23.9037,-2.67122,0.23708,0.85774
454.682,23.92266,-2.67293,0.23957,0.85726
455.282,23.9418,-2.67455,0.24216,0.85678
455.882,23.96086,-2.67607,0.24358,0.8563
456.482,23.97991,-2.67765,0.24858,0.85582
457.082,23.9988,-2.67932,0.24828,0.85534
457.682,24.01778,-2.6812,0.25094,0.85486
458.282,24.0367,-2.68259,0.25435,0.85437
458.882,24.05574,-2.68286,0.25511,0.85389
459.482,24.07476,-2.68423,0.25826,0.85341
460.082,24.09391,-2.68575,0.26014,0.85293
460.682,24.113,-2.68714,0.2621,0.85245
461.282,24.1321,-2.68842,0.2671,0.85196
461.882,24.15109,-2.68943,0.26828,0.85148
462.482,24.17012,-2.69193,0.26875,0.851
463.082,24.18917,-2.69393,0.27395,0.85052
463.682,24.20818,-2.69448,0.27474,0.85003
464.282,24.22723,-2.69567,0.27672,0.84955
464.882,24.24626,-2.69758,0.28054,0.84907
465.482,24.26531,-2.69907,0.28143,0.84858
466.082,24.28439,-2.70059,0.28323,0.8481
466.682,24.30343,-2.702,0.28574,0.84761
467.282,24.32251,-2.70338,0.28735,0.84713
467.882,24.3416,-2.70476,0.28928,0.84664
468.482,24.3607,-2.70651,0.29216,0.84616
469.082,24.37976,-2.70813,0.29517,0.84568
469.682,24.39883,-2.70879,0.29995,0.84519
470.282,24.41789,-2.7106,0.29739,0.8447
470.882,24.43694,-2.71192,0.30017,0.84422
471.482,24.45599,-2.7137,0.30382,0.84373
472.082,24.47508,-2.71339,0.30593,0.84325
472.682,24.49405,-2.71352,0.30788,0.84276
473.282,24.51314,-2.71512,0.30761,0.84228
473.882,24.53229,-2.71598,0.3118,0.84179
474.482,24.5514,-2.71741,0.31223,0.8413
475.082,24.5705,-2.71979,0.31329,0.84082
475.682,24.58972,-2.72008,0.31765,0.84033
476.282,24.6088,-2.72135,0.31864,0.83984
476.882,24.62789,-2.72287,0.31966,0.83936
477.482,24.64697,-2.72403,0.31892,0.83887
478.082,24.66607,-2.72551,0.32343,0.83838
478.682,24.68512,-2.72658,0.3234,0.83789
479.282,24.70422,-2.72691,0.32809,0.83741
479.882,24.72331,-2.72734,0.32924,0.83692
480.482,24.7424,-2.72897,0.33009,0.83643
481.082,24.7616,-2.72995,0.33096,0.83594
481.682,24.78077,-2.73237,0.33278,0.83545
482.282,24.79992,-2.7336,0.33352,0.83496
482.882,24.81907,-2.73496,0.33373,0.83448
483.482,24.8383,-2.73477,0.33654,0.83399
484.082,24.85739,-2.73523,0.33873,0.8335
484.682,24.87656,-2.73673,0.3377,0.83301
485.282,24.89575,-2.73783,0.33937,0.83252
485.882,24.91497,-2.73968,0.33993,0.83203
486.482,24.9342,-2.74183,0.34181,0.83154
487.082,24.95337,-2.74319,0.34367,0.83105
487.682,24.9726,-2.74346,0.34487,0.83056
488.282,24.9917,-2.74484,0.34451,0.83007
488.882,25.0108,-2.74485,0.34727,0.82958
489.482,25.02996,-2.74611,0.34954,0.82909
490.082,25.0491,-2.7472,0.34731,0.8286
490.682,25.06822,-2.74779,0.35074,0.82811
491.282,25.08745,-2.74945,0.35132,0.82762
491.882,25.10662,-2.74822,0.35093,0.82713
492.482,25.12582,-2.74959,0.35379,0.82664
493.082,25.14506,-2.75054,0.35208,0.82614
493.682,25.1643,-2.75114,0.3519,0.82565
494.282,25.1834,-2.75292,0.35524,0.82516
494.882,25.20265,-2.75344,0.35588,0.82467
495.482,25.22185,-2.75431,0.35788,0.82418
496.082,25.2409,-2.75591,0.35518,0.82369
496.682,25.26002,-2.75619,0.35927,0.82319
497.282,25.27931,-2.75824,0.3577,0.8227
497.882,25.2985,-2.75964,0.35905,0.82221
498.482,25.31762,-2.76016,0.36045,0.82172
499.082,25.33698,-2.76189,0.3614,0.82123
499.682,25.35618,-2.76262,0.36287,0.82073
500.282,25.37535,-2.76351,0.36147,0.82024
500.882,25.3946,-2.76458,0.36266,0.81975
501.482,25.41379,-2.76502,0.36449,0.81925
502.082,25.433,-2.76637,0.3647,0.81876
502.682,25.45228,-2.76648,0.36486,0.81827
503.282,25.47157,-2.76782,0.3668,0.81777
503.882,25.49085,-2.76856,0.36603,0.81728
504.482,25.51013,-2.76936,0.36707,0.81679
505.082,25.52939,-2.76964,0.36696,0.81629
505.682,25.5486,-2.77073,0.37009,0.8158
506.282,25.56778,-2.77166,0.36639,0.81531
506.882,25.5869,-2.7711,0.36751,0.81481
507.482,25.60606,-2.77221,0.37025,0.81432
508.082,25.62527,-2.77249,0.36883,0.81382
508.682,25.64455,-2.77387,0.36923,0.81333
509.282,25.6639,-2.7743,0.36871,0.81283
509.882,25.6832,-2.77664,0.36852,0.81234
510.482,25.70253,-2.77752,0.37092,0.81184
511.082,25.72189,-2.77808,0.37157,0.81135
511.682,25.7411,-2.77921,0.37175,0.81086
512.282,25.76037,-2.77946,0.37132,0.81036
512.882,25.77949,-2.78086,0.37196,0.80986
513.482,25.7988,-2.78082,0.37201,0.80937
514.082,25.8181,-2.78219,0.37449,0.80887
514.682,25.83737,-2.78269,0.37475,0.80838
515.282,25.8567,-2.78383,0.37469,0.80788
515.882,25.87614,-2.78523,0.37664,0.80739
516.482,25.89542,-2.78552,0.37683,0.80689
517.082,25.9147,-2.78715,0.37356,0.8064
517.682,25.93402,-2.78723,0.37585,0.8059
518.282,25.95329,-2.78838,0.37597,0.8054
518.882,25.97264,-2.78892,0.3806,0.80491
519.482,25.99193,-2.7896,0.37836,0.80441
520.082,26.01129,-2.79075,0.37813,0.80392
520.682,26.03059,-2.79111,0.37798,0.80342
521.282,26.0499,-2.7925,0.37768,0.80292
521.882,26.06916,-2.79308,0.37771,0.80243
522.482,26.08846,-2.79403,0.37736,0.80193
523.082,26.10771,-2.79544,0.37672,0.80143
523.682,26.127,-2.79569,0.37611,0.80094
524.282,26.14636,-2.79707,0.37819,0.80044
524.882,26.1657,-2.79691,0.3774,0.79994
525.482,26.185,-2.79831,0.37477,0.79944
526.082,26.20437,-2.79846,0.37452,0.79895
526.682,26.2236,-2.79997,0.37394,0.79845
527.282,26.2429,-2.79998,0.37488,0.79795
527.882,26.26228,-2.80134,0.37119,0.79746
528.482,26.2816,-2.80135,0.37269,0.79696
529.082,26.30102,-2.80262,0.37327,0.79646
529.682,26.3204,-2.80261,0.3736,0.79596
530.282,26.3398,-2.80402,0.37211,0.79547
530.882,26.35919,-2.8046,0.37161,0.79497
531.482,26.3786,-2.80555,0.37493,0.79447
532.082,26.3979,-2.80679,0.37222,0.79397
532.682,26.4172,-2.80686,0.3747,0.79347
533.282,26.4365,-2.8069,0.36939,0.79298
533.882,26.4558,-2.80742,0.37214,0.79248
534.482,26.4751,-2.8082,0.37061,0.79198
535.082,26.4945,-2.80908,0.37031,0.79148
535.682,26.51398,-2.80961,0.37135,0.79098
536.282,26.53342,-2.81095,0.3708,0.79048
536.882,26.5528,-2.81112,0.37107,0.78999
537.482,26.57217,-2.81199,0.37352,0.78949
538.082,26.5915,-2.81246,0.37224,0.78899
538.682,26.6109,-2.81246,0.37316,0.78849
539.282,26.63024,-2.81314,0.37463,0.78799
539.882,26.6497,-2.81378,0.37161,0.78749
540.482,26.66913,-2.81525,0.3735,0.78699
541.082,26.68848,-2.81525,0.37542,0.78649
541.682,26.7078,-2.8167,0.37406,0.786
542.282,26.7272,-2.81673,0.37291,0.7855
542.882,26.7466,-2.81664,0.37859,0.785
543.482,26.76605,-2.81801,0.37433,0.7845
544.082,26.7855,-2.81797,0.37476,0.784
544.682,26.80495,-2.81937,0.37963,0.7835
545.282,26.82436,-2.81951,0.3769,0.783
545.882,26.8438,-2.82116,0.37778,0.7825
546.482,26.8632,-2.82129,0.37759,0.782
547.082,26.88265,-2.82234,0.38027,0.7815
547.682,26.9021,-2.82287,0.37795,0.781
548.282,26.9215,-2.82363,0.38123,0.7805
548.882,26.94094,-2.82364,0.37996,0.78
549.482,26.9604,-2.82434,0.38111,0.7795
550.082,26.97982,-2.82497,0.38336,0.779
550.682,26.9993,-2.82497,0.38385,0.77851
551.282,27.0189,-2.82631,0.38296,0.77801
551.882,27.03833,-2.82639,0.3852,0.77751
552.482,27.05785,-2.82764,0.38275,0.77701
553.082,27.07733,-2.8278,0.38223,0.77651
553.682,27.0968,-2.82887,0.38506,0.77601
554.282,27.1162,-2.82923,0.38417,0.77551
554.882,27.1356,-2.83054,0.38453,0.77501
555.482,27.1551,-2.83048,0.38975,0.77451
556.082,27.17448,-2.83069,0.38867,0.77401
556.682,27.19395,-2.83182,0.38701,0.77351
557.282,27.2134,-2.83181,0.38827,0.77301
557.882,27.2328,-2.83155,0.39228,0.77251
558.482,27.2523,-2.83244,0.38919,0.77201
559.082,27.2718,-2.83244,0.38881,0.7715
559.682,27.29131,-2.83381,0.38834,0.771
560.282,27.31087,-2.83374,0.38921,0.7705
560.882,27.33036,-2.83476,0.39155,0.77
561.482,27.3499,-2.83517,0.39057,0.7695
562.082,27.3694,-2.83656,0.39315,0.769
562.682,27.38894,-2.83661,0.38785,0.7685
563.282,27.4085,-2.83745,0.39216,0.768
563.882,27.42806,-2.83791,0.3913,0.7675
564.482,27.44762,-2.83922,0.39202,0.767
565.082,27.4672,-2.83956,0.39172,0.7665
565.682,27.48678,-2.84106,0.39344,0.766
566.282,27.50634,-2.8409,0.39571,0.7655
566.882,27.5258,-2.84225,0.39345,0.765
567.482,27.5454,-2.84229,0.39625,0.7645
568.082,27.56492,-2.84221,0.39378,0.764
568.682,27.58445,-2.84354,0.3959,0.7635
569.282,27.60404,-2.84362,0.39364,0.763
569.882,27.6236,-2.84363,0.39552,0.7625
570.482,27.64315,-2.84376,0.39537,0.76199
571.082,27.6627,-2.84499,0.3954,0.76149
571.682,27.6823,-2.8451,0.39778,0.76099
572.282,27.7019,-2.84637,0.39724,0.76049
572.882,27.7215,-2.84683,0.39745,0.75999
573.482,27.7411,-2.84767,0.4024,0.75949
574.082,27.7607,-2.84768,0.39813,0.75899
574.682,27.78032,-2.84901,0.398,0.75849
575.282,27.79985,-2.84899,0.39907,0.75799
575.882,27.81942,-2.84993,0.40104,0.75749
576.482,27.83902,-2.85044,0.40058,0.75699
577.082,27.85864,-2.85128,0.40333,0.75649
577.682,27.87838,-2.85174,0.39933,0.75599
578.282,27.898,-2.85175,0.40326,0.75548
578.882,27.91777,-2.85221,0.40189,0.75498
579.482,27.93737,-2.85308,0.40242,0.75448
580.082,27.95695,-2.85308,0.40018,0.75398
580.682,27.9765,-2.85369,0.40396,0.75348
581.282,27.9962,-2.85438,0.40602,0.75298
581.882,28.0157,-2.85437,0.40443,0.75248
582.482,28.0354,-2.85438,0.40619,0.75198
583.082,28.0551,-2.85464,0.40416,0.75148
583.682,28.0748,-2.85573,0.40521,0.75098
584.282,28.0944,-2.85573,0.40536,0.75048
584.882,28.11409,-2.85709,0.40576,0.74997
585.482,28.13368,-2.85694,0.40864,0.74947
586.082,28.15328,-2.85823,0.40727,0.74897
586.682,28.17288,-2.85845,0.4066,0.74847
587.282,28.1925,-2.85983,0.41084,0.74797
587.882,28.21218,-2.85975,0.40595,0.74747
588.482,28.2318,-2.85975,0.40728,0.74697
589.082,28.25143,-2.86112,0.40423,0.74647
589.682,28.2711,-2.86107,0.40281,0.74597
590.282,28.2907,-2.86252,0.40539,0.74547
590.882,28.31043,-2.86248,0.40628,0.74497
591.482,28.3301,-2.86315,0.40862,0.74447
592.082,28.34972,-2.8638,0.40676,0.74396
592.682,28.3694,-2.86377,0.40703,0.74346
593.282,28.38905,-2.86512,0.40461,0.74296
593.882,28.4087,-2.86512,0.40382,0.74246
594.482,28.42835,-2.86514,0.40433,0.74196
595.082,28.448,-2.86591,0.40425,0.74146
595.682,28.46765,-2.86643,0.40443,0.74096
596.282,28.4875,-2.86643,0.4008,0.74046
596.882,28.5073,-2.86644,0.40243,0.73996
597.482,28.527,-2.86684,0.40048,0.73946
598.082,28.54679,-2.86778,0.40039,0.73896
598.682,28.5664,-2.86777,0.39827,0.73846
599.282,28.5861,-2.8681,0.39896,0.73796
599.882,28.60582,-2.86911,0.39624,0.73746
600.482,28.62552,-2.86907,0.39915,0.73695
601.082,28.64517,-2.86905,0.39869,0.73645
601.682,28.66488,-2.86958,0.39483,0.73595
602.282,28.6846,-2.86971,0.39523,0.73545
602.882,28.7044,-2.86968,0.39503,0.73495
603.482,28.72403,-2.87071,0.39362,0.73445
604.082,28.7438,-2.87103,0.39289,0.73395
604.682,28.76345,-2.87105,0.39267,0.73345
605.282,28.7832,-2.87119,0.39134,0.73295
605.882,28.80293,-2.8724,0.38757,0.73245
606.482,28.82269,-2.87237,0.39172,0.73195
607.082,28.8424,-2.87254,0.39056,0.73145
607.682,28.8621,-2.87368,0.39089,0.73095
608.282,28.8818,-2.87368,0.39324,0.73045
608.882,28.9014,-2.87517,0.39098,0.72995
609.482,28.921,-2.87509,0.39152,0.72945
610.082,28.9407,-2.87581,0.38564,0.72895
610.682,28.96037,-2.87641,0.38629,0.72845
611.282,28.9802,-2.87641,0.38465,0.72795
611.882,28.99992,-2.87641,0.37962,0.72745
612.482,29.01962,-2.87772,0.37951,0.72695
613.082,29.03936,-2.87774,0.38496,0.72645
613.682,29.05902,-2.87863,0.3787,0.72595
614.282,29.07872,-2.87905,0.37864,0.72545
614.882,29.0985,-2.87907,0.37626,0.72495
615.482,29.1182,-2.87987,0.37758,0.72445
616.082,29.1379,-2.88064,0.37393,0.72395
616.682,29.1576,-2.88083,0.37577,0.72345
617.282,29.17728,-2.88263,0.37437,0.72295
617.882,29.19698,-2.88302,0.3724,0.72245
618.482,29.21668,-2.88303,0.37349,0.72195
619.082,29.2364,-2.88361,0.37082,0.72145
619.682,29.2561,-2.88432,0.36962,0.72095
620.282,29.2759,-2.88431,0.36886,0.72045
620.882,29.29563,-2.8843,0.36545,0.71995
621.482,29.31536,-2.88422,0.36906,0.71945
622.082,29.3351,-2.88557,0.36348,0.71896
622.682,29.3548,-2.88562,0.3617,0.71846
623.282,29.37453,-2.88554,0.36306,0.71796
623.882,29.39426,-2.88684,0.36108,0.71746
624.482,29.4139,-2.88666,0.36092,0.71696
625.082,29.43368,-2.88726,0.36214,0.71646
625.682,29.45337,-2.88758,0.36001,0.71596
626.282,29.4731,-2.88754,0.36019,0.71546
626.882,29.4928,-2.88877,0.35883,0.71496
627.482,29.51248,-2.88892,0.35729,0.71446
628.082,29.53217,-2.88892,0.35672,0.71396
628.682,29.55187,-2.88943,0.35685,0.71347
629.282,29.57163,-2.89022,0.35788,0.71297
629.882,29.59135,-2.8916,0.35679,0.71247
630.482,29.61112,-2.89155,0.35704,0.71197
631.082,29.63083,-2.89157,0.35761,0.71147
631.682,29.6506,-2.89288,0.35629,0.71097
632.282,29.67033,-2.89286,0.35627,0.71047
632.882,29.69006,-2.89353,0.35729,0.70998
633.482,29.7098,-2.89289,0.35808,0.70948
634.082,29.7295,-2.89287,0.35758,0.70898
634.682,29.74907,-2.89412,0.3588,0.70848
635.282,29.76875,-2.89418,0.35798,0.70798
635.882,29.7885,-2.8942,0.35505,0.70749
636.482,29.80828,-2.89524,0.35314,0.70699
637.082,29.82814,-2.89651,0.35482,0.70649
637.682,29.8481,-2.89645,0.35555,0.70599
638.282,29.8679,-2.89772,0.35266,0.70549
638.882,29.88768,-2.89781,0.35493,0.705
639.482,29.90747,-2.89797,0.35267,0.7045
640.082,29.9272,-2.89917,0.35497,0.704
640.682,29.947,-2.89913,0.35186,0.7035
641.282,29.9668,-2.89915,0.35448,0.70301
641.882,29.98654,-2.89976,0.34901,0.70251
642.482,30.0062,-2.90054,0.35029,0.70201
643.082,30.02598,-2.89916,0.34912,0.70151
643.682,30.04577,-2.89912,0.34819,0.70102
644.282,30.0655,-2.8992,0.35107,0.70052
644.882,30.0853,-2.90052,0.34786,0.70002
645.482,30.10509,-2.90044,0.35008,0.69952
646.082,30.12493,-2.90043,0.34776,0.69903
646.682,30.14466,-2.90049,0.34528,0.69853
647.282,30.1645,-2.90184,0.3429,0.69803
647.882,30.18429,-2.90171,0.34692,0.69754
648.482,30.20406,-2.90274,0.34315,0.69704
649.082,30.22383,-2.90306,0.34261,0.69654
649.682,30.2436,-2.90309,0.34027,0.69605
650.282,30.2634,-2.90339,0.34076,0.69555
650.882,30.2832,-2.9058,0.34291,0.69505
651.482,30.30305,-2.90571,0.33909,0.69456
652.082,30.32283,-2.9057,0.34091,0.69406
652.682,30.34269,-2.90565,0.33737,0.69357
653.282,30.3625,-2.90684,0.33664,0.69307
653.882,30.3823,-2.90549,0.33484,0.69257
654.482,30.40215,-2.90558,0.33588,0.69208
655.082,30.422,-2.90611,0.33549,0.69158
655.682,30.4418,-2.90689,0.33293,0.69109
656.282,30.4616,-2.90691,0.33427,0.69059
656.882,30.4815,-2.90738,0.33638,0.6901
657.482,30.50129,-2.9082,0.33543,0.6896
658.082,30.5211,-2.90822,0.33844,0.6891
658.682,30.54093,-2.90822,0.33382,0.68861
659.282,30.5607,-2.90821,0.33386,0.68811
659.882,30.58053,-2.90892,0.33513,0.68762
660.482,30.60036,-2.90954,0.33261,0.68712
661.082,30.6202,-2.90954,0.33106,0.68663
661.682,30.64007,-2.9092,0.33329,0.68613
662.282,30.65992,-2.90887,0.32876,0.68564
662.882,30.6798,-2.90953,0.33326,0.68514
663.482,30.69967,-2.91016,0.33175,0.68465
664.082,30.7195,-2.91108,0.33129,0.68416
664.682,30.7394,-2.91107,0.33253,0.68366
665.282,30.7592,-2.91108,0.33021,0.68317
665.882,30.779,-2.91197,0.328,0.68267
666.482,30.7989,-2.91239,0.32712,0.68218
667.082,30.81871,-2.91239,0.32921,0.68168
667.682,30.83857,-2.91262,0.32759,0.68119
668.282,30.8584,-2.91374,0.32806,0.6807
668.882,30.87833,-2.91422,0.32524,0.6802
669.482,30.8982,-2.91504,0.32261,0.67971
670.082,30.9181,-2.91502,0.32501,0.67921
670.682,30.938,-2.91502,0.32583,0.67872
671.282,30.95787,-2.91501,0.32745,0.67823
671.882,30.9777,-2.91494,0.3248,0.67773
672.482,30.9974,-2.91632,0.31903,0.67724
673.082,31.01724,-2.91634,0.32399,0.67675
673.682,31.037,-2.91623,0.32219,0.67625
674.282,31.0569,-2.91564,0.32008,0.67576
674.882,31.0769,-2.91634,0.32197,0.67527
675.482,31.09692,-2.91637,0.31967,0.67478
676.082,31.11686,-2.91701,0.3183,0.67428
676.682,31.1369,-2.91765,0.31637,0.67379
677.282,31.1568,-2.91765,0.31828,0.6733
677.882,31.1766,-2.91764,0.31891,0.67281
678.482,31.1966,-2.91868,0.31617,0.67231
679.082,31.2165,-2.91895,0.31564,0.67182
679.682,31.2364,-2.91897,0.31343,0.67133
680.282,31.25633,-2.91898,0.31573,0.67084
680.882,31.27627,-2.91933,0.314,0.67035
681.482,31.29617,-2.92032,0.31234,0.66985
682.082,31.31605,-2.92028,0.31106,0.66936
682.682,31.336,-2.92028,0.31078,0.66887
683.282,31.3559,-2.92027,0.3111,0.66838
683.882,31.3758,-2.92123,0.3117,0.66789
684.482,31.3957,-2.92158,0.30904,0.6674
685.082,31.4157,-2.9216,0.3064,0.66691
685.682,31.4356,-2.92168,0.30825,0.66641
686.282,31.45552,-2.923,0.3071,0.66592
686.882,31.4754,-2.92293,0.30336,0.66543
687.482,31.4953,-2.92291,0.30398,0.66494
688.082,31.5152,-2.92283,0.3046,0.66445
688.682,31.5351,-2.92417,0.30256,0.66396
689.282,31.55501,-2.92337,0.30341,0.66347
689.882,31.57498,-2.92294,0.30526,0.66298
690.482,31.59494,-2.92292,0.3034,0.66249
691.082,31.6149,-2.92283,0.30494,0.662
691.682,31.6349,-2.92417,0.30313,0.66151
692.282,31.65482,-2.92424,0.30005,0.66102
692.882,31.67475,-2.92424,0.29857,0.66053
693.482,31.6947,-2.92426,0.30366,0.66004
694.082,31.7146,-2.92466,0.30079,0.65955
694.682,31.7345,-2.92557,0.30152,0.65906
695.282,31.75442,-2.92556,0.29937,0.65857
695.882,31.77435,-2.92556,0.29541,0.65808
696.482,31.7943,-2.92552,0.29427,0.65759
697.082,31.81427,-2.92655,0.2924,0.65711
697.682,31.8342,-2.92686,0.29358,0.65662
698.282,31.85418,-2.92687,0.29241,0.65613
698.882,31.87412,-2.92687,0.29363,0.65564
699.482,31.8941,-2.92686,0.29112,0.65515
700.082,31.91396,-2.92761,0.29197,0.65466
700.682,31.9339,-2.92816,0.28971,0.65417
701.282,31.9539,-2.92819,0.28772,0.65369
701.882,31.9738,-2.92819,0.28881,0.6532
702.482,31.9938,-2.92821,0.28883,0.65271
703.082,32.01378,-2.92851,0.28568,0.65222
703.682,32.0337,-2.92951,0.28084,0.65173
704.282,32.05364,-2.9295,0.28306,0.65125
704.882,32.0736,-2.9295,0.28441,0.65076
705.482,32.09359,-2.92952,0.28086,0.65027
706.082,32.11359,-2.92981,0.2826,0.64979
706.682,32.1336,-2.93086,0.27948,0.6493
707.282,32.15359,-2.92987,0.27753,0.64881
707.882,32.17354,-2.92951,0.27745,0.64832
708.482,32.1935,-2.9295,0.27896,0.64784
709.082,32.21346,-2.9295,0.2781,0.64735
709.682,32.23345,-2.92953,0.27727,0.64686
710.282,32.25343,-2.93092,0.27523,0.64638
710.882,32.27345,-2.93084,0.27191,0.64589
711.482,32.29351,-2.93098,0.27362,0.64541
712.082,32.31351,-2.93216,0.26918,0.64492
712.682,32.3335,-2.9325,0.26705,0.64443
713.282,32.35347,-2.93246,0.268,0.64395
713.882,32.37344,-2.93248,0.26977,0.64346
714.482,32.39342,-2.93275,0.26673,0.64298
715.082,32.41343,-2.93379,0.26487,0.64249
715.682,32.43345,-2.93378,0.26373,0.64201
716.282,32.45344,-2.93378,0.26488,0.64152
716.882,32.4734,-2.93378,0.26358,0.64104
717.482,32.49337,-2.93379,0.26458,0.64055
718.082,32.5134,-2.93394,0.2617,0.64007
718.682,32.53342,-2.93514,0.25801,0.63958
719.282,32.55345,-2.93509,0.25726,0.6391
719.882,32.57353,-2.93509,0.2563,0.63861
720.482,32.59356,-2.93509,0.25653,0.63813
721.082,32.61359,-2.93509,0.25526,0.63765
721.682,32.63364,-2.93579,0.25507,0.63716
722.282,32.6537,-2.93638,0.25656,0.63668
722.882,32.67372,-2.93641,0.25663,0.63619
723.482,32.69379,-2.93643,0.25316,0.63571
724.082,32.71382,-2.93674,0.25193,0.63523
724.682,32.73381,-2.93774,0.25059,0.63474
725.282,32.75379,-2.93773,0.25224,0.63426
725.882,32.7738,-2.93773,0.2522,0.63378
726.482,32.7938,-2.93775,0.25129,0.6333
727.082,32.81384,-2.93806,0.2505,0.63281
727.682,32.8339,-2.93905,0.24705,0.63233
728.282,32.854,-2.93904,0.2448,0.63185
728.882,32.87402,-2.939,0.25046,0.63137
729.482,32.8941,-2.93767,0.24078,0.63088
730.082,32.9141,-2.93913,0.24133,0.6304
730.682,32.93419,-2.93904,0.24366,0.62992
731.282,32.95428,-2.939,0.24337,0.62944
731.882,32.97432,-2.94005,0.23946,0.62896
732.482,32.99438,-2.94035,0.24066,0.62847
733.082,33.01449,-2.94036,0.23856,0.62799
733.682,33.03452,-2.94036,0.24017,0.62751
734.282,33.05461,-2.94036,0.23653,0.62703
734.882,33.07464,-2.9403,0.23586,0.62655
735.482,33.0947,-2.93898,0.23562,0.62607
736.082,33.11476,-2.93947,0.23241,0.62559
736.682,33.13483,-2.94037,0.23332,0.62511
737.282,33.1549,-2.94037,0.23301,0.62463
737.882,33.17505,-2.94063,0.23321,0.62415
738.482,33.19515,-2.94173,0.23661,0.62367
739.082,33.2152,-2.94168,0.23243,0.62319
739.682,33.23538,-2.94168,0.23413,0.62271
740.282,33.25547,-2.94168,0.23459,0.62223
740.882,33.27557,-2.94271,0.22921,0.62175
741.482,33.29607,-2.944,0.23133,0.62127
742.082,33.31666,-2.94394,0.23246,0.62079
742.582,33.3328,-2.94431,0.2282,0.62039