File: 01_Data/OSB/MCC/OSB_MCC_30K_min_210308_R3.txt
Sample ID:	C:\MCC\MCC Cal\Test\OSB_30_3.txt
Sample Weight (mg):	4.19
Heating Rate (C/s):	0.5
Combustor Temp (C):	900
N2 Flow Rate (cc/min):	80
O2 Flow Rate (cc/min):	20
Calibration File:	C:\MCC\MCC Cal\Coeff1 JN10440_30_210304.txt.txt
T Correction Coefficients:	0	1.024463	0
Time Shift (s):	14
*
Time (s)	Temperature (C)	N2 flow rate (cc/min)	O2 flow rate (cc/min)	Flow Rate (cc/min)	Oxygen (%)	HRR (W/g)	Heating rate (C/s)
0.000	106.168	80.013	19.992	99.715	20.665	-0.157	0.000
1.500	106.168	80.011	19.994	99.714	20.666	-0.169	0.010
3.000	106.203	80.012	19.993	99.713	20.666	-0.165	0.037
4.500	106.182	80.012	19.993	99.715	20.664	-0.055	-0.021
6.000	106.157	80.013	19.994	99.715	20.663	0.026	-0.039
7.500	106.195	80.013	19.993	99.714	20.662	0.079	0.026
9.000	106.178	80.012	19.993	99.715	20.662	0.094	-0.006
10.501	106.178	80.011	19.994	99.715	20.664	-0.033	-0.011
12.000	106.174	80.009	19.993	99.713	20.663	-0.004	-0.005
13.500	106.169	80.011	19.993	99.714	20.664	-0.039	0.009
15.000	106.158	80.002	19.994	99.715	20.659	0.334	-0.007
16.500	106.156	79.999	19.995	99.737	20.661	0.163	0.016
18.000	106.186	80.004	19.993	99.756	20.662	0.102	0.013
19.500	106.168	79.995	19.993	99.779	20.660	0.267	-0.018
21.000	106.209	80.003	19.993	99.816	20.653	0.778	0.007
22.500	106.243	80.004	19.993	99.844	20.645	1.341	0.016
24.000	106.258	80.009	19.994	99.852	20.644	1.465	0.015
25.500	106.312	80.008	19.993	99.884	20.638	1.908	0.018
27.000	106.441	80.010	19.994	99.911	20.636	2.024	0.101
28.500	106.516	80.011	19.993	99.918	20.631	2.384	0.056
30.000	106.643	80.011	19.992	99.918	20.632	2.303	0.086
31.500	106.809	80.011	19.993	99.920	20.626	2.805	0.098
33.001	106.944	80.005	19.992	99.938	20.626	2.775	0.089
34.500	107.168	80.006	19.993	99.948	20.619	3.266	0.133
36.000	107.400	80.004	19.993	99.956	20.617	3.417	0.142
37.500	107.611	80.008	19.992	99.954	20.616	3.531	0.136
39.000	107.832	80.003	19.993	99.950	20.613	3.747	0.159
40.501	108.114	80.011	19.993	99.960	20.612	3.845	0.169
42.000	108.443	80.011	19.992	99.982	20.612	3.831	0.222
43.500	108.745	80.008	19.993	99.991	20.613	3.762	0.177
45.000	109.057	80.011	19.991	99.991	20.610	3.951	0.209
46.500	109.419	80.012	19.991	99.992	20.602	4.554	0.243
48.000	109.753	80.011	19.992	99.992	20.606	4.285	0.235
49.500	110.124	80.012	19.991	99.992	20.604	4.395	0.227
51.001	110.431	80.012	19.992	99.993	20.601	4.668	0.219
52.500	110.881	80.013	19.993	99.994	20.603	4.523	0.292
54.001	111.333	80.013	19.991	100.007	20.607	4.164	0.310
55.500	111.736	80.011	19.991	100.007	20.602	4.551	0.264
57.000	112.189	80.014	19.992	100.010	20.603	4.468	0.305
58.500	112.704	80.016	19.993	100.020	20.601	4.650	0.327
60.000	113.135	80.015	19.992	100.023	20.602	4.578	0.270
61.500	113.612	80.015	19.992	100.023	20.600	4.697	0.319
63.000	114.126	80.015	19.993	100.022	20.599	4.776	0.351
64.501	114.640	80.013	19.992	100.025	20.601	4.674	0.338
66.000	115.198	80.014	19.993	100.014	20.602	4.578	0.395
67.500	115.776	80.014	19.994	100.015	20.601	4.676	0.354
69.000	116.361	80.013	19.992	100.025	20.603	4.511	0.378
70.500	116.937	80.012	19.992	100.021	20.601	4.641	0.378
72.000	117.480	80.012	19.993	100.023	20.603	4.458	0.359
73.500	118.079	80.012	19.993	100.025	20.602	4.581	0.413
75.000	118.694	80.012	19.992	100.025	20.603	4.528	0.411
76.501	119.265	80.013	19.993	100.015	20.601	4.662	0.391
78.000	119.883	80.013	19.992	100.023	20.598	4.893	0.409
79.500	120.559	80.012	19.991	100.025	20.600	4.693	0.438
81.000	121.178	80.013	19.992	100.017	20.596	4.978	0.395
82.501	121.851	80.013	19.992	100.020	20.597	4.954	0.421
84.001	122.483	80.013	19.993	100.028	20.598	4.852	0.415
85.500	123.167	80.013	19.994	100.029	20.598	4.838	0.458
87.000	123.812	80.014	19.992	100.029	20.595	5.096	0.431
88.500	124.501	80.013	19.993	100.030	20.594	5.137	0.458
90.000	125.171	80.013	19.993	100.030	20.594	5.135	0.440
91.501	125.845	80.012	19.993	100.027	20.596	5.040	0.449
93.000	126.544	80.013	19.994	100.028	20.592	5.343	0.454
94.500	127.212	80.013	19.996	100.029	20.595	5.074	0.461
96.001	127.921	80.013	19.993	100.031	20.594	5.152	0.450
97.501	128.641	80.011	19.993	100.028	20.597	4.929	0.481
99.000	129.347	80.012	19.993	100.019	20.595	5.084	0.469
100.501	130.084	80.013	19.994	100.025	20.596	5.044	0.458
102.000	130.771	80.012	19.995	100.031	20.594	5.190	0.460
103.500	131.481	80.012	19.994	100.016	20.597	4.958	0.471
105.001	132.221	80.012	19.994	100.014	20.596	5.023	0.496
106.501	132.971	80.010	19.994	100.027	20.595	5.072	0.494
108.000	133.649	80.012	19.992	100.030	20.599	4.809	0.459
109.500	134.428	80.013	19.994	100.030	20.598	4.897	0.522
111.000	135.211	80.011	19.993	100.029	20.598	4.896	0.534
112.501	135.960	80.013	19.992	100.030	20.596	5.033	0.496
114.001	136.679	80.013	19.994	100.027	20.597	4.969	0.493
115.500	137.451	80.013	19.994	100.025	20.597	4.922	0.500
117.000	138.232	80.012	19.994	100.023	20.597	4.965	0.527
118.500	138.993	80.014	19.994	100.022	20.596	5.025	0.496
120.000	139.758	80.013	19.996	100.025	20.597	4.933	0.522
121.500	140.533	80.014	19.995	100.021	20.600	4.729	0.518
123.000	141.294	80.014	19.994	100.018	20.600	4.694	0.493
124.500	142.077	80.013	19.994	100.020	20.597	4.971	0.534
126.000	142.866	80.013	19.994	100.001	20.598	4.834	0.532
127.500	143.660	80.013	19.994	100.004	20.600	4.750	0.545
129.000	144.413	80.013	19.992	100.015	20.594	5.130	0.498
130.500	145.209	80.013	19.993	100.017	20.593	5.256	0.508
132.000	145.984	80.013	19.993	100.015	20.595	5.054	0.519
133.500	146.716	80.013	19.994	100.009	20.594	5.193	0.497
135.000	147.527	80.014	19.993	100.003	20.593	5.256	0.540
136.500	148.373	80.015	19.992	99.993	20.597	4.972	0.536
138.000	149.144	80.015	19.993	99.995	20.595	5.105	0.507
139.500	149.895	80.014	19.992	100.000	20.596	5.001	0.515
141.000	150.652	80.015	19.994	100.000	20.595	5.074	0.523
142.500	151.421	80.015	19.994	99.995	20.595	5.086	0.531
144.000	152.191	80.015	19.993	99.993	20.595	5.084	0.491
145.500	152.992	80.015	19.992	99.989	20.596	5.001	0.526
147.000	153.747	80.015	19.992	99.989	20.592	5.329	0.491
148.500	154.470	80.013	19.992	99.990	20.594	5.174	0.483
150.000	155.258	80.013	19.992	99.990	20.595	5.088	0.519
151.500	156.071	80.012	19.991	99.988	20.594	5.152	0.556
153.000	156.820	80.013	19.991	99.989	20.593	5.211	0.490
154.500	157.580	80.011	19.995	99.991	20.598	4.882	0.504
156.000	158.353	80.012	19.993	99.991	20.595	5.090	0.518
157.500	159.100	80.012	19.993	99.991	20.595	5.058	0.492
159.000	159.854	80.012	19.995	99.989	20.593	5.245	0.507
160.500	160.623	80.013	19.993	99.989	20.594	5.156	0.499
162.000	161.397	80.013	19.994	99.991	20.593	5.237	0.478
163.500	162.137	80.012	19.991	99.990	20.592	5.280	0.504
165.000	162.901	80.012	19.993	99.985	20.594	5.125	0.525
166.500	163.696	80.012	19.993	99.987	20.591	5.392	0.519
168.000	164.483	80.013	19.992	99.985	20.591	5.406	0.534
169.501	165.217	80.012	19.994	99.987	20.593	5.198	0.503
171.001	165.991	80.013	19.991	99.991	20.592	5.296	0.500
172.500	166.739	80.014	19.994	99.988	20.592	5.278	0.503
174.000	167.512	80.014	19.993	99.983	20.590	5.430	0.507
175.500	168.230	80.013	19.993	99.985	20.588	5.597	0.484
177.000	169.005	80.013	19.992	99.987	20.585	5.815	0.502
178.500	169.744	80.012	19.993	99.985	20.588	5.581	0.480
180.000	170.532	80.012	19.993	99.987	20.590	5.440	0.500
181.500	171.224	80.012	19.994	99.987	20.585	5.802	0.459
183.001	172.019	80.013	19.996	99.985	20.585	5.815	0.542
184.500	172.753	80.012	19.995	99.975	20.584	5.899	0.505
186.000	173.496	80.011	19.993	99.970	20.580	6.218	0.491
187.500	174.208	80.012	19.994	99.968	20.582	6.041	0.482
189.001	174.953	80.012	19.995	99.969	20.581	6.151	0.482
190.500	175.659	80.012	19.994	99.976	20.584	5.929	0.478
192.001	176.411	80.012	19.993	99.964	20.582	6.038	0.509
193.501	177.141	80.013	19.993	99.965	20.584	5.927	0.477
195.000	177.904	80.013	19.994	99.979	20.581	6.139	0.512
196.500	178.604	80.013	19.995	99.986	20.581	6.126	0.459
198.000	179.345	80.014	19.994	99.974	20.580	6.209	0.495
199.500	180.065	80.014	19.995	99.961	20.579	6.260	0.479
201.000	180.793	80.013	19.992	99.975	20.579	6.258	0.493
202.501	181.545	80.014	19.993	99.978	20.578	6.380	0.503
204.000	182.315	80.014	19.993	99.969	20.579	6.313	0.505
205.501	183.040	80.012	19.993	99.973	20.576	6.501	0.471
207.000	183.734	80.012	19.992	99.965	20.577	6.390	0.454
208.501	184.470	80.012	19.995	99.968	20.574	6.618	0.500
210.000	185.241	80.013	19.994	99.980	20.576	6.504	0.516
211.500	185.962	80.013	19.995	99.982	20.580	6.227	0.476
213.000	186.698	80.013	19.995	99.978	20.575	6.587	0.507
214.500	187.460	80.014	19.994	99.978	20.572	6.815	0.506
216.000	188.162	80.012	19.994	99.976	20.572	6.817	0.491
217.500	188.919	80.013	19.994	99.974	20.571	6.842	0.517
219.000	189.673	80.014	19.995	99.970	20.569	6.985	0.497
220.501	190.360	80.013	19.994	99.974	20.570	6.961	0.463
222.000	191.112	80.015	19.993	99.968	20.568	7.097	0.512
223.501	191.846	80.015	19.991	99.967	20.565	7.337	0.485
225.000	192.559	80.015	19.991	99.963	20.564	7.361	0.511
226.500	193.263	80.015	19.994	99.962	20.567	7.131	0.479
228.000	194.024	80.015	19.991	99.959	20.569	7.048	0.511
229.500	194.735	80.014	19.994	99.963	20.566	7.229	0.482
231.000	195.424	80.014	19.994	99.976	20.566	7.276	0.484
232.500	196.163	80.014	19.992	99.973	20.565	7.290	0.496
234.000	196.914	80.012	19.992	99.960	20.564	7.388	0.500
235.500	197.621	80.010	19.991	99.958	20.566	7.231	0.486
237.000	198.380	80.012	19.992	99.959	20.562	7.563	0.507
238.500	199.057	80.013	19.993	99.964	20.558	7.812	0.432
240.000	199.833	80.012	19.993	99.959	20.558	7.820	0.519
241.500	200.551	80.012	19.992	99.956	20.556	7.979	0.480
243.000	201.253	80.012	19.994	99.955	20.557	7.887	0.461
244.501	201.988	80.013	19.996	99.961	20.553	8.214	0.514
246.000	202.755	80.012	19.994	99.957	20.554	8.117	0.502
247.501	203.478	80.012	19.993	99.956	20.554	8.101	0.496
249.001	204.208	80.013	19.994	99.964	20.552	8.318	0.486
250.501	204.938	80.012	19.994	99.955	20.554	8.169	0.492
252.000	205.678	80.008	19.993	99.960	20.547	8.650	0.485
253.501	206.372	80.012	19.993	99.976	20.552	8.253	0.487
255.000	207.133	80.012	19.993	99.972	20.547	8.692	0.495
256.500	207.849	80.014	19.991	99.967	20.549	8.533	0.483
258.000	208.591	80.013	19.992	99.983	20.547	8.624	0.498
259.500	209.354	80.013	19.992	99.972	20.548	8.594	0.512
261.000	210.079	80.015	19.993	99.959	20.546	8.731	0.494
262.500	210.847	80.015	19.993	99.962	20.543	8.957	0.498
264.000	211.589	80.012	19.993	99.968	20.544	8.902	0.495
265.500	212.302	80.014	19.993	99.983	20.538	9.297	0.471
267.000	213.068	80.012	19.993	99.985	20.542	9.030	0.501
268.500	213.785	80.013	19.993	99.974	20.539	9.222	0.459
270.000	214.535	80.011	19.994	99.970	20.537	9.417	0.523
271.500	215.280	80.014	19.994	99.983	20.536	9.445	0.482
273.000	216.066	80.013	19.993	99.982	20.534	9.633	0.520
274.500	216.793	80.014	19.995	99.982	20.533	9.669	0.481
276.000	217.546	80.013	19.995	99.978	20.531	9.843	0.501
277.500	218.348	80.013	19.996	99.973	20.530	9.902	0.556
279.000	218.997	80.015	19.993	99.979	20.530	9.915	0.453
280.500	219.755	80.014	19.994	99.980	20.532	9.798	0.500
282.000	220.506	80.015	19.992	99.972	20.531	9.875	0.512
283.500	221.225	80.016	19.994	99.972	20.531	9.848	0.494
285.000	222.003	80.013	19.993	99.968	20.527	10.170	0.544
286.500	222.715	80.014	19.992	99.966	20.530	9.909	0.502
288.000	223.479	80.013	19.993	99.968	20.526	10.242	0.489
289.500	224.233	80.013	19.993	99.975	20.527	10.149	0.469
291.000	225.035	80.013	19.994	99.988	20.526	10.243	0.539
292.500	225.740	80.014	19.992	99.986	20.522	10.537	0.486
294.000	226.533	80.012	19.992	99.982	20.522	10.523	0.526
295.500	227.265	80.014	19.993	99.984	20.520	10.697	0.497
297.000	228.032	80.013	19.993	99.982	20.518	10.837	0.551
298.500	228.769	80.013	19.994	99.982	20.518	10.810	0.499
300.000	229.509	80.013	19.994	99.983	20.517	10.908	0.493
301.500	230.350	80.012	19.994	99.976	20.516	10.965	0.548
303.000	231.044	80.014	19.992	99.983	20.518	10.845	0.482
304.500	231.785	80.016	19.994	99.980	20.514	11.123	0.496
306.000	232.519	80.015	19.993	99.977	20.516	10.990	0.484
307.500	233.242	80.016	19.994	99.971	20.514	11.120	0.494
309.000	234.055	80.015	19.993	99.982	20.511	11.369	0.525
310.500	234.779	80.015	19.994	99.986	20.513	11.175	0.500
312.000	235.563	80.017	19.993	99.976	20.511	11.366	0.506
313.500	236.282	80.016	19.993	99.978	20.510	11.394	0.491
315.000	237.058	80.016	19.992	99.986	20.509	11.524	0.519
316.500	237.794	80.014	19.993	99.986	20.504	11.897	0.458
318.000	238.565	80.014	19.993	99.982	20.502	11.973	0.522
319.500	239.218	80.012	19.994	99.986	20.505	11.767	0.428
321.001	240.025	80.013	19.992	99.984	20.503	11.950	0.538
322.500	240.744	80.014	19.994	99.989	20.501	12.073	0.473
324.000	241.534	80.012	19.992	99.988	20.497	12.358	0.517
325.501	242.272	80.012	19.993	99.984	20.498	12.281	0.500
327.000	243.037	80.013	19.993	99.981	20.495	12.548	0.514
328.500	243.769	80.013	19.993	99.985	20.495	12.529	0.490
330.000	244.516	80.013	19.993	99.987	20.494	12.594	0.484
331.500	245.300	80.012	19.994	99.982	20.490	12.896	0.506
333.000	246.024	80.012	19.995	99.985	20.491	12.839	0.495
334.500	246.785	80.013	19.994	99.988	20.489	12.958	0.503
336.000	247.523	80.013	19.994	99.988	20.488	13.048	0.484
337.501	248.276	80.014	19.994	99.987	20.483	13.433	0.487
339.000	249.069	80.013	19.993	99.987	20.483	13.392	0.522
340.500	249.806	80.013	19.993	99.987	20.481	13.592	0.500
342.000	250.551	80.014	19.993	99.987	20.477	13.868	0.495
343.500	251.321	80.013	19.994	99.988	20.479	13.715	0.525
345.000	252.055	80.014	19.993	99.989	20.477	13.846	0.486
346.500	252.837	80.014	19.993	99.996	20.474	14.085	0.526
348.000	253.594	80.012	19.994	99.995	20.471	14.343	0.507
349.500	254.332	80.013	19.993	99.993	20.468	14.515	0.481
351.000	255.104	80.011	19.994	99.991	20.467	14.611	0.514
352.500	255.839	80.012	19.993	100.000	20.467	14.617	0.505
354.000	256.559	80.012	19.992	100.002	20.464	14.810	0.481
355.500	257.350	80.011	19.994	99.996	20.461	15.047	0.517
357.000	258.111	80.013	19.994	99.998	20.458	15.291	0.507
358.500	258.835	80.013	19.993	100.008	20.457	15.368	0.491
360.001	259.609	80.013	19.995	100.006	20.455	15.492	0.486
361.500	260.345	80.014	19.995	99.999	20.452	15.770	0.508
363.000	261.111	80.013	19.994	100.005	20.446	16.171	0.515
364.500	261.898	80.013	19.993	99.999	20.442	16.461	0.516
366.000	262.612	80.013	19.993	99.995	20.438	16.810	0.476
367.500	263.404	80.014	19.994	99.999	20.433	17.169	0.506
369.000	264.134	80.012	19.994	99.994	20.433	17.184	0.512
370.500	264.872	80.014	19.992	99.991	20.428	17.552	0.504
372.000	265.627	80.014	19.994	99.992	20.424	17.859	0.529
373.500	266.374	80.009	19.993	100.003	20.421	18.023	0.509
375.000	267.163	80.012	19.993	100.016	20.420	18.122	0.502
376.500	267.913	80.013	19.993	100.013	20.412	18.701	0.512
378.001	268.665	80.013	19.993	100.008	20.409	18.929	0.480
379.500	269.414	80.013	19.993	100.005	20.404	19.274	0.475
381.000	270.195	80.014	19.995	100.006	20.406	19.195	0.507
382.500	270.947	80.015	19.993	100.015	20.398	19.757	0.507
384.000	271.667	80.013	19.992	100.010	20.395	20.006	0.470
385.500	272.470	80.014	19.993	100.009	20.391	20.294	0.536
387.000	273.215	80.012	19.994	100.016	20.387	20.561	0.505
388.500	273.966	80.013	19.992	100.012	20.385	20.752	0.501
390.000	274.700	80.014	19.993	100.006	20.380	21.085	0.478
391.500	275.455	80.014	19.994	100.007	20.376	21.395	0.499
393.000	276.219	80.015	19.994	100.017	20.371	21.736	0.512
394.500	276.953	80.016	19.994	100.012	20.369	21.943	0.479
396.000	277.757	80.015	19.994	100.019	20.363	22.357	0.527
397.500	278.474	80.013	19.994	100.025	20.360	22.569	0.476
399.000	279.276	80.012	19.994	100.022	20.355	22.993	0.527
400.500	279.983	80.012	19.993	100.021	20.352	23.171	0.474
402.000	280.736	80.012	19.993	100.026	20.345	23.699	0.512
403.500	281.462	80.014	19.992	100.027	20.340	24.119	0.499
405.000	282.224	80.013	19.993	100.029	20.337	24.331	0.503
406.500	282.960	80.012	19.992	100.029	20.334	24.561	0.471
408.000	283.745	80.013	19.993	100.031	20.331	24.748	0.519
409.500	284.471	80.013	19.994	100.031	20.325	25.177	0.488
411.000	285.214	80.010	19.993	100.030	20.319	25.621	0.500
412.500	285.991	80.010	19.992	100.035	20.314	25.993	0.554
414.000	286.742	80.011	19.994	100.042	20.310	26.339	0.489
415.500	287.486	80.011	19.992	100.049	20.306	26.606	0.473
417.000	288.246	80.012	19.993	100.042	20.300	27.043	0.504
418.500	288.988	80.013	19.991	100.036	20.298	27.199	0.498
420.000	289.762	80.013	19.992	100.034	20.295	27.444	0.516
421.500	290.487	80.012	19.993	100.046	20.287	28.077	0.491
423.000	291.247	80.012	19.994	100.059	20.283	28.367	0.508
424.500	291.994	80.013	19.993	100.059	20.278	28.746	0.491
426.001	292.758	80.012	19.994	100.055	20.272	29.146	0.541
427.500	293.459	80.013	19.994	100.062	20.270	29.335	0.471
429.000	294.241	80.011	19.992	100.070	20.261	29.994	0.530
430.500	295.020	80.012	19.992	100.071	20.256	30.378	0.501
432.000	295.753	80.006	19.992	100.070	20.248	30.959	0.488
433.500	296.500	80.010	19.994	100.070	20.239	31.607	0.488
435.000	297.271	80.011	19.992	100.071	20.237	31.739	0.508
436.500	298.004	80.012	19.993	100.070	20.231	32.229	0.473
438.000	298.772	80.013	19.993	100.070	20.228	32.409	0.502
439.501	299.503	80.010	19.995	100.068	20.222	32.902	0.499
441.000	300.286	80.012	19.994	100.067	20.214	33.467	0.534
442.500	300.969	80.013	19.993	100.069	20.208	33.925	0.469
444.001	301.726	80.013	19.992	100.071	20.204	34.232	0.492
445.500	302.483	80.012	19.992	100.071	20.197	34.780	0.503
447.000	303.235	80.013	19.993	100.074	20.193	35.037	0.485
448.500	303.959	80.013	19.994	100.077	20.186	35.556	0.516
450.000	304.709	80.015	19.993	100.081	20.183	35.787	0.500
451.500	305.479	80.012	19.992	100.084	20.172	36.641	0.525
453.000	306.262	80.009	19.993	100.089	20.168	36.895	0.514
454.500	306.977	80.011	19.995	100.086	20.163	37.289	0.473
456.000	307.718	80.013	19.995	100.084	20.160	37.538	0.489
457.500	308.497	80.013	19.993	100.100	20.153	38.026	0.523
459.000	309.222	80.012	19.994	100.103	20.144	38.726	0.479
460.500	309.978	80.013	19.995	100.105	20.135	39.412	0.510
462.000	310.785	80.013	19.994	100.102	20.130	39.791	0.520
463.500	311.532	80.013	19.993	100.097	20.128	39.901	0.484
465.001	312.290	80.014	19.993	100.098	20.117	40.688	0.502
466.500	313.076	80.014	19.994	100.104	20.111	41.138	0.522
468.000	313.817	80.015	19.993	100.104	20.104	41.700	0.499
469.500	314.603	80.013	19.993	100.106	20.098	42.111	0.542
471.000	315.336	80.014	19.993	100.105	20.089	42.781	0.511
472.500	316.081	80.014	19.992	100.108	20.080	43.477	0.512
474.000	316.846	80.009	19.991	100.110	20.076	43.776	0.506
475.500	317.650	80.013	19.992	100.108	20.070	44.234	0.536
477.000	318.372	80.009	19.992	100.108	20.063	44.771	0.479
478.500	319.122	80.013	19.993	100.114	20.054	45.442	0.490
480.001	319.873	80.012	19.993	100.114	20.046	46.046	0.514
481.500	320.604	80.008	19.995	100.109	20.044	46.159	0.486
483.000	321.401	80.005	19.992	100.117	20.040	46.442	0.515
484.500	322.135	80.009	19.994	100.120	20.034	46.953	0.493
486.000	322.842	80.009	19.993	100.122	20.024	47.677	0.468
487.500	323.637	80.000	19.991	100.114	20.017	48.206	0.510
489.000	324.378	80.000	19.992	100.114	20.014	48.391	0.483
490.500	325.097	79.994	19.992	100.117	20.005	49.072	0.500
492.000	325.905	79.999	19.993	100.118	19.998	49.597	0.527
493.500	326.632	79.996	19.990	100.124	19.990	50.220	0.504
495.000	327.404	80.000	19.992	100.141	19.986	50.540	0.527
496.500	328.222	80.002	19.992	100.148	19.977	51.162	0.543
498.000	328.928	80.003	19.992	100.146	19.970	51.715	0.479
499.500	329.719	80.002	19.993	100.146	19.965	52.073	0.514
501.000	330.460	79.995	19.993	100.145	19.959	52.543	0.499
502.500	331.219	79.993	19.992	100.146	19.949	53.242	0.496
504.000	331.976	79.993	19.992	100.138	19.941	53.837	0.506
505.500	332.746	79.995	19.993	100.138	19.937	54.189	0.511
507.000	333.492	79.994	19.992	100.145	19.929	54.728	0.496
508.500	334.322	79.993	19.992	100.145	19.920	55.428	0.552
510.001	335.084	79.994	19.993	100.144	19.914	55.849	0.501
511.500	335.809	79.993	19.993	100.146	19.908	56.329	0.482
513.000	336.557	79.991	19.992	100.147	19.902	56.808	0.517
514.500	337.353	79.993	19.995	100.146	19.890	57.660	0.517
516.000	338.111	79.993	19.994	100.149	19.889	57.772	0.507
517.501	338.860	79.993	19.992	100.155	19.875	58.780	0.475
519.000	339.614	79.994	19.993	100.152	19.877	58.658	0.488
520.500	340.367	79.994	19.992	100.153	19.866	59.471	0.517
522.000	341.138	79.993	19.993	100.162	19.858	60.070	0.519
523.500	341.849	79.994	19.993	100.173	19.853	60.444	0.471
525.000	342.641	79.994	19.993	100.172	19.845	61.013	0.536
526.500	343.375	79.993	19.993	100.170	19.838	61.537	0.487
528.000	344.162	79.995	19.992	100.178	19.829	62.254	0.514
529.500	344.882	79.996	19.992	100.180	19.823	62.690	0.462
531.000	345.729	79.996	19.991	100.181	19.816	63.202	0.559
532.500	346.432	79.995	19.993	100.183	19.808	63.791	0.503
534.000	347.180	79.994	19.994	100.183	19.803	64.200	0.489
535.500	347.968	79.996	19.993	100.177	19.793	64.905	0.519
537.000	348.698	79.993	19.993	100.184	19.788	65.316	0.506
538.500	349.493	79.995	19.994	100.183	19.781	65.801	0.536
540.000	350.235	79.995	19.994	100.183	19.774	66.319	0.477
541.500	350.977	79.993	19.993	100.189	19.767	66.852	0.501
543.000	351.774	79.995	19.993	100.189	19.761	67.331	0.537
544.500	352.555	79.992	19.993	100.188	19.751	68.068	0.513
546.000	353.322	79.994	19.992	100.188	19.752	68.011	0.518
547.500	354.073	79.994	19.994	100.186	19.746	68.458	0.494
549.000	354.812	79.994	19.993	100.186	19.737	69.110	0.490
550.500	355.559	79.995	19.992	100.186	19.734	69.302	0.509
552.000	356.319	79.996	19.992	100.185	19.734	69.314	0.496
553.500	357.081	79.995	19.992	100.187	19.724	70.099	0.497
555.000	357.870	79.995	19.993	100.187	19.720	70.329	0.528
556.500	358.562	79.996	19.993	100.187	19.717	70.595	0.478
558.000	359.333	79.996	19.993	100.186	19.717	70.597	0.500
559.500	360.095	79.995	19.994	100.186	19.716	70.642	0.520
561.000	360.884	79.996	19.992	100.187	19.716	70.649	0.530
562.500	361.650	79.995	19.993	100.186	19.713	70.892	0.513
564.000	362.405	79.993	19.993	100.183	19.716	70.641	0.504
565.500	363.160	79.994	19.993	100.167	19.719	70.426	0.503
567.000	363.866	79.994	19.993	100.172	19.720	70.331	0.468
568.500	364.651	79.994	19.994	100.171	19.724	70.054	0.520
570.000	365.459	79.993	19.994	100.156	19.728	69.682	0.556
571.500	366.159	79.999	19.993	100.147	19.731	69.484	0.459
573.000	366.950	80.005	19.994	100.145	19.744	68.505	0.506
574.500	367.691	80.008	19.994	100.139	19.751	67.957	0.499
576.000	368.456	80.011	19.994	100.135	19.758	67.453	0.499
577.500	369.239	80.013	19.993	100.128	19.773	66.329	0.505
579.000	369.982	80.012	19.993	100.108	19.783	65.596	0.479
580.500	370.772	80.012	19.993	100.105	19.796	64.636	0.528
582.000	371.519	80.012	19.994	100.105	19.813	63.362	0.500
583.500	372.305	80.012	19.993	100.095	19.832	61.944	0.491
585.000	373.069	80.014	19.993	100.073	19.847	60.830	0.533
586.500	373.807	80.012	19.994	100.068	19.866	59.355	0.514
588.000	374.557	80.013	19.991	100.067	19.883	58.074	0.506
589.500	375.339	80.011	19.992	100.053	19.907	56.346	0.522
591.000	376.095	80.012	19.992	100.036	19.926	54.869	0.499
592.501	376.873	80.013	19.992	100.033	19.948	53.263	0.539
594.000	377.592	80.012	19.994	100.028	19.970	51.577	0.476
595.500	378.416	80.013	19.992	100.026	19.994	49.808	0.543
597.000	379.140	80.012	19.993	100.011	20.020	47.866	0.494
598.500	379.927	80.012	19.993	100.001	20.044	46.057	0.511
600.000	380.682	80.011	19.992	99.990	20.067	44.373	0.489
601.500	381.423	80.011	19.994	99.989	20.094	42.376	0.484
603.000	382.185	80.011	19.993	99.986	20.116	40.762	0.491
604.500	382.929	80.012	19.993	99.974	20.139	39.019	0.484
606.000	383.729	80.012	19.992	99.957	20.162	37.339	0.519
607.500	384.512	80.013	19.993	99.953	20.188	35.409	0.509
609.000	385.280	80.013	19.991	99.953	20.207	33.930	0.500
610.500	386.017	80.013	19.993	99.953	20.227	32.454	0.478
612.000	386.760	80.012	19.992	99.952	20.249	30.823	0.492
613.500	387.499	80.013	19.991	99.952	20.267	29.493	0.482
615.000	388.293	80.014	19.992	99.948	20.292	27.629	0.529
616.501	389.020	80.012	19.993	99.942	20.306	26.626	0.500
618.000	389.831	80.014	19.992	99.942	20.321	25.460	0.537
619.500	390.569	80.012	19.994	99.942	20.339	24.147	0.520
621.000	391.375	80.009	19.992	99.945	20.350	23.296	0.517
622.500	392.163	80.007	19.992	99.949	20.362	22.401	0.530
624.000	392.884	80.010	19.991	99.940	20.374	21.507	0.500
625.500	393.696	80.000	19.993	99.933	20.382	20.962	0.541
627.000	394.478	80.004	19.993	99.943	20.394	20.071	0.525
628.500	395.267	79.995	19.992	99.928	20.403	19.384	0.535
630.000	396.067	79.999	19.991	99.917	20.409	18.900	0.541
631.500	396.790	79.997	19.993	99.925	20.418	18.270	0.482
633.001	397.571	79.996	19.994	99.934	20.419	18.182	0.515
634.500	398.337	80.005	19.993	99.928	20.425	17.748	0.512
636.000	399.151	79.998	19.993	99.922	20.430	17.390	0.569
637.500	399.918	79.997	19.993	99.927	20.434	17.043	0.527
639.000	400.645	79.996	19.993	99.931	20.433	17.169	0.473
640.500	401.414	79.995	19.993	99.927	20.441	16.537	0.528
642.000	402.186	79.995	19.994	99.931	20.443	16.373	0.522
643.500	402.960	79.996	19.993	99.925	20.440	16.640	0.526
645.000	403.729	79.995	19.993	99.927	20.444	16.330	0.520
646.500	404.465	79.993	19.993	99.928	20.443	16.427	0.500
648.000	405.226	79.995	19.994	99.929	20.446	16.165	0.509
649.500	405.987	79.993	19.995	99.926	20.448	16.056	0.489
651.000	406.742	79.993	19.993	99.938	20.454	15.579	0.490
652.500	407.468	79.993	19.995	99.933	20.450	15.864	0.495
654.000	408.271	79.993	19.995	99.937	20.453	15.629	0.528
655.500	409.037	79.993	19.994	99.946	20.457	15.357	0.505
657.000	409.779	79.991	19.995	99.939	20.457	15.365	0.478
658.500	410.569	79.993	19.995	99.940	20.458	15.318	0.511
660.000	411.301	79.992	19.995	99.940	20.459	15.182	0.497
661.500	412.078	79.993	19.995	99.936	20.455	15.495	0.520
663.000	412.821	79.993	19.994	99.933	20.456	15.435	0.489
664.500	413.617	79.993	19.996	99.923	20.458	15.259	0.520
666.000	414.350	79.992	19.996	99.883	20.462	14.972	0.486
667.500	415.095	79.992	19.994	99.936	20.458	15.289	0.488
669.000	415.845	79.994	19.995	99.979	20.461	15.029	0.504
670.500	416.592	79.993	19.993	99.929	20.463	14.880	0.506
672.001	417.361	79.993	19.995	99.927	20.465	14.725	0.498
673.500	418.181	79.992	19.992	99.935	20.462	14.954	0.540
675.000	418.976	79.991	19.991	99.932	20.462	14.952	0.517
676.500	419.688	79.991	19.992	99.938	20.466	14.712	0.462
678.000	420.445	79.995	19.992	99.933	20.466	14.659	0.510
679.500	421.244	79.993	19.994	99.923	20.467	14.616	0.515
681.000	422.023	79.996	19.996	99.919	20.468	14.557	0.505
682.500	422.757	79.996	19.993	99.916	20.467	14.626	0.469
684.000	423.494	79.996	19.993	99.921	20.472	14.211	0.514
685.500	424.252	80.000	19.993	99.923	20.468	14.563	0.511
687.000	425.046	80.006	19.993	99.936	20.471	14.321	0.519
688.500	425.785	80.006	19.992	99.934	20.468	14.568	0.494
690.000	426.536	80.005	19.994	99.916	20.471	14.340	0.498
691.500	427.309	80.013	19.992	99.922	20.469	14.436	0.509
693.000	428.078	80.013	19.993	99.926	20.469	14.426	0.488
694.500	428.841	80.015	19.995	99.916	20.469	14.430	0.503
696.000	429.615	80.014	19.993	99.914	20.467	14.631	0.526
697.500	430.384	80.013	19.994	99.914	20.472	14.235	0.500
699.000	431.079	80.012	19.992	99.916	20.473	14.140	0.495
700.500	431.889	80.013	19.991	99.926	20.475	14.020	0.543
702.000	432.603	80.011	19.993	99.937	20.477	13.874	0.481
703.500	433.399	80.013	19.992	99.924	20.480	13.612	0.540
705.000	434.191	80.012	19.992	99.922	20.475	13.993	0.500
706.500	434.934	80.011	19.993	99.920	20.476	13.902	0.501
708.000	435.707	80.008	19.992	99.914	20.476	13.946	0.510
709.500	436.471	80.012	19.992	99.914	20.475	13.993	0.504
711.000	437.204	80.013	19.992	99.927	20.481	13.577	0.494
712.500	437.993	80.013	19.991	99.925	20.482	13.511	0.531
714.000	438.732	80.013	19.993	99.915	20.481	13.573	0.482
715.500	439.480	80.013	19.991	99.913	20.484	13.353	0.499
717.000	440.275	80.014	19.994	99.916	20.486	13.216	0.527
718.501	441.004	80.012	19.994	99.917	20.489	12.994	0.475
720.000	441.791	80.011	19.993	99.912	20.488	13.045	0.515
721.500	442.526	80.001	19.993	99.911	20.486	13.194	0.511
723.000	443.296	79.995	19.992	99.909	20.492	12.734	0.531
724.500	444.054	79.995	19.993	99.909	20.487	13.131	0.505
726.000	444.811	79.995	19.993	99.910	20.488	13.054	0.502
727.500	445.524	79.996	19.993	99.909	20.489	12.989	0.475
729.000	446.321	79.994	19.991	99.910	20.494	12.577	0.512
730.500	447.112	79.993	19.992	99.910	20.493	12.685	0.522
732.000	447.832	79.992	19.994	99.914	20.494	12.627	0.482
733.500	448.614	79.993	19.992	99.916	20.493	12.650	0.524
735.000	449.379	79.993	19.995	99.913	20.491	12.835	0.541
736.500	450.135	79.993	19.992	99.914	20.499	12.236	0.521
738.000	450.901	79.991	19.992	99.915	20.496	12.415	0.495
739.500	451.643	79.992	19.992	99.916	20.494	12.615	0.506
741.000	452.454	79.993	19.994	99.914	20.497	12.353	0.512
742.500	453.157	79.993	19.992	99.923	20.506	11.724	0.433
744.000	453.912	79.991	19.991	99.922	20.507	11.647	0.481
745.500	454.656	79.993	19.992	99.922	20.506	11.698	0.536
747.000	455.422	79.992	19.994	99.912	20.506	11.739	0.521
748.500	456.177	79.991	19.993	99.916	20.511	11.314	0.478
750.000	456.936	79.990	19.993	99.922	20.512	11.267	0.547
751.500	457.630	79.992	19.992	99.914	20.511	11.358	0.575
753.000	458.298	79.990	19.993	99.914	20.514	11.118	0.614
754.500	459.369	79.993	19.994	99.914	20.514	11.082	0.862
756.000	460.015	79.992	19.994	99.920	20.509	11.456	0.564
757.500	460.679	79.992	19.994	99.920	20.514	11.143	0.397
759.000	461.565	79.993	19.995	99.915	20.512	11.235	0.570
760.500	462.353	79.992	19.991	99.914	20.513	11.184	0.565
762.000	463.083	79.993	19.992	99.911	20.513	11.147	0.451
763.500	463.787	79.992	19.994	99.910	20.513	11.215	0.493
765.000	464.616	79.991	19.993	99.910	20.511	11.326	0.506
766.501	465.373	79.992	19.994	99.912	20.509	11.458	0.499
768.000	466.156	79.992	19.994	99.915	20.509	11.458	0.520
769.500	466.852	79.992	19.992	99.919	20.516	10.941	0.502
771.000	467.647	79.992	19.992	99.915	20.513	11.206	0.540
772.500	468.441	79.993	19.990	99.917	20.516	10.953	0.524
774.000	469.186	79.993	19.994	99.919	20.517	10.884	0.476
775.500	469.970	79.993	19.993	99.917	20.516	10.966	0.518
777.000	470.700	79.994	19.992	99.910	20.520	10.687	0.486
778.500	471.435	79.994	19.991	99.909	20.519	10.710	0.481
780.000	472.225	79.994	19.992	99.910	20.521	10.618	0.512
781.500	473.038	79.994	19.992	99.909	20.518	10.790	0.529
783.000	473.805	79.994	19.990	99.909	20.520	10.685	0.531
784.500	474.577	79.994	19.991	99.909	20.522	10.493	0.494
786.000	475.319	79.994	19.992	99.916	20.521	10.602	0.501
787.500	476.133	79.992	19.992	99.919	20.527	10.105	0.541
789.000	476.905	79.993	19.994	99.922	20.524	10.350	0.513
790.500	477.721	79.994	19.992	99.922	20.527	10.175	0.566
792.000	478.487	79.993	19.992	99.908	20.527	10.120	0.528
793.500	479.235	79.994	19.992	99.916	20.524	10.381	0.494
795.000	479.998	79.994	19.991	99.917	20.524	10.344	0.513
796.500	480.820	79.993	19.994	99.919	20.528	10.092	0.548
798.000	481.572	79.993	19.993	99.924	20.530	9.939	0.509
799.500	482.350	79.993	19.992	99.915	20.528	10.038	0.511
801.001	483.129	79.995	19.992	99.911	20.525	10.264	0.526
802.500	483.895	79.995	19.993	99.911	20.532	9.802	0.492
804.000	484.705	79.995	19.990	99.917	20.532	9.774	0.547
805.500	485.405	79.995	19.991	99.915	20.531	9.863	0.455
807.000	486.242	79.995	19.990	99.911	20.525	10.310	0.538
808.500	486.958	79.995	19.991	99.912	20.533	9.703	0.484
810.000	487.794	79.995	19.993	99.911	20.529	9.970	0.563
811.500	488.514	79.993	19.992	99.904	20.531	9.874	0.483
813.000	489.324	79.995	19.992	99.911	20.532	9.774	0.543
814.500	490.131	79.991	19.991	99.913	20.530	9.923	0.527
816.000	490.926	79.993	19.993	99.911	20.533	9.678	0.519
817.500	491.683	79.991	19.992	99.913	20.528	10.075	0.504
819.000	492.446	79.993	19.993	99.913	20.531	9.865	0.510
820.500	493.201	79.992	19.991	99.913	20.529	10.004	0.492
822.000	494.046	79.994	19.994	99.913	20.535	9.527	0.559
823.500	494.802	79.993	19.992	99.914	20.533	9.664	0.521
825.000	495.587	79.992	19.993	99.912	20.532	9.790	0.523
826.500	496.366	79.995	19.992	99.910	20.533	9.700	0.517
828.000	497.144	79.993	19.991	99.909	20.539	9.246	0.532
829.500	497.909	79.993	19.993	99.908	20.530	9.919	0.515
831.000	498.684	79.994	19.992	99.911	20.533	9.699	0.537
832.500	499.493	79.994	19.994	99.911	20.533	9.700	0.547
834.000	500.253	79.996	19.992	99.910	20.537	9.423	0.506
835.500	501.074	80.000	19.994	99.910	20.536	9.482	0.538
837.000	501.803	80.004	19.993	99.909	20.539	9.258	0.485
838.500	502.618	80.009	19.993	99.910	20.535	9.519	0.548
840.000	503.402	80.011	19.992	99.913	20.537	9.397	0.524
841.500	504.180	80.010	19.993	99.916	20.536	9.491	0.529
843.000	504.954	80.011	19.993	99.914	20.535	9.509	0.530
844.500	505.702	80.012	19.994	99.909	20.537	9.366	0.484
846.000	506.451	80.011	19.993	99.907	20.542	9.034	0.511
847.500	507.288	80.010	19.993	99.908	20.537	9.391	0.558
849.000	508.053	80.011	19.994	99.911	20.536	9.476	0.521
850.501	508.851	80.011	19.992	99.912	20.538	9.340	0.545
852.000	509.622	80.014	19.992	99.911	20.540	9.175	0.515
853.500	510.391	80.014	19.995	99.914	20.539	9.267	0.507
855.000	511.166	80.015	19.994	99.915	20.538	9.293	0.531
856.500	511.953	80.012	19.994	99.912	20.540	9.140	0.518
858.000	512.719	80.013	19.991	99.913	20.542	9.059	0.531
859.500	513.511	80.014	19.992	99.912	20.535	9.581	0.541
861.000	514.286	80.011	19.991	99.912	20.536	9.456	0.519
862.500	515.080	80.013	19.992	99.912	20.542	9.020	0.514
864.000	515.880	80.014	19.994	99.913	20.533	9.686	0.538
865.500	516.654	80.013	19.990	99.913	20.532	9.760	0.541
867.000	517.381	80.010	19.990	99.912	20.533	9.658	0.492
868.500	518.182	80.016	19.992	99.912	20.531	9.857	0.517
870.000	518.972	80.013	19.992	99.914	20.527	10.167	0.525
871.500	519.776	80.014	19.993	99.913	20.526	10.246	0.547
873.000	520.532	80.012	19.992	99.914	20.537	9.397	0.514
874.500	521.338	80.013	19.993	99.913	20.533	9.708	0.526
876.000	522.116	80.013	19.992	99.913	20.527	10.158	0.536
877.500	522.876	80.012	19.991	99.912	20.535	9.554	0.520
879.000	523.654	80.015	19.992	99.912	20.538	9.344	0.517
880.500	524.362	80.013	19.992	99.913	20.531	9.875	0.458
882.000	525.158	80.013	19.992	99.911	20.526	10.229	0.518
883.500	525.934	80.015	19.991	99.913	20.533	9.710	0.523
885.000	526.675	80.010	19.993	99.911	20.527	10.136	0.507
886.500	527.476	80.010	19.992	99.905	20.528	10.042	0.542
888.000	528.292	80.012	19.991	99.908	20.523	10.458	0.554
889.500	529.016	80.011	19.992	99.910	20.532	9.757	0.508
891.000	529.802	80.016	19.992	99.908	20.532	9.766	0.510
892.500	530.587	80.013	19.992	99.903	20.534	9.633	0.541
894.001	531.362	80.016	19.993	99.906	20.529	10.006	0.533
895.500	532.132	80.012	19.992	99.908	20.529	10.012	0.532
897.000	532.923	80.013	19.991	99.907	20.527	10.120	0.513
898.500	533.702	80.011	19.992	99.907	20.531	9.806	0.545
900.000	534.421	80.012	19.993	99.909	20.531	9.814	0.473
901.501	535.250	80.011	19.993	99.910	20.533	9.660	0.549
903.000	536.018	80.011	19.994	99.911	20.532	9.780	0.504
904.501	536.733	80.007	19.995	99.910	20.535	9.531	0.484
906.000	537.517	80.005	19.993	99.910	20.531	9.814	0.543
907.500	538.259	79.998	19.992	99.909	20.533	9.692	0.499
909.000	539.057	79.999	19.992	99.909	20.531	9.812	0.544
910.500	539.833	79.995	19.992	99.909	20.535	9.531	0.523
912.000	540.603	79.993	19.993	99.910	20.541	9.122	0.512
913.500	541.406	79.992	19.993	99.909	20.550	8.458	0.508
915.000	542.143	79.994	19.994	99.910	20.528	10.063	0.492
916.500	542.873	79.995	19.993	99.908	20.529	10.020	0.488
918.001	543.650	79.995	19.995	99.909	20.535	9.554	0.519
919.500	544.423	79.993	19.994	99.910	20.530	9.888	0.511
921.000	545.188	79.993	19.992	99.910	20.530	9.916	0.522
922.500	545.918	79.992	19.993	99.908	20.530	9.935	0.459
924.000	546.689	79.994	19.993	99.908	20.532	9.770	0.514
925.500	547.493	79.994	19.993	99.910	20.527	10.106	0.540
927.000	548.225	79.993	19.993	99.912	20.538	9.338	0.488
928.500	548.994	79.992	19.992	99.913	20.535	9.523	0.519
930.000	549.799	79.992	19.993	99.912	20.539	9.224	0.540
931.500	550.579	79.992	19.993	99.911	20.533	9.674	0.496
933.000	551.321	79.994	19.995	99.911	20.534	9.613	0.516
934.500	552.125	79.990	19.993	99.912	20.534	9.621	0.528
936.000	552.851	79.993	19.994	99.911	20.536	9.452	0.490
937.500	553.645	79.994	19.995	99.911	20.537	9.432	0.549
939.000	554.416	79.993	19.994	99.912	20.535	9.531	0.534
940.500	555.235	79.993	19.992	99.910	20.532	9.768	0.543
942.000	556.040	79.994	19.993	99.913	20.533	9.682	0.548
943.500	556.766	79.993	19.992	99.914	20.533	9.670	0.470
945.000	557.515	79.992	19.991	99.911	20.533	9.698	0.461
946.500	558.308	79.994	19.992	99.912	20.533	9.665	0.501
948.000	559.058	79.994	19.992	99.911	20.531	9.850	0.510
949.500	559.799	79.994	19.993	99.910	20.532	9.753	0.484
951.000	560.565	79.995	19.991	99.912	20.530	9.933	0.512
952.501	561.307	79.995	19.991	99.914	20.528	10.040	0.494
954.000	562.063	79.995	19.992	99.914	20.528	10.083	0.513
955.500	562.824	79.995	19.992	99.912	20.530	9.937	0.508
957.000	563.622	79.994	19.992	99.906	20.532	9.745	0.530
958.500	564.308	79.994	19.992	99.902	20.527	10.122	0.459
960.000	565.119	79.995	19.992	99.907	20.530	9.936	0.529
961.500	565.833	79.993	19.992	99.910	20.537	9.384	0.483
963.000	566.600	79.995	19.992	99.907	20.535	9.532	0.508
964.500	567.299	79.994	19.993	99.907	20.530	9.889	0.471
966.000	568.071	79.996	19.992	99.911	20.531	9.855	0.522
967.500	568.878	79.994	19.992	99.910	20.536	9.454	0.533
969.000	569.638	79.992	19.992	99.908	20.534	9.653	0.514
970.500	570.384	79.995	19.992	99.907	20.535	9.519	0.509
972.000	571.192	79.997	19.993	99.905	20.532	9.796	0.509
973.500	571.924	79.998	19.993	99.898	20.529	10.010	0.477
975.000	572.655	79.996	19.993	99.898	20.529	10.004	0.491
976.501	573.503	79.996	19.992	99.908	20.531	9.853	0.573
978.000	574.311	79.995	19.992	99.909	20.529	9.991	0.567
979.500	575.035	79.998	19.991	99.910	20.530	9.890	0.469
981.000	575.834	80.007	19.991	99.908	20.529	9.963	0.519
982.500	576.551	80.011	19.993	99.909	20.531	9.871	0.496
984.000	577.277	80.013	19.994	99.909	20.531	9.812	0.466
985.500	578.092	80.014	19.993	99.908	20.527	10.140	0.551
987.000	578.824	80.014	19.991	99.907	20.530	9.902	0.507
988.500	579.590	80.015	19.992	99.907	20.536	9.482	0.510
990.000	580.376	80.014	19.994	99.909	20.532	9.774	0.518
991.500	581.125	80.015	19.993	99.909	20.529	9.957	0.496
993.000	581.876	80.014	19.992	99.908	20.536	9.481	0.498
994.500	582.638	80.013	19.993	99.909	20.534	9.621	0.497
996.000	583.398	80.013	19.995	99.909	20.534	9.610	0.506
997.500	584.142	80.014	19.996	99.910	20.533	9.675	0.487
999.000	584.878	80.014	19.993	99.911	20.533	9.688	0.502
1000.500	585.625	80.013	19.994	99.910	20.531	9.861	0.515
1002.000	586.418	80.013	19.992	99.910	20.533	9.698	0.540
1003.500	587.184	80.015	19.992	99.898	20.527	10.153	0.493
1005.000	587.941	80.013	19.992	99.896	20.530	9.923	0.500
1006.500	588.699	80.012	19.993	99.899	20.530	9.906	0.500
1008.000	589.460	80.014	19.992	99.903	20.531	9.839	0.505
1009.500	590.237	80.012	19.993	99.905	20.526	10.202	0.517
1011.000	590.964	80.012	19.991	99.907	20.529	9.956	0.500
1012.500	591.746	80.012	19.992	99.906	20.532	9.732	0.515
1014.000	592.540	80.011	19.993	99.903	20.532	9.732	0.537
1015.500	593.329	80.012	19.993	99.898	20.528	10.044	0.529
1017.000	594.124	80.012	19.994	99.892	20.536	9.462	0.498
1018.500	594.846	80.013	19.995	99.901	20.533	9.712	0.502
1020.000	595.661	80.012	19.994	99.904	20.532	9.741	0.546
1021.500	596.406	80.011	19.994	99.895	20.530	9.928	0.504
1023.000	597.152	80.014	19.994	99.900	20.527	10.117	0.504
1024.500	597.924	80.006	19.995	99.897	20.534	9.624	0.495
1026.001	598.716	80.005	19.993	99.904	20.532	9.797	0.547
1027.501	599.464	80.003	19.995	99.905	20.531	9.814	0.506
1029.001	600.269	79.995	19.991	99.903	20.529	9.955	0.511
1030.500	601.003	79.996	19.993	99.906	20.531	9.812	0.475
1032.000	601.841	79.999	19.994	99.909	20.530	9.883	0.554
1033.501	602.584	79.994	19.993	99.905	20.531	9.859	0.503
1035.000	603.328	79.995	19.993	99.905	20.527	10.114	0.498
1036.501	604.027	79.995	19.993	99.902	20.535	9.553	0.453
1038.000	604.833	79.994	19.991	99.905	20.529	9.985	0.548
1039.500	605.642	79.992	19.991	99.909	20.531	9.810	0.522
1041.000	606.422	79.995	19.992	99.909	20.533	9.698	0.534
1042.502	607.173	79.995	19.992	99.905	20.527	10.141	0.523
1044.000	607.939	79.993	19.994	99.905	20.531	9.873	0.529
1045.502	608.693	79.994	19.992	99.909	20.530	9.883	0.515
1047.000	609.466	79.994	19.992	99.904	20.531	9.876	0.494
1048.500	610.211	79.994	19.993	99.903	20.530	9.932	0.469
1050.001	610.996	79.996	19.993	99.904	20.532	9.783	0.499
1051.500	611.758	79.995	19.991	99.907	20.531	9.868	0.482
1053.001	612.533	79.995	19.992	99.901	20.528	10.061	0.515
1054.500	613.301	79.997	19.991	99.884	20.529	10.014	0.521
1056.000	614.103	79.998	19.993	99.883	20.531	9.804	0.526
1057.500	614.881	79.995	19.993	99.894	20.530	9.938	0.527
1059.001	615.632	79.996	19.993	99.900	20.528	10.066	0.492
1060.500	616.431	79.994	19.992	99.900	20.534	9.628	0.522
1062.000	617.142	79.995	19.993	99.901	20.530	9.905	0.462
1063.501	617.908	79.994	19.992	99.892	20.527	10.162	0.499
1065.000	618.688	79.993	19.992	99.894	20.528	10.101	0.520
1066.500	619.485	79.993	19.991	99.885	20.529	9.984	0.553
1068.001	620.248	79.992	19.991	99.881	20.523	10.400	0.508
1069.500	621.027	79.994	19.992	99.898	20.525	10.272	0.527
1071.000	621.750	79.994	19.992	99.908	20.530	9.928	0.490
1072.501	622.548	79.995	19.991	99.894	20.526	10.211	0.542
1074.000	623.319	79.992	19.991	99.900	20.523	10.400	0.511
1075.500	624.064	79.994	19.993	99.905	20.524	10.376	0.504
1077.000	624.804	79.994	19.993	99.896	20.524	10.392	0.489
1078.500	625.528	79.993	19.992	99.884	20.525	10.303	0.468
1080.000	626.290	79.993	19.992	99.884	20.523	10.458	0.512
1081.500	627.099	79.995	19.993	99.895	20.527	10.140	0.540
1083.001	627.829	79.995	19.992	99.904	20.528	10.079	0.484
1084.501	628.597	79.994	19.993	99.902	20.522	10.535	0.492
1086.000	629.371	79.995	19.993	99.905	20.526	10.203	0.510
1087.500	630.110	79.994	19.992	99.901	20.524	10.363	0.525
1089.001	630.825	79.994	19.994	99.904	20.525	10.310	0.486
1090.500	631.587	79.993	19.994	99.907	20.524	10.377	0.533
1092.000	632.345	79.994	19.994	99.907	20.522	10.475	0.515
1093.500	633.116	79.993	19.993	99.907	20.525	10.272	0.520
1095.000	633.921	79.994	19.994	99.905	20.523	10.404	0.549
1096.500	634.718	79.993	19.993	99.908	20.523	10.444	0.524
1098.000	635.472	79.994	19.993	99.900	20.522	10.477	0.492
1099.500	636.271	79.993	19.993	99.893	20.528	10.082	0.522
1101.000	637.016	79.992	19.994	99.898	20.526	10.202	0.502
1102.500	637.796	79.994	19.993	99.896	20.526	10.181	0.524
1104.000	638.563	79.994	19.995	99.901	20.525	10.257	0.539
1105.501	639.332	79.994	19.995	99.900	20.525	10.292	0.499
1107.000	640.081	79.992	19.993	99.893	20.522	10.528	0.508
1108.500	640.892	79.994	19.995	99.892	20.521	10.547	0.568
1110.000	641.613	79.995	19.993	99.902	20.524	10.379	0.484
1111.500	642.387	79.995	19.995	99.897	20.529	10.003	0.519
1113.000	643.163	79.995	19.993	99.893	20.531	9.824	0.511
1114.501	643.969	79.995	19.994	99.898	20.532	9.749	0.538
1116.000	644.710	79.995	19.994	99.898	20.526	10.211	0.502
1117.500	645.466	79.996	19.993	99.891	20.523	10.407	0.510
1119.000	646.198	79.995	19.994	99.888	20.527	10.165	0.483
1120.500	646.990	79.995	19.994	99.876	20.523	10.400	0.496
1122.000	647.750	79.994	19.994	99.880	20.523	10.462	0.509
1123.501	648.554	79.995	19.994	99.882	20.523	10.422	0.536
1125.000	649.351	79.993	19.993	99.884	20.522	10.511	0.534
1126.500	650.108	79.995	19.993	99.902	20.527	10.171	0.498
1128.000	650.899	79.995	19.995	99.897	20.524	10.346	0.514
1129.500	651.663	79.996	19.993	99.891	20.528	10.092	0.517
1131.000	652.442	79.996	19.993	99.883	20.523	10.448	0.529
1132.501	653.159	79.994	19.992	99.883	20.528	10.079	0.491
1134.000	653.917	79.995	19.993	99.893	20.530	9.951	0.506
1135.500	654.703	79.996	19.991	99.895	20.525	10.323	0.533
1137.001	655.446	79.997	19.993	99.889	20.525	10.261	0.496
1138.500	656.327	79.996	19.991	99.890	20.522	10.506	0.548
1140.001	656.980	79.996	19.992	99.897	20.524	10.390	0.427
1141.500	657.747	79.996	19.991	99.893	20.524	10.388	0.509
1143.000	658.549	79.997	19.992	99.885	20.524	10.365	0.530
1144.501	659.264	79.994	19.991	99.888	20.524	10.349	0.488
1146.000	660.035	79.995	19.992	99.888	20.522	10.483	0.510
1147.501	660.805	79.993	19.993	99.877	20.523	10.438	0.509
1149.000	661.564	79.994	19.993	99.881	20.524	10.340	0.515
1150.500	662.356	79.995	19.993	99.884	20.526	10.216	0.541
1152.000	663.093	79.995	19.993	99.880	20.526	10.212	0.489
1153.500	663.800	79.994	19.992	99.874	20.525	10.284	0.477
1155.001	664.564	79.995	19.991	99.875	20.525	10.307	0.491
1156.501	665.383	79.994	19.992	99.876	20.524	10.350	0.516
1158.001	666.089	79.994	19.991	99.879	20.523	10.448	0.460
1159.500	666.847	79.994	19.993	99.877	20.522	10.499	0.504
1161.000	667.596	79.994	19.992	99.872	20.524	10.345	0.482
1162.500	668.377	79.995	19.992	99.874	20.521	10.567	0.510
1164.000	669.147	79.994	19.991	99.879	20.524	10.335	0.500
1165.501	669.885	79.994	19.992	99.887	20.519	10.707	0.496
1167.000	670.659	79.994	19.992	99.876	20.523	10.418	0.507
1168.501	671.420	79.996	19.992	99.873	20.523	10.419	0.505
1170.001	672.148	79.994	19.991	99.873	20.520	10.638	0.505
1171.501	672.888	79.994	19.992	99.875	20.521	10.593	0.505
1173.000	673.664	79.994	19.993	99.879	20.526	10.208	0.518
1174.501	674.437	79.994	19.994	99.881	20.524	10.361	0.535
1176.001	675.208	79.995	19.993	99.881	20.523	10.427	0.531
1177.500	675.947	79.996	19.993	99.888	20.525	10.299	0.467
1179.001	676.726	79.994	19.993	99.894	20.522	10.540	0.544
1180.501	677.462	79.993	19.995	99.882	20.527	10.119	0.472
1182.000	678.240	79.993	19.994	99.879	20.526	10.196	0.526
1183.501	679.004	79.994	19.994	99.874	20.526	10.248	0.499
1185.000	679.748	79.994	19.993	99.874	20.525	10.270	0.500
1186.501	680.496	79.994	19.993	99.876	20.526	10.200	0.504
1188.000	681.265	79.994	19.994	99.888	20.521	10.548	0.518
1189.500	682.061	79.993	19.994	99.882	20.522	10.518	0.523
1191.000	682.768	79.994	19.994	99.878	20.522	10.477	0.476
1192.500	683.587	79.994	19.992	99.880	20.520	10.670	0.559
1194.000	684.322	79.996	19.993	99.880	20.523	10.411	0.453
1195.501	685.116	79.995	19.992	99.885	20.524	10.376	0.532
1197.000	685.893	79.994	19.992	99.876	20.525	10.276	0.499
1198.500	686.639	79.993	19.993	99.872	20.522	10.481	0.513
1200.000	687.367	79.994	19.994	99.877	20.520	10.687	0.480
1201.500	688.072	79.993	19.993	99.874	20.522	10.500	0.472
1203.001	688.858	79.993	19.992	99.872	20.519	10.701	0.543
1204.501	689.596	79.994	19.994	99.872	20.519	10.719	0.500
1206.001	690.332	79.992	19.993	99.879	20.515	11.026	0.499
1207.501	691.113	79.994	19.993	99.883	20.517	10.871	0.518
1209.000	691.846	79.993	19.992	99.877	20.518	10.800	0.475
1210.500	692.607	79.994	19.993	99.874	20.518	10.822	0.526
1212.000	693.375	79.994	19.993	99.878	20.516	10.936	0.513
1213.500	694.107	79.993	19.994	99.879	20.520	10.625	0.460
1215.000	694.912	79.995	19.993	99.877	20.521	10.607	0.550
1216.500	695.630	79.995	19.991	99.873	20.520	10.678	0.479
1218.001	696.402	79.996	19.991	99.871	20.519	10.761	0.493
1219.500	697.148	79.996	19.992	99.871	20.519	10.702	0.514
1221.000	697.911	79.997	19.992	99.870	20.516	10.990	0.518
1222.501	698.686	79.995	19.992	99.869	20.520	10.668	0.517
1224.000	699.429	79.996	19.992	99.871	20.518	10.825	0.501
1225.500	700.206	79.995	19.992	99.875	20.519	10.731	0.505
1227.000	700.938	79.994	19.992	99.871	20.515	11.036	0.489
1228.501	701.770	79.995	19.992	99.870	20.515	11.028	0.549
1230.000	702.522	79.994	19.993	99.870	20.517	10.902	0.484
1231.500	703.233	79.993	19.992	99.870	20.513	11.161	0.468
1233.000	704.013	79.994	19.992	99.871	20.517	10.857	0.519
1234.500	704.748	79.992	19.993	99.873	20.514	11.112	0.505
1236.000	705.525	79.992	19.992	99.871	20.515	11.063	0.523
1237.501	706.319	79.992	19.993	99.868	20.510	11.369	0.523
1239.001	707.039	79.993	19.993	99.871	20.514	11.134	0.478
1240.500	707.845	79.992	19.992	99.873	20.513	11.182	0.528
1242.000	708.633	79.993	19.990	99.872	20.512	11.280	0.549
1243.500	709.376	79.994	19.992	99.871	20.516	10.925	0.501
1245.000	710.171	79.994	19.992	99.871	20.514	11.098	0.540
1246.500	710.909	79.993	19.992	99.872	20.514	11.123	0.493
1248.000	711.668	79.994	19.992	99.873	20.512	11.228	0.485
1249.501	712.428	79.993	19.991	99.873	20.512	11.279	0.521
1251.000	713.174	79.994	19.991	99.876	20.512	11.249	0.510
1252.501	713.952	79.994	19.992	99.881	20.513	11.171	0.522
1254.000	714.754	79.993	19.992	99.876	20.515	10.994	0.526
1255.500	715.544	79.993	19.993	99.876	20.513	11.206	0.535
1257.000	716.333	79.995	19.991	99.876	20.514	11.130	0.520
1258.500	717.091	79.993	19.992	99.876	20.514	11.128	0.508
1260.000	717.847	79.992	19.993	99.876	20.516	10.953	0.508
1261.500	718.582	79.992	19.991	99.876	20.515	11.004	0.510
1263.001	719.394	79.992	19.992	99.875	20.512	11.216	0.527
1264.501	720.155	79.992	19.993	99.874	20.517	10.902	0.513
1266.001	720.918	79.992	19.992	99.875	20.512	11.289	0.516
1267.500	721.673	79.992	19.993	99.876	20.511	11.356	0.530
1269.000	722.427	79.993	19.992	99.870	20.513	11.150	0.492
1270.501	723.193	79.992	19.993	99.869	20.511	11.305	0.506
1272.000	723.970	79.992	19.992	99.875	20.509	11.466	0.540
1273.500	724.729	79.993	19.992	99.875	20.511	11.325	0.514
1275.000	725.523	79.994	19.992	99.873	20.510	11.425	0.520
1276.500	726.276	79.994	19.991	99.872	20.511	11.350	0.516
1278.000	727.031	79.995	19.992	99.873	20.506	11.720	0.497
1279.500	727.799	79.996	19.992	99.871	20.506	11.702	0.505
1281.000	728.545	79.995	19.991	99.872	20.506	11.663	0.508
1282.501	729.293	79.996	19.993	99.871	20.506	11.728	0.512
1284.001	730.058	79.996	19.992	99.869	20.510	11.403	0.493
1285.500	730.832	79.997	19.994	99.868	20.512	11.289	0.519
1287.000	731.618	79.994	19.992	99.869	20.509	11.450	0.515
1288.500	732.391	79.994	19.993	99.869	20.508	11.523	0.504
1290.000	733.099	79.994	19.993	99.868	20.509	11.509	0.473
1291.501	733.859	79.994	19.992	99.869	20.506	11.733	0.526
1293.001	734.590	79.994	19.993	99.868	20.503	11.940	0.466
1294.501	735.350	79.993	19.994	99.868	20.503	11.910	0.497
1296.000	736.103	79.995	19.993	99.870	20.508	11.584	0.513
1297.500	736.835	79.996	19.993	99.869	20.507	11.629	0.505
1299.000	737.639	79.996	19.993	99.869	20.507	11.604	0.537
1300.500	738.406	79.996	19.992	99.869	20.509	11.480	0.501
1302.000	739.165	79.996	19.993	99.869	20.511	11.303	0.523
1303.500	739.917	79.998	19.993	99.870	20.514	11.138	0.503
1305.000	740.688	79.999	19.992	99.869	20.511	11.297	0.516
1306.500	741.425	79.997	19.992	99.869	20.511	11.322	0.526
1308.000	742.196	79.997	19.991	99.870	20.506	11.674	0.514
1309.500	742.978	79.997	19.992	99.869	20.507	11.607	0.513
1310.500	743.475	79.997	19.992	99.867	20.509	11.505	0.506