File: 01_Data/OSB/MCC/OSB_MCC_30K_min_210308_R2.txt
Sample ID:	C:\MCC\MCC Cal\Test\OSB_30_2.txt
Sample Weight (mg):	4.63
Heating Rate (C/s):	0.5
Combustor Temp (C):	900
N2 Flow Rate (cc/min):	80
O2 Flow Rate (cc/min):	20
Calibration File:	C:\MCC\MCC Cal\Coeff1 JN10440_30_210304.txt.txt
T Correction Coefficients:	0	1.024463	0
Time Shift (s):	14
*
Time (s)	Temperature (C)	N2 flow rate (cc/min)	O2 flow rate (cc/min)	Flow Rate (cc/min)	Oxygen (%)	HRR (W/g)	Heating rate (C/s)
0.000	110.777	79.998	19.992	99.361	20.628	-0.163	-0.024
1.500	110.798	79.997	19.991	99.360	20.625	-0.005	-0.006
3.000	110.756	79.996	19.992	99.360	20.628	-0.171	-0.024
4.500	110.750	79.997	19.991	99.355	20.627	-0.123	-0.015
6.000	110.726	79.997	19.992	99.351	20.628	-0.183	-0.010
7.500	110.734	79.995	19.991	99.338	20.629	-0.268	-0.010
9.000	110.749	79.998	19.992	99.343	20.627	-0.099	-0.000
10.500	110.718	79.995	19.992	99.353	20.624	0.055	-0.020
12.000	110.724	79.996	19.992	99.349	20.631	-0.405	0.006
13.500	110.703	79.998	19.992	99.357	20.629	-0.226	-0.011
15.001	110.661	79.998	19.991	99.370	20.626	-0.024	-0.015
16.501	110.692	79.997	19.992	99.384	20.627	-0.099	0.033
18.000	110.684	79.999	19.991	99.397	20.628	-0.156	-0.012
19.500	110.663	80.000	19.991	99.401	20.623	0.141	-0.027
21.000	110.698	79.997	19.992	99.414	20.620	0.378	0.009
22.500	110.676	79.995	19.991	99.439	20.620	0.323	-0.011
24.000	110.757	79.997	19.991	99.442	20.615	0.657	0.045
25.501	110.780	79.999	19.991	99.451	20.617	0.560	0.050
27.000	110.865	79.995	19.992	99.458	20.616	0.623	0.038
28.500	110.971	79.995	19.992	99.477	20.613	0.788	0.048
30.000	111.058	79.996	19.992	99.490	20.612	0.871	0.066
31.500	111.133	79.997	19.992	99.495	20.602	1.529	0.055
33.000	111.290	79.995	19.993	99.507	20.602	1.580	0.114
34.500	111.423	79.993	19.992	99.526	20.602	1.532	0.087
36.000	111.571	79.996	19.992	99.545	20.597	1.918	0.103
37.501	111.789	79.995	19.992	99.558	20.598	1.845	0.140
39.000	111.989	79.994	19.991	99.564	20.596	1.939	0.154
40.500	112.227	79.995	19.992	99.568	20.588	2.510	0.158
42.000	112.421	79.995	19.991	99.568	20.591	2.317	0.139
43.500	112.714	79.995	19.991	99.570	20.591	2.275	0.190
45.000	112.962	79.994	19.991	99.573	20.587	2.588	0.157
46.500	113.198	79.995	19.990	99.581	20.587	2.571	0.180
48.001	113.550	79.994	19.991	99.600	20.583	2.830	0.231
49.501	113.832	79.995	19.991	99.602	20.585	2.700	0.210
51.001	114.163	79.994	19.991	99.599	20.584	2.777	0.229
52.500	114.509	79.994	19.991	99.599	20.582	2.931	0.201
54.000	114.883	79.996	19.991	99.599	20.580	3.025	0.287
55.500	115.288	79.996	19.991	99.599	20.582	2.895	0.314
57.001	115.662	79.996	19.991	99.604	20.578	3.179	0.225
58.500	116.048	79.996	19.991	99.609	20.585	2.667	0.275
60.000	116.533	79.996	19.991	99.606	20.583	2.834	0.320
61.500	116.896	79.995	19.991	99.608	20.581	2.997	0.267
63.001	117.431	79.995	19.991	99.604	20.580	3.033	0.329
64.501	117.799	79.996	19.991	99.610	20.577	3.250	0.300
66.000	118.308	79.996	19.992	99.624	20.577	3.206	0.344
67.501	118.749	79.995	19.992	99.611	20.583	2.840	0.302
69.000	119.235	79.998	19.992	99.606	20.579	3.112	0.353
70.501	119.728	79.996	19.991	99.608	20.580	3.033	0.326
72.000	120.248	79.998	19.991	99.604	20.580	3.011	0.328
73.501	120.795	79.998	19.992	99.612	20.580	3.036	0.379
75.000	121.295	79.999	19.991	99.621	20.583	2.847	0.339
76.500	121.818	80.000	19.991	99.619	20.581	2.978	0.350
78.000	122.336	79.998	19.990	99.631	20.585	2.694	0.363
79.501	122.846	79.998	19.991	99.634	20.578	3.200	0.289
81.000	123.415	79.997	19.991	99.618	20.581	2.970	0.377
82.500	123.967	79.996	19.991	99.618	20.580	3.042	0.351
84.001	124.541	79.998	19.992	99.618	20.574	3.425	0.382
85.501	125.164	79.999	19.992	99.613	20.573	3.531	0.421
87.000	125.705	79.994	19.991	99.618	20.576	3.325	0.370
88.500	126.260	79.996	19.991	99.614	20.577	3.243	0.377
90.000	126.862	79.997	19.991	99.619	20.574	3.469	0.393
91.501	127.456	79.997	19.991	99.622	20.577	3.259	0.400
93.001	128.022	79.996	19.991	99.623	20.575	3.379	0.367
94.500	128.658	79.996	19.991	99.629	20.571	3.671	0.405
96.001	129.202	79.997	19.992	99.619	20.576	3.322	0.377
97.500	129.835	80.001	19.991	99.621	20.580	3.004	0.400
99.001	130.430	80.001	19.991	99.637	20.582	2.896	0.417
100.500	131.039	79.999	19.992	99.637	20.578	3.193	0.400
102.000	131.635	79.995	19.992	99.635	20.577	3.228	0.396
103.500	132.272	79.997	19.992	99.636	20.579	3.085	0.441
105.000	132.907	79.996	19.992	99.637	20.582	2.910	0.419
106.500	133.494	79.996	19.991	99.636	20.579	3.094	0.390
108.001	134.180	79.995	19.991	99.639	20.579	3.103	0.435
109.500	134.839	79.995	19.991	99.640	20.579	3.127	0.428
111.001	135.477	79.995	19.991	99.638	20.578	3.193	0.406
112.500	136.154	79.994	19.991	99.637	20.578	3.179	0.460
114.000	136.816	79.996	19.992	99.637	20.580	3.043	0.448
115.500	137.488	79.993	19.992	99.638	20.577	3.232	0.473
117.000	138.140	79.993	19.992	99.638	20.582	2.932	0.436
118.501	138.808	79.994	19.992	99.637	20.580	3.034	0.431
120.000	139.498	79.995	19.993	99.638	20.579	3.118	0.467
121.500	140.135	79.993	19.992	99.637	20.579	3.072	0.429
123.000	140.835	79.993	19.992	99.636	20.578	3.193	0.438
124.501	141.496	79.991	19.993	99.635	20.579	3.089	0.450
126.000	142.239	79.992	19.992	99.639	20.579	3.096	0.473
127.500	142.930	79.996	19.992	99.641	20.578	3.162	0.468
129.000	143.623	79.995	19.992	99.641	20.577	3.252	0.469
130.500	144.379	79.995	19.992	99.642	20.577	3.245	0.483
132.000	145.072	79.997	19.991	99.638	20.577	3.238	0.443
133.500	145.744	79.995	19.991	99.637	20.575	3.368	0.432
135.000	146.460	79.997	19.991	99.639	20.578	3.162	0.475
136.500	147.208	79.996	19.991	99.638	20.577	3.250	0.498
138.000	147.875	79.994	19.991	99.637	20.577	3.262	0.457
139.500	148.605	79.996	19.991	99.637	20.575	3.400	0.504
141.000	149.324	79.995	19.992	99.639	20.575	3.398	0.476
142.500	150.019	79.995	19.991	99.641	20.574	3.472	0.462
144.000	150.748	79.993	19.992	99.639	20.572	3.547	0.471
145.500	151.456	79.994	19.991	99.638	20.574	3.425	0.476
147.000	152.153	79.995	19.991	99.650	20.573	3.494	0.460
148.500	152.921	79.994	19.991	99.606	20.576	3.284	0.517
150.000	153.647	79.995	19.991	99.613	20.574	3.422	0.496
151.500	154.374	79.996	19.991	99.705	20.577	3.262	0.482
153.000	155.068	79.998	19.991	99.679	20.575	3.339	0.452
154.500	155.778	79.995	19.991	99.656	20.575	3.370	0.491
156.000	156.522	79.997	19.991	99.653	20.574	3.426	0.495
157.500	157.315	79.994	19.991	99.655	20.573	3.540	0.519
159.000	158.057	79.998	19.991	99.664	20.571	3.619	0.497
160.500	158.771	79.997	19.991	99.663	20.574	3.441	0.483
162.000	159.553	79.996	19.991	99.659	20.574	3.442	0.521
163.500	160.295	79.996	19.990	99.650	20.571	3.634	0.509
165.000	161.072	79.994	19.991	99.643	20.572	3.602	0.530
166.500	161.811	79.996	19.991	99.650	20.566	3.982	0.489
168.000	162.569	79.995	19.991	99.657	20.566	3.995	0.500
169.500	163.319	80.000	19.990	99.657	20.566	3.966	0.499
171.000	164.102	79.994	19.991	99.665	20.566	3.990	0.524
172.500	164.831	79.995	19.991	99.661	20.564	4.078	0.482
174.000	165.623	79.998	19.990	99.659	20.566	3.995	0.547
175.500	166.403	79.996	19.990	99.666	20.566	3.981	0.516
177.000	167.126	79.996	19.991	99.653	20.563	4.192	0.506
178.500	167.918	79.997	19.990	99.642	20.566	3.983	0.516
180.000	168.628	79.996	19.991	99.641	20.563	4.155	0.480
181.500	169.427	79.998	19.991	99.645	20.565	4.015	0.532
183.000	170.209	79.998	19.991	99.641	20.562	4.212	0.522
184.500	170.918	79.997	19.991	99.637	20.564	4.133	0.468
186.000	171.703	79.997	19.991	99.644	20.561	4.331	0.530
187.500	172.466	79.995	19.991	99.654	20.562	4.252	0.508
189.000	173.239	79.998	19.991	99.654	20.565	4.026	0.506
190.500	173.981	79.994	19.991	99.658	20.562	4.274	0.507
192.000	174.784	79.995	19.992	99.645	20.566	3.984	0.550
193.500	175.543	79.997	19.992	99.640	20.564	4.129	0.537
195.000	176.315	79.995	19.991	99.642	20.565	4.072	0.513
196.500	177.081	79.994	19.992	99.638	20.562	4.276	0.509
198.000	177.794	79.996	19.992	99.641	20.562	4.243	0.513
199.500	178.587	79.995	19.992	99.642	20.561	4.297	0.505
201.000	179.358	79.997	19.991	99.641	20.556	4.653	0.511
202.500	180.114	79.995	19.992	99.638	20.560	4.374	0.505
204.000	180.849	79.996	19.992	99.641	20.563	4.164	0.488
205.500	181.656	79.997	19.992	99.638	20.562	4.236	0.532
207.000	182.427	79.998	19.992	99.638	20.554	4.751	0.523
208.500	183.178	79.995	19.993	99.642	20.559	4.471	0.484
210.000	183.899	79.995	19.993	99.641	20.557	4.565	0.493
211.501	184.653	79.994	19.993	99.639	20.554	4.797	0.504
213.000	185.449	79.994	19.992	99.640	20.553	4.847	0.539
214.500	186.199	79.994	19.993	99.642	20.552	4.895	0.491
216.000	186.928	79.994	19.992	99.646	20.552	4.950	0.480
217.500	187.718	79.993	19.993	99.643	20.555	4.737	0.513
219.000	188.434	79.995	19.992	99.641	20.549	5.125	0.463
220.500	189.162	79.993	19.992	99.640	20.551	4.985	0.494
222.000	189.951	79.994	19.991	99.646	20.548	5.195	0.539
223.500	190.658	79.995	19.991	99.649	20.550	5.069	0.468
225.000	191.394	79.995	19.991	99.651	20.550	5.082	0.491
226.500	192.146	79.995	19.991	99.647	20.547	5.271	0.507
228.001	192.866	79.995	19.991	99.657	20.546	5.288	0.478
229.500	193.632	79.996	19.992	99.664	20.546	5.292	0.513
231.000	194.358	79.996	19.991	99.664	20.550	5.058	0.487
232.500	195.145	79.999	19.991	99.671	20.549	5.143	0.501
234.000	195.874	79.999	19.991	99.660	20.544	5.426	0.473
235.500	196.608	79.997	19.991	99.645	20.542	5.558	0.511
237.000	197.316	79.997	19.992	99.640	20.541	5.658	0.487
238.500	198.118	79.996	19.991	99.649	20.540	5.705	0.513
240.000	198.803	79.999	19.991	99.658	20.537	5.902	0.460
241.500	199.510	79.998	19.992	99.653	20.535	6.029	0.475
243.000	200.278	79.998	19.993	99.662	20.534	6.138	0.520
244.500	201.041	79.997	19.992	99.665	20.535	6.062	0.500
246.000	201.801	79.996	19.992	99.653	20.533	6.185	0.501
247.500	202.514	79.999	19.992	99.651	20.533	6.193	0.478
249.000	203.252	79.998	19.991	99.654	20.530	6.391	0.514
250.500	203.960	79.995	19.991	99.646	20.534	6.109	0.465
252.000	204.690	79.995	19.991	99.651	20.530	6.418	0.478
253.500	205.421	79.996	19.991	99.651	20.528	6.551	0.501
255.000	206.178	79.999	19.991	99.655	20.528	6.534	0.500
256.500	206.942	79.997	19.990	99.645	20.525	6.742	0.496
258.000	207.641	79.997	19.991	99.660	20.528	6.560	0.454
259.500	208.386	80.000	19.991	99.670	20.524	6.792	0.505
261.000	209.071	80.000	19.990	99.665	20.524	6.779	0.454
262.500	209.826	80.000	19.991	99.664	20.520	7.046	0.490
264.000	210.578	79.998	19.992	99.673	20.519	7.125	0.503
265.500	211.305	80.000	19.992	99.671	20.523	6.884	0.484
267.000	212.013	79.996	19.991	99.671	20.518	7.221	0.474
268.500	212.749	79.995	19.992	99.666	20.516	7.318	0.478
270.000	213.491	79.994	19.991	99.670	20.520	7.063	0.470
271.500	214.233	79.995	19.992	99.674	20.517	7.292	0.511
273.000	214.945	79.996	19.992	99.675	20.516	7.311	0.487
274.500	215.649	79.992	19.992	99.675	20.516	7.351	0.464
276.000	216.436	79.996	19.992	99.676	20.512	7.579	0.517
277.500	217.124	79.993	19.992	99.677	20.511	7.701	0.445
279.000	217.911	79.996	19.992	99.680	20.509	7.791	0.525
280.500	218.657	79.995	19.992	99.682	20.513	7.526	0.504
282.000	219.355	79.995	19.991	99.680	20.507	7.951	0.475
283.500	220.115	79.998	19.991	99.678	20.508	7.905	0.499
285.000	220.824	79.995	19.991	99.678	20.510	7.771	0.473
286.500	221.530	79.995	19.992	99.678	20.502	8.249	0.461
288.000	222.289	79.993	19.992	99.678	20.501	8.327	0.497
289.500	223.024	79.995	19.992	99.679	20.499	8.463	0.493
291.000	223.754	79.993	19.992	99.679	20.499	8.471	0.486
292.500	224.482	79.992	19.991	99.682	20.497	8.617	0.507
294.000	225.240	79.993	19.991	99.683	20.494	8.837	0.489
295.500	225.998	79.994	19.992	99.686	20.498	8.552	0.478
297.000	226.725	79.994	19.992	99.684	20.496	8.663	0.490
298.500	227.477	79.993	19.991	99.684	20.493	8.907	0.519
300.000	228.250	79.992	19.993	99.686	20.495	8.756	0.509
301.500	228.963	79.994	19.992	99.679	20.494	8.829	0.503
303.000	229.710	79.994	19.992	99.681	20.490	9.093	0.509
304.500	230.428	79.995	19.992	99.690	20.495	8.745	0.483
306.000	231.151	79.993	19.992	99.698	20.495	8.739	0.481
307.500	231.894	79.995	19.991	99.684	20.492	8.959	0.485
309.000	232.704	79.997	19.991	99.691	20.493	8.906	0.514
310.500	233.460	79.997	19.991	99.706	20.492	8.956	0.499
312.000	234.205	79.995	19.992	99.687	20.488	9.235	0.504
313.500	234.914	79.997	19.991	99.697	20.487	9.288	0.498
315.000	235.712	79.998	19.991	99.700	20.485	9.441	0.520
316.500	236.498	79.999	19.990	99.689	20.480	9.763	0.521
318.000	237.199	79.997	19.991	99.697	20.480	9.758	0.506
319.501	237.963	79.996	19.990	99.702	20.479	9.848	0.510
321.000	238.729	79.997	19.991	99.708	20.481	9.716	0.532
322.500	239.437	79.998	19.991	99.702	20.478	9.924	0.480
324.000	240.179	79.997	19.991	99.703	20.476	10.027	0.506
325.500	240.922	79.998	19.992	99.704	20.476	10.055	0.492
327.000	241.654	79.998	19.992	99.701	20.480	9.777	0.521
328.500	242.426	79.995	19.992	99.705	20.478	9.918	0.517
330.000	243.140	79.995	19.992	99.704	20.475	10.082	0.476
331.500	243.949	79.997	19.991	99.710	20.475	10.116	0.558
333.000	244.695	79.997	19.991	99.715	20.471	10.359	0.500
334.500	245.453	79.997	19.992	99.711	20.470	10.447	0.528
336.000	246.204	79.999	19.991	99.715	20.467	10.651	0.517
337.500	246.942	79.998	19.991	99.716	20.468	10.564	0.515
339.000	247.704	79.997	19.991	99.713	20.464	10.846	0.512
340.500	248.474	79.998	19.990	99.715	20.463	10.919	0.510
342.000	249.290	80.000	19.990	99.718	20.464	10.844	0.519
343.500	250.058	79.997	19.991	99.717	20.462	11.003	0.531
345.000	250.829	79.996	19.990	99.719	20.460	11.132	0.516
346.500	251.561	79.996	19.990	99.721	20.457	11.288	0.499
348.000	252.259	79.996	19.991	99.721	20.458	11.243	0.483
349.500	253.065	79.995	19.992	99.731	20.452	11.625	0.523
351.000	253.787	79.993	19.992	99.743	20.447	11.977	0.468
352.500	254.528	79.996	19.991	99.748	20.447	12.004	0.499
354.000	255.335	79.996	19.992	99.741	20.447	12.011	0.522
355.500	256.071	79.994	19.992	99.728	20.442	12.314	0.489
357.000	256.873	79.994	19.992	99.737	20.436	12.713	0.519
358.500	257.583	79.995	19.992	99.736	20.433	12.943	0.475
360.000	258.363	79.994	19.992	99.689	20.431	13.028	0.535
361.500	259.122	79.996	19.992	99.706	20.430	13.091	0.511
363.000	259.845	79.995	19.992	99.746	20.423	13.584	0.498
364.500	260.578	79.995	19.992	99.760	20.426	13.405	0.482
366.001	261.322	79.994	19.992	99.805	20.422	13.660	0.498
367.500	262.092	79.994	19.991	99.783	20.415	14.116	0.499
369.000	262.818	79.996	19.991	99.753	20.414	14.172	0.494
370.501	263.528	79.996	19.992	99.752	20.406	14.715	0.480
372.000	264.352	79.996	19.992	99.707	20.403	14.918	0.537
373.500	265.089	79.996	19.992	99.728	20.400	15.168	0.493
375.000	265.837	79.996	19.991	99.755	20.401	15.065	0.514
376.500	266.594	79.995	19.992	99.768	20.393	15.630	0.483
378.000	267.340	79.993	19.993	99.815	20.392	15.676	0.508
379.500	268.105	79.994	19.992	99.728	20.387	15.998	0.507
381.000	268.831	79.994	19.993	99.734	20.383	16.275	0.483
382.500	269.631	79.994	19.993	99.792	20.379	16.581	0.537
384.000	270.389	79.995	19.992	99.830	20.374	16.861	0.502
385.500	271.173	79.994	19.992	99.799	20.372	17.031	0.527
387.000	271.879	79.995	19.993	99.770	20.366	17.443	0.481
388.500	272.635	79.996	19.993	99.761	20.362	17.728	0.515
390.000	273.393	79.996	19.992	99.769	20.359	17.903	0.499
391.500	274.129	79.994	19.992	99.778	20.356	18.073	0.489
393.000	274.893	79.997	19.992	99.785	20.354	18.234	0.504
394.500	275.615	79.997	19.991	99.787	20.349	18.602	0.458
396.000	276.388	79.997	19.992	99.788	20.342	19.079	0.510
397.500	277.153	79.996	19.992	99.793	20.337	19.392	0.508
399.000	277.881	79.995	19.991	99.794	20.333	19.690	0.479
400.500	278.645	79.995	19.992	99.793	20.329	19.897	0.512
402.000	279.384	79.995	19.992	99.796	20.324	20.232	0.485
403.500	280.102	79.996	19.992	99.800	20.323	20.339	0.490
405.000	280.859	79.994	19.991	99.802	20.319	20.580	0.496
406.500	281.624	79.995	19.990	99.798	20.315	20.890	0.515
408.000	282.419	79.997	19.991	99.801	20.308	21.330	0.521
409.500	283.191	79.997	19.992	99.823	20.302	21.735	0.506
411.000	283.886	79.998	19.991	99.823	20.300	21.859	0.464
412.500	284.667	79.997	19.991	99.819	20.294	22.278	0.530
414.000	285.414	79.998	19.992	99.816	20.286	22.829	0.487
415.500	286.164	79.996	19.990	99.815	20.285	22.893	0.482
417.000	286.950	79.998	19.990	99.824	20.280	23.236	0.533
418.500	287.718	79.997	19.991	99.822	20.276	23.502	0.491
420.000	288.416	79.998	19.991	99.828	20.269	23.934	0.481
421.500	289.186	79.998	19.991	99.833	20.265	24.237	0.514
423.000	289.959	79.998	19.991	99.834	20.258	24.698	0.478
424.500	290.687	79.997	19.990	99.835	20.254	24.938	0.488
426.000	291.498	79.996	19.990	99.834	20.245	25.577	0.527
427.500	292.210	79.997	19.990	99.834	20.241	25.851	0.501
429.000	292.985	79.996	19.991	99.833	20.232	26.467	0.541
430.500	293.731	79.995	19.992	99.833	20.230	26.606	0.483
432.001	294.493	79.994	19.991	99.834	20.223	27.052	0.512
433.500	295.232	79.994	19.991	99.811	20.216	27.502	0.496
435.000	295.990	79.994	19.991	99.785	20.212	27.816	0.513
436.500	296.696	79.995	19.992	99.830	20.206	28.205	0.498
438.000	297.490	79.995	19.990	99.903	20.199	28.662	0.546
439.500	298.224	79.994	19.991	99.874	20.193	29.120	0.508
441.000	299.012	79.994	19.993	99.858	20.187	29.513	0.545
442.500	299.745	79.995	19.992	99.858	20.182	29.832	0.480
444.000	300.481	79.994	19.991	99.856	20.172	30.486	0.504
445.500	301.194	79.997	19.992	99.864	20.166	30.921	0.488
447.000	302.028	79.995	19.992	99.872	20.160	31.306	0.547
448.500	302.740	79.995	19.991	99.867	20.155	31.665	0.480
450.000	303.533	79.996	19.992	99.867	20.147	32.214	0.526
451.500	304.253	79.995	19.991	99.869	20.140	32.628	0.472
453.000	305.007	79.995	19.992	99.871	20.131	33.270	0.507
454.500	305.781	79.996	19.991	99.870	20.124	33.730	0.527
456.000	306.532	79.995	19.992	99.870	20.118	34.166	0.492
457.500	307.269	79.994	19.991	99.875	20.110	34.675	0.473
459.000	308.008	79.994	19.992	99.879	20.103	35.125	0.484
460.500	308.754	79.994	19.992	99.890	20.096	35.602	0.504
462.000	309.547	79.993	19.992	99.891	20.090	36.012	0.546
463.500	310.328	79.993	19.991	99.882	20.087	36.261	0.523
465.000	311.099	79.994	19.992	99.890	20.078	36.845	0.536
466.500	311.852	79.995	19.992	99.889	20.071	37.295	0.509
468.000	312.608	79.993	19.992	99.902	20.060	38.046	0.509
469.500	313.342	79.992	19.993	99.907	20.059	38.148	0.487
471.000	314.108	79.996	19.992	99.899	20.048	38.839	0.506
472.500	314.925	79.997	19.992	99.904	20.040	39.375	0.529
474.000	315.671	79.995	19.992	99.910	20.033	39.884	0.494
475.500	316.409	79.996	19.992	99.910	20.026	40.325	0.494
477.000	317.214	79.995	19.992	99.910	20.018	40.924	0.547
478.500	317.952	79.996	19.991	99.913	20.010	41.403	0.475
480.000	318.734	79.996	19.992	99.914	20.004	41.860	0.540
481.500	319.457	79.997	19.992	99.913	19.999	42.149	0.483
483.000	320.261	79.995	19.991	99.914	19.991	42.715	0.533
484.500	320.979	79.997	19.991	99.917	19.980	43.438	0.496
486.000	321.734	79.996	19.990	99.920	19.978	43.580	0.494
487.500	322.486	79.994	19.991	99.935	19.967	44.304	0.493
489.000	323.267	79.994	19.992	99.930	19.960	44.824	0.508
490.500	324.018	79.996	19.992	99.924	19.955	45.156	0.508
492.000	324.816	79.996	19.991	99.923	19.940	46.172	0.533
493.500	325.526	79.997	19.991	99.935	19.937	46.320	0.473
495.000	326.300	79.998	19.991	99.947	19.930	46.824	0.524
496.501	327.087	79.997	19.991	99.942	19.922	47.386	0.535
498.001	327.863	79.996	19.991	99.946	19.915	47.860	0.501
499.500	328.623	79.998	19.991	99.946	19.906	48.456	0.508
501.000	329.399	79.998	19.990	99.943	19.898	49.013	0.517
502.500	330.126	79.995	19.991	99.947	19.892	49.405	0.482
504.000	330.910	79.994	19.992	99.948	19.884	49.919	0.509
505.500	331.616	79.997	19.991	99.949	19.876	50.460	0.470
507.000	332.408	79.995	19.991	99.953	19.868	50.991	0.510
508.500	333.166	79.994	19.991	99.967	19.860	51.560	0.507
510.000	333.971	79.997	19.991	99.972	19.857	51.729	0.527
511.500	334.725	79.995	19.991	99.969	19.847	52.451	0.511
513.000	335.470	79.997	19.991	99.970	19.836	53.202	0.498
514.500	336.266	79.993	19.991	99.963	19.830	53.609	0.529
516.000	336.966	79.997	19.991	99.958	19.821	54.199	0.466
517.500	337.783	79.996	19.991	99.972	19.815	54.583	0.543
519.000	338.597	79.994	19.991	99.984	19.807	55.148	0.537
520.500	339.311	79.994	19.991	99.988	19.799	55.660	0.480
522.000	340.067	79.997	19.990	99.989	19.791	56.254	0.494
523.500	340.836	79.999	19.991	99.991	19.780	56.973	0.505
525.000	341.612	79.998	19.992	99.999	19.773	57.434	0.515
526.500	342.363	79.995	19.991	99.997	19.767	57.846	0.518
528.000	343.103	79.995	19.991	99.993	19.757	58.512	0.457
529.500	343.821	79.997	19.992	99.998	19.750	59.015	0.466
531.000	344.617	79.995	19.992	100.004	19.744	59.402	0.538
532.500	345.363	79.994	19.991	100.011	19.733	60.131	0.527
534.000	346.123	79.994	19.992	100.013	19.727	60.516	0.497
535.500	346.861	79.995	19.993	100.018	19.719	61.088	0.484
537.000	347.640	79.997	19.992	100.022	19.712	61.570	0.541
538.500	348.398	79.994	19.992	100.028	19.707	61.883	0.496
540.000	349.116	79.994	19.992	100.029	19.701	62.289	0.476
541.500	349.931	79.993	19.992	100.031	19.693	62.831	0.531
543.000	350.660	79.994	19.991	100.032	19.684	63.470	0.486
544.500	351.422	79.994	19.992	100.031	19.676	63.988	0.517
546.000	352.216	79.994	19.991	100.031	19.671	64.297	0.527
547.500	352.956	79.995	19.992	100.035	19.664	64.790	0.495
549.000	353.687	79.995	19.992	100.034	19.656	65.314	0.502
550.500	354.478	79.994	19.992	100.033	19.653	65.506	0.502
552.000	355.218	79.995	19.992	100.035	19.647	65.961	0.480
553.500	356.031	79.996	19.992	100.033	19.641	66.369	0.537
555.000	356.745	79.996	19.992	100.030	19.634	66.843	0.486
556.500	357.511	79.997	19.993	100.033	19.633	66.901	0.510
558.000	358.265	79.998	19.992	100.030	19.627	67.275	0.504
559.500	359.033	79.997	19.992	100.027	19.624	67.463	0.522
561.000	359.759	79.995	19.993	100.027	19.620	67.758	0.494
562.500	360.514	79.996	19.993	100.034	19.621	67.694	0.504
564.000	361.324	79.994	19.992	100.032	19.621	67.650	0.519
565.500	362.092	79.994	19.992	100.032	19.618	67.858	0.527
567.000	362.784	79.996	19.992	100.027	19.623	67.526	0.478
568.500	363.551	79.997	19.992	100.027	19.624	67.473	0.489
570.000	364.320	79.996	19.991	100.028	19.628	67.183	0.499
571.500	365.063	79.995	19.992	100.025	19.628	67.200	0.487
573.000	365.803	79.997	19.990	100.019	19.637	66.561	0.510
574.500	366.589	79.998	19.991	100.001	19.640	66.382	0.524
576.000	367.338	79.998	19.991	99.991	19.649	65.724	0.495
577.500	368.163	79.997	19.991	99.988	19.655	65.355	0.551
579.000	368.879	79.998	19.991	99.987	19.669	64.378	0.492
580.500	369.660	79.998	19.991	99.973	19.681	63.547	0.527
582.000	370.365	79.997	19.990	99.955	19.693	62.732	0.462
583.500	371.140	79.998	19.991	99.951	19.712	61.451	0.524
585.000	371.904	79.997	19.992	99.951	19.725	60.565	0.514
586.500	372.704	80.000	19.991	99.946	19.743	59.343	0.543
588.000	373.438	79.994	19.992	99.940	19.765	57.870	0.488
589.500	374.179	79.994	19.991	99.924	19.790	56.217	0.507
591.000	374.920	79.996	19.991	99.915	19.811	54.803	0.500
592.500	375.705	79.994	19.991	99.910	19.835	53.180	0.509
594.000	376.441	79.994	19.992	99.904	19.860	51.474	0.510
595.500	377.227	79.995	19.991	99.887	19.882	50.025	0.523
597.000	377.920	79.992	19.991	99.878	19.912	47.945	0.453
598.500	378.699	79.994	19.991	99.875	19.938	46.201	0.499
600.000	379.469	79.996	19.991	99.861	19.969	44.144	0.525
601.500	380.261	79.996	19.990	99.845	19.993	42.515	0.538
603.000	380.999	79.996	19.990	99.837	20.015	41.013	0.497
604.500	381.808	79.996	19.990	99.835	20.043	39.130	0.514
606.000	382.531	79.996	19.991	99.831	20.072	37.233	0.486
607.500	383.251	79.993	19.991	99.816	20.101	35.286	0.478
609.000	384.039	79.995	19.991	99.801	20.124	33.724	0.525
610.500	384.827	79.993	19.991	99.799	20.152	31.803	0.520
612.000	385.569	79.991	19.991	99.803	20.174	30.333	0.494
613.500	386.355	79.994	19.991	99.809	20.199	28.665	0.508
615.000	387.102	79.995	19.992	99.804	20.221	27.169	0.470
616.501	387.889	79.993	19.992	99.798	20.242	25.765	0.506
618.000	388.581	79.994	19.991	99.796	20.264	24.312	0.495
619.500	389.385	79.993	19.992	99.794	20.283	23.014	0.513
621.000	390.157	79.993	19.992	99.789	20.301	21.816	0.518
622.500	390.915	79.994	19.992	99.791	20.317	20.759	0.518
624.000	391.696	79.993	19.992	99.793	20.331	19.814	0.522
625.500	392.451	79.995	19.991	99.789	20.346	18.749	0.522
627.000	393.269	79.997	19.992	99.790	20.358	17.958	0.536
628.501	394.054	79.998	19.992	99.792	20.367	17.332	0.524
630.000	394.816	79.995	19.991	99.792	20.377	16.721	0.515
631.500	395.604	79.992	19.991	99.792	20.384	16.201	0.524
633.000	396.372	79.997	19.991	99.792	20.395	15.507	0.505
634.500	397.134	79.995	19.991	99.794	20.403	14.929	0.507
636.000	397.937	79.994	19.992	99.798	20.414	14.176	0.510
637.500	398.717	79.990	19.992	99.797	20.421	13.758	0.529
639.000	399.473	79.995	19.992	99.793	20.425	13.456	0.516
640.500	400.230	79.995	19.992	99.793	20.425	13.453	0.522
642.000	400.983	79.994	19.992	99.795	20.430	13.110	0.512
643.500	401.770	79.995	19.992	99.790	20.433	12.937	0.542
645.000	402.531	79.994	19.992	99.790	20.434	12.849	0.516
646.500	403.292	79.995	19.992	99.791	20.444	12.212	0.505
648.000	404.075	79.995	19.993	99.793	20.444	12.206	0.515
649.500	404.872	79.996	19.992	99.793	20.444	12.197	0.516
651.000	405.636	79.996	19.993	99.794	20.448	11.895	0.508
652.500	406.367	79.995	19.991	99.795	20.448	11.902	0.506
654.000	407.183	79.997	19.990	99.793	20.452	11.648	0.533
655.500	407.917	79.996	19.992	99.794	20.455	11.422	0.501
657.000	408.682	79.996	19.991	99.797	20.452	11.640	0.506
658.500	409.424	79.999	19.990	99.798	20.454	11.530	0.473
660.000	410.188	79.997	19.991	99.795	20.458	11.264	0.510
661.500	411.020	79.996	19.990	99.796	20.455	11.437	0.531
663.000	411.752	79.997	19.990	99.795	20.458	11.223	0.505
664.501	412.443	79.994	19.990	99.795	20.457	11.284	0.476
666.000	413.253	79.996	19.991	99.799	20.460	11.087	0.536
667.500	413.991	79.995	19.991	99.799	20.462	10.958	0.500
669.000	414.757	79.995	19.991	99.796	20.462	10.956	0.507
670.500	415.517	79.993	19.991	99.797	20.460	11.131	0.524
672.000	416.266	79.994	19.991	99.800	20.463	10.899	0.506
673.500	417.041	79.994	19.991	99.799	20.466	10.720	0.531
675.000	417.782	79.994	19.991	99.799	20.463	10.917	0.494
676.500	418.573	79.994	19.992	99.799	20.464	10.833	0.510
678.000	419.269	79.993	19.992	99.800	20.465	10.750	0.456
679.500	420.086	79.994	19.991	99.800	20.465	10.772	0.533
681.000	420.809	79.997	19.991	99.798	20.465	10.798	0.495
682.500	421.559	79.996	19.991	99.797	20.466	10.695	0.494
684.000	422.313	79.995	19.991	99.795	20.469	10.505	0.517
685.500	423.078	79.997	19.991	99.792	20.467	10.610	0.503
687.000	423.805	79.997	19.990	99.795	20.469	10.531	0.459
688.500	424.537	79.995	19.991	99.796	20.470	10.451	0.471
690.000	425.340	79.996	19.992	99.795	20.471	10.348	0.546
691.500	426.071	79.997	19.991	99.796	20.475	10.108	0.496
693.000	426.817	79.995	19.990	99.796	20.476	10.029	0.481
694.500	427.569	79.997	19.991	99.801	20.475	10.079	0.484
696.000	428.353	79.994	19.991	99.798	20.477	9.935	0.524
697.500	429.085	79.994	19.991	99.795	20.477	9.947	0.462
699.000	429.869	79.993	19.991	99.795	20.477	9.951	0.513
700.500	430.587	79.993	19.991	99.796	20.477	9.946	0.498
702.000	431.335	79.993	19.991	99.798	20.482	9.627	0.502
703.500	432.140	79.995	19.992	99.803	20.481	9.667	0.555
705.000	432.874	79.994	19.992	99.812	20.485	9.412	0.471
706.500	433.646	79.995	19.992	99.811	20.486	9.343	0.513
708.000	434.437	79.995	19.992	99.801	20.485	9.460	0.520
709.500	435.135	79.995	19.991	99.795	20.484	9.514	0.468
711.000	435.857	79.996	19.991	99.803	20.486	9.331	0.484
712.500	436.694	79.995	19.992	99.806	20.489	9.181	0.544
714.000	437.434	79.995	19.991	99.808	20.487	9.273	0.492
715.500	438.208	79.997	19.991	99.807	20.492	8.983	0.506
717.000	438.976	79.996	19.991	99.808	20.491	9.042	0.501
718.500	439.745	79.994	19.991	99.813	20.492	8.951	0.483
720.000	440.476	79.996	19.992	99.804	20.491	9.035	0.489
721.500	441.259	79.995	19.991	99.814	20.492	8.939	0.525
723.000	442.000	79.996	19.991	99.805	20.492	8.969	0.501
724.500	442.745	79.995	19.991	99.801	20.494	8.850	0.500
726.000	443.492	79.994	19.991	99.806	20.494	8.827	0.509
727.500	444.245	79.995	19.992	99.809	20.496	8.682	0.494
729.000	445.001	79.996	19.992	99.816	20.491	9.034	0.515
730.500	445.762	79.994	19.991	99.810	20.494	8.826	0.498
732.000	446.532	79.995	19.992	99.802	20.496	8.710	0.524
733.500	447.258	79.995	19.991	99.808	20.500	8.417	0.487
735.000	447.986	79.995	19.992	99.819	20.502	8.292	0.494
736.500	448.747	79.997	19.992	99.814	20.502	8.288	0.497
738.000	449.478	79.996	19.992	99.813	20.502	8.265	0.479
739.500	450.268	79.999	19.992	99.811	20.505	8.053	0.529
741.000	451.014	79.997	19.990	99.806	20.505	8.062	0.490
742.500	451.715	79.997	19.991	99.802	20.504	8.146	0.461
744.000	452.477	79.996	19.991	99.800	20.506	8.019	0.510
745.500	453.235	79.996	19.992	99.806	20.510	7.743	0.501
747.000	454.030	79.996	19.991	99.810	20.510	7.782	0.532
748.500	454.804	79.994	19.991	99.810	20.513	7.552	0.510
750.000	455.545	79.994	19.990	99.801	20.515	7.397	0.507
751.500	456.292	79.995	19.990	99.806	20.514	7.454	0.500
753.000	457.043	79.995	19.991	99.813	20.518	7.224	0.503
754.500	457.821	79.994	19.990	99.822	20.521	7.031	0.522
756.001	458.588	79.996	19.992	99.825	20.518	7.215	0.520
757.500	459.333	79.995	19.991	99.820	20.520	7.051	0.492
759.000	460.096	79.994	19.992	99.827	20.521	7.005	0.516
760.500	460.882	79.994	19.991	99.826	20.524	6.826	0.529
762.000	461.650	79.993	19.991	99.824	20.527	6.599	0.527
763.500	462.444	79.995	19.992	99.827	20.527	6.620	0.522
765.000	463.186	79.995	19.991	99.830	20.530	6.421	0.494
766.500	463.945	79.995	19.992	99.830	20.532	6.268	0.523
768.000	464.691	79.995	19.992	99.826	20.531	6.370	0.488
769.500	465.449	79.995	19.991	99.825	20.532	6.272	0.503
771.000	466.247	79.995	19.992	99.821	20.534	6.138	0.529
772.500	467.031	79.998	19.991	99.818	20.534	6.156	0.493
774.000	467.785	79.997	19.991	99.826	20.537	5.942	0.511
775.500	468.582	79.994	19.991	99.830	20.534	6.165	0.544
777.000	469.359	79.995	19.991	99.822	20.538	5.855	0.507
778.500	470.118	79.994	19.991	99.830	20.540	5.725	0.510
780.000	470.900	79.995	19.990	99.833	20.540	5.707	0.510
781.500	471.670	79.995	19.992	99.833	20.541	5.661	0.509
783.000	472.434	79.994	19.991	99.833	20.537	5.905	0.497
784.500	473.198	79.995	19.991	99.831	20.541	5.642	0.492
786.000	474.028	79.995	19.991	99.833	20.539	5.799	0.549
787.500	474.824	79.995	19.992	99.825	20.539	5.793	0.497
789.000	475.545	79.995	19.992	99.827	20.540	5.723	0.493
790.500	476.350	79.994	19.992	99.834	20.543	5.499	0.547
792.000	477.118	79.999	19.991	99.834	20.546	5.362	0.529
793.501	477.860	79.997	19.992	99.834	20.544	5.491	0.491
795.000	478.682	79.997	19.991	99.829	20.547	5.276	0.537
796.500	479.478	79.996	19.992	99.831	20.548	5.172	0.539
798.000	480.194	79.996	19.991	99.835	20.546	5.334	0.483
799.500	481.034	79.995	19.991	99.835	20.547	5.292	0.531
801.000	481.729	79.996	19.993	99.837	20.549	5.109	0.483
802.500	482.535	79.994	19.992	99.837	20.549	5.159	0.528
804.000	483.282	79.995	19.992	99.837	20.554	4.824	0.497
805.500	484.081	79.994	19.992	99.835	20.551	4.986	0.536
807.000	484.842	79.998	19.991	99.832	20.553	4.863	0.474
808.500	485.608	79.992	19.992	99.823	20.552	4.892	0.489
810.000	486.378	79.997	19.992	99.826	20.556	4.625	0.517
811.501	487.145	79.996	19.991	99.823	20.556	4.682	0.520
813.000	487.857	79.995	19.992	99.829	20.552	4.946	0.471
814.500	488.660	79.996	19.991	99.832	20.552	4.929	0.517
816.000	489.445	79.996	19.992	99.830	20.560	4.421	0.533
817.500	490.185	79.995	19.992	99.829	20.555	4.716	0.505
819.000	490.976	79.996	19.992	99.824	20.557	4.600	0.499
820.500	491.692	79.998	19.992	99.822	20.554	4.760	0.490
822.000	492.496	79.995	19.993	99.830	20.556	4.655	0.515
823.500	493.298	79.996	19.992	99.831	20.557	4.616	0.531
825.000	494.112	79.996	19.992	99.832	20.553	4.826	0.538
826.500	494.888	79.994	19.992	99.832	20.556	4.634	0.511
828.000	495.619	79.996	19.992	99.833	20.558	4.506	0.495
829.500	496.362	79.996	19.992	99.832	20.558	4.544	0.521
831.000	497.130	79.995	19.991	99.833	20.559	4.480	0.500
832.500	497.902	79.995	19.992	99.833	20.555	4.707	0.523
834.000	498.684	79.996	19.992	99.832	20.555	4.695	0.520
835.500	499.414	79.995	19.992	99.829	20.554	4.765	0.499
837.000	500.181	79.995	19.991	99.825	20.553	4.850	0.524
838.501	500.945	79.995	19.991	99.832	20.561	4.316	0.500
840.000	501.714	79.995	19.991	99.835	20.558	4.537	0.509
841.500	502.482	79.994	19.991	99.830	20.561	4.292	0.503
843.000	503.248	79.995	19.991	99.834	20.563	4.205	0.495
844.500	503.993	79.995	19.992	99.835	20.564	4.101	0.486
846.000	504.738	79.995	19.991	99.835	20.567	3.922	0.516
847.500	505.529	79.995	19.992	99.837	20.558	4.521	0.486
849.000	506.245	79.996	19.991	99.836	20.569	3.758	0.500
850.500	506.984	79.995	19.992	99.837	20.552	4.907	0.518
852.000	507.825	79.995	19.992	99.836	20.570	3.745	0.567
853.500	508.532	79.994	19.992	99.831	20.578	3.174	0.468
855.001	509.328	79.994	19.991	99.835	20.575	3.388	0.568
856.500	510.115	79.994	19.991	99.842	20.560	4.382	0.540
858.000	510.892	79.993	19.992	99.838	20.564	4.126	0.492
859.500	511.639	79.995	19.991	99.841	20.566	4.012	0.525
861.000	512.439	79.996	19.992	99.840	20.564	4.106	0.568
862.500	513.421	79.994	19.991	99.840	20.576	3.310	0.738
864.000	513.617	79.993	19.990	99.839	20.565	4.040	0.430
865.500	515.022	79.994	19.991	99.838	20.569	3.789	0.854
867.000	515.757	79.996	19.991	99.839	20.573	3.540	0.500
868.500	516.063	79.996	19.992	99.839	20.569	3.782	0.176
870.000	516.565	79.996	19.991	99.841	20.570	3.701	0.322
871.500	517.899	79.998	19.992	99.838	20.573	3.496	0.689
873.000	518.341	79.996	19.992	99.835	20.570	3.723	0.536
874.500	519.246	79.998	19.992	99.836	20.568	3.878	0.492
876.000	519.920	79.996	19.992	99.838	20.567	3.925	0.374
877.500	520.745	79.995	19.992	99.834	20.568	3.878	0.358
879.000	521.691	79.996	19.992	99.835	20.569	3.784	0.654
880.500	522.452	79.996	19.992	99.834	20.568	3.830	0.447
882.001	523.164	79.995	19.992	99.836	20.571	3.644	0.447
883.500	524.022	79.995	19.992	99.837	20.571	3.614	0.563
885.000	524.755	79.995	19.991	99.842	20.569	3.750	0.533
886.500	525.551	79.997	19.992	99.836	20.570	3.747	0.544
888.000	526.303	79.997	19.992	99.836	20.569	3.782	0.525
889.500	527.061	79.994	19.992	99.840	20.568	3.837	0.501
891.000	527.851	79.996	19.992	99.839	20.569	3.782	0.539
892.500	528.573	79.998	19.992	99.835	20.571	3.666	0.506
894.000	529.404	79.998	19.992	99.831	20.569	3.800	0.585
895.500	530.179	79.996	19.992	99.834	20.570	3.703	0.528
897.000	531.008	79.999	19.991	99.833	20.572	3.588	0.528
898.500	531.780	79.996	19.992	99.834	20.572	3.574	0.541
900.000	532.572	79.996	19.992	99.833	20.568	3.872	0.511
901.500	533.359	79.995	19.992	99.835	20.569	3.758	0.519
903.000	534.148	79.994	19.992	99.840	20.575	3.359	0.506
904.500	534.950	79.996	19.992	99.845	20.574	3.449	0.536
906.000	535.743	79.995	19.992	99.840	20.572	3.612	0.554
907.500	536.516	79.994	19.993	99.834	20.574	3.430	0.488
909.000	537.275	79.993	19.993	99.838	20.572	3.598	0.509
910.500	538.077	79.994	19.994	99.839	20.574	3.432	0.531
912.000	538.823	79.994	19.992	99.837	20.572	3.598	0.511
913.500	539.578	79.994	19.992	99.849	20.578	3.198	0.488
915.000	540.316	79.995	19.992	99.843	20.576	3.312	0.490
916.500	541.122	79.994	19.992	99.837	20.576	3.285	0.550
918.000	541.892	79.994	19.991	99.837	20.575	3.395	0.510
919.500	542.699	79.994	19.992	99.843	20.576	3.340	0.515
921.000	543.431	79.996	19.992	99.839	20.574	3.447	0.516
922.500	544.238	79.995	19.991	99.838	20.575	3.386	0.544
924.001	544.983	79.995	19.991	99.838	20.575	3.406	0.507
925.500	545.771	79.996	19.991	99.843	20.579	3.126	0.515
927.000	546.545	79.995	19.991	99.845	20.573	3.498	0.505
928.500	547.318	79.995	19.992	99.838	20.572	3.559	0.502
930.000	548.116	79.995	19.991	99.841	20.572	3.548	0.536
931.500	548.832	79.996	19.991	99.842	20.573	3.485	0.488
933.000	549.614	79.995	19.992	99.841	20.573	3.509	0.529
934.500	550.365	79.994	19.992	99.836	20.575	3.360	0.508
936.000	551.100	79.995	19.992	99.835	20.570	3.693	0.486
937.500	551.875	79.994	19.991	99.835	20.575	3.411	0.524
939.000	552.674	79.994	19.992	99.835	20.577	3.260	0.539
940.500	553.449	79.996	19.992	99.835	20.578	3.172	0.534
942.000	554.208	79.994	19.993	99.837	20.573	3.487	0.494
943.500	554.962	79.996	19.992	99.836	20.577	3.277	0.492
945.000	555.718	79.996	19.991	99.837	20.578	3.192	0.500
946.500	556.526	79.995	19.992	99.834	20.581	2.960	0.536
948.000	557.267	79.995	19.991	99.834	20.577	3.211	0.515
949.500	558.059	79.997	19.991	99.835	20.579	3.139	0.550
951.000	558.805	79.997	19.991	99.835	20.581	2.995	0.514
952.500	559.589	79.998	19.990	99.835	20.582	2.923	0.540
954.000	560.350	79.998	19.991	99.835	20.581	2.981	0.495
955.500	561.114	79.996	19.991	99.834	20.584	2.771	0.521
957.000	561.867	79.998	19.991	99.836	20.582	2.879	0.512
958.500	562.637	79.997	19.992	99.839	20.580	3.027	0.513
960.000	563.420	79.996	19.992	99.837	20.582	2.927	0.512
961.500	564.133	79.997	19.991	99.838	20.582	2.940	0.465
963.000	564.925	79.994	19.992	99.836	20.583	2.868	0.528
964.500	565.622	79.996	19.992	99.836	20.581	2.964	0.474
966.000	566.399	79.996	19.992	99.841	20.581	3.008	0.494
967.500	567.167	79.997	19.992	99.837	20.584	2.750	0.509
969.000	567.978	79.996	19.992	99.837	20.584	2.745	0.545
970.500	568.710	79.996	19.992	99.843	20.577	3.217	0.506
972.000	569.487	79.996	19.991	99.843	20.581	2.953	0.500
973.500	570.223	79.997	19.990	99.843	20.577	3.215	0.504
975.000	570.986	79.996	19.991	99.843	20.581	2.973	0.522
976.500	571.733	79.998	19.991	99.840	20.580	3.045	0.490
978.000	572.523	79.997	19.992	99.840	20.580	3.020	0.534
979.500	573.249	79.997	19.991	99.838	20.583	2.841	0.489
981.000	574.036	79.996	19.991	99.839	20.585	2.680	0.488
982.501	574.869	79.995	19.992	99.850	20.582	2.935	0.543
984.000	575.627	79.993	19.992	99.853	20.582	2.890	0.520
985.500	576.391	79.993	19.991	99.847	20.578	3.165	0.529
987.000	577.095	79.995	19.992	99.847	20.577	3.222	0.457
988.500	577.888	79.993	19.992	99.841	20.581	2.985	0.538
990.000	578.667	79.994	19.992	99.851	20.581	2.984	0.525
991.500	579.402	79.994	19.993	99.844	20.580	3.023	0.503
993.000	580.159	79.995	19.992	99.850	20.580	3.027	0.497
994.500	580.922	79.996	19.993	99.845	20.581	2.988	0.504
996.000	581.716	79.996	19.993	99.846	20.584	2.783	0.499
997.500	582.448	79.995	19.993	99.844	20.585	2.693	0.497
999.000	583.189	79.995	19.992	99.845	20.581	3.003	0.486
1000.500	583.936	79.994	19.993	99.843	20.585	2.717	0.497
1002.000	584.706	79.995	19.992	99.840	20.584	2.776	0.516
1003.500	585.522	79.994	19.992	99.841	20.581	2.979	0.543
1005.000	586.226	79.996	19.991	99.843	20.579	3.134	0.479
1006.500	586.996	79.996	19.992	99.839	20.579	3.139	0.505
1008.000	587.760	79.996	19.991	99.835	20.582	2.912	0.515
1009.500	588.549	79.996	19.991	99.840	20.579	3.120	0.541
1011.000	589.307	79.995	19.991	99.843	20.580	3.023	0.510
1012.500	590.030	79.995	19.992	99.839	20.579	3.100	0.488
1014.000	590.815	79.994	19.992	99.836	20.581	2.944	0.507
1015.500	591.534	79.992	19.992	99.843	20.580	3.036	0.482
1017.000	592.299	79.994	19.991	99.842	20.581	2.949	0.515
1018.500	593.069	79.995	19.992	99.836	20.585	2.677	0.515
1020.000	593.878	79.994	19.993	99.835	20.585	2.732	0.550
1021.500	594.643	79.994	19.991	99.836	20.585	2.724	0.513
1023.000	595.405	79.994	19.992	99.834	20.583	2.844	0.502
1024.500	596.154	79.995	19.992	99.835	20.587	2.599	0.498
1026.000	596.914	79.997	19.992	99.836	20.586	2.618	0.489
1027.501	597.701	79.994	19.992	99.836	20.585	2.686	0.504
1029.000	598.485	79.996	19.991	99.846	20.583	2.870	0.510
1030.500	599.247	79.995	19.992	99.850	20.585	2.712	0.511
1032.001	600.048	79.996	19.992	99.838	20.590	2.340	0.538
1033.500	600.828	79.996	19.991	99.837	20.585	2.695	0.515
1035.000	601.564	79.997	19.991	99.839	20.589	2.469	0.490
1036.500	602.348	79.995	19.992	99.845	20.587	2.574	0.526
1038.000	603.160	79.996	19.991	99.851	20.589	2.462	0.533
1039.500	603.916	79.994	19.991	99.847	20.590	2.358	0.512
1041.000	604.645	79.995	19.991	99.841	20.586	2.612	0.492
1042.501	605.445	79.995	19.991	99.847	20.586	2.657	0.535
1044.001	606.223	79.994	19.992	99.847	20.588	2.517	0.539
1045.500	606.997	79.996	19.991	99.843	20.585	2.688	0.527
1047.000	607.757	79.996	19.991	99.843	20.588	2.511	0.521
1048.500	608.480	79.995	19.991	99.856	20.589	2.467	0.503
1050.000	609.247	79.995	19.991	99.846	20.584	2.745	0.496
1051.500	610.027	79.995	19.992	99.843	20.588	2.476	0.496
1053.000	610.831	79.996	19.991	99.843	20.588	2.503	0.534
1054.500	611.541	79.997	19.992	99.851	20.591	2.334	0.453
1056.000	612.282	79.998	19.991	99.846	20.590	2.366	0.492
1057.501	613.057	79.996	19.991	99.841	20.590	2.367	0.508
1059.000	613.803	79.997	19.992	99.841	20.594	2.109	0.495
1060.500	614.589	79.996	19.991	99.840	20.591	2.317	0.529
1062.000	615.341	79.996	19.992	99.841	20.592	2.222	0.507
1063.500	616.101	79.994	19.991	99.837	20.592	2.214	0.513
1065.000	616.872	79.996	19.991	99.839	20.593	2.146	0.505
1066.500	617.603	79.994	19.991	99.846	20.590	2.373	0.481
1068.001	618.384	79.995	19.991	99.848	20.584	2.750	0.523
1069.500	619.167	79.994	19.991	99.836	20.582	2.877	0.513
1071.000	619.934	79.994	19.992	99.841	20.586	2.638	0.505
1072.500	620.717	79.994	19.992	99.840	20.587	2.577	0.507
1074.001	621.487	79.994	19.992	99.838	20.589	2.469	0.523
1075.500	622.239	79.992	19.993	99.841	20.587	2.568	0.526
1077.000	623.017	79.994	19.992	99.838	20.584	2.759	0.507
1078.500	623.792	79.994	19.992	99.833	20.585	2.723	0.517
1080.000	624.525	79.994	19.992	99.833	20.586	2.645	0.477
1081.500	625.253	79.994	19.991	99.836	20.581	2.966	0.497
1083.000	626.013	79.995	19.993	99.835	20.585	2.700	0.502
1084.500	626.748	79.995	19.992	99.842	20.589	2.456	0.485
1086.000	627.535	79.993	19.993	99.839	20.585	2.688	0.529
1087.500	628.293	79.995	19.991	99.834	20.586	2.625	0.492
1089.000	629.117	79.996	19.992	99.837	20.587	2.592	0.542
1090.500	629.842	79.995	19.991	99.834	20.586	2.627	0.495
1092.000	630.578	79.995	19.992	99.835	20.587	2.553	0.483
1093.500	631.343	79.994	19.991	99.835	20.587	2.581	0.522
1095.000	632.099	79.993	19.991	99.839	20.586	2.666	0.495
1096.500	632.860	79.994	19.991	99.840	20.584	2.769	0.519
1098.001	633.619	79.992	19.991	99.839	20.585	2.699	0.504
1099.500	634.468	79.994	19.991	99.839	20.584	2.789	0.552
1101.000	635.202	79.993	19.991	99.844	20.583	2.855	0.503
1102.500	636.005	79.995	19.991	99.841	20.583	2.809	0.533
1104.000	636.765	79.993	19.992	99.840	20.582	2.877	0.502
1105.500	637.519	79.994	19.991	99.838	20.588	2.500	0.490
1107.001	638.316	79.996	19.991	99.838	20.586	2.625	0.523
1108.500	639.054	79.997	19.992	99.837	20.589	2.410	0.483
1110.000	639.836	79.994	19.991	99.837	20.589	2.467	0.508
1111.500	640.555	79.994	19.991	99.838	20.588	2.500	0.477
1113.000	641.310	79.994	19.991	99.838	20.587	2.566	0.515
1114.500	642.095	79.995	19.992	99.837	20.590	2.352	0.504
1116.001	642.860	79.996	19.991	99.840	20.591	2.327	0.525
1117.500	643.624	79.994	19.990	99.843	20.589	2.437	0.513
1119.000	644.403	79.995	19.991	99.839	20.590	2.365	0.507
1120.500	645.176	79.996	19.991	99.838	20.588	2.502	0.515
1122.000	645.967	79.994	19.991	99.838	20.589	2.467	0.514
1123.501	646.754	79.997	19.991	99.838	20.591	2.308	0.526
1125.000	647.498	79.997	19.991	99.837	20.589	2.413	0.492
1126.500	648.235	79.998	19.991	99.836	20.589	2.444	0.502
1128.000	649.047	79.997	19.992	99.835	20.588	2.478	0.545
1129.500	649.827	79.997	19.991	99.836	20.586	2.660	0.500
1131.000	650.558	79.997	19.992	99.839	20.585	2.739	0.501
1132.501	651.339	79.998	19.991	99.841	20.586	2.629	0.482
1134.000	652.094	79.997	19.991	99.836	20.591	2.305	0.511
1135.500	652.838	79.998	19.991	99.840	20.588	2.479	0.531
1137.000	653.661	79.997	19.992	99.837	20.586	2.616	0.545
1138.500	654.416	79.998	19.991	99.831	20.589	2.408	0.521
1140.001	655.216	79.996	19.991	99.837	20.589	2.450	0.542
1141.501	655.900	79.994	19.992	99.841	20.588	2.503	0.459
1143.000	656.718	79.995	19.992	99.839	20.592	2.251	0.548
1144.500	657.450	79.995	19.992	99.841	20.592	2.236	0.486
1146.000	658.217	79.994	19.992	99.834	20.590	2.374	0.509
1147.501	659.015	79.994	19.991	99.840	20.593	2.190	0.524
1149.001	659.797	79.996	19.992	99.836	20.591	2.275	0.518
1150.500	660.566	79.994	19.992	99.833	20.590	2.345	0.509
1152.000	661.318	79.995	19.991	99.834	20.595	2.004	0.510
1153.500	662.043	79.992	19.992	99.835	20.588	2.470	0.489
1155.000	662.831	79.993	19.991	99.837	20.581	2.966	0.490
1156.500	663.606	79.996	19.992	99.835	20.594	2.107	0.508
1158.000	664.365	79.994	19.991	99.835	20.584	2.783	0.495
1159.500	665.148	79.995	19.991	99.838	20.592	2.251	0.518
1161.000	665.860	79.993	19.992	99.835	20.597	1.890	0.529
1162.500	666.579	79.994	19.992	99.836	20.597	1.923	0.455
1164.001	667.498	79.995	19.993	99.839	20.596	1.942	0.577
1165.500	668.108	79.996	19.992	99.838	20.597	1.905	0.422
1167.000	668.900	79.994	19.993	99.837	20.598	1.857	0.458
1168.500	670.194	79.992	19.993	99.837	20.591	2.279	1.327
1170.001	670.253	79.994	19.992	99.835	20.596	1.953	0.302
1171.501	671.055	79.993	19.992	99.834	20.594	2.113	0.568
1173.000	671.982	79.992	19.992	99.835	20.592	2.253	0.394
1174.500	672.635	79.993	19.992	99.836	20.594	2.122	0.769
1176.000	673.407	79.995	19.990	99.837	20.595	2.030	0.435
1177.501	674.125	79.994	19.991	99.837	20.596	1.978	0.455
1179.000	674.969	79.992	19.991	99.838	20.594	2.133	0.524
1180.500	675.672	79.994	19.991	99.839	20.593	2.144	0.474
1182.001	676.411	79.995	19.990	99.839	20.595	2.024	0.520
1183.500	677.155	79.994	19.991	99.839	20.598	1.849	0.493
1185.000	677.822	79.993	19.990	99.839	20.595	2.035	0.461
1186.500	678.634	79.998	19.991	99.838	20.595	2.028	0.508
1188.000	679.368	79.996	19.992	99.836	20.591	2.328	0.497
1189.500	680.119	79.997	19.990	99.835	20.592	2.220	0.497
1191.000	680.861	79.997	19.992	99.836	20.587	2.570	0.500
1192.500	681.636	79.999	19.992	99.836	20.590	2.378	0.516
1194.000	682.387	79.995	19.992	99.835	20.585	2.710	0.490
1195.500	683.148	79.997	19.992	99.833	20.590	2.367	0.490
1197.000	683.941	79.994	19.991	99.838	20.589	2.450	0.513
1198.500	684.678	79.997	19.991	99.838	20.591	2.275	0.444
1200.000	685.366	79.995	19.992	99.835	20.595	2.013	0.471
1201.500	686.116	79.997	19.991	99.835	20.596	1.997	0.499
1203.001	686.875	79.996	19.991	99.835	20.596	1.964	0.515
1204.500	687.565	79.998	19.990	99.834	20.598	1.859	0.461
1206.000	688.322	79.994	19.991	99.832	20.593	2.146	0.512
1207.500	689.091	79.997	19.991	99.833	20.595	2.010	0.514
1209.000	689.878	79.999	19.991	99.834	20.595	2.063	0.523
1210.500	690.615	79.996	19.991	99.834	20.592	2.212	0.492
1212.000	691.412	79.999	19.991	99.835	20.594	2.076	0.521
1213.500	692.211	79.997	19.990	99.835	20.593	2.168	0.535
1215.000	692.977	79.998	19.990	99.834	20.593	2.170	0.506
1216.500	693.712	79.997	19.991	99.835	20.591	2.288	0.483
1218.000	694.519	79.998	19.991	99.835	20.589	2.409	0.537
1219.500	695.259	79.998	19.991	99.834	20.592	2.255	0.503
1221.000	696.074	79.994	19.992	99.837	20.591	2.299	0.527
1222.500	696.791	79.995	19.992	99.835	20.590	2.336	0.533
1224.001	697.547	79.995	19.992	99.836	20.591	2.315	0.517
1225.500	698.328	79.994	19.992	99.838	20.592	2.207	0.525
1227.001	699.086	79.995	19.992	99.837	20.588	2.520	0.513
1228.500	699.863	79.992	19.992	99.836	20.591	2.295	0.505
1230.000	700.595	79.995	19.991	99.836	20.590	2.387	0.512
1231.500	701.388	79.997	19.991	99.837	20.592	2.240	0.520
1233.000	702.131	79.994	19.992	99.835	20.594	2.098	0.495
1234.501	702.914	79.995	19.992	99.835	20.595	2.045	0.522
1236.000	703.689	79.992	19.992	99.836	20.595	2.052	0.513
1237.500	704.501	79.995	19.990	99.836	20.593	2.174	0.537
1239.001	705.261	79.996	19.991	99.836	20.596	1.999	0.515
1240.500	706.013	79.995	19.991	99.836	20.592	2.216	0.517
1242.001	706.769	79.995	19.990	99.835	20.592	2.218	0.512
1243.500	707.573	79.995	19.991	99.837	20.590	2.339	0.514
1245.001	708.344	79.997	19.992	99.837	20.592	2.264	0.516
1246.500	709.153	79.994	19.992	99.836	20.591	2.288	0.531
1248.000	709.906	79.995	19.991	99.837	20.594	2.126	0.489
1249.501	710.682	79.994	19.992	99.838	20.594	2.100	0.518
1251.000	711.451	79.994	19.992	99.837	20.594	2.100	0.516
1252.500	712.170	79.991	19.993	99.832	20.591	2.277	0.444
1254.000	712.972	79.994	19.992	99.831	20.593	2.150	0.533
1255.500	713.722	79.996	19.992	99.823	20.593	2.194	0.487
1257.000	714.507	79.992	19.992	99.827	20.592	2.253	0.517
1258.500	715.302	79.995	19.992	99.833	20.596	1.967	0.530
1260.000	716.057	79.994	19.992	99.833	20.593	2.163	0.513
1261.500	716.843	79.995	19.991	99.836	20.592	2.201	0.531
1263.001	717.631	79.997	19.991	99.836	20.594	2.091	0.522
1264.500	718.363	79.994	19.991	99.834	20.594	2.107	0.488
1266.001	719.139	79.997	19.991	99.834	20.597	1.919	0.503
1267.500	719.897	79.996	19.991	99.832	20.596	1.980	0.502
1269.000	720.666	79.997	19.991	99.832	20.595	2.035	0.511
1270.500	721.461	79.995	19.991	99.834	20.600	1.730	0.542
1272.000	722.252	79.996	19.991	99.833	20.598	1.838	0.523
1273.501	723.012	79.996	19.991	99.832	20.595	2.056	0.496
1275.001	723.758	79.997	19.991	99.832	20.596	1.945	0.498
1276.500	724.491	79.997	19.990	99.837	20.594	2.133	0.502
1278.000	725.332	79.996	19.991	99.837	20.594	2.120	0.519
1279.500	726.112	79.996	19.991	99.831	20.593	2.164	0.545
1281.000	726.901	79.996	19.991	99.833	20.597	1.905	0.542
1282.501	727.646	79.994	19.991	99.834	20.594	2.076	0.486
1284.000	728.355	79.996	19.991	99.834	20.598	1.860	0.487
1285.500	729.148	79.995	19.991	99.834	20.602	1.590	0.515
1287.000	729.911	79.998	19.992	99.836	20.596	1.986	0.516
1288.500	730.655	79.998	19.991	99.835	20.597	1.923	0.487
1290.000	731.400	79.997	19.991	99.834	20.596	1.951	0.516
1291.500	732.135	79.997	19.991	99.836	20.597	1.866	0.503
1293.000	732.889	79.996	19.991	99.836	20.596	1.978	0.502
1294.500	733.648	79.998	19.990	99.832	20.594	2.080	0.509
1296.001	734.403	79.998	19.991	99.830	20.597	1.897	0.494
1297.500	735.154	79.998	19.990	99.832	20.598	1.822	0.504
1299.000	735.930	80.000	19.990	99.835	20.598	1.800	0.521
1300.500	736.673	79.995	19.990	99.835	20.601	1.634	0.506
1302.001	737.394	79.995	19.991	99.836	20.602	1.558	0.491
1303.500	738.142	79.995	19.990	99.837	20.599	1.744	0.516
1305.001	738.902	79.995	19.992	99.836	20.597	1.918	0.477
1306.500	739.663	79.994	19.991	99.836	20.598	1.803	0.501
1308.000	740.348	79.994	19.991	99.837	20.599	1.774	0.478
1309.500	741.141	79.994	19.992	99.838	20.596	1.973	0.513
1311.000	741.926	79.994	19.992	99.836	20.595	2.037	0.521
1312.501	742.691	79.995	19.992	99.835	20.593	2.159	0.504
1314.000	743.465	79.993	19.992	99.835	20.600	1.693	0.521
1314.500	743.737	79.994	19.992	99.835	20.595	2.019	0.544