File: 01_Data/OSB/MCC/OSB_MCC_30K_min_210308_R1.txt
Sample ID:	C:\MCC\MCC Cal\Test\OSB_30_1.txt
Sample Weight (mg):	4.63
Heating Rate (C/s):	0.5
Combustor Temp (C):	900
N2 Flow Rate (cc/min):	80
O2 Flow Rate (cc/min):	20
Calibration File:	C:\MCC\MCC Cal\Coeff1 JN10440_30_210304.txt.txt
T Correction Coefficients:	0	1.024463	0
Time Shift (s):	14
*
Time (s)	Temperature (C)	N2 flow rate (cc/min)	O2 flow rate (cc/min)	Flow Rate (cc/min)	Oxygen (%)	HRR (W/g)	Heating rate (C/s)
0.000	106.120	79.995	19.992	99.720	20.512	-0.098	0.016
1.500	106.079	79.994	19.992	99.718	20.515	-0.283	-0.022
2.999	106.086	79.995	19.991	99.716	20.514	-0.214	-0.003
4.499	106.128	79.995	19.992	99.715	20.513	-0.155	0.037
6.000	106.127	79.994	19.992	99.717	20.516	-0.414	-0.005
7.499	106.129	79.995	19.990	99.715	20.515	-0.285	0.006
8.999	106.091	79.993	19.992	99.716	20.513	-0.169	-0.036
10.499	106.116	79.995	19.992	99.718	20.512	-0.129	-0.008
11.999	106.099	79.996	19.989	99.734	20.507	0.210	-0.012
13.499	106.137	79.997	19.990	99.774	20.509	0.077	0.013
14.999	106.134	79.994	19.992	99.795	20.509	0.118	0.013
16.499	106.145	79.995	19.991	99.795	20.503	0.516	0.022
17.999	106.196	79.996	19.991	99.804	20.497	0.923	0.008
19.499	106.303	79.994	19.992	99.827	20.490	1.338	0.071
20.999	106.373	79.996	19.991	99.843	20.494	1.112	0.033
22.500	106.416	79.996	19.991	99.868	20.485	1.703	0.022
23.999	106.523	79.995	19.991	99.882	20.480	2.028	0.079
25.499	106.650	79.993	19.991	99.893	20.478	2.192	0.067
26.999	106.812	79.994	19.992	99.879	20.476	2.329	0.105
28.500	106.934	79.993	19.991	99.886	20.473	2.521	0.092
29.999	107.043	79.995	19.991	99.891	20.474	2.422	0.067
31.500	107.254	79.993	19.992	99.898	20.472	2.600	0.109
33.000	107.449	79.993	19.991	99.913	20.470	2.737	0.139
34.500	107.666	79.993	19.993	99.914	20.467	2.894	0.140
35.999	107.885	79.994	19.993	99.919	20.469	2.785	0.163
37.499	108.048	79.993	19.992	99.939	20.468	2.831	0.118
38.999	108.316	79.994	19.992	99.951	20.465	3.064	0.162
40.499	108.580	79.993	19.992	99.955	20.469	2.781	0.174
41.999	108.890	79.996	19.992	99.950	20.468	2.850	0.215
43.499	109.181	79.995	19.991	99.949	20.464	3.108	0.182
45.000	109.513	79.995	19.992	99.955	20.462	3.262	0.231
46.499	109.853	79.995	19.990	99.959	20.462	3.256	0.222
47.999	110.185	79.995	19.992	99.958	20.462	3.260	0.230
49.499	110.553	79.996	19.993	99.963	20.459	3.441	0.257
50.999	110.946	79.995	19.991	99.966	20.452	3.923	0.280
52.500	111.337	79.994	19.992	99.965	20.457	3.595	0.260
53.999	111.763	79.996	19.992	99.975	20.453	3.841	0.281
55.499	112.205	79.994	19.991	99.988	20.451	3.965	0.290
56.999	112.594	79.994	19.992	99.990	20.455	3.695	0.254
58.500	113.038	79.995	19.992	99.987	20.455	3.732	0.287
59.999	113.538	79.996	19.994	100.003	20.449	4.110	0.347
61.500	113.970	79.995	19.993	100.007	20.458	3.548	0.310
62.999	114.447	79.994	19.992	99.981	20.454	3.812	0.322
64.499	114.936	79.995	19.993	99.983	20.454	3.791	0.309
65.999	115.402	79.996	19.993	99.986	20.458	3.531	0.306
67.499	115.967	79.996	19.993	99.988	20.454	3.826	0.363
68.999	116.458	79.998	19.992	99.990	20.450	4.066	0.337
70.499	117.012	79.996	19.993	99.990	20.452	3.898	0.376
71.999	117.579	79.998	19.991	99.989	20.451	4.028	0.372
73.499	118.120	79.998	19.991	99.991	20.454	3.782	0.368
74.999	118.702	79.997	19.991	99.990	20.448	4.182	0.383
76.499	119.268	79.997	19.990	99.990	20.452	3.954	0.367
77.999	119.827	79.995	19.991	99.989	20.453	3.852	0.375
79.499	120.454	79.995	19.992	99.989	20.452	3.942	0.430
80.999	121.007	79.995	19.991	99.990	20.453	3.860	0.358
82.499	121.641	79.996	19.992	99.992	20.450	4.033	0.393
83.999	122.295	79.996	19.991	99.992	20.456	3.664	0.435
85.500	122.869	79.994	19.992	99.990	20.454	3.773	0.424
86.999	123.522	79.995	19.992	99.990	20.450	4.037	0.436
88.500	124.163	79.995	19.991	99.988	20.456	3.664	0.414
89.999	124.767	79.994	19.991	99.986	20.452	3.926	0.418
91.499	125.448	79.993	19.992	99.992	20.451	3.991	0.477
92.999	126.028	79.994	19.991	99.994	20.452	3.910	0.400
94.499	126.709	79.993	19.991	99.994	20.457	3.613	0.446
95.999	127.405	79.996	19.992	99.998	20.457	3.616	0.472
97.499	128.045	79.993	19.991	99.998	20.454	3.783	0.442
98.999	128.704	79.994	19.989	99.994	20.452	3.932	0.441
100.500	129.324	79.995	19.993	99.997	20.453	3.866	0.411
101.999	130.051	79.995	19.991	99.992	20.457	3.592	0.486
103.500	130.724	79.995	19.992	99.993	20.452	3.926	0.454
104.999	131.347	79.996	19.992	99.986	20.454	3.821	0.433
106.499	132.065	79.994	19.992	99.949	20.455	3.734	0.464
107.999	132.761	79.994	19.991	99.988	20.451	3.982	0.481
109.499	133.487	79.996	19.992	100.050	20.450	4.074	0.471
110.999	134.157	79.993	19.991	100.011	20.451	3.974	0.462
112.499	134.841	79.993	19.992	99.995	20.450	4.087	0.461
113.999	135.548	79.993	19.992	99.997	20.453	3.869	0.485
115.499	136.290	79.994	19.991	99.996	20.454	3.823	0.481
116.999	136.971	79.994	19.991	99.998	20.456	3.646	0.440
118.499	137.683	79.992	19.992	100.000	20.455	3.716	0.456
120.000	138.369	79.995	19.992	99.998	20.456	3.677	0.459
121.499	139.132	79.995	19.992	100.000	20.457	3.596	0.493
122.999	139.814	79.995	19.992	99.999	20.456	3.675	0.451
124.499	140.571	79.996	19.992	99.995	20.456	3.637	0.528
125.999	141.285	79.995	19.993	99.997	20.455	3.738	0.482
127.499	142.019	79.996	19.992	99.996	20.453	3.852	0.475
128.999	142.831	79.996	19.992	99.991	20.455	3.754	0.545
130.499	143.509	79.996	19.992	99.998	20.456	3.649	0.449
132.000	144.274	79.996	19.991	100.002	20.455	3.745	0.502
133.499	145.000	79.995	19.993	99.996	20.457	3.607	0.475
134.999	145.765	79.995	19.992	100.001	20.455	3.745	0.526
136.499	146.533	79.996	19.992	99.995	20.457	3.598	0.526
137.999	147.262	79.995	19.991	99.992	20.454	3.821	0.509
139.500	147.989	79.995	19.992	99.991	20.450	4.057	0.500
141.000	148.774	79.995	19.991	99.991	20.455	3.708	0.499
142.499	149.542	79.995	19.992	99.994	20.455	3.725	0.523
143.999	150.248	79.995	19.993	99.991	20.453	3.889	0.443
145.499	150.998	79.996	19.992	99.989	20.453	3.860	0.517
147.000	151.757	79.996	19.992	99.989	20.455	3.756	0.513
148.499	152.482	79.996	19.993	99.990	20.453	3.878	0.484
149.999	153.267	79.997	19.993	99.990	20.455	3.749	0.516
151.499	153.957	79.996	19.993	99.989	20.456	3.640	0.482
152.999	154.707	79.996	19.993	99.989	20.455	3.738	0.495
154.500	155.446	79.997	19.992	99.990	20.453	3.833	0.485
155.999	156.205	79.995	19.992	99.990	20.457	3.616	0.497
157.499	156.959	79.996	19.991	99.990	20.458	3.501	0.499
158.999	157.736	79.997	19.992	99.990	20.454	3.816	0.539
160.500	158.453	79.995	19.992	99.988	20.453	3.892	0.496
161.999	159.215	79.994	19.992	99.988	20.452	3.918	0.512
163.500	159.985	79.995	19.992	99.991	20.455	3.750	0.499
164.999	160.756	79.996	19.992	99.986	20.457	3.584	0.511
166.499	161.506	79.996	19.992	99.981	20.456	3.674	0.526
167.999	162.230	79.995	19.992	99.978	20.454	3.762	0.489
169.499	163.003	79.995	19.991	99.971	20.454	3.790	0.528
170.999	163.730	79.993	19.992	99.965	20.455	3.759	0.484
172.499	164.540	79.994	19.992	99.976	20.455	3.702	0.546
173.999	165.263	79.993	19.992	99.978	20.456	3.641	0.495
175.499	166.032	79.994	19.992	99.969	20.456	3.685	0.504
176.999	166.815	79.995	19.991	99.966	20.458	3.554	0.518
178.500	167.541	79.995	19.992	99.958	20.455	3.728	0.506
179.999	168.279	79.993	19.991	99.960	20.456	3.654	0.485
181.499	169.030	79.994	19.992	99.960	20.457	3.576	0.517
183.000	169.812	79.994	19.991	99.961	20.460	3.421	0.501
184.500	170.539	79.995	19.991	99.958	20.456	3.669	0.481
186.000	171.313	79.995	19.991	99.962	20.454	3.763	0.510
187.499	172.086	79.995	19.991	99.969	20.456	3.650	0.509
188.999	172.799	79.995	19.991	99.962	20.452	3.938	0.472
190.499	173.551	79.996	19.992	99.963	20.451	4.004	0.485
191.999	174.294	79.994	19.992	99.954	20.451	3.965	0.476
193.500	175.081	79.994	19.992	99.960	20.452	3.913	0.526
194.999	175.849	79.993	19.991	99.972	20.450	4.089	0.531
196.500	176.544	79.996	19.991	99.974	20.450	4.063	0.476
197.999	177.309	79.995	19.990	99.958	20.450	4.037	0.493
199.499	178.089	79.996	19.992	99.957	20.450	4.079	0.515
200.999	178.846	79.995	19.992	99.961	20.449	4.126	0.525
202.499	179.563	79.995	19.991	99.957	20.451	4.021	0.475
203.999	180.275	79.994	19.991	99.953	20.448	4.176	0.460
205.499	181.039	79.997	19.991	99.954	20.449	4.163	0.512
206.999	181.809	79.996	19.992	99.956	20.448	4.167	0.514
208.499	182.515	79.997	19.992	99.953	20.446	4.314	0.462
209.999	183.293	79.996	19.991	99.953	20.446	4.314	0.499
211.499	184.017	79.995	19.991	99.955	20.443	4.537	0.452
212.999	184.755	79.995	19.991	99.958	20.441	4.641	0.500
214.500	185.526	79.996	19.993	99.957	20.441	4.699	0.555
215.999	186.289	79.995	19.992	99.966	20.440	4.738	0.500
217.500	187.075	79.995	19.992	99.976	20.440	4.755	0.508
219.000	187.779	79.997	19.992	99.972	20.443	4.545	0.485
220.499	188.519	79.995	19.992	99.964	20.439	4.827	0.487
221.999	189.259	79.996	19.992	99.962	20.438	4.843	0.503
223.499	190.029	79.995	19.992	99.962	20.435	5.098	0.525
224.999	190.737	79.996	19.991	99.960	20.439	4.805	0.469
226.499	191.444	79.996	19.991	99.957	20.436	4.974	0.485
227.999	192.183	79.997	19.992	99.963	20.434	5.114	0.509
229.500	192.949	79.998	19.992	99.960	20.432	5.280	0.468
231.000	193.684	79.995	19.992	99.958	20.434	5.160	0.484
232.499	194.458	79.996	19.993	99.954	20.434	5.153	0.490
234.000	195.159	79.996	19.992	99.954	20.431	5.347	0.474
235.499	195.906	79.996	19.992	99.958	20.433	5.229	0.495
237.000	196.640	79.995	19.992	99.958	20.432	5.260	0.482
238.499	197.436	79.994	19.992	99.954	20.427	5.588	0.535
239.999	198.162	79.995	19.992	99.954	20.428	5.577	0.489
241.499	198.846	79.994	19.992	99.953	20.426	5.697	0.478
242.999	199.631	79.993	19.992	99.955	20.425	5.756	0.520
244.499	200.331	79.996	19.992	99.960	20.429	5.496	0.462
246.000	201.126	79.995	19.993	99.958	20.425	5.723	0.515
247.499	201.878	79.995	19.992	99.954	20.421	6.027	0.511
249.000	202.584	79.993	19.992	99.953	20.420	6.092	0.454
250.499	203.337	79.993	19.990	99.956	20.423	5.902	0.509
252.000	204.102	79.994	19.992	99.955	20.426	5.658	0.493
253.499	204.832	79.995	19.992	99.957	20.421	5.996	0.489
254.999	205.579	79.994	19.991	99.956	20.430	5.387	0.492
256.500	206.320	79.994	19.990	99.954	20.417	6.300	0.494
258.000	207.088	79.994	19.991	99.958	20.416	6.364	0.508
259.500	207.849	79.994	19.992	99.955	20.421	6.042	0.518
261.000	208.581	79.994	19.992	99.962	20.415	6.442	0.498
262.500	209.300	79.996	19.992	99.963	20.413	6.526	0.497
264.000	210.052	79.995	19.992	99.954	20.411	6.664	0.504
265.500	210.832	79.995	19.992	99.958	20.407	6.971	0.493
267.000	211.540	79.994	19.992	99.955	20.406	7.025	0.485
268.500	212.273	79.994	19.991	99.953	20.425	5.732	0.472
270.000	213.008	79.993	19.991	99.954	20.402	7.287	0.494
271.500	213.771	79.994	19.991	99.956	20.414	6.483	0.490
273.000	214.552	79.994	19.991	99.965	20.411	6.684	0.502
274.500	215.298	79.993	19.991	99.965	20.401	7.339	0.494
276.000	216.007	79.994	19.991	99.954	20.399	7.499	0.453
277.500	216.788	79.996	19.991	99.962	20.402	7.281	0.558
279.000	217.571	79.994	19.991	99.962	20.401	7.356	0.529
280.500	218.253	79.996	19.992	99.956	20.416	6.355	0.466
282.000	218.990	79.993	19.992	99.961	20.395	7.766	0.498
283.500	219.752	79.996	19.992	99.966	20.397	7.638	0.527
285.000	220.521	79.997	19.991	99.963	20.397	7.638	0.535
286.500	221.246	79.997	19.991	99.961	20.393	7.895	0.510
288.000	221.972	79.997	19.993	99.967	20.397	7.608	0.527
289.500	222.721	79.996	19.991	99.984	20.398	7.564	0.497
291.000	223.462	79.997	19.992	99.981	20.409	6.799	0.481
292.500	224.194	79.995	19.991	99.969	20.384	8.486	0.483
294.000	224.969	79.995	19.992	99.983	20.387	8.307	0.499
295.500	225.721	79.996	19.992	99.985	20.383	8.590	0.516
297.000	226.456	79.994	19.991	99.979	20.386	8.384	0.477
298.500	227.222	79.994	19.993	99.966	20.387	8.276	0.528
300.000	228.028	79.996	19.992	99.962	20.388	8.219	0.541
301.500	228.730	79.995	19.992	99.969	20.389	8.185	0.483
303.000	229.560	79.996	19.992	99.970	20.392	7.999	0.568
304.500	230.234	79.997	19.992	99.964	20.386	8.403	0.499
306.000	230.909	79.997	19.992	99.961	20.383	8.578	0.485
307.500	231.695	79.997	19.992	99.959	20.385	8.451	0.550
309.000	232.436	79.998	19.992	99.958	20.387	8.320	0.476
310.500	233.182	79.998	19.991	99.962	20.376	9.017	0.550
312.000	233.980	79.998	19.991	99.962	20.378	8.929	0.543
313.500	234.722	79.999	19.992	99.962	20.374	9.218	0.460
315.000	235.483	79.998	19.992	99.960	20.377	8.949	0.483
316.500	236.250	79.996	19.991	99.956	20.372	9.327	0.490
318.000	236.954	79.994	19.992	99.961	20.370	9.425	0.470
319.500	237.731	79.997	19.993	99.960	20.371	9.394	0.518
321.000	238.470	79.994	19.993	99.958	20.373	9.281	0.502
322.500	239.221	79.995	19.993	99.962	20.368	9.558	0.484
324.000	239.945	79.992	19.993	99.975	20.370	9.447	0.486
325.500	240.669	79.993	19.992	99.968	20.369	9.543	0.466
327.000	241.380	79.994	19.993	99.958	20.367	9.683	0.479
328.500	242.161	79.994	19.994	99.976	20.364	9.874	0.538
330.000	242.870	79.992	19.993	99.975	20.363	9.918	0.472
331.500	243.586	79.995	19.992	99.963	20.363	9.896	0.488
333.000	244.347	79.995	19.993	99.974	20.359	10.173	0.499
334.500	245.096	79.996	19.991	99.982	20.360	10.153	0.509
336.000	245.841	79.994	19.992	99.981	20.359	10.202	0.504
337.500	246.560	79.995	19.992	99.977	20.355	10.451	0.482
339.000	247.282	79.996	19.991	99.977	20.354	10.547	0.480
340.500	248.023	79.996	19.992	99.970	20.353	10.606	0.474
342.000	248.806	79.993	19.991	99.985	20.348	10.946	0.520
343.500	249.530	79.995	19.992	99.990	20.350	10.795	0.487
345.000	250.322	79.993	19.992	99.990	20.351	10.706	0.516
346.500	251.027	79.994	19.992	99.989	20.349	10.904	0.461
348.000	251.768	79.991	19.991	99.987	20.345	11.173	0.518
349.500	252.565	79.993	19.991	99.992	20.342	11.347	0.519
351.000	253.326	79.994	19.993	99.983	20.338	11.583	0.490
352.500	254.045	79.995	19.991	99.991	20.340	11.494	0.492
354.000	254.825	79.996	19.993	99.992	20.338	11.594	0.512
355.500	255.527	79.994	19.991	99.993	20.334	11.853	0.461
357.000	256.309	79.995	19.991	99.993	20.330	12.164	0.540
358.500	257.037	79.994	19.991	99.993	20.323	12.653	0.494
360.000	257.832	79.995	19.993	99.994	20.323	12.648	0.519
361.500	258.555	79.996	19.991	99.994	20.320	12.851	0.486
363.000	259.256	79.996	19.991	99.994	20.320	12.850	0.470
364.500	260.053	79.997	19.990	99.995	20.316	13.093	0.512
366.000	260.801	79.995	19.991	99.997	20.313	13.308	0.499
367.500	261.515	79.997	19.992	99.997	20.307	13.693	0.471
369.000	262.279	79.999	19.991	99.997	20.309	13.589	0.521
370.500	263.031	79.999	19.992	99.997	20.306	13.766	0.511
372.000	263.732	79.996	19.991	99.996	20.299	14.268	0.462
373.500	264.509	79.996	19.992	99.999	20.296	14.469	0.514
375.000	265.244	79.996	19.991	100.002	20.294	14.568	0.527
376.500	265.956	79.997	19.990	99.996	20.295	14.495	0.486
378.000	266.763	79.995	19.991	99.995	20.287	15.058	0.543
379.500	267.456	79.995	19.991	99.994	20.288	14.962	0.480
381.000	268.240	79.997	19.992	100.007	20.282	15.392	0.504
382.500	269.022	79.995	19.992	100.015	20.279	15.617	0.527
384.000	269.766	79.996	19.993	100.007	20.274	15.895	0.526
385.500	270.550	79.998	19.992	100.013	20.272	16.066	0.510
387.000	271.287	79.997	19.992	100.011	20.266	16.463	0.494
388.500	272.080	79.999	19.993	100.018	20.266	16.490	0.547
390.000	272.809	79.995	19.992	100.021	20.262	16.717	0.489
391.500	273.569	79.997	19.991	100.013	20.255	17.177	0.527
393.000	274.327	79.999	19.991	100.013	20.250	17.539	0.487
394.500	275.117	79.997	19.991	100.015	20.248	17.656	0.523
396.000	275.818	79.996	19.991	100.017	20.245	17.903	0.474
397.500	276.603	79.998	19.992	100.019	20.235	18.571	0.508
399.000	277.347	79.998	19.992	100.019	20.233	18.665	0.483
400.500	278.082	79.996	19.992	100.019	20.230	18.913	0.496
402.000	278.860	79.995	19.992	100.028	20.223	19.346	0.520
403.500	279.610	79.991	19.993	100.028	20.219	19.636	0.507
405.000	280.342	79.995	19.991	100.030	20.215	19.906	0.488
406.500	281.041	79.995	19.993	100.031	20.207	20.416	0.479
408.000	281.831	79.992	19.993	100.031	20.202	20.791	0.532
409.500	282.590	79.995	19.992	100.031	20.197	21.137	0.510
411.000	283.368	79.994	19.993	100.032	20.193	21.413	0.505
412.500	284.093	79.994	19.993	100.030	20.191	21.505	0.491
414.000	284.834	79.994	19.992	100.030	20.179	22.333	0.455
415.500	285.591	79.995	19.994	100.044	20.177	22.508	0.494
417.000	286.338	79.995	19.992	100.045	20.169	23.032	0.481
418.500	287.093	79.993	19.992	100.052	20.165	23.265	0.510
420.000	287.841	79.997	19.992	100.061	20.162	23.464	0.503
421.500	288.580	79.994	19.991	100.061	20.159	23.657	0.489
423.000	289.343	79.994	19.990	100.068	20.153	24.111	0.494
424.500	290.127	79.993	19.992	100.071	20.149	24.380	0.535
426.000	290.856	79.997	19.992	100.070	20.139	25.035	0.499
427.500	291.604	79.993	19.991	100.065	20.136	25.212	0.497
429.000	292.391	79.992	19.991	100.064	20.132	25.526	0.499
430.500	293.122	79.993	19.991	100.071	20.122	26.167	0.490
432.000	293.885	79.994	19.990	100.072	20.120	26.305	0.515
433.500	294.625	79.994	19.991	100.065	20.115	26.664	0.476
435.000	295.448	79.992	19.993	100.062	20.106	27.261	0.549
436.500	296.153	79.995	19.992	100.065	20.102	27.543	0.471
438.000	296.958	79.994	19.991	100.069	20.101	27.631	0.531
439.500	297.725	79.993	19.992	100.069	20.092	28.236	0.514
441.000	298.466	79.994	19.992	100.070	20.084	28.739	0.498
442.500	299.212	79.997	19.992	100.070	20.075	29.352	0.509
444.000	299.945	79.998	19.992	100.071	20.069	29.790	0.507
445.500	300.721	79.997	19.992	100.073	20.062	30.247	0.515
447.000	301.493	79.995	19.993	100.070	20.056	30.643	0.513
448.500	302.231	79.996	19.990	100.074	20.048	31.212	0.488
450.000	302.984	79.997	19.991	100.079	20.049	31.136	0.493
451.500	303.756	79.999	19.992	100.082	20.040	31.737	0.512
453.000	304.510	79.996	19.992	100.094	20.032	32.250	0.504
454.500	305.258	79.995	19.992	100.093	20.029	32.503	0.491
456.000	306.020	79.997	19.992	100.089	20.021	33.029	0.497
457.500	306.757	79.998	19.992	100.093	20.016	33.355	0.478
459.000	307.502	79.997	19.992	100.102	20.008	33.866	0.510
460.500	308.262	79.998	19.992	100.103	19.999	34.509	0.513
462.000	309.014	79.996	19.991	100.108	19.995	34.775	0.507
463.500	309.798	79.995	19.992	100.106	19.989	35.191	0.498
465.000	310.559	79.994	19.991	100.106	19.985	35.459	0.519
466.500	311.323	79.996	19.992	100.106	19.975	36.130	0.511
468.000	312.116	79.997	19.991	100.108	19.968	36.557	0.517
469.500	312.900	79.998	19.991	100.108	19.959	37.167	0.533
471.000	313.668	79.997	19.991	100.108	19.952	37.653	0.518
472.500	314.427	79.999	19.991	100.108	19.946	38.093	0.506
474.000	315.194	79.997	19.991	100.108	19.937	38.700	0.518
475.500	315.930	79.995	19.991	100.108	19.934	38.916	0.507
477.000	316.676	79.995	19.992	100.113	19.923	39.629	0.499
478.500	317.432	79.995	19.991	100.113	19.918	39.949	0.503
480.000	318.200	79.994	19.992	100.110	19.908	40.612	0.504
481.500	318.950	79.992	19.991	100.112	19.903	40.960	0.485
483.000	319.758	79.994	19.991	100.112	19.892	41.723	0.531
484.500	320.479	79.995	19.992	100.122	19.884	42.280	0.498
486.000	321.269	79.993	19.990	100.130	19.882	42.415	0.536
487.500	321.996	79.993	19.990	100.135	19.874	42.941	0.490
489.000	322.777	79.993	19.992	100.144	19.868	43.328	0.536
490.500	323.518	79.992	19.992	100.139	19.860	43.914	0.499
492.000	324.262	79.992	19.993	100.143	19.855	44.212	0.487
493.500	325.054	79.995	19.993	100.136	19.841	45.192	0.539
495.000	325.753	79.993	19.992	100.144	19.835	45.551	0.452
496.500	326.501	79.993	19.991	100.144	19.827	46.107	0.496
498.000	327.245	79.993	19.992	100.141	19.819	46.668	0.486
499.500	328.019	79.993	19.994	100.144	19.812	47.108	0.518
501.000	328.749	79.993	19.992	100.144	19.805	47.589	0.489
502.500	329.542	79.993	19.992	100.146	19.795	48.286	0.518
504.000	330.312	79.994	19.992	100.146	19.794	48.334	0.527
505.500	331.077	79.995	19.992	100.147	19.781	49.219	0.509
507.000	331.856	79.993	19.992	100.150	19.778	49.407	0.521
508.500	332.577	79.993	19.992	100.155	19.767	50.165	0.483
510.000	333.365	79.993	19.991	100.154	19.765	50.307	0.518
511.500	334.103	79.994	19.991	100.154	19.757	50.884	0.497
513.000	334.857	79.995	19.992	100.173	19.748	51.436	0.521
514.500	335.633	79.993	19.992	100.166	19.741	51.917	0.515
516.000	336.392	79.993	19.991	100.167	19.735	52.339	0.505
517.500	337.111	79.994	19.991	100.181	19.725	53.045	0.483
519.000	337.902	79.995	19.992	100.171	19.719	53.441	0.527
520.500	338.674	79.995	19.992	100.175	19.715	53.687	0.514
522.000	339.432	79.994	19.991	100.183	19.700	54.706	0.497
523.500	340.196	79.996	19.992	100.184	19.692	55.218	0.499
525.000	340.982	79.996	19.992	100.183	19.686	55.633	0.519
526.500	341.752	79.996	19.992	100.184	19.679	56.093	0.541
528.000	342.511	79.996	19.991	100.180	19.670	56.752	0.496
529.500	343.230	79.996	19.992	100.186	19.661	57.327	0.474
531.000	343.942	79.996	19.992	100.188	19.654	57.840	0.483
532.500	344.722	79.996	19.991	100.188	19.643	58.586	0.489
534.000	345.522	79.997	19.992	100.187	19.642	58.655	0.535
535.500	346.224	79.997	19.992	100.187	19.634	59.188	0.478
537.000	347.017	79.995	19.991	100.187	19.624	59.862	0.536
538.500	347.785	79.995	19.991	100.189	19.616	60.352	0.517
540.000	348.573	79.997	19.990	100.190	19.610	60.810	0.503
541.500	349.308	79.996	19.991	100.190	19.605	61.130	0.494
543.000	350.077	79.996	19.990	100.191	19.598	61.578	0.524
544.500	350.787	79.995	19.991	100.197	19.594	61.901	0.466
546.000	351.587	79.997	19.991	100.200	19.585	62.485	0.534
547.500	352.300	79.996	19.991	100.197	19.578	62.975	0.502
549.000	353.112	79.998	19.991	100.200	19.568	63.602	0.522
550.500	353.866	79.995	19.990	100.196	19.564	63.885	0.506
552.000	354.628	79.997	19.990	100.200	19.558	64.299	0.502
553.500	355.378	79.996	19.990	100.198	19.554	64.565	0.505
555.000	356.116	79.996	19.991	100.201	19.553	64.608	0.498
556.500	356.868	79.995	19.991	100.197	19.545	65.155	0.515
558.000	357.651	79.996	19.992	100.191	19.546	65.101	0.541
559.500	358.386	79.994	19.991	100.201	19.538	65.639	0.497
561.000	359.137	79.995	19.992	100.205	19.538	65.624	0.507
562.500	359.898	79.996	19.992	100.191	19.535	65.833	0.523
564.000	360.683	79.995	19.993	100.190	19.537	65.709	0.537
565.500	361.401	79.994	19.993	100.189	19.537	65.684	0.466
567.000	362.163	79.995	19.992	100.184	19.537	65.672	0.504
568.500	362.982	79.995	19.993	100.182	19.540	65.487	0.540
570.000	363.671	79.993	19.992	100.179	19.544	65.228	0.452
571.500	364.460	79.992	19.990	100.164	19.548	64.933	0.505
573.000	365.180	79.992	19.991	100.159	19.554	64.500	0.475
574.500	365.930	79.994	19.993	100.164	19.559	64.189	0.508
576.000	366.699	79.996	19.992	100.169	19.569	63.486	0.525
577.500	367.465	79.995	19.991	100.158	19.580	62.763	0.505
579.000	368.267	79.994	19.992	100.148	19.589	62.129	0.533
580.500	369.000	79.995	19.993	100.137	19.600	61.378	0.491
582.000	369.756	79.995	19.992	100.126	19.611	60.600	0.500
583.500	370.500	79.994	19.992	100.110	19.627	59.543	0.501
585.000	371.292	79.994	19.993	100.106	19.646	58.265	0.521
586.500	372.075	79.995	19.993	100.097	19.662	57.154	0.523
588.000	372.812	79.996	19.993	100.079	19.681	55.907	0.503
589.500	373.596	79.996	19.993	100.070	19.702	54.487	0.523
591.000	374.358	79.994	19.992	100.064	19.727	52.803	0.504
592.500	375.110	79.994	19.993	100.054	19.748	51.356	0.512
594.000	375.870	79.993	19.992	100.038	19.777	49.422	0.495
595.500	376.634	79.994	19.992	100.036	19.795	48.195	0.511
597.000	377.408	79.994	19.991	100.025	19.824	46.258	0.509
598.500	378.147	79.994	19.992	100.009	19.848	44.584	0.504
600.000	378.944	79.994	19.991	100.008	19.879	42.537	0.518
601.500	379.705	79.995	19.991	100.011	19.903	40.876	0.510
603.000	380.440	79.996	19.991	99.991	19.928	39.223	0.484
604.500	381.196	79.997	19.992	99.991	19.957	37.293	0.508
606.000	381.929	79.998	19.991	99.981	19.986	35.337	0.485
607.500	382.710	79.997	19.991	99.966	20.011	33.638	0.535
609.000	383.504	79.997	19.992	99.959	20.036	31.923	0.531
610.500	384.294	79.996	19.992	99.952	20.064	30.070	0.528
612.000	385.056	79.996	19.991	99.952	20.086	28.611	0.512
613.500	385.759	79.994	19.992	99.953	20.106	27.199	0.469
615.000	386.566	79.996	19.991	99.951	20.129	25.670	0.531
616.500	387.356	79.995	19.992	99.951	20.153	24.082	0.539
618.000	388.088	79.995	19.991	99.950	20.173	22.744	0.492
619.500	388.881	79.995	19.991	99.950	20.186	21.810	0.511
621.000	389.632	79.996	19.992	99.940	20.208	20.346	0.502
622.500	390.354	79.995	19.991	99.940	20.220	19.518	0.486
624.000	391.179	79.996	19.991	99.950	20.236	18.442	0.531
625.500	391.938	79.996	19.991	99.938	20.251	17.450	0.497
627.000	392.702	79.997	19.991	99.931	20.261	16.785	0.499
628.500	393.492	79.997	19.992	99.926	20.274	15.898	0.522
630.000	394.233	79.998	19.992	99.926	20.281	15.422	0.485
631.500	395.010	79.998	19.991	99.926	20.288	14.955	0.524
633.000	395.774	79.998	19.991	99.915	20.296	14.465	0.521
634.500	396.505	79.996	19.991	99.920	20.298	14.308	0.479
636.000	397.273	79.997	19.991	99.923	20.309	13.575	0.511
637.500	398.089	79.995	19.991	99.921	20.314	13.194	0.539
639.000	398.829	79.996	19.992	99.915	20.316	13.051	0.491
640.500	399.586	79.994	19.992	99.915	20.320	12.852	0.520
642.000	400.310	79.994	19.991	99.933	20.330	12.179	0.479
643.500	401.101	79.995	19.993	99.944	20.330	12.117	0.522
645.000	401.820	79.994	19.992	99.936	20.332	12.040	0.470
646.500	402.592	79.995	19.992	99.920	20.333	11.972	0.529
648.000	403.352	79.994	19.992	99.922	20.332	12.033	0.514
649.500	404.103	79.994	19.992	99.867	20.336	11.704	0.506
651.000	404.910	79.996	19.992	99.914	20.339	11.520	0.529
652.500	405.648	79.995	19.992	99.971	20.338	11.591	0.506
654.000	406.424	79.994	19.992	99.918	20.344	11.172	0.535
655.500	407.150	79.996	19.992	99.913	20.344	11.207	0.475
657.000	407.954	79.995	19.992	99.915	20.341	11.373	0.519
658.500	408.690	79.996	19.991	99.920	20.347	10.998	0.493
660.000	409.459	79.994	19.991	99.914	20.346	11.036	0.521
661.500	410.203	79.995	19.992	99.915	20.342	11.362	0.495
663.000	410.956	79.993	19.992	99.918	20.347	11.008	0.501
664.500	411.726	79.994	19.992	99.920	20.347	11.019	0.514
666.000	412.510	79.993	19.993	99.917	20.344	11.210	0.516
667.500	413.258	79.992	19.992	99.918	20.347	11.019	0.520
669.000	413.982	79.993	19.992	99.922	20.347	10.991	0.476
670.500	414.720	79.992	19.993	99.918	20.341	11.418	0.495
672.000	415.498	79.993	19.993	99.915	20.348	10.934	0.506
673.500	416.236	79.993	19.992	99.915	20.348	10.918	0.490
675.000	416.997	79.993	19.992	99.917	20.350	10.813	0.527
676.500	417.774	79.993	19.992	99.928	20.354	10.538	0.501
678.000	418.472	79.993	19.993	99.925	20.349	10.858	0.469
679.500	419.213	79.994	19.992	99.916	20.352	10.632	0.512
681.000	420.002	79.994	19.992	99.917	20.349	10.866	0.533
682.500	420.794	79.995	19.991	99.931	20.353	10.624	0.539
684.000	421.536	79.996	19.992	99.929	20.354	10.529	0.510
685.500	422.279	79.995	19.992	99.918	20.357	10.349	0.504
687.000	423.052	79.995	19.990	99.916	20.359	10.174	0.523
688.500	423.798	79.996	19.991	99.915	20.360	10.134	0.499
690.000	424.609	79.996	19.990	99.915	20.357	10.319	0.540
691.500	425.337	79.996	19.992	99.919	20.359	10.161	0.464
693.000	426.080	79.994	19.991	99.913	20.357	10.322	0.481
694.500	426.847	79.995	19.991	99.917	20.363	9.892	0.515
696.000	427.650	79.995	19.992	99.927	20.361	10.081	0.555
697.500	428.437	79.994	19.992	99.915	20.363	9.893	0.527
699.000	429.199	79.995	19.991	99.914	20.366	9.742	0.486
700.500	429.950	79.997	19.991	99.921	20.364	9.824	0.498
702.000	430.717	79.995	19.992	99.916	20.365	9.790	0.508
703.500	431.468	79.996	19.991	99.914	20.370	9.471	0.498
705.000	432.265	79.997	19.992	99.914	20.366	9.751	0.536
706.500	433.020	79.997	19.992	99.918	20.371	9.360	0.499
708.000	433.822	79.998	19.992	99.923	20.369	9.485	0.533
709.500	434.612	79.996	19.991	99.917	20.370	9.419	0.509
711.000	435.376	79.999	19.991	99.916	20.377	8.987	0.511
712.500	436.138	79.997	19.991	99.918	20.372	9.325	0.525
714.000	436.895	79.998	19.991	99.923	20.371	9.371	0.506
715.500	437.685	79.997	19.991	99.921	20.374	9.209	0.501
717.000	438.436	79.998	19.991	99.917	20.378	8.890	0.505
718.500	439.195	79.996	19.991	99.915	20.376	9.028	0.507
720.000	439.954	79.994	19.991	99.924	20.377	8.959	0.514
721.500	440.709	79.996	19.991	99.920	20.379	8.814	0.487
723.000	441.484	79.995	19.991	99.914	20.380	8.783	0.520
724.500	442.250	79.994	19.992	99.915	20.387	8.322	0.487
726.000	443.019	79.995	19.991	99.918	20.384	8.533	0.497
727.500	443.770	79.994	19.992	99.922	20.382	8.607	0.502
729.000	444.533	79.993	19.992	99.918	20.390	8.080	0.507
730.500	445.262	79.994	19.992	99.914	20.392	7.969	0.492
732.000	446.038	79.993	19.993	99.914	20.393	7.888	0.512
733.500	446.737	79.993	19.992	99.914	20.393	7.911	0.476
735.000	447.546	79.993	19.991	99.914	20.395	7.732	0.539
736.500	448.355	79.993	19.991	99.911	20.401	7.376	0.530
738.000	449.114	79.994	19.992	99.912	20.402	7.275	0.510
739.500	449.823	79.993	19.992	99.912	20.400	7.398	0.477
741.000	450.578	79.995	19.991	99.911	20.398	7.545	0.491
742.500	451.388	79.993	19.992	99.914	20.399	7.490	0.536
744.000	452.140	79.994	19.991	99.915	20.400	7.402	0.493
745.500	452.880	79.995	19.992	99.915	20.403	7.247	0.511
747.000	453.639	79.994	19.992	99.916	20.404	7.156	0.500
748.500	454.413	79.994	19.992	99.916	20.407	6.985	0.523
750.000	455.189	79.994	19.992	99.916	20.410	6.742	0.528
751.500	456.001	79.993	19.993	99.913	20.405	7.123	0.523
753.000	456.713	79.993	19.992	99.911	20.416	6.373	0.468
754.500	457.488	79.994	19.992	99.911	20.408	6.891	0.507
756.000	458.228	79.993	19.993	99.912	20.414	6.506	0.506
757.500	459.014	79.994	19.993	99.911	20.410	6.736	0.521
759.000	459.768	79.995	19.993	99.914	20.412	6.594	0.512
760.500	460.499	79.994	19.993	99.911	20.415	6.395	0.453
762.000	461.283	79.994	19.992	99.911	20.416	6.373	0.526
763.500	462.052	79.995	19.991	99.910	20.416	6.336	0.518
765.000	462.789	79.997	19.992	99.910	20.415	6.415	0.507
766.500	463.568	79.996	19.992	99.910	20.418	6.190	0.534
768.000	464.271	79.997	19.992	99.908	20.420	6.052	0.487
769.500	465.044	79.997	19.991	99.911	20.418	6.223	0.510
771.000	465.784	79.998	19.992	99.912	20.415	6.435	0.490
772.500	466.567	79.997	19.990	99.910	20.417	6.290	0.512
774.000	467.323	79.997	19.991	99.911	20.416	6.381	0.502
775.500	468.056	79.996	19.991	99.913	20.418	6.213	0.484
777.000	468.822	79.997	19.991	99.912	20.421	6.021	0.514
778.500	469.583	79.997	19.992	99.911	20.422	5.923	0.485
780.000	470.348	79.994	19.991	99.910	20.424	5.794	0.529
781.500	471.044	79.996	19.992	99.909	20.430	5.429	0.450
783.000	471.851	79.996	19.990	99.910	20.422	5.979	0.524
784.500	472.601	79.996	19.991	99.915	20.419	6.139	0.491
786.000	473.383	79.997	19.991	99.914	20.426	5.647	0.487
787.500	474.131	79.997	19.992	99.912	20.431	5.357	0.486
789.000	474.909	79.997	19.991	99.912	20.431	5.320	0.518
790.500	475.685	79.997	19.991	99.913	20.433	5.225	0.533
792.000	476.380	79.998	19.992	99.915	20.432	5.273	0.482
793.500	477.195	79.998	19.990	99.914	20.432	5.265	0.529
795.000	477.964	79.997	19.991	99.914	20.429	5.462	0.519
796.500	478.713	79.996	19.991	99.914	20.439	4.823	0.513
798.000	479.463	79.995	19.990	99.913	20.438	4.858	0.505
799.500	480.243	79.994	19.991	99.913	20.436	4.985	0.532
801.000	481.020	79.995	19.992	99.915	20.438	4.878	0.501
802.500	481.754	79.994	19.991	99.918	20.436	5.005	0.504
804.000	482.551	79.994	19.991	99.918	20.443	4.531	0.503
805.500	483.267	79.993	19.990	99.916	20.435	5.086	0.489
807.000	484.057	79.995	19.992	99.916	20.438	4.870	0.517
808.500	484.823	79.994	19.992	99.916	20.443	4.555	0.512
810.000	485.552	79.994	19.991	99.918	20.447	4.240	0.512
811.500	486.325	79.994	19.992	99.917	20.437	4.933	0.516
813.000	487.103	79.995	19.992	99.921	20.441	4.701	0.506
814.500	487.836	79.995	19.992	99.917	20.440	4.708	0.489
816.000	488.647	79.994	19.991	99.914	20.444	4.480	0.542
817.500	489.399	79.996	19.993	99.912	20.439	4.791	0.500
819.000	490.174	79.992	19.991	99.909	20.436	5.001	0.491
820.500	490.971	79.994	19.991	99.909	20.435	5.055	0.485
822.000	491.763	79.995	19.991	99.911	20.454	3.775	0.555
823.500	492.502	79.994	19.991	99.913	20.436	4.997	0.520
825.000	493.265	79.994	19.991	99.913	20.441	4.660	0.464
826.500	494.049	79.994	19.993	99.912	20.436	5.023	0.500
828.000	494.815	79.994	19.991	99.910	20.441	4.677	0.474
829.500	495.612	79.994	19.991	99.909	20.441	4.684	0.557
831.000	496.340	79.993	19.992	99.910	20.446	4.321	0.424
832.500	496.983	79.993	19.991	99.911	20.436	4.979	0.263
834.000	498.273	79.993	19.991	99.908	20.437	4.957	0.752
835.500	499.109	79.994	19.992	99.905	20.440	4.760	0.568
837.000	499.760	79.994	19.991	99.909	20.443	4.528	0.476
838.500	500.447	79.994	19.993	99.915	20.440	4.725	0.154
840.000	500.936	79.992	19.991	99.914	20.442	4.625	0.433
841.500	501.696	79.993	19.992	99.904	20.442	4.625	0.500
843.000	502.561	79.996	19.993	99.908	20.444	4.472	0.480
844.500	503.257	79.995	19.993	99.910	20.444	4.457	0.430
846.000	504.108	79.995	19.992	99.911	20.444	4.452	0.549
847.500	504.846	79.996	19.992	99.910	20.441	4.638	0.501
849.000	505.661	79.995	19.992	99.908	20.443	4.500	0.549
850.500	506.458	79.996	19.992	99.909	20.448	4.229	0.512
852.000	507.218	79.995	19.992	99.908	20.444	4.471	0.514
853.500	507.962	79.996	19.992	99.912	20.447	4.269	0.545
855.001	508.797	79.995	19.991	99.911	20.447	4.281	0.536
856.500	509.575	79.995	19.990	99.909	20.446	4.310	0.517
858.000	510.353	79.995	19.991	99.909	20.443	4.554	0.490
859.500	511.141	79.996	19.992	99.903	20.445	4.401	0.496
861.000	511.910	79.994	19.990	99.907	20.442	4.585	0.528
862.500	512.723	79.997	19.991	99.913	20.441	4.677	0.571
864.000	513.539	79.996	19.992	99.911	20.449	4.148	0.542
865.500	514.388	79.996	19.990	99.910	20.446	4.312	0.556
867.000	515.141	79.996	19.991	99.914	20.448	4.201	0.504
868.500	515.970	79.996	19.990	99.916	20.440	4.753	0.537
870.000	516.726	79.997	19.992	99.915	20.449	4.105	0.515
871.500	517.548	79.997	19.991	99.914	20.446	4.358	0.560
873.000	518.331	79.996	19.990	99.915	20.447	4.277	0.531
874.500	519.105	79.996	19.992	99.912	20.449	4.118	0.547
876.000	519.946	79.997	19.990	99.909	20.447	4.233	0.532
877.500	520.745	79.996	19.991	99.910	20.446	4.308	0.532
879.000	521.561	79.995	19.991	99.913	20.450	4.087	0.549
880.500	522.319	79.996	19.993	99.912	20.450	4.078	0.502
882.000	523.102	79.995	19.992	99.913	20.452	3.925	0.532
883.500	523.929	79.995	19.992	99.912	20.449	4.113	0.551
885.000	524.718	79.995	19.991	99.913	20.448	4.200	0.533
886.500	525.525	79.995	19.990	99.912	20.450	4.072	0.539
888.000	526.296	79.994	19.991	99.912	20.448	4.179	0.517
889.500	527.105	79.994	19.992	99.908	20.458	3.493	0.532
891.000	527.915	79.995	19.991	99.913	20.453	3.853	0.527
892.500	528.732	79.995	19.991	99.912	20.450	4.054	0.542
894.000	529.591	79.994	19.991	99.912	20.456	3.630	0.555
895.500	530.365	79.994	19.992	99.914	20.451	3.997	0.521
897.000	531.155	79.994	19.992	99.914	20.452	3.904	0.530
898.500	531.971	79.997	19.992	99.909	20.450	4.054	0.524
900.000	532.729	79.995	19.992	99.908	20.453	3.871	0.539
901.500	533.529	79.995	19.992	99.907	20.455	3.694	0.556
903.000	534.344	79.995	19.992	99.909	20.446	4.336	0.552
904.500	535.173	79.994	19.992	99.910	20.451	3.963	0.546
906.000	535.925	79.994	19.992	99.912	20.453	3.879	0.505
907.500	536.716	79.995	19.992	99.906	20.451	4.008	0.534
909.000	537.496	79.994	19.992	99.907	20.456	3.683	0.517
910.500	538.300	79.993	19.993	99.914	20.457	3.622	0.546
912.000	539.056	79.993	19.992	99.910	20.451	3.993	0.515
913.500	539.831	79.995	19.992	99.907	20.452	3.914	0.508
915.000	540.678	79.993	19.992	99.905	20.452	3.921	0.541
916.500	541.409	79.995	19.993	99.911	20.454	3.803	0.478
918.000	542.159	79.995	19.994	99.913	20.450	4.035	0.502
919.500	542.935	79.994	19.992	99.912	20.453	3.833	0.527
921.000	543.686	79.995	19.993	99.908	20.457	3.587	0.494
922.500	544.482	79.997	19.992	99.908	20.454	3.794	0.518
924.000	545.245	79.995	19.992	99.909	20.454	3.818	0.502
925.500	545.997	79.995	19.992	99.912	20.452	3.932	0.517
927.000	546.768	79.995	19.992	99.913	20.450	4.032	0.536
928.500	547.515	79.994	19.992	99.909	20.452	3.899	0.493
930.000	548.271	79.996	19.992	99.907	20.451	4.024	0.502
931.500	549.074	79.995	19.992	99.910	20.450	4.050	0.537
933.000	549.836	79.994	19.992	99.913	20.450	4.070	0.508
934.500	550.580	79.995	19.992	99.912	20.457	3.569	0.506
936.000	551.409	79.995	19.993	99.910	20.452	3.904	0.529
937.500	552.126	79.996	19.991	99.914	20.459	3.466	0.494
939.000	552.883	79.994	19.992	99.912	20.451	4.006	0.473
940.500	553.629	79.996	19.992	99.906	20.456	3.683	0.496
942.000	554.414	79.996	19.992	99.908	20.450	4.052	0.533
943.500	555.193	79.997	19.992	99.912	20.452	3.917	0.515
945.000	555.918	79.998	19.991	99.908	20.452	3.949	0.501
946.500	556.691	79.998	19.991	99.908	20.457	3.613	0.521
948.000	557.442	79.997	19.990	99.909	20.459	3.467	0.493
949.500	558.251	79.997	19.990	99.910	20.458	3.515	0.543
951.000	559.001	79.998	19.991	99.910	20.454	3.774	0.488
952.500	559.735	79.998	19.991	99.910	20.458	3.550	0.478
954.000	560.562	79.997	19.990	99.906	20.459	3.432	0.520
955.500	561.329	79.997	19.992	99.906	20.453	3.847	0.497
957.000	562.067	79.996	19.990	99.910	20.457	3.609	0.495
958.500	562.847	79.994	19.991	99.904	20.457	3.578	0.465
960.000	563.618	79.996	19.992	99.904	20.459	3.456	0.515
961.500	564.396	79.995	19.992	99.911	20.463	3.202	0.536
963.000	565.170	79.995	19.992	99.912	20.458	3.499	0.514
964.500	565.928	79.995	19.991	99.905	20.455	3.692	0.506
966.000	566.694	79.996	19.991	99.906	20.456	3.637	0.528
967.500	567.482	79.995	19.991	99.912	20.459	3.458	0.537
969.000	568.233	79.996	19.991	99.908	20.456	3.689	0.491
970.500	568.984	79.995	19.992	99.906	20.453	3.862	0.512
972.000	569.752	79.995	19.992	99.909	20.457	3.607	0.505
973.500	570.533	79.995	19.992	99.912	20.458	3.545	0.529
975.000	571.279	79.996	19.991	99.908	20.458	3.526	0.512
976.500	572.089	79.997	19.991	99.907	20.460	3.379	0.528
978.000	572.848	79.995	19.991	99.909	20.456	3.664	0.509
979.500	573.640	79.996	19.991	99.914	20.456	3.683	0.527
981.000	574.437	79.995	19.991	99.913	20.455	3.728	0.540
982.500	575.187	79.995	19.992	99.898	20.458	3.493	0.484
984.000	575.911	79.993	19.991	99.901	20.457	3.559	0.494
985.500	576.691	79.995	19.991	99.902	20.459	3.432	0.543
987.000	577.478	79.995	19.993	99.902	20.462	3.228	0.541
988.500	578.209	79.995	19.992	99.901	20.465	3.055	0.499
990.000	579.003	79.993	19.993	99.903	20.457	3.578	0.527
991.500	579.769	79.992	19.992	99.912	20.459	3.451	0.497
993.000	580.527	79.993	19.992	99.904	20.459	3.447	0.511
994.500	581.277	79.995	19.991	99.889	20.459	3.451	0.540
996.000	582.065	79.994	19.993	99.896	20.458	3.493	0.524
997.500	582.804	79.995	19.991	99.901	20.455	3.698	0.479
999.000	583.559	79.995	19.991	99.910	20.457	3.585	0.496
1000.500	584.344	79.995	19.991	99.912	20.458	3.532	0.494
1002.000	585.132	79.996	19.991	99.904	20.454	3.758	0.515
1003.500	585.893	79.997	19.991	99.895	20.459	3.478	0.492
1005.000	586.638	79.997	19.992	99.897	20.464	3.123	0.501
1006.500	587.378	79.996	19.992	99.902	20.460	3.364	0.507
1008.000	588.128	79.996	19.992	99.905	20.455	3.728	0.494
1009.500	588.906	79.997	19.992	99.894	20.455	3.722	0.539
1011.000	589.740	79.997	19.992	99.902	20.456	3.640	0.555
1012.500	590.464	79.996	19.993	99.898	20.456	3.666	0.482
1014.000	591.225	79.995	19.993	99.898	20.464	3.114	0.498
1015.500	591.975	79.996	19.993	99.905	20.461	3.316	0.497
1017.000	592.734	79.995	19.992	99.895	20.462	3.233	0.515
1018.500	593.528	79.996	19.993	99.882	20.463	3.189	0.535
1020.000	594.311	79.996	19.992	99.895	20.459	3.468	0.535
1021.500	595.098	79.995	19.993	99.903	20.462	3.244	0.526
1023.000	595.852	79.997	19.993	99.893	20.459	3.442	0.495
1024.499	596.617	79.998	19.992	99.905	20.460	3.386	0.507
1025.999	597.388	79.998	19.992	99.909	20.458	3.543	0.501
1027.499	598.156	79.998	19.991	99.911	20.466	2.999	0.513
1028.999	598.936	79.998	19.991	99.910	20.460	3.414	0.524
1030.499	599.670	79.999	19.991	99.910	20.459	3.486	0.483
1031.999	600.486	79.998	19.990	99.908	20.461	3.332	0.535
1033.500	601.247	79.998	19.992	99.908	20.459	3.473	0.501
1034.999	602.029	79.997	19.991	99.909	20.459	3.488	0.522
1036.499	602.758	79.997	19.992	99.910	20.458	3.522	0.509
1038.000	603.533	79.995	19.991	99.906	20.464	3.111	0.498
1039.499	604.263	79.994	19.991	99.907	20.461	3.303	0.502
1040.999	605.031	79.994	19.991	99.908	20.462	3.283	0.515
1042.499	605.799	79.994	19.991	99.898	20.463	3.207	0.515
1043.999	606.555	79.996	19.992	99.900	20.460	3.377	0.492
1045.499	607.314	79.995	19.992	99.911	20.458	3.503	0.501
1046.999	608.094	79.995	19.992	99.901	20.460	3.375	0.519
1048.500	608.874	79.995	19.991	99.888	20.457	3.606	0.505
1050.000	609.622	79.994	19.992	99.904	20.452	3.917	0.488
1051.499	610.376	79.995	19.991	99.903	20.459	3.454	0.520
1052.999	611.145	79.995	19.991	99.887	20.456	3.644	0.508
1054.499	611.959	79.995	19.991	99.900	20.454	3.819	0.542
1055.999	612.681	79.996	19.991	99.913	20.456	3.635	0.483
1057.499	613.487	79.996	19.992	99.912	20.457	3.558	0.523
1058.999	614.215	79.996	19.990	99.909	20.462	3.226	0.497
1060.499	614.971	79.995	19.990	99.903	20.459	3.487	0.510
1061.999	615.768	79.995	19.990	99.898	20.462	3.272	0.518
1063.499	616.510	79.995	19.990	99.892	20.459	3.467	0.473
1064.999	617.315	79.995	19.991	99.899	20.461	3.307	0.502
1066.499	618.026	79.994	19.991	99.892	20.457	3.563	0.485
1067.999	618.803	79.994	19.991	99.900	20.459	3.430	0.508
1069.500	619.607	79.994	19.991	99.895	20.460	3.366	0.533
1070.999	620.321	79.993	19.992	99.897	20.461	3.303	0.463
1072.499	621.128	79.992	19.992	99.896	20.458	3.497	0.526
1074.001	621.906	79.995	19.992	99.894	20.460	3.412	0.501
1075.499	622.664	79.994	19.993	99.893	20.458	3.517	0.502
1076.999	623.435	79.995	19.991	99.891	20.456	3.633	0.504
1078.499	624.182	79.996	19.993	99.890	20.457	3.582	0.516
1080.000	624.984	79.998	19.992	99.895	20.461	3.298	0.549
1081.499	625.701	79.997	19.992	99.898	20.465	3.080	0.492
1083.000	626.504	79.997	19.992	99.908	20.460	3.381	0.523
1084.499	627.266	79.997	19.991	99.905	20.458	3.503	0.492
1085.999	628.037	79.997	19.992	99.905	20.458	3.536	0.517
1087.499	628.784	79.996	19.992	99.905	20.462	3.257	0.516
1089.000	629.587	79.997	19.992	99.905	20.458	3.526	0.546
1090.499	630.382	79.996	19.992	99.910	20.456	3.683	0.517
1091.999	631.114	79.997	19.991	99.909	20.458	3.511	0.480
1093.499	631.906	79.997	19.992	99.903	20.464	3.131	0.550
1094.999	632.672	79.996	19.991	99.908	20.459	3.438	0.496
1096.499	633.394	79.995	19.992	99.907	20.458	3.525	0.476
1097.999	634.189	79.995	19.992	99.906	20.462	3.243	0.540
1099.499	635.001	79.995	19.992	99.892	20.458	3.523	0.526
1100.999	635.760	79.997	19.992	99.894	20.458	3.510	0.503
1102.499	636.509	79.996	19.993	99.895	20.458	3.517	0.498
1103.999	637.283	79.996	19.992	99.885	20.455	3.699	0.517
1105.500	638.070	79.996	19.992	99.904	20.461	3.292	0.537
1107.001	638.845	79.997	19.992	99.909	20.456	3.665	0.510
1108.500	639.637	79.997	19.993	99.910	20.457	3.576	0.505
1110.000	640.356	79.998	19.992	99.901	20.461	3.336	0.488
1111.500	641.117	79.997	19.991	99.902	20.460	3.366	0.499
1113.000	641.879	79.995	19.991	99.898	20.460	3.366	0.512
1114.500	642.665	79.996	19.991	99.897	20.462	3.272	0.502
1116.000	643.380	79.995	19.990	99.898	20.460	3.386	0.472
1117.500	644.123	79.995	19.991	99.901	20.458	3.522	0.498
1119.000	644.896	79.994	19.991	99.908	20.458	3.535	0.510
1120.500	645.688	79.994	19.991	99.903	20.460	3.365	0.522
1122.000	646.423	79.993	19.991	99.903	20.457	3.570	0.481
1123.500	647.203	79.996	19.991	99.904	20.457	3.589	0.513
1125.000	647.943	79.994	19.991	99.906	20.460	3.362	0.510
1126.500	648.764	79.995	19.991	99.898	20.460	3.360	0.548
1128.000	649.503	79.997	19.992	99.895	20.460	3.397	0.501
1129.500	650.254	79.995	19.990	99.901	20.458	3.548	0.482
1131.000	651.002	79.995	19.992	99.891	20.462	3.250	0.504
1132.501	651.761	79.995	19.992	99.888	20.459	3.446	0.504
1134.000	652.518	79.995	19.991	99.896	20.462	3.262	0.526
1135.500	653.325	79.995	19.991	99.894	20.460	3.406	0.526
1137.000	654.070	79.995	19.992	99.898	20.460	3.392	0.513
1138.500	654.874	79.995	19.992	99.897	20.463	3.218	0.535
1140.001	655.622	79.995	19.991	99.890	20.459	3.467	0.501
1141.500	656.421	79.996	19.992	99.898	20.461	3.317	0.530
1143.000	657.132	79.995	19.991	99.888	20.460	3.409	0.478
1144.500	657.920	79.995	19.991	99.886	20.464	3.113	0.515
1146.000	658.708	79.996	19.992	99.899	20.461	3.292	0.544
1147.500	659.460	79.995	19.991	99.900	20.456	3.655	0.481
1149.000	660.218	79.995	19.991	99.894	20.461	3.306	0.500
1150.500	661.000	79.994	19.991	99.887	20.464	3.142	0.529
1152.000	661.780	79.995	19.991	99.890	20.461	3.298	0.527
1153.500	662.524	79.994	19.991	99.879	20.461	3.309	0.511
1155.000	663.298	79.994	19.992	99.887	20.465	3.024	0.515
1156.500	664.084	79.994	19.992	99.895	20.465	3.080	0.504
1158.000	664.811	79.995	19.992	99.897	20.465	3.030	0.520
1159.500	665.551	79.997	19.993	99.890	20.461	3.297	0.499
1161.000	666.276	79.996	19.992	99.885	20.465	3.061	0.485
1162.500	667.086	79.996	19.992	99.895	20.463	3.170	0.532
1164.000	667.860	79.996	19.991	99.904	20.466	2.951	0.527
1165.500	668.607	79.995	19.992	99.890	20.463	3.198	0.513
1167.000	669.345	79.996	19.992	99.889	20.462	3.259	0.502
1168.500	670.149	79.997	19.992	99.895	20.463	3.176	0.542
1170.000	670.914	79.997	19.992	99.896	20.460	3.382	0.502
1171.500	671.671	79.996	19.991	99.891	20.461	3.290	0.522
1173.000	672.391	79.996	19.991	99.900	20.461	3.299	0.499
1174.500	673.178	79.994	19.991	99.889	20.461	3.346	0.515
1176.000	673.949	79.995	19.993	99.894	20.460	3.410	0.511
1177.500	674.763	79.996	19.992	99.904	20.462	3.246	0.547
1179.000	675.446	79.997	19.991	99.891	20.456	3.644	0.449
1180.500	676.228	79.997	19.992	99.894	20.460	3.415	0.525
1182.000	676.962	79.996	19.992	99.896	20.462	3.229	0.480
1183.500	677.810	79.995	19.993	99.896	20.462	3.264	0.540
1185.000	678.502	79.996	19.992	99.910	20.461	3.345	0.469
1186.500	679.261	79.996	19.992	99.899	20.462	3.239	0.514
1188.000	680.002	79.997	19.992	99.900	20.458	3.495	0.497
1189.500	680.734	79.996	19.992	99.908	20.460	3.364	0.490
1191.000	681.458	79.997	19.992	99.897	20.461	3.343	0.428
1192.500	682.263	79.996	19.992	99.890	20.462	3.278	0.516
1194.000	683.014	79.996	19.992	99.884	20.460	3.356	0.485
1195.500	683.749	79.997	19.991	99.887	20.457	3.581	0.482
1197.000	684.497	79.995	19.991	99.902	20.457	3.576	0.488
1198.500	685.286	79.994	19.992	99.897	20.458	3.543	0.493
1200.000	686.021	79.996	19.992	99.889	20.457	3.615	0.494
1201.500	686.776	79.997	19.991	99.881	20.455	3.747	0.495
1203.000	687.552	79.996	19.992	99.877	20.458	3.555	0.533
1204.500	688.302	79.995	19.992	99.880	20.457	3.598	0.518
1206.000	689.071	79.994	19.992	99.880	20.461	3.353	0.516
1207.500	689.849	79.996	19.991	99.890	20.456	3.676	0.506
1209.000	690.572	79.995	19.992	99.898	20.457	3.589	0.479
1210.501	691.318	79.993	19.992	99.903	20.459	3.425	0.513
1212.000	692.073	79.994	19.992	99.900	20.459	3.473	0.495
1213.500	692.830	79.995	19.992	99.893	20.456	3.641	0.497
1215.000	693.561	79.994	19.992	99.893	20.459	3.469	0.492
1216.500	694.334	79.994	19.991	99.886	20.460	3.383	0.537
1218.000	695.100	79.997	19.992	99.900	20.459	3.434	0.503
1219.500	695.902	79.995	19.991	99.907	20.460	3.355	0.531
1221.000	696.697	79.996	19.993	99.907	20.461	3.312	0.526
1222.500	697.419	79.994	19.992	99.908	20.457	3.611	0.492
1224.000	698.200	79.995	19.991	99.905	20.459	3.485	0.518
1225.500	698.916	79.994	19.991	99.903	20.459	3.469	0.503
1227.000	699.741	79.995	19.991	99.907	20.460	3.410	0.548
1228.500	700.447	79.994	19.991	99.897	20.460	3.371	0.464
1230.000	701.262	79.993	19.990	99.891	20.458	3.532	0.548
1231.500	702.045	79.996	19.991	99.895	20.454	3.797	0.528
1233.000	702.804	79.994	19.991	99.898	20.460	3.410	0.487
1234.500	703.567	79.996	19.991	99.895	20.460	3.365	0.491
1236.000	704.355	79.995	19.992	99.900	20.460	3.403	0.526
1237.500	705.124	79.996	19.992	99.903	20.458	3.498	0.504
1239.000	705.885	79.994	19.992	99.898	20.457	3.592	0.495
1240.500	706.720	79.996	19.992	99.905	20.458	3.519	0.526
1242.000	707.431	79.997	19.992	99.905	20.458	3.496	0.468
1243.500	708.166	79.995	19.991	99.890	20.455	3.717	0.498
1245.000	708.971	79.996	19.992	99.882	20.458	3.535	0.523
1246.500	709.720	79.996	19.992	99.891	20.452	3.926	0.504
1248.000	710.508	79.996	19.993	99.897	20.453	3.836	0.538
1249.500	711.298	79.997	19.992	99.896	20.454	3.804	0.527
1251.000	712.033	79.996	19.992	99.895	20.460	3.400	0.494
1252.501	712.826	79.995	19.992	99.887	20.462	3.259	0.517
1254.000	713.607	79.993	19.992	99.879	20.453	3.840	0.523
1255.500	714.365	79.994	19.992	99.884	20.458	3.493	0.523
1257.000	715.125	79.996	19.991	99.898	20.456	3.659	0.519
1258.500	715.938	79.994	19.991	99.890	20.458	3.553	0.548
1260.000	716.704	79.998	19.992	99.897	20.458	3.544	0.528
1261.500	717.480	79.997	19.992	99.895	20.458	3.550	0.515
1263.000	718.245	79.997	19.992	99.886	20.460	3.401	0.536
1264.500	719.019	79.996	19.992	99.899	20.460	3.404	0.512
1266.000	719.763	79.996	19.992	99.904	20.455	3.723	0.501
1267.500	720.499	79.998	19.992	99.903	20.459	3.469	0.492
1269.000	721.298	79.997	19.993	99.894	20.456	3.647	0.541
1270.500	722.014	79.996	19.992	99.878	20.456	3.647	0.476
1272.000	722.743	79.999	19.992	99.885	20.457	3.620	0.491
1273.500	723.453	79.996	19.992	99.893	20.454	3.760	0.471
1275.000	724.247	79.996	19.993	99.882	20.458	3.494	0.526
1276.500	724.979	79.995	19.992	99.885	20.458	3.554	0.487
1278.000	725.700	79.995	19.993	99.895	20.460	3.419	0.474
1279.500	726.430	79.994	19.993	99.886	20.459	3.428	0.477
1281.000	727.189	79.992	19.993	99.886	20.453	3.856	0.500
1282.500	727.941	79.992	19.991	99.890	20.454	3.767	0.504
1284.000	728.661	79.995	19.992	99.882	20.454	3.795	0.479
1285.500	729.384	79.995	19.991	99.882	20.454	3.781	0.464
1287.000	730.116	79.992	19.991	99.888	20.458	3.509	0.491
1288.500	730.909	79.996	19.991	99.893	20.458	3.493	0.508
1290.000	731.660	79.993	19.991	99.892	20.459	3.476	0.520
1291.500	732.438	79.994	19.992	99.888	20.461	3.334	0.507
1293.001	733.120	79.994	19.990	99.880	20.457	3.561	0.470
1294.500	733.873	79.992	19.992	99.895	20.457	3.614	0.469
1296.000	734.617	79.993	19.992	99.913	20.459	3.447	0.509
1297.500	735.376	79.992	19.991	99.894	20.459	3.485	0.508
1299.000	736.112	79.995	19.991	99.891	20.455	3.702	0.504
1300.500	736.919	79.995	19.991	99.889	20.455	3.743	0.528
1302.001	737.670	79.994	19.990	99.881	20.457	3.621	0.505
1303.500	738.389	79.994	19.992	99.882	20.454	3.785	0.484
1305.000	739.171	79.994	19.992	99.884	20.455	3.734	0.517
1306.500	739.909	79.992	19.991	99.889	20.457	3.594	0.501
1308.000	740.682	79.990	19.990	99.890	20.458	3.542	0.503
1309.500	741.417	79.993	19.992	99.883	20.454	3.807	0.489
1311.001	742.203	79.993	19.991	99.881	20.456	3.642	0.518
1312.500	742.946	79.993	19.991	99.883	20.453	3.889	0.506
1314.001	743.684	79.994	19.991	99.880	20.451	4.023	0.505