File: 01_Data/Bean_Bag_Chair_Inner_Lining/STA/N2/3K_min/Bean_Bag_Inner_Liner_STA_N2_3KData_220513_R1.csv
##Temp./Â°C,Time/min,Mass loss(subtr.)/mg,DSC(subtr.)/(mW/mg),Sensit./(uV/mW)
50.313,10.01667,-0.01448,0.009662831,1.05674
51.013,11.15082,-0.01710151,0.03466211,1.05666
51.713,11.54298,-0.01571074,0.0465465,1.05658
52.413,11.8638,-0.01693124,0.05455852,1.0565
53.113,12.1545,-0.01854845,0.0588322,1.05642
53.813,12.432,-0.01577841,0.06171337,1.05634
54.513,12.7018,-0.0171983,0.06358781,1.05626
55.213,12.96538,-0.01711998,0.06674911,1.05618
55.913,13.22691,-0.01713014,0.06703912,1.0561
56.613,13.4859,-0.01843972,0.06792602,1.05601
57.313,13.7418,-0.01843114,0.06850105,1.05593
58.013,13.9949,-0.01844604,0.07006911,1.05584
58.713,14.24629,-0.0184402,0.07039103,1.05576
59.413,14.494,-0.01846905,0.07175636,1.05567
60.113,14.7415,-0.01878196,0.07236276,1.05558
60.813,14.98642,-0.01912276,0.07342438,1.05549
61.513,15.22998,-0.02012755,0.07319359,1.0554
62.213,15.4721,-0.020152,0.07340086,1.05531
62.913,15.71305,-0.02071757,0.07527899,1.05522
63.613,15.95299,-0.01976005,0.07583472,1.05513
64.313,16.19068,-0.01975008,0.07728521,1.05504
65.013,16.4276,-0.01974574,0.07982794,1.05495
65.713,16.6642,-0.02014958,0.07734491,1.05485
66.413,16.9017,-0.02141025,0.07850477,1.05476
67.113,17.1385,-0.02268877,0.07824446,1.05466
67.813,17.3758,-0.02109266,0.07888014,1.05457
68.513,17.6133,-0.02272286,0.07973829,1.05447
69.213,17.85039,-0.02141138,0.08022469,1.05437
69.913,18.08601,-0.02140034,0.07853181,1.05427
70.613,18.32187,-0.0223675,0.08044971,1.05417
71.313,18.5574,-0.02281075,0.08002703,1.05407
72.013,18.7926,-0.02304999,0.08072271,1.05397
72.713,19.0267,-0.02397252,0.08037428,1.05387
73.413,19.25906,-0.02271928,0.07981859,1.05377
74.113,19.49063,-0.02144172,0.07811281,1.05367
74.813,19.7224,-0.02129038,0.07921543,1.05356
75.513,19.95769,-0.02272001,0.0773763,1.05346
76.213,20.19461,-0.02400503,0.07612808,1.05335
76.913,20.43056,-0.02317252,0.07537726,1.05325
77.613,20.66457,-0.02308294,0.07565496,1.05314
78.313,20.89836,-0.02338512,0.07488927,1.05303
79.013,21.13232,-0.02436998,0.07520771,1.05292
79.713,21.36688,-0.02437004,0.0732087,1.05281
80.413,21.601,-0.02498696,0.07276131,1.0527
81.113,21.8351,-0.0243693,0.07322182,1.05259
81.813,22.06852,-0.02437143,0.07380232,1.05248
82.513,22.30126,-0.02574394,0.07205475,1.05237
83.213,22.53377,-0.02437002,0.07180438,1.05225
83.913,22.7669,-0.02569,0.07305623,1.05214
84.613,23.00144,-0.02441193,0.07249427,1.05202
85.313,23.23636,-0.02588882,0.07122689,1.05191
86.013,23.46963,-0.02602,0.07334885,1.05179
86.713,23.69921,-0.02735112,0.07293503,1.05167
87.413,23.93058,-0.02701219,0.07245968,1.05155
88.113,24.16398,-0.02737961,0.06990169,1.05143
88.813,24.40023,-0.02667,0.07330606,1.05131
89.513,24.6332,-0.02732842,0.07056407,1.05119
90.213,24.8655,-0.02640274,0.07185887,1.05107
90.913,25.0979,-0.02610465,0.07214073,1.05095
91.613,25.3305,-0.02701003,0.07226315,1.05082
92.313,25.5628,-0.02701279,0.07278902,1.0507
93.013,25.79479,-0.02733395,0.07192857,1.05058
93.713,26.02724,-0.02661269,0.07199693,1.05045
94.413,26.25927,-0.02699991,0.07126538,1.05032
95.113,26.4906,-0.02690338,0.07407878,1.0502
95.813,26.7226,-0.02733005,0.07354182,1.05007
96.513,26.9555,-0.02605073,0.07447547,1.04994
97.213,27.18924,-0.02667819,0.07552218,1.04981
97.913,27.4227,-0.02734,0.07677974,1.04968
98.613,27.65612,-0.02865051,0.07732587,1.04955
99.313,27.88922,-0.02754846,0.07851165,1.04941
100.013,28.12177,-0.02790284,0.07823705,1.04928
100.713,28.3539,-0.02931011,0.07729318,1.04915
101.413,28.5855,-0.02699993,0.07830281,1.04901
102.113,28.8171,-0.02832,0.07878099,1.04888
102.813,29.0494,-0.02963179,0.07951699,1.04874
103.513,29.28063,-0.0283201,0.08117006,1.0486
104.213,29.5119,-0.02865396,0.08184122,1.04847
104.913,29.74225,-0.02830135,0.08177063,1.04833
105.613,29.9734,-0.02931002,0.08258439,1.04819
106.313,30.2043,-0.02890427,0.08275435,1.04805
107.013,30.43481,-0.02865,0.08605169,1.0479
107.713,30.6656,-0.02992028,0.08485053,1.04776
108.413,30.8963,-0.02735666,0.08266884,1.04762
109.113,31.1265,-0.02737779,0.08479026,1.04748
109.813,31.3574,-0.02865,0.08693421,1.04733
110.513,31.58861,-0.02798611,0.08508994,1.04719
111.213,31.8211,-0.02929994,0.08548294,1.04704
111.913,32.05235,-0.02879437,0.08772398,1.04689
112.613,32.2834,-0.02865,0.08853116,1.04674
113.313,32.51372,-0.02997793,0.09047192,1.0466
114.013,32.74258,-0.02865,0.08893114,1.04645
114.713,32.9724,-0.02865009,0.08865872,1.0463
115.413,33.2036,-0.02963003,0.08970728,1.04614
116.113,33.43613,-0.03094263,0.08977187,1.04599
116.813,33.66838,-0.02931,0.08992595,1.04584
117.513,33.89973,-0.03030006,0.09045497,1.04568
118.213,34.13133,-0.02892575,0.08965616,1.04553
118.913,34.36313,-0.03062989,0.09054701,1.04537
119.613,34.59545,-0.03003107,0.08839379,1.04522
120.313,34.82708,-0.03062,0.08956066,1.04506
121.013,35.05727,-0.03022287,0.09124401,1.0449
121.713,35.2873,-0.03202488,0.09047096,1.04474
122.413,35.51717,-0.03062,0.09022308,1.04458
123.113,35.74752,-0.03064229,0.09053691,1.04442
123.813,35.97798,-0.03162485,0.09154336,1.04426
124.513,36.20827,-0.03095521,0.09374479,1.0441
125.213,36.4384,-0.03162002,0.0941304,1.04394
125.913,36.66825,-0.03093527,0.093795,1.04377
126.613,36.8986,-0.03227211,0.09343987,1.04361
127.313,37.1289,-0.03154761,0.0915891,1.04344
128.013,37.3594,-0.03095,0.09285027,1.04328
128.713,37.58909,-0.03094822,0.09443882,1.04311
129.413,37.81892,-0.0322713,0.09179895,1.04294
130.113,38.04858,-0.03227576,0.09188898,1.04277
130.813,38.27925,-0.03228616,0.09239,1.0426
131.513,38.50992,-0.03292976,0.09318937,1.04243
132.213,38.74093,-0.03293896,0.09431469,1.04226
132.913,38.97113,-0.03162007,0.09460573,1.04209
133.613,39.20091,-0.03189858,0.09564225,1.04191
134.313,39.43079,-0.03194,0.09676563,1.04174
135.013,39.6599,-0.03187865,0.09590273,1.04157
135.713,39.88955,-0.03328629,0.09629805,1.04139
136.413,40.11878,-0.03301781,0.09455509,1.04121
137.113,40.34738,-0.03292018,0.09532059,1.04104
137.813,40.57625,-0.03293,0.09567697,1.04086
138.513,40.8048,-0.03294956,0.09795496,1.04068
139.213,41.035,-0.03160987,0.09819456,1.0405
139.913,41.2643,-0.03293,0.09838719,1.04032
140.613,41.49306,-0.03185379,0.09781215,1.04013
141.313,41.72229,-0.03187954,0.09798171,1.03995
142.013,41.95185,-0.03195055,0.09791582,1.03977
142.713,42.182,-0.03326,0.09765658,1.03958
143.413,42.41097,-0.03095923,0.09960963,1.0394
144.113,42.63973,-0.03292992,0.1004,1.03921
144.813,42.8685,-0.03193652,0.10038,1.03903
145.513,43.09762,-0.03195798,0.10231,1.03884
146.213,43.3269,-0.03424473,0.10026,1.03865
146.913,43.5567,-0.03146996,0.10073,1.03846
147.613,43.7866,-0.03293,0.1025,1.03827
148.313,44.01623,-0.03293001,0.10376,1.03808
149.013,44.24535,-0.03293293,0.10201,1.03789
149.713,44.47379,-0.03160638,0.10182,1.03769
150.413,44.70281,-0.03197044,0.10359,1.0375
151.113,44.93107,-0.03325998,0.10279,1.0373
151.813,45.16013,-0.0323278,0.10307,1.03711
152.513,45.38791,-0.03162001,0.10461,1.03691
153.213,45.61627,-0.03227995,0.10554,1.03672
153.913,45.84332,-0.03326022,0.10764,1.03652
154.613,46.07119,-0.03326377,0.10696,1.03632
155.313,46.2987,-0.03326021,0.1089,1.03612
156.013,46.52675,-0.03260001,0.10858,1.03592
156.713,46.75483,-0.03390046,0.10992,1.03572
157.413,46.98258,-0.03128004,0.1107,1.03551
158.113,47.21085,-0.03406462,0.10941,1.03531
158.813,47.43967,-0.03168208,0.10727,1.03511
159.513,47.66932,-0.03245121,0.10858,1.0349
160.213,47.89812,-0.03291998,0.10836,1.03469
160.913,48.12773,-0.03365278,0.10773,1.03449
161.613,48.35709,-0.03228,0.1073,1.03428
162.313,48.58583,-0.0323867,0.10754,1.03407
163.013,48.81397,-0.03261004,0.11032,1.03386
163.713,49.04201,-0.03163412,0.10898,1.03365
164.413,49.2708,-0.03307315,0.11003,1.03344
165.113,49.4987,-0.03327181,0.11072,1.03323
165.813,49.72627,-0.03227023,0.11066,1.03301
166.513,49.95335,-0.03128665,0.1111,1.0328
167.213,50.18073,-0.03286128,0.11307,1.03259
167.913,50.40847,-0.03293,0.11248,1.03237
168.613,50.637,-0.03293,0.11171,1.03215
169.313,50.86466,-0.03292923,0.11102,1.03194
170.013,51.0923,-0.03317306,0.11064,1.03172
170.713,51.31933,-0.03227,0.11091,1.0315
171.413,51.54663,-0.03348022,0.1111,1.03128
172.113,51.77215,-0.03226286,0.1107,1.03106
172.813,51.99895,-0.03292945,0.11191,1.03084
173.513,52.2254,-0.03292986,0.11063,1.03061
174.213,52.4542,-0.0316177,0.10917,1.03039
174.913,52.68095,-0.03162,0.11026,1.03017
175.613,52.9103,-0.03269161,0.11226,1.02994
176.313,53.13895,-0.03260357,0.11178,1.02971
177.013,53.36818,-0.03261118,0.11203,1.02949
177.713,53.5959,-0.03128052,0.1136,1.02926
178.413,53.82479,-0.03128982,0.11361,1.02903
179.113,54.05503,-0.0322842,0.11303,1.0288
179.813,54.28441,-0.03096,0.11383,1.02857
180.513,54.51305,-0.03131042,0.11357,1.02834
181.213,54.74091,-0.03172599,0.11657,1.02811
181.913,54.9692,-0.03236419,0.114,1.02787
182.613,55.19645,-0.03238842,0.11225,1.02764
183.313,55.4238,-0.03227889,0.11434,1.0274
184.013,55.65059,-0.03128,0.11367,1.02717
184.713,55.87726,-0.03194376,0.11552,1.02693
185.413,56.1039,-0.02980717,0.11579,1.02669
186.113,56.3308,-0.03096002,0.11627,1.02645
186.813,56.55834,-0.03232992,0.1155,1.02621
187.513,56.78638,-0.03226081,0.11653,1.02597
188.213,57.0148,-0.03094251,0.11741,1.02573
188.913,57.24295,-0.0316498,0.11655,1.02549
189.613,57.4707,-0.03162,0.11489,1.02525
190.313,57.69791,-0.03162,0.11756,1.025
191.013,57.9248,-0.03138946,0.11748,1.02476
191.713,58.15197,-0.03107502,0.11825,1.02451
192.413,58.37976,-0.0322582,0.11708,1.02426
193.113,58.60767,-0.03228667,0.12021,1.02402
193.813,58.836,-0.03267985,0.11885,1.02377
194.513,59.0628,-0.03129013,0.11762,1.02352
195.213,59.28944,-0.03228378,0.11677,1.02327
195.913,59.5162,-0.03095975,0.11901,1.02302
196.613,59.74365,-0.03202763,0.11935,1.02277
197.313,59.97068,-0.03095021,0.11927,1.02251
198.013,60.19766,-0.03094995,0.11828,1.02226
198.713,60.4246,-0.03095001,0.11991,1.022
199.413,60.65164,-0.03066756,0.12254,1.02175
200.113,60.87837,-0.03128,0.12443,1.02149
200.813,61.10558,-0.03127975,0.12282,1.02123
201.513,61.3331,-0.03194,0.12021,1.02098
202.213,61.5604,-0.03194119,0.12147,1.02072
202.913,61.78815,-0.03097,0.12112,1.02046
203.613,62.01542,-0.03063,0.12221,1.0202
204.313,62.24241,-0.03065522,0.12169,1.01993
205.013,62.4692,-0.03064579,0.12371,1.01967
205.713,62.6965,-0.02997026,0.1232,1.01941
206.413,62.9242,-0.03062915,0.12307,1.01914
207.113,63.1511,-0.03195002,0.12366,1.01888
207.813,63.3781,-0.03062953,0.12385,1.01861
208.513,63.60456,-0.03195442,0.12477,1.01834
209.213,63.8313,-0.0326015,0.12421,1.01807
209.913,64.0582,-0.0320852,0.1242,1.0178
210.613,64.28466,-0.03129778,0.12443,1.01753
211.313,64.51061,-0.03256841,0.12807,1.01726
212.013,64.73671,-0.03161553,0.12652,1.01699
212.713,64.96249,-0.03162007,0.12814,1.01672
213.413,65.18894,-0.03086413,0.12484,1.01645
214.113,65.4155,-0.03162865,0.12701,1.01617
214.813,65.64283,-0.03159394,0.1262,1.0159
215.513,65.87012,-0.0309297,0.12679,1.01562
216.213,66.09724,-0.03227158,0.12675,1.01534
216.913,66.32441,-0.03324998,0.12902,1.01506
217.613,66.55176,-0.03226972,0.12888,1.01478
218.313,66.778,-0.03227074,0.12811,1.0145
219.013,67.00319,-0.03359001,0.12854,1.01422
219.713,67.22785,-0.03260133,0.12929,1.01394
220.413,67.4541,-0.03273975,0.12842,1.01366
221.113,67.68297,-0.03325813,0.13003,1.01337
221.813,67.91198,-0.0338309,0.13056,1.01309
222.513,68.14049,-0.0329156,0.12937,1.0128
223.213,68.36755,-0.03325998,0.13082,1.01252
223.913,68.59391,-0.03328879,0.13265,1.01223
224.613,68.82032,-0.03358933,0.13132,1.01194
225.313,69.0463,-0.03359,0.13373,1.01165
226.013,69.2723,-0.0335901,0.13507,1.01136
226.713,69.4988,-0.03429913,0.13514,1.01107
227.413,69.7255,-0.0326,0.13417,1.01078
228.113,69.95374,-0.03455574,0.13293,1.01049
228.813,70.1809,-0.03433858,0.13386,1.01019
229.513,70.40834,-0.03392017,0.13248,1.0099
230.213,70.6344,-0.0336,0.13421,1.0096
230.913,70.8612,-0.03363028,0.13561,1.00931
231.613,71.08845,-0.03392031,0.1355,1.00901
232.313,71.31673,-0.03261085,0.13523,1.00871
233.013,71.5454,-0.03392895,0.13406,1.00841
233.713,71.77291,-0.03355325,0.13715,1.00811
234.413,72.00046,-0.03359,0.13742,1.00781
235.113,72.2273,-0.03488975,0.13867,1.00751
235.813,72.45427,-0.0335883,0.14103,1.00721
236.513,72.68125,-0.03359295,0.1399,1.0069
237.213,72.90772,-0.03293002,0.14129,1.0066
237.913,73.13441,-0.03191306,0.14243,1.00629
238.613,73.36075,-0.0329382,0.14332,1.00598
239.313,73.5877,-0.03326643,0.14494,1.00568
240.013,73.81466,-0.03319379,0.1447,1.00537
240.713,74.0397,-0.0329491,0.14863,1.00506
241.413,74.26493,-0.03326003,0.15271,1.00475
242.113,74.49044,-0.03187365,0.15323,1.00444
242.813,74.71797,-0.03226709,0.15404,1.00413
243.513,74.9456,-0.03359002,0.1559,1.00381
244.213,75.17316,-0.03425405,0.15832,1.0035
244.913,75.3994,-0.03359387,0.15897,1.00318
245.613,75.62531,-0.03359174,0.1622,1.00287
246.313,75.85115,-0.03451938,0.16762,1.00255
247.013,76.07902,-0.03358523,0.1705,1.00224
247.713,76.30805,-0.03359,0.17764,1.00192
248.413,76.53715,-0.03292838,0.18379,1.0016
249.113,76.7649,-0.03293731,0.18885,1.00128
249.813,76.99258,-0.03338346,0.19932,1.00096
250.513,77.2201,-0.03424983,0.20946,1.00063
251.213,77.44826,-0.03531944,0.22573,1.00031
251.913,77.6761,-0.03458173,0.26847,0.99999
252.613,77.90521,-0.03396902,0.36605,0.99966
253.313,78.135,-0.0345797,0.43421,0.99934
254.013,78.36498,-0.03391975,0.48073,0.99901
254.713,78.59485,-0.03589866,0.51783,0.99868
255.413,78.82391,-0.03661135,0.54188,0.99835
256.113,79.05266,-0.03556,0.55144,0.99802
256.813,79.28041,-0.03467123,0.52572,0.99769
257.513,79.50753,-0.03458,0.44035,0.99736
258.213,79.7325,-0.03589012,0.35846,0.99703
258.913,79.95697,-0.03457928,0.30448,0.9967
259.613,80.18004,-0.03523115,0.2695,0.99636
260.313,80.40364,-0.03587377,0.23715,0.99603
261.013,80.62854,-0.03520529,0.21605,0.99569
261.713,80.85513,-0.03575021,0.19262,0.99535
262.413,81.08211,-0.03522419,0.17692,0.99502
263.113,81.30761,-0.03523,0.16805,0.99468
263.813,81.53352,-0.03654829,0.16179,0.99434
264.513,81.76001,-0.03590011,0.15676,0.994
265.213,81.98642,-0.03718081,0.15422,0.99366
265.913,82.21258,-0.03591844,0.1526,0.99331
266.613,82.439,-0.03586228,0.15088,0.99297
267.313,82.66556,-0.03655257,0.15098,0.99263
268.013,82.89179,-0.03448415,0.14868,0.99228
268.713,83.1181,-0.03662105,0.1484,0.99194
269.413,83.34504,-0.03541586,0.14789,0.99159
270.113,83.57251,-0.03491107,0.14858,0.99124
270.813,83.79827,-0.03620824,0.14818,0.99089
271.513,84.02503,-0.03658145,0.14866,0.99054
272.213,84.2514,-0.03621864,0.14635,0.99019
272.913,84.4799,-0.03687748,0.1481,0.98984
273.613,84.7069,-0.03688,0.14661,0.98949
274.313,84.93392,-0.0368789,0.14667,0.98913
275.013,85.16066,-0.03655996,0.14715,0.98878
275.713,85.38723,-0.03685684,0.14773,0.98842
276.413,85.61437,-0.03658651,0.14693,0.98807
277.113,85.84115,-0.03656,0.14719,0.98771
277.813,86.0691,-0.03785493,0.1438,0.98735
278.513,86.29783,-0.0368905,0.14611,0.98699
279.213,86.526,-0.03632406,0.14718,0.98663
279.913,86.75356,-0.03787994,0.14674,0.98627
280.613,86.98131,-0.03788294,0.14678,0.98591
281.313,87.209,-0.03721763,0.1443,0.98555
282.013,87.43658,-0.03820469,0.14527,0.98519
282.713,87.6632,-0.03689011,0.14554,0.98482
283.413,87.88986,-0.0382104,0.14746,0.98446
284.113,88.1171,-0.03722171,0.14706,0.98409
284.813,88.3438,-0.0385682,0.14643,0.98372
285.513,88.57111,-0.03718328,0.14781,0.98335
286.213,88.79729,-0.03755495,0.14587,0.98299
286.913,89.0249,-0.03882672,0.1478,0.98262
287.613,89.25275,-0.03835975,0.1485,0.98225
288.313,89.48116,-0.03852656,0.14741,0.98187
289.013,89.70902,-0.03820008,0.14852,0.9815
289.713,89.9366,-0.03820564,0.14825,0.98113
290.413,90.1642,-0.03721802,0.14811,0.98075
291.113,90.39179,-0.03853027,0.1466,0.98038
291.813,90.61941,-0.03655403,0.14699,0.98
292.513,90.84675,-0.03722276,0.14662,0.97962
293.213,91.07437,-0.03648777,0.14691,0.97924
293.913,91.30125,-0.03813398,0.14725,0.97887
294.613,91.5289,-0.03722018,0.14609,0.97849
295.313,91.7559,-0.03853074,0.1479,0.9781
296.013,91.9834,-0.03886041,0.14621,0.97772
296.713,92.21091,-0.03622979,0.1475,0.97734
297.413,92.43847,-0.03692647,0.14864,0.97696
298.113,92.6658,-0.03689,0.14861,0.97657
298.813,92.89325,-0.03778925,0.14849,0.97619
299.513,93.12043,-0.03625831,0.14832,0.9758
300.213,93.3476,-0.03754,0.14723,0.97541
300.913,93.57438,-0.03886809,0.1492,0.97502
301.613,93.8021,-0.03627708,0.15106,0.97463
302.313,94.03,-0.03853177,0.14694,0.97424
303.013,94.25796,-0.03714044,0.14847,0.97385
303.713,94.48486,-0.03727419,0.15065,0.97346
304.413,94.71235,-0.03753155,0.15103,0.97307
305.113,94.93825,-0.03885993,0.14905,0.97267
305.813,95.1661,-0.03886,0.14624,0.97228
306.513,95.3943,-0.03930904,0.14735,0.97188
307.213,95.62393,-0.03952063,0.14848,0.97149
307.913,95.8523,-0.0382,0.15008,0.97109
308.613,96.08034,-0.0382,0.14838,0.97069
309.313,96.30858,-0.03888303,0.1485,0.97029
310.013,96.5363,-0.03720718,0.14829,0.96989
310.713,96.76369,-0.03976532,0.1482,0.96949
311.413,96.9905,-0.03852989,0.15008,0.96909
312.113,97.21789,-0.03854181,0.14909,0.96869
312.813,97.4457,-0.03886,0.1504,0.96828
313.513,97.6743,-0.03754159,0.14826,0.96788
314.213,97.9025,-0.03885972,0.14825,0.96747
314.913,98.13037,-0.03836163,0.14702,0.96706
315.613,98.35839,-0.03950225,0.1514,0.96666
316.313,98.58641,-0.03820047,0.15133,0.96625
317.013,98.8149,-0.04018,0.15038,0.96584
317.713,99.04335,-0.03957105,0.15177,0.96543
318.413,99.27241,-0.03918998,0.1526,0.96502
319.113,99.50062,-0.03982522,0.15381,0.96461
319.813,99.72831,-0.04018981,0.15423,0.96419
320.513,99.95565,-0.03884873,0.15402,0.96378
321.213,100.183,-0.03985001,0.1552,0.96336
321.913,100.411,-0.03985427,0.15426,0.96295
322.613,100.64,-0.03985051,0.1543,0.96253
323.313,100.869,-0.03985,0.15647,0.96211
324.013,101.096,-0.03985,0.15576,0.96169
324.713,101.324,-0.03985,0.15536,0.96128
325.413,101.551,-0.03985003,0.15765,0.96085
326.113,101.781,-0.04116765,0.15756,0.96043
326.813,102.009,-0.04098311,0.15726,0.96001
327.513,102.236,-0.04215789,0.15594,0.95959
328.213,102.464,-0.04084,0.15433,0.95916
328.913,102.692,-0.03950394,0.15689,0.95874
329.613,102.92,-0.0408934,0.15682,0.95831
330.313,103.148,-0.0414173,0.15658,0.95789
331.013,103.375,-0.0418117,0.15525,0.95746
331.713,103.603,-0.03983779,0.15736,0.95703
332.413,103.83,-0.04095542,0.15695,0.9566
333.113,104.058,-0.04150276,0.15767,0.95617
333.813,104.286,-0.04117154,0.157,0.95574
334.513,104.515,-0.04183002,0.15653,0.95531
335.213,104.7445,-0.04115911,0.15653,0.95487
335.913,104.975,-0.04115975,0.15529,0.95444
336.613,105.204,-0.04248879,0.15738,0.95401
337.313,105.433,-0.04182557,0.15739,0.95357
338.013,105.663,-0.04247973,0.15778,0.95313
338.713,105.892,-0.04280089,0.15732,0.9527
339.413,106.12,-0.04214999,0.15881,0.95226
340.113,106.347,-0.04247998,0.15851,0.95182
340.813,106.573,-0.04484914,0.16111,0.95138
341.513,106.801,-0.04445535,0.16092,0.95094
342.213,107.029,-0.04409118,0.1625,0.95049
342.913,107.257,-0.04511134,0.16323,0.95005
343.613,107.487,-0.04523423,0.15982,0.94961
344.313,107.717,-0.04677,0.16173,0.94916
345.013,107.947,-0.04642235,0.1644,0.94872
345.713,108.1759,-0.0470654,0.1626,0.94827
346.413,108.4041,-0.04841937,0.16505,0.94782
347.113,108.632,-0.04741757,0.16476,0.94737
347.813,108.86,-0.04972788,0.16684,0.94693
348.513,109.088,-0.0484126,0.16669,0.94648
349.213,109.318,-0.04878713,0.16838,0.94602
349.913,109.547,-0.05005998,0.17086,0.94557
350.613,109.777,-0.05204002,0.17088,0.94512
351.313,110.005,-0.05396481,0.17322,0.94467
352.013,110.233,-0.05302,0.17528,0.94421
352.713,110.461,-0.05565751,0.17622,0.94376
353.413,110.69,-0.05565818,0.17814,0.9433
354.113,110.918,-0.05669402,0.179,0.94284
354.813,111.147,-0.0580004,0.17965,0.94238
355.513,111.377,-0.05796008,0.1795,0.94192
356.213,111.607,-0.0592752,0.18033,0.94146
356.913,111.837,-0.06159045,0.18094,0.941
357.613,112.067,-0.06158164,0.18234,0.94054
358.313,112.296,-0.06422022,0.18708,0.94008
359.013,112.526,-0.0655071,0.19,0.93962
359.713,112.755,-0.06786847,0.19028,0.93915
360.413,112.984,-0.06915221,0.19209,0.93869
361.113,113.212,-0.07177463,0.19131,0.93822
361.813,113.44,-0.07433942,0.19214,0.93775
362.513,113.668,-0.07738052,0.1935,0.93728
363.213,113.897,-0.08068481,0.1933,0.93682
363.913,114.126,-0.08335517,0.19347,0.93635
364.613,114.3545,-0.0872783,0.1924,0.93587
365.313,114.583,-0.09019943,0.1897,0.9354
366.013,114.811,-0.09386684,0.18796,0.93493
366.713,115.04,-0.09790509,0.1855,0.93446
367.413,115.271,-0.09913744,0.18631,0.93398
368.113,115.502,-0.10441,0.18738,0.93351
368.813,115.7318,-0.10837,0.18799,0.93303
369.513,115.961,-0.11184,0.1892,0.93256
370.213,116.189,-0.11749,0.18982,0.93208
370.913,116.419,-0.12171,0.19113,0.9316
371.613,116.649,-0.12675,0.19084,0.93112
372.313,116.879,-0.13312,0.19314,0.93064
373.013,117.108,-0.14027,0.19438,0.93016
373.713,117.3375,-0.14524,0.1943,0.92968
374.413,117.567,-0.15096,0.19616,0.92919
375.113,117.797,-0.15719,0.19781,0.92871
375.813,118.027,-0.16548,0.19683,0.92822
376.513,118.257,-0.17346,0.20027,0.92774
377.213,118.486,-0.17977,0.19943,0.92725
377.913,118.716,-0.18672,0.20372,0.92676
378.613,118.9465,-0.19751,0.2062,0.92628
379.313,119.177,-0.20613,0.20833,0.92579
380.013,119.407,-0.21308,0.20668,0.9253
380.713,119.636,-0.22382,0.20968,0.92481
381.413,119.864,-0.23421,0.21081,0.92431
382.113,120.092,-0.24425,0.21719,0.92382
382.813,120.32,-0.25469,0.21818,0.92333
383.513,120.5495,-0.26665,0.22231,0.92283
384.213,120.78,-0.27986,0.22361,0.92234
384.913,121.01,-0.29247,0.22573,0.92184
385.613,121.24,-0.30704,0.22833,0.92135
386.313,121.469,-0.32,0.23065,0.92085
387.013,121.699,-0.33643,0.23297,0.92035
387.713,121.93,-0.35106,0.23571,0.91985
388.413,122.161,-0.36845,0.23888,0.91935
389.113,122.39,-0.38655,0.24147,0.91885
389.813,122.619,-0.40313,0.24536,0.91835
390.513,122.849,-0.42356,0.24711,0.91784
391.213,123.079,-0.44234,0.2561,0.91734
391.913,123.309,-0.4658,0.27109,0.91683
392.613,123.538,-0.48762,0.26578,0.91633
393.313,123.768,-0.51055,0.26277,0.91582
394.013,123.998,-0.5359,0.26351,0.91531
394.713,124.2282,-0.56098,0.26685,0.91481
395.413,124.458,-0.58666,0.26744,0.9143
396.113,124.688,-0.61406,0.26924,0.91379
396.813,124.918,-0.64006,0.27197,0.91328
397.513,125.148,-0.67019,0.27481,0.91277
398.213,125.379,-0.70076,0.27709,0.91225
398.913,125.6102,-0.73076,0.28744,0.91174
399.613,125.841,-0.76446,0.29367,0.91123
400.313,126.071,-0.79885,0.29533,0.91071
401.013,126.302,-0.8349,0.29183,0.91019
401.713,126.533,-0.87094,0.29564,0.90968
402.413,126.764,-0.90849,0.30316,0.90916
403.113,126.994,-0.9474,0.29284,0.90864
403.813,127.224,-0.98693,0.29959,0.90812
404.513,127.454,-1.0284,0.30685,0.9076
405.213,127.6824,-1.06834,0.31093,0.90708
405.913,127.91,-1.11298,0.31533,0.90656
406.613,128.1388,-1.15939,0.32107,0.90604
407.313,128.369,-1.20552,0.32483,0.90551
408.013,128.6,-1.25312,0.32423,0.90499
408.713,128.831,-1.30247,0.3273,0.90446
409.413,129.062,-1.35174,0.3273,0.90394
410.113,129.291,-1.40287,0.3281,0.90341
410.813,129.521,-1.4556,0.32974,0.90288
411.513,129.752,-1.50909,0.33006,0.90235
412.213,129.983,-1.56412,0.32838,0.90183
412.913,130.214,-1.61759,0.32767,0.9013
413.613,130.444,-1.67449,0.32968,0.90076
414.313,130.674,-1.72894,0.33056,0.90023
415.013,130.905,-1.78556,0.32816,0.8997
415.713,131.135,-1.84291,0.32787,0.89917
416.413,131.365,-1.90022,0.32498,0.89863
417.113,131.596,-1.95692,0.32183,0.8981
417.813,131.827,-2.0131,0.3179,0.89756
418.513,132.059,-2.07079,0.31597,0.89702
419.213,132.291,-2.12564,0.31246,0.89649
419.913,132.522,-2.18049,0.309,0.89595
420.613,132.7526,-2.23595,0.30566,0.89541
421.313,132.983,-2.28836,0.29904,0.89487
422.013,133.215,-2.33988,0.29182,0.89433
422.713,133.4454,-2.38974,0.2862,0.89378
423.413,133.6752,-2.4376,0.28005,0.89324
424.113,133.905,-2.48104,0.27095,0.8927
424.813,134.135,-2.52703,0.26407,0.89215
425.513,134.3661,-2.56653,0.25589,0.89161
426.213,134.597,-2.60789,0.24644,0.89106
426.913,134.828,-2.64231,0.23846,0.89052
427.613,135.058,-2.67803,0.22943,0.88997
428.313,135.2883,-2.70878,0.21823,0.88942
429.013,135.5183,-2.73878,0.2145,0.88887
429.713,135.748,-2.76578,0.20529,0.88832
430.413,135.979,-2.78885,0.196,0.88777
431.113,136.2094,-2.81277,0.18821,0.88722
431.813,136.44,-2.83416,0.18315,0.88667
432.513,136.671,-2.85284,0.17617,0.88611
433.213,136.9,-2.87104,0.16991,0.88556
433.913,137.1296,-2.88851,0.16374,0.885
434.613,137.359,-2.90364,0.16072,0.88445
435.313,137.59,-2.91762,0.15588,0.88389
436.013,137.821,-2.9325,0.15247,0.88334
436.713,138.053,-2.9434,0.14695,0.88278
437.413,138.286,-2.95619,0.14211,0.88222
438.113,138.518,-2.96753,0.13937,0.88166
438.813,138.75,-2.97598,0.13622,0.8811
439.513,138.981,-2.98645,0.13347,0.88054
440.213,139.213,-2.99609,0.1301,0.87997
440.913,139.445,-3.00311,0.12933,0.87941
441.613,139.677,-3.01064,0.12836,0.87885
442.313,139.908,-3.01988,0.12677,0.87828
443.013,140.139,-3.02598,0.12537,0.87772
443.713,140.37,-3.03131,0.12063,0.87715
444.413,140.601,-3.0393,0.11759,0.87659
445.113,140.831,-3.04507,0.11761,0.87602
445.813,141.062,-3.05122,0.11446,0.87545
446.513,141.292,-3.05512,0.1114,0.87488
447.213,141.522,-3.06113,0.10857,0.87431
447.913,141.752,-3.06632,0.10592,0.87374
448.613,141.983,-3.06885,0.10462,0.87317
449.313,142.2141,-3.07464,0.10008,0.87259
450.013,142.4449,-3.07917,0.10167,0.87202
450.713,142.675,-3.08176,0.10337,0.87145
451.413,142.906,-3.08485,0.09979205,0.87087
452.113,143.137,-3.08945,0.0988989,0.8703
452.813,143.368,-3.09336,0.09830959,0.86972
453.513,143.598,-3.09634,0.09845069,0.86914
454.213,143.829,-3.1013,0.09960857,0.86857
454.913,144.06,-3.10288,0.10281,0.86799
455.613,144.292,-3.10568,0.11011,0.86741
456.313,144.524,-3.10817,0.11763,0.86683
457.013,144.755,-3.11219,0.12129,0.86625
457.713,144.9868,-3.11345,0.12138,0.86567
458.413,145.218,-3.11606,0.11898,0.86508
459.113,145.45,-3.11872,0.11723,0.8645
459.813,145.682,-3.1213,0.11371,0.86392
460.513,145.9132,-3.12259,0.11139,0.86333
461.213,146.144,-3.1253,0.10762,0.86275
461.913,146.374,-3.12803,0.10437,0.86216
462.613,146.6044,-3.12928,0.10495,0.86157
463.313,146.835,-3.13222,0.10003,0.86098
464.013,147.066,-3.13352,0.10173,0.8604
464.713,147.2982,-3.13486,0.10119,0.85981
465.413,147.529,-3.1375,0.09861532,0.85922
466.113,147.761,-3.1381,0.09656343,0.85863
466.813,147.992,-3.14093,0.09515948,0.85803
467.513,148.225,-3.14198,0.09267193,0.85744
468.213,148.456,-3.14307,0.09194585,0.85685
468.913,148.688,-3.14309,0.09056142,0.85625
469.613,148.92,-3.14573,0.08957863,0.85566
470.313,149.153,-3.14667,0.08545204,0.85506
471.013,149.386,-3.14902,0.08276146,0.85447
471.713,149.619,-3.14923,0.08027865,0.85387
472.413,149.852,-3.15071,0.08071309,0.85327
473.113,150.084,-3.15232,0.07736253,0.85268
473.813,150.316,-3.15264,0.07417201,0.85208
474.513,150.549,-3.1553,0.07491178,0.85148
475.213,150.781,-3.15659,0.07681082,0.85088
475.913,151.013,-3.15792,0.07265771,0.85027
476.613,151.243,-3.15791,0.07296659,0.84967
477.313,151.474,-3.15886,0.07314919,0.84907
478.013,151.705,-3.16056,0.072434,0.84847
478.713,151.936,-3.16104,0.07023711,0.84786
479.413,152.168,-3.1622,0.07025072,0.84726
480.113,152.4,-3.16318,0.06940209,0.84665
480.813,152.632,-3.16443,0.0707109,0.84604
481.513,152.863,-3.16417,0.06697802,0.84544
482.213,153.094,-3.16441,0.06650602,0.84483
482.913,153.327,-3.16549,0.06713047,0.84422
483.613,153.561,-3.16723,0.06565308,0.84361
484.313,153.7963,-3.1691,0.06478604,0.843
485.013,154.029,-3.16812,0.06491068,0.84239
485.713,154.262,-3.17077,0.06161741,0.84178
486.413,154.494,-3.1701,0.06248843,0.84117
487.113,154.725,-3.17237,0.06183998,0.84055
487.813,154.957,-3.17309,0.06251085,0.83994
488.513,155.19,-3.17241,0.06049037,0.83933
489.213,155.423,-3.17505,0.06130937,0.83871
489.913,155.655,-3.17537,0.06146798,0.83809
490.613,155.887,-3.17507,0.06125869,0.83748
491.313,156.119,-3.17642,0.06312694,0.83686
492.013,156.351,-3.17702,0.06108509,0.83624
492.713,156.584,-3.17703,0.06183875,0.83562
493.413,156.817,-3.17735,0.06047141,0.835
494.113,157.05,-3.17899,0.06027359,0.83438
494.813,157.2827,-3.17998,0.06054681,0.83376
495.513,157.515,-3.18064,0.06093997,0.83314
496.213,157.747,-3.18064,0.06077353,0.83252
496.913,157.979,-3.18181,0.06046216,0.8319
497.613,158.212,-3.1809,0.06010975,0.83127
498.313,158.444,-3.18262,0.0581637,0.83065
499.013,158.677,-3.1836,0.05833133,0.83002
499.713,158.908,-3.18389,0.05721824,0.8294
500.413,159.141,-3.18525,0.05836653,0.82877
501.113,159.373,-3.18623,0.05836251,0.82814
501.813,159.6061,-3.18525,0.05954397,0.82752
502.513,159.839,-3.18525,0.06030866,0.82689
503.213,160.0716,-3.18636,0.0583266,0.82626
503.913,160.304,-3.1865,0.05640756,0.82563
504.613,160.538,-3.18718,0.05733293,0.825
505.313,160.772,-3.18961,0.05358502,0.82437
506.013,161.005,-3.18854,0.05523179,0.82374
506.713,161.2378,-3.18834,0.05540904,0.8231
507.413,161.47,-3.19085,0.05322186,0.82247
508.113,161.702,-3.1915,0.05830602,0.82184
508.813,161.933,-3.19118,0.05513747,0.8212
509.513,162.166,-3.1925,0.05702797,0.82057
510.213,162.399,-3.19382,0.05996103,0.81993
510.913,162.631,-3.19382,0.05500627,0.81929
511.613,162.863,-3.19283,0.05622707,0.81866
512.313,163.097,-3.19525,0.05927093,0.81802
513.013,163.33,-3.19447,0.05818592,0.81738
513.713,163.564,-3.19447,0.05848373,0.81674
514.413,163.797,-3.19546,0.057965,0.8161
515.113,164.031,-3.19545,0.06000689,0.81546
515.813,164.264,-3.19644,0.05878851,0.81482
516.513,164.499,-3.1971,0.05760249,0.81418
517.213,164.733,-3.19711,0.05849737,0.81353
517.913,164.967,-3.19744,0.05973705,0.81289
518.613,165.201,-3.19907,0.06045073,0.81225
519.313,165.434,-3.19843,0.05787762,0.8116
520.013,165.666,-3.19841,0.05793045,0.81096
520.713,165.897,-3.19974,0.06100643,0.81031
521.413,166.128,-3.19974,0.06029773,0.80967
522.113,166.36,-3.20073,0.06026945,0.80902
522.813,166.592,-3.20073,0.06163927,0.80837
523.513,166.825,-3.2004,0.06087124,0.80772
524.213,167.058,-3.20211,0.06019128,0.80707
524.913,167.291,-3.20153,0.06064571,0.80642
525.613,167.524,-3.20205,0.06137425,0.80577
526.313,167.7583,-3.20304,0.06178905,0.80512
527.013,167.992,-3.20337,0.06230453,0.80447
527.713,168.226,-3.20337,0.06273833,0.80382
528.413,168.46,-3.20463,0.06295498,0.80317
529.113,168.694,-3.20333,0.06284907,0.80251
529.813,168.926,-3.20331,0.06322728,0.80186
530.513,169.159,-3.20435,0.06347515,0.8012
531.213,169.391,-3.20435,0.06464053,0.80055
531.913,169.624,-3.20468,0.06612969,0.79989
532.613,169.856,-3.20534,0.06298303,0.79924
533.313,170.089,-3.20557,0.06259277,0.79858
534.013,170.323,-3.2047,0.0615633,0.79792
534.713,170.556,-3.206,0.06148164,0.79726
535.413,170.79,-3.20732,0.06260064,0.7966
536.113,171.025,-3.20734,0.06160047,0.79594
536.813,171.258,-3.20765,0.06100841,0.79528
537.513,171.491,-3.20756,0.05994853,0.79462
538.213,171.725,-3.20879,0.06344195,0.79396
538.913,171.959,-3.20831,0.0630176,0.7933
539.613,172.194,-3.20926,0.06340468,0.79264
540.313,172.426,-3.20931,0.06327337,0.79197
541.013,172.66,-3.2093,0.06701216,0.79131
541.713,172.893,-3.21028,0.06535937,0.79064
542.413,173.128,-3.20961,0.06602158,0.78998
543.113,173.361,-3.21129,0.06227897,0.78931
543.813,173.594,-3.21062,0.06630944,0.78865
544.513,173.828,-3.21335,0.06517347,0.78798
545.213,174.061,-3.21326,0.06436015,0.78731
545.913,174.295,-3.21186,0.06703663,0.78664
546.613,174.528,-3.21259,0.06794159,0.78597
547.313,174.762,-3.21372,0.06769715,0.7853
548.013,174.9951,-3.21366,0.0679996,0.78463
548.713,175.229,-3.21292,0.06728914,0.78396
549.413,175.464,-3.21423,0.06546037,0.78329
550.113,175.699,-3.21424,0.06764028,0.78262
550.813,175.933,-3.21555,0.06677539,0.78195
551.513,176.167,-3.21555,0.06754416,0.78128
552.213,176.401,-3.21588,0.06739698,0.7806
552.913,176.635,-3.2159,0.07097294,0.77993
553.613,176.868,-3.21654,0.07164121,0.77925
554.313,177.101,-3.21588,0.07258165,0.77858
555.013,177.334,-3.21819,0.071495,0.7779
555.713,177.567,-3.21786,0.07336383,0.77723
556.413,177.799,-3.21785,0.07345213,0.77655
557.113,178.032,-3.21685,0.07448306,0.77587
557.813,178.266,-3.2182,0.07421664,0.7752
558.513,178.5,-3.21884,0.0751163,0.77452
559.213,178.734,-3.21949,0.07224952,0.77384
559.913,178.969,-3.22082,0.07277773,0.77316
560.613,179.203,-3.21983,0.07149436,0.77248
561.313,179.437,-3.21983,0.06722032,0.7718
562.013,179.672,-3.22121,0.0692905,0.77112
562.713,179.906,-3.22009,0.06828003,0.77043
563.413,180.14,-3.22149,0.06756992,0.76975
564.113,180.375,-3.22378,0.07016241,0.76907
564.813,180.611,-3.2218,0.06825216,0.76839
565.513,180.846,-3.22444,0.07030137,0.7677
566.213,181.08,-3.22313,0.06838023,0.76702
566.913,181.314,-3.22444,0.06795755,0.76633
567.613,181.548,-3.22576,0.07015957,0.76565
568.313,181.782,-3.22543,0.07040544,0.76496
569.013,182.016,-3.22543,0.06742351,0.76427
569.713,182.249,-3.22545,0.06833519,0.76359
570.413,182.482,-3.22543,0.06764404,0.7629
571.113,182.7157,-3.2267,0.0662075,0.76221
571.813,182.95,-3.22708,0.06730462,0.76152
572.513,183.184,-3.22838,0.06659708,0.76083
573.213,183.419,-3.22839,0.06995417,0.76014
573.913,183.654,-3.22813,0.06827149,0.75945
574.613,183.889,-3.22971,0.06903108,0.75876
575.313,184.125,-3.22773,0.06600981,0.75807
576.013,184.359,-3.22987,0.06825094,0.75738
576.713,184.594,-3.22939,0.06837937,0.75668
577.413,184.828,-3.23037,0.06889134,0.75599
578.113,185.063,-3.23163,0.06750931,0.7553
578.813,185.297,-3.23267,0.07029764,0.7546
579.513,185.529,-3.23149,0.07448384,0.75391
580.213,185.761,-3.23365,0.08675881,0.75321
580.913,185.994,-3.23303,0.08368926,0.75252
581.613,186.227,-3.23154,0.08287958,0.75182
582.313,186.4596,-3.23498,0.07932221,0.75113
583.013,186.695,-3.23428,0.08050218,0.75043
583.713,186.93,-3.23452,0.08137104,0.74973
584.413,187.167,-3.23465,0.08359594,0.74903
585.113,187.403,-3.23597,0.08360434,0.74833
585.813,187.638,-3.23597,0.08164986,0.74764
586.513,187.872,-3.23564,0.08008562,0.74694
587.213,188.105,-3.23818,0.08262383,0.74624
587.913,188.338,-3.23827,0.08138719,0.74553
588.613,188.57,-3.23959,0.07895265,0.74483
589.313,188.804,-3.23916,0.07957977,0.74413
590.013,189.038,-3.23959,0.08110482,0.74343
590.713,189.272,-3.24058,0.08038457,0.74273
591.413,189.507,-3.24072,0.08021203,0.74203
592.113,189.742,-3.24063,0.08063399,0.74132
592.813,189.978,-3.24188,0.07928014,0.74062
593.513,190.2136,-3.2415,0.08096019,0.73991
594.213,190.449,-3.24189,0.08239342,0.73921
594.913,190.685,-3.24189,0.0807726,0.7385
595.613,190.92,-3.24334,0.07878384,0.7378
596.313,191.155,-3.24222,0.08047551,0.73709
597.013,191.389,-3.24454,0.0812115,0.73638
597.713,191.624,-3.24362,0.08143169,0.73568
598.413,191.859,-3.24354,0.08297858,0.73497
599.113,192.093,-3.24358,0.08265287,0.73426
599.813,192.327,-3.24424,0.08175859,0.73355
600.513,192.561,-3.2449,0.08142609,0.73284
601.213,192.796,-3.24585,0.08382712,0.73214
601.913,193.03,-3.24453,0.0856202,0.73143
602.613,193.265,-3.24717,0.08656973,0.73071
603.313,193.5,-3.24585,0.08814984,0.73
604.013,193.734,-3.24652,0.08721745,0.72929
604.713,193.969,-3.24674,0.08811932,0.72858
605.413,194.203,-3.24713,0.08409216,0.72787
606.113,194.438,-3.24685,0.08874117,0.72716
606.813,194.673,-3.24717,0.08883239,0.72644
607.513,194.907,-3.24724,0.09072128,0.72573
608.213,195.141,-3.24849,0.09167395,0.72502
608.913,195.375,-3.24717,0.09217874,0.7243
609.613,195.61,-3.24783,0.09166565,0.72359
610.313,195.844,-3.24654,0.09365223,0.72287
611.013,196.077,-3.24751,0.09488444,0.72216
611.713,196.312,-3.24752,0.0939029,0.72144
612.413,196.547,-3.24915,0.09367189,0.72072
613.113,196.782,-3.24915,0.09396577,0.72001
613.813,197.016,-3.24886,0.09382631,0.71929
614.513,197.249,-3.24849,0.0965291,0.71857
615.213,197.484,-3.25113,0.09124921,0.71785
615.913,197.719,-3.24915,0.09465425,0.71714
616.613,197.953,-3.25047,0.0933579,0.71642
617.313,198.1877,-3.24994,0.09368218,0.7157
618.013,198.422,-3.24981,0.09678796,0.71498
618.713,198.657,-3.25029,0.09630172,0.71426
619.413,198.89,-3.25175,0.09459699,0.71354
620.113,199.124,-3.25046,0.09453461,0.71282
620.813,199.358,-3.24949,0.09484791,0.7121
621.513,199.593,-3.25113,0.09674969,0.71137
622.213,199.828,-3.25112,0.09858845,0.71065
622.913,200.063,-3.25147,0.10006,0.70993
623.613,200.297,-3.25178,0.10048,0.70921
624.313,200.5312,-3.25178,0.10176,0.70848
625.013,200.765,-3.25145,0.10598,0.70776
625.713,200.999,-3.25141,0.10392,0.70704
626.413,201.233,-3.25145,0.10502,0.70631
627.113,201.468,-3.25046,0.10834,0.70559
627.813,201.704,-3.2531,0.10488,0.70486
628.513,201.9387,-3.2531,0.10619,0.70414
629.213,202.174,-3.25351,0.10433,0.70341
629.913,202.41,-3.25289,0.10251,0.70268
630.613,202.6458,-3.25277,0.10158,0.70196
631.313,202.8808,-3.2531,0.10572,0.70123
632.013,203.1169,-3.25342,0.10617,0.7005
632.713,203.353,-3.25394,0.1047,0.69978
633.413,203.5899,-3.25378,0.10507,0.69905
634.113,203.826,-3.25438,0.10201,0.69832
634.813,204.061,-3.25206,0.10168,0.69759
635.513,204.296,-3.25309,0.10217,0.69686
636.213,204.531,-3.25309,0.10623,0.69613
636.913,204.766,-3.25474,0.10298,0.6954
637.613,204.998,-3.2554,0.10434,0.69467
638.313,205.231,-3.25409,0.10776,0.69394
639.013,205.466,-3.25404,0.1069,0.69321
639.713,205.702,-3.25474,0.10941,0.69248
640.413,205.938,-3.25588,0.10758,0.69175
641.113,206.174,-3.25434,0.11006,0.69101
641.813,206.409,-3.25403,0.11294,0.69028
642.513,206.643,-3.25541,0.11479,0.68955
643.213,206.878,-3.25474,0.11292,0.68882
643.913,207.111,-3.2563,0.11143,0.68808
644.613,207.345,-3.25474,0.10964,0.68735
645.313,207.58,-3.25572,0.11763,0.68662
646.013,207.816,-3.25573,0.11621,0.68588
646.713,208.052,-3.25442,0.1184,0.68515
647.413,208.287,-3.25508,0.11843,0.68441
648.113,208.523,-3.25541,0.11848,0.68368
648.813,208.758,-3.25543,0.11631,0.68294
649.513,208.994,-3.2561,0.11821,0.68221
650.213,209.229,-3.25651,0.12058,0.68147
650.913,209.462,-3.25672,0.1181,0.68073
651.613,209.695,-3.25647,0.11817,0.68
652.313,209.928,-3.25771,0.11636,0.67926
653.013,210.162,-3.25639,0.12098,0.67852
653.713,210.398,-3.25647,0.12126,0.67778
654.413,210.634,-3.25705,0.12157,0.67705
655.113,210.871,-3.25573,0.12472,0.67631
655.813,211.107,-3.25771,0.12405,0.67557
656.513,211.341,-3.2554,0.12277,0.67483
657.213,211.575,-3.25633,0.12531,0.67409
657.913,211.809,-3.25837,0.12552,0.67335
658.613,212.044,-3.25712,0.12538,0.67261
659.313,212.279,-3.25838,0.12353,0.67187
660.013,212.514,-3.25705,0.12532,0.67113
660.713,212.75,-3.25705,0.12562,0.67039
661.413,212.987,-3.25967,0.12832,0.66965
662.113,213.224,-3.25833,0.12285,0.66891
662.813,213.461,-3.25803,0.12088,0.66817
663.513,213.697,-3.25771,0.11967,0.66742
664.213,213.933,-3.25738,0.12201,0.66668
664.913,214.168,-3.25804,0.123,0.66594
665.613,214.403,-3.25802,0.12571,0.6652
666.313,214.639,-3.25837,0.12544,0.66445
667.013,214.875,-3.25837,0.12355,0.66371
667.713,215.11,-3.25926,0.12785,0.66297
668.413,215.344,-3.25804,0.12661,0.66222
669.113,215.579,-3.25904,0.12833,0.66148
669.813,215.814,-3.25902,0.12761,0.66074
670.513,216.0495,-3.25902,0.12788,0.65999
671.213,216.285,-3.25935,0.12771,0.65925
671.913,216.521,-3.25899,0.12805,0.6585
672.613,216.757,-3.25902,0.12678,0.65776
673.313,216.994,-3.25902,0.12729,0.65701
674.013,217.23,-3.25902,0.12696,0.65627
674.713,217.466,-3.26001,0.12766,0.65552
675.413,217.702,-3.2587,0.1237,0.65477
676.113,217.938,-3.26033,0.12343,0.65403
676.813,218.174,-3.25903,0.12271,0.65328
677.513,218.409,-3.25837,0.12198,0.65253
678.213,218.643,-3.2587,0.12279,0.65179
678.913,218.877,-3.25926,0.11828,0.65104
679.613,219.112,-3.259,0.11787,0.65029
680.313,219.346,-3.25935,0.11604,0.64954
681.013,219.582,-3.25769,0.11334,0.6488
681.713,219.818,-3.25869,0.11094,0.64805
682.413,220.054,-3.25771,0.11103,0.6473
683.113,220.29,-3.25903,0.11028,0.64655
683.813,220.526,-3.25971,0.11247,0.6458
684.513,220.762,-3.25969,0.11729,0.64505
685.213,220.998,-3.2587,0.11562,0.6443
685.913,221.234,-3.2587,0.11548,0.64355
686.613,221.469,-3.2587,0.11643,0.6428
687.313,221.703,-3.25969,0.11672,0.64206
688.013,221.938,-3.26034,0.11722,0.6413
688.713,222.1732,-3.261,0.11635,0.64055
689.413,222.409,-3.26166,0.11472,0.6398
690.113,222.645,-3.26199,0.11586,0.63905
690.813,222.881,-3.26427,0.11467,0.6383
691.513,223.117,-3.26298,0.11661,0.63755
692.213,223.353,-3.26298,0.11787,0.6368
692.913,223.589,-3.26308,0.11884,0.63605
693.613,223.8247,-3.26331,0.12,0.6353
694.313,224.062,-3.26328,0.12056,0.63455
695.013,224.298,-3.26463,0.12189,0.63379
695.713,224.535,-3.26235,0.1193,0.63304
696.413,224.771,-3.26364,0.11921,0.63229
697.113,225.007,-3.26355,0.11812,0.63154
697.813,225.243,-3.26364,0.11642,0.63078
698.513,225.478,-3.26399,0.11343,0.63003
699.213,225.714,-3.26397,0.11191,0.62928
699.913,225.95,-3.26397,0.11433,0.62852
700.613,226.187,-3.26452,0.11241,0.62777
701.313,226.424,-3.26298,0.10986,0.62702
702.013,226.661,-3.26483,0.11501,0.62626
702.713,226.898,-3.2643,0.11152,0.62551
703.413,227.135,-3.26528,0.11509,0.62476
704.113,227.371,-3.26396,0.11299,0.624
704.813,227.605,-3.26459,0.11046,0.62325
705.513,227.839,-3.26349,0.11613,0.62249
706.213,228.073,-3.26495,0.11383,0.62174
706.913,228.308,-3.26495,0.11371,0.62098
707.613,228.544,-3.26307,0.113,0.62023
708.313,228.78,-3.26564,0.11313,0.61947
709.013,229.016,-3.26561,0.10901,0.61872
709.713,229.252,-3.26561,0.10937,0.61796
710.413,229.4889,-3.26561,0.11068,0.61721
711.113,229.726,-3.26429,0.10885,0.61645
711.813,229.962,-3.2657,0.10934,0.6157
712.513,230.198,-3.26561,0.10603,0.61494
713.213,230.434,-3.26627,0.10887,0.61418
713.913,230.671,-3.26726,0.10649,0.61343
714.613,230.908,-3.26639,0.10469,0.61267
715.313,231.145,-3.26627,0.10171,0.61191
716.013,231.381,-3.26542,0.09921126,0.61116
716.713,231.618,-3.26594,0.09977854,0.6104
717.413,231.854,-3.2664,0.10112,0.60964
718.113,232.09,-3.26726,0.09821729,0.60889
718.813,232.3248,-3.26726,0.10092,0.60813
719.513,232.559,-3.26757,0.10068,0.60737
720.213,232.793,-3.2663,0.09834458,0.60662
720.913,233.029,-3.26725,0.09819066,0.60586
721.613,233.264,-3.26859,0.09835442,0.6051
722.313,233.5,-3.26857,0.09595722,0.60434
723.013,233.736,-3.26735,0.09443617,0.60359
723.713,233.974,-3.2666,0.09164467,0.60283
724.413,234.211,-3.26707,0.08941451,0.60207
725.113,234.448,-3.2662,0.08773459,0.60131
725.813,234.6846,-3.26726,0.08705228,0.60056
726.513,234.921,-3.26825,0.08547371,0.5998
727.213,235.158,-3.26759,0.08500554,0.59904
727.913,235.394,-3.26759,0.08039595,0.59828
728.613,235.629,-3.26759,0.07842737,0.59752
729.313,235.864,-3.26892,0.08194307,0.59676
730.013,236.101,-3.26891,0.08085612,0.59601
730.713,236.337,-3.26858,0.07941278,0.59525
731.413,236.574,-3.26792,0.078557,0.59449
732.113,236.811,-3.26924,0.07409019,0.59373
732.813,237.048,-3.26924,0.0752167,0.59297
733.513,237.284,-3.26925,0.07153348,0.59221
734.213,237.52,-3.26843,0.07075336,0.59145
734.913,237.756,-3.26096,0.07142596,0.5907
735.613,237.992,-3.27881,0.07457653,0.58994
736.313,238.229,-3.27615,0.07586463,0.58918
737.013,238.465,-3.27054,0.07583767,0.58842
737.713,238.701,-3.26736,0.07176256,0.58766
738.413,238.938,-3.2638,0.06956402,0.5869
739.113,239.175,-3.2568,0.06933823,0.58614
739.813,239.4107,-3.27302,0.07162071,0.58538
740.513,239.647,-3.27958,0.07508418,0.58462
741.213,239.882,-3.27568,0.07377001,0.58386
741.913,240.118,-3.27059,0.06924956,0.5831
742.613,240.354,-3.26967,0.06828415,0.58234
743.313,240.592,-3.26967,0.06270187,0.58158
744.013,240.829,-3.26835,0.06312361,0.58082
744.713,241.067,-3.26967,0.0621208,0.58006
745.413,241.305,-3.26836,0.06018335,0.57931
746.113,241.5429,-3.26929,0.06099614,0.57855
746.813,241.78,-3.26855,0.05605812,0.57779
747.513,242.017,-3.26967,0.05376781,0.57703
748.213,242.253,-3.26866,0.05554312,0.57627
748.913,242.489,-3.26897,0.04907595,0.57551
749.613,242.725,-3.26874,0.04669601,0.57475
750.313,242.961,-3.27,0.04365422,0.57399
751.013,243.198,-3.27,0.0400494,0.57323
751.413,243.333,-3.27,0.04174076,0.57279