File: 01_Data/Eucalyptus_Flooring/STA/N2/10K_min/Eucalyptus_Flooring_STA_N2_10KData_211012_R1.csv
##Temp./Â°C,Time/min,Mass loss(subtr.2)/mg,DSC(subtr.2)/(mW/mg),Sensit./(uV/mW)
49.312,10.01,-0.00921,0.006291693,1.07447
49.912,10.73197,-0.008546543,0.03629926,1.07443
50.512,10.92385,-0.00885931,0.06091892,1.07439
51.112,11.06592,-0.008657685,0.07930866,1.07434
51.712,11.18604,-0.009422584,0.09621811,1.0743
52.312,11.29294,-0.008732434,0.1089,1.07425
52.912,11.3905,-0.008461681,0.12263,1.07421
53.512,11.48122,-0.009477746,0.13499,1.07416
54.112,11.56725,-0.009229418,0.14509,1.07412
54.712,11.65023,-0.009999508,0.15338,1.07407
55.312,11.7303,-0.01022748,0.16133,1.07402
55.912,11.80776,-0.01055358,0.16798,1.07397
56.512,11.88274,-0.009157412,0.17446,1.07392
57.112,11.95655,-0.009341851,0.18161,1.07387
57.712,12.02908,-0.008205165,0.18641,1.07381
58.312,12.10063,-0.01025151,0.19296,1.07376
58.912,12.1714,-0.01009263,0.1965,1.07371
59.512,12.24126,-0.008991281,0.1982,1.07365
60.112,12.3104,-0.008982045,0.20407,1.0736
60.712,12.37861,-0.009849782,0.2075,1.07354
61.312,12.44634,-0.01032354,0.21139,1.07348
61.912,12.5138,-0.01032199,0.21389,1.07342
62.512,12.5812,-0.01028027,0.21588,1.07337
63.112,12.64799,-0.00947991,0.22007,1.07331
63.712,12.7143,-0.00899374,0.22337,1.07324
64.312,12.78003,-0.008999821,0.22317,1.07318
64.912,12.84576,-0.008962494,0.22786,1.07312
65.512,12.91129,-0.009037974,0.22976,1.07306
66.112,12.97678,-0.01021391,0.23228,1.07299
66.712,13.04225,-0.01032148,0.23372,1.07293
67.312,13.1073,-0.00914263,0.23637,1.07286
67.912,13.17215,-0.01030974,0.24036,1.0728
68.512,13.2367,-0.009183429,0.24189,1.07273
69.112,13.3011,-0.01068166,0.24358,1.07266
69.712,13.3656,-0.01162824,0.24643,1.07259
70.312,13.42968,-0.01065687,0.24887,1.07252
70.912,13.494,-0.01163739,0.2483,1.07245
71.512,13.55783,-0.01054275,0.25206,1.07238
72.112,13.6212,-0.01162925,0.25362,1.07231
72.712,13.68469,-0.0129328,0.2547,1.07223
73.312,13.7481,-0.01162066,0.25728,1.07216
73.912,13.8117,-0.01174007,0.25825,1.07208
74.512,13.8752,-0.01158281,0.26029,1.07201
75.112,13.9381,-0.01287501,0.26312,1.07193
75.712,14.00087,-0.01289312,0.26222,1.07185
76.312,14.06316,-0.01188824,0.26616,1.07178
76.912,14.1258,-0.01294003,0.26687,1.0717
77.512,14.18835,-0.01294991,0.27053,1.07162
78.112,14.25097,-0.01425952,0.27047,1.07154
78.712,14.31342,-0.01424892,0.27254,1.07145
79.312,14.3757,-0.01425001,0.27267,1.07137
79.912,14.43776,-0.01427054,0.27421,1.07129
80.512,14.4999,-0.01425987,0.2766,1.0712
81.112,14.56166,-0.01426,0.2747,1.07112
81.712,14.62325,-0.01425555,0.27742,1.07103
82.312,14.68474,-0.0155782,0.2776,1.07095
82.912,14.74627,-0.01557572,0.27974,1.07086
83.512,14.80739,-0.01662242,0.28032,1.07077
84.112,14.86856,-0.01556798,0.28096,1.07068
84.712,14.92981,-0.01689,0.28088,1.07059
85.312,14.9909,-0.01557718,0.27836,1.0705
85.912,15.05229,-0.01690608,0.28322,1.07041
86.512,15.11323,-0.0169,0.28262,1.07032
87.112,15.17409,-0.0169,0.2818,1.07022
87.712,15.2348,-0.01690001,0.27989,1.07013
88.312,15.29545,-0.01692486,0.28165,1.07003
88.912,15.35615,-0.0182107,0.28168,1.06994
89.512,15.41683,-0.01703485,0.28142,1.06984
90.112,15.47729,-0.01819583,0.28222,1.06974
90.712,15.53739,-0.01820999,0.28078,1.06965
91.312,15.5976,-0.01821,0.27974,1.06955
91.912,15.6576,-0.01820997,0.28058,1.06945
92.512,15.71776,-0.01935011,0.27864,1.06935
93.112,15.77784,-0.01952017,0.27804,1.06924
93.712,15.8377,-0.0182939,0.27724,1.06914
94.312,15.8977,-0.01942157,0.27825,1.06904
94.912,15.95769,-0.01951997,0.27828,1.06894
95.512,16.01764,-0.01952001,0.276,1.06883
96.112,16.0775,-0.01956011,0.27453,1.06872
96.712,16.13713,-0.01952949,0.2733,1.06862
97.312,16.19661,-0.01953,0.27154,1.06851
97.912,16.2559,-0.01953011,0.27298,1.0684
98.512,16.3155,-0.01992018,0.27242,1.06829
99.112,16.37494,-0.01952039,0.27349,1.06818
99.712,16.43447,-0.01957254,0.27524,1.06807
100.312,16.4936,-0.0208405,0.2722,1.06796
100.912,16.5528,-0.02083578,0.2727,1.06785
101.512,16.61212,-0.02079449,0.27106,1.06774
102.112,16.67139,-0.02083999,0.2702,1.06762
102.712,16.73072,-0.02084,0.27073,1.06751
103.312,16.78989,-0.02084,0.27035,1.06739
103.912,16.84903,-0.02108615,0.2694,1.06728
104.512,16.9083,-0.02096715,0.26914,1.06716
105.112,16.96754,-0.02084007,0.2682,1.06704
105.712,17.02673,-0.02084,0.26839,1.06692
106.312,17.0857,-0.02083974,0.2678,1.0668
106.912,17.14469,-0.02187404,0.2683,1.06668
107.512,17.20355,-0.02215993,0.26811,1.06656
108.112,17.26248,-0.02216001,0.26733,1.06644
108.712,17.32149,-0.02217514,0.26788,1.06632
109.312,17.38035,-0.02215161,0.26706,1.06619
109.912,17.43926,-0.02215072,0.26823,1.06607
110.512,17.49835,-0.02347713,0.26838,1.06594
111.112,17.55723,-0.02216088,0.26893,1.06582
111.712,17.6162,-0.02215752,0.26932,1.06569
112.312,17.675,-0.02248231,0.26865,1.06556
112.912,17.7337,-0.02248037,0.2682,1.06543
113.512,17.7925,-0.02133537,0.26823,1.0653
114.112,17.85142,-0.02116951,0.27032,1.06517
114.712,17.91029,-0.02182894,0.27315,1.06504
115.312,17.96921,-0.02249999,0.27157,1.06491
115.912,18.02805,-0.02249097,0.27138,1.06478
116.512,18.08645,-0.0237032,0.27093,1.06464
117.112,18.14539,-0.02379816,0.27313,1.06451
117.712,18.20417,-0.02247264,0.27314,1.06437
118.312,18.26289,-0.02248,0.27431,1.06424
118.912,18.32159,-0.02248,0.27266,1.0641
119.512,18.38027,-0.02247992,0.27412,1.06396
120.112,18.43884,-0.02118974,0.27622,1.06383
120.712,18.49748,-0.02249039,0.27647,1.06369
121.312,18.55625,-0.02388271,0.27604,1.06355
121.912,18.61495,-0.02374508,0.27652,1.06341
122.512,18.6737,-0.0221666,0.27657,1.06326
123.112,18.732,-0.02248919,0.27775,1.06312
123.712,18.79025,-0.02381102,0.2793,1.06298
124.312,18.8487,-0.02449417,0.28046,1.06283
124.912,18.90714,-0.02314006,0.28063,1.06269
125.512,18.96579,-0.0231444,0.28285,1.06254
126.112,19.02435,-0.0222642,0.28278,1.0624
126.712,19.08275,-0.02281013,0.28181,1.06225
127.312,19.14113,-0.02280722,0.28375,1.0621
127.912,19.19952,-0.02380398,0.28533,1.06195
128.512,19.25787,-0.02380001,0.2871,1.0618
129.112,19.31635,-0.023814,0.28763,1.06165
129.712,19.3745,-0.02511358,0.28914,1.0615
130.312,19.43285,-0.02511,0.29008,1.06135
130.912,19.49109,-0.02510994,0.29041,1.0612
131.512,19.54937,-0.02415198,0.28961,1.06104
132.112,19.6077,-0.02479785,0.2926,1.06089
132.712,19.66591,-0.02479001,0.29034,1.06074
133.312,19.72416,-0.02479,0.29381,1.06058
133.912,19.78238,-0.02479,0.29484,1.06042
134.512,19.84038,-0.02479061,0.29726,1.06026
135.112,19.89835,-0.0251208,0.29729,1.06011
135.712,19.95627,-0.02512,0.29715,1.05995
136.312,20.01461,-0.02511385,0.2968,1.05979
136.912,20.07292,-0.02643819,0.29728,1.05963
137.512,20.1312,-0.02644,0.29824,1.05947
138.112,20.18917,-0.02643999,0.29857,1.0593
138.712,20.24709,-0.02639078,0.29851,1.05914
139.312,20.30508,-0.02774908,0.29944,1.05898
139.912,20.36316,-0.02775,0.30251,1.05881
140.512,20.42142,-0.02775,0.30254,1.05865
141.112,20.47949,-0.02775,0.30272,1.05848
141.712,20.5373,-0.02775007,0.30275,1.05831
142.312,20.59515,-0.02802428,0.30461,1.05814
142.912,20.6529,-0.02894168,0.30403,1.05798
143.512,20.71061,-0.02774992,0.30607,1.05781
144.112,20.76845,-0.02774966,0.30701,1.05764
144.712,20.82628,-0.02903309,0.30889,1.05746
145.312,20.88431,-0.02907587,0.30992,1.05729
145.912,20.94248,-0.02775165,0.30779,1.05712
146.512,21.00084,-0.02775391,0.30925,1.05695
147.112,21.05874,-0.02906808,0.31015,1.05677
147.712,21.11661,-0.02940172,0.30973,1.0566
148.312,21.17437,-0.02940006,0.31143,1.05642
148.912,21.23222,-0.02949025,0.31209,1.05625
149.512,21.2901,-0.03071002,0.31219,1.05607
150.112,21.34802,-0.03071,0.31303,1.05589
150.712,21.40589,-0.03071,0.31532,1.05571
151.312,21.4637,-0.03071,0.31771,1.05553
151.912,21.52147,-0.03071,0.31802,1.05535
152.512,21.57925,-0.03070982,0.31799,1.05517
153.112,21.63705,-0.03201442,0.31809,1.05499
153.712,21.6946,-0.03202834,0.32039,1.05481
154.312,21.752,-0.03070428,0.3207,1.05462
154.912,21.8094,-0.03070984,0.32057,1.05444
155.512,21.86737,-0.03201661,0.31984,1.05425
156.112,21.92534,-0.03078863,0.32163,1.05407
156.712,21.983,-0.03200953,0.32238,1.05388
157.312,22.04091,-0.03169623,0.32106,1.05369
157.912,22.09852,-0.03170134,0.32369,1.0535
158.512,22.1562,-0.03301517,0.32488,1.05331
159.112,22.214,-0.03301,0.32543,1.05312
159.712,22.2715,-0.03301,0.326,1.05293
160.312,22.32921,-0.03301,0.32729,1.05274
160.912,22.38681,-0.03300336,0.32914,1.05255
161.512,22.44445,-0.03432817,0.32861,1.05236
162.112,22.50221,-0.03433,0.33012,1.05216
162.712,22.55979,-0.03433,0.33091,1.05197
163.312,22.6176,-0.03459351,0.33273,1.05177
163.912,22.6749,-0.03457034,0.33442,1.05158
164.512,22.7321,-0.03597986,0.33433,1.05138
165.112,22.78899,-0.03600546,0.33592,1.05118
165.712,22.84646,-0.03468604,0.33616,1.05099
166.312,22.9038,-0.03616429,0.33617,1.05079
166.912,22.96182,-0.0373002,0.33638,1.05059
167.512,23.01973,-0.03729998,0.3364,1.05039
168.112,23.0775,-0.036558,0.33803,1.05019
168.712,23.13498,-0.03591544,0.33856,1.04998
169.312,23.19249,-0.03799758,0.33623,1.04978
169.912,23.25,-0.03795,0.33861,1.04958
170.512,23.30762,-0.03786579,0.33918,1.04937
171.112,23.3653,-0.03925987,0.33866,1.04917
171.712,23.42308,-0.03926006,0.34169,1.04896
172.312,23.48075,-0.03929516,0.33973,1.04875
172.912,23.5384,-0.03991832,0.34024,1.04855
173.512,23.59604,-0.04025303,0.34209,1.04834
174.112,23.65371,-0.04162274,0.34073,1.04813
174.712,23.71128,-0.04158536,0.3441,1.04792
175.312,23.76874,-0.04389219,0.3414,1.04771
175.912,23.82605,-0.04237956,0.34324,1.0475
176.512,23.88349,-0.04365368,0.34418,1.04729
177.112,23.94098,-0.04365,0.34157,1.04707
177.712,23.99865,-0.04365001,0.34426,1.04686
178.312,24.05647,-0.0436759,0.34365,1.04665
178.912,24.11412,-0.04497048,0.3451,1.04643
179.512,24.17182,-0.04497,0.3457,1.04621
180.112,24.2294,-0.04496782,0.34562,1.046
180.712,24.287,-0.04736682,0.34444,1.04578
181.312,24.34469,-0.04760987,0.34425,1.04556
181.912,24.40214,-0.04760998,0.34425,1.04534
182.512,24.45965,-0.04761492,0.34889,1.04512
183.112,24.51697,-0.04891681,0.34892,1.0449
183.712,24.57443,-0.05021295,0.34702,1.04468
184.312,24.6318,-0.05153931,0.34585,1.04446
184.912,24.6894,-0.05155001,0.34649,1.04424
185.512,24.74694,-0.05168437,0.34585,1.04401
186.112,24.80453,-0.05389231,0.34985,1.04379
186.712,24.862,-0.05418993,0.34996,1.04357
187.312,24.9193,-0.05419908,0.35077,1.04334
187.912,24.9769,-0.05550033,0.35086,1.04311
188.512,25.0341,-0.05549985,0.34746,1.04289
189.112,25.09158,-0.05585785,0.35008,1.04266
189.712,25.149,-0.05683343,0.34932,1.04243
190.312,25.2061,-0.05682016,0.35042,1.0422
190.912,25.26371,-0.05713999,0.35109,1.04197
191.512,25.32124,-0.05813002,0.35174,1.04174
192.112,25.3788,-0.05812596,0.35081,1.04151
192.712,25.43647,-0.06059604,0.35175,1.04128
193.312,25.4939,-0.06075455,0.35172,1.04104
193.912,25.55133,-0.06207889,0.35233,1.04081
194.512,25.60877,-0.06207972,0.35314,1.04058
195.112,25.66616,-0.06336336,0.35403,1.04034
195.712,25.7235,-0.06482456,0.35181,1.0401
196.312,25.78097,-0.06482032,0.35274,1.03987
196.912,25.83855,-0.06614188,0.3557,1.03963
197.512,25.89613,-0.0671167,0.35348,1.03939
198.112,25.95362,-0.06606979,0.35233,1.03915
198.712,26.01108,-0.06785162,0.3549,1.03891
199.312,26.06852,-0.06843779,0.3532,1.03867
199.912,26.12595,-0.06985602,0.35349,1.03843
200.512,26.18358,-0.07081595,0.35178,1.03819
201.112,26.24105,-0.07150993,0.35401,1.03795
201.712,26.2986,-0.07283152,0.35222,1.0377
202.312,26.35615,-0.07411173,0.3531,1.03746
202.912,26.41345,-0.07551755,0.35366,1.03721
203.512,26.4711,-0.07677893,0.35395,1.03697
204.112,26.52866,-0.07701075,0.35266,1.03672
204.712,26.5861,-0.07810013,0.35338,1.03648
205.312,26.64293,-0.07900006,0.35233,1.03623
205.912,26.7002,-0.0794199,0.35387,1.03598
206.512,26.7575,-0.08075793,0.35376,1.03573
207.112,26.8154,-0.082057,0.35256,1.03548
207.712,26.87325,-0.08406746,0.35334,1.03523
208.312,26.9308,-0.08466896,0.35213,1.03498
208.912,26.9884,-0.08599183,0.35211,1.03473
209.512,27.0458,-0.08726458,0.35089,1.03447
210.112,27.10329,-0.08731131,0.35287,1.03422
210.712,27.1608,-0.08998044,0.35201,1.03397
211.312,27.21821,-0.09124847,0.35042,1.03371
211.912,27.27573,-0.09255773,0.34876,1.03346
212.512,27.33318,-0.0938645,0.34966,1.0332
213.112,27.39074,-0.09389024,0.34961,1.03294
213.712,27.4483,-0.09520101,0.3469,1.03268
214.312,27.5056,-0.09652382,0.34824,1.03243
214.912,27.5631,-0.09784918,0.34792,1.03217
215.512,27.6204,-0.09916086,0.34735,1.03191
216.112,27.6778,-0.10046,0.34826,1.03165
216.712,27.73528,-0.10096,0.34755,1.03138
217.312,27.7927,-0.10295,0.3464,1.03112
217.912,27.85005,-0.10574,0.3457,1.03086
218.512,27.90741,-0.10706,0.34575,1.0306
219.112,27.96472,-0.10836,0.34533,1.03033
219.712,28.0221,-0.1097,0.34506,1.03007
220.312,28.07965,-0.11102,0.34164,1.0298
220.912,28.1369,-0.11229,0.34388,1.02953
221.512,28.19422,-0.11369,0.34307,1.02927
222.112,28.2515,-0.11508,0.34455,1.029
222.712,28.3088,-0.11701,0.34468,1.02873
223.312,28.36615,-0.11912,0.34261,1.02846
223.912,28.4235,-0.12046,0.34118,1.02819
224.512,28.48098,-0.12228,0.34053,1.02792
225.112,28.53831,-0.12448,0.34086,1.02765
225.712,28.59556,-0.12581,0.34101,1.02738
226.312,28.6527,-0.1272,0.3397,1.0271
226.912,28.70983,-0.1293,0.33953,1.02683
227.512,28.7672,-0.13156,0.33857,1.02656
228.112,28.8245,-0.13285,0.33701,1.02628
228.712,28.882,-0.13466,0.33491,1.02601
229.312,28.93931,-0.13686,0.33531,1.02573
229.912,28.99667,-0.13811,0.33654,1.02545
230.512,29.054,-0.14031,0.33454,1.02518
231.112,29.11127,-0.14318,0.33231,1.0249
231.712,29.1687,-0.14521,0.33287,1.02462
232.312,29.22617,-0.1479,0.3303,1.02434
232.912,29.28357,-0.14962,0.33036,1.02406
233.512,29.34098,-0.15107,0.3304,1.02378
234.112,29.39842,-0.15319,0.32915,1.02349
234.712,29.4557,-0.15613,0.32838,1.02321
235.312,29.51323,-0.15827,0.32584,1.02293
235.912,29.5706,-0.15974,0.32616,1.02264
236.512,29.628,-0.16132,0.32383,1.02236
237.112,29.68518,-0.16369,0.32313,1.02207
237.712,29.7424,-0.16671,0.32413,1.02179
238.312,29.7999,-0.16935,0.32032,1.0215
238.912,29.8574,-0.17176,0.32019,1.02121
239.512,29.9149,-0.17364,0.32047,1.02093
240.112,29.97215,-0.17663,0.31658,1.02064
240.712,30.02937,-0.17975,0.31722,1.02035
241.312,30.0867,-0.18168,0.31679,1.02006
241.912,30.14394,-0.18273,0.31523,1.01977
242.512,30.20141,-0.1853,0.31301,1.01948
243.112,30.2589,-0.18965,0.31282,1.01918
243.712,30.3163,-0.19318,0.31012,1.01889
244.312,30.37367,-0.19528,0.31102,1.0186
244.912,30.4311,-0.19886,0.30891,1.0183
245.512,30.4886,-0.20106,0.30626,1.01801
246.112,30.54615,-0.20278,0.30814,1.01771
246.712,30.60363,-0.20443,0.30604,1.01742
247.312,30.66106,-0.20544,0.3035,1.01712
247.912,30.7185,-0.20944,0.30512,1.01682
248.512,30.7761,-0.21347,0.303,1.01652
249.112,30.83363,-0.21463,0.30074,1.01622
249.712,30.89095,-0.22027,0.29908,1.01592
250.312,30.94834,-0.22385,0.29789,1.01562
250.912,31.00573,-0.2257,0.29676,1.01532
251.512,31.0631,-0.22828,0.29426,1.01502
252.112,31.12045,-0.23166,0.29233,1.01472
252.712,31.17775,-0.23467,0.29304,1.01442
253.312,31.2352,-0.23837,0.29231,1.01411
253.912,31.2929,-0.24152,0.29185,1.01381
254.512,31.3504,-0.24609,0.291,1.0135
255.112,31.4079,-0.2488,0.28867,1.0132
255.712,31.46542,-0.25247,0.2894,1.01289
256.312,31.52293,-0.25648,0.28573,1.01258
256.912,31.58029,-0.25844,0.28388,1.01228
257.512,31.6376,-0.26345,0.28294,1.01197
258.112,31.69485,-0.26842,0.2823,1.01166
258.712,31.75207,-0.27194,0.28174,1.01135
259.312,31.8095,-0.27332,0.28168,1.01104
259.912,31.867,-0.2789,0.28168,1.01073
260.512,31.9246,-0.28463,0.28063,1.01042
261.112,31.98211,-0.28965,0.28126,1.0101
261.712,32.03972,-0.29274,0.28125,1.00979
262.312,32.09724,-0.29787,0.28074,1.00948
262.912,32.15473,-0.3022,0.28106,1.00916
263.512,32.21212,-0.30524,0.28045,1.00885
264.112,32.26933,-0.30964,0.27991,1.00853
264.712,32.32682,-0.31372,0.27842,1.00822
265.312,32.38435,-0.31923,0.27817,1.0079
265.912,32.44181,-0.32378,0.27685,1.00758
266.512,32.49938,-0.32958,0.27808,1.00726
267.112,32.5569,-0.33351,0.27472,1.00694
267.712,32.61445,-0.33894,0.27357,1.00662
268.312,32.6719,-0.34386,0.27362,1.0063
268.912,32.7292,-0.3487,0.27305,1.00598
269.512,32.78671,-0.35266,0.2715,1.00566
270.112,32.844,-0.35745,0.27122,1.00534
270.712,32.90146,-0.36347,0.27289,1.00502
271.312,32.95909,-0.36789,0.26909,1.00469
271.912,33.0167,-0.37417,0.27038,1.00437
272.512,33.07425,-0.37941,0.26812,1.00404
273.112,33.13177,-0.38763,0.26909,1.00372
273.712,33.1892,-0.39259,0.26511,1.00339
274.312,33.2468,-0.39726,0.26523,1.00307
274.912,33.3043,-0.40156,0.26303,1.00274
275.512,33.3618,-0.40735,0.26314,1.00241
276.112,33.4193,-0.41541,0.2602,1.00208
276.712,33.47671,-0.42244,0.26134,1.00175
277.312,33.53431,-0.42783,0.25504,1.00142
277.912,33.59219,-0.43432,0.2557,1.00109
278.512,33.64992,-0.44103,0.25341,1.00076
279.112,33.70754,-0.44849,0.25192,1.00043
279.712,33.76509,-0.45495,0.25265,1.0001
280.312,33.82262,-0.46278,0.2491,0.99976
280.912,33.88012,-0.4688,0.24735,0.99943
281.512,33.93756,-0.47767,0.24974,0.9991
282.112,33.99496,-0.48395,0.24631,0.99876
282.712,34.0522,-0.49266,0.24337,0.99843
283.312,34.1099,-0.50081,0.24462,0.99809
283.912,34.16744,-0.50966,0.24443,0.99775
284.512,34.2252,-0.51724,0.24203,0.99742
285.112,34.28281,-0.52498,0.24128,0.99708
285.712,34.34052,-0.53581,0.23999,0.99674
286.312,34.3982,-0.54405,0.24114,0.9964
286.912,34.45597,-0.55205,0.24125,0.99606
287.512,34.5138,-0.56073,0.23798,0.99572
288.112,34.57136,-0.5691,0.23731,0.99538
288.712,34.62875,-0.57828,0.23525,0.99504
289.312,34.68615,-0.5864,0.23581,0.99469
289.912,34.74373,-0.59769,0.23706,0.99435
290.512,34.80153,-0.60623,0.23723,0.99401
291.112,34.8593,-0.61718,0.2386,0.99366
291.712,34.91708,-0.62668,0.23978,0.99332
292.312,34.97465,-0.63484,0.23789,0.99297
292.912,35.0321,-0.64457,0.23856,0.99263
293.512,35.08975,-0.65761,0.24348,0.99228
294.112,35.1473,-0.66739,0.24401,0.99193
294.712,35.20467,-0.67707,0.24328,0.99158
295.312,35.2624,-0.68709,0.24418,0.99123
295.912,35.32005,-0.69827,0.2456,0.99089
296.512,35.3777,-0.70967,0.24866,0.99054
297.112,35.4356,-0.72056,0.2492,0.99018
297.712,35.4932,-0.73227,0.25379,0.98983
298.312,35.5509,-0.74261,0.25493,0.98948
298.912,35.60863,-0.75419,0.25909,0.98913
299.512,35.66646,-0.76702,0.25936,0.98878
300.112,35.72421,-0.7782,0.26056,0.98842
300.712,35.78192,-0.78983,0.26612,0.98807
301.312,35.83954,-0.80289,0.26518,0.98771
301.912,35.8972,-0.81517,0.27151,0.98736
302.512,35.95492,-0.82786,0.27112,0.987
303.112,36.01248,-0.83918,0.27077,0.98665
303.712,36.07031,-0.85121,0.27525,0.98629
304.312,36.12806,-0.86705,0.27853,0.98593
304.912,36.18566,-0.88079,0.27982,0.98557
305.512,36.24342,-0.89487,0.28242,0.98521
306.112,36.30104,-0.90922,0.28542,0.98485
306.712,36.35895,-0.92239,0.28737,0.98449
307.312,36.4166,-0.93715,0.28858,0.98413
307.912,36.4742,-0.9503,0.29191,0.98377
308.512,36.53181,-0.96739,0.29367,0.98341
309.112,36.58927,-0.98043,0.29502,0.98305
309.712,36.64705,-0.99605,0.29802,0.98268
310.312,36.70485,-1.01222,0.2996,0.98232
310.912,36.76273,-1.02817,0.30176,0.98196
311.512,36.81987,-1.0444,0.30283,0.98159
312.112,36.87742,-1.05814,0.30543,0.98123
312.712,36.93477,-1.07564,0.30766,0.98086
313.312,36.99273,-1.09138,0.30749,0.98049
313.912,37.051,-1.10869,0.31025,0.98013
314.512,37.1087,-1.12564,0.31186,0.97976
315.112,37.16703,-1.14131,0.31247,0.97939
315.712,37.2252,-1.15937,0.31299,0.97902
316.312,37.28308,-1.17588,0.31583,0.97865
316.912,37.3409,-1.19334,0.31018,0.97828
317.512,37.39878,-1.21047,0.31102,0.97791
318.112,37.45673,-1.23013,0.31006,0.97754
318.712,37.51488,-1.24638,0.31105,0.97717
319.312,37.57295,-1.26522,0.30724,0.97679
319.912,37.63084,-1.28435,0.30956,0.97642
320.512,37.68873,-1.3035,0.30904,0.97605
321.112,37.74658,-1.32174,0.30652,0.97567
321.712,37.80441,-1.34113,0.30471,0.9753
322.312,37.86246,-1.36081,0.30379,0.97492
322.912,37.92015,-1.37859,0.304,0.97455
323.512,37.97804,-1.39927,0.30103,0.97417
324.112,38.036,-1.4179,0.29832,0.97379
324.712,38.0939,-1.43744,0.29487,0.97342
325.312,38.15193,-1.45727,0.29317,0.97304
325.912,38.2099,-1.47667,0.29012,0.97266
326.512,38.26788,-1.4962,0.28456,0.97228
327.112,38.3258,-1.5165,0.28242,0.9719
327.712,38.38382,-1.53484,0.27969,0.97152
328.312,38.4418,-1.55691,0.27443,0.97114
328.912,38.49975,-1.5772,0.27182,0.97076
329.512,38.5578,-1.59435,0.26546,0.97037
330.112,38.61568,-1.61298,0.26028,0.96999
330.712,38.67367,-1.63184,0.25874,0.96961
331.312,38.7316,-1.65137,0.25357,0.96922
331.912,38.7896,-1.67237,0.2485,0.96884
332.512,38.84747,-1.69038,0.24051,0.96845
333.112,38.9054,-1.70929,0.23522,0.96807
333.712,38.96345,-1.72669,0.22878,0.96768
334.312,39.02134,-1.7448,0.22297,0.9673
334.912,39.07925,-1.7609,0.2177,0.96691
335.512,39.13701,-1.77966,0.2122,0.96652
336.112,39.19488,-1.79474,0.20476,0.96613
336.712,39.25277,-1.81057,0.20108,0.96574
337.312,39.31069,-1.8261,0.19596,0.96535
337.912,39.36874,-1.84325,0.1877,0.96496
338.512,39.42682,-1.85762,0.18328,0.96457
339.112,39.4848,-1.87243,0.17854,0.96418
339.712,39.54253,-1.88536,0.17187,0.96379
340.312,39.60048,-1.89734,0.17011,0.9634
340.912,39.65848,-1.91267,0.16357,0.96301
341.512,39.7164,-1.92452,0.16026,0.96261
342.112,39.77485,-1.93617,0.15558,0.96222
342.712,39.83292,-1.9474,0.15099,0.96182
343.312,39.891,-1.95672,0.14644,0.96143
343.912,39.94925,-1.96965,0.14226,0.96103
344.512,40.0073,-1.9812,0.1404,0.96064
345.112,40.06541,-1.98916,0.13437,0.96024
345.712,40.1235,-1.99887,0.13041,0.95984
346.312,40.18158,-2.00755,0.1287,0.95945
346.912,40.23958,-2.01618,0.12309,0.95905
347.512,40.29757,-2.02455,0.12151,0.95865
348.112,40.35564,-2.03233,0.11715,0.95825
348.712,40.4138,-2.0392,0.11427,0.95785
349.312,40.4718,-2.04601,0.11236,0.95745
349.912,40.53,-2.05212,0.11019,0.95705
350.512,40.58798,-2.05837,0.10683,0.95665
351.112,40.64605,-2.06496,0.10517,0.95625
351.712,40.70449,-2.07262,0.10119,0.95584
352.312,40.76282,-2.07804,0.09931494,0.95544
352.912,40.8213,-2.08419,0.09649231,0.95504
353.512,40.8797,-2.08776,0.09465181,0.95463
354.112,40.93808,-2.09293,0.09144364,0.95423
354.712,40.99625,-2.09884,0.08862476,0.95382
355.312,41.05434,-2.10356,0.08772761,0.95342
355.912,41.1126,-2.10884,0.08383181,0.95301
356.512,41.17078,-2.11186,0.08211862,0.9526
357.112,41.22915,-2.11639,0.0810318,0.9522
357.712,41.28734,-2.12089,0.08081384,0.95179
358.312,41.3453,-2.12627,0.07904328,0.95138
358.912,41.40356,-2.13053,0.07486715,0.95097
359.512,41.46182,-2.13422,0.07212376,0.95056
360.112,41.52032,-2.13756,0.07054323,0.95015
360.712,41.57868,-2.143,0.07104055,0.94974
361.312,41.63705,-2.14548,0.06895537,0.94933
361.912,41.69529,-2.14987,0.0685971,0.94892
362.512,41.75375,-2.15239,0.06520104,0.94851
363.112,41.81221,-2.15624,0.06090056,0.9481
363.712,41.8703,-2.16051,0.06073008,0.94768
364.312,41.9285,-2.16459,0.05899399,0.94727
364.912,41.9867,-2.16786,0.0548753,0.94686
365.512,42.04482,-2.17056,0.05588975,0.94644
366.112,42.10313,-2.17434,0.05284711,0.94603
366.712,42.16141,-2.17733,0.05111094,0.94561
367.312,42.2196,-2.18056,0.04920125,0.9452
367.912,42.27803,-2.18375,0.04922883,0.94478
368.512,42.33655,-2.18643,0.04479622,0.94436
369.112,42.39488,-2.18907,0.04442803,0.94394
369.712,42.45323,-2.19205,0.04401231,0.94353
370.312,42.5116,-2.1958,0.03894589,0.94311
370.912,42.56982,-2.19755,0.04079678,0.94269
371.512,42.62838,-2.20312,0.03593071,0.94227
372.112,42.68656,-2.20538,0.03402038,0.94185
372.712,42.74478,-2.20694,0.03402791,0.94143
373.312,42.80315,-2.21029,0.03178732,0.94101
373.912,42.86168,-2.21164,0.02939485,0.94059
374.512,42.91993,-2.21456,0.03061077,0.94017
375.112,42.9783,-2.21745,0.02838594,0.93974
375.712,43.0366,-2.22057,0.02650667,0.93932
376.312,43.0949,-2.22447,0.02548196,0.9389
376.912,43.15328,-2.22769,0.02029629,0.93847
377.512,43.2116,-2.22907,0.02166117,0.93805
378.112,43.26995,-2.23089,0.01648844,0.93762
378.712,43.32826,-2.23417,0.01654033,0.9372
379.312,43.38667,-2.23787,0.01497534,0.93677
379.912,43.445,-2.23959,0.01454306,0.93635
380.512,43.50339,-2.24241,0.01245376,0.93592
381.112,43.56177,-2.24408,0.008650299,0.93549
381.712,43.6201,-2.24736,0.008686121,0.93506
382.312,43.67859,-2.25011,0.008832929,0.93463
382.912,43.73679,-2.25242,0.00629437,0.93421
383.512,43.7954,-2.25542,0.005303309,0.93378
384.112,43.85378,-2.25761,0.003950632,0.93335
384.712,43.91251,-2.25908,0.00420408,0.93292
385.312,43.9709,-2.26215,0.000102237,0.93249
385.912,44.02942,-2.26524,-0.0008739609,0.93205
386.512,44.08793,-2.26904,-0.001867105,0.93162
387.112,44.14643,-2.27038,-0.0003236198,0.93119
387.712,44.2048,-2.2732,-0.0043593,0.93076
388.312,44.2633,-2.2759,-0.001342135,0.93033
388.912,44.32179,-2.27954,-0.005138354,0.92989
389.512,44.38027,-2.2828,-0.00436267,0.92946
390.112,44.43867,-2.28443,-0.00480578,0.92902
390.712,44.4972,-2.2859,-0.005468522,0.92859
391.312,44.55587,-2.28712,-0.005727285,0.92815
391.912,44.61449,-2.28993,-0.005722499,0.92772
392.512,44.673,-2.29218,-0.00646533,0.92728
393.112,44.73153,-2.29583,-0.006180559,0.92684
393.712,44.79018,-2.29869,-0.00770365,0.92641
394.312,44.84868,-2.30155,-0.007079499,0.92597
394.912,44.9073,-2.30333,-0.004860081,0.92553
395.512,44.96578,-2.30465,-0.005054729,0.92509
396.112,45.0244,-2.30762,-0.007403004,0.92465
396.712,45.0829,-2.30903,-0.006548748,0.92421
397.312,45.14145,-2.31212,-0.008483799,0.92377
397.912,45.19981,-2.31471,-0.00671108,0.92333
398.512,45.2584,-2.31666,-0.006623391,0.92289
399.112,45.317,-2.31882,-0.007376174,0.92245
399.712,45.37567,-2.32132,-0.003700207,0.92201
400.312,45.43434,-2.32266,-0.00534364,0.92157
400.912,45.49305,-2.32535,-0.004803797,0.92112
401.512,45.55164,-2.32799,-0.00356015,0.92068
402.112,45.6101,-2.32951,-0.005028186,0.92024
402.712,45.66863,-2.33245,-0.004719101,0.91979
403.312,45.72717,-2.33379,-0.0024828,0.91935
403.912,45.78591,-2.33656,-0.0008988237,0.9189
404.512,45.8446,-2.33898,-0.001637411,0.91846
405.112,45.90318,-2.34044,0.00218008,0.91801
405.712,45.96183,-2.34242,0.0004737435,0.91756
406.312,46.02039,-2.34612,-0.0005799813,0.91712
406.912,46.07905,-2.34907,-3.04164e-05,0.91667
407.512,46.13773,-2.35081,0.000104919,0.91622
408.112,46.1965,-2.35211,0.004637617,0.91577
408.712,46.25533,-2.35327,0.004683672,0.91532
409.312,46.3141,-2.35625,0.005531514,0.91488
409.912,46.3728,-2.35918,0.00807281,0.91443
410.512,46.43148,-2.36155,0.009655222,0.91398
411.112,46.49029,-2.36376,0.009550049,0.91353
411.712,46.5491,-2.36626,0.01080148,0.91308
412.312,46.6079,-2.36758,0.01174325,0.91262
412.912,46.66648,-2.37318,0.01533496,0.91217
413.512,46.7251,-2.37327,0.0133702,0.91172
414.112,46.78382,-2.3751,0.01313273,0.91127
414.712,46.8425,-2.37676,0.01323194,0.91081
415.312,46.90146,-2.37798,0.01588635,0.91036
415.912,46.96013,-2.38063,0.01951753,0.90991
416.512,47.01882,-2.38425,0.01963234,0.90945
417.112,47.07758,-2.38606,0.02205411,0.909
417.712,47.13633,-2.38827,0.0236866,0.90854
418.312,47.19534,-2.39042,0.02272253,0.90809
418.912,47.25395,-2.3923,0.02419752,0.90763
419.512,47.31293,-2.39513,0.02984488,0.90718
420.112,47.3715,-2.39776,0.0301919,0.90672
420.712,47.43045,-2.39964,0.03235796,0.90626
421.312,47.48904,-2.4019,0.03285584,0.9058
421.912,47.54775,-2.40198,0.03577435,0.90535
422.512,47.60658,-2.40447,0.03475307,0.90489
423.112,47.66532,-2.40719,0.03596239,0.90443
423.712,47.7243,-2.40912,0.03686464,0.90397
424.312,47.783,-2.41121,0.03773154,0.90351
424.912,47.84186,-2.4145,0.03903892,0.90305
425.512,47.90077,-2.416,0.04020591,0.90259
426.112,47.95966,-2.41738,0.04003264,0.90213
426.712,48.01862,-2.41956,0.0408406,0.90167
427.312,48.07743,-2.42294,0.04189233,0.9012
427.912,48.1363,-2.42308,0.0426634,0.90074
428.512,48.1952,-2.42544,0.04421103,0.90028
429.112,48.25416,-2.42832,0.04645976,0.89982
429.712,48.31333,-2.43016,0.04856538,0.89935
430.312,48.37219,-2.43108,0.04659928,0.89889
430.912,48.4313,-2.43332,0.05013899,0.89842
431.512,48.4904,-2.4346,0.0488992,0.89796
432.112,48.54956,-2.43852,0.0513415,0.89749
432.712,48.60848,-2.43987,0.04915309,0.89703
433.312,48.66735,-2.44147,0.05254239,0.89656
433.912,48.72605,-2.44283,0.05366033,0.8961
434.512,48.7849,-2.44585,0.05185502,0.89563
435.112,48.84383,-2.44829,0.05335244,0.89516
435.712,48.9028,-2.44832,0.05470803,0.89469
436.312,48.9619,-2.44977,0.05541489,0.89423
436.912,49.02078,-2.4506,0.05705663,0.89376
437.512,49.07987,-2.45476,0.05903531,0.89329
438.112,49.13888,-2.45786,0.06071532,0.89282
438.712,49.198,-2.46008,0.06018033,0.89235
439.312,49.2569,-2.46147,0.06252845,0.89188
439.912,49.31596,-2.46315,0.06324852,0.89141
440.512,49.375,-2.46403,0.06422397,0.89094
441.112,49.43415,-2.46579,0.06381138,0.89047
441.712,49.49315,-2.46771,0.06315293,0.89
442.312,49.5522,-2.46846,0.06438977,0.88953
442.912,49.61138,-2.471,0.06596662,0.88905
443.512,49.67068,-2.47232,0.06756947,0.88858
444.112,49.72996,-2.47364,0.06632973,0.88811
444.712,49.78909,-2.47597,0.06612811,0.88764
445.312,49.84827,-2.47773,0.06685375,0.88716
445.912,49.9073,-2.47901,0.06696352,0.88669
446.512,49.96626,-2.48039,0.0676815,0.88621
447.112,50.02523,-2.48171,0.07033472,0.88574
447.712,50.08424,-2.48312,0.068768,0.88526
448.312,50.14345,-2.4858,0.06650839,0.88479
448.912,50.2027,-2.48704,0.07033661,0.88431
449.512,50.26185,-2.48925,0.06913815,0.88383
450.112,50.321,-2.49019,0.06921639,0.88336
450.712,50.38019,-2.4912,0.0693505,0.88288
451.312,50.43955,-2.49261,0.06922251,0.8824
451.912,50.49881,-2.49394,0.06804424,0.88193
452.512,50.55809,-2.49528,0.07024531,0.88145
453.112,50.61715,-2.49791,0.06974585,0.88097
453.712,50.6762,-2.4992,0.07003911,0.88049
454.312,50.73529,-2.50056,0.06882612,0.88001
454.912,50.79438,-2.50054,0.07110313,0.87953
455.512,50.85367,-2.50223,0.07181636,0.87905
456.112,50.9129,-2.5036,0.07197242,0.87857
456.712,50.9722,-2.50608,0.07415881,0.87809
457.312,51.03117,-2.50741,0.06989395,0.87761
457.912,51.09039,-2.51005,0.07056959,0.87713
458.512,51.14952,-2.51137,0.07209164,0.87664
459.112,51.2089,-2.51269,0.07124479,0.87616
459.712,51.26805,-2.51396,0.07177161,0.87568
460.312,51.32714,-2.51531,0.0713245,0.8752
460.912,51.38625,-2.51659,0.07198973,0.87471
461.512,51.44536,-2.51813,0.07407053,0.87423
462.112,51.50445,-2.51955,0.07460189,0.87375
462.712,51.5636,-2.52059,0.07614688,0.87326
463.312,51.62279,-2.52159,0.07375337,0.87278
463.912,51.68199,-2.52492,0.07426302,0.87229
464.512,51.7412,-2.52618,0.07589188,0.87181
465.112,51.8003,-2.52761,0.07714683,0.87132
465.712,51.8594,-2.52893,0.07613707,0.87083
466.312,51.9185,-2.53026,0.07571198,0.87035
466.912,51.97761,-2.53231,0.07633144,0.86986
467.512,52.03672,-2.53404,0.07749331,0.86937
468.112,52.09598,-2.53419,0.07530167,0.86889
468.712,52.15525,-2.53542,0.07628156,0.8684
469.312,52.2145,-2.53828,0.07973149,0.86791
469.912,52.27402,-2.53826,0.07689574,0.86742
470.512,52.3333,-2.53889,0.07587033,0.86693
471.112,52.39261,-2.54006,0.0765185,0.86644
471.712,52.4519,-2.54154,0.07318168,0.86595
472.312,52.5111,-2.54285,0.07340101,0.86546
472.912,52.57031,-2.54416,0.07437634,0.86497
473.512,52.62965,-2.54548,0.07505636,0.86448
474.112,52.68889,-2.54549,0.07455887,0.86399
474.712,52.7482,-2.54672,0.07402156,0.8635
475.312,52.8078,-2.54859,0.07456518,0.86301
475.912,52.8671,-2.55203,0.07356736,0.86252
476.512,52.92649,-2.55218,0.07483428,0.86202
477.112,52.9859,-2.55433,0.07426706,0.86153
477.712,53.04525,-2.5547,0.07524703,0.86104
478.312,53.10467,-2.55362,0.07328816,0.86055
478.912,53.16409,-2.5571,0.07395068,0.86005
479.512,53.2235,-2.55801,0.07504832,0.85956
480.112,53.2828,-2.55736,0.07387475,0.85906
480.712,53.3421,-2.55866,0.07577456,0.85857
481.312,53.40164,-2.56011,0.07174707,0.85807
481.912,53.46116,-2.56224,0.07154001,0.85758
482.512,53.5207,-2.56357,0.07356382,0.85708
483.112,53.5802,-2.56489,0.07395778,0.85659
483.712,53.63966,-2.56621,0.07480755,0.85609
484.312,53.6994,-2.56753,0.07431777,0.85559
484.912,53.75857,-2.56884,0.075551,0.8551
485.512,53.81801,-2.57015,0.07541861,0.8546
486.112,53.87749,-2.57015,0.07444475,0.8541
486.712,53.9372,-2.57148,0.07458032,0.85361
487.312,53.997,-2.57285,0.07577172,0.85311
487.912,54.0565,-2.57274,0.07688998,0.85261
488.512,54.1159,-2.57533,0.07577159,0.85211
489.112,54.1754,-2.57543,0.07422511,0.85161
489.712,54.23499,-2.57718,0.07415092,0.85111
490.312,54.2947,-2.57855,0.07676763,0.85061
490.912,54.35425,-2.57983,0.07589354,0.85011
491.512,54.41381,-2.58211,0.07662939,0.84961
492.112,54.47335,-2.58354,0.07934893,0.84911
492.712,54.5331,-2.58509,0.07671139,0.84861
493.312,54.59262,-2.5851,0.07742309,0.84811
493.912,54.6522,-2.5864,0.07413992,0.84761
494.512,54.7118,-2.5864,0.07621789,0.84711
495.112,54.77123,-2.58771,0.07598879,0.8466
495.712,54.8307,-2.59035,0.07371834,0.8461
496.312,54.8902,-2.58892,0.07688368,0.8456
496.912,54.9496,-2.59144,0.07659023,0.8451
497.512,55.0091,-2.59288,0.07788237,0.84459
498.112,55.06841,-2.59351,0.0783539,0.84409
498.712,55.128,-2.59484,0.07802933,0.84359
499.312,55.18745,-2.59596,0.07917132,0.84308
499.912,55.24697,-2.59542,0.07742321,0.84258
500.512,55.3066,-2.59685,0.08098405,0.84207
501.112,55.36615,-2.59814,0.0790013,0.84157
501.712,55.42589,-2.59925,0.07799964,0.84106
502.312,55.48551,-2.60085,0.08061529,0.84056
502.912,55.54504,-2.60077,0.08180664,0.84005
503.512,55.60459,-2.60118,0.08241941,0.83954
504.112,55.66398,-2.60307,0.08432633,0.83904
504.712,55.7235,-2.6034,0.08282955,0.83853
505.312,55.783,-2.60458,0.08440495,0.83802
505.912,55.8422,-2.60602,0.08433293,0.83752
506.512,55.90161,-2.60566,0.08242451,0.83701
507.112,55.9612,-2.60699,0.08357969,0.8365
507.712,56.02072,-2.60671,0.08323102,0.83599
508.312,56.0807,-2.608,0.08494928,0.83548
508.912,56.1403,-2.60932,0.08557853,0.83498
509.512,56.19992,-2.61064,0.08817729,0.83447
510.112,56.25936,-2.61195,0.08836309,0.83396
510.712,56.3189,-2.61196,0.08751949,0.83345
511.312,56.37859,-2.61317,0.09142648,0.83294
511.912,56.43826,-2.61458,0.09124583,0.83243
512.512,56.49799,-2.61601,0.09091153,0.83192
513.112,56.55769,-2.61602,0.09104483,0.83141
513.712,56.6173,-2.61698,0.09315282,0.8309
514.312,56.67695,-2.61741,0.09444339,0.83038
514.912,56.73649,-2.61832,0.09587513,0.82987
515.512,56.79608,-2.6209,0.09919705,0.82936
516.112,56.85556,-2.62147,0.0971006,0.82885
516.712,56.91514,-2.62225,0.09697196,0.82834
517.312,56.9748,-2.62217,0.09774268,0.82782
517.912,57.0344,-2.62357,0.09926622,0.82731
518.512,57.09424,-2.62531,0.10109,0.8268
519.112,57.154,-2.62715,0.10133,0.82629
519.712,57.2137,-2.62731,0.1036,0.82577
520.312,57.2733,-2.62864,0.10413,0.82526
520.912,57.33296,-2.63004,0.10773,0.82474
521.512,57.39264,-2.62996,0.10544,0.82423
522.112,57.4525,-2.63127,0.11029,0.82371
522.712,57.5123,-2.63118,0.11001,0.8232
523.312,57.57219,-2.63258,0.10998,0.82268
523.912,57.63199,-2.63339,0.10972,0.82217
524.512,57.69181,-2.63391,0.11108,0.82165
525.112,57.75169,-2.6352,0.11235,0.82114
525.712,57.81148,-2.63638,0.11167,0.82062
526.312,57.87115,-2.63718,0.11271,0.8201
526.912,57.9309,-2.6385,0.11143,0.81959
527.512,57.99083,-2.6385,0.11271,0.81907
528.112,58.0506,-2.6385,0.11262,0.81855
528.712,58.1103,-2.63963,0.1145,0.81804
529.312,58.1699,-2.64322,0.11339,0.81752
529.912,58.2296,-2.64454,0.11439,0.817
530.512,58.28946,-2.64453,0.11821,0.81648
531.112,58.34925,-2.64453,0.11582,0.81596
531.712,58.40875,-2.64541,0.11602,0.81545
532.312,58.4682,-2.64636,0.11606,0.81493
532.912,58.5276,-2.64586,0.11929,0.81441
533.512,58.58704,-2.64715,0.11821,0.81389
534.112,58.64657,-2.64847,0.12058,0.81337
534.712,58.70621,-2.65093,0.1218,0.81285
535.312,58.76583,-2.65111,0.12176,0.81233
535.912,58.8256,-2.65109,0.12299,0.81181
536.512,58.8854,-2.65144,0.12381,0.81129
537.112,58.945,-2.65281,0.12051,0.81077
537.712,59.00459,-2.65276,0.12266,0.81025
538.312,59.0641,-2.65406,0.12296,0.80973
538.912,59.12375,-2.65425,0.12293,0.8092
539.512,59.1834,-2.65532,0.12541,0.80868
540.112,59.2429,-2.65673,0.12503,0.80816
540.712,59.3025,-2.65802,0.12515,0.80764
541.312,59.3622,-2.65802,0.1203,0.80712
541.912,59.4221,-2.65811,0.1257,0.80659
542.512,59.4819,-2.6593,0.12534,0.80607
543.112,59.5416,-2.66065,0.12768,0.80555
543.712,59.6012,-2.66193,0.12654,0.80502
544.312,59.66069,-2.66299,0.12833,0.8045
544.912,59.7203,-2.66296,0.1261,0.80398
545.512,59.77997,-2.66394,0.12766,0.80345
546.112,59.8396,-2.66427,0.12678,0.80293
546.712,59.8993,-2.66559,0.12682,0.8024
547.312,59.9589,-2.66462,0.12799,0.80188
547.912,60.01869,-2.66592,0.13038,0.80135
548.512,60.0787,-2.66724,0.1286,0.80083
549.112,60.13893,-2.66723,0.12891,0.8003
549.712,60.19885,-2.66913,0.12928,0.79978
550.312,60.25886,-2.66954,0.12898,0.79925
550.912,60.31876,-2.6701,0.12989,0.79873
551.512,60.3785,-2.67081,0.13106,0.7982
552.112,60.43857,-2.67206,0.13167,0.79767
552.712,60.49831,-2.67283,0.13236,0.79715
553.312,60.55809,-2.674,0.13341,0.79662
553.912,60.61799,-2.67414,0.13628,0.79609
554.512,60.67756,-2.67513,0.13498,0.79557
555.112,60.73744,-2.67546,0.13258,0.79504
555.712,60.7973,-2.6759,0.13344,0.79451
556.312,60.85723,-2.67656,0.13366,0.79398
556.912,60.91718,-2.67626,0.13312,0.79346
557.512,60.97696,-2.67743,0.13371,0.79293
558.112,61.0368,-2.67742,0.13406,0.7924
558.712,61.0967,-2.67876,0.13408,0.79187
559.312,61.1565,-2.68139,0.13618,0.79134
559.912,61.2164,-2.68181,0.13286,0.79081
560.512,61.27632,-2.68171,0.13515,0.79028
561.112,61.3363,-2.68271,0.13425,0.78976
561.712,61.3964,-2.68306,0.13367,0.78923
562.312,61.4562,-2.68448,0.1324,0.7887
562.912,61.5163,-2.68533,0.13393,0.78817
563.512,61.5762,-2.68663,0.13167,0.78764
564.112,61.63606,-2.68796,0.13102,0.78711
564.712,61.6959,-2.68684,0.12869,0.78657
565.312,61.75583,-2.68606,0.13019,0.78604
565.912,61.8158,-2.68698,0.12884,0.78551
566.512,61.876,-2.68844,0.13068,0.78498
567.112,61.936,-2.68961,0.1292,0.78445
567.712,61.99615,-2.69096,0.1257,0.78392
568.312,62.05625,-2.69128,0.12569,0.78339
568.912,62.11626,-2.69225,0.12729,0.78286
569.512,62.17621,-2.69093,0.12726,0.78232
570.112,62.23581,-2.69125,0.12392,0.78179
570.712,62.29571,-2.69225,0.12538,0.78126
571.312,62.35584,-2.69324,0.12146,0.78073
571.912,62.4159,-2.69355,0.11952,0.78019
572.512,62.47577,-2.69488,0.11803,0.77966
573.112,62.53558,-2.69487,0.11923,0.77913
573.712,62.5955,-2.6962,0.11493,0.77859
574.312,62.6554,-2.69621,0.11528,0.77806
574.912,62.7154,-2.69751,0.11062,0.77753
575.512,62.77534,-2.69888,0.11344,0.77699
576.112,62.8352,-2.69885,0.10726,0.77646
576.712,62.895,-2.70014,0.10825,0.77593
577.312,62.95463,-2.70015,0.10703,0.77539
577.912,63.0145,-2.70146,0.10424,0.77486
578.512,63.07441,-2.70277,0.10744,0.77432
579.112,63.13455,-2.70278,0.10661,0.77379
579.712,63.1946,-2.70278,0.10472,0.77325
580.312,63.2547,-2.70408,0.10234,0.77272
580.912,63.3148,-2.70409,0.10212,0.77218
581.512,63.37484,-2.70409,0.10073,0.77165
582.112,63.43481,-2.70453,0.10066,0.77111
582.712,63.49476,-2.70541,0.10151,0.77058
583.312,63.55477,-2.70537,0.09725146,0.77004
583.912,63.61479,-2.70574,0.09961267,0.7695
584.512,63.67468,-2.7071,0.10143,0.76897
585.112,63.73469,-2.70808,0.09703655,0.76843
585.712,63.79465,-2.70837,0.10029,0.76789
586.312,63.85474,-2.7097,0.10121,0.76736
586.912,63.915,-2.70969,0.09865853,0.76682
587.512,63.9752,-2.71105,0.09739913,0.76628
588.112,64.03534,-2.711,0.09875459,0.76575
588.712,64.0954,-2.71096,0.09966814,0.76521
589.312,64.1555,-2.711,0.09629151,0.76467
589.912,64.2158,-2.711,0.09835571,0.76413
590.512,64.27606,-2.71133,0.0981917,0.7636
591.112,64.3364,-2.71465,0.09949763,0.76306
591.712,64.39654,-2.71365,0.10066,0.76252
592.312,64.45675,-2.71227,0.10086,0.76198
592.912,64.51709,-2.71363,0.10159,0.76144
593.512,64.57744,-2.71626,0.10226,0.7609
594.112,64.63768,-2.71627,0.10283,0.76037
594.712,64.69762,-2.71703,0.1026,0.75983
595.312,64.75786,-2.71759,0.10296,0.75929
595.912,64.8181,-2.71695,0.1036,0.75875
596.512,64.87875,-2.7176,0.10559,0.75821
597.112,64.93907,-2.72024,0.10627,0.75767
597.712,64.99968,-2.72021,0.1062,0.75713
598.312,65.06015,-2.72086,0.10668,0.75659
598.912,65.12048,-2.72021,0.10736,0.75605
599.512,65.18078,-2.72021,0.10932,0.75551
600.112,65.24091,-2.72095,0.10845,0.75497
600.712,65.30112,-2.72081,0.1091,0.75443
601.312,65.36146,-2.72186,0.11249,0.75389
601.912,65.4217,-2.72184,0.11014,0.75335
602.512,65.4817,-2.72325,0.11729,0.75281
603.112,65.54176,-2.72449,0.11553,0.75227
603.712,65.60185,-2.72581,0.11422,0.75173
604.312,65.66206,-2.72581,0.11725,0.75119
604.912,65.72238,-2.72623,0.11859,0.75064
605.512,65.78256,-2.72613,0.11563,0.7501
606.112,65.84277,-2.72613,0.11817,0.74956
606.712,65.90296,-2.72714,0.11973,0.74902
607.312,65.96333,-2.72712,0.11841,0.74848
607.912,66.0236,-2.72813,0.11854,0.74794
608.512,66.0839,-2.72844,0.11985,0.74739
609.112,66.14401,-2.72985,0.12001,0.74685
609.712,66.20401,-2.72976,0.1195,0.74631
610.312,66.26402,-2.73107,0.12292,0.74577
610.912,66.32414,-2.73107,0.12096,0.74523
611.512,66.38432,-2.73208,0.12126,0.74468
612.112,66.44453,-2.73239,0.12238,0.74414
612.712,66.5048,-2.73371,0.12268,0.7436
613.312,66.56518,-2.73404,0.12347,0.74306
613.912,66.6255,-2.73488,0.12227,0.74251
614.512,66.6858,-2.73568,0.12567,0.74197
615.112,66.7458,-2.73675,0.12451,0.74143
615.712,66.80611,-2.73601,0.12645,0.74088
616.312,66.8663,-2.73622,0.12787,0.74034
616.912,66.92667,-2.73629,0.1262,0.7398
617.512,66.98711,-2.73665,0.12354,0.73925
618.112,67.04732,-2.73798,0.12626,0.73871
618.712,67.10771,-2.73934,0.12797,0.73816
619.312,67.16809,-2.73928,0.12466,0.73762
619.912,67.22829,-2.73831,0.12632,0.73708
620.512,67.28874,-2.73918,0.12718,0.73653
621.112,67.34906,-2.73864,0.12556,0.73599
621.712,67.40939,-2.73996,0.12967,0.73544
622.312,67.47005,-2.73996,0.12904,0.7349
622.912,67.5305,-2.74064,0.13141,0.73435
623.512,67.59097,-2.74226,0.13232,0.73381
624.112,67.65141,-2.74226,0.13013,0.73326
624.712,67.712,-2.74356,0.12979,0.73272
625.312,67.77237,-2.74358,0.13162,0.73217
625.912,67.83287,-2.74358,0.12988,0.73163
626.512,67.89331,-2.74358,0.12822,0.73108
627.112,67.9537,-2.74219,0.12973,0.73054
627.712,68.01425,-2.74358,0.13087,0.72999
628.312,68.07471,-2.74358,0.13255,0.72945
628.912,68.13531,-2.74358,0.13231,0.7289
629.512,68.19569,-2.74412,0.13062,0.72836
630.112,68.2561,-2.7449,0.13153,0.72781
630.712,68.31641,-2.7449,0.12932,0.72726
631.312,68.3765,-2.7449,0.13257,0.72672
631.912,68.43692,-2.74627,0.13181,0.72617
632.512,68.4971,-2.74621,0.13227,0.72563
633.112,68.55754,-2.74696,0.13642,0.72508
633.712,68.61787,-2.74637,0.13651,0.72453
634.312,68.67818,-2.74621,0.13382,0.72399
634.912,68.73855,-2.74615,0.13217,0.72344
635.512,68.7988,-2.74753,0.13426,0.72289
636.112,68.85922,-2.74753,0.13267,0.72235
636.712,68.91938,-2.74753,0.13419,0.7218
637.312,68.97949,-2.74884,0.13531,0.72125
637.912,69.0397,-2.74885,0.13825,0.72071
638.512,69.1001,-2.74752,0.13732,0.72016
639.112,69.16051,-2.75016,0.1383,0.71961
639.712,69.22086,-2.75016,0.13898,0.71907
640.312,69.28105,-2.75082,0.13904,0.71852
640.912,69.34136,-2.75082,0.13772,0.71797
641.512,69.4018,-2.75139,0.13796,0.71742
642.112,69.4623,-2.75015,0.13908,0.71688
642.712,69.52279,-2.75133,0.13862,0.71633
643.312,69.58319,-2.75178,0.1381,0.71578
643.912,69.6437,-2.75213,0.13857,0.71523
644.512,69.7039,-2.75225,0.1345,0.71469
645.112,69.7641,-2.75378,0.13481,0.71414
645.712,69.82438,-2.75378,0.13775,0.71359
646.312,69.88463,-2.75387,0.13436,0.71304
646.912,69.9451,-2.75247,0.13255,0.7125
647.512,70.00559,-2.75514,0.13439,0.71195
648.112,70.0661,-2.75509,0.13304,0.7114
648.712,70.12648,-2.75499,0.13574,0.71085
649.312,70.18688,-2.75632,0.13629,0.7103
649.912,70.24719,-2.75641,0.13562,0.70975
650.512,70.3074,-2.75772,0.1367,0.70921
651.112,70.36774,-2.75773,0.13497,0.70866
651.712,70.42806,-2.75773,0.13501,0.70811
652.312,70.48859,-2.75904,0.1316,0.70756
652.912,70.54919,-2.75934,0.13424,0.70701
653.512,70.60986,-2.76036,0.1318,0.70646
654.112,70.67036,-2.76036,0.13187,0.70591
654.712,70.73074,-2.76103,0.13078,0.70537
655.312,70.7913,-2.7614,0.13335,0.70482
655.912,70.85178,-2.76167,0.13015,0.70427
656.512,70.9123,-2.76167,0.12872,0.70372
657.112,70.97283,-2.76299,0.12736,0.70317
657.712,71.0335,-2.76431,0.12953,0.70262
658.312,71.09416,-2.76431,0.13259,0.70207
658.912,71.1548,-2.76431,0.12765,0.70152
659.512,71.2153,-2.76431,0.12843,0.70097
660.112,71.276,-2.76331,0.12521,0.70042
660.712,71.33658,-2.76327,0.12721,0.69988
661.312,71.3972,-2.76463,0.12525,0.69933
661.912,71.45779,-2.76595,0.1235,0.69878
662.512,71.51839,-2.76595,0.12376,0.69823
663.112,71.57891,-2.76595,0.12193,0.69768
663.712,71.63938,-2.76628,0.12354,0.69713
664.312,71.69989,-2.76661,0.12256,0.69658
664.912,71.76053,-2.76596,0.12211,0.69603
665.512,71.82118,-2.76671,0.12148,0.69548
666.112,71.88186,-2.76727,0.12338,0.69493
666.712,71.9422,-2.76727,0.11996,0.69438
667.312,72.00261,-2.76727,0.11574,0.69383
667.912,72.06318,-2.76819,0.11479,0.69328
668.512,72.1238,-2.76826,0.11424,0.69273
669.112,72.1845,-2.76827,0.11593,0.69218
669.712,72.24503,-2.76957,0.11423,0.69163
670.312,72.30558,-2.76823,0.11399,0.69108
670.912,72.36617,-2.76815,0.11489,0.69053
671.512,72.4268,-2.76957,0.11331,0.68998
672.112,72.48736,-2.76957,0.11136,0.68943
672.712,72.5478,-2.76957,0.11006,0.68888
673.312,72.6084,-2.76957,0.11025,0.68833
673.912,72.66892,-2.76957,0.11138,0.68778
674.512,72.72964,-2.77089,0.10696,0.68723
675.112,72.7902,-2.77089,0.1046,0.68668
675.712,72.85073,-2.77089,0.1065,0.68613
676.312,72.91118,-2.77234,0.10551,0.68558
676.912,72.97161,-2.77191,0.10236,0.68503
677.512,73.03209,-2.77161,0.1059,0.68448
678.112,73.09244,-2.77297,0.10552,0.68393
678.712,73.15307,-2.77297,0.10362,0.68338
679.312,73.2135,-2.77297,0.10569,0.68283
679.912,73.274,-2.77297,0.10278,0.68228
680.512,73.3345,-2.77297,0.10249,0.68173
681.112,73.39517,-2.77434,0.10194,0.68118
681.712,73.45577,-2.7743,0.102,0.68063
682.312,73.51655,-2.7756,0.0989047,0.68008
682.912,73.57719,-2.77528,0.10279,0.67953
683.512,73.63785,-2.77498,0.09735859,0.67897
684.112,73.69874,-2.77627,0.09791111,0.67842
684.712,73.7594,-2.77627,0.09826647,0.67787
685.312,73.8203,-2.77528,0.09572125,0.67732
685.912,73.88115,-2.77528,0.09382163,0.67677
686.512,73.94196,-2.77526,0.09098224,0.67622
687.112,74.0029,-2.77791,0.09082543,0.67567
687.712,74.06376,-2.77658,0.09179433,0.67512
688.312,74.12471,-2.7765,0.09102677,0.67457
688.912,74.18536,-2.77791,0.08883142,0.67402
689.512,74.24598,-2.77791,0.08425287,0.67347
690.112,74.3066,-2.77921,0.0848953,0.67292
690.712,74.3673,-2.77923,0.08881575,0.67237
691.312,74.4281,-2.77923,0.08370548,0.67182
691.912,74.48892,-2.77987,0.08118064,0.67127
692.512,74.54964,-2.77989,0.08319249,0.67072
693.112,74.6103,-2.78057,0.08047252,0.67017
693.712,74.67092,-2.78046,0.07974774,0.66961
694.312,74.73156,-2.77987,0.07840142,0.66906
694.912,74.79236,-2.78067,0.07560928,0.66851
695.512,74.8532,-2.78253,0.07828613,0.66796
696.112,74.91395,-2.78252,0.07696656,0.66741
696.712,74.97475,-2.78127,0.07562699,0.66686
697.312,75.03551,-2.7812,0.07435827,0.66631
697.912,75.0963,-2.7812,0.07385847,0.66576
698.512,75.15711,-2.7812,0.07100811,0.66521
699.112,75.21777,-2.78318,0.07448889,0.66466
699.712,75.2787,-2.78351,0.07119763,0.66411
700.312,75.33958,-2.78351,0.06840102,0.66356
700.912,75.40053,-2.78219,0.06739393,0.66301
701.512,75.46131,-2.78321,0.06864089,0.66246
702.112,75.52185,-2.7835,0.06647537,0.66191
702.712,75.5829,-2.7835,0.06548134,0.66136
703.312,75.64395,-2.7835,0.0636692,0.6608
703.912,75.705,-2.78377,0.0647154,0.66025
704.512,75.76567,-2.78481,0.06286879,0.6597
705.112,75.82632,-2.78582,0.06414333,0.65915
705.712,75.88704,-2.78581,0.0637791,0.6586
706.312,75.94782,-2.78498,0.06323612,0.65805
706.912,76.00835,-2.7858,0.05924036,0.6575
707.512,76.06904,-2.7858,0.06085475,0.65695
708.112,76.12965,-2.7858,0.05635033,0.6564
708.712,76.19019,-2.78482,0.0562104,0.65585
709.312,76.25071,-2.78484,0.05381745,0.6553
709.912,76.3112,-2.78614,0.05321625,0.65475
710.512,76.37179,-2.78621,0.05684411,0.6542
711.112,76.43256,-2.78746,0.05152571,0.65365
711.712,76.49337,-2.78713,0.05054844,0.6531
712.312,76.5541,-2.78713,0.05030201,0.65255
712.912,76.61469,-2.78713,0.04815249,0.652
713.512,76.67524,-2.78712,0.04577588,0.65145
714.112,76.73598,-2.7868,0.04342207,0.6509
714.712,76.79697,-2.7881,0.04417626,0.65035
715.312,76.85769,-2.78811,0.04351648,0.6498
715.912,76.91856,-2.7868,0.04086353,0.64925
716.512,76.97944,-2.78679,0.04051965,0.6487
717.112,77.0403,-2.78712,0.03963026,0.64815
717.712,77.10131,-2.78711,0.03960594,0.6476
718.312,77.16206,-2.78948,0.03446607,0.64705
718.912,77.22216,-2.78943,0.03199466,0.6465
719.512,77.28283,-2.78826,0.03670344,0.64595
720.112,77.34344,-2.78812,0.03398158,0.6454
720.712,77.40441,-2.78943,0.03636778,0.64485
721.312,77.46526,-2.79079,0.03492793,0.6443
721.912,77.52592,-2.79074,0.03371329,0.64375
722.512,77.58675,-2.7914,0.03462833,0.6432
723.112,77.64764,-2.79206,0.03496194,0.64265
723.712,77.7085,-2.79205,0.03260173,0.6421
724.312,77.76943,-2.79074,0.03020577,0.64155
724.912,77.83031,-2.79206,0.03580493,0.641
725.512,77.89116,-2.79239,0.03528616,0.64045
726.112,77.95188,-2.79239,0.03012826,0.6399
726.712,78.01267,-2.79239,0.02676839,0.63935
727.312,78.07333,-2.79375,0.0254349,0.6388
727.912,78.1344,-2.7937,0.03062625,0.63825
728.512,78.19541,-2.79478,0.02882728,0.6377
729.112,78.25625,-2.79438,0.02721831,0.63715
729.712,78.31725,-2.79403,0.02616169,0.6366
730.312,78.37783,-2.79403,0.02583126,0.63605
730.912,78.4387,-2.79401,0.02485006,0.6355
731.512,78.4995,-2.79469,0.02393267,0.63495
732.112,78.56036,-2.79468,0.02356889,0.6344
732.712,78.62106,-2.79601,0.02181721,0.63385
733.312,78.68188,-2.79732,0.0218049,0.63331
733.912,78.74275,-2.79495,0.02335947,0.63276
734.512,78.80355,-2.79502,0.02156059,0.63221
735.112,78.86439,-2.79502,0.02171268,0.63166
735.712,78.9252,-2.79631,0.02431721,0.63111
736.312,78.98602,-2.79502,0.02365695,0.63056
736.912,79.04687,-2.79604,0.02005292,0.63001
737.512,79.10775,-2.796,0.01711231,0.62946
738.112,79.16874,-2.79594,0.01841335,0.62891
738.712,79.22975,-2.79732,0.01501361,0.62837
739.312,79.2906,-2.79732,0.01381637,0.62782
739.912,79.35149,-2.79667,0.01603185,0.62727
740.512,79.41246,-2.79667,0.01115615,0.62672
741.112,79.4733,-2.7967,0.01032912,0.62617
741.712,79.53412,-2.79799,0.007977719,0.62562
742.312,79.59504,-2.79797,0.006646409,0.62507
742.912,79.6558,-2.79667,0.008419565,0.62453
743.512,79.71678,-2.7968,0.008314196,0.62398
744.112,79.7773,-2.79799,0.00863901,0.62343
744.712,79.8383,-2.79799,0.00338576,0.62288
745.312,79.8992,-2.79799,0.004545482,0.62233
745.912,79.96043,-2.79931,0.002000978,0.62179
746.212,79.9905,-2.7993,2.53028e-05,0.62151