File: 01_Data/Eucalyptus_Flooring/STA/N2/10K_min/Eucalyptus_Flooring_STA_N2_10KData_211012_R2.csv
##Temp./Â°C,Time/min,Mass loss(subtr.2)/mg,DSC(subtr.2)/(mW/mg),Sensit./(uV/mW)
49.315,10.01,-0.02106,0.00710063,1.07447
50.015,10.76704,-0.02340129,0.03691689,1.07442
50.715,10.97359,-0.02397596,0.06212069,1.07437
51.415,11.1265,-0.0248322,0.08275628,1.07432
52.115,11.25615,-0.02340593,0.10014,1.07427
52.815,11.37233,-0.02402427,0.11457,1.07422
53.515,11.48011,-0.02457906,0.12977,1.07416
54.215,11.58051,-0.02453583,0.14119,1.07411
54.915,11.6764,-0.02621991,0.14946,1.07405
55.615,11.76859,-0.02566134,0.16173,1.07399
56.315,11.85758,-0.02493575,0.16822,1.07393
57.015,11.94476,-0.02550272,0.17691,1.07387
57.715,12.02975,-0.02535473,0.18333,1.07381
58.415,12.11368,-0.02487479,0.18786,1.07375
59.115,12.19585,-0.0261821,0.19394,1.07369
59.815,12.27667,-0.02689106,0.19835,1.07362
60.515,12.35672,-0.02616124,0.20316,1.07356
61.215,12.4361,-0.0265526,0.20839,1.07349
61.915,12.51483,-0.02644884,0.21252,1.07342
62.615,12.59303,-0.02633213,0.21651,1.07335
63.315,12.67049,-0.0275539,0.22185,1.07328
64.015,12.74799,-0.02737904,0.22355,1.07321
64.715,12.82508,-0.02752388,0.22698,1.07314
65.415,12.90167,-0.02732362,0.23092,1.07307
66.115,12.9777,-0.02752094,0.23469,1.07299
66.815,13.05355,-0.02752524,0.23624,1.07292
67.515,13.12934,-0.02753398,0.23743,1.07284
68.215,13.2051,-0.02749168,0.2409,1.07276
68.915,13.2805,-0.02885911,0.24399,1.07268
69.615,13.35581,-0.02917881,0.2445,1.0726
70.315,13.4308,-0.03016796,0.24783,1.07252
71.015,13.5053,-0.02875916,0.25176,1.07244
71.715,13.5797,-0.03015942,0.25219,1.07235
72.415,13.65429,-0.03145719,0.25441,1.07227
73.115,13.72875,-0.03017822,0.2569,1.07218
73.815,13.80264,-0.03148031,0.25861,1.0721
74.515,13.87672,-0.03277768,0.2607,1.07201
75.215,13.95031,-0.03147864,0.26315,1.07192
75.915,14.024,-0.02951286,0.2661,1.07183
76.615,14.09731,-0.0306079,0.26541,1.07174
77.315,14.1708,-0.03149393,0.26908,1.07164
78.015,14.2438,-0.03298388,0.27012,1.07155
78.715,14.31685,-0.03412641,0.27122,1.07145
79.415,14.38938,-0.03279757,0.27278,1.07136
80.115,14.46214,-0.0341191,0.27561,1.07126
80.815,14.5345,-0.03282409,0.27703,1.07116
81.515,14.6067,-0.03423339,0.27899,1.07106
82.215,14.6786,-0.03665456,0.27978,1.07096
82.915,14.7502,-0.03543013,0.28016,1.07086
83.615,14.8218,-0.03542995,0.2801,1.07076
84.315,14.89339,-0.03434373,0.28188,1.07065
85.015,14.9648,-0.03540355,0.28383,1.07055
85.715,15.03631,-0.03522331,0.28223,1.07044
86.415,15.10726,-0.03544343,0.28549,1.07033
87.115,15.17825,-0.03674892,0.28367,1.07022
87.815,15.2492,-0.03543198,0.28295,1.07011
88.515,15.3199,-0.03542824,0.28278,1.07
89.215,15.39069,-0.03674997,0.28352,1.06989
89.915,15.46101,-0.03810781,0.28339,1.06978
90.615,15.53134,-0.03805999,0.28172,1.06966
91.315,15.60126,-0.03806031,0.28159,1.06955
92.015,15.6713,-0.03872315,0.27955,1.06943
92.715,15.7415,-0.03911234,0.28185,1.06931
93.415,15.81165,-0.03937999,0.28016,1.06919
94.115,15.88159,-0.03902535,0.28059,1.06907
94.815,15.95135,-0.03938112,0.27842,1.06895
95.515,16.02075,-0.03807073,0.27764,1.06883
96.215,16.0902,-0.03807095,0.27738,1.06871
96.915,16.15942,-0.03938294,0.27651,1.06858
97.615,16.22883,-0.03971004,0.27647,1.06846
98.315,16.29809,-0.03971345,0.27511,1.06833
99.015,16.36759,-0.04104622,0.27457,1.0682
99.715,16.43689,-0.04105337,0.27402,1.06807
100.415,16.506,-0.04102129,0.27336,1.06794
101.115,16.57517,-0.03995114,0.27467,1.06781
101.815,16.64412,-0.03969957,0.27364,1.06768
102.515,16.71309,-0.04102648,0.27309,1.06755
103.215,16.78214,-0.04102,0.27196,1.06741
103.915,16.85126,-0.0410184,0.2732,1.06728
104.615,16.92016,-0.04234005,0.27064,1.06714
105.315,16.98881,-0.04233999,0.26909,1.067
106.015,17.05764,-0.0424237,0.26797,1.06686
106.715,17.1263,-0.04102948,0.27055,1.06672
107.415,17.19502,-0.04234734,0.26972,1.06658
108.115,17.26367,-0.04101262,0.26952,1.06644
108.815,17.33269,-0.0430303,0.26927,1.06629
109.515,17.40149,-0.043,0.26885,1.06615
110.215,17.47033,-0.04299999,0.26811,1.066
110.915,17.53888,-0.0416744,0.26867,1.06586
111.615,17.6078,-0.04299994,0.26853,1.06571
112.315,17.67644,-0.043,0.26965,1.06556
113.015,17.74515,-0.04299343,0.26873,1.06541
113.715,17.81364,-0.04438169,0.26928,1.06526
114.415,17.88241,-0.04299997,0.26892,1.06511
115.115,17.9509,-0.04300003,0.27014,1.06495
115.815,18.01959,-0.04267074,0.26985,1.0648
116.515,18.08805,-0.04299354,0.27224,1.06464
117.215,18.15706,-0.043,0.27087,1.06449
117.915,18.2257,-0.04308803,0.27337,1.06433
118.615,18.29383,-0.04430987,0.27101,1.06417
119.315,18.3623,-0.04431084,0.27398,1.06401
120.015,18.43075,-0.04562928,0.27412,1.06385
120.715,18.4996,-0.04533281,0.27448,1.06369
121.415,18.56772,-0.04335536,0.27737,1.06352
122.115,18.63597,-0.04464004,0.27675,1.06336
122.815,18.70424,-0.04593367,0.27795,1.06319
123.515,18.77242,-0.04562774,0.2763,1.06303
124.215,18.84079,-0.04529608,0.2789,1.06286
124.915,18.90905,-0.04531,0.28135,1.06269
125.615,18.9774,-0.04531,0.28058,1.06252
126.315,19.04557,-0.04532337,0.2841,1.06235
127.015,19.11354,-0.04661817,0.28283,1.06218
127.715,19.18168,-0.04563381,0.28555,1.062
128.415,19.24963,-0.04695044,0.28582,1.06183
129.115,19.31776,-0.04695013,0.28609,1.06165
129.815,19.38554,-0.04799851,0.28699,1.06148
130.515,19.45365,-0.04860174,0.29007,1.0613
131.215,19.5217,-0.04729039,0.28777,1.06112
131.915,19.59018,-0.04728,0.29238,1.06094
132.615,19.65824,-0.04728201,0.29079,1.06076
133.315,19.72639,-0.04605287,0.29223,1.06058
134.015,19.7943,-0.04596042,0.29239,1.0604
134.715,19.86226,-0.04660082,0.29394,1.06021
135.415,19.93,-0.04858995,0.29421,1.06003
136.115,19.9979,-0.04859,0.29514,1.05984
136.815,20.06585,-0.04859,0.29772,1.05965
137.515,20.13364,-0.04859005,0.29953,1.05946
138.215,20.20121,-0.04935114,0.29795,1.05927
138.915,20.26898,-0.04990999,0.30035,1.05908
139.615,20.3368,-0.04991001,0.30159,1.05889
140.315,20.40467,-0.05072541,0.30166,1.0587
141.015,20.4715,-0.05122075,0.30325,1.05851
141.715,20.53913,-0.0508896,0.30391,1.05831
142.415,20.60686,-0.05089718,0.30482,1.05812
143.115,20.6753,-0.04957963,0.30513,1.05792
143.815,20.74294,-0.05038399,0.30446,1.05772
144.515,20.81054,-0.05154197,0.30465,1.05752
145.215,20.87801,-0.05188007,0.30658,1.05732
145.915,20.9458,-0.05187999,0.30632,1.05712
146.615,21.0135,-0.05191777,0.30706,1.05692
147.315,21.08117,-0.05156407,0.31057,1.05671
148.015,21.1487,-0.05186634,0.31241,1.05651
148.715,21.21604,-0.05286976,0.31141,1.0563
149.415,21.28359,-0.0528801,0.31334,1.0561
150.115,21.351,-0.0541795,0.31521,1.05589
150.815,21.41856,-0.05416183,0.31631,1.05568
151.515,21.486,-0.05319702,0.3187,1.05547
152.215,21.55345,-0.05352879,0.31765,1.05526
152.915,21.62097,-0.05618868,0.31978,1.05505
153.615,21.68822,-0.05550429,0.3203,1.05483
154.315,21.75585,-0.0555,0.32093,1.05462
155.015,21.8229,-0.0555,0.32146,1.05441
155.715,21.89041,-0.05549999,0.32176,1.05419
156.415,21.95735,-0.05610274,0.32417,1.05397
157.115,22.0247,-0.05615541,0.32434,1.05375
157.815,22.09185,-0.05681879,0.32405,1.05353
158.515,22.15939,-0.05812727,0.32649,1.05331
159.215,22.2268,-0.05813,0.32811,1.05309
159.915,22.294,-0.05813,0.32995,1.05287
160.615,22.36119,-0.05813001,0.32798,1.05265
161.315,22.4285,-0.05839753,0.32939,1.05242
162.015,22.49595,-0.05878998,0.32961,1.0522
162.715,22.56331,-0.05872646,0.32928,1.05197
163.415,22.63081,-0.06011001,0.33142,1.05174
164.115,22.69812,-0.06011,0.33268,1.05151
164.815,22.7654,-0.06012609,0.33453,1.05128
165.515,22.83245,-0.06109972,0.33407,1.05105
166.215,22.8997,-0.06109996,0.33579,1.05082
166.915,22.9669,-0.06244197,0.33777,1.05059
167.615,23.0344,-0.06274251,0.33575,1.05035
168.315,23.10163,-0.06274,0.33912,1.05012
169.015,23.1687,-0.06274,0.33764,1.04988
169.715,23.23583,-0.06273964,0.33902,1.04964
170.415,23.30307,-0.06333852,0.33762,1.04941
171.115,23.3704,-0.06407552,0.34154,1.04917
171.815,23.43759,-0.06503986,0.34123,1.04893
172.515,23.50491,-0.06608826,0.34207,1.04868
173.215,23.5722,-0.06598756,0.34198,1.04844
173.915,23.63948,-0.06734946,0.34219,1.0482
174.615,23.70672,-0.0660294,0.34454,1.04795
175.315,23.77392,-0.0667122,0.34368,1.04771
176.015,23.8411,-0.06800994,0.34372,1.04746
176.715,23.90819,-0.0682304,0.34501,1.04721
177.415,23.97537,-0.07063975,0.34386,1.04697
178.115,24.04264,-0.07064,0.34501,1.04672
178.815,24.10991,-0.07064,0.34675,1.04647
179.515,24.17703,-0.07104877,0.34681,1.04621
180.215,24.24419,-0.07327041,0.34816,1.04596
180.915,24.31162,-0.07327954,0.34963,1.04571
181.615,24.3788,-0.07459011,0.34825,1.04545
182.315,24.44601,-0.07458272,0.34671,1.0452
183.015,24.51301,-0.07590018,0.34902,1.04494
183.715,24.5803,-0.07722118,0.34839,1.04468
184.415,24.6473,-0.07721344,0.35014,1.04442
185.115,24.71452,-0.07854048,0.34881,1.04416
185.815,24.78155,-0.07854908,0.34886,1.0439
186.515,24.8486,-0.07985014,0.34728,1.04364
187.215,24.9156,-0.08076403,0.34774,1.04338
187.915,24.98283,-0.08248051,0.34924,1.04311
188.615,25.0499,-0.08248,0.35099,1.04285
189.315,25.1168,-0.08242891,0.35097,1.04258
190.015,25.18376,-0.08380024,0.35123,1.04231
190.715,25.2509,-0.08385863,0.35139,1.04205
191.415,25.3182,-0.08507028,0.35365,1.04178
192.115,25.38518,-0.0873086,0.35604,1.04151
192.815,25.4522,-0.08775006,0.35516,1.04124
193.515,25.51902,-0.08832812,0.35474,1.04096
194.215,25.58625,-0.08906993,0.35647,1.04069
194.915,25.6535,-0.08923256,0.35675,1.04042
195.615,25.7206,-0.09170083,0.35691,1.04014
196.315,25.78752,-0.09302181,0.35846,1.03987
197.015,25.8544,-0.09341913,0.35867,1.03959
197.715,25.9215,-0.09571442,0.35784,1.03931
198.415,25.98872,-0.09564634,0.3582,1.03903
199.115,26.0559,-0.09826951,0.35876,1.03875
199.815,26.12298,-0.09918904,0.35974,1.03847
200.515,26.18947,-0.09860993,0.36153,1.03819
201.215,26.25631,-0.0999686,0.36071,1.03791
201.915,26.32337,-0.10012,0.35954,1.03762
202.615,26.3905,-0.1039,0.36085,1.03734
203.315,26.45751,-0.10403,0.36062,1.03705
204.015,26.5243,-0.10656,0.36025,1.03676
204.715,26.5913,-0.1076,0.3612,1.03647
205.415,26.65826,-0.10916,0.35952,1.03619
206.115,26.7253,-0.11003,0.36081,1.0359
206.815,26.7921,-0.11178,0.36003,1.0356
207.515,26.85888,-0.11266,0.36036,1.03531
208.215,26.92575,-0.11309,0.35903,1.03502
208.915,26.99264,-0.11565,0.35801,1.03473
209.615,27.0596,-0.1181,0.3589,1.03443
210.315,27.1266,-0.11984,0.35682,1.03413
211.015,27.19352,-0.11977,0.35802,1.03384
211.715,27.2604,-0.12145,0.35847,1.03354
212.415,27.32725,-0.1236,0.35648,1.03324
213.115,27.39416,-0.12409,0.35537,1.03294
213.815,27.4611,-0.12707,0.35555,1.03264
214.515,27.5282,-0.12833,0.35406,1.03234
215.215,27.59501,-0.12968,0.35511,1.03203
215.915,27.662,-0.13148,0.35365,1.03173
216.615,27.72891,-0.13285,0.34954,1.03143
217.315,27.79591,-0.13493,0.35195,1.03112
218.015,27.86303,-0.13689,0.35073,1.03081
218.715,27.93,-0.13821,0.35103,1.03051
219.415,27.99714,-0.13994,0.34853,1.0302
220.115,28.064,-0.1422,0.34857,1.02989
220.815,28.13089,-0.14348,0.3467,1.02958
221.515,28.1978,-0.14556,0.34595,1.02927
222.215,28.26483,-0.14746,0.34677,1.02895
222.915,28.3319,-0.15005,0.34823,1.02864
223.615,28.39885,-0.15193,0.34738,1.02833
224.315,28.4658,-0.15411,0.34457,1.02801
225.015,28.5329,-0.1561,0.34607,1.02769
225.715,28.5999,-0.15828,0.34285,1.02738
226.415,28.66685,-0.16077,0.34485,1.02706
227.115,28.7336,-0.16203,0.34301,1.02674
227.815,28.80038,-0.16475,0.34194,1.02642
228.515,28.86732,-0.16607,0.33925,1.0261
229.215,28.9343,-0.16938,0.34117,1.02577
229.915,29.0012,-0.17231,0.34016,1.02545
230.615,29.06805,-0.17454,0.33909,1.02513
231.315,29.13515,-0.17752,0.33679,1.0248
232.015,29.2019,-0.17887,0.33701,1.02448
232.715,29.26885,-0.1812,0.33485,1.02415
233.415,29.3358,-0.18457,0.33318,1.02382
234.115,29.4028,-0.18483,0.3328,1.02349
234.815,29.47018,-0.18791,0.33007,1.02316
235.515,29.5371,-0.19157,0.32946,1.02283
236.215,29.6041,-0.19424,0.32949,1.0225
236.915,29.6711,-0.19802,0.32896,1.02217
237.615,29.73818,-0.1998,0.32691,1.02184
238.315,29.80548,-0.20335,0.32596,1.0215
239.015,29.87255,-0.20673,0.32562,1.02117
239.715,29.93957,-0.2089,0.32259,1.02083
240.415,30.00628,-0.21091,0.322,1.02049
241.115,30.0732,-0.2151,0.3203,1.02015
241.815,30.1401,-0.21829,0.32059,1.01981
242.515,30.2072,-0.22133,0.32019,1.01947
243.215,30.27437,-0.22375,0.31623,1.01913
243.915,30.34145,-0.22753,0.31671,1.01879
244.615,30.4085,-0.23116,0.31287,1.01845
245.315,30.4753,-0.23485,0.31534,1.01811
246.015,30.5422,-0.2385,0.31326,1.01776
246.715,30.6093,-0.24144,0.3118,1.01741
247.415,30.67632,-0.2448,0.31042,1.01707
248.115,30.7433,-0.24953,0.31019,1.01672
248.815,30.81,-0.25283,0.30722,1.01637
249.515,30.87663,-0.25661,0.30825,1.01602
250.215,30.94342,-0.26056,0.30522,1.01567
250.915,31.01047,-0.2657,0.30397,1.01532
251.615,31.07743,-0.26966,0.30153,1.01497
252.315,31.14449,-0.2725,0.30094,1.01462
253.015,31.2115,-0.27653,0.30058,1.01426
253.715,31.27853,-0.28062,0.29598,1.01391
254.415,31.3455,-0.28421,0.29641,1.01355
255.115,31.41256,-0.28775,0.29678,1.0132
255.815,31.47976,-0.29185,0.29526,1.01284
256.515,31.54685,-0.29813,0.29551,1.01248
257.215,31.61385,-0.30425,0.29233,1.01212
257.915,31.68083,-0.30741,0.29284,1.01176
258.615,31.7479,-0.31056,0.29213,1.0114
259.315,31.81499,-0.31774,0.28866,1.01104
260.015,31.882,-0.32137,0.29033,1.01067
260.715,31.94912,-0.32665,0.28688,1.01031
261.415,32.0163,-0.33023,0.28547,1.00995
262.115,32.0834,-0.33621,0.28274,1.00958
262.815,32.15061,-0.34126,0.28514,1.00921
263.515,32.2176,-0.34771,0.28363,1.00885
264.215,32.28474,-0.35356,0.28281,1.00848
264.915,32.35145,-0.35927,0.28152,1.00811
265.615,32.41836,-0.36576,0.28019,1.00774
266.315,32.48516,-0.37155,0.27935,1.00737
267.015,32.55239,-0.37665,0.2776,1.007
267.715,32.61959,-0.38322,0.27776,1.00662
268.415,32.68701,-0.38891,0.27578,1.00625
269.115,32.7543,-0.39453,0.27349,1.00587
269.815,32.82161,-0.40142,0.27047,1.0055
270.515,32.8887,-0.40897,0.27028,1.00512
271.215,32.95582,-0.4151,0.26856,1.00475
271.915,33.02285,-0.42286,0.26807,1.00437
272.615,33.09019,-0.42879,0.26838,1.00399
273.315,33.15722,-0.43655,0.26406,1.00361
274.015,33.22445,-0.44319,0.26301,1.00323
274.715,33.29146,-0.45176,0.26083,1.00285
275.415,33.35852,-0.45971,0.26065,1.00246
276.115,33.42561,-0.46602,0.25867,1.00208
276.815,33.49276,-0.47426,0.25838,1.0017
277.515,33.55964,-0.4839,0.25535,1.00131
278.215,33.62648,-0.49098,0.25322,1.00093
278.915,33.69318,-0.49972,0.25366,1.00054
279.615,33.7603,-0.50886,0.25117,1.00015
280.315,33.8275,-0.5173,0.24853,0.99976
281.015,33.89472,-0.5246,0.24619,0.99937
281.715,33.96184,-0.53372,0.24247,0.99898
282.415,34.0289,-0.54308,0.24507,0.99859
283.115,34.09616,-0.55344,0.24293,0.9982
283.815,34.1633,-0.56511,0.24081,0.99781
284.515,34.23024,-0.57294,0.24362,0.99741
285.215,34.29737,-0.5833,0.24093,0.99702
285.915,34.36459,-0.59375,0.24073,0.99662
286.615,34.43186,-0.60365,0.23949,0.99623
287.315,34.499,-0.61656,0.23964,0.99583
288.015,34.5662,-0.62627,0.23714,0.99543
288.715,34.63333,-0.63692,0.23621,0.99503
289.415,34.7005,-0.64797,0.23682,0.99463
290.115,34.76763,-0.66092,0.23768,0.99423
290.815,34.8348,-0.67314,0.23771,0.99383
291.515,34.9022,-0.68392,0.23695,0.99343
292.215,34.9696,-0.69643,0.23614,0.99303
292.915,35.0369,-0.71132,0.23684,0.99262
293.615,35.10409,-0.72287,0.23723,0.99222
294.315,35.1715,-0.7349,0.23733,0.99181
295.015,35.23885,-0.74821,0.23934,0.99141
295.715,35.30637,-0.76239,0.2421,0.991
296.415,35.37385,-0.77646,0.24435,0.99059
297.115,35.44126,-0.79065,0.24588,0.99018
297.815,35.50865,-0.80255,0.24727,0.98977
298.515,35.57601,-0.81931,0.25108,0.98936
299.215,35.64332,-0.83409,0.25078,0.98895
299.915,35.71089,-0.85009,0.25374,0.98854
300.615,35.77825,-0.86391,0.25745,0.98813
301.315,35.84551,-0.87975,0.25924,0.98771
302.015,35.91258,-0.8947,0.26141,0.9873
302.715,35.97983,-0.91168,0.26396,0.98688
303.415,36.0473,-0.92934,0.26691,0.98647
304.115,36.11485,-0.94609,0.27009,0.98605
304.815,36.18187,-0.96101,0.27478,0.98563
305.515,36.24907,-0.97773,0.27553,0.98521
306.215,36.31625,-0.99604,0.27877,0.98479
306.915,36.38354,-1.0121,0.28209,0.98437
307.615,36.45095,-1.02952,0.28359,0.98395
308.315,36.5184,-1.04923,0.29039,0.98353
309.015,36.58617,-1.06731,0.29239,0.98311
309.715,36.6535,-1.08625,0.29619,0.98268
310.415,36.72068,-1.10549,0.29466,0.98226
311.115,36.78792,-1.12598,0.29888,0.98183
311.815,36.85494,-1.1451,0.3016,0.98141
312.515,36.92228,-1.16398,0.30251,0.98098
313.215,36.98956,-1.18483,0.30212,0.98055
313.915,37.0571,-1.20286,0.30713,0.98012
314.615,37.1246,-1.2253,0.30638,0.9797
315.315,37.19215,-1.24543,0.30477,0.97927
316.015,37.2596,-1.26656,0.3082,0.97883
316.715,37.32715,-1.28902,0.30692,0.9784
317.415,37.39467,-1.31089,0.30456,0.97797
318.115,37.46212,-1.33276,0.30579,0.97754
318.815,37.52961,-1.35383,0.30737,0.9771
319.515,37.59718,-1.37775,0.30745,0.97667
320.215,37.66473,-1.40131,0.30401,0.97623
320.915,37.7322,-1.42426,0.30327,0.9758
321.615,37.7997,-1.44773,0.30335,0.97536
322.315,37.86711,-1.47125,0.29945,0.97492
323.015,37.93476,-1.49559,0.2966,0.97448
323.715,38.00233,-1.51921,0.29667,0.97404
324.415,38.06994,-1.54239,0.29319,0.9736
325.115,38.13752,-1.5666,0.29005,0.97316
325.815,38.20496,-1.5913,0.28619,0.97272
326.515,38.27261,-1.61513,0.28567,0.97228
327.215,38.3401,-1.63852,0.27917,0.97183
327.915,38.40777,-1.6643,0.27488,0.97139
328.615,38.47525,-1.68787,0.27138,0.97095
329.315,38.54286,-1.71219,0.26464,0.9705
330.015,38.6104,-1.73757,0.2566,0.97005
330.715,38.6781,-1.75862,0.2521,0.96961
331.415,38.74588,-1.78372,0.24699,0.96916
332.115,38.81368,-1.80659,0.23874,0.96871
332.815,38.88157,-1.82885,0.23275,0.96826
333.515,38.94948,-1.85199,0.2256,0.96781
334.215,39.01722,-1.87368,0.21736,0.96736
334.915,39.08488,-1.89516,0.21308,0.96691
335.615,39.1524,-1.91429,0.20356,0.96645
336.315,39.22022,-1.93525,0.19954,0.966
337.015,39.2883,-1.95598,0.19266,0.96555
337.715,39.35617,-1.97347,0.18653,0.96509
338.415,39.42402,-1.9948,0.18062,0.96464
339.115,39.49131,-2.01167,0.17401,0.96418
339.815,39.5591,-2.02926,0.16579,0.96372
340.515,39.62702,-2.04567,0.15962,0.96327
341.215,39.69509,-2.05943,0.15787,0.96281
341.915,39.76279,-2.07537,0.15042,0.96235
342.615,39.8304,-2.09049,0.14716,0.96189
343.315,39.8982,-2.10424,0.14131,0.96143
344.015,39.966,-2.11555,0.13691,0.96097
344.715,40.03393,-2.12824,0.13471,0.9605
345.415,40.10174,-2.14112,0.13001,0.96004
346.115,40.1694,-2.15297,0.12661,0.95958
346.815,40.23705,-2.16197,0.1213,0.95911
347.515,40.3051,-2.17394,0.12059,0.95865
348.215,40.37311,-2.1828,0.11439,0.95818
348.915,40.4412,-2.19231,0.1124,0.95771
349.615,40.50893,-2.20014,0.10979,0.95725
350.315,40.57696,-2.20753,0.10679,0.95678
351.015,40.64498,-2.21584,0.1052,0.95631
351.715,40.71289,-2.22383,0.1002,0.95584
352.415,40.78069,-2.23164,0.09922675,0.95537
353.115,40.84847,-2.2394,0.09636898,0.9549
353.815,40.91645,-2.24605,0.09289837,0.95443
354.515,40.98447,-2.25134,0.09122982,0.95396
355.215,41.05255,-2.25738,0.08851861,0.95348
355.915,41.1207,-2.26321,0.08366198,0.95301
356.615,41.18873,-2.26992,0.08487468,0.95253
357.315,41.25676,-2.27375,0.07959602,0.95206
358.015,41.32485,-2.27999,0.07751601,0.95158
358.715,41.39273,-2.2859,0.07781674,0.95111
359.415,41.46069,-2.28924,0.07331039,0.95063
360.115,41.52859,-2.29315,0.07198954,0.95015
360.815,41.59649,-2.30019,0.06755297,0.94967
361.515,41.6646,-2.30246,0.06725047,0.94919
362.215,41.7326,-2.30607,0.06395699,0.94871
362.915,41.8007,-2.31113,0.06106436,0.94823
363.615,41.8686,-2.3142,0.05845965,0.94775
364.315,41.936,-2.31936,0.05520235,0.94727
365.015,42.00401,-2.32531,0.05180934,0.94679
365.715,42.07222,-2.32868,0.05350569,0.9463
366.415,42.14048,-2.33461,0.04937502,0.94582
367.115,42.20888,-2.33597,0.05156688,0.94533
367.815,42.27681,-2.33981,0.04385988,0.94485
368.515,42.34489,-2.34432,0.04398083,0.94436
369.215,42.41275,-2.34541,0.04002328,0.94387
369.915,42.48079,-2.34993,0.04179223,0.94339
370.615,42.54887,-2.3554,0.03813295,0.9429
371.315,42.61691,-2.35729,0.03402468,0.94241
372.015,42.68465,-2.36164,0.03268963,0.94192
372.715,42.7528,-2.3636,0.03158137,0.94143
373.415,42.82101,-2.36774,0.03063155,0.94094
374.115,42.8894,-2.37065,0.02746493,0.94044
374.815,42.95743,-2.37421,0.02394236,0.93995
375.515,43.02548,-2.37829,0.02061023,0.93946
376.215,43.09362,-2.38217,0.02041691,0.93896
376.915,43.162,-2.38345,0.02002679,0.93847
377.615,43.23028,-2.38537,0.01385763,0.93797
378.315,43.29842,-2.3898,0.01388272,0.93748
379.015,43.3666,-2.39449,0.01203721,0.93698
379.715,43.43473,-2.39629,0.009305727,0.93649
380.415,43.50287,-2.39864,0.007269938,0.93599
381.115,43.5711,-2.40235,0.00598841,0.93549
381.815,43.6393,-2.40568,0.004122832,0.93499
382.515,43.70762,-2.40767,0.00251064,0.93449
383.215,43.7757,-2.41091,0.00340726,0.93399
383.915,43.84389,-2.41611,0.002459168,0.93349
384.615,43.91216,-2.41922,0.00116171,0.93299
385.315,43.98008,-2.42089,-0.000373139,0.93248
386.015,44.04833,-2.42239,0.0001474293,0.93198
386.715,44.11656,-2.42511,-0.005059195,0.93148
387.415,44.1852,-2.42857,-0.00355059,0.93097
388.115,44.25322,-2.43001,-0.00571274,0.93047
388.815,44.32139,-2.43363,-0.00804612,0.92996
389.515,44.3895,-2.43767,-0.00667592,0.92946
390.215,44.45787,-2.43975,-0.009436923,0.92895
390.915,44.52596,-2.44241,-0.00724124,0.92844
391.615,44.59414,-2.44399,-0.00966298,0.92793
392.315,44.6624,-2.44683,-0.009464611,0.92742
393.015,44.73059,-2.45097,-0.008827465,0.92691
393.715,44.7988,-2.4527,-0.00956686,0.9264
394.415,44.86685,-2.45659,-0.009048414,0.92589
395.115,44.93525,-2.45855,-0.009669582,0.92538
395.815,45.00369,-2.4613,-0.0101493,0.92487
396.515,45.07233,-2.46361,-0.008051616,0.92436
397.215,45.14075,-2.46564,-0.008025082,0.92384
397.915,45.20919,-2.46852,-0.01010217,0.92333
398.615,45.2776,-2.47121,-0.01062042,0.92282
399.315,45.3457,-2.4744,-0.009010795,0.9223
400.015,45.41384,-2.47638,-0.01048466,0.92178
400.715,45.48195,-2.47851,-0.00775078,0.92127
401.415,45.55035,-2.48287,-0.008639572,0.92075
402.115,45.61874,-2.48518,-0.00689217,0.92023
402.815,45.68722,-2.48708,-0.008475656,0.91972
403.515,45.75575,-2.48808,-0.009184707,0.9192
404.215,45.82425,-2.49128,-0.0071623,0.91868
404.915,45.89267,-2.49409,-0.00409025,0.91816
405.615,45.96118,-2.49723,-0.005922758,0.91764
406.315,46.0295,-2.4996,-0.003269958,0.91711
407.015,46.09817,-2.50134,-0.0005602749,0.91659
407.715,46.1667,-2.50406,-0.001041271,0.91607
408.415,46.23532,-2.5067,-1.807846e-05,0.91555
409.115,46.3037,-2.50934,0.00212403,0.91502
409.815,46.3722,-2.51193,0.001252604,0.9145
410.515,46.44064,-2.51477,0.003713232,0.91397
411.215,46.509,-2.51763,0.003543788,0.91345
411.915,46.5774,-2.51934,0.00483153,0.91292
412.615,46.64589,-2.52101,0.004696181,0.9124
413.315,46.7144,-2.52389,0.00619746,0.91187
414.015,46.78273,-2.52692,0.00901856,0.91134
414.715,46.85103,-2.52961,0.008477058,0.91081
415.415,46.9195,-2.5309,0.01146749,0.91028
416.115,46.98791,-2.53344,0.01130642,0.90975
416.815,47.0565,-2.53522,0.01433955,0.90922
417.515,47.1251,-2.53746,0.01685684,0.90869
418.215,47.1938,-2.54054,0.0146911,0.90816
418.915,47.26239,-2.54243,0.01603482,0.90763
419.615,47.3309,-2.54459,0.02123623,0.9071
420.315,47.3994,-2.54722,0.02087642,0.90656
421.015,47.46784,-2.55017,0.02157077,0.90603
421.715,47.53635,-2.55153,0.0234572,0.9055
422.415,47.6051,-2.55436,0.02719569,0.90496
423.115,47.67382,-2.55662,0.02426977,0.90443
423.815,47.7425,-2.55843,0.02589155,0.90389
424.515,47.81075,-2.56046,0.02702108,0.90335
425.215,47.8792,-2.56286,0.02896993,0.90282
425.915,47.94781,-2.56545,0.03104204,0.90228
426.615,48.01647,-2.56686,0.03321219,0.90174
427.315,48.08495,-2.57083,0.03362365,0.9012
428.015,48.15358,-2.57288,0.03566579,0.90066
428.715,48.22229,-2.57493,0.03854888,0.90012
429.415,48.29112,-2.57641,0.0391361,0.89958
430.115,48.35991,-2.57816,0.03706081,0.89904
430.815,48.42856,-2.58057,0.04175042,0.8985
431.515,48.49739,-2.58234,0.04321586,0.89796
432.215,48.56612,-2.58499,0.04229005,0.89741
432.915,48.63487,-2.58656,0.04443227,0.89687
433.615,48.70357,-2.58863,0.04449911,0.89633
434.315,48.7723,-2.59164,0.04364063,0.89578
435.015,48.84117,-2.59291,0.04722773,0.89524
435.715,48.91005,-2.59572,0.0472143,0.89469
436.415,48.97893,-2.59848,0.04895873,0.89415
437.115,49.0478,-2.5998,0.04459762,0.8936
437.815,49.11667,-2.60148,0.04762015,0.89305
438.515,49.18555,-2.60333,0.04702778,0.89251
439.215,49.25452,-2.6051,0.0508636,0.89196
439.915,49.3236,-2.6072,0.0530588,0.89141
440.615,49.3925,-2.60923,0.05341698,0.89086
441.315,49.46137,-2.61163,0.05502793,0.89031
442.015,49.53014,-2.61271,0.05394095,0.88976
442.715,49.59918,-2.61337,0.05553522,0.88921
443.415,49.668,-2.61747,0.05789619,0.88866
444.115,49.73695,-2.61871,0.05689761,0.88811
444.815,49.80583,-2.62154,0.05677211,0.88755
445.515,49.8749,-2.6215,0.05483182,0.887
446.215,49.9439,-2.62428,0.05643745,0.88645
446.915,50.01285,-2.62781,0.05676408,0.88589
447.615,50.08161,-2.62907,0.05671535,0.88534
448.315,50.15052,-2.63038,0.05899062,0.88478
449.015,50.2193,-2.63171,0.05816999,0.88423
449.715,50.28843,-2.63385,0.05673823,0.88367
450.415,50.35745,-2.63564,0.05727171,0.88312
451.115,50.42638,-2.63597,0.05910871,0.88256
451.815,50.49524,-2.63727,0.05665531,0.882
452.515,50.56411,-2.64015,0.05932709,0.88144
453.215,50.6331,-2.6414,0.06103211,0.88089
453.915,50.702,-2.64277,0.0582853,0.88033
454.615,50.77097,-2.64409,0.06164164,0.87977
455.315,50.84002,-2.64672,0.05990078,0.87921
456.015,50.90918,-2.64937,0.06315067,0.87865
456.715,50.97838,-2.64988,0.06113571,0.87809
457.415,51.0475,-2.6521,0.05927683,0.87753
458.115,51.11683,-2.6534,0.06140022,0.87696
458.815,51.18607,-2.65478,0.06200278,0.8764
459.515,51.2553,-2.65546,0.06082798,0.87584
460.215,51.32441,-2.65689,0.06127794,0.87527
460.915,51.39358,-2.65921,0.06199492,0.87471
461.615,51.4626,-2.66057,0.06167502,0.87415
462.315,51.53181,-2.66187,0.06107818,0.87358
463.015,51.60092,-2.66321,0.06179294,0.87302
463.715,51.67022,-2.66451,0.06292348,0.87245
464.415,51.7393,-2.66714,0.05787247,0.87188
465.115,51.80863,-2.66844,0.06134323,0.87132
465.815,51.8778,-2.67042,0.06045066,0.87075
466.515,51.94717,-2.67165,0.0600542,0.87018
467.215,52.0162,-2.67419,0.06385959,0.86961
467.915,52.08524,-2.67432,0.06224051,0.86905
468.615,52.1539,-2.67654,0.05978775,0.86848
469.315,52.22278,-2.6771,0.06074187,0.86791
470.015,52.29186,-2.68036,0.05967969,0.86734
470.715,52.3611,-2.68192,0.05805134,0.86677
471.415,52.43029,-2.68381,0.0590632,0.8662
472.115,52.4995,-2.6838,0.05883377,0.86562
472.815,52.5688,-2.68381,0.06109285,0.86505
473.515,52.6378,-2.68626,0.06109765,0.86448
474.215,52.7068,-2.68709,0.06189046,0.86391
474.915,52.77559,-2.68905,0.06018638,0.86333
475.615,52.8447,-2.69037,0.06076072,0.86276
476.315,52.9137,-2.69171,0.06002114,0.86219
477.015,52.9827,-2.69302,0.06027037,0.86161
477.715,53.05169,-2.69445,0.06165318,0.86104
478.415,53.12081,-2.69576,0.06183769,0.86046
479.115,53.1899,-2.69707,0.06276353,0.85988
479.815,53.2589,-2.69763,0.05958701,0.85931
480.515,53.3278,-2.69852,0.05978885,0.85873
481.215,53.3967,-2.70024,0.05963026,0.85815
481.915,53.46565,-2.7008,0.06018015,0.85758
482.615,53.53465,-2.70231,0.06095686,0.857
483.315,53.60374,-2.70483,0.05987375,0.85642
484.015,53.67264,-2.70659,0.06063595,0.85584
484.715,53.74184,-2.70661,0.05778596,0.85526
485.415,53.8109,-2.70757,0.06076914,0.85468
486.115,53.8802,-2.70815,0.0569054,0.8541
486.815,53.94956,-2.71042,0.05669476,0.85352
487.515,54.0189,-2.71206,0.05665855,0.85294
488.215,54.0884,-2.71342,0.05390105,0.85236
488.915,54.1578,-2.71419,0.05763042,0.85178
489.615,54.2274,-2.71603,0.05857518,0.85119
490.315,54.29665,-2.71741,0.05629409,0.85061
491.015,54.3657,-2.71866,0.05775321,0.85003
491.715,54.4347,-2.72006,0.05397938,0.84944
492.415,54.50399,-2.72132,0.05663613,0.84886
493.115,54.57356,-2.7213,0.058882,0.84827
493.815,54.64305,-2.72393,0.05899978,0.84769
494.515,54.7125,-2.72527,0.05927537,0.8471
495.215,54.782,-2.72658,0.06006632,0.84652
495.915,54.8515,-2.7279,0.06286753,0.84593
496.615,54.9208,-2.7292,0.06402028,0.84535
497.315,54.9902,-2.72921,0.06467795,0.84476
498.015,55.05975,-2.73183,0.06637375,0.84417
498.715,55.1296,-2.73316,0.06774342,0.84358
499.415,55.199,-2.73406,0.06992,0.843
500.115,55.26843,-2.7347,0.06790575,0.84241
500.815,55.33765,-2.73569,0.0672623,0.84182
501.515,55.40732,-2.73703,0.07186932,0.84123
502.215,55.47661,-2.73854,0.07122764,0.84064
502.915,55.5462,-2.73985,0.06759447,0.84005
503.615,55.61558,-2.74112,0.07040416,0.83946
504.315,55.6853,-2.74249,0.07245438,0.83887
505.015,55.7547,-2.7438,0.07356278,0.83828
505.715,55.8244,-2.74517,0.07345414,0.83768
506.415,55.8939,-2.74641,0.07509394,0.83709
507.115,55.9636,-2.74653,0.07770163,0.8365
507.815,56.03312,-2.74637,0.07830327,0.83591
508.515,56.10266,-2.74865,0.07666791,0.83531
509.215,56.17219,-2.75168,0.08161661,0.83472
509.915,56.2417,-2.7517,0.08171279,0.83412
510.615,56.3113,-2.75316,0.08254961,0.83353
511.315,56.38089,-2.75311,0.08338417,0.83294
512.015,56.4508,-2.75444,0.08530617,0.83234
512.715,56.52055,-2.75515,0.08585565,0.83174
513.415,56.5903,-2.75707,0.08671918,0.83115
514.115,56.65988,-2.75707,0.08401368,0.83055
514.815,56.72961,-2.75707,0.08924831,0.82996
515.515,56.79929,-2.75968,0.09060106,0.82936
516.215,56.86911,-2.75971,0.08975735,0.82876
516.915,56.9389,-2.76103,0.091613,0.82816
517.615,57.0088,-2.76233,0.09318655,0.82757
518.315,57.07844,-2.76234,0.09329038,0.82697
519.015,57.14832,-2.76497,0.09424112,0.82637
519.715,57.2182,-2.76628,0.09147474,0.82577
520.415,57.2882,-2.76761,0.0909908,0.82517
521.115,57.35807,-2.76892,0.09236086,0.82457
521.815,57.42796,-2.76907,0.09300865,0.82397
522.515,57.49785,-2.77023,0.09617836,0.82337
523.215,57.56766,-2.77269,0.09327261,0.82277
523.915,57.6375,-2.77287,0.09428523,0.82217
524.615,57.70715,-2.77424,0.09299979,0.82156
525.315,57.77675,-2.77418,0.0950326,0.82096
526.015,57.8465,-2.77533,0.09598904,0.82036
526.715,57.9163,-2.7765,0.09544356,0.81976
527.415,57.98625,-2.77681,0.09647272,0.81915
528.115,58.05602,-2.77811,0.09744771,0.81855
528.815,58.12582,-2.77845,0.09653234,0.81795
529.515,58.19557,-2.78084,0.10019,0.81734
530.215,58.26543,-2.78076,0.09975492,0.81674
530.915,58.33509,-2.78208,0.10152,0.81613
531.615,58.4047,-2.7834,0.10091,0.81553
532.315,58.47415,-2.78462,0.10105,0.81492
533.015,58.54387,-2.78473,0.10225,0.81432
533.715,58.6135,-2.78602,0.10259,0.81371
534.415,58.68319,-2.78733,0.10036,0.81311
535.115,58.7527,-2.78785,0.10395,0.8125
535.815,58.8225,-2.78932,0.10419,0.81189
536.515,58.8923,-2.78931,0.10367,0.81129
537.215,58.96193,-2.79195,0.10338,0.81068
537.915,59.0316,-2.79207,0.10287,0.81007
538.615,59.1011,-2.79265,0.10554,0.80946
539.315,59.17106,-2.79331,0.10242,0.80885
540.015,59.2409,-2.79462,0.10546,0.80824
540.715,59.3109,-2.79583,0.10539,0.80764
541.415,59.38061,-2.7959,0.10672,0.80703
542.115,59.4503,-2.79901,0.10584,0.80642
542.815,59.52,-2.8004,0.10645,0.80581
543.515,59.5897,-2.79865,0.10654,0.8052
544.215,59.6594,-2.79996,0.10381,0.80458
544.915,59.72929,-2.80127,0.10657,0.80397
545.615,59.7993,-2.80391,0.10777,0.80336
546.315,59.86916,-2.80391,0.10968,0.80275
547.015,59.93864,-2.80522,0.10795,0.80214
547.715,60.00841,-2.80439,0.11028,0.80153
548.415,60.0783,-2.80521,0.1101,0.80091
549.115,60.1485,-2.80676,0.10868,0.8003
549.815,60.2185,-2.80912,0.10837,0.79969
550.515,60.28835,-2.80969,0.10885,0.79908
551.215,60.3582,-2.81049,0.1078,0.79846
551.915,60.42774,-2.81124,0.10855,0.79785
552.615,60.49736,-2.81159,0.10624,0.79723
553.315,60.56731,-2.81248,0.10602,0.79662
554.015,60.63735,-2.81455,0.10536,0.796
554.715,60.70771,-2.81592,0.10622,0.79539
555.415,60.7776,-2.81588,0.1041,0.79477
556.115,60.84744,-2.81586,0.10381,0.79416
556.815,60.91709,-2.81717,0.10225,0.79354
557.515,60.9869,-2.81721,0.09999702,0.79293
558.215,61.05666,-2.81851,0.09586011,0.79231
558.915,61.12633,-2.81981,0.09662156,0.79169
559.615,61.19599,-2.82117,0.09516024,0.79108
560.315,61.2659,-2.82222,0.09289368,0.79046
561.015,61.3358,-2.82313,0.0921077,0.78984
561.715,61.40577,-2.82442,0.09082783,0.78922
562.415,61.4757,-2.82567,0.0888718,0.7886
563.115,61.5458,-2.82442,0.08471853,0.78799
563.815,61.61591,-2.82574,0.08205237,0.78737
564.515,61.6861,-2.82605,0.07827039,0.78675
565.215,61.75614,-2.82738,0.0751332,0.78613
565.915,61.82594,-2.8285,0.07213519,0.78551
566.615,61.89544,-2.8287,0.07071406,0.78489
567.315,61.9651,-2.82999,0.06776946,0.78427
568.015,62.0351,-2.83127,0.06649722,0.78365
568.715,62.1052,-2.82991,0.06564144,0.78303
569.415,62.1753,-2.83132,0.06394561,0.78241
570.115,62.2454,-2.83265,0.06477381,0.78179
570.815,62.3154,-2.83272,0.06123715,0.78117
571.515,62.3852,-2.83396,0.05981722,0.78055
572.215,62.4549,-2.83536,0.05897998,0.77992
572.915,62.5248,-2.83618,0.05944635,0.7793
573.615,62.5947,-2.83724,0.05704678,0.77868
574.315,62.66429,-2.83857,0.05797127,0.77806
575.015,62.7342,-2.83857,0.05880678,0.77744
575.715,62.8042,-2.83987,0.05699349,0.77681
576.415,62.87452,-2.84029,0.06024309,0.77619
577.115,62.94458,-2.84162,0.06081163,0.77557
577.815,63.01466,-2.84209,0.05838382,0.77494
578.515,63.08465,-2.8412,0.05720007,0.77432
579.215,63.15464,-2.84252,0.0572024,0.7737
579.915,63.22484,-2.84252,0.05664582,0.77307
580.615,63.29504,-2.84385,0.05493993,0.77245
581.315,63.36525,-2.84384,0.05488757,0.77182
582.015,63.4353,-2.84515,0.056851,0.7712
582.715,63.5054,-2.84566,0.05419313,0.77057
583.415,63.5753,-2.84647,0.05695545,0.76995
584.115,63.64549,-2.8478,0.05612987,0.76932
584.815,63.7158,-2.84782,0.05546041,0.7687
585.515,63.78605,-2.8491,0.05544303,0.76807
586.215,63.85625,-2.8491,0.05466053,0.76744
586.915,63.92634,-2.85046,0.05803022,0.76682
587.615,63.99664,-2.8491,0.05898333,0.76619
588.315,64.0668,-2.85039,0.05872762,0.76556
589.015,64.13685,-2.85041,0.06219014,0.76494
589.715,64.2069,-2.85171,0.05932983,0.76431
590.415,64.27687,-2.85213,0.06103878,0.76368
591.115,64.34695,-2.85305,0.06406575,0.76305
591.815,64.41704,-2.85319,0.0653003,0.76243
592.515,64.48711,-2.85436,0.06388479,0.7618
593.215,64.5572,-2.85556,0.06601418,0.76117
593.915,64.62735,-2.85698,0.06569264,0.76054
594.615,64.6975,-2.85833,0.06556179,0.75991
595.315,64.76759,-2.857,0.0672229,0.75928
596.015,64.83771,-2.85704,0.06992963,0.75866
596.715,64.90756,-2.85727,0.06980978,0.75803
597.415,64.97759,-2.85973,0.06934272,0.7574
598.115,65.04765,-2.86088,0.07014777,0.75677
598.815,65.11798,-2.86069,0.06694683,0.75614
599.515,65.18808,-2.86105,0.07123935,0.75551
600.215,65.25811,-2.86185,0.07072744,0.75488
600.915,65.3282,-2.86369,0.07118642,0.75425
601.615,65.39816,-2.86505,0.06894257,0.75362
602.315,65.46822,-2.86368,0.07197395,0.75299
603.015,65.5383,-2.865,0.07052065,0.75236
603.715,65.6087,-2.865,0.0697274,0.75172
604.415,65.67874,-2.86599,0.07019554,0.75109
605.115,65.74865,-2.86629,0.07052524,0.75046
605.815,65.81897,-2.86525,0.06872067,0.74983
606.515,65.88961,-2.86763,0.06972821,0.7492
607.215,65.96044,-2.86763,0.07434248,0.74857
607.915,66.03064,-2.86797,0.07317208,0.74793
608.615,66.10077,-2.86797,0.07441657,0.7473
609.315,66.17099,-2.86797,0.07516037,0.74667
610.015,66.24129,-2.86797,0.07843634,0.74604
610.715,66.3117,-2.86929,0.07986895,0.7454
611.415,66.38213,-2.87179,0.07739721,0.74477
612.115,66.45271,-2.87205,0.0760333,0.74414
612.815,66.523,-2.87235,0.07522197,0.7435
613.515,66.5932,-2.87169,0.07843542,0.74287
614.215,66.66349,-2.8729,0.07811681,0.74224
614.915,66.73388,-2.874,0.07770716,0.7416
615.615,66.804,-2.87399,0.07836704,0.74097
616.315,66.8741,-2.87531,0.0803762,0.74034
617.015,66.94435,-2.87531,0.07842473,0.7397
617.715,67.0145,-2.87533,0.0788132,0.73907
618.415,67.0846,-2.87663,0.08039798,0.73843
619.115,67.1545,-2.87539,0.07983246,0.7378
619.815,67.2247,-2.87526,0.07980885,0.73716
620.515,67.295,-2.87662,0.082869,0.73653
621.215,67.36528,-2.87794,0.08489066,0.73589
621.915,67.43556,-2.87794,0.08268569,0.73526
622.615,67.50542,-2.87923,0.0842144,0.73462
623.315,67.5757,-2.8785,0.08413691,0.73399
624.015,67.64621,-2.87992,0.08442309,0.73335
624.715,67.7171,-2.87992,0.08556222,0.73272
625.415,67.78758,-2.87992,0.08443674,0.73208
626.115,67.85797,-2.87992,0.08556827,0.73144
626.815,67.92832,-2.88123,0.08626384,0.73081
627.515,67.99866,-2.88059,0.08461593,0.73017
628.215,68.06915,-2.8819,0.08330745,0.72954
628.915,68.13971,-2.8819,0.08831145,0.7289
629.615,68.21016,-2.88364,0.08611667,0.72826
630.315,68.28036,-2.88299,0.08616416,0.72763
631.015,68.35075,-2.88331,0.08480484,0.72699
631.715,68.4212,-2.88431,0.08702367,0.72635
632.415,68.49189,-2.88431,0.08584573,0.72572
633.115,68.5624,-2.88414,0.08738352,0.72508
633.815,68.63275,-2.88366,0.08946813,0.72444
634.515,68.703,-2.88496,0.08922169,0.7238
635.215,68.77336,-2.88496,0.08767066,0.72317
635.915,68.84396,-2.88594,0.09047342,0.72253
636.615,68.91455,-2.88628,0.09021753,0.72189
637.315,68.98499,-2.88759,0.08944039,0.72125
638.015,69.05544,-2.8876,0.08920238,0.72061
638.715,69.12604,-2.88762,0.08895563,0.71998
639.415,69.19655,-2.88858,0.08777862,0.71934
640.115,69.26701,-2.88988,0.09018257,0.7187
640.815,69.33728,-2.88859,0.0903869,0.71806
641.515,69.4079,-2.8886,0.08640509,0.71742
642.215,69.47847,-2.8899,0.08704995,0.71678
642.915,69.54908,-2.8899,0.085524,0.71614
643.615,69.61933,-2.8899,0.0857907,0.71551
644.315,69.68949,-2.89085,0.08645206,0.71487
645.015,69.7599,-2.89122,0.08779949,0.71423
645.715,69.83055,-2.8899,0.0873335,0.71359
646.415,69.90115,-2.89121,0.08465858,0.71295
647.115,69.97159,-2.89056,0.09042746,0.71231
647.815,70.04211,-2.89054,0.08593164,0.71167
648.515,70.11301,-2.89328,0.08661611,0.71103
649.215,70.18374,-2.89319,0.08323121,0.71039
649.915,70.25448,-2.89421,0.08107376,0.70975
650.615,70.325,-2.89451,0.08525994,0.70911
651.315,70.3956,-2.89451,0.08372378,0.70847
652.015,70.46625,-2.89451,0.08043356,0.70783
652.715,70.53679,-2.8942,0.08162192,0.70719
653.415,70.60754,-2.8945,0.07814697,0.70655
654.115,70.67817,-2.89582,0.0813178,0.70591
654.815,70.74885,-2.89582,0.07978076,0.70527
655.515,70.81931,-2.8977,0.08181758,0.70463
656.215,70.8898,-2.89846,0.07956269,0.70399
656.915,70.96051,-2.89812,0.083044,0.70335
657.615,71.0313,-2.89812,0.07676245,0.70271
658.315,71.10209,-2.89848,0.07818426,0.70207
659.015,71.17288,-2.89845,0.08023603,0.70143
659.715,71.24367,-2.89977,0.0815189,0.70079
660.415,71.31435,-2.89877,0.07902342,0.70015
661.115,71.3849,-2.89978,0.080437,0.69951
661.815,71.4556,-2.89978,0.07825056,0.69887
662.515,71.52629,-2.89978,0.07733488,0.69822
663.215,71.59698,-2.89978,0.07595946,0.69758
663.915,71.66763,-2.89969,0.08104311,0.69694
664.615,71.7384,-2.90109,0.07731518,0.6963
665.315,71.80921,-2.90242,0.0787731,0.69566
666.015,71.88,-2.90241,0.07630578,0.69502
666.715,71.9508,-2.90241,0.07614108,0.69438
667.415,72.02145,-2.90187,0.07827069,0.69374
668.115,72.092,-2.9024,0.07509008,0.69309
668.815,72.16254,-2.9024,0.07498408,0.69245
669.515,72.23316,-2.9024,0.07316381,0.69181
670.215,72.30386,-2.90372,0.07378503,0.69117
670.915,72.37434,-2.90372,0.07300154,0.69053
671.615,72.44492,-2.90417,0.07422503,0.68989
672.315,72.51558,-2.90511,0.0740964,0.68924
673.015,72.5864,-2.90404,0.07120349,0.6886
673.715,72.6571,-2.90536,0.07036069,0.68796
674.415,72.72789,-2.90536,0.0708329,0.68732
675.115,72.7987,-2.90536,0.0705034,0.68668
675.815,72.86954,-2.90598,0.07047257,0.68604
676.515,72.94029,-2.90668,0.06669204,0.68539
677.215,73.01119,-2.90668,0.06763336,0.68475
677.915,73.08196,-2.90668,0.06252584,0.68411
678.615,73.15266,-2.90727,0.06039171,0.68347
679.315,73.22333,-2.908,0.06048121,0.68283
680.015,73.29409,-2.908,0.06051387,0.68218
680.715,73.36508,-2.90932,0.05844379,0.68154
681.415,73.4359,-2.90931,0.06426746,0.6809
682.115,73.50662,-2.90931,0.0713181,0.68026
682.815,73.57725,-2.91062,0.06955446,0.67961
683.515,73.64798,-2.91063,0.06430735,0.67897
684.215,73.71889,-2.9103,0.06581505,0.67833
684.915,73.78996,-2.91162,0.06810026,0.67769
685.615,73.8608,-2.91162,0.06873697,0.67705
686.315,73.9316,-2.91162,0.0629041,0.6764
687.015,74.00222,-2.91167,0.06492445,0.67576
687.715,74.07291,-2.91162,0.06526595,0.67512
688.415,74.14369,-2.91259,0.06346333,0.67448
689.115,74.21467,-2.91261,0.06382364,0.67383
689.815,74.2855,-2.91271,0.06307396,0.67319
690.515,74.35624,-2.91271,0.06256924,0.67255
691.215,74.427,-2.91403,0.06470216,0.67191
691.915,74.49791,-2.91446,0.06378075,0.67126
692.615,74.56878,-2.91568,0.06268249,0.67062
693.315,74.6395,-2.91568,0.06144691,0.66998
694.015,74.71001,-2.91568,0.0592157,0.66934
694.715,74.78068,-2.91568,0.06380493,0.66869
695.415,74.8514,-2.91568,0.05962461,0.66805
696.115,74.92241,-2.91568,0.061081,0.66741
696.815,74.99338,-2.91561,0.0612262,0.66677
697.515,75.06433,-2.91699,0.05969466,0.66612
698.215,75.13517,-2.91667,0.0569153,0.66548
698.915,75.20594,-2.91535,0.05755975,0.66484
699.615,75.27649,-2.91674,0.05455891,0.6642
700.315,75.34703,-2.91667,0.05527583,0.66355
701.015,75.41764,-2.91798,0.05384013,0.66291
701.715,75.4886,-2.91667,0.05675594,0.66227
702.415,75.5594,-2.9176,0.05646656,0.66163
703.115,75.63025,-2.91798,0.05516668,0.66099
703.815,75.70101,-2.91666,0.05715235,0.66034
704.515,75.77163,-2.91664,0.05541429,0.6597
705.215,75.8424,-2.91798,0.05203302,0.65906
705.915,75.91305,-2.91894,0.05439989,0.65842
706.615,75.9838,-2.91932,0.05293116,0.65777
707.315,76.05455,-2.91897,0.05282883,0.65713
708.015,76.1254,-2.91897,0.05274793,0.65649
708.715,76.19654,-2.92028,0.05093344,0.65585
709.415,76.2674,-2.92061,0.04699702,0.65521
710.115,76.33851,-2.92061,0.05192941,0.65456
710.815,76.40929,-2.92061,0.04748769,0.65392
711.515,76.48012,-2.92028,0.04612258,0.65328
712.215,76.55094,-2.9216,0.04959416,0.65264
712.915,76.62176,-2.9216,0.05250523,0.65199
713.615,76.6926,-2.92269,0.04524637,0.65135
714.315,76.76345,-2.92193,0.04686168,0.65071
715.015,76.83434,-2.92193,0.04694191,0.65007
715.715,76.9054,-2.92193,0.04657841,0.64943
716.415,76.97635,-2.92263,0.04110871,0.64878
717.115,77.04726,-2.92324,0.03966189,0.64814
717.815,77.11791,-2.92226,0.03978687,0.6475
718.515,77.18885,-2.92226,0.03910416,0.64686
719.215,77.2598,-2.92358,0.03977794,0.64622
719.915,77.33106,-2.92251,0.03815815,0.64558
720.615,77.40204,-2.92356,0.03700772,0.64493
721.315,77.47314,-2.92553,0.03988501,0.64429
722.015,77.54414,-2.92489,0.03976318,0.64365
722.715,77.615,-2.92489,0.03744212,0.64301
723.415,77.6857,-2.92583,0.03534945,0.64237
724.115,77.75636,-2.92621,0.03105476,0.64173
724.815,77.8271,-2.92621,0.03830855,0.64109
725.515,77.89823,-2.92489,0.0324808,0.64044
726.215,77.96938,-2.92489,0.03236435,0.6398
726.915,78.0403,-2.92489,0.03338131,0.63916
727.615,78.1112,-2.92621,0.03551717,0.63852
728.315,78.18195,-2.92622,0.03238618,0.63788
729.015,78.25291,-2.92688,0.03372202,0.63724
729.715,78.3236,-2.92617,0.03689674,0.6366
730.415,78.39454,-2.9262,0.02938071,0.63596
731.115,78.46556,-2.9262,0.03255799,0.63532
731.815,78.53661,-2.9262,0.0377759,0.63468
732.515,78.60769,-2.92751,0.03250182,0.63403
733.215,78.67879,-2.92753,0.03368746,0.63339
733.915,78.74993,-2.92687,0.03382498,0.63275
734.615,78.82115,-2.92687,0.0319442,0.63211
735.315,78.89229,-2.92683,0.03109946,0.63147
736.015,78.96324,-2.92819,0.03295917,0.63083
736.715,79.03411,-2.92819,0.03239113,0.63019
737.415,79.10505,-2.92902,0.03367409,0.62955
738.115,79.17608,-2.92884,0.03117944,0.62891
738.815,79.2471,-2.92819,0.03301454,0.62827
739.515,79.318,-2.92818,0.03591812,0.62763
740.215,79.3889,-2.92818,0.03261741,0.62699
740.915,79.4597,-2.92818,0.03738388,0.62635
741.615,79.5304,-2.92819,0.03624713,0.62571
742.315,79.60115,-2.9295,0.03687592,0.62507
743.015,79.67203,-2.9295,0.03525434,0.62443
743.715,79.74315,-2.92951,0.03714759,0.62379
744.415,79.81416,-2.93049,0.03578796,0.62315
745.115,79.88521,-2.93049,0.03593133,0.62251
745.815,79.95626,-2.9307,0.03318945,0.62187
746.215,79.99706,-2.93181,0.03629796,0.62151