File: 01_Data/Eucalyptus_Flooring/STA/N2/10K_min/Eucalyptus_Flooring_STA_N2_10KData_211012_R3.csv
##Temp./Â°C,Time/min,Mass loss(subtr.2)/mg,DSC(subtr.2)/(mW/mg),Sensit./(uV/mW)
49.404,10.00917,-0.05473,0.01057171,1.07446
50.104,10.77137,-0.05517612,0.04217855,1.07441
50.804,10.9754,-0.05650324,0.06066213,1.07436
51.504,11.1294,-0.05617306,0.07970559,1.07431
52.204,11.25842,-0.05678675,0.09377421,1.07426
52.904,11.3744,-0.05841993,0.10695,1.07421
53.604,11.48213,-0.05822946,0.12042,1.07416
54.304,11.58202,-0.05966481,0.13021,1.0741
55.004,11.67795,-0.05834936,0.14118,1.07404
55.704,11.77023,-0.05873286,0.14857,1.07399
56.404,11.85838,-0.05956027,0.15493,1.07393
57.104,11.94554,-0.059245,0.16209,1.07387
57.804,12.03012,-0.05919028,0.16798,1.07381
58.504,12.11365,-0.05914757,0.17308,1.07374
59.204,12.19489,-0.05959079,0.17805,1.07368
59.904,12.2759,-0.06115494,0.18348,1.07362
60.604,12.35629,-0.06082749,0.18801,1.07355
61.304,12.43622,-0.05977109,0.18954,1.07348
62.004,12.5151,-0.061191,0.19475,1.07342
62.704,12.59322,-0.06121249,0.19719,1.07335
63.404,12.67101,-0.06122698,0.19952,1.07328
64.104,12.74843,-0.06239994,0.20176,1.0732
64.804,12.8254,-0.06092962,0.20498,1.07313
65.504,12.90226,-0.06248055,0.20784,1.07306
66.204,12.97896,-0.06109915,0.20959,1.07298
66.904,13.05523,-0.06206207,0.21305,1.07291
67.604,13.1313,-0.06243397,0.21489,1.07283
68.304,13.2069,-0.06258573,0.2171,1.07275
69.004,13.2823,-0.06364215,0.22055,1.07267
69.704,13.35731,-0.06392882,0.22233,1.07259
70.404,13.4323,-0.06504921,0.22575,1.07251
71.104,13.5072,-0.0650371,0.22727,1.07243
71.804,13.58174,-0.0663668,0.22948,1.07234
72.504,13.65584,-0.06636799,0.23221,1.07226
73.204,13.72986,-0.06767045,0.23431,1.07217
73.904,13.80383,-0.06636163,0.23563,1.07208
74.604,13.87788,-0.06768256,0.23763,1.072
75.304,13.9516,-0.06899683,0.23746,1.07191
76.004,14.02519,-0.06907149,0.2403,1.07182
76.704,14.0987,-0.06899993,0.24229,1.07172
77.404,14.1721,-0.07029677,0.24342,1.07163
78.104,14.2449,-0.07031,0.24459,1.07154
78.804,14.3173,-0.07030712,0.24758,1.07144
79.504,14.38996,-0.07061393,0.24983,1.07134
80.204,14.46277,-0.07031134,0.24928,1.07125
80.904,14.53524,-0.0715673,0.24925,1.07115
81.604,14.6074,-0.07293515,0.25257,1.07105
82.304,14.6794,-0.07294021,0.25156,1.07095
83.004,14.75133,-0.07425595,0.25315,1.07085
83.704,14.8232,-0.07322115,0.2561,1.07074
84.404,14.89465,-0.07459003,0.25418,1.07064
85.104,14.9661,-0.0745895,0.25504,1.07053
85.804,15.0371,-0.07591277,0.25573,1.07043
86.504,15.1081,-0.07591007,0.2565,1.07032
87.204,15.17884,-0.07721863,0.25794,1.07021
87.904,15.2499,-0.07691295,0.25607,1.0701
88.604,15.3206,-0.07689058,0.25746,1.06999
89.304,15.39143,-0.07689226,0.25773,1.06988
90.004,15.46175,-0.07624477,0.2566,1.06976
90.704,15.53215,-0.07754961,0.25762,1.06965
91.404,15.6024,-0.07887004,0.25671,1.06953
92.104,15.6725,-0.07821199,0.25624,1.06941
92.804,15.74255,-0.07951624,0.25357,1.0693
93.504,15.8122,-0.08025846,0.25358,1.06918
94.204,15.8818,-0.08019062,0.25657,1.06906
94.904,15.95146,-0.07969339,0.25391,1.06894
95.604,16.0213,-0.08084041,0.25202,1.06881
96.304,16.09106,-0.08084,0.25108,1.06869
97.004,16.16057,-0.08083829,0.25169,1.06857
97.704,16.23,-0.08216023,0.25091,1.06844
98.404,16.2993,-0.08283058,0.2488,1.06831
99.104,16.3685,-0.08214176,0.25036,1.06819
99.804,16.43737,-0.08207636,0.24892,1.06806
100.504,16.5062,-0.08347002,0.24966,1.06793
101.204,16.57515,-0.08347,0.2477,1.06779
101.904,16.64413,-0.08348297,0.24719,1.06766
102.604,16.71322,-0.08478901,0.2466,1.06753
103.304,16.78223,-0.08479441,0.24628,1.06739
104.004,16.85117,-0.08476872,0.24488,1.06726
104.704,16.92012,-0.08479002,0.24329,1.06712
105.404,16.9889,-0.08611482,0.2436,1.06698
106.104,17.05782,-0.08611,0.24249,1.06684
106.804,17.1266,-0.08730826,0.24269,1.0667
107.504,17.19524,-0.08610013,0.24397,1.06656
108.204,17.26393,-0.08734798,0.24491,1.06642
108.904,17.3326,-0.08674125,0.24207,1.06628
109.604,17.40119,-0.08610002,0.2442,1.06613
110.304,17.46979,-0.08763923,0.24423,1.06599
111.004,17.5385,-0.087641,0.2439,1.06584
111.704,17.60727,-0.08764119,0.24282,1.06569
112.404,17.67576,-0.0876364,0.2418,1.06554
113.104,17.74415,-0.08895689,0.24233,1.06539
113.804,17.81269,-0.08763627,0.2442,1.06524
114.504,17.88138,-0.08764,0.24347,1.06509
115.204,17.95,-0.08764215,0.24574,1.06493
115.904,18.01877,-0.08896025,0.24342,1.06478
116.604,18.08734,-0.08895953,0.24378,1.06462
117.304,18.15612,-0.08956997,0.24493,1.06447
118.004,18.2245,-0.08961001,0.24655,1.06431
118.704,18.29278,-0.08964501,0.2481,1.06415
119.404,18.36114,-0.09092259,0.24727,1.06399
120.104,18.4295,-0.09128428,0.24609,1.06383
120.804,18.49819,-0.09158327,0.24685,1.06367
121.504,18.56656,-0.09028051,0.2471,1.0635
122.204,18.63495,-0.09027999,0.2484,1.06334
122.904,18.70297,-0.09031818,0.24919,1.06317
123.604,18.77063,-0.09158995,0.25043,1.063
124.304,18.83877,-0.09291643,0.25349,1.06284
125.004,18.90709,-0.09174614,0.25337,1.06267
125.704,18.97552,-0.09158998,0.25384,1.0625
126.404,19.0438,-0.09159,0.25218,1.06233
127.104,19.11191,-0.09159753,0.25515,1.06215
127.804,19.18011,-0.09290951,0.25445,1.06198
128.504,19.24822,-0.09291,0.25724,1.06181
129.204,19.31606,-0.09291078,0.25706,1.06163
129.904,19.38387,-0.09323239,0.25832,1.06145
130.604,19.45158,-0.09319553,0.2579,1.06128
131.304,19.51953,-0.09225154,0.25838,1.0611
132.004,19.5877,-0.09323284,0.26037,1.06092
132.704,19.65581,-0.09322816,0.26131,1.06074
133.404,19.72387,-0.09333368,0.26486,1.06056
134.104,19.79169,-0.0931914,0.26369,1.06037
134.804,19.8594,-0.09455187,0.26447,1.06019
135.504,19.92687,-0.09453866,0.26668,1.06
136.204,19.99447,-0.09454997,0.26624,1.05982
136.904,20.06233,-0.0948113,0.26672,1.05963
137.604,20.13009,-0.09587,0.2673,1.05944
138.304,20.198,-0.09586973,0.26736,1.05925
139.004,20.2656,-0.09719865,0.26819,1.05906
139.704,20.33351,-0.09586639,0.27098,1.05887
140.404,20.40113,-0.09716932,0.27141,1.05868
141.104,20.46879,-0.09847715,0.27122,1.05848
141.804,20.53645,-0.09856639,0.27315,1.05829
142.504,20.60419,-0.09784009,0.27448,1.05809
143.204,20.67195,-0.09784,0.27458,1.05789
143.904,20.73934,-0.09784,0.27691,1.05769
144.604,20.80718,-0.09803058,0.27492,1.0575
145.304,20.8748,-0.09915988,0.27746,1.0573
146.004,20.9427,-0.09916,0.27745,1.05709
146.704,21.01023,-0.09915964,0.27887,1.05689
147.404,21.07789,-0.09981836,0.27766,1.05669
148.104,21.14549,-0.09982,0.28067,1.05648
148.804,21.21303,-0.09982078,0.28095,1.05628
149.504,21.28059,-0.10158,0.28109,1.05607
150.204,21.34797,-0.10221,0.28413,1.05586
150.904,21.41538,-0.10114,0.28429,1.05565
151.604,21.48263,-0.10245,0.28549,1.05544
152.304,21.55004,-0.10109,0.2885,1.05523
153.004,21.61731,-0.10113,0.28645,1.05502
153.704,21.68468,-0.10244,0.28953,1.05481
154.404,21.75181,-0.10266,0.29183,1.05459
155.104,21.81908,-0.10377,0.29358,1.05438
155.804,21.88632,-0.10392,0.29484,1.05416
156.504,21.9537,-0.10444,0.29453,1.05394
157.204,22.0208,-0.10442,0.29724,1.05373
157.904,22.0879,-0.10442,0.29726,1.05351
158.604,22.155,-0.10574,0.29699,1.05329
159.304,22.2224,-0.10702,0.2981,1.05306
160.004,22.28988,-0.10705,0.29922,1.05284
160.704,22.35724,-0.10574,0.30067,1.05262
161.404,22.42458,-0.108,0.30018,1.05239
162.104,22.49172,-0.10837,0.30088,1.05217
162.804,22.559,-0.10969,0.29982,1.05194
163.504,22.6262,-0.10969,0.30341,1.05171
164.204,22.69359,-0.10969,0.30316,1.05148
164.904,22.76085,-0.11018,0.30398,1.05125
165.604,22.82806,-0.111,0.30269,1.05102
166.304,22.8953,-0.1124,0.30358,1.05079
167.004,22.96254,-0.11232,0.30389,1.05056
167.704,23.02967,-0.11232,0.30405,1.05032
168.404,23.09685,-0.11363,0.30787,1.05009
169.104,23.16403,-0.11495,0.3089,1.04985
169.804,23.23135,-0.11495,0.30795,1.04961
170.504,23.2984,-0.11627,0.30973,1.04937
171.204,23.36536,-0.11626,0.31122,1.04914
171.904,23.43211,-0.11624,0.31294,1.04889
172.604,23.49936,-0.11659,0.31213,1.04865
173.304,23.56665,-0.11661,0.31344,1.04841
174.004,23.63428,-0.11805,0.31163,1.04817
174.704,23.70157,-0.1189,0.31384,1.04792
175.404,23.7691,-0.1189,0.31589,1.04768
176.104,23.83607,-0.11953,0.31545,1.04743
176.804,23.90318,-0.12154,0.31663,1.04718
177.504,23.9701,-0.12154,0.31601,1.04693
178.204,24.03722,-0.12154,0.31485,1.04668
178.904,24.10441,-0.12154,0.31673,1.04643
179.604,24.17166,-0.12325,0.31745,1.04618
180.304,24.23882,-0.12416,0.31589,1.04593
181.004,24.3061,-0.12416,0.31641,1.04567
181.704,24.3733,-0.12558,0.31658,1.04542
182.404,24.4405,-0.12548,0.31729,1.04516
183.104,24.50755,-0.12679,0.3195,1.04491
183.804,24.57473,-0.12679,0.31682,1.04465
184.504,24.6419,-0.12811,0.31965,1.04439
185.204,24.70908,-0.12811,0.31802,1.04413
185.904,24.7763,-0.1281,0.31787,1.04387
186.604,24.8433,-0.13079,0.31851,1.04361
187.304,24.91045,-0.13075,0.31952,1.04334
188.004,24.97764,-0.13177,0.318,1.04308
188.704,25.04469,-0.13192,0.31969,1.04281
189.404,25.11167,-0.1323,0.32373,1.04255
190.104,25.17853,-0.13469,0.32202,1.04228
190.804,25.24553,-0.1348,0.31859,1.04201
191.504,25.31235,-0.13601,0.32183,1.04174
192.204,25.3792,-0.13601,0.32302,1.04147
192.904,25.44606,-0.13819,0.32234,1.0412
193.604,25.51315,-0.13996,0.32522,1.04093
194.304,25.5804,-0.14128,0.32235,1.04066
195.004,25.6476,-0.14128,0.32463,1.04038
195.704,25.71453,-0.14259,0.32559,1.04011
196.404,25.7814,-0.14258,0.32743,1.03983
197.104,25.84814,-0.14522,0.32704,1.03955
197.804,25.91506,-0.14654,0.32501,1.03928
198.504,25.98199,-0.14785,0.32609,1.039
199.204,26.0491,-0.14785,0.32789,1.03872
199.904,26.1161,-0.14881,0.32641,1.03843
200.604,26.18299,-0.15013,0.32611,1.03815
201.304,26.2497,-0.15148,0.32734,1.03787
202.004,26.31646,-0.15218,0.32704,1.03758
202.704,26.38345,-0.15282,0.32719,1.0373
203.404,26.45032,-0.15426,0.32881,1.03701
204.104,26.51731,-0.1559,0.32808,1.03673
204.804,26.58401,-0.1585,0.33045,1.03644
205.504,26.6509,-0.15981,0.32901,1.03615
206.204,26.71763,-0.15979,0.32652,1.03586
206.904,26.78466,-0.16112,0.33043,1.03557
207.604,26.8515,-0.16247,0.32924,1.03528
208.304,26.91856,-0.16377,0.32869,1.03498
209.004,26.9855,-0.1651,0.33063,1.03469
209.704,27.05245,-0.16858,0.32897,1.03439
210.404,27.1194,-0.17023,0.32751,1.0341
211.104,27.1866,-0.17154,0.32683,1.0338
211.804,27.25364,-0.17177,0.32693,1.0335
212.504,27.3202,-0.17331,0.32744,1.0332
213.204,27.38686,-0.17581,0.32556,1.0329
213.904,27.4536,-0.17638,0.32801,1.0326
214.604,27.52058,-0.17956,0.32445,1.0323
215.304,27.5877,-0.1812,0.32483,1.032
216.004,27.6548,-0.1823,0.32383,1.03169
216.704,27.72195,-0.18383,0.32429,1.03139
217.404,27.7889,-0.18515,0.32412,1.03108
218.104,27.85582,-0.18649,0.3243,1.03077
218.804,27.9229,-0.1877,0.324,1.03047
219.504,27.98975,-0.1908,0.32468,1.03016
220.204,28.05695,-0.19328,0.32157,1.02985
220.904,28.12387,-0.19465,0.32039,1.02954
221.604,28.191,-0.19723,0.32024,1.02923
222.304,28.25795,-0.19854,0.32018,1.02891
223.004,28.3249,-0.20101,0.31772,1.0286
223.704,28.3918,-0.2027,0.31581,1.02829
224.404,28.45865,-0.20531,0.31726,1.02797
225.104,28.52542,-0.20665,0.31477,1.02765
225.804,28.59239,-0.20691,0.31302,1.02734
226.504,28.65938,-0.20939,0.31333,1.02702
227.204,28.7263,-0.21212,0.31322,1.0267
227.904,28.79315,-0.21566,0.31074,1.02638
228.604,28.8602,-0.21761,0.3114,1.02606
229.304,28.9272,-0.2201,0.30867,1.02573
230.004,28.99413,-0.22155,0.30949,1.02541
230.704,29.0609,-0.22308,0.30837,1.02509
231.404,29.12782,-0.2271,0.30747,1.02476
232.104,29.1948,-0.2309,0.30562,1.02444
232.804,29.26172,-0.23182,0.30564,1.02411
233.504,29.32848,-0.23436,0.30394,1.02378
234.204,29.39527,-0.23767,0.30514,1.02345
234.904,29.46201,-0.24023,0.3026,1.02312
235.604,29.5291,-0.24329,0.30024,1.02279
236.304,29.59625,-0.2453,0.29977,1.02246
237.004,29.66337,-0.2486,0.29916,1.02213
237.704,29.73013,-0.25168,0.29772,1.02179
238.404,29.79707,-0.25487,0.29622,1.02146
239.104,29.86407,-0.25887,0.29658,1.02112
239.804,29.9312,-0.26065,0.2931,1.02079
240.504,29.9984,-0.2637,0.29309,1.02045
241.204,30.06545,-0.26648,0.29087,1.02011
241.904,30.1325,-0.26845,0.28976,1.01977
242.604,30.19942,-0.27051,0.28859,1.01943
243.304,30.26622,-0.27559,0.28546,1.01909
244.004,30.333,-0.27868,0.28553,1.01875
244.704,30.40005,-0.28204,0.28377,1.01841
245.404,30.467,-0.2861,0.2834,1.01806
246.104,30.5341,-0.28928,0.28174,1.01772
246.804,30.6006,-0.29291,0.2812,1.01737
247.504,30.6674,-0.29511,0.27876,1.01702
248.204,30.7342,-0.29935,0.27938,1.01668
248.904,30.80116,-0.30297,0.27729,1.01633
249.604,30.86826,-0.30584,0.27661,1.01598
250.304,30.93505,-0.31241,0.27702,1.01563
251.004,31.00215,-0.31604,0.27549,1.01528
251.704,31.069,-0.31852,0.27441,1.01492
252.404,31.136,-0.32168,0.2733,1.01457
253.104,31.20267,-0.32675,0.27052,1.01422
253.804,31.26956,-0.33163,0.27003,1.01386
254.504,31.33629,-0.33571,0.27075,1.01351
255.204,31.40346,-0.33931,0.27054,1.01315
255.904,31.47014,-0.3438,0.26698,1.01279
256.604,31.5372,-0.34628,0.26416,1.01243
257.304,31.6043,-0.35252,0.26486,1.01207
258.004,31.6715,-0.357,0.26364,1.01171
258.704,31.7385,-0.36059,0.26257,1.01135
259.404,31.80542,-0.36556,0.26148,1.01099
260.104,31.8723,-0.37147,0.26348,1.01063
260.804,31.939,-0.37479,0.25975,1.01026
261.504,32.00595,-0.38177,0.26213,1.0099
262.204,32.07301,-0.38634,0.25915,1.00953
262.904,32.14007,-0.39059,0.25729,1.00917
263.604,32.20718,-0.39579,0.25602,1.0088
264.304,32.27411,-0.40231,0.25653,1.00843
265.004,32.34126,-0.40783,0.25734,1.00806
265.704,32.40834,-0.41343,0.25109,1.00769
266.404,32.47535,-0.41918,0.25135,1.00732
267.104,32.54221,-0.4253,0.25001,1.00695
267.804,32.60918,-0.43162,0.24807,1.00658
268.504,32.6761,-0.43686,0.24811,1.0062
269.204,32.74303,-0.44303,0.24667,1.00583
269.904,32.8097,-0.44888,0.24229,1.00545
270.604,32.87634,-0.45674,0.23971,1.00508
271.304,32.94339,-0.4635,0.24227,1.0047
272.004,33.0099,-0.47007,0.2404,1.00432
272.704,33.07697,-0.47465,0.23512,1.00394
273.404,33.14372,-0.48303,0.2358,1.00356
274.104,33.21094,-0.49049,0.23536,1.00318
274.804,33.27773,-0.49675,0.2334,1.0028
275.504,33.34469,-0.50454,0.23147,1.00242
276.204,33.4118,-0.51184,0.22822,1.00203
276.904,33.4786,-0.51984,0.22635,1.00165
277.604,33.5457,-0.528,0.22667,1.00126
278.304,33.61265,-0.53506,0.22489,1.00088
279.004,33.67954,-0.54353,0.22161,1.00049
279.704,33.7465,-0.5518,0.21919,1.0001
280.404,33.81342,-0.56137,0.21983,0.99971
281.104,33.8807,-0.57028,0.21726,0.99932
281.804,33.9476,-0.57874,0.21513,0.99893
282.504,34.01477,-0.5889,0.21489,0.99854
283.204,34.08183,-0.59727,0.21352,0.99815
283.904,34.1488,-0.6074,0.21029,0.99776
284.604,34.2158,-0.61657,0.2107,0.99736
285.304,34.2829,-0.62667,0.20746,0.99697
286.004,34.34986,-0.63741,0.20896,0.99657
286.704,34.41684,-0.64753,0.20884,0.99618
287.404,34.4839,-0.65912,0.20773,0.99578
288.104,34.55105,-0.67016,0.20626,0.99538
288.804,34.61834,-0.68073,0.20551,0.99498
289.504,34.68565,-0.69237,0.20499,0.99458
290.204,34.75294,-0.70482,0.20518,0.99418
290.904,34.8202,-0.71615,0.20313,0.99378
291.604,34.8876,-0.72792,0.20578,0.99338
292.304,34.9542,-0.74036,0.20644,0.99298
293.004,35.02142,-0.75299,0.2068,0.99257
293.704,35.08824,-0.76564,0.2072,0.99217
294.404,35.15613,-0.77804,0.2073,0.99176
295.104,35.22358,-0.7914,0.21157,0.99136
295.804,35.2911,-0.8041,0.2135,0.99095
296.504,35.35823,-0.81783,0.21448,0.99054
297.204,35.4255,-0.83298,0.21563,0.99013
297.904,35.49284,-0.84529,0.21742,0.98972
298.604,35.56021,-0.85967,0.21923,0.98931
299.304,35.62746,-0.87505,0.22091,0.9889
300.004,35.69461,-0.88901,0.22516,0.98849
300.704,35.76173,-0.90327,0.22478,0.98807
301.404,35.829,-0.91913,0.22622,0.98766
302.104,35.8964,-0.93444,0.23133,0.98725
302.804,35.9639,-0.94904,0.23261,0.98683
303.504,36.03141,-0.9659,0.23415,0.98641
304.204,36.09879,-0.98302,0.23446,0.986
304.904,36.16615,-0.99974,0.23723,0.98558
305.604,36.23341,-1.01518,0.23816,0.98516
306.304,36.30073,-1.03104,0.24153,0.98474
307.004,36.36804,-1.04917,0.24446,0.98432
307.704,36.4354,-1.06582,0.24764,0.9839
308.404,36.5028,-1.08353,0.24864,0.98348
309.104,36.57027,-1.10142,0.2525,0.98305
309.804,36.63797,-1.1216,0.25324,0.98263
310.504,36.70548,-1.13881,0.25757,0.9822
311.204,36.7731,-1.15732,0.25878,0.98178
311.904,36.8403,-1.17609,0.26074,0.98135
312.604,36.9078,-1.1955,0.25959,0.98093
313.304,36.97518,-1.21555,0.25997,0.9805
314.004,37.04291,-1.23433,0.26238,0.98007
314.704,37.1105,-1.2552,0.26303,0.97964
315.404,37.1778,-1.2773,0.26515,0.97921
316.104,37.24516,-1.29739,0.26468,0.97878
316.804,37.31259,-1.31693,0.26574,0.97835
317.504,37.3798,-1.33868,0.26622,0.97792
318.204,37.4474,-1.3606,0.26565,0.97748
318.904,37.51506,-1.38363,0.26486,0.97705
319.604,37.58307,-1.40372,0.26425,0.97661
320.304,37.65083,-1.42696,0.26424,0.97618
321.004,37.71842,-1.45031,0.26509,0.97574
321.704,37.78617,-1.47315,0.25931,0.9753
322.404,37.85366,-1.49662,0.26014,0.97487
323.104,37.92065,-1.51846,0.25725,0.97443
323.804,37.98805,-1.54191,0.25565,0.97399
324.504,38.05556,-1.56591,0.25045,0.97355
325.204,38.12339,-1.58954,0.2481,0.97311
325.904,38.19084,-1.61416,0.24661,0.97266
326.604,38.25841,-1.63817,0.24175,0.97222
327.304,38.3263,-1.66087,0.23471,0.97178
328.004,38.39394,-1.68457,0.23318,0.97133
328.704,38.46167,-1.70801,0.22676,0.97089
329.404,38.52933,-1.73234,0.22256,0.97044
330.104,38.59697,-1.75461,0.21925,0.97
330.804,38.6646,-1.77763,0.21049,0.96955
331.504,38.7322,-1.80131,0.20694,0.9691
332.204,38.79963,-1.82273,0.20012,0.96865
332.904,38.8668,-1.84564,0.19491,0.9682
333.604,38.9341,-1.86765,0.18781,0.96775
334.304,39.0017,-1.88883,0.18266,0.9673
335.004,39.06941,-1.90949,0.17604,0.96685
335.704,39.13702,-1.93093,0.16834,0.9664
336.404,39.20447,-1.95193,0.16323,0.96594
337.104,39.27179,-1.96978,0.15993,0.96549
337.804,39.33905,-1.98858,0.14853,0.96503
338.504,39.40663,-2.00667,0.14285,0.96458
339.204,39.47436,-2.02504,0.139,0.96412
339.904,39.542,-2.04293,0.13311,0.96367
340.604,39.60955,-2.05849,0.12825,0.96321
341.304,39.6771,-2.07421,0.12091,0.96275
342.004,39.74447,-2.08932,0.11812,0.96229
342.704,39.81218,-2.10397,0.11328,0.96183
343.404,39.8798,-2.11603,0.10389,0.96137
344.104,39.94787,-2.12919,0.10202,0.96091
344.804,40.01566,-2.14203,0.0978972,0.96044
345.504,40.0835,-2.15333,0.09371707,0.95998
346.204,40.15126,-2.16513,0.0881521,0.95952
346.904,40.2189,-2.177,0.08449564,0.95905
347.604,40.28644,-2.18526,0.08319595,0.95859
348.304,40.35418,-2.19579,0.08129673,0.95812
349.004,40.42205,-2.20345,0.07578078,0.95766
349.704,40.49005,-2.21346,0.0725274,0.95719
350.404,40.55792,-2.22268,0.07300512,0.95672
351.104,40.62574,-2.22891,0.07063781,0.95625
351.804,40.6936,-2.23715,0.06740276,0.95578
352.504,40.76145,-2.24338,0.06598801,0.95531
353.204,40.82926,-2.24989,0.06481728,0.95484
353.904,40.89725,-2.25774,0.06475591,0.95437
354.604,40.96526,-2.26399,0.06092983,0.9539
355.304,41.0333,-2.26983,0.05588652,0.95342
356.004,41.10132,-2.27585,0.05509028,0.95295
356.704,41.16924,-2.28136,0.05267323,0.95247
357.404,41.23722,-2.28684,0.05240814,0.952
358.104,41.30493,-2.29159,0.04680857,0.95152
358.804,41.37278,-2.29772,0.04713386,0.95105
359.504,41.44072,-2.30173,0.04368959,0.95057
360.204,41.50898,-2.30624,0.04141477,0.95009
360.904,41.57707,-2.31066,0.03697295,0.94961
361.604,41.6452,-2.31428,0.03662664,0.94913
362.304,41.71329,-2.3194,0.03364379,0.94865
363.004,41.78156,-2.32426,0.03354205,0.94817
363.704,41.8495,-2.32932,0.03084764,0.94769
364.404,41.9175,-2.33219,0.02644456,0.94721
365.104,41.98542,-2.33533,0.02430531,0.94672
365.804,42.0537,-2.34028,0.0217038,0.94624
366.504,42.12189,-2.3433,0.01684495,0.94576
367.204,42.19007,-2.34793,0.01684441,0.94527
367.904,42.25824,-2.35104,0.01515021,0.94478
368.604,42.32634,-2.35353,0.01300201,0.9443
369.304,42.39405,-2.35863,0.01042489,0.94381
370.004,42.4621,-2.36198,0.009866945,0.94332
370.704,42.53005,-2.36558,0.00703062,0.94283
371.404,42.59863,-2.36846,0.003603535,0.94235
372.104,42.66679,-2.37213,0.002065986,0.94186
372.804,42.73515,-2.37653,-0.000945305,0.94136
373.504,42.8033,-2.37944,-0.001602173,0.94087
374.204,42.8715,-2.38212,-0.003677304,0.94038
374.904,42.93955,-2.38413,-0.006001509,0.93989
375.604,43.00755,-2.38777,-0.007759366,0.9394
376.304,43.0753,-2.39292,-0.008898536,0.9389
377.004,43.14334,-2.39431,-0.01091126,0.93841
377.704,43.21143,-2.39724,-0.01292664,0.93791
378.404,43.27978,-2.40032,-0.01424848,0.93742
379.104,43.34799,-2.40508,-0.01522026,0.93692
379.804,43.4162,-2.40819,-0.01788452,0.93642
380.504,43.48437,-2.41083,-0.02193925,0.93592
381.204,43.55252,-2.41426,-0.02348764,0.93543
381.904,43.62066,-2.4161,-0.02444076,0.93493
382.604,43.68869,-2.41876,-0.02611053,0.93443
383.304,43.7569,-2.42207,-0.02732008,0.93393
384.004,43.82524,-2.42575,-0.02740678,0.93342
384.704,43.89345,-2.42888,-0.02910159,0.93292
385.404,43.96158,-2.4315,-0.029043,0.93242
386.104,44.02995,-2.43379,-0.0312983,0.93192
386.804,44.09837,-2.43909,-0.03158293,0.93141
387.504,44.16685,-2.43939,-0.0304004,0.93091
388.204,44.23498,-2.44304,-0.03429671,0.9304
388.904,44.3031,-2.44578,-0.0349895,0.9299
389.604,44.3714,-2.4486,-0.03506686,0.92939
390.304,44.43972,-2.45125,-0.03554046,0.92888
391.004,44.50802,-2.454,-0.03849681,0.92838
391.704,44.57633,-2.45692,-0.0382592,0.92787
392.404,44.64457,-2.46064,-0.04244191,0.92736
393.104,44.71297,-2.46394,-0.03953749,0.92685
393.804,44.7813,-2.4667,-0.04063828,0.92634
394.504,44.84959,-2.46908,-0.03854273,0.92583
395.204,44.9178,-2.47187,-0.04122672,0.92532
395.904,44.98561,-2.47264,-0.03964794,0.9248
396.604,45.0539,-2.47551,-0.04010898,0.92429
397.304,45.12253,-2.47958,-0.03594082,0.92378
398.004,45.19129,-2.48215,-0.03731171,0.92326
398.704,45.2599,-2.48424,-0.03843659,0.92275
399.404,45.32833,-2.48684,-0.03753362,0.92223
400.104,45.39683,-2.48973,-0.03978334,0.92172
400.804,45.4651,-2.4922,-0.03821937,0.9212
401.504,45.53334,-2.49538,-0.03471865,0.92069
402.204,45.60161,-2.49694,-0.03564737,0.92017
402.904,45.6701,-2.4985,-0.03681208,0.91965
403.604,45.73859,-2.50247,-0.03771691,0.91913
404.304,45.80702,-2.50536,-0.03437328,0.91861
405.004,45.87531,-2.5079,-0.03606336,0.91809
405.704,45.94372,-2.50922,-0.03433745,0.91757
406.404,46.01201,-2.51016,-0.03391248,0.91705
407.104,46.0806,-2.51315,-0.0353807,0.91653
407.804,46.1492,-2.51511,-0.03121191,0.916
408.504,46.21781,-2.51825,-0.03022656,0.91548
409.204,46.28621,-2.52032,-0.03029602,0.91496
409.904,46.35467,-2.523,-0.02969164,0.91443
410.604,46.4233,-2.52607,-0.0288885,0.91391
411.304,46.49192,-2.52873,-0.02882005,0.91338
412.004,46.56042,-2.53091,-0.02795532,0.91286
412.704,46.62892,-2.53177,-0.02763469,0.91233
413.404,46.69755,-2.5347,-0.02503691,0.9118
414.104,46.76634,-2.53775,-0.02741677,0.91127
414.804,46.83512,-2.54031,-0.02388047,0.91074
415.504,46.90356,-2.54242,-0.0233487,0.91022
416.204,46.9722,-2.54501,-0.0231484,0.90969
416.904,47.04068,-2.54891,-0.02174848,0.90916
417.604,47.10949,-2.55054,-0.02059952,0.90863
418.304,47.17811,-2.55202,-0.01647885,0.90809
419.004,47.24678,-2.55483,-0.01759639,0.90756
419.704,47.3153,-2.55857,-0.01632919,0.90703
420.404,47.38394,-2.56113,-0.01438838,0.9065
421.104,47.4526,-2.56306,-0.01242751,0.90596
421.804,47.52129,-2.56578,-0.01187069,0.90543
422.504,47.58988,-2.56713,-0.01095559,0.90489
423.204,47.65847,-2.57065,-0.006950859,0.90436
423.904,47.72702,-2.57281,-0.009135811,0.90382
424.604,47.79555,-2.57599,-0.008729278,0.90328
425.304,47.86421,-2.57822,-0.006141562,0.90275
426.004,47.93298,-2.58101,-0.003571441,0.90221
426.704,48.00166,-2.58221,-0.002762,0.90167
427.404,48.07035,-2.58463,-0.0005386732,0.90113
428.104,48.1391,-2.5875,-0.0002057015,0.90059
428.804,48.2077,-2.59008,0.00182241,0.90005
429.504,48.27623,-2.59144,0.002591026,0.89951
430.204,48.34472,-2.5941,0.003104205,0.89897
430.904,48.41335,-2.59692,0.006412241,0.89843
431.604,48.4822,-2.5985,0.006424851,0.89789
432.304,48.55108,-2.60058,0.005609763,0.89735
433.004,48.6198,-2.60202,0.01119043,0.8968
433.704,48.68828,-2.60395,0.0073783,0.89626
434.404,48.7569,-2.60692,0.007300835,0.89571
435.104,48.8255,-2.60856,0.01293499,0.89517
435.804,48.89445,-2.6117,0.01236414,0.89462
436.504,48.96327,-2.61364,0.01152454,0.89408
437.204,49.0323,-2.61596,0.01415262,0.89353
437.904,49.10117,-2.61816,0.01574084,0.89298
438.604,49.17004,-2.61877,0.01329127,0.89244
439.304,49.239,-2.6216,0.01423334,0.89189
440.004,49.30805,-2.6236,0.01460765,0.89134
440.704,49.37692,-2.62591,0.01686022,0.89079
441.404,49.4458,-2.62758,0.01679294,0.89024
442.104,49.51449,-2.62971,0.01617351,0.88969
442.804,49.58348,-2.63224,0.0184947,0.88914
443.504,49.6524,-2.63343,0.01782335,0.88859
444.204,49.7213,-2.6356,0.01658362,0.88804
444.904,49.79025,-2.6374,0.01829242,0.88748
445.604,49.85925,-2.63773,0.01813746,0.88693
446.304,49.92857,-2.63998,0.01892579,0.88638
447.004,49.99783,-2.64169,0.01808827,0.88582
447.704,50.067,-2.64328,0.02277127,0.88527
448.404,50.1359,-2.64477,0.0194378,0.88471
449.104,50.205,-2.64608,0.01782502,0.88416
449.804,50.27411,-2.64745,0.01899301,0.8836
450.504,50.34308,-2.64999,0.01854487,0.88305
451.204,50.41195,-2.65267,0.02002478,0.88249
451.904,50.48077,-2.65402,0.01949179,0.88193
452.604,50.54923,-2.65659,0.02084698,0.88137
453.304,50.6182,-2.65798,0.0197259,0.88082
454.004,50.68712,-2.65927,0.0223418,0.88026
454.704,50.75654,-2.66058,0.02071107,0.8797
455.404,50.82545,-2.66182,0.02387898,0.87914
456.104,50.89443,-2.66444,0.02303723,0.87858
456.804,50.96358,-2.66583,0.0203774,0.87802
457.504,51.03269,-2.66837,0.02678631,0.87745
458.204,51.1018,-2.67052,0.02397475,0.87689
458.904,51.17087,-2.67185,0.02718337,0.87633
459.604,51.2401,-2.67317,0.02749994,0.87577
460.304,51.3093,-2.67548,0.02834098,0.8752
461.004,51.37854,-2.67579,0.02473351,0.87464
461.704,51.44773,-2.67705,0.02412479,0.87407
462.404,51.51683,-2.67845,0.02378699,0.87351
463.104,51.58598,-2.68212,0.02445938,0.87294
463.804,51.65527,-2.68389,0.02647785,0.87238
464.504,51.7245,-2.68609,0.02414558,0.87181
465.204,51.7937,-2.68654,0.02411415,0.87125
465.904,51.86298,-2.68791,0.02581985,0.87068
466.604,51.93238,-2.68923,0.02765639,0.87011
467.304,52.00163,-2.69048,0.02667238,0.86954
468.004,52.0706,-2.69089,0.02577563,0.86897
468.704,52.13963,-2.69311,0.02463164,0.8684
469.404,52.20884,-2.69576,0.02375843,0.86783
470.104,52.27805,-2.69704,0.025625,0.86726
470.804,52.34735,-2.69958,0.02592931,0.86669
471.504,52.4165,-2.70014,0.02420653,0.86612
472.204,52.48595,-2.70101,0.02438273,0.86555
472.904,52.55559,-2.70295,0.02624823,0.86498
473.604,52.6253,-2.70475,0.02506624,0.86441
474.304,52.6949,-2.70635,0.02629108,0.86383
475.004,52.7641,-2.7078,0.02720203,0.86326
475.704,52.8332,-2.70903,0.02575661,0.86269
476.404,52.90225,-2.7104,0.02448571,0.86211
477.104,52.97136,-2.71173,0.02467614,0.86154
477.804,53.0406,-2.71166,0.02447427,0.86096
478.504,53.1099,-2.71297,0.02410285,0.86039
479.204,53.1794,-2.71429,0.02665689,0.85981
479.904,53.2489,-2.71561,0.02576722,0.85924
480.604,53.3185,-2.7169,0.02291893,0.85866
481.304,53.3879,-2.71951,0.02707994,0.85808
482.004,53.4568,-2.71948,0.02309866,0.8575
482.704,53.52596,-2.72088,0.02390025,0.85692
483.404,53.5952,-2.72088,0.02456448,0.85635
484.104,53.66505,-2.72227,0.02542059,0.85577
484.804,53.7346,-2.7254,0.02388164,0.85519
485.504,53.8039,-2.72587,0.02577985,0.85461
486.204,53.8732,-2.72656,0.02530896,0.85403
486.904,53.94231,-2.72739,0.02343338,0.85345
487.604,54.01165,-2.7296,0.02668698,0.85287
488.304,54.0809,-2.72977,0.02380456,0.85228
489.004,54.15036,-2.73112,0.02535255,0.8517
489.704,54.21926,-2.7324,0.0258155,0.85112
490.404,54.28833,-2.73372,0.03116297,0.85054
491.104,54.3575,-2.73503,0.03059797,0.84995
491.804,54.42706,-2.73633,0.03084603,0.84937
492.504,54.49635,-2.73634,0.03139263,0.84878
493.204,54.5654,-2.73895,0.03148028,0.8482
493.904,54.63455,-2.73979,0.03566641,0.84762
494.604,54.70375,-2.7403,0.03788717,0.84703
495.304,54.77299,-2.74267,0.03828232,0.84644
496.004,54.8422,-2.74431,0.0376493,0.84586
496.704,54.91143,-2.74422,0.03723741,0.84527
497.404,54.98073,-2.74425,0.03704671,0.84468
498.104,55.05,-2.7456,0.03935874,0.8441
498.804,55.1191,-2.74818,0.03927416,0.84351
499.504,55.18829,-2.74818,0.03990065,0.84292
500.204,55.25779,-2.74952,0.0404319,0.84233
500.904,55.3272,-2.75162,0.03959076,0.84174
501.604,55.3967,-2.75288,0.0414436,0.84115
502.304,55.46604,-2.75348,0.04375684,0.84056
503.004,55.53535,-2.75478,0.04485326,0.83997
503.704,55.60476,-2.75601,0.04435714,0.83938
504.404,55.6743,-2.75698,0.04544936,0.83879
505.104,55.74397,-2.75833,0.04764617,0.8382
505.804,55.8134,-2.7597,0.04777953,0.83761
506.504,55.88306,-2.76101,0.04769585,0.83702
507.204,55.9527,-2.76233,0.04978142,0.83642
507.904,56.02244,-2.76366,0.05062711,0.83583
508.604,56.092,-2.76426,0.05554811,0.83524
509.304,56.16166,-2.76633,0.05602206,0.83464
510.004,56.2312,-2.7676,0.05777284,0.83405
510.704,56.3008,-2.76808,0.05820039,0.83345
511.404,56.37035,-2.76891,0.05683674,0.83286
512.104,56.4398,-2.77023,0.0594525,0.83226
512.804,56.5095,-2.77166,0.0602971,0.83167
513.504,56.5793,-2.77297,0.05966696,0.83107
514.204,56.64918,-2.77429,0.06132139,0.83048
514.904,56.7187,-2.77463,0.06120604,0.82988
515.604,56.7882,-2.77594,0.06309621,0.82928
516.304,56.8577,-2.77851,0.06418537,0.82869
517.004,56.92728,-2.77988,0.06523171,0.82809
517.704,56.9969,-2.7812,0.06260097,0.82749
518.404,57.06654,-2.78227,0.06365444,0.82689
519.104,57.1363,-2.78265,0.06254777,0.82629
519.804,57.20585,-2.78318,0.06571878,0.82569
520.504,57.2753,-2.78448,0.06478258,0.82509
521.204,57.34471,-2.78515,0.0644268,0.82449
521.904,57.4142,-2.78647,0.06629328,0.82389
522.604,57.48359,-2.78778,0.06708016,0.82329
523.304,57.553,-2.78875,0.06481307,0.82269
524.004,57.6224,-2.78911,0.06496603,0.82209
524.704,57.6922,-2.79042,0.06726017,0.82149
525.404,57.7618,-2.79047,0.06682544,0.82089
526.104,57.8312,-2.79172,0.06645496,0.82028
526.804,57.9006,-2.79306,0.06817675,0.81968
527.504,57.9701,-2.79373,0.06749113,0.81908
528.204,58.0398,-2.79502,0.06676136,0.81847
528.904,58.10958,-2.79634,0.06782717,0.81787
529.604,58.1792,-2.79634,0.06949469,0.81727
530.304,58.24867,-2.79668,0.06647271,0.81666
531.004,58.31804,-2.79801,0.06528707,0.81606
531.704,58.3875,-2.79897,0.06840437,0.81545
532.404,58.457,-2.79915,0.06893827,0.81485
533.104,58.52665,-2.80112,0.06676064,0.81424
533.804,58.59632,-2.80096,0.06919994,0.81364
534.504,58.6658,-2.80226,0.069138,0.81303
535.204,58.73535,-2.80261,0.0685119,0.81242
535.904,58.80503,-2.80453,0.06481248,0.81182
536.604,58.87466,-2.80489,0.06596927,0.81121
537.304,58.94406,-2.80621,0.06466603,0.8106
538.004,59.0135,-2.80753,0.06390529,0.80999
538.704,59.08328,-2.80716,0.06679994,0.80938
539.404,59.153,-2.80818,0.06724804,0.80878
540.104,59.22246,-2.81054,0.06474925,0.80817
540.804,59.2921,-2.81093,0.06325166,0.80756
541.504,59.3618,-2.81095,0.06182089,0.80695
542.204,59.43175,-2.81229,0.0619779,0.80634
542.904,59.50127,-2.81258,0.06032773,0.80573
543.604,59.57085,-2.81388,0.05988775,0.80512
544.304,59.64054,-2.8152,0.05494588,0.80451
545.004,59.7105,-2.81656,0.05320246,0.8039
545.704,59.78037,-2.81882,0.05326998,0.80328
546.404,59.85026,-2.81925,0.04919825,0.80267
547.104,59.92015,-2.82014,0.04992671,0.80206
547.804,59.99009,-2.82014,0.04570531,0.80145
548.504,60.0601,-2.82276,0.04628736,0.80084
549.204,60.12996,-2.82147,0.04195708,0.80022
549.904,60.19976,-2.82279,0.04258603,0.79961
550.604,60.2696,-2.82474,0.04382414,0.799
551.304,60.33947,-2.82474,0.04295505,0.79838
552.004,60.4094,-2.82606,0.03626035,0.79777
552.704,60.47915,-2.82738,0.0334849,0.79716
553.404,60.5489,-2.82869,0.03468332,0.79654
554.104,60.61864,-2.82738,0.032784,0.79593
554.804,60.68845,-2.8287,0.02951733,0.79531
555.504,60.7582,-2.83002,0.03315529,0.7947
556.204,60.828,-2.83003,0.0307103,0.79408
556.904,60.8978,-2.83132,0.02902705,0.79346
557.604,60.9676,-2.83034,0.02914091,0.79285
558.304,61.03761,-2.83165,0.02148979,0.79223
559.004,61.10762,-2.83291,0.01900506,0.79161
559.704,61.17776,-2.83298,0.0220092,0.791
560.404,61.2476,-2.83396,0.01542604,0.79038
561.104,61.31762,-2.83517,0.01430551,0.78976
561.804,61.38769,-2.83528,0.01277905,0.78914
562.504,61.4579,-2.83529,0.009357225,0.78853
563.204,61.52785,-2.83521,0.007846735,0.78791
563.904,61.59782,-2.83659,0.00830464,0.78729
564.604,61.6678,-2.83716,0.00557745,0.78667
565.304,61.73799,-2.83791,0.00724947,0.78605
566.004,61.80826,-2.83922,0.001752675,0.78543
566.704,61.8785,-2.84054,0.00366075,0.78481
567.404,61.94866,-2.84055,0.00478519,0.78419
568.104,62.0188,-2.84185,0.002730017,0.78357
568.804,62.0887,-2.84317,0.000648616,0.78295
569.504,62.1586,-2.84449,0.002949648,0.78233
570.204,62.22849,-2.84476,0.004421266,0.78171
570.904,62.2985,-2.84449,0.00440002,0.78109
571.604,62.36863,-2.8445,0.00481159,0.78047
572.304,62.4387,-2.84581,0.003234838,0.77985
573.004,62.50881,-2.84713,0.00144982,0.77922
573.704,62.5788,-2.84975,0.00341122,0.7786
574.404,62.649,-2.84974,0.003606788,0.77798
575.104,62.719,-2.85107,0.005852999,0.77736
575.804,62.78911,-2.85239,0.006091725,0.77673
576.504,62.8591,-2.85239,0.008784282,0.77611
577.204,62.9293,-2.8537,0.00706031,0.77549
577.904,62.99924,-2.85339,0.006827237,0.77486
578.604,63.06924,-2.85404,0.008088089,0.77424
579.304,63.139,-2.85535,0.007869044,0.77362
580.004,63.20904,-2.85667,0.008551286,0.77299
580.704,63.27899,-2.85667,0.009577737,0.77237
581.404,63.349,-2.85666,0.0130295,0.77174
582.104,63.41874,-2.85799,0.01024756,0.77112
582.804,63.48848,-2.8593,0.0152786,0.77049
583.504,63.55829,-2.86062,0.01225125,0.76987
584.204,63.62842,-2.86062,0.01662939,0.76924
584.904,63.69866,-2.86193,0.01618136,0.76862
585.604,63.76886,-2.86193,0.01884323,0.76799
586.304,63.83883,-2.86324,0.02118026,0.76736
587.004,63.90876,-2.86586,0.01909752,0.76674
587.704,63.9787,-2.86588,0.02044016,0.76611
588.404,64.04902,-2.86457,0.02378058,0.76548
589.104,64.1194,-2.86588,0.02256983,0.76486
589.804,64.18982,-2.8672,0.02069244,0.76423
590.504,64.26009,-2.86856,0.02261309,0.7636
591.204,64.33035,-2.8672,0.02628086,0.76298
591.904,64.4006,-2.86798,0.02545856,0.76235
592.604,64.47073,-2.86853,0.03138287,0.76172
593.304,64.5411,-2.87065,0.03261236,0.76109
594.004,64.61129,-2.87115,0.02963248,0.76046
594.704,64.68154,-2.87001,0.0285879,0.75983
595.404,64.75179,-2.87114,0.03157202,0.7592
596.104,64.82226,-2.87114,0.03009834,0.75858
596.804,64.89279,-2.87209,0.03044224,0.75795
597.504,64.96319,-2.87246,0.03077727,0.75732
598.204,65.03364,-2.87143,0.03173204,0.75669
598.904,65.10396,-2.87244,0.03102335,0.75606
599.604,65.17421,-2.87486,0.03317013,0.75543
600.304,65.2445,-2.87476,0.03236134,0.7548
601.004,65.31495,-2.87609,0.03064855,0.75417
601.704,65.38548,-2.87598,0.03297062,0.75354
602.404,65.45578,-2.87739,0.02995603,0.75291
603.104,65.52598,-2.87739,0.03545055,0.75228
603.804,65.59637,-2.87824,0.03383616,0.75164
604.504,65.66666,-2.87734,0.03509897,0.75101
605.204,65.73695,-2.87874,0.03399888,0.75038
605.904,65.80715,-2.87871,0.03152852,0.74975
606.604,65.87745,-2.87999,0.03342716,0.74912
607.304,65.9478,-2.88134,0.03408005,0.74849
608.004,66.01791,-2.88003,0.03611484,0.74785
608.704,66.08836,-2.88133,0.03340941,0.74722
609.404,66.1588,-2.88266,0.03190716,0.74659
610.104,66.2291,-2.88266,0.03551836,0.74596
610.804,66.29942,-2.88398,0.03556319,0.74532
611.504,66.3695,-2.88529,0.03362482,0.74469
612.204,66.43975,-2.88529,0.03702857,0.74406
612.904,66.50986,-2.88437,0.0363562,0.74342
613.604,66.57995,-2.88661,0.03622797,0.74279
614.304,66.6502,-2.8866,0.03550993,0.74216
615.004,66.72024,-2.88661,0.03706191,0.74152
615.704,66.79035,-2.88662,0.03684208,0.74089
616.404,66.86025,-2.88927,0.03885123,0.74026
617.104,66.93075,-2.88924,0.03887183,0.73962
617.804,67.00129,-2.88924,0.03903812,0.73899
618.504,67.0719,-2.88925,0.03683892,0.73835
619.204,67.14206,-2.89057,0.03624189,0.73772
619.904,67.21257,-2.89056,0.03748354,0.73708
620.604,67.28295,-2.89194,0.03612549,0.73645
621.304,67.35342,-2.89122,0.03572904,0.73581
622.004,67.42361,-2.89254,0.03923355,0.73518
622.704,67.49386,-2.89188,0.04082458,0.73454
623.404,67.56405,-2.89186,0.03990651,0.73391
624.104,67.63441,-2.89188,0.04072069,0.73327
624.804,67.70469,-2.89319,0.04363577,0.73264
625.504,67.7749,-2.89436,0.04014116,0.732
626.204,67.84512,-2.89385,0.04046376,0.73136
626.904,67.9157,-2.89397,0.04077543,0.73073
627.604,67.98634,-2.89514,0.04198193,0.73009
628.304,68.05702,-2.8945,0.04073527,0.72946
629.004,68.12737,-2.89551,0.04283059,0.72882
629.704,68.1978,-2.89549,0.04132387,0.72818
630.404,68.26804,-2.89582,0.04162447,0.72755
631.104,68.33836,-2.8948,0.04280306,0.72691
631.804,68.40885,-2.89583,0.04227142,0.72627
632.504,68.4794,-2.89583,0.04336725,0.72563
633.204,68.5502,-2.89714,0.04449325,0.725
633.904,68.62074,-2.89762,0.04198271,0.72436
634.604,68.6912,-2.89706,0.04185577,0.72372
635.304,68.76173,-2.89714,0.04383741,0.72308
636.004,68.83235,-2.89709,0.04422436,0.72245
636.704,68.9028,-2.89913,0.04306555,0.72181
637.404,68.97344,-2.89912,0.04353992,0.72117
638.104,69.044,-2.90052,0.03948176,0.72053
638.804,69.11483,-2.89944,0.04068616,0.71989
639.504,69.18558,-2.89944,0.04344948,0.71926
640.204,69.25639,-2.89911,0.04314201,0.71862
640.904,69.327,-2.89911,0.04412221,0.71798
641.604,69.3978,-2.90043,0.04414436,0.71734
642.304,69.46814,-2.90043,0.04240221,0.7167
643.004,69.5388,-2.90042,0.0427717,0.71606
643.704,69.60941,-2.90273,0.04208747,0.71542
644.404,69.6803,-2.90273,0.03889691,0.71479
645.104,69.75094,-2.90323,0.03924626,0.71415
645.804,69.82169,-2.90273,0.04117764,0.71351
646.504,69.8921,-2.90405,0.04368418,0.71287
647.204,69.96249,-2.90603,0.04299876,0.71223
647.904,70.03282,-2.90537,0.04324439,0.71159
648.604,70.10346,-2.90536,0.04145493,0.71095
649.304,70.17407,-2.90536,0.0435712,0.71031
650.004,70.24458,-2.90536,0.04422566,0.70967
650.704,70.31486,-2.90668,0.04397366,0.70903
651.404,70.38547,-2.90658,0.03988873,0.70839
652.104,70.45609,-2.908,0.04228561,0.70775
652.804,70.52675,-2.908,0.04412746,0.70711
653.504,70.59729,-2.908,0.04217661,0.70647
654.204,70.6678,-2.90898,0.04172067,0.70583
654.904,70.7385,-2.90898,0.04453283,0.70519
655.604,70.80909,-2.9103,0.04059013,0.70455
656.304,70.8793,-2.9103,0.04198292,0.70391
657.004,70.95,-2.91161,0.04198212,0.70327
657.704,71.02054,-2.91163,0.03952698,0.70263
658.404,71.09153,-2.9124,0.03621009,0.70199
659.104,71.16199,-2.91162,0.04089475,0.70135
659.804,71.23263,-2.91295,0.03934564,0.70071
660.504,71.30324,-2.91294,0.04120653,0.70007
661.204,71.37401,-2.91294,0.04067252,0.69942
661.904,71.4449,-2.91303,0.03847232,0.69878
662.604,71.51564,-2.91425,0.0416661,0.69814
663.304,71.58622,-2.91557,0.04104757,0.6975
664.004,71.6567,-2.91557,0.03927807,0.69686
664.704,71.72718,-2.91557,0.03885717,0.69622
665.404,71.79786,-2.91558,0.03981344,0.69558
666.104,71.8686,-2.91689,0.03489872,0.69494
666.804,71.93894,-2.9162,0.03626192,0.6943
667.504,72.00964,-2.91721,0.03840621,0.69365
668.204,72.0801,-2.91721,0.03772477,0.69301
668.904,72.15091,-2.91722,0.03770591,0.69237
669.604,72.22139,-2.91853,0.03940022,0.69173
670.304,72.29196,-2.91985,0.03770399,0.69109
671.004,72.3626,-2.92057,0.03868917,0.69045
671.704,72.43335,-2.9205,0.03682289,0.6898
672.404,72.50426,-2.9205,0.03810986,0.68916
673.104,72.57517,-2.92162,0.03714194,0.68852
673.804,72.6461,-2.92182,0.03284201,0.68788
674.504,72.717,-2.9219,0.03430214,0.68724
675.204,72.78786,-2.92182,0.03670257,0.6866
675.904,72.85862,-2.92182,0.03245235,0.68595
676.604,72.9293,-2.92313,0.03150235,0.68531
677.304,73.00004,-2.92313,0.0278592,0.68467
678.004,73.07098,-2.92445,0.03130623,0.68403
678.704,73.14177,-2.92413,0.03242431,0.68339
679.404,73.21261,-2.92412,0.0303448,0.68274
680.104,73.2834,-2.92401,0.0270918,0.6821
680.804,73.35438,-2.92347,0.02670477,0.68146
681.504,73.42523,-2.92445,0.02540615,0.68082
682.204,73.49606,-2.92479,0.02526732,0.68017
682.904,73.5669,-2.92481,0.02496069,0.67953
683.604,73.63753,-2.9261,0.02585229,0.67889
684.304,73.70819,-2.9261,0.02409986,0.67825
685.004,73.77894,-2.92577,0.0221451,0.67761
685.704,73.8498,-2.92576,0.01800726,0.67696
686.404,73.92068,-2.92709,0.0199815,0.67632
687.104,73.99145,-2.92709,0.02146671,0.67568
687.804,74.06223,-2.92706,0.01981459,0.67504
688.504,74.13308,-2.92709,0.02037618,0.67439
689.204,74.2039,-2.9284,0.01654136,0.67375
689.904,74.27478,-2.9284,0.0152382,0.67311
690.604,74.34557,-2.9284,0.01532564,0.67247
691.304,74.41637,-2.9284,0.01684132,0.67182
692.004,74.487,-2.9284,0.01803411,0.67118
692.704,74.5577,-2.9284,0.01646325,0.67054
693.404,74.6284,-2.92969,0.01698967,0.6699
694.104,74.6991,-2.92972,0.01244378,0.66925
694.804,74.7699,-2.92944,0.01329794,0.66861
695.504,74.8406,-2.92971,0.01841094,0.66797
696.204,74.9114,-2.92971,0.0157077,0.66733
696.904,74.98224,-2.92987,0.01385268,0.66669
697.604,75.05331,-2.9307,0.01195462,0.66604
698.304,75.1243,-2.93211,0.01204086,0.6654
699.004,75.1952,-2.9311,0.009372431,0.66476
699.704,75.26608,-2.93105,0.01073324,0.66412
700.404,75.33678,-2.93228,0.009146699,0.66347
701.104,75.4074,-2.93235,0.006936365,0.66283
701.804,75.47815,-2.93232,0.0070867,0.66219
702.504,75.54902,-2.93366,0.002591144,0.66155
703.204,75.62003,-2.93298,0.002049183,0.6609
703.904,75.69064,-2.93302,0.00720695,0.66026
704.604,75.76114,-2.93268,0.001984094,0.65962
705.304,75.83198,-2.93267,0.002918042,0.65898
706.004,75.90296,-2.93367,-0.000236731,0.65833
706.704,75.9742,-2.93367,-0.006005241,0.65769
707.404,76.04491,-2.93367,-0.002447967,0.65705
708.104,76.1159,-2.93361,-0.00192889,0.65641
708.804,76.18692,-2.93465,-0.0003292526,0.65577
709.504,76.25811,-2.93465,-0.0026683,0.65512
710.204,76.32925,-2.93465,-0.00346367,0.65448
710.904,76.40035,-2.93465,-0.00089286,0.65384
711.604,76.47139,-2.93501,-0.008258831,0.6532
712.304,76.5425,-2.9363,-0.01059485,0.65255
713.004,76.61349,-2.93631,-0.009650768,0.65191
713.704,76.68449,-2.93753,-0.006896323,0.65127
714.404,76.75543,-2.93762,-0.01145026,0.65063
715.104,76.82653,-2.93627,-0.01376096,0.64999
715.804,76.89748,-2.93896,-0.01469022,0.64934
716.504,76.96852,-2.93893,-0.01912238,0.6487
717.204,77.03962,-2.93893,-0.01647774,0.64806
717.904,77.1109,-2.94026,-0.01843785,0.64742
718.604,77.18208,-2.94024,-0.02115742,0.64678
719.304,77.2534,-2.93992,-0.02021635,0.64614
720.004,77.3246,-2.9392,-0.02115382,0.64549
720.704,77.3959,-2.93925,-0.02175317,0.64485
721.404,77.4674,-2.94018,-0.021945,0.64421
722.104,77.53908,-2.94058,-0.02382457,0.64357
722.804,77.61059,-2.94189,-0.02831607,0.64293
723.504,77.68168,-2.94189,-0.02325189,0.64229
724.204,77.75242,-2.94189,-0.02567287,0.64165
724.904,77.8233,-2.94189,-0.02490299,0.641
725.604,77.89406,-2.94208,-0.02485097,0.64036
726.304,77.96494,-2.94286,-0.0276092,0.63972
727.004,78.03554,-2.94288,-0.02782912,0.63908
727.704,78.10616,-2.94185,-0.02700671,0.63844
728.404,78.17647,-2.94151,-0.02852871,0.6378
729.104,78.2471,-2.94288,-0.03022691,0.63716
729.804,78.31772,-2.94288,-0.03081178,0.63652
730.504,78.3886,-2.94288,-0.02892317,0.63588
731.204,78.45915,-2.94288,-0.03427297,0.63523
731.904,78.5296,-2.94288,-0.03154183,0.63459
732.604,78.6001,-2.94394,-0.03284934,0.63395
733.304,78.67067,-2.94418,-0.03344229,0.63331
734.004,78.74133,-2.94321,-0.03806172,0.63267
734.704,78.81189,-2.94321,-0.0350951,0.63203
735.404,78.88235,-2.94453,-0.03689128,0.63139
736.104,78.95304,-2.94452,-0.0362809,0.63075
736.804,79.0238,-2.94387,-0.03621308,0.63011
737.504,79.0947,-2.94395,-0.04016955,0.62947
738.204,79.16553,-2.94518,-0.040304,0.62883
738.904,79.23635,-2.94518,-0.03926912,0.62819
739.604,79.3072,-2.9465,-0.04439227,0.62755
740.304,79.37818,-2.9465,-0.04449152,0.62691
741.004,79.44924,-2.9465,-0.04324388,0.62627
741.704,79.52042,-2.94617,-0.04766591,0.62563
742.404,79.59142,-2.94617,-0.04631625,0.62499
743.104,79.66247,-2.94754,-0.04779681,0.62435
743.804,79.73354,-2.94749,-0.04754627,0.62371
744.504,79.80465,-2.94779,-0.05127303,0.62307
745.204,79.87557,-2.94815,-0.04925162,0.62243
745.904,79.9465,-2.94812,-0.05360126,0.62179
746.404,79.9974,-2.94683,-0.05118452,0.62134