File: 01_Data/Pine_Siding/STA/N2/30K_min/Pine_Siding_STA_N2_30KData_211506_R1.csv
##Temp./Â°C,Time/min,Mass loss(subtr.2)/mg,DSC(subtr.2)/mW,Sensit./(uV/mW)
49.3,10.00917,-0.02906,-0.12956,0.6183
49.9,10.99005,-0.03193129,-0.04075382,0.61862
50.5,11.20407,-0.02886215,0.05027945,0.61894
51.1,11.34827,-0.03047843,0.12882,0.61926
51.7,11.4626,-0.03127016,0.20615,0.61957
52.3,11.55827,-0.0303805,0.27057,0.61989
52.9,11.64148,-0.02921708,0.3354,0.6202
53.5,11.71707,-0.0314901,0.39114,0.62051
54.1,11.7857,-0.03193136,0.44855,0.62082
54.7,11.84895,-0.03062244,0.50571,0.62113
55.3,11.9079,-0.03151593,0.56472,0.62144
55.9,11.96397,-0.03301153,0.604,0.62175
56.5,12.01688,-0.0315085,0.65775,0.62205
57.1,12.06759,-0.03155369,0.70225,0.62236
57.7,12.11588,-0.03279963,0.76084,0.62266
58.3,12.16267,-0.03241398,0.8001,0.62296
58.9,12.2082,-0.03438779,0.84269,0.62326
59.5,12.25164,-0.03403361,0.87542,0.62356
60.1,12.29371,-0.03426589,0.92788,0.62386
60.7,12.3351,-0.03321885,0.96521,0.62416
61.3,12.3755,-0.03241159,0.99799,0.62445
61.9,12.41497,-0.03368698,1.03909,0.62475
62.5,12.45337,-0.03572904,1.07628,0.62504
63.1,12.49094,-0.03629716,1.11236,0.62533
63.7,12.52827,-0.03387464,1.14852,0.62562
64.3,12.56451,-0.03373113,1.16248,0.62591
64.9,12.59989,-0.03293898,1.21648,0.6262
65.5,12.63463,-0.03269492,1.24306,0.62648
66.1,12.66998,-0.03433082,1.28295,0.62677
66.7,12.70497,-0.03507862,1.30154,0.62705
67.3,12.73915,-0.03728957,1.33048,0.62734
67.9,12.77304,-0.03882863,1.37158,0.62762
68.5,12.80645,-0.03767114,1.39678,0.6279
69.1,12.83945,-0.03694392,1.43103,0.62818
69.7,12.872,-0.03690217,1.44276,0.62846
70.3,12.9041,-0.03755733,1.47769,0.62873
70.9,12.936,-0.03747869,1.50248,0.62901
71.5,12.96791,-0.03868995,1.52655,0.62928
72.1,12.99976,-0.03963571,1.54929,0.62955
72.7,13.03103,-0.04029454,1.58001,0.62983
73.3,13.06184,-0.04015378,1.6129,0.6301
73.9,13.0921,-0.03870568,1.64293,0.63037
74.5,13.1227,-0.03882474,1.66608,0.63063
75.1,13.15306,-0.03830313,1.69565,0.6309
75.7,13.18366,-0.03775233,1.7305,0.63117
76.3,13.21349,-0.0387486,1.73473,0.63143
76.9,13.2429,-0.04011338,1.76287,0.63169
77.5,13.272,-0.0402072,1.78366,0.63195
78.1,13.30146,-0.04169646,1.8028,0.63221
78.7,13.33116,-0.04167176,1.83773,0.63247
79.3,13.36074,-0.04100071,1.84886,0.63273
79.9,13.38967,-0.04168881,1.87385,0.63299
80.5,13.4184,-0.04118335,1.89588,0.63324
81.1,13.447,-0.04075433,1.90917,0.6335
81.7,13.4754,-0.04171829,1.92784,0.63375
82.3,13.5038,-0.04391165,1.9547,0.634
82.9,13.5319,-0.04452565,1.99041,0.63425
83.5,13.5598,-0.04539089,1.99884,0.6345
84.1,13.58756,-0.04546584,2.00978,0.63475
84.7,13.615,-0.04408438,2.02997,0.63499
85.3,13.6425,-0.04409012,2.04094,0.63524
85.9,13.66986,-0.04409011,2.07024,0.63548
86.5,13.69716,-0.04426932,2.07629,0.63572
87.1,13.72435,-0.04551765,2.09452,0.63597
87.7,13.75126,-0.04665331,2.11364,0.63621
88.3,13.77789,-0.0467688,2.12212,0.63644
88.9,13.80439,-0.04701308,2.14195,0.63668
89.5,13.8309,-0.04845243,2.15184,0.63692
90.1,13.8574,-0.0486483,2.16079,0.63715
90.7,13.88355,-0.04832728,2.18659,0.63739
91.3,13.90959,-0.04836212,2.20663,0.63762
91.9,13.9354,-0.04975421,2.20524,0.63785
92.5,13.9612,-0.04963955,2.21601,0.63808
93.1,13.98691,-0.05098985,2.22475,0.63831
93.7,14.0124,-0.0507935,2.23796,0.63854
94.3,14.03784,-0.05107409,2.26114,0.63876
94.9,14.06294,-0.05142922,2.2679,0.63899
95.5,14.08804,-0.05254387,2.28138,0.63921
96.1,14.113,-0.05253961,2.28568,0.63943
96.7,14.13807,-0.05253974,2.28836,0.63965
97.3,14.16301,-0.05255976,2.29838,0.63987
97.9,14.18785,-0.05340807,2.2995,0.64009
98.5,14.2125,-0.05385803,2.32119,0.64031
99.1,14.2371,-0.05401369,2.32644,0.64052
99.7,14.2614,-0.05400313,2.32993,0.64074
100.3,14.2857,-0.05384886,2.33962,0.64095
100.9,14.30981,-0.05385673,2.3417,0.64116
101.5,14.33353,-0.05298069,2.34317,0.64138
102.1,14.3575,-0.05286126,2.35428,0.64158
102.7,14.3813,-0.05449963,2.33984,0.64179
103.3,14.40515,-0.05549807,2.34366,0.642
103.9,14.4289,-0.0559154,2.34852,0.64221
104.5,14.45244,-0.05690362,2.35956,0.64241
105.1,14.47596,-0.05692875,2.36779,0.64261
105.7,14.4994,-0.05693001,2.34541,0.64282
106.3,14.52281,-0.05692985,2.35389,0.64302
106.9,14.54611,-0.05692709,2.34754,0.64322
107.5,14.56928,-0.05693282,2.35255,0.64341
108.1,14.59235,-0.05815724,2.35183,0.64361
108.7,14.61527,-0.05807711,2.34403,0.64381
109.3,14.63817,-0.0584549,2.34939,0.644
109.9,14.6609,-0.05844985,2.33654,0.64419
110.5,14.6836,-0.05704361,2.33464,0.64439
111.1,14.70621,-0.05713244,2.33216,0.64458
111.7,14.7287,-0.05712793,2.34151,0.64477
112.3,14.75116,-0.05863221,2.34328,0.64495
112.9,14.7736,-0.05900667,2.33628,0.64514
113.5,14.79595,-0.06013582,2.32312,0.64533
114.1,14.81828,-0.06101033,2.32183,0.64551
114.7,14.84051,-0.06141837,2.32076,0.64569
115.3,14.8626,-0.06140223,2.3068,0.64588
115.9,14.88459,-0.06091679,2.30707,0.64606
116.5,14.90644,-0.06010639,2.2971,0.64624
117.1,14.9282,-0.06011135,2.30883,0.64641
117.7,14.94989,-0.06009031,2.29727,0.64659
118.3,14.97158,-0.06001881,2.30017,0.64677
118.9,14.9932,-0.06001936,2.29977,0.64694
119.5,15.01472,-0.06102024,2.29861,0.64711
120.1,15.0362,-0.06066569,2.29465,0.64729
120.7,15.05744,-0.06065023,2.29302,0.64746
121.3,15.0788,-0.0606486,2.288,0.64762
121.9,15.1002,-0.0602833,2.30348,0.64779
122.5,15.12144,-0.06017606,2.29376,0.64796
123.1,15.1428,-0.06146818,2.29834,0.64813
123.7,15.1638,-0.06185224,2.30378,0.64829
124.3,15.18488,-0.06274613,2.28613,0.64845
124.9,15.2058,-0.06274037,2.29708,0.64861
125.5,15.22681,-0.06274026,2.29987,0.64877
126.1,15.24765,-0.06274257,2.30028,0.64893
126.7,15.2685,-0.06275958,2.29732,0.64909
127.3,15.2891,-0.06142156,2.30203,0.64925
127.9,15.30976,-0.06246126,2.31667,0.6494
128.5,15.33032,-0.062858,2.32641,0.64956
129.1,15.3508,-0.0620535,2.32422,0.64971
129.7,15.37132,-0.06154152,2.32226,0.64986
130.3,15.3917,-0.06152899,2.31873,0.65001
130.9,15.4121,-0.06149889,2.32837,0.65016
131.5,15.43244,-0.06244939,2.33506,0.65031
132.1,15.4526,-0.0626879,2.336,0.65046
132.7,15.47277,-0.06196869,2.3449,0.6506
133.3,15.4928,-0.06270449,2.34754,0.65075
133.9,15.51276,-0.0627375,2.36264,0.65089
134.5,15.5329,-0.06273982,2.36277,0.65103
135.1,15.55282,-0.06273997,2.36557,0.65117
135.7,15.5727,-0.06273981,2.36987,0.65131
136.3,15.59285,-0.06273726,2.39879,0.65145
136.9,15.6126,-0.06270385,2.40998,0.65159
137.5,15.63245,-0.06366838,2.41546,0.65172
138.1,15.65216,-0.0640461,2.41714,0.65186
138.7,15.6719,-0.06470752,2.42986,0.65199
139.3,15.69159,-0.06555507,2.4329,0.65212
139.9,15.7112,-0.06744385,2.44172,0.65225
140.5,15.73081,-0.06815717,2.44992,0.65238
141.1,15.75032,-0.06739363,2.47476,0.65251
141.7,15.7698,-0.06879886,2.47501,0.65263
142.3,15.78916,-0.06877012,2.47316,0.65276
142.9,15.8085,-0.06970133,2.47833,0.65288
143.5,15.8278,-0.07005925,2.48141,0.65301
144.1,15.84711,-0.07172478,2.48028,0.65313
144.7,15.86636,-0.07249252,2.49062,0.65325
145.3,15.88565,-0.07246856,2.49501,0.65337
145.9,15.90492,-0.07385927,2.5035,0.65349
146.5,15.92411,-0.0738021,2.50929,0.6536
147.1,15.9432,-0.07360637,2.52025,0.65372
147.7,15.9624,-0.07162522,2.52996,0.65383
148.3,15.98145,-0.06889745,2.53554,0.65395
148.9,16.00054,-0.0668348,2.54132,0.65406
149.5,16.01963,-0.06545044,2.5381,0.65417
150.1,16.0386,-0.06548487,2.55916,0.65428
150.7,16.0576,-0.06554102,2.56479,0.65439
151.3,16.07648,-0.06393843,2.57525,0.6545
151.9,16.09534,-0.06384874,2.57974,0.6546
152.5,16.11414,-0.06384075,2.58141,0.65471
153.1,16.13297,-0.06383987,2.59264,0.65481
153.7,16.15172,-0.06383823,2.59313,0.65491
154.3,16.17051,-0.06430646,2.59483,0.65501
154.9,16.18937,-0.06525957,2.59602,0.65511
155.5,16.20801,-0.06461998,2.61305,0.65521
156.1,16.22655,-0.06530542,2.62952,0.65531
156.7,16.24517,-0.06523931,2.6175,0.6554
157.3,16.26377,-0.0648427,2.63497,0.6555
157.9,16.28229,-0.06394399,2.64769,0.65559
158.5,16.30096,-0.06394742,2.64526,0.65568
159.1,16.31964,-0.06394264,2.63394,0.65578
159.7,16.33827,-0.06484459,2.64784,0.65587
160.3,16.35677,-0.06538225,2.65689,0.65595
160.9,16.37529,-0.06542302,2.66832,0.65604
161.5,16.3938,-0.06433891,2.67298,0.65613
162.1,16.41231,-0.06406361,2.68726,0.65621
162.7,16.4308,-0.0640507,2.69714,0.6563
163.3,16.44914,-0.06404999,2.70128,0.65638
163.9,16.46753,-0.06404963,2.70468,0.65646
164.5,16.4859,-0.06404307,2.72159,0.65654
165.1,16.50421,-0.06491106,2.73887,0.65662
165.7,16.5225,-0.06533508,2.73309,0.6567
166.3,16.54082,-0.06530448,2.76137,0.65678
166.9,16.5591,-0.06406289,2.78171,0.65685
167.5,16.57732,-0.06402496,2.80696,0.65693
168.1,16.59552,-0.06520777,2.82561,0.657
168.7,16.61371,-0.06537018,2.83103,0.65707
169.3,16.63188,-0.06541685,2.83831,0.65714
169.9,16.65002,-0.06638686,2.8543,0.65721
170.5,16.66819,-0.06635432,2.85644,0.65728
171.1,16.6863,-0.06743758,2.87026,0.65735
171.7,16.70438,-0.06765524,2.88831,0.65741
172.3,16.72244,-0.06776711,2.89562,0.65748
172.9,16.74054,-0.06799443,2.91194,0.65754
173.5,16.7586,-0.06799807,2.91332,0.6576
174.1,16.77662,-0.06911943,2.93398,0.65766
174.7,16.79466,-0.06929761,2.93494,0.65772
175.3,16.81268,-0.0693211,2.95622,0.65778
175.9,16.83059,-0.0693367,2.96524,0.65784
176.5,16.8485,-0.07028542,2.97172,0.6579
177.1,16.86638,-0.0702576,2.97382,0.65795
177.7,16.88425,-0.06685449,2.98322,0.658
178.3,16.90211,-0.06194506,3.01063,0.65806
178.9,16.91994,-0.06022253,3.01805,0.65811
179.5,16.9377,-0.06429707,3.02884,0.65816
180.1,16.95554,-0.07105712,3.04495,0.65821
180.7,16.9733,-0.078507,3.05047,0.65826
181.3,16.99103,-0.0788753,3.05581,0.6583
181.9,17.0088,-0.07552146,3.05918,0.65835
182.5,17.02644,-0.07282539,3.06615,0.65839
183.1,17.04407,-0.07141975,3.07449,0.65844
183.7,17.0617,-0.07151299,3.0846,0.65848
184.3,17.07933,-0.07151987,3.09137,0.65852
184.9,17.09696,-0.07150645,3.11565,0.65856
185.5,17.1146,-0.0714598,3.12193,0.6586
186.1,17.1322,-0.07241841,3.14384,0.65864
186.7,17.1497,-0.07282574,3.12937,0.65867
187.3,17.1673,-0.07283143,3.13861,0.65871
187.9,17.18475,-0.07283108,3.16153,0.65874
188.5,17.20221,-0.07283741,3.17736,0.65877
189.1,17.2197,-0.0728455,3.18849,0.65881
189.7,17.23718,-0.0728979,3.21246,0.65884
190.3,17.25464,-0.07284076,3.19831,0.65887
190.9,17.272,-0.072832,3.21954,0.65889
191.5,17.2895,-0.07283139,3.23616,0.65892
192.1,17.30684,-0.07273738,3.24022,0.65895
192.7,17.32421,-0.0739188,3.25482,0.65897
193.3,17.34155,-0.0738268,3.26452,0.65899
193.9,17.35887,-0.0738199,3.27854,0.65902
194.5,17.37615,-0.07381991,3.26914,0.65904
195.1,17.3934,-0.07381999,3.28266,0.65906
195.7,17.41067,-0.07382,3.30416,0.65908
196.3,17.42791,-0.07381998,3.32904,0.65909
196.9,17.44521,-0.07381951,3.33231,0.65911
197.5,17.46249,-0.07381541,3.33594,0.65913
198.1,17.47973,-0.07381075,3.35501,0.65914
198.7,17.49694,-0.07458627,3.36334,0.65915
199.3,17.51416,-0.07513654,3.38283,0.65917
199.9,17.53134,-0.07512886,3.39145,0.65918
200.5,17.54852,-0.0751347,3.41491,0.65919
201.1,17.56566,-0.07550314,3.42035,0.6592
201.7,17.58285,-0.07648834,3.43187,0.6592
202.3,17.60001,-0.07641172,3.44959,0.65921
202.9,17.61715,-0.0757617,3.45722,0.65921
203.5,17.63426,-0.0757871,3.46654,0.65922
204.1,17.65137,-0.07580176,3.47703,0.65922
204.7,17.66846,-0.07575184,3.50178,0.65922
205.3,17.68556,-0.07697893,3.50265,0.65922
205.9,17.70262,-0.07831,3.51726,0.65922
206.5,17.71964,-0.0784295,3.51575,0.65922
207.1,17.7366,-0.07843003,3.51649,0.65922
207.7,17.75367,-0.0784269,3.52371,0.65922
208.3,17.77063,-0.0784162,3.54813,0.65921
208.9,17.78754,-0.07894515,3.54576,0.65921
209.5,17.80452,-0.07978062,3.55777,0.6592
210.1,17.82149,-0.08030384,3.56292,0.65919
210.7,17.83841,-0.08104233,3.58366,0.65918
211.3,17.85533,-0.08218778,3.60699,0.65917
211.9,17.87225,-0.08234108,3.59961,0.65916
212.5,17.8892,-0.08236783,3.59625,0.65915
213.1,17.90618,-0.08108529,3.60868,0.65913
213.7,17.92313,-0.08106044,3.61868,0.65912
214.3,17.94011,-0.08105539,3.62981,0.6591
214.9,17.95705,-0.08146863,3.64132,0.65908
215.5,17.97395,-0.08370789,3.64952,0.65907
216.1,17.99079,-0.08378681,3.66798,0.65905
216.7,18.0076,-0.08400751,3.68164,0.65903
217.3,18.02445,-0.08519923,3.68862,0.659
217.9,18.04131,-0.08512676,3.69619,0.65898
218.5,18.05813,-0.08506062,3.7038,0.65896
219.1,18.07496,-0.08638382,3.70967,0.65893
219.7,18.0918,-0.08642826,3.71475,0.65891
220.3,18.1086,-0.08643006,3.73589,0.65888
220.9,18.12537,-0.08643045,3.74681,0.65885
221.5,18.14216,-0.08643351,3.77097,0.65882
222.1,18.15904,-0.08642836,3.75098,0.65879
222.7,18.1758,-0.08669058,3.78886,0.65876
223.3,18.19256,-0.0869262,3.79605,0.65873
223.9,18.2093,-0.08807185,3.80848,0.65869
224.5,18.22607,-0.08806273,3.8169,0.65866
225.1,18.2427,-0.08879636,3.818,0.65862
225.7,18.25943,-0.08949175,3.84406,0.65859
226.3,18.27609,-0.09016761,3.84927,0.65855
226.9,18.2928,-0.09093975,3.85615,0.65851
227.5,18.3095,-0.09092042,3.87028,0.65847
228.1,18.32617,-0.09090929,3.89256,0.65843
228.7,18.3429,-0.09238143,3.91146,0.65839
229.3,18.3596,-0.09365683,3.92294,0.65834
229.9,18.37629,-0.09368026,3.9254,0.6583
230.5,18.39299,-0.09370851,3.93117,0.65825
231.1,18.40971,-0.09501778,3.95324,0.65821
231.7,18.4264,-0.09499862,3.96513,0.65816
232.3,18.44304,-0.09530983,3.97694,0.65811
232.9,18.4597,-0.09641137,3.98883,0.65806
233.5,18.47635,-0.096808,3.99102,0.65801
234.1,18.49288,-0.09795259,3.99594,0.65796
234.7,18.50938,-0.09728657,4.03109,0.65791
235.3,18.52603,-0.09798814,4.03291,0.65785
235.9,18.54261,-0.09794064,4.04845,0.6578
236.5,18.5592,-0.09827129,4.05165,0.65774
237.1,18.57584,-0.09933838,4.05664,0.65769
237.7,18.5926,-0.09944167,4.06212,0.65763
238.3,18.60922,-0.10212,4.08292,0.65757
238.9,18.62583,-0.10243,4.08718,0.65751
239.5,18.64244,-0.10384,4.09303,0.65745
240.1,18.65905,-0.1053,4.10706,0.65739
240.7,18.67558,-0.10399,4.13595,0.65732
241.3,18.69213,-0.10463,4.13039,0.65726
241.9,18.70864,-0.10539,4.14969,0.65719
242.5,18.7252,-0.10688,4.15946,0.65713
243.1,18.74171,-0.10732,4.16974,0.65706
243.7,18.75824,-0.10973,4.17746,0.65699
244.3,18.7748,-0.11041,4.18593,0.65692
244.9,18.79138,-0.11143,4.2031,0.65685
245.5,18.8079,-0.112,4.21042,0.65678
246.1,18.82443,-0.1128,4.24004,0.65671
246.7,18.84095,-0.11275,4.25255,0.65664
247.3,18.85744,-0.11294,4.25607,0.65656
247.9,18.87387,-0.11441,4.26677,0.65649
248.5,18.89033,-0.11477,4.28416,0.65641
249.1,18.9069,-0.11584,4.30585,0.65633
249.7,18.92336,-0.11793,4.31241,0.65625
250.3,18.93988,-0.11964,4.31826,0.65617
250.9,18.95641,-0.12071,4.33154,0.65609
251.5,18.97289,-0.12205,4.33076,0.65601
252.1,18.98939,-0.12385,4.36312,0.65593
252.7,19.0059,-0.12524,4.34861,0.65585
253.3,19.0223,-0.12645,4.37532,0.65576
253.9,19.0386,-0.12785,4.38309,0.65568
254.5,19.05509,-0.13,4.39095,0.65559
255.1,19.07151,-0.13209,4.38515,0.6555
255.7,19.08793,-0.13191,4.39689,0.65541
256.3,19.10432,-0.13303,4.40926,0.65532
256.9,19.1208,-0.13334,4.4358,0.65523
257.5,19.13726,-0.13454,4.44099,0.65514
258.1,19.1537,-0.13533,4.42503,0.65505
258.7,19.17004,-0.1372,4.45135,0.65496
259.3,19.18646,-0.13886,4.47298,0.65486
259.9,19.20288,-0.14102,4.48267,0.65477
260.5,19.21932,-0.14304,4.48776,0.65467
261.1,19.23571,-0.14467,4.48113,0.65457
261.7,19.25208,-0.14573,4.49887,0.65448
262.3,19.26847,-0.14673,4.51942,0.65438
262.9,19.2849,-0.14843,4.52691,0.65428
263.5,19.3013,-0.15063,4.54391,0.65418
264.1,19.31769,-0.15325,4.53532,0.65407
264.7,19.33408,-0.1546,4.54078,0.65397
265.3,19.35046,-0.1555,4.55031,0.65387
265.9,19.3669,-0.15666,4.57066,0.65376
266.5,19.38325,-0.15784,4.58958,0.65366
267.1,19.39958,-0.15896,4.59576,0.65355
267.7,19.41593,-0.16073,4.58162,0.65344
268.3,19.43231,-0.16245,4.59527,0.65333
268.9,19.4486,-0.16425,4.60335,0.65322
269.5,19.46496,-0.16641,4.61433,0.65311
270.1,19.48133,-0.1682,4.60878,0.653
270.7,19.49765,-0.16985,4.62046,0.65289
271.3,19.51409,-0.17155,4.62319,0.65277
271.9,19.53051,-0.17524,4.63024,0.65266
272.5,19.54691,-0.1774,4.63729,0.65254
273.1,19.5633,-0.17962,4.64841,0.65243
273.7,19.57959,-0.18137,4.64697,0.65231
274.3,19.59599,-0.18327,4.65875,0.65219
274.9,19.61235,-0.18454,4.66763,0.65207
275.5,19.62865,-0.18615,4.65536,0.65195
276.1,19.64506,-0.18851,4.66608,0.65183
276.7,19.66143,-0.19143,4.66354,0.65171
277.3,19.67782,-0.19353,4.68186,0.65159
277.9,19.69417,-0.19616,4.69111,0.65147
278.5,19.7105,-0.19858,4.67746,0.65134
279.1,19.7269,-0.20116,4.69323,0.65122
279.7,19.74323,-0.20245,4.69059,0.65109
280.3,19.75966,-0.20517,4.69026,0.65096
280.9,19.77603,-0.20738,4.69362,0.65083
281.5,19.79243,-0.2091,4.70002,0.6507
282.1,19.80883,-0.21176,4.70134,0.65057
282.7,19.82528,-0.21484,4.7172,0.65044
283.3,19.8416,-0.21722,4.72729,0.65031
283.9,19.858,-0.22088,4.72353,0.65018
284.5,19.87436,-0.22361,4.72838,0.65005
285.1,19.8907,-0.22557,4.74511,0.64991
285.7,19.90705,-0.22829,4.74553,0.64978
286.3,19.9234,-0.23096,4.74787,0.64964
286.9,19.93974,-0.23383,4.75291,0.6495
287.5,19.95605,-0.2377,4.76714,0.64936
288.1,19.97239,-0.24087,4.78681,0.64923
288.7,19.98874,-0.24378,4.78378,0.64909
289.3,20.0051,-0.24639,4.79627,0.64894
289.9,20.02145,-0.24864,4.80322,0.6488
290.5,20.0378,-0.252,4.80842,0.64866
291.1,20.0541,-0.25522,4.82427,0.64852
291.7,20.07049,-0.25784,4.81869,0.64837
292.3,20.08681,-0.26108,4.83467,0.64823
292.9,20.10316,-0.26467,4.82274,0.64808
293.5,20.11956,-0.26808,4.83548,0.64794
294.1,20.13596,-0.27328,4.84441,0.64779
294.7,20.15235,-0.27664,4.85241,0.64764
295.3,20.16873,-0.27981,4.86183,0.64749
295.9,20.18512,-0.28374,4.85883,0.64734
296.5,20.20149,-0.28697,4.87069,0.64719
297.1,20.21787,-0.2892,4.87538,0.64704
297.7,20.2342,-0.29184,4.90328,0.64688
298.3,20.25056,-0.29485,4.89719,0.64673
298.9,20.26693,-0.29882,4.91745,0.64658
299.5,20.2833,-0.30359,4.90527,0.64642
300.1,20.29966,-0.30834,4.91835,0.64627
300.7,20.31602,-0.31302,4.92705,0.64611
301.3,20.33237,-0.31896,4.94231,0.64595
301.9,20.3487,-0.32355,4.94629,0.64579
302.5,20.36501,-0.32925,4.95357,0.64563
303.1,20.3814,-0.33352,4.96347,0.64547
303.7,20.3978,-0.33764,4.98616,0.64531
304.3,20.4142,-0.34266,5.00077,0.64515
304.9,20.43058,-0.34716,5.00678,0.64499
305.5,20.44697,-0.35314,5.02269,0.64482
306.1,20.46333,-0.35698,5.02783,0.64466
306.7,20.47971,-0.36125,5.01919,0.64449
307.3,20.49608,-0.36577,5.03804,0.64433
307.9,20.51246,-0.37021,5.05698,0.64416
308.5,20.52885,-0.37612,5.08419,0.64399
309.1,20.5452,-0.38064,5.09358,0.64383
309.7,20.56152,-0.38625,5.1009,0.64366
310.3,20.57791,-0.39166,5.11416,0.64349
310.9,20.59427,-0.39713,5.136,0.64332
311.5,20.61061,-0.40369,5.1523,0.64314
312.1,20.62697,-0.40829,5.17036,0.64297
312.7,20.64339,-0.41459,5.18249,0.6428
313.3,20.65982,-0.41971,5.20573,0.64262
313.9,20.67621,-0.42473,5.21941,0.64245
314.5,20.69258,-0.43115,5.253,0.64227
315.1,20.70908,-0.43619,5.25897,0.6421
315.7,20.72547,-0.44336,5.28571,0.64192
316.3,20.74184,-0.45016,5.31703,0.64174
316.9,20.7582,-0.45805,5.33864,0.64156
317.5,20.7746,-0.46639,5.36681,0.64138
318.1,20.791,-0.47346,5.38802,0.6412
318.7,20.8074,-0.48115,5.40968,0.64102
319.3,20.82376,-0.4874,5.4346,0.64084
319.9,20.84011,-0.49485,5.4648,0.64066
320.5,20.85655,-0.50208,5.48478,0.64048
321.1,20.87296,-0.50835,5.51611,0.64029
321.7,20.88934,-0.51659,5.53047,0.64011
322.3,20.9057,-0.52334,5.55848,0.63992
322.9,20.92215,-0.53179,5.6001,0.63974
323.5,20.9386,-0.54007,5.64286,0.63955
324.1,20.95494,-0.54834,5.66199,0.63936
324.7,20.9714,-0.55833,5.70163,0.63917
325.3,20.9878,-0.56572,5.7382,0.63898
325.9,21.00427,-0.57499,5.77854,0.63879
326.5,21.02069,-0.58265,5.79023,0.6386
327.1,21.0371,-0.59101,5.85,0.63841
327.7,21.05359,-0.60171,5.87691,0.63822
328.3,21.07002,-0.6106,5.91253,0.63803
328.9,21.0865,-0.62194,5.95289,0.63783
329.5,21.1029,-0.63017,5.98593,0.63764
330.1,21.1193,-0.63902,6.02422,0.63744
330.7,21.13579,-0.64873,6.0617,0.63725
331.3,21.15224,-0.65785,6.1029,0.63705
331.9,21.16871,-0.67127,6.14814,0.63685
332.5,21.1851,-0.68013,6.18545,0.63665
333.1,21.2016,-0.69121,6.22483,0.63646
333.7,21.21804,-0.70169,6.26902,0.63626
334.3,21.23445,-0.71247,6.31265,0.63606
334.9,21.25092,-0.72588,6.33638,0.63586
335.5,21.26739,-0.73577,6.38643,0.63565
336.1,21.2839,-0.74797,6.43818,0.63545
336.7,21.3004,-0.75856,6.48339,0.63525
337.3,21.31697,-0.77028,6.52521,0.63505
337.9,21.3335,-0.78319,6.5701,0.63484
338.5,21.34992,-0.79297,6.62003,0.63464
339.1,21.36637,-0.80566,6.66087,0.63443
339.7,21.3828,-0.81586,6.69951,0.63422
340.3,21.3993,-0.82867,6.74025,0.63402
340.9,21.4158,-0.84266,6.76909,0.63381
341.5,21.4323,-0.85441,6.81889,0.6336
342.1,21.44885,-0.8689,6.86625,0.63339
342.7,21.46536,-0.8799,6.9166,0.63318
343.3,21.4819,-0.89382,6.95476,0.63297
343.9,21.4984,-0.90691,7.00104,0.63276
344.5,21.51492,-0.91961,7.03966,0.63255
345.1,21.5315,-0.93451,7.08133,0.63234
345.7,21.54802,-0.94639,7.11569,0.63212
346.3,21.56457,-0.96222,7.15057,0.63191
346.9,21.58108,-0.97554,7.19485,0.63169
347.5,21.59767,-0.98965,7.22558,0.63148
348.1,21.6142,-1.00487,7.27205,0.63126
348.7,21.6308,-1.01748,7.31091,0.63105
349.3,21.6473,-1.0338,7.36278,0.63083
349.9,21.66386,-1.04618,7.39374,0.63061
350.5,21.68045,-1.06115,7.42335,0.63039
351.1,21.69706,-1.07655,7.45925,0.63017
351.7,21.71365,-1.09078,7.50361,0.62995
352.3,21.73026,-1.10802,7.54835,0.62973
352.9,21.74689,-1.12049,7.57303,0.62951
353.5,21.76349,-1.13646,7.61716,0.62929
354.1,21.7801,-1.15145,7.65493,0.62907
354.7,21.7965,-1.16696,7.69252,0.62885
355.3,21.81308,-1.18414,7.72085,0.62862
355.9,21.8296,-1.19742,7.77765,0.6284
356.5,21.84616,-1.21594,7.81189,0.62817
357.1,21.86273,-1.23064,7.8555,0.62795
357.7,21.87941,-1.24719,7.88708,0.62772
358.3,21.89604,-1.2638,7.91629,0.6275
358.9,21.9127,-1.27824,7.96301,0.62727
359.5,21.9294,-1.29604,8.00801,0.62704
360.1,21.94601,-1.31028,8.05244,0.62681
360.7,21.96271,-1.32716,8.09188,0.62658
361.3,21.97946,-1.34201,8.13877,0.62635
361.9,21.99624,-1.35866,8.19629,0.62612
362.5,22.01298,-1.37793,8.2428,0.62589
363.1,22.02972,-1.393,8.27748,0.62566
363.7,22.04645,-1.41186,8.32166,0.62543
364.3,22.06318,-1.42689,8.36611,0.6252
364.9,22.0799,-1.44464,8.43676,0.62496
365.5,22.0966,-1.46317,8.49025,0.62473
366.1,22.1134,-1.47891,8.56979,0.6245
366.7,22.1301,-1.49921,8.62363,0.62426
367.3,22.14682,-1.51452,8.69167,0.62403
367.9,22.16358,-1.53387,8.76042,0.62379
368.5,22.1803,-1.55091,8.83923,0.62355
369.1,22.19696,-1.56904,8.91101,0.62332
369.7,22.21375,-1.58913,8.9885,0.62308
370.3,22.23055,-1.60472,9.07793,0.62284
370.9,22.2473,-1.62534,9.16714,0.6226
371.5,22.264,-1.64171,9.2401,0.62236
372.1,22.2808,-1.66177,9.35054,0.62212
372.7,22.29761,-1.68186,9.43708,0.62188
373.3,22.3143,-1.70033,9.52955,0.62164
373.9,22.33107,-1.72244,9.62281,0.6214
374.5,22.3479,-1.73943,9.74092,0.62116
375.1,22.36469,-1.76127,9.85583,0.62091
375.7,22.3815,-1.78139,9.97987,0.62067
376.3,22.39837,-1.80245,10.09074,0.62043
376.9,22.4152,-1.82479,10.19635,0.62018
377.5,22.432,-1.84421,10.31166,0.61994
378.1,22.44886,-1.86875,10.42977,0.61969
378.7,22.46569,-1.88733,10.55286,0.61944
379.3,22.4825,-1.90922,10.6753,0.6192
379.9,22.49936,-1.92969,10.81268,0.61895
380.5,22.5162,-1.95055,10.9209,0.6187
381.1,22.53302,-1.97611,11.04712,0.61845
381.7,22.54984,-1.99672,11.17601,0.61821
382.3,22.56664,-2.02215,11.28923,0.61796
382.9,22.5835,-2.04372,11.4152,0.61771
383.5,22.60039,-2.06903,11.54338,0.61746
384.1,22.61733,-2.09389,11.65972,0.61721
384.7,22.63421,-2.11648,11.77483,0.61696
385.3,22.65118,-2.14404,11.88884,0.6167
385.9,22.6681,-2.16513,11.9993,0.61645
386.5,22.68504,-2.19231,12.08491,0.6162
387.1,22.70192,-2.21528,12.1885,0.61595
387.7,22.71888,-2.24146,12.27529,0.61569
388.3,22.7359,-2.26965,12.3356,0.61544
388.9,22.7529,-2.29371,12.41535,0.61518
389.5,22.76984,-2.32328,12.47006,0.61493
390.1,22.7868,-2.34592,12.49563,0.61467
390.7,22.80382,-2.37585,12.5131,0.61442
391.3,22.82078,-2.40036,12.53347,0.61416
391.9,22.83776,-2.42562,12.53851,0.6139
392.5,22.85474,-2.45206,12.51603,0.61364
393.1,22.87171,-2.47531,12.46574,0.61339
393.7,22.88873,-2.50593,12.3824,0.61313
394.3,22.90577,-2.5292,12.29368,0.61287
394.9,22.92277,-2.55737,12.2006,0.61261
395.5,22.9398,-2.58199,12.06995,0.61235
396.1,22.95683,-2.60672,11.91811,0.61209
396.7,22.9739,-2.63378,11.7334,0.61183
397.3,22.99095,-2.65446,11.52909,0.61157
397.9,23.00797,-2.68083,11.30604,0.6113
398.5,23.02506,-2.70259,11.06281,0.61104
399.1,23.04212,-2.72839,10.7944,0.61078
399.7,23.05919,-2.75105,10.52181,0.61052
400.3,23.07625,-2.77242,10.18506,0.61025
400.9,23.09336,-2.7964,9.85523,0.60999
401.5,23.11047,-2.81498,9.51058,0.60972
402.1,23.1276,-2.83735,9.13325,0.60946
402.7,23.1448,-2.85359,8.74849,0.60919
403.3,23.1619,-2.87178,8.34902,0.60893
403.9,23.17905,-2.88794,7.936,0.60866
404.5,23.19616,-2.90329,7.53067,0.60839
405.1,23.21334,-2.91979,7.11476,0.60813
405.7,23.23046,-2.93325,6.69899,0.60786
406.3,23.2476,-2.94896,6.27712,0.60759
406.9,23.26476,-2.95971,5.86322,0.60732
407.5,23.28196,-2.97172,5.45289,0.60705
408.1,23.29911,-2.98211,5.04956,0.60679
408.7,23.31625,-2.992,4.6736,0.60652
409.3,23.3334,-3.00301,4.3029,0.60625
409.9,23.35056,-3.00986,3.95045,0.60598
410.5,23.3677,-3.01825,3.61016,0.6057
411.1,23.38486,-3.02439,3.2936,0.60543
411.7,23.40205,-3.03182,3.01255,0.60516
412.3,23.41925,-3.0381,2.7117,0.60489
412.9,23.43645,-3.04369,2.45895,0.60462
413.5,23.45363,-3.04949,2.22355,0.60434
414.1,23.47085,-3.05421,2.01346,0.60407
414.7,23.48803,-3.05994,1.82515,0.6038
415.3,23.5052,-3.06296,1.65979,0.60352
415.9,23.5223,-3.0668,1.49596,0.60325
416.5,23.5395,-3.06887,1.37448,0.60297
417.1,23.55661,-3.07284,1.25274,0.6027
417.7,23.57377,-3.07728,1.14102,0.60242
418.3,23.59092,-3.08086,1.05642,0.60215
418.9,23.60817,-3.0842,0.97794,0.60187
419.5,23.62539,-3.08589,0.89319,0.60159
420.1,23.64258,-3.08883,0.82537,0.60132
420.7,23.65983,-3.09238,0.76592,0.60104
421.3,23.67703,-3.09421,0.70887,0.60076
421.9,23.69422,-3.09663,0.65903,0.60048
422.5,23.71138,-3.0998,0.61323,0.60021
423.1,23.72857,-3.1017,0.57416,0.59993
423.7,23.7457,-3.10428,0.52855,0.59965
424.3,23.76298,-3.10746,0.50006,0.59937
424.9,23.78022,-3.11015,0.46777,0.59909
425.5,23.79746,-3.11216,0.43253,0.59881
426.1,23.81472,-3.11446,0.40103,0.59853
426.7,23.83195,-3.11586,0.38046,0.59825
427.3,23.84919,-3.11893,0.35466,0.59797
427.9,23.86639,-3.12104,0.32206,0.59768
428.5,23.8837,-3.12384,0.29237,0.5974
429.1,23.901,-3.1266,0.2824,0.59712
429.7,23.91835,-3.12959,0.25671,0.59684
430.3,23.9357,-3.13185,0.23374,0.59655
430.9,23.95309,-3.13365,0.2044,0.59627
431.5,23.97045,-3.13581,0.1774,0.59599
432.1,23.9878,-3.13792,0.14684,0.5957
432.7,24.00517,-3.13806,0.1169,0.59542
433.3,24.02252,-3.13291,0.08909202,0.59514
433.9,24.03986,-3.12848,0.04616906,0.59485
434.5,24.05722,-3.12996,0.04522842,0.59457
435.1,24.07457,-3.14196,0.0358415,0.59428
435.7,24.09194,-3.15944,0.0265171,0.59399
436.3,24.10925,-3.16455,-0.005313898,0.59371
436.9,24.12669,-3.16092,-0.02082913,0.59342
437.5,24.14413,-3.15808,-0.04124743,0.59314
438.1,24.16153,-3.15934,-0.07344941,0.59285
438.7,24.179,-3.15928,-0.09513582,0.59256
439.3,24.1965,-3.16105,-0.10946,0.59227
439.9,24.2139,-3.16316,-0.13155,0.59199
440.5,24.23132,-3.16542,-0.16828,0.5917
441.1,24.24876,-3.16747,-0.17508,0.59141
441.7,24.26623,-3.16873,-0.19203,0.59112
442.3,24.28376,-3.17071,-0.21411,0.59083
442.9,24.30124,-3.173,-0.22847,0.59054
443.5,24.31875,-3.17483,-0.25264,0.59025
444.1,24.33624,-3.17675,-0.27588,0.58996
444.7,24.35371,-3.17784,-0.29075,0.58967
445.3,24.37122,-3.17917,-0.30208,0.58938
445.9,24.3887,-3.1813,-0.30756,0.58909
446.5,24.40618,-3.18415,-0.33706,0.5888
447.1,24.42369,-3.18688,-0.36177,0.58851
447.7,24.44121,-3.1896,-0.37767,0.58822
448.3,24.45876,-3.19148,-0.38103,0.58793
448.9,24.47629,-3.1937,-0.3957,0.58764
449.5,24.4939,-3.19555,-0.40376,0.58734
450.1,24.51148,-3.19691,-0.41997,0.58705
450.7,24.52911,-3.19713,-0.43424,0.58676
451.3,24.54675,-3.19757,-0.45526,0.58647
451.9,24.5644,-3.1989,-0.46917,0.58617
452.5,24.58205,-3.20043,-0.47542,0.58588
453.1,24.59966,-3.20212,-0.48332,0.58558
453.7,24.61723,-3.20387,-0.48445,0.58529
454.3,24.63481,-3.20571,-0.48984,0.585
454.9,24.65244,-3.20781,-0.50022,0.5847
455.5,24.67009,-3.21106,-0.50668,0.58441
456.1,24.6877,-3.21332,-0.50984,0.58411
456.7,24.70543,-3.21543,-0.51729,0.58382
457.3,24.72309,-3.21766,-0.51129,0.58352
457.9,24.7407,-3.21871,-0.51387,0.58323
458.5,24.75838,-3.21919,-0.51052,0.58293
459.1,24.77611,-3.22109,-0.51426,0.58264
459.7,24.79383,-3.22318,-0.51596,0.58234
460.3,24.81152,-3.22509,-0.51989,0.58204
460.9,24.82927,-3.22609,-0.51141,0.58175
461.5,24.84695,-3.22653,-0.51436,0.58145
462.1,24.8647,-3.2277,-0.51108,0.58115
462.7,24.88243,-3.22912,-0.50716,0.58086
463.3,24.9002,-3.23134,-0.49773,0.58056
463.9,24.9179,-3.23528,-0.49586,0.58026
464.5,24.93572,-3.2377,-0.49081,0.57996
465.1,24.9534,-3.239,-0.48406,0.57967
465.7,24.97121,-3.23981,-0.4742,0.57937
466.3,24.98902,-3.23991,-0.46404,0.57907
466.9,25.00677,-3.24082,-0.44884,0.57877
467.5,25.02459,-3.24144,-0.4412,0.57847
468.1,25.04234,-3.24311,-0.42125,0.57817
468.7,25.0601,-3.24493,-0.41738,0.57787
469.3,25.0779,-3.24602,-0.40874,0.57758
469.9,25.0958,-3.24775,-0.40003,0.57728
470.5,25.11358,-3.25053,-0.38236,0.57698
471.1,25.1315,-3.25312,-0.36275,0.57668
471.7,25.14931,-3.25439,-0.33875,0.57638
472.3,25.16722,-3.25591,-0.33138,0.57608
472.9,25.18512,-3.25718,-0.31721,0.57578
473.5,25.203,-3.25808,-0.30557,0.57548
474.1,25.22082,-3.25962,-0.28393,0.57517
474.7,25.2388,-3.26127,-0.26049,0.57487
475.3,25.25664,-3.26292,-0.26088,0.57457
475.9,25.27449,-3.2643,-0.23859,0.57427
476.5,25.2924,-3.26488,-0.21636,0.57397
477.1,25.31028,-3.26652,-0.19762,0.57367
477.7,25.3282,-3.26642,-0.19102,0.57337
478.3,25.3461,-3.26799,-0.16586,0.57307
478.9,25.3641,-3.26937,-0.15347,0.57276
479.5,25.3821,-3.27093,-0.13172,0.57246
480.1,25.40005,-3.27259,-0.10632,0.57216
480.7,25.41801,-3.27409,-0.09533566,0.57186
481.3,25.436,-3.27607,-0.07029264,0.57156
481.9,25.45395,-3.27746,-0.06474149,0.57125
482.5,25.47192,-3.27778,-0.04126872,0.57095
483.1,25.48995,-3.27902,-0.02735582,0.57065
483.7,25.50795,-3.28063,-0.01106484,0.57035
484.3,25.52593,-3.2819,0.00875782,0.57004
484.9,25.544,-3.28217,0.0123178,0.56974
485.5,25.5621,-3.28335,0.01785445,0.56944
486.1,25.58014,-3.28444,0.04805861,0.56913
486.7,25.59818,-3.28576,0.04990626,0.56883
487.3,25.61625,-3.28722,0.05832433,0.56853
487.9,25.63436,-3.28726,0.07635965,0.56822
488.5,25.65241,-3.28881,0.09390011,0.56792
489.1,25.6704,-3.29058,0.09939538,0.56761
489.7,25.68846,-3.29225,0.11657,0.56731
490.3,25.70659,-3.29302,0.12115,0.56701
490.9,25.72467,-3.29457,0.13653,0.5667
491.5,25.74276,-3.29543,0.1501,0.5664
492.1,25.7608,-3.29502,0.15658,0.56609
492.7,25.77899,-3.29627,0.17122,0.56579
493.3,25.79705,-3.29627,0.18128,0.56548
493.9,25.8152,-3.29738,0.19596,0.56518
494.5,25.8333,-3.29781,0.1955,0.56487
495.1,25.8515,-3.29947,0.21026,0.56457
495.7,25.8696,-3.29973,0.22039,0.56426
496.3,25.8878,-3.30088,0.233,0.56396
496.9,25.90596,-3.30339,0.22902,0.56365
497.5,25.92411,-3.30372,0.25195,0.56335
498.1,25.94231,-3.30521,0.25207,0.56304
498.7,25.96048,-3.30552,0.25785,0.56274
499.3,25.97871,-3.30619,0.26829,0.56243
499.9,25.9969,-3.30714,0.26879,0.56213
500.5,26.01513,-3.30733,0.27706,0.56182
501.1,26.03332,-3.30733,0.27985,0.56152
501.7,26.0516,-3.30995,0.28974,0.56121
502.3,26.06975,-3.31015,0.29386,0.5609
502.9,26.08792,-3.31164,0.3053,0.5606
503.5,26.10609,-3.31246,0.30314,0.56029
504.1,26.12429,-3.3132,0.29898,0.55999
504.7,26.14252,-3.31462,0.31397,0.55968
505.3,26.16071,-3.31564,0.31074,0.55937
505.9,26.17897,-3.31635,0.3383,0.55907
506.5,26.1972,-3.31809,0.33993,0.55876
507.1,26.21545,-3.31932,0.33993,0.55846
507.7,26.2337,-3.31968,0.34054,0.55815
508.3,26.252,-3.32065,0.34372,0.55784
508.9,26.2703,-3.32107,0.33702,0.55754
509.5,26.2886,-3.32257,0.33277,0.55723
510.1,26.3069,-3.32305,0.34235,0.55692
510.7,26.32517,-3.32419,0.3468,0.55662
511.3,26.34351,-3.32485,0.34213,0.55631
511.9,26.36184,-3.3266,0.35352,0.556
512.5,26.38017,-3.3268,0.36258,0.5557
513.1,26.39854,-3.32828,0.36952,0.55539
513.7,26.41688,-3.32699,0.36681,0.55508
514.3,26.4352,-3.32819,0.36173,0.55478
514.9,26.45348,-3.32821,0.35887,0.55447
515.5,26.47182,-3.32822,0.35986,0.55416
516.1,26.49022,-3.32979,0.36181,0.55386
516.7,26.5086,-3.33045,0.35688,0.55355
517.3,26.5271,-3.33153,0.35876,0.55324
517.9,26.54549,-3.33257,0.34881,0.55294
518.5,26.56387,-3.33289,0.35383,0.55263
519.1,26.5822,-3.33361,0.36324,0.55232
519.7,26.6006,-3.33444,0.35889,0.55202
520.3,26.61901,-3.33446,0.34992,0.55171
520.9,26.63743,-3.33161,0.35159,0.5514
521.5,26.6559,-3.32802,0.35221,0.5511
522.1,26.6743,-3.32769,0.37019,0.55079
522.7,26.69275,-3.33355,0.36094,0.55048
523.3,26.71112,-3.34214,0.35388,0.55018
523.9,26.72956,-3.34735,0.35817,0.54987
524.5,26.748,-3.34836,0.36125,0.54956
525.1,26.7664,-3.34688,0.3516,0.54926
525.7,26.7848,-3.34688,0.34854,0.54895
526.3,26.8033,-3.34542,0.34152,0.54864
526.9,26.8217,-3.34552,0.33118,0.54834
527.5,26.8402,-3.34553,0.34023,0.54803
528.1,26.8587,-3.34553,0.33287,0.54772
528.7,26.87715,-3.34553,0.3367,0.54742
529.3,26.8956,-3.34552,0.32489,0.54711
529.9,26.9141,-3.34544,0.31752,0.5468
530.5,26.9327,-3.34673,0.3113,0.5465
531.1,26.9512,-3.34685,0.31147,0.54619
531.7,26.96973,-3.34685,0.31275,0.54588
532.3,26.98831,-3.3481,0.3183,0.54558
532.9,27.00682,-3.34811,0.30655,0.54527
533.5,27.0253,-3.34936,0.30211,0.54496
534.1,27.04389,-3.34962,0.31582,0.54466
534.7,27.0624,-3.35113,0.30605,0.54435
535.3,27.08091,-3.35154,0.2965,0.54405
535.9,27.0994,-3.35255,0.29871,0.54374
536.5,27.11795,-3.35399,0.27622,0.54343
537.1,27.13648,-3.35407,0.27122,0.54313
537.7,27.1551,-3.35519,0.27264,0.54282
538.3,27.1738,-3.35581,0.27432,0.54251
538.9,27.1924,-3.35724,0.27531,0.54221
539.5,27.2111,-3.35724,0.27048,0.5419
540.1,27.22966,-3.35848,0.26033,0.5416
540.7,27.24826,-3.35844,0.24783,0.54129
541.3,27.2669,-3.35969,0.22736,0.54098
541.9,27.2855,-3.35979,0.24262,0.54068
542.5,27.30415,-3.35988,0.239,0.54037
543.1,27.3228,-3.35859,0.23845,0.54007
543.7,27.3414,-3.35907,0.23939,0.53976
544.3,27.36001,-3.36,0.22981,0.53946
544.9,27.37858,-3.36171,0.21246,0.53915
545.5,27.3971,-3.36184,0.21711,0.53885
546.1,27.41576,-3.36481,0.21784,0.53854
546.7,27.4344,-3.36521,0.21735,0.53824
547.3,27.45308,-3.36617,0.20485,0.53793
547.9,27.4717,-3.36615,0.20842,0.53763
548.5,27.4905,-3.36615,0.20119,0.53732
549.1,27.5091,-3.36615,0.19467,0.53702
549.7,27.5278,-3.36638,0.17731,0.53671
550.3,27.5465,-3.36752,0.16856,0.53641
550.9,27.5652,-3.36738,0.16964,0.5361
551.5,27.5838,-3.36871,0.17403,0.5358
552.1,27.6025,-3.36878,0.16185,0.53549
552.7,27.6212,-3.36878,0.14928,0.53519
553.3,27.6399,-3.36878,0.13341,0.53488
553.9,27.6586,-3.37017,0.12998,0.53458
554.5,27.6773,-3.37038,0.11876,0.53428
555.1,27.696,-3.37182,0.11649,0.53397
555.7,27.7148,-3.37274,0.11224,0.53367
556.3,27.73351,-3.37315,0.10429,0.53336
556.9,27.75232,-3.37331,0.08977071,0.53306
557.5,27.77113,-3.37453,0.0904424,0.53276
558.1,27.78993,-3.37449,0.08112041,0.53245
558.7,27.8088,-3.37449,0.06631031,0.53215
559.3,27.82745,-3.37445,0.07248709,0.53185
559.9,27.8463,-3.37576,0.05621067,0.53154
560.5,27.86512,-3.37589,0.05232641,0.53124
561.1,27.88393,-3.37674,0.05481227,0.53094
561.7,27.9028,-3.3772,0.03838891,0.53064
562.3,27.9217,-3.3772,0.02816963,0.53033
562.9,27.9404,-3.378,0.03545758,0.53003
563.5,27.9592,-3.37987,0.03168782,0.52973
564.1,27.97795,-3.37986,0.01153335,0.52943
564.7,27.99673,-3.37982,0.00270061,0.52912
565.3,28.0155,-3.38101,-0.02184463,0.52882
565.9,28.0343,-3.38119,-0.02559077,0.52852
566.5,28.05307,-3.38155,-0.05062094,0.52822
567.1,28.07197,-3.38174,-0.0429554,0.52792
567.7,28.09083,-3.38131,-0.04415948,0.52761
568.3,28.10977,-3.38263,-0.0435751,0.52731
568.9,28.1288,-3.3826,-0.05350431,0.52701
569.5,28.1476,-3.3826,-0.08352716,0.52671
570.1,28.16644,-3.38258,-0.08381673,0.52641
570.7,28.1853,-3.38437,-0.08761215,0.52611
571.3,28.2041,-3.3855,-0.08116138,0.52581
571.9,28.22301,-3.38784,-0.09992211,0.52551
572.5,28.24193,-3.38829,-0.10377,0.52521
573.1,28.2609,-3.38829,-0.10761,0.52491
573.7,28.2798,-3.38901,-0.11663,0.52461
574.3,28.2987,-3.38963,-0.13233,0.52431
574.9,28.3176,-3.38895,-0.13226,0.52401
575.5,28.33649,-3.38967,-0.1512,0.52371
576.1,28.35537,-3.38958,-0.144,0.52341
576.7,28.37438,-3.3907,-0.1598,0.52311
577.3,28.3933,-3.39094,-0.17601,0.52281
577.9,28.41225,-3.39095,-0.17245,0.52251
578.5,28.4311,-3.39096,-0.18059,0.52221
579.1,28.4501,-3.39231,-0.1913,0.52191
579.7,28.46899,-3.39194,-0.19002,0.52161
580.3,28.48791,-3.39123,-0.20452,0.52131
580.9,28.5069,-3.39258,-0.21094,0.52102
581.5,28.52587,-3.39281,-0.21607,0.52072
582.1,28.54477,-3.39409,-0.21765,0.52042
582.7,28.56377,-3.39397,-0.22032,0.52012
583.3,28.58277,-3.39496,-0.23313,0.51982
583.9,28.60172,-3.39532,-0.24407,0.51953
584.5,28.6207,-3.39533,-0.26303,0.51923
585.1,28.63968,-3.3957,-0.28596,0.51893
585.7,28.6587,-3.3976,-0.2914,0.51864
586.3,28.67765,-3.39797,-0.30103,0.51834
586.9,28.6967,-3.39797,-0.30585,0.51804
587.5,28.7157,-3.39797,-0.3109,0.51775
588.1,28.7347,-3.39796,-0.3263,0.51745
588.7,28.75372,-3.39798,-0.34491,0.51715
589.3,28.77272,-3.39826,-0.35078,0.51686
589.9,28.79172,-3.3993,-0.35801,0.51656
590.5,28.81073,-3.3994,-0.35297,0.51627
591.1,28.82982,-3.40062,-0.37299,0.51597
591.7,28.84887,-3.4019,-0.38445,0.51568
592.3,28.86794,-3.40191,-0.39014,0.51538
592.9,28.887,-3.40238,-0.4083,0.51509
593.5,28.90615,-3.40338,-0.41171,0.51479
594.1,28.9253,-3.40332,-0.41798,0.5145
594.7,28.94443,-3.40288,-0.43844,0.5142
595.3,28.96355,-3.40365,-0.46049,0.51391
595.9,28.9826,-3.40337,-0.47657,0.51361
596.5,29.0017,-3.40344,-0.48675,0.51332
597.1,29.02075,-3.40482,-0.49778,0.51303
597.7,29.0399,-3.40485,-0.50168,0.51273
598.3,29.05903,-3.4074,-0.52237,0.51244
598.9,29.07818,-3.40499,-0.54749,0.51215
599.5,29.09727,-3.40018,-0.55439,0.51186
600.1,29.11637,-3.39736,-0.57003,0.51156
600.7,29.13543,-3.40091,-0.59291,0.51127
601.3,29.15452,-3.41212,-0.60591,0.51098
601.9,29.17369,-3.42107,-0.61537,0.51069
602.5,29.19285,-3.42206,-0.63368,0.5104
603.1,29.212,-3.41895,-0.65815,0.5101
603.7,29.23113,-3.4166,-0.67868,0.50981
604.3,29.2503,-3.41529,-0.69643,0.50952
604.9,29.26945,-3.41375,-0.70738,0.50923
605.5,29.28862,-3.41376,-0.7105,0.50894
606.1,29.3078,-3.41376,-0.72354,0.50865
606.7,29.32703,-3.41376,-0.74665,0.50836
607.3,29.3462,-3.41375,-0.75861,0.50807
607.9,29.3654,-3.41366,-0.77934,0.50778
608.5,29.3846,-3.41503,-0.79121,0.50749
609.1,29.40377,-3.41508,-0.80708,0.5072
609.7,29.42302,-3.41508,-0.80704,0.50691
610.3,29.4422,-3.41509,-0.83934,0.50662
610.9,29.46132,-3.41517,-0.85607,0.50634
611.5,29.48055,-3.41642,-0.87063,0.50605
612.1,29.49977,-3.41639,-0.87326,0.50576
612.7,29.519,-3.41639,-0.88429,0.50547
613.3,29.5383,-3.4164,-0.90322,0.50518
613.9,29.5576,-3.41692,-0.9224,0.5049
614.5,29.5769,-3.41773,-0.94585,0.50461
615.1,29.5962,-3.41771,-0.97464,0.50432
615.7,29.61538,-3.41771,-0.99603,0.50404
616.3,29.63462,-3.41868,-1.02736,0.50375
616.9,29.6539,-3.41907,-1.02786,0.50346
617.5,29.67315,-3.42011,-1.03106,0.50318
618.1,29.69241,-3.42045,-1.05281,0.50289
618.7,29.71169,-3.42065,-1.05696,0.50261
619.3,29.731,-3.42178,-1.07538,0.50232
619.9,29.75028,-3.42177,-1.08387,0.50204
620.5,29.76959,-3.42177,-1.09382,0.50175
621.1,29.7889,-3.42177,-1.10464,0.50147
621.7,29.80827,-3.42203,-1.11412,0.50118
622.3,29.8276,-3.42321,-1.12501,0.5009
622.9,29.84688,-3.42384,-1.13685,0.50061
623.5,29.8662,-3.42477,-1.16199,0.50033
624.1,29.88547,-3.4255,-1.15934,0.50005
624.7,29.9047,-3.42579,-1.16321,0.49977
625.3,29.92401,-3.42686,-1.18143,0.49948
625.9,29.94335,-3.42681,-1.18159,0.4992
626.5,29.96268,-3.42681,-1.2071,0.49892
627.1,29.98201,-3.42681,-1.20718,0.49864
627.7,30.0014,-3.42682,-1.20766,0.49835
628.3,30.0207,-3.42692,-1.2253,0.49807
628.9,30.04005,-3.42812,-1.23013,0.49779
629.5,30.0594,-3.42812,-1.24555,0.49751
630.1,30.0788,-3.4281,-1.25344,0.49723
630.7,30.0982,-3.42943,-1.26129,0.49695
631.3,30.1174,-3.42944,-1.27955,0.49667
631.9,30.13666,-3.42944,-1.28359,0.49639
632.5,30.1559,-3.42944,-1.30501,0.49611
633.1,30.17523,-3.42947,-1.30499,0.49583
633.7,30.1946,-3.42995,-1.30994,0.49555
634.3,30.21408,-3.43074,-1.32104,0.49527
634.9,30.2337,-3.43046,-1.33493,0.49499
635.5,30.2531,-3.43012,-1.34608,0.49471
636.1,30.2725,-3.43007,-1.36856,0.49444
636.7,30.29188,-3.43098,-1.38364,0.49416
637.3,30.3113,-3.43141,-1.38524,0.49388
637.9,30.3307,-3.43191,-1.40471,0.4936
638.5,30.3501,-3.43284,-1.41864,0.49333
639.1,30.3695,-3.43321,-1.42062,0.49305
639.7,30.38885,-3.43417,-1.4409,0.49277
640.3,30.40822,-3.43416,-1.45235,0.4925
640.9,30.4276,-3.43416,-1.44771,0.49222
641.5,30.44708,-3.43416,-1.46472,0.49195
642.1,30.4665,-3.43416,-1.47656,0.49167
642.7,30.48599,-3.43442,-1.49551,0.49139
643.3,30.50549,-3.43693,-1.5074,0.49112
643.9,30.525,-3.43679,-1.5117,0.49085
644.5,30.5445,-3.4367,-1.52517,0.49057
645.1,30.5641,-3.43808,-1.53351,0.4903
645.7,30.58353,-3.43804,-1.5164,0.49002
646.3,30.603,-3.43827,-1.53922,0.48975
646.9,30.62242,-3.43822,-1.54226,0.48948
647.5,30.64194,-3.43822,-1.5612,0.4892
648.1,30.6614,-3.43822,-1.55401,0.48893
648.7,30.68089,-3.43822,-1.57372,0.48866
649.3,30.70038,-3.43867,-1.587,0.48839
649.9,30.71985,-3.43881,-1.60261,0.48812
650.5,30.7393,-3.43857,-1.63133,0.48784
651.1,30.7589,-3.43953,-1.64601,0.48757
651.7,30.7784,-3.43953,-1.65784,0.4873
652.3,30.798,-3.4395,-1.64936,0.48703
652.9,30.81755,-3.44078,-1.6637,0.48676
653.5,30.8371,-3.4421,-1.67099,0.48649
654.1,30.8566,-3.44226,-1.6775,0.48622
654.7,30.8761,-3.44348,-1.68336,0.48595
655.3,30.8956,-3.44254,-1.69258,0.48568
655.9,30.91512,-3.4424,-1.70786,0.48541
656.5,30.93468,-3.44239,-1.71988,0.48515
657.1,30.95417,-3.44239,-1.72133,0.48488
657.7,30.9738,-3.4424,-1.74714,0.48461
658.3,30.9934,-3.44336,-1.74823,0.48434
658.9,31.013,-3.44505,-1.77433,0.48407
659.5,31.03257,-3.44502,-1.77471,0.48381
660.1,31.05218,-3.44504,-1.77228,0.48354
660.7,31.07173,-3.44643,-1.77989,0.48327
661.3,31.0913,-3.44634,-1.78983,0.48301
661.9,31.1109,-3.44622,-1.77423,0.48274
662.5,31.13043,-3.44502,-1.78721,0.48248
663.1,31.15,-3.44502,-1.78964,0.48221
663.7,31.1696,-3.44539,-1.79003,0.48195
664.3,31.1892,-3.44633,-1.80409,0.48168
664.9,31.2088,-3.44633,-1.80793,0.48142
665.5,31.22846,-3.44633,-1.81533,0.48115
666.1,31.2481,-3.44633,-1.81836,0.48089
666.7,31.26769,-3.44633,-1.81484,0.48063
667.3,31.28727,-3.44632,-1.83898,0.48036
667.9,31.3069,-3.44747,-1.84704,0.4801
668.5,31.32645,-3.44764,-1.85207,0.47984
669.1,31.346,-3.44765,-1.84906,0.47958
669.7,31.3655,-3.44765,-1.85652,0.47931
670.3,31.38512,-3.44765,-1.87359,0.47905
670.9,31.4046,-3.44765,-1.8833,0.47879
671.5,31.42421,-3.44766,-1.89469,0.47853
672.1,31.44385,-3.44789,-1.90953,0.47827
672.7,31.46353,-3.44902,-1.91107,0.47801
673.3,31.48312,-3.44901,-1.93086,0.47775
673.9,31.50283,-3.45051,-1.92447,0.47749
674.5,31.52246,-3.45055,-1.93657,0.47723
675.1,31.5421,-3.45176,-1.94304,0.47697
675.7,31.5618,-3.45171,-1.97271,0.47671
676.3,31.58155,-3.45171,-1.95902,0.47645
676.9,31.60135,-3.45171,-1.9528,0.4762
677.5,31.62115,-3.45223,-1.97563,0.47594
678.1,31.6409,-3.45301,-1.96771,0.47568
678.7,31.6607,-3.45352,-1.97711,0.47542
679.3,31.6804,-3.45454,-1.96586,0.47517
679.9,31.70008,-3.45536,-1.96734,0.47491
680.5,31.7198,-3.45686,-2.00018,0.47465
681.1,31.7395,-3.45687,-2.00889,0.4744
681.7,31.7592,-3.45687,-2.01779,0.47414
682.3,31.77895,-3.45687,-2.01244,0.47389
682.9,31.79862,-3.45687,-2.01181,0.47363
683.5,31.81833,-3.45687,-2.02368,0.47338
684.1,31.83802,-3.45687,-2.04055,0.47312
684.7,31.8578,-3.45685,-2.03326,0.47287
685.3,31.87752,-3.45575,-2.01769,0.47262
685.9,31.8972,-3.45522,-2.02022,0.47236
686.5,31.917,-3.45524,-2.02003,0.47211
687.1,31.9367,-3.45461,-2.01372,0.47186
687.7,31.9564,-3.45456,-2.01478,0.47161
688.3,31.97611,-3.45456,-2.0224,0.47135
688.9,31.99585,-3.45457,-2.04623,0.4711
689.5,32.0156,-3.45491,-2.06093,0.47085
690.1,32.0353,-3.45616,-2.05468,0.4706
690.7,32.055,-3.4561,-2.05969,0.47035
691.3,32.0747,-3.45701,-2.08951,0.4701
691.9,32.09437,-3.45739,-2.09912,0.46985
692.5,32.11408,-3.45741,-2.10811,0.4696
693.1,32.13381,-3.45741,-2.11803,0.46935
693.7,32.1536,-3.45741,-2.1027,0.4691
694.3,32.17334,-3.45741,-2.11055,0.46885
694.9,32.19311,-3.45739,-2.11523,0.4686
695.5,32.21284,-3.45717,-2.11959,0.46835
696.1,32.23264,-3.45738,-2.1048,0.46811
696.7,32.2524,-3.45783,-2.12178,0.46786
697.3,32.27218,-3.45785,-2.13317,0.46761
697.9,32.29193,-3.45785,-2.12048,0.46737
698.5,32.3117,-3.45843,-2.12016,0.46712
699.1,32.33141,-3.45914,-2.10362,0.46687
699.7,32.35119,-3.45916,-2.10321,0.46663
700.3,32.37097,-3.45916,-2.1019,0.46638
700.9,32.39077,-3.45916,-2.10405,0.46614
701.5,32.4106,-3.45916,-2.13118,0.46589
702.1,32.4304,-3.45914,-2.11742,0.46565
702.7,32.45022,-3.46023,-2.09184,0.4654
703.3,32.47002,-3.46048,-2.10253,0.46516
703.9,32.48981,-3.46048,-2.13367,0.46492
704.5,32.50963,-3.46051,-2.14607,0.46467
705.1,32.52939,-3.4618,-2.16179,0.46443
705.7,32.54918,-3.4618,-2.16627,0.46419
706.3,32.56895,-3.46311,-2.16424,0.46395
706.9,32.58874,-3.46161,-2.15994,0.4637
707.5,32.6086,-3.46157,-2.17628,0.46346
708.1,32.62845,-3.46287,-2.19131,0.46322
708.7,32.6483,-3.46289,-2.19649,0.46298
709.3,32.66817,-3.46289,-2.22425,0.46274
709.9,32.68801,-3.46289,-2.22659,0.4625
710.5,32.70786,-3.46289,-2.22814,0.46226
711.1,32.72773,-3.46289,-2.24799,0.46202
711.7,32.74757,-3.4629,-2.263,0.46178
712.3,32.76742,-3.46341,-2.27905,0.46154
712.9,32.78734,-3.46423,-2.31109,0.4613
713.5,32.80715,-3.46421,-2.30664,0.46107
714.1,32.827,-3.4644,-2.31643,0.46083
714.7,32.84693,-3.46442,-2.32776,0.46059
715.3,32.86675,-3.46423,-2.34532,0.46035
715.9,32.8866,-3.46421,-2.36062,0.46012
716.5,32.90643,-3.46412,-2.36593,0.45988
717.1,32.92627,-3.46565,-2.36929,0.45964
717.7,32.94614,-3.46691,-2.35644,0.45941
718.3,32.96606,-3.46685,-2.34443,0.45917
718.9,32.98596,-3.46683,-2.36746,0.45894
719.5,33.00593,-3.46742,-2.37477,0.4587
720.1,33.02585,-3.46749,-2.37646,0.45847
720.7,33.0457,-3.46743,-2.36785,0.45824
721.3,33.0655,-3.46821,-2.36329,0.458
721.9,33.08525,-3.46817,-2.35379,0.45777
722.5,33.1051,-3.46826,-2.35815,0.45754
723.1,33.12508,-3.46689,-2.37158,0.4573
723.7,33.1451,-3.46687,-2.37449,0.45707
724.3,33.1651,-3.46741,-2.3889,0.45684
724.9,33.18508,-3.46817,-2.40038,0.45661
725.5,33.205,-3.46816,-2.41824,0.45638
726.1,33.225,-3.46814,-2.43563,0.45614
726.7,33.2449,-3.4689,-2.45326,0.45591
727.3,33.26491,-3.46913,-2.4592,0.45568
727.9,33.28479,-3.46915,-2.46746,0.45545
728.5,33.30574,-3.46936,-2.46693,0.45522
729.1,33.32716,-3.46947,-2.45245,0.45499
729.3,33.3319,-3.46947,-2.4538,0.45492