File: 01_Data/Pine_Siding/STA/N2/30K_min/Pine_Siding_STA_N2_30KData_211506_R3.csv
##Temp./Â°C,Time/min,Mass loss(subtr.2)/mg,DSC(subtr.2)/mW,Sensit./(uV/mW)
49.373,10.00917,-0.01953,0.0123384,0.61834
49.973,10.99483,-0.01936014,0.14082,0.61866
50.573,11.20692,-0.02061448,0.213,0.61898
51.173,11.35067,-0.02031893,0.29388,0.6193
51.773,11.4629,-0.02172625,0.36466,0.61961
52.373,11.55997,-0.02033841,0.44202,0.61993
52.973,11.64229,-0.01908412,0.50461,0.62024
53.573,11.71672,-0.01896341,0.56834,0.62055
54.173,11.786,-0.02268976,0.63272,0.62086
54.773,11.84901,-0.02086346,0.68025,0.62117
55.373,11.908,-0.01956019,0.73715,0.62148
55.973,11.96355,-0.0187013,0.79572,0.62178
56.573,12.0166,-0.02105089,0.8359,0.62209
57.173,12.06751,-0.02069331,0.89201,0.62239
57.773,12.11622,-0.0209125,0.93877,0.6227
58.373,12.16245,-0.02040997,0.98229,0.623
58.973,12.20703,-0.01443278,1.01312,0.6233
59.573,12.2508,-0.02140938,1.06801,0.6236
60.173,12.29297,-0.02957478,1.10477,0.6239
60.773,12.33405,-0.02295132,1.13732,0.62419
61.373,12.37472,-0.02095175,1.17585,0.62449
61.973,12.41432,-0.02099509,1.21714,0.62478
62.573,12.45265,-0.02162,1.2527,0.62507
63.173,12.4905,-0.02143575,1.29456,0.62537
63.773,12.52722,-0.02324965,1.31825,0.62566
64.373,12.5632,-0.02338555,1.35788,0.62594
64.973,12.59879,-0.02475592,1.37903,0.62623
65.573,12.634,-0.02609559,1.41005,0.62652
66.173,12.6687,-0.02277066,1.44062,0.6268
66.773,12.70298,-0.02175518,1.47309,0.62709
67.373,12.7372,-0.02380459,1.49149,0.62737
67.973,12.77089,-0.02647648,1.5195,0.62765
68.573,12.8041,-0.02510665,1.55581,0.62793
69.173,12.837,-0.02449783,1.58862,0.62821
69.773,12.86965,-0.02444762,1.60258,0.62849
70.373,12.90193,-0.02426154,1.63486,0.62877
70.973,12.93404,-0.02445769,1.65507,0.62904
71.573,12.96556,-0.02428457,1.66614,0.62932
72.173,12.9969,-0.02318485,1.69916,0.62959
72.773,13.02806,-0.02270809,1.72199,0.62986
73.373,13.05912,-0.02347843,1.74588,0.63013
73.973,13.08987,-0.02316601,1.77429,0.6304
74.573,13.12023,-0.02467123,1.79914,0.63067
75.173,13.15065,-0.02612975,1.81516,0.63093
75.773,13.1808,-0.02669357,1.83163,0.6312
76.373,13.21124,-0.02551388,1.85623,0.63146
76.973,13.24129,-0.01924567,1.88616,0.63172
77.573,13.27082,-0.02706616,1.90374,0.63199
78.173,13.3003,-0.03729061,1.91857,0.63225
78.773,13.3295,-0.03362262,1.96771,0.6325
79.373,13.3588,-0.03173695,1.98318,0.63276
79.973,13.38759,-0.02938822,1.99228,0.63302
80.573,13.4162,-0.02908614,2.00634,0.63327
81.173,13.44471,-0.02808898,2.02938,0.63353
81.773,13.473,-0.02781938,2.04125,0.63378
82.373,13.5013,-0.02913545,2.06912,0.63403
82.973,13.5293,-0.02929788,2.08586,0.63428
83.573,13.5572,-0.02832925,2.10954,0.63453
84.173,13.58499,-0.02958222,2.12646,0.63478
84.773,13.61258,-0.03105848,2.15281,0.63502
85.373,13.64003,-0.03066461,2.17327,0.63527
85.973,13.66725,-0.02931229,2.1958,0.63551
86.573,13.6944,-0.0299878,2.20446,0.63575
87.173,13.72135,-0.02886324,2.22903,0.63599
87.773,13.7481,-0.02914041,2.26581,0.63623
88.373,13.77489,-0.02816027,2.265,0.63647
88.973,13.80154,-0.02904637,2.2742,0.63671
89.573,13.82797,-0.02905793,2.29244,0.63695
90.173,13.85426,-0.02930754,2.31215,0.63718
90.773,13.8804,-0.0305917,2.32367,0.63741
91.373,13.90637,-0.03208737,2.35015,0.63765
91.973,13.9322,-0.03373387,2.36538,0.63788
92.573,13.95795,-0.03249607,2.37187,0.63811
93.173,13.98357,-0.03362681,2.38494,0.63834
93.773,14.0091,-0.03225015,2.39071,0.63856
94.373,14.03462,-0.03226113,2.40885,0.63879
94.973,14.05993,-0.03298733,2.42136,0.63901
95.573,14.08518,-0.03410143,2.43051,0.63924
96.173,14.1102,-0.03509193,2.43203,0.63946
96.773,14.135,-0.03605041,2.44503,0.63968
97.373,14.15973,-0.03642482,2.44928,0.6399
97.973,14.1845,-0.03780965,2.46426,0.64012
98.573,14.20911,-0.03772672,2.48299,0.64033
99.173,14.2336,-0.03905656,2.48812,0.64055
99.773,14.25795,-0.03905011,2.48968,0.64076
100.373,14.2822,-0.03905015,2.48638,0.64098
100.973,14.30645,-0.03905331,2.49966,0.64119
101.573,14.33058,-0.04044241,2.51744,0.6414
102.173,14.35457,-0.03889252,2.50876,0.64161
102.773,14.3784,-0.03843287,2.51256,0.64182
103.373,14.40205,-0.03850636,2.51363,0.64203
103.973,14.42557,-0.03842873,2.5233,0.64223
104.573,14.44905,-0.04078935,2.52713,0.64244
105.173,14.4726,-0.04112846,2.53155,0.64264
105.773,14.49596,-0.04112994,2.53147,0.64284
106.373,14.51936,-0.04112997,2.53435,0.64304
106.973,14.54255,-0.04114239,2.53477,0.64324
107.573,14.56559,-0.04125442,2.546,0.64344
108.173,14.5886,-0.04245973,2.5557,0.64363
108.773,14.61151,-0.04245484,2.53769,0.64383
109.373,14.63439,-0.04272895,2.5314,0.64402
109.973,14.65719,-0.04378973,2.53633,0.64422
110.573,14.6799,-0.04377047,2.52314,0.64441
111.173,14.7024,-0.04311028,2.53022,0.6446
111.773,14.7249,-0.0424699,2.53463,0.64479
112.373,14.74741,-0.04243109,2.54017,0.64498
112.973,14.76976,-0.04141397,2.53645,0.64516
113.573,14.7918,-0.04124553,2.52792,0.64535
114.173,14.814,-0.04249857,2.53051,0.64553
114.773,14.8361,-0.04242892,2.52653,0.64572
115.373,14.85808,-0.04157456,2.5335,0.6459
115.973,14.8804,-0.04101024,2.527,0.64608
116.573,14.90231,-0.04235973,2.53253,0.64626
117.173,14.9242,-0.04255594,2.52564,0.64644
117.773,14.94607,-0.0425598,2.53411,0.64661
118.373,14.9678,-0.04255996,2.52714,0.64679
118.973,14.9894,-0.04256009,2.53657,0.64696
119.573,15.0108,-0.0430911,2.53256,0.64713
120.173,15.03229,-0.04274339,2.53273,0.64731
120.773,15.05369,-0.04369372,2.54249,0.64748
121.373,15.0751,-0.04301699,2.54402,0.64765
121.973,15.0963,-0.04269658,2.54611,0.64781
122.573,15.1176,-0.04319155,2.53176,0.64798
123.173,15.1387,-0.04410581,2.5317,0.64815
123.773,15.1597,-0.0444782,2.5392,0.64831
124.373,15.1807,-0.04539501,2.53928,0.64847
124.973,15.20166,-0.04523873,2.53559,0.64863
125.573,15.2226,-0.04550011,2.53107,0.64879
126.173,15.2434,-0.04542229,2.55381,0.64895
126.773,15.2642,-0.04455209,2.54903,0.64911
127.373,15.28493,-0.04411185,2.54461,0.64927
127.973,15.3056,-0.04418229,2.54326,0.64942
128.573,15.3262,-0.04479143,2.55824,0.64958
129.173,15.3467,-0.04398918,2.56416,0.64973
129.773,15.3672,-0.04405161,2.56362,0.64988
130.373,15.38755,-0.04357623,2.56643,0.65003
130.973,15.4078,-0.04404479,2.56477,0.65018
131.573,15.42795,-0.04258008,2.57599,0.65033
132.173,15.44811,-0.04261058,2.58305,0.65047
132.773,15.4682,-0.04124208,2.57933,0.65062
133.373,15.48838,-0.04120904,2.58822,0.65076
133.973,15.50855,-0.04318858,2.61039,0.65091
134.573,15.5285,-0.04321768,2.62047,0.65105
135.173,15.54856,-0.04322011,2.62989,0.65119
135.773,15.5685,-0.0432241,2.6287,0.65133
136.373,15.58836,-0.04380238,2.63022,0.65147
136.973,15.60813,-0.04517753,2.62741,0.6516
137.573,15.6279,-0.04513067,2.64647,0.65174
138.173,15.6476,-0.04629102,2.65147,0.65187
138.773,15.66726,-0.04504981,2.66996,0.652
139.373,15.68695,-0.04509199,2.67425,0.65214
139.973,15.70669,-0.04530993,2.68072,0.65227
140.573,15.72631,-0.04550806,2.68785,0.6524
141.173,15.74585,-0.04541758,2.70008,0.65252
141.773,15.76537,-0.04541062,2.7028,0.65265
142.373,15.78476,-0.04541005,2.72277,0.65278
142.973,15.8041,-0.04540999,2.71743,0.6529
143.573,15.8234,-0.04540977,2.72317,0.65302
144.173,15.8427,-0.04540731,2.74153,0.65314
144.773,15.86196,-0.04538016,2.73897,0.65326
145.373,15.88119,-0.04623398,2.75888,0.65338
145.973,15.9003,-0.04669074,2.76316,0.6535
146.573,15.91949,-0.04639236,2.77217,0.65362
147.173,15.9386,-0.04488867,2.78034,0.65373
147.773,15.9576,-0.04486603,2.79367,0.65385
148.373,15.97665,-0.04486077,2.80406,0.65396
148.973,15.99571,-0.0448607,2.81274,0.65407
149.573,16.01456,-0.04486864,2.83113,0.65418
150.173,16.03341,-0.04413908,2.83597,0.65429
150.773,16.05235,-0.04499031,2.82711,0.6544
151.373,16.07124,-0.04487792,2.83235,0.65451
151.973,16.09,-0.04487374,2.8407,0.65461
152.573,16.10904,-0.04617268,2.85834,0.65472
153.173,16.12792,-0.04618898,2.87736,0.65482
153.773,16.1467,-0.04692832,2.88237,0.65492
154.373,16.1655,-0.04750504,2.89398,0.65502
154.973,16.18424,-0.04750033,2.88617,0.65512
155.573,16.20291,-0.04749867,2.89854,0.65522
156.173,16.2216,-0.04748754,2.90781,0.65532
156.773,16.24004,-0.047443,2.91546,0.65542
157.373,16.2585,-0.0461832,2.92922,0.65551
157.973,16.2772,-0.04618075,2.92871,0.6556
158.573,16.29578,-0.0461801,2.9358,0.6557
159.173,16.3143,-0.04618008,2.94525,0.65579
159.773,16.33309,-0.04618083,2.95655,0.65588
160.373,16.3517,-0.04619307,2.96898,0.65597
160.973,16.37014,-0.04765205,2.97754,0.65605
161.573,16.38861,-0.04759516,2.99119,0.65614
162.173,16.40701,-0.04751799,2.98164,0.65622
162.773,16.42545,-0.04888409,3.00064,0.65631
163.373,16.44387,-0.04891822,3.01881,0.65639
163.973,16.46218,-0.04891989,3.00143,0.65647
164.573,16.48051,-0.04892012,3.01415,0.65655
165.173,16.49887,-0.0489197,3.03125,0.65663
165.773,16.51708,-0.04889838,3.04603,0.65671
166.373,16.5352,-0.04833658,3.05262,0.65678
166.973,16.55353,-0.0475923,3.05661,0.65686
167.573,16.57175,-0.04759554,3.06706,0.65693
168.173,16.58996,-0.04758488,3.07441,0.65701
168.773,16.60825,-0.04852406,3.08457,0.65708
169.373,16.62666,-0.04857563,3.09891,0.65715
169.973,16.64481,-0.04858824,3.10054,0.65722
170.573,16.66295,-0.04858985,3.11404,0.65729
171.173,16.6811,-0.04859001,3.1293,0.65735
171.773,16.6992,-0.04859,3.15309,0.65742
172.373,16.71719,-0.04858852,3.1451,0.65748
172.973,16.7353,-0.04856405,3.15038,0.65755
173.573,16.75335,-0.0482199,3.16211,0.65761
174.173,16.77131,-0.0472755,3.16048,0.65767
174.773,16.78929,-0.04728023,3.17601,0.65773
175.373,16.80728,-0.04724152,3.18611,0.65779
175.973,16.82519,-0.04840833,3.18341,0.65785
176.573,16.84306,-0.04876557,3.19728,0.6579
177.173,16.861,-0.04994875,3.22242,0.65796
177.773,16.87878,-0.04990912,3.23949,0.65801
178.373,16.89659,-0.04990948,3.3032,0.65806
178.973,16.91439,-0.04990987,3.31396,0.65811
179.573,16.93216,-0.04990938,3.32732,0.65816
180.173,16.94991,-0.04990812,3.31279,0.65821
180.773,16.9677,-0.04994591,3.31911,0.65826
181.373,16.98536,-0.04880267,3.32948,0.65831
181.973,17.0031,-0.04898558,3.34707,0.65835
182.573,17.02086,-0.05019197,3.35295,0.6584
183.173,17.03855,-0.05202814,3.30921,0.65844
183.773,17.05625,-0.05278238,3.32041,0.65848
184.373,17.0739,-0.05276265,3.31932,0.65852
184.973,17.0915,-0.05276023,3.34676,0.65856
185.573,17.1091,-0.05275998,3.36406,0.6586
186.173,17.12665,-0.05275379,3.36734,0.65864
186.773,17.14414,-0.0526694,3.39273,0.65868
187.373,17.16155,-0.05391149,3.39411,0.65871
187.973,17.179,-0.05408019,3.40856,0.65874
188.573,17.19629,-0.0540803,3.40693,0.65878
189.173,17.21353,-0.0540802,3.43437,0.65881
189.773,17.23087,-0.0540809,3.46301,0.65884
190.373,17.2483,-0.05407548,3.4662,0.65887
190.973,17.2657,-0.0539361,3.46914,0.6589
191.573,17.28312,-0.05635037,3.48178,0.65892
192.173,17.30058,-0.0568713,3.49174,0.65895
192.773,17.31789,-0.05544135,3.51488,0.65897
193.373,17.3352,-0.05470051,3.52479,0.659
193.973,17.3525,-0.05372496,3.53136,0.65902
194.573,17.36982,-0.05372912,3.5553,0.65904
195.173,17.38711,-0.05452295,3.56092,0.65906
195.773,17.40448,-0.05518801,3.58554,0.65908
196.373,17.42191,-0.0551778,3.59609,0.6591
196.973,17.43929,-0.05450631,3.61277,0.65911
197.573,17.4566,-0.05315291,3.62959,0.65913
198.173,17.47393,-0.05289886,3.6438,0.65914
198.773,17.49118,-0.05283439,3.64036,0.65916
199.373,17.5083,-0.05378545,3.65436,0.65917
199.973,17.52545,-0.05419657,3.66019,0.65918
200.573,17.5426,-0.05344984,3.67107,0.65919
201.173,17.55976,-0.05268235,3.68246,0.6592
201.773,17.57685,-0.0530228,3.68393,0.6592
202.373,17.59385,-0.05261914,3.68993,0.65921
202.973,17.61082,-0.0526564,3.72105,0.65922
203.573,17.6278,-0.05258925,3.73473,0.65922
204.173,17.64472,-0.05393072,3.74036,0.65922
204.773,17.6617,-0.05406329,3.74705,0.65922
205.373,17.6787,-0.05547859,3.75753,0.65922
205.973,17.69578,-0.05547878,3.76366,0.65922
206.573,17.71286,-0.05620227,3.76584,0.65922
207.173,17.72997,-0.0572099,3.78539,0.65922
207.773,17.747,-0.05819482,3.78826,0.65922
208.373,17.7641,-0.05839571,3.79459,0.65921
208.973,17.78114,-0.0596105,3.82268,0.6592
209.573,17.7982,-0.05955702,3.82019,0.6592
210.173,17.81523,-0.05956087,3.82399,0.65919
210.773,17.83224,-0.05957562,3.82679,0.65918
211.373,17.8492,-0.05956303,3.84847,0.65917
211.973,17.8663,-0.06093196,3.85208,0.65916
212.573,17.88327,-0.0609749,3.86359,0.65914
213.173,17.90019,-0.06097855,3.88194,0.65913
213.773,17.91712,-0.06116695,3.89587,0.65911
214.373,17.93403,-0.06238582,3.91815,0.6591
214.973,17.9509,-0.06227303,3.91459,0.65908
215.573,17.96779,-0.06316252,3.927,0.65906
216.173,17.98462,-0.06363905,3.93897,0.65904
216.773,18.00142,-0.06371258,3.94857,0.65902
217.373,18.01825,-0.06489773,3.96001,0.659
217.973,18.0351,-0.0649252,3.97501,0.65898
218.573,18.0519,-0.06497915,3.97558,0.65895
219.173,18.0687,-0.06399504,3.96905,0.65893
219.773,18.0855,-0.06358989,3.98743,0.6589
220.373,18.1023,-0.06228778,3.99334,0.65888
220.973,18.1191,-0.06207981,4.00314,0.65885
221.573,18.1359,-0.06207928,4.03075,0.65882
222.173,18.15273,-0.06208121,4.02883,0.65879
222.773,18.16946,-0.06208125,4.05014,0.65876
223.373,18.18626,-0.06198909,4.06012,0.65872
223.973,18.203,-0.06331721,4.06825,0.65869
224.573,18.21976,-0.06343482,4.05948,0.65866
225.173,18.23651,-0.06533262,4.07466,0.65862
225.773,18.2532,-0.06642858,4.08268,0.65858
226.373,18.26999,-0.06638878,4.09151,0.65855
226.973,18.2867,-0.06765819,4.11183,0.65851
227.573,18.30347,-0.06858896,4.11952,0.65847
228.173,18.32019,-0.06962256,4.12622,0.65842
228.773,18.33689,-0.07172256,4.14429,0.65838
229.373,18.35354,-0.07183476,4.15098,0.65834
229.973,18.37025,-0.07185907,4.16585,0.65829
230.573,18.387,-0.07138175,4.17455,0.65825
231.173,18.40365,-0.07034003,4.18424,0.6582
231.773,18.4203,-0.07081305,4.19177,0.65816
232.373,18.437,-0.07171688,4.20692,0.65811
232.973,18.4537,-0.07212077,4.21925,0.65806
233.573,18.47036,-0.07315979,4.21773,0.65801
234.173,18.4869,-0.07362289,4.23739,0.65795
234.773,18.50354,-0.07464945,4.2465,0.6579
235.373,18.52018,-0.075011,4.25981,0.65785
235.973,18.53673,-0.07607504,4.27834,0.65779
236.573,18.5533,-0.07622739,4.28843,0.65774
237.173,18.56984,-0.07736173,4.28597,0.65768
237.773,18.5864,-0.07652145,4.30268,0.65762
238.373,18.60299,-0.07522648,4.33083,0.65756
238.973,18.61959,-0.07368751,4.314,0.6575
239.573,18.6361,-0.07222145,4.32591,0.65744
240.173,18.6527,-0.073111,4.34727,0.65738
240.773,18.66923,-0.07393689,4.35736,0.65732
241.373,18.68577,-0.0760127,4.37725,0.65725
241.973,18.70226,-0.07872114,4.36179,0.65719
242.573,18.71881,-0.08076313,4.36766,0.65712
243.173,18.73537,-0.08190405,4.38532,0.65705
243.773,18.75195,-0.08427526,4.40885,0.65698
244.373,18.7685,-0.0862569,4.40646,0.65691
244.973,18.7851,-0.08741868,4.40646,0.65684
245.573,18.80164,-0.0895892,4.43122,0.65677
246.173,18.8182,-0.08970517,4.4346,0.6567
246.773,18.83466,-0.08978031,4.44364,0.65663
247.373,18.8511,-0.08950463,4.45523,0.65655
247.973,18.86765,-0.08990204,4.46136,0.65648
248.573,18.88414,-0.08970219,4.47817,0.6564
249.173,18.90067,-0.09156083,4.47979,0.65632
249.773,18.9172,-0.09201055,4.47591,0.65624
250.373,18.9337,-0.09320936,4.48432,0.65616
250.973,18.95019,-0.0945486,4.49887,0.65608
251.573,18.96665,-0.09475462,4.51738,0.656
252.173,18.98312,-0.09712365,4.53856,0.65592
252.773,18.99956,-0.09799818,4.55227,0.65584
253.373,19.01601,-0.09974087,4.54752,0.65575
253.973,19.03247,-0.10215,4.5524,0.65567
254.573,19.04889,-0.10319,4.54798,0.65558
255.173,19.0653,-0.10369,4.56333,0.65549
255.773,19.08169,-0.10376,4.55946,0.6554
256.373,19.0981,-0.10504,4.55817,0.65531
256.973,19.1145,-0.10627,4.56938,0.65522
257.573,19.1309,-0.10801,4.58951,0.65513
258.173,19.1473,-0.11037,4.59613,0.65504
258.773,19.16374,-0.11152,4.59603,0.65495
259.373,19.18018,-0.11289,4.60398,0.65485
259.973,19.19659,-0.11376,4.60856,0.65476
260.573,19.21301,-0.11486,4.61289,0.65466
261.173,19.2295,-0.11592,4.61802,0.65456
261.773,19.24596,-0.1156,4.61871,0.65446
262.373,19.26235,-0.1165,4.62742,0.65436
262.973,19.2787,-0.118,4.64006,0.65426
263.573,19.29509,-0.11712,4.61986,0.65416
264.173,19.31149,-0.11858,4.63325,0.65406
264.773,19.32791,-0.12046,4.64373,0.65396
265.373,19.34427,-0.12255,4.64864,0.65385
265.973,19.3607,-0.12528,4.65932,0.65375
266.573,19.37717,-0.12686,4.66279,0.65364
267.173,19.39355,-0.12808,4.6529,0.65354
267.773,19.40992,-0.1307,4.6753,0.65343
268.373,19.42631,-0.13365,4.67891,0.65332
268.973,19.44269,-0.13576,4.68963,0.65321
269.573,19.45906,-0.13841,4.70185,0.6531
270.173,19.47541,-0.14067,4.71229,0.65299
270.773,19.49182,-0.14176,4.71626,0.65287
271.373,19.5082,-0.14271,4.71641,0.65276
271.973,19.52454,-0.14474,4.71521,0.65265
272.573,19.5409,-0.14687,4.70929,0.65253
273.173,19.55726,-0.14835,4.72878,0.65241
273.773,19.5736,-0.14958,4.72134,0.6523
274.373,19.58991,-0.1517,4.7299,0.65218
274.973,19.6063,-0.15314,4.73201,0.65206
275.573,19.62265,-0.15519,4.72769,0.65194
276.173,19.639,-0.15749,4.73346,0.65182
276.773,19.65532,-0.15918,4.72935,0.6517
277.373,19.67163,-0.16159,4.74522,0.65157
277.973,19.68797,-0.16427,4.73697,0.65145
278.573,19.7043,-0.16571,4.71969,0.65133
279.173,19.72071,-0.16713,4.723,0.6512
279.773,19.73708,-0.16952,4.73923,0.65107
280.373,19.75347,-0.17224,4.75194,0.65095
280.973,19.76993,-0.17548,4.73947,0.65082
281.573,19.78631,-0.17999,4.75233,0.65069
282.173,19.80261,-0.1822,4.74958,0.65056
282.773,19.8189,-0.18425,4.76176,0.65043
283.373,19.83525,-0.18579,4.776,0.6503
283.973,19.85161,-0.18859,4.75905,0.65016
284.573,19.8679,-0.19252,4.7572,0.65003
285.173,19.88425,-0.19422,4.76681,0.64989
285.773,19.90063,-0.19584,4.76476,0.64976
286.373,19.91705,-0.19765,4.75975,0.64962
286.973,19.9334,-0.20035,4.77962,0.64949
287.573,19.94977,-0.20235,4.78087,0.64935
288.173,19.96614,-0.20455,4.79514,0.64921
288.773,19.98253,-0.20734,4.80686,0.64907
289.373,19.99886,-0.20987,4.79926,0.64893
289.973,20.01515,-0.21324,4.79897,0.64879
290.573,20.03151,-0.21563,4.80654,0.64864
291.173,20.04784,-0.21763,4.82293,0.6485
291.773,20.06415,-0.22068,4.82126,0.64836
292.373,20.08041,-0.22363,4.81813,0.64821
292.973,20.09671,-0.22673,4.83669,0.64806
293.573,20.11307,-0.22999,4.84797,0.64792
294.173,20.12939,-0.23225,4.85618,0.64777
294.773,20.1458,-0.23476,4.85287,0.64762
295.373,20.16215,-0.23875,4.85368,0.64747
295.973,20.17863,-0.24161,4.86036,0.64732
296.573,20.195,-0.24506,4.8584,0.64717
297.173,20.21135,-0.24952,4.86757,0.64702
297.773,20.22772,-0.25196,4.8603,0.64687
298.373,20.24407,-0.25668,4.88553,0.64671
298.973,20.26041,-0.2615,4.88339,0.64656
299.573,20.27676,-0.26457,4.86799,0.6464
300.173,20.293,-0.26882,4.87837,0.64625
300.773,20.30932,-0.27261,4.88175,0.64609
301.373,20.3257,-0.27596,4.88569,0.64593
301.973,20.34199,-0.28035,4.89035,0.64577
302.573,20.35834,-0.28358,4.89366,0.64561
303.173,20.37471,-0.28815,4.8991,0.64545
303.773,20.39118,-0.29234,4.91033,0.64529
304.373,20.40752,-0.29684,4.91217,0.64513
304.973,20.42391,-0.30155,4.91643,0.64497
305.573,20.4403,-0.30521,4.9229,0.6448
306.173,20.45665,-0.30999,4.93258,0.64464
306.773,20.47302,-0.31417,4.94606,0.64447
307.373,20.48938,-0.31961,4.96183,0.64431
307.973,20.5058,-0.32539,4.97335,0.64414
308.573,20.52212,-0.32994,4.9725,0.64397
309.173,20.5385,-0.33514,4.98378,0.6438
309.773,20.55487,-0.33894,4.9967,0.64364
310.373,20.57124,-0.34399,4.99886,0.64347
310.973,20.58764,-0.34854,5.03612,0.64329
311.573,20.604,-0.35279,5.03368,0.64312
312.173,20.62037,-0.35907,5.04106,0.64295
312.773,20.63676,-0.3637,5.05969,0.64278
313.373,20.65314,-0.36982,5.07591,0.6426
313.973,20.6695,-0.37534,5.08779,0.64243
314.573,20.68583,-0.38084,5.09741,0.64225
315.173,20.70222,-0.38712,5.1115,0.64208
315.773,20.71866,-0.39087,5.13543,0.6419
316.373,20.73501,-0.39759,5.14734,0.64172
316.973,20.75132,-0.40326,5.17509,0.64154
317.573,20.76774,-0.41054,5.18477,0.64136
318.173,20.7841,-0.41673,5.20997,0.64118
318.773,20.80049,-0.42186,5.23801,0.641
319.373,20.8168,-0.43019,5.26367,0.64082
319.973,20.8332,-0.43774,5.28298,0.64064
320.573,20.84967,-0.44583,5.31902,0.64045
321.173,20.86603,-0.45313,5.34053,0.64027
321.773,20.88242,-0.45833,5.3517,0.64008
322.373,20.89886,-0.46496,5.39112,0.6399
322.973,20.91528,-0.47166,5.42316,0.63971
323.573,20.93167,-0.47971,5.44372,0.63953
324.173,20.94809,-0.48748,5.48349,0.63934
324.773,20.96452,-0.49452,5.51817,0.63915
325.373,20.981,-0.5022,5.53592,0.63896
325.973,20.99742,-0.5083,5.56182,0.63877
326.573,21.01387,-0.51653,5.5993,0.63858
327.173,21.0303,-0.52457,5.61852,0.63839
327.773,21.0467,-0.53317,5.6488,0.6382
328.373,21.06306,-0.54311,5.672,0.638
328.973,21.07946,-0.55054,5.70654,0.63781
329.573,21.09587,-0.55924,5.73903,0.63761
330.173,21.11236,-0.56574,5.77438,0.63742
330.773,21.1288,-0.5743,5.81918,0.63722
331.373,21.14527,-0.58479,5.86229,0.63703
331.973,21.1617,-0.59389,5.88707,0.63683
332.573,21.17819,-0.60425,5.93494,0.63663
333.173,21.19465,-0.61218,5.95665,0.63643
333.773,21.21108,-0.62241,6.00485,0.63623
334.373,21.22754,-0.63509,6.05639,0.63603
334.973,21.24399,-0.64649,6.08669,0.63583
335.573,21.26044,-0.66009,6.12684,0.63563
336.173,21.27686,-0.66942,6.17469,0.63543
336.773,21.2933,-0.68026,6.21734,0.63522
337.373,21.30976,-0.68846,6.2521,0.63502
337.973,21.3262,-0.69843,6.28714,0.63482
338.573,21.34274,-0.71066,6.33427,0.63461
339.173,21.35923,-0.72024,6.36191,0.63441
339.773,21.3757,-0.73245,6.4177,0.6342
340.373,21.3922,-0.74239,6.46437,0.63399
340.973,21.40871,-0.75363,6.4877,0.63378
341.573,21.42524,-0.76591,6.53244,0.63357
342.173,21.44177,-0.77681,6.57497,0.63337
342.773,21.45835,-0.79105,6.60395,0.63316
343.373,21.47488,-0.80253,6.6409,0.63295
343.973,21.49142,-0.8165,6.68918,0.63273
344.573,21.50788,-0.82932,6.73059,0.63252
345.173,21.52433,-0.84067,6.75524,0.63231
345.773,21.5408,-0.85327,6.79668,0.6321
346.373,21.55723,-0.86411,6.84457,0.63188
346.973,21.57376,-0.87779,6.87696,0.63167
347.573,21.59037,-0.8899,6.90551,0.63145
348.173,21.60695,-0.90233,6.94424,0.63124
348.773,21.62351,-0.91611,6.98315,0.63102
349.373,21.64009,-0.92723,7.03625,0.6308
349.973,21.65664,-0.94264,7.06979,0.63059
350.573,21.6732,-0.95658,7.10629,0.63037
351.173,21.68976,-0.9716,7.1583,0.63015
351.773,21.70636,-0.98723,7.18327,0.62993
352.373,21.72297,-1.00003,7.21881,0.62971
352.973,21.7396,-1.01549,7.2556,0.62949
353.573,21.75619,-1.02736,7.27032,0.62926
354.173,21.77279,-1.04347,7.33362,0.62904
354.773,21.78943,-1.05747,7.36112,0.62882
355.373,21.80604,-1.07202,7.38736,0.6286
355.973,21.82265,-1.08816,7.43251,0.62837
356.573,21.83928,-1.10046,7.46754,0.62815
357.173,21.8559,-1.11569,7.50612,0.62792
357.773,21.87252,-1.12734,7.5337,0.6277
358.373,21.88914,-1.14268,7.58469,0.62747
358.973,21.90577,-1.15793,7.60866,0.62724
359.573,21.92239,-1.17187,7.64809,0.62701
360.173,21.93903,-1.18866,7.69013,0.62679
360.773,21.95572,-1.20038,7.73331,0.62656
361.373,21.9724,-1.21465,7.7791,0.62633
361.973,21.9891,-1.22939,7.81561,0.6261
362.573,22.0058,-1.2439,7.86384,0.62587
363.173,22.0225,-1.26194,7.91652,0.62563
363.773,22.03916,-1.27542,7.95262,0.6254
364.373,22.05588,-1.29201,8.01667,0.62517
364.973,22.07263,-1.30548,8.06799,0.62494
365.573,22.08932,-1.32079,8.12815,0.6247
366.173,22.10603,-1.33766,8.1807,0.62447
366.773,22.12281,-1.35377,8.24867,0.62423
367.373,22.13953,-1.37377,8.31671,0.624
367.973,22.15624,-1.38899,8.38277,0.62376
368.573,22.17296,-1.4081,8.43966,0.62352
369.173,22.18975,-1.42373,8.52643,0.62329
369.773,22.20649,-1.43895,8.60468,0.62305
370.373,22.22324,-1.45673,8.67855,0.62281
370.973,22.24001,-1.47173,8.7579,0.62257
371.573,22.25675,-1.49166,8.85088,0.62233
372.173,22.27346,-1.50899,8.94239,0.62209
372.773,22.29024,-1.52983,9.04406,0.62185
373.373,22.30697,-1.5509,9.14731,0.62161
373.973,22.3237,-1.56709,9.24907,0.62137
374.573,22.34049,-1.58333,9.34696,0.62113
375.173,22.35728,-1.59394,9.44316,0.62088
375.773,22.37404,-1.61327,9.54269,0.62064
376.373,22.3908,-1.63102,9.65714,0.6204
376.973,22.4077,-1.65005,9.77836,0.62015
377.573,22.42451,-1.67192,9.89527,0.61991
378.173,22.44134,-1.68895,10.01262,0.61966
378.773,22.4581,-1.71187,10.14279,0.61941
379.373,22.4749,-1.72979,10.2655,0.61917
379.973,22.49157,-1.75035,10.37968,0.61892
380.573,22.50831,-1.7708,10.50561,0.61867
381.173,22.52509,-1.79026,10.62722,0.61842
381.773,22.54187,-1.8144,10.76017,0.61818
382.373,22.55878,-1.83356,10.88124,0.61793
382.973,22.57565,-1.85813,11.01042,0.61768
383.573,22.5926,-1.87852,11.14006,0.61743
384.173,22.60941,-1.90222,11.24944,0.61718
384.773,22.62629,-1.9252,11.3622,0.61692
385.373,22.64316,-1.94551,11.48115,0.61667
385.973,22.65999,-1.97119,11.60893,0.61642
386.573,22.67687,-1.99141,11.70095,0.61617
387.173,22.69381,-2.01715,11.80432,0.61591
387.773,22.71075,-2.03962,11.87674,0.61566
388.373,22.72765,-2.06287,11.97794,0.61541
388.973,22.74455,-2.0883,12.07651,0.61515
389.573,22.76148,-2.10908,12.1335,0.6149
390.173,22.77838,-2.13571,12.17424,0.61464
390.773,22.79534,-2.15736,12.20876,0.61438
391.373,22.81229,-2.18368,12.22035,0.61413
391.973,22.8293,-2.20671,12.24563,0.61387
392.573,22.84628,-2.2303,12.24334,0.61361
393.173,22.86327,-2.25722,12.20552,0.61335
393.773,22.8802,-2.27845,12.16363,0.6131
394.373,22.89721,-2.30587,12.07772,0.61284
394.973,22.9143,-2.32684,11.97803,0.61258
395.573,22.93139,-2.35158,11.8683,0.61232
396.173,22.94851,-2.37462,11.74892,0.61206
396.773,22.9657,-2.39793,11.58955,0.6118
397.373,22.9829,-2.42637,11.43191,0.61153
397.973,22.99994,-2.44884,11.2225,0.61127
398.573,23.01699,-2.47247,10.9885,0.61101
399.173,23.03404,-2.48585,10.7361,0.61075
399.773,23.05113,-2.50084,10.45686,0.61048
400.373,23.0682,-2.51944,10.1635,0.61022
400.973,23.08526,-2.54053,9.84167,0.60996
401.573,23.10235,-2.56373,9.51388,0.60969
402.173,23.11947,-2.58059,9.1725,0.60943
402.773,23.13662,-2.60132,8.78308,0.60916
403.373,23.15377,-2.61671,8.40137,0.6089
403.973,23.17096,-2.63353,8.02043,0.60863
404.573,23.1881,-2.6486,7.61621,0.60836
405.173,23.20535,-2.66159,7.21691,0.60809
405.773,23.2225,-2.6773,6.8092,0.60783
406.373,23.23974,-2.68966,6.39698,0.60756
406.973,23.2569,-2.70437,5.98727,0.60729
407.573,23.27405,-2.71424,5.58824,0.60702
408.173,23.29125,-2.72478,5.19359,0.60675
408.773,23.3084,-2.73383,4.80819,0.60648
409.373,23.32559,-2.74214,4.427,0.60621
409.973,23.3428,-2.75055,4.09156,0.60594
410.573,23.35997,-2.75557,3.74973,0.60567
411.173,23.37718,-2.7623,3.43597,0.6054
411.773,23.39433,-2.76912,3.14713,0.60513
412.373,23.41154,-2.77627,2.86629,0.60486
412.973,23.4287,-2.78187,2.60345,0.60458
413.573,23.44596,-2.78668,2.35294,0.60431
414.173,23.46317,-2.79085,2.14397,0.60404
414.773,23.48039,-2.79432,1.94249,0.60376
415.373,23.49757,-2.79882,1.77436,0.60349
415.973,23.51478,-2.80217,1.61693,0.60322
416.573,23.53196,-2.80536,1.46523,0.60294
417.173,23.5491,-2.80808,1.33319,0.60267
417.773,23.5663,-2.81058,1.2311,0.60239
418.373,23.5836,-2.81335,1.13645,0.60211
418.973,23.60079,-2.81613,1.04865,0.60184
419.573,23.61799,-2.81841,0.96367,0.60156
420.173,23.6352,-2.82153,0.87879,0.60128
420.773,23.65239,-2.82391,0.8228,0.60101
421.373,23.6696,-2.82546,0.7774,0.60073
421.973,23.6869,-2.82724,0.72081,0.60045
422.573,23.7041,-2.82889,0.66224,0.60017
423.173,23.7213,-2.83048,0.60737,0.59989
423.773,23.73864,-2.83245,0.56882,0.59961
424.373,23.75587,-2.83477,0.53608,0.59933
424.973,23.77306,-2.83643,0.48923,0.59905
425.573,23.79038,-2.83867,0.46762,0.59877
426.173,23.80769,-2.84148,0.4216,0.59849
426.773,23.825,-2.84345,0.4021,0.59821
427.373,23.8423,-2.84575,0.37069,0.59793
427.973,23.8597,-2.84829,0.34004,0.59765
428.573,23.87698,-2.85031,0.30878,0.59737
429.173,23.89428,-2.85319,0.27541,0.59709
429.773,23.91157,-2.85554,0.25741,0.5968
430.373,23.92886,-2.85664,0.22286,0.59652
430.973,23.94618,-2.85758,0.20913,0.59624
431.573,23.96353,-2.85922,0.17188,0.59595
432.173,23.98087,-2.86144,0.15481,0.59567
432.773,23.99824,-2.86383,0.12203,0.59539
433.373,24.01555,-2.86728,0.09375282,0.5951
433.973,24.03281,-2.87018,0.0987996,0.59482
434.573,24.05009,-2.87193,0.0746276,0.59453
435.173,24.06741,-2.87403,0.03828946,0.59425
435.773,24.0848,-2.87557,0.02262659,0.59396
436.373,24.10224,-2.87711,-0.01012105,0.59367
436.973,24.11975,-2.87937,-0.03557429,0.59339
437.573,24.1372,-2.88164,-0.06756217,0.5931
438.173,24.15468,-2.88286,-0.08115022,0.59281
438.773,24.1721,-2.8849,-0.09979595,0.59253
439.373,24.1895,-2.88755,-0.1256,0.59224
439.973,24.207,-2.88969,-0.13649,0.59195
440.573,24.22449,-2.89262,-0.16014,0.59166
441.173,24.242,-2.89468,-0.17137,0.59137
441.773,24.25948,-2.89586,-0.19137,0.59109
442.373,24.277,-2.89642,-0.21023,0.5908
442.973,24.29448,-2.89786,-0.22885,0.59051
443.573,24.31195,-2.8989,-0.23251,0.59022
444.173,24.32945,-2.89992,-0.26462,0.58993
444.773,24.34698,-2.90198,-0.2892,0.58964
445.373,24.36446,-2.90471,-0.28965,0.58935
445.973,24.38199,-2.90709,-0.30928,0.58906
446.573,24.39953,-2.90935,-0.32829,0.58877
447.173,24.41708,-2.91139,-0.35252,0.58847
447.773,24.43459,-2.9129,-0.38321,0.58818
448.373,24.45215,-2.91381,-0.39733,0.58789
448.973,24.4697,-2.91514,-0.41321,0.5876
449.573,24.48724,-2.91612,-0.42271,0.58731
450.173,24.50478,-2.9163,-0.44188,0.58702
450.773,24.5224,-2.91821,-0.45233,0.58672
451.373,24.53997,-2.92006,-0.45976,0.58643
451.973,24.55755,-2.92221,-0.47292,0.58614
452.573,24.5751,-2.92434,-0.4853,0.58584
453.173,24.59272,-2.92596,-0.49847,0.58555
453.773,24.61025,-2.9272,-0.5028,0.58526
454.373,24.62789,-2.92826,-0.50375,0.58496
454.973,24.64548,-2.92957,-0.51809,0.58467
455.573,24.66314,-2.93034,-0.52659,0.58437
456.173,24.68079,-2.93107,-0.53871,0.58408
456.773,24.69855,-2.93295,-0.54599,0.58378
457.373,24.71623,-2.93494,-0.55074,0.58349
457.973,24.73391,-2.93688,-0.55563,0.58319
458.573,24.75158,-2.93965,-0.55437,0.5829
459.173,24.76926,-2.94201,-0.55394,0.5826
459.773,24.7869,-2.94488,-0.54505,0.5823
460.373,24.8046,-2.9467,-0.54633,0.58201
460.973,24.8222,-2.94823,-0.55226,0.58171
461.573,24.83996,-2.94887,-0.54965,0.58141
462.173,24.85768,-2.95063,-0.53828,0.58112
462.773,24.87539,-2.95287,-0.54332,0.58082
463.373,24.89314,-2.95513,-0.53312,0.58052
463.973,24.91096,-2.95605,-0.53561,0.58023
464.573,24.92867,-2.95797,-0.53396,0.57993
465.173,24.94643,-2.95858,-0.53547,0.57963
465.773,24.96425,-2.95859,-0.52068,0.57933
466.373,24.98206,-2.9588,-0.50577,0.57903
466.973,24.9999,-2.96002,-0.49794,0.57873
467.573,25.01771,-2.96165,-0.48617,0.57844
468.173,25.0355,-2.96299,-0.475,0.57814
468.773,25.0533,-2.96476,-0.47802,0.57784
469.373,25.0711,-2.96684,-0.46202,0.57754
469.973,25.0888,-2.96992,-0.44554,0.57724
470.573,25.10665,-2.97083,-0.45328,0.57694
471.173,25.1245,-2.97169,-0.42451,0.57664
471.773,25.14229,-2.97269,-0.41077,0.57634
472.373,25.16015,-2.97323,-0.39943,0.57604
472.973,25.1781,-2.97481,-0.38994,0.57574
473.573,25.19598,-2.97598,-0.35611,0.57544
474.173,25.2139,-2.9774,-0.34246,0.57514
474.773,25.23181,-2.97862,-0.3387,0.57484
475.373,25.2497,-2.97815,-0.33205,0.57454
475.973,25.2676,-2.97927,-0.30845,0.57424
476.573,25.28549,-2.97976,-0.29489,0.57393
477.173,25.30335,-2.98136,-0.28065,0.57363
477.773,25.3213,-2.9831,-0.26101,0.57333
478.373,25.33915,-2.98423,-0.25697,0.57303
478.973,25.35709,-2.98494,-0.24045,0.57273
479.573,25.375,-2.98657,-0.21268,0.57243
480.173,25.39294,-2.98835,-0.20799,0.57212
480.773,25.41085,-2.98992,-0.19989,0.57182
481.373,25.42884,-2.99012,-0.17137,0.57152
481.973,25.4468,-2.99127,-0.17063,0.57122
482.573,25.46477,-2.98983,-0.15158,0.57091
483.173,25.48276,-2.99087,-0.13448,0.57061
483.773,25.5008,-2.99148,-0.12707,0.57031
484.373,25.5188,-2.99418,-0.10854,0.57001
484.973,25.5368,-2.99438,-0.10478,0.5697
485.573,25.5549,-2.99592,-0.0782563,0.5694
486.173,25.57292,-2.99687,-0.06998392,0.5691
486.773,25.59101,-2.9977,-0.04263718,0.56879
487.373,25.60906,-2.99838,-0.0402709,0.56849
487.973,25.62709,-2.99981,-0.02068264,0.56818
488.573,25.64516,-3.00021,-0.0009146022,0.56788
489.173,25.6632,-3.00145,0.008492257,0.56758
489.773,25.68124,-3.00273,0.02667516,0.56727
490.373,25.69926,-3.00299,0.0417819,0.56697
490.973,25.71733,-3.00436,0.05014267,0.56666
491.573,25.73542,-3.00517,0.05836593,0.56636
492.173,25.75354,-3.00692,0.06127293,0.56606
492.773,25.77166,-3.00963,0.07293656,0.56575
493.373,25.78981,-3.01102,0.08959112,0.56545
493.973,25.80793,-3.01095,0.10434,0.56514
494.573,25.82611,-3.01249,0.11823,0.56484
495.173,25.84424,-3.01395,0.13501,0.56453
495.773,25.8624,-3.01515,0.12655,0.56423
496.373,25.88055,-3.01613,0.13999,0.56392
496.973,25.89872,-3.01614,0.14875,0.56362
497.573,25.91687,-3.01751,0.15872,0.56331
498.173,25.93505,-3.01675,0.17658,0.56301
498.773,25.95326,-3.0179,0.17376,0.5627
499.373,25.97148,-3.01951,0.17466,0.5624
499.973,25.98963,-3.02084,0.1945,0.56209
500.573,26.00783,-3.02283,0.2091,0.56178
501.173,26.02604,-3.02434,0.19862,0.56148
501.773,26.04424,-3.02524,0.19629,0.56117
502.373,26.06232,-3.02571,0.18988,0.56087
502.973,26.08055,-3.0269,0.18993,0.56056
503.573,26.0987,-3.0271,0.18263,0.56026
504.173,26.11691,-3.02853,0.17627,0.55995
504.773,26.1352,-3.02924,0.17085,0.55964
505.373,26.1536,-3.03023,0.15657,0.55934
505.973,26.1719,-3.03183,0.1513,0.55903
506.573,26.19027,-3.03216,0.14747,0.55872
507.173,26.20859,-3.03305,0.14369,0.55842
507.773,26.2269,-3.03304,0.12889,0.55811
508.373,26.24522,-3.03304,0.12314,0.55781
508.973,26.26356,-3.03309,0.11711,0.5575
509.573,26.2819,-3.03444,0.10895,0.55719
510.173,26.3003,-3.03392,0.09458407,0.55689
510.773,26.31868,-3.03303,0.08698728,0.55658
511.373,26.337,-3.03296,0.07778092,0.55627
511.973,26.35544,-3.03432,0.08309936,0.55597
512.573,26.3738,-3.03435,0.07474847,0.55566
513.173,26.39218,-3.0343,0.07035369,0.55535
513.773,26.4105,-3.03542,0.05527253,0.55505
514.373,26.42894,-3.03664,0.04124542,0.55474
514.973,26.4473,-3.03788,0.0386187,0.55443
515.573,26.4657,-3.03844,0.03056087,0.55413
516.173,26.4841,-3.04021,0.02480193,0.55382
516.773,26.50252,-3.04142,0.02203942,0.55351
517.373,26.5209,-3.04135,0.01321168,0.55321
517.973,26.53932,-3.04273,0.00677695,0.5529
518.573,26.55773,-3.04412,-0.001253809,0.55259
519.173,26.5762,-3.0457,-0.00706107,0.55229
519.773,26.59457,-3.04642,-0.0108604,0.55198
520.373,26.61303,-3.04744,-0.00797143,0.55167
520.973,26.63144,-3.04743,-0.02160428,0.55137
521.573,26.64987,-3.04746,-0.03575441,0.55106
522.173,26.66832,-3.04746,-0.03427022,0.55075
522.773,26.6869,-3.04742,-0.04080975,0.55045
523.373,26.70535,-3.04847,-0.04456323,0.55014
523.973,26.72392,-3.04881,-0.04714456,0.54983
524.573,26.74247,-3.04881,-0.05741533,0.54953
525.173,26.76101,-3.04967,-0.0641371,0.54922
525.773,26.77951,-3.05026,-0.06379547,0.54891
526.373,26.798,-3.05069,-0.0691159,0.54861
526.973,26.81649,-3.05149,-0.07753177,0.5483
527.573,26.83496,-3.05231,-0.09372697,0.54799
528.173,26.85347,-3.05391,-0.11196,0.54769
528.773,26.872,-3.05403,-0.10297,0.54738
529.373,26.89053,-3.05531,-0.10516,0.54707
529.973,26.9091,-3.0553,-0.1088,0.54677
530.573,26.9277,-3.0553,-0.10866,0.54646
531.173,26.94619,-3.0553,-0.12248,0.54615
531.773,26.96469,-3.05529,-0.11786,0.54585
532.373,26.9833,-3.05522,-0.11257,0.54554
532.973,27.00174,-3.05646,-0.11998,0.54523
533.573,27.0203,-3.0566,-0.12763,0.54493
534.173,27.0389,-3.05758,-0.12481,0.54462
534.773,27.05743,-3.05794,-0.13412,0.54431
535.373,27.07599,-3.05796,-0.1387,0.54401
535.973,27.0946,-3.05836,-0.13796,0.5437
536.573,27.1132,-3.05785,-0.13829,0.5434
537.173,27.1318,-3.05793,-0.1369,0.54309
537.773,27.15039,-3.05793,-0.14857,0.54278
538.373,27.169,-3.05889,-0.15041,0.54248
538.973,27.1876,-3.06074,-0.14887,0.54217
539.573,27.20614,-3.06212,-0.15277,0.54187
540.173,27.22472,-3.06353,-0.14944,0.54156
540.773,27.2433,-3.06559,-0.15126,0.54125
541.373,27.2619,-3.06694,-0.15361,0.54095
541.973,27.2806,-3.0684,-0.15379,0.54064
542.573,27.2992,-3.06837,-0.16094,0.54034
543.173,27.31785,-3.0675,-0.16086,0.54003
543.773,27.3365,-3.06705,-0.16769,0.53973
544.373,27.3552,-3.06816,-0.19016,0.53942
544.973,27.37373,-3.06878,-0.18678,0.53911
545.573,27.3924,-3.06994,-0.19094,0.53881
546.173,27.4111,-3.0699,-0.18278,0.5385
546.773,27.4298,-3.07135,-0.18434,0.5382
547.373,27.44841,-3.07157,-0.19127,0.53789
547.973,27.46717,-3.07308,-0.20847,0.53759
548.573,27.4858,-3.07451,-0.21596,0.53728
549.173,27.50443,-3.07466,-0.22548,0.53698
549.773,27.5232,-3.07574,-0.23575,0.53667
550.373,27.5419,-3.0761,-0.23941,0.53637
550.973,27.5606,-3.07691,-0.22952,0.53606
551.573,27.5793,-3.07746,-0.23932,0.53576
552.173,27.59807,-3.07614,-0.25353,0.53546
552.773,27.61675,-3.07767,-0.25974,0.53515
553.373,27.63547,-3.07804,-0.26958,0.53485
553.973,27.6541,-3.07906,-0.27595,0.53454
554.573,27.6728,-3.07918,-0.27637,0.53424
555.173,27.69153,-3.08035,-0.28994,0.53394
555.773,27.7103,-3.08031,-0.30107,0.53363
556.373,27.72901,-3.08063,-0.30615,0.53333
556.973,27.74775,-3.08165,-0.31064,0.53302
557.573,27.7665,-3.08161,-0.32009,0.53272
558.173,27.7853,-3.08101,-0.32913,0.53242
558.773,27.804,-3.08067,-0.33358,0.53211
559.373,27.8228,-3.08058,-0.33633,0.53181
559.973,27.84164,-3.08195,-0.33442,0.53151
560.573,27.8604,-3.08227,-0.34062,0.5312
561.173,27.8792,-3.08372,-0.35212,0.5309
561.773,27.89801,-3.0846,-0.37913,0.5306
562.373,27.9168,-3.08504,-0.37553,0.5303
562.973,27.93563,-3.08504,-0.38218,0.52999
563.573,27.95451,-3.08504,-0.39777,0.52969
564.173,27.9733,-3.08504,-0.3979,0.52939
564.773,27.99217,-3.08501,-0.41233,0.52909
565.373,28.01094,-3.08584,-0.41034,0.52878
565.973,28.0298,-3.08634,-0.41759,0.52848
566.573,28.04865,-3.08636,-0.42044,0.52818
567.173,28.06751,-3.08692,-0.41779,0.52788
567.773,28.0864,-3.087,-0.4138,0.52758
568.373,28.10533,-3.08701,-0.40632,0.52728
568.973,28.12417,-3.08701,-0.42452,0.52697
569.573,28.14302,-3.08696,-0.42065,0.52667
570.173,28.16183,-3.08774,-0.42629,0.52637
570.773,28.18068,-3.08767,-0.42999,0.52607
571.373,28.19957,-3.08767,-0.43066,0.52577
571.973,28.2185,-3.08768,-0.42325,0.52547
572.573,28.2374,-3.08848,-0.44625,0.52517
573.173,28.25631,-3.08921,-0.43776,0.52487
573.773,28.27523,-3.09084,-0.44289,0.52457
574.373,28.2941,-3.09066,-0.46958,0.52427
574.973,28.31304,-3.09196,-0.45954,0.52397
575.573,28.33196,-3.09206,-0.46438,0.52367
576.173,28.3509,-3.09206,-0.46138,0.52337
576.773,28.36975,-3.09244,-0.46879,0.52307
577.373,28.3887,-3.0936,-0.49018,0.52277
577.973,28.4076,-3.09412,-0.49857,0.52247
578.573,28.4266,-3.09494,-0.50322,0.52217
579.173,28.44547,-3.09494,-0.50904,0.52187
579.773,28.46438,-3.09543,-0.52757,0.52158
580.373,28.4833,-3.09638,-0.52414,0.52128
580.973,28.5023,-3.09767,-0.52664,0.52098
581.573,28.52123,-3.09795,-0.54333,0.52068
582.173,28.54021,-3.09948,-0.56127,0.52038
582.773,28.5592,-3.10072,-0.56627,0.52009
583.373,28.57825,-3.10198,-0.57477,0.51979
583.973,28.59726,-3.10329,-0.58754,0.51949
584.573,28.61628,-3.10344,-0.5906,0.51919
585.173,28.63533,-3.10346,-0.59929,0.5189
585.773,28.6543,-3.10353,-0.60959,0.5186
586.373,28.67325,-3.10488,-0.62282,0.5183
586.973,28.69228,-3.10481,-0.63822,0.51801
587.573,28.71129,-3.10629,-0.65544,0.51771
588.173,28.7303,-3.10622,-0.67221,0.51741
588.773,28.7493,-3.10686,-0.67717,0.51712
589.373,28.7683,-3.10618,-0.69281,0.51682
589.973,28.78725,-3.10599,-0.7031,0.51653
590.573,28.80629,-3.10505,-0.70507,0.51623
591.173,28.82535,-3.10322,-0.73244,0.51593
591.773,28.8444,-3.10201,-0.74778,0.51564
592.373,28.8635,-3.10204,-0.75666,0.51534
592.973,28.88265,-3.10204,-0.78191,0.51505
593.573,28.90168,-3.10374,-0.79115,0.51476
594.173,28.9208,-3.10504,-0.80723,0.51446
594.773,28.9399,-3.10668,-0.81452,0.51417
595.373,28.95895,-3.10903,-0.81944,0.51387
595.973,28.97803,-3.11063,-0.81713,0.51358
596.573,28.99721,-3.1106,-0.81742,0.51329
597.173,29.0163,-3.111,-0.84236,0.51299
597.773,29.0355,-3.11206,-0.85487,0.5127
598.373,29.05465,-3.11293,-0.86869,0.51241
598.973,29.07374,-3.11331,-0.87637,0.51211
599.573,29.09285,-3.11333,-0.87461,0.51182
600.173,29.112,-3.11333,-0.89111,0.51153
600.773,29.1311,-3.11334,-0.92032,0.51124
601.373,29.1502,-3.11483,-0.92732,0.51094
601.973,29.1694,-3.11443,-0.92932,0.51065
602.573,29.18855,-3.11508,-0.92505,0.51036
603.173,29.2077,-3.11509,-0.95734,0.51007
603.773,29.2269,-3.11509,-0.96841,0.50978
604.373,29.24605,-3.11509,-0.96565,0.50949
604.973,29.2653,-3.11509,-0.96967,0.5092
605.573,29.28449,-3.11509,-0.98419,0.50891
606.173,29.3037,-3.11512,-0.99332,0.50862
606.773,29.32295,-3.11475,-1.02214,0.50833
607.373,29.34218,-3.11436,-1.02279,0.50804
607.973,29.36137,-3.11489,-1.04197,0.50775
608.573,29.3805,-3.11568,-1.03871,0.50746
609.173,29.3997,-3.1157,-1.05943,0.50717
609.773,29.41893,-3.11509,-1.06111,0.50688
610.373,29.4382,-3.11353,-1.07903,0.50659
610.973,29.45738,-3.1121,-1.08657,0.5063
611.573,29.4767,-3.11306,-1.10351,0.50601
612.173,29.49592,-3.11304,-1.11252,0.50573
612.773,29.51517,-3.1161,-1.12549,0.50544
613.373,29.5344,-3.11906,-1.12591,0.50515
613.973,29.55354,-3.1215,-1.13722,0.50486
614.573,29.57265,-3.12188,-1.1459,0.50458
615.173,29.59177,-3.12198,-1.16229,0.50429
615.773,29.6109,-3.12139,-1.17212,0.504
616.373,29.63012,-3.12144,-1.172,0.50372
616.973,29.64945,-3.12213,-1.19449,0.50343
617.573,29.6688,-3.12298,-1.19793,0.50314
618.173,29.6882,-3.12423,-1.19532,0.50286
618.773,29.7075,-3.1241,-1.22494,0.50257
619.373,29.7267,-3.12271,-1.23051,0.50229
619.973,29.74604,-3.1229,-1.24146,0.502
620.573,29.76523,-3.12416,-1.26205,0.50172
621.173,29.78438,-3.1241,-1.25715,0.50143
621.773,29.80374,-3.1243,-1.26807,0.50115
622.373,29.8231,-3.1257,-1.27527,0.50086
622.973,29.8424,-3.12578,-1.28514,0.50058
623.573,29.86192,-3.12714,-1.29547,0.5003
624.173,29.8814,-3.12758,-1.33914,0.50001
624.773,29.90063,-3.12759,-1.36614,0.49973
625.373,29.9199,-3.12759,-1.38719,0.49945
625.973,29.9393,-3.12759,-1.39402,0.49917
626.573,29.95863,-3.12759,-1.41299,0.49888
627.173,29.978,-3.12758,-1.41298,0.4986
627.773,29.99745,-3.12593,-1.43689,0.49832
628.373,30.0168,-3.12426,-1.44161,0.49804
628.973,30.0361,-3.124,-1.45475,0.49776
629.573,30.05548,-3.12411,-1.46169,0.49748
630.173,30.0749,-3.12596,-1.46733,0.49719
630.773,30.09425,-3.12676,-1.45753,0.49691
631.373,30.11363,-3.12811,-1.49198,0.49663
631.973,30.13305,-3.12824,-1.48723,0.49635
632.573,30.1524,-3.12824,-1.49419,0.49607
633.173,30.1718,-3.12818,-1.51232,0.4958
633.773,30.19118,-3.12799,-1.50963,0.49552
634.373,30.2106,-3.12829,-1.51602,0.49524
634.973,30.23,-3.12868,-1.51389,0.49496
635.573,30.2494,-3.13045,-1.51463,0.49468
636.173,30.26875,-3.13212,-1.53353,0.4944
636.773,30.2882,-3.13419,-1.54765,0.49412
637.373,30.3076,-3.1366,-1.55799,0.49385
637.973,30.3271,-3.13668,-1.55983,0.49357
638.573,30.3465,-3.13669,-1.57264,0.49329
639.173,30.36595,-3.1367,-1.58762,0.49302
639.773,30.38539,-3.1368,-1.5997,0.49274
640.373,30.4049,-3.13524,-1.59515,0.49246
640.973,30.4244,-3.13516,-1.58215,0.49219
641.573,30.4439,-3.13516,-1.60813,0.49191
642.173,30.4634,-3.13516,-1.61912,0.49164
642.773,30.4829,-3.13514,-1.63264,0.49136
643.373,30.5024,-3.13489,-1.63125,0.49109
643.973,30.5219,-3.13383,-1.62487,0.49081
644.573,30.5414,-3.13384,-1.63397,0.49054
645.173,30.5609,-3.13388,-1.66367,0.49026
645.773,30.58036,-3.13454,-1.67044,0.48999
646.373,30.59988,-3.13478,-1.69951,0.48972
646.973,30.61937,-3.13384,-1.69302,0.48944
647.573,30.63887,-3.13384,-1.70754,0.48917
648.173,30.65832,-3.13412,-1.71139,0.4889
648.773,30.6778,-3.13482,-1.70241,0.48863
649.373,30.6973,-3.13517,-1.68632,0.48835
649.973,30.71675,-3.13531,-1.70604,0.48808
650.573,30.73627,-3.13676,-1.72072,0.48781
651.173,30.75586,-3.1367,-1.73812,0.48754
651.773,30.77542,-3.13669,-1.76392,0.48727
652.373,30.795,-3.1366,-1.77391,0.487
652.973,30.81458,-3.13529,-1.78287,0.48673
653.573,30.83415,-3.13622,-1.77224,0.48646
654.173,30.8537,-3.13657,-1.78622,0.48619
654.773,30.87316,-3.13894,-1.81051,0.48592
655.373,30.8927,-3.14094,-1.82825,0.48565
655.973,30.91224,-3.14285,-1.82494,0.48538
656.573,30.93177,-3.14369,-1.83956,0.48511
657.173,30.95135,-3.1462,-1.83656,0.48484
657.773,30.971,-3.14599,-1.84376,0.48458
658.373,30.99063,-3.14459,-1.839,0.48431
658.973,31.0103,-3.14276,-1.85206,0.48404
659.573,31.02996,-3.14245,-1.86023,0.48378
660.173,31.0496,-3.14185,-1.84311,0.48351
660.773,31.06922,-3.14185,-1.86148,0.48324
661.373,31.08884,-3.14185,-1.87037,0.48298
661.973,31.10845,-3.14239,-1.87227,0.48271
662.573,31.1281,-3.14602,-1.89764,0.48244
663.173,31.1477,-3.14998,-1.89737,0.48218
663.773,31.1673,-3.15147,-1.91285,0.48191
664.373,31.187,-3.14589,-1.91879,0.48165
664.973,31.2065,-3.14071,-1.93499,0.48139
665.573,31.22612,-3.14319,-1.94096,0.48112
666.173,31.2458,-3.15121,-1.94787,0.48086
666.773,31.26548,-3.16247,-1.96173,0.48059
667.373,31.28515,-3.16265,-1.95275,0.48033
667.973,31.30482,-3.15133,-1.93768,0.48007
668.573,31.3244,-3.14121,-1.97294,0.47981
669.173,31.3441,-3.14208,-1.99406,0.47954
669.773,31.3636,-3.14612,-2.00265,0.47928
670.373,31.3833,-3.15004,-2.00474,0.47902
670.973,31.40294,-3.15088,-2.03222,0.47876
671.573,31.4226,-3.15257,-2.04248,0.4785
672.173,31.44231,-3.15237,-2.03735,0.47824
672.773,31.46211,-3.14957,-2.0425,0.47798
673.373,31.4818,-3.14748,-2.03327,0.47772
673.973,31.5015,-3.14515,-2.03681,0.47746
674.573,31.5211,-3.14537,-2.04704,0.4772
675.173,31.54082,-3.14632,-2.0422,0.47694
675.773,31.56052,-3.14639,-2.05818,0.47668
676.373,31.5802,-3.14769,-2.08294,0.47642
676.973,31.59995,-3.14766,-2.0983,0.47617
677.573,31.6197,-3.14766,-2.09772,0.47591
678.173,31.63937,-3.14766,-2.1109,0.47565
678.773,31.65915,-3.14766,-2.09597,0.47539
679.373,31.67888,-3.14897,-2.08274,0.47514
679.973,31.6986,-3.14898,-2.07948,0.47488
680.573,31.7183,-3.14898,-2.07439,0.47462
681.173,31.73805,-3.14895,-2.1028,0.47437
681.773,31.75777,-3.15035,-2.11857,0.47411
682.373,31.77753,-3.1504,-2.13143,0.47386
682.973,31.79727,-3.15041,-2.13296,0.4736
683.573,31.81705,-3.15059,-2.11814,0.47335
684.173,31.8368,-3.15176,-2.15058,0.47309
684.773,31.8565,-3.15163,-2.15809,0.47284
685.373,31.8763,-3.15277,-2.15326,0.47259
685.973,31.89615,-3.15271,-2.16722,0.47233
686.573,31.91593,-3.15266,-2.19057,0.47208
687.173,31.93576,-3.15387,-2.20335,0.47183
687.773,31.9556,-3.15402,-2.21628,0.47157
688.373,31.97539,-3.15512,-2.20878,0.47132
688.973,31.99519,-3.15406,-2.21514,0.47107
689.573,32.01491,-3.15419,-2.21357,0.47082
690.173,32.0347,-3.15422,-2.23431,0.47057
690.773,32.05445,-3.15315,-2.23383,0.47032
691.373,32.07419,-3.15366,-2.21959,0.47007
691.973,32.094,-3.15224,-2.23307,0.46982
692.573,32.1138,-3.15216,-2.24127,0.46957
693.173,32.13362,-3.15216,-2.26519,0.46932
693.773,32.15336,-3.15216,-2.24961,0.46907
694.373,32.1732,-3.15216,-2.27261,0.46882
694.973,32.19297,-3.15216,-2.2593,0.46857
695.573,32.21269,-3.15406,-2.2726,0.46832
696.173,32.2325,-3.15389,-2.27439,0.46808
696.773,32.25229,-3.15477,-2.26692,0.46783
697.373,32.2721,-3.1563,-2.29081,0.46758
697.973,32.29187,-3.15824,-2.32,0.46734
698.573,32.31175,-3.16301,-2.33168,0.46709
699.173,32.33155,-3.16659,-2.34295,0.46684
699.773,32.35134,-3.16805,-2.35995,0.4666
700.373,32.3712,-3.16299,-2.34656,0.46635
700.973,32.39095,-3.15225,-2.34478,0.46611
701.573,32.4108,-3.14494,-2.37145,0.46586
702.173,32.4306,-3.14508,-2.38612,0.46562
702.773,32.45043,-3.15042,-2.39121,0.46537
703.373,32.4702,-3.15334,-2.39037,0.46513
703.973,32.49,-3.15399,-2.39673,0.46489
704.573,32.5098,-3.15457,-2.42669,0.46464
705.173,32.52962,-3.15494,-2.45341,0.4644
705.773,32.5495,-3.15589,-2.46018,0.46416
706.373,32.5694,-3.1559,-2.4421,0.46392
706.973,32.5892,-3.15721,-2.44998,0.46367
707.573,32.60917,-3.15721,-2.44966,0.46343
708.173,32.6291,-3.15722,-2.44928,0.46319
708.773,32.64895,-3.15567,-2.43924,0.46295
709.373,32.6688,-3.1563,-2.43526,0.46271
709.973,32.68865,-3.1571,-2.43038,0.46247
710.573,32.70852,-3.15975,-2.4236,0.46223
711.173,32.72841,-3.16076,-2.41611,0.46199
711.773,32.7483,-3.16149,-2.38911,0.46175
712.373,32.76818,-3.16148,-2.40911,0.46151
712.973,32.78804,-3.16147,-2.40529,0.46128
713.573,32.80787,-3.16062,-2.37947,0.46104
714.173,32.8277,-3.16015,-2.37981,0.4608
714.773,32.84755,-3.15926,-2.36085,0.46056
715.373,32.86744,-3.16015,-2.35345,0.46033
715.973,32.88729,-3.16013,-2.36474,0.46009
716.573,32.90716,-3.1614,-2.35152,0.45985
717.173,32.92709,-3.16147,-2.32981,0.45962
717.773,32.94705,-3.16148,-2.34817,0.45938
718.373,32.96694,-3.16147,-2.31865,0.45915
718.973,32.98685,-3.16101,-2.31407,0.45891
719.573,33.0068,-3.16014,-2.32591,0.45868
720.173,33.02664,-3.16016,-2.34155,0.45844
720.773,33.04657,-3.16016,-2.34841,0.45821
721.373,33.06655,-3.16016,-2.34125,0.45797
721.973,33.0865,-3.16016,-2.34064,0.45774
722.573,33.10647,-3.16016,-2.35937,0.45751
723.173,33.1264,-3.16018,-2.35965,0.45727
723.773,33.14633,-3.16086,-2.34892,0.45704
724.373,33.16626,-3.1616,-2.33335,0.45681
724.973,33.18616,-3.16153,-2.333,0.45658
725.573,33.2061,-3.16237,-2.32717,0.45635
726.173,33.22603,-3.16156,-2.33231,0.45612
726.773,33.24596,-3.1616,-2.32419,0.45589
727.373,33.26593,-3.1616,-2.34226,0.45566
727.973,33.28588,-3.1616,-2.34638,0.45543
728.573,33.3069,-3.1616,-2.34204,0.4552
729.173,33.3283,-3.16284,-2.34434,0.45497
729.373,33.33247,-3.16291,-2.34472,0.45489