File: 01_Data/Pine_Siding/STA/N2/30K_min/Pine_Siding_STA_N2_30KData_211506_R2.csv
##Temp./Â°C,Time/min,Mass loss(subtr.2)/mg,DSC(subtr.2)/mW,Sensit./(uV/mW)
49.341,10.01,-0.02215,0.02714495,0.61833
49.941,10.99723,-0.02153073,0.10329,0.61864
50.541,11.21077,-0.0260119,0.19635,0.61896
51.141,11.35475,-0.02452045,0.25356,0.61928
51.741,11.46805,-0.0231044,0.32559,0.61959
52.341,11.56357,-0.02330742,0.39734,0.61991
52.941,11.64701,-0.02279488,0.45886,0.62022
53.541,11.7221,-0.02202025,0.50271,0.62053
54.141,11.7902,-0.02367654,0.56193,0.62084
54.741,11.85323,-0.0276196,0.61514,0.62115
55.341,11.91156,-0.01579844,0.65663,0.62146
55.941,11.96725,-0.02179463,0.71282,0.62177
56.541,12.02083,-0.02318528,0.75996,0.62207
57.141,12.06981,-0.02322394,0.79543,0.62238
57.741,12.11864,-0.02532267,0.82397,0.62268
58.341,12.1668,-0.02164137,0.8781,0.62298
58.941,12.2119,-0.02473244,0.91165,0.62328
59.541,12.25497,-0.03323952,0.96065,0.62358
60.141,12.29705,-0.01584821,0.99553,0.62388
60.741,12.33756,-0.01738328,1.03087,0.62418
61.341,12.37762,-0.02088923,1.05994,0.62447
61.941,12.41768,-0.0235162,1.09383,0.62477
62.541,12.45658,-0.02386665,1.12736,0.62506
63.141,12.49418,-0.02427655,1.15479,0.62535
63.741,12.5314,-0.02479233,1.19106,0.62564
64.341,12.5678,-0.02657087,1.23817,0.62593
64.941,12.60385,-0.02549682,1.26658,0.62622
65.541,12.63912,-0.02456224,1.28774,0.6265
66.141,12.6738,-0.0243086,1.31648,0.62679
66.741,12.70805,-0.0246608,1.34925,0.62707
67.341,12.74214,-0.02489466,1.36641,0.62736
67.941,12.7758,-0.02668124,1.40322,0.62764
68.541,12.80917,-0.02589292,1.43668,0.62792
69.141,12.84211,-0.02596301,1.44712,0.6282
69.741,12.8748,-0.02662985,1.48917,0.62848
70.341,12.90686,-0.02674653,1.50218,0.62875
70.941,12.93867,-0.02844152,1.52905,0.62903
71.541,12.97022,-0.02809393,1.55315,0.6293
72.141,13.0017,-0.02938722,1.58327,0.62957
72.741,13.03289,-0.02776699,1.60028,0.62985
73.341,13.06409,-0.02704127,1.62342,0.63012
73.941,13.095,-0.026263,1.65295,0.63038
74.541,13.12558,-0.02778209,1.68245,0.63065
75.141,13.15579,-0.02792954,1.69844,0.63092
75.741,13.18569,-0.03037643,1.72041,0.63118
76.341,13.2155,-0.02867456,1.74448,0.63145
76.941,13.2452,-0.02586407,1.77163,0.63171
77.541,13.2748,-0.02640263,1.78812,0.63197
78.141,13.3042,-0.02855069,1.81007,0.63223
78.741,13.33346,-0.03210354,1.83415,0.63249
79.341,13.3626,-0.03937641,1.86727,0.63275
79.941,13.3916,-0.03787679,1.88835,0.633
80.541,13.42025,-0.02390376,1.90988,0.63326
81.141,13.4488,-0.02244062,1.94435,0.63351
81.741,13.4772,-0.02754496,1.95177,0.63377
82.341,13.50542,-0.02922815,1.96484,0.63402
82.941,13.53346,-0.031052,1.99075,0.63427
83.541,13.5615,-0.03218025,1.99848,0.63452
84.141,13.5894,-0.03459498,2.01037,0.63476
84.741,13.61711,-0.03510431,2.03647,0.63501
85.341,13.64471,-0.03468476,2.04585,0.63525
85.941,13.67195,-0.03419139,2.05607,0.6355
86.541,13.6991,-0.03371749,2.08713,0.63574
87.141,13.72592,-0.03365587,2.1052,0.63598
87.741,13.75271,-0.03360523,2.11934,0.63622
88.341,13.7794,-0.03459659,2.1254,0.63646
88.941,13.8059,-0.0345522,2.14263,0.6367
89.541,13.8323,-0.03295453,2.15482,0.63693
90.141,13.8586,-0.03300434,2.16636,0.63717
90.741,13.88481,-0.03248493,2.18626,0.6374
91.341,13.9109,-0.03382703,2.19744,0.63763
91.941,13.9369,-0.03389429,2.20762,0.63787
92.541,13.9626,-0.03390173,2.22332,0.6381
93.141,13.98824,-0.03377227,2.22956,0.63832
93.741,14.0138,-0.03524438,2.2575,0.63855
94.341,14.0391,-0.03652014,2.25118,0.63878
94.941,14.06445,-0.03810645,2.26449,0.639
95.541,14.0896,-0.03922026,2.27724,0.63922
96.141,14.1146,-0.04002981,2.28953,0.63945
96.741,14.1395,-0.04066466,2.30515,0.63967
97.341,14.16433,-0.03961924,2.31566,0.63989
97.941,14.18919,-0.03843883,2.33143,0.64011
98.541,14.21379,-0.03979564,2.33482,0.64032
99.141,14.23812,-0.03852124,2.34998,0.64054
99.741,14.2624,-0.03837374,2.35603,0.64075
100.341,14.2867,-0.03837973,2.35723,0.64097
100.941,14.31083,-0.03837946,2.35513,0.64118
101.541,14.33489,-0.03833228,2.35682,0.64139
102.141,14.3589,-0.03966076,2.36163,0.6416
102.741,14.3827,-0.03965363,2.36543,0.64181
103.341,14.4064,-0.04105849,2.37666,0.64201
103.941,14.4302,-0.04146941,2.3903,0.64222
104.541,14.45367,-0.042587,2.3919,0.64242
105.141,14.477,-0.04296129,2.39892,0.64263
105.741,14.50041,-0.04289522,2.39779,0.64283
106.341,14.5238,-0.04387525,2.41092,0.64303
106.941,14.54713,-0.04386063,2.40964,0.64323
107.541,14.5702,-0.04386,2.41328,0.64343
108.141,14.5933,-0.04386,2.4146,0.64362
108.741,14.6162,-0.04386,2.41866,0.64382
109.341,14.63905,-0.04386003,2.40757,0.64401
109.941,14.66192,-0.04385889,2.40975,0.64421
110.541,14.6846,-0.04382303,2.41031,0.6444
111.141,14.7071,-0.04411774,2.41738,0.64459
111.741,14.72965,-0.04444007,2.4115,0.64478
112.341,14.75211,-0.04529266,2.42168,0.64497
112.941,14.77449,-0.04614823,2.42419,0.64515
113.541,14.7969,-0.04742734,2.42814,0.64534
114.141,14.8191,-0.04612203,2.42712,0.64552
114.741,14.8412,-0.046056,2.41186,0.64571
115.341,14.86314,-0.0460595,2.43033,0.64589
115.941,14.88509,-0.04605997,2.41822,0.64607
116.541,14.9071,-0.04606012,2.40611,0.64625
117.141,14.929,-0.04606084,2.41249,0.64643
117.741,14.9508,-0.04604672,2.3993,0.6466
118.341,14.9726,-0.0466357,2.39681,0.64678
118.941,14.99424,-0.04608374,2.40539,0.64695
119.541,15.0158,-0.04598981,2.39666,0.64713
120.141,15.0372,-0.04458469,2.40865,0.6473
120.741,15.05865,-0.04490028,2.41397,0.64747
121.341,15.0799,-0.04463344,2.41735,0.64764
121.941,15.10126,-0.04462996,2.40578,0.6478
122.541,15.12245,-0.04473425,2.40873,0.64797
123.141,15.14354,-0.04600115,2.413,0.64814
123.741,15.1646,-0.04595515,2.42055,0.6483
124.341,15.18561,-0.04603272,2.42027,0.64846
124.941,15.20659,-0.04731953,2.4361,0.64862
125.541,15.2275,-0.0467721,2.43522,0.64879
126.141,15.24841,-0.04719282,2.43863,0.64894
126.741,15.2692,-0.0472674,2.42585,0.6491
127.341,15.28985,-0.04727,2.42425,0.64926
127.941,15.3105,-0.04726852,2.44263,0.64941
128.541,15.3311,-0.04722099,2.44093,0.64957
129.141,15.35157,-0.04670483,2.44876,0.64972
129.741,15.37204,-0.04725547,2.45532,0.64987
130.341,15.39241,-0.04726887,2.46078,0.65002
130.941,15.41274,-0.04726991,2.46811,0.65017
131.541,15.43299,-0.04726998,2.47721,0.65032
132.141,15.4532,-0.04726984,2.48184,0.65047
132.741,15.47339,-0.04726769,2.50045,0.65061
133.341,15.4935,-0.0472509,2.51112,0.65076
133.941,15.5136,-0.04989517,2.5121,0.6509
134.541,15.5337,-0.05036168,2.50586,0.65104
135.141,15.55369,-0.05266799,2.49793,0.65118
135.741,15.5737,-0.05258472,2.51406,0.65132
136.341,15.59353,-0.05284167,2.52379,0.65146
136.941,15.6133,-0.05206459,2.52155,0.65159
137.541,15.63308,-0.05136561,2.53154,0.65173
138.141,15.65284,-0.04949425,2.53357,0.65186
138.741,15.67249,-0.04827315,2.54783,0.652
139.341,15.6922,-0.04689723,2.55135,0.65213
139.941,15.71181,-0.04500634,2.56107,0.65226
140.541,15.73135,-0.04422225,2.56796,0.65239
141.141,15.7508,-0.04425279,2.5577,0.65252
141.741,15.7701,-0.0455148,2.5799,0.65264
142.341,15.78943,-0.04713685,2.5853,0.65277
142.941,15.8088,-0.04769316,2.59333,0.65289
143.541,15.8281,-0.04871682,2.60358,0.65302
144.141,15.8476,-0.04869251,2.60024,0.65314
144.741,15.867,-0.04869028,2.62264,0.65326
145.341,15.8863,-0.04869073,2.63702,0.65338
145.941,15.90559,-0.04869977,2.63022,0.6535
146.541,15.92482,-0.04854521,2.63978,0.65361
147.141,15.944,-0.04823357,2.64398,0.65373
147.741,15.96309,-0.04726314,2.65862,0.65384
148.341,15.9821,-0.04727034,2.66768,0.65396
148.941,16.00115,-0.04727544,2.6843,0.65407
149.541,16.02011,-0.0472761,2.68481,0.65418
150.141,16.03904,-0.04857572,2.68976,0.65429
150.741,16.05795,-0.04857922,2.70132,0.6544
151.341,16.07692,-0.04857809,2.72045,0.6545
151.941,16.09575,-0.04849097,2.72218,0.65461
152.541,16.1146,-0.04716646,2.74723,0.65471
153.141,16.1334,-0.04725373,2.7485,0.65482
153.741,16.15215,-0.04726543,2.75249,0.65492
154.341,16.17084,-0.04728915,2.77063,0.65502
154.941,16.18954,-0.04856512,2.78411,0.65512
155.541,16.20828,-0.04859428,2.78979,0.65522
156.141,16.22691,-0.04925893,2.79299,0.65531
156.741,16.24546,-0.04990964,2.80983,0.65541
157.341,16.26393,-0.04994112,2.81996,0.6555
157.941,16.28244,-0.04903854,2.80565,0.6556
158.541,16.30094,-0.04858615,2.82071,0.65569
159.141,16.31946,-0.04858164,2.8273,0.65578
159.741,16.33804,-0.04865571,2.83429,0.65587
160.341,16.35659,-0.04729749,2.85382,0.65596
160.941,16.3751,-0.04722289,2.85254,0.65605
161.541,16.39355,-0.04821991,2.85999,0.65613
162.141,16.412,-0.0485788,2.86895,0.65622
162.741,16.43037,-0.04858979,2.87813,0.6563
163.341,16.44876,-0.04859006,2.85162,0.65639
163.941,16.46707,-0.04859001,2.84319,0.65647
164.541,16.48542,-0.04859,2.8546,0.65655
165.141,16.50371,-0.04859,2.87334,0.65663
165.741,16.522,-0.04859,2.89511,0.6567
166.341,16.54034,-0.04859001,2.90659,0.65678
166.941,16.55864,-0.04858967,2.89447,0.65686
167.541,16.57686,-0.04858276,2.91955,0.65693
168.141,16.59514,-0.04945835,2.92429,0.657
168.741,16.61336,-0.04987215,2.94494,0.65707
169.341,16.63156,-0.04988452,2.95048,0.65715
169.941,16.6497,-0.05052559,2.96147,0.65721
170.541,16.66786,-0.05134654,2.97737,0.65728
171.141,16.68605,-0.05131637,2.97821,0.65735
171.741,16.70429,-0.05209661,2.99423,0.65742
172.341,16.7224,-0.05261697,3.00392,0.65748
172.941,16.74045,-0.0526398,3.0137,0.65754
173.541,16.75856,-0.05263176,3.07043,0.65761
174.141,16.7765,-0.05227469,3.10389,0.65767
174.741,16.79445,-0.05114776,3.11111,0.65773
175.341,16.81246,-0.05120592,3.09693,0.65779
175.941,16.83043,-0.05120992,3.11226,0.65784
176.541,16.84841,-0.05121002,3.12543,0.6579
177.141,16.86634,-0.05120984,3.1403,0.65795
177.741,16.88425,-0.0512081,3.14842,0.65801
178.341,16.9021,-0.05119699,3.14884,0.65806
178.941,16.91998,-0.05186787,3.17527,0.65811
179.541,16.9378,-0.05401305,3.18903,0.65816
180.141,16.95566,-0.05406967,3.20309,0.65821
180.741,16.9735,-0.05415053,3.21491,0.65826
181.341,16.9912,-0.05474491,3.21162,0.65831
181.941,17.0089,-0.05472858,3.22132,0.65835
182.541,17.02652,-0.05472967,3.23551,0.6584
183.141,17.04412,-0.05473019,3.2486,0.65844
183.741,17.06175,-0.05473126,3.25886,0.65848
184.341,17.0794,-0.05472565,3.28333,0.65852
184.941,17.09701,-0.0543135,3.29627,0.65856
185.541,17.11467,-0.05333596,3.30561,0.6586
186.141,17.13224,-0.05382936,3.32681,0.65864
186.741,17.1497,-0.05407122,3.32991,0.65867
187.341,17.16724,-0.05407108,3.37833,0.65871
187.941,17.1847,-0.05407012,3.37095,0.65874
188.541,17.2022,-0.05406989,3.37638,0.65878
189.141,17.21969,-0.05407017,3.37332,0.65881
189.741,17.23725,-0.05408287,3.37741,0.65884
190.341,17.25468,-0.05431132,3.38758,0.65887
190.941,17.27211,-0.05543316,3.40136,0.6589
191.541,17.28945,-0.05538866,3.41991,0.65892
192.141,17.3068,-0.05538949,3.43563,0.65895
192.741,17.32414,-0.05539145,3.44732,0.65897
193.341,17.3414,-0.05539674,3.45764,0.659
193.941,17.3587,-0.05533122,3.47188,0.65902
194.541,17.376,-0.05666116,3.483,0.65904
195.141,17.39333,-0.05669589,3.50171,0.65906
195.741,17.41058,-0.05669477,3.52233,0.65908
196.341,17.42791,-0.05717856,3.52206,0.6591
196.941,17.44517,-0.05805793,3.52823,0.65911
197.541,17.4624,-0.05801334,3.54843,0.65913
198.141,17.47963,-0.05800994,3.5508,0.65914
198.741,17.49684,-0.05800995,3.57978,0.65916
199.341,17.51401,-0.05801,3.5773,0.65917
199.941,17.53115,-0.05801,3.58567,0.65918
200.541,17.54835,-0.05801,3.59789,0.65919
201.141,17.5655,-0.05801,3.61427,0.6592
201.741,17.5825,-0.05801,3.63654,0.6592
202.341,17.59962,-0.05801,3.63631,0.65921
202.941,17.61669,-0.05801,3.65521,0.65922
203.541,17.6338,-0.05801001,3.66158,0.65922
204.141,17.65085,-0.05801002,3.6768,0.65922
204.741,17.66798,-0.05800962,3.69524,0.65922
205.341,17.685,-0.0580038,3.71044,0.65922
205.941,17.70211,-0.05912144,3.71489,0.65922
206.541,17.71915,-0.06088362,3.74382,0.65922
207.141,17.73612,-0.06215411,3.7511,0.65922
207.741,17.7531,-0.06239993,3.76876,0.65922
208.341,17.77009,-0.06241262,3.76368,0.65921
208.941,17.78708,-0.06358888,3.7742,0.6592
209.541,17.80402,-0.06370612,3.78842,0.6592
210.141,17.82104,-0.06371966,3.81919,0.65919
210.741,17.838,-0.06371752,3.81039,0.65918
211.341,17.85497,-0.06367852,3.84488,0.65917
211.941,17.87189,-0.0640271,3.84803,0.65916
212.541,17.88881,-0.06370794,3.86809,0.65914
213.141,17.90571,-0.06366373,3.88148,0.65913
213.741,17.9226,-0.06458189,3.88606,0.65912
214.341,17.93945,-0.06507334,3.90081,0.6591
214.941,17.95637,-0.06375722,3.90536,0.65908
215.541,17.97324,-0.06371781,3.92568,0.65906
216.141,17.98997,-0.0637205,3.93366,0.65904
216.741,18.0067,-0.06436376,3.94517,0.65902
217.341,18.02349,-0.06516892,3.95687,0.659
217.941,18.04034,-0.06515034,3.96474,0.65898
218.541,18.05719,-0.06514483,3.97563,0.65896
219.141,18.07415,-0.06509067,3.99026,0.65893
219.741,18.0911,-0.0658417,3.98819,0.6589
220.341,18.10801,-0.06605075,3.99797,0.65888
220.941,18.12487,-0.06648186,4.00422,0.65885
221.541,18.14162,-0.06645913,4.03217,0.65882
222.141,18.15833,-0.06647787,4.03764,0.65879
222.741,18.1751,-0.06691428,4.03975,0.65876
223.341,18.19181,-0.06788833,4.05358,0.65873
223.941,18.20855,-0.06841201,4.06524,0.65869
224.541,18.22522,-0.06949726,4.07175,0.65866
225.141,18.24196,-0.069986,4.08325,0.65862
225.741,18.25873,-0.07098826,4.08467,0.65859
226.341,18.27543,-0.07096854,4.0965,0.65855
226.941,18.29211,-0.07096632,4.11061,0.65851
227.541,18.30879,-0.07092995,4.10332,0.65847
228.141,18.32555,-0.07205308,4.12559,0.65843
228.741,18.34225,-0.07226489,4.13457,0.65838
229.341,18.3588,-0.07252026,4.14136,0.65834
229.941,18.37546,-0.07367485,4.14697,0.6583
230.541,18.3921,-0.07360618,4.16567,0.65825
231.141,18.40877,-0.07644596,4.19384,0.65821
231.741,18.42537,-0.07650661,4.21366,0.65816
232.341,18.4421,-0.07778331,4.20824,0.65811
232.941,18.45883,-0.07802236,4.22348,0.65806
233.541,18.47544,-0.07733906,4.22993,0.65801
234.141,18.4921,-0.07800998,4.23362,0.65796
234.741,18.5087,-0.07797741,4.2315,0.6579
235.341,18.52529,-0.07797471,4.25745,0.65785
235.941,18.54185,-0.07849848,4.25861,0.6578
236.541,18.55849,-0.08053322,4.2724,0.65774
237.141,18.57507,-0.08061577,4.29512,0.65768
237.741,18.59166,-0.08072262,4.27225,0.65762
238.341,18.60821,-0.08202623,4.28718,0.65757
238.941,18.62483,-0.08250997,4.29456,0.65751
239.541,18.64142,-0.08358063,4.31369,0.65744
240.141,18.65798,-0.08493055,4.32737,0.65738
240.741,18.6746,-0.08528031,4.34858,0.65732
241.341,18.69119,-0.08665879,4.36155,0.65725
241.941,18.70774,-0.08747877,4.36458,0.65719
242.541,18.72431,-0.08820255,4.37099,0.65712
243.141,18.74084,-0.09026829,4.37689,0.65706
243.741,18.7574,-0.09094082,4.39481,0.65699
244.341,18.77382,-0.0909326,4.41525,0.65692
244.941,18.79032,-0.09092946,4.42204,0.65685
245.541,18.80684,-0.09218834,4.43712,0.65678
246.141,18.8233,-0.09249414,4.44235,0.6567
246.741,18.83982,-0.09409196,4.45329,0.65663
247.341,18.85634,-0.09547813,4.47277,0.65656
247.941,18.87283,-0.09617515,4.48477,0.65648
248.541,18.88932,-0.09750297,4.50339,0.6564
249.141,18.90581,-0.09794049,4.50309,0.65633
249.741,18.9223,-0.09749,4.51936,0.65625
250.341,18.93871,-0.0986765,4.53294,0.65617
250.941,18.95515,-0.09929955,4.53954,0.65609
251.541,18.9716,-0.10114,4.55255,0.65601
252.141,18.98811,-0.10313,4.55463,0.65592
252.741,19.00457,-0.10386,4.56033,0.65584
253.341,19.02101,-0.10428,4.57346,0.65576
253.941,19.03758,-0.10523,4.59146,0.65567
254.541,19.05399,-0.10611,4.59877,0.65558
255.141,19.07036,-0.10731,4.60944,0.6555
255.741,19.08681,-0.10913,4.60958,0.65541
256.341,19.1033,-0.11133,4.61924,0.65532
256.941,19.11968,-0.11238,4.63285,0.65523
257.541,19.13614,-0.11293,4.64475,0.65514
258.141,19.15261,-0.11443,4.64911,0.65504
258.741,19.16905,-0.1158,4.66608,0.65495
259.341,19.18546,-0.11728,4.67024,0.65486
259.941,19.2018,-0.1186,4.66158,0.65476
260.541,19.21825,-0.11975,4.6708,0.65466
261.141,19.23465,-0.11986,4.67836,0.65457
261.741,19.25103,-0.12035,4.67833,0.65447
262.341,19.26739,-0.12269,4.69159,0.65437
262.941,19.2838,-0.12449,4.70394,0.65427
263.541,19.30016,-0.12627,4.7211,0.65417
264.141,19.31652,-0.12743,4.72209,0.65407
264.741,19.33286,-0.12874,4.73849,0.65396
265.341,19.34925,-0.13087,4.74014,0.65386
265.941,19.3656,-0.13259,4.74653,0.65375
266.541,19.38195,-0.1332,4.75442,0.65365
267.141,19.3983,-0.13581,4.75864,0.65354
267.741,19.41469,-0.13739,4.77871,0.65343
268.341,19.43103,-0.13883,4.76704,0.65332
268.941,19.44742,-0.14025,4.7676,0.65322
269.541,19.4638,-0.14187,4.78207,0.6531
270.141,19.48012,-0.14336,4.80799,0.65299
270.741,19.4965,-0.14677,4.82673,0.65288
271.341,19.51286,-0.15046,4.84389,0.65277
271.941,19.5292,-0.15631,4.84815,0.65265
272.541,19.54551,-0.16211,4.82519,0.65254
273.141,19.5619,-0.16338,4.83669,0.65242
273.741,19.57826,-0.15913,4.85966,0.6523
274.341,19.59456,-0.15472,4.84754,0.65219
274.941,19.61093,-0.15451,4.86657,0.65207
275.541,19.62732,-0.15829,4.87063,0.65195
276.141,19.64366,-0.16184,4.87762,0.65183
276.741,19.66001,-0.16497,4.88762,0.6517
277.341,19.67635,-0.16731,4.8917,0.65158
277.941,19.69262,-0.16861,4.9037,0.65146
278.541,19.70894,-0.17106,4.90455,0.65133
279.141,19.72529,-0.1741,4.91305,0.65121
279.741,19.7416,-0.17618,4.91799,0.65108
280.341,19.758,-0.17854,4.92149,0.65095
280.941,19.77437,-0.18067,4.92061,0.65082
281.541,19.7908,-0.18249,4.9318,0.6507
282.141,19.80706,-0.18581,4.94034,0.65057
282.741,19.82341,-0.1874,4.9401,0.65043
283.341,19.83975,-0.1896,4.94954,0.6503
283.941,19.85608,-0.19211,4.94774,0.65017
284.541,19.87246,-0.19411,4.94705,0.65004
285.141,19.88886,-0.19721,4.95297,0.6499
285.741,19.9052,-0.19924,4.96137,0.64977
286.341,19.92146,-0.2023,4.97983,0.64963
286.941,19.93785,-0.20479,4.98204,0.64949
287.541,19.95421,-0.20679,4.99912,0.64935
288.141,19.97054,-0.20944,5.00268,0.64922
288.741,19.98689,-0.21206,5.00273,0.64908
289.341,20.00337,-0.21393,5.00156,0.64894
289.941,20.01972,-0.21648,5.00933,0.64879
290.541,20.03604,-0.21939,5.01133,0.64865
291.141,20.05242,-0.22208,5.02359,0.64851
291.741,20.06878,-0.22554,5.0315,0.64836
292.341,20.08514,-0.22833,5.03243,0.64822
292.941,20.10149,-0.23038,5.04136,0.64807
293.541,20.11786,-0.23301,5.05518,0.64793
294.141,20.13419,-0.23571,5.05429,0.64778
294.741,20.15054,-0.23866,5.06071,0.64763
295.341,20.16689,-0.24335,5.06401,0.64748
295.941,20.1832,-0.24709,5.06712,0.64733
296.541,20.1996,-0.25138,5.07793,0.64718
297.141,20.21594,-0.25509,5.10459,0.64703
297.741,20.2323,-0.25835,5.09974,0.64687
298.341,20.24868,-0.26209,5.10205,0.64672
298.941,20.26507,-0.26586,5.11103,0.64657
299.541,20.28146,-0.26975,5.12039,0.64641
300.141,20.29788,-0.27405,5.14459,0.64625
300.741,20.31426,-0.27811,5.13673,0.6461
301.341,20.33065,-0.28234,5.13636,0.64594
301.941,20.34704,-0.28547,5.14367,0.64578
302.541,20.3634,-0.29022,5.17451,0.64562
303.141,20.37976,-0.29465,5.16077,0.64546
303.741,20.3962,-0.3001,5.17057,0.6453
304.341,20.41249,-0.30353,5.18529,0.64514
304.941,20.42884,-0.30714,5.19984,0.64498
305.541,20.44519,-0.31138,5.21218,0.64481
306.141,20.4616,-0.315,5.21948,0.64465
306.741,20.47795,-0.32062,5.23963,0.64448
307.341,20.4943,-0.32601,5.23508,0.64432
307.941,20.51066,-0.33217,5.24628,0.64415
308.541,20.5271,-0.33734,5.25339,0.64398
309.141,20.5434,-0.34132,5.27253,0.64381
309.741,20.55977,-0.34567,5.27454,0.64364
310.341,20.57616,-0.35038,5.3008,0.64347
310.941,20.59256,-0.35663,5.31909,0.6433
311.541,20.6089,-0.36155,5.34293,0.64313
312.141,20.62526,-0.36652,5.34445,0.64296
312.741,20.64167,-0.37079,5.36496,0.64279
313.341,20.6581,-0.37457,5.37792,0.64261
313.941,20.6744,-0.38006,5.39094,0.64244
314.541,20.69085,-0.3857,5.42181,0.64226
315.141,20.70724,-0.39171,5.43748,0.64209
315.741,20.72355,-0.39857,5.45905,0.64191
316.341,20.73977,-0.40345,5.48166,0.64173
316.941,20.75617,-0.41045,5.49959,0.64155
317.541,20.77254,-0.41732,5.51824,0.64137
318.141,20.78892,-0.42514,5.5439,0.64119
318.741,20.80535,-0.43275,5.57033,0.64101
319.341,20.82189,-0.43917,5.59265,0.64083
319.941,20.83831,-0.44687,5.62299,0.64065
320.541,20.85471,-0.45264,5.65125,0.64046
321.141,20.8711,-0.45876,5.67942,0.64028
321.741,20.88748,-0.46502,5.7022,0.64009
322.341,20.90385,-0.47056,5.74245,0.63991
322.941,20.9203,-0.47824,5.77869,0.63972
323.541,20.9367,-0.48409,5.81019,0.63954
324.141,20.95315,-0.49178,5.8447,0.63935
324.741,20.96958,-0.49881,5.88051,0.63916
325.341,20.98611,-0.50559,5.89636,0.63897
325.941,21.00253,-0.51346,5.94489,0.63878
326.541,21.01898,-0.51996,5.96575,0.63859
327.141,21.03538,-0.52922,6.00025,0.6384
327.741,21.05181,-0.53771,6.04231,0.63821
328.341,21.0683,-0.54763,6.07422,0.63801
328.941,21.08472,-0.55877,6.11252,0.63782
329.541,21.10112,-0.56738,6.14365,0.63762
330.141,21.11757,-0.57727,6.17447,0.63743
330.741,21.13401,-0.58435,6.21035,0.63723
331.341,21.1505,-0.59271,6.247,0.63704
331.941,21.16695,-0.6026,6.29316,0.63684
332.541,21.18346,-0.6115,6.33354,0.63664
333.141,21.2,-0.62268,6.35223,0.63644
333.741,21.21647,-0.63169,6.40304,0.63624
334.341,21.23297,-0.64177,6.43634,0.63604
334.941,21.24942,-0.65167,6.48219,0.63584
335.541,21.26585,-0.66187,6.53917,0.63564
336.141,21.28227,-0.67423,6.58064,0.63544
336.741,21.29873,-0.68361,6.5925,0.63524
337.341,21.31519,-0.69594,6.63302,0.63503
337.941,21.33169,-0.70638,6.69136,0.63483
338.541,21.34821,-0.7174,6.73685,0.63462
339.141,21.36474,-0.73134,6.77948,0.63442
339.741,21.38125,-0.74465,6.83166,0.63421
340.341,21.39776,-0.76134,6.88211,0.634
340.941,21.41425,-0.77516,6.91317,0.63379
341.541,21.43074,-0.78669,6.93324,0.63359
342.141,21.4472,-0.79402,6.96899,0.63338
342.741,21.46371,-0.79782,7.00682,0.63317
343.341,21.48019,-0.80264,7.05667,0.63296
343.941,21.49664,-0.81029,7.08266,0.63275
344.541,21.51313,-0.82726,7.13319,0.63253
345.141,21.52967,-0.84416,7.18064,0.63232
345.741,21.54622,-0.85954,7.21905,0.63211
346.341,21.56278,-0.87548,7.25953,0.63189
346.941,21.57933,-0.88758,7.30167,0.63168
347.541,21.59594,-0.90253,7.33456,0.63146
348.141,21.6124,-0.91517,7.36212,0.63125
348.741,21.62896,-0.92854,7.40473,0.63103
349.341,21.64549,-0.94103,7.43739,0.63081
349.941,21.66209,-0.95184,7.46956,0.6306
350.541,21.67869,-0.96729,7.51381,0.63038
351.141,21.69531,-0.98154,7.5403,0.63016
351.741,21.71191,-0.99755,7.56839,0.62994
352.341,21.72849,-1.01193,7.59818,0.62972
352.941,21.74509,-1.0247,7.64801,0.6295
353.541,21.7616,-1.03964,7.683,0.62928
354.141,21.77821,-1.05124,7.71425,0.62905
354.741,21.79485,-1.06616,7.75163,0.62883
355.341,21.81146,-1.0789,7.77697,0.62861
355.941,21.82806,-1.09295,7.83589,0.62838
356.541,21.8447,-1.10901,7.86251,0.62816
357.141,21.86136,-1.12243,7.89832,0.62793
357.741,21.878,-1.13983,7.92246,0.62771
358.341,21.8947,-1.15311,7.95811,0.62748
358.941,21.91129,-1.1684,8.00977,0.62725
359.541,21.928,-1.18278,8.05356,0.62703
360.141,21.94465,-1.19698,8.08068,0.6268
360.741,21.9613,-1.2155,8.11811,0.62657
361.341,21.97794,-1.22922,8.17324,0.62634
361.941,21.99457,-1.24546,8.21707,0.62611
362.541,22.01124,-1.25974,8.25855,0.62588
363.141,22.02786,-1.27547,8.29996,0.62565
363.741,22.0445,-1.29288,8.32778,0.62541
364.341,22.0612,-1.30634,8.39755,0.62518
364.941,22.07795,-1.32201,8.45615,0.62495
365.541,22.09465,-1.33463,8.50608,0.62471
366.141,22.11137,-1.35169,8.55924,0.62448
366.741,22.1281,-1.36948,8.60548,0.62425
367.341,22.1448,-1.38572,8.67651,0.62401
367.941,22.16159,-1.40532,8.74647,0.62377
368.541,22.17837,-1.4209,8.82093,0.62354
369.141,22.19516,-1.43963,8.89053,0.6233
369.741,22.21191,-1.4552,8.95959,0.62306
370.341,22.22867,-1.47236,9.03451,0.62282
370.941,22.24541,-1.49101,9.12894,0.62258
371.541,22.2622,-1.50596,9.20443,0.62234
372.141,22.27892,-1.52554,9.3023,0.6221
372.741,22.29569,-1.54077,9.38366,0.62186
373.341,22.31249,-1.55786,9.48488,0.62162
373.941,22.32926,-1.5752,9.57625,0.62138
374.541,22.34603,-1.59325,9.67433,0.62114
375.141,22.36287,-1.616,9.79404,0.6209
375.741,22.37969,-1.63418,9.90233,0.62065
376.341,22.39651,-1.65416,10.00739,0.62041
376.941,22.41337,-1.67014,10.12001,0.62016
377.541,22.4302,-1.68936,10.24333,0.61992
378.141,22.44706,-1.71054,10.34426,0.61967
378.741,22.4639,-1.72971,10.47734,0.61943
379.341,22.48072,-1.75275,10.59816,0.61918
379.941,22.49758,-1.77009,10.74371,0.61893
380.541,22.51437,-1.79096,10.85817,0.61869
381.141,22.5312,-1.81064,10.98737,0.61844
381.741,22.54804,-1.83248,11.10855,0.61819
382.341,22.56491,-1.85704,11.23066,0.61794
382.941,22.58174,-1.87728,11.35312,0.61769
383.541,22.5986,-1.90293,11.4725,0.61744
384.141,22.61553,-1.92269,11.60617,0.61719
384.741,22.6324,-1.94657,11.71654,0.61694
385.341,22.6492,-1.96898,11.819,0.61669
385.941,22.6661,-1.99087,11.93592,0.61643
386.541,22.68307,-2.0173,12.05449,0.61618
387.141,22.6999,-2.03864,12.15489,0.61593
387.741,22.7168,-2.06633,12.24686,0.61567
388.341,22.73387,-2.08806,12.3195,0.61542
388.941,22.75083,-2.11264,12.36616,0.61517
389.541,22.76781,-2.13794,12.4369,0.61491
390.141,22.78474,-2.16107,12.46994,0.61465
390.741,22.8018,-2.1898,12.51123,0.6144
391.341,22.8188,-2.21147,12.54186,0.61414
391.941,22.83585,-2.23898,12.53218,0.61388
392.541,22.85286,-2.26141,12.52998,0.61363
393.141,22.86988,-2.28577,12.49732,0.61337
393.741,22.88684,-2.31004,12.4218,0.61311
394.341,22.90385,-2.33247,12.3436,0.61285
394.941,22.92091,-2.36028,12.2422,0.61259
395.541,22.9379,-2.38078,12.11151,0.61233
396.141,22.95495,-2.40598,11.97794,0.61207
396.741,22.972,-2.42721,11.82898,0.61181
397.341,22.98903,-2.44976,11.6367,0.61155
397.941,23.0061,-2.47437,11.4278,0.61129
398.541,23.02318,-2.49474,11.18726,0.61102
399.141,23.04026,-2.51959,10.921,0.61076
399.741,23.0574,-2.53725,10.63848,0.6105
400.341,23.07453,-2.55914,10.3439,0.61023
400.941,23.09161,-2.57746,10.0403,0.60997
401.541,23.1087,-2.59654,9.69464,0.60971
402.141,23.12586,-2.61789,9.33923,0.60944
402.741,23.14304,-2.63521,8.97291,0.60918
403.341,23.16021,-2.65571,8.57172,0.60891
403.941,23.1773,-2.66876,8.19306,0.60864
404.541,23.19444,-2.68384,7.81971,0.60838
405.141,23.21155,-2.69668,7.41832,0.60811
405.741,23.22865,-2.71039,7.0001,0.60784
406.341,23.24578,-2.72497,6.6078,0.60757
406.941,23.26296,-2.73627,6.21048,0.60731
407.541,23.28012,-2.74835,5.80369,0.60704
408.141,23.29727,-2.75574,5.42842,0.60677
408.741,23.31447,-2.76533,5.04807,0.6065
409.341,23.33163,-2.77344,4.7168,0.60623
409.941,23.3488,-2.78172,4.36774,0.60596
410.541,23.36587,-2.79008,4.03815,0.60569
411.141,23.38297,-2.7967,3.72389,0.60541
411.741,23.40015,-2.80394,3.45976,0.60514
412.341,23.41726,-2.80836,3.18952,0.60487
412.941,23.43443,-2.81386,2.94255,0.6046
413.541,23.4516,-2.81801,2.71496,0.60433
414.141,23.46881,-2.82346,2.50309,0.60405
414.741,23.48599,-2.82831,2.32307,0.60378
415.341,23.50316,-2.83145,2.16633,0.6035
415.941,23.5203,-2.83465,2.01226,0.60323
416.541,23.53742,-2.83839,1.88433,0.60296
417.141,23.5546,-2.84206,1.77598,0.60268
417.741,23.57174,-2.84557,1.66977,0.6024
418.341,23.58888,-2.84898,1.57693,0.60213
418.941,23.60605,-2.85014,1.49007,0.60185
419.541,23.6233,-2.85162,1.42032,0.60158
420.141,23.64047,-2.85298,1.34087,0.6013
420.741,23.6577,-2.85543,1.3,0.60102
421.341,23.67492,-2.85794,1.25938,0.60074
421.941,23.69211,-2.86269,1.20187,0.60047
422.541,23.70929,-2.86684,1.15797,0.60019
423.141,23.7265,-2.86871,1.12013,0.59991
423.741,23.74365,-2.87092,1.09403,0.59963
424.341,23.76085,-2.87434,1.05992,0.59935
424.941,23.77808,-2.87709,1.02515,0.59907
425.541,23.79532,-2.87929,0.99938,0.59879
426.141,23.81258,-2.88218,0.98939,0.59851
426.741,23.82988,-2.88374,0.96191,0.59823
427.341,23.8472,-2.88524,0.92541,0.59795
427.941,23.86447,-2.88673,0.89289,0.59767
428.541,23.88179,-2.88921,0.86989,0.59738
429.141,23.8991,-2.89168,0.84546,0.5971
429.741,23.9163,-2.89372,0.83411,0.59682
430.341,23.9336,-2.89505,0.81428,0.59654
430.941,23.95094,-2.89665,0.79073,0.59625
431.541,23.96826,-2.89848,0.75961,0.59597
432.141,23.98561,-2.90085,0.73024,0.59568
432.741,24.003,-2.9037,0.70814,0.5954
433.341,24.0203,-2.90538,0.69602,0.59512
433.941,24.03771,-2.90674,0.68123,0.59483
434.541,24.0551,-2.90788,0.65891,0.59455
435.141,24.07251,-2.90865,0.63116,0.59426
435.741,24.0899,-2.91072,0.61023,0.59397
436.341,24.1073,-2.91328,0.59464,0.59369
436.941,24.12472,-2.91624,0.55842,0.5934
437.541,24.14199,-2.91863,0.55414,0.59312
438.141,24.15924,-2.92009,0.54141,0.59283
438.741,24.17649,-2.92123,0.52447,0.59254
439.341,24.19381,-2.92298,0.50208,0.59225
439.941,24.2112,-2.92475,0.48391,0.59197
440.541,24.22877,-2.92636,0.46686,0.59168
441.141,24.24638,-2.92973,0.44857,0.59139
441.741,24.26396,-2.9302,0.42319,0.5911
442.341,24.28155,-2.93146,0.41219,0.59081
442.941,24.29907,-2.93487,0.389,0.59052
443.541,24.31656,-2.93742,0.36583,0.59023
444.141,24.334,-2.94009,0.35587,0.58994
444.741,24.35154,-2.94187,0.34817,0.58965
445.341,24.36904,-2.94244,0.32665,0.58936
445.941,24.38652,-2.94405,0.31452,0.58907
446.541,24.40403,-2.9449,0.28754,0.58878
447.141,24.42154,-2.94675,0.28179,0.58849
447.741,24.43909,-2.94807,0.27151,0.5882
448.341,24.45656,-2.94802,0.25194,0.58791
448.941,24.4741,-2.94938,0.2386,0.58762
449.541,24.49164,-2.9496,0.2283,0.58732
450.141,24.50919,-2.95163,0.2167,0.58703
450.741,24.52676,-2.95464,0.20923,0.58674
451.341,24.5444,-2.95802,0.20451,0.58645
451.941,24.56198,-2.96191,0.19035,0.58615
452.541,24.57949,-2.96336,0.18032,0.58586
453.141,24.59698,-2.96511,0.15427,0.58556
453.741,24.6146,-2.96564,0.15291,0.58527
454.341,24.6323,-2.96678,0.1529,0.58498
454.941,24.64985,-2.96864,0.13972,0.58468
455.541,24.66756,-2.96945,0.13591,0.58439
456.141,24.68534,-2.97015,0.12113,0.58409
456.741,24.70297,-2.97115,0.11033,0.5838
457.341,24.7206,-2.97211,0.10616,0.5835
457.941,24.73829,-2.97368,0.10921,0.58321
458.541,24.75599,-2.97551,0.10792,0.58291
459.141,24.7737,-2.97715,0.10286,0.58262
459.741,24.79136,-2.97853,0.114,0.58232
460.341,24.8091,-2.98016,0.11581,0.58202
460.941,24.8268,-2.98249,0.12485,0.58173
461.541,24.84442,-2.98444,0.12709,0.58143
462.141,24.86204,-2.9868,0.1321,0.58113
462.741,24.87978,-2.98792,0.14323,0.58084
463.341,24.8975,-2.98898,0.14005,0.58054
463.941,24.9151,-2.99073,0.14271,0.58024
464.541,24.93291,-2.99204,0.15195,0.57994
465.141,24.95074,-2.99444,0.17014,0.57965
465.741,24.96846,-2.99559,0.17517,0.57935
466.341,24.98621,-2.99735,0.18071,0.57905
466.941,25.00406,-2.99727,0.1799,0.57875
467.541,25.02187,-2.99769,0.18986,0.57845
468.141,25.03969,-2.99944,0.20037,0.57815
468.741,25.0575,-3.00092,0.22072,0.57785
469.341,25.0753,-3.00246,0.2329,0.57755
469.941,25.09313,-3.00346,0.23486,0.57726
470.541,25.111,-3.00496,0.26213,0.57696
471.141,25.12881,-3.00492,0.26796,0.57666
471.741,25.14665,-3.00619,0.28121,0.57636
472.341,25.16442,-3.0073,0.29738,0.57606
472.941,25.1823,-3.00886,0.31837,0.57576
473.541,25.2001,-3.0109,0.33421,0.57546
474.141,25.21804,-3.01295,0.35432,0.57515
474.741,25.236,-3.01461,0.35962,0.57485
475.341,25.25394,-3.0162,0.37706,0.57455
475.941,25.2718,-3.01867,0.38906,0.57425
476.541,25.2897,-3.0205,0.3987,0.57395
477.141,25.30761,-3.02247,0.42032,0.57365
477.741,25.32558,-3.02443,0.45148,0.57335
478.341,25.3435,-3.02566,0.46432,0.57305
478.941,25.36146,-3.02607,0.4812,0.57274
479.541,25.37939,-3.02713,0.50163,0.57244
480.141,25.39733,-3.028,0.51375,0.57214
480.741,25.41524,-3.02919,0.51948,0.57184
481.341,25.43321,-3.03067,0.54757,0.57154
481.941,25.45121,-3.03138,0.56793,0.57123
482.541,25.46927,-3.03195,0.58299,0.57093
483.141,25.4873,-3.03194,0.59666,0.57063
483.741,25.50534,-3.03194,0.60458,0.57032
484.341,25.52337,-3.03194,0.61806,0.57002
484.941,25.54143,-3.03194,0.61892,0.56972
485.541,25.55944,-3.03223,0.63165,0.56942
486.141,25.5775,-3.03331,0.64619,0.56911
486.741,25.59553,-3.03431,0.66427,0.56881
487.341,25.61356,-3.03569,0.67645,0.5685
487.941,25.6316,-3.03822,0.69277,0.5682
488.541,25.64971,-3.04013,0.69845,0.5679
489.141,25.66781,-3.04249,0.72381,0.56759
489.741,25.68586,-3.04423,0.72881,0.56729
490.341,25.70397,-3.04525,0.73614,0.56699
490.941,25.72205,-3.04653,0.74559,0.56668
491.541,25.7401,-3.04652,0.75981,0.56638
492.141,25.75815,-3.04652,0.77084,0.56607
492.741,25.77625,-3.04652,0.77041,0.56577
493.341,25.79436,-3.04652,0.79182,0.56546
493.941,25.8125,-3.04835,0.7978,0.56516
494.541,25.83064,-3.04943,0.80152,0.56485
495.141,25.84879,-3.04981,0.81376,0.56455
495.741,25.867,-3.05098,0.83306,0.56424
496.341,25.88514,-3.05145,0.8331,0.56394
496.941,25.90334,-3.05152,0.83837,0.56363
497.541,25.92149,-3.05362,0.85138,0.56333
498.141,25.93962,-3.05351,0.8631,0.56302
498.741,25.95778,-3.05426,0.87077,0.56272
499.341,25.97595,-3.05568,0.86895,0.56241
499.941,25.99411,-3.05746,0.87073,0.56211
500.541,26.01223,-3.05905,0.88276,0.5618
501.141,26.03044,-3.06006,0.88457,0.56149
501.741,26.04862,-3.06261,0.89593,0.56119
502.341,26.06683,-3.06264,0.91196,0.56088
502.941,26.08507,-3.06265,0.91532,0.56058
503.541,26.10337,-3.06265,0.91632,0.56027
504.141,26.12161,-3.06316,0.93256,0.55997
504.741,26.13989,-3.06419,0.93524,0.55966
505.341,26.15811,-3.06555,0.94313,0.55935
505.941,26.17636,-3.0657,0.95377,0.55905
506.541,26.19462,-3.06665,0.95369,0.55874
507.141,26.2129,-3.06736,0.9494,0.55843
507.741,26.2311,-3.06903,0.95449,0.55813
508.341,26.2494,-3.07003,0.95177,0.55782
508.941,26.26766,-3.07082,0.95424,0.55752
509.541,26.2859,-3.07216,0.93906,0.55721
510.141,26.30415,-3.07219,0.95396,0.5569
510.741,26.32245,-3.07215,0.95459,0.5566
511.341,26.3408,-3.07324,0.9686,0.55629
511.941,26.3591,-3.07351,0.96733,0.55598
512.541,26.37743,-3.0735,0.97292,0.55568
513.141,26.39576,-3.07446,0.96804,0.55537
513.741,26.41408,-3.07483,0.97067,0.55506
514.341,26.4324,-3.07505,0.96522,0.55476
514.941,26.4507,-3.07661,0.96057,0.55445
515.541,26.46906,-3.07847,0.96422,0.55414
516.141,26.4874,-3.07909,0.95613,0.55384
516.741,26.5058,-3.07854,0.96448,0.55353
517.341,26.5241,-3.07933,0.95844,0.55322
517.941,26.54246,-3.07873,0.96283,0.55292
518.541,26.56082,-3.07948,0.96351,0.55261
519.141,26.57922,-3.08101,0.9641,0.5523
519.741,26.5976,-3.08275,0.96859,0.552
520.341,26.61608,-3.08379,0.97043,0.55169
520.941,26.63448,-3.08563,0.97511,0.55138
521.541,26.65287,-3.08757,0.95651,0.55108
522.141,26.67125,-3.08913,0.95691,0.55077
522.741,26.68968,-3.09092,0.96324,0.55046
523.341,26.7082,-3.09073,0.96441,0.55016
523.941,26.7267,-3.08956,0.96267,0.54985
524.541,26.7452,-3.08962,0.95077,0.54954
525.141,26.7636,-3.08962,0.95308,0.54924
525.741,26.7821,-3.08957,0.95183,0.54893
526.341,26.80048,-3.0893,0.95104,0.54862
526.941,26.8189,-3.0893,0.95558,0.54832
527.541,26.83724,-3.0893,0.95957,0.54801
528.141,26.8556,-3.0893,0.95478,0.5477
528.741,26.87394,-3.08926,0.94528,0.5474
529.341,26.8924,-3.09019,0.93874,0.54709
529.941,26.9109,-3.09078,0.92636,0.54678
530.541,26.9295,-3.09015,0.93506,0.54648
531.141,26.9481,-3.0915,0.94066,0.54617
531.741,26.9667,-3.09187,0.92464,0.54586
532.341,26.98531,-3.09313,0.91592,0.54556
532.941,27.0038,-3.09477,0.91779,0.54525
533.541,27.0223,-3.0957,0.91576,0.54494
534.141,27.0408,-3.09632,0.92088,0.54464
534.741,27.05929,-3.09633,0.9101,0.54433
535.341,27.0778,-3.09635,0.90378,0.54402
535.941,27.09634,-3.09689,0.89633,0.54372
536.541,27.1149,-3.09873,0.88794,0.54341
537.141,27.1335,-3.09973,0.88142,0.54311
537.741,27.1521,-3.1013,0.88701,0.5428
538.341,27.17067,-3.1018,0.88525,0.54249
538.941,27.18925,-3.10181,0.87818,0.54219
539.541,27.20785,-3.10181,0.87218,0.54188
540.141,27.22648,-3.10176,0.87442,0.54158
540.741,27.24509,-3.10187,0.87001,0.54127
541.341,27.26377,-3.10143,0.86209,0.54096
541.941,27.2824,-3.10012,0.85673,0.54066
542.541,27.301,-3.10022,0.85071,0.54035
543.141,27.3196,-3.10148,0.84194,0.54005
543.741,27.33825,-3.10168,0.8272,0.53974
544.341,27.35688,-3.103,0.82582,0.53944
544.941,27.3755,-3.10441,0.82717,0.53913
545.541,27.39415,-3.10561,0.81518,0.53883
546.141,27.41285,-3.10695,0.81449,0.53852
546.741,27.4315,-3.10854,0.81062,0.53821
547.341,27.45018,-3.10961,0.81113,0.53791
547.941,27.46886,-3.11003,0.80122,0.5376
548.541,27.48753,-3.11116,0.79596,0.5373
549.141,27.5062,-3.11133,0.7817,0.537
549.741,27.5248,-3.11135,0.77027,0.53669
550.341,27.54355,-3.11135,0.76802,0.53639
550.941,27.5622,-3.11135,0.7582,0.53608
551.541,27.58095,-3.11135,0.74698,0.53578
552.141,27.59965,-3.11286,0.73567,0.53547
552.741,27.6183,-3.11307,0.7244,0.53517
553.341,27.637,-3.11437,0.71245,0.53486
553.941,27.65568,-3.11423,0.71096,0.53456
554.541,27.67442,-3.11568,0.71179,0.53426
555.141,27.69323,-3.11458,0.69728,0.53395
555.741,27.712,-3.11586,0.68589,0.53365
556.341,27.7308,-3.11606,0.68356,0.53334
556.941,27.74965,-3.11606,0.68129,0.53304
557.541,27.76837,-3.11608,0.67241,0.53274
558.141,27.7871,-3.11683,0.66532,0.53243
558.741,27.8058,-3.11806,0.65014,0.53213
559.341,27.82462,-3.11969,0.64812,0.53183
559.941,27.84341,-3.12151,0.63863,0.53152
560.541,27.8622,-3.12185,0.64431,0.53122
561.141,27.881,-3.12051,0.63419,0.53092
561.741,27.8998,-3.12056,0.62834,0.53061
562.341,27.91856,-3.12056,0.6317,0.53031
562.941,27.93737,-3.12056,0.62812,0.53001
563.541,27.95618,-3.12051,0.62602,0.52971
564.141,27.975,-3.1216,0.60749,0.5294
564.741,27.99379,-3.12172,0.59899,0.5291
565.341,28.0126,-3.12436,0.59817,0.5288
565.941,28.03138,-3.12483,0.58488,0.5285
566.541,28.05023,-3.12627,0.57203,0.5282
567.141,28.06908,-3.12628,0.55747,0.5279
567.741,28.08792,-3.12676,0.55952,0.52759
568.341,28.10677,-3.12761,0.56218,0.52729
568.941,28.12562,-3.12758,0.54965,0.52699
569.541,28.1445,-3.12754,0.54755,0.52669
570.141,28.1633,-3.12851,0.54756,0.52639
570.741,28.1822,-3.12889,0.53827,0.52609
571.341,28.201,-3.1289,0.54162,0.52579
571.941,28.2199,-3.1289,0.53288,0.52549
572.541,28.23883,-3.13032,0.52241,0.52519
573.141,28.25775,-3.13051,0.53078,0.52489
573.741,28.27665,-3.13171,0.51578,0.52459
574.341,28.29557,-3.13167,0.5182,0.52429
574.941,28.3145,-3.13204,0.5103,0.52399
575.541,28.33333,-3.13297,0.50498,0.52369
576.141,28.3522,-3.13302,0.48983,0.52339
576.741,28.37112,-3.13326,0.48,0.52309
577.341,28.39,-3.13296,0.48889,0.52279
577.941,28.40888,-3.13296,0.47886,0.52249
578.541,28.4278,-3.13296,0.48625,0.52219
579.141,28.44677,-3.13291,0.4767,0.52189
579.741,28.46572,-3.13411,0.45635,0.52159
580.341,28.4847,-3.13428,0.44349,0.52129
580.941,28.5036,-3.13562,0.42318,0.521
581.541,28.5225,-3.1371,0.42274,0.5207
582.141,28.5415,-3.13701,0.4205,0.5204
582.741,28.56049,-3.13772,0.42402,0.5201
583.341,28.5795,-3.13833,0.42859,0.5198
583.941,28.59853,-3.13833,0.40942,0.51951
584.541,28.61754,-3.13833,0.40123,0.51921
585.141,28.63655,-3.13833,0.38673,0.51891
585.741,28.6555,-3.13833,0.37424,0.51862
586.341,28.6746,-3.13829,0.35913,0.51832
586.941,28.6936,-3.13931,0.3578,0.51802
587.541,28.7126,-3.13972,0.33784,0.51773
588.141,28.7316,-3.14055,0.33146,0.51743
588.741,28.75058,-3.14107,0.33022,0.51713
589.341,28.7695,-3.14136,0.32052,0.51684
589.941,28.7885,-3.14242,0.30441,0.51654
590.541,28.8076,-3.14239,0.29488,0.51625
591.141,28.8266,-3.14342,0.27347,0.51595
591.741,28.8457,-3.14375,0.25134,0.51566
592.341,28.8647,-3.14523,0.23835,0.51536
592.941,28.8838,-3.14506,0.23105,0.51507
593.541,28.9028,-3.14628,0.22524,0.51477
594.141,28.92193,-3.1463,0.21655,0.51448
594.741,28.94102,-3.14501,0.21082,0.51418
595.341,28.96012,-3.14468,0.19739,0.51389
595.941,28.97915,-3.14369,0.19432,0.51359
596.541,28.9981,-3.14374,0.18773,0.5133
597.141,29.01703,-3.14252,0.16706,0.51301
597.741,29.0361,-3.14357,0.13786,0.51271
598.341,29.0552,-3.1448,0.13366,0.51242
598.941,29.0744,-3.14792,0.11459,0.51213
599.541,29.0937,-3.15093,0.08109573,0.51184
600.141,29.11288,-3.15278,0.06403862,0.51154
600.741,29.1321,-3.15378,0.0312319,0.51125
601.341,29.15124,-3.15455,0.03062813,0.51096
601.941,29.1704,-3.15508,0.007433301,0.51067
602.541,29.18954,-3.15338,-0.001097104,0.51038
603.141,29.20869,-3.15158,-0.004114147,0.51008
603.741,29.2278,-3.15008,-0.01116985,0.50979
604.341,29.247,-3.14988,-0.0026247,0.5095
604.941,29.26616,-3.15017,-0.01572816,0.50921
605.541,29.28528,-3.1514,-0.03678098,0.50892
606.141,29.30429,-3.15249,-0.04032097,0.50863
606.741,29.32338,-3.15299,-0.04795154,0.50834
607.341,29.3425,-3.15544,-0.06105841,0.50805
607.941,29.36154,-3.15555,-0.07716406,0.50776
608.541,29.3807,-3.15628,-0.07938662,0.50747
609.141,29.3999,-3.15698,-0.07965952,0.50718
609.741,29.41903,-3.15788,-0.08592186,0.50689
610.341,29.4382,-3.15831,-0.08494257,0.50661
610.941,29.4574,-3.15875,-0.09825239,0.50632
611.541,29.47662,-3.15965,-0.10983,0.50603
612.141,29.4959,-3.15955,-0.11984,0.50574
612.741,29.5151,-3.16068,-0.13278,0.50545
613.341,29.5343,-3.16086,-0.15088,0.50516
613.941,29.5535,-3.16224,-0.15687,0.50488
614.541,29.5727,-3.16215,-0.15762,0.50459
615.141,29.5919,-3.16214,-0.16612,0.5043
615.741,29.61123,-3.16215,-0.15637,0.50402
616.341,29.63053,-3.16143,-0.17308,0.50373
616.941,29.64981,-3.1606,-0.19535,0.50344
617.541,29.6691,-3.15911,-0.18979,0.50316
618.141,29.68842,-3.15908,-0.19658,0.50287
618.741,29.7078,-3.15907,-0.2011,0.50259
619.341,29.7272,-3.15907,-0.20619,0.5023
619.941,29.74663,-3.15919,-0.21763,0.50202
620.541,29.766,-3.16064,-0.22546,0.50173
621.141,29.7853,-3.1596,-0.23643,0.50145
621.741,29.8045,-3.15953,-0.2455,0.50116
622.341,29.8238,-3.15982,-0.27259,0.50088
622.941,29.843,-3.16079,-0.26798,0.5006
623.541,29.8624,-3.16228,-0.28108,0.50031
624.141,29.8817,-3.16364,-0.29012,0.50003
624.741,29.901,-3.16527,-0.29661,0.49975
625.341,29.9204,-3.16558,-0.31493,0.49946
625.941,29.93972,-3.16655,-0.31198,0.49918
626.541,29.95905,-3.16651,-0.30455,0.4989
627.141,29.97837,-3.16702,-0.30281,0.49862
627.741,29.99772,-3.16761,-0.3161,0.49833
628.341,30.017,-3.16712,-0.3103,0.49805
628.941,30.0364,-3.16832,-0.31676,0.49777
629.541,30.05578,-3.16848,-0.32396,0.49749
630.141,30.0751,-3.16849,-0.33261,0.49721
630.741,30.09445,-3.16849,-0.33891,0.49693
631.341,30.1138,-3.16848,-0.34159,0.49665
631.941,30.13317,-3.16843,-0.34436,0.49637
632.541,30.15261,-3.16965,-0.36338,0.49609
633.141,30.17206,-3.16982,-0.35605,0.49581
633.741,30.19146,-3.17119,-0.36797,0.49553
634.341,30.21091,-3.17113,-0.37026,0.49525
634.941,30.23028,-3.17113,-0.38076,0.49497
635.541,30.2496,-3.17114,-0.39913,0.4947
636.141,30.269,-3.17203,-0.39288,0.49442
636.741,30.2885,-3.17244,-0.40203,0.49414
637.341,30.30787,-3.17244,-0.41209,0.49386
637.941,30.3273,-3.17245,-0.40869,0.49358
638.541,30.3468,-3.17139,-0.42582,0.49331
639.141,30.36617,-3.17109,-0.42037,0.49303
639.741,30.3856,-3.17229,-0.4186,0.49275
640.341,30.40506,-3.17279,-0.43388,0.49248
640.941,30.42452,-3.17399,-0.44511,0.4922
641.541,30.44401,-3.17492,-0.47117,0.49193
642.141,30.46351,-3.17387,-0.48154,0.49165
642.741,30.48299,-3.17397,-0.47841,0.49138
643.341,30.50242,-3.17393,-0.46048,0.4911
643.941,30.5219,-3.1751,-0.46468,0.49083
644.541,30.54135,-3.1753,-0.4671,0.49055
645.141,30.56077,-3.1753,-0.48195,0.49028
645.741,30.5803,-3.1753,-0.49217,0.49
646.341,30.59978,-3.1753,-0.46752,0.48973
646.941,30.6191,-3.17655,-0.49261,0.48946
647.541,30.63849,-3.1766,-0.50012,0.48919
648.141,30.65792,-3.17657,-0.5079,0.48891
648.741,30.6774,-3.17782,-0.52442,0.48864
649.341,30.69693,-3.17793,-0.52956,0.48837
649.941,30.7166,-3.1783,-0.51036,0.4881
650.541,30.7362,-3.17928,-0.52433,0.48783
651.141,30.75575,-3.17924,-0.51493,0.48755
651.741,30.7753,-3.17923,-0.52338,0.48728
652.341,30.79485,-3.18007,-0.52864,0.48701
652.941,30.8144,-3.18045,-0.52353,0.48674
653.541,30.834,-3.18178,-0.52789,0.48647
654.141,30.8536,-3.18184,-0.53097,0.4862
654.741,30.8732,-3.18046,-0.52754,0.48593
655.341,30.89275,-3.18055,-0.54344,0.48566
655.941,30.91232,-3.18058,-0.54135,0.4854
656.541,30.9319,-3.18195,-0.53416,0.48513
657.141,30.95141,-3.18187,-0.52563,0.48486
657.741,30.971,-3.18187,-0.53829,0.48459
658.341,30.9906,-3.18185,-0.52129,0.48432
658.941,31.01018,-3.18055,-0.51845,0.48406
659.541,31.0297,-3.18208,-0.50459,0.48379
660.141,31.0493,-3.18211,-0.52917,0.48352
660.741,31.0689,-3.18299,-0.53761,0.48326
661.341,31.08845,-3.18342,-0.52847,0.48299
661.941,31.1081,-3.18341,-0.54541,0.48272
662.541,31.1277,-3.18456,-0.54087,0.48246
663.141,31.14733,-3.18472,-0.55489,0.48219
663.741,31.1669,-3.18475,-0.56318,0.48193
664.341,31.18652,-3.18536,-0.56196,0.48166
664.941,31.20611,-3.18606,-0.56007,0.4814
665.541,31.22571,-3.18607,-0.56478,0.48114
666.141,31.24535,-3.18652,-0.55192,0.48087
666.741,31.26497,-3.18691,-0.54811,0.48061
667.341,31.28452,-3.18603,-0.54403,0.48035
667.941,31.3041,-3.18605,-0.55179,0.48008
668.541,31.32377,-3.18622,-0.54862,0.47982
669.141,31.34337,-3.18741,-0.55181,0.47956
669.741,31.36287,-3.18731,-0.55074,0.4793
670.341,31.3825,-3.18852,-0.55094,0.47904
670.941,31.4021,-3.18867,-0.54523,0.47877
671.541,31.42172,-3.18867,-0.52843,0.47851
672.141,31.44146,-3.18867,-0.56414,0.47825
672.741,31.4613,-3.18865,-0.55302,0.47799
673.341,31.481,-3.18974,-0.53992,0.47773
673.941,31.50082,-3.1901,-0.55809,0.47747
674.541,31.52052,-3.1901,-0.5612,0.47721
675.141,31.5402,-3.19045,-0.55143,0.47695
675.741,31.55991,-3.19142,-0.55839,0.4767
676.341,31.57957,-3.19142,-0.57646,0.47644
676.941,31.5992,-3.19142,-0.56444,0.47618
677.541,31.6189,-3.19142,-0.54844,0.47592
678.141,31.6386,-3.19142,-0.54926,0.47566
678.741,31.65835,-3.19142,-0.55243,0.47541
679.341,31.67809,-3.19142,-0.55601,0.47515
679.941,31.6978,-3.19138,-0.59169,0.47489
680.541,31.7175,-3.19271,-0.5766,0.47464
681.141,31.7372,-3.19278,-0.55586,0.47438
681.741,31.7568,-3.19401,-0.58339,0.47413
682.341,31.7765,-3.19415,-0.59007,0.47387
682.941,31.7962,-3.19416,-0.5976,0.47362
683.541,31.81598,-3.19418,-0.59081,0.47336
684.141,31.83571,-3.19342,-0.59738,0.47311
684.741,31.8556,-3.19328,-0.57319,0.47285
685.341,31.8754,-3.19191,-0.56565,0.4726
685.941,31.89507,-3.19177,-0.55119,0.47235
686.541,31.91478,-3.1931,-0.57893,0.47209
687.141,31.9345,-3.19313,-0.56359,0.47184
687.741,31.9542,-3.19417,-0.54598,0.47159
688.341,31.9741,-3.19448,-0.54834,0.47134
688.941,31.9939,-3.19453,-0.52477,0.47108
689.541,32.01365,-3.19354,-0.52129,0.47083
690.141,32.03348,-3.19319,-0.5301,0.47058
690.741,32.05327,-3.19318,-0.55087,0.47033
691.341,32.07306,-3.19321,-0.54411,0.47008
691.941,32.0929,-3.19458,-0.53257,0.46983
692.541,32.11264,-3.1945,-0.55034,0.46958
693.141,32.13242,-3.19449,-0.5616,0.46933
693.741,32.1522,-3.19449,-0.56065,0.46908
694.341,32.17195,-3.19449,-0.57296,0.46883
694.941,32.1917,-3.19449,-0.58183,0.46859
695.541,32.21151,-3.19448,-0.58754,0.46834
696.141,32.23129,-3.19526,-0.58716,0.46809
696.741,32.2511,-3.1958,-0.59972,0.46784
697.341,32.27088,-3.19581,-0.59049,0.4676
697.941,32.2906,-3.19581,-0.58925,0.46735
698.541,32.3104,-3.19581,-0.58821,0.4671
699.141,32.33019,-3.19814,-0.57854,0.46686
699.741,32.35,-3.19844,-0.59515,0.46661
700.341,32.36988,-3.19844,-0.57431,0.46637
700.941,32.38969,-3.19844,-0.58276,0.46612
701.541,32.40948,-3.19845,-0.6021,0.46588
702.141,32.42926,-3.19715,-0.61402,0.46563
702.741,32.44907,-3.19713,-0.61719,0.46539
703.341,32.46889,-3.19709,-0.59929,0.46514
703.941,32.4887,-3.19897,-0.58552,0.4649
704.541,32.50849,-3.19997,-0.58784,0.46466
705.141,32.52837,-3.20135,-0.58415,0.46441
705.741,32.54821,-3.20211,-0.59224,0.46417
706.341,32.56807,-3.2026,-0.59606,0.46393
706.941,32.58793,-3.2026,-0.58638,0.46369
707.541,32.60775,-3.2026,-0.5939,0.46345
708.141,32.62757,-3.20261,-0.59943,0.4632
708.741,32.64736,-3.20269,-0.61975,0.46296
709.341,32.66721,-3.20131,-0.60561,0.46272
709.941,32.68704,-3.20129,-0.60394,0.46248
710.541,32.70684,-3.20116,-0.61708,0.46224
711.141,32.72665,-3.19994,-0.60521,0.462
711.741,32.7466,-3.20061,-0.60151,0.46177
712.341,32.7663,-3.20128,-0.6017,0.46153
712.941,32.7862,-3.20094,-0.587,0.46129
713.541,32.80614,-3.19992,-0.59197,0.46105
714.141,32.82607,-3.19987,-0.61387,0.46081
714.741,32.84594,-3.20124,-0.59113,0.46057
715.341,32.86598,-3.20226,-0.55397,0.46034
715.941,32.88584,-3.20259,-0.53986,0.4601
716.541,32.9057,-3.20267,-0.5525,0.45986
717.141,32.9256,-3.20174,-0.54035,0.45963
717.741,32.9456,-3.20126,-0.52784,0.45939
718.341,32.96545,-3.20131,-0.51754,0.45916
718.941,32.9854,-3.2018,-0.50921,0.45892
719.541,33.00533,-3.20261,-0.46752,0.45869
720.141,33.0252,-3.20254,-0.44101,0.45845
720.741,33.04513,-3.20333,-0.44004,0.45822
721.341,33.06511,-3.20327,-0.42898,0.45799
721.941,33.08506,-3.20327,-0.40393,0.45775
722.541,33.10504,-3.20327,-0.38496,0.45752
723.141,33.125,-3.20322,-0.35349,0.45729
723.741,33.14508,-3.20432,-0.32884,0.45705
724.341,33.16503,-3.20457,-0.31439,0.45682
724.941,33.18501,-3.20458,-0.30283,0.45659
725.541,33.205,-3.20458,-0.28659,0.45636
726.141,33.2249,-3.20457,-0.27544,0.45613
726.741,33.24485,-3.20542,-0.26282,0.4559
727.341,33.26481,-3.20588,-0.27297,0.45567
727.941,33.28471,-3.2059,-0.26068,0.45544
728.541,33.30575,-3.2059,-0.24687,0.45521
729.141,33.32724,-3.2059,-0.22788,0.45498
729.341,33.3324,-3.2059,-0.22618,0.4549