File: 01_Data/Bamboo_Rug_Fabric/STA/N2/3K_min/Bamboo_Rug_B_STA_N2_3KData_220125_R1.csv
##Temp./Â°C,Time/min,Mass loss(subtr.2)/mg,DSC(subtr.2)/(mW/mg),Sensit./(uV/mW)
49.932,10.01667,-0.01975,-0.0007226018,1.0638
50.632,11.1549,-0.02300496,0.02094966,1.06363
51.332,11.54456,-0.0214712,0.03272746,1.06346
52.032,11.86524,-0.02142267,0.03883542,1.0633
52.732,12.1562,-0.02271732,0.04335091,1.06313
53.432,12.43415,-0.02418059,0.04629237,1.06296
54.132,12.7045,-0.02280677,0.04637726,1.06279
54.832,12.97199,-0.02674505,0.04963445,1.06262
55.532,13.23373,-0.02545185,0.05101596,1.06245
56.232,13.49065,-0.02270088,0.05206098,1.06228
56.932,13.7444,-0.02674927,0.05502595,1.06211
57.632,13.99624,-0.02743583,0.05615908,1.06194
58.332,14.246,-0.02480674,0.05663629,1.06177
59.032,14.49496,-0.02371332,0.0593588,1.0616
59.732,14.7438,-0.02696359,0.05970785,1.06143
60.432,14.99089,-0.02808045,0.05821306,1.06126
61.132,15.23674,-0.02697826,0.05621146,1.06108
61.832,15.47998,-0.02820278,0.05973791,1.06091
62.532,15.72229,-0.03034669,0.06220422,1.06074
63.232,15.96173,-0.02810048,0.06168479,1.06057
63.932,16.20049,-0.02906755,0.06091466,1.0604
64.632,16.4378,-0.03039086,0.06210622,1.06022
65.332,16.6738,-0.02862764,0.06156176,1.06005
66.032,16.9088,-0.03076682,0.06231876,1.05988
66.732,17.14351,-0.03001691,0.06295733,1.0597
67.432,17.3786,-0.03017016,0.06270823,1.05953
68.132,17.61276,-0.03026763,0.06261402,1.05936
68.832,17.8481,-0.03139064,0.06128648,1.05918
69.532,18.08397,-0.03268067,0.06041905,1.05901
70.232,18.3207,-0.03434234,0.05944944,1.05883
70.932,18.5585,-0.03564992,0.05981151,1.05866
71.632,18.79484,-0.03304424,0.05996103,1.05848
72.332,19.0314,-0.03366605,0.05968657,1.05831
73.032,19.26782,-0.03234791,0.05992569,1.05813
73.732,19.5044,-0.03565059,0.05836603,1.05796
74.432,19.7403,-0.0363099,0.06038807,1.05778
75.132,19.9741,-0.03512376,0.06002103,1.05761
75.832,20.20804,-0.03432955,0.06127788,1.05743
76.532,20.44268,-0.03565546,0.05604545,1.05725
77.232,20.67804,-0.03564969,0.05672891,1.05708
77.932,20.91321,-0.03664556,0.05549682,1.0569
78.632,21.1469,-0.03533247,0.05762984,1.05672
79.332,21.37999,-0.03631793,0.05836457,1.05654
80.032,21.61325,-0.03598256,0.05503568,1.05637
80.732,21.8465,-0.03795965,0.05615775,1.05619
81.432,22.07965,-0.03860129,0.05561251,1.05601
82.132,22.3128,-0.03886919,0.05759437,1.05583
82.832,22.54584,-0.03861,0.05717835,1.05565
83.532,22.7799,-0.04013781,0.0585283,1.05547
84.232,23.01344,-0.03983501,0.05576278,1.05529
84.932,23.24766,-0.03988654,0.056343,1.05511
85.632,23.48143,-0.0412508,0.05361684,1.05493
86.332,23.71555,-0.04118758,0.05431152,1.05475
87.032,23.9499,-0.04058496,0.05393798,1.05457
87.732,24.18401,-0.0435469,0.0548188,1.05439
88.432,24.41809,-0.04223078,0.05543561,1.05421
89.132,24.65096,-0.03958304,0.05292765,1.05403
89.832,24.88341,-0.04222989,0.05433651,1.05385
90.532,25.1149,-0.04147727,0.05445545,1.05366
91.232,25.34617,-0.04618376,0.05418055,1.05348
91.932,25.57862,-0.04085546,0.05499082,1.0533
92.632,25.81161,-0.04222156,0.05302768,1.05312
93.332,26.0455,-0.04415974,0.05569637,1.05293
94.032,26.279,-0.04423937,0.05553521,1.05275
94.732,26.5127,-0.04188844,0.05488286,1.05257
95.432,26.7454,-0.0428231,0.05469879,1.05238
96.132,26.97802,-0.0426121,0.05513055,1.0522
96.832,27.2108,-0.0428048,0.05576139,1.05201
97.532,27.44337,-0.0454326,0.05704437,1.05183
98.232,27.67575,-0.04359579,0.05609919,1.05164
98.932,27.9073,-0.04224806,0.05653546,1.05146
99.632,28.13908,-0.04572817,0.05804501,1.05127
100.332,28.3711,-0.04713971,0.05925969,1.05109
101.032,28.603,-0.04515322,0.05829918,1.0509
101.732,28.83447,-0.04515657,0.05634542,1.05071
102.432,29.066,-0.04575695,0.05942193,1.05053
103.132,29.2981,-0.04575002,0.0588854,1.05034
103.832,29.5305,-0.04443,0.0574742,1.05015
104.532,29.7629,-0.04424446,0.05606144,1.04996
105.232,29.995,-0.0457037,0.05591967,1.04977
105.932,30.22662,-0.04452495,0.05937472,1.04959
106.632,30.45784,-0.04719494,0.05976498,1.0494
107.332,30.6892,-0.04549482,0.06000606,1.04921
108.032,30.92042,-0.04387568,0.06437382,1.04902
108.732,31.1523,-0.04520003,0.06366063,1.04883
109.432,31.3847,-0.04519719,0.0634002,1.04864
110.132,31.617,-0.04388238,0.06195311,1.04845
110.832,31.84905,-0.04491424,0.06470407,1.04826
111.532,32.08048,-0.04553,0.06216429,1.04807
112.232,32.31183,-0.0439418,0.06013684,1.04788
112.932,32.5434,-0.04815687,0.06523468,1.04768
113.632,32.77492,-0.04815747,0.06583237,1.04749
114.332,33.0068,-0.04544245,0.06591451,1.0473
115.032,33.2387,-0.0461788,0.06552853,1.04711
115.732,33.4709,-0.04946537,0.06552885,1.04691
116.432,33.70247,-0.0432379,0.06659321,1.04672
117.132,33.9334,-0.04431002,0.06940266,1.04653
117.832,34.16431,-0.04890675,0.07096552,1.04633
118.532,34.39445,-0.04874852,0.06916201,1.04614
119.232,34.62538,-0.04713068,0.07094015,1.04594
119.932,34.8574,-0.04582274,0.06936439,1.04575
120.632,35.08967,-0.04941996,0.06939079,1.04555
121.332,35.32142,-0.04978405,0.06782347,1.04536
122.032,35.55205,-0.04742746,0.06702074,1.04516
122.732,35.7828,-0.04880735,0.06861246,1.04496
123.432,36.01275,-0.05000699,0.06822661,1.04477
124.132,36.2438,-0.04745186,0.06948662,1.04457
124.832,36.4748,-0.04944722,0.0682193,1.04437
125.532,36.70717,-0.05156971,0.06748834,1.04417
126.232,36.9399,-0.05010068,0.0679379,1.04398
126.932,37.17259,-0.04880788,0.07013663,1.04378
127.632,37.40433,-0.04941089,0.0682265,1.04358
128.332,37.63474,-0.04946751,0.06903245,1.04338
129.032,37.86489,-0.05075463,0.06925727,1.04318
129.732,38.09413,-0.05087224,0.06705281,1.04298
130.432,38.32383,-0.05078993,0.07127281,1.04278
131.132,38.55346,-0.05178406,0.07124748,1.04258
131.832,38.78352,-0.04650996,0.07208338,1.04238
132.532,39.01276,-0.05051724,0.07411205,1.04217
133.232,39.2418,-0.05322255,0.07292305,1.04197
133.932,39.47183,-0.05164161,0.07305122,1.04177
134.632,39.70225,-0.05111465,0.07334904,1.04157
135.332,39.93254,-0.05144075,0.07523396,1.04137
136.032,40.1612,-0.05040336,0.07390774,1.04116
136.732,40.39063,-0.05143826,0.07380511,1.04096
137.432,40.6205,-0.05673465,0.0760075,1.04075
138.132,40.8516,-0.05298132,0.07674938,1.04055
138.832,41.0815,-0.0529835,0.07631194,1.04034
139.532,41.31133,-0.05298657,0.07725465,1.04014
140.232,41.54142,-0.0529316,0.07829593,1.03993
140.932,41.77176,-0.05428994,0.07597272,1.03973
141.632,42.0017,-0.05335496,0.07867801,1.03952
142.332,42.23024,-0.05396816,0.07812722,1.03931
143.032,42.45993,-0.05656837,0.08079943,1.03911
143.732,42.68971,-0.05529,0.08103614,1.0389
144.432,42.91981,-0.05549265,0.08153096,1.03869
145.132,43.14946,-0.05429987,0.08486613,1.03848
145.832,43.3784,-0.05398183,0.08354115,1.03827
146.532,43.60774,-0.05363012,0.08629605,1.03806
147.232,43.83615,-0.05707446,0.08381946,1.03785
147.932,44.06381,-0.05627982,0.08410974,1.03764
148.632,44.29161,-0.05758999,0.08502817,1.03743
149.332,44.51983,-0.05759,0.08471599,1.03722
150.032,44.74981,-0.05891,0.0845308,1.03701
150.732,44.98019,-0.05515528,0.08131277,1.0368
151.432,45.2108,-0.05714728,0.08439665,1.03659
152.132,45.4412,-0.05751163,0.08262319,1.03637
152.832,45.67095,-0.0568477,0.08418918,1.03616
153.532,45.9001,-0.05858394,0.08552216,1.03595
154.232,46.12854,-0.06095057,0.08781453,1.03573
154.932,46.3562,-0.05824198,0.08740086,1.03552
155.632,46.58317,-0.05823473,0.09021805,1.03531
156.332,46.81015,-0.05823217,0.08621978,1.03509
157.032,47.0377,-0.05806591,0.08802917,1.03487
157.732,47.2657,-0.05792507,0.08779464,1.03466
158.432,47.4936,-0.05989125,0.086702,1.03444
159.132,47.72145,-0.06077485,0.0877606,1.03423
159.832,47.94918,-0.05887425,0.08500158,1.03401
160.532,48.17755,-0.06063949,0.08951499,1.03379
161.232,48.40573,-0.05991671,0.08944366,1.03357
161.932,48.6348,-0.06385679,0.08975693,1.03335
162.632,48.86333,-0.05989039,0.08883504,1.03313
163.332,49.0914,-0.061871,0.08756975,1.03292
164.032,49.31886,-0.06134938,0.08967946,1.0327
164.732,49.5466,-0.06383995,0.09265689,1.03248
165.432,49.77507,-0.06374804,0.09162776,1.03225
166.132,50.00379,-0.06515956,0.09247948,1.03203
166.832,50.23272,-0.06515431,0.09080825,1.03181
167.532,50.46159,-0.06516423,0.09081379,1.03159
168.232,50.68988,-0.06516,0.09531283,1.03137
168.932,50.918,-0.06415337,0.09729595,1.03114
169.632,51.14581,-0.0666378,0.09549384,1.03092
170.332,51.37433,-0.06548116,0.09715254,1.0307
171.032,51.60236,-0.06679101,0.09630416,1.03047
171.732,51.83048,-0.06615734,0.09731816,1.03025
172.432,52.05846,-0.06642344,0.09864884,1.03002
173.132,52.2868,-0.06786408,0.0962301,1.0298
173.832,52.51591,-0.06779,0.09772137,1.02957
174.532,52.7446,-0.06713089,0.09724881,1.02934
175.232,52.97296,-0.06845236,0.09664248,1.02912
175.932,53.20084,-0.06845986,0.0961736,1.02889
176.632,53.42841,-0.06951893,0.09878699,1.02866
177.332,53.65641,-0.07074261,0.098932,1.02843
178.032,53.8836,-0.0691122,0.09813029,1.0282
178.732,54.1115,-0.07251377,0.10149,1.02797
179.432,54.3381,-0.07429433,0.10138,1.02774
180.132,54.56455,-0.06956476,0.10381,1.02751
180.832,54.79099,-0.0719075,0.10159,1.02728
181.532,55.01862,-0.07479411,0.10268,1.02705
182.232,55.2467,-0.07354635,0.10335,1.02682
182.932,55.47439,-0.07572496,0.10277,1.02659
183.632,55.7014,-0.07490548,0.10341,1.02635
184.332,55.9291,-0.07492927,0.10426,1.02612
185.032,56.15673,-0.0734867,0.10383,1.02588
185.732,56.3855,-0.07754261,0.10308,1.02565
186.432,56.6136,-0.07657024,0.10341,1.02542
187.132,56.8425,-0.07590073,0.10423,1.02518
187.832,57.0706,-0.07853999,0.10443,1.02494
188.532,57.2988,-0.07946733,0.10392,1.02471
189.232,57.52718,-0.08249036,0.1052,1.02447
189.932,57.7554,-0.08129711,0.10419,1.02423
190.632,57.984,-0.08245618,0.10771,1.024
191.332,58.2124,-0.08089378,0.1085,1.02376
192.032,58.44066,-0.08328747,0.10728,1.02352
192.732,58.66786,-0.08194223,0.10918,1.02328
193.432,58.89422,-0.08197801,0.11269,1.02304
194.132,59.12075,-0.08523057,0.11318,1.0228
194.832,59.3471,-0.0878571,0.11175,1.02256
195.532,59.5735,-0.08534417,0.11234,1.02232
196.232,59.7995,-0.08664983,0.11139,1.02207
196.932,60.0262,-0.08873911,0.11311,1.02183
197.632,60.25283,-0.08928385,0.11319,1.02159
198.332,60.48001,-0.08973309,0.11205,1.02135
199.032,60.708,-0.08798977,0.11185,1.0211
199.732,60.9359,-0.09170057,0.1122,1.02086
200.432,61.1636,-0.09357004,0.11177,1.02061
201.132,61.39091,-0.09225962,0.1123,1.02037
201.832,61.6178,-0.09401191,0.11488,1.02012
202.532,61.8445,-0.09618345,0.11504,1.01987
203.232,62.07155,-0.09620071,0.11503,1.01963
203.932,62.2977,-0.09750334,0.11671,1.01938
204.632,62.52475,-0.09752263,0.11707,1.01913
205.332,62.7516,-0.09723914,0.11728,1.01888
206.032,62.9801,-0.09860439,0.11708,1.01863
206.732,63.20743,-0.10259,0.11747,1.01838
207.432,63.4345,-0.10258,0.11925,1.01813
208.132,63.66104,-0.1019,0.12148,1.01788
208.832,63.8879,-0.10224,0.11912,1.01763
209.532,64.1151,-0.10387,0.11958,1.01738
210.232,64.34289,-0.10652,0.11633,1.01712
210.932,64.57095,-0.1065,0.11533,1.01687
211.632,64.79992,-0.10782,0.11531,1.01662
212.332,65.02802,-0.10915,0.11745,1.01636
213.032,65.2564,-0.11273,0.11716,1.01611
213.732,65.4837,-0.11178,0.11822,1.01585
214.432,65.7111,-0.11033,0.11906,1.0156
215.132,65.9384,-0.11309,0.12108,1.01534
215.832,66.1655,-0.11375,0.1177,1.01508
216.532,66.39285,-0.11521,0.11966,1.01483
217.232,66.61975,-0.11511,0.11973,1.01457
217.932,66.84621,-0.12044,0.12017,1.01431
218.632,67.0733,-0.1217,0.12185,1.01405
219.332,67.30024,-0.12307,0.1183,1.01379
220.032,67.52802,-0.12175,0.1195,1.01353
220.732,67.75567,-0.1238,0.11925,1.01327
221.432,67.9837,-0.12473,0.11785,1.01301
222.132,68.21178,-0.12705,0.12048,1.01274
222.832,68.4399,-0.12769,0.12064,1.01248
223.532,68.66852,-0.12937,0.12314,1.01222
224.232,68.89575,-0.12836,0.12149,1.01195
224.932,69.12397,-0.13285,0.12245,1.01169
225.632,69.3511,-0.1336,0.12417,1.01143
226.332,69.57915,-0.13488,0.12271,1.01116
227.032,69.80617,-0.13887,0.1225,1.01089
227.732,70.03313,-0.13755,0.12282,1.01063
228.432,70.26056,-0.14006,0.12389,1.01036
229.132,70.4885,-0.14147,0.12469,1.01009
229.832,70.71724,-0.14413,0.12645,1.00982
230.532,70.94578,-0.14545,0.12826,1.00955
231.232,71.17387,-0.14796,0.12881,1.00928
231.932,71.40167,-0.14937,0.1291,1.00901
232.632,71.62947,-0.14936,0.13188,1.00874
233.332,71.85651,-0.15254,0.13242,1.00847
234.032,72.08328,-0.15729,0.13266,1.0082
234.732,72.30923,-0.15714,0.13721,1.00793
235.432,72.53496,-0.15858,0.1388,1.00765
236.132,72.7606,-0.16125,0.13708,1.00738
236.832,72.98597,-0.16517,0.13981,1.0071
237.532,73.2124,-0.16492,0.14228,1.00683
238.232,73.43951,-0.16942,0.14337,1.00655
238.932,73.66728,-0.17045,0.1438,1.00628
239.632,73.8948,-0.17409,0.14363,1.006
240.332,74.12268,-0.17555,0.14364,1.00572
241.032,74.3511,-0.17936,0.14734,1.00544
241.732,74.5795,-0.18053,0.14886,1.00517
242.432,74.80798,-0.18293,0.15157,1.00489
243.132,75.03549,-0.18654,0.15359,1.00461
243.832,75.26377,-0.19186,0.15618,1.00433
244.532,75.49161,-0.19179,0.15841,1.00404
245.232,75.72022,-0.1971,0.16094,1.00376
245.932,75.94806,-0.20104,0.16577,1.00348
246.632,76.1755,-0.20434,0.16845,1.0032
247.332,76.4024,-0.20579,0.17228,1.00291
248.032,76.6294,-0.21099,0.17897,1.00263
248.732,76.85746,-0.21473,0.18655,1.00234
249.432,77.08527,-0.21748,0.19003,1.00206
250.132,77.31322,-0.2211,0.20027,1.00177
250.832,77.5414,-0.22508,0.20794,1.00148
251.532,77.7705,-0.22785,0.21503,1.0012
252.232,77.99954,-0.23297,0.22139,1.00091
252.932,78.22789,-0.23692,0.22561,1.00062
253.632,78.45609,-0.24118,0.22888,1.00033
254.332,78.68417,-0.24946,0.2287,1.00004
255.032,78.91237,-0.25283,0.22807,0.99975
255.732,79.14079,-0.25425,0.223,0.99946
256.432,79.36832,-0.26379,0.21601,0.99917
257.132,79.59583,-0.26608,0.20716,0.99887
257.832,79.82284,-0.26965,0.19385,0.99858
258.532,80.04989,-0.27664,0.18249,0.99829
259.232,80.27577,-0.28061,0.17453,0.99799
259.932,80.50102,-0.28466,0.16806,0.9977
260.632,80.72613,-0.29802,0.16451,0.9974
261.332,80.9516,-0.29929,0.16215,0.9971
262.032,81.17784,-0.3049,0.15871,0.99681
262.732,81.4046,-0.30875,0.15558,0.99651
263.432,81.63192,-0.31681,0.15496,0.99621
264.132,81.85979,-0.32104,0.15278,0.99591
264.832,82.0883,-0.32812,0.15252,0.99561
265.532,82.31705,-0.33513,0.15523,0.99531
266.232,82.5457,-0.3451,0.15682,0.99501
266.932,82.77341,-0.34894,0.15782,0.99471
267.632,83.0003,-0.35715,0.15773,0.99441
268.332,83.22658,-0.36241,0.15899,0.9941
269.032,83.4532,-0.36719,0.15686,0.9938
269.732,83.68065,-0.37634,0.15781,0.99349
270.432,83.90911,-0.38354,0.15851,0.99319
271.132,84.13735,-0.39235,0.15795,0.99288
271.832,84.3659,-0.39694,0.15614,0.99258
272.532,84.59453,-0.40256,0.15638,0.99227
273.232,84.82334,-0.41003,0.15576,0.99196
273.932,85.05127,-0.42091,0.15821,0.99165
274.632,85.2782,-0.42664,0.15834,0.99134
275.332,85.50531,-0.43407,0.15691,0.99103
276.032,85.73212,-0.44034,0.1568,0.99072
276.732,85.95926,-0.45015,0.15933,0.99041
277.432,86.18601,-0.45721,0.15979,0.9901
278.132,86.4126,-0.46438,0.16168,0.98979
278.832,86.63893,-0.46983,0.16197,0.98947
279.532,86.8652,-0.48114,0.16011,0.98916
280.232,87.0921,-0.48668,0.16415,0.98884
280.932,87.32004,-0.49908,0.16107,0.98853
281.632,87.54765,-0.50357,0.16396,0.98821
282.332,87.77716,-0.51295,0.1615,0.9879
283.032,88.00621,-0.52453,0.16216,0.98758
283.732,88.23711,-0.52891,0.1629,0.98726
284.432,88.46644,-0.54042,0.16394,0.98694
285.132,88.69605,-0.54662,0.16442,0.98662
285.832,88.9242,-0.55485,0.16465,0.9863
286.532,89.15188,-0.56815,0.16656,0.98598
287.232,89.37926,-0.57412,0.17014,0.98566
287.932,89.60735,-0.58441,0.16897,0.98534
288.632,89.83626,-0.59411,0.16854,0.98501
289.332,90.06541,-0.60269,0.16954,0.98469
290.032,90.29468,-0.61374,0.17036,0.98437
290.732,90.5231,-0.62217,0.17278,0.98404
291.432,90.75024,-0.63114,0.17507,0.98371
292.132,90.97695,-0.64109,0.17579,0.98339
292.832,91.20353,-0.65204,0.17881,0.98306
293.532,91.43078,-0.66053,0.17811,0.98273
294.232,91.658,-0.67238,0.18237,0.9824
294.932,91.8857,-0.68153,0.18218,0.98207
295.632,92.11376,-0.69171,0.18169,0.98174
296.332,92.34116,-0.70775,0.18718,0.98141
297.032,92.568,-0.71622,0.19042,0.98108
297.732,92.7953,-0.7285,0.18773,0.98075
298.432,93.02291,-0.74042,0.18715,0.98042
299.132,93.25157,-0.74964,0.1909,0.98008
299.832,93.48021,-0.76245,0.19586,0.97975
300.532,93.70949,-0.77439,0.19483,0.97941
301.232,93.93876,-0.78585,0.19597,0.97908
301.932,94.16784,-0.80344,0.2042,0.97874
302.632,94.3978,-0.81632,0.20446,0.9784
303.332,94.62769,-0.82982,0.20843,0.97806
304.032,94.8584,-0.84547,0.21113,0.97772
304.732,95.08799,-0.85856,0.21719,0.97739
305.432,95.31787,-0.87266,0.21722,0.97704
306.132,95.5466,-0.88807,0.22162,0.9767
306.832,95.77556,-0.90489,0.22737,0.97636
307.532,96.00368,-0.92149,0.23184,0.97602
308.232,96.23196,-0.93865,0.23637,0.97568
308.932,96.45911,-0.9558,0.2429,0.97533
309.632,96.6872,-0.97418,0.24473,0.97499
310.332,96.91497,-0.9933,0.25009,0.97464
311.032,97.14409,-1.0124,0.25572,0.9743
311.732,97.37212,-1.03075,0.26277,0.97395
312.432,97.60008,-1.05201,0.26923,0.9736
313.132,97.8275,-1.07361,0.27313,0.97325
313.832,98.05581,-1.09588,0.2835,0.9729
314.532,98.28486,-1.12343,0.29211,0.97255
315.232,98.5145,-1.14844,0.29944,0.9722
315.932,98.74407,-1.17231,0.30612,0.97185
316.632,98.97365,-1.19988,0.31485,0.9715
317.332,99.20277,-1.22639,0.32106,0.97115
318.032,99.43168,-1.25775,0.33159,0.97079
318.732,99.65993,-1.28809,0.33902,0.97044
319.432,99.88853,-1.3215,0.34712,0.97008
320.132,100.117,-1.35525,0.35378,0.96973
320.832,100.3459,-1.38983,0.35942,0.96937
321.532,100.5743,-1.42932,0.36379,0.96901
322.232,100.802,-1.4629,0.36755,0.96865
322.932,101.03,-1.50345,0.36779,0.96829
323.632,101.259,-1.54477,0.3681,0.96793
324.332,101.487,-1.58516,0.36393,0.96757
325.032,101.715,-1.62303,0.35739,0.96721
325.732,101.942,-1.66289,0.3504,0.96685
326.432,102.169,-1.70222,0.33741,0.96649
327.132,102.396,-1.74205,0.32399,0.96612
327.832,102.624,-1.78136,0.30607,0.96576
328.532,102.852,-1.81617,0.28997,0.96539
329.232,103.0795,-1.85079,0.26815,0.96503
329.932,103.308,-1.88308,0.24886,0.96466
330.632,103.536,-1.91345,0.22808,0.96429
331.332,103.764,-1.94123,0.21158,0.96393
332.032,103.992,-1.96621,0.19481,0.96356
332.732,104.22,-1.989,0.1788,0.96319
333.432,104.448,-2.01109,0.16712,0.96282
334.132,104.677,-2.03241,0.15658,0.96245
334.832,104.906,-2.04809,0.14451,0.96207
335.532,105.135,-2.06443,0.13701,0.9617
336.232,105.364,-2.08057,0.13353,0.96133
336.932,105.592,-2.09449,0.12595,0.96095
337.632,105.821,-2.10888,0.12099,0.96058
338.332,106.05,-2.1218,0.11844,0.9602
339.032,106.28,-2.13495,0.11289,0.95982
339.732,106.511,-2.14321,0.10888,0.95945
340.432,106.741,-2.153,0.10425,0.95907
341.132,106.97,-2.16411,0.10563,0.95869
341.832,107.198,-2.17459,0.10586,0.95831
342.532,107.426,-2.18576,0.10365,0.95793
343.232,107.655,-2.19304,0.10166,0.95755
343.932,107.883,-2.20333,0.10001,0.95716
344.632,108.111,-2.21194,0.09802335,0.95678
345.332,108.339,-2.21706,0.10126,0.9564
346.032,108.569,-2.2281,0.09921317,0.95601
346.732,108.798,-2.2333,0.09416186,0.95563
347.432,109.028,-2.24143,0.0960748,0.95524
348.132,109.257,-2.25184,0.0953463,0.95485
348.832,109.486,-2.26098,0.0945433,0.95447
349.532,109.714,-2.26608,0.09918545,0.95408
350.232,109.943,-2.27567,0.09640576,0.95369
350.932,110.1723,-2.28076,0.09500529,0.9533
351.632,110.401,-2.2897,0.09605605,0.95291
352.332,110.63,-2.29621,0.0951647,0.95252
353.032,110.86,-2.30532,0.09645416,0.95212
353.732,111.09,-2.31296,0.09375852,0.95173
354.432,111.32,-2.32009,0.09301848,0.95134
355.132,111.551,-2.32512,0.09659387,0.95094
355.832,111.782,-2.33298,0.09394884,0.95054
356.532,112.014,-2.34633,0.0949697,0.95015
357.232,112.245,-2.3524,0.09493102,0.94975
357.932,112.477,-2.36093,0.09572793,0.94935
358.632,112.707,-2.36767,0.09651095,0.94895
359.332,112.937,-2.37509,0.09570024,0.94855
360.032,113.165,-2.38217,0.09948436,0.94815
360.732,113.394,-2.38729,0.09676141,0.94775
361.432,113.6216,-2.39645,0.09679462,0.94735
362.132,113.849,-2.40679,0.09706776,0.94695
362.832,114.077,-2.41134,0.1011,0.94654
363.532,114.306,-2.41763,0.09547879,0.94614
364.232,114.536,-2.42376,0.09682462,0.94573
364.932,114.766,-2.43216,0.09548562,0.94533
365.632,114.997,-2.44316,0.09792655,0.94492
366.332,115.228,-2.45155,0.09610477,0.94451
367.032,115.458,-2.45712,0.09516937,0.9441
367.732,115.688,-2.4643,0.09707328,0.94369
368.432,115.9166,-2.47255,0.09676802,0.94328
369.132,116.146,-2.48025,0.09508555,0.94287
369.832,116.3754,-2.48684,0.09739668,0.94246
370.532,116.606,-2.49502,0.09808541,0.94205
371.232,116.836,-2.49285,0.09540681,0.94163
371.932,117.066,-2.50808,0.09501385,0.94122
372.632,117.297,-2.51601,0.09534829,0.9408
373.332,117.526,-2.53184,0.09453248,0.94039
374.032,117.756,-2.53859,0.09599105,0.93997
374.732,117.984,-2.53972,0.09426939,0.93955
375.432,118.214,-2.54753,0.09549056,0.93913
376.132,118.444,-2.56516,0.09924918,0.93871
376.832,118.674,-2.57245,0.09712494,0.93829
377.532,118.904,-2.58433,0.10007,0.93787
378.232,119.1342,-2.58728,0.10051,0.93745
378.932,119.364,-2.59111,0.10024,0.93703
379.632,119.596,-2.59869,0.09815164,0.93661
380.332,119.828,-2.60969,0.10034,0.93618
381.032,120.061,-2.62003,0.10156,0.93576
381.732,120.292,-2.62888,0.09984234,0.93533
382.432,120.523,-2.63521,0.09913155,0.9349
383.132,120.754,-2.64638,0.10098,0.93448
383.832,120.984,-2.65707,0.10567,0.93405
384.532,121.214,-2.66574,0.10632,0.93362
385.232,121.443,-2.67171,0.10757,0.93319
385.932,121.672,-2.68133,0.10824,0.93276
386.632,121.902,-2.69166,0.10943,0.93233
387.332,122.132,-2.70301,0.10729,0.93189
388.032,122.362,-2.71088,0.10909,0.93146
388.732,122.592,-2.71689,0.10701,0.93103
389.432,122.822,-2.73107,0.10981,0.93059
390.132,123.054,-2.73942,0.10757,0.93016
390.832,123.285,-2.74782,0.10843,0.92972
391.532,123.515,-2.75592,0.10897,0.92928
392.232,123.7453,-2.76658,0.10816,0.92884
392.932,123.976,-2.77587,0.11052,0.9284
393.632,124.205,-2.78066,0.10847,0.92796
394.332,124.434,-2.79243,0.10991,0.92752
395.032,124.663,-2.80251,0.11155,0.92708
395.732,124.893,-2.80898,0.11322,0.92664
396.432,125.122,-2.82021,0.11051,0.92619
397.132,125.351,-2.82875,0.11155,0.92575
397.832,125.581,-2.83401,0.10986,0.92531
398.532,125.811,-2.84304,0.11044,0.92486
399.232,126.041,-2.85362,0.1115,0.92441
399.932,126.272,-2.86105,0.11188,0.92397
400.632,126.502,-2.86783,0.10872,0.92352
401.332,126.732,-2.87723,0.10794,0.92307
402.032,126.963,-2.88443,0.10827,0.92262
402.732,127.195,-2.89642,0.10863,0.92217
403.432,127.426,-2.90551,0.10969,0.92172
404.132,127.657,-2.91257,0.1109,0.92126
404.832,127.888,-2.91959,0.10879,0.92081
405.532,128.12,-2.92754,0.10817,0.92036
406.232,128.353,-2.93565,0.10856,0.9199
406.932,128.584,-2.94324,0.10994,0.91944
407.632,128.814,-2.95297,0.11116,0.91899
408.332,129.045,-2.95538,0.10761,0.91853
409.032,129.276,-2.96789,0.10793,0.91807
409.732,129.507,-2.97427,0.10856,0.91761
410.432,129.739,-2.97976,0.10639,0.91715
411.132,129.97,-2.98797,0.10757,0.91669
411.832,130.202,-2.99769,0.10526,0.91623
412.532,130.434,-3.0007,0.1024,0.91577
413.232,130.665,-3.01053,0.1028,0.9153
413.932,130.896,-3.0153,0.1039,0.91484
414.632,131.126,-3.02338,0.10319,0.91437
415.332,131.357,-3.03037,0.10306,0.91391
416.032,131.587,-3.03627,0.10022,0.91344
416.732,131.819,-3.04374,0.10101,0.91297
417.432,132.05,-3.0471,0.10047,0.9125
418.132,132.282,-3.05533,0.10066,0.91203
418.832,132.512,-3.06301,0.09861119,0.91156
419.532,132.742,-3.06399,0.09680253,0.91109
420.232,132.973,-3.07231,0.09731309,0.91062
420.932,133.203,-3.08035,0.09664266,0.91015
421.632,133.434,-3.08448,0.09611824,0.90968
422.332,133.6636,-3.08837,0.0944454,0.9092
423.032,133.894,-3.09458,0.09544552,0.90873
423.732,134.124,-3.0989,0.09085686,0.90825
424.432,134.355,-3.10345,0.09043794,0.90777
425.132,134.586,-3.10939,0.08803451,0.90729
425.832,134.817,-3.11498,0.08815902,0.90682
426.532,135.048,-3.11827,0.0830523,0.90634
427.232,135.279,-3.12404,0.08733295,0.90586
427.932,135.51,-3.12463,0.08367716,0.90537
428.632,135.742,-3.13348,0.07934512,0.90489
429.332,135.975,-3.13532,0.08191366,0.90441
430.032,136.208,-3.13997,0.08158631,0.90393
430.732,136.44,-3.14362,0.08166972,0.90344
431.432,136.67,-3.14845,0.08180763,0.90296
432.132,136.9,-3.15227,0.07964305,0.90247
432.832,137.129,-3.15588,0.08054298,0.90198
433.532,137.358,-3.15723,0.0785889,0.90149
434.232,137.588,-3.16104,0.07951102,0.90101
434.932,137.819,-3.16538,0.0751747,0.90052
435.632,138.05,-3.17048,0.07388367,0.90002
436.332,138.282,-3.17072,0.07278181,0.89953
437.032,138.5141,-3.17378,0.07176165,0.89904
437.732,138.746,-3.17504,0.07034285,0.89855
438.432,138.978,-3.18053,0.06680417,0.89805
439.132,139.211,-3.18067,0.06949388,0.89756
439.832,139.4434,-3.18333,0.06976904,0.89706
440.532,139.676,-3.18828,0.06976048,0.89657
441.232,139.908,-3.18957,0.07040205,0.89607
441.932,140.139,-3.19347,0.06982146,0.89557
442.632,140.371,-3.1951,0.06861811,0.89507
443.332,140.603,-3.19614,0.070708,0.89457
444.032,140.837,-3.19747,0.06527702,0.89407
444.732,141.071,-3.20017,0.0646064,0.89357
445.432,141.303,-3.20391,0.06756815,0.89307
446.132,141.534,-3.2047,0.06770396,0.89256
446.832,141.765,-3.20788,0.06726428,0.89206
447.532,141.997,-3.21,0.06803239,0.89156
448.232,142.23,-3.20996,0.06684385,0.89105
448.932,142.463,-3.21129,0.07074963,0.89054
449.632,142.695,-3.21391,0.07307415,0.89004
450.332,142.927,-3.21397,0.07522642,0.88953
451.032,143.1581,-3.21636,0.07525593,0.88902
451.732,143.39,-3.21907,0.07813805,0.88851
452.432,143.621,-3.21912,0.08408178,0.888
453.132,143.851,-3.223,0.08904955,0.88748
453.832,144.08,-3.22299,0.09067378,0.88697
454.532,144.31,-3.22433,0.09263895,0.88646
455.232,144.541,-3.22587,0.0908811,0.88594
455.932,144.772,-3.22521,0.08585448,0.88543
456.632,145.004,-3.22508,0.08462918,0.88491
457.332,145.237,-3.22873,0.08146467,0.8844
458.032,145.47,-3.22872,0.0799354,0.88388
458.732,145.702,-3.22868,0.07842396,0.88336
459.432,145.935,-3.23536,0.07639904,0.88284
460.132,146.168,-3.23117,0.07851285,0.88232
460.832,146.401,-3.23476,0.08054946,0.8818
461.532,146.633,-3.23706,0.08045874,0.88128
462.232,146.866,-3.23804,0.08100839,0.88076
462.932,147.098,-3.23861,0.0784391,0.88023
463.632,147.33,-3.24402,0.08095625,0.87971
464.332,147.562,-3.2435,0.07924649,0.87918
465.032,147.793,-3.24068,0.07731684,0.87866
465.732,148.023,-3.24089,0.07592279,0.87813
466.432,148.254,-3.24473,0.07598854,0.8776
467.132,148.484,-3.24496,0.07606845,0.87707
467.832,148.716,-3.2476,0.07394644,0.87654
468.532,148.949,-3.24834,0.07266011,0.87601
469.232,149.184,-3.24704,0.07335399,0.87548
469.932,149.418,-3.25014,0.07429943,0.87495
470.632,149.652,-3.25012,0.07371971,0.87442
471.332,149.885,-3.25143,0.07381276,0.87388
472.032,150.118,-3.25012,0.07418953,0.87335
472.732,150.35,-3.25276,0.07354719,0.87281
473.432,150.583,-3.25437,0.07338222,0.87228
474.132,150.8148,-3.25408,0.07160103,0.87174
474.832,151.047,-3.2567,0.0735198,0.8712
475.532,151.278,-3.25711,0.07114725,0.87066
476.232,151.51,-3.2582,0.07346043,0.87012
476.932,151.742,-3.26052,0.07237019,0.86958
477.632,151.975,-3.25773,0.07084616,0.86904
478.332,152.207,-3.26104,0.07451456,0.8685
479.032,152.44,-3.25903,0.07410656,0.86796
479.732,152.673,-3.25965,0.07275873,0.86741
480.432,152.906,-3.26361,0.07411989,0.86687
481.132,153.139,-3.26201,0.06893246,0.86632
481.832,153.372,-3.26414,0.07244031,0.86578
482.532,153.603,-3.26484,0.07249719,0.86523
483.232,153.8344,-3.26747,0.07349059,0.86468
483.932,154.066,-3.26613,0.07398841,0.86413
484.632,154.299,-3.26613,0.07294431,0.86358
485.332,154.533,-3.26514,0.07101598,0.86303
486.032,154.767,-3.26777,0.07308517,0.86248
486.732,155,-3.27041,0.06999482,0.86193
487.432,155.234,-3.27008,0.06804241,0.86138
488.132,155.467,-3.27139,0.06741564,0.86082
488.832,155.701,-3.27243,0.07058223,0.86027
489.532,155.934,-3.27436,0.06775389,0.85971
490.232,156.168,-3.27337,0.0674995,0.85916
490.932,156.4,-3.27403,0.06826263,0.8586
491.632,156.633,-3.27503,0.06675282,0.85804
492.332,156.865,-3.2779,0.06931222,0.85748
493.032,157.096,-3.27669,0.06855534,0.85692
493.732,157.328,-3.276,0.06447287,0.85636
494.432,157.562,-3.27579,0.06276626,0.8558
495.132,157.7953,-3.27963,0.06671919,0.85524
495.832,158.03,-3.27994,0.06528894,0.85468
496.532,158.264,-3.27992,0.06476106,0.85411
497.232,158.498,-3.28126,0.063706,0.85355
497.932,158.732,-3.28065,0.06436988,0.85298
498.632,158.9657,-3.2812,0.06357917,0.85242
499.332,159.199,-3.28111,0.0608384,0.85185
500.032,159.431,-3.2812,0.06657005,0.85128
500.732,159.663,-3.28498,0.06599922,0.85071
501.432,159.895,-3.28519,0.06509782,0.85014
502.132,160.128,-3.28379,0.06450803,0.84957
502.832,160.362,-3.28608,0.06337338,0.849
503.532,160.595,-3.28642,0.06554678,0.84843
504.232,160.827,-3.28398,0.06300303,0.84786
504.932,161.06,-3.2884,0.06428268,0.84728
505.632,161.293,-3.28773,0.06337002,0.84671
506.332,161.526,-3.28839,0.063809,0.84613
507.032,161.758,-3.28903,0.06409061,0.84556
507.732,161.991,-3.29003,0.06410069,0.84498
508.432,162.225,-3.28879,0.06534699,0.8444
509.132,162.458,-3.29263,0.06197225,0.84383
509.832,162.693,-3.29268,0.06096278,0.84325
510.532,162.927,-3.29173,0.05947208,0.84267
511.232,163.161,-3.29204,0.06301443,0.84209
511.932,163.394,-3.29298,0.06051183,0.8415
512.632,163.628,-3.29226,0.06165529,0.84092
513.332,163.861,-3.2963,0.06312682,0.84034
514.032,164.095,-3.29426,0.05559443,0.83975
514.732,164.327,-3.29694,0.0549427,0.83917
515.432,164.561,-3.29804,0.05467028,0.83858
516.132,164.7954,-3.29825,0.05311025,0.838
516.832,165.0307,-3.29649,0.04943841,0.83741
517.532,165.265,-3.29744,0.05536946,0.83682
518.232,165.498,-3.29863,0.05350991,0.83623
518.932,165.731,-3.29971,0.05091516,0.83564
519.632,165.964,-3.30133,0.05068068,0.83505
520.332,166.198,-3.3,0.05105584,0.83446
521.032,166.431,-3.30104,0.05072295,0.83387
521.732,166.664,-3.30099,0.04862225,0.83327
522.432,166.898,-3.30068,0.0518672,0.83268
523.132,167.132,-3.30266,0.04801156,0.83209
523.832,167.366,-3.30397,0.05229734,0.83149
524.532,167.601,-3.30266,0.05038897,0.83089
525.232,167.836,-3.30396,0.04687645,0.8303
525.932,168.071,-3.30381,0.04750275,0.8297
526.632,168.306,-3.30442,0.04349375,0.8291
527.332,168.542,-3.30792,0.04576162,0.8285
528.032,168.776,-3.30651,0.04426425,0.8279
528.732,169.009,-3.30756,0.04620355,0.8273
529.432,169.241,-3.30792,0.04694393,0.8267
530.132,169.473,-3.31054,0.04824272,0.8261
530.832,169.705,-3.31041,0.05034453,0.82549
531.532,169.937,-3.30624,0.04729588,0.82489
532.232,170.169,-3.31063,0.04632247,0.82428
532.932,170.401,-3.31143,0.04097607,0.82368
533.632,170.6331,-3.31044,0.0466888,0.82307
534.332,170.866,-3.31173,0.04888457,0.82246
535.032,171.099,-3.31044,0.04595514,0.82186
535.732,171.334,-3.31307,0.04588102,0.82125
536.432,171.568,-3.31175,0.04428144,0.82064
537.132,171.803,-3.3145,0.04324851,0.82003
537.832,172.038,-3.31452,0.04294478,0.81942
538.532,172.271,-3.3133,0.04447936,0.8188
539.232,172.504,-3.31482,0.0459872,0.81819
539.932,172.737,-3.31615,0.04922418,0.81758
540.632,172.971,-3.31614,0.0499818,0.81696
541.332,173.205,-3.31614,0.05702612,0.81635
542.032,173.439,-3.31747,0.06152258,0.81573
542.732,173.673,-3.31714,0.07006833,0.81512
543.432,173.908,-3.31812,0.07883763,0.8145
544.132,174.144,-3.31945,0.08709112,0.81388
544.832,174.38,-3.32022,0.09369399,0.81326
545.532,174.615,-3.32206,0.10685,0.81264
546.232,174.849,-3.3221,0.12107,0.81202
546.932,175.083,-3.32239,0.12765,0.8114
547.632,175.317,-3.32239,0.12796,0.81078
548.332,175.55,-3.32504,0.12454,0.81016
549.032,175.783,-3.32401,0.12211,0.80953
549.732,176.015,-3.32766,0.11855,0.80891
550.432,176.248,-3.3278,0.11712,0.80828
551.132,176.4803,-3.32896,0.11443,0.80766
551.832,176.714,-3.33126,0.11773,0.80703
552.532,176.949,-3.33128,0.11361,0.8064
553.232,177.186,-3.33126,0.11358,0.80578
553.932,177.422,-3.33136,0.11517,0.80515
554.632,177.657,-3.33464,0.10943,0.80452
555.332,177.891,-3.335,0.11341,0.80389
556.032,178.124,-3.33392,0.1142,0.80326
556.732,178.357,-3.33523,0.11487,0.80262
557.432,178.59,-3.33542,0.11338,0.80199
558.132,178.823,-3.33895,0.11183,0.80136
558.832,179.057,-3.33728,0.11168,0.80072
559.532,179.292,-3.33918,0.11137,0.80009
560.232,179.527,-3.34115,0.10923,0.79945
560.932,179.763,-3.3397,0.10674,0.79882
561.632,180,-3.34016,0.10068,0.79818
562.332,180.236,-3.34148,0.09917588,0.79754
563.032,180.472,-3.34378,0.09743943,0.7969
563.732,180.708,-3.34378,0.09492799,0.79626
564.432,180.943,-3.34426,0.09121504,0.79562
565.132,181.178,-3.34543,0.08619638,0.79498
565.832,181.411,-3.34456,0.07982828,0.79434
566.532,181.645,-3.34477,0.07844462,0.7937
567.232,181.879,-3.34749,0.07891352,0.79306
567.932,182.113,-3.34665,0.06548957,0.79241
568.632,182.345,-3.34719,0.06567397,0.79177
569.332,182.578,-3.3472,0.06127488,0.79112
570.032,182.812,-3.34815,0.05597998,0.79048
570.732,183.047,-3.34892,0.05304198,0.78983
571.432,183.283,-3.34883,0.05237669,0.78918
572.132,183.52,-3.34882,0.04899493,0.78853
572.832,183.757,-3.34846,0.04866412,0.78788
573.532,183.993,-3.34927,0.04802272,0.78723
574.232,184.2283,-3.34997,0.04953104,0.78658
574.932,184.464,-3.35051,0.05509531,0.78593
575.632,184.697,-3.35308,0.05735064,0.78528
576.332,184.93,-3.35312,0.05364004,0.78463
577.032,185.164,-3.35212,0.05740786,0.78398
577.732,185.3979,-3.35115,0.05940584,0.78332
578.432,185.632,-3.35245,0.06283519,0.78267
579.132,185.864,-3.35113,0.06680901,0.78201
579.832,186.097,-3.35371,0.06867922,0.78136
580.532,186.3298,-3.35248,0.06762464,0.7807
581.232,186.564,-3.35124,0.06837154,0.78004
581.932,186.8,-3.35256,0.0692748,0.77938
582.632,187.037,-3.35288,0.07153821,0.77872
583.332,187.274,-3.35628,0.07242209,0.77807
584.032,187.509,-3.35751,0.07559632,0.7774
584.732,187.744,-3.35487,0.07608489,0.77674
585.432,187.978,-3.35322,0.0786099,0.77608
586.132,188.214,-3.35583,0.08100041,0.77542
586.832,188.45,-3.35661,0.08110005,0.77476
587.532,188.687,-3.35551,0.0792625,0.77409
588.232,188.923,-3.35629,0.08557898,0.77343
588.932,189.158,-3.35809,0.08311617,0.77276
589.632,189.391,-3.35627,0.08441584,0.7721
590.332,189.624,-3.35753,0.08460322,0.77143
591.032,189.858,-3.35892,0.08880048,0.77076
591.732,190.093,-3.35794,0.08748051,0.7701
592.432,190.327,-3.35979,0.09190385,0.76943
593.132,190.562,-3.35762,0.09054357,0.76876
593.832,190.797,-3.36057,0.0939953,0.76809
594.532,191.034,-3.35925,0.09292898,0.76742
595.232,191.271,-3.35992,0.09331777,0.76674
595.932,191.508,-3.36391,0.09581202,0.76607
596.632,191.744,-3.36156,0.09963814,0.7654
597.332,191.979,-3.36054,0.1013,0.76473
598.032,192.213,-3.36154,0.0991691,0.76405
598.732,192.448,-3.3616,0.10312,0.76338
599.432,192.683,-3.36287,0.0995796,0.7627
600.132,192.919,-3.36286,0.10077,0.76203
600.832,193.155,-3.36419,0.1033,0.76135
601.532,193.39,-3.36282,0.10385,0.76067
602.232,193.624,-3.36287,0.10285,0.75999
602.932,193.857,-3.36321,0.10565,0.75931
603.632,194.09,-3.36386,0.10777,0.75864
604.332,194.325,-3.3658,0.10686,0.75796
605.032,194.56,-3.36517,0.11056,0.75727
605.732,194.796,-3.36519,0.11027,0.75659
606.432,195.031,-3.36518,0.10929,0.75591
607.132,195.267,-3.3678,0.11043,0.75523
607.832,195.502,-3.36387,0.11004,0.75454
608.532,195.738,-3.36582,0.11284,0.75386
609.232,195.974,-3.36683,0.10934,0.75318
609.932,196.21,-3.36895,0.11237,0.75249
610.632,196.446,-3.36813,0.11511,0.7518
611.332,196.682,-3.36682,0.11284,0.75112
612.032,196.918,-3.37083,0.11193,0.75043
612.732,197.153,-3.37044,0.10942,0.74974
613.432,197.387,-3.36846,0.11279,0.74905
614.132,197.62,-3.36989,0.11883,0.74836
614.832,197.853,-3.37101,0.1176,0.74767
615.532,198.087,-3.37009,0.11451,0.74698
616.232,198.32,-3.37009,0.11892,0.74629
616.932,198.556,-3.36908,0.11303,0.7456
617.632,198.793,-3.36775,0.11412,0.74491
618.332,199.031,-3.3729,0.11694,0.74422
619.032,199.268,-3.37297,0.1193,0.74352
619.732,199.506,-3.37175,0.11864,0.74283
620.432,199.743,-3.37143,0.11956,0.74213
621.132,199.98,-3.37143,0.11867,0.74144
621.832,200.217,-3.37143,0.12013,0.74074
622.532,200.453,-3.37286,0.12236,0.74004
623.232,200.689,-3.37274,0.1201,0.73935
623.932,200.923,-3.3707,0.12141,0.73865
624.632,201.156,-3.37307,0.12548,0.73795
625.332,201.388,-3.3734,0.12684,0.73725
626.032,201.622,-3.37343,0.12304,0.73655
626.732,201.856,-3.37473,0.12227,0.73585
627.432,202.09,-3.37075,0.12747,0.73515
628.132,202.325,-3.37337,0.12695,0.73445
628.832,202.5606,-3.37362,0.12663,0.73374
629.532,202.798,-3.37436,0.12842,0.73304
630.232,203.034,-3.37715,0.13304,0.73234
630.932,203.271,-3.37782,0.13201,0.73163
631.632,203.508,-3.37517,0.12839,0.73093
632.332,203.745,-3.376,0.13051,0.73022
633.032,203.981,-3.3755,0.12833,0.72952
633.732,204.218,-3.37416,0.12639,0.72881
634.432,204.453,-3.37483,0.12616,0.7281
635.132,204.689,-3.3775,0.13034,0.7274
635.832,204.925,-3.37627,0.12759,0.72669
636.532,205.161,-3.37622,0.12939,0.72598
637.232,205.397,-3.3769,0.12832,0.72527
637.932,205.6331,-3.3769,0.12676,0.72456
638.632,205.87,-3.37822,0.12738,0.72385
639.332,206.106,-3.37899,0.13056,0.72314
640.032,206.342,-3.37821,0.12948,0.72243
640.732,206.577,-3.37691,0.13059,0.72171
641.432,206.8108,-3.37922,0.13286,0.721
642.132,207.045,-3.37823,0.13339,0.72029
642.832,207.28,-3.37795,0.12727,0.71957
643.532,207.5151,-3.3779,0.1307,0.71886
644.232,207.751,-3.37856,0.13328,0.71814
644.932,207.987,-3.37724,0.13622,0.71743
645.632,208.223,-3.37808,0.13555,0.71671
646.332,208.459,-3.37851,0.13403,0.71599
647.032,208.695,-3.37689,0.13334,0.71528
647.732,208.932,-3.37954,0.12915,0.71456
648.432,209.1696,-3.37965,0.13191,0.71384
649.132,209.407,-3.37954,0.13148,0.71312
649.832,209.645,-3.37755,0.13409,0.7124
650.532,209.881,-3.37816,0.13567,0.71168
651.232,210.118,-3.37954,0.13484,0.71096
651.932,210.354,-3.37824,0.13611,0.71024
652.632,210.589,-3.37954,0.13433,0.70952
653.332,210.823,-3.38019,0.1373,0.70879
654.032,211.058,-3.37921,0.13837,0.70807
654.732,211.293,-3.3792,0.14159,0.70735
655.432,211.529,-3.37823,0.14244,0.70662
656.132,211.765,-3.37982,0.14218,0.7059
656.832,212.001,-3.37987,0.14383,0.70517
657.532,212.237,-3.37855,0.14662,0.70445
658.232,212.472,-3.37844,0.14425,0.70372
658.932,212.709,-3.37965,0.1451,0.703
659.632,212.946,-3.38061,0.14713,0.70227
660.332,213.183,-3.38218,0.14576,0.70154
661.032,213.418,-3.38119,0.14733,0.70081
661.732,213.653,-3.3802,0.14912,0.70008
662.432,213.888,-3.38147,0.14695,0.69935
663.132,214.1229,-3.38109,0.14508,0.69862
663.832,214.357,-3.38194,0.14173,0.69789
664.532,214.593,-3.38218,0.14627,0.69716
665.232,214.8304,-3.38314,0.15063,0.69643
665.932,215.069,-3.38185,0.14778,0.6957
666.632,215.306,-3.3802,0.14429,0.69497
667.332,215.543,-3.38232,0.14799,0.69424
668.032,215.779,-3.38143,0.14693,0.6935
668.732,216.013,-3.38409,0.14861,0.69277
669.432,216.246,-3.38133,0.14519,0.69203
670.132,216.48,-3.38122,0.15016,0.6913
670.832,216.715,-3.38064,0.14962,0.69056
671.532,216.95,-3.38382,0.1496,0.68983
672.232,217.185,-3.38252,0.14932,0.68909
672.932,217.4207,-3.38075,0.14796,0.68835
673.632,217.656,-3.3825,0.15189,0.68762
674.332,217.893,-3.38218,0.15307,0.68688
675.032,218.13,-3.38086,0.15211,0.68614
675.732,218.368,-3.38354,0.15014,0.6854
676.432,218.606,-3.38371,0.15093,0.68466
677.132,218.845,-3.38349,0.15532,0.68392
677.832,219.084,-3.38217,0.15167,0.68318
678.532,219.323,-3.38356,0.15163,0.68244
679.232,219.56,-3.38081,0.15373,0.6817
679.932,219.796,-3.38212,0.1536,0.68096
680.632,220.03,-3.38481,0.15858,0.68022
681.332,220.264,-3.38161,0.15243,0.67947
682.032,220.498,-3.38086,0.15398,0.67873
682.732,220.734,-3.38415,0.15273,0.67799
683.432,220.97,-3.38415,0.15692,0.67724
684.132,221.206,-3.38484,0.15748,0.6765
684.832,221.442,-3.3848,0.158,0.67575
685.532,221.679,-3.38346,0.15627,0.67501
686.232,221.915,-3.38374,0.15631,0.67426
686.932,222.15,-3.38514,0.16123,0.67352
687.632,222.385,-3.38477,0.15677,0.67277
688.332,222.62,-3.38367,0.15845,0.67202
689.032,222.856,-3.38448,0.16198,0.67128
689.732,223.092,-3.38579,0.16369,0.67053
690.432,223.328,-3.38612,0.16266,0.66978
691.132,223.564,-3.38481,0.15625,0.66903
691.832,223.802,-3.3862,0.15391,0.66828
692.532,224.04,-3.38628,0.16108,0.66753
693.232,224.278,-3.38609,0.15708,0.66678
693.932,224.514,-3.38832,0.15738,0.66603
694.632,224.751,-3.3878,0.15919,0.66528
695.332,224.987,-3.38512,0.15866,0.66453
696.032,225.224,-3.38681,0.15899,0.66378
696.732,225.462,-3.38808,0.15933,0.66302
697.432,225.7,-3.3881,0.15692,0.66227
698.132,225.938,-3.38537,0.15877,0.66152
698.832,226.176,-3.3878,0.15994,0.66076
699.532,226.413,-3.38776,0.163,0.66001
700.232,226.649,-3.38776,0.15753,0.65926
700.932,226.885,-3.38777,0.15941,0.6585
701.632,227.122,-3.38643,0.15755,0.65775
702.332,227.359,-3.38646,0.15927,0.65699
703.032,227.598,-3.38539,0.15826,0.65623
703.732,227.835,-3.38781,0.15986,0.65548
704.432,228.073,-3.38938,0.1632,0.65472
705.132,228.31,-3.38844,0.16055,0.65396
705.832,228.547,-3.39103,0.16095,0.65321
706.532,228.7832,-3.39007,0.15935,0.65245
707.232,229.018,-3.38678,0.16177,0.65169
707.932,229.253,-3.38679,0.16223,0.65093
708.632,229.488,-3.3893,0.16487,0.65017
709.332,229.7236,-3.39212,0.16601,0.64941
710.032,229.96,-3.38839,0.16583,0.64865
710.732,230.196,-3.38876,0.16814,0.64789
711.432,230.433,-3.38842,0.1686,0.64713
712.132,230.669,-3.38876,0.16833,0.64637
712.832,230.905,-3.39073,0.16626,0.64561
713.532,231.142,-3.38875,0.16666,0.64485
714.232,231.377,-3.3888,0.16349,0.64409
714.932,231.614,-3.39007,0.16355,0.64332
715.632,231.85,-3.3927,0.16659,0.64256
716.332,232.086,-3.3906,0.16245,0.6418
717.032,232.322,-3.38912,0.164,0.64103
717.732,232.558,-3.39105,0.16003,0.64027
718.432,232.794,-3.39338,0.16145,0.63951
719.132,233.031,-3.39138,0.16106,0.63874
719.832,233.269,-3.38875,0.16098,0.63798
720.532,233.507,-3.39105,0.15803,0.63721
721.232,233.744,-3.39246,0.15978,0.63645
721.932,233.979,-3.3932,0.15724,0.63568
722.632,234.215,-3.39479,0.15617,0.63491
723.332,234.451,-3.39216,0.15637,0.63415
724.032,234.6863,-3.39477,0.15896,0.63338
724.732,234.923,-3.39321,0.15885,0.63261
725.432,235.1594,-3.3938,0.15628,0.63184
726.132,235.397,-3.39248,0.15553,0.63108
726.832,235.634,-3.3938,0.15343,0.63031
727.532,235.872,-3.39347,0.15468,0.62954
728.232,236.11,-3.39645,0.15513,0.62877
728.932,236.348,-3.39583,0.15312,0.628
729.632,236.586,-3.39479,0.15163,0.62723
730.332,236.823,-3.3948,0.15207,0.62646
731.032,237.059,-3.39546,0.15193,0.62569
731.732,237.296,-3.39709,0.15247,0.62492
732.432,237.532,-3.39642,0.15214,0.62415
733.132,237.768,-3.39577,0.1495,0.62338
733.832,238.002,-3.39585,0.15174,0.62261
734.532,238.237,-3.39521,0.15264,0.62184
735.232,238.473,-3.39676,0.15231,0.62106
735.932,238.71,-3.39512,0.15306,0.62029
736.632,238.946,-3.39643,0.14895,0.61952
737.332,239.183,-3.39742,0.15011,0.61875
738.032,239.42,-3.39629,0.14743,0.61797
738.732,239.658,-3.39741,0.15116,0.6172
739.432,239.8946,-3.39742,0.14793,0.61643
740.132,240.13,-3.39672,0.14404,0.61565
740.832,240.366,-3.39808,0.14439,0.61488
741.532,240.601,-3.39675,0.14831,0.6141
742.232,240.837,-3.39937,0.14915,0.61333
742.932,241.0738,-3.398,0.14481,0.61255
743.632,241.312,-3.39742,0.14156,0.61178
744.332,241.549,-3.39806,0.1429,0.611
745.032,241.787,-3.39808,0.14487,0.61023
745.732,242.022,-3.39804,0.14485,0.60945
746.432,242.257,-3.39808,0.14537,0.60867
747.132,242.493,-3.40072,0.14666,0.6079
747.832,242.73,-3.40051,0.14227,0.60712
748.532,242.968,-3.40203,0.14315,0.60634
749.232,243.2049,-3.40071,0.13812,0.60557
749.932,243.441,-3.39964,0.14107,0.60479
750.632,243.6784,-3.39949,0.13784,0.60401
751.332,243.916,-3.39928,0.13979,0.60323
752.032,244.154,-3.39973,0.14003,0.60245
752.732,244.392,-3.39897,0.13903,0.60167
753.432,244.631,-3.39895,0.1368,0.6009
754.132,244.8698,-3.4016,0.13767,0.60012
754.832,245.108,-3.40014,0.13966,0.59934
755.532,245.346,-3.40207,0.13646,0.59856
756.232,245.584,-3.40157,0.13635,0.59778
756.932,245.822,-3.40225,0.13203,0.597
757.632,246.059,-3.40287,0.13177,0.59622
758.332,246.297,-3.39963,0.12826,0.59544
759.032,246.5356,-3.40191,0.13066,0.59466
759.732,246.773,-3.40258,0.12884,0.59387
760.432,247.009,-3.40291,0.13014,0.59309
761.132,247.246,-3.40191,0.13133,0.59231
761.832,247.483,-3.40191,0.12993,0.59153
762.532,247.7194,-3.40291,0.12762,0.59075
763.232,247.955,-3.40291,0.12988,0.58997
763.932,248.189,-3.4029,0.13132,0.58918
764.632,248.425,-3.40325,0.13042,0.5884
765.332,248.66,-3.40454,0.12946,0.58762
766.032,248.896,-3.40488,0.12486,0.58684
766.732,249.133,-3.40357,0.13084,0.58605
767.432,249.371,-3.40357,0.12653,0.58527
768.132,249.61,-3.40488,0.1258,0.58449
768.832,249.8484,-3.40317,0.12501,0.5837
769.532,250.087,-3.40488,0.12694,0.58292
770.232,250.326,-3.40264,0.12625,0.58213
770.932,250.564,-3.40488,0.12549,0.58135
771.632,250.8,-3.40521,0.1264,0.58057
772.332,251.037,-3.4062,0.12316,0.57978
773.032,251.274,-3.40521,0.12186,0.579
773.732,251.513,-3.40416,0.12156,0.57821
774.432,251.753,-3.40688,0.12254,0.57743
775.132,251.992,-3.40389,0.12311,0.57664
775.832,252.229,-3.40652,0.12305,0.57586
776.532,252.466,-3.40455,0.1216,0.57507
777.232,252.703,-3.40467,0.11925,0.57428
777.932,252.939,-3.40588,0.11793,0.5735
778.632,253.173,-3.40585,0.12128,0.57271
779.332,253.4074,-3.402,0.12074,0.57193
780.032,253.642,-3.40445,0.12224,0.57114
780.732,253.877,-3.40455,0.12185,0.57035
781.432,254.114,-3.40589,0.1207,0.56957
782.132,254.352,-3.40652,0.12121,0.56878
782.832,254.5897,-3.40521,0.1158,0.56799
783.532,254.828,-3.40521,0.11865,0.56721
784.232,255.068,-3.40389,0.11888,0.56642
784.932,255.308,-3.40553,0.11879,0.56563
785.632,255.548,-3.4069,0.11595,0.56484
786.332,255.786,-3.40817,0.11945,0.56406
787.032,256.023,-3.40519,0.12112,0.56327
787.732,256.26,-3.40693,0.1157,0.56248
788.432,256.497,-3.40815,0.11486,0.56169
789.132,256.732,-3.40685,0.11823,0.56091
789.832,256.967,-3.40817,0.11772,0.56012
790.532,257.202,-3.40784,0.11642,0.55933
791.232,257.437,-3.40689,0.11467,0.55854
791.932,257.674,-3.4083,0.11364,0.55775
792.632,257.91,-3.40817,0.11261,0.55696
793.332,258.148,-3.40818,0.11313,0.55617
794.032,258.386,-3.41085,0.10983,0.55539
794.732,258.625,-3.40848,0.10986,0.5546
795.432,258.862,-3.40952,0.11241,0.55381
796.132,259.099,-3.41179,0.11187,0.55302
796.832,259.337,-3.41079,0.1077,0.55223
797.532,259.575,-3.40879,0.10887,0.55144
798.232,259.816,-3.40954,0.10695,0.55065
798.732,259.989,-3.40949,0.10949,0.55009