File: 01_Data/Fiberglas_Insulation3B/MCC/Fiberglas_Insulation3B_MCC_30K_min_220222_R2.txt
Sample ID:	C:\MCC\MCC Cal\Test\Fiberglas_Insulation3B_MCC_30K_min_220222_R2.txt
Sample Weight (mg):	4.91
Heating Rate (C/s):	0.5
Combustor Temp (C):	900
N2 Flow Rate (cc/min):	80
O2 Flow Rate (cc/min):	20
Calibration File:	C:\MCC\MCC Cal\Coeff1 JN10440_30_210304.txt.txt
T Correction Coefficients:	0	1.024463	0
Time Shift (s):	14
*
Time (s)	Temperature (C)	N2 flow rate (cc/min)	O2 flow rate (cc/min)	Flow Rate (cc/min)	Oxygen (%)	HRR (W/g)	Heating rate (C/s)
0.000	116.250	80.003	19.994	103.645	20.021	0.125	-0.013
1.500	116.251	80.002	19.994	103.644	20.022	0.053	-0.019
3.000	116.284	80.004	19.996	103.654	20.024	-0.062	0.027
4.500	116.216	80.004	19.996	103.659	20.019	0.262	-0.053
6.000	116.231	80.005	19.995	103.656	20.019	0.253	-0.012
7.500	116.229	80.004	19.995	103.665	20.021	0.102	-0.042
9.000	116.215	80.003	19.996	103.667	20.020	0.193	0.009
10.501	116.214	80.004	19.994	103.672	20.020	0.156	0.015
12.000	116.235	80.002	19.996	103.655	20.015	0.498	0.013
13.500	116.251	80.004	19.995	103.659	20.021	0.080	0.029
15.000	116.228	80.002	19.994	103.667	20.015	0.514	-0.011
16.500	116.223	80.002	19.995	103.652	20.015	0.518	-0.000
18.000	116.240	80.003	19.997	103.657	20.018	0.311	-0.006
19.500	116.234	80.003	19.994	103.673	20.018	0.293	-0.012
21.000	116.249	80.003	19.993	103.683	20.017	0.364	-0.001
22.500	116.272	80.003	19.995	103.685	20.023	-0.007	0.006
24.000	116.290	80.003	19.994	103.685	20.018	0.326	-0.002
25.500	116.280	80.003	19.994	103.689	20.013	0.613	-0.003
27.000	116.312	80.005	19.995	103.702	20.011	0.776	0.021
28.500	116.298	80.003	19.996	103.719	20.011	0.787	-0.004
30.000	116.349	80.005	19.994	103.735	20.006	1.111	0.026
31.500	116.443	80.003	19.994	103.755	20.003	1.278	0.039
33.000	116.468	80.002	19.996	103.778	20.001	1.457	0.025
34.500	116.544	80.001	19.994	103.805	19.993	1.940	0.050
36.000	116.666	80.002	19.994	103.827	19.989	2.250	0.067
37.500	116.777	80.002	19.996	103.839	19.988	2.319	0.070
39.000	116.897	80.001	19.993	103.842	19.983	2.637	0.089
40.500	117.050	80.001	19.995	103.854	19.983	2.608	0.114
42.000	117.242	80.002	19.994	103.868	19.982	2.703	0.129
43.500	117.433	80.001	19.994	103.879	19.982	2.674	0.140
45.000	117.632	80.001	19.994	103.883	19.982	2.677	0.137
46.500	117.879	80.002	19.994	103.892	19.981	2.783	0.159
48.000	118.134	80.002	19.993	103.894	19.975	3.129	0.168
49.500	118.370	80.001	19.994	103.889	19.976	3.058	0.174
51.000	118.671	80.001	19.993	103.886	19.978	2.927	0.188
52.500	118.917	80.000	19.992	103.884	19.977	2.997	0.165
54.000	119.273	80.003	19.993	103.884	19.975	3.146	0.228
55.500	119.581	80.001	19.994	103.883	19.974	3.233	0.215
57.000	119.969	80.003	19.993	103.883	19.975	3.160	0.235
58.500	120.265	80.003	19.994	103.884	19.976	3.093	0.205
60.001	120.638	80.003	19.996	103.883	19.976	3.051	0.229
61.501	121.023	80.002	19.995	103.894	19.975	3.151	0.267
63.000	121.465	80.001	19.993	103.911	19.971	3.410	0.296
64.500	121.860	80.002	19.994	103.901	19.974	3.237	0.268
66.000	122.295	80.003	19.994	103.890	19.972	3.343	0.287
67.500	122.736	80.002	19.994	103.887	19.974	3.201	0.282
69.000	123.189	80.002	19.992	103.895	19.971	3.408	0.304
70.500	123.680	80.003	19.993	103.897	19.972	3.377	0.318
72.000	124.151	80.002	19.994	103.887	19.972	3.379	0.324
73.500	124.616	80.002	19.991	103.894	19.974	3.191	0.299
75.000	125.092	80.003	19.994	103.903	19.971	3.435	0.296
76.500	125.611	80.002	19.992	103.898	19.972	3.342	0.351
78.001	126.093	80.003	19.995	103.901	19.969	3.570	0.316
79.501	126.593	80.004	19.994	103.903	19.970	3.499	0.341
81.001	127.124	80.004	19.993	103.899	19.971	3.401	0.343
82.501	127.669	80.004	19.994	103.896	19.968	3.620	0.345
84.000	128.183	80.004	19.993	103.892	19.967	3.673	0.348
85.500	128.718	80.005	19.994	103.885	19.971	3.419	0.348
87.000	129.291	80.004	19.993	103.885	19.971	3.396	0.391
88.501	129.831	80.005	19.993	103.882	19.967	3.655	0.372
90.000	130.383	80.003	19.994	103.883	19.965	3.831	0.374
91.500	130.939	80.002	19.993	103.900	19.965	3.779	0.383
93.000	131.476	80.002	19.995	103.915	19.967	3.658	0.364
94.500	132.071	80.003	19.996	103.915	19.965	3.779	0.404
96.001	132.674	80.003	19.996	103.906	19.969	3.558	0.379
97.500	133.220	80.002	19.995	103.914	19.969	3.571	0.379
99.000	133.820	80.003	19.994	103.915	19.968	3.590	0.400
100.501	134.458	80.003	19.995	103.917	19.965	3.822	0.432
102.000	135.070	80.004	19.995	103.919	19.965	3.790	0.425
103.500	135.657	80.004	19.993	103.920	19.966	3.762	0.400
105.000	136.268	80.003	19.994	103.918	19.966	3.742	0.438
106.501	136.904	80.004	19.993	103.918	19.960	4.163	0.421
108.000	137.595	80.004	19.994	103.917	19.965	3.808	0.430
109.500	138.186	80.004	19.994	103.910	19.966	3.737	0.396
111.000	138.868	80.004	19.994	103.893	19.967	3.706	0.417
112.500	139.482	80.003	19.995	103.919	19.966	3.737	0.406
114.000	140.138	80.004	19.994	103.928	19.968	3.631	0.441
115.500	140.835	80.003	19.994	103.922	19.970	3.456	0.463
117.000	141.522	80.001	19.993	103.923	19.973	3.297	0.447
118.500	142.197	80.002	19.994	103.927	19.972	3.350	0.443
120.000	142.891	80.002	19.995	103.923	19.972	3.352	0.453
121.500	143.557	80.000	19.994	103.913	19.970	3.478	0.428
123.001	144.252	80.001	19.996	103.913	19.969	3.565	0.477
124.500	144.951	80.001	19.995	103.912	19.964	3.879	0.476
126.000	145.671	80.000	19.995	103.913	19.969	3.556	0.463
127.501	146.378	80.002	19.994	103.905	19.968	3.600	0.471
129.000	147.109	80.001	19.996	103.914	19.969	3.529	0.484
130.500	147.812	80.002	19.996	103.916	19.970	3.483	0.451
132.000	148.498	80.001	19.993	103.912	19.968	3.616	0.449
133.500	149.220	80.002	19.994	103.916	19.968	3.638	0.464
135.000	149.953	80.001	19.995	103.915	19.971	3.425	0.482
136.500	150.659	80.002	19.994	103.915	19.969	3.569	0.458
138.000	151.358	80.002	19.996	103.916	19.971	3.412	0.455
139.500	152.093	80.003	19.995	103.915	19.969	3.556	0.461
141.000	152.812	80.004	19.993	103.906	19.970	3.504	0.497
142.500	153.540	80.003	19.993	103.907	19.970	3.446	0.479
144.000	154.250	80.003	19.994	103.907	19.967	3.686	0.461
145.500	155.001	80.004	19.994	103.909	19.969	3.569	0.502
147.000	155.716	80.002	19.994	103.916	19.967	3.671	0.475
148.500	156.450	80.001	19.994	103.913	19.968	3.609	0.486
150.000	157.202	80.003	19.993	103.909	19.967	3.656	0.492
151.500	157.909	80.002	19.995	103.889	19.967	3.673	0.474
153.000	158.642	80.002	19.995	103.894	19.966	3.745	0.481
154.500	159.332	80.001	19.995	103.912	19.966	3.747	0.483
156.000	160.090	80.001	19.994	103.910	19.967	3.692	0.503
157.500	160.861	80.002	19.994	103.901	19.970	3.475	0.517
159.000	161.594	80.002	19.994	103.910	19.974	3.245	0.493
160.500	162.323	80.003	19.995	103.906	19.970	3.488	0.486
162.000	163.092	80.004	19.994	103.907	19.968	3.588	0.500
163.500	163.854	80.004	19.993	103.906	19.971	3.437	0.513
165.000	164.573	80.004	19.996	103.895	19.967	3.670	0.504
166.500	165.326	80.003	19.995	103.895	19.968	3.589	0.500
168.000	166.115	80.004	19.994	103.895	19.967	3.652	0.527
169.500	166.873	80.004	19.994	103.882	19.973	3.268	0.517
171.000	167.621	80.003	19.994	103.884	19.970	3.459	0.509
172.500	168.402	80.003	19.993	103.886	19.969	3.517	0.513
174.000	169.125	80.002	19.994	103.883	19.972	3.356	0.479
175.500	169.920	80.002	19.994	103.890	19.973	3.269	0.523
177.000	170.654	80.002	19.993	103.909	19.972	3.360	0.507
178.500	171.388	80.002	19.993	103.904	19.976	3.111	0.482
180.000	172.115	80.004	19.995	103.890	19.971	3.424	0.481
181.500	172.906	80.003	19.993	103.888	19.975	3.176	0.521
183.000	173.627	80.004	19.993	103.885	19.970	3.486	0.493
184.500	174.461	80.004	19.995	103.878	19.972	3.315	0.545
186.000	175.199	80.004	19.994	103.882	19.972	3.365	0.489
187.500	175.936	80.004	19.994	103.882	19.971	3.389	0.491
189.000	176.693	80.004	19.995	103.876	19.973	3.254	0.495
190.500	177.459	80.005	19.994	103.879	19.975	3.167	0.544
192.000	178.225	80.005	19.995	103.882	19.971	3.411	0.513
193.500	178.956	80.004	19.994	103.890	19.972	3.329	0.489
195.000	179.692	80.004	19.994	103.883	19.973	3.289	0.454
196.500	180.443	80.002	19.994	103.875	19.970	3.506	0.497
198.000	181.198	80.001	19.994	103.877	19.976	3.076	0.494
199.500	181.983	80.002	19.996	103.877	19.974	3.236	0.528
201.000	182.721	80.002	19.995	103.875	19.975	3.138	0.486
202.500	183.421	80.001	19.994	103.878	19.975	3.147	0.474
204.000	184.220	80.002	19.993	103.865	19.976	3.058	0.499
205.501	184.958	80.001	19.993	103.867	19.971	3.424	0.518
207.000	185.716	80.003	19.994	103.877	19.973	3.304	0.501
208.500	186.512	80.002	19.996	103.878	19.975	3.161	0.514
210.000	187.281	80.003	19.993	103.879	19.973	3.267	0.513
211.500	188.035	80.001	19.993	103.877	19.972	3.327	0.484
213.000	188.796	80.002	19.997	103.876	19.976	3.089	0.509
214.500	189.563	80.002	19.995	103.876	19.973	3.298	0.507
216.000	190.308	80.002	19.995	103.875	19.972	3.363	0.490
217.500	191.031	80.002	19.996	103.876	19.972	3.320	0.482
219.000	191.747	80.002	19.995	103.876	19.975	3.152	0.467
220.500	192.514	80.002	19.995	103.869	19.975	3.136	0.516
222.000	193.247	80.004	19.994	103.871	19.979	2.864	0.477
223.500	193.974	80.002	19.995	103.873	19.974	3.205	0.490
225.000	194.762	80.003	19.995	103.874	19.975	3.179	0.514
226.500	195.488	80.002	19.994	103.871	19.975	3.163	0.495
228.000	196.233	80.002	19.994	103.870	19.975	3.139	0.493
229.500	196.954	80.003	19.994	103.871	19.976	3.069	0.495
231.000	197.666	80.002	19.993	103.878	19.975	3.180	0.470
232.500	198.463	80.002	19.995	103.870	19.973	3.276	0.538
234.000	199.199	80.002	19.994	103.865	19.977	2.997	0.495
235.500	199.954	80.003	19.994	103.867	19.979	2.894	0.512
237.000	200.666	80.003	19.994	103.874	19.977	3.023	0.475
238.500	201.378	80.003	19.994	103.869	19.981	2.720	0.465
240.000	202.111	80.003	19.994	103.869	19.980	2.800	0.514
241.500	202.843	80.003	19.994	103.873	19.977	3.013	0.490
243.000	203.609	80.004	19.995	103.864	19.979	2.884	0.508
244.500	204.315	80.003	19.994	103.858	19.983	2.595	0.475
246.000	205.102	80.005	19.994	103.868	19.978	2.966	0.534
247.500	205.847	80.003	19.993	103.866	19.976	3.061	0.513
249.000	206.575	80.004	19.994	103.861	19.977	3.002	0.503
250.500	207.311	80.004	19.994	103.857	19.979	2.870	0.479
252.000	208.082	80.003	19.993	103.843	19.976	3.079	0.515
253.500	208.832	80.004	19.994	103.843	19.978	2.924	0.523
255.000	209.571	80.005	19.994	103.848	19.979	2.888	0.513
256.500	210.315	80.003	19.993	103.856	19.978	2.967	0.498
258.000	211.050	80.003	19.993	103.855	19.978	2.968	0.515
259.500	211.751	80.004	19.995	103.844	19.979	2.877	0.464
261.000	212.457	80.003	19.994	103.859	19.979	2.899	0.464
262.500	213.203	80.004	19.993	103.870	19.980	2.799	0.503
264.000	213.971	80.004	19.995	103.858	19.977	2.992	0.508
265.500	214.654	80.005	19.993	103.859	19.979	2.886	0.472
267.000	215.430	80.005	19.993	103.871	19.980	2.804	0.504
268.500	216.148	80.006	19.993	103.867	19.981	2.768	0.471
270.000	216.919	80.006	19.994	103.860	19.978	2.977	0.504
271.501	217.650	80.006	19.993	103.865	19.980	2.815	0.482
273.000	218.378	80.005	19.996	103.867	19.975	3.130	0.484
274.500	219.102	80.003	19.995	103.856	19.979	2.853	0.488
276.000	219.840	80.004	19.994	103.850	19.979	2.902	0.478
277.500	220.600	80.003	19.996	103.851	19.980	2.820	0.509
279.000	221.310	80.003	19.995	103.858	19.978	2.924	0.490
280.500	222.026	80.002	19.995	103.852	19.979	2.869	0.477
282.000	222.800	80.002	19.994	103.848	19.983	2.645	0.489
283.500	223.549	80.003	19.995	103.846	19.979	2.866	0.489
285.000	224.307	80.001	19.996	103.852	19.979	2.898	0.496
286.500	225.003	80.002	19.994	103.848	19.982	2.658	0.477
288.000	225.772	80.001	19.993	103.845	19.980	2.819	0.503
289.500	226.491	80.002	19.996	103.846	19.976	3.082	0.457
291.000	227.265	80.001	19.994	103.844	19.979	2.853	0.535
292.500	227.991	80.001	19.994	103.843	19.975	3.134	0.489
294.001	228.762	80.002	19.994	103.841	19.981	2.753	0.521
295.500	229.511	80.002	19.994	103.841	19.980	2.799	0.519
297.000	230.266	80.002	19.995	103.844	19.980	2.791	0.498
298.500	231.037	80.002	19.995	103.851	19.981	2.718	0.519
300.000	231.791	80.003	19.995	103.847	19.975	3.164	0.513
301.500	232.535	80.002	19.994	103.852	19.978	2.978	0.485
303.000	233.245	80.001	19.993	103.869	19.977	3.040	0.501
304.500	234.017	80.001	19.994	103.872	19.978	2.960	0.528
306.000	234.752	80.001	19.995	103.862	19.982	2.663	0.490
307.500	235.488	80.000	19.994	103.852	19.981	2.762	0.487
309.000	236.221	80.000	19.995	103.844	19.980	2.798	0.493
310.500	236.975	80.001	19.995	103.845	19.981	2.725	0.496
312.000	237.719	80.001	19.995	103.843	19.984	2.536	0.489
313.500	238.442	80.002	19.994	103.841	19.982	2.665	0.501
315.000	239.201	80.001	19.995	103.842	19.978	2.935	0.507
316.500	239.906	80.003	19.994	103.841	19.977	3.038	0.501
318.000	240.676	80.003	19.995	103.839	19.979	2.878	0.491
319.500	241.443	80.002	19.995	103.837	19.977	2.984	0.492
321.001	242.194	80.004	19.994	103.838	19.976	3.062	0.504
322.500	242.902	80.004	19.993	103.839	19.979	2.867	0.475
324.000	243.660	80.003	19.993	103.839	19.981	2.774	0.515
325.500	244.432	80.004	19.993	103.850	19.977	3.017	0.499
327.000	245.174	80.003	19.994	103.843	19.983	2.591	0.503
328.500	245.897	80.003	19.993	103.838	19.979	2.913	0.499
330.000	246.638	80.002	19.994	103.840	19.979	2.915	0.484
331.500	247.341	80.002	19.995	103.841	19.979	2.906	0.470
333.000	248.080	80.005	19.996	103.840	19.982	2.682	0.477
334.500	248.850	80.002	19.994	103.839	19.982	2.701	0.520
336.000	249.621	80.002	19.994	103.840	19.980	2.822	0.510
337.500	250.390	80.003	19.994	103.839	19.983	2.630	0.534
339.000	251.148	80.003	19.994	103.849	19.983	2.643	0.518
340.500	251.885	80.003	19.993	103.844	19.981	2.773	0.492
342.000	252.675	80.004	19.994	103.839	19.982	2.660	0.507
343.500	253.388	80.003	19.995	103.839	19.979	2.862	0.456
345.000	254.123	80.004	19.994	103.832	19.981	2.765	0.484
346.500	254.847	80.003	19.995	103.830	19.981	2.749	0.487
348.000	255.585	80.004	19.993	103.830	19.982	2.713	0.500
349.500	256.365	80.004	19.994	103.830	19.981	2.734	0.510
351.000	257.058	80.004	19.993	103.834	19.980	2.805	0.470
352.500	257.829	80.005	19.994	103.838	19.982	2.700	0.504
354.000	258.639	80.005	19.994	103.832	19.980	2.806	0.517
355.500	259.333	80.003	19.993	103.827	19.979	2.898	0.471
357.000	260.080	80.003	19.993	103.832	19.983	2.649	0.503
358.500	260.757	80.003	19.994	103.840	19.983	2.640	0.451
360.000	261.524	80.001	19.994	103.840	19.981	2.760	0.496
361.500	262.270	80.003	19.994	103.840	19.982	2.665	0.495
363.000	263.004	80.002	19.994	103.842	19.983	2.651	0.499
364.500	263.759	80.001	19.995	103.846	19.983	2.596	0.492
366.000	264.505	80.001	19.996	103.846	19.984	2.552	0.500
367.500	265.268	80.002	19.996	103.845	19.982	2.663	0.483
369.000	265.983	80.001	19.995	103.845	19.982	2.687	0.492
370.500	266.757	80.000	19.995	103.842	19.982	2.674	0.527
372.000	267.517	80.002	19.996	103.842	19.981	2.782	0.488
373.500	268.223	80.002	19.995	103.843	19.984	2.543	0.488
375.000	269.000	80.001	19.994	103.841	19.982	2.698	0.511
376.500	269.733	80.002	19.996	103.839	19.983	2.632	0.499
378.000	270.453	80.003	19.995	103.830	19.984	2.581	0.485
379.500	271.285	80.004	19.995	103.828	19.981	2.765	0.543
381.000	271.992	80.001	19.995	103.834	19.984	2.583	0.469
382.500	272.745	80.002	19.994	103.834	19.984	2.531	0.498
384.000	273.493	80.001	19.995	103.835	19.982	2.673	0.507
385.500	274.241	80.002	19.996	103.836	19.982	2.667	0.503
387.000	274.963	80.002	19.994	103.837	19.985	2.516	0.472
388.500	275.727	80.002	19.996	103.838	19.983	2.591	0.475
390.000	276.463	80.002	19.995	103.837	19.982	2.654	0.487
391.500	277.221	80.002	19.993	103.839	19.981	2.783	0.497
393.000	277.956	80.001	19.996	103.838	19.984	2.541	0.491
394.500	278.715	80.000	19.997	103.840	19.982	2.654	0.519
396.000	279.469	80.000	19.994	103.836	19.987	2.385	0.517
397.500	280.237	80.001	19.996	103.830	19.982	2.667	0.507
399.000	280.988	80.001	19.995	103.833	19.984	2.529	0.491
400.501	281.714	80.001	19.995	103.836	19.984	2.561	0.490
402.000	282.480	80.002	19.995	103.835	19.981	2.758	0.500
403.500	283.271	80.003	19.995	103.835	19.982	2.687	0.502
405.000	283.972	80.003	19.996	103.836	19.983	2.601	0.453
406.500	284.754	80.005	19.994	103.831	19.987	2.365	0.511
408.000	285.466	80.004	19.996	103.833	19.982	2.705	0.482
409.500	286.232	80.004	19.994	103.833	19.985	2.474	0.503
411.001	286.994	80.004	19.993	103.835	19.985	2.472	0.514
412.500	287.733	80.004	19.994	103.828	19.982	2.661	0.511
414.000	288.512	80.002	19.993	103.827	19.983	2.636	0.510
415.500	289.267	80.003	19.993	103.832	19.984	2.576	0.504
417.000	289.994	80.001	19.993	103.832	19.984	2.523	0.490
418.500	290.800	80.002	19.993	103.832	19.985	2.476	0.542
420.000	291.559	80.004	19.994	103.829	19.988	2.279	0.509
421.500	292.301	80.003	19.994	103.839	19.987	2.332	0.492
423.000	293.077	80.003	19.993	103.838	19.985	2.459	0.534
424.500	293.817	80.004	19.995	103.824	19.981	2.747	0.518
426.000	294.564	80.002	19.994	103.831	19.985	2.454	0.500
427.500	295.364	80.003	19.995	103.831	19.983	2.590	0.528
429.000	296.081	80.005	19.995	103.825	19.979	2.861	0.495
430.500	296.815	80.005	19.994	103.834	19.979	2.913	0.486
432.000	297.595	80.003	19.993	103.833	19.984	2.580	0.485
433.500	298.378	80.004	19.994	103.824	19.980	2.809	0.499
435.000	299.100	80.002	19.993	103.814	19.980	2.827	0.496
436.500	299.851	80.003	19.994	103.823	19.983	2.601	0.510
438.000	300.627	80.001	19.992	103.825	19.982	2.678	0.502
439.500	301.399	80.001	19.994	103.824	19.985	2.454	0.521
441.000	302.120	80.001	19.995	103.826	19.986	2.401	0.478
442.500	302.907	80.001	19.994	103.831	19.982	2.714	0.523
444.000	303.618	80.002	19.994	103.837	19.983	2.594	0.500
445.500	304.374	80.002	19.995	103.827	19.984	2.528	0.499
447.000	305.149	80.002	19.994	103.821	19.983	2.623	0.511
448.500	305.881	80.002	19.993	103.827	19.985	2.474	0.470
450.000	306.628	80.003	19.995	103.820	19.982	2.686	0.470
451.500	307.448	80.002	19.993	103.822	19.987	2.339	0.544
453.000	308.202	80.003	19.995	103.818	19.982	2.675	0.505
454.500	308.955	80.002	19.994	103.820	19.981	2.773	0.513
456.000	309.751	80.004	19.994	103.820	19.982	2.677	0.523
457.500	310.479	80.003	19.995	103.821	19.982	2.659	0.475
459.000	311.202	80.002	19.994	103.822	19.985	2.481	0.501
460.500	312.034	80.001	19.994	103.808	19.978	2.946	0.542
462.000	312.775	80.002	19.995	103.806	19.982	2.692	0.530
463.500	313.519	80.002	19.994	103.804	19.980	2.845	0.507
465.000	314.302	80.002	19.996	103.803	19.980	2.824	0.523
466.500	315.079	80.002	19.995	103.803	19.982	2.677	0.504
468.000	315.821	80.002	19.994	103.806	19.981	2.767	0.496
469.500	316.597	80.001	19.995	103.811	19.978	2.923	0.507
471.000	317.294	80.001	19.994	103.809	19.981	2.766	0.460
472.500	318.120	80.001	19.996	103.802	19.981	2.744	0.556
474.000	318.864	80.002	19.994	103.805	19.980	2.825	0.514
475.500	319.583	80.000	19.994	103.804	19.985	2.453	0.478
477.000	320.358	80.003	19.995	103.812	19.986	2.444	0.500
478.500	321.096	80.001	19.994	103.818	19.986	2.424	0.486
480.000	321.878	80.003	19.994	103.818	19.983	2.644	0.514
481.500	322.581	80.001	19.994	103.814	19.983	2.604	0.474
483.000	323.347	80.004	19.995	103.804	19.979	2.901	0.512
484.500	324.152	80.003	19.995	103.810	19.983	2.644	0.532
486.000	324.882	80.002	19.994	103.811	19.977	3.032	0.505
487.500	325.640	80.002	19.994	103.807	19.982	2.681	0.490
489.000	326.384	80.002	19.994	103.807	19.986	2.452	0.499
490.500	327.152	80.003	19.995	103.810	19.985	2.457	0.522
492.000	327.883	80.002	19.995	103.811	19.986	2.410	0.476
493.500	328.647	80.002	19.995	103.814	19.983	2.644	0.515
495.000	329.441	80.002	19.995	103.813	19.984	2.537	0.505
496.500	330.184	80.001	19.996	103.803	19.982	2.706	0.497
498.000	330.911	80.000	19.995	103.820	19.980	2.843	0.477
499.500	331.673	80.002	19.995	103.834	19.984	2.572	0.505
501.000	332.451	80.001	19.996	103.817	19.983	2.590	0.502
502.500	333.221	80.002	19.994	103.804	19.981	2.721	0.494
504.000	333.981	80.002	19.994	103.808	19.979	2.884	0.508
505.500	334.713	80.004	19.995	103.808	19.984	2.548	0.490
507.000	335.539	80.003	19.993	103.807	19.982	2.706	0.540
508.500	336.227	80.004	19.994	103.807	19.982	2.659	0.487
510.000	337.058	80.005	19.994	103.805	19.983	2.593	0.561
511.500	337.744	80.005	19.994	103.801	19.982	2.664	0.468
513.000	338.530	80.003	19.995	103.799	19.982	2.706	0.500
514.500	339.263	80.003	19.996	103.799	19.977	3.003	0.490
516.000	340.024	80.004	19.994	103.800	19.980	2.790	0.492
517.500	340.787	80.002	19.993	103.802	19.981	2.728	0.511
519.000	341.548	80.002	19.995	103.802	19.975	3.148	0.494
520.500	342.277	80.003	19.995	103.801	19.978	2.974	0.478
522.000	343.005	80.003	19.994	103.801	19.977	3.023	0.477
523.500	343.759	80.001	19.994	103.799	19.978	2.961	0.485
525.000	344.533	80.001	19.995	103.801	19.979	2.859	0.516
526.500	345.303	80.001	19.995	103.800	19.979	2.914	0.505
528.000	346.067	80.002	19.994	103.800	19.977	3.029	0.504
529.500	346.795	80.002	19.994	103.801	19.977	3.028	0.485
531.000	347.538	80.003	19.994	103.802	19.976	3.050	0.492
532.500	348.278	80.002	19.993	103.804	19.978	2.957	0.513
534.001	349.032	80.003	19.994	103.804	19.977	2.999	0.498
535.500	349.786	80.003	19.993	103.807	19.976	3.094	0.478
537.000	350.604	80.003	19.995	103.811	19.984	2.572	0.554
538.500	351.383	80.004	19.995	103.810	19.977	2.992	0.517
540.000	352.105	80.003	19.996	103.809	19.977	2.985	0.481
541.500	352.891	80.002	19.994	103.803	19.980	2.812	0.527
543.000	353.644	80.003	19.994	103.804	19.980	2.834	0.502
544.500	354.433	80.003	19.993	103.804	19.978	2.928	0.526
546.000	355.190	80.002	19.993	103.802	19.976	3.050	0.511
547.500	355.991	80.001	19.993	103.803	19.974	3.234	0.523
549.000	356.746	80.001	19.994	103.805	19.980	2.841	0.504
550.500	357.480	80.001	19.995	103.804	19.979	2.901	0.504
552.001	358.263	80.001	19.994	103.803	19.978	2.975	0.515
553.500	359.022	80.001	19.995	103.802	19.977	3.045	0.525
555.000	359.762	80.001	19.994	103.805	19.980	2.788	0.494
556.500	360.525	80.002	19.995	103.805	19.979	2.875	0.518
558.000	361.295	80.002	19.996	103.804	19.973	3.254	0.528
559.500	362.054	80.002	19.994	103.803	19.974	3.214	0.509
561.000	362.794	80.004	19.995	103.803	19.981	2.777	0.489
562.500	363.571	80.003	19.995	103.803	19.978	2.968	0.524
564.000	364.352	80.004	19.994	103.802	19.979	2.866	0.526
565.500	365.076	80.002	19.993	103.803	19.977	3.037	0.462
567.000	365.851	80.004	19.994	103.804	19.977	2.984	0.523
568.500	366.613	80.005	19.994	103.805	19.984	2.571	0.515
570.000	367.360	80.004	19.995	103.803	19.983	2.586	0.517
571.500	368.144	80.005	19.994	103.802	19.979	2.906	0.533
573.000	368.870	80.004	19.998	103.803	19.980	2.784	0.506
574.500	369.633	80.001	19.997	103.804	19.977	3.006	0.495
576.000	370.421	80.003	19.996	103.800	19.980	2.821	0.517
577.500	371.143	80.001	19.994	103.799	19.978	2.935	0.475
579.000	371.917	80.002	19.995	103.798	19.973	3.252	0.506
580.500	372.711	80.003	19.995	103.802	19.974	3.203	0.542
582.000	373.490	80.003	19.996	103.799	19.978	2.975	0.500
583.500	374.242	80.002	19.995	103.800	19.980	2.842	0.508
585.000	375.010	80.003	19.994	103.798	19.978	2.974	0.527
586.500	375.786	80.004	19.995	103.798	19.979	2.888	0.516
588.000	376.533	80.003	19.994	103.795	19.977	3.001	0.501
589.500	377.335	80.004	19.995	103.789	19.973	3.279	0.528
591.000	378.065	80.006	19.995	103.791	19.978	2.977	0.487
592.500	378.797	80.005	19.994	103.797	19.976	3.072	0.495
594.001	379.571	80.004	19.994	103.796	19.977	3.005	0.523
595.500	380.366	80.004	19.994	103.797	19.979	2.895	0.543
597.000	381.163	80.003	19.994	103.798	19.979	2.877	0.519
598.500	381.941	80.002	19.995	103.798	19.980	2.801	0.523
600.000	382.659	80.001	19.993	103.797	19.977	3.025	0.495
601.500	383.487	80.002	19.993	103.802	19.980	2.794	0.539
603.000	384.255	80.001	19.994	103.802	19.980	2.793	0.499
604.500	384.979	80.002	19.994	103.801	19.980	2.792	0.482
606.000	385.794	80.002	19.994	103.802	19.980	2.793	0.549
607.500	386.570	80.003	19.994	103.800	19.977	3.041	0.500
609.000	387.363	80.001	19.994	103.801	19.976	3.096	0.522
610.500	388.114	80.002	19.994	103.804	19.978	2.979	0.491
612.000	388.919	80.001	19.994	103.805	19.977	2.990	0.547
613.500	389.701	80.002	19.995	103.802	19.974	3.188	0.510
615.000	390.433	80.002	19.994	103.803	19.976	3.107	0.501
616.500	391.210	80.001	19.994	103.798	19.978	2.937	0.488
618.000	391.998	80.003	19.993	103.799	19.976	3.050	0.529
619.500	392.771	80.001	19.994	103.805	19.975	3.130	0.528
621.000	393.563	80.001	19.994	103.805	19.977	3.045	0.528
622.500	394.339	80.001	19.993	103.802	19.979	2.902	0.529
624.000	395.104	80.001	19.994	103.798	19.973	3.248	0.494
625.500	395.906	80.001	19.994	103.800	19.979	2.868	0.535
627.000	396.645	80.001	19.993	103.804	19.977	3.044	0.516
628.500	397.400	80.002	19.993	103.803	19.976	3.065	0.484
630.000	398.135	80.001	19.994	103.800	19.976	3.048	0.519
631.500	398.918	80.001	19.992	103.796	19.978	2.970	0.500
633.000	399.757	80.001	19.996	103.792	19.977	3.021	0.549
634.500	400.474	80.002	19.995	103.795	19.977	3.001	0.500
636.000	401.234	80.002	19.994	103.786	19.976	3.061	0.496
637.500	401.981	80.002	19.993	103.790	19.975	3.146	0.483
639.000	402.766	80.002	19.994	103.803	19.975	3.116	0.532
640.500	403.503	80.001	19.997	103.798	19.972	3.357	0.499
642.000	404.262	80.002	19.996	103.798	19.978	2.922	0.483
643.500	405.038	80.003	19.994	103.794	19.974	3.219	0.524
645.000	405.772	80.003	19.996	103.786	19.977	3.006	0.483
646.500	406.538	80.003	19.995	103.794	19.977	3.004	0.511
648.000	407.323	80.003	19.996	103.797	19.976	3.048	0.537
649.500	408.047	80.003	19.996	103.800	19.979	2.912	0.475
651.000	408.808	80.003	19.994	103.797	19.972	3.335	0.519
652.500	409.564	80.003	19.995	103.794	19.975	3.140	0.503
654.000	410.312	80.003	19.995	103.798	19.977	2.995	0.492
655.500	411.109	80.003	19.995	103.798	19.973	3.250	0.502
657.000	411.877	80.003	19.995	103.793	19.974	3.223	0.513
658.500	412.594	80.004	19.994	103.786	19.976	3.081	0.467
660.000	413.321	80.004	19.995	103.795	19.975	3.121	0.494
661.500	414.061	80.004	19.994	103.788	19.977	2.982	0.491
663.000	414.814	80.003	19.995	103.778	19.977	2.997	0.497
664.500	415.566	80.003	19.994	103.784	19.976	3.103	0.498
666.000	416.309	80.004	19.995	103.785	19.974	3.191	0.490
667.500	417.081	80.005	19.995	103.797	19.975	3.171	0.523
669.000	417.844	80.004	19.994	103.795	19.976	3.091	0.501
670.500	418.623	80.005	19.995	103.791	19.976	3.047	0.505
672.000	419.395	80.003	19.994	103.792	19.980	2.791	0.508
673.500	420.099	80.004	19.994	103.795	19.970	3.475	0.477
675.000	420.898	80.004	19.994	103.798	19.974	3.198	0.541
676.500	421.679	80.003	19.994	103.777	19.974	3.202	0.517
678.000	422.437	80.002	19.995	103.775	19.971	3.379	0.500
679.500	423.141	80.002	19.994	103.772	19.975	3.173	0.480
681.000	423.919	80.002	19.996	103.762	19.976	3.084	0.495
682.500	424.618	80.002	19.994	103.764	19.978	2.959	0.462
684.000	425.415	80.003	19.993	103.765	19.971	3.406	0.537
685.500	426.179	80.002	19.994	103.762	19.977	3.009	0.522
687.000	426.910	80.002	19.995	103.766	19.971	3.394	0.488
688.500	427.660	80.003	19.995	103.770	19.974	3.201	0.516
690.000	428.472	80.001	19.994	103.778	19.973	3.281	0.538
691.500	429.231	80.003	19.994	103.784	19.979	2.906	0.501
693.000	429.962	80.003	19.997	103.787	19.976	3.051	0.474
694.500	430.741	80.002	19.995	103.791	19.971	3.397	0.505
696.000	431.519	80.003	19.994	103.783	19.975	3.170	0.511
697.500	432.251	80.003	19.993	103.793	19.972	3.343	0.490
699.000	433.025	80.003	19.993	103.790	19.970	3.445	0.504
700.500	433.807	80.003	19.994	103.780	19.973	3.268	0.510
702.000	434.538	80.001	19.992	103.792	19.976	3.055	0.482
703.500	435.307	80.001	19.995	103.780	19.974	3.197	0.489
705.000	436.057	80.004	19.994	103.782	19.971	3.381	0.497
706.500	436.827	80.001	19.993	103.796	19.970	3.465	0.504
708.000	437.587	80.003	19.993	103.787	19.978	2.977	0.499
709.500	438.372	80.002	19.994	103.785	19.972	3.341	0.532
711.000	439.101	80.002	19.996	103.786	19.973	3.274	0.490
712.500	439.865	80.002	19.994	103.798	19.975	3.165	0.517
714.000	440.623	80.003	19.995	103.786	19.977	3.046	0.484
715.500	441.349	80.003	19.995	103.780	19.970	3.474	0.482
717.000	442.173	80.000	19.993	103.789	19.974	3.234	0.543
718.500	442.905	80.003	19.995	103.797	19.974	3.243	0.478
720.000	443.628	80.004	19.994	103.796	19.975	3.139	0.457
721.500	444.419	80.003	19.994	103.798	19.973	3.296	0.509
723.001	445.188	80.004	19.995	103.799	19.976	3.095	0.520
724.500	445.918	80.004	19.995	103.800	19.975	3.129	0.486
726.000	446.711	80.005	19.993	103.793	19.975	3.169	0.508
727.501	447.460	80.004	19.994	103.794	19.976	3.088	0.475
729.000	448.201	80.003	19.995	103.794	19.974	3.208	0.501
730.500	449.008	80.003	19.996	103.796	19.976	3.088	0.533
732.000	449.769	80.002	19.994	103.796	19.973	3.286	0.504
733.500	450.528	80.002	19.993	103.793	19.976	3.104	0.490
735.000	451.288	80.005	19.995	103.777	19.976	3.082	0.505
736.500	452.064	80.002	19.995	103.774	19.978	2.964	0.515
738.000	452.820	80.002	19.994	103.789	19.976	3.053	0.504
739.500	453.582	80.005	19.995	103.797	19.974	3.222	0.493
741.000	454.343	80.003	19.995	103.784	19.977	3.014	0.511
742.500	455.115	80.003	19.995	103.780	19.970	3.482	0.505
744.000	455.941	80.004	19.993	103.779	19.982	2.676	0.517
745.500	456.646	80.004	19.995	103.774	19.975	3.155	0.488
747.000	457.398	80.005	19.996	103.775	19.975	3.140	0.493
748.500	458.191	80.005	19.995	103.774	19.975	3.157	0.531
750.000	458.970	80.005	19.994	103.766	19.978	2.931	0.511
751.500	459.769	80.002	19.993	103.764	19.977	2.994	0.533
753.000	460.505	80.005	19.997	103.766	19.978	2.953	0.502
754.500	461.246	80.005	19.995	103.770	19.976	3.111	0.499
756.000	462.023	80.004	19.993	103.766	19.982	2.658	0.521
757.500	462.761	80.001	19.994	103.771	19.982	2.714	0.504
759.000	463.509	80.002	19.994	103.787	19.980	2.806	0.479
760.500	464.243	80.002	19.995	103.777	19.976	3.104	0.498
762.000	464.991	80.001	19.995	103.767	19.972	3.346	0.515
763.500	465.781	80.001	19.995	103.766	19.980	2.813	0.497
765.000	466.508	79.999	19.995	103.778	19.978	2.938	0.484
766.500	467.297	80.002	19.995	103.783	19.979	2.867	0.535
768.000	468.043	80.001	19.996	103.766	19.975	3.167	0.496
769.500	468.813	80.001	19.995	103.770	19.983	2.611	0.504
771.000	469.573	80.002	19.994	103.777	19.986	2.451	0.511
772.500	470.341	80.002	19.995	103.770	19.974	3.180	0.503
774.000	471.098	80.003	19.995	103.772	19.987	2.336	0.521
775.500	471.866	80.001	19.994	103.775	19.975	3.169	0.514
777.000	472.633	80.002	19.994	103.771	19.978	2.974	0.519
778.500	473.399	80.003	19.994	103.764	19.981	2.762	0.506
780.000	474.195	80.003	19.995	103.773	19.980	2.800	0.515
781.500	474.943	80.003	19.995	103.769	19.979	2.876	0.518
783.000	475.721	80.001	19.993	103.774	19.976	3.095	0.513
784.500	476.478	80.002	19.994	103.779	19.982	2.660	0.484
786.000	477.219	80.002	19.994	103.765	19.979	2.862	0.490
787.500	477.975	80.003	19.994	103.762	19.980	2.814	0.486
789.000	478.742	79.999	19.995	103.763	19.976	3.075	0.513
790.500	479.463	80.002	19.995	103.766	19.978	2.964	0.486
792.000	480.234	80.001	19.994	103.767	19.981	2.760	0.526
793.500	480.977	80.002	19.994	103.771	19.985	2.483	0.496
795.000	481.748	80.004	19.996	103.768	19.984	2.545	0.516
796.500	482.495	80.002	19.996	103.767	19.981	2.729	0.485
798.000	483.251	80.001	19.995	103.768	19.981	2.756	0.502
799.500	484.024	80.004	19.993	103.772	19.984	2.574	0.508
801.000	484.721	80.002	19.994	103.774	19.984	2.583	0.475
802.500	485.477	80.002	19.996	103.766	19.980	2.800	0.483
804.000	486.244	80.004	19.995	103.768	19.982	2.668	0.497
805.500	486.996	80.003	19.995	103.774	19.984	2.564	0.501
807.000	487.735	80.003	19.994	103.765	19.984	2.533	0.502
808.500	488.495	80.004	19.994	103.765	19.981	2.716	0.502
810.000	489.247	80.004	19.994	103.771	19.985	2.462	0.517
811.500	490.015	80.005	19.995	103.770	19.989	2.203	0.521
813.000	490.747	80.004	19.995	103.779	19.990	2.149	0.486
814.500	491.469	80.000	19.993	103.794	19.988	2.318	0.478
816.000	492.240	80.004	19.995	103.782	19.990	2.169	0.537
817.500	493.001	80.004	19.994	103.768	19.989	2.242	0.518
819.000	493.783	80.003	19.994	103.773	19.992	2.030	0.502
820.500	494.512	80.003	19.994	103.773	19.995	1.815	0.500
822.000	495.370	80.003	19.993	103.768	19.988	2.272	0.553
823.500	496.090	80.005	19.994	103.776	19.988	2.266	0.466
825.000	496.839	80.003	19.994	103.778	19.987	2.329	0.496
826.500	497.587	80.005	19.996	103.769	19.986	2.427	0.515
828.000	498.352	80.004	19.995	103.778	19.987	2.327	0.521
829.500	499.142	80.005	19.995	103.788	19.983	2.585	0.532
831.000	499.872	80.005	19.995	103.729	19.993	1.968	0.486
832.500	500.676	80.003	19.994	103.719	19.986	2.451	0.538
834.000	501.420	80.004	19.995	103.809	19.986	2.420	0.507
835.500	502.154	80.005	19.994	103.823	19.993	1.969	0.506
837.000	502.915	80.002	19.994	103.772	19.985	2.483	0.513
838.500	503.675	80.003	19.994	103.763	19.986	2.445	0.507
840.000	504.432	80.001	19.996	103.773	19.991	2.107	0.508
841.500	505.204	80.002	19.994	103.766	19.988	2.287	0.524
843.000	506.008	80.004	19.995	103.763	19.988	2.314	0.519
844.500	506.747	80.002	19.996	103.769	19.990	2.183	0.495
846.000	507.492	80.002	19.995	103.773	19.989	2.250	0.497
847.500	508.307	80.003	19.995	103.766	19.995	1.857	0.548
849.000	509.065	80.002	19.995	103.764	19.990	2.150	0.526
850.500	509.813	80.001	19.995	103.770	19.990	2.134	0.511
852.000	510.598	80.001	19.996	103.776	19.989	2.249	0.525
853.500	511.396	80.002	19.994	103.773	19.990	2.150	0.534
855.000	512.168	80.001	19.995	103.769	19.988	2.296	0.500
856.500	512.870	80.003	19.995	103.760	19.990	2.152	0.479
858.000	513.687	80.002	19.995	103.760	19.986	2.445	0.535
859.500	514.473	80.004	19.996	103.761	19.991	2.068	0.523
861.000	515.242	80.002	19.995	103.760	19.989	2.207	0.514
862.500	516.042	80.001	19.995	103.762	19.983	2.598	0.531
864.000	516.779	80.003	19.996	103.763	19.989	2.200	0.514
865.500	517.554	80.001	19.995	103.759	19.989	2.241	0.519
867.000	518.359	80.002	19.994	103.760	19.994	1.903	0.529
868.500	519.100	80.002	19.994	103.763	19.992	2.052	0.495
870.000	519.868	80.002	19.994	103.765	19.993	1.972	0.538
871.500	520.663	80.002	19.995	103.764	19.991	2.081	0.539
873.000	521.468	80.002	19.996	103.768	19.989	2.207	0.544
874.500	522.221	80.003	19.996	103.774	19.995	1.838	0.502
876.000	522.964	80.001	19.993	103.767	19.994	1.921	0.497
877.500	523.744	80.002	19.995	103.767	19.994	1.890	0.496
879.000	524.548	80.002	19.994	103.767	19.991	2.083	0.544
880.500	525.315	80.003	19.995	103.767	19.993	1.950	0.526
882.000	526.059	80.002	19.995	103.764	19.990	2.187	0.519
883.500	526.830	80.003	19.995	103.765	19.992	2.045	0.511
885.000	527.567	80.004	19.994	103.771	19.995	1.843	0.484
886.500	528.325	80.002	19.994	103.769	19.995	1.837	0.515
888.000	529.160	80.004	19.993	103.766	19.993	1.983	0.533
889.500	529.877	80.004	19.994	103.769	19.995	1.805	0.490
891.000	530.682	80.004	19.995	103.778	19.989	2.194	0.536
892.500	531.466	80.004	19.996	103.772	19.991	2.059	0.534
894.000	532.243	80.003	19.994	103.764	19.990	2.168	0.527
895.500	533.021	80.003	19.995	103.763	19.992	2.027	0.520
897.000	533.811	80.003	19.995	103.765	19.990	2.145	0.536
898.500	534.595	80.005	19.995	103.769	19.993	1.968	0.525
900.000	535.379	80.003	19.993	103.767	19.994	1.919	0.552
901.500	536.150	80.003	19.994	103.761	19.994	1.883	0.511
903.001	536.966	80.004	19.993	103.761	19.995	1.856	0.530
904.500	537.727	80.004	19.994	103.761	19.994	1.901	0.523
906.000	538.527	80.004	19.994	103.762	19.989	2.245	0.538
907.500	539.324	80.006	19.994	103.755	19.994	1.866	0.548
909.000	540.074	80.006	19.994	103.754	19.992	2.052	0.523
910.500	540.813	80.005	19.994	103.751	19.990	2.178	0.511
912.000	541.634	80.004	19.993	103.758	19.992	2.039	0.541
913.500	542.400	80.005	19.994	103.762	19.990	2.148	0.505
915.000	543.153	80.005	19.994	103.762	19.992	2.025	0.507
916.500	543.963	80.004	19.994	103.759	19.994	1.879	0.523
918.000	544.727	80.002	19.994	103.760	19.994	1.916	0.493
919.500	545.436	80.001	19.995	103.761	19.992	2.045	0.480
921.000	546.227	80.001	19.995	103.761	19.996	1.768	0.520
922.500	547.020	80.001	19.995	103.762	19.998	1.610	0.517
924.000	547.759	80.001	19.994	103.761	19.994	1.872	0.481
925.500	548.554	80.002	19.995	103.760	19.996	1.770	0.529
927.001	549.353	80.002	19.994	103.761	19.992	2.025	0.533
928.500	550.073	80.001	19.994	103.764	19.994	1.888	0.494
930.000	550.869	80.001	19.994	103.762	19.995	1.839	0.523
931.500	551.611	80.002	19.994	103.762	19.992	2.017	0.500
933.000	552.369	80.002	19.997	103.764	19.989	2.198	0.492
934.500	553.164	80.002	19.996	103.764	19.992	2.034	0.529
936.000	553.950	80.001	19.994	103.764	19.995	1.839	0.504
937.500	554.730	80.002	19.994	103.763	19.997	1.723	0.536
939.000	555.455	80.001	19.995	103.763	19.995	1.830	0.491
940.500	556.237	80.001	19.993	103.763	19.995	1.837	0.509
942.000	556.975	80.003	19.994	103.763	19.997	1.706	0.489
943.500	557.741	80.001	19.995	103.764	19.997	1.674	0.512
945.000	558.531	80.001	19.993	103.764	19.994	1.872	0.526
946.500	559.291	80.002	19.994	103.765	19.994	1.888	0.494
948.000	560.044	80.001	19.995	103.764	19.995	1.836	0.515
949.500	560.795	80.001	19.995	103.762	19.998	1.650	0.500
951.000	561.604	80.001	19.995	103.762	19.994	1.888	0.543
952.500	562.391	80.001	19.995	103.763	19.994	1.868	0.523
954.000	563.137	80.002	19.995	103.764	19.994	1.885	0.493
955.500	563.900	80.003	19.995	103.763	19.995	1.836	0.524
957.000	564.660	80.001	19.995	103.762	19.996	1.775	0.502
958.500	565.425	80.002	19.994	103.761	19.993	1.946	0.500
960.000	566.196	80.002	19.996	103.761	19.996	1.786	0.535
961.500	566.955	80.003	19.994	103.762	19.995	1.825	0.507
963.000	567.745	80.004	19.993	103.761	19.994	1.870	0.522
964.500	568.515	80.004	19.993	103.761	19.997	1.679	0.526
966.000	569.278	80.004	19.994	103.761	19.993	1.950	0.499
967.500	570.062	80.003	19.994	103.760	19.991	2.094	0.512
969.000	570.793	80.004	19.993	103.761	19.990	2.163	0.505
970.500	571.578	80.003	19.993	103.761	19.996	1.792	0.515
972.000	572.353	80.003	19.994	103.761	19.993	1.979	0.508
973.500	573.129	80.003	19.995	103.761	19.994	1.874	0.525
975.000	573.935	80.003	19.994	103.763	19.992	2.041	0.539
976.500	574.697	80.003	19.994	103.763	19.991	2.117	0.501
978.000	575.509	80.003	19.995	103.763	19.995	1.854	0.552
979.500	576.262	80.003	19.994	103.763	19.992	2.019	0.510
981.000	577.004	80.003	19.994	103.761	19.993	1.956	0.488
982.500	577.816	80.003	19.995	103.761	19.990	2.134	0.524
984.000	578.583	80.004	19.993	103.760	19.990	2.163	0.503
985.500	579.344	80.003	19.994	103.762	19.994	1.916	0.484
987.000	580.087	80.004	19.994	103.762	19.993	1.934	0.480
988.500	580.815	80.004	19.994	103.762	19.994	1.910	0.487
990.000	581.590	80.006	19.994	103.761	19.990	2.148	0.501
991.500	582.372	80.005	19.993	103.760	19.991	2.116	0.484
993.000	583.148	80.005	19.996	103.762	19.995	1.803	0.509
994.500	583.908	80.004	19.994	103.761	19.998	1.643	0.522
996.000	584.701	80.005	19.993	103.762	19.996	1.763	0.539
997.500	585.466	80.004	19.995	103.764	19.993	1.987	0.499
999.000	586.237	80.002	19.994	103.758	19.989	2.232	0.488
1000.500	586.993	80.002	19.993	103.747	19.994	1.866	0.487
1002.000	587.756	80.001	19.993	103.752	19.989	2.192	0.504
1003.500	588.502	80.001	19.993	103.757	19.993	1.943	0.506
1005.000	589.320	80.002	19.994	103.752	19.989	2.212	0.525
1006.500	590.132	80.001	19.993	103.758	19.990	2.156	0.546
1008.001	590.853	80.001	19.994	103.722	19.990	2.147	0.495
1009.500	591.654	79.999	19.995	103.687	19.992	2.017	0.542
1011.000	592.389	80.001	19.994	103.802	19.990	2.136	0.489
1012.500	593.157	80.001	19.994	103.790	19.993	1.954	0.512
1014.000	593.955	80.001	19.994	103.751	19.988	2.310	0.527
1015.500	594.778	80.003	19.994	103.752	19.992	2.021	0.535
1017.000	595.544	80.002	19.994	103.776	19.994	1.912	0.526
1018.500	596.302	80.002	19.995	103.775	19.990	2.126	0.484
1020.000	597.110	80.003	19.995	103.764	19.991	2.088	0.536
1021.500	597.848	80.002	19.995	103.760	19.990	2.161	0.489
1023.000	598.626	80.002	19.995	103.757	19.991	2.104	0.509
1024.500	599.397	80.001	19.994	103.760	19.993	1.952	0.495
1026.000	600.182	80.002	19.994	103.760	19.992	1.992	0.539
1027.500	600.950	80.001	19.995	103.760	19.991	2.061	0.516
1029.000	601.732	80.003	19.994	103.757	19.992	2.005	0.539
1030.501	602.511	80.001	19.994	103.751	19.997	1.701	0.529
1032.000	603.278	80.002	19.995	103.752	19.994	1.896	0.526
1033.500	604.034	80.001	19.996	103.749	19.994	1.890	0.512
1035.000	604.832	80.003	19.996	103.745	19.993	1.936	0.538
1036.500	605.623	80.001	19.995	103.754	19.993	1.947	0.532
1038.000	606.394	80.001	19.995	103.761	19.995	1.815	0.526
1039.501	607.208	80.001	19.995	103.761	19.996	1.765	0.554
1041.001	607.979	80.002	19.996	103.760	19.995	1.844	0.517
1042.500	608.794	80.000	19.995	103.773	19.995	1.834	0.555
1044.000	609.628	80.002	19.996	103.775	19.997	1.661	0.548
1045.500	610.423	80.002	19.995	103.788	19.996	1.741	0.539
1047.000	611.234	80.003	19.995	103.779	19.997	1.694	0.528
1048.500	611.983	80.002	19.995	103.759	19.994	1.910	0.507
1050.001	612.806	80.003	19.995	103.764	19.994	1.859	0.553
1051.500	613.666	80.002	19.995	103.759	19.993	1.937	0.593
1053.001	614.476	80.002	19.995	103.753	19.996	1.736	0.544
1054.500	615.332	80.003	19.995	103.757	19.995	1.812	0.567
1056.000	616.165	80.002	19.994	103.755	19.995	1.801	0.551
1057.501	616.979	80.002	19.995	103.764	19.994	1.912	0.562
1059.000	617.803	80.002	19.993	103.766	19.998	1.655	0.551
1060.500	618.629	80.003	19.994	103.765	19.994	1.890	0.565
1062.000	619.454	80.003	19.993	103.764	19.999	1.586	0.518
1063.500	620.310	80.003	19.994	103.763	20.003	1.312	0.576
1065.000	621.129	80.004	19.993	103.758	19.995	1.797	0.543
1066.501	621.977	80.004	19.994	103.761	19.995	1.819	0.555
1068.001	622.788	80.004	19.993	103.766	20.000	1.468	0.565
1069.500	623.638	80.004	19.993	103.759	19.995	1.846	0.567
1071.001	624.467	80.004	19.993	103.752	20.000	1.499	0.545
1072.500	625.318	80.006	19.993	103.754	19.996	1.768	0.568
1074.000	626.122	80.004	19.993	103.759	19.997	1.726	0.534
1075.501	626.941	80.002	19.994	103.763	19.998	1.608	0.552
1077.001	627.747	80.003	19.993	103.759	19.995	1.857	0.551
1078.500	628.638	80.002	19.994	103.757	19.996	1.785	0.575
1080.000	629.419	80.002	19.993	103.763	19.996	1.788	0.548
1081.500	630.229	80.002	19.993	103.764	19.998	1.659	0.547
1083.000	631.085	80.002	19.994	103.761	19.998	1.614	0.527
1084.501	631.926	80.001	19.994	103.759	19.998	1.632	0.576
1086.001	632.734	80.002	19.994	103.756	19.997	1.724	0.550
1087.500	633.585	80.002	19.994	103.758	19.996	1.728	0.578
1089.000	634.418	80.001	19.995	103.760	19.996	1.790	0.559
1090.500	635.178	80.002	19.993	103.760	20.000	1.464	0.518
1092.001	635.998	80.001	19.994	103.761	19.996	1.737	0.533
1093.500	636.858	80.002	19.993	103.760	19.995	1.846	0.572
1095.001	637.649	80.002	19.994	103.757	19.997	1.693	0.539
1096.500	638.492	80.003	19.994	103.745	19.998	1.595	0.552
1098.000	639.298	80.003	19.994	103.745	19.999	1.586	0.528
1099.500	640.101	80.001	19.994	103.749	19.997	1.677	0.546
1101.001	640.895	80.002	19.995	103.760	19.995	1.801	0.545
1102.500	641.677	80.002	19.993	103.756	20.000	1.522	0.529
1104.001	642.448	80.000	19.994	103.747	19.997	1.681	0.494
1105.500	643.274	80.000	19.996	103.750	19.992	2.001	0.571
1107.000	644.069	80.001	19.995	103.753	19.993	1.946	0.505
1108.500	644.873	80.001	19.995	103.744	19.993	1.975	0.559
1110.000	645.614	80.002	19.995	103.742	19.998	1.608	0.531
1111.500	646.433	80.002	19.995	103.755	20.000	1.472	0.551
1113.000	647.204	80.001	19.995	103.742	19.997	1.719	0.533
1114.500	648.010	80.002	19.996	103.744	19.998	1.623	0.546
1116.002	648.808	80.002	19.994	103.746	20.000	1.506	0.527
1117.501	649.584	80.002	19.994	103.753	19.999	1.532	0.523
1119.000	650.366	80.003	19.994	103.745	19.998	1.654	0.540
1120.501	651.150	80.003	19.995	103.748	19.997	1.663	0.523
1122.000	651.919	80.003	19.995	103.758	20.000	1.502	0.534
1123.500	652.740	80.003	19.994	103.760	20.004	1.213	0.553
1125.001	653.497	80.003	19.995	103.761	20.000	1.466	0.511
1126.500	654.256	80.003	19.995	103.751	20.001	1.441	0.499
1128.000	655.082	80.002	19.996	103.749	19.998	1.648	0.551
1129.500	655.872	80.003	19.994	103.760	19.998	1.606	0.510
1131.000	656.629	80.003	19.994	103.760	20.002	1.368	0.519
1132.500	657.443	80.002	19.994	103.748	19.997	1.690	0.525
1134.000	658.164	80.002	19.994	103.732	20.000	1.499	0.479
1135.500	658.967	80.002	19.995	103.749	19.997	1.683	0.564
1137.000	659.714	80.003	19.994	103.752	19.998	1.603	0.513
1138.500	660.527	80.001	19.995	103.732	19.997	1.661	0.532
1140.000	661.271	80.002	19.995	103.740	20.000	1.528	0.516
1141.500	662.029	80.002	19.995	103.756	20.001	1.441	0.502
1143.000	662.769	80.004	19.995	103.748	20.003	1.312	0.499
1144.500	663.499	80.004	19.995	103.738	20.002	1.350	0.488
1146.000	664.322	80.005	19.994	103.751	20.004	1.228	0.511
1147.500	664.982	80.004	19.994	103.751	20.001	1.432	0.447
1149.000	665.739	80.004	19.994	103.757	20.003	1.270	0.493
1150.500	666.527	80.003	19.994	103.751	20.003	1.324	0.529
1152.001	667.226	80.004	19.993	103.747	20.004	1.228	0.466
1153.501	668.005	80.005	19.994	103.755	20.005	1.142	0.514
1155.000	668.777	80.004	19.994	103.752	20.003	1.266	0.506
1156.500	669.522	80.004	19.992	103.750	20.003	1.291	0.504
1158.000	670.256	80.002	19.994	103.751	20.002	1.359	0.513
1159.500	671.037	80.001	19.995	103.758	20.007	1.044	0.508
1161.000	671.729	80.001	19.994	103.759	20.006	1.118	0.455
1162.500	672.467	80.001	19.994	103.749	20.006	1.129	0.505
1164.001	673.243	80.002	19.995	103.729	20.003	1.286	0.498
1165.501	673.960	80.002	19.994	103.734	20.006	1.071	0.464
1167.000	674.732	80.001	19.994	103.742	20.003	1.271	0.505
1168.501	675.450	80.001	19.994	103.732	20.004	1.251	0.479
1170.000	676.209	80.002	19.995	103.728	20.004	1.204	0.497
1171.500	676.912	80.002	19.994	103.727	20.003	1.299	0.461
1173.001	677.683	80.001	19.996	103.738	20.004	1.200	0.513
1174.500	678.424	80.003	19.995	103.754	20.004	1.222	0.491
1176.000	679.196	80.002	19.993	103.755	20.004	1.255	0.505
1177.501	679.912	80.002	19.993	103.751	20.003	1.317	0.481
1179.000	680.613	80.002	19.995	103.735	20.006	1.106	0.477
1180.500	681.359	80.003	19.995	103.736	20.004	1.213	0.492
1182.001	682.107	80.003	19.993	103.744	20.002	1.368	0.478
1183.500	682.842	80.003	19.994	103.743	20.002	1.379	0.498
1185.001	683.572	80.001	19.993	103.746	20.003	1.326	0.499
1186.500	684.289	80.002	19.994	103.738	20.002	1.359	0.479
1188.000	685.019	80.001	19.993	103.736	20.002	1.342	0.492
1189.500	685.731	80.001	19.994	103.742	20.004	1.251	0.498
1191.001	686.511	80.002	19.994	103.735	20.003	1.302	0.515
1192.500	687.155	80.001	19.994	103.729	20.001	1.455	0.424
1194.000	687.989	80.001	19.993	103.733	20.002	1.351	0.495
1195.500	688.687	80.001	19.995	103.744	20.003	1.279	0.481
1197.000	689.446	80.001	19.994	103.757	20.005	1.166	0.509
1198.500	690.210	80.002	19.995	103.754	20.001	1.417	0.496
1200.000	690.898	80.001	19.995	103.749	20.005	1.180	0.481
1201.501	691.649	80.003	19.995	103.751	20.002	1.382	0.499
1203.000	692.411	80.003	19.994	103.759	20.004	1.249	0.484
1204.500	693.151	80.004	19.993	103.750	20.005	1.177	0.479
1206.000	693.896	80.005	19.994	103.745	20.005	1.179	0.504
1207.500	694.605	80.004	19.994	103.755	20.001	1.410	0.487
1209.000	695.518	80.004	19.994	103.744	20.006	1.086	0.596
1210.500	696.067	80.003	19.995	103.740	20.001	1.399	0.526
1212.000	696.894	80.003	19.994	103.747	20.004	1.210	0.566
1213.501	697.657	80.003	19.994	103.738	20.002	1.355	0.538
1215.000	698.384	80.003	19.994	103.738	20.002	1.361	0.481
1216.500	699.159	80.003	19.995	103.749	20.006	1.106	0.514
1218.001	699.905	80.002	19.995	103.756	20.001	1.420	0.509
1219.500	700.678	80.004	19.994	103.755	20.000	1.490	0.505
1221.001	701.420	80.002	19.995	103.757	20.007	1.024	0.512
1222.500	702.208	80.003	19.994	103.758	20.005	1.186	0.519
1224.001	702.894	80.002	19.995	103.760	20.003	1.308	0.487
1225.500	703.644	80.003	19.994	103.755	20.000	1.470	0.487
1227.001	704.425	80.004	19.994	103.756	20.003	1.282	0.488
1228.500	705.168	80.004	19.994	103.741	19.998	1.599	0.499
1230.000	705.894	80.004	19.994	103.735	20.002	1.366	0.483
1231.501	706.629	80.005	19.995	103.737	20.000	1.501	0.492
1233.001	707.396	80.006	19.997	103.750	20.003	1.324	0.523
1234.500	708.171	80.006	19.994	103.749	19.998	1.646	0.514
1236.000	709.037	80.005	19.995	103.736	20.000	1.473	0.559
1237.501	709.701	80.005	19.994	103.740	20.002	1.346	0.450
1239.000	710.459	80.003	19.994	103.746	20.000	1.481	0.522
1240.500	711.201	80.003	19.994	103.748	20.001	1.404	0.511
1242.000	711.989	80.003	19.994	103.750	20.000	1.482	0.521
1243.501	712.765	80.002	19.993	103.748	20.001	1.402	0.538
1245.000	713.525	80.001	19.994	103.742	20.003	1.306	0.503
1246.501	714.321	80.001	19.994	103.746	20.002	1.379	0.521
1248.000	715.036	80.002	19.993	103.749	20.005	1.148	0.490
1249.500	715.850	80.002	19.993	103.753	20.000	1.488	0.502
1251.001	716.679	80.001	19.994	103.746	20.003	1.295	0.549
1252.500	717.458	80.003	19.993	103.739	20.004	1.240	0.546
1254.000	718.261	80.001	19.994	103.746	20.005	1.142	0.534
1255.500	719.007	80.002	19.994	103.753	20.003	1.268	0.515
1257.001	719.822	80.001	19.994	103.756	20.007	1.026	0.553
1258.500	720.638	80.000	19.993	103.750	20.002	1.355	0.552
1260.001	721.412	80.002	19.993	103.748	20.004	1.204	0.527
1261.500	722.237	80.004	19.995	103.753	20.003	1.297	0.543
1263.000	723.043	80.002	19.994	103.748	20.006	1.095	0.534
1264.500	723.832	80.002	19.994	103.752	20.008	0.991	0.518
1266.000	724.571	80.003	19.994	103.747	20.005	1.168	0.503
1267.500	725.367	80.002	19.994	103.747	20.003	1.311	0.536
1269.000	726.189	80.001	19.993	103.739	20.001	1.399	0.536
1270.500	726.972	80.002	19.994	103.738	20.001	1.424	0.499
1272.000	727.728	80.001	19.994	103.746	20.002	1.359	0.497
1273.501	728.523	80.002	19.994	103.737	19.998	1.659	0.533
1275.001	729.269	80.001	19.993	103.745	20.002	1.357	0.509
1276.500	730.017	80.001	19.995	103.743	19.999	1.533	0.503
1278.000	730.813	80.002	19.993	103.734	20.001	1.401	0.526
1279.500	731.590	80.002	19.994	103.752	20.002	1.386	0.508
1281.001	732.354	80.003	19.994	103.760	19.999	1.537	0.499
1282.500	733.063	80.002	19.993	103.758	20.002	1.372	0.471
1284.000	733.806	80.002	19.993	103.753	20.000	1.477	0.491
1285.500	734.549	80.003	19.995	103.752	20.000	1.481	0.515
1287.001	735.309	80.004	19.995	103.751	20.003	1.281	0.498
1288.500	736.028	80.003	19.995	103.752	20.003	1.330	0.499
1290.000	736.828	80.003	19.994	103.755	20.002	1.353	0.523
1291.500	737.548	80.004	19.994	103.749	19.998	1.610	0.470
1293.001	738.304	80.004	19.996	103.755	20.004	1.253	0.488
1294.500	739.053	80.003	19.995	103.759	20.004	1.264	0.508
1296.000	739.796	80.002	19.995	103.760	20.006	1.079	0.500
1297.500	740.561	80.003	19.995	103.758	20.006	1.104	0.513
1299.000	741.328	80.004	19.994	103.759	20.004	1.217	0.507
1300.500	742.036	80.002	19.994	103.755	20.007	1.013	0.476
1302.000	742.781	80.002	19.994	103.747	20.007	1.060	0.497
1303.500	743.600	80.002	19.994	103.752	20.003	1.304	0.531