File: 01_Data/Fiberglas_Insulation3B/MCC/Fiberglas_Insulation3B_MCC_30K_min_220221_R1.txt
Sample ID:	C:\MCC\MCC Cal\Test\Fiberglas_Insulation3B_MCC_30K_min_220221_R1.txt
Sample Weight (mg):	4.68
Heating Rate (C/s):	0.5
Combustor Temp (C):	900
N2 Flow Rate (cc/min):	80
O2 Flow Rate (cc/min):	20
Calibration File:	C:\MCC\MCC Cal\Coeff1 JN10440_30_210304.txt.txt
T Correction Coefficients:	0	1.024463	0
Time Shift (s):	14
*
Time (s)	Temperature (C)	N2 flow rate (cc/min)	O2 flow rate (cc/min)	Flow Rate (cc/min)	Oxygen (%)	HRR (W/g)	Heating rate (C/s)
0.000	113.009	80.006	19.993	103.669	19.998	-0.165	-0.018
2.000	112.993	80.010	19.996	103.670	19.997	-0.090	-0.019
4.000	113.010	80.009	19.994	103.667	19.995	0.062	-0.004
6.000	113.025	80.011	19.994	103.665	19.996	-0.030	0.021
8.000	113.010	80.011	19.994	103.668	19.997	-0.092	-0.040
10.000	113.040	80.010	19.994	103.667	19.999	-0.222	-0.012
12.000	113.019	80.010	19.994	103.679	19.997	-0.075	0.009
14.000	113.004	80.010	19.993	103.678	19.994	0.126	0.021
16.000	113.015	80.009	19.995	103.680	19.999	-0.235	-0.006
18.000	113.028	80.008	19.995	103.671	19.997	-0.085	0.031
20.000	113.031	80.007	19.992	103.669	19.995	0.030	0.019
22.000	113.039	80.009	19.993	103.668	19.992	0.231	0.002
24.000	113.048	80.006	19.993	103.615	19.993	0.158	-0.020
26.000	113.064	80.007	19.993	103.735	19.990	0.371	-0.003
28.000	113.142	80.007	19.993	103.736	19.987	0.574	0.039
30.000	113.187	80.007	19.993	103.713	19.986	0.638	0.029
32.000	113.211	80.008	19.994	103.725	19.986	0.689	-0.001
33.999	113.242	80.008	19.993	103.752	19.980	1.072	0.004
35.999	113.338	80.008	19.993	103.775	19.978	1.192	0.037
37.999	113.455	80.009	19.993	103.780	19.975	1.426	0.059
39.999	113.519	80.009	19.993	103.793	19.971	1.721	0.010
41.999	113.657	80.006	19.993	103.825	19.968	1.936	0.044
43.999	113.883	80.008	19.993	103.831	19.968	1.893	0.110
45.999	114.044	80.008	19.994	103.829	19.966	2.042	0.109
47.999	114.276	80.007	19.993	103.825	19.965	2.104	0.130
49.999	114.494	80.008	19.993	103.828	19.969	1.812	0.130
51.999	114.764	80.009	19.993	103.821	19.967	2.010	0.162
53.999	115.009	80.009	19.993	103.825	19.964	2.217	0.148
55.999	115.316	80.008	19.994	103.844	19.965	2.150	0.170
57.999	115.631	80.008	19.993	103.842	19.960	2.485	0.146
59.999	116.008	80.011	19.994	103.833	19.961	2.428	0.183
61.999	116.346	80.010	19.994	103.840	19.959	2.534	0.182
64.001	116.692	80.009	19.994	103.847	19.957	2.646	0.192
65.999	117.091	80.010	19.993	103.864	19.958	2.580	0.184
67.999	117.553	80.011	19.993	103.861	19.957	2.686	0.200
69.999	117.905	80.009	19.994	103.863	19.955	2.838	0.188
71.999	118.386	80.009	19.993	103.866	19.954	2.882	0.208
73.999	118.876	80.009	19.994	103.869	19.955	2.846	0.219
75.999	119.334	80.008	19.994	103.898	19.951	3.084	0.210
77.999	119.864	80.009	19.995	103.903	19.950	3.157	0.309
79.999	120.396	80.008	19.994	103.902	19.949	3.219	0.273
81.999	120.957	80.008	19.994	103.906	19.946	3.408	0.327
83.999	121.526	80.011	19.994	103.903	19.945	3.489	0.309
85.999	122.118	80.010	19.994	103.911	19.944	3.608	0.290
88.000	122.764	80.010	19.993	103.908	19.947	3.395	0.314
90.001	123.367	80.011	19.993	103.909	19.946	3.439	0.291
91.999	123.982	80.011	19.993	103.907	19.945	3.486	0.317
93.999	124.714	80.010	19.993	103.912	19.945	3.520	0.324
95.999	125.405	80.009	19.994	103.913	19.945	3.494	0.351
97.999	126.067	80.009	19.994	103.921	19.943	3.625	0.350
99.999	126.763	80.009	19.995	103.931	19.943	3.618	0.328
101.999	127.498	80.006	19.995	103.941	19.941	3.774	0.367
103.999	128.274	80.008	19.995	103.942	19.943	3.611	0.395
106.000	129.055	80.008	19.994	103.935	19.942	3.695	0.397
107.999	129.817	80.007	19.994	103.942	19.942	3.727	0.378
109.999	130.594	80.006	19.994	103.927	19.941	3.810	0.401
112.000	131.382	80.007	19.995	103.940	19.945	3.480	0.394
113.999	132.273	80.008	19.994	103.942	19.943	3.629	0.431
115.999	133.036	80.009	19.994	103.942	19.943	3.660	0.400
117.999	133.920	80.008	19.995	103.936	19.941	3.773	0.409
119.999	134.782	80.009	19.994	103.932	19.939	3.891	0.433
121.999	135.634	80.008	19.993	103.941	19.942	3.716	0.448
124.000	136.486	80.009	19.995	103.939	19.937	4.086	0.454
125.999	137.391	80.008	19.993	103.941	19.940	3.863	0.463
128.000	138.309	80.008	19.994	103.942	19.940	3.882	0.479
130.000	139.176	80.008	19.993	103.940	19.938	3.969	0.456
132.000	140.103	80.008	19.994	103.942	19.938	3.980	0.479
134.000	141.059	80.007	19.993	103.942	19.937	4.042	0.473
136.000	141.996	80.007	19.993	103.942	19.938	4.004	0.473
138.000	142.901	80.008	19.994	103.943	19.940	3.863	0.464
140.000	143.894	80.008	19.994	103.944	19.938	4.008	0.483
142.000	144.865	80.009	19.994	103.935	19.938	3.993	0.487
144.000	145.863	80.009	19.995	103.940	19.938	3.986	0.508
146.000	146.853	80.009	19.993	103.938	19.942	3.733	0.488
148.000	147.819	80.011	19.993	103.940	19.941	3.776	0.481
150.000	148.823	80.010	19.993	103.941	19.942	3.712	0.510
152.000	149.810	80.009	19.993	103.938	19.946	3.448	0.497
154.000	150.834	80.010	19.994	103.940	19.946	3.452	0.509
156.000	151.836	80.009	19.994	103.940	19.947	3.372	0.492
158.000	152.876	80.010	19.994	103.936	19.946	3.418	0.524
160.000	153.933	80.010	19.992	103.936	19.944	3.544	0.563
162.000	154.894	80.010	19.994	103.924	19.947	3.363	0.519
164.000	155.903	80.010	19.993	103.927	19.946	3.413	0.494
166.000	156.965	80.011	19.993	103.925	19.945	3.494	0.493
168.000	157.989	80.009	19.994	103.916	19.945	3.479	0.533
170.000	159.044	80.009	19.993	103.922	19.947	3.370	0.559
172.000	160.044	80.010	19.993	103.915	19.949	3.253	0.478
174.000	161.036	80.010	19.993	103.909	19.948	3.326	0.478
176.000	162.093	80.010	19.994	103.906	19.945	3.519	0.525
178.000	163.097	80.009	19.994	103.906	19.946	3.413	0.516
180.000	164.137	80.010	19.995	103.908	19.951	3.106	0.526
182.000	165.199	80.009	19.994	103.913	19.947	3.340	0.506
184.000	166.197	80.008	19.995	103.904	19.949	3.260	0.486
186.000	167.235	80.008	19.993	103.903	19.951	3.077	0.507
188.000	168.233	80.008	19.993	103.903	19.948	3.325	0.493
190.000	169.258	80.009	19.994	103.903	19.949	3.236	0.516
192.000	170.275	80.007	19.993	103.901	19.948	3.302	0.506
194.000	171.285	80.008	19.994	103.903	19.941	3.794	0.538
196.000	172.309	80.008	19.994	103.898	19.946	3.447	0.494
198.000	173.314	80.008	19.993	103.900	19.950	3.149	0.514
200.000	174.353	80.008	19.994	103.902	19.949	3.203	0.505
202.000	175.291	80.008	19.994	103.895	19.948	3.271	0.487
204.000	176.313	80.008	19.994	103.890	19.950	3.183	0.480
206.000	177.345	80.008	19.995	103.893	19.950	3.181	0.530
208.000	178.316	80.008	19.995	103.891	19.950	3.165	0.513
210.000	179.314	80.007	19.995	103.883	19.947	3.367	0.533
212.000	180.307	80.009	19.994	103.872	19.949	3.248	0.501
214.000	181.390	80.007	19.993	103.878	19.952	3.022	0.517
216.000	182.394	80.008	19.994	103.878	19.952	3.045	0.498
218.000	183.375	80.008	19.992	103.879	19.955	2.811	0.504
220.000	184.374	80.007	19.994	103.874	19.951	3.060	0.479
222.000	185.352	80.009	19.993	103.878	19.953	2.921	0.508
224.000	186.424	80.008	19.994	103.878	19.953	2.935	0.529
226.000	187.392	80.008	19.994	103.874	19.955	2.781	0.489
228.000	188.436	80.009	19.993	103.872	19.956	2.726	0.534
230.000	189.441	80.009	19.992	103.870	19.954	2.862	0.530
232.000	190.436	80.009	19.994	103.878	19.957	2.664	0.513
234.000	191.403	80.010	19.993	103.875	19.956	2.726	0.507
236.000	192.375	80.009	19.992	103.868	19.956	2.713	0.483
238.000	193.385	80.009	19.995	103.874	19.956	2.738	0.532
240.000	194.389	80.008	19.993	103.878	19.958	2.607	0.509
242.000	195.378	80.008	19.993	103.883	19.954	2.866	0.515
244.000	196.328	80.008	19.994	103.871	19.957	2.670	0.473
246.000	197.312	80.008	19.993	103.872	19.953	2.939	0.522
248.000	198.349	80.010	19.993	103.871	19.956	2.709	0.502
250.000	199.327	80.011	19.993	103.868	19.954	2.913	0.507
252.000	200.272	80.011	19.992	103.865	19.951	3.120	0.493
254.000	201.283	80.012	19.993	103.869	19.952	3.037	0.515
256.000	202.281	80.012	19.993	103.867	19.955	2.800	0.508
258.000	203.293	80.011	19.992	103.867	19.952	3.018	0.512
260.000	204.244	80.010	19.994	103.865	19.951	3.067	0.456
262.000	205.242	80.011	19.992	103.863	19.952	3.022	0.506
264.000	206.227	80.011	19.992	103.864	19.953	2.945	0.503
266.000	207.231	80.009	19.994	103.871	19.953	2.937	0.484
268.000	208.213	80.008	19.993	103.867	19.949	3.218	0.473
270.000	209.170	80.009	19.994	103.870	19.951	3.056	0.469
272.000	210.190	80.008	19.994	103.867	19.954	2.862	0.479
274.000	211.131	80.009	19.994	103.863	19.952	2.984	0.471
276.000	212.135	80.007	19.994	103.866	19.953	2.975	0.497
278.000	213.142	80.008	19.993	103.873	19.954	2.909	0.508
280.000	214.170	80.007	19.992	103.864	19.955	2.834	0.511
282.000	215.160	80.009	19.993	103.863	19.954	2.882	0.516
284.000	216.110	80.009	19.993	103.864	19.956	2.739	0.473
286.000	217.074	80.009	19.993	103.867	19.956	2.762	0.486
288.000	218.080	80.008	19.993	103.866	19.956	2.769	0.478
290.000	219.119	80.007	19.993	103.866	19.955	2.783	0.530
292.000	220.075	80.009	19.994	103.863	19.957	2.664	0.499
294.000	221.062	80.007	19.994	103.861	19.955	2.815	0.454
296.000	222.091	80.008	19.994	103.863	19.956	2.709	0.516
298.000	223.111	80.010	19.994	103.866	19.955	2.790	0.536
300.000	224.094	80.007	19.995	103.864	19.958	2.574	0.514
302.000	225.121	80.007	19.995	103.860	19.957	2.667	0.499
304.000	226.067	80.007	19.994	103.862	19.956	2.717	0.493
306.000	227.057	80.007	19.994	103.867	19.959	2.549	0.455
308.000	228.084	80.007	19.995	103.863	19.959	2.523	0.524
310.000	229.114	80.008	19.994	103.862	19.956	2.707	0.525
312.000	230.099	80.008	19.994	103.858	19.955	2.790	0.487
314.000	231.100	80.010	19.993	103.851	19.955	2.811	0.500
316.000	232.042	80.009	19.993	103.864	19.954	2.899	0.488
318.000	233.063	80.009	19.993	103.858	19.956	2.713	0.488
320.000	234.061	80.010	19.993	103.853	19.955	2.833	0.467
322.000	235.052	80.010	19.994	103.845	19.954	2.880	0.474
324.000	236.045	80.009	19.993	103.862	19.952	3.026	0.509
326.000	237.044	80.009	19.992	103.860	19.956	2.747	0.491
328.000	238.011	80.009	19.992	103.861	19.955	2.833	0.496
330.000	239.007	80.009	19.993	103.858	19.955	2.809	0.487
332.000	240.021	80.009	19.993	103.859	19.950	3.129	0.515
334.000	240.983	80.010	19.993	103.863	19.952	3.033	0.463
336.000	242.011	80.008	19.994	103.864	19.960	2.470	0.515
338.000	242.997	80.011	19.993	103.864	19.952	3.005	0.504
340.000	244.028	80.010	19.992	103.861	19.955	2.827	0.509
342.000	244.982	80.010	19.993	103.861	19.953	2.920	0.488
344.000	245.982	80.010	19.992	103.861	19.956	2.733	0.520
346.000	246.970	80.011	19.992	103.854	19.951	3.106	0.491
348.000	247.933	80.010	19.993	103.852	19.953	2.959	0.469
350.000	248.992	80.009	19.991	103.850	19.954	2.881	0.539
352.000	249.995	80.007	19.993	103.844	19.954	2.903	0.495
354.000	250.997	80.008	19.994	103.847	19.955	2.808	0.491
356.000	252.021	80.008	19.993	103.846	19.954	2.905	0.491
358.000	253.029	80.008	19.991	103.846	19.956	2.722	0.529
360.000	253.987	80.007	19.992	103.856	19.953	2.929	0.462
362.000	254.971	80.008	19.993	103.858	19.957	2.647	0.501
364.000	255.970	80.008	19.993	103.840	19.956	2.746	0.522
366.000	256.977	80.008	19.993	103.848	19.954	2.880	0.489
368.000	258.027	80.008	19.994	103.850	19.947	3.330	0.533
370.000	258.975	80.007	19.993	103.852	19.953	2.919	0.500
372.000	260.025	80.007	19.994	103.856	19.953	2.925	0.491
374.000	261.040	80.006	19.994	103.841	19.956	2.767	0.526
376.000	262.039	80.008	19.993	103.847	19.954	2.901	0.511
378.000	263.004	80.008	19.992	103.840	19.949	3.232	0.507
380.000	263.979	80.007	19.994	103.837	19.952	3.050	0.495
382.000	264.977	80.007	19.993	103.835	19.954	2.874	0.506
384.000	265.986	80.008	19.994	103.835	19.954	2.852	0.498
386.000	266.981	80.008	19.993	103.860	19.953	2.929	0.507
388.000	268.002	80.007	19.993	103.846	19.954	2.883	0.481
390.000	269.016	80.007	19.994	103.836	19.953	2.944	0.490
392.000	269.991	80.007	19.993	103.853	19.951	3.068	0.509
394.001	271.015	80.007	19.994	103.842	19.955	2.810	0.537
396.000	272.097	80.009	19.993	103.841	19.952	3.042	0.492
398.000	273.050	80.009	19.993	103.832	19.954	2.870	0.479
400.000	274.044	80.008	19.994	103.830	19.952	2.995	0.495
402.000	275.028	80.008	19.994	103.838	19.956	2.757	0.498
404.000	276.014	80.010	19.994	103.832	19.953	2.932	0.485
406.000	277.055	80.009	19.994	103.829	19.953	2.957	0.518
408.000	278.105	80.009	19.994	103.825	19.951	3.115	0.506
410.000	279.111	80.010	19.995	103.827	19.953	2.952	0.478
412.000	280.129	80.009	19.992	103.828	19.954	2.874	0.510
414.000	281.059	80.010	19.992	103.827	19.951	3.070	0.482
416.000	282.089	80.010	19.992	103.836	19.950	3.141	0.487
418.000	283.084	80.010	19.993	103.841	19.955	2.818	0.499
420.000	284.099	80.011	19.995	103.843	19.951	3.098	0.499
422.000	285.097	80.010	19.994	103.837	19.948	3.277	0.530
424.000	286.091	80.009	19.994	103.827	19.951	3.091	0.492
426.000	287.099	80.010	19.993	103.829	19.949	3.202	0.480
428.000	288.088	80.010	19.992	103.830	19.951	3.098	0.509
430.000	289.085	80.009	19.993	103.831	19.949	3.239	0.465
432.000	290.078	80.009	19.993	103.834	19.950	3.157	0.485
434.000	291.069	80.007	19.994	103.826	19.949	3.253	0.491
436.000	292.037	80.006	19.993	103.828	19.950	3.147	0.488
438.000	293.060	80.007	19.994	103.830	19.949	3.243	0.520
440.000	294.051	80.008	19.993	103.830	19.950	3.181	0.527
442.000	295.102	80.008	19.992	103.829	19.952	3.019	0.526
444.000	296.088	80.008	19.993	103.830	19.950	3.124	0.496
446.000	297.077	80.009	19.994	103.831	19.951	3.119	0.482
448.000	298.091	80.010	19.993	103.832	19.953	2.957	0.521
450.000	299.085	80.008	19.993	103.829	19.948	3.322	0.482
452.000	300.088	80.008	19.993	103.826	19.949	3.209	0.472
454.000	301.110	80.010	19.992	103.830	19.952	3.023	0.524
456.000	302.083	80.010	19.993	103.827	19.950	3.170	0.509
458.000	303.134	80.010	19.993	103.828	19.952	3.047	0.513
460.000	304.099	80.010	19.993	103.824	19.948	3.313	0.450
462.000	305.079	80.007	19.994	103.824	19.947	3.345	0.467
464.000	306.117	80.008	19.993	103.826	19.950	3.122	0.496
466.000	307.139	80.007	19.993	103.825	19.949	3.239	0.522
468.000	308.138	80.009	19.994	103.824	19.950	3.177	0.527
470.000	309.130	80.008	19.994	103.827	19.953	2.945	0.473
472.000	310.126	80.008	19.995	103.826	19.952	3.041	0.488
474.000	311.137	80.008	19.994	103.827	19.952	3.004	0.522
476.000	312.159	80.009	19.994	103.825	19.952	3.028	0.512
478.000	313.193	80.009	19.993	103.824	19.953	2.919	0.515
480.000	314.230	80.009	19.994	103.825	19.952	3.051	0.520
482.000	315.237	80.010	19.994	103.826	19.953	2.955	0.497
484.000	316.248	80.010	19.993	103.824	19.948	3.284	0.527
486.000	317.254	80.008	19.994	103.824	19.950	3.149	0.494
488.000	318.229	80.008	19.993	103.821	19.947	3.360	0.466
490.000	319.242	80.009	19.994	103.824	19.946	3.424	0.521
492.000	320.266	80.007	19.994	103.822	19.944	3.563	0.516
494.000	321.232	80.007	19.995	103.824	19.945	3.476	0.467
496.000	322.245	80.007	19.994	103.824	19.947	3.375	0.513
498.000	323.197	80.007	19.994	103.826	19.946	3.405	0.481
500.000	324.245	80.009	19.994	103.821	19.945	3.527	0.515
502.000	325.213	80.009	19.993	103.822	19.946	3.422	0.499
504.000	326.250	80.008	19.994	103.820	19.949	3.205	0.512
506.000	327.224	80.010	19.993	103.818	19.943	3.606	0.486
508.000	328.194	80.010	19.993	103.825	19.946	3.414	0.466
510.000	329.184	80.010	19.993	103.827	19.944	3.550	0.511
512.000	330.249	80.010	19.992	103.827	19.946	3.403	0.480
514.000	331.193	80.008	19.994	103.825	19.946	3.402	0.485
516.000	332.218	80.009	19.993	103.814	19.944	3.557	0.496
518.000	333.252	80.010	19.993	103.820	19.943	3.636	0.515
520.000	334.318	80.008	19.993	103.824	19.945	3.499	0.509
522.000	335.291	80.008	19.993	103.823	19.945	3.471	0.523
524.000	336.305	80.008	19.994	103.812	19.947	3.380	0.502
526.000	337.337	80.008	19.994	103.807	19.945	3.521	0.510
528.000	338.335	80.008	19.995	103.813	19.947	3.359	0.515
530.000	339.338	80.011	19.993	103.820	19.945	3.495	0.496
532.000	340.351	80.008	19.993	103.822	19.946	3.440	0.514
534.000	341.391	80.007	19.993	103.822	19.948	3.305	0.518
536.000	342.394	80.009	19.994	103.825	19.946	3.465	0.523
538.000	343.371	80.008	19.992	103.813	19.943	3.637	0.460
540.000	344.344	80.009	19.994	103.820	19.948	3.309	0.490
542.000	345.415	80.009	19.993	103.820	19.943	3.610	0.512
544.000	346.458	80.008	19.994	103.808	19.947	3.345	0.537
546.000	347.460	80.008	19.993	103.818	19.948	3.316	0.475
548.000	348.458	80.007	19.993	103.825	19.944	3.551	0.488
550.000	349.473	80.008	19.995	103.821	19.946	3.410	0.499
552.000	350.491	80.009	19.993	103.819	19.943	3.664	0.495
554.000	351.486	80.007	19.992	103.827	19.942	3.677	0.522
556.000	352.547	80.008	19.993	103.823	19.945	3.513	0.547
558.000	353.602	80.009	19.992	103.811	19.942	3.693	0.571
560.000	354.569	80.008	19.994	103.805	19.944	3.561	0.478
562.000	355.562	80.010	19.993	103.800	19.943	3.652	0.484
564.000	356.607	80.010	19.995	103.816	19.939	3.902	0.528
566.000	357.596	80.007	19.993	103.799	19.940	3.867	0.521
568.000	358.625	80.009	19.993	103.812	19.941	3.759	0.530
570.000	359.636	80.009	19.994	103.819	19.938	3.975	0.508
572.000	360.671	80.010	19.994	103.817	19.941	3.762	0.520
574.000	361.662	80.010	19.993	103.821	19.944	3.564	0.520
576.000	362.670	80.008	19.993	103.803	19.945	3.517	0.495
578.000	363.640	80.008	19.993	103.812	19.944	3.595	0.495
580.000	364.646	80.009	19.993	103.811	19.939	3.888	0.494
582.000	365.663	80.007	19.993	103.803	19.942	3.730	0.504
584.000	366.660	80.009	19.994	103.801	19.942	3.713	0.485
586.000	367.698	80.011	19.994	103.791	19.944	3.566	0.516
588.000	368.684	80.010	19.993	103.808	19.941	3.749	0.526
590.000	369.740	80.012	19.992	103.798	19.942	3.712	0.527
592.000	370.694	80.010	19.995	103.812	19.943	3.623	0.518
594.000	371.684	80.011	19.994	103.808	19.941	3.781	0.467
596.000	372.713	80.010	19.994	103.797	19.939	3.896	0.521
598.000	373.700	80.009	19.994	103.792	19.941	3.766	0.502
600.000	374.700	80.008	19.995	103.803	19.941	3.768	0.514
602.000	375.692	80.010	19.994	103.811	19.940	3.852	0.491
604.000	376.709	80.009	19.995	103.807	19.941	3.796	0.509
606.000	377.713	80.009	19.994	103.804	19.939	3.905	0.496
608.000	378.700	80.010	19.994	103.806	19.939	3.901	0.480
610.000	379.722	80.009	19.993	103.808	19.934	4.234	0.517
612.000	380.750	80.007	19.993	103.797	19.937	4.029	0.514
614.000	381.727	80.009	19.993	103.793	19.938	3.978	0.487
616.000	382.763	80.008	19.993	103.807	19.937	4.082	0.505
618.000	383.755	80.009	19.994	103.797	19.935	4.195	0.514
620.000	384.790	80.009	19.993	103.796	19.936	4.104	0.519
622.000	385.770	80.009	19.993	103.803	19.935	4.195	0.512
624.000	386.725	80.009	19.993	103.794	19.937	4.076	0.441
626.000	387.744	80.007	19.993	103.798	19.935	4.197	0.486
628.000	388.754	80.008	19.994	103.795	19.936	4.095	0.494
630.000	389.770	80.008	19.993	103.794	19.936	4.158	0.495
632.000	390.762	80.010	19.993	103.798	19.940	3.872	0.450
634.000	391.751	80.007	19.993	103.811	19.942	3.725	0.489
636.000	392.802	80.008	19.993	103.797	19.938	4.010	0.467
638.000	393.833	80.009	19.992	103.797	19.943	3.621	0.515
640.000	394.894	80.007	19.993	103.808	19.942	3.686	0.559
642.000	395.890	80.009	19.992	103.810	19.943	3.654	0.487
644.000	396.909	80.009	19.993	103.819	19.935	4.227	0.560
646.000	397.902	80.011	19.993	103.809	19.938	3.952	0.526
648.000	399.025	80.010	19.993	103.804	19.935	4.174	0.490
650.000	399.937	80.008	19.992	103.796	19.934	4.237	0.491
652.000	401.181	80.010	19.993	103.801	19.932	4.366	0.545
654.000	402.280	80.009	19.993	103.795	19.933	4.302	0.682
656.000	403.352	80.009	19.993	103.789	19.932	4.404	0.483
658.000	404.052	80.009	19.993	103.795	19.937	4.052	0.605
660.000	405.078	80.020	19.996	103.803	19.934	4.296	0.484
662.000	406.041	80.007	19.994	103.810	19.933	4.336	0.548
664.000	407.030	80.009	19.994	103.799	19.935	4.171	0.501
666.000	408.054	80.010	19.993	103.789	19.935	4.163	0.443
668.000	409.115	80.009	19.994	103.800	19.940	3.829	0.498
670.000	410.077	80.011	19.994	103.793	19.938	3.965	0.543
672.000	411.101	80.012	19.994	103.786	19.937	4.048	0.506
674.000	412.057	80.010	19.994	103.797	19.935	4.202	0.540
676.000	413.114	80.010	19.993	103.803	19.938	4.020	0.471
678.000	414.122	80.010	19.994	103.789	19.934	4.240	0.520
680.000	415.113	80.009	19.994	103.788	19.932	4.387	0.503
682.000	416.129	80.009	19.993	103.793	19.934	4.247	0.513
684.000	417.159	80.007	19.993	103.798	19.934	4.260	0.498
686.000	418.167	80.008	19.995	103.796	19.933	4.315	0.529
688.000	419.162	80.007	19.995	103.799	19.934	4.285	0.510
690.000	420.199	80.007	19.994	103.792	19.932	4.366	0.525
692.000	421.209	80.007	19.994	103.792	19.929	4.595	0.515
694.000	422.210	80.007	19.995	103.788	19.933	4.342	0.519
696.000	423.204	80.009	19.993	103.792	19.935	4.193	0.490
698.000	424.220	80.009	19.993	103.790	19.934	4.284	0.495
700.000	425.240	80.008	19.992	103.795	19.933	4.346	0.512
702.000	426.223	80.008	19.993	103.792	19.928	4.707	0.486
704.000	427.277	80.009	19.992	103.794	19.930	4.553	0.518
706.000	428.301	80.007	19.992	103.806	19.932	4.383	0.521
708.000	429.319	80.008	19.992	103.806	19.935	4.211	0.521
710.000	430.351	80.007	19.993	103.809	19.933	4.319	0.485
712.000	431.395	80.007	19.992	103.804	19.932	4.405	0.508
714.000	432.397	80.008	19.993	103.796	19.932	4.396	0.512
716.000	433.482	80.007	19.993	103.799	19.929	4.635	0.528
718.000	434.529	80.007	19.992	103.793	19.929	4.583	0.534
720.000	435.551	80.007	19.994	103.789	19.932	4.386	0.526
722.000	436.595	80.008	19.994	103.792	19.932	4.394	0.529
724.000	437.612	80.009	19.994	103.787	19.932	4.383	0.500
726.000	438.638	80.008	19.993	103.787	19.933	4.302	0.523
728.000	439.677	80.012	19.993	103.795	19.930	4.556	0.527
730.000	440.725	80.010	19.993	103.789	19.925	4.866	0.520
732.000	441.733	80.011	19.994	103.786	19.929	4.639	0.495
734.000	442.789	80.013	19.992	103.786	19.933	4.364	0.527
736.000	443.780	80.012	19.993	103.785	19.930	4.531	0.501
738.000	444.825	80.010	19.992	103.786	19.932	4.432	0.499
740.000	445.856	80.011	19.994	103.785	19.932	4.428	0.521
742.000	446.858	80.011	19.993	103.785	19.931	4.501	0.492
744.000	447.872	80.010	19.993	103.785	19.930	4.520	0.489
746.000	448.903	80.010	19.992	103.785	19.933	4.360	0.518
748.000	449.911	80.012	19.993	103.787	19.932	4.401	0.497
750.000	450.921	80.011	19.993	103.784	19.931	4.467	0.516
752.000	451.962	80.010	19.993	103.788	19.932	4.367	0.510
754.000	452.963	80.010	19.993	103.789	19.932	4.422	0.528
756.000	453.964	80.009	19.993	103.787	19.932	4.379	0.517
758.000	454.986	80.013	19.992	103.788	19.936	4.108	0.496
760.000	455.972	80.011	19.993	103.787	19.934	4.268	0.489
762.000	457.004	80.012	19.993	103.785	19.935	4.204	0.526
764.000	458.009	80.010	19.994	103.785	19.936	4.106	0.492
766.000	459.063	80.007	19.992	103.787	19.935	4.194	0.511
768.000	460.069	80.007	19.993	103.787	19.933	4.305	0.509
770.000	461.103	80.008	19.993	103.792	19.931	4.464	0.512
772.000	462.134	80.008	19.994	103.790	19.932	4.401	0.509
774.000	463.135	80.008	19.993	103.788	19.932	4.371	0.506
776.000	464.173	80.009	19.993	103.788	19.932	4.371	0.493
778.000	465.205	80.007	19.993	103.788	19.935	4.177	0.547
780.000	466.202	80.008	19.994	103.788	19.934	4.228	0.526
782.000	467.214	80.007	19.995	103.788	19.937	4.023	0.523
784.000	468.252	80.008	19.994	103.784	19.937	4.051	0.519
786.000	469.290	80.008	19.994	103.784	19.938	3.991	0.528
788.000	470.348	80.008	19.995	103.783	19.934	4.268	0.530
790.000	471.372	80.008	19.994	103.782	19.936	4.134	0.511
792.000	472.434	80.008	19.994	103.782	19.939	3.893	0.518
794.000	473.493	80.008	19.995	103.783	19.935	4.183	0.535
796.000	474.566	80.007	19.994	103.780	19.933	4.341	0.514
798.000	475.620	80.008	19.993	103.782	19.938	4.002	0.494
800.000	476.694	80.008	19.993	103.785	19.939	3.897	0.536
802.000	477.746	80.009	19.994	103.785	19.940	3.859	0.517
804.000	478.784	80.009	19.993	103.786	19.942	3.714	0.506
806.000	479.829	80.010	19.993	103.786	19.941	3.795	0.488
808.000	480.899	80.009	19.993	103.784	19.941	3.750	0.536
810.000	481.944	80.011	19.993	103.790	19.941	3.771	0.518
812.000	482.964	80.010	19.993	103.785	19.942	3.714	0.524
814.000	484.026	80.011	19.993	103.787	19.944	3.541	0.539
816.000	485.078	80.011	19.992	103.783	19.945	3.499	0.519
818.000	486.190	80.010	19.993	103.787	19.947	3.374	0.555
820.000	487.187	80.010	19.993	103.786	19.947	3.362	0.514
822.000	488.237	80.009	19.992	103.787	19.948	3.315	0.523
824.000	489.228	80.009	19.993	103.783	19.945	3.473	0.526
826.000	490.306	80.009	19.993	103.782	19.946	3.460	0.505
828.000	491.346	80.008	19.992	103.779	19.944	3.590	0.533
830.000	492.380	80.010	19.993	103.787	19.948	3.324	0.498
832.000	493.422	80.009	19.992	103.788	19.946	3.409	0.544
834.000	494.508	80.010	19.991	103.783	19.951	3.110	0.522
836.000	495.519	80.012	19.992	103.781	19.951	3.112	0.532
838.000	496.569	80.011	19.992	103.791	19.947	3.336	0.499
840.000	497.571	80.011	19.994	103.782	19.951	3.102	0.512
842.000	498.604	80.012	19.992	103.788	19.950	3.187	0.523
844.000	499.650	80.011	19.992	103.782	19.948	3.302	0.544
846.000	500.682	80.010	19.992	103.780	19.948	3.308	0.522
848.000	501.708	80.008	19.992	103.782	19.946	3.432	0.518
850.000	502.731	80.008	19.993	103.778	19.950	3.136	0.524
852.000	503.731	80.009	19.993	103.772	19.948	3.274	0.514
854.000	504.757	80.008	19.994	103.776	19.952	3.046	0.493
856.000	505.784	80.008	19.993	103.782	19.949	3.200	0.494
858.000	506.758	80.009	19.994	103.777	19.950	3.129	0.492
860.000	507.752	80.008	19.993	103.780	19.950	3.179	0.497
862.000	508.761	80.007	19.993	103.780	19.949	3.206	0.507
864.000	509.776	80.010	19.992	103.786	19.951	3.074	0.513
866.000	510.739	80.009	19.993	103.777	19.948	3.288	0.493
868.000	511.776	80.010	19.994	103.771	19.948	3.290	0.498
870.000	512.746	80.010	19.992	103.781	19.951	3.119	0.474
872.000	513.750	80.009	19.993	103.774	19.950	3.168	0.497
874.000	514.789	80.009	19.993	103.773	19.948	3.285	0.521
876.000	515.818	80.008	19.994	103.772	19.948	3.298	0.510
878.000	516.788	80.009	19.994	103.774	19.952	2.999	0.503
880.000	517.817	80.008	19.994	103.767	19.950	3.123	0.500
882.000	518.809	80.007	19.994	103.776	19.951	3.106	0.503
884.000	519.787	80.008	19.994	103.777	19.946	3.456	0.467
886.000	520.801	80.005	19.994	103.787	19.947	3.345	0.474
888.000	521.795	80.007	19.994	103.786	19.948	3.268	0.510
890.000	522.846	80.008	19.994	103.783	19.950	3.148	0.512
892.000	523.884	80.008	19.993	103.779	19.946	3.432	0.541
894.000	524.873	80.010	19.993	103.783	19.945	3.526	0.530
896.000	525.918	80.010	19.993	103.780	19.950	3.150	0.516
898.000	526.920	80.011	19.993	103.774	19.946	3.421	0.521
900.000	527.958	80.010	19.994	103.779	19.947	3.347	0.541
902.000	528.979	80.009	19.992	103.788	19.944	3.590	0.529
904.000	530.007	80.009	19.992	103.778	19.945	3.528	0.504
906.000	531.064	80.010	19.992	103.777	19.946	3.441	0.515
908.000	532.098	80.009	19.993	103.785	19.943	3.644	0.500
910.000	533.146	80.009	19.992	103.781	19.947	3.337	0.529
912.000	534.144	80.010	19.994	103.785	19.948	3.300	0.469
914.000	535.219	80.009	19.992	103.775	19.948	3.281	0.485
916.000	536.254	80.010	19.994	103.779	19.948	3.270	0.506
918.000	537.298	80.010	19.993	103.780	19.947	3.385	0.506
920.000	538.322	80.011	19.993	103.773	19.950	3.148	0.482
922.000	539.366	80.013	19.993	103.776	19.948	3.258	0.514
924.000	540.435	80.012	19.992	103.771	19.950	3.156	0.514
926.000	541.450	80.010	19.993	103.773	19.949	3.213	0.522
928.000	542.501	80.011	19.993	103.781	19.948	3.279	0.534
930.000	543.545	80.010	19.992	103.784	19.946	3.425	0.503
932.000	544.554	80.009	19.992	103.775	19.948	3.318	0.527
934.000	545.610	80.009	19.993	103.770	19.952	2.993	0.523
936.000	546.595	80.007	19.992	103.768	19.949	3.247	0.468
938.000	547.660	80.008	19.993	103.777	19.951	3.087	0.541
940.000	548.678	80.008	19.993	103.771	19.949	3.215	0.515
942.000	549.692	80.010	19.992	103.754	19.951	3.053	0.509
944.000	550.731	80.008	19.992	103.768	19.950	3.162	0.509
946.000	551.766	80.009	19.993	103.779	19.951	3.053	0.496
948.000	552.821	80.008	19.993	103.761	19.949	3.205	0.501
950.000	553.907	80.008	19.993	103.772	19.947	3.384	0.527
952.000	554.931	80.009	19.994	103.767	19.950	3.181	0.517
954.000	555.966	80.008	19.993	103.758	19.949	3.238	0.538
956.000	557.007	80.008	19.993	103.777	19.948	3.315	0.541
958.000	558.025	80.009	19.993	103.772	19.951	3.089	0.509
960.000	559.076	80.009	19.996	103.769	19.949	3.218	0.521
962.000	560.059	80.008	19.994	103.764	19.954	2.901	0.491
964.000	561.087	80.008	19.993	103.769	19.953	2.954	0.509
966.000	562.134	80.008	19.992	103.781	19.947	3.330	0.513
968.000	563.146	80.006	19.993	103.781	19.950	3.157	0.502
970.000	564.150	80.007	19.995	103.752	19.952	3.042	0.511
972.000	565.163	80.008	19.993	103.765	19.951	3.063	0.517
974.000	566.179	80.007	19.993	103.786	19.952	2.987	0.498
976.000	567.221	80.009	19.994	103.776	19.950	3.166	0.502
978.000	568.185	80.009	19.994	103.777	19.948	3.281	0.493
980.000	569.169	80.007	19.994	103.770	19.945	3.511	0.522
982.000	570.240	80.010	19.994	103.773	19.948	3.279	0.523
984.000	571.224	80.009	19.993	103.767	19.948	3.311	0.494
986.000	572.238	80.009	19.994	103.768	19.949	3.206	0.486
988.000	573.230	80.009	19.994	103.781	19.953	2.976	0.496
990.000	574.311	80.009	19.993	103.780	19.948	3.258	0.521
992.000	575.335	80.011	19.993	103.775	19.950	3.128	0.523
994.000	576.344	80.010	19.992	103.766	19.952	3.023	0.514
996.000	577.343	80.009	19.993	103.768	19.951	3.119	0.498
998.000	578.396	80.011	19.994	103.763	19.952	3.045	0.531
1000.000	579.383	80.011	19.994	103.773	19.951	3.054	0.514
1002.000	580.425	80.012	19.994	103.778	19.950	3.175	0.546
1004.000	581.432	80.010	19.993	103.771	19.949	3.213	0.508
1006.000	582.451	80.011	19.992	103.771	19.950	3.162	0.506
1008.000	583.448	80.012	19.993	103.760	19.948	3.303	0.526
1010.000	584.473	80.011	19.992	103.747	19.948	3.313	0.482
1012.000	585.491	80.011	19.993	103.765	19.947	3.362	0.498
1014.000	586.468	80.010	19.993	103.759	19.951	3.066	0.480
1016.000	587.501	80.009	19.993	103.769	19.950	3.121	0.507
1018.000	588.519	80.009	19.993	103.770	19.947	3.362	0.508
1020.000	589.588	80.009	19.995	103.777	19.946	3.406	0.501
1022.000	590.550	80.010	19.995	103.776	19.945	3.479	0.515
1024.000	591.552	80.009	19.993	103.763	19.949	3.228	0.494
1025.999	592.614	80.009	19.993	103.776	19.947	3.336	0.542
1027.999	593.635	80.009	19.994	103.779	19.948	3.285	0.504
1029.999	594.665	80.009	19.993	103.777	19.948	3.326	0.515
1031.999	595.709	80.010	19.993	103.786	19.946	3.405	0.517
1033.999	596.724	80.009	19.991	103.776	19.945	3.469	0.526
1036.000	597.786	80.008	19.991	103.772	19.951	3.102	0.512
1037.999	598.825	80.008	19.994	103.770	19.948	3.271	0.515
1039.999	599.836	80.010	19.991	103.785	19.950	3.164	0.549
1041.999	600.874	80.009	19.993	103.775	19.948	3.298	0.521
1043.999	601.912	80.007	19.994	103.765	19.946	3.426	0.500
1045.999	602.926	80.008	19.992	103.762	19.950	3.160	0.495
1048.000	603.974	80.008	19.994	103.777	19.947	3.337	0.545
1050.000	605.021	80.008	19.993	103.774	19.950	3.179	0.542
1051.999	606.104	80.009	19.995	103.772	19.950	3.177	0.537
1053.999	607.164	80.008	19.996	103.777	19.949	3.236	0.526
1056.000	608.175	80.010	19.994	103.767	19.948	3.301	0.534
1057.999	609.240	80.010	19.995	103.764	19.944	3.564	0.532
1059.999	610.293	80.010	19.994	103.752	19.945	3.502	0.535
1061.999	611.304	80.010	19.993	103.759	19.947	3.380	0.495
1063.999	612.388	80.011	19.992	103.763	19.945	3.514	0.552
1065.999	613.407	80.010	19.993	103.762	19.948	3.318	0.537
1067.999	614.427	80.010	19.993	103.754	19.947	3.377	0.504
1069.999	615.467	80.009	19.993	103.750	19.949	3.228	0.509
1072.000	616.466	80.008	19.996	103.752	19.945	3.467	0.503
1074.000	617.494	80.009	19.993	103.764	19.946	3.406	0.526
1075.999	618.533	80.008	19.994	103.755	19.950	3.145	0.495
1077.999	619.569	80.009	19.993	103.768	19.947	3.347	0.526
1079.999	620.624	80.011	19.996	103.759	19.948	3.271	0.520
1081.999	621.652	80.009	19.995	103.770	19.946	3.439	0.517
1084.000	622.691	80.011	19.995	103.754	19.948	3.312	0.502
1086.001	623.721	80.010	19.994	103.755	19.945	3.478	0.525
1087.999	624.736	80.011	19.995	103.765	19.948	3.303	0.527
1089.999	625.822	80.012	19.994	103.759	19.947	3.382	0.542
1091.999	626.803	80.012	19.991	103.765	19.946	3.401	0.509
1093.999	627.839	80.010	19.993	103.756	19.947	3.342	0.528
1096.000	628.858	80.010	19.994	103.755	19.948	3.260	0.505
1097.999	629.828	80.009	19.993	103.753	19.948	3.307	0.455
1099.999	630.863	80.009	19.996	103.757	19.948	3.269	0.500
1101.999	631.864	80.008	19.990	103.762	19.947	3.371	0.474
1104.000	632.880	80.008	19.993	103.762	19.945	3.519	0.507
1105.999	633.874	80.009	19.993	103.755	19.949	3.205	0.486
1107.999	634.917	80.010	19.992	103.761	19.946	3.429	0.510
1109.999	635.964	80.010	19.993	103.764	19.949	3.256	0.530
1112.000	636.930	80.009	19.993	103.749	19.950	3.179	0.500
1113.999	637.973	80.009	19.993	103.756	19.947	3.331	0.515
1115.999	638.985	80.010	19.994	103.753	19.949	3.243	0.508
1117.999	639.972	80.009	19.993	103.753	19.948	3.306	0.502
1119.999	640.981	80.009	19.993	103.756	19.949	3.226	0.509
1121.999	641.998	80.009	19.993	103.749	19.949	3.190	0.539
1123.999	642.996	80.010	19.993	103.757	19.950	3.151	0.498
1125.999	644.011	80.010	19.993	103.759	19.949	3.211	0.506
1127.999	644.983	80.009	19.992	103.771	19.951	3.077	0.509
1129.999	646.022	80.009	19.993	103.782	19.952	3.011	0.515
1131.999	647.012	80.009	19.990	103.768	19.950	3.133	0.519
1134.000	648.041	80.008	19.994	103.766	19.951	3.051	0.502
1135.999	649.065	80.008	19.993	103.760	19.948	3.306	0.503
1138.000	650.100	80.010	19.994	103.752	19.950	3.133	0.512
1139.999	651.119	80.009	19.993	103.749	19.952	3.036	0.491
1141.999	652.157	80.009	19.994	103.755	19.952	3.017	0.517
1143.999	653.164	80.010	19.993	103.753	19.952	3.049	0.507
1146.000	654.240	80.011	19.994	103.751	19.952	3.023	0.518
1147.999	655.221	80.010	19.993	103.749	19.949	3.237	0.489
1149.999	656.241	80.010	19.993	103.755	19.953	2.917	0.498
1152.000	657.278	80.010	19.994	103.745	19.952	3.006	0.517
1153.999	658.286	80.010	19.994	103.750	19.953	2.972	0.525
1155.999	659.296	80.010	19.993	103.772	19.952	3.045	0.495
1158.001	660.316	80.009	19.993	103.769	19.952	3.021	0.517
1159.999	661.329	80.009	19.993	103.752	19.951	3.111	0.502
1161.999	662.341	80.010	19.991	103.760	19.949	3.239	0.512
1163.999	663.368	80.009	19.994	103.753	19.951	3.070	0.528
1165.999	664.363	80.009	19.994	103.751	19.945	3.472	0.501
1167.999	665.384	80.010	19.993	103.761	19.946	3.444	0.500
1169.999	666.395	80.011	19.994	103.774	19.948	3.318	0.518
1171.999	667.430	80.011	19.994	103.764	19.947	3.370	0.495
1173.999	668.421	80.011	19.994	103.767	19.948	3.318	0.507
1175.999	669.468	80.010	19.993	103.757	19.949	3.239	0.527
1177.999	670.490	80.009	19.994	103.751	19.945	3.473	0.509
1179.999	671.502	80.008	19.994	103.747	19.945	3.478	0.520
1181.999	672.514	80.008	19.993	103.747	19.947	3.341	0.527
1183.999	673.527	80.008	19.995	103.751	19.950	3.137	0.531
1186.000	674.581	80.008	19.993	103.752	19.947	3.361	0.472
1187.999	675.637	80.008	19.993	103.762	19.948	3.303	0.504
1189.999	676.683	80.008	19.991	103.768	19.947	3.352	0.530
1191.999	677.729	80.008	19.994	103.772	19.951	3.079	0.541
1193.999	678.728	80.009	19.991	103.761	19.952	3.024	0.508
1195.999	679.719	80.009	19.992	103.749	19.954	2.872	0.491
1197.999	680.755	80.010	19.992	103.756	19.951	3.067	0.540
1199.999	681.797	80.011	19.994	103.756	19.951	3.073	0.517
1201.999	682.772	80.010	19.992	103.767	19.951	3.092	0.508
1203.999	683.763	80.011	19.993	103.751	19.952	3.030	0.495
1205.999	684.804	80.010	19.993	103.752	19.951	3.111	0.525
1207.999	685.880	80.011	19.993	103.748	19.947	3.361	0.543
1209.999	686.880	80.010	19.993	103.749	19.950	3.150	0.506
1211.999	687.888	80.009	19.994	103.748	19.950	3.188	0.496
1214.000	688.901	80.008	19.992	103.750	19.947	3.337	0.524
1215.999	689.906	80.009	19.994	103.751	19.953	2.980	0.491
1217.999	690.914	80.008	19.993	103.756	19.948	3.290	0.507
1219.999	691.913	80.009	19.992	103.752	19.951	3.100	0.494
1221.999	692.905	80.010	19.993	103.752	19.949	3.249	0.500
1223.999	693.897	80.010	19.993	103.751	19.951	3.096	0.503
1225.999	694.917	80.011	19.994	103.765	19.949	3.197	0.504
1227.999	695.967	80.011	19.991	103.759	19.950	3.156	0.531
1229.999	696.961	80.011	19.993	103.756	19.947	3.393	0.477
1231.999	697.972	80.011	19.991	103.758	19.948	3.293	0.494
1233.999	698.973	80.010	19.994	103.763	19.950	3.147	0.521
1235.999	699.970	80.010	19.992	103.753	19.951	3.105	0.489
1237.999	700.973	80.009	19.992	103.752	19.950	3.154	0.514
1239.999	701.996	80.009	19.994	103.754	19.949	3.207	0.498
1241.999	702.975	80.010	19.992	103.751	19.947	3.333	0.498
1244.000	703.975	80.010	19.992	103.750	19.945	3.493	0.494
1245.999	704.984	80.010	19.995	103.747	19.944	3.557	0.543
1247.999	705.978	80.011	19.994	103.750	19.949	3.226	0.500
1249.999	706.978	80.011	19.993	103.756	19.947	3.350	0.504
1252.000	707.979	80.013	19.991	103.752	19.946	3.465	0.510
1253.999	708.984	80.012	19.993	103.748	19.947	3.344	0.502
1255.999	710.001	80.011	19.993	103.747	19.944	3.557	0.524
1257.999	711.013	80.011	19.993	103.756	19.947	3.387	0.524
1259.999	712.023	80.011	19.992	103.771	19.948	3.288	0.525
1261.999	713.021	80.010	19.993	103.760	19.946	3.414	0.494
1263.999	714.015	80.010	19.993	103.751	19.947	3.395	0.484
1265.999	715.073	80.009	19.994	103.747	19.946	3.425	0.530
1267.999	716.105	80.008	19.994	103.745	19.945	3.474	0.542
1269.999	717.124	80.010	19.994	103.753	19.943	3.657	0.528
1271.999	718.107	80.010	19.994	103.753	19.946	3.427	0.507
1273.999	719.142	80.008	19.995	103.746	19.945	3.489	0.517
1275.999	720.134	80.009	19.994	103.758	19.944	3.559	0.497
1278.000	721.143	80.010	19.994	103.751	19.941	3.761	0.516
1279.999	722.173	80.009	19.995	103.766	19.944	3.593	0.513
1281.999	723.185	80.009	19.995	103.753	19.947	3.342	0.523
1283.999	724.190	80.009	19.993	103.754	19.947	3.350	0.492
1285.999	725.161	80.009	19.992	103.753	19.944	3.586	0.489
1287.999	726.200	80.009	19.992	103.762	19.947	3.372	0.509
1289.999	727.180	80.009	19.993	103.763	19.943	3.610	0.503
1291.999	728.182	80.010	19.991	103.763	19.945	3.529	0.510
1294.000	729.204	80.008	19.994	103.756	19.944	3.593	0.478
1295.999	730.211	80.009	19.992	103.761	19.944	3.570	0.498
1297.999	731.171	80.009	19.991	103.757	19.943	3.661	0.495
1300.000	732.143	80.008	19.992	103.753	19.945	3.519	0.469
1301.999	733.168	80.009	19.994	103.758	19.946	3.465	0.476
1304.000	734.141	80.008	19.994	103.753	19.943	3.621	0.493
1305.999	735.154	80.009	19.993	103.758	19.944	3.562	0.500
1307.999	736.147	80.010	19.993	103.752	19.943	3.625	0.495
1309.999	737.153	80.011	19.993	103.756	19.945	3.529	0.513
1311.999	738.130	80.010	19.993	103.749	19.950	3.139	0.487
1313.999	739.157	80.011	19.993	103.748	19.943	3.613	0.492
1315.999	740.197	80.009	19.993	103.749	19.946	3.421	0.535
1317.999	741.224	80.009	19.993	103.750	19.945	3.521	0.517
1319.999	742.274	80.010	19.994	103.748	19.942	3.706	0.513
1321.999	743.309	80.010	19.990	103.761	19.943	3.651	0.516
1323.999	744.338	80.010	19.992	103.751	19.943	3.647	0.561
1325.499	745.098	80.011	19.993	103.750	19.945	3.502	0.489