File: 01_Data/Fiberglas_Insulation3B/MCC/Fiberglas_Insulation3B_MCC_30K_min_220222_R3.txt
Sample ID:	C:\MCC\MCC Cal\Test\Fiberglas_Insulation3B_MCC_30K_min_220222_R3.txt
Sample Weight (mg):	4.91
Heating Rate (C/s):	0.5
Combustor Temp (C):	900
N2 Flow Rate (cc/min):	80
O2 Flow Rate (cc/min):	20
Calibration File:	C:\MCC\MCC Cal\Coeff1 JN10440_30_210304.txt.txt
T Correction Coefficients:	0	1.024463	0
Time Shift (s):	14
*
Time (s)	Temperature (C)	N2 flow rate (cc/min)	O2 flow rate (cc/min)	Flow Rate (cc/min)	Oxygen (%)	HRR (W/g)	Heating rate (C/s)
0.000	113.289	80.003	19.993	103.634	20.017	-0.183	-0.025
2.000	113.263	80.002	19.993	103.634	20.014	0.000	-0.023
3.999	113.243	80.001	19.994	103.638	20.009	0.327	-0.015
6.000	113.298	80.001	19.994	103.643	20.010	0.267	0.019
8.000	113.281	80.000	19.994	103.621	20.010	0.282	0.042
9.999	113.287	80.001	19.994	103.614	20.012	0.182	-0.012
11.999	113.218	79.999	19.993	103.634	20.009	0.325	0.004
13.999	113.294	80.001	19.993	103.647	20.013	0.084	-0.008
15.999	113.234	80.001	19.994	103.653	20.010	0.265	-0.006
18.000	113.182	80.001	19.994	103.681	20.009	0.325	-0.085
20.000	113.196	80.001	19.994	103.684	20.008	0.394	0.003
22.000	113.233	80.001	19.994	103.650	20.009	0.325	0.027
24.000	113.254	80.001	19.993	103.624	20.012	0.173	0.023
26.000	113.214	80.001	19.994	103.619	20.012	0.138	0.002
28.000	113.188	80.000	19.993	103.635	20.010	0.274	-0.020
30.000	113.174	80.002	19.993	103.642	20.009	0.349	-0.062
32.000	113.216	80.001	19.996	103.650	20.008	0.418	0.042
34.000	113.171	80.001	19.993	103.652	20.005	0.648	-0.016
35.999	113.216	80.001	19.994	103.651	20.005	0.633	-0.002
37.999	113.258	80.000	19.995	103.665	20.006	0.584	0.025
39.999	113.299	80.001	19.994	103.683	20.002	0.844	0.014
42.000	113.312	80.000	19.994	103.711	19.998	1.055	0.031
44.000	113.352	80.000	19.994	103.730	19.996	1.216	0.007
45.999	113.433	80.000	19.992	103.781	19.995	1.305	0.039
47.999	113.587	80.001	19.993	103.799	19.987	1.831	0.053
49.999	113.669	80.001	19.994	103.802	19.983	2.095	0.053
52.001	113.810	80.002	19.993	103.798	19.982	2.148	0.047
54.000	113.951	80.001	19.993	103.789	19.981	2.235	0.084
55.999	114.230	80.000	19.995	103.834	19.981	2.186	0.118
57.999	114.452	80.001	19.993	103.810	19.978	2.395	0.125
59.999	114.697	80.001	19.994	103.809	19.978	2.377	0.141
62.000	114.998	80.001	19.995	103.828	19.979	2.329	0.151
63.999	115.265	80.001	19.994	103.810	19.977	2.457	0.164
66.000	115.587	80.000	19.994	103.825	19.973	2.719	0.197
67.999	115.945	80.002	19.995	103.830	19.971	2.863	0.172
70.001	116.299	80.000	19.993	103.820	19.970	2.912	0.185
72.001	116.685	80.001	19.994	103.845	19.972	2.823	0.195
74.000	117.171	80.002	19.994	103.860	19.972	2.830	0.237
76.001	117.572	80.004	19.995	103.878	19.973	2.714	0.221
77.999	118.026	80.001	19.995	103.876	19.971	2.892	0.220
80.000	118.453	80.002	19.994	103.861	19.970	2.914	0.258
81.999	119.000	80.001	19.994	103.867	19.965	3.239	0.241
84.000	119.536	80.000	19.995	103.874	19.967	3.140	0.272
85.999	120.088	80.001	19.994	103.877	19.969	3.014	0.285
88.001	120.662	80.001	19.994	103.880	19.970	2.942	0.302
89.999	121.243	80.000	19.994	103.900	19.963	3.392	0.298
91.999	121.846	79.999	19.994	103.902	19.964	3.317	0.320
93.999	122.455	79.999	19.994	103.907	19.963	3.384	0.314
95.999	123.120	80.000	19.994	103.886	19.961	3.539	0.315
97.999	123.782	80.000	19.993	103.884	19.960	3.624	0.314
99.999	124.505	79.999	19.994	103.900	19.957	3.820	0.358
102.001	125.262	80.000	19.994	103.919	19.956	3.872	0.392
103.999	125.925	80.001	19.993	103.913	19.959	3.633	0.312
105.999	126.662	80.000	19.994	103.949	19.959	3.691	0.349
107.999	127.354	80.000	19.994	103.926	19.962	3.476	0.319
109.999	128.163	80.000	19.993	103.943	19.956	3.834	0.317
111.999	128.935	80.001	19.993	103.939	19.963	3.408	0.378
113.999	129.806	80.000	19.994	103.919	19.957	3.817	0.383
115.999	130.574	80.000	19.993	103.910	19.955	3.897	0.380
117.999	131.420	80.000	19.993	103.935	19.961	3.556	0.401
119.999	132.251	80.001	19.994	103.905	19.957	3.799	0.444
121.999	133.142	79.999	19.995	103.906	19.958	3.709	0.403
123.999	134.012	80.001	19.993	103.901	19.954	3.995	0.403
125.999	134.916	80.000	19.994	103.919	19.956	3.832	0.460
128.000	135.787	79.999	19.993	103.920	19.956	3.870	0.425
130.000	136.664	80.001	19.993	103.902	19.955	3.954	0.484
132.000	137.578	80.003	19.994	103.900	19.953	4.081	0.415
134.000	138.521	80.002	19.994	103.912	19.956	3.866	0.399
136.000	139.409	80.002	19.994	103.920	19.952	4.108	0.459
138.000	140.411	80.001	19.994	103.927	19.955	3.912	0.417
140.000	141.381	80.002	19.994	103.920	19.957	3.793	0.492
142.000	142.294	80.003	19.994	103.923	19.956	3.868	0.440
144.000	143.258	80.003	19.993	103.920	19.956	3.853	0.444
146.000	144.218	80.001	19.994	103.914	19.958	3.707	0.509
148.000	145.195	80.000	19.994	103.906	19.956	3.855	0.472
150.000	146.225	80.001	19.994	103.922	19.957	3.760	0.473
152.000	147.126	80.001	19.995	103.919	19.960	3.607	0.453
154.000	148.209	80.001	19.994	103.910	19.956	3.848	0.538
156.000	149.135	80.002	19.995	103.886	19.958	3.731	0.513
158.000	150.201	80.003	19.993	103.902	19.958	3.712	0.493
160.000	151.145	80.002	19.993	103.905	19.956	3.865	0.450
162.000	152.187	80.003	19.994	103.902	19.956	3.880	0.488
164.000	153.167	80.002	19.993	103.917	19.959	3.652	0.468
166.000	154.225	80.002	19.994	103.916	19.960	3.590	0.528
168.000	155.247	80.000	19.994	103.896	19.958	3.694	0.523
170.000	156.247	79.999	19.994	103.883	19.959	3.674	0.528
172.000	157.235	80.000	19.995	103.890	19.961	3.535	0.548
174.000	158.242	80.000	19.994	103.907	19.961	3.530	0.472
176.000	159.292	80.000	19.995	103.899	19.960	3.579	0.482
178.000	160.261	79.998	19.994	103.897	19.963	3.428	0.519
180.000	161.360	79.998	19.994	103.883	19.960	3.577	0.536
182.000	162.348	80.000	19.995	103.888	19.959	3.681	0.534
184.000	163.316	80.000	19.994	103.869	19.961	3.552	0.478
186.000	164.297	80.000	19.993	103.898	19.963	3.417	0.507
188.000	165.478	80.001	19.994	103.901	19.966	3.180	0.526
190.000	166.444	80.000	19.994	103.888	19.959	3.633	0.517
192.000	167.400	80.001	19.994	103.879	19.963	3.384	0.525
194.000	168.418	80.000	19.992	103.887	19.964	3.346	0.485
196.000	169.460	80.000	19.994	103.880	19.966	3.194	0.531
198.000	170.456	79.999	19.994	103.885	19.966	3.192	0.538
200.000	171.456	80.001	19.994	103.877	19.968	3.070	0.491
202.000	172.519	80.001	19.993	103.872	19.966	3.224	0.500
204.000	173.500	80.001	19.994	103.879	19.963	3.367	0.513
206.000	174.495	80.001	19.994	103.877	19.965	3.278	0.488
208.000	175.571	80.001	19.993	103.871	19.966	3.220	0.509
210.000	176.565	80.000	19.995	103.880	19.963	3.404	0.522
212.000	177.573	80.002	19.996	103.856	19.962	3.442	0.532
214.000	178.598	80.001	19.995	103.858	19.965	3.259	0.518
216.000	179.526	80.001	19.993	103.862	19.964	3.321	0.510
218.000	180.508	80.003	19.995	103.880	19.967	3.138	0.494
220.000	181.574	80.002	19.993	103.882	19.967	3.127	0.539
222.000	182.454	80.002	19.993	103.881	19.967	3.123	0.524
224.000	183.531	80.001	19.993	103.862	19.965	3.243	0.463
226.000	184.479	80.001	19.994	103.865	19.966	3.213	0.485
228.000	185.446	80.001	19.993	103.868	19.968	3.092	0.462
230.000	186.557	80.002	19.993	103.875	19.969	2.984	0.537
232.000	187.552	80.002	19.993	103.869	19.966	3.177	0.470
234.000	188.583	80.001	19.993	103.871	19.967	3.161	0.508
236.000	189.477	80.000	19.993	103.852	19.967	3.126	0.471
238.000	190.502	80.002	19.993	103.856	19.967	3.153	0.529
240.000	191.488	80.002	19.994	103.853	19.966	3.170	0.505
242.000	192.455	80.002	19.993	103.856	19.970	2.927	0.446
244.000	193.488	80.003	19.993	103.852	19.968	3.091	0.500
246.000	194.409	80.000	19.993	103.856	19.974	2.696	0.458
248.000	195.425	80.003	19.994	103.850	19.971	2.860	0.472
250.000	196.356	80.002	19.995	103.843	19.966	3.223	0.444
252.000	197.347	80.002	19.994	103.843	19.967	3.152	0.491
254.000	198.397	80.001	19.996	103.843	19.969	3.002	0.520
256.000	199.367	80.000	19.994	103.845	19.966	3.199	0.524
258.000	200.352	80.002	19.994	103.845	19.965	3.237	0.540
260.000	201.337	80.000	19.995	103.860	19.967	3.151	0.527
262.000	202.303	80.002	19.995	103.849	19.968	3.094	0.531
264.000	203.253	79.999	19.995	103.856	19.966	3.170	0.477
266.000	204.287	79.999	19.994	103.846	19.968	3.083	0.495
268.000	205.220	80.000	19.996	103.846	19.962	3.434	0.506
270.000	206.250	79.999	19.995	103.847	19.966	3.225	0.514
272.000	207.245	80.000	19.997	103.847	19.965	3.282	0.510
274.000	208.230	80.000	19.995	103.852	19.970	2.924	0.493
276.000	209.203	80.000	19.994	103.856	19.966	3.210	0.506
278.000	210.129	80.000	19.995	103.873	19.963	3.405	0.451
280.000	211.228	80.002	19.993	103.851	19.967	3.131	0.475
282.000	212.150	80.001	19.993	103.872	19.963	3.363	0.490
284.000	213.205	80.000	19.993	103.870	19.965	3.250	0.483
286.000	214.223	80.000	19.993	103.849	19.964	3.337	0.551
288.000	215.084	79.999	19.993	103.848	19.966	3.210	0.482
290.000	216.130	80.001	19.993	103.846	19.966	3.182	0.434
292.000	217.174	80.001	19.994	103.843	19.967	3.119	0.518
294.000	218.157	80.000	19.993	103.845	19.967	3.099	0.523
296.000	219.120	80.002	19.993	103.844	19.964	3.299	0.550
298.000	220.109	80.002	19.994	103.843	19.967	3.155	0.502
300.000	221.131	80.001	19.993	103.842	19.967	3.155	0.527
302.000	222.087	80.002	19.993	103.844	19.966	3.204	0.477
304.000	223.072	80.001	19.994	103.844	19.963	3.386	0.509
306.000	224.022	80.001	19.993	103.845	19.963	3.401	0.469
308.000	225.074	80.002	19.994	103.840	19.962	3.475	0.528
310.000	226.031	80.001	19.994	103.847	19.963	3.406	0.474
312.000	227.093	80.001	19.994	103.848	19.967	3.115	0.512
314.000	228.129	80.003	19.994	103.845	19.965	3.262	0.484
316.000	229.139	80.001	19.994	103.841	19.967	3.118	0.542
318.000	230.101	80.003	19.993	103.841	19.970	2.943	0.526
320.000	231.054	80.002	19.994	103.837	19.967	3.111	0.516
322.000	232.049	80.003	19.993	103.840	19.970	2.921	0.451
324.000	233.063	80.002	19.994	103.831	19.966	3.222	0.508
326.000	234.057	80.003	19.993	103.809	19.969	2.980	0.500
328.000	235.079	80.002	19.993	103.811	19.967	3.117	0.465
330.000	236.008	80.001	19.994	103.815	19.967	3.117	0.510
332.000	237.091	80.000	19.996	103.821	19.965	3.261	0.478
334.000	238.073	80.002	19.994	103.825	19.967	3.122	0.529
336.000	239.005	79.999	19.996	103.837	19.968	3.067	0.486
338.000	240.020	80.000	19.995	103.838	19.966	3.195	0.471
340.000	240.986	80.000	19.995	103.836	19.966	3.202	0.477
342.000	241.969	80.001	19.993	103.841	19.967	3.104	0.484
344.000	242.977	80.000	19.995	103.830	19.965	3.262	0.574
346.000	243.951	80.000	19.994	103.822	19.966	3.217	0.481
348.000	244.900	79.998	19.993	103.839	19.964	3.324	0.474
350.000	245.851	80.000	19.994	103.838	19.968	3.065	0.496
352.000	246.871	80.001	19.994	103.841	19.968	3.039	0.467
354.000	247.899	80.000	19.995	103.839	19.972	2.801	0.504
356.000	248.838	80.001	19.994	103.837	19.971	2.894	0.502
358.000	249.857	80.000	19.995	103.841	19.972	2.789	0.505
360.000	250.847	79.999	19.996	103.818	19.967	3.126	0.490
362.000	251.805	79.998	19.994	103.810	19.968	3.068	0.484
364.000	252.790	79.999	19.995	103.806	19.964	3.304	0.505
366.000	253.858	79.998	19.995	103.820	19.967	3.117	0.462
368.000	254.820	80.002	19.993	103.836	19.968	3.063	0.540
370.000	255.811	79.997	19.995	103.849	19.967	3.150	0.458
372.000	256.839	80.001	19.994	103.854	19.969	2.996	0.483
374.000	257.799	79.999	19.993	103.856	19.965	3.248	0.510
376.000	258.846	80.001	19.994	103.845	19.963	3.397	0.544
378.000	259.763	80.001	19.993	103.818	19.963	3.406	0.544
380.000	260.852	80.002	19.993	103.798	19.961	3.551	0.519
382.000	261.820	80.000	19.995	103.808	19.962	3.489	0.524
384.000	262.735	80.001	19.993	103.820	19.963	3.383	0.502
386.000	263.812	80.002	19.994	103.838	19.964	3.325	0.500
388.000	264.741	80.002	19.994	103.843	19.962	3.431	0.476
390.000	265.755	80.001	19.993	103.822	19.967	3.102	0.448
392.000	266.771	80.001	19.994	103.817	19.966	3.203	0.499
394.000	267.771	80.001	19.994	103.815	19.965	3.260	0.489
396.000	268.767	80.002	19.992	103.805	19.968	3.080	0.524
398.000	269.829	80.001	19.993	103.815	19.965	3.247	0.558
400.000	270.817	80.004	19.994	103.829	19.964	3.301	0.543
402.000	271.839	80.003	19.992	103.822	19.968	3.060	0.543
404.000	272.790	80.004	19.994	103.814	19.967	3.100	0.461
406.000	273.871	80.003	19.993	103.819	19.968	3.089	0.498
408.000	274.831	80.003	19.993	103.807	19.963	3.424	0.498
410.000	275.863	80.003	19.994	103.810	19.963	3.363	0.451
412.000	276.867	80.000	19.994	103.813	19.967	3.114	0.520
414.000	277.962	80.001	19.994	103.829	19.969	3.005	0.494
416.000	278.954	80.000	19.993	103.831	19.965	3.251	0.523
418.000	279.939	80.001	19.993	103.826	19.967	3.118	0.457
420.000	281.045	80.001	19.993	103.817	19.967	3.159	0.502
422.000	281.899	79.998	19.994	103.808	19.966	3.169	0.454
424.000	283.021	80.001	19.994	103.818	19.967	3.158	0.459
426.000	283.963	79.999	19.994	103.812	19.964	3.305	0.488
428.000	285.012	79.999	19.993	103.822	19.967	3.121	0.453
430.000	285.992	80.001	19.994	103.830	19.964	3.316	0.449
432.000	287.032	80.002	19.993	103.837	19.966	3.214	0.514
434.000	288.047	80.001	19.994	103.824	19.968	3.050	0.488
436.000	289.017	79.999	19.994	103.818	19.968	3.074	0.505
438.000	290.032	80.002	19.993	103.814	19.967	3.148	0.517
440.000	291.040	80.002	19.994	103.808	19.964	3.303	0.498
442.000	292.053	79.999	19.994	103.809	19.969	3.008	0.468
444.000	293.064	80.002	19.993	103.809	19.968	3.052	0.445
446.000	294.083	80.000	19.994	103.804	19.968	3.087	0.481
448.000	295.098	80.000	19.995	103.805	19.969	2.991	0.493
450.000	296.078	79.998	19.995	103.803	19.965	3.241	0.545
452.000	297.117	79.998	19.996	103.802	19.964	3.295	0.483
454.000	298.106	80.001	19.996	103.797	19.966	3.224	0.484
456.000	299.118	80.000	19.995	103.787	19.959	3.669	0.516
458.000	300.121	80.002	19.994	103.774	19.962	3.435	0.493
460.000	301.112	80.000	19.995	103.802	19.960	3.565	0.480
462.000	302.150	80.002	19.994	103.819	19.965	3.241	0.462
464.000	303.146	80.003	19.995	103.843	19.966	3.199	0.479
466.000	304.151	80.002	19.993	103.813	19.967	3.154	0.493
468.000	305.148	80.002	19.994	103.816	19.963	3.414	0.514
470.000	306.180	80.002	19.994	103.818	19.965	3.267	0.492
472.000	307.177	80.001	19.994	103.805	19.962	3.475	0.514
474.000	308.156	80.001	19.993	103.793	19.962	3.451	0.462
476.000	309.183	80.000	19.993	103.797	19.964	3.323	0.476
478.000	310.180	80.002	19.993	103.794	19.962	3.461	0.533
480.000	311.247	80.000	19.994	103.820	19.966	3.172	0.513
482.000	312.273	80.004	19.992	103.830	19.966	3.163	0.521
484.000	313.258	80.001	19.994	103.839	19.967	3.148	0.517
486.000	314.316	80.003	19.994	103.812	19.966	3.183	0.487
488.000	315.324	80.001	19.995	103.806	19.965	3.265	0.513
490.000	316.400	80.002	19.994	103.795	19.965	3.272	0.522
492.000	317.302	80.002	19.994	103.800	19.964	3.301	0.502
494.000	318.354	80.002	19.993	103.805	19.966	3.174	0.501
496.000	319.373	79.997	19.995	103.802	19.964	3.318	0.514
498.000	320.386	79.999	19.994	103.807	19.962	3.449	0.519
500.000	321.396	79.999	19.993	103.789	19.965	3.256	0.500
502.000	322.382	80.000	19.994	103.806	19.962	3.485	0.497
504.000	323.410	80.002	19.992	103.811	19.961	3.531	0.493
506.000	324.438	80.001	19.993	103.810	19.961	3.539	0.536
508.000	325.421	80.001	19.994	103.806	19.964	3.332	0.525
510.000	326.481	80.001	19.993	103.847	19.967	3.112	0.503
512.000	327.503	80.002	19.995	103.957	19.964	3.319	0.510
514.000	328.470	80.001	19.994	103.831	19.962	3.481	0.512
516.000	329.501	80.001	19.994	103.787	19.958	3.736	0.504
518.000	330.493	79.999	19.995	103.791	19.959	3.625	0.503
520.000	331.518	80.000	19.993	103.801	19.958	3.694	0.518
522.000	332.539	80.002	19.995	103.804	19.959	3.663	0.539
524.000	333.587	80.001	19.994	103.803	19.961	3.522	0.509
526.000	334.610	80.002	19.996	103.799	19.963	3.406	0.533
528.000	335.662	80.001	19.994	103.794	19.959	3.662	0.544
530.000	336.655	80.001	19.994	103.806	19.959	3.635	0.504
532.000	337.666	80.001	19.994	103.803	19.956	3.858	0.514
534.000	338.754	79.999	19.994	103.807	19.959	3.632	0.535
536.000	339.672	80.002	19.994	103.802	19.959	3.682	0.521
538.000	340.725	80.000	19.995	103.745	19.959	3.688	0.528
540.000	341.692	80.001	19.995	103.741	19.953	4.022	0.473
542.000	342.709	80.000	19.995	103.793	19.960	3.592	0.457
544.000	343.741	80.001	19.995	103.800	19.961	3.535	0.493
546.000	344.751	80.001	19.995	103.814	19.962	3.475	0.520
548.000	345.767	80.002	19.995	103.804	19.961	3.494	0.505
550.000	346.801	80.001	19.995	103.785	19.960	3.614	0.528
552.000	347.795	80.001	19.994	103.793	19.956	3.873	0.520
554.000	348.770	80.001	19.994	103.771	19.959	3.682	0.462
556.000	349.802	80.001	19.993	103.770	19.960	3.602	0.474
558.000	350.872	80.002	19.993	103.779	19.958	3.736	0.523
560.000	351.881	80.001	19.993	103.793	19.957	3.802	0.527
562.000	352.902	80.004	19.993	103.797	19.958	3.714	0.529
564.000	353.920	80.002	19.993	103.807	19.959	3.643	0.506
566.000	354.901	80.004	19.993	103.807	19.959	3.634	0.494
568.000	355.926	80.005	19.993	103.804	19.957	3.803	0.478
570.000	356.944	80.004	19.994	103.803	19.958	3.752	0.532
572.000	357.954	80.002	19.995	103.802	19.957	3.789	0.542
574.000	358.912	80.003	19.995	103.802	19.956	3.831	0.500
576.000	359.935	80.001	19.995	103.801	19.957	3.813	0.513
578.000	360.900	80.000	19.995	103.799	19.954	3.975	0.497
580.000	361.882	80.002	19.994	103.797	19.953	4.020	0.515
582.000	362.867	80.001	19.993	103.801	19.950	4.255	0.520
584.000	363.858	80.001	19.994	103.802	19.952	4.107	0.513
586.000	364.861	80.001	19.993	103.802	19.952	4.126	0.507
588.000	365.824	80.002	19.994	103.804	19.952	4.135	0.488
590.000	366.837	80.001	19.993	103.804	19.955	3.909	0.520
592.000	367.836	80.003	19.993	103.804	19.953	4.075	0.480
594.000	368.836	80.002	19.993	103.803	19.952	4.142	0.482
596.000	369.829	80.002	19.994	103.800	19.951	4.178	0.473
598.000	370.809	80.001	19.993	103.799	19.949	4.313	0.465
600.000	371.792	80.002	19.993	103.799	19.950	4.251	0.456
602.000	372.847	80.003	19.993	103.803	19.951	4.191	0.527
604.000	373.845	80.001	19.994	103.806	19.949	4.328	0.530
606.000	374.813	80.001	19.994	103.805	19.954	4.004	0.448
608.000	375.849	80.000	19.994	103.801	19.952	4.086	0.499
610.000	376.836	79.998	19.994	103.794	19.953	4.035	0.491
612.000	377.842	80.000	19.995	103.800	19.957	3.813	0.492
614.000	378.833	79.999	19.995	103.781	19.957	3.781	0.503
616.000	379.826	80.001	19.994	103.773	19.956	3.833	0.498
618.000	380.875	80.000	19.995	103.766	19.958	3.751	0.514
620.000	381.870	80.001	19.994	103.754	19.954	4.008	0.512
622.000	382.830	80.002	19.994	103.759	19.958	3.691	0.470
624.000	383.891	80.003	19.994	103.743	19.954	3.977	0.464
626.000	384.883	80.002	19.993	103.748	19.953	4.052	0.529
628.000	385.945	80.002	19.993	103.756	19.952	4.099	0.527
630.000	386.855	80.002	19.994	103.741	19.954	3.987	0.503
632.000	387.924	80.001	19.995	103.723	19.953	4.038	0.540
634.000	388.936	80.003	19.996	103.703	19.952	4.145	0.506
636.000	389.943	80.002	19.995	103.749	19.952	4.088	0.503
638.000	390.952	80.001	19.995	103.786	19.954	3.984	0.494
640.000	391.978	80.001	19.995	103.783	19.955	3.921	0.493
642.000	392.993	80.002	19.996	103.789	19.957	3.812	0.542
644.000	394.039	80.003	19.994	103.780	19.959	3.644	0.524
646.000	395.065	80.004	19.995	103.770	19.958	3.710	0.503
648.000	396.044	80.004	19.995	103.766	19.961	3.522	0.516
650.000	397.074	80.005	19.995	103.762	19.962	3.455	0.484
652.000	398.069	80.003	19.994	103.776	19.959	3.632	0.515
654.000	399.084	80.003	19.994	103.774	19.955	3.914	0.489
656.000	400.127	80.003	19.994	103.771	19.956	3.833	0.484
658.000	401.194	80.003	19.995	103.771	19.956	3.854	0.493
660.000	402.192	80.002	19.994	103.772	19.956	3.869	0.512
662.000	403.224	80.001	19.993	103.781	19.957	3.785	0.530
664.000	404.187	80.001	19.994	103.784	19.956	3.851	0.483
666.000	405.186	80.002	19.993	103.790	19.956	3.849	0.517
668.000	406.230	80.001	19.994	103.802	19.956	3.874	0.493
670.000	407.229	80.000	19.994	103.804	19.958	3.698	0.497
672.000	408.240	80.002	19.994	103.797	19.957	3.780	0.497
674.000	409.272	80.002	19.994	103.800	19.961	3.553	0.491
676.000	410.286	80.001	19.993	103.798	19.958	3.706	0.509
678.000	411.252	80.001	19.994	103.793	19.954	3.983	0.496
680.000	412.294	80.002	19.994	103.803	19.955	3.888	0.483
682.000	413.305	80.001	19.993	103.796	19.959	3.682	0.515
684.000	414.305	80.001	19.994	103.789	19.957	3.793	0.522
686.000	415.284	80.001	19.993	103.772	19.953	4.055	0.497
688.000	416.318	80.001	19.993	103.784	19.953	4.065	0.496
690.000	417.366	80.001	19.994	103.775	19.953	4.067	0.523
692.000	418.348	80.001	19.998	103.768	19.950	4.275	0.512
694.000	419.353	80.001	19.996	103.755	19.953	4.044	0.523
696.000	420.420	80.000	19.994	103.757	19.950	4.258	0.528
698.000	421.401	80.001	19.995	103.771	19.951	4.188	0.490
700.000	422.384	80.002	19.995	103.790	19.951	4.183	0.460
702.000	423.449	80.002	19.994	103.802	19.950	4.252	0.496
704.000	424.450	80.001	19.994	103.787	19.950	4.266	0.548
706.000	425.500	80.002	19.996	103.760	19.950	4.274	0.547
708.000	426.512	80.003	19.994	103.751	19.949	4.296	0.528
710.000	427.483	80.001	19.996	103.774	19.949	4.338	0.506
712.000	428.541	80.002	19.995	103.770	19.947	4.467	0.489
714.000	429.550	80.002	19.994	103.790	19.948	4.377	0.507
716.000	430.615	80.002	19.995	103.834	19.953	4.079	0.517
718.000	431.583	80.002	19.996	103.800	19.951	4.162	0.512
720.000	432.598	80.002	19.996	103.786	19.953	4.043	0.519
722.000	433.579	80.002	19.996	103.781	19.955	3.951	0.529
724.000	434.656	80.003	19.995	103.771	19.949	4.326	0.526
726.000	435.668	80.003	19.995	103.764	19.955	3.937	0.502
728.000	436.678	80.002	19.995	103.786	19.956	3.868	0.504
730.000	437.752	80.003	19.994	103.793	19.957	3.769	0.556
732.000	438.716	80.003	19.996	103.771	19.957	3.802	0.508
734.000	439.724	80.002	19.995	103.761	19.954	3.982	0.478
736.000	440.749	80.002	19.994	103.764	19.953	4.053	0.528
738.000	441.728	80.002	19.994	103.760	19.953	4.060	0.506
740.000	442.747	80.001	19.995	103.762	19.951	4.210	0.464
742.000	443.765	80.001	19.995	103.760	19.950	4.259	0.507
744.000	444.789	80.000	19.994	103.767	19.953	4.021	0.506
746.000	445.827	80.002	19.993	103.770	19.953	4.063	0.532
748.000	446.771	79.999	19.995	103.759	19.953	4.071	0.481
750.000	447.786	80.000	19.993	103.767	19.950	4.250	0.457
752.000	448.828	80.000	19.995	103.796	19.952	4.085	0.495
754.000	449.752	80.001	19.994	103.795	19.953	4.070	0.491
756.000	450.803	80.001	19.994	103.770	19.955	3.918	0.505
758.000	451.810	80.002	19.995	103.789	19.957	3.790	0.504
760.000	452.786	80.001	19.995	103.810	19.953	4.038	0.493
762.000	453.780	80.003	19.994	103.807	19.957	3.816	0.500
764.000	454.792	80.001	19.994	103.775	19.955	3.913	0.482
766.000	455.820	80.001	19.993	103.799	19.956	3.882	0.475
768.000	456.798	80.000	19.995	103.761	19.952	4.094	0.466
770.000	457.856	80.001	19.993	103.734	19.955	3.889	0.552
772.000	458.873	80.000	19.994	103.766	19.953	4.059	0.534
774.000	459.826	80.000	19.994	103.750	19.952	4.093	0.508
776.000	460.901	80.001	19.994	103.773	19.954	3.958	0.488
778.000	461.910	80.002	19.993	103.781	19.955	3.924	0.514
780.000	462.934	80.000	19.994	103.778	19.956	3.822	0.516
782.000	463.912	80.002	19.993	103.765	19.957	3.794	0.515
784.000	464.923	80.002	19.995	103.790	19.959	3.640	0.509
786.000	465.938	80.001	19.994	103.802	19.958	3.737	0.479
788.000	466.990	80.003	19.996	103.776	19.959	3.641	0.517
790.000	468.024	80.002	19.995	103.759	19.957	3.755	0.502
792.000	469.073	80.001	19.996	103.744	19.957	3.786	0.542
794.000	470.087	80.003	19.996	103.756	19.963	3.422	0.501
796.000	471.117	80.002	19.995	103.762	19.960	3.557	0.521
798.000	472.126	80.002	19.995	103.772	19.960	3.622	0.519
800.000	473.221	80.002	19.995	103.774	19.958	3.693	0.544
802.000	474.270	80.002	19.995	103.757	19.959	3.674	0.545
804.000	475.262	80.003	19.995	103.770	19.959	3.678	0.522
806.000	476.335	80.003	19.995	103.777	19.960	3.595	0.544
808.000	477.409	80.001	19.994	103.766	19.960	3.584	0.559
810.000	478.427	80.003	19.994	103.769	19.966	3.218	0.508
812.000	479.464	80.003	19.996	103.773	19.963	3.388	0.519
814.000	480.541	80.003	19.995	103.798	19.967	3.149	0.528
816.000	481.602	80.003	19.995	103.795	19.964	3.333	0.515
818.000	482.576	80.001	19.994	103.770	19.965	3.265	0.498
820.000	483.647	80.001	19.995	103.769	19.968	3.063	0.507
822.000	484.691	80.000	19.994	103.770	19.966	3.184	0.547
824.000	485.748	80.000	19.995	103.773	19.966	3.202	0.550
826.000	486.837	79.998	19.995	103.765	19.969	3.027	0.543
828.000	487.854	80.000	19.995	103.763	19.965	3.247	0.518
830.000	488.861	80.001	19.995	103.762	19.965	3.253	0.511
832.000	489.941	79.999	19.995	103.761	19.967	3.145	0.537
834.000	491.005	80.001	19.995	103.763	19.963	3.408	0.504
836.000	492.041	80.001	19.996	103.762	19.963	3.418	0.508
838.000	493.123	80.000	19.994	103.754	19.965	3.282	0.515
840.000	494.210	80.001	19.994	103.763	19.965	3.236	0.557
842.000	495.272	80.001	19.994	103.762	19.970	2.924	0.519
844.000	496.337	80.002	19.994	103.767	19.969	2.970	0.495
846.000	497.419	80.001	19.995	103.769	19.969	2.987	0.555
848.000	498.459	80.001	19.994	103.763	19.968	3.068	0.522
850.000	499.500	80.000	19.995	103.761	19.967	3.102	0.473
852.000	500.540	80.001	19.993	103.765	19.971	2.878	0.500
854.000	501.667	80.001	19.994	103.789	19.969	3.017	0.550
856.000	502.739	80.001	19.994	103.783	19.969	3.029	0.551
858.000	503.771	80.000	19.994	103.781	19.970	2.941	0.524
860.000	504.842	79.999	19.993	103.783	19.966	3.172	0.548
862.000	505.857	80.002	19.994	103.762	19.967	3.155	0.556
864.000	506.950	80.001	19.995	103.773	19.966	3.222	0.548
866.000	508.005	80.003	19.994	103.776	19.968	3.060	0.534
868.000	509.039	80.002	19.993	103.791	19.966	3.215	0.537
870.000	510.111	80.004	19.993	103.802	19.969	3.000	0.557
872.000	511.120	80.002	19.996	103.773	19.970	2.959	0.496
874.000	512.172	80.003	19.994	103.768	19.971	2.862	0.501
876.000	513.217	80.002	19.996	103.759	19.972	2.807	0.504
878.000	514.282	80.001	19.995	103.777	19.972	2.778	0.554
880.000	515.350	80.002	19.993	103.783	19.970	2.926	0.534
882.000	516.407	80.002	19.993	103.742	19.971	2.888	0.534
884.000	517.466	80.002	19.993	103.761	19.971	2.875	0.523
886.000	518.488	80.003	19.994	103.754	19.970	2.917	0.544
888.000	519.573	80.003	19.995	103.752	19.971	2.884	0.514
890.000	520.608	80.003	19.994	103.756	19.971	2.870	0.537
892.000	521.663	80.003	19.994	103.740	19.969	2.967	0.537
894.000	522.706	80.003	19.994	103.747	19.969	2.984	0.526
896.000	523.723	80.004	19.994	103.729	19.969	2.985	0.514
898.000	524.824	80.003	19.994	103.721	19.966	3.173	0.531
900.000	525.838	80.002	19.993	103.730	19.967	3.098	0.512
902.000	526.876	80.002	19.994	103.763	19.974	2.675	0.547
904.000	527.948	80.000	19.995	103.791	19.970	2.916	0.538
906.000	528.942	80.002	19.995	103.786	19.970	2.945	0.500
908.000	529.938	80.000	19.994	103.764	19.968	3.072	0.533
910.000	530.966	80.001	19.995	103.770	19.969	3.002	0.502
912.000	531.996	79.999	19.993	103.740	19.968	3.031	0.502
914.000	532.991	80.001	19.995	103.735	19.973	2.738	0.485
916.000	534.050	79.999	19.996	103.754	19.970	2.919	0.531
918.000	535.043	80.001	19.995	103.748	19.971	2.875	0.523
920.000	536.038	80.000	19.995	103.766	19.969	2.982	0.467
922.000	537.071	80.000	19.995	103.759	19.973	2.718	0.501
924.000	538.120	80.001	19.995	103.768	19.974	2.660	0.524
926.000	539.075	80.001	19.995	103.765	19.973	2.716	0.488
928.000	540.134	80.002	19.995	103.734	19.971	2.860	0.518
930.000	541.150	80.001	19.994	103.744	19.972	2.791	0.532
932.000	542.139	80.000	19.994	103.768	19.972	2.769	0.520
934.000	543.110	80.001	19.995	103.768	19.970	2.944	0.493
936.000	544.079	80.001	19.994	103.768	19.972	2.801	0.509
938.000	545.070	80.002	19.994	103.768	19.973	2.760	0.451
940.000	546.064	80.001	19.995	103.772	19.975	2.616	0.502
942.000	547.011	80.001	19.994	103.767	19.970	2.914	0.498
944.000	548.002	80.002	19.994	103.767	19.972	2.781	0.446
946.000	548.971	80.000	19.994	103.768	19.973	2.765	0.493
948.000	550.001	80.002	19.996	103.761	19.971	2.862	0.516
950.000	550.959	80.002	19.994	103.764	19.967	3.099	0.512
952.000	551.912	80.003	19.995	103.738	19.969	2.998	0.494
954.000	552.912	80.003	19.995	103.737	19.969	3.014	0.496
956.000	553.872	80.003	19.994	103.753	19.967	3.096	0.506
958.000	554.870	80.003	19.994	103.776	19.962	3.462	0.497
960.000	555.908	80.003	19.993	103.793	19.968	3.074	0.521
962.000	556.854	80.003	19.994	103.776	19.967	3.125	0.478
964.000	557.854	80.002	19.993	103.767	19.968	3.083	0.507
966.000	558.849	80.003	19.993	103.768	19.968	3.051	0.492
968.000	559.864	80.003	19.994	103.770	19.968	3.083	0.511
970.000	560.845	80.004	19.995	103.756	19.968	3.044	0.505
972.000	561.844	80.003	19.992	103.754	19.965	3.284	0.505
974.000	562.847	80.003	19.993	103.752	19.965	3.264	0.507
976.000	563.849	80.005	19.994	103.737	19.967	3.148	0.483
978.000	564.851	80.004	19.995	103.734	19.962	3.441	0.478
980.000	565.874	80.004	19.994	103.734	19.968	3.088	0.508
982.000	566.872	80.002	19.995	103.744	19.964	3.329	0.493
984.000	567.871	80.001	19.995	103.768	19.968	3.040	0.493
986.000	568.917	80.002	19.993	103.773	19.970	2.921	0.491
988.000	569.942	80.001	19.993	103.786	19.966	3.203	0.511
990.000	570.990	80.001	19.994	103.775	19.967	3.157	0.537
992.000	572.054	80.000	19.994	103.775	19.970	2.916	0.557
994.000	573.099	80.001	19.995	103.768	19.967	3.121	0.534
996.000	574.174	80.001	19.995	103.739	19.967	3.112	0.538
998.000	575.277	80.001	19.996	103.753	19.968	3.053	0.567
1000.000	576.351	80.001	19.995	103.723	19.966	3.167	0.552
1002.000	577.383	80.000	19.994	103.746	19.966	3.188	0.535
1004.000	578.431	80.000	19.994	103.777	19.970	2.915	0.524
1006.000	579.517	80.000	19.995	103.822	19.968	3.064	0.543
1008.000	580.568	80.000	19.994	103.787	19.970	2.932	0.518
1010.000	581.682	80.000	19.995	103.777	19.970	2.949	0.512
1012.000	582.679	79.999	19.995	103.786	19.971	2.852	0.501
1014.000	583.770	79.998	19.995	103.790	19.969	3.014	0.540
1016.000	584.843	79.999	19.995	103.768	19.971	2.891	0.559
1018.000	585.883	80.001	19.994	103.804	19.974	2.675	0.533
1020.000	586.949	80.000	19.994	103.783	19.973	2.735	0.536
1022.000	587.994	80.001	19.995	103.731	19.973	2.741	0.535
1024.000	589.073	80.000	19.994	103.726	19.975	2.587	0.541
1025.999	590.149	80.002	19.994	103.753	19.972	2.816	0.545
1027.999	591.179	80.003	19.995	103.743	19.970	2.927	0.544
1029.999	592.265	80.003	19.995	103.721	19.968	3.069	0.538
1032.000	593.295	80.003	19.994	103.732	19.965	3.274	0.548
1033.999	594.381	80.003	19.994	103.749	19.965	3.247	0.572
1035.999	595.430	80.002	19.995	103.764	19.969	2.991	0.544
1037.999	596.455	80.003	19.995	103.765	19.968	3.049	0.481
1039.999	597.509	80.001	19.994	103.746	19.971	2.891	0.542
1042.000	598.539	80.002	19.995	103.752	19.970	2.935	0.513
1043.999	599.611	80.000	19.995	103.750	19.968	3.052	0.527
1045.999	600.636	80.002	19.994	103.761	19.969	2.993	0.521
1047.999	601.695	80.002	19.993	103.769	19.971	2.880	0.530
1049.999	602.709	80.003	19.993	103.762	19.969	2.998	0.535
1051.999	603.770	80.003	19.995	103.778	19.970	2.902	0.524
1053.999	604.762	80.004	19.995	103.754	19.972	2.767	0.481
1056.000	605.771	80.006	19.994	103.726	19.970	2.930	0.496
1057.999	606.811	80.005	19.993	103.747	19.970	2.939	0.534
1059.999	607.842	80.004	19.993	103.762	19.969	3.027	0.510
1062.000	608.873	80.003	19.992	103.759	19.971	2.857	0.522
1063.999	609.859	80.004	19.993	103.761	19.976	2.566	0.527
1065.999	610.882	80.002	19.992	103.766	19.970	2.940	0.490
1068.001	611.931	80.000	19.994	103.739	19.967	3.131	0.495
1069.999	612.954	80.000	19.994	103.751	19.964	3.327	0.499
1071.999	613.938	80.001	19.994	103.732	19.965	3.273	0.510
1073.999	614.976	79.999	19.992	103.739	19.965	3.276	0.519
1075.999	615.978	80.000	19.994	103.756	19.967	3.156	0.496
1077.999	617.004	80.000	19.994	103.785	19.971	2.831	0.495
1079.999	617.991	80.002	19.995	103.772	19.967	3.159	0.494
1081.999	618.998	80.001	19.995	103.747	19.970	2.921	0.493
1084.000	619.980	80.000	19.994	103.766	19.970	2.928	0.482
1085.999	620.978	80.003	19.994	103.757	19.969	3.027	0.478
1087.999	621.987	80.000	19.994	103.724	19.967	3.109	0.502
1089.999	623.010	80.002	19.993	103.732	19.967	3.145	0.499
1091.999	624.047	80.000	19.994	103.725	19.963	3.382	0.537
1093.999	625.018	80.001	19.995	103.759	19.966	3.208	0.486
1096.000	626.045	80.002	19.994	103.718	19.965	3.244	0.525
1097.999	627.035	80.000	19.994	103.756	19.967	3.118	0.514
1099.999	628.058	80.000	19.994	103.757	19.964	3.305	0.507
1101.999	629.041	80.001	19.994	103.757	19.962	3.457	0.517
1103.999	630.051	80.001	19.995	103.744	19.968	3.082	0.490
1105.999	631.050	80.001	19.995	103.754	19.965	3.232	0.521
1107.999	632.036	80.002	19.994	103.754	19.966	3.209	0.501
1109.999	633.035	80.003	19.994	103.749	19.966	3.165	0.495
1111.999	634.095	80.002	19.995	103.766	19.970	2.933	0.510
1113.999	635.132	80.002	19.995	103.768	19.967	3.118	0.532
1115.999	636.150	80.004	19.994	103.754	19.965	3.244	0.516
1117.999	637.195	80.003	19.993	103.752	19.968	3.044	0.546
1119.999	638.170	80.003	19.994	103.763	19.966	3.224	0.478
1121.999	639.258	80.001	19.992	103.766	19.967	3.136	0.528
1123.999	640.238	80.001	19.993	103.769	19.965	3.264	0.514
1125.999	641.319	80.002	19.995	103.771	19.967	3.154	0.541
1128.000	642.331	80.002	19.994	103.760	19.967	3.122	0.520
1130.000	643.348	80.002	19.994	103.763	19.962	3.473	0.505
1132.000	644.380	80.003	19.994	103.764	19.964	3.316	0.551
1133.999	645.398	80.004	19.993	103.766	19.969	2.994	0.488
1135.999	646.414	80.002	19.993	103.767	19.963	3.412	0.526
1137.999	647.452	80.001	19.992	103.736	19.958	3.747	0.503
1140.001	648.460	80.004	19.992	103.724	19.963	3.413	0.510
1141.999	649.525	80.003	19.994	103.736	19.962	3.429	0.538
1144.000	650.566	80.001	19.993	103.764	19.963	3.413	0.522
1145.999	651.533	80.003	19.993	103.749	19.961	3.538	0.495
1148.000	652.646	80.001	19.993	103.745	19.962	3.478	0.506
1149.999	653.678	80.002	19.996	103.762	19.960	3.614	0.516
1151.999	654.718	80.001	19.993	103.760	19.960	3.579	0.518
1154.000	655.816	80.001	19.994	103.763	19.966	3.198	0.564
1155.999	656.840	80.003	19.994	103.763	19.964	3.320	0.516
1157.999	657.916	80.003	19.993	103.760	19.961	3.514	0.537
1160.000	658.951	80.000	19.993	103.755	19.959	3.631	0.517
1162.000	660.031	80.002	19.996	103.746	19.964	3.358	0.526
1163.999	661.056	80.002	19.994	103.739	19.962	3.451	0.522
1166.000	662.098	80.002	19.994	103.755	19.963	3.422	0.525
1168.000	663.159	80.003	19.996	103.739	19.959	3.643	0.523
1169.999	664.194	80.003	19.994	103.756	19.961	3.547	0.511
1171.999	665.225	80.002	19.993	103.760	19.959	3.673	0.535
1173.999	666.301	80.002	19.995	103.762	19.964	3.297	0.503
1175.999	667.345	80.001	19.995	103.757	19.961	3.525	0.513
1178.000	668.371	80.000	19.993	103.755	19.960	3.557	0.508
1180.000	669.407	80.000	19.995	103.739	19.962	3.470	0.501
1182.001	670.455	80.001	19.993	103.754	19.962	3.434	0.519
1183.999	671.520	80.000	19.994	103.744	19.962	3.482	0.527
1185.999	672.533	80.001	19.994	103.751	19.963	3.413	0.515
1187.999	673.575	80.001	19.994	103.736	19.963	3.364	0.491
1189.999	674.680	80.001	19.994	103.734	19.959	3.656	0.533
1192.000	675.728	80.003	19.994	103.754	19.961	3.540	0.543
1193.999	676.732	80.002	19.994	103.753	19.957	3.789	0.529
1195.999	677.772	80.002	19.994	103.757	19.959	3.633	0.513
1197.999	678.826	80.001	19.996	103.765	19.960	3.575	0.539
1199.999	679.788	80.001	19.995	103.757	19.957	3.765	0.493
1202.000	680.867	80.001	19.995	103.751	19.961	3.542	0.514
1203.999	681.879	80.001	19.994	103.747	19.961	3.514	0.484
1206.000	682.960	80.002	19.994	103.766	19.957	3.781	0.509
1208.000	683.950	80.003	19.994	103.766	19.959	3.665	0.482
1209.999	684.972	80.003	19.993	103.756	19.959	3.642	0.501
1211.999	685.992	80.003	19.993	103.753	19.961	3.522	0.539
1213.999	686.984	80.004	19.992	103.748	19.957	3.754	0.503
1215.999	688.031	80.004	19.993	103.725	19.959	3.645	0.534
1217.999	689.002	80.005	19.993	103.726	19.957	3.802	0.541
1220.000	689.994	80.004	19.992	103.752	19.958	3.696	0.497
1222.000	690.967	80.004	19.994	103.754	19.961	3.516	0.488
1223.999	692.000	80.003	19.994	103.755	19.962	3.452	0.520
1226.000	693.047	80.002	19.994	103.732	19.959	3.672	0.525
1228.000	694.017	80.000	19.994	103.742	19.956	3.823	0.466
1229.999	695.012	80.000	19.993	103.747	19.959	3.632	0.490
1231.999	696.000	80.001	19.995	103.753	19.961	3.510	0.485
1233.999	697.024	80.002	19.995	103.740	19.962	3.448	0.485
1236.000	697.986	80.003	19.995	103.728	19.961	3.494	0.492
1237.999	698.916	80.003	19.994	103.726	19.959	3.636	0.441
1239.999	699.889	80.001	19.994	103.734	19.961	3.513	0.468
1241.999	700.455	80.003	19.993	103.727	19.961	3.544	0.262
1243.999	701.707	80.003	19.993	103.729	19.957	3.771	0.434
1245.999	702.689	80.003	19.993	103.726	19.958	3.738	0.485
1247.999	703.645	80.004	19.994	103.740	19.955	3.921	0.482
1250.001	704.518	80.003	19.993	103.757	19.960	3.595	0.454
1251.999	705.470	80.002	19.993	103.765	19.959	3.664	0.467
1254.000	706.413	80.002	19.994	103.765	19.958	3.698	0.473
1255.999	707.314	80.001	19.994	103.764	19.960	3.609	0.453
1257.999	708.313	80.002	19.993	103.753	19.957	3.790	0.484
1259.999	709.203	80.000	19.993	103.749	19.960	3.605	0.464
1261.999	710.161	80.001	19.994	103.765	19.959	3.644	0.488
1263.999	711.161	80.001	19.993	103.765	19.956	3.849	0.497
1265.999	712.146	80.001	19.993	103.753	19.952	4.088	0.526
1267.999	713.021	80.002	19.994	103.746	19.950	4.235	0.443
1270.000	714.078	80.001	19.995	103.729	19.952	4.142	0.490
1271.999	715.091	80.001	19.995	103.748	19.951	4.155	0.501
1273.999	716.122	80.003	19.993	103.755	19.955	3.905	0.507
1275.999	717.108	80.003	19.994	103.761	19.952	4.131	0.497
1277.999	718.101	80.002	19.994	103.756	19.953	4.051	0.490
1279.999	719.111	80.003	19.993	103.764	19.961	3.518	0.486
1281.999	720.105	80.002	19.994	103.763	19.960	3.576	0.501
1284.000	721.143	80.002	19.995	103.748	19.953	4.028	0.533
1285.999	722.187	80.002	19.994	103.750	19.954	3.991	0.508
1287.999	723.203	80.002	19.995	103.753	19.953	4.051	0.538
1289.999	724.259	80.002	19.994	103.760	19.950	4.235	0.497
1291.999	725.263	80.002	19.996	103.756	19.951	4.175	0.514
1293.999	726.372	80.003	19.994	103.758	19.950	4.266	0.570
1295.999	727.443	80.004	19.993	103.755	19.953	4.044	0.559
1297.999	728.351	80.004	19.994	103.740	19.951	4.177	0.499
1300.000	729.371	80.005	19.994	103.756	19.952	4.149	0.511
1301.999	730.396	80.004	19.993	103.751	19.951	4.184	0.520
1303.999	731.448	80.004	19.994	103.760	19.951	4.173	0.539
1306.000	732.501	80.003	19.993	103.759	19.950	4.240	0.528
1308.000	733.544	80.002	19.994	103.757	19.948	4.403	0.518
1309.999	734.541	80.002	19.992	103.762	19.954	3.999	0.529
1311.999	735.559	80.001	19.993	103.754	19.951	4.153	0.533
1314.000	736.581	80.002	19.992	103.753	19.952	4.131	0.495
1315.999	737.601	80.001	19.994	103.761	19.948	4.384	0.534
1318.000	738.633	80.001	19.994	103.762	19.954	3.958	0.510
1320.000	739.655	80.003	19.994	103.764	19.957	3.761	0.517
1321.999	740.659	80.001	19.993	103.764	19.951	4.203	0.502
1323.999	741.702	80.002	19.994	103.762	19.951	4.214	0.519
1325.999	742.706	80.002	19.995	103.763	19.951	4.185	0.495
1327.500	743.521	80.002	19.994	103.760	19.951	4.176	0.543