File: 01_Data/Bean_Bag_Chair_Inner_Lining/MCC/Bean_Bag_Chair_Inner_Lining_MCC_30K_min_220314_R1.txt
Sample ID:	C:\MCC\MCC Cal\Test\Bean_Bag_Chair_Inner_Lining_MCC_30K_min_220314_R1.txt
Sample Weight (mg):	4.48
Heating Rate (C/s):	0.5
Combustor Temp (C):	900
N2 Flow Rate (cc/min):	80
O2 Flow Rate (cc/min):	20
Calibration File:	C:\MCC\MCC Cal\Coeff1 JN10440_30_210304.txt.txt
T Correction Coefficients:	0	1.024463	0
Time Shift (s):	14
*
Time (s)	Temperature (C)	N2 flow rate (cc/min)	O2 flow rate (cc/min)	Flow Rate (cc/min)	Oxygen (%)	HRR (W/g)	Heating rate (C/s)
-0.001	109.553	80.007	19.994	103.629	19.941	0.066	-0.016
2.000	109.563	80.005	19.993	103.628	19.943	-0.103	-0.016
3.999	109.575	80.003	19.994	103.627	19.939	0.172	0.008
5.999	109.584	80.005	19.995	103.631	19.946	-0.306	0.011
7.999	109.567	80.005	19.995	103.638	19.941	0.057	0.009
9.999	109.525	80.005	19.995	103.654	19.939	0.213	-0.016
12.000	109.572	80.004	19.996	103.678	19.937	0.324	-0.028
13.999	109.552	80.005	19.995	103.683	19.934	0.521	0.017
15.999	109.586	80.006	19.995	103.702	19.933	0.632	0.010
17.999	109.651	80.005	19.993	103.713	19.932	0.699	0.026
19.999	109.730	80.005	19.993	103.718	19.933	0.646	0.022
21.999	109.793	80.006	19.992	103.712	19.929	0.902	0.008
24.000	109.883	80.004	19.993	103.719	19.929	0.892	0.028
25.999	110.055	80.007	19.994	103.722	19.925	1.179	0.089
27.999	110.112	80.008	19.992	103.742	19.927	1.037	0.035
29.999	110.229	80.007	19.993	103.735	19.924	1.256	0.055
31.999	110.404	80.007	19.994	103.775	19.913	2.062	0.076
33.999	110.559	80.007	19.994	103.795	19.915	1.930	0.094
35.999	110.783	80.005	19.993	103.805	19.908	2.390	0.106
37.999	111.024	80.007	19.994	103.827	19.910	2.312	0.128
39.999	111.303	80.004	19.994	103.833	19.908	2.443	0.116
41.999	111.582	80.006	19.993	103.831	19.904	2.740	0.152
43.999	111.865	80.007	19.994	103.832	19.907	2.531	0.153
45.999	112.201	80.006	19.993	103.836	19.904	2.750	0.176
47.999	112.556	80.006	19.993	103.844	19.902	2.838	0.172
49.999	112.968	80.008	19.994	103.840	19.901	2.899	0.230
51.999	113.372	80.009	19.993	103.834	19.900	3.007	0.204
53.999	113.811	80.009	19.993	103.834	19.897	3.210	0.241
55.999	114.248	80.008	19.996	103.848	19.898	3.142	0.215
57.999	114.686	80.007	19.994	103.860	19.898	3.147	0.200
59.999	115.160	80.007	19.993	103.844	19.894	3.456	0.220
61.999	115.684	80.006	19.993	103.867	19.892	3.616	0.278
63.999	116.170	80.006	19.993	103.872	19.895	3.388	0.236
65.999	116.706	80.007	19.994	103.875	19.893	3.486	0.280
67.999	117.269	80.008	19.993	103.877	19.897	3.193	0.284
69.999	117.837	80.009	19.994	103.880	19.896	3.280	0.299
71.999	118.432	80.007	19.994	103.880	19.893	3.482	0.302
73.999	119.056	80.008	19.994	103.889	19.893	3.500	0.301
75.999	119.691	80.007	19.992	103.889	19.891	3.660	0.318
77.999	120.335	80.008	19.995	103.891	19.890	3.701	0.311
79.999	121.040	80.009	19.993	103.885	19.882	4.338	0.361
81.999	121.740	80.006	19.994	103.889	19.886	4.039	0.392
83.999	122.405	80.008	19.994	103.905	19.886	3.987	0.348
85.999	123.160	80.006	19.993	103.897	19.889	3.801	0.371
87.999	123.887	80.005	19.993	103.905	19.886	4.010	0.365
89.999	124.632	80.006	19.993	103.897	19.885	4.057	0.367
91.999	125.391	80.006	19.994	103.903	19.885	4.125	0.379
94.000	126.193	80.004	19.993	103.907	19.886	4.049	0.389
95.999	126.992	80.003	19.996	103.899	19.883	4.270	0.386
97.999	127.749	80.006	19.995	103.902	19.891	3.676	0.382
99.999	128.594	80.006	19.995	103.907	19.888	3.885	0.389
101.999	129.424	80.007	19.993	103.904	19.888	3.873	0.413
103.999	130.272	80.006	19.995	103.907	19.884	4.163	0.410
105.999	131.081	80.007	19.995	103.906	19.886	4.004	0.404
107.999	131.981	80.006	19.995	103.896	19.888	3.852	0.461
109.999	132.837	80.005	19.994	103.902	19.885	4.077	0.441
111.999	133.717	80.007	19.995	103.903	19.887	3.965	0.449
113.999	134.602	80.006	19.995	103.909	19.883	4.262	0.424
115.999	135.470	80.008	19.993	103.909	19.885	4.071	0.425
117.999	136.338	80.005	19.993	103.910	19.883	4.243	0.394
119.999	137.265	80.009	19.993	103.909	19.886	4.037	0.456
121.999	138.160	80.010	19.995	103.911	19.889	3.836	0.450
124.000	139.091	80.005	19.993	103.905	19.885	4.104	0.441
125.999	140.024	80.006	19.996	103.907	19.885	4.112	0.474
127.999	140.967	80.007	19.994	103.907	19.883	4.209	0.501
130.000	141.863	80.007	19.994	103.906	19.888	3.901	0.444
132.000	142.815	80.008	19.994	103.907	19.890	3.713	0.481
134.000	143.825	80.007	19.993	103.910	19.887	3.965	0.486
136.000	144.768	80.009	19.993	103.911	19.891	3.676	0.492
138.000	145.747	80.009	19.994	103.912	19.887	3.983	0.456
140.000	146.703	80.008	19.994	103.906	19.889	3.772	0.488
142.000	147.679	80.007	19.994	103.900	19.883	4.209	0.481
144.000	148.645	80.006	19.994	103.901	19.888	3.840	0.500
146.000	149.645	80.009	19.994	103.908	19.885	4.096	0.492
148.000	150.585	80.007	19.993	103.905	19.885	4.101	0.456
150.000	151.627	80.007	19.994	103.904	19.886	4.001	0.486
152.000	152.616	80.009	19.994	103.897	19.890	3.762	0.488
154.000	153.630	80.007	19.994	103.900	19.880	4.461	0.503
156.000	154.591	80.010	19.993	103.897	19.886	4.021	0.501
158.000	155.592	80.010	19.993	103.892	19.880	4.418	0.491
160.000	156.559	80.010	19.993	103.876	19.882	4.334	0.501
162.000	157.567	80.007	19.992	103.889	19.887	3.943	0.527
164.000	158.553	80.008	19.994	103.894	19.886	4.007	0.501
166.000	159.544	80.007	19.994	103.888	19.883	4.253	0.503
168.000	160.539	80.006	19.994	103.876	19.882	4.331	0.499
170.000	161.569	80.006	19.994	103.892	19.888	3.903	0.516
172.000	162.579	80.006	19.993	103.890	19.886	3.991	0.499
174.000	163.583	80.005	19.993	103.881	19.882	4.290	0.491
176.000	164.536	80.007	19.996	103.870	19.887	3.974	0.475
178.000	165.569	80.005	19.994	103.870	19.885	4.114	0.494
180.000	166.634	80.007	19.993	103.871	19.884	4.143	0.515
182.000	167.612	80.005	19.993	103.871	19.886	4.003	0.502
184.000	168.619	80.005	19.993	103.866	19.883	4.249	0.492
186.000	169.686	80.008	19.995	103.870	19.886	4.046	0.521
188.000	170.637	80.007	19.993	103.872	19.880	4.454	0.477
190.000	171.686	80.006	19.994	103.869	19.883	4.231	0.498
192.000	172.646	80.006	19.995	103.869	19.883	4.251	0.493
194.000	173.675	80.007	19.995	103.870	19.883	4.249	0.512
196.000	174.719	80.007	19.996	103.869	19.888	3.893	0.517
198.000	175.659	80.007	19.994	103.867	19.888	3.895	0.468
200.000	176.623	80.006	19.995	103.869	19.884	4.168	0.486
202.000	177.656	80.006	19.994	103.865	19.883	4.213	0.501
204.000	178.621	80.005	19.995	103.864	19.884	4.167	0.501
206.000	179.625	80.006	19.995	103.867	19.889	3.825	0.469
208.000	180.624	80.007	19.994	103.868	19.888	3.882	0.502
210.000	181.638	80.007	19.995	103.867	19.888	3.891	0.507
212.000	182.660	80.009	19.994	103.842	19.886	4.018	0.499
214.000	183.657	80.006	19.992	103.865	19.886	4.038	0.529
216.000	184.678	80.008	19.993	103.864	19.884	4.193	0.512
218.000	185.733	80.008	19.992	103.869	19.885	4.061	0.532
220.000	186.733	80.007	19.993	103.871	19.885	4.076	0.529
222.000	187.714	80.007	19.993	103.854	19.885	4.099	0.511
224.000	188.685	80.007	19.994	103.870	19.880	4.422	0.509
226.000	189.626	80.008	19.994	103.856	19.889	3.825	0.464
228.000	190.648	80.006	19.993	103.847	19.884	4.130	0.465
230.000	191.671	80.008	19.995	103.848	19.887	3.928	0.497
232.000	192.626	80.008	19.993	103.834	19.890	3.721	0.540
234.000	193.557	80.008	19.993	103.849	19.893	3.540	0.476
236.000	194.593	80.008	19.994	103.855	19.885	4.121	0.485
238.000	195.555	80.008	19.994	103.863	19.887	3.941	0.510
240.000	196.558	80.007	19.996	103.860	19.881	4.375	0.518
242.000	197.491	80.010	19.995	103.842	19.888	3.838	0.473
244.000	198.520	80.008	19.993	103.854	19.882	4.275	0.487
246.000	199.480	80.009	19.995	103.858	19.885	4.073	0.465
248.000	200.404	80.009	19.993	103.840	19.882	4.283	0.438
250.000	201.444	80.008	19.994	103.855	19.881	4.365	0.509
252.000	202.472	80.006	19.995	103.851	19.886	4.039	0.458
254.000	203.444	80.007	19.993	103.856	19.884	4.147	0.454
256.000	204.388	80.007	19.994	103.846	19.882	4.278	0.482
258.000	205.386	80.006	19.993	103.859	19.882	4.293	0.484
260.000	206.389	80.007	19.993	103.847	19.881	4.351	0.508
262.000	207.412	80.005	19.993	103.844	19.885	4.074	0.497
264.000	208.356	80.007	19.993	103.864	19.877	4.656	0.490
266.000	209.392	80.008	19.994	103.862	19.881	4.406	0.516
268.000	210.362	80.006	19.993	103.859	19.882	4.318	0.471
270.000	211.357	80.006	19.996	103.838	19.878	4.607	0.500
272.000	212.298	80.007	19.994	103.841	19.880	4.468	0.480
274.000	213.321	80.006	19.994	103.843	19.880	4.427	0.517
276.000	214.320	80.005	19.996	103.845	19.878	4.578	0.512
278.000	215.273	80.010	19.992	103.839	19.878	4.623	0.481
280.000	216.276	80.010	19.993	103.837	19.879	4.533	0.517
282.000	217.298	80.008	19.992	103.835	19.882	4.302	0.509
284.000	218.230	80.006	19.994	103.835	19.879	4.543	0.486
286.000	219.258	80.002	19.994	103.843	19.885	4.111	0.507
288.000	220.255	80.004	19.994	103.838	19.886	4.044	0.515
290.000	221.282	80.006	19.994	103.839	19.880	4.445	0.529
292.000	222.216	80.006	19.995	103.839	19.883	4.239	0.484
294.000	223.254	80.007	19.995	103.840	19.883	4.249	0.516
296.000	224.269	80.007	19.995	103.834	19.885	4.074	0.547
298.000	225.258	80.008	19.995	103.829	19.884	4.126	0.492
300.000	226.278	80.008	19.994	103.833	19.883	4.218	0.501
302.000	227.268	80.008	19.994	103.827	19.883	4.230	0.474
304.000	228.239	80.006	19.993	103.821	19.882	4.284	0.522
306.000	229.276	80.006	19.996	103.834	19.885	4.062	0.508
308.000	230.245	80.009	19.995	103.830	19.882	4.281	0.469
310.000	231.262	80.007	19.994	103.831	19.884	4.159	0.512
312.000	232.245	80.010	19.993	103.831	19.883	4.240	0.494
314.000	233.234	80.007	19.994	103.830	19.882	4.279	0.492
316.000	234.219	80.007	19.994	103.830	19.882	4.329	0.483
318.000	235.185	80.009	19.994	103.831	19.882	4.310	0.467
320.000	236.190	80.006	19.994	103.832	19.882	4.294	0.483
322.000	237.166	80.010	19.993	103.829	19.882	4.326	0.510
324.000	238.147	80.010	19.994	103.831	19.881	4.380	0.497
326.000	239.116	80.009	19.994	103.831	19.882	4.296	0.485
328.000	240.081	80.010	19.994	103.829	19.880	4.449	0.464
330.000	241.088	80.009	19.994	103.832	19.882	4.335	0.494
332.000	242.061	80.006	19.993	103.832	19.881	4.406	0.482
334.000	243.073	80.006	19.993	103.834	19.884	4.179	0.484
336.000	244.088	80.007	19.992	103.833	19.880	4.437	0.517
338.000	245.037	80.006	19.993	103.836	19.883	4.238	0.470
340.000	246.061	80.004	19.994	103.832	19.884	4.156	0.532
342.000	247.037	80.005	19.993	103.832	19.882	4.300	0.495
344.000	248.006	80.004	19.993	103.834	19.882	4.310	0.462
346.000	248.998	80.013	19.993	103.835	19.882	4.333	0.499
348.000	250.024	80.007	19.994	103.832	19.882	4.339	0.533
350.000	251.032	80.009	19.992	103.833	19.878	4.576	0.470
352.000	252.038	80.006	19.994	103.836	19.879	4.544	0.534
354.000	253.036	80.006	19.993	103.837	19.875	4.823	0.502
356.000	254.042	80.006	19.994	103.835	19.876	4.753	0.475
358.000	255.006	80.005	19.994	103.835	19.883	4.204	0.469
360.000	256.071	80.007	19.995	103.833	19.881	4.409	0.529
362.000	257.004	80.001	19.995	103.832	19.880	4.440	0.480
364.000	258.016	80.003	19.995	103.829	19.878	4.602	0.504
366.000	259.055	80.005	19.995	103.830	19.880	4.443	0.521
368.000	260.043	80.004	19.995	103.830	19.881	4.362	0.510
370.000	260.995	80.007	19.994	103.830	19.880	4.421	0.459
372.000	262.055	80.006	19.995	103.826	19.876	4.765	0.518
374.000	263.045	80.006	19.994	103.811	19.879	4.536	0.463
376.000	264.079	80.007	19.994	103.829	19.879	4.551	0.496
378.000	265.089	80.008	19.994	103.828	19.881	4.376	0.487
380.000	266.120	80.010	19.994	103.825	19.881	4.348	0.497
382.000	267.119	80.008	19.994	103.827	19.882	4.276	0.520
384.000	268.097	80.008	19.994	103.826	19.881	4.392	0.473
386.000	269.124	80.010	19.994	103.811	19.880	4.442	0.501
388.000	270.137	80.007	19.992	103.825	19.879	4.556	0.498
390.000	271.210	80.008	19.994	103.806	19.881	4.373	0.504
392.000	272.187	80.008	19.994	103.807	19.879	4.542	0.523
394.000	273.206	80.015	19.993	103.817	19.881	4.405	0.516
396.000	274.205	80.005	19.993	103.828	19.879	4.505	0.507
398.000	275.166	80.000	19.996	103.822	19.878	4.614	0.479
400.000	276.239	80.011	19.993	103.831	19.880	4.468	0.559
402.000	277.177	80.009	19.993	103.840	19.878	4.609	0.482
404.000	278.199	80.010	19.994	103.830	19.876	4.747	0.484
406.000	279.185	80.008	19.994	103.829	19.876	4.763	0.504
408.000	280.221	80.009	19.993	103.830	19.876	4.729	0.486
410.000	281.217	80.007	19.993	103.827	19.872	5.036	0.512
412.000	282.215	80.006	19.994	103.831	19.875	4.776	0.501
414.000	283.273	80.005	19.994	103.831	19.876	4.755	0.512
416.000	284.253	80.006	19.992	103.828	19.874	4.863	0.520
418.000	285.252	80.006	19.995	103.823	19.876	4.726	0.511
420.000	286.287	80.006	19.993	103.824	19.876	4.716	0.509
422.000	287.321	80.009	19.993	103.828	19.874	4.864	0.492
424.000	288.317	79.995	19.994	103.827	19.876	4.741	0.503
426.000	289.407	79.999	19.994	103.830	19.875	4.829	0.537
428.000	290.404	80.022	19.993	103.824	19.876	4.712	0.515
430.000	291.419	79.996	19.996	103.832	19.872	4.994	0.542
432.000	292.487	80.007	19.994	103.830	19.872	5.057	0.528
434.000	293.479	80.007	19.993	103.830	19.875	4.823	0.520
436.000	294.463	80.010	19.994	103.821	19.872	5.031	0.494
438.000	295.503	80.005	19.994	103.827	19.874	4.882	0.484
440.000	296.551	79.994	19.995	103.809	19.875	4.815	0.520
442.000	297.525	79.997	19.994	103.809	19.872	4.998	0.491
444.000	298.599	80.000	19.993	103.825	19.874	4.912	0.490
446.000	299.542	80.004	19.995	103.807	19.875	4.836	0.493
448.000	300.568	80.007	19.993	103.817	19.874	4.874	0.483
450.000	301.586	80.007	19.993	103.819	19.877	4.683	0.497
452.000	302.619	80.000	19.995	103.810	19.877	4.635	0.512
454.000	303.617	79.997	19.996	103.811	19.873	4.946	0.488
456.000	304.672	79.998	19.994	103.806	19.875	4.776	0.521
458.000	305.645	80.006	19.994	103.803	19.873	4.985	0.498
460.000	306.660	80.005	19.993	103.825	19.877	4.696	0.491
462.000	307.658	80.010	19.993	103.823	19.875	4.815	0.510
464.000	308.640	80.007	19.994	103.811	19.867	5.386	0.515
466.000	309.665	80.009	19.995	103.820	19.870	5.151	0.501
468.000	310.636	80.011	19.995	103.816	19.874	4.895	0.473
470.000	311.665	80.005	19.994	103.827	19.873	4.974	0.504
472.000	312.706	80.005	19.994	103.820	19.873	4.922	0.541
474.000	313.724	80.010	19.993	103.835	19.869	5.223	0.495
476.000	314.702	80.001	19.993	103.825	19.872	5.020	0.477
478.000	315.645	79.995	19.994	103.808	19.864	5.640	0.473
480.000	316.662	79.996	19.996	103.794	19.869	5.262	0.490
482.000	317.672	79.995	19.994	103.799	19.870	5.186	0.490
484.000	318.703	80.021	19.994	103.796	19.869	5.216	0.522
486.000	319.662	80.008	19.995	103.817	19.868	5.294	0.484
488.000	320.675	80.009	19.995	103.800	19.867	5.419	0.467
490.000	321.711	80.010	19.994	103.815	19.872	5.005	0.518
492.000	322.666	79.996	19.997	103.798	19.870	5.175	0.472
494.000	323.641	80.008	19.994	103.794	19.875	4.787	0.498
496.000	324.697	80.021	19.993	103.792	19.870	5.195	0.524
498.000	325.647	80.010	19.995	103.800	19.867	5.370	0.508
500.000	326.660	80.000	19.995	103.795	19.867	5.419	0.537
502.000	327.595	80.004	19.994	103.796	19.866	5.444	0.460
504.000	328.639	80.012	19.994	103.797	19.868	5.284	0.511
506.000	329.623	80.004	19.995	103.813	19.868	5.322	0.503
508.000	330.608	80.005	19.994	103.787	19.865	5.562	0.486
510.000	331.598	80.017	19.992	103.791	19.864	5.606	0.473
512.000	332.605	80.018	19.993	103.790	19.866	5.472	0.489
514.000	333.550	80.005	19.996	103.793	19.864	5.634	0.461
516.000	334.595	80.006	19.994	103.791	19.866	5.449	0.506
518.000	335.550	80.010	19.992	103.803	19.865	5.563	0.491
520.000	336.517	80.006	19.995	103.794	19.866	5.492	0.461
522.000	337.496	80.008	19.994	103.795	19.865	5.562	0.505
524.000	338.467	80.007	19.993	103.791	19.867	5.397	0.499
526.000	339.467	80.007	19.994	103.809	19.865	5.567	0.484
528.000	340.446	80.005	19.994	103.811	19.861	5.821	0.473
530.000	341.440	80.001	19.996	103.826	19.866	5.428	0.518
532.000	342.446	80.017	19.994	103.806	19.863	5.682	0.521
534.000	343.474	80.009	19.993	103.813	19.861	5.803	0.517
536.000	344.464	80.002	19.994	103.815	19.864	5.591	0.519
538.000	345.488	80.004	19.996	103.830	19.858	6.066	0.479
540.000	346.508	80.002	19.993	103.825	19.862	5.719	0.506
542.000	347.569	80.000	19.994	103.822	19.858	6.060	0.540
544.000	348.590	80.004	19.993	103.824	19.859	5.986	0.559
546.000	349.629	80.014	19.994	103.830	19.859	5.944	0.475
548.000	350.651	80.012	19.994	103.820	19.857	6.088	0.506
550.000	351.669	80.018	19.992	103.812	19.860	5.894	0.515
552.000	352.729	80.016	19.993	103.819	19.856	6.167	0.551
554.000	353.763	80.008	19.993	103.810	19.860	5.888	0.523
556.000	354.851	80.005	19.994	103.823	19.858	6.075	0.542
558.000	355.887	79.999	19.996	103.803	19.852	6.458	0.532
560.000	356.885	80.012	19.993	103.792	19.857	6.095	0.496
562.000	357.946	80.004	19.995	103.800	19.859	5.987	0.541
564.000	358.963	80.015	19.995	103.799	19.854	6.356	0.505
566.000	359.984	80.003	19.996	103.793	19.851	6.546	0.504
568.000	361.051	80.012	19.993	103.795	19.850	6.606	0.515
570.000	362.106	80.016	19.996	103.815	19.850	6.613	0.528
572.000	363.132	80.006	19.992	103.803	19.844	7.075	0.522
574.000	364.185	80.009	19.994	103.814	19.845	6.951	0.528
576.000	365.192	80.010	19.994	103.832	19.848	6.760	0.504
578.000	366.244	80.011	19.994	103.828	19.845	7.005	0.529
580.000	367.232	80.001	19.997	103.822	19.841	7.289	0.515
582.000	368.272	80.004	19.995	103.815	19.841	7.287	0.509
584.000	369.323	80.000	19.995	103.823	19.833	7.820	0.491
586.000	370.408	80.009	19.995	103.812	19.833	7.841	0.521
588.000	371.367	80.004	19.996	103.823	19.826	8.361	0.506
590.000	372.431	80.009	19.995	103.827	19.823	8.571	0.505
592.000	373.454	80.015	19.996	103.805	19.815	9.143	0.503
594.000	374.531	80.002	19.994	103.791	19.815	9.162	0.510
596.000	375.529	80.003	19.995	103.811	19.812	9.368	0.527
598.000	376.572	80.006	19.994	103.815	19.810	9.510	0.542
600.000	377.580	80.001	19.994	103.820	19.806	9.814	0.486
602.000	378.583	80.009	19.994	103.802	19.798	10.362	0.495
604.000	379.641	80.006	19.992	103.817	19.790	10.979	0.567
606.000	380.665	80.008	19.993	103.832	19.788	11.091	0.527
608.000	381.697	80.000	19.993	103.825	19.785	11.316	0.507
610.000	382.719	80.000	19.995	103.824	19.774	12.093	0.513
612.000	383.784	80.002	19.994	103.824	19.769	12.501	0.517
614.000	384.801	80.008	19.992	103.831	19.760	13.118	0.531
616.000	385.856	80.013	19.992	103.839	19.755	13.511	0.540
618.000	386.828	80.007	19.993	103.833	19.746	14.136	0.472
620.000	387.860	80.003	19.995	103.835	19.736	14.834	0.520
622.000	388.946	80.012	19.994	103.836	19.724	15.742	0.539
624.000	389.917	80.007	19.993	103.840	19.720	16.016	0.494
626.000	390.921	80.003	19.994	103.837	19.711	16.688	0.498
628.000	391.950	80.008	19.993	103.852	19.700	17.488	0.488
630.000	392.984	80.008	19.994	103.854	19.686	18.469	0.523
632.000	393.997	80.007	19.994	103.862	19.677	19.153	0.513
634.000	395.017	80.005	19.994	103.861	19.664	20.084	0.518
636.000	396.030	80.008	19.993	103.858	19.650	21.096	0.512
638.000	397.064	80.011	19.994	103.869	19.633	22.354	0.495
640.000	398.067	80.009	19.994	103.874	19.614	23.730	0.499
642.000	399.061	80.012	19.994	103.879	19.597	24.901	0.482
644.000	400.056	80.008	19.994	103.891	19.580	26.183	0.508
646.000	401.048	80.014	19.993	103.903	19.563	27.427	0.494
648.000	402.105	80.008	19.994	103.909	19.544	28.808	0.513
650.000	403.092	80.006	19.995	103.907	19.517	30.704	0.502
652.000	404.170	80.008	19.995	103.914	19.490	32.681	0.503
654.000	405.152	79.994	19.994	103.909	19.474	33.864	0.505
656.000	406.196	80.011	19.994	103.908	19.459	34.974	0.528
658.000	407.227	80.001	19.994	103.915	19.437	36.529	0.511
660.000	408.240	80.010	19.995	103.932	19.419	37.868	0.514
662.000	409.234	80.007	19.994	103.974	19.399	39.289	0.511
664.000	410.251	80.008	19.992	103.981	19.376	40.975	0.504
666.000	411.249	80.016	19.994	103.982	19.344	43.298	0.476
668.000	412.286	80.011	19.992	103.986	19.321	44.982	0.488
670.000	413.320	80.010	19.993	103.988	19.292	47.084	0.511
672.000	414.259	80.006	19.994	103.997	19.260	49.390	0.474
674.000	415.305	80.007	19.994	104.029	19.222	52.180	0.519
676.000	416.302	80.005	19.994	104.040	19.183	54.981	0.516
678.000	417.361	80.015	19.994	104.054	19.142	57.992	0.516
680.000	418.270	79.999	19.994	104.064	19.100	61.020	0.452
682.000	419.287	80.004	19.994	104.069	19.049	64.788	0.479
684.000	420.288	80.006	19.995	104.115	18.999	68.388	0.500
686.000	421.287	80.006	19.993	104.116	18.953	71.784	0.524
688.000	422.285	80.009	19.994	104.145	18.897	75.803	0.475
690.000	423.280	80.008	19.994	104.147	18.841	79.905	0.467
692.000	424.340	80.008	19.994	104.171	18.778	84.507	0.533
694.000	425.340	80.008	19.996	104.193	18.719	88.866	0.529
696.000	426.315	80.009	19.994	104.215	18.664	92.818	0.486
698.000	427.331	80.006	19.995	104.223	18.600	97.567	0.506
700.000	428.338	80.006	19.994	104.255	18.535	102.305	0.485
702.000	429.352	80.007	19.994	104.293	18.465	107.418	0.499
704.000	430.345	80.007	19.994	104.324	18.395	112.496	0.501
706.000	431.364	80.006	19.994	104.337	18.301	119.396	0.535
708.000	432.406	80.007	19.994	104.384	18.208	126.174	0.554
710.000	433.385	80.007	19.993	104.420	18.116	132.926	0.486
712.000	434.385	80.007	19.994	104.433	18.020	140.015	0.498
714.000	435.410	80.009	19.994	104.441	17.924	147.005	0.509
716.000	436.397	80.007	19.994	104.470	17.829	153.912	0.506
718.000	437.367	80.011	19.994	104.531	17.753	159.442	0.488
720.000	438.377	80.009	19.993	104.527	17.668	165.697	0.491
722.000	439.451	80.008	19.993	104.565	17.575	172.558	0.526
724.000	440.416	80.007	19.995	104.617	17.509	177.393	0.510
726.000	441.453	80.008	19.995	104.630	17.460	181.010	0.510
728.000	442.438	80.006	19.994	104.617	17.407	184.875	0.499
730.000	443.474	80.009	19.995	104.607	17.377	187.107	0.514
732.000	444.474	80.007	19.994	104.660	17.352	188.862	0.497
734.000	445.454	80.009	19.994	104.701	17.334	190.151	0.463
736.000	446.437	80.007	19.994	104.705	17.321	191.160	0.407
738.000	447.568	80.007	19.994	104.729	17.304	192.327	0.447
740.000	448.514	80.009	19.994	104.744	17.295	192.983	0.381
742.000	449.400	80.012	19.993	104.744	17.286	193.575	0.524
744.000	450.487	80.010	19.992	104.732	17.285	193.664	0.555
746.000	451.566	80.007	19.993	104.727	17.289	193.321	0.576
748.000	452.555	80.010	19.994	104.722	17.309	191.772	0.482
750.000	453.554	80.010	19.994	104.699	17.338	189.665	0.510
752.000	454.612	80.010	19.995	104.692	17.379	186.642	0.505
754.000	455.558	80.007	19.993	104.679	17.432	182.689	0.539
756.000	456.579	80.007	19.995	104.657	17.496	177.980	0.521
758.000	457.581	80.007	19.995	104.629	17.571	172.459	0.486
760.000	458.706	80.009	19.994	104.604	17.658	166.052	0.534
762.000	459.666	80.009	19.994	104.585	17.753	159.097	0.498
764.000	460.714	80.008	19.994	104.548	17.860	151.264	0.518
766.000	461.745	80.007	19.995	104.508	17.970	143.201	0.521
768.000	462.745	80.006	19.995	104.463	18.080	135.168	0.510
770.000	463.802	80.006	19.994	104.431	18.194	126.849	0.508
772.000	464.844	80.008	19.992	104.387	18.315	118.066	0.521
774.000	465.839	80.009	19.994	104.365	18.439	108.986	0.509
776.000	466.879	80.008	19.994	104.310	18.574	99.166	0.513
778.000	467.902	80.007	19.994	104.269	18.698	90.150	0.487
780.000	468.959	80.008	19.994	104.233	18.815	81.629	0.535
782.000	469.942	80.007	19.994	104.219	18.925	73.676	0.480
784.000	470.981	80.006	19.996	104.196	19.024	66.494	0.493
786.000	472.062	80.006	19.995	104.162	19.107	60.475	0.558
788.000	473.091	80.005	19.999	104.124	19.181	55.044	0.517
790.000	474.165	80.007	19.994	104.077	19.251	50.015	0.547
792.000	475.193	80.008	19.995	104.062	19.312	45.607	0.524
794.000	476.279	80.007	19.995	104.038	19.361	42.008	0.541
796.000	477.250	80.003	19.995	104.003	19.406	38.735	0.490
798.000	478.308	80.009	19.995	103.986	19.448	35.727	0.502
800.000	479.346	80.005	19.995	103.985	19.482	33.239	0.501
802.000	480.341	80.010	19.991	103.962	19.517	30.695	0.517
804.000	481.409	80.009	19.994	103.948	19.540	29.053	0.522
806.000	482.429	80.009	19.995	103.949	19.563	27.392	0.528
808.000	483.437	80.009	19.997	103.926	19.588	25.583	0.514
810.000	484.491	80.008	19.995	103.914	19.607	24.186	0.496
812.000	485.517	80.014	19.992	103.908	19.625	22.874	0.521
814.000	486.560	80.008	19.997	103.899	19.635	22.195	0.548
816.000	487.536	80.011	19.992	103.895	19.653	20.872	0.508
818.000	488.563	80.011	19.991	103.883	19.665	20.026	0.495
820.000	489.631	80.010	19.991	103.872	19.681	18.822	0.533
822.000	490.620	80.011	19.994	103.876	19.689	18.264	0.532
824.000	491.665	80.009	19.992	103.869	19.702	17.291	0.525
826.000	492.657	80.006	19.992	103.862	19.711	16.699	0.506
828.000	493.694	80.008	19.993	103.854	19.719	16.070	0.503
830.000	494.718	80.012	19.990	103.860	19.728	15.441	0.536
832.000	495.752	80.012	19.996	103.846	19.737	14.803	0.501
834.000	496.756	80.008	19.995	103.837	19.739	14.646	0.519
836.000	497.788	80.006	19.992	103.834	19.746	14.171	0.523
838.000	498.789	80.012	19.992	103.830	19.750	13.880	0.485
840.000	499.825	80.009	19.991	103.833	19.757	13.359	0.551
842.000	500.800	80.005	19.993	103.834	19.759	13.184	0.506
844.000	501.837	80.007	19.997	103.830	19.766	12.668	0.525
846.000	502.885	80.009	19.998	103.825	19.770	12.397	0.510
848.000	503.882	80.006	19.991	103.816	19.769	12.461	0.498
850.000	504.862	80.010	19.997	103.799	19.773	12.219	0.502
852.000	505.929	80.007	19.990	103.822	19.776	12.000	0.558
854.000	506.927	80.008	19.992	103.807	19.775	12.070	0.484
856.000	507.957	80.004	20.001	103.797	19.776	11.990	0.515
858.000	509.009	80.010	19.995	103.809	19.776	11.986	0.522
860.000	510.014	80.010	19.999	103.810	19.776	11.955	0.506
862.000	511.086	80.009	19.998	103.793	19.774	12.086	0.539
864.000	512.075	80.006	19.988	103.797	19.777	11.894	0.508
866.000	513.103	80.013	19.990	103.791	19.776	11.973	0.502
868.000	514.140	80.008	19.994	103.794	19.778	11.854	0.525
870.000	515.163	80.012	19.991	103.794	19.781	11.588	0.530
872.000	516.185	80.009	19.994	103.798	19.779	11.723	0.506
874.000	517.206	80.007	19.996	103.800	19.781	11.641	0.484
876.000	518.260	80.009	19.995	103.801	19.780	11.705	0.541
878.000	519.230	80.006	19.997	103.801	19.780	11.687	0.490
880.000	520.286	80.009	19.995	103.795	19.782	11.556	0.518
882.000	521.341	80.007	19.993	103.795	19.781	11.628	0.526
884.000	522.335	80.010	19.993	103.795	19.781	11.584	0.548
886.000	523.396	80.008	19.995	103.794	19.782	11.511	0.537
888.000	524.368	80.008	19.995	103.795	19.779	11.718	0.487
890.000	525.414	80.009	19.995	103.794	19.779	11.722	0.518
892.000	526.435	80.008	19.995	103.789	19.778	11.822	0.510
894.000	527.461	80.008	19.995	103.788	19.776	11.970	0.498
896.000	528.472	80.015	19.994	103.791	19.777	11.916	0.501
898.000	529.521	80.009	19.994	103.790	19.776	11.958	0.553
900.000	530.558	80.010	19.995	103.787	19.774	12.122	0.538
902.000	531.540	80.010	19.993	103.788	19.774	12.105	0.527
904.000	532.606	80.008	19.993	103.789	19.774	12.132	0.536
906.000	533.558	80.010	19.996	103.791	19.777	11.919	0.471
908.000	534.603	80.009	19.994	103.790	19.775	12.025	0.513
910.000	535.641	80.009	19.995	103.789	19.772	12.286	0.530
912.000	536.620	80.009	19.994	103.791	19.774	12.102	0.501
914.000	537.652	80.011	19.992	103.790	19.776	11.934	0.471
916.000	538.681	80.013	19.994	103.789	19.773	12.163	0.483
918.000	539.670	80.012	19.995	103.789	19.771	12.298	0.494
920.000	540.754	80.010	19.994	103.788	19.772	12.236	0.523
922.000	541.732	80.011	19.995	103.789	19.773	12.198	0.479
924.000	542.733	80.009	19.993	103.785	19.771	12.300	0.531
926.000	543.749	80.008	19.994	103.783	19.773	12.173	0.508
928.000	544.739	80.009	19.994	103.788	19.774	12.128	0.480
930.000	545.727	80.010	19.994	103.788	19.773	12.187	0.500
932.000	546.730	80.007	19.994	103.792	19.773	12.217	0.508
934.000	547.773	80.008	19.995	103.794	19.771	12.314	0.525
936.000	548.741	80.008	19.994	103.792	19.768	12.580	0.469
938.000	549.769	80.009	19.995	103.791	19.770	12.373	0.483
940.000	550.820	80.008	19.993	103.793	19.768	12.568	0.538
942.000	551.815	80.008	19.993	103.783	19.772	12.238	0.508
944.000	552.811	80.007	19.993	103.786	19.766	12.666	0.500
946.000	553.817	80.008	19.993	103.793	19.769	12.493	0.504
948.000	554.861	80.008	19.994	103.794	19.767	12.624	0.502
950.000	555.890	80.008	19.993	103.794	19.766	12.660	0.535
952.000	556.869	80.009	19.994	103.794	19.765	12.727	0.502
954.000	557.897	80.008	19.994	103.794	19.766	12.667	0.494
956.000	558.886	80.008	19.994	103.795	19.767	12.630	0.472
958.000	559.890	80.008	19.994	103.788	19.767	12.620	0.509
960.000	560.917	80.007	19.995	103.795	19.763	12.911	0.506
962.000	561.952	80.008	19.995	103.793	19.764	12.870	0.505
964.000	562.965	80.007	19.997	103.788	19.767	12.632	0.493
966.000	563.998	80.009	19.995	103.792	19.763	12.876	0.501
968.000	564.978	80.009	19.994	103.789	19.765	12.731	0.498
970.000	566.043	80.008	19.994	103.787	19.764	12.833	0.524
972.000	567.036	80.010	19.994	103.792	19.766	12.714	0.500
974.000	568.046	80.010	19.994	103.789	19.763	12.872	0.502
976.000	569.103	80.010	19.994	103.791	19.760	13.091	0.514
978.000	570.158	80.010	19.995	103.790	19.764	12.836	0.517
980.000	571.204	80.009	19.994	103.790	19.761	13.067	0.514
982.000	572.265	80.010	19.993	103.789	19.761	13.028	0.530
984.000	573.279	80.010	19.994	103.790	19.763	12.895	0.519
986.000	574.352	80.011	19.994	103.787	19.760	13.114	0.543
988.000	575.396	80.008	19.994	103.783	19.759	13.211	0.527
990.000	576.407	80.008	19.995	103.787	19.759	13.180	0.507
992.000	577.440	80.008	19.995	103.789	19.758	13.253	0.524
994.000	578.459	80.011	19.995	103.787	19.756	13.423	0.499
996.000	579.448	80.008	19.994	103.779	19.756	13.445	0.497
998.000	580.495	80.008	19.995	103.782	19.755	13.449	0.485
1000.000	581.461	80.009	19.994	103.789	19.756	13.399	0.494
1002.000	582.520	80.011	19.994	103.790	19.755	13.514	0.508
1004.000	583.525	80.011	19.993	103.791	19.756	13.448	0.527
1006.000	584.546	80.010	19.992	103.791	19.757	13.372	0.518
1008.000	585.569	80.011	19.992	103.782	19.754	13.522	0.525
1010.000	586.581	80.010	19.993	103.782	19.756	13.432	0.505
1012.000	587.624	80.009	19.994	103.791	19.754	13.571	0.533
1014.000	588.651	80.009	19.994	103.792	19.757	13.375	0.534
1016.000	589.679	80.009	19.993	103.793	19.752	13.728	0.523
1018.000	590.726	80.009	19.993	103.792	19.751	13.799	0.494
1020.000	591.782	80.008	19.994	103.794	19.751	13.770	0.510
1022.000	592.776	80.008	19.995	103.792	19.747	14.045	0.527
1024.000	593.814	80.008	19.995	103.794	19.749	13.887	0.517
1025.999	594.837	80.008	19.996	103.802	19.747	14.055	0.524
1027.999	595.864	80.007	19.996	103.794	19.746	14.160	0.535
1029.999	596.877	80.009	19.993	103.793	19.745	14.191	0.525
1031.999	597.844	80.008	19.993	103.793	19.745	14.230	0.511
1033.999	598.848	80.008	19.994	103.788	19.744	14.280	0.479
1035.999	599.855	80.008	19.994	103.789	19.742	14.402	0.489
1037.999	600.891	80.009	19.993	103.790	19.742	14.414	0.502
1039.999	601.910	80.010	19.993	103.789	19.743	14.340	0.506
1041.999	602.920	80.009	19.994	103.783	19.745	14.197	0.501
1043.999	603.912	80.009	19.992	103.790	19.741	14.469	0.507
1045.999	604.957	80.010	19.994	103.792	19.742	14.449	0.509
1047.999	605.990	80.007	19.994	103.788	19.740	14.564	0.497
1050.000	606.991	80.008	19.995	103.791	19.744	14.291	0.497
1051.999	607.978	80.009	19.994	103.789	19.739	14.636	0.497
1053.999	609.028	80.008	19.995	103.790	19.745	14.227	0.538
1055.999	610.057	80.009	19.995	103.790	19.743	14.383	0.503
1057.999	611.067	80.010	19.995	103.787	19.740	14.545	0.491
1059.999	612.080	80.010	19.994	103.788	19.739	14.656	0.522
1061.999	613.155	80.010	19.995	103.789	19.738	14.726	0.517
1063.999	614.202	80.010	19.994	103.788	19.740	14.603	0.541
1065.999	615.230	80.010	19.994	103.791	19.738	14.714	0.553
1067.999	616.271	80.010	19.994	103.789	19.737	14.795	0.518
1069.999	617.268	80.010	19.993	103.790	19.736	14.879	0.526
1071.999	618.282	80.009	19.994	103.790	19.736	14.887	0.504
1073.999	619.289	80.009	19.994	103.790	19.736	14.885	0.506
1075.999	620.302	80.008	19.994	103.785	19.739	14.672	0.542
1077.999	621.298	80.008	19.995	103.789	19.735	14.908	0.470
1079.999	622.365	80.009	19.995	103.791	19.737	14.754	0.482
1081.999	623.362	80.009	19.995	103.792	19.736	14.823	0.494
1083.999	624.360	80.008	19.994	103.792	19.736	14.842	0.495
1086.000	625.419	80.010	19.994	103.792	19.732	15.132	0.525
1087.999	626.430	80.011	19.994	103.791	19.735	14.960	0.475
1089.999	627.490	80.012	19.993	103.790	19.735	14.905	0.553
1091.999	628.492	80.009	19.995	103.801	19.735	14.945	0.523
1093.999	629.543	80.009	19.993	103.794	19.732	15.152	0.528
1095.999	630.559	80.008	19.994	103.791	19.733	15.103	0.527
1097.999	631.543	80.007	19.994	103.782	19.731	15.224	0.455
1099.999	632.588	80.006	19.995	103.788	19.733	15.064	0.536
1101.999	633.598	80.009	19.993	103.777	19.731	15.245	0.527
1104.000	634.635	80.010	19.992	103.788	19.733	15.068	0.547
1105.999	635.665	80.010	19.994	103.789	19.734	15.013	0.540
1108.000	636.677	80.009	19.993	103.787	19.733	15.065	0.508
1109.999	637.723	80.009	19.993	103.789	19.730	15.255	0.531
1111.999	638.732	80.009	19.993	103.787	19.733	15.081	0.532
1113.999	639.766	80.009	19.993	103.787	19.731	15.182	0.522
1115.999	640.831	80.009	19.994	103.790	19.731	15.241	0.490
1117.999	641.867	80.010	19.993	103.787	19.732	15.170	0.492
1119.999	642.903	80.009	19.994	103.789	19.729	15.377	0.506
1121.999	643.922	80.009	19.995	103.786	19.730	15.264	0.512
1123.999	644.964	80.007	19.995	103.787	19.729	15.347	0.521
1125.999	646.053	80.009	19.994	103.784	19.732	15.172	0.560
1128.000	647.080	80.009	19.994	103.785	19.729	15.356	0.514
1129.999	648.105	80.008	19.994	103.784	19.730	15.309	0.529
1132.000	649.153	80.007	19.994	103.778	19.728	15.426	0.508
1133.999	650.174	80.008	19.994	103.786	19.729	15.341	0.524
1135.999	651.237	80.006	19.994	103.768	19.729	15.369	0.538
1137.999	652.262	80.008	19.993	103.781	19.729	15.384	0.533
1139.999	653.269	80.007	19.994	103.786	19.726	15.580	0.501
1142.000	654.283	80.008	19.993	103.789	19.725	15.618	0.489
1143.999	655.340	80.010	19.991	103.783	19.727	15.499	0.507
1145.999	656.355	80.011	19.994	103.793	19.729	15.334	0.544
1147.999	657.379	80.010	19.994	103.790	19.732	15.178	0.509
1150.000	658.392	80.009	19.994	103.789	19.731	15.248	0.509
1151.999	659.445	80.010	19.993	103.779	19.732	15.133	0.543
1153.999	660.434	80.010	19.992	103.790	19.730	15.312	0.504
1155.999	661.430	80.010	19.993	103.782	19.727	15.489	0.515
1157.999	662.453	80.009	19.995	103.784	19.731	15.233	0.517
1159.999	663.481	80.009	19.993	103.787	19.730	15.266	0.488
1161.999	664.554	80.008	19.994	103.784	19.729	15.384	0.541
1164.000	665.566	80.009	19.994	103.786	19.732	15.154	0.515
1165.999	666.571	80.010	19.994	103.788	19.729	15.355	0.470
1167.999	667.593	80.010	19.995	103.779	19.729	15.373	0.491
1169.999	668.646	80.010	19.994	103.786	19.732	15.138	0.541
1171.999	669.680	80.010	19.994	103.786	19.731	15.214	0.521
1173.999	670.763	80.011	19.994	103.778	19.733	15.108	0.541
1175.999	671.722	80.012	19.993	103.774	19.731	15.240	0.498
1177.999	672.751	80.011	19.994	103.784	19.729	15.335	0.510
1179.999	673.799	80.010	19.994	103.782	19.730	15.302	0.515
1182.000	674.842	80.012	19.993	103.779	19.733	15.080	0.519
1183.999	675.857	80.011	19.995	103.781	19.729	15.328	0.520
1185.999	676.879	80.009	19.994	103.778	19.729	15.355	0.524
1187.999	677.919	80.009	19.995	103.769	19.729	15.389	0.537
1189.999	678.919	80.009	19.995	103.779	19.728	15.400	0.507
1191.999	679.875	80.009	19.994	103.769	19.728	15.403	0.507
1193.999	680.910	80.008	19.995	103.783	19.725	15.677	0.480
1195.999	681.943	80.009	19.996	103.769	19.728	15.425	0.538
1197.999	682.867	80.010	19.995	103.762	19.728	15.426	0.477
1199.999	683.862	80.008	19.994	103.771	19.726	15.588	0.511
1201.999	684.838	80.009	19.994	103.787	19.727	15.483	0.472
1203.999	685.862	80.010	19.993	103.781	19.728	15.408	0.511
1205.999	686.830	80.009	19.994	103.782	19.727	15.514	0.496
1207.999	687.810	80.009	19.994	103.788	19.723	15.808	0.497
1209.999	688.804	80.010	19.993	103.779	19.728	15.452	0.490
1211.999	689.801	80.009	19.993	103.783	19.725	15.620	0.492
1213.999	690.777	80.011	19.993	103.785	19.722	15.862	0.471
1215.999	691.774	80.010	19.994	103.792	19.720	16.026	0.504
1218.000	692.780	80.008	19.994	103.770	19.721	15.964	0.529
1219.999	693.807	80.009	19.994	103.770	19.721	15.929	0.496
1221.999	694.790	80.009	19.994	103.776	19.720	16.036	0.497
1223.999	695.858	80.007	19.994	103.777	19.717	16.250	0.536
1225.999	696.859	80.008	19.994	103.765	19.719	16.102	0.506
1227.999	697.895	80.008	19.993	103.788	19.726	15.585	0.540
1229.999	698.879	80.008	19.994	103.779	19.720	16.028	0.512
1231.999	699.880	80.010	19.994	103.760	19.717	16.260	0.492
1233.999	700.938	80.011	19.994	103.773	19.717	16.237	0.526
1235.999	701.949	80.011	19.993	103.788	19.719	16.071	0.513
1237.999	702.972	80.012	19.993	103.789	19.719	16.085	0.527
1239.999	704.010	80.011	19.993	103.787	19.717	16.219	0.544
1241.999	705.009	80.012	19.994	103.785	19.721	15.972	0.493
1243.999	706.027	80.012	19.992	103.785	19.718	16.121	0.520
1245.999	707.048	80.011	19.992	103.783	19.718	16.122	0.538
1247.999	708.045	80.011	19.994	103.773	19.715	16.368	0.511
1249.999	709.095	80.012	19.993	103.775	19.715	16.340	0.497
1251.999	710.075	80.012	19.994	103.774	19.713	16.545	0.491
1253.999	711.115	80.011	19.993	103.772	19.713	16.518	0.507
1255.999	712.165	80.011	19.995	103.769	19.715	16.383	0.518
1257.999	713.163	80.011	19.993	103.784	19.711	16.651	0.508
1259.999	714.190	80.012	19.994	103.775	19.713	16.550	0.522
1261.999	715.196	80.013	19.993	103.773	19.714	16.478	0.502
1263.999	716.210	80.012	19.993	103.776	19.716	16.308	0.523
1265.999	717.266	80.014	19.996	103.784	19.711	16.665	0.553
1268.000	718.266	80.012	19.994	103.785	19.713	16.500	0.509
1269.999	719.309	80.011	19.995	103.777	19.708	16.897	0.515
1271.999	720.331	80.010	19.994	103.775	19.710	16.736	0.518
1273.999	721.339	80.010	19.994	103.774	19.709	16.773	0.477
1275.999	722.410	80.010	19.992	103.777	19.709	16.798	0.512
1277.999	723.466	80.009	19.994	103.770	19.707	16.932	0.526
1279.999	724.490	80.009	19.994	103.783	19.711	16.673	0.494
1282.000	725.565	80.009	19.993	103.777	19.710	16.721	0.530
1283.999	726.508	80.010	19.994	103.778	19.709	16.831	0.499
1285.999	727.600	80.009	19.994	103.778	19.698	17.615	0.555
1287.999	728.689	80.009	19.994	103.774	19.697	17.651	0.559
1289.999	729.670	80.009	19.994	103.784	19.704	17.202	0.496
1291.999	730.738	80.010	19.994	103.776	19.702	17.308	0.542
1293.999	731.761	80.010	19.993	103.779	19.703	17.255	0.507
1295.999	732.794	80.010	19.995	103.779	19.704	17.146	0.542
1297.999	733.788	80.009	19.994	103.791	19.703	17.222	0.499
1300.000	734.777	80.010	19.994	103.795	19.705	17.107	0.508
1301.999	735.778	80.010	19.994	103.776	19.706	17.024	0.491
1303.999	736.831	80.008	19.994	103.775	19.703	17.260	0.489
1305.999	737.906	80.010	19.994	103.775	19.703	17.246	0.521
1307.999	738.955	80.011	19.994	103.783	19.701	17.378	0.562
1309.999	739.999	80.009	19.994	103.766	19.698	17.583	0.525
1311.999	741.015	80.008	19.993	103.774	19.699	17.528	0.519
1313.999	742.046	80.009	19.995	103.772	19.702	17.320	0.530
1315.999	743.059	80.011	19.993	103.784	19.699	17.515	0.506
1316.999	743.545	80.010	19.994	103.778	19.699	17.496	0.495