File: 01_Data/Bean_Bag_Chair_Inner_Lining/MCC/Bean_Bag_Chair_Inner_Lining_MCC_30K_min_220314_R3.txt
Sample ID:	C:\MCC\MCC Cal\Test\Bean_Bag_Chair_Inner_Lining_MCC_30K_min_220314_R3.txt
Sample Weight (mg):	4.66
Heating Rate (C/s):	0.5
Combustor Temp (C):	900
N2 Flow Rate (cc/min):	80
O2 Flow Rate (cc/min):	20
Calibration File:	C:\MCC\MCC Cal\Coeff1 JN10440_30_210304.txt.txt
T Correction Coefficients:	0	1.024463	0
Time Shift (s):	14
*
Time (s)	Temperature (C)	N2 flow rate (cc/min)	O2 flow rate (cc/min)	Flow Rate (cc/min)	Oxygen (%)	HRR (W/g)	Heating rate (C/s)
0.000	107.745	80.004	19.997	103.673	19.792	-0.255	-0.028
2.000	107.750	80.003	19.998	103.673	19.791	-0.187	-0.017
4.000	107.759	80.004	19.996	103.671	19.793	-0.341	-0.014
6.000	107.763	80.008	19.994	103.672	19.794	-0.373	0.038
8.000	107.740	80.005	19.996	103.677	19.798	-0.688	0.014
10.000	107.788	80.010	19.992	103.675	19.789	-0.049	-0.003
12.000	107.742	80.007	19.993	103.675	19.794	-0.373	-0.008
14.000	107.796	80.010	19.994	103.672	19.795	-0.471	0.003
16.000	107.787	80.012	19.993	103.677	19.791	-0.178	-0.008
18.000	107.796	80.009	19.995	103.700	19.792	-0.236	0.024
20.000	107.791	80.010	19.993	103.702	19.789	-0.021	-0.033
22.000	107.814	80.006	19.994	103.692	19.789	-0.034	-0.003
24.000	107.872	80.008	19.990	103.731	19.788	0.009	0.007
26.000	107.890	80.009	19.994	103.748	19.783	0.376	0.014
28.000	107.970	80.006	19.992	103.751	19.778	0.717	0.043
30.000	108.022	80.008	19.992	103.797	19.771	1.202	0.043
32.000	108.161	80.011	19.993	103.826	19.773	1.080	0.063
34.000	108.280	80.012	19.990	103.839	19.767	1.478	0.066
36.000	108.451	80.013	19.995	103.838	19.762	1.822	0.078
38.000	108.702	80.009	19.994	103.837	19.764	1.674	0.142
40.001	108.925	80.013	19.995	103.839	19.764	1.735	0.127
42.000	109.117	80.003	19.997	103.848	19.766	1.533	0.086
44.000	109.408	80.013	19.993	103.857	19.759	2.048	0.145
46.001	109.741	80.010	19.997	103.869	19.760	1.993	0.136
48.000	110.085	80.009	19.993	103.878	19.757	2.213	0.193
50.000	110.457	80.008	19.989	103.884	19.759	2.040	0.201
52.000	110.788	80.013	19.992	103.876	19.752	2.574	0.151
54.000	111.228	80.004	19.993	103.892	19.756	2.272	0.228
56.000	111.631	80.009	19.997	103.904	19.752	2.535	0.203
58.000	112.099	80.009	19.990	103.907	19.750	2.695	0.221
60.000	112.573	80.009	19.997	103.909	19.753	2.501	0.266
62.000	113.089	80.004	19.993	103.913	19.751	2.588	0.270
64.000	113.577	80.010	19.994	103.930	19.749	2.766	0.263
66.000	114.126	80.004	19.997	103.928	19.746	2.958	0.284
68.000	114.670	80.006	19.999	103.920	19.750	2.648	0.279
70.000	115.255	80.006	19.993	103.940	19.745	3.020	0.312
72.000	115.902	80.009	19.991	103.941	19.743	3.182	0.325
74.001	116.510	80.006	19.998	103.943	19.743	3.195	0.321
76.000	117.153	80.010	19.993	103.943	19.737	3.601	0.358
78.000	117.836	80.012	19.995	103.943	19.745	3.041	0.378
80.000	118.469	80.007	20.000	103.940	19.742	3.203	0.327
82.000	119.206	80.007	19.993	103.941	19.744	3.131	0.386
84.000	119.948	80.004	19.989	103.940	19.740	3.375	0.349
86.000	120.636	80.008	19.996	103.942	19.740	3.392	0.354
88.000	121.416	80.007	19.994	103.945	19.736	3.644	0.375
90.000	122.175	80.005	19.991	103.946	19.737	3.614	0.394
92.000	123.033	80.006	19.991	103.945	19.736	3.622	0.421
94.000	123.823	80.008	19.992	103.944	19.736	3.642	0.428
96.000	124.575	80.011	19.995	103.943	19.738	3.535	0.386
98.000	125.452	80.011	19.986	103.943	19.739	3.447	0.374
100.000	126.322	80.008	19.995	103.946	19.742	3.255	0.415
102.000	127.198	80.011	19.994	103.942	19.738	3.522	0.428
104.000	128.020	80.011	19.992	103.946	19.738	3.543	0.439
106.000	128.901	80.008	19.991	103.948	19.736	3.671	0.432
108.001	129.802	80.011	19.994	103.949	19.742	3.252	0.417
110.000	130.725	80.015	19.986	103.943	19.737	3.599	0.444
112.000	131.590	80.007	19.996	103.947	19.739	3.474	0.460
114.000	132.520	80.010	19.994	103.946	19.737	3.601	0.452
116.000	133.490	80.008	19.991	103.949	19.736	3.637	0.494
118.000	134.384	80.008	19.991	103.957	19.741	3.317	0.452
120.000	135.386	80.012	19.992	103.948	19.740	3.355	0.510
122.000	136.336	80.013	19.991	103.951	19.741	3.302	0.477
124.000	137.258	80.008	19.994	103.949	19.735	3.744	0.510
126.000	138.274	80.011	19.996	103.947	19.738	3.498	0.470
128.000	139.288	80.006	19.998	103.943	19.744	3.099	0.531
130.000	140.258	80.011	19.995	103.944	19.736	3.638	0.488
132.000	141.307	80.009	19.994	103.946	19.738	3.484	0.522
134.000	142.297	80.006	19.993	103.947	19.739	3.467	0.515
136.000	143.285	80.007	19.995	103.947	19.744	3.127	0.488
138.000	144.249	80.007	19.997	103.945	19.744	3.099	0.514
140.000	145.264	80.008	19.994	103.932	19.745	3.059	0.482
142.000	146.297	80.009	19.993	103.938	19.740	3.345	0.484
144.000	147.328	80.009	19.994	103.943	19.739	3.420	0.525
146.000	148.328	80.009	19.994	103.942	19.745	3.025	0.501
148.000	149.373	80.009	19.994	103.938	19.742	3.234	0.529
150.000	150.429	80.009	19.994	103.932	19.743	3.149	0.514
152.000	151.459	80.006	19.995	103.930	19.740	3.408	0.496
154.000	152.502	80.007	19.994	103.930	19.742	3.221	0.523
156.000	153.527	80.008	19.993	103.931	19.740	3.378	0.515
158.000	154.482	80.009	19.993	103.925	19.743	3.143	0.476
160.000	155.488	80.007	19.996	103.911	19.750	2.670	0.515
162.000	156.482	80.008	19.995	103.907	19.748	2.816	0.482
164.000	157.517	80.008	19.997	103.913	19.744	3.102	0.510
166.000	158.529	80.004	19.997	103.915	19.745	3.051	0.510
168.000	159.565	80.006	19.990	103.906	19.745	3.040	0.518
170.000	160.564	80.004	19.998	103.903	19.752	2.565	0.528
172.000	161.609	80.008	19.990	103.905	19.750	2.653	0.504
174.000	162.655	80.007	19.995	103.904	19.749	2.752	0.529
176.000	163.621	80.008	19.995	103.907	19.751	2.630	0.496
178.000	164.636	80.010	19.993	103.908	19.753	2.446	0.503
180.000	165.648	80.009	19.995	103.913	19.752	2.536	0.517
182.000	166.647	80.009	19.996	103.909	19.758	2.095	0.515
184.001	167.662	80.011	19.992	103.910	19.754	2.401	0.542
186.000	168.655	80.010	19.994	103.905	19.754	2.407	0.508
188.000	169.667	80.008	19.994	103.905	19.755	2.300	0.494
190.000	170.667	80.011	19.994	103.904	19.756	2.288	0.469
192.000	171.679	80.012	19.993	103.905	19.753	2.440	0.485
194.000	172.618	80.011	19.993	103.908	19.752	2.536	0.493
196.000	173.659	80.008	19.993	103.906	19.755	2.365	0.519
198.000	174.639	80.014	19.991	103.904	19.750	2.677	0.495
200.000	175.629	80.010	19.991	103.905	19.751	2.615	0.470
202.000	176.608	80.011	19.994	103.905	19.754	2.374	0.494
204.000	177.609	80.006	19.998	103.893	19.755	2.341	0.493
206.000	178.538	80.011	19.993	103.892	19.755	2.356	0.461
208.000	179.511	80.011	19.993	103.898	19.753	2.467	0.476
210.000	180.471	80.010	19.994	103.894	19.753	2.504	0.455
212.000	181.433	80.012	19.992	103.894	19.755	2.307	0.488
214.000	182.434	80.010	19.992	103.899	19.758	2.112	0.474
216.000	183.398	80.013	19.994	103.899	19.754	2.375	0.475
218.000	184.371	80.010	19.993	103.902	19.754	2.433	0.454
220.000	185.351	80.007	19.993	103.903	19.751	2.600	0.496
222.000	186.346	80.009	19.995	103.896	19.750	2.666	0.508
224.000	187.356	80.008	19.993	103.903	19.756	2.256	0.496
226.000	188.371	80.008	19.995	103.902	19.754	2.388	0.496
228.000	189.306	80.008	19.995	103.899	19.757	2.220	0.474
230.000	190.323	80.008	19.994	103.893	19.755	2.333	0.505
232.000	191.277	80.008	19.995	103.897	19.754	2.371	0.490
234.000	192.258	80.009	19.993	103.894	19.754	2.416	0.483
236.000	193.191	80.009	19.994	103.894	19.757	2.177	0.493
238.000	194.200	80.009	19.993	103.897	19.755	2.320	0.489
240.000	195.191	80.009	19.994	103.886	19.755	2.299	0.482
242.000	196.170	80.009	19.995	103.899	19.755	2.329	0.496
244.000	197.139	80.008	19.994	103.904	19.756	2.277	0.495
246.000	198.075	80.003	19.996	103.900	19.754	2.387	0.470
248.000	199.076	80.007	19.994	103.894	19.758	2.128	0.460
250.000	200.040	80.006	19.997	103.892	19.757	2.170	0.475
252.000	201.009	80.007	19.993	103.896	19.754	2.430	0.477
254.000	202.028	80.006	19.995	103.884	19.753	2.468	0.519
256.000	203.029	80.007	19.995	103.880	19.754	2.376	0.495
258.000	204.002	80.009	19.997	103.887	19.754	2.367	0.485
260.000	205.011	80.008	19.995	103.904	19.756	2.263	0.509
262.000	205.993	80.007	19.995	103.884	19.755	2.305	0.485
264.000	206.987	80.009	19.994	103.883	19.755	2.346	0.475
266.000	207.962	80.010	19.995	103.877	19.758	2.150	0.475
268.000	208.919	80.008	19.993	103.879	19.757	2.224	0.459
270.000	209.914	80.009	19.993	103.880	19.756	2.256	0.495
272.000	210.936	80.011	19.993	103.884	19.758	2.128	0.505
274.000	211.891	80.011	19.993	103.876	19.757	2.182	0.512
276.000	212.901	80.010	19.993	103.878	19.760	1.955	0.539
278.000	213.892	80.010	19.995	103.874	19.760	1.994	0.520
280.000	214.897	80.011	19.994	103.877	19.759	2.077	0.522
282.000	215.914	80.011	19.993	103.878	19.761	1.889	0.518
284.000	216.860	80.010	19.994	103.865	19.761	1.931	0.488
286.000	217.865	80.010	19.994	103.866	19.765	1.621	0.499
288.000	218.864	80.011	19.994	103.863	19.761	1.921	0.490
290.000	219.894	80.013	19.992	103.870	19.761	1.919	0.479
292.000	220.847	80.012	19.993	103.864	19.761	1.882	0.497
294.000	221.830	80.010	19.995	103.869	19.759	2.047	0.511
296.000	222.857	80.011	19.993	103.868	19.757	2.190	0.503
298.000	223.867	80.010	19.994	103.865	19.757	2.163	0.517
300.000	224.859	80.009	19.995	103.868	19.759	2.045	0.500
302.000	225.855	80.009	19.992	103.864	19.758	2.147	0.480
304.000	226.872	80.010	19.994	103.867	19.761	1.884	0.496
306.000	227.873	80.010	19.993	103.864	19.758	2.117	0.517
308.000	228.893	80.010	19.993	103.865	19.758	2.126	0.511
310.000	229.863	80.008	19.993	103.866	19.760	1.972	0.499
312.000	230.842	80.009	19.992	103.866	19.760	1.959	0.509
314.000	231.832	80.009	19.994	103.867	19.761	1.947	0.490
316.000	232.815	80.008	19.993	103.865	19.763	1.741	0.483
318.000	233.855	80.010	19.994	103.868	19.764	1.722	0.522
320.000	234.851	80.006	19.993	103.867	19.762	1.846	0.488
322.000	235.786	80.007	19.994	103.867	19.761	1.887	0.468
324.000	236.800	80.008	19.994	103.866	19.761	1.902	0.504
326.000	237.828	80.009	19.994	103.865	19.764	1.713	0.487
328.000	238.827	80.007	19.995	103.866	19.764	1.685	0.480
330.000	239.815	80.009	19.994	103.866	19.764	1.726	0.531
332.000	240.821	80.007	19.994	103.866	19.766	1.562	0.485
334.000	241.818	80.007	19.994	103.867	19.766	1.589	0.518
336.000	242.807	80.007	19.993	103.866	19.760	1.968	0.517
338.000	243.816	80.007	19.995	103.867	19.765	1.621	0.505
340.000	244.832	80.008	19.995	103.863	19.762	1.857	0.491
342.000	245.857	80.010	19.994	103.864	19.764	1.735	0.514
344.000	246.842	80.010	19.994	103.863	19.766	1.559	0.495
346.000	247.862	80.008	19.994	103.862	19.765	1.632	0.493
348.000	248.842	80.009	19.994	103.863	19.766	1.555	0.517
350.000	249.858	80.011	19.993	103.863	19.766	1.570	0.507
352.000	250.879	80.009	19.994	103.862	19.767	1.508	0.514
354.000	251.841	80.009	19.994	103.860	19.767	1.506	0.455
356.000	252.885	80.010	19.995	103.859	19.769	1.388	0.509
358.000	253.876	80.007	19.994	103.861	19.764	1.705	0.505
360.000	254.834	80.008	19.995	103.861	19.768	1.457	0.507
362.000	255.840	80.010	19.994	103.858	19.762	1.810	0.468
364.000	256.820	80.010	19.994	103.853	19.763	1.748	0.495
366.000	257.814	80.009	19.994	103.860	19.767	1.527	0.529
368.000	258.851	80.011	19.992	103.862	19.767	1.499	0.529
370.000	259.803	80.010	19.993	103.860	19.769	1.367	0.441
372.000	260.778	80.010	19.994	103.861	19.766	1.536	0.466
374.000	261.796	80.011	19.994	103.862	19.768	1.446	0.506
376.000	262.793	80.012	19.992	103.864	19.769	1.388	0.521
378.000	263.780	80.009	19.994	103.864	19.771	1.193	0.497
380.000	264.788	80.009	19.993	103.863	19.770	1.309	0.507
382.000	265.771	80.009	19.994	103.857	19.767	1.467	0.494
384.000	266.791	80.009	19.993	103.854	19.769	1.380	0.530
386.000	267.786	80.008	19.994	103.860	19.768	1.452	0.501
388.000	268.759	80.008	19.993	103.862	19.769	1.331	0.486
390.000	269.783	80.008	19.994	103.861	19.768	1.446	0.508
392.000	270.805	80.008	19.994	103.855	19.766	1.532	0.516
394.000	271.813	80.009	19.995	103.854	19.769	1.371	0.491
396.000	272.799	80.009	19.993	103.854	19.767	1.487	0.455
398.001	273.790	80.008	19.993	103.864	19.767	1.495	0.481
400.000	274.796	80.009	19.993	103.856	19.771	1.228	0.513
402.000	275.836	80.008	19.994	103.850	19.768	1.450	0.519
404.000	276.796	80.008	19.993	103.849	19.768	1.391	0.489
406.000	277.738	80.009	19.994	103.858	19.765	1.605	0.476
408.000	278.813	80.008	19.993	103.847	19.772	1.160	0.518
410.000	279.795	80.009	19.996	103.852	19.770	1.292	0.477
412.000	280.793	80.007	19.995	103.857	19.768	1.450	0.503
414.000	281.802	80.007	19.993	103.858	19.766	1.534	0.475
416.000	282.819	80.008	19.995	103.854	19.769	1.346	0.512
418.000	283.834	80.008	19.994	103.849	19.772	1.170	0.484
420.000	284.819	80.007	19.995	103.856	19.769	1.339	0.496
422.000	285.827	80.006	19.997	103.846	19.773	1.085	0.526
424.000	286.821	80.007	19.995	103.844	19.772	1.119	0.495
426.000	287.846	80.009	19.994	103.840	19.769	1.369	0.509
428.000	288.827	80.009	19.995	103.830	19.775	0.960	0.484
430.000	289.845	80.009	19.994	103.842	19.773	1.078	0.496
432.000	290.861	80.011	19.994	103.842	19.773	1.076	0.467
434.000	291.868	80.008	19.992	103.836	19.771	1.224	0.502
436.000	292.922	80.008	19.993	103.828	19.770	1.256	0.530
438.000	293.898	80.008	19.994	103.842	19.770	1.312	0.516
440.000	294.891	80.009	19.994	103.843	19.770	1.307	0.512
442.000	295.893	80.009	19.995	103.835	19.768	1.412	0.510
444.000	296.919	80.009	19.994	103.832	19.770	1.301	0.488
446.000	297.934	80.009	19.994	103.830	19.769	1.346	0.555
448.000	298.914	80.009	19.992	103.838	19.771	1.207	0.503
450.000	299.890	80.009	19.995	103.851	19.772	1.128	0.503
452.000	300.888	80.009	19.996	103.847	19.773	1.049	0.499
454.000	301.932	80.010	19.994	103.839	19.771	1.209	0.530
456.000	302.914	80.011	19.994	103.846	19.771	1.205	0.490
458.000	303.923	80.009	19.995	103.849	19.769	1.380	0.485
460.000	304.927	80.010	19.993	103.832	19.770	1.258	0.480
462.000	305.934	80.009	19.994	103.830	19.772	1.115	0.503
464.000	306.934	80.009	19.994	103.830	19.773	1.111	0.517
466.000	307.945	80.007	19.995	103.831	19.773	1.089	0.500
468.000	308.946	80.009	19.994	103.828	19.773	1.072	0.507
470.000	309.925	80.007	19.993	103.827	19.776	0.882	0.473
472.000	310.948	80.008	19.993	103.826	19.772	1.149	0.532
474.000	311.983	80.008	19.993	103.825	19.772	1.119	0.538
476.000	312.995	80.009	19.993	103.825	19.775	0.910	0.529
478.000	313.979	80.011	19.993	103.831	19.773	1.087	0.470
480.000	315.011	80.009	19.994	103.828	19.774	1.008	0.538
482.000	316.037	80.007	19.994	103.839	19.774	1.014	0.506
484.000	317.046	80.010	19.994	103.832	19.774	1.006	0.519
486.000	318.069	80.010	19.993	103.826	19.773	1.111	0.547
488.000	319.075	80.009	19.994	103.825	19.772	1.136	0.530
490.000	320.117	80.009	19.994	103.828	19.780	0.623	0.517
492.000	321.129	80.007	19.993	103.829	19.774	0.999	0.527
494.000	322.167	80.008	19.992	103.826	19.773	1.104	0.532
496.000	323.162	80.008	19.993	103.826	19.775	0.961	0.481
498.000	324.189	80.009	19.995	103.830	19.773	1.070	0.528
500.000	325.238	80.008	19.992	103.835	19.771	1.187	0.496
502.000	326.257	80.008	19.993	103.826	19.773	1.074	0.516
504.000	327.305	80.009	19.994	103.828	19.772	1.171	0.545
506.000	328.295	80.008	19.997	103.831	19.770	1.260	0.481
508.000	329.308	80.009	19.993	103.831	19.773	1.102	0.490
510.000	330.319	80.008	19.995	103.833	19.774	1.004	0.515
512.000	331.396	80.010	19.994	103.830	19.771	1.215	0.505
514.000	332.392	80.010	19.992	103.828	19.770	1.292	0.490
516.000	333.409	80.009	19.994	103.828	19.771	1.198	0.507
518.000	334.493	80.009	19.995	103.828	19.772	1.177	0.540
520.000	335.490	80.008	19.996	103.827	19.772	1.125	0.508
522.000	336.545	80.009	19.993	103.827	19.770	1.299	0.530
524.001	337.538	80.009	19.993	103.830	19.770	1.308	0.504
526.000	338.586	80.009	19.993	103.829	19.774	1.032	0.527
528.000	339.597	80.010	19.993	103.830	19.771	1.241	0.543
530.000	340.609	80.008	19.993	103.830	19.771	1.196	0.525
532.000	341.608	80.011	19.992	103.829	19.772	1.170	0.484
534.000	342.638	80.011	19.993	103.828	19.771	1.201	0.486
536.000	343.646	80.011	19.993	103.826	19.772	1.154	0.505
538.000	344.677	80.010	19.995	103.823	19.765	1.616	0.499
540.000	345.694	80.011	19.995	103.823	19.771	1.222	0.498
542.000	346.692	80.009	19.995	103.822	19.775	0.971	0.456
544.000	347.708	80.010	19.995	103.822	19.771	1.194	0.523
546.000	348.738	80.007	19.995	103.821	19.771	1.243	0.527
548.000	349.755	80.008	19.995	103.821	19.771	1.245	0.498
550.000	350.783	80.008	19.994	103.822	19.769	1.342	0.507
552.000	351.782	80.007	19.995	103.823	19.767	1.474	0.518
554.000	352.794	80.008	19.994	103.821	19.765	1.654	0.522
556.000	353.795	80.007	19.994	103.820	19.766	1.569	0.468
558.000	354.791	80.010	19.993	103.826	19.765	1.622	0.477
560.000	355.793	80.009	19.994	103.825	19.762	1.859	0.459
562.000	356.807	80.009	19.993	103.825	19.765	1.631	0.522
564.000	357.839	80.007	19.995	103.825	19.762	1.838	0.504
566.000	358.887	80.008	19.992	103.824	19.759	2.022	0.538
568.000	359.861	80.007	19.994	103.824	19.758	2.105	0.501
570.000	360.888	80.006	19.993	103.825	19.760	2.007	0.527
572.000	361.864	80.007	19.994	103.826	19.760	2.011	0.514
574.000	362.881	80.009	19.993	103.830	19.753	2.448	0.492
576.000	363.918	80.007	19.993	103.830	19.752	2.527	0.523
578.000	364.920	80.007	19.995	103.830	19.750	2.700	0.498
580.000	365.953	80.007	19.994	103.832	19.749	2.728	0.531
582.000	366.935	80.008	19.994	103.829	19.749	2.779	0.492
584.000	367.952	80.008	19.993	103.830	19.743	3.171	0.495
586.000	369.029	80.007	19.994	103.831	19.739	3.419	0.535
588.000	370.002	80.008	19.992	103.831	19.739	3.438	0.508
590.000	371.036	80.010	19.993	103.830	19.734	3.802	0.537
592.000	372.029	80.011	19.993	103.836	19.727	4.249	0.494
594.000	373.059	80.010	19.994	103.835	19.722	4.650	0.506
596.000	374.133	80.010	19.992	103.844	19.715	5.099	0.512
598.000	375.170	80.010	19.993	103.836	19.711	5.384	0.518
600.000	376.124	80.010	19.994	103.834	19.705	5.831	0.476
602.000	377.143	80.011	19.993	103.840	19.701	6.062	0.479
604.000	378.195	80.009	19.993	103.824	19.687	7.039	0.490
606.000	379.210	80.009	19.994	103.826	19.679	7.628	0.513
608.000	380.231	80.009	19.993	103.825	19.674	7.943	0.529
610.000	381.264	80.010	19.994	103.832	19.668	8.412	0.523
612.000	382.226	80.010	19.994	103.830	19.664	8.634	0.517
614.000	383.248	80.010	19.994	103.829	19.660	8.956	0.486
616.000	384.272	80.011	19.993	103.841	19.656	9.236	0.510
618.000	385.294	80.013	19.995	103.845	19.650	9.625	0.504
620.000	386.308	80.011	19.995	103.851	19.647	9.861	0.500
622.000	387.371	80.011	19.995	103.854	19.640	10.333	0.526
624.000	388.396	80.012	19.994	103.860	19.633	10.782	0.530
626.000	389.391	80.011	19.995	103.862	19.620	11.730	0.512
628.000	390.432	80.010	19.992	103.867	19.607	12.619	0.540
630.000	391.478	80.008	19.995	103.866	19.598	13.258	0.550
632.000	392.501	80.008	19.993	103.863	19.591	13.745	0.529
634.000	393.584	80.008	19.995	103.870	19.582	14.355	0.536
636.000	394.653	80.007	19.993	103.876	19.572	15.042	0.516
638.000	395.711	80.007	19.993	103.893	19.561	15.816	0.523
640.000	396.724	80.007	19.994	103.904	19.543	17.086	0.510
642.000	397.745	80.008	19.996	103.906	19.527	18.182	0.505
644.000	398.792	80.008	19.995	103.910	19.510	19.355	0.491
646.000	399.829	80.008	19.994	103.917	19.486	21.020	0.534
648.000	400.910	80.008	19.995	103.932	19.460	22.843	0.503
650.000	401.980	80.008	19.994	103.931	19.431	24.869	0.539
652.000	403.052	80.009	19.992	103.921	19.411	26.294	0.544
654.000	404.109	80.007	19.993	103.909	19.396	27.362	0.546
656.000	405.131	80.008	19.993	103.923	19.380	28.451	0.530
658.000	406.244	80.006	19.993	103.947	19.361	29.756	0.544
660.000	407.283	80.007	19.994	103.981	19.340	31.248	0.582
662.000	408.302	80.007	19.994	104.008	19.316	32.884	0.520
664.000	409.369	80.008	19.994	103.989	19.288	34.841	0.506
666.000	410.389	80.008	19.994	103.990	19.257	37.046	0.510
668.000	411.422	80.009	19.994	103.994	19.230	38.913	0.523
670.000	412.444	80.009	19.994	104.001	19.200	41.005	0.527
672.000	413.425	80.009	19.994	104.015	19.167	43.290	0.516
674.000	414.419	80.009	19.994	104.037	19.127	46.131	0.509
676.000	415.410	80.010	19.993	104.063	19.084	49.147	0.501
678.000	416.408	80.009	19.993	104.072	19.043	52.026	0.517
680.000	417.370	80.010	19.994	104.069	18.994	55.429	0.481
682.000	418.345	80.010	19.993	104.079	18.950	58.490	0.466
684.000	419.364	80.010	19.993	104.102	18.900	62.013	0.501
686.000	420.308	80.009	19.994	104.136	18.842	66.091	0.508
688.000	421.307	80.009	19.993	104.159	18.782	70.281	0.522
690.000	422.261	80.008	19.993	104.171	18.726	74.265	0.480
692.000	423.184	80.010	19.994	104.178	18.678	77.762	0.461
694.000	424.168	80.008	19.993	104.199	18.621	81.636	0.480
696.000	425.111	80.010	19.993	104.227	18.565	85.442	0.469
698.000	426.133	80.012	19.993	104.297	18.489	90.645	0.485
700.000	427.087	80.011	19.994	104.362	18.342	100.971	0.477
702.000	428.119	80.010	19.994	104.486	18.144	115.222	0.522
704.000	429.135	80.010	19.993	104.572	18.009	124.764	0.491
706.000	430.133	80.010	19.993	104.377	17.934	129.962	0.525
708.000	431.132	80.010	19.993	104.196	17.888	133.242	0.501
710.000	432.172	80.008	19.994	104.142	17.844	136.357	0.495
712.000	433.112	80.008	19.993	104.467	17.786	140.258	0.473
714.000	434.159	80.008	19.993	104.704	17.736	143.655	0.549
716.000	435.200	80.009	19.993	104.677	17.650	149.644	0.528
718.000	436.227	80.009	19.993	104.691	17.522	158.951	0.527
720.000	437.295	80.008	19.995	104.743	17.420	166.196	0.540
722.000	438.336	80.007	19.994	104.665	17.365	170.019	0.518
724.000	439.360	80.008	19.995	104.572	17.329	172.521	0.503
726.000	440.381	80.008	19.993	104.481	17.298	174.673	0.494
728.000	441.469	80.008	19.994	104.630	17.266	176.958	0.542
730.000	442.506	80.008	19.996	104.805	17.231	179.414	0.535
732.000	443.559	80.009	19.995	104.805	17.200	181.575	0.515
734.000	444.628	80.007	19.995	104.776	17.167	183.848	0.536
736.000	445.656	80.006	19.994	104.758	17.145	185.402	0.528
738.000	446.693	80.007	19.995	104.758	17.122	186.978	0.516
740.000	447.702	80.009	19.995	104.761	17.112	187.681	0.530
742.000	448.718	80.006	19.995	104.762	17.114	187.509	0.513
744.000	449.800	80.008	19.995	104.757	17.122	186.871	0.523
746.000	450.836	80.009	19.993	104.749	17.143	185.375	0.519
748.000	451.842	80.009	19.994	104.747	17.178	182.817	0.540
750.000	452.856	80.009	19.994	104.730	17.221	179.760	0.500
752.000	453.879	80.010	19.995	104.714	17.280	175.624	0.505
754.000	454.935	80.009	19.994	104.684	17.347	170.814	0.506
756.000	455.956	80.010	19.995	104.663	17.428	165.079	0.503
758.000	456.957	80.010	19.994	104.631	17.518	158.728	0.510
760.000	457.937	80.011	19.994	104.597	17.619	151.604	0.483
762.000	458.968	80.010	19.994	104.562	17.729	143.923	0.479
764.000	460.002	80.010	19.994	104.534	17.845	135.758	0.491
766.000	460.977	80.010	19.993	104.486	17.963	127.448	0.495
768.000	461.981	80.008	19.994	104.439	18.085	118.903	0.494
770.000	462.957	80.009	19.995	104.403	18.206	110.411	0.475
772.000	463.939	80.010	19.994	104.367	18.331	101.664	0.475
774.000	464.961	80.009	19.994	104.335	18.457	92.856	0.514
776.000	465.961	80.010	19.994	104.284	18.588	83.658	0.505
778.000	466.970	80.011	19.993	104.247	18.712	75.028	0.485
780.000	468.010	80.011	19.992	104.217	18.824	67.169	0.490
782.000	469.018	80.011	19.993	104.190	18.927	60.004	0.492
784.000	470.009	80.010	19.992	104.160	19.022	53.373	0.504
786.000	471.041	80.010	19.992	104.128	19.104	47.670	0.511
788.000	472.057	80.010	19.993	104.094	19.178	42.503	0.488
790.000	473.093	80.009	19.993	104.061	19.239	38.219	0.521
792.000	474.131	80.009	19.994	104.032	19.291	34.610	0.508
794.000	475.136	80.009	19.994	104.006	19.343	31.001	0.527
796.000	476.151	80.008	19.994	103.987	19.384	28.147	0.508
798.000	477.184	80.009	19.995	103.976	19.422	25.500	0.524
800.000	478.223	80.008	19.995	103.952	19.458	22.996	0.494
802.000	479.255	80.009	19.995	103.940	19.494	20.478	0.546
804.000	480.278	80.009	19.994	103.923	19.519	18.732	0.505
806.000	481.266	80.006	19.994	103.908	19.538	17.406	0.499
808.000	482.289	80.009	19.994	103.903	19.564	15.629	0.544
810.000	483.257	80.010	19.994	103.887	19.581	14.402	0.493
812.000	484.296	80.008	19.993	103.889	19.601	13.014	0.493
814.000	485.320	80.008	19.994	103.885	19.616	11.989	0.503
816.000	486.388	80.009	19.993	103.887	19.630	11.020	0.547
818.000	487.371	80.008	19.993	103.869	19.641	10.222	0.480
820.000	488.384	80.007	19.994	103.863	19.654	9.367	0.513
822.000	489.387	80.007	19.994	103.863	19.664	8.670	0.529
824.000	490.437	80.008	19.994	103.863	19.676	7.829	0.551
826.000	491.461	80.008	19.994	103.862	19.683	7.342	0.553
828.000	492.437	80.007	19.994	103.854	19.689	6.886	0.491
830.000	493.499	80.007	19.994	103.835	19.696	6.438	0.541
832.000	494.545	80.008	19.995	103.847	19.698	6.313	0.548
834.000	495.507	80.009	19.994	103.846	19.707	5.668	0.475
836.000	496.541	80.009	19.994	103.830	19.713	5.253	0.496
838.000	497.576	80.010	19.994	103.830	19.726	4.359	0.494
840.000	498.554	80.010	19.993	103.831	19.721	4.704	0.510
842.000	499.553	80.010	19.994	103.832	19.731	4.027	0.507
844.000	500.596	80.010	19.993	103.826	19.733	3.862	0.490
846.000	501.594	80.009	19.994	103.828	19.731	4.002	0.490
848.000	502.635	80.009	19.994	103.827	19.733	3.826	0.493
850.000	503.738	80.011	19.993	103.827	19.735	3.715	0.552
852.000	504.714	80.010	19.993	103.825	19.737	3.600	0.547
854.000	505.708	80.008	19.993	103.824	19.739	3.418	0.457
856.000	506.762	80.009	19.992	103.821	19.743	3.196	0.522
858.000	507.782	80.009	19.995	103.821	19.745	3.016	0.514
860.000	508.800	80.010	19.993	103.820	19.748	2.847	0.504
862.000	509.823	80.011	19.994	103.812	19.750	2.708	0.519
864.000	510.794	80.011	19.993	103.801	19.747	2.905	0.476
866.000	511.796	80.011	19.992	103.797	19.751	2.614	0.504
868.000	512.803	80.011	19.993	103.799	19.752	2.504	0.506
870.000	513.880	80.010	19.994	103.795	19.751	2.584	0.550
872.000	514.916	80.012	19.994	103.800	19.753	2.470	0.516
874.000	515.939	80.009	19.994	103.797	19.751	2.588	0.477
876.000	516.999	80.008	19.995	103.788	19.751	2.616	0.516
878.000	517.990	80.008	19.994	103.793	19.754	2.380	0.483
880.000	519.041	80.009	19.993	103.799	19.754	2.397	0.516
882.000	520.093	80.010	19.993	103.792	19.752	2.503	0.513
884.000	521.139	80.009	19.993	103.791	19.754	2.368	0.518
886.000	522.153	80.009	19.993	103.791	19.754	2.400	0.473
888.000	523.204	80.011	19.994	103.787	19.757	2.207	0.517
890.000	524.242	80.011	19.995	103.791	19.756	2.226	0.503
892.000	525.276	80.010	19.994	103.789	19.757	2.194	0.522
894.000	526.328	80.010	19.994	103.788	19.755	2.355	0.517
896.000	527.326	80.009	19.994	103.788	19.756	2.282	0.500
898.000	528.367	80.008	19.994	103.795	19.756	2.273	0.522
900.000	529.395	80.008	19.994	103.789	19.756	2.282	0.545
902.000	530.417	80.009	19.994	103.792	19.756	2.280	0.534
904.000	531.452	80.008	19.994	103.795	19.757	2.175	0.510
906.000	532.482	80.008	19.994	103.789	19.754	2.432	0.511
908.000	533.472	80.007	19.993	103.791	19.757	2.201	0.548
910.000	534.504	80.009	19.994	103.794	19.757	2.205	0.515
912.000	535.544	80.009	19.995	103.791	19.758	2.139	0.526
914.000	536.571	80.009	19.993	103.792	19.755	2.295	0.500
916.001	537.573	80.008	19.993	103.790	19.754	2.396	0.515
918.000	538.617	80.008	19.994	103.793	19.754	2.426	0.527
920.000	539.661	80.008	19.994	103.790	19.756	2.288	0.513
922.000	540.670	80.009	19.995	103.790	19.755	2.331	0.518
924.000	541.700	80.009	19.995	103.784	19.754	2.395	0.517
926.000	542.728	80.008	19.994	103.784	19.749	2.715	0.516
928.000	543.743	80.009	19.995	103.787	19.753	2.464	0.517
930.000	544.792	80.009	19.994	103.786	19.754	2.419	0.526
932.000	545.766	80.010	19.994	103.786	19.754	2.413	0.497
934.000	546.800	80.009	19.994	103.785	19.750	2.667	0.518
936.000	547.812	80.010	19.994	103.786	19.749	2.721	0.519
938.000	548.859	80.010	19.993	103.786	19.754	2.425	0.496
940.000	549.868	80.011	19.993	103.786	19.756	2.259	0.524
942.000	550.892	80.010	19.994	103.786	19.751	2.590	0.505
944.000	551.912	80.011	19.993	103.785	19.755	2.334	0.492
946.000	552.937	80.012	19.993	103.785	19.753	2.479	0.508
948.000	553.920	80.011	19.992	103.785	19.750	2.689	0.499
950.000	554.965	80.010	19.993	103.786	19.752	2.520	0.495
952.000	556.042	80.011	19.993	103.784	19.750	2.661	0.556
954.000	557.035	80.010	19.993	103.785	19.749	2.761	0.535
956.000	558.029	80.009	19.992	103.784	19.753	2.479	0.507
958.000	559.053	80.009	19.994	103.786	19.749	2.747	0.527
960.000	560.040	80.009	19.994	103.787	19.754	2.376	0.491
962.000	561.081	80.009	19.994	103.788	19.751	2.631	0.489
964.000	562.148	80.009	19.994	103.788	19.750	2.682	0.541
966.000	563.079	80.009	19.993	103.788	19.749	2.716	0.488
968.000	564.111	80.009	19.993	103.787	19.747	2.903	0.473
970.000	565.138	80.009	19.992	103.788	19.748	2.806	0.492
972.000	566.171	80.010	19.993	103.790	19.748	2.849	0.555
974.000	567.188	80.009	19.993	103.794	19.747	2.879	0.534
976.000	568.172	80.008	19.993	103.789	19.749	2.716	0.488
978.000	569.181	80.008	19.994	103.795	19.745	2.995	0.499
980.000	570.178	80.007	19.994	103.789	19.750	2.665	0.484
982.000	571.186	80.008	19.993	103.790	19.749	2.768	0.527
984.000	572.205	80.008	19.993	103.789	19.750	2.685	0.523
986.000	573.196	80.008	19.993	103.790	19.747	2.907	0.523
988.000	574.249	80.008	19.994	103.789	19.751	2.635	0.494
990.000	575.345	80.009	19.994	103.789	19.749	2.745	0.522
992.000	576.346	80.009	19.994	103.787	19.745	3.017	0.516
994.000	577.328	80.008	19.994	103.785	19.747	2.882	0.494
996.000	578.384	80.009	19.993	103.784	19.747	2.867	0.488
998.000	579.406	80.009	19.994	103.785	19.748	2.847	0.484
1000.000	580.407	80.010	19.994	103.786	19.745	3.049	0.512
1002.000	581.474	80.010	19.993	103.786	19.747	2.905	0.526
1004.000	582.447	80.010	19.993	103.783	19.747	2.869	0.477
1006.000	583.522	80.011	19.995	103.785	19.743	3.179	0.536
1008.000	584.516	80.010	19.993	103.786	19.746	2.971	0.520
1010.000	585.516	80.010	19.993	103.786	19.745	2.993	0.514
1012.000	586.576	80.010	19.995	103.785	19.743	3.130	0.555
1014.000	587.568	80.009	19.994	103.785	19.739	3.412	0.511
1016.000	588.554	80.008	19.995	103.784	19.753	2.488	0.496
1018.000	589.650	80.009	19.994	103.783	19.750	2.670	0.453
1020.000	590.588	80.010	19.995	103.783	19.739	3.472	0.452
1022.000	591.684	80.008	19.995	103.786	19.740	3.361	0.538
1024.000	592.780	80.011	19.994	103.790	19.743	3.162	0.591
1026.000	593.845	80.011	19.994	103.786	19.742	3.245	0.674
1028.000	594.914	80.010	19.994	103.785	19.742	3.254	0.515
1030.000	595.969	80.010	19.993	103.786	19.741	3.292	0.630
1032.000	597.485	80.011	19.992	103.789	19.742	3.265	0.670
1034.000	597.700	80.010	19.992	103.788	19.740	3.352	0.450
1036.000	598.838	80.008	19.992	103.789	19.741	3.280	0.565
1038.000	599.990	80.008	19.993	103.796	19.742	3.250	0.454
1040.001	600.956	80.009	19.993	103.793	19.741	3.301	0.541
1042.000	602.063	80.008	19.993	103.790	19.740	3.350	0.483
1044.000	603.060	80.009	19.994	103.788	19.741	3.301	0.575
1046.000	604.104	80.009	19.993	103.790	19.742	3.239	0.518
1048.000	605.132	80.007	19.993	103.788	19.742	3.239	0.504
1050.000	606.248	80.009	19.993	103.791	19.741	3.310	0.524
1052.000	607.234	80.009	19.993	103.790	19.739	3.468	0.539
1054.001	608.296	80.009	19.994	103.786	19.741	3.310	0.556
1056.000	609.327	80.009	19.994	103.784	19.736	3.618	0.522
1058.000	610.374	80.009	19.993	103.784	19.738	3.500	0.534
1060.000	611.405	80.009	19.994	103.785	19.740	3.387	0.560
1062.000	612.462	80.009	19.994	103.786	19.741	3.269	0.536
1064.000	613.433	80.010	19.994	103.787	19.739	3.436	0.540
1066.000	614.505	80.008	19.994	103.786	19.738	3.534	0.500
1068.000	615.531	80.009	19.993	103.786	19.736	3.667	0.520
1070.001	616.553	80.008	19.993	103.787	19.738	3.507	0.461
1072.000	617.611	80.008	19.992	103.786	19.741	3.331	0.509
1074.000	618.643	80.008	19.993	103.786	19.741	3.333	0.507
1076.000	619.761	80.009	19.994	103.788	19.740	3.400	0.533
1078.000	620.773	80.008	19.994	103.787	19.739	3.473	0.550
1080.000	621.797	80.009	19.993	103.785	19.740	3.385	0.509
1082.000	622.824	80.010	19.994	103.784	19.739	3.453	0.507
1084.000	623.927	80.010	19.993	103.785	19.741	3.320	0.537
1086.000	624.921	80.009	19.993	103.782	19.740	3.400	0.529
1088.000	625.993	80.010	19.993	103.781	19.740	3.370	0.531
1090.000	627.013	80.009	19.993	103.785	19.741	3.327	0.523
1092.000	628.073	80.010	19.994	103.787	19.742	3.256	0.522
1094.000	629.135	80.009	19.994	103.787	19.743	3.164	0.545
1096.000	630.146	80.009	19.993	103.787	19.746	2.920	0.515
1098.000	631.179	80.008	19.995	103.787	19.744	3.083	0.548
1100.000	632.257	80.007	19.993	103.787	19.743	3.143	0.530
1102.000	633.266	80.010	19.994	103.782	19.743	3.162	0.520
1104.000	634.312	80.010	19.994	103.788	19.743	3.158	0.511
1106.000	635.399	80.010	19.994	103.788	19.742	3.261	0.508
1108.000	636.453	80.010	19.993	103.786	19.741	3.281	0.505
1110.000	637.484	80.010	19.995	103.785	19.742	3.205	0.494
1112.001	638.494	80.010	19.995	103.786	19.741	3.329	0.497
1114.000	639.525	80.009	19.993	103.786	19.742	3.252	0.520
1116.000	640.563	80.009	19.994	103.784	19.743	3.186	0.531
1118.000	641.577	80.008	19.995	103.778	19.741	3.289	0.499
1120.000	642.596	80.008	19.994	103.765	19.744	3.064	0.539
1122.000	643.609	80.008	19.995	103.778	19.739	3.451	0.520
1124.000	644.626	80.009	19.993	103.782	19.742	3.201	0.512
1126.000	645.597	80.008	19.994	103.776	19.745	3.055	0.484
1128.000	646.626	80.009	19.993	103.780	19.746	2.925	0.496
1130.000	647.690	80.009	19.993	103.782	19.744	3.123	0.525
1132.000	648.675	80.008	19.993	103.783	19.743	3.168	0.508
1134.000	649.691	80.010	19.992	103.782	19.743	3.194	0.523
1136.001	650.688	80.009	19.993	103.782	19.744	3.126	0.472
1138.000	651.767	80.009	19.993	103.778	19.748	2.841	0.543
1140.000	652.746	80.010	19.993	103.781	19.744	3.107	0.499
1142.000	653.730	80.008	19.994	103.782	19.746	2.942	0.481
1144.000	654.723	80.009	19.993	103.780	19.744	3.070	0.508
1146.000	655.760	80.009	19.993	103.782	19.747	2.876	0.516
1148.000	656.751	80.008	19.993	103.781	19.747	2.884	0.462
1150.001	657.749	80.008	19.993	103.775	19.747	2.916	0.691
1152.000	658.938	80.008	19.994	103.770	19.747	2.850	0.469
1154.000	659.849	80.008	19.994	103.771	19.748	2.809	0.578
1156.000	660.846	80.008	19.992	103.775	19.746	2.968	0.500
1158.000	661.847	80.008	19.993	103.776	19.749	2.747	0.499
1160.000	662.859	80.008	19.992	103.769	19.745	3.004	0.490
1162.000	663.809	80.009	19.993	103.775	19.748	2.846	0.473
1164.000	664.891	80.010	19.993	103.780	19.749	2.735	0.485
1166.000	665.863	80.009	19.993	103.777	19.749	2.728	0.540
1168.000	666.874	80.011	19.993	103.774	19.750	2.687	0.512
1170.000	667.873	80.009	19.992	103.782	19.751	2.632	0.494
1172.000	668.885	80.009	19.993	103.781	19.749	2.777	0.516
1174.000	669.870	80.009	19.993	103.766	19.753	2.445	0.480
1176.000	670.865	80.008	19.993	103.766	19.753	2.465	0.481
1178.000	671.869	80.008	19.994	103.780	19.753	2.492	0.491
1180.000	672.888	80.009	19.995	103.772	19.750	2.706	0.528
1182.001	673.948	80.008	19.994	103.758	19.753	2.454	0.513
1184.000	674.966	80.009	19.993	103.767	19.749	2.773	0.514
1186.000	675.941	80.010	19.993	103.762	19.752	2.552	0.459
1188.000	676.956	80.010	19.992	103.763	19.753	2.495	0.484
1190.000	677.973	80.011	19.994	103.774	19.753	2.458	0.512
1192.000	678.651	80.010	19.993	103.761	19.754	2.385	0.351
1194.000	679.960	80.011	19.994	103.760	19.754	2.404	0.466
1196.000	680.938	80.010	19.993	103.779	19.755	2.302	0.479
1198.000	681.956	80.009	19.993	103.764	19.751	2.632	0.494
1200.000	682.970	80.008	19.995	103.759	19.756	2.284	0.483
1202.000	683.978	80.008	19.994	103.770	19.754	2.370	0.511
1204.000	684.987	80.006	19.994	103.776	19.754	2.409	0.493
1206.000	686.023	80.008	19.994	103.772	19.754	2.404	0.494
1208.000	687.049	80.006	19.995	103.764	19.756	2.272	0.514
1210.001	688.009	80.007	19.995	103.774	19.754	2.403	0.506
1212.000	689.053	80.008	19.995	103.782	19.755	2.360	0.534
1214.000	690.046	80.008	19.993	103.764	19.755	2.336	0.462
1216.000	691.045	80.007	19.994	103.772	19.754	2.368	0.491
1218.000	692.063	80.008	19.993	103.779	19.755	2.317	0.524
1220.000	693.034	80.009	19.993	103.765	19.752	2.527	0.518
1222.000	694.040	80.009	19.994	103.750	19.751	2.625	0.505
1224.000	695.007	80.008	19.994	103.759	19.754	2.407	0.480
1226.001	696.027	80.008	19.993	103.765	19.753	2.492	0.515
1228.000	696.986	80.009	19.993	103.760	19.752	2.550	0.494
1230.000	697.971	80.008	19.993	103.764	19.753	2.492	0.470
1232.000	698.988	80.008	19.993	103.772	19.751	2.612	0.490
1234.000	699.960	80.008	19.993	103.769	19.757	2.188	0.476
1236.000	700.959	80.008	19.993	103.771	19.753	2.481	0.470
1238.000	701.947	80.008	19.992	103.764	19.754	2.415	0.514
1240.000	702.985	80.007	19.994	103.774	19.754	2.411	0.491
1242.000	703.971	80.009	19.993	103.765	19.751	2.625	0.494
1244.000	705.023	80.009	19.993	103.766	19.754	2.413	0.505
1246.001	706.028	80.009	19.993	103.777	19.751	2.591	0.516
1248.001	707.045	80.009	19.992	103.782	19.754	2.428	0.527
1250.001	708.097	80.011	19.993	103.777	19.752	2.514	0.505
1252.000	709.149	80.009	19.993	103.759	19.751	2.630	0.525
1254.001	710.101	80.010	19.992	103.754	19.755	2.298	0.511
1256.000	711.150	80.009	19.993	103.765	19.751	2.576	0.506
1258.000	712.124	80.010	19.993	103.768	19.752	2.542	0.508
1260.000	713.192	80.008	19.992	103.763	19.754	2.429	0.508
1262.000	714.220	80.009	19.993	103.754	19.754	2.377	0.494
1264.000	715.263	80.010	19.993	103.768	19.757	2.195	0.527
1266.000	716.321	80.009	19.993	103.759	19.756	2.229	0.518
1268.000	717.379	80.009	19.994	103.750	19.755	2.330	0.516
1270.000	718.371	80.011	19.993	103.747	19.755	2.349	0.511
1272.001	719.407	80.010	19.994	103.749	19.757	2.161	0.508
1274.000	720.455	80.010	19.994	103.745	19.758	2.114	0.520
1276.000	721.504	80.011	19.994	103.755	19.759	2.052	0.531
1278.000	722.557	80.011	19.994	103.752	19.753	2.443	0.542
1280.000	723.592	80.009	19.994	103.749	19.759	2.077	0.482
1282.000	724.624	80.009	19.996	103.754	19.757	2.185	0.536
1284.000	725.619	80.008	19.992	103.752	19.755	2.317	0.510
1286.000	726.693	80.009	19.992	103.760	19.755	2.317	0.484
1288.000	727.713	80.008	19.993	103.759	19.755	2.326	0.510
1290.000	728.775	80.008	19.995	103.753	19.757	2.191	0.509
1292.000	729.798	80.007	19.994	103.754	19.754	2.429	0.485
1294.000	730.808	80.008	19.993	103.751	19.756	2.255	0.491
1296.000	731.895	80.007	19.994	103.757	19.755	2.325	0.518
1298.000	732.924	80.007	19.995	103.759	19.754	2.383	0.544
1300.001	733.920	80.007	19.995	103.755	19.760	2.004	0.505
1302.000	734.952	80.009	19.994	103.751	19.753	2.444	0.487
1304.000	735.968	80.007	19.995	103.749	19.757	2.180	0.500
1306.000	736.997	80.006	19.994	103.756	19.756	2.255	0.541
1308.001	738.008	80.006	19.992	103.761	19.756	2.229	0.487
1310.000	739.032	80.008	19.993	103.753	19.751	2.579	0.520
1312.000	740.008	80.007	19.994	103.750	19.757	2.201	0.470
1314.000	741.030	80.009	19.993	103.752	19.759	2.077	0.501
1316.000	742.030	80.009	19.993	103.753	19.754	2.429	0.495
1318.000	743.102	80.008	19.994	103.748	19.753	2.480	0.548
1319.000	743.569	80.009	19.994	103.748	19.754	2.373	0.453