File: 01_Data/Bean_Bag_Chair_Inner_Lining/MCC/Bean_Bag_Chair_Inner_Lining_MCC_30K_min_220314_R2.txt
Sample ID:	C:\MCC\MCC Cal\Test\Bean_Bag_Chair_Inner_Lining_MCC_30K_min_220314_R2.txt
Sample Weight (mg):	4.08
Heating Rate (C/s):	0.5
Combustor Temp (C):	900
N2 Flow Rate (cc/min):	80
O2 Flow Rate (cc/min):	20
Calibration File:	C:\MCC\MCC Cal\Coeff1 JN10440_30_210304.txt.txt
T Correction Coefficients:	0	1.024463	0
Time Shift (s):	14
*
Time (s)	Temperature (C)	N2 flow rate (cc/min)	O2 flow rate (cc/min)	Flow Rate (cc/min)	Oxygen (%)	HRR (W/g)	Heating rate (C/s)
0.000	108.472	80.004	19.993	103.640	19.953	-0.154	-0.034
2.000	108.465	80.004	19.993	103.635	19.953	-0.176	-0.011
4.000	108.509	80.005	19.992	103.635	19.956	-0.375	0.022
6.000	108.552	80.006	19.992	103.640	19.955	-0.302	0.012
8.000	108.525	80.006	19.993	103.638	19.954	-0.188	0.022
10.000	108.514	80.005	19.994	103.643	19.954	-0.223	0.013
12.001	108.518	80.005	19.993	103.643	19.955	-0.259	0.008
14.000	108.523	80.004	19.993	103.657	19.955	-0.280	0.009
16.000	108.600	80.004	19.993	103.668	19.952	-0.081	0.001
18.000	108.549	80.005	19.994	103.668	19.952	-0.034	0.010
20.000	108.589	80.004	19.992	103.674	19.951	0.026	-0.035
22.000	108.610	80.005	19.993	103.673	19.951	0.039	0.019
24.000	108.629	80.006	19.993	103.653	19.952	-0.094	-0.020
26.000	108.657	80.005	19.995	103.626	19.949	0.152	0.003
28.000	108.687	80.006	19.992	103.581	19.949	0.148	-0.021
30.000	108.720	80.007	19.993	103.699	19.951	0.004	0.037
32.001	108.765	80.007	19.994	103.731	19.950	0.129	0.002
34.001	108.817	80.006	19.993	103.675	19.947	0.364	0.014
36.000	108.822	80.006	19.993	103.695	19.947	0.356	0.010
38.000	108.912	80.008	19.992	103.713	19.943	0.650	0.074
40.000	108.971	80.005	19.996	103.728	19.943	0.641	0.030
42.001	109.092	80.006	19.993	103.713	19.940	0.890	0.032
44.000	109.169	80.005	19.994	103.737	19.935	1.278	0.046
46.000	109.363	80.007	19.994	103.745	19.931	1.619	0.071
48.000	109.493	80.006	19.994	103.788	19.926	2.033	0.082
50.000	109.665	80.006	19.993	103.823	19.923	2.233	0.099
52.000	109.897	80.007	19.992	103.826	19.920	2.469	0.126
54.000	110.122	80.007	19.994	103.846	19.922	2.349	0.144
56.000	110.389	80.007	19.995	103.860	19.920	2.505	0.136
58.000	110.709	80.007	19.992	103.859	19.912	3.083	0.136
60.000	111.008	80.007	19.993	103.854	19.915	2.920	0.142
62.000	111.345	80.006	19.996	103.866	19.911	3.197	0.190
64.000	111.788	80.005	19.995	103.878	19.909	3.324	0.179
66.000	112.186	80.005	19.994	103.872	19.908	3.409	0.200
68.000	112.661	80.004	19.994	103.872	19.909	3.392	0.216
70.000	113.117	80.005	19.994	103.877	19.906	3.613	0.240
72.000	113.602	80.005	19.994	103.872	19.907	3.536	0.264
74.000	114.161	80.005	19.995	103.891	19.908	3.474	0.297
76.000	114.648	80.005	19.994	103.893	19.904	3.721	0.268
78.000	115.237	80.006	19.994	103.893	19.903	3.846	0.288
80.000	115.832	80.005	19.994	103.899	19.902	3.916	0.299
82.000	116.448	80.004	19.994	103.902	19.900	4.051	0.310
84.000	117.108	80.005	19.993	103.906	19.901	4.023	0.293
86.000	117.755	80.005	19.992	103.895	19.899	4.176	0.312
88.000	118.433	80.006	19.993	103.910	19.900	4.071	0.338
90.000	119.151	80.005	19.993	103.907	19.900	4.054	0.354
92.000	119.835	80.005	19.993	103.902	19.902	3.955	0.352
94.000	120.513	80.005	19.993	103.910	19.898	4.223	0.350
96.000	121.288	80.004	19.993	103.909	19.902	3.935	0.382
98.001	122.101	80.005	19.993	103.910	19.897	4.311	0.392
100.000	122.868	80.003	19.994	103.920	19.896	4.429	0.410
102.000	123.707	80.006	19.993	103.911	19.898	4.195	0.389
104.000	124.487	80.006	19.994	103.911	19.901	4.019	0.398
106.000	125.363	80.006	19.992	103.906	19.904	3.755	0.394
108.000	126.194	80.005	19.993	103.907	19.898	4.251	0.425
110.001	127.081	80.006	19.993	103.907	19.902	3.878	0.450
112.000	127.908	80.006	19.993	103.906	19.899	4.186	0.439
114.000	128.783	80.006	19.993	103.907	19.903	3.807	0.392
116.001	129.712	80.006	19.992	103.904	19.902	3.933	0.442
118.000	130.650	80.005	19.993	103.906	19.900	4.054	0.450
120.000	131.552	80.007	19.992	103.906	19.901	3.976	0.493
122.000	132.453	80.007	19.993	103.905	19.899	4.126	0.433
124.000	133.337	80.006	19.993	103.906	19.900	4.049	0.428
126.000	134.270	80.006	19.992	103.904	19.901	4.032	0.423
128.000	135.211	80.006	19.994	103.905	19.898	4.221	0.470
130.000	136.214	80.007	19.994	103.908	19.900	4.092	0.479
132.000	137.154	80.006	19.994	103.908	19.900	4.083	0.502
134.000	138.129	80.007	19.993	103.908	19.901	4.006	0.502
136.000	139.070	80.006	19.994	103.904	19.902	3.937	0.478
138.000	140.025	80.007	19.992	103.904	19.899	4.141	0.473
140.000	141.062	80.006	19.993	103.904	19.897	4.332	0.490
142.000	142.065	80.006	19.993	103.902	19.902	3.885	0.515
144.000	143.024	80.005	19.994	103.897	19.901	3.971	0.517
146.000	144.088	80.005	19.993	103.898	19.901	3.999	0.501
148.000	145.089	80.004	19.992	103.901	19.903	3.853	0.533
150.000	146.074	80.003	19.993	103.888	19.901	3.983	0.478
152.000	147.038	80.005	19.993	103.896	19.904	3.780	0.477
154.000	148.056	80.004	19.994	103.892	19.903	3.805	0.499
156.000	149.107	80.005	19.994	103.884	19.902	3.900	0.541
158.000	150.136	80.003	19.995	103.875	19.904	3.741	0.507
160.000	151.154	80.004	19.994	103.870	19.901	3.975	0.544
162.000	152.157	80.004	19.995	103.872	19.902	3.938	0.494
164.000	153.154	80.004	19.994	103.869	19.903	3.865	0.492
166.000	154.141	80.004	19.994	103.870	19.907	3.552	0.505
168.000	155.220	80.004	19.994	103.870	19.908	3.466	0.503
170.000	156.156	80.004	19.993	103.867	19.908	3.475	0.474
172.000	157.201	80.004	19.995	103.867	19.907	3.479	0.515
174.000	158.214	80.005	19.996	103.862	19.907	3.554	0.491
176.000	159.165	80.003	19.994	103.866	19.903	3.871	0.481
178.000	160.198	80.006	19.993	103.867	19.910	3.241	0.494
180.000	161.239	80.005	19.994	103.857	19.908	3.420	0.547
182.000	162.271	80.004	19.994	103.859	19.909	3.326	0.536
184.000	163.282	80.005	19.994	103.855	19.909	3.356	0.580
186.000	164.261	80.006	19.995	103.855	19.911	3.163	0.475
188.000	165.327	80.005	19.993	103.856	19.909	3.376	0.506
190.000	166.295	80.006	19.993	103.843	19.908	3.399	0.488
192.000	167.350	80.008	19.993	103.848	19.913	3.073	0.517
194.000	168.387	80.006	19.995	103.839	19.913	3.037	0.540
196.000	169.371	80.007	19.994	103.843	19.914	2.940	0.515
198.000	170.351	80.006	19.993	103.847	19.912	3.105	0.496
200.000	171.365	80.005	19.993	103.850	19.914	2.942	0.508
202.000	172.375	80.005	19.993	103.861	19.914	2.933	0.481
204.000	173.346	80.006	19.992	103.843	19.913	3.075	0.506
206.000	174.354	80.004	19.994	103.845	19.914	2.929	0.502
208.000	175.343	80.005	19.994	103.835	19.916	2.768	0.498
210.000	176.257	80.005	19.993	103.837	19.915	2.918	0.489
212.000	177.266	80.006	19.993	103.835	19.914	2.957	0.499
214.000	178.257	80.007	19.993	103.833	19.914	2.974	0.533
216.000	179.258	80.007	19.994	103.839	19.916	2.815	0.482
218.000	180.228	80.007	19.992	103.836	19.914	2.957	0.482
220.000	181.175	80.007	19.994	103.837	19.914	2.927	0.447
222.000	182.174	80.007	19.992	103.831	19.913	3.058	0.470
224.000	183.123	80.005	19.993	103.824	19.914	2.948	0.477
226.000	184.115	80.004	19.993	103.826	19.915	2.888	0.468
228.000	185.154	80.006	19.994	103.828	19.914	2.989	0.488
230.000	186.102	80.005	19.994	103.828	19.913	3.025	0.492
232.000	187.071	80.004	19.993	103.824	19.910	3.251	0.463
234.000	188.079	80.005	19.993	103.827	19.911	3.231	0.480
236.000	189.013	80.005	19.994	103.829	19.911	3.227	0.487
238.000	190.014	80.003	19.994	103.830	19.910	3.242	0.495
240.000	191.026	80.006	19.994	103.815	19.907	3.512	0.518
242.000	191.962	80.004	19.994	103.834	19.912	3.100	0.513
244.000	192.928	80.005	19.994	103.826	19.911	3.208	0.471
246.000	193.953	80.005	19.994	103.827	19.915	2.848	0.462
248.000	194.867	80.004	19.993	103.825	19.912	3.100	0.471
250.000	195.829	80.003	19.994	103.823	19.913	3.047	0.557
252.000	196.815	80.005	19.995	103.825	19.913	3.004	0.521
254.000	197.781	80.003	19.993	103.827	19.913	3.000	0.453
256.000	198.778	80.004	19.995	103.829	19.912	3.100	0.504
258.000	199.756	80.003	19.995	103.829	19.914	2.967	0.553
260.000	200.688	80.003	19.994	103.824	19.912	3.117	0.523
262.000	201.732	80.004	19.994	103.825	19.913	3.004	0.500
264.000	202.701	80.004	19.995	103.830	19.910	3.286	0.538
266.000	203.714	80.004	19.995	103.823	19.913	3.051	0.499
268.000	204.632	80.004	19.993	103.813	19.913	3.012	0.494
270.000	205.679	80.006	19.993	103.820	19.908	3.409	0.476
272.000	206.667	80.005	19.993	103.818	19.911	3.171	0.463
274.000	207.721	80.005	19.994	103.815	19.912	3.128	0.469
276.000	208.634	80.005	19.993	103.806	19.909	3.338	0.456
278.000	209.645	80.006	19.992	103.821	19.914	2.971	0.428
280.000	210.616	80.005	19.993	103.820	19.913	3.031	0.531
282.000	211.675	80.005	19.992	103.817	19.912	3.147	0.458
284.000	212.555	80.005	19.993	103.812	19.915	2.859	0.483
286.000	213.633	80.006	19.994	103.810	19.912	3.112	0.470
288.000	214.548	80.006	19.992	103.810	19.911	3.194	0.525
290.000	215.516	80.006	19.992	103.796	19.916	2.831	0.433
292.000	216.578	80.006	19.993	103.794	19.910	3.247	0.522
294.000	217.639	80.007	19.993	103.793	19.914	2.956	0.576
296.000	218.398	80.007	19.993	103.794	19.914	2.924	0.380
298.000	219.599	80.007	19.992	103.792	19.915	2.857	0.556
300.000	220.579	80.007	19.994	103.790	19.912	3.095	0.571
302.000	221.646	80.006	19.993	103.791	19.914	2.994	0.457
304.000	222.400	80.006	19.994	103.794	19.922	2.356	0.601
306.000	223.323	80.006	19.992	103.791	19.916	2.767	0.154
308.000	224.447	80.006	19.993	103.797	19.913	3.057	0.526
310.000	225.642	80.006	19.994	103.799	19.918	2.662	0.458
312.000	226.443	80.006	19.993	103.792	19.919	2.566	0.627
314.000	227.251	80.005	19.993	103.791	19.913	3.076	0.542
316.000	228.294	80.004	19.992	103.792	19.914	2.992	0.570
318.000	229.413	80.004	19.992	103.793	19.919	2.591	0.421
320.000	230.237	80.004	19.993	103.794	19.915	2.883	0.550
322.000	231.439	80.005	19.995	103.799	19.924	2.180	0.595
324.000	232.642	80.004	19.994	103.791	19.920	2.506	0.520
326.000	233.361	80.004	19.993	103.794	19.921	2.437	0.815
328.000	234.147	80.007	19.995	103.794	19.918	2.639	0.369
330.000	235.204	80.004	19.994	103.793	19.912	3.085	0.137
332.000	236.050	80.006	19.994	103.791	19.920	2.476	0.392
334.000	236.993	80.005	19.993	103.788	19.925	2.094	0.057
336.000	238.360	80.004	19.994	103.788	19.921	2.371	0.334
338.000	239.251	80.003	19.994	103.792	19.921	2.366	0.484
340.000	240.020	80.003	19.993	103.793	19.923	2.266	0.280
342.000	241.450	80.005	19.994	103.793	19.926	1.987	0.807
344.000	242.149	80.004	19.993	103.794	19.919	2.555	0.399
346.000	243.006	80.005	19.994	103.795	19.924	2.182	0.334
348.000	244.221	80.005	19.995	103.792	19.917	2.720	0.594
350.000	245.113	80.004	19.994	103.792	19.917	2.731	0.115
352.000	246.485	80.006	19.994	103.790	19.923	2.248	0.652
354.000	247.404	80.006	19.994	103.791	19.920	2.456	0.547
356.000	247.954	80.004	19.994	103.791	19.920	2.510	0.311
358.000	249.531	80.007	19.994	103.795	19.921	2.403	0.820
360.000	250.167	80.006	19.995	103.796	19.925	2.053	0.575
362.000	251.349	80.006	19.995	103.791	19.921	2.394	0.439
364.000	252.530	80.006	19.994	103.789	19.919	2.585	0.591
366.000	253.360	80.004	19.992	103.794	19.923	2.276	0.463
368.000	254.445	80.005	19.994	103.790	19.921	2.413	0.570
370.000	255.442	80.006	19.993	103.790	19.923	2.278	0.542
372.000	256.335	80.007	19.993	103.790	19.919	2.542	0.406
374.000	257.447	80.005	19.994	103.790	19.923	2.205	0.488
376.000	258.621	80.007	19.993	103.790	19.924	2.184	0.629
378.000	259.797	80.006	19.993	103.790	19.921	2.381	0.462
380.000	260.511	80.006	19.993	103.777	19.922	2.345	0.348
382.000	261.552	80.008	19.995	103.790	19.926	1.987	0.423
384.000	262.700	80.007	19.995	103.786	19.925	2.109	0.499
386.000	263.808	80.006	19.993	103.779	19.924	2.156	0.601
388.000	264.788	80.005	19.993	103.789	19.926	1.991	0.571
390.000	265.842	80.004	19.993	103.778	19.927	1.948	0.567
392.000	266.814	80.006	19.994	103.779	19.929	1.762	0.477
394.000	267.942	80.005	19.995	103.785	19.925	2.066	0.589
396.000	268.952	80.005	19.993	103.782	19.924	2.130	0.635
398.000	269.974	80.005	19.993	103.774	19.923	2.233	0.505
400.000	271.027	80.006	19.993	103.773	19.924	2.173	0.562
402.000	272.211	80.005	19.992	103.784	19.927	1.959	0.619
404.000	273.001	80.005	19.993	103.771	19.921	2.372	0.627
406.000	274.231	80.005	19.993	103.760	19.923	2.237	0.447
408.000	275.206	80.004	19.993	103.765	19.921	2.413	0.564
410.000	276.048	80.004	19.993	103.774	19.924	2.168	0.622
412.000	277.010	80.004	19.994	103.767	19.927	1.954	0.410
414.000	278.046	80.005	19.994	103.758	19.926	1.976	0.489
416.000	278.973	80.005	19.994	103.756	19.926	1.973	0.537
418.000	280.182	80.004	19.995	103.759	19.924	2.162	0.538
420.000	280.799	80.004	19.994	103.751	19.927	1.901	0.503
422.000	281.823	80.004	19.996	103.753	19.928	1.836	0.563
424.000	283.237	80.004	19.993	103.753	19.926	2.027	0.406
426.000	283.827	80.003	19.993	103.754	19.927	1.950	0.353
428.000	284.930	80.005	19.994	103.750	19.931	1.581	0.372
430.000	286.055	80.005	19.995	103.760	19.926	1.969	0.539
432.000	286.757	80.008	19.994	103.752	19.930	1.674	0.442
434.000	287.928	80.007	19.994	103.752	19.930	1.671	0.350
436.001	288.969	80.007	19.994	103.759	19.930	1.725	0.360
438.000	289.987	80.006	19.994	103.752	19.931	1.648	0.492
440.000	290.914	80.005	19.993	103.750	19.928	1.823	0.476
442.000	291.959	80.005	19.995	103.758	19.928	1.828	0.517
444.000	293.002	80.005	19.994	103.752	19.930	1.665	0.542
446.000	294.112	80.004	19.994	103.750	19.933	1.425	0.569
448.000	294.970	80.006	19.994	103.750	19.932	1.560	0.569
450.000	295.885	80.006	19.994	103.749	19.930	1.654	0.446
452.000	296.932	80.005	19.994	103.752	19.932	1.558	0.507
454.000	297.876	80.007	19.994	103.751	19.928	1.815	0.462
456.000	298.915	80.007	19.993	103.753	19.931	1.633	0.419
458.000	299.867	80.007	19.993	103.752	19.931	1.624	0.501
460.000	300.875	80.007	19.993	103.752	19.928	1.871	0.528
462.000	301.816	80.006	19.992	103.756	19.928	1.858	0.460
464.000	302.832	80.006	19.992	103.753	19.927	1.909	0.473
466.000	303.750	80.006	19.993	103.749	19.928	1.864	0.447
468.000	304.866	80.005	19.993	103.753	19.927	1.918	0.592
470.000	305.774	80.005	19.994	103.752	19.927	1.928	0.490
472.000	306.741	80.005	19.993	103.756	19.923	2.282	0.463
474.000	307.660	80.005	19.993	103.756	19.925	2.053	0.448
476.000	308.750	80.004	19.993	103.754	19.926	2.023	0.563
478.000	309.697	80.006	19.994	103.752	19.923	2.245	0.559
480.000	310.777	80.006	19.993	103.751	19.922	2.333	0.449
482.000	311.658	80.006	19.993	103.751	19.921	2.385	0.522
484.000	312.609	80.004	19.994	103.752	19.925	2.104	0.464
486.000	313.614	80.006	19.993	103.751	19.924	2.188	0.369
488.001	314.685	80.005	19.993	103.750	19.925	2.113	0.455
490.000	315.672	80.006	19.993	103.749	19.927	1.954	0.516
492.000	316.683	80.024	19.998	103.747	19.924	2.160	0.533
494.000	317.629	80.009	19.996	103.751	19.924	2.138	0.550
496.000	318.557	80.006	19.995	103.752	19.924	2.175	0.408
498.000	319.611	80.005	19.994	103.751	19.925	2.106	0.480
500.000	320.580	80.005	19.993	103.749	19.923	2.215	0.436
502.000	321.630	80.005	19.995	103.755	19.923	2.261	0.485
504.000	322.620	80.004	19.994	103.756	19.923	2.256	0.458
506.000	323.568	80.005	19.994	103.754	19.923	2.258	0.467
508.000	324.662	80.006	19.993	103.749	19.923	2.248	0.542
510.000	325.595	80.006	19.994	103.750	19.926	2.020	0.506
512.000	326.609	80.007	19.994	103.754	19.927	1.958	0.487
514.000	327.633	80.007	19.994	103.761	19.924	2.162	0.514
516.000	328.668	80.006	19.994	103.751	19.925	2.074	0.481
518.000	329.652	80.007	19.993	103.754	19.927	1.922	0.478
520.000	330.593	80.006	19.993	103.750	19.927	1.907	0.465
522.000	331.679	80.006	19.994	103.750	19.925	2.085	0.495
524.000	332.757	80.007	19.993	103.751	19.930	1.714	0.570
526.000	333.770	80.006	19.994	103.754	19.925	2.066	0.492
528.000	334.752	80.005	19.993	103.755	19.927	1.941	0.528
530.000	335.830	80.005	19.994	103.753	19.924	2.153	0.543
532.000	336.825	80.005	19.994	103.753	19.927	1.950	0.558
534.000	337.860	80.005	19.993	103.753	19.923	2.209	0.516
536.000	338.861	80.006	19.994	103.754	19.924	2.162	0.553
538.000	339.852	80.006	19.996	103.747	19.927	1.922	0.534
540.000	340.849	80.007	19.993	103.746	19.923	2.205	0.510
542.000	341.867	80.007	19.994	103.745	19.928	1.885	0.508
544.000	342.915	80.006	19.994	103.747	19.922	2.331	0.510
546.000	343.894	80.005	19.994	103.743	19.924	2.166	0.512
548.000	344.901	80.006	19.994	103.745	19.926	1.997	0.500
550.000	345.914	80.006	19.992	103.749	19.921	2.408	0.469
552.000	346.964	80.005	19.992	103.747	19.923	2.228	0.518
554.000	348.000	80.005	19.992	103.748	19.919	2.575	0.551
556.000	348.975	80.005	19.993	103.748	19.922	2.348	0.506
558.000	349.960	80.006	19.993	103.750	19.919	2.528	0.492
560.000	351.006	80.004	19.993	103.750	19.922	2.293	0.494
562.000	352.009	80.005	19.993	103.751	19.923	2.230	0.497
564.000	353.046	80.006	19.993	103.747	19.922	2.337	0.488
566.000	354.087	80.007	19.993	103.748	19.920	2.449	0.476
568.000	355.035	80.005	19.994	103.746	19.920	2.492	0.490
570.000	356.079	80.007	19.992	103.746	19.918	2.642	0.494
572.000	357.104	80.006	19.994	103.744	19.919	2.590	0.531
574.000	358.128	80.005	19.994	103.741	19.915	2.866	0.520
576.000	359.177	80.005	19.993	103.736	19.916	2.809	0.517
578.000	360.092	80.005	19.994	103.751	19.915	2.905	0.476
580.000	361.145	80.005	19.994	103.750	19.911	3.205	0.545
582.000	362.137	80.006	19.994	103.743	19.909	3.366	0.479
584.000	363.160	80.005	19.993	103.744	19.908	3.396	0.505
586.000	364.175	80.005	19.993	103.727	19.913	3.032	0.525
588.000	365.119	80.006	19.992	103.748	19.907	3.509	0.491
590.000	366.150	80.005	19.993	103.747	19.903	3.799	0.514
592.000	367.183	80.007	19.992	103.736	19.903	3.799	0.521
594.000	368.124	80.008	19.993	103.742	19.901	3.968	0.505
596.000	369.125	80.006	19.993	103.749	19.900	4.105	0.504
598.000	370.159	80.006	19.992	103.744	19.900	4.035	0.481
600.000	371.186	80.006	19.993	103.744	19.896	4.401	0.521
602.000	372.183	80.005	19.993	103.753	19.893	4.624	0.512
604.000	373.182	80.005	19.994	103.750	19.889	4.934	0.514
606.000	374.209	80.005	19.994	103.748	19.886	5.202	0.542
608.000	375.238	80.006	19.993	103.749	19.879	5.714	0.494
610.000	376.255	80.006	19.994	103.750	19.877	5.908	0.568
612.000	377.236	80.006	19.996	103.750	19.873	6.237	0.530
614.000	378.268	80.006	19.994	103.749	19.863	7.015	0.536
616.000	379.254	80.007	19.993	103.748	19.861	7.201	0.480
618.000	380.281	80.008	19.993	103.750	19.850	8.055	0.502
620.000	381.281	80.008	19.991	103.752	19.847	8.303	0.516
622.000	382.302	80.008	19.994	103.759	19.838	9.021	0.518
624.000	383.393	80.007	19.993	103.749	19.828	9.800	0.547
626.000	384.426	80.007	19.993	103.749	19.824	10.070	0.541
628.000	385.455	80.005	19.994	103.757	19.816	10.723	0.499
630.000	386.465	80.006	19.995	103.777	19.807	11.426	0.519
632.000	387.524	80.005	19.994	103.783	19.801	11.918	0.498
634.000	388.544	80.005	19.995	103.771	19.795	12.398	0.503
636.000	389.633	80.005	19.996	103.769	19.791	12.702	0.532
638.000	390.734	80.004	19.994	103.771	19.786	13.092	0.491
640.000	391.799	80.004	19.994	103.778	19.778	13.781	0.546
642.000	392.812	80.006	19.994	103.791	19.768	14.509	0.563
644.000	393.926	80.006	19.996	103.791	19.761	15.115	0.553
646.000	394.956	80.005	19.993	103.791	19.753	15.748	0.519
648.000	396.060	80.006	19.992	103.792	19.739	16.828	0.543
650.000	397.158	80.006	19.993	103.793	19.725	17.930	0.524
652.000	398.176	80.006	19.993	103.795	19.717	18.560	0.531
654.000	399.272	80.006	19.993	103.794	19.711	19.094	0.564
656.000	400.287	80.005	19.993	103.810	19.698	20.085	0.535
658.000	401.424	80.004	19.994	103.826	19.679	21.658	0.524
660.000	402.489	80.005	19.993	103.832	19.664	22.826	0.580
662.000	403.495	80.005	19.993	103.822	19.653	23.721	0.465
664.000	404.612	80.005	19.994	103.813	19.642	24.605	0.538
666.000	405.641	80.005	19.993	103.823	19.631	25.452	0.506
668.000	406.721	80.005	19.994	103.853	19.614	26.793	0.518
670.000	407.755	80.005	19.994	103.869	19.593	28.431	0.525
672.000	408.792	80.007	19.992	103.865	19.568	30.462	0.507
674.000	409.847	80.007	19.993	103.871	19.539	32.783	0.540
676.000	410.894	80.008	19.994	103.869	19.520	34.312	0.516
678.000	411.953	80.008	19.992	103.867	19.497	36.082	0.505
680.000	413.020	80.007	19.992	103.860	19.473	37.978	0.524
682.000	413.987	80.007	19.994	103.849	19.454	39.558	0.499
684.000	414.988	80.006	19.993	103.903	19.429	41.548	0.497
686.000	416.029	80.007	19.993	103.924	19.398	44.034	0.533
688.000	417.038	80.007	19.993	103.934	19.366	46.570	0.513
690.000	418.047	80.008	19.993	103.945	19.335	49.010	0.500
692.000	419.096	80.005	19.994	103.944	19.302	51.609	0.484
694.000	420.054	80.007	19.993	103.947	19.252	55.618	0.496
696.000	421.125	80.008	19.993	103.982	19.201	59.737	0.518
698.000	422.087	80.008	19.993	104.031	19.145	64.167	0.516
700.000	423.185	80.009	19.993	104.017	19.097	68.040	0.543
702.000	424.125	80.009	19.994	104.004	19.051	71.720	0.506
704.000	425.151	80.008	19.993	103.997	18.997	76.075	0.470
706.000	426.145	80.007	19.993	104.063	18.948	80.031	0.495
708.000	427.119	80.006	19.993	104.079	18.896	84.143	0.459
710.000	428.099	80.005	19.993	104.081	18.848	87.951	0.454
712.001	429.056	80.005	19.993	104.113	18.793	92.229	0.477
714.000	430.038	80.006	19.994	104.155	18.704	99.446	0.478
716.000	431.028	80.005	19.993	104.239	18.583	109.283	0.476
718.000	432.020	80.006	19.994	104.325	18.471	118.197	0.487
720.000	432.923	80.004	19.995	104.267	18.390	124.606	0.490
722.000	433.945	80.004	19.993	104.166	18.294	132.363	0.497
724.000	434.961	80.005	19.993	104.184	18.181	141.343	0.508
726.000	435.876	80.005	19.994	104.345	18.081	149.339	0.458
728.000	436.812	80.004	19.994	104.456	18.002	155.572	0.472
730.000	437.751	80.006	19.995	104.399	17.912	162.974	0.501
732.000	438.740	80.006	19.993	104.393	17.817	170.765	0.490
734.000	439.732	80.005	19.995	104.437	17.777	173.929	0.473
736.000	440.705	80.006	19.993	104.411	17.761	175.039	0.492
738.000	441.666	80.006	19.993	104.397	17.733	177.254	0.442
740.000	442.584	80.003	19.993	104.417	17.697	180.183	0.463
742.000	443.650	80.004	19.994	104.594	17.667	182.629	0.515
744.000	444.668	80.004	19.993	104.637	17.645	184.412	0.501
746.000	445.577	80.006	19.994	104.561	17.632	185.437	0.494
748.000	446.601	80.005	19.993	104.510	17.630	185.561	0.505
750.000	447.580	80.006	19.993	104.517	17.632	185.411	0.513
752.000	448.538	80.008	19.993	104.528	17.638	184.866	0.494
754.000	449.519	80.007	19.992	104.555	17.645	184.289	0.492
756.000	450.539	80.006	19.994	104.566	17.659	183.198	0.484
758.000	451.558	80.007	19.995	104.545	17.680	181.470	0.540
760.000	452.542	80.008	19.994	104.529	17.708	179.199	0.515
762.000	453.546	80.006	19.994	104.526	17.741	176.511	0.522
764.000	454.607	80.006	19.994	104.512	17.781	173.218	0.525
766.000	455.625	80.005	19.993	104.497	17.834	169.010	0.510
768.000	456.642	80.006	19.992	104.477	17.890	164.399	0.518
770.000	457.644	80.006	19.993	104.454	17.955	159.230	0.520
772.000	458.708	80.008	19.993	104.430	18.030	153.184	0.540
774.000	459.736	80.008	19.993	104.405	18.109	146.805	0.484
776.000	460.816	80.007	19.993	104.381	18.197	139.797	0.565
778.000	461.797	80.007	19.992	104.342	18.292	132.155	0.510
780.000	462.853	80.009	19.992	104.306	18.389	124.376	0.536
782.000	463.893	80.008	19.991	104.284	18.486	116.635	0.543
784.000	464.883	80.007	19.992	104.244	18.585	108.757	0.523
786.000	465.881	80.007	19.993	104.220	18.691	100.268	0.521
788.000	466.891	80.005	19.994	104.183	18.791	92.270	0.498
790.000	467.941	80.005	19.993	104.146	18.901	83.565	0.498
792.000	468.987	80.006	19.995	104.116	19.006	75.141	0.544
794.000	470.049	80.005	19.993	104.093	19.102	67.524	0.545
796.000	471.085	80.006	19.995	104.069	19.190	60.466	0.499
798.000	472.140	80.005	19.993	104.051	19.268	54.315	0.517
800.000	473.117	80.005	19.993	104.016	19.334	49.058	0.493
802.000	474.207	80.005	19.994	103.986	19.395	44.195	0.487
804.000	475.269	80.004	19.994	103.959	19.455	39.450	0.530
806.000	476.350	80.005	19.994	103.925	19.504	35.503	0.527
808.000	477.359	80.006	19.994	103.913	19.542	32.520	0.537
810.000	478.464	80.006	19.994	103.899	19.581	29.412	0.529
812.000	479.565	80.006	19.994	103.878	19.612	26.907	0.541
814.000	480.613	80.006	19.993	103.866	19.642	24.560	0.533
816.000	481.665	80.005	19.994	103.861	19.670	22.356	0.525
818.000	482.716	80.006	19.994	103.838	19.695	20.334	0.545
820.000	483.785	80.006	19.995	103.830	19.717	18.588	0.537
822.000	484.867	80.004	19.993	103.826	19.732	17.395	0.546
824.000	485.886	80.004	19.995	103.815	19.748	16.102	0.536
826.000	486.939	80.006	19.994	103.802	19.763	14.905	0.527
828.000	487.981	80.007	19.995	103.798	19.777	13.865	0.524
830.000	489.066	80.006	19.993	103.800	19.794	12.446	0.492
832.000	490.149	80.007	19.993	103.800	19.805	11.603	0.525
834.000	491.189	80.007	19.993	103.793	19.812	11.037	0.552
836.000	492.261	80.007	19.992	103.788	19.822	10.288	0.478
838.000	493.279	80.008	19.992	103.785	19.831	9.581	0.537
840.000	494.335	80.007	19.994	103.783	19.834	9.334	0.521
842.000	495.436	80.007	19.992	103.783	19.847	8.303	0.533
844.000	496.486	80.007	19.994	103.773	19.852	7.870	0.551
846.000	497.535	80.007	19.993	103.776	19.857	7.497	0.546
848.000	498.564	80.006	19.993	103.767	19.862	7.119	0.531
850.000	499.631	80.005	19.993	103.754	19.864	6.890	0.514
852.000	500.640	80.005	19.994	103.754	19.871	6.352	0.509
854.000	501.654	80.006	19.994	103.754	19.869	6.521	0.499
856.000	502.734	80.008	19.993	103.745	19.877	5.898	0.531
858.000	503.727	80.008	19.994	103.745	19.874	6.125	0.500
860.000	504.767	80.007	19.992	103.734	19.881	5.589	0.506
862.000	505.791	80.009	19.993	103.743	19.879	5.735	0.534
864.000	506.849	80.008	19.992	103.741	19.883	5.431	0.539
866.000	507.807	80.009	19.992	103.734	19.884	5.351	0.542
868.000	508.813	80.007	19.991	103.739	19.886	5.179	0.534
870.000	509.858	80.007	19.993	103.733	19.891	4.787	0.490
872.000	510.872	80.007	19.993	103.731	19.893	4.655	0.543
874.000	511.835	80.006	19.993	103.738	19.898	4.245	0.477
876.000	512.854	80.007	19.993	103.727	19.891	4.770	0.510
878.000	513.873	80.006	19.993	103.721	19.887	5.123	0.516
880.000	514.912	80.006	19.993	103.712	19.890	4.886	0.489
882.000	515.926	80.004	19.994	103.721	19.894	4.545	0.500
884.000	516.918	80.007	19.994	103.716	19.889	4.918	0.497
886.000	517.991	80.008	19.995	103.712	19.893	4.586	0.535
888.000	518.973	80.007	19.995	103.710	19.892	4.699	0.529
890.000	519.964	80.006	19.994	103.721	19.892	4.674	0.490
892.000	521.015	80.006	19.992	103.716	19.893	4.597	0.492
894.000	522.007	80.007	19.994	103.713	19.895	4.432	0.495
896.000	522.986	80.005	19.994	103.712	19.894	4.577	0.523
898.000	524.018	80.005	19.993	103.713	19.892	4.663	0.509
900.000	525.056	80.004	19.992	103.715	19.893	4.661	0.506
902.000	526.018	80.006	19.995	103.721	19.893	4.648	0.512
904.000	527.005	80.004	19.995	103.715	19.895	4.470	0.499
906.000	528.020	80.005	19.994	103.714	19.896	4.410	0.464
908.001	529.051	80.004	19.995	103.714	19.901	4.010	0.512
910.000	530.042	80.004	19.996	103.713	19.895	4.447	0.543
912.000	531.099	80.006	19.994	103.713	19.896	4.391	0.528
914.000	532.069	80.006	19.995	103.715	19.896	4.376	0.518
916.000	533.119	80.007	19.993	103.714	19.894	4.551	0.480
918.000	534.231	80.005	19.993	103.714	19.891	4.768	0.568
920.000	535.235	80.007	19.994	103.714	19.902	3.872	0.539
922.000	536.258	80.005	19.993	103.721	19.897	4.333	0.592
924.000	537.301	80.008	19.993	103.718	19.893	4.635	0.599
926.000	538.294	80.007	19.994	103.714	19.903	3.845	0.518
928.000	539.190	80.007	19.994	103.715	19.898	4.209	0.341
930.000	540.567	80.008	19.993	103.711	19.899	4.153	0.473
932.000	541.129	80.006	19.993	103.713	19.896	4.382	0.331
934.000	542.403	80.009	19.995	103.712	19.898	4.247	0.184
936.000	543.321	80.006	19.992	103.712	19.892	4.691	0.318
938.000	544.328	80.006	19.992	103.713	19.893	4.603	0.766
940.000	545.702	80.007	19.993	103.715	19.898	4.239	0.534
942.000	546.619	80.008	19.993	103.711	19.895	4.472	0.482
944.000	547.777	80.009	19.993	103.718	19.894	4.543	0.526
946.000	548.535	80.007	19.993	103.712	19.896	4.380	0.660
948.000	549.627	80.006	19.992	103.713	19.895	4.438	0.387
950.000	550.600	80.006	19.993	103.710	19.894	4.554	0.471
952.000	551.567	80.006	19.992	103.706	19.893	4.601	0.475
954.000	552.572	80.006	19.993	103.704	19.897	4.288	0.519
956.000	553.571	80.007	19.992	103.712	19.897	4.299	0.457
958.000	554.586	80.006	19.992	103.713	19.894	4.536	0.530
960.000	555.623	80.005	19.993	103.715	19.897	4.279	0.505
962.000	556.459	80.007	19.993	103.719	19.899	4.179	0.523
964.000	557.534	80.008	19.993	103.716	19.896	4.369	0.524
966.000	558.505	80.005	19.993	103.715	19.896	4.395	0.518
968.000	559.441	80.006	19.994	103.713	19.895	4.436	0.461
970.000	560.411	80.005	19.992	103.715	19.896	4.380	0.506
972.000	561.387	80.006	19.993	103.712	19.896	4.389	0.488
974.000	562.367	80.006	19.994	103.714	19.895	4.466	0.510
976.000	563.347	80.005	19.994	103.714	19.901	4.027	0.457
978.000	564.297	80.004	19.992	103.714	19.903	3.849	0.480
980.000	565.238	80.004	19.993	103.710	19.902	3.947	0.469
982.000	566.246	80.004	19.993	103.725	19.903	3.851	0.470
984.000	567.136	80.006	19.994	103.717	19.896	4.376	0.461
986.000	568.104	80.006	19.994	103.715	19.900	4.099	0.462
988.000	569.085	80.004	19.993	103.713	19.897	4.275	0.475
990.000	570.049	80.006	19.994	103.712	19.895	4.481	0.512
992.000	570.989	80.006	19.993	103.712	19.895	4.425	0.461
994.000	571.977	80.006	19.994	103.718	19.893	4.661	0.499
996.001	572.934	80.007	19.995	103.711	19.891	4.745	0.498
998.000	573.949	80.006	19.993	103.714	19.892	4.704	0.494
1000.000	574.934	80.007	19.995	103.712	19.890	4.872	0.496
1002.000	575.935	80.006	19.995	103.712	19.889	4.939	0.562
1004.000	576.911	80.007	19.994	103.711	19.893	4.584	0.469
1006.000	577.873	80.006	19.995	103.722	19.892	4.740	0.475
1008.000	578.907	80.007	19.995	103.717	19.888	4.980	0.500
1010.000	579.914	80.006	19.992	103.712	19.892	4.695	0.509
1012.000	580.941	80.006	19.993	103.709	19.889	4.944	0.535
1014.000	581.978	80.007	19.992	103.712	19.890	4.837	0.518
1016.000	582.995	80.007	19.992	103.719	19.891	4.766	0.510
1018.000	584.031	80.008	19.993	103.714	19.886	5.156	0.548
1020.000	585.060	80.009	19.993	103.714	19.886	5.184	0.529
1022.000	586.110	80.008	19.994	103.719	19.886	5.209	0.500
1024.000	587.213	80.007	19.993	103.721	19.885	5.246	0.532
1026.000	588.233	80.008	19.994	103.718	19.885	5.218	0.507
1028.000	589.278	80.006	19.993	103.720	19.883	5.425	0.536
1030.000	590.349	80.006	19.993	103.724	19.886	5.162	0.519
1032.000	591.356	80.004	19.994	103.719	19.882	5.475	0.510
1034.000	592.408	80.006	19.994	103.716	19.887	5.115	0.499
1036.000	593.512	80.005	19.993	103.715	19.886	5.207	0.560
1038.000	594.573	80.004	19.993	103.717	19.887	5.133	0.517
1040.000	595.611	80.005	19.993	103.716	19.886	5.216	0.522
1042.000	596.680	80.006	19.996	103.727	19.880	5.680	0.546
1044.001	597.714	80.005	19.993	103.718	19.886	5.179	0.550
1046.000	598.740	80.006	19.993	103.720	19.883	5.436	0.531
1048.000	599.771	80.006	19.993	103.729	19.882	5.483	0.491
1050.000	600.846	80.007	19.994	103.722	19.882	5.517	0.519
1052.000	601.896	80.008	19.995	103.719	19.885	5.224	0.496
1054.000	602.943	80.006	19.993	103.712	19.887	5.130	0.502
1056.000	604.015	80.005	19.992	103.714	19.884	5.299	0.536
1058.000	605.018	80.007	19.993	103.711	19.882	5.481	0.532
1060.000	606.056	80.006	19.993	103.712	19.881	5.564	0.522
1062.000	607.031	80.005	19.995	103.711	19.879	5.768	0.509
1064.000	608.057	80.004	19.994	103.718	19.877	5.885	0.480
1066.000	609.139	80.006	19.994	103.716	19.880	5.682	0.527
1068.000	610.240	80.006	19.995	103.714	19.887	5.093	0.550
1070.000	611.257	80.007	19.994	103.711	19.886	5.149	0.503
1072.000	612.307	80.006	19.993	103.709	19.885	5.247	0.532
1074.000	613.315	80.006	19.993	103.733	19.882	5.487	0.527
1076.000	614.314	80.007	19.994	103.724	19.881	5.556	0.499
1078.000	615.342	80.007	19.994	103.713	19.882	5.471	0.511
1080.000	616.353	80.008	19.993	103.716	19.877	5.877	0.480
1082.000	617.409	80.008	19.994	103.717	19.883	5.430	0.525
1084.000	618.445	80.006	19.992	103.710	19.879	5.755	0.531
1086.000	619.456	80.006	19.994	103.711	19.879	5.695	0.514
1088.000	620.492	80.008	19.994	103.724	19.878	5.777	0.531
1090.000	621.448	80.006	19.994	103.712	19.876	5.989	0.477
1092.000	622.455	80.006	19.994	103.716	19.878	5.848	0.524
1094.000	623.509	80.005	19.995	103.713	19.877	5.916	0.518
1096.000	624.473	80.006	19.994	103.713	19.878	5.799	0.494
1098.000	625.466	80.008	19.994	103.714	19.877	5.910	0.495
1100.000	626.497	80.007	19.994	103.722	19.877	5.912	0.515
1102.000	627.528	80.008	19.995	103.727	19.879	5.754	0.514
1104.000	628.526	80.008	19.994	103.722	19.876	5.931	0.494
1106.000	629.518	80.008	19.993	103.717	19.878	5.794	0.475
1108.000	630.546	80.007	19.993	103.734	19.877	5.865	0.536
1110.000	631.566	80.008	19.992	103.715	19.881	5.599	0.494
1112.000	632.620	80.006	19.993	103.724	19.879	5.727	0.498
1114.000	633.652	80.006	19.994	103.731	19.882	5.522	0.560
1116.000	634.689	80.006	19.993	103.719	19.880	5.616	0.519
1118.001	635.717	80.005	19.993	103.720	19.881	5.569	0.557
1120.000	636.792	80.007	19.994	103.717	19.880	5.618	0.529
1122.000	637.796	80.008	19.994	103.712	19.878	5.781	0.519
1124.000	638.825	80.008	19.995	103.718	19.880	5.670	0.520
1126.001	639.802	80.005	19.995	103.713	19.878	5.774	0.494
1128.000	640.882	80.006	19.994	103.712	19.881	5.539	0.503
1130.000	641.882	80.007	19.995	103.712	19.878	5.849	0.519
1132.000	642.864	80.006	19.994	103.713	19.878	5.841	0.515
1134.000	643.871	80.007	19.993	103.713	19.876	5.974	0.489
1136.000	644.863	80.006	19.994	103.713	19.876	5.972	0.488
1138.000	645.900	80.007	19.995	103.713	19.882	5.477	0.522
1140.000	646.910	80.006	19.994	103.712	19.881	5.577	0.534
1142.000	647.904	80.006	19.994	103.711	19.878	5.779	0.490
1144.000	648.890	80.006	19.993	103.715	19.883	5.423	0.462
1146.000	649.960	80.006	19.993	103.719	19.880	5.627	0.499
1148.000	650.959	80.006	19.993	103.714	19.885	5.295	0.455
1150.000	652.031	80.007	19.993	103.715	19.881	5.543	0.527
1152.000	653.078	80.006	19.995	103.719	19.879	5.693	0.534
1154.000	654.110	80.005	19.993	103.723	19.881	5.588	0.530
1156.000	655.128	80.006	19.993	103.715	19.877	5.852	0.503
1158.000	656.168	80.007	19.993	103.712	19.881	5.582	0.510
1160.000	657.158	80.006	19.993	103.714	19.880	5.629	0.490
1162.000	658.206	80.008	19.995	103.716	19.880	5.631	0.506
1164.001	659.234	80.006	19.995	103.717	19.880	5.650	0.526
1166.000	660.281	80.007	19.994	103.726	19.879	5.715	0.508
1168.000	661.293	80.008	19.993	103.723	19.878	5.773	0.515
1170.000	662.354	80.006	19.992	103.715	19.883	5.423	0.532
1172.000	663.424	80.006	19.994	103.726	19.881	5.578	0.550
1174.000	664.469	80.007	19.994	103.716	19.880	5.691	0.547
1176.000	665.533	80.006	19.993	103.716	19.884	5.318	0.567
1178.000	666.607	80.007	19.993	103.719	19.883	5.410	0.525
1180.000	667.694	80.007	19.994	103.722	19.881	5.547	0.544
1182.000	668.755	80.007	19.994	103.724	19.880	5.663	0.530
1184.000	669.859	80.008	19.994	103.719	19.882	5.472	0.565
1186.000	670.920	80.009	19.993	103.710	19.878	5.774	0.517
1188.000	672.044	80.010	19.994	103.711	19.881	5.582	0.524
1190.000	673.146	80.007	19.994	103.709	19.883	5.387	0.565
1192.000	674.222	80.007	19.994	103.716	19.880	5.665	0.556
1194.000	675.309	80.006	19.994	103.716	19.880	5.674	0.557
1196.000	676.381	80.006	19.994	103.710	19.877	5.880	0.553
1198.000	677.461	80.006	19.994	103.720	19.877	5.876	0.539
1200.000	678.532	80.008	19.994	103.727	19.877	5.865	0.530
1202.000	679.653	80.005	19.992	103.716	19.882	5.515	0.557
1204.001	680.639	80.007	19.995	103.718	19.880	5.687	0.489
1206.000	681.695	80.006	19.994	103.714	19.881	5.590	0.513
1208.000	682.751	80.007	19.994	103.735	19.880	5.681	0.508
1210.000	683.848	80.008	19.993	103.723	19.883	5.450	0.525
1212.000	684.873	80.007	19.992	103.717	19.880	5.640	0.489
1214.000	685.863	80.006	19.994	103.716	19.881	5.595	0.529
1216.000	686.969	80.006	19.993	103.719	19.881	5.543	0.499
1218.000	687.998	80.007	19.993	103.714	19.884	5.338	0.528
1220.001	689.087	80.006	19.992	103.721	19.885	5.285	0.532
1222.000	690.124	80.006	19.994	103.727	19.882	5.511	0.517
1224.000	691.120	80.006	19.994	103.721	19.884	5.349	0.507
1226.001	692.143	80.005	19.995	103.722	19.882	5.531	0.524
1228.000	693.188	80.005	19.993	103.719	19.881	5.595	0.537
1230.000	694.224	80.006	19.993	103.723	19.881	5.563	0.529
1232.000	695.421	80.007	19.993	103.725	19.883	5.389	0.554
1234.000	696.323	80.006	19.993	103.716	19.884	5.361	0.523
1236.000	697.305	80.007	19.993	103.725	19.884	5.357	0.483
1238.000	698.312	80.007	19.994	103.715	19.884	5.342	0.482
1240.000	699.328	80.008	19.993	103.717	19.882	5.519	0.469
1242.000	700.356	80.007	19.992	103.718	19.886	5.142	0.516
1244.000	701.322	80.008	19.991	103.716	19.885	5.278	0.502
1246.000	702.352	80.007	19.992	103.715	19.882	5.491	0.509
1248.000	703.358	80.008	19.993	103.718	19.887	5.108	0.516
1250.000	704.354	80.007	19.993	103.711	19.885	5.256	0.527
1252.000	705.365	80.008	19.992	103.710	19.880	5.614	0.508
1254.000	706.331	80.006	19.993	103.719	19.886	5.157	0.473
1256.000	707.339	80.008	19.994	103.715	19.879	5.719	0.504
1258.000	708.318	80.007	19.993	103.697	19.881	5.595	0.502
1260.000	709.289	80.008	19.994	103.711	19.883	5.404	0.512
1262.000	710.279	80.008	19.992	103.710	19.883	5.442	0.494
1264.000	711.253	80.009	19.993	103.705	19.882	5.483	0.500
1266.000	712.212	80.009	19.994	103.709	19.879	5.723	0.521
1268.000	713.205	80.010	19.993	103.710	19.879	5.746	0.492
1270.000	714.192	80.009	19.993	103.720	19.882	5.501	0.484
1272.000	715.236	80.009	19.993	103.713	19.883	5.422	0.519
1274.000	716.231	80.007	19.992	103.710	19.882	5.457	0.506
1276.000	717.261	80.007	19.993	103.709	19.881	5.547	0.506
1278.000	718.255	80.008	19.993	103.710	19.881	5.605	0.497
1280.000	719.302	80.006	19.995	103.710	19.878	5.826	0.530
1282.000	720.316	80.007	19.995	103.727	19.879	5.756	0.488
1284.000	721.334	80.007	19.994	103.719	19.877	5.874	0.509
1286.000	722.372	80.005	19.994	103.713	19.882	5.476	0.504
1288.000	723.408	80.005	19.994	103.716	19.880	5.669	0.490
1290.000	724.444	80.006	19.993	103.717	19.878	5.785	0.538
1292.000	725.445	80.007	19.995	103.719	19.875	6.012	0.525
1294.000	726.440	80.008	19.994	103.732	19.878	5.787	0.518
1296.000	727.504	80.007	19.994	103.713	19.875	6.040	0.533
1298.000	728.550	80.007	19.994	103.710	19.875	6.062	0.518
1300.000	729.571	80.008	19.994	103.711	19.877	5.914	0.526
1302.000	730.598	80.006	19.992	103.709	19.873	6.190	0.507
1304.000	731.679	80.008	19.993	103.714	19.877	5.886	0.505
1306.000	732.684	80.006	19.994	103.714	19.876	5.963	0.510
1308.000	733.722	80.006	19.994	103.716	19.877	5.929	0.474
1310.000	734.784	80.006	19.993	103.720	19.875	6.072	0.531
1312.000	735.813	80.006	19.994	103.710	19.876	6.003	0.510
1314.001	736.861	80.005	19.993	103.717	19.876	5.982	0.522
1316.000	737.874	80.006	19.993	103.719	19.875	6.040	0.499
1318.000	738.937	80.007	19.993	103.712	19.874	6.098	0.537
1320.000	739.967	80.006	19.994	103.711	19.872	6.325	0.495
1322.000	741.028	80.008	19.993	103.711	19.867	6.678	0.507
1324.000	742.034	80.008	19.994	103.711	19.872	6.325	0.522
1326.000	743.058	80.009	19.993	103.715	19.875	6.068	0.521
1326.500	743.347	80.008	19.992	103.717	19.876	5.948	0.509