File: 01_Data/HDPE/Cone/HDPE_Cone_HF75Scan_220201_R3.csv
Names,Time,Stack TC,Smoke TC,Exh Press,Smoke Comp,Smoke Meas,CO Meter,CO2 Meter,O2 Meter,Sample Mass,Ext Coeff,Start Test,Flame Verif
Chan Gain,,500,500,1,1,1,1,1,1,1,1,1.0,1.0
Offset,,0,0,0.14021,0,0,0,0,0,0,0,0.0,0.0
Gain,,1,1,25.011,13.3046,13.3037,1,1,1,1.00087,1.10262,1.0,1.0
Units,sec,C,C,Pa,%,%,%,%,%,g,/m,,
Baseline,,50.2286,50.8859,130.777,99.3893,104.635,0.00652155,0.0811664,20.961,-1.30143,-0.497475,,
3,0.5,41.7179,41.7149,130.781,99.3321,104.931,0.0062742,0.088473,20.953,929.021,-0.530409,0.0,0.0
6,1.25,42.5236,41.9809,135.257,99.3195,104.91,0.00633414,0.0888251,20.9526,929.211,-0.529613,0.0,0.0
9,2,42.1567,41.3492,134.23,99.259,104.766,0.00639535,0.0891568,20.9519,929.201,-0.522285,0.0,0.0
12,2.75,41.9545,41.8564,130.32,99.2216,104.549,0.0064527,0.0895531,20.951,929.101,-0.505851,0.0,0.0
15,3.5,42.1341,41.9691,131.171,99.1896,104.029,0.00650352,0.0899369,20.9503,929.031,-0.460744,0.0,0.0
18,4.25,41.9515,41.8102,131.817,99.1502,104.437,0.00654057,0.0902642,20.9499,929.111,-0.502485,0.0,0.0
21,5,42.1289,42.5257,134.57,99.1181,104.618,0.00656034,0.090515,20.9494,929.161,-0.52237,0.0,0.0
24,5.75,42.9416,42.793,129.857,99.0499,104.416,0.00656236,0.0907114,20.9489,929.071,-0.510318,0.0,0.0
27,6.5,42.4572,43.1481,134.97,99.0065,104.491,0.00654599,0.0908604,20.9486,929.031,-0.521441,0.0,0.0
30,7.25,42.932,42.5041,130.895,98.9646,104.078,0.00652531,0.0909975,20.9483,929.131,-0.48727,0.0,0.0
33,8,43.1068,43.0444,130.487,98.9066,104.217,0.00650584,0.0911462,20.9481,929.121,-0.505841,0.0,0.0
36,8.75,42.5779,43.8774,131.565,98.8566,103.972,0.00649052,0.0913088,20.948,929.091,-0.487978,0.0,0.0
39,9.5,43.1043,43.1548,129.327,98.8408,104.361,0.00648435,0.0915005,20.9479,929.081,-0.525605,0.0,0.0
42,10.25,42.4367,43.4289,129.892,98.8574,104.254,0.00648528,0.0917256,20.9478,929.081,-0.514075,0.0,0.0
45,11,43.3828,43.7539,130.936,98.8562,104.14,0.00649158,0.0920057,20.9478,929.061,-0.503604,0.0,0.0
48,11.75,43.1746,43.5517,133.594,98.8473,104.487,0.00649815,0.0922912,20.9477,929.121,-0.536664,0.0,0.0
51,12.5,43.2705,43.7768,130.143,98.8583,104.597,0.00650632,0.0925341,20.9477,929.131,-0.545733,0.0,0.0
54,13.25,43.2876,44.1191,130.66,98.8932,104.353,0.00651049,0.0927112,20.9477,929.111,-0.519804,0.0,0.0
57,14,43.0139,43.5899,131.674,98.8915,104.527,0.00649852,0.0928402,20.9477,929.091,-0.536055,0.0,0.0
60,14.75,42.8998,44.2166,129.608,98.898,104.562,0.0064834,0.092857,20.9477,929.081,-0.538649,0.0,0.0
63,15.5,43.4066,44.3063,134.064,98.8976,104.785,0.00642782,0.0928121,20.9476,929.061,-0.559248,0.0,0.0
66,16.25,43.266,44.759,131.952,98.9139,104.343,0.00635483,0.0926817,20.9476,929.091,-0.516838,0.0,0.0
69,17,43.8606,44.6486,132.713,98.9204,104.723,0.00627793,0.0924513,20.9476,929.091,-0.551364,0.0,0.0
72,17.75,43.7519,44.7315,126.856,98.9273,104.473,0.00620502,0.0921479,20.9483,929.081,-0.527525,0.0,0.0
75,18.5,43.5745,44.5584,135.779,98.9322,104.528,0.00615187,0.0917976,20.9487,929.141,-0.532159,0.0,0.0
78,19.25,43.4484,44.5007,130.589,98.9549,104.466,0.00611313,0.0914203,20.949,929.101,-0.524187,0.0,0.0
81,20,44.3642,44.8835,130.179,98.9585,104.519,0.00612938,0.0910294,20.9493,929.051,-0.528753,0.0,0.0
84,20.75,43.3519,44.609,132.894,98.9646,104.335,0.00617544,0.0906874,20.9494,929.101,-0.511086,0.0,0.0
87,21.5,43.6466,44.9897,129.176,98.9764,104.578,0.00626749,0.0903406,20.9489,929.061,-0.532491,0.0,0.0
90,22.25,43.4476,44.3633,136.066,98.9898,104.506,0.00644889,0.0900065,20.9486,929.051,-0.524534,0.0,0.0
93,23,44.1429,45.386,134.103,99.0052,104.222,0.00667274,0.0897284,20.9483,929.041,-0.49665,0.0,0.0
96,23.75,43.4811,44.9221,131.345,99.0061,103.508,0.0069306,0.0894098,20.9481,929.041,-0.430067,0.0,0.0
99,24.5,44.314,44.3184,129.021,99.0146,103.36,0.0072137,0.0892858,20.9474,929.051,-0.415453,0.0,0.0
102,25.25,44.0982,45.128,128.618,99.0349,102.859,0.00749449,0.0894697,20.9464,929,-0.366436,0.0,0.0
105,26,44.1271,45.3748,130.614,99.0531,103.198,0.00782641,0.0899938,20.9449,929.021,-0.396516,0.0,0.0
108,26.75,44.3128,45.0383,135.243,99.0458,103.175,0.00816406,0.0917692,20.9437,929.021,-0.395061,0.0,0.0
111,27.5,44.4843,45.4676,128.688,99.0625,103.641,0.00841021,0.0942106,20.9398,929.051,-0.436992,0.0,0.0
114,28.25,44.2886,45.84,130.136,99.0743,103.59,0.00858458,0.0979521,20.9338,929.041,-0.431142,0.0,1.0
117,29,44.0234,46.1369,131.875,99.0921,103.893,0.00865132,0.103946,20.9249,929.021,-0.457636,0.0,1.0
120,29.75,44.2744,46.2199,128.771,99.0864,104.315,0.00867516,0.109707,20.9129,928.8,-0.497382,0.0,1.0
123,30.5,44.8361,45.7941,128.754,99.1019,104.09,0.00857001,0.116377,20.8976,928.93,-0.47496,0.0,1.0
126,31.25,44.8846,47.0174,124.594,99.1071,102.976,0.0084489,0.12546,20.8837,928.98,-0.37037,0.0,1.0
129,32,45.0627,46.93,127.451,99.1299,103.804,0.00828461,0.136327,20.8649,928.92,-0.44567,0.0,1.0
132,32.75,45.2891,47.417,132.16,99.1222,103.742,0.00814763,0.147838,20.848,928.88,-0.440557,0.0,1.0
135,33.5,45.4123,47.4741,126.351,99.1445,102.569,0.00801831,0.15776,20.8302,928.87,-0.328477,0.0,0.0
138,34.25,45.4299,48.1767,121.821,99.1469,102.66,0.00795276,0.172877,20.809,928.83,-0.336774,0.0,0.0
141,35,46.0573,49.4488,124.934,99.1616,101.439,0.00796417,0.186676,20.7854,928.84,-0.219599,0.0,0.0
144,35.75,46.8074,49.868,120.948,99.1701,98.8265,0.00805687,0.201487,20.7604,928.72,0.0335645,0.0,0.0
147,36.5,47.1076,50.6845,119.469,99.1636,97.1603,0.00822556,0.218099,20.7261,928.77,0.197391,0.0,0.0
150,37.25,47.7191,51.2163,116.609,99.1701,94.0951,0.00853098,0.235548,20.6902,928.72,0.508083,0.0,0.0
153,38,48.638,52.1599,127.265,99.1843,92.9741,0.0088947,0.253156,20.6535,928.73,0.625384,0.0,0.0
156,38.75,48.8384,53.1457,118.029,99.1957,90.7765,0.00921998,0.275783,20.6166,928.61,0.85786,0.0,0.0
159,39.5,49.5123,54.4757,120.862,99.1916,90.4902,0.0096396,0.300459,20.5731,928.6,0.888009,0.0,0.0
162,40.25,50.032,54.7886,114.979,99.1928,89.0693,0.0101103,0.321935,20.5344,928.62,1.04122,0.0,0.0
165,41,51.0187,55.9006,121.884,99.1936,84.3215,0.0106023,0.34888,20.4858,928.58,1.5711,0.0,0.0
168,41.75,51.6597,58.0115,122.102,99.2192,88.7952,0.011127,0.377334,20.4439,928.49,1.07359,0.0,0.0
171,42.5,53.0393,59.1535,116.579,99.2074,87.2333,0.0116606,0.401832,20.4025,928.44,1.24409,0.0,0.0
174,43.25,53.5919,60.3714,111.759,99.2095,84.0731,0.0121868,0.432724,20.3468,928.36,1.60119,0.0,0.0
177,44,54.8853,62.2221,113.854,99.216,83.5818,0.0127703,0.460362,20.2881,928.36,1.6585,0.0,0.0
180,44.75,55.8717,63.8668,110.183,99.2237,82.9639,0.0133427,0.48926,20.2276,928.2,1.73103,0.0,0.0
183,45.5,56.9271,65.5591,107.568,99.2164,79.7419,0.0138228,0.525995,20.1667,928.09,2.11343,0.0,0.0
186,46.25,57.9855,67.292,107.209,99.2164,79.6319,0.0143466,0.563883,20.1123,928.06,2.12678,0.0,0.0
189,47,59.2507,69.3372,108.062,99.2111,80.6704,0.0148605,0.596239,20.0554,927.98,2.00094,0.0,0.0
192,47.75,60.3364,71.6184,95.5686,99.2306,78.1342,0.0153343,0.634173,19.9961,927.9,2.31181,0.0,0.0
195,48.5,62.091,73.9008,104.797,99.2415,77.269,0.0158074,0.668609,19.9366,927.809,2.42058,0.0,0.0
198,49.25,63.1909,74.8619,102.062,99.2156,77.213,0.0162705,0.705311,19.8784,927.719,2.42506,0.0,0.0
201,50,64.8131,78.0254,99.6224,99.2172,77.7696,0.0167174,0.745496,19.8359,927.609,2.35574,0.0,0.0
204,50.75,66.0835,80.1079,106.618,99.2334,77.7607,0.0170432,0.785815,19.7672,927.469,2.35844,0.0,0.0
207,51.5,68.2455,83.1639,99.514,99.218,78.2231,0.0176039,0.82427,19.7037,927.419,2.29959,0.0,0.0
210,52.25,69.2625,85.5228,95.9403,99.2022,76.7733,0.0181115,0.863723,19.6516,927.299,2.47899,0.0,0.0
213,53,70.2641,87.4068,106.361,99.2074,77.6616,0.0186506,0.892483,19.5963,927.209,2.36823,0.0,0.0
216,53.75,71.4784,89.4726,100.718,99.203,73.054,0.0192249,0.925682,19.556,927.139,2.95937,0.0,0.0
219,54.5,73.637,92.0105,88.706,99.2009,73.5923,0.0199537,0.955098,19.5049,927.019,2.88816,0.0,0.0
222,55.25,74.3838,94.8166,98.6103,99.188,70.1576,0.0208895,0.995418,19.4394,926.839,3.34918,0.0,0.0
225,56,76.611,96.3623,103.521,99.1871,69.8572,0.0218996,1.02481,19.3632,926.749,3.39061,0.0,0.0
228,56.75,77.9199,98.6173,97.8103,99.1843,67.3335,0.0229417,1.07514,19.2794,926.558,3.74622,0.0,0.0
231,57.5,79.4596,101.248,98.5614,99.1814,67.3713,0.0239852,1.1291,19.1688,926.548,3.74052,0.0,0.0
234,58.25,81.7042,104.412,92.6376,99.1709,68.532,0.0251793,1.17581,19.0634,926.328,3.57427,0.0,0.0
237,59,83.0412,107.459,84.6324,99.1571,68.4979,0.0263739,1.23115,18.9638,926.218,3.57774,0.0,0.0
240,59.75,84.9473,110.44,93.5452,99.1469,69.0391,0.0273829,1.29174,18.8705,926.068,3.50063,0.0,0.0
243,60.5,86.3905,113.069,83.5073,99.1502,68.7122,0.0286114,1.3498,18.7825,925.908,3.54684,0.0,0.0
246,61.25,88.5229,116.432,99.0324,99.1413,69.2664,0.0299637,1.40603,18.7098,925.808,3.46827,0.0,0.0
249,62,90.3567,119.524,86.2437,99.1258,66.1407,0.031371,1.46068,18.624,925.618,3.91339,0.0,0.0
252,62.75,92.5759,122.033,89.6937,99.1258,64.7055,0.0323791,1.51143,18.5801,925.337,4.12558,0.0,0.0
255,63.5,94.2683,125.743,93.3116,99.1197,62.4741,0.0339145,1.5671,18.484,925.247,4.46441,0.0,0.0
258,64.25,96.3924,128.584,104.864,99.1206,62.3292,0.0357159,1.64585,18.3656,925.177,4.48696,0.0,0.0
261,65,98.6718,132.866,74.8938,99.1043,62.4904,0.0375183,1.71785,18.2097,924.807,4.46039,0.0,0.0
264,65.75,100.817,136.26,83.0654,99.0942,62.0202,0.0393176,1.77215,18.0511,924.717,4.53244,0.0,0.0
267,66.5,103.347,140.358,77.621,99.1096,64.0336,0.0411028,1.86468,17.8944,924.487,4.22496,0.0,0.0
270,67.25,105.914,144.337,73.5848,99.0942,61.7827,0.0431517,1.959,17.757,924.306,4.56955,0.0,0.0
273,68,108.28,148.719,89.9341,99.0824,63.4749,0.0452706,2.05196,17.6174,924.056,4.30706,0.0,0.0
276,68.75,110.817,153.141,65.939,99.0666,62.5992,0.0473397,2.15793,17.4743,923.846,4.43988,0.0,0.0
279,69.5,113.243,157.876,86.3689,99.0686,61.1547,0.0494241,2.25254,17.3089,923.596,4.66589,0.0,0.0
282,70.25,115.71,162.289,65.0246,99.0653,59.5177,0.0515171,2.35121,17.1699,923.376,4.928,0.0,0.0
285,71,118.532,166.735,76.2013,99.0629,60.4494,0.0536035,2.46108,16.9798,923.205,4.77751,0.0,0.0
288,71.75,121.119,171.087,68.6624,99.0499,63.1367,0.0560203,2.57519,16.7595,923.015,4.35556,0.0,0.0
291,72.5,123.843,176.238,68.8616,99.0422,60.8124,0.0584891,2.68888,16.5989,922.675,4.71759,0.0,0.0
294,73.25,126.901,181.064,79.1116,99.0438,60.6338,0.0605902,2.81607,16.4554,922.535,4.7462,0.0,0.0
297,74,129.7,187.282,59.1718,99.0304,60.1344,0.0621219,2.9337,16.3059,922.205,4.82488,0.0,0.0
300,74.75,132.724,191.478,86.91,99.013,61.0641,0.0643651,3.03007,16.1806,922.054,4.67478,0.0,0.0
303,75.5,134.887,196.845,68.5922,99.0369,59.9724,0.0667563,3.14643,16.0613,921.724,4.85161,0.0,0.0
306,76.25,138.333,200.887,67.4831,99.0073,63.0482,0.068971,3.23125,15.9172,921.344,4.36496,0.0,0.0
309,77,141.099,206.299,65.8749,99.0065,65.2832,0.0713165,3.3673,15.7317,921.174,4.02795,0.0,0.0
312,77.75,143.607,212.511,56.2645,98.9959,63.8111,0.0735084,3.49812,15.5076,920.863,4.24752,0.0,0.0
315,78.5,147.194,218.56,62.3494,98.9821,59.1965,0.0753118,3.65526,15.2511,920.503,4.9722,0.0,0.0
318,79.25,150.196,224.143,65.4887,98.987,60.2322,0.0771675,3.78643,15.0123,920.243,4.80491,0.0,0.0
321,80,152.924,229.083,76.8875,98.9715,62.4672,0.0787181,3.92871,14.7903,920.033,4.45101,0.0,0.0
324,80.75,156.308,234.936,82.3952,98.9671,60.8197,0.0799328,4.0636,14.5842,919.672,4.70909,0.0,0.0
327,81.5,158.773,239.808,68.0106,98.9423,63.9284,0.080794,4.19695,14.38,919.512,4.22452,0.0,0.0
330,82.25,162.391,245.316,58.8154,98.9476,64.6223,0.0813366,4.3257,14.2082,919.132,4.12062,0.0,0.0
333,83,165.038,251.268,66.3962,98.9399,63.9195,0.0816041,4.44798,14.0264,918.912,4.22563,0.0,0.0
336,83.75,168.615,257.142,46.7839,98.9232,64.2163,0.0817182,4.57563,13.7944,918.311,4.1792,0.0,0.0
339,84.5,171.113,262.043,63.5019,98.9078,62.0219,0.0817271,4.68511,13.7008,918.351,4.51398,0.0,0.0
342,85.25,174.619,268.246,77.3485,98.9123,67.1118,0.0817209,4.82564,13.4834,917.951,3.75155,0.0,0.0
345,86,177.125,273.692,70.3363,98.9041,65.2426,0.0817707,4.94612,13.2762,917.48,4.02397,0.0,0.0
348,86.75,180.346,278.856,54.6899,98.892,63.6706,0.081826,5.09673,13.0783,917.36,4.25868,0.0,0.0
351,87.5,183.702,284.96,56.579,98.8847,68.0501,0.0818745,5.19164,12.8894,916.82,3.61457,0.0,0.0
354,88.25,186.344,290.084,63.8583,98.9054,68.7309,0.0818285,5.32635,12.7107,916.48,3.5203,0.0,0.0
357,89,189.66,295.655,72.4154,98.8814,61.8558,0.0816533,5.46742,12.5103,916.119,4.53733,0.0,0.0
360,89.75,193.341,302.174,57.7361,98.8635,68.6347,0.0813426,5.63719,12.2588,915.819,3.52976,0.0,0.0
363,90.5,196.189,308.83,55.7371,98.8643,76.1249,0.0806442,5.80953,12.0136,915.479,2.52803,0.0,0.0
366,91.25,199.922,315.332,46.8365,98.8518,71.0309,0.0796845,5.95588,11.7749,915.048,3.19669,0.0,0.0
369,92,204.325,322.941,62.9325,98.8603,67.3469,0.0785763,6.10644,11.5433,914.708,3.71265,0.0,0.0
372,92.75,207.2,327.13,53.5427,98.8481,75.3657,0.0770815,6.25436,11.3179,914.268,2.62339,0.0,0.0
375,93.5,210.073,334.51,59.0276,98.8315,66.5954,0.076257,6.39545,11.1068,914.017,3.81836,0.0,0.0
378,94.25,214.228,341.937,56.995,98.8274,78.079,0.0753043,6.54229,10.9142,913.677,2.27927,0.0,0.0
381,95,217.151,347.52,39.0969,98.827,75.2593,0.0746015,6.68433,10.7577,913.147,2.63498,0.0,0.0
384,95.75,220.85,354.323,67.8869,98.8152,68.197,0.0741023,6.78788,10.6162,912.866,3.5869,0.0,0.0
387,96.5,223.809,358.19,32.6442,98.8022,73.4031,0.0737669,6.89731,10.5131,912.626,2.8741,0.0,0.0
390,97.25,226.259,363.735,55.9401,98.8051,69.3736,0.0735224,6.99752,10.3858,912.126,3.42047,0.0,0.0
393,98,228.82,367.914,52.5916,98.7974,73.9541,0.0733084,7.07927,10.278,911.725,2.8013,0.0,0.0
396,98.75,230.607,371.524,60.6129,98.803,79.7001,0.0731208,7.18642,10.1499,911.445,2.07812,0.0,0.0
399,99.5,233.303,375.65,69.976,98.7762,68.7273,0.0729512,7.2848,9.98287,910.865,3.50818,0.0,0.0
402,100.25,236.873,380.925,58.175,98.7701,75.8821,0.0727945,7.40647,9.77353,910.584,2.54971,0.0,0.0
405,101,239.317,385.796,56.4569,98.7653,77.7318,0.072487,7.52608,9.5813,910.244,2.31629,0.0,0.0
408,101.75,241.996,389.576,41.5623,98.7714,75.142,0.0723755,7.62973,9.42427,909.744,2.64463,0.0,0.0
411,102.5,244.204,394.281,68.1808,98.7689,76.3295,0.0718802,7.72131,9.30196,909.293,2.49273,0.0,0.0
414,103.25,246.949,398.529,64.1095,98.7531,73.3966,0.0713194,7.81166,9.19067,908.973,2.87015,0.0,0.0
417,104,248.997,401.213,62.2677,98.7645,74.5391,0.0708255,7.88758,9.0774,908.583,2.72187,0.0,0.0
420,104.75,251.311,405.683,44.4498,98.7649,73.2549,0.0703574,7.98259,8.94258,908.202,2.88999,0.0,0.0
423,105.5,253.822,411.237,53.6305,98.7604,75.1647,0.0700722,8.08771,8.79017,907.682,2.64063,0.0,0.0
426,106.25,256.721,415.285,45.9076,98.7596,78.6831,0.0699427,8.19674,8.62459,907.432,2.19809,0.0,0.0
429,107,258.458,418.447,38.7077,98.7653,83.7,0.0699417,8.29327,8.46786,906.931,1.60081,0.0,0.0
432,107.75,261.285,422.747,61.4777,98.7689,68.1024,0.0700564,8.37091,8.33533,906.711,3.5958,0.0,0.0
435,108.5,263.436,426.071,43.3011,98.7738,75.9418,0.07014,8.45133,8.23091,906.141,2.54246,0.0,0.0
438,109.25,265.177,427.425,74.3312,98.7714,74.5411,0.0701892,8.53281,8.11255,905.86,2.72228,0.0,0.0
441,110,266.555,430.001,59.4535,98.7807,71.9009,0.0700898,8.61213,7.99337,905.36,3.07199,0.0,0.0
444,110.75,268.75,433.709,56.6859,98.7937,74.1104,0.0698161,8.68733,7.88102,904.97,2.78052,0.0,0.0
447,111.5,270.274,436.103,49.4569,98.7892,79.9189,0.0693712,8.77694,7.75875,904.539,2.05025,0.0,0.0
450,112.25,272.149,438.777,63.6156,98.7961,74.6459,0.0686857,8.85943,7.61214,904.089,2.71112,0.0,0.0
453,113,274.272,442.367,39.6892,98.7953,75.2857,0.0679665,8.94894,7.47984,903.668,2.62849,0.0,0.0
456,113.75,276.879,447.569,30.8253,98.8095,84.0788,0.0673487,9.03849,7.38183,903.148,1.56147,0.0,0.0
459,114.5,279.559,450.708,39.6175,98.8282,83.9143,0.0666928,9.10055,7.31037,902.748,1.58223,0.0,0.0
462,115.25,281.518,451.789,46.8625,98.8181,75.3848,0.0662147,9.14442,7.25829,902.307,2.618,0.0,0.0
465,116,283.413,451.284,59.2222,98.8363,81.0955,0.0662569,9.1685,7.22031,901.987,1.91351,0.0,0.0
468,116.75,284.92,450.162,70.15,98.8505,73.5615,0.0668307,9.17378,7.19974,901.506,2.85799,0.0,0.0
471,117.5,286.736,450.034,47.0617,98.8599,76.0502,0.0679206,9.17763,7.19688,901.216,2.53709,0.0,0.0
474,118.25,288.141,447.494,42.4851,98.8717,82.553,0.0694678,9.12359,7.26374,900.836,1.74467,0.0,0.0
477,119,289.034,449.667,55.7005,98.8782,65.3092,0.0719534,9.08419,7.31247,900.466,4.01156,0.0,0.0
480,119.75,290.486,447.311,39.0412,98.8956,65.8504,0.0732238,8.9242,7.50414,900.015,3.93345,0.0,0.0
483,120.5,290.245,449.77,60.0649,98.911,66.4034,0.0761438,8.72358,7.79695,899.705,3.85408,0.0,0.0
486,121.25,290.488,449.904,47.5769,98.9094,60.2834,0.0793369,8.49186,8.20963,899.415,4.78912,0.0,0.0
489,122,289.378,449.085,75.0037,98.9334,55.7935,0.0818546,8.23804,8.64244,899.114,5.54008,0.0,0.0
492,122.75,289.197,451.41,65.004,98.9659,60.2854,0.0834333,8.01974,9.06285,898.814,4.79431,0.0,0.0
495,123.5,287.632,451.331,66.2428,98.9634,58.1373,0.0839021,7.65383,9.54869,898.684,5.14501,0.0,0.0
498,124.25,286.691,447.97,60.6969,98.9667,57.1524,0.0832646,7.19259,10.3131,898.424,5.31059,0.0,0.0
501,125,284.184,442.47,68.1174,98.9833,55.2819,0.08091,6.69098,11.0949,898.264,5.63405,0.0,0.0
504,125.75,282.309,435.555,76.8691,99.0101,59.7369,0.0772442,6.25481,11.7605,898.144,4.88704,0.0,0.0
507,126.5,279.269,427.176,76.3333,99.0142,61.0568,0.0726164,5.66147,12.7416,898.094,4.67606,0.0,0.0
510,127.25,275.209,418.78,90.1967,99.0235,66.6949,0.0671486,5.13239,13.5965,898.044,3.8227,0.0,0.0
513,128,271.147,408.25,97.6783,99.043,75.2995,0.0612934,4.58162,14.5784,897.993,2.65093,0.0,0.0
516,128.75,265.628,396.794,107.666,99.0536,84.4283,0.0553553,3.99404,15.4991,898.023,1.54519,0.0,0.0
519,129.5,259.839,384.763,109.73,99.0832,93.9282,0.0491843,3.49998,16.2545,898.044,0.516773,0.0,0.0
522,130.25,253.995,372.44,110.891,99.0925,96.5319,0.0433595,3.02744,16.9493,898.013,0.253226,0.0,0.0
525,131,246.97,360.898,111.161,99.082,97.5002,0.0381887,2.56763,17.6091,897.983,0.155659,0.0,0.0
528,131.75,241.03,349.397,110.962,99.1067,98.0166,0.0336119,2.19965,18.1658,897.953,0.106982,0.0,0.0
531,132.5,235.842,338.838,113.212,99.1161,98.3268,0.0294194,1.87535,18.6039,897.993,0.0773334,0.0,0.0
534,133.25,229.504,328.6,112.508,99.1165,98.5984,0.0259377,1.57459,19.0108,898.023,0.0506914,0.0,0.0
537,134,224.596,319.086,110.906,99.123,98.7981,0.0230455,1.34136,19.3427,898.044,0.0317512,0.0,0.0
540,134.75,220.071,310.762,108.585,99.1356,98.7064,0.0207326,1.14742,19.5996,898.054,0.0419658,0.0,0.0
543,135.5,215.355,301.914,111.51,99.1498,99.1477,0.018697,0.978126,19.8217,898.013,0.000205233,0.0,0.0
546,136.25,210.742,293.813,111.463,99.1461,99.0937,0.0170504,0.840411,19.9836,898.013,0.00511684,0.0,0.0
549,137,206.612,285.87,112.667,99.1547,99.1367,0.0155719,0.727799,20.1271,898.003,0.0017501,0.0,0.0
552,137.75,202.398,278.254,115.67,99.1819,99.2155,0.0141949,0.635235,20.246,898.023,-0.00327855,0.0,0.0
555,138.5,198.607,271.598,113.693,99.1746,99.2102,0.0130561,0.561358,20.346,898.034,-0.00347636,0.0,0.0
558,139.25,195.588,264.967,111.388,99.1733,99.1485,0.0121223,0.496561,20.431,898.034,0.00242216,0.0,0.0
561,140,191.493,258.595,110.243,99.2156,99.1566,0.0113626,0.444993,20.5097,898.013,0.00574833,0.0,0.0
564,140.75,188.345,252.81,114.789,99.2156,99.1501,0.0107341,0.399996,20.5727,898.013,0.00638208,0.0,0.0
567,141.5,185.577,246.56,113.09,99.2338,99.2845,0.0101985,0.360281,20.6211,897.973,-0.00493727,0.0,0.0
570,142.25,182.156,240.845,114.339,99.2387,99.1562,0.00978861,0.325478,20.6591,897.993,0.00804348,0.0,0.0
573,143,179.534,235.472,115.847,99.2152,99.3791,0.00948981,0.29826,20.6915,898.034,-0.0159685,0.0,0.0
576,143.75,176.053,230.68,111.736,99.2302,99.224,0.00919115,0.275261,20.7184,898.013,0.00060185,0.0,0.0
579,144.5,173.949,224.968,111.155,99.2346,99.3823,0.00892436,0.254739,20.7437,898.054,-0.0143858,0.0,0.0
582,145.25,171.623,221.295,111.165,99.2375,99.2926,0.0087049,0.239779,20.7658,898.044,-0.00537219,0.0,0.0
585,146,168.849,216.634,114.16,99.2363,99.1124,0.00851971,0.224995,20.7835,898.034,0.012084,0.0,0.0
588,146.75,166.609,212.728,113.295,99.2281,99.3763,0.00835672,0.212565,20.7992,898.013,-0.0144268,0.0,0.0
591,147.5,163.529,207.491,114.712,99.2346,99.1566,0.00820844,0.200451,20.8162,897.993,0.00760799,0.0,0.0
594,148.25,161.734,204.122,115.029,99.2391,99.0421,0.00805726,0.190634,20.8308,898.034,0.0192176,0.0,0.0
597,149,159.898,200.77,112.928,99.2334,99.3531,0.00793051,0.181791,20.8433,897.963,-0.0116599,0.0,0.0
600,149.75,158.225,197.092,111.401,99.2286,99.397,0.00780982,0.174028,20.8539,897.973,-0.0164016,0.0,0.0
603,150.5,156.789,193.587,111.004,99.2261,99.1294,0.0076741,0.167117,20.8624,898.013,0.00943044,0.0,0.0
606,151.25,153.963,189.945,110.799,99.2298,99.2199,0.00753633,0.160898,20.8697,898.023,0.000956947,0.0,0.0
609,152,152.446,187.199,115.131,99.2286,99.1172,0.00740427,0.154856,20.8769,898.023,0.0108564,0.0,0.0
612,152.75,150.99,184.031,116.324,99.2013,99.2882,0.00726867,0.14989,20.8831,898.034,-0.00845984,0.0,0.0
615,153.5,149.322,180.899,115.062,99.2058,99.2208,0.00719277,0.145309,20.8886,898.054,-0.00145808,0.0,0.0
618,154.25,147.682,178.537,113.83,99.2001,99.144,0.00709661,0.141016,20.8922,898.054,0.00547177,0.0,0.0
621,155,145.063,175.093,115.155,99.177,99.1201,0.00702472,0.137145,20.8969,898.003,0.00555243,0.0,0.0
624,155.75,144.267,172.179,117.303,99.1733,99.0827,0.00697496,0.133441,20.9005,898.013,0.00884066,0.0,0.0
627,156.5,142.738,170.581,111.249,99.1721,99.2005,0.00694319,0.130208,20.9043,897.983,-0.00276472,0.0,0.0
630,157.25,141.739,168.076,115.278,99.1587,98.8456,0.00692003,0.128005,20.9071,898.013,0.0305881,0.0,0.0
633,158,140.275,165.431,113.571,99.1417,99.0417,0.00689778,0.125179,20.9098,898.003,0.00975526,0.0,0.0
636,158.75,139.042,163.381,117.796,99.1149,98.9918,0.00687655,0.122637,20.912,898.013,0.0120184,0.0,0.0
639,159.5,137.661,160.339,111.943,99.1051,99.1887,0.00685169,0.120459,20.9139,898.013,-0.00815287,0.0,0.0
642,160.25,136.329,158.604,115.808,99.1039,99.0048,0.00682117,0.118316,20.916,898.003,0.00967924,0.0,0.0
645,161,135.097,157.113,116.465,99.0913,98.8809,0.00677928,0.116488,20.9184,898.034,0.0205558,0.0,0.0
648,161.75,135.109,155.237,114.06,99.0564,98.827,0.00674498,0.114699,20.9207,898.034,0.0224299,0.0,0.0
651,162.5,132.715,152.666,115.629,99.0564,99.0377,0.00672827,0.112966,20.9228,897.993,0.00182965,0.0,0.0
654,163.25,132.596,151.525,113.764,99.0617,98.7466,0.00673298,0.11143,20.9249,898.023,0.0308156,0.0,0.0
657,164,131.346,149.322,118.438,99.0272,98.7169,0.0067529,0.110057,20.9265,898.034,0.030349,0.0,0.0
660,164.75,130.173,148.154,115.644,99.0101,98.7364,0.0067956,0.108822,20.9283,898.044,0.0267737,0.0,0.0
663,165.5,129.2,146.106,112.485,98.9886,98.9727,0.00683567,0.107609,20.9295,898.044,0.00155297,0.0,0.0
666,166.25,128.333,144.664,114.558,98.9825,98.6223,0.00686488,0.106468,20.9305,898.044,0.0352591,0.0,0.0
669,167,127.607,143.464,115.891,98.9752,98.7713,0.00687299,0.105429,20.9308,898.044,0.0199426,0.0,0.0
672,167.75,127.061,141.648,115.353,98.9399,98.6325,0.00685634,0.104466,20.9305,898.013,0.0300961,0.0,0.0
675,168.5,126.231,140.497,116.201,98.9285,98.6114,0.0068192,0.103678,20.9308,898.044,0.0310547,0.0,0.0
678,169.25,125.412,139.246,113.287,98.9261,98.481,0.00679463,0.102966,20.9311,898.054,0.0436085,0.0,0.0
681,170,124.557,137.461,116.37,98.9151,98.4331,0.00678438,0.102215,20.9314,898.044,0.047243,0.0,0.0
684,170.75,123.962,136.176,115.556,98.8976,98.3426,0.00678818,0.101464,20.9316,897.993,0.0544355,0.0,0.0
687,171.5,123.061,134.842,115.174,98.8818,98.5086,0.00680215,0.100779,20.9317,898.023,0.0365698,0.0,0.0
690,172.25,121.722,133.976,113.483,98.8818,98.3247,0.00683151,0.100193,20.9324,897.983,0.0546442,0.0,0.0
693,173,121.262,132.951,116.302,98.8761,98.5622,0.00686006,0.0996446,20.9329,898.013,0.0307524,0.0,0.0
696,173.75,121.126,131.203,115.273,98.8717,98.3264,0.0068756,0.0991923,20.9333,898.044,0.0534919,0.0,0.0
699,174.5,120.312,130.266,116.14,98.9204,98.9081,0.0068779,0.0988044,20.9342,897.983,0.00119675,0.0,0.0
702,175.25,119.309,129.446,116.479,98.9841,98.7019,0.00684206,0.0984429,20.9349,898.023,0.0276165,0.0,0.0
705,176,118.651,128.423,116.711,99.0515,98.6053,0.0067934,0.0980449,20.9353,898.013,0.0436739,0.0,0.0
708,176.75,118.469,127.405,115.375,99.0954,98.5322,0.00674569,0.0976384,20.9357,898.044,0.0551257,0.0,0.0
711,177.5,117.7,125.526,119.829,99.1348,98.589,0.0067064,0.0973014,20.9366,898.064,0.053391,0.0,0.0
714,178.25,116.689,125.353,121.175,99.1928,98.5578,0.00667776,0.0970025,20.9372,898.044,0.0621211,0.0,0.0
717,179,116.27,124.009,117.698,99.2367,98.8257,0.00667814,0.0967236,20.9375,898.044,0.0401357,0.0,0.0
720,179.75,115.63,123.423,119.961,99.2866,98.6605,0.00667595,0.096404,20.9379,898.023,0.0611874,0.0,0.0
723,180.5,115.607,122.59,117.749,99.3154,98.6203,0.00666984,0.0961353,20.9388,898.044,0.0679369,0.0,0.0
726,181.25,114.037,121.563,115.676,99.3739,98.6909,0.00664754,0.0958783,20.9395,898.044,0.0667026,0.0,0.0
729,182,114.31,121.062,114.407,99.4182,98.805,0.00662878,0.095747,20.9399,898.044,0.0598354,0.0,0.0
732,182.75,113.763,119.76,121.054,99.4364,98.7989,0.00661667,0.0954791,20.9403,898.034,0.0622094,0.0,0.0
735,183.5,113.139,119.508,116.854,99.4576,98.5204,0.00661235,0.0952624,20.9412,898.003,0.0915658,0.0,0.0
738,184.25,112.755,118.687,115.557,99.4831,98.8485,0.0066142,0.0950677,20.9418,897.983,0.0619023,0.0,0.0
741,185,112.133,117.19,117.738,99.5124,98.8574,0.00661769,0.0948678,20.9423,898.003,0.0638692,0.0,0.0
744,185.75,111.39,117.125,117.128,99.5209,99.0332,0.00661898,0.0946406,20.9426,898.034,0.0475137,0.0,0.0
747,186.5,110.379,115.723,113.238,99.5465,99.181,0.00661188,0.094426,20.9431,897.993,0.0355773,0.0,0.0
750,187.25,111.012,115.513,116.827,99.5566,99.032,0.00659757,0.0942451,20.9438,897.993,0.0511043,0.0,0.0
753,188,110.05,115.063,114.035,99.5696,99.0929,0.00657701,0.094059,20.9443,898.023,0.0464214,0.0,0.0
756,188.75,109.49,114.258,118.373,99.5822,99.058,0.00655544,0.0939002,20.9447,898.044,0.0510527,0.0,0.0
759,189.5,108.844,113.693,117.48,99.5899,98.9159,0.00652846,0.0936877,20.945,897.983,0.0656857,0.0,0.0
762,190.25,108.066,112.275,117.549,99.5781,99.302,0.00650024,0.0935463,20.9452,897.983,0.0268623,0.0,0.0
765,191,108.367,112.68,115.313,99.6001,99.1469,0.00646504,0.0934348,20.9432,897.993,0.0441089,0.0,0.0
768,191.75,108.291,111.841,120.002,99.5899,98.9224,0.00643438,0.0933291,20.9417,898.034,0.0650512,0.0,0.0
771,192.5,107.484,110.802,113.029,99.5672,98.9922,0.0064099,0.093252,20.9406,898.013,0.0560176,0.0,0.0
774,193.25,106.777,110.578,117.002,99.566,99.1664,0.00638331,0.0931378,20.9401,898.013,0.0388956,0.0,0.0
777,194,105.933,109.074,117.462,99.5497,98.8046,0.00635145,0.0930403,20.9401,898.013,0.0726643,0.0,0.0
780,194.75,105.644,108.903,117.471,99.542,98.6337,0.0063245,0.0929448,20.94,898.003,0.088662,0.0,0.0
783,195.5,105.783,108.657,116.176,99.5071,98.6658,0.00629772,0.0928209,20.9405,898.034,0.0821236,0.0,0.0
786,196.25,105.51,108.03,123.048,99.4945,99.3819,0.00628445,0.0927075,20.941,898.073,0.0109485,0.0,0.0
789,197,105.31,107.235,116.474,99.4673,98.6966,0.00627743,0.0925861,20.9413,898.023,0.0752308,0.0,0.0
792,197.75,104.796,106.661,121.488,99.4393,99.2017,0.00628657,0.0924841,20.942,898.003,0.0231373,0.0,0.0
795,198.5,103.509,105.474,117.829,99.3958,98.6597,0.00630948,0.092404,20.9427,898.034,0.0719021,0.0,0.0
798,199.25,104.168,106.116,119.6,99.35,98.8911,0.00633311,0.0922875,20.9432,898.013,0.0447758,0.0,0.0
801,200,103.863,105.538,121.051,99.3118,98.9898,0.00635757,0.0921755,20.9442,898.003,0.0314133,0.0,0.0
804,200.75,103.446,105.056,121.924,99.274,98.7319,0.00638778,0.0920681,20.9449,897.983,0.0529587,0.0,0.0
807,201.5,103.207,104.692,118.6,99.2196,98.4611,0.00639911,0.0919653,20.9455,897.993,0.0742217,0.0,0.0
810,202.25,102.618,103.969,121.508,99.1579,98.6532,0.00639111,0.0918334,20.9459,898.023,0.0493574,0.0,0.0
813,203,102.238,103.704,121.997,99.1063,98.1246,0.00637376,0.0916396,20.9466,898.023,0.0962919,0.0,0.0
816,203.75,102.218,103.069,116.528,99.0507,98.3016,0.00635323,0.0914848,20.9473,898.034,0.0734287,0.0,0.0
819,204.5,102.192,102.671,117.595,98.9691,98.341,0.00633702,0.0913591,20.9478,898.013,0.0615815,0.0,0.0
822,205.25,101.384,102.2,116.629,98.883,98.1692,0.00632269,0.0912552,20.9482,898.003,0.0700719,0.0,0.0
825,206,101.108,101.871,117.225,98.855,98.2111,0.00630888,0.0911408,20.9484,897.993,0.0632117,0.0,0.0
828,206.75,100.496,101.784,115.921,98.8745,97.788,0.00629815,0.0910033,20.9486,898.003,0.106871,0.0,0.0
831,207.5,100.791,101.145,119.701,98.892,98.2683,0.0062892,0.0908799,20.9488,898.013,0.0611909,0.0,0.0
834,208.25,100.233,100.799,122.348,98.8952,97.9541,0.00628963,0.0907899,20.9493,898.034,0.0924863,0.0,0.0
837,209,99.3778,100.091,117.12,98.9212,98.3544,0.00629406,0.0906837,20.9497,898.094,0.0555809,0.0,0.0
840,209.75,99.7745,100.355,118.438,98.9419,98.7786,0.00630673,0.090589,20.9495,898.003,0.0159732,0.0,0.0
843,210.5,99.2172,99.4313,118.819,98.9659,98.2309,0.00632257,0.0905605,20.9495,897.983,0.0720909,0.0,0.0
846,211.25,99.0368,99.0929,117.773,98.9849,98.7226,0.0063435,0.0905582,20.9494,898.013,0.0256675,0.0,0.0
849,212,98.8577,99.5533,120.896,98.9959,98.127,0.00636326,0.0904974,20.9496,898.034,0.0852671,0.0,0.0
852,212.75,98.4305,98.5914,120.844,99.0341,98.4908,0.00636911,0.0903736,20.9501,897.963,0.0532052,0.0,0.0
855,213.5,98.1254,98.3173,121.548,99.0804,98.3373,0.00635875,0.0902984,20.9497,897.973,0.0728073,0.0,0.0
858,214.25,98.4229,97.7469,118.8,99.0921,98.289,0.0063328,0.0901728,20.9494,898.003,0.0787104,0.0,0.0
861,215,97.3955,97.3424,120.14,99.125,98.7368,0.0062824,0.0900813,20.9492,898.054,0.0379527,0.0,0.0
864,215.75,97.8086,96.9366,116.336,99.1595,98.9983,0.00621006,0.0900533,20.949,898.023,0.0157418,0.0,0.0
867,216.5,97.1158,97.1158,121.125,99.2083,98.9086,0.00614236,0.090047,20.9489,897.993,0.0292628,0.0,0.0
870,217.25,96.8918,96.8948,123.97,99.2164,98.06,0.00608794,0.0900669,20.9488,898.013,0.113389,0.0,0.0
873,218,97.1283,96.3097,121.79,99.2476,98.4993,0.00605051,0.0900137,20.9494,898.013,0.0732044,0.0,0.0
876,218.75,95.6296,96.0042,121.146,99.2781,98.4867,0.00604813,0.089946,20.9498,898.013,0.0774066,0.0,0.0
879,219.5,95.9036,95.3595,118.016,99.3215,98.3682,0.00606216,0.0898966,20.9501,898.003,0.093288,0.0,0.0
882,220.25,96.349,95.6589,116.414,99.3508,98.8749,0.00609935,0.0898414,20.9503,898.003,0.046442,0.0,0.0
885,221,95.3279,95.2159,120.795,99.3763,98.5103,0.00615146,0.0898011,20.9504,897.983,0.0846625,0.0,0.0
888,221.75,95.0256,95.0124,119.413,99.3788,98.5046,0.00620805,0.0897717,20.9505,898.003,0.085458,0.0,0.0
891,222.5,95.0868,94.6933,120.847,99.4259,98.8123,0.0062833,0.0897503,20.9506,897.993,0.0598709,0.0,0.0
894,223.25,94.6306,94.5407,117.672,99.4498,98.9638,0.00635768,0.089699,20.9507,897.983,0.0473887,0.0,0.0
897,224,93.5517,93.2717,120.513,99.4588,98.4279,0.00641641,0.0896008,20.9507,898.003,0.100777,0.0,0.0
900,224.75,93.7452,93.0764,117.88,99.4827,98.8505,0.00644421,0.0895434,20.9508,898.023,0.061664,0.0,0.0
903,225.5,94.0183,93.2126,120.906,99.501,99.1274,0.00644557,0.089468,20.9508,898.013,0.036386,0.0,0.0
906,226.25,94.2503,92.9717,118.537,99.5172,98.8834,0.00642519,0.0894516,20.9508,897.973,0.0618015,0.0,0.0
909,227,93.5638,92.5638,117.073,99.5335,98.7949,0.0063836,0.0894126,20.9508,897.993,0.0720406,0.0,0.0
912,227.75,93.1031,93.0604,120.9,99.5432,99.0364,0.00635328,0.0893727,20.9508,898.023,0.0493677,0.0,0.0
915,228.5,93.2948,92.1609,120.285,99.555,98.9475,0.0063187,0.089247,20.9508,898.003,0.0591982,0.0,0.0
918,229.25,92.804,92.4167,120.095,99.5656,99.1919,0.00629475,0.0891283,20.9515,898.003,0.0363631,0.0,0.0
921,230,93.0721,91.7985,123.243,99.5765,98.6755,0.00627781,0.0890302,20.9519,897.983,0.0879148,0.0,0.0
924,230.75,93.0193,91.5206,120.554,99.5639,98.8862,0.006276,0.0889973,20.9523,897.993,0.0660601,0.0,0.0
927,231.5,92.196,91.6558,117.93,99.5708,98.9816,0.00627467,0.0889876,20.9523,898.003,0.0574035,0.0,0.0
930,232.25,92.2813,90.9139,119.72,99.5785,99.7733,0.00630222,0.0890049,20.9523,898.013,-0.0189006,0.0,0.0
933,233,92.0176,91.4981,119.526,99.5692,99.131,0.00634727,0.0889769,20.9523,898.013,0.0426581,0.0,0.0
936,233.75,91.822,90.8462,121.444,99.5562,99.2813,0.00638801,0.0889392,20.9523,898.003,0.0267496,0.0,0.0
939,234.5,91.3605,90.2834,118.672,99.5656,99.0409,0.00643121,0.0888911,20.9523,898.003,0.0510997,0.0,0.0
942,235.25,91.4787,90.0735,120.925,99.553,99.2297,0.00646271,0.088856,20.9523,898.013,0.0314593,0.0,0.0
945,236,91.2937,89.771,118.875,99.5347,99.224,0.00649693,0.0888304,20.9523,898.013,0.0302375,0.0,0.0
948,236.75,91.033,90.1811,120.574,99.5046,99.6162,0.00652075,0.0888118,20.9518,898.034,-0.0108374,0.0,0.0
951,237.5,90.7991,89.662,117.011,99.4892,99.7193,0.00652798,0.0887847,20.9512,898.023,-0.0223439,0.0,0.0
954,238.25,90.4915,89.378,120.092,99.486,98.8432,0.00649758,0.0887592,20.9508,897.973,0.0626951,0.0,0.0
957,239,90.5276,89.0198,120.193,99.4665,99.6621,,0.0887405,,898.003,-0.0190012,0.0,0.0
960,239.75,90.0361,89.2595,122.805,99.4239,99.1733,,0.0888042,,897.983,0.0244083,0.0,0.0
963,240.5,90.1823,88.7718,120.967,99.391,98.9739,,0.0888506,,897.973,0.0406696,0.0,0.0
966,241.25,89.6065,87.9405,117.845,99.38,99.2179,,0.0889058,,897.943,0.0157867,0.0,0.0
969,242,89.4376,88.1819,123.671,99.337,99.8095,,,,897.923,-0.0458963,0.0,0.0
972,242.75,88.7491,88.0052,119.801,99.298,99.2419,,,,897.973,0.00546716,0.0,0.0
975,243.5,88.7372,87.9095,119.803,99.2692,99.7364,,,,897.963,-0.0454155,0.0,0.0
978,244.25,88.7432,87.454,121.796,99.235,99.049,,,,898.013,0.0181474,0.0,0.0
981,245,88.185,87.5058,118.585,99.2107,99.5581,,,,898.034,-0.0338144,0.0,0.0
984,245.75,88.2933,87.0366,119.712,99.1441,99.5196,,,,898.013,-0.036561,0.0,0.0
987,246.5,88.0119,87.1285,123.411,99.1051,99.1741,,,,898.023,-0.00672724,0.0,0.0
990,247.25,87.4837,86.5975,119.919,99.0649,99.06,,,,898.013,0.000481944,0.0,0.0
993,248,88.1517,86.3969,121.735,99.058,99.3393,,,,898.023,-0.0274262,0.0,0.0
996,248.75,87.7247,86.3434,121.43,98.9691,99.4769,,,,898.064,-0.0495039,0.0,0.0
999,249.5,86.9166,85.691,118.96,98.9228,98.7819,,,,897.993,0.0137893,0.0,0.0
1000,249.75,86.5413,85.3408,118.229,98.9175,98.3223,,,,898.013,0.0583777,0.0,0.0