File: 01_Data/HDPE/Cone/HDPE_Cone_HF50Scan_220131_R4.csv
Names,Time,Stack TC,Smoke TC,Exh Press,Smoke Comp,Smoke Meas,CO Meter,CO2 Meter,O2 Meter,Sample Mass,Ext Coeff,Start Test,Flame Verif
Chan Gain,,500,500,1,1,1,1,1,1,1,1,1.0,1.0
Offset,,0,0,0.14021,0,0,0,0,0,0,0,0.0,0.0
Gain,,1,1,25.011,13.3046,13.3037,1,1,1,1.00087,1.10262,1.0,1.0
Units,sec,C,C,Pa,%,%,%,%,%,g,/m,,
Baseline,,27.5863,30.5278,161.49,98.3104,103.687,0.00608027,0.0795164,20.9542,-0.185704,-0.514926,,
3,0.5,24.8286,27.33,162.058,97.3259,102.719,0.00572483,0.0829661,20.9515,930.672,-0.521616,0.0,0.0
6,1.25,25.1407,27.1909,164.333,97.3393,102.52,0.00566644,0.0830907,20.9515,930.532,-0.501534,0.0,0.0
9,2,25.1642,27.1705,160.509,97.3584,102.354,0.00560894,0.0832971,20.9515,930.532,-0.48396,0.0,0.0
12,2.75,24.9839,26.8063,163.941,97.3966,102.187,0.00555607,0.0834618,20.9514,930.542,-0.464388,0.0,0.0
15,3.5,25.013,27.1534,163.885,97.4246,102.272,0.00550904,0.0836062,20.9512,930.592,-0.469673,0.0,0.0
18,4.25,24.8128,27.0952,164.019,97.4412,102.205,0.00547364,0.0837109,20.951,930.642,-0.461682,0.0,0.0
21,5,25.0975,27.5363,161.523,97.4587,102.368,0.00544429,0.0837865,20.9509,930.602,-0.475306,0.0,0.0
24,5.75,25.2896,27.8436,159.614,97.4896,101.858,0.00542354,0.0838031,20.9509,930.622,-0.423943,0.0,0.0
27,6.5,24.981,27.6712,162.355,97.5224,102.092,0.00540954,0.0837612,20.9508,930.602,-0.442939,0.0,0.0
30,7.25,25.667,27.9596,164.231,97.546,102.379,0.00541301,0.0836792,20.9508,930.612,-0.467759,0.0,0.0
33,8,25.5061,27.1546,159.612,97.5574,102.519,0.00542727,0.0835708,20.9508,930.602,-0.479778,0.0,0.0
36,8.75,25.4534,27.8626,158.065,97.5862,102.079,0.00544774,0.0834533,20.9514,930.622,-0.435349,0.0,0.0
39,9.5,25.5225,27.6455,165.849,97.6203,102.558,0.00546621,0.0833179,20.9518,930.602,-0.477218,0.0,0.0
42,10.25,25.2953,28.1351,161.567,97.6406,102.798,0.00547096,0.0831341,20.9521,930.562,-0.497808,0.0,0.0
45,11,25.485,28.1453,162.625,97.6576,102.866,0.00547072,0.0829462,20.9524,930.562,-0.502534,0.0,0.0
48,11.75,25.395,27.9656,162.382,97.6804,103.031,0.00545702,0.082772,20.9525,930.592,-0.51577,0.0,0.0
51,12.5,25.4313,27.6836,162.835,97.7165,102.508,0.00544251,0.0826207,20.9526,930.592,-0.463015,0.0,0.0
54,13.25,25.6331,28.2618,159.149,97.7384,103.221,0.00543416,0.0824527,20.9529,930.572,-0.527919,0.0,0.0
57,14,25.7033,28.3209,164.244,97.7624,102.654,0.00544118,0.0823023,20.9532,930.612,-0.472218,0.0,0.0
60,14.75,25.7499,28.1747,161.789,97.7847,102.556,0.00546869,0.0821919,20.9534,930.612,-0.460786,0.0,0.0
63,15.5,25.3199,28.4354,162.383,97.8148,102.429,0.00550119,0.0820509,20.9535,930.592,-0.445861,0.0,0.0
66,16.25,25.7807,28.2102,160.015,97.8335,103.23,0.00554617,0.0819636,20.9537,930.592,-0.519359,0.0,0.0
69,17,25.9337,28.4354,162.117,97.8651,102.756,0.00558519,0.0819365,20.9536,930.592,-0.471695,0.0,0.0
72,17.75,25.728,28.4705,164.082,97.8594,103.093,0.00562023,0.0819167,20.9531,930.592,-0.503886,0.0,0.0
75,18.5,25.7364,28.4327,162.252,97.9045,102.691,0.00565249,0.0819022,20.9528,930.592,-0.461687,0.0,0.0
78,19.25,25.353,28.4351,162.909,97.9362,102.673,0.00568845,0.0818988,20.9525,930.522,-0.456877,0.0,0.0
81,20,25.4082,28.5055,161.1,97.9467,102.713,0.00571592,0.0819084,20.9523,930.522,-0.459544,0.0,0.0
84,20.75,25.947,28.4827,163.767,97.9561,102.923,0.00573647,0.0819347,20.9522,930.532,-0.478405,0.0,0.0
87,21.5,26.1068,28.9345,166.42,98.0032,102.749,0.00573152,0.0819965,20.9519,930.532,-0.457374,0.0,0.0
90,22.25,25.4524,28.5849,159.509,98.0097,102.75,0.00571941,0.0821286,20.9513,930.522,-0.456848,0.0,0.0
93,23,25.9571,28.6197,168.767,98.0235,103.211,0.00566264,0.0822491,20.9508,930.522,-0.498765,0.0,0.0
96,23.75,26.1241,29.0466,162.352,98.0365,102.694,0.00559887,0.0823101,20.9505,930.492,-0.448928,0.0,0.0
99,24.5,26.3384,28.8663,162.831,98.0653,102.789,0.00554087,0.082343,20.9502,930.502,-0.455066,0.0,0.0
102,25.25,26.112,28.8375,162.064,98.0868,103.197,0.00549522,0.0824479,20.95,930.502,-0.491185,0.0,0.0
105,26,26.2787,28.2538,160.913,98.0974,102.794,0.00548061,0.0826087,20.9499,930.512,-0.452323,0.0,0.0
108,26.75,26.1496,28.3331,161.995,98.1152,103.184,0.00549429,0.0828109,20.9498,930.532,-0.487203,0.0,0.0
111,27.5,26.2266,28.3798,165.289,98.1299,103.242,0.00553226,0.0830934,20.9497,930.542,-0.491165,0.0,0.0
114,28.25,26.1398,28.0912,165.036,98.1664,103.452,0.00557961,0.0834208,20.9497,930.532,-0.507208,0.0,0.0
117,29,26.0087,28.4771,165.108,98.1688,103.78,0.00564777,0.0837689,20.9484,930.522,-0.537665,0.0,0.0
120,29.75,25.8998,28.8771,161.483,98.1794,103.555,0.00572057,0.0841173,20.9475,930.522,-0.515602,0.0,0.0
123,30.5,26.1791,28.9043,160.128,98.1968,103.278,0.00577863,0.0844115,20.9468,930.532,-0.487948,0.0,0.0
126,31.25,26.1297,28.5976,159.182,98.2293,103.259,0.00582308,0.0848188,20.9463,930.512,-0.482963,0.0,0.0
129,32,26.3125,28.5574,159.494,98.2261,103.379,0.00584837,0.0851562,20.9459,930.512,-0.494532,0.0,0.0
132,32.75,26.4087,28.7333,159.583,98.2431,103.053,0.00585185,0.0854124,20.9457,930.482,-0.462342,0.0,0.0
135,33.5,25.8186,28.6092,160.652,98.2634,103.021,0.005848,0.085587,20.9449,930.452,-0.457332,0.0,0.0
138,34.25,26.1228,29.2379,158.876,98.2858,103.48,0.00582387,0.0856872,20.9447,930.522,-0.49811,0.0,0.0
141,35,25.8484,28.9418,159.426,98.3089,102.843,0.00580694,0.0857416,20.9448,930.482,-0.436148,0.0,0.0
144,35.75,26.1813,29.1413,161.354,98.304,103.308,0.00579571,0.0857692,20.9448,930.462,-0.480209,0.0,0.0
147,36.5,26.1969,29.0772,160.703,98.3251,103.508,0.00579109,0.0856811,20.9449,930.482,-0.496816,0.0,0.0
150,37.25,25.9355,29.2297,160.396,98.3503,103.616,0.00579493,0.0855708,20.9449,930.492,-0.504465,0.0,0.0
153,38,26.2632,29.0365,158.898,98.3564,102.756,0.00581007,0.0854905,20.9449,930.502,-0.423262,0.0,0.0
156,38.75,25.928,28.8913,158.576,98.3621,102.699,0.00583948,0.0853963,20.9449,930.492,-0.417351,0.0,0.0
159,39.5,26.1316,29.2688,160.76,98.3767,103.075,0.00589235,0.0852668,20.945,930.472,-0.451256,0.0,0.0
162,40.25,26.5016,28.9959,161.786,98.3954,103.154,0.0059754,0.0850761,20.9451,930.512,-0.456808,0.0,0.0
165,41,26.2788,29.0609,161.266,98.4323,102.357,0.00606842,0.0849371,20.9452,930.472,-0.37816,0.0,0.0
168,41.75,26.3465,28.6889,162.596,98.4181,102.293,0.00615008,0.0846432,20.9452,930.452,-0.373494,0.0,0.0
171,42.5,26.2907,29.1812,164.73,98.4218,102.277,0.0062684,0.0844154,20.9452,930.462,-0.371599,0.0,0.0
174,43.25,26.0624,28.4671,160.678,98.4409,102.197,0.00637971,0.0842791,20.9452,930.442,-0.362157,0.0,0.0
177,44,25.995,28.9851,160.713,98.462,102.092,0.00649423,0.0842405,20.9453,930.432,-0.350164,0.0,0.0
180,44.75,26.4552,28.8264,161.9,98.4522,101.52,0.00666418,0.0841988,20.9453,930.452,-0.296813,0.0,0.0
183,45.5,26.2217,28.9133,158.268,98.4656,101.79,0.00689215,0.0841627,20.9447,930.462,-0.321185,0.0,0.0
186,46.25,25.9002,29.1612,159.228,98.4689,101.473,0.00712623,0.0840689,20.9436,930.442,-0.290651,0.0,0.0
189,47,26.4931,29.4731,160.12,98.4859,100.82,0.0073867,0.0840007,20.9428,930.452,-0.226587,0.0,0.0
192,47.75,26.4828,29.0428,163.389,98.4961,100.633,0.00764345,0.0838642,20.9422,930.472,-0.207579,0.0,0.0
195,48.5,26.1116,29.5346,158.727,98.4802,100.482,0.00785912,0.0836972,20.9418,930.442,-0.194646,0.0,0.0
198,49.25,26.3611,29.2598,159.941,98.4904,100.018,0.00809979,0.0835467,20.9411,930.452,-0.148877,0.0,0.0
201,50,26.3025,29.1252,166.191,98.5135,99.7124,0.00832413,0.083437,20.9404,930.422,-0.116996,0.0,0.0
204,50.75,26.6371,29.8993,162.874,98.5115,99.4234,0.00851046,0.0838,20.9386,930.502,-0.0891151,0.0,0.0
207,51.5,26.407,29.8558,159.66,98.5152,98.5115,0.00861921,0.0853093,20.9342,930.402,0.000360884,0.0,0.0
210,52.25,26.229,29.4969,159.862,98.507,102.591,0.00865042,0.0869402,20.927,930.412,-0.392933,0.0,1.0
213,53,26.9173,30.4118,159.278,98.5342,103.575,0.00865268,0.0910163,20.917,930.422,-0.482526,0.0,1.0
216,53.75,27.3431,29.8664,156.911,98.5444,103.468,0.00854607,0.0960363,20.9041,930.322,-0.471554,0.0,1.0
219,54.5,27.0443,30.6082,158.056,98.5233,103.586,0.00838014,0.101784,20.8928,930.282,-0.484664,0.0,1.0
222,55.25,27.3653,30.9161,151.14,98.5318,103.171,0.00822157,0.108051,20.8813,930.302,-0.444968,0.0,1.0
225,56,28.1289,31.3763,156.319,98.5407,103.401,0.00804058,0.115164,20.8705,930.252,-0.465686,0.0,1.0
228,56.75,27.9406,31.8649,153.394,98.5347,103.816,0.00788075,0.122585,20.8588,930.222,-0.504981,0.0,1.0
231,57.5,27.8254,32.2169,156.592,98.531,103.96,0.00773916,0.129963,20.8467,930.232,-0.518796,0.0,0.0
234,58.25,28.1575,32.7898,151.23,98.5306,104.17,0.00761961,0.136849,20.8349,930.272,-0.538344,0.0,0.0
237,59,28.834,33.3191,155.729,98.5338,103.329,0.00751559,0.144445,20.8234,930.192,-0.459563,0.0,0.0
240,59.75,28.9748,34.0669,154.319,98.5391,103.144,0.00742282,0.152232,20.8089,930.212,-0.441738,0.0,0.0
243,60.5,29.2131,33.615,155.12,98.5172,103.388,0.00731224,0.159797,20.7983,930.182,-0.466783,0.0,0.0
246,61.25,29.4268,35.0956,152.305,98.5127,103.405,0.00723164,0.166901,20.7868,930.152,-0.46874,0.0,0.0
249,62,29.8301,35.5561,152.365,98.5095,102.859,0.0071264,0.174593,20.7761,930.142,-0.417885,0.0,0.0
252,62.75,30.0696,35.596,146.837,98.5347,102.891,0.00704968,0.181914,20.7673,930.152,-0.418391,0.0,0.0
255,63.5,30.5901,36.2217,156.06,98.501,102.846,0.00697232,0.187981,20.7587,930.101,-0.417501,0.0,0.0
258,64.25,31.311,36.8172,149.839,98.4839,102.098,0.00692605,0.194186,20.7485,930.081,-0.348588,0.0,0.0
261,65,31.8273,37.622,154.92,98.4782,101.762,0.00689665,0.201756,20.7359,930.081,-0.317248,0.0,0.0
264,65.75,32.1268,38.3512,154.675,98.4729,100.645,0.00693241,0.211379,20.7199,930.031,-0.211023,0.0,0.0
267,66.5,33.0694,38.8768,150.986,98.4681,98.2167,0.00701244,0.218395,20.7008,930.031,0.0247188,0.0,0.0
270,67.25,33.033,39.401,147.194,98.4401,95.9273,0.00712885,0.229213,20.6762,929.981,0.250091,0.0,0.0
273,68,33.2819,40.3217,148.37,98.436,96.6338,0.00727366,0.240231,20.6536,929.971,0.178725,0.0,0.0
276,68.75,33.9331,41.4276,146.567,98.4425,94.3919,0.00748339,0.250934,20.6308,929.921,0.4064,0.0,0.0
279,69.5,34.3673,42.0575,147.53,98.4218,95.0057,0.00769939,0.261022,20.6142,929.831,0.341668,0.0,0.0
282,70.25,35.2826,42.5406,148.403,98.4072,94.905,0.00796479,0.271679,20.5972,929.821,0.350487,0.0,0.0
285,71,35.3473,43.593,149.229,98.3962,92.9737,0.00827379,0.281847,20.5799,929.811,0.548267,0.0,0.0
288,71.75,36.7223,44.547,145.309,98.4088,94.0443,0.0085815,0.29172,20.5632,929.721,0.438764,0.0,0.0
291,72.5,36.8141,45.2537,147.993,98.38,93.0078,0.00887574,0.301378,20.5475,929.711,0.543123,0.0,0.0
294,73.25,37.2788,46.1613,156.28,98.3495,90.2312,0.00914971,0.309821,20.528,929.681,0.833273,0.0,0.0
297,74,37.698,47.0482,146.466,98.3438,89.7607,0.00942455,0.318376,20.5107,929.611,0.883285,0.0,0.0
300,74.75,38.1434,47.8866,141.47,98.3361,89.8674,0.00969378,0.328544,20.493,929.581,0.871027,0.0,0.0
303,75.5,39.1355,48.2142,146.668,98.3227,89.3238,0.00995306,0.338806,20.4752,929.551,0.928396,0.0,0.0
306,76.25,39.3964,49.2959,141.434,98.3085,88.7152,0.0102053,0.349112,20.4601,929.421,0.993122,0.0,0.0
309,77,40.0582,50.4277,143.345,98.2882,88.174,0.0104974,0.359379,20.4403,929.411,1.05031,0.0,0.0
312,77.75,40.7707,51.2448,139.454,98.2748,84.7759,0.0108365,0.372647,20.4172,929.361,1.42912,0.0,0.0
315,78.5,41.4774,52.1394,140.786,98.2594,85.0296,0.0111929,0.382319,20.3917,929.331,1.39869,0.0,0.0
318,79.25,42.1338,53.0545,142.374,98.2391,85.6439,0.0115563,0.397102,20.3649,929.231,1.32707,0.0,0.0
321,80,42.721,54.6606,139.83,98.2127,86.777,0.0119186,0.410643,20.3273,929.201,1.19735,0.0,0.0
324,80.75,43.626,56.0761,136.415,98.194,83.1068,0.0123284,0.425243,20.2903,929.151,1.61349,0.0,0.0
327,81.5,44.1239,56.735,133.943,98.1908,82.8547,0.0127216,0.442899,20.2551,929,1.64255,0.0,0.0
330,82.25,44.8105,57.6714,141.014,98.1826,83.1056,0.0130486,0.462602,20.2223,928.98,1.61251,0.0,0.0
333,83,46.6383,59.7922,141.384,98.1554,80.3988,0.0134182,0.479646,20.1985,928.89,1.93009,0.0,0.0
336,83.75,46.7771,60.7839,136.225,98.1408,80.5137,0.0137436,0.496654,20.1714,928.9,1.91484,0.0,0.0
339,84.5,47.9327,62.4033,128.612,98.1372,82.0593,0.01407,0.51621,20.1476,928.73,1.73057,0.0,0.0
342,85.25,48.7722,63.8024,133.384,98.1234,80.6274,0.0144605,0.534001,20.1197,928.71,1.89947,0.0,0.0
345,86,50.1172,65.1275,126.051,98.0941,77.6693,0.0148866,0.553015,20.0942,928.6,2.25812,0.0,0.0
348,86.75,50.5568,67.0012,123.577,98.075,77.5605,0.0153238,0.566876,20.067,928.54,2.2698,0.0,0.0
351,87.5,52.3257,68.9341,131.566,98.0673,75.4319,0.015756,0.592024,20.0223,928.43,2.53819,0.0,0.0
354,88.25,52.4678,70.19,129.35,98.0413,76.0319,0.0162401,0.617943,19.97,928.36,2.45899,0.0,0.0
357,89,54.0438,72.4162,124.557,98.0336,76.6133,0.016712,0.64007,19.9159,928.24,2.38456,0.0,0.0
360,89.75,55.2586,73.9549,128.107,98.0048,73.3357,0.0171067,0.66921,19.8635,928.18,2.80461,0.0,0.0
363,90.5,56.7058,76.0841,132.503,98.0145,73.7076,0.0175854,0.698754,19.8158,928.02,2.75664,0.0,0.0
366,91.25,57.7379,78.1525,117.032,97.9983,73.706,0.0180977,0.72383,19.7649,927.95,2.75525,0.0,0.0
369,92,58.1655,79.8375,119.63,97.9849,72.0629,0.0186115,0.754443,19.7048,927.799,2.97198,0.0,0.0
372,92.75,60.5703,81.8204,126.311,97.9719,70.9306,0.0191451,0.782874,19.6417,927.709,3.12388,0.0,0.0
375,93.5,61.9806,84.4647,109.484,97.9618,71.3277,0.019767,0.814057,19.5876,927.559,3.06889,0.0,0.0
378,94.25,63.1606,86.8581,122.192,97.9471,70.6334,0.0203858,0.847939,19.5188,927.509,3.16205,0.0,0.0
381,95,64.9595,89.7442,111.271,97.9293,70.0212,0.0209994,0.88236,19.4503,927.329,3.24449,0.0,0.0
384,95.75,66.4898,92.1577,118.166,97.9126,70.6387,0.0216784,0.915948,19.3925,927.189,3.15792,0.0,0.0
387,96.5,67.485,94.135,119.123,97.913,67.3863,0.022272,0.954555,19.3279,927.169,3.61387,0.0,0.0
390,97.25,69.6358,97.873,112.616,97.9061,71.3346,0.0228828,0.990849,19.2809,926.929,3.06246,0.0,0.0
393,98,70.9234,100.455,111.137,97.9126,69.9615,0.0236324,1.02668,19.2297,926.819,3.25109,0.0,0.0
396,98.75,73.0143,102.624,119.13,97.8789,70.657,0.0244606,1.0629,19.1746,926.709,3.15209,0.0,0.0
399,99.5,74.7385,105.389,117.159,97.8907,70.3618,0.0252326,1.0966,19.1145,926.618,3.19374,0.0,0.0
402,100.25,76.3932,108,104.689,97.8749,65.6494,0.0259427,1.13363,19.0498,926.438,3.86266,0.0,0.0
405,101,78.1658,111.155,106.612,97.8598,67.2868,0.0265899,1.17204,18.9747,926.338,3.6229,0.0,0.0
408,101.75,79.7605,113.552,112.873,97.8391,66.4155,0.0272616,1.20998,18.9006,926.048,3.74691,0.0,0.0
411,102.5,80.7621,116.063,111.297,97.8444,67.4297,0.0279072,1.24632,18.8295,926.018,3.60086,0.0,0.0
414,103.25,82.9474,119.29,106.683,97.8379,65.6409,0.0284443,1.28368,18.7623,925.828,3.86027,0.0,0.0
417,104,84.6583,122.021,111.497,97.8765,64.928,0.0291201,1.32577,18.7041,925.708,3.9697,0.0,0.0
420,104.75,86.6482,124.767,100.37,97.8903,65.2325,0.0298657,1.36082,18.646,925.487,3.92581,0.0,0.0
423,105.5,88.1712,127.078,106.684,97.9228,67.655,0.030405,1.40367,18.5979,925.367,3.57633,0.0,0.0
426,106.25,90.2196,130.542,114.825,97.9735,64.5122,0.0313115,1.44146,18.5423,925.167,4.04142,0.0,0.0
429,107,91.8399,133.709,103.12,97.995,67.8227,0.0320931,1.48023,18.4917,924.997,3.55953,0.0,0.0
432,107.75,93.811,136.737,109.949,98.0259,63.0096,0.0328281,1.52231,18.4375,924.807,4.27453,0.0,0.0
435,108.5,95.6632,139.697,107.903,98.0507,64.9028,0.0336464,1.54795,18.3679,924.707,3.99065,0.0,0.0
438,109.25,97.1264,142.926,105.938,98.0848,65.2832,0.0344598,1.59505,18.3061,924.477,3.93749,0.0,0.0
441,110,99.113,146.114,93.2925,98.116,63.5772,0.0351947,1.62939,18.2421,924.336,4.19668,0.0,0.0
444,110.75,101.259,149.024,94.2023,98.1388,66.3571,0.0359729,1.6705,18.1724,924.046,3.78501,0.0,0.0
447,111.5,103.332,152.023,108.465,98.1497,62.4551,0.0367881,1.71311,18.1216,923.906,4.37225,0.0,0.0
450,112.25,104.5,154.306,100.186,98.1891,64.4302,0.0378061,1.75408,18.0466,923.696,4.07498,0.0,0.0
453,113,106.263,156.661,89.3372,98.2216,63.1708,0.0390168,1.80736,17.9638,923.506,4.26911,0.0,0.0
456,113.75,108.385,159.611,84.3164,98.2565,63.5581,0.0401932,1.85555,17.8771,923.266,4.21343,0.0,0.0
459,114.5,110.12,163.154,93.6329,98.263,64.7704,0.0413153,1.90666,17.7891,923.125,4.03132,0.0,0.0
462,115.25,112.294,166.113,103.606,98.289,64.9994,0.0423714,1.96071,17.6838,922.975,3.99974,0.0,0.0
465,116,114.701,170.062,92.9865,98.3158,65.8703,0.0435934,2.01377,17.5966,922.655,3.87365,0.0,0.0
468,116.75,116.912,173.408,108.274,98.3414,63.1526,0.0444843,2.06354,17.5154,922.415,4.2837,0.0,0.0
471,117.5,118.623,176.325,104.095,98.3601,63.2041,0.045851,2.11729,17.4387,922.295,4.27764,0.0,0.0
474,118.25,120.267,179.648,98.9644,98.397,63.3109,0.0471026,2.16734,17.3753,922.084,4.26495,0.0,0.0
477,119,121.979,182.498,94.1321,98.4015,63.4205,0.0484517,2.20845,17.305,921.924,4.24865,0.0,0.0
480,119.75,124.066,186.069,86.4253,98.4336,61.7661,0.0499116,2.25784,17.2345,921.704,4.50747,0.0,0.0
483,120.5,126.333,189.117,99.5209,98.4368,65.5167,0.0513046,2.29385,17.1593,921.544,3.93761,0.0,0.0
486,121.25,127.988,192.967,85.9094,98.4384,64.9154,0.0526336,2.3493,17.0777,921.104,4.02695,0.0,0.0
489,122,130.033,195.945,101.26,98.4774,63.263,0.053899,2.39953,16.9658,920.963,4.28017,0.0,0.0
492,122.75,131.958,199.446,90.5852,98.4701,61.9228,0.0553917,2.4529,16.8619,920.793,4.48655,0.0,0.0
495,123.5,133.386,202.244,86.8673,98.4965,63.1164,0.056872,2.51238,16.7645,920.583,4.30447,0.0,0.0
498,124.25,136.22,206.081,86.965,98.4961,64.634,0.0581182,2.56945,16.6726,920.303,4.07462,0.0,0.0
501,125,137.975,209.706,104.867,98.5225,64.5435,0.0594881,2.62497,16.5937,920.033,4.09077,0.0,0.0
504,125.75,139.777,213.469,95.5091,98.5249,64.0157,0.0608544,2.67924,16.5157,919.833,4.17043,0.0,0.0
507,126.5,142.237,216.708,93.1063,98.5485,60.9147,0.0621426,2.74082,16.4201,919.562,4.653,0.0,0.0
510,127.25,143.639,219.892,98.0493,98.5477,64.1761,0.0634348,2.80681,16.3371,919.412,4.14846,0.0,0.0
513,128,146.778,224.219,97.8539,98.5651,62.9589,0.0647154,2.86391,16.2538,919.042,4.33538,0.0,0.0
516,128.75,148.625,227.619,96.5937,98.5769,63.3848,0.0659707,2.94147,16.1276,918.832,4.27133,0.0,0.0
519,129.5,150.529,230.637,83.9477,98.5822,63.2829,0.067226,3.01204,16.0355,918.672,4.28741,0.0,0.0
522,130.25,152.546,234.504,79.4933,98.5911,66.5365,0.0679692,3.08745,15.9643,918.281,3.80336,0.0,0.0
525,131,154.622,237.879,86.5933,98.6004,65.0075,0.0691749,3.17888,15.8302,918.151,4.02913,0.0,0.0
528,131.75,157.579,242.172,100.685,98.6126,63.0527,0.0706471,3.26423,15.6968,917.691,4.32564,0.0,0.0
531,132.5,159.879,247.069,125.236,98.6163,62.9764,0.0720095,3.33443,15.5878,917.5,4.33772,0.0,0.0
534,133.25,162.247,250.293,78.1659,98.6244,65.5463,0.073497,3.3703,15.4882,917.19,3.95165,0.0,0.0
537,134,163.501,253.399,73.8695,98.6183,64.4335,0.0751706,3.46236,15.3697,916.86,4.11668,0.0,0.0
540,134.75,166.352,258.317,105.948,98.6475,62.0941,0.0767227,3.55167,15.243,916.66,4.47724,0.0,0.0
543,135.5,168.741,262.604,58.3101,98.6333,68.2429,0.0781442,3.62625,15.1152,916.45,3.56258,0.0,0.0
546,136.25,171.338,267.158,99.1705,98.6329,63.2285,0.0794345,3.71003,14.949,915.989,4.3007,0.0,0.0
549,137,173.494,270.824,66.0863,98.6366,66.3891,0.0808123,3.79583,14.8095,915.779,3.82927,0.0,0.0
552,137.75,176.076,275.771,91.8469,98.6406,61.5797,0.0818167,3.87925,14.6762,915.509,4.55702,0.0,0.0
555,138.5,178.573,279.652,79.3429,98.6431,63.1493,0.0832854,3.97777,14.534,914.938,4.31382,0.0,0.0
558,139.25,180.294,283.448,63.5195,98.6561,64.0835,0.084356,4.07609,14.4112,914.758,4.17306,0.0,0.0
561,140,183.002,288.526,76.602,98.6418,63.6897,0.0858274,4.15907,14.2818,914.568,4.23129,0.0,0.0
564,140.75,185.679,293.119,70.9522,98.65,65.1025,0.0870751,4.25328,14.1443,914.148,4.01987,0.0,0.0
567,141.5,187.494,297.048,91.5538,98.663,62.8887,0.0880442,4.33633,13.9991,913.817,4.35577,0.0,0.0
570,142.25,190.117,301.588,61.7067,98.6524,65.7619,0.088725,4.46814,13.7897,913.437,3.92264,0.0,0.0
573,143,192.687,306.454,72.9993,98.6548,65.7688,0.0889793,4.58905,13.5522,913.217,3.92186,0.0,0.0
576,143.75,195.699,311.929,81.2923,98.6524,72.8242,0.0889123,4.71964,13.323,912.826,2.93601,0.0,0.0
579,144.5,199.055,319.852,78.8559,98.6552,68.6846,0.0885773,4.85735,13.1221,912.456,3.50232,0.0,0.0
582,145.25,203.208,326.858,83.9279,98.6557,66.2523,0.0880278,4.98211,12.9345,912.186,3.85109,0.0,0.0
585,146,205.713,331.168,65.1506,98.6621,66.9596,0.0870443,5.09511,12.7823,911.725,3.74903,0.0,0.0
588,146.75,208.571,335.803,80.7725,98.6524,69.6627,0.0858926,5.19745,12.6449,911.345,3.36529,0.0,0.0
591,147.5,211.354,341.406,65.1826,98.6463,69.0691,0.0847348,5.3081,12.5111,911.195,3.44746,0.0,0.0
594,148.25,213.652,345.521,72.1956,98.6634,69.005,0.0836266,5.41134,12.3992,910.725,3.45812,0.0,0.0
597,149,216.101,349.266,78.3461,98.6471,77.1468,0.0827062,5.52522,12.2265,910.264,2.37778,0.0,0.0
600,149.75,219.365,356.12,65.1078,98.6451,75.604,0.0821014,5.63642,12.0607,909.874,2.57296,0.0,0.0
603,150.5,222.616,363.78,90.2509,98.6463,68.0176,0.0818639,5.7295,11.9142,909.714,3.59584,0.0,0.0
606,151.25,225.834,368.018,65.852,98.6459,68.124,0.0817774,5.8203,11.7929,909.363,3.58069,0.0,0.0
609,152,227.365,370.995,65.7024,98.6471,71.7235,0.0820898,5.89444,11.6905,908.963,3.08279,0.0,0.0
612,152.75,229.61,375.814,59.5832,98.6455,68.1942,0.0825304,5.96759,11.6098,908.443,3.57068,0.0,0.0
615,153.5,232.132,380.099,88.6869,98.6427,65.5248,0.0832157,6.03033,11.551,908.242,3.95662,0.0,0.0
618,154.25,233.743,383.121,74.6457,98.6398,74.369,0.0839392,6.08459,11.5082,907.712,2.73175,0.0,0.0
621,155,236.378,386.625,74.8487,98.6463,63.3125,0.0848496,6.12778,11.4775,907.542,4.28917,0.0,0.0
624,155.75,238.474,389.212,79.6459,98.6459,69.3659,0.0858162,6.14403,11.4554,907.101,3.40595,0.0,0.0
627,156.5,240.357,392.465,66.5008,98.6439,66.5036,0.0866914,6.15587,11.4813,906.781,3.81332,0.0,0.0
630,157.25,241.416,393.315,91.4149,98.6439,66.7456,0.0874762,6.12812,11.5718,906.421,3.77819,0.0,0.0
633,158,241.761,392.579,96.841,98.6483,62.6771,0.0881751,6.088,11.6478,906.04,4.38693,0.0,0.0
636,158.75,242.869,392.59,77.7584,98.6447,70.851,0.0887971,6.05128,11.7075,905.77,3.20093,0.0,0.0
639,159.5,243.567,392.427,67.6992,98.6471,66.1626,0.0892986,6.00532,11.7866,905.51,3.86336,0.0,0.0
642,160.25,244.492,393.527,69.1723,98.6459,62.7393,0.089573,5.94496,11.877,905.18,4.37711,0.0,0.0
645,161,245.241,394.171,84.4881,98.65,64.4051,0.0897342,5.86221,11.9988,904.97,4.12405,0.0,0.0
648,161.75,246.19,393.204,60.3969,98.6504,62.3434,0.0894859,5.75522,12.1756,904.509,4.43876,0.0,0.0
651,162.5,245.642,390.392,55.1707,98.6443,60.7336,0.0888751,5.65189,12.3788,904.279,4.69119,0.0,0.0
654,163.25,245.428,388.05,63.4195,98.665,62.684,0.0880206,5.53327,12.5899,903.959,4.38749,0.0,0.0
657,164,244.569,384.378,69.4486,98.6528,69.1162,0.0870111,5.41424,12.8125,903.779,3.4415,0.0,0.0
660,164.75,244.402,383.041,69.2837,98.6443,65.1541,0.0856061,5.30031,13.0089,903.498,4.01165,0.0,0.0
663,165.5,243.818,380.86,93.8283,98.6467,61.6833,0.0840575,5.19457,13.1915,903.298,4.54137,0.0,0.0
666,166.25,244.009,379.196,81.4816,98.6504,64.2475,0.0827049,5.09016,13.3671,902.948,4.14778,0.0,0.0
669,167,244.27,378.79,87.4558,98.6492,63.7193,0.0810261,4.96966,13.5534,902.607,4.2275,0.0,0.0
672,167.75,243.998,377.193,85.1812,98.6483,65.3003,0.0792026,4.86786,13.7139,902.527,3.99038,0.0,0.0
675,168.5,243.452,374.893,76.7959,98.6569,60.4921,0.077353,4.74765,13.8978,902.147,4.73097,0.0,0.0
678,169.25,241.904,371.38,89.0831,98.6605,64.6527,0.0753533,4.62389,14.0318,901.957,4.08796,0.0,0.0
681,170,241.703,368.502,109.717,98.6504,63.6462,0.0736178,4.51828,14.1982,901.747,4.23872,0.0,0.0
684,170.75,240.94,365.275,88.3633,98.6557,63.3227,0.0714911,4.36806,14.372,901.426,4.28854,0.0,0.0
687,171.5,240.076,362.377,81.4717,98.6532,62.3495,0.0699407,4.23309,14.5887,901.266,4.4381,0.0,0.0
690,172.25,238.193,357.934,77.0302,98.6581,62.058,0.0679964,4.09118,14.8702,901.046,4.4839,0.0,0.0
693,173,236.428,352.983,95.6175,98.6597,61.1977,0.065786,3.9606,15.1516,900.866,4.61908,0.0,0.0
696,173.75,234.5,348.534,91.4851,98.6479,62.7185,0.0641747,3.81899,15.3892,900.686,4.3805,0.0,0.0
699,174.5,232.855,343.76,105.693,98.6504,63.196,0.061694,3.65551,15.628,900.586,4.30739,0.0,0.0
702,175.25,230.726,339.032,99.9117,98.6483,64.1696,0.0591922,3.49263,15.8656,900.346,4.15932,0.0,0.0
705,176,228.632,334.647,101.081,98.6552,62.9236,0.05668,3.35525,16.0994,900.275,4.34965,0.0,0.0
708,176.75,226.939,329.518,92.4751,98.6536,64.8788,0.054177,3.18225,16.3111,900.055,4.05352,0.0,0.0
711,177.5,224.534,323.58,104.285,98.6581,63.466,0.051789,3.02939,16.5359,899.915,4.26691,0.0,0.0
714,178.25,222.229,317.835,96.7105,98.6666,67.3258,0.0490849,2.87222,16.8195,899.835,3.69671,0.0,0.0
717,179,218.881,312.384,103.715,98.6585,65.5293,0.0462437,2.69966,17.0647,899.755,3.95751,0.0,0.0
720,179.75,216.212,305.895,98.3561,98.6488,64.5082,0.0438016,2.57388,17.3091,899.615,4.10846,0.0,0.0
723,180.5,213.411,299.71,108.553,98.6402,69.3939,0.0407281,2.4163,17.5701,899.565,3.40148,0.0,0.0
726,181.25,210.185,293.204,117.519,98.6548,69.331,0.0384875,2.25106,17.7955,899.475,3.41169,0.0,0.0
729,182,206.513,285.784,116.812,98.6569,69.7183,0.0354514,2.09248,18.0953,899.465,3.35801,0.0,0.0
732,182.75,202.694,278.438,127.546,98.6479,72.093,0.0322973,1.93076,18.3917,899.415,3.03318,0.0,0.0
735,183.5,198.971,271.234,125.128,98.6374,76.5005,0.0294236,1.7932,18.6771,899.355,2.4582,0.0,0.0
738,184.25,194.384,263.511,129.286,98.6439,83.3585,0.0270837,1.61684,18.947,899.325,1.62845,0.0,0.0
741,185,190.303,255.719,131.018,98.6504,89.7704,0.0245228,1.46718,19.2177,899.375,0.912338,0.0,0.0
744,185.75,185.947,247.812,135,98.6354,92.7391,0.0222135,1.32199,19.4681,899.395,0.596189,0.0,0.0
747,186.5,181.411,240.434,135.812,98.6065,94.743,0.0203415,1.17818,19.6878,899.395,0.386584,0.0,0.0
750,187.25,177.037,232.946,143.103,98.639,95.879,0.0184965,1.05054,19.8878,899.365,0.274491,0.0,0.0
753,188,173.095,225.471,141.62,98.6187,97.6455,0.0169576,0.947774,20.0336,899.375,0.0959221,0.0,0.0
756,188.75,168.725,218.464,140.427,98.6017,97.8696,0.0155041,0.84184,20.1755,899.365,0.0720761,0.0,0.0
759,189.5,165.13,212.162,137.963,98.585,97.8176,0.014118,0.749971,20.2867,899.355,0.0755797,0.0,0.0
762,190.25,160.869,205.103,138.027,98.5899,98.0836,0.0130205,0.670056,20.3812,899.375,0.049799,0.0,0.0
765,191,158.009,200.216,136.919,98.5675,97.9882,0.0120715,0.600345,20.4657,899.385,0.0570206,0.0,0.0
768,191.75,154.887,193.705,136.474,98.5489,98.0462,0.0112297,0.538374,20.5382,899.395,0.0494583,0.0,0.0
771,192.5,151.771,188.758,139.569,98.5298,98.1031,0.0105747,0.488443,20.5992,899.375,0.0419808,0.0,0.0
774,193.25,148.613,183.343,141.54,98.5233,98.0458,0.0100266,0.441023,20.6496,899.385,0.0469871,0.0,0.0
777,194,146.21,179.224,136.502,98.5066,98.0219,0.00952987,0.403042,20.6907,899.385,0.0477168,0.0,0.0
780,194.75,142.797,173.917,139.336,98.4945,97.8806,0.0091233,0.369519,20.7225,899.405,0.0604725,0.0,0.0
783,195.5,140.144,169.862,140.549,98.4669,98.0117,0.00875094,0.338786,20.7507,899.395,0.0448102,0.0,0.0
786,196.25,138.135,165.591,138.474,98.4498,97.6585,0.0084317,0.312522,20.7743,899.375,0.0780551,0.0,0.0
789,197,135.525,161.632,137.592,98.4311,97.9122,0.00815943,0.29173,20.794,899.365,0.0511215,0.0,0.0
792,197.75,133.659,157.859,141.342,98.4137,97.8497,0.00792815,0.271079,20.8103,899.355,0.0555832,0.0,0.0
795,198.5,132.348,155.118,141.118,98.367,97.4567,0.00772374,0.254409,20.8252,899.355,0.0899187,0.0,0.0
798,199.25,129.794,151.448,143.399,98.3418,97.9224,0.0075534,0.239496,20.8374,899.355,0.0413379,0.0,0.0
801,200,127.585,148.112,132.553,98.3247,97.5976,0.00742013,0.225717,20.8477,899.345,0.0717945,0.0,0.0
804,200.75,125.674,145.416,139.597,98.291,97.5911,0.00730714,0.213889,20.8557,899.325,0.069123,0.0,0.0
807,201.5,124.423,142.585,137.827,98.2521,97.6451,0.00719769,0.203664,20.8646,899.355,0.0599362,0.0,0.0
810,202.25,123.288,140.04,140.774,98.2086,97.5269,0.00710669,0.194766,20.8716,899.365,0.067369,0.0,0.0
813,203,120.76,136.86,140.388,98.1952,97.816,0.00702119,0.18828,20.8774,899.335,0.0374232,0.0,0.0
816,203.75,119.615,134.468,141.42,98.1595,97.6735,0.00692671,0.180174,20.8826,899.335,0.0480048,0.0,0.0
819,204.5,118.169,132.315,142.425,98.1148,97.6431,0.00683156,0.173454,20.8877,899.345,0.0466188,0.0,0.0
822,205.25,116.729,129.683,140.787,98.0754,97.3122,0.00673652,0.167168,20.8929,899.335,0.0755671,0.0,0.0
825,206,115.562,127.901,141.867,98.0535,97.5152,0.00664247,0.161315,20.8974,899.385,0.0532488,0.0,0.0
828,206.75,113.884,125.498,139.138,98.0186,97.3962,0.00653293,0.156508,20.9015,899.405,0.0616102,0.0,0.0
831,207.5,113.01,123.419,142.689,97.9768,97.5253,0.00643309,0.151714,20.9053,899.415,0.0446702,0.0,0.0
834,208.25,111.426,121.458,141.578,97.9224,97.3272,0.00635179,0.147151,20.9089,899.425,0.0589656,0.0,0.0
837,209,110.162,119.384,144.186,97.8801,97.2265,0.00629627,0.143063,20.9118,899.445,0.0648061,0.0,0.0
840,209.75,109.227,117.861,139.862,97.8452,97.4835,0.00625739,0.139758,20.9142,899.435,0.0358232,0.0,0.0
843,210.5,108.278,115.485,143.573,97.8493,97.382,0.0062522,0.136325,20.9165,899.435,0.0462998,0.0,0.0
846,211.25,106.751,114.108,138.001,97.8594,97.2679,0.00625236,0.133146,20.9183,899.435,0.0586413,0.0,0.0
849,212,106.492,112.217,139.481,97.8728,97.9971,0.00625922,0.130541,20.9202,899.435,-0.0122711,0.0,0.0
852,212.75,105.185,111.001,142.669,97.8842,97.4656,0.00625176,0.127954,20.9221,899.425,0.0414481,0.0,0.0
855,213.5,103.848,109.264,139.399,97.8891,97.5789,0.00623133,0.125774,20.9241,899.425,0.0306938,0.0,0.0
858,214.25,103.405,107.885,145.348,97.8944,97.3455,0.00619625,0.123285,20.9263,899.415,0.0543839,0.0,0.0
861,215,101.819,106.72,144.921,97.9122,97.207,0.0061471,0.120949,20.9286,899.405,0.069914,0.0,0.0
864,215.75,101.064,105.402,141.406,97.9297,97.8416,0.00609354,0.1188,20.9303,899.395,0.00870358,0.0,0.0
867,216.5,100.151,103.595,145.233,97.9374,97.2959,0.0060242,0.116851,20.9321,899.425,0.0635577,0.0,0.0
870,217.25,99.4725,102.294,144.396,97.9463,97.6248,0.00596299,0.115048,20.9339,899.445,0.0318029,0.0,0.0
873,218,98.6565,101.414,142.775,97.9593,97.5123,0.00592164,0.113347,20.9353,899.425,0.044234,0.0,0.0
876,218.75,98.3245,100.208,140.983,97.9877,97.6609,0.0058971,0.111726,20.9364,899.435,0.0323131,0.0,0.0
879,219.5,97.1535,98.9823,139.271,97.9922,97.6029,0.00589522,0.110203,20.9376,899.435,0.0385051,0.0,0.0
882,220.25,96.5119,98.1408,141.8,98.004,98.142,0.00589634,0.108947,20.9387,899.395,-0.013615,0.0,0.0
885,221,95.7464,96.7301,142.124,98.006,97.5716,0.00589822,0.107642,20.9395,899.365,0.0429657,0.0,0.0
888,221.75,95.227,96.0571,138.606,98.0389,97.926,0.00586592,0.106419,20.9408,899.345,0.0111408,0.0,0.0
891,222.5,94.7163,94.9683,139.523,98.0669,97.6971,0.0058542,0.105317,20.9414,899.345,0.0365468,0.0,0.0
894,223.25,94.0369,94.028,141.717,98.0653,98.2009,0.00581047,0.104355,20.9421,899.335,-0.0133662,0.0,0.0
897,224,93.1234,93.2486,143.276,98.0803,97.8205,0.00577858,0.103475,20.9424,899.345,0.025656,0.0,0.0
900,224.75,92.7022,92.8465,141.895,98.0978,98.1193,0.00576244,0.102422,20.9421,899.355,-0.00212118,0.0,0.0
903,225.5,92.026,91.019,147.895,98.129,98.3223,0.00577186,0.101847,20.9419,899.405,-0.01903,0.0,0.0
906,226.25,91.8782,90.7316,143.843,98.14,98.0328,0.00579825,0.101183,20.9422,899.425,0.0105684,0.0,0.0
909,227,91.3185,90.0413,145.06,98.1457,97.4498,0.00583545,0.100427,20.9424,899.425,0.0688207,0.0,0.0
912,227.75,90.8352,89.0595,146.513,98.1725,98.1899,0.00589281,0.0997601,20.9426,899.435,-0.00171986,0.0,0.0
915,228.5,90.8418,88.9149,146.326,98.1944,97.9833,0.00594835,0.0990605,20.9427,899.425,0.0208181,0.0,0.0
918,229.25,89.1986,87.6339,141.629,98.1968,97.3183,0.00599469,0.0984011,20.9427,899.435,0.0869264,0.0,0.0
921,230,89.1106,86.9041,145.481,98.2119,97.8006,0.00603596,0.0977781,20.943,899.455,0.0405881,0.0,0.0
924,230.75,88.7585,86.605,144.528,98.2407,98.3154,0.00606668,0.0971894,20.9436,899.455,-0.00735147,0.0,0.0
927,231.5,88.444,85.7721,143.999,98.2711,98.7153,0.00608468,0.0966054,20.9441,899.415,-0.0436161,0.0,0.0
930,232.25,87.797,85.3622,143.866,98.2825,98.4157,0.00608532,0.0961296,20.9447,899.415,-0.0130949,0.0,0.0
933,233,86.7943,83.9045,144.772,98.2935,98.4603,0.00606799,0.0956973,20.9457,899.405,-0.0164044,0.0,0.0
936,233.75,86.0298,82.7382,142.165,98.3191,97.6284,0.00603402,0.0951886,20.9465,899.395,0.0681785,0.0,0.0
939,234.5,86.5312,83.7904,141.501,98.3499,98.3487,0.00596837,0.0947683,20.947,899.405,0.000121065,0.0,0.0
942,235.25,85.1945,83.1296,141.125,98.3702,99.1095,0.00589559,0.0943772,20.9474,899.405,-0.0724192,0.0,0.0
945,236,86.0092,82.4834,146.287,98.3629,98.8903,0.00583191,0.0940108,20.9477,899.415,-0.0517189,0.0,0.0
948,236.75,85.3668,82.075,144.491,98.3735,99.4104,0.00576931,0.0936804,20.9479,899.425,-0.101414,0.0,0.0
951,237.5,84.736,81.4432,146.671,98.4169,99.2549,0.00571874,0.0933551,20.948,899.405,-0.0820036,0.0,0.0
954,238.25,84.4252,80.889,146.553,98.4019,98.1299,0.00568523,0.0930569,20.9488,899.395,0.026776,0.0,0.0
957,239,84.1936,80.6621,146.251,98.4198,99.248,0.00568567,0.0927311,20.9493,899.385,-0.0810507,0.0,0.0
960,239.75,83.5541,80.5101,146.183,98.4405,99.3738,0.00570592,0.0924474,20.9497,899.405,-0.091274,0.0,0.0
963,240.5,83.4545,79.4246,141.954,98.4555,99.2045,0.00573377,0.0921826,20.95,899.405,-0.0733061,0.0,0.0
966,241.25,83.3695,79.0009,149.064,98.4709,98.0836,0.00576193,0.0919353,20.9508,899.395,0.0381204,0.0,0.0
969,242,82.5609,78.938,144.652,98.4876,99.3007,0.00576988,0.0917034,20.9514,899.395,-0.0795323,0.0,0.0
972,242.75,82.0866,78.4391,143.916,98.4766,99.3787,0.00577031,0.0914856,20.9518,899.395,-0.0881982,0.0,0.0
975,243.5,82.1285,77.8855,147.158,98.5022,99.6523,0.00576145,0.0912882,20.9519,899.395,-0.112282,0.0,0.0
978,244.25,81.837,77.5926,141.664,98.5095,99.2394,0.0057393,0.0911371,20.952,899.395,-0.0714062,0.0,0.0
981,245,81.3841,77.0037,147.918,98.5095,99.3507,0.00573736,0.0910148,20.952,899.395,-0.0822414,0.0,0.0
984,245.75,81.39,77.0198,145.419,98.5099,99.1294,0.00573594,0.0908752,20.9523,899.405,-0.0606365,0.0,0.0
987,246.5,80.7269,76.4759,146.782,98.5184,100.204,0.00575485,0.0906874,20.9529,899.385,-0.164091,0.0,0.0
990,247.25,80.5846,75.7926,144.519,98.5261,99.2687,0.00578238,0.0904962,20.9509,899.385,-0.0726201,0.0,0.0
993,248,79.8076,75.8489,142.579,98.5265,99.6174,0.00581143,0.0903267,20.9494,899.375,-0.1065,0.0,0.0
996,248.75,79.6815,74.9338,145.571,98.5184,100.047,0.00582193,0.0901909,20.9483,899.375,-0.148953,0.0,0.0
999,249.5,79.4429,74.9637,150.569,98.5217,100.137,0.00581464,0.090042,20.9475,899.375,-0.157265,0.0,0.0
1002,250.25,79.6678,74.819,147.163,98.5265,100.7,0.00580294,0.0898482,20.9469,899.385,-0.211064,0.0,0.0
1005,251,78.612,74.2035,145.622,98.5168,99.1335,0.00577698,0.0896392,20.9465,899.355,-0.0603558,0.0,0.0
1008,251.75,78.552,73.9998,141.802,98.5058,99.1241,0.00575068,0.0894295,20.9462,899.385,-0.0605211,0.0,0.0
1011,252.5,78.333,73.6357,151.644,98.5058,100.162,0.0057316,0.0892279,20.9462,899.365,-0.161251,0.0,0.0
1014,253.25,78.0122,72.9411,144.507,98.5018,100.18,0.00573389,0.0890268,20.9466,899.355,-0.163374,0.0,0.0
1017,254,77.3288,72.9046,147.067,98.4863,99.8655,0.00575033,0.0888572,20.947,899.365,-0.134502,0.0,0.0
1020,254.75,77.4065,72.3121,149.231,98.4705,99.93,0.00577578,0.0886949,20.9474,899.355,-0.142309,0.0,0.0
1023,255.5,77.1306,72.7034,144.215,98.4543,100.04,0.00581033,0.0884828,20.9477,899.395,-0.154508,0.0,0.0
1026,256.25,76.509,71.6479,144.07,98.4445,99.8354,0.00583677,0.0882882,20.9486,899.395,-0.135701,0.0,0.0
1029,257,76.3627,71.6585,140.814,98.4319,99.4907,0.00585657,0.087992,20.9492,899.385,-0.103486,0.0,0.0
1032,257.75,75.6995,70.7137,148.923,98.4088,100.205,0.00586707,0.0877355,20.9496,899.365,-0.174978,0.0,0.0
1035,258.5,75.8097,70.9912,143.197,98.3901,99.7555,0.00586799,0.0874956,20.9504,899.375,-0.133295,0.0,0.0
1038,259.25,76.147,70.5688,147.848,98.3698,99.7234,0.00586333,0.0872599,20.9514,899.365,-0.132181,0.0,0.0
1041,260,75.6592,70.6104,145.827,98.3597,100.299,0.0058537,0.0869393,20.9525,899.395,-0.188856,0.0,0.0
1044,260.75,75.764,70.5964,150.279,98.3174,100.227,0.00583031,0.0866423,20.9533,899.365,-0.186077,0.0,0.0
1047,261.5,73.9286,69.4282,147.229,98.291,100.32,0.00580349,0.0863486,20.9543,899.355,-0.197641,0.0,0.0
1050,262.25,74.5964,69.6194,147.155,98.2768,99.9203,0.00578506,0.08604,20.9549,899.395,-0.160406,0.0,0.0
1053,263,74.8574,69.9317,151.44,98.2545,99.7607,0.00576865,0.0857249,20.9557,899.385,-0.147148,0.0,0.0
1056,263.75,74.5533,69.3254,145.869,98.2106,99.3336,0.00575875,0.08541,20.9562,899.395,-0.109967,0.0,0.0
1059,264.5,73.3129,68.8021,147.816,98.1916,99.5894,0.00575744,0.0850457,20.957,899.365,-0.13672,0.0,0.0
1062,265.25,74.1433,69.4536,145.101,98.1562,100.687,0.00576658,0.0848026,20.9576,899.405,-0.246197,0.0,0.0
1065,266,73.2078,68.8581,143.711,98.1165,100.228,0.00577146,0.0844488,20.9585,899.375,-0.205908,0.0,0.0
1068,266.75,73.1016,68.4571,146.902,98.0742,100.403,0.00575758,0.0841478,20.9593,899.375,-0.226982,0.0,0.0
1071,267.5,73.277,68.4741,145.065,98.0292,100.658,0.00572627,0.0838546,20.9599,899.355,-0.255997,0.0,0.0
1074,268.25,72.0996,67.5093,146.032,97.995,99.8492,0.00567991,0.0835841,20.9603,899.395,-0.181299,0.0,0.0
1077,269,72.6905,67.7261,143.211,97.9593,99.8541,0.00564611,0.0832684,20.9606,899.405,-0.185298,0.0,0.0
1080,269.75,72.1295,67.1326,148.637,97.9175,100.838,0.00559663,0.0830019,20.9601,899.385,-0.284286,0.0,0.0
1083,270.5,72.4526,67.6759,149.55,97.8477,100.322,0.00558295,0.0827671,20.9594,899.375,-0.241526,0.0,0.0
1086,271.25,72.3623,66.6921,148.577,97.8127,99.645,0.00558253,0.0825786,20.9589,899.385,-0.179507,0.0,0.0
1089,272,71.2729,66.3931,144.235,97.7721,100.398,0.0056213,0.0824548,20.9586,899.385,-0.256311,0.0,0.0
1092,272.75,71.0392,66.1036,150.381,97.7527,99.6182,0.00565153,0.082356,20.9583,899.385,-0.182849,0.0,0.0
1095,273.5,71.4618,66.3926,147.677,97.6836,99.3913,0.00567693,0.0822597,20.9581,899.375,-0.167622,0.0,0.0
1098,274.25,71.4036,66.0277,150.717,97.6361,99.5715,0.00568895,0.082176,20.9579,899.385,-0.189852,0.0,0.0
1101,275,71.1251,66.4651,148.058,97.6004,99.9609,0.0056866,0.0821093,20.9581,899.395,-0.231139,0.0,0.0
1104,275.75,71.2557,66.1452,145.949,97.5452,100.256,0.00567068,0.0819836,20.9582,899.395,-0.26513,0.0,0.0
1107,276.5,70.8082,65.9088,147.154,97.4891,100.356,0.0056541,0.081857,20.9585,899.415,-0.280357,0.0,0.0
1110,277.25,70.4904,65.4603,146.159,97.4396,99.9329,0.00564381,0.0817048,20.9591,899.405,-0.244374,0.0,0.0
1113,278,70.023,65.8495,148.675,97.397,100.474,0.00564304,0.0815804,20.9595,899.415,-0.300846,0.0,0.0
1116,278.75,70.1624,65.3081,150.895,97.3515,99.9118,0.00565231,0.0814697,20.9599,899.395,-0.251081,0.0,0.0
1119,279.5,69.7402,65.0794,154.273,97.2894,99.7721,0.00567588,0.0813648,20.9601,899.415,-0.243725,0.0,0.0
1122,280.25,69.6067,64.818,149.576,97.2407,100.649,0.00571084,0.081269,20.9603,899.405,-0.333251,0.0,0.0
1125,281,69.1218,64.4899,147.028,97.1907,99.7912,0.00573881,0.0812134,20.9604,899.395,-0.255388,0.0,0.0
1128,281.75,68.8666,64.5045,148.432,97.1639,100.509,0.00575568,0.0811972,20.9605,899.405,-0.327339,0.0,0.0
1131,282.5,69.1677,64.5402,144.615,97.0884,100.147,0.00576012,0.0811718,20.9605,899.395,-0.300024,0.0,0.0
1134,283.25,68.8756,63.9894,149.486,97.0425,99.3917,0.00573671,0.0811476,20.9606,899.415,-0.231349,0.0,0.0
1137,284,68.7494,63.9335,143.842,97.0019,99.5521,0.00571893,0.08113,20.9606,899.395,-0.250991,0.0,0.0
1140,284.75,68.2338,63.7464,148.681,96.9633,100.433,0.00570474,0.0811556,20.9607,899.395,-0.340017,0.0,0.0
1143,285.5,67.9635,63.445,146.858,96.926,99.7429,0.00571342,0.0812147,20.9607,899.365,-0.277086,0.0,0.0
1146,286.25,67.9828,63.4496,144.785,96.874,100.605,0.00576271,0.081275,20.9604,899.375,-0.365495,0.0,0.0
1149,287,67.9226,62.9312,148.178,96.8407,99.5431,0.00580427,0.0813562,20.9603,899.375,-0.266208,0.0,0.0
1152,287.75,67.4065,62.7231,148.635,96.7888,99.9913,0.00586351,0.0814154,20.9602,899.405,-0.314854,0.0,0.0
1155,288.5,67.8175,62.7307,149.162,96.7461,99.7477,0.00591346,0.0815163,20.9601,899.395,-0.295523,0.0,0.0
1158,289.25,67.0708,62.5837,148.419,96.6974,99.5216,0.00595324,0.0815962,20.9594,899.385,-0.278443,0.0,0.0
1161,290,66.7597,62.5102,148.632,96.6665,100.329,0.00597724,0.0816191,20.9589,899.385,-0.359694,0.0,0.0
1164,290.75,67.0385,62.4602,146.374,96.6203,99.6698,0.00598736,0.081684,20.9585,899.375,-0.300554,0.0,0.0
1167,291.5,66.5478,62.6358,148.725,96.5922,99.7441,0.00598576,0.0817121,20.9583,899.395,-0.310565,0.0,0.0
1170,292.25,66.5827,61.8926,148.228,96.5496,100.358,0.00598459,0.0817042,20.9581,899.395,-0.37414,0.0,0.0
1173,293,66.2571,61.9102,144.321,96.5305,98.9958,0.00591973,0.0816499,20.958,899.405,-0.243917,0.0,0.0
1176,293.75,65.8548,61.6428,150.322,96.5013,100.093,0.00585737,0.0815141,20.958,899.395,-0.353475,0.0,0.0
1179,294.5,65.4867,61.4637,149.934,96.4814,99.1923,0.00578613,0.0814151,20.958,899.415,-0.268021,0.0,0.0
1182,295.25,65.7477,61.6733,149.338,96.4388,99.522,0.00572549,0.081262,20.9582,899.405,-0.304387,0.0,0.0
1185,296,65.8095,61.6004,153.206,96.4408,99.5699,0.00567626,0.0811159,20.9587,899.405,-0.308838,0.0,0.0
1188,296.75,65.4066,61.435,153.471,96.4237,100.02,0.00563812,0.0810287,20.9591,899.405,-0.354187,0.0,0.0
1191,297.5,65.5983,60.9273,151.255,96.4055,100.216,,0.080958,,899.425,-0.374964,0.0,0.0
1194,298.25,64.2713,59.7335,148.29,96.3827,99.6523,,0.0808943,,899.415,-0.322666,0.0,0.0
1197,299,64.822,60.4395,148.438,96.3754,98.8399,,0.0807709,,899.415,-0.244226,0.0,0.0
1200,299.75,65.3051,60.4118,147.855,96.3738,100.163,,0.0806597,,899.415,-0.373007,0.0,0.0
1203,300.5,64.7422,60.4465,149.116,96.3714,99.565,,,,899.405,-0.315331,0.0,0.0
1206,301.25,64.7141,60.4182,149.618,96.3592,100.448,,,,899.415,-0.401996,0.0,0.0
1209,302,64.6886,59.9065,151.837,96.3693,100.757,,,,899.385,-0.430642,0.0,0.0
1212,302.75,64.5005,60.1954,151.198,96.3612,100.631,,,,899.395,-0.419367,0.0,0.0
1215,303.5,63.9079,60.0579,148.201,96.3697,100.219,,,,899.395,-0.378823,0.0,0.0
1218,304.25,63.9256,59.536,147.082,96.3685,99.3531,,,,899.405,-0.295006,0.0,0.0
1221,305,64.0381,59.2208,152.283,96.3718,99.4802,,,,899.405,-0.307044,0.0,0.0
1224,305.75,63.2446,59.3305,147.535,96.3876,100.254,,,,899.375,-0.380361,0.0,0.0
1227,306.5,63.5574,59.5289,149.406,96.4083,100.594,,,,899.375,-0.41109,0.0,0.0
1230,307.25,63.2132,59.03,153.836,96.4116,100.085,,,,899.385,-0.361688,0.0,0.0
1233,308,62.7204,59.3952,148.538,96.4241,100.025,,,,899.385,-0.354617,0.0,0.0