File: 01_Data/HDPE/Cone/HDPE_Cone_HF50Scan_220218_R2.csv
Names,Time,Stack TC,Smoke TC,Exh Press,Smoke Comp,Smoke Meas,CO Meter,CO2 Meter,O2 Meter,Sample Mass,Ext Coeff,Start Test,Flame Verif
Chan Gain,,500,500,1,1,1,1,1,1,1,1,1.0,1.0
Offset,,0,0,0.132436,0,0,0,0,0,0,0,0.0,0.0
Gain,,1,1,25.011,15.4219,15.1528,1,1,1,1.00089,1.02113,1.0,1.0
Units,sec,C,C,Pa,%,%,%,%,%,g,/m,,
Baseline,,36.322,38.1461,156.092,114.96,111.902,-0.00832659,0.0544123,20.9811,-479.199,0.241659,,
4,0.75,32.0609,33.7309,155.544,115.681,111.553,-0.00849704,0.05863,20.9831,426.097,0.325476,0.0,0.0
8,1.75,31.9174,33.8027,156.936,115.738,111.615,-0.00851099,0.0578042,20.9842,426.177,0.32491,0.0,0.0
12,2.75,32.9479,33.9607,157.154,115.792,112.284,-0.00853293,0.0571324,20.9853,426.187,0.27556,0.0,0.0
16,3.75,32.6283,34.0772,159.557,115.834,113.06,-0.0085606,0.0565594,20.9858,426.117,0.217076,0.0,0.0
20,4.75,33.0314,34.1549,152.368,115.877,111.57,-0.00861091,0.0561656,20.9856,426.167,0.339286,0.0,0.0
24,5.75,32.2268,34.0215,153.531,115.908,112.07,-0.00866865,0.0558067,20.9854,426.177,0.301644,0.0,0.0
28,6.75,32.9734,33.9712,156.006,115.911,112.289,-0.0087245,0.0556409,20.9847,426.137,0.284397,0.0,0.0
32,7.75,32.7021,34.3859,154.643,115.938,112.595,-0.00877286,0.0556126,20.9841,426.147,0.262119,0.0,0.0
36,8.75,32.9507,33.8931,159.021,115.951,112.649,-0.00884906,0.0557466,20.9831,426.137,0.258798,0.0,0.0
40,9.75,32.6472,34.097,153.954,115.962,113.028,-0.00892389,0.0560845,20.9822,426.137,0.22957,0.0,0.0
44,10.75,32.7578,34.2724,155.486,115.936,112.128,-0.00899244,0.0564562,20.9816,426.177,0.299171,0.0,0.0
48,11.75,32.7652,34.396,156.129,115.918,112.804,-0.00903582,0.0570542,20.9812,426.167,0.24387,0.0,0.0
52,12.75,32.932,34.3805,155.806,115.897,112.215,-0.00904406,0.0579503,20.9804,426.157,0.289136,0.0,0.0
56,13.75,33.2033,34.6813,152.516,115.872,111.941,-0.00902475,0.0590347,20.9794,426.147,0.309161,0.0,0.0
60,14.75,33.5156,34.7433,155.751,115.806,111.661,-0.00897358,0.0600608,20.9779,426.157,0.326479,0.0,0.0
64,15.75,33.5327,35.1374,156.859,115.776,112.044,-0.00889381,0.0609225,20.9763,426.177,0.293488,0.0,0.0
68,16.75,33.3351,35.2438,153.233,115.72,111.668,-0.00880481,0.0615218,20.9753,426.137,0.319296,0.0,0.0
72,17.75,33.1138,34.8569,155.046,115.689,112.648,-0.00873069,0.0619654,20.9746,426.117,0.238598,0.0,0.0
76,18.75,33.2586,35.1316,153.146,115.661,110.658,-0.00867532,0.0622564,20.9742,426.107,0.396046,0.0,0.0
80,19.75,33.5942,34.9117,161.813,115.606,112.659,-0.00862551,0.0624474,20.9739,426.077,0.2313,0.0,0.0
84,20.75,33.6081,35.0332,158.019,115.59,112.147,-0.00858159,0.0624891,20.9745,426.067,0.270891,0.0,0.0
88,21.75,33.4712,35.1943,157.668,115.709,113.175,-0.00854215,0.0623094,20.9757,426.057,0.198381,0.0,0.0
92,22.75,33.9332,35.4237,154.901,115.893,112.347,-0.00850472,0.0619834,20.9769,426.077,0.278369,0.0,0.0
96,23.75,33.8071,35.1273,154.66,116.075,112.212,-0.00846724,0.0614564,20.978,426.097,0.303133,0.0,0.0
100,24.75,33.5209,35.4981,159.162,116.187,112.208,-0.00843158,0.0609142,20.9787,426.077,0.312104,0.0,0.0
104,25.75,34.0115,35.4825,159.5,116.287,113.367,-0.00841615,0.0602813,20.9792,426.057,0.227833,0.0,0.0
108,26.75,33.837,35.7134,155.081,116.375,112.461,-0.00845771,0.059589,20.9802,426.067,0.306401,0.0,0.0
112,27.75,33.885,35.0315,156.872,116.429,113.085,-0.00852318,0.0588372,20.9816,426.067,0.260981,0.0,0.0
116,28.75,33.9915,35.6568,161.418,116.495,112.322,-0.0085976,0.0580693,20.9826,426.067,0.326726,0.0,0.0
120,29.75,33.7813,35.9149,157.851,116.5,112.738,-0.00866441,0.0572967,20.984,426.107,0.293996,0.0,0.0
124,30.75,34.161,35.0949,154.317,116.476,112.103,-0.00869582,0.0566485,20.985,426.117,0.342776,0.0,0.0
128,31.75,34.3026,35.7776,158.623,116.434,112.234,-0.00867409,0.0560545,20.9857,426.117,0.329103,0.0,0.0
132,32.75,33.8333,35.5527,157.125,116.365,111.895,-0.00860951,0.0554992,20.9861,426.057,0.350872,0.0,0.0
136,33.75,33.9544,35.9397,153.165,116.265,112.944,-0.00845727,0.0549923,20.9864,426.057,0.259624,0.0,0.0
140,34.75,34.5634,35.9125,153.971,116.139,111.601,-0.00827393,0.0544418,20.9864,426.047,0.356967,0.0,0.0
144,35.75,34.3868,36.5506,156.344,115.981,112.365,-0.00810638,0.054022,20.9858,426.077,0.283694,0.0,0.0
148,36.75,34.14,36.1445,154.945,115.79,112.43,-0.00796457,0.0538456,20.9854,426.087,0.263765,0.0,0.0
152,37.75,33.9522,35.4438,152.19,115.81,112.57,-0.00787415,0.0538556,20.9852,426.107,0.254174,0.0,0.0
156,38.75,34.7888,36.027,156.506,115.869,111.539,-0.00782185,0.0541265,20.9852,426.097,0.341119,0.0,0.0
160,39.75,34.1077,35.4842,158.444,115.962,111.23,-0.00778717,0.0543682,20.9845,426.077,0.373199,0.0,0.0
164,40.75,34.6087,36.3524,155.175,116.029,111.489,-0.00775114,0.0549827,20.9832,426.077,0.357566,0.0,0.0
168,41.75,34.2931,35.8589,156.227,116.127,111.379,-0.00770678,0.055568,20.9824,426.107,0.373929,0.0,0.0
172,42.75,34.4929,35.8391,153.272,116.229,110.926,-0.00763048,0.0560237,20.9812,426.077,0.418285,0.0,0.0
176,43.75,34.3699,36.0555,156.936,116.302,111.249,-0.00750851,0.0564372,20.9803,426.117,0.397842,0.0,0.0
180,44.75,34.7627,36.6032,156.379,116.428,111.054,-0.00735648,0.0568622,20.9794,426.127,0.423314,0.0,0.0
184,45.75,34.2803,35.6367,155.429,116.497,110.859,-0.00712638,0.0573172,20.9781,426.117,0.444351,0.0,0.0
188,46.75,34.2508,36.5031,149.331,116.543,110.002,-0.00687853,0.057702,20.9767,426.127,0.517364,0.0,0.0
192,47.75,34.7189,36.6761,156.548,116.601,110.582,-0.00658987,0.0579723,20.9757,426.127,0.474791,0.0,0.0
196,48.75,34.2484,36.7629,155.714,116.645,109.824,-0.00628905,0.0581496,20.9751,426.107,0.539719,0.0,0.0
200,49.75,34.9916,36.8348,157.032,116.655,110.025,-0.00598034,0.0582408,20.9747,426.097,0.524161,0.0,0.0
204,50.75,35.1213,36.8836,155.32,116.659,109.2,-0.00570448,0.0583403,20.9745,426.077,0.591902,0.0,0.0
208,51.75,34.8046,37.0991,153.316,116.635,107.573,-0.00543848,0.0584559,20.973,426.057,0.72443,0.0,0.0
212,52.75,34.9015,37.2062,154.532,116.592,109.221,-0.00524818,0.0590388,20.97,426.047,0.584988,0.0,0.0
216,53.75,34.7029,37.0693,153.578,116.523,109.805,-0.00519784,0.060642,20.9645,426.047,0.5319,0.0,0.0
220,54.75,35.6418,36.9896,149.737,116.449,111.393,-0.00526628,0.0634648,20.9571,425.957,0.397608,0.0,0.0
224,55.75,35.1532,37.0708,153.054,116.354,110.997,-0.00546571,0.0674882,20.9449,426.007,0.42218,0.0,1.0
228,56.75,35.486,37.297,151.716,116.213,111.471,-0.00573874,0.073583,20.93,425.957,0.373135,0.0,1.0
232,57.75,35.3767,37.6028,151.506,116.087,109.995,-0.00597519,0.0804129,20.9169,425.947,0.482808,0.0,1.0
236,58.75,35.5699,37.8002,149.461,115.95,111.109,-0.00632135,0.087787,20.9033,425.927,0.382014,0.0,1.0
240,59.75,35.7179,37.8793,146.718,115.796,109.068,-0.00662712,0.0958903,20.8912,425.917,0.536163,0.0,1.0
244,60.75,35.854,37.6934,148.236,115.637,110.272,-0.0068538,0.105324,20.8767,425.897,0.425499,0.0,1.0
248,61.75,35.8764,38.0888,152.25,115.458,109.969,-0.00702241,0.115516,20.8618,425.877,0.436271,0.0,0.0
252,62.75,35.7102,38.6594,145.993,115.293,108.541,-0.00713203,0.124547,20.841,425.797,0.540559,0.0,0.0
256,63.75,36.8346,39.1657,147.846,115.121,108.211,-0.00718597,0.136052,20.8164,425.887,0.554416,0.0,0.0
260,64.75,36.8709,39.1274,145.298,114.972,108.37,-0.00718766,0.148912,20.7898,425.827,0.529679,0.0,0.0
264,65.75,37.1762,39.6333,143.855,114.8,106.494,-0.00712146,0.163256,20.763,425.787,0.672746,0.0,0.0
268,66.75,37.9355,40.3493,141.723,114.644,105.984,-0.0069767,0.177501,20.7362,425.887,0.703548,0.0,0.0
272,67.75,38.381,40.9098,141.466,114.513,104.428,-0.00675752,0.191862,20.7056,425.697,0.825733,0.0,0.0
276,68.75,38.4602,41.4827,136.723,114.423,101.291,-0.00646297,0.20656,20.6711,425.577,1.09195,0.0,0.0
280,69.75,39.4967,41.9577,136.07,114.329,101.84,-0.00615604,0.224222,20.6303,425.687,1.03608,0.0,0.0
284,70.75,39.8947,42.4693,137.587,114.249,98.4194,-0.0058565,0.244035,20.5863,425.567,1.33588,0.0,0.0
288,71.75,40.5268,43.1907,137.518,114.212,99.458,-0.00561873,0.263666,20.5442,425.657,1.23893,0.0,0.0
292,72.75,40.4034,43.6499,133.715,114.201,97.5607,-0.00533688,0.286618,20.5029,425.527,1.41061,0.0,0.0
296,73.75,41.7694,44.6547,135.804,114.212,98.0421,-0.00507221,0.311061,20.4617,425.347,1.36741,0.0,0.0
300,74.75,42.3916,45.9853,130.687,114.253,97.0349,-0.00479387,0.333867,20.4153,425.427,1.46315,0.0,0.0
304,75.75,43.2798,47.0638,130.845,114.31,94.7542,-0.00449501,0.36021,20.3638,425.357,1.68062,0.0,0.0
308,76.75,43.8231,47.6383,130.832,114.39,93.5024,-0.00415503,0.38513,20.3102,425.257,1.80601,0.0,0.0
312,77.75,45.235,49.4497,131.804,114.475,95.0534,-0.00376369,0.411044,20.2546,425.127,1.66531,0.0,0.0
316,78.75,46.3248,50.579,129.837,114.608,95.0488,-0.00353246,0.436806,20.215,425.086,1.67616,0.0,0.0
320,79.75,47.1287,51.6171,129.755,114.713,92.2724,-0.00301068,0.462085,20.1698,425.016,1.94991,0.0,0.0
324,80.75,47.8013,52.4087,127.972,114.862,93.046,-0.00251552,0.484529,20.1257,424.896,1.88672,0.0,0.0
328,81.75,49.3711,54.8318,127.778,114.999,90.9383,-0.00205132,0.505064,20.0863,424.816,2.10264,0.0,0.0
332,82.75,50.5777,56.1387,120.576,115.144,92.505,-0.00169645,0.529474,20.0535,424.466,1.96092,0.0,0.0
336,83.75,52.0085,56.9947,125.986,115.283,90.9642,-0.00134089,0.554736,20.0228,424.746,2.12216,0.0,0.0
340,84.75,52.3065,57.8969,121.811,115.398,90.7403,-0.000995307,0.580254,19.989,424.586,2.15315,0.0,0.0
344,85.75,53.845,59.9515,125.344,115.531,90.7764,-0.000692162,0.601049,19.949,424.516,2.15996,0.0,0.0
348,86.75,55.028,61.4133,124,115.642,91.3817,-0.000434895,0.625751,19.909,424.426,2.10903,0.0,0.0
352,87.75,55.8841,62.9017,118.519,115.734,91.3572,-0.000184004,0.650006,19.8639,424.276,2.11854,0.0,0.0
356,88.75,57.6291,64.4117,125.685,115.8,92.4412,3.69798e-05,0.674801,19.8257,424.176,2.01799,0.0,0.0
360,89.75,58.873,66.074,118.347,115.834,93.5727,0.00031677,0.69754,19.7877,424.066,1.91163,0.0,0.0
364,90.75,59.4593,67.1961,120.85,115.85,92.006,0.000636332,0.718813,19.7458,423.996,2.06415,0.0,0.0
368,91.75,60.9602,69.2132,119.359,115.861,92.5457,0.000991674,0.741749,19.6996,423.865,2.01256,0.0,0.0
372,92.75,62.3187,70.8567,118.187,115.882,90.209,0.00128871,0.76703,19.6579,423.725,2.2433,0.0,0.0
376,93.75,63.4659,72.3247,116.767,115.88,88.9623,0.0016244,0.791992,19.6211,423.665,2.36781,0.0,0.0
380,94.75,64.7625,73.7355,113.353,115.856,91.4687,0.00189696,0.816201,19.5886,423.455,2.11709,0.0,0.0
384,95.75,66.1005,75.4492,120.565,115.83,92.2506,0.0020973,0.838858,19.5587,423.415,2.03884,0.0,0.0
388,96.75,67.6707,76.7824,113.937,115.787,89.5348,0.00226683,0.859612,19.5288,423.255,2.30315,0.0,0.0
392,97.75,69.0173,78.5774,110.451,115.731,92.326,0.00246217,0.878566,19.5006,423.145,2.0238,0.0,0.0
396,98.75,69.6978,80.2497,112.008,115.675,90.5313,0.00269388,0.897958,19.4687,423.055,2.19533,0.0,0.0
400,99.75,71.1929,82.0815,111.832,115.613,86.8338,0.00291334,0.918243,19.4378,422.925,2.56401,0.0,0.0
404,100.75,72.5232,83.4233,116.961,115.576,88.5887,0.00336658,0.941497,19.4026,422.714,2.38194,0.0,0.0
408,101.75,73.9361,85.1068,120.241,115.534,88.2455,0.00386168,0.964696,19.3548,422.694,2.41345,0.0,0.0
412,102.75,74.9437,86.5435,111.232,115.635,86.332,0.00438943,0.99441,19.2937,422.484,2.61766,0.0,0.0
416,103.75,76.8219,88.5786,109.446,115.868,86.0994,0.00487962,1.02784,19.2173,422.384,2.65982,0.0,0.0
420,104.75,77.781,90.6814,112.364,116.075,85.6948,0.00537669,1.06699,19.1399,422.254,2.71801,0.0,0.0
424,105.75,80.1894,92.5105,99.5787,116.209,87.3281,0.00570281,1.11104,19.0696,422.034,2.55927,0.0,0.0
428,106.75,81.2083,94.5568,99.0734,116.33,88.3394,0.00619802,1.16052,18.9988,421.884,2.46542,0.0,0.0
432,107.75,82.7912,97.1611,108.838,116.42,87.1251,0.00676201,1.21477,18.9308,421.733,2.59632,0.0,0.0
436,108.75,85.0533,99.7407,97.9147,116.453,85.4724,0.00741426,1.26034,18.8453,421.503,2.77044,0.0,0.0
440,109.75,86.7994,101.702,99.0551,116.453,84.6492,0.00815299,1.31727,18.7231,421.383,2.85712,0.0,0.0
444,110.75,88.4256,103.666,94.3632,116.42,86.1017,0.00894858,1.38487,18.5793,421.163,2.70219,0.0,0.0
448,111.75,91.2794,107.17,91.723,116.339,83.8585,0.00986983,1.45693,18.4307,421.033,2.93238,0.0,0.0
452,112.75,93.3388,110.034,92.626,116.227,82.172,0.0108283,1.53114,18.2916,420.783,3.10577,0.0,0.0
456,113.75,95.9493,112.789,86.9251,116.071,84.4116,0.0116112,1.60966,18.1619,420.663,2.8529,0.0,0.0
460,114.75,98.3568,115.992,92.6481,115.887,82.7917,0.0125404,1.6872,18.0439,420.422,3.01225,0.0,0.0
464,115.75,100.687,119.264,84.7169,115.772,82.6608,0.0134687,1.75589,17.9349,420.202,3.01746,0.0,0.0
468,116.75,103.256,123.016,92.7153,115.825,81.7697,0.0143989,1.83345,17.831,419.992,3.11866,0.0,0.0
472,117.75,105.627,125.798,89.321,115.904,81.7022,0.0152815,1.90835,17.7205,419.802,3.13221,0.0,0.0
476,118.75,108.546,129.545,82.0104,115.994,82.0541,0.016214,1.97958,17.6015,419.622,3.10062,0.0,0.0
480,119.75,111.203,132.66,82.466,116.093,81.8645,0.0173884,2.04626,17.4717,419.351,3.12897,0.0,0.0
484,120.75,113.723,136.236,94.7601,116.194,80.5401,0.0179319,2.11484,17.3963,419.131,3.2829,0.0,0.0
488,121.75,116.076,140.028,77.014,116.292,81.6906,0.0189144,2.17705,17.3066,418.771,3.1634,0.0,0.0
492,122.75,119.043,142.973,82.1752,116.395,81.7397,0.019922,2.25055,17.2174,418.711,3.16596,0.0,0.0
496,123.75,121.162,146.756,100.579,116.482,80.1484,0.0209477,2.30333,17.1209,418.431,3.34871,0.0,0.0
500,124.75,123.842,150.278,88.66,116.558,81.058,0.0219142,2.3713,16.9969,418.1,3.25349,0.0,0.0
504,125.75,125.965,153.874,86.1458,116.611,81.7572,0.0228277,2.44624,16.8776,417.9,3.18064,0.0,0.0
508,126.75,129.225,157.148,86.1206,116.641,81.0086,0.0237339,2.52197,16.7632,417.65,3.26536,0.0,0.0
512,127.75,131.943,161.126,85.9267,116.66,82.031,0.0245804,2.59652,16.6621,417.34,3.15446,0.0,0.0
516,128.75,134.069,165.461,82.94,116.652,80.2784,0.0255489,2.66931,16.5692,417.099,3.34729,0.0,0.0
520,129.75,137.554,168.076,77.3513,116.606,81.4714,0.0265227,2.72783,16.4795,416.769,3.21161,0.0,0.0
524,130.75,139.899,172.96,81.0013,116.552,80.6825,0.0275437,2.80479,16.3711,416.519,3.29461,0.0,0.0
528,131.75,142.713,176.467,85.1993,116.471,80.7366,0.0285612,2.85528,16.2564,416.299,3.28238,0.0,0.0
532,132.75,145.829,179.578,84.6192,116.348,78.5207,0.029504,2.95371,16.1269,416.018,3.52221,0.0,0.0
536,133.75,147.935,184.026,89.5592,116.244,77.9191,0.0303602,3.05335,15.9711,415.728,3.58306,0.0,0.0
540,134.75,150.785,188.282,76.3018,116.118,78.7015,0.0310883,3.15235,15.8068,415.418,3.48384,0.0,0.0
544,135.75,153.694,191.702,80.0297,115.966,78.8074,0.031776,3.25197,15.6711,415.108,3.46006,0.0,0.0
548,136.75,156.433,196.087,66.467,115.787,80.3413,0.0324862,3.34571,15.5274,414.777,3.27357,0.0,0.0
552,137.75,159.635,199.964,75.4973,115.639,77.9912,0.0332058,3.43687,15.3805,414.567,3.52805,0.0,0.0
556,138.75,161.637,204.331,84.9024,115.452,81.4123,0.0340774,3.537,15.2448,414.137,3.129,0.0,0.0
560,139.75,165.461,208.665,69.6049,115.282,77.8862,0.0351036,3.62817,15.0932,413.947,3.5124,0.0,0.0
564,140.75,167.657,213.74,67.6722,115.101,78.6802,0.0362383,3.72778,14.9475,413.496,3.4075,0.0,0.0
568,141.75,171.306,217.345,67.8455,114.932,78.745,0.0371851,3.83173,14.7928,413.266,3.38693,0.0,0.0
572,142.75,173.512,221.367,71.123,114.775,76.8203,0.03853,3.93912,14.6106,412.806,3.59636,0.0,0.0
576,143.75,176.859,226.26,64.7558,114.646,78.1817,0.0392429,4.05207,14.4827,412.385,3.42898,0.0,0.0
580,144.75,180.124,231.201,66.3388,114.516,78.3588,0.0401923,4.1613,14.2961,412.115,3.39848,0.0,0.0
584,145.75,182.826,235.754,74.0883,114.412,78.0943,0.0411525,4.31512,14.0636,411.775,3.42067,0.0,0.0
588,146.75,186.136,240.287,78.642,114.328,77.8382,0.0422252,4.4171,13.8451,411.474,3.44354,0.0,0.0
592,147.75,189.437,245.17,71.5726,114.272,77.1168,0.0433493,4.57116,13.6317,411.074,3.52251,0.0,0.0
596,148.75,192.176,249.665,65.2458,114.234,75.4192,0.0443623,4.70817,13.4621,410.644,3.71894,0.0,0.0
600,149.75,196.086,254.663,55.1026,114.216,78.2085,0.0455665,4.85039,13.2777,410.363,3.39224,0.0,0.0
604,150.75,198.888,259.512,66.5815,114.23,75.3059,0.0468404,4.98398,13.0748,410.053,3.73211,0.0,0.0
608,151.75,201.92,264.362,58.3885,114.274,77.2014,0.0480038,5.12381,12.9096,409.523,3.51287,0.0,0.0
612,152.75,205.328,269.493,75.2516,114.327,75.3739,0.049208,5.2633,12.7244,409.172,3.73163,0.0,0.0
616,153.75,208.384,274.457,64.7726,114.4,76.4666,0.0506843,5.4106,12.5108,408.872,3.60842,0.0,0.0
620,154.75,211.518,278.757,65.3633,114.488,74.3736,0.0520675,5.5188,12.2694,408.372,3.86389,0.0,0.0
624,155.75,214.572,284.037,63.2437,114.578,80.5572,0.0532137,5.69343,12.0623,407.841,3.1555,0.0,0.0
628,156.75,218.141,289.085,58.4839,114.701,83.7785,0.0543342,5.86711,11.7933,407.501,2.81397,0.0,0.0
632,157.75,220.911,294.587,69.1935,114.819,74.9961,0.055398,6.02976,11.5777,407.03,3.81505,0.0,0.0
636,158.75,224.889,300.451,55.4934,114.935,78.2025,0.0563216,6.19932,11.3624,406.52,3.44914,0.0,0.0
640,159.75,227.96,305.331,65.2473,115.05,83.2139,0.0571277,6.37154,11.1098,406.29,2.90174,0.0,0.0
644,160.75,231.233,310.933,47.0111,115.186,84.5133,0.0578485,6.53583,10.8503,405.679,2.77353,0.0,0.0
648,161.75,234.926,316.304,59.6281,115.276,82.6492,0.0585019,6.70051,10.604,405.419,2.98025,0.0,0.0
652,162.75,237.654,322.013,46.1799,115.39,80.1646,0.0591211,6.86065,10.406,404.728,3.26254,0.0,0.0
656,163.75,240.793,327.626,69.5942,115.47,78.0032,0.0598177,7.01794,10.2055,404.398,3.51353,0.0,0.0
660,164.75,244.205,333.448,68.4775,115.552,86.5179,0.060473,7.16167,10.0088,404.078,2.59198,0.0,0.0
664,165.75,247.082,338.049,61.9133,115.642,83.7077,0.0612328,7.29791,9.83781,403.467,2.89471,0.0,0.0
668,166.75,250.679,343.145,68.3508,115.705,79.7235,0.0621638,7.45255,9.58381,403.147,3.33642,0.0,0.0
672,167.75,253.561,348.56,67.4043,115.759,84.763,0.0631451,7.63257,9.31225,402.396,2.79153,0.0,0.0
676,168.75,256.789,353.561,48.6117,115.809,90.0486,0.0644493,7.83811,8.99535,402.056,2.25357,0.0,0.0
680,169.75,259.722,359.546,51.8503,115.826,91.9353,0.0655792,8.04626,8.74762,401.636,2.06915,0.0,0.0
684,170.75,263.761,364.922,62.169,115.822,90.7274,0.0666744,8.21163,8.55294,401.215,2.18728,0.0,0.0
688,171.75,266.837,371.106,51.6007,115.82,82.7658,0.0676637,8.33991,8.40357,400.665,3.00985,0.0,0.0
692,172.75,269.807,375.809,53.9799,115.812,88.123,0.0685483,8.44424,8.29774,400.194,2.4474,0.0,0.0
696,173.75,271.494,380.951,43.5802,115.804,91.2768,0.0694462,8.549,8.22831,399.664,2.13182,0.0,0.0
700,174.75,274.555,384.587,56.5078,115.807,87.3142,0.0701997,8.61697,8.18276,399.274,2.52963,0.0,0.0
704,175.75,277.73,390.871,44.6229,115.779,84.5068,0.0706219,8.62734,8.20634,398.603,2.82021,0.0,0.0
708,176.75,280.4,394.443,55.5698,115.752,82.3838,0.0707106,8.5761,8.26513,398.313,3.046,0.0,0.0
712,177.75,282.281,397.866,69.3866,115.743,77.8206,0.0703568,8.48759,8.46354,397.892,3.55576,0.0,0.0
716,178.75,283.17,400.685,52.9265,115.783,81.3998,0.0692233,8.33372,8.75937,397.562,3.15608,0.0,0.0
720,179.75,285.877,402.663,63.5078,115.768,80.6423,0.0673971,8.08367,9.24267,397.202,3.23861,0.0,0.0
724,180.75,286.468,404.804,67.2112,115.751,73.944,0.0642377,7.75542,10.0539,396.942,4.01403,0.0,0.0
728,181.75,287.12,405.519,64.8046,115.714,72.5965,0.0603458,7.37495,10.9987,396.451,4.17589,0.0,0.0
732,182.75,287.037,404.095,71.1474,115.679,76.1693,0.0564701,6.91588,11.9556,396.311,3.74288,0.0,0.0
736,183.75,286.398,403.015,71.9382,115.644,74.5156,0.0519018,6.41004,12.6828,396.031,3.93679,0.0,0.0
740,184.75,285.168,400.129,82.792,115.614,77.286,0.0469663,5.87707,13.3459,395.821,3.60748,0.0,0.0
744,185.75,283.345,397.379,90.1889,115.577,78.5757,0.0404639,5.31211,14.2525,395.7,3.45639,0.0,0.0
748,186.75,280.703,391.705,90.543,115.558,79.7951,0.0340094,4.83823,15.1819,395.71,3.31696,0.0,0.0
752,187.75,278.771,385.921,109.857,115.523,85.1047,0.0282728,4.37892,16.1049,395.6,2.73723,0.0,0.0
756,188.75,275.428,379.435,113.109,115.508,93.3549,0.0231789,3.83543,16.9222,395.47,1.90725,0.0,0.0
760,189.75,270.301,372.832,119.157,115.481,96.6705,0.0183332,3.33243,17.5863,395.44,1.59256,0.0,0.0
764,190.75,265.664,365.522,121.769,115.545,98.0236,0.0141079,2.88289,18.1242,395.34,1.47306,0.0,0.0
768,191.75,261.522,357.737,123.973,115.697,98.4176,0.00982637,2.50867,18.6866,395.34,1.44887,0.0,0.0
772,192.75,257.503,350.027,126.699,115.838,100.413,0.00719783,2.19354,19.0476,395.3,1.27993,0.0,0.0
776,193.75,251.95,343.665,124.95,115.959,101.181,0.0050478,1.92653,19.3613,395.25,1.22114,0.0,0.0
780,194.75,248.056,336.461,129.031,116.067,100.759,0.00339514,1.63124,19.6076,395.18,1.26691,0.0,0.0
784,195.75,242.837,329.613,127.77,116.184,101.918,0.00203617,1.44278,19.8027,395.18,1.17348,0.0,0.0
788,196.75,239.148,323.136,129.372,116.248,101.879,0.000935343,1.2943,19.9497,395.14,1.18182,0.0,0.0
792,197.75,234.615,316.467,129.034,116.321,103.173,-5.25817e-06,1.16379,20.0609,394.84,1.0744,0.0,0.0
796,198.75,231.081,310.391,127.121,116.368,103.695,-0.000792484,1.05279,20.1458,395.61,1.03282,0.0,0.0
800,199.75,227.317,304.242,129.606,116.408,105.335,-0.00149381,0.961184,20.2203,395,0.895321,0.0,0.0
804,200.75,223.442,298.238,129.744,116.444,102.808,-0.00210465,0.896028,20.2849,395.02,1.11555,0.0,0.0
808,201.75,219.675,292.468,131.025,116.468,104.495,-0.00261399,0.823268,20.3478,395.14,0.971652,0.0,0.0
812,202.75,216.275,287.106,131.423,116.463,105.507,-0.00300766,0.76252,20.4065,395.01,0.884941,0.0,0.0
816,203.75,212.252,281.42,130.311,116.456,104.151,-0.00328667,0.709347,20.4511,395.02,1.00025,0.0,0.0
820,204.75,209.768,276.014,129.921,116.42,105.137,-0.00345733,0.663338,20.4844,395.02,0.913111,0.0,0.0
824,205.75,206.037,271.313,131.308,116.386,104.714,-0.00356597,0.624021,20.5115,394.93,0.946547,0.0,0.0
828,206.75,202.591,266.404,132.26,116.342,104.435,-0.00365318,0.589437,20.5335,394.93,0.967064,0.0,0.0
832,207.75,199.976,261.349,129.312,116.269,104.082,-0.00375188,0.561803,20.5535,394.88,0.991836,0.0,0.0
836,208.75,196.827,257.121,128.846,116.193,105.161,-0.00388508,0.533996,20.5743,394.86,0.89359,0.0,0.0
840,209.75,194.305,252.08,135.167,116.097,105.453,-0.0040379,0.508423,20.5923,394.86,0.861291,0.0,0.0
844,210.75,190.817,248.182,132.788,116.002,105.014,-0.00417844,0.486741,20.6069,394.85,0.891383,0.0,0.0
848,211.75,188.905,243.223,132.567,115.872,105.34,-0.00435828,0.466604,20.6192,394.82,0.85362,0.0,0.0
852,212.75,186.157,239.228,132.147,115.798,104.271,-0.00452348,0.446897,20.6311,394.77,0.939242,0.0,0.0
856,213.75,183.197,235.59,134.763,115.835,105.741,-0.00468355,0.429592,20.6396,394.78,0.816644,0.0,0.0
860,214.75,180.923,231.275,132.983,115.87,104.686,-0.00482576,0.415579,20.6496,394.74,0.909209,0.0,0.0
864,215.75,178.329,227.595,129.382,115.914,104.017,-0.00492331,0.401536,20.6599,394.72,0.969993,0.0,0.0
868,216.75,176.15,223.527,134.758,115.964,105.029,-0.00503346,0.391907,20.6698,394.7,0.887176,0.0,0.0
872,217.75,173.379,220.281,132.821,116.023,105.069,-0.00512393,0.375118,20.6785,394.67,0.888324,0.0,0.0
876,218.75,171.373,216.814,132.494,116.076,104.91,-0.0052056,0.366217,20.6866,394.67,0.905968,0.0,0.0
880,219.75,169.086,213.726,133.444,116.143,105.257,-0.00528391,0.354996,20.6931,394.66,0.881521,0.0,0.0
884,220.75,167.052,209.853,133.386,116.202,104.868,-0.00534868,0.345086,20.6984,394.63,0.919288,0.0,0.0
888,221.75,164.897,206.969,134.223,116.254,105.436,-0.00539862,0.336139,20.7037,394.599,0.874904,0.0,0.0
892,222.75,163.114,203.602,134.356,116.325,106.172,-0.00543991,0.327948,20.7082,394.589,0.818091,0.0,0.0
896,223.75,160.818,200.535,136.047,116.375,106.003,-0.00547646,0.320389,20.7128,394.609,0.836183,0.0,0.0
900,224.75,159.478,197.694,139.885,116.434,105.383,-0.00550647,0.313132,20.7158,394.519,0.893263,0.0,0.0
904,225.75,156.836,195.014,135.622,116.488,104.725,-0.00556212,0.306553,20.7184,394.509,0.953496,0.0,0.0
908,226.75,155.94,192.026,132.978,116.527,105.285,-0.00561634,0.300365,20.7209,394.509,0.908765,0.0,0.0
912,227.75,153.089,189.144,135.35,116.564,104.744,-0.0056769,0.29482,20.724,394.519,0.957733,0.0,0.0
916,228.75,151.663,186.633,135.598,116.607,105.023,-0.00573911,0.290104,20.7282,394.469,0.937209,0.0,0.0
920,229.75,150.344,183.925,132.662,116.622,105.812,-0.00580464,0.284812,20.7333,394.449,0.871296,0.0,0.0
924,230.75,147.926,181.335,133.044,116.66,105.521,-0.00587952,0.279348,20.7393,394.449,0.898881,0.0,0.0
928,231.75,147.374,179.078,136.091,116.688,106.019,-0.00594963,0.273456,20.745,394.449,0.858871,0.0,0.0
932,232.75,145.687,176.706,137.578,116.697,106.068,-0.00602918,0.267224,20.7519,394.429,0.855415,0.0,0.0
936,233.75,144.006,174.287,134.677,116.721,105.517,-0.00609523,0.261449,20.7596,394.419,0.903927,0.0,0.0
940,234.75,142.285,171.64,137.232,116.703,104.9,-0.00615878,0.254598,20.7678,394.419,0.955038,0.0,0.0
944,235.75,140.636,169.944,136.949,116.72,105.847,-0.00621483,0.248161,20.7756,394.389,0.875911,0.0,0.0
948,236.75,139.479,167.208,138.638,116.712,105.517,-0.00628756,0.242378,20.7833,394.359,0.903208,0.0,0.0
952,237.75,138.599,165.156,137.81,116.714,105.21,-0.00637123,0.236637,20.7913,394.349,0.929488,0.0,0.0
956,238.75,136.249,163.218,138.758,116.684,106.383,-0.00646863,0.230957,20.7977,394.339,0.82785,0.0,0.0
960,239.75,135.031,161.523,139.314,116.658,105.679,-0.00656135,0.225761,20.8027,394.329,0.885397,0.0,0.0
964,240.75,133.979,159.19,141.812,116.631,105.445,-0.00664413,0.221446,20.8073,394.329,0.90312,0.0,0.0
968,241.75,132.672,157.379,139.321,116.603,105.827,-0.0067313,0.217686,20.8116,394.299,0.868635,0.0,0.0
972,242.75,131.022,155.601,140.879,116.56,106.061,-0.00681942,0.213561,20.8164,394.289,0.845524,0.0,0.0
976,243.75,130.415,153.577,137.203,116.513,106.246,-0.00689332,0.209472,20.8199,394.269,0.826299,0.0,0.0
980,244.75,128.681,151.916,137.759,116.456,106.708,-0.00699494,0.205534,20.8217,394.259,0.78298,0.0,0.0
984,245.75,128.289,149.205,140.729,116.395,106.155,-0.00709453,0.201102,20.8227,394.289,0.824854,0.0,0.0
988,246.75,126.37,148.256,139.278,116.333,107.031,-0.00717299,0.197484,20.8251,394.259,0.746474,0.0,0.0
992,247.75,125.825,146.697,137.845,116.277,107.043,-0.00722165,0.193374,20.829,394.269,0.741193,0.0,0.0
996,248.75,124.659,144.789,139.356,116.197,107.057,-0.00726424,0.188884,20.834,394.269,0.73383,0.0,0.0
1000,249.75,123.534,143.386,139.301,116.139,106.4,-0.00731045,0.184276,20.8411,394.219,0.784438,0.0,0.0
1004,250.75,121.936,142.054,137.042,116.07,107.217,-0.00735033,0.180012,20.8482,394.209,0.71065,0.0,0.0
1008,251.75,120.926,139.838,142.371,115.991,107.186,-0.00737649,0.175274,20.8547,394.219,0.707171,0.0,0.0
1012,252.75,119.753,138.377,139.258,115.913,107.084,-0.00738864,0.17091,20.8606,394.189,0.709643,0.0,0.0
1016,253.75,118.914,136.722,141.005,115.828,106.976,-0.00738012,0.166568,20.8656,394.199,0.712151,0.0,0.0
1020,254.75,117.581,135.422,138.51,115.742,107.05,-0.00734677,0.162671,20.8708,394.189,0.699293,0.0,0.0
1024,255.75,117.011,133.554,141.06,115.666,107.038,-0.00731658,0.159029,20.8761,394.169,0.694399,0.0,0.0
1028,256.75,116.183,132.022,138.219,115.584,106.799,-0.00730113,0.155246,20.881,394.169,0.708045,0.0,0.0
1032,257.75,114.706,131.139,139.886,115.484,106.776,-0.00730732,0.151636,20.8863,394.169,0.702211,0.0,0.0
1036,258.75,113.983,129.471,139.219,115.405,106.522,-0.00733979,0.148089,20.8909,394.189,0.717476,0.0,0.0
1040,259.75,113.139,127.895,140.341,115.323,106.696,-0.00741335,0.144716,20.8955,394.189,0.696395,0.0,0.0
1044,260.75,112.018,126.845,138.557,115.234,106.714,-0.00749909,0.141433,20.8993,394.169,0.688047,0.0,0.0
1048,261.75,110.647,125.957,141.851,115.144,106.773,-0.00757287,0.138293,20.903,394.149,0.676051,0.0,0.0
1052,262.75,110.133,124.476,139.723,115.071,106.554,-0.00763017,0.135336,20.9071,394.159,0.688857,0.0,0.0
1056,263.75,109.477,122.557,139.375,115.004,106.669,-0.00765203,0.132395,20.9104,394.119,0.673905,0.0,0.0
1060,264.75,108.545,121.73,143.814,114.932,106.328,-0.00765064,0.129761,20.914,394.089,0.696921,0.0,0.0
1064,265.75,107.817,120.594,142.113,114.865,106.11,-0.00763731,0.127007,20.9166,394.109,0.710192,0.0,0.0
1068,266.75,106.799,119.019,142.397,114.803,106.159,-0.00761851,0.124313,20.9184,394.109,0.701211,0.0,0.0
1072,267.75,106.184,118.218,140.516,114.736,106.031,-0.00760263,0.121785,20.9194,394.099,0.706731,0.0,0.0
1076,268.75,105.467,116.788,138.866,114.675,105.972,-0.00760244,0.119613,20.9199,394.079,0.706957,0.0,0.0
1080,269.75,104.715,115.952,144.589,114.612,105.908,-0.00762198,0.117646,20.9205,394.119,0.707461,0.0,0.0
1084,270.75,103.28,114.528,140.397,114.574,106.002,-0.00763767,0.115917,20.9219,394.119,0.696544,0.0,0.0
1088,271.75,102.914,113.379,141.157,114.527,105.674,-0.00764548,0.114087,20.9239,394.109,0.72065,0.0,0.0
1092,272.75,101.695,112.454,142.046,114.491,105.45,-0.00764859,0.112268,20.9252,394.099,0.736846,0.0,0.0
1096,273.75,100.666,111.545,142.45,114.449,106.052,-0.00763725,0.110458,20.9267,394.089,0.682571,0.0,0.0
1100,274.75,100.179,109.43,139.809,114.424,105.785,-0.00762756,0.108704,20.9287,394.109,0.703145,0.0,0.0
1104,275.75,98.9593,109.409,141.387,114.396,106.097,-0.00762121,0.107086,20.9309,394.119,0.67462,0.0,0.0
1108,276.75,98.6357,108.064,140.731,114.384,105.882,-0.00761929,0.105378,20.9337,394.069,0.691871,0.0,0.0
1112,277.75,98.0608,107.719,142.367,114.373,105.463,-0.00763151,0.103409,20.9363,394.079,0.7265,0.0,0.0
1116,278.75,97.8291,106.509,143.736,114.362,105.651,-0.00765723,0.101466,20.9393,394.059,0.709642,0.0,0.0
1120,279.75,97.3663,105.619,142.035,114.364,105.742,-0.00769195,0.099599,20.9419,394.089,0.70207,0.0,0.0
1124,280.75,96.5434,104.862,140.906,114.372,105.603,-0.00775575,0.0977851,20.9436,394.069,0.714457,0.0,0.0
1128,281.75,95.3313,103.502,141.326,114.365,105.741,-0.00782319,0.0960875,20.9455,394.069,0.70226,0.0,0.0
1132,282.75,95.2126,102.915,140.013,114.373,105.854,-0.00787475,0.0943353,20.9476,394.059,0.693295,0.0,0.0
1136,283.75,94.5044,102.078,140.973,114.39,105.551,-0.00790437,0.0927635,20.9489,394.049,0.720368,0.0,0.0
1140,284.75,93.8091,101.37,141.586,114.406,105.691,-0.00791351,0.0913574,20.9498,394.049,0.709735,0.0,0.0
1144,285.75,93.4378,100.781,142.105,114.453,105.87,-0.00790995,0.0901674,20.9512,394.069,0.698228,0.0,0.0
1148,286.75,92.9541,99.8034,140.79,114.466,105.618,-0.00788459,0.0891284,20.9521,394.059,0.72061,0.0,0.0
1152,287.75,91.9401,98.7936,142.845,114.507,105.98,-0.00786175,0.0882965,20.9526,394.039,0.693157,0.0,0.0
1156,288.75,91.5976,97.5071,143.98,114.531,106.081,-0.00785919,0.0875826,20.953,394.029,0.686518,0.0,0.0
1160,289.75,90.7348,96.9798,143.365,114.574,105.573,-0.00786756,0.0867322,20.9533,394.019,0.732918,0.0,0.0
1164,290.75,90.3212,96.6213,143.362,114.617,105.824,-0.00790227,0.0859035,20.9533,394.029,0.71495,0.0,0.0
1168,291.75,90.2301,95.4477,141.622,114.669,105.482,-0.00793403,0.0851308,20.9532,394.029,0.748044,0.0,0.0
1172,292.75,89.5285,95.0496,142.793,114.696,106.112,-0.00794588,0.0845055,20.9535,394.059,0.696775,0.0,0.0
1176,293.75,88.2748,94.5698,142.943,114.752,105.828,-0.00794647,0.0837178,20.9544,394.039,0.725109,0.0,0.0
1180,294.75,88.4825,93.2973,139.948,114.814,105.968,-0.00793128,0.082896,20.9555,394.039,0.718183,0.0,0.0
1184,295.75,87.6059,93.3661,142.816,114.858,106.477,-0.00793459,0.0821406,20.9562,394.059,0.678625,0.0,0.0
1188,296.75,87.3413,92.2969,143.83,114.911,106.098,-0.00796402,0.081213,20.9566,394.039,0.714689,0.0,0.0
1192,297.75,86.8846,91.6819,143.435,114.969,106.167,-0.0080058,0.0803844,20.9569,394.049,0.713424,0.0,0.0
1196,298.75,86.7135,90.7379,144.882,115.017,106.763,-0.00804915,0.0795615,20.9578,394.069,0.667052,0.0,0.0
1200,299.75,86.1423,90.366,146.138,115.069,106.702,-0.00810007,0.0788362,20.9591,394.079,0.676128,0.0,0.0
1204,300.75,85.4936,89.6576,144.301,115.125,106.278,-0.00812726,0.078132,20.9601,394.099,0.716194,0.0,0.0
1208,301.75,84.5834,88.9632,143.332,115.173,106.473,-0.00813139,0.0774278,20.9608,394.109,0.703572,0.0,0.0
1212,302.75,84.8487,88.8398,143.098,115.227,106.805,-0.00811464,0.0768522,20.9613,394.119,0.679856,0.0,0.0
1216,303.75,84.6295,88.3512,141.828,115.282,106.965,-0.00808771,0.0760943,20.9616,394.109,0.670687,0.0,0.0
1220,304.75,83.8013,87.4664,144.716,115.322,106.74,-0.00805635,0.075521,20.9617,394.079,0.692671,0.0,0.0
1224,305.75,83.5254,86.9977,144.136,115.392,107.516,-0.00804391,0.0751049,20.9619,394.099,0.6332,0.0,0.0
1228,306.75,83.1529,85.924,139.997,115.419,107.104,-0.00805168,0.0748411,20.962,394.099,0.669712,0.0,0.0
1232,307.75,82.8165,86.2176,140.252,115.463,107.696,-0.00808689,0.0746455,20.962,394.119,0.623778,0.0,0.0
1236,308.75,82.254,85.283,148.426,115.501,106.931,-0.00812694,0.0744244,20.962,394.089,0.690578,0.0,0.0
1240,309.75,82.1963,84.8889,143.284,115.551,106.88,-0.00815187,0.0741564,20.9621,394.059,0.698705,0.0,0.0
1244,310.75,81.1504,84.2726,140.702,115.583,107.33,-0.00815031,0.0738188,20.9621,394.029,0.663595,0.0,0.0
1248,311.75,81.2528,83.3517,143.319,115.626,106.964,-0.00811984,0.0733694,20.9621,393.969,0.697456,0.0,0.0
1252,312.75,80.9605,83.2193,142.887,115.657,106.84,-0.00808577,0.0731145,20.9621,393.969,0.710283,0.0,0.0
1256,313.75,80.9006,82.9744,141.018,115.693,107.244,-0.00804094,0.072938,20.9619,393.969,0.679234,0.0,0.0
1260,314.75,80.4739,82.1732,144.81,115.725,107.722,-0.00801937,0.0727171,20.9615,393.949,0.641939,0.0,0.0
1264,315.75,79.9413,82.5269,146.53,115.752,106.917,-0.00802762,0.072479,20.9613,393.959,0.711133,0.0,0.0
1268,316.75,78.9337,81.7522,143.604,115.792,107.378,-0.00803446,0.0721613,20.9611,393.959,0.675687,0.0,0.0
1272,317.75,79.1124,81.3997,141.267,115.817,107.769,-0.00802543,0.0717503,20.961,393.959,0.645119,0.0,0.0
1276,318.75,79.3283,80.5284,143.359,115.837,107.376,-0.00795866,0.0711019,20.9622,393.979,0.679338,0.0,0.0
1280,319.75,78.9303,79.7503,145.071,115.86,107.471,-0.0078936,0.0701761,20.9642,393.979,0.673291,0.0,0.0
1284,320.75,78.4329,79.7252,141.653,115.867,106.844,-0.00785759,0.0694219,20.9666,393.979,0.726139,0.0,0.0
1288,321.75,77.9462,79.7696,143.369,115.899,107.294,-0.00785167,0.0681262,20.9688,393.979,0.690971,0.0,0.0
1292,322.75,77.5571,79.2747,144.157,115.916,107.322,-0.00789135,0.066711,20.9707,393.979,0.689964,0.0,0.0
1296,323.75,77.1776,78.8863,144.863,115.933,107.335,-0.00794791,0.0654962,20.9728,393.989,0.690268,0.0,0.0
1300,324.75,76.7729,78.4317,146.575,115.948,108.787,-0.00800892,0.0643712,20.9742,393.989,0.571069,0.0,0.0
1304,325.75,76.8512,77.9351,148.5,115.954,107.732,-0.00809614,0.0634742,20.9757,393.989,0.658778,0.0,0.0
1308,326.75,76.4689,77.2491,141.063,115.964,107.221,-0.00820281,0.0627175,20.9769,393.969,0.702165,0.0,0.0
1312,327.75,75.8593,76.8654,144.065,115.975,107.434,-0.00831549,0.0620221,20.9776,393.989,0.685212,0.0,0.0
1316,328.75,75.2065,76.0952,149.727,115.973,107.599,-0.00840557,0.0614172,20.9781,393.989,0.671313,0.0,0.0
1320,329.75,75.3883,76.4676,145.181,115.98,107.87,-0.00847708,0.0608805,20.9785,394.039,0.649291,0.0,0.0
1324,330.75,75.0214,75.7224,148.528,115.975,108.27,-0.0085128,0.0604607,20.9786,394.079,0.615849,0.0,0.0
1328,331.75,74.6719,75.5518,144.601,115.976,107.259,-0.00854809,0.0600845,20.9794,394.089,0.699869,0.0,0.0
1332,332.75,74.2405,74.6085,141.077,115.962,107.234,-0.00858473,0.0597384,20.9801,394.109,0.700938,0.0,0.0
1336,333.75,74.2719,74.8716,142.621,115.975,107.12,-0.00862225,0.0594272,20.9805,394.089,0.711389,0.0,0.0
1340,334.75,74.288,74.3129,146.095,115.957,108.267,-0.00865572,0.0590373,20.9813,394.069,0.614623,0.0,0.0
1344,335.75,73.8002,74.6741,144.378,115.953,108.801,-0.00867092,0.0586964,20.9821,394.069,0.570253,0.0,0.0
1348,336.75,72.9173,73.4451,146.767,115.94,108.215,-0.00865857,0.0583039,20.9826,394.039,0.617637,0.0,0.0
1352,337.75,73.5251,73.509,146.462,115.929,107.526,-0.00862813,0.0579392,20.9831,394.029,0.673976,0.0,0.0
1356,338.75,72.4269,72.9226,148.872,115.907,108.165,-0.00859377,0.0576404,20.9837,394.049,0.619265,0.0,0.0
1360,339.75,72.8923,72.9891,141.521,115.916,108.46,-0.00857177,0.0574284,20.9847,394.049,0.595521,0.0,0.0
1364,340.75,72.4467,72.2488,144.358,115.908,107.474,-0.00855009,0.0571132,20.9854,394.049,0.676657,0.0,0.0
1368,341.75,72.2448,71.9969,146.509,115.906,107.945,-0.00851854,0.0568308,20.9858,394.029,0.637363,0.0,0.0
1372,342.75,72.0982,72.1231,146.434,115.883,107.173,-0.00848669,0.0564695,20.9861,394.029,0.699854,0.0,0.0
1376,343.75,71.4794,71.7038,143.354,115.875,108.478,-0.00846402,0.0561531,20.9863,394.009,0.590867,0.0,0.0
1380,344.75,71.5023,71.4304,145.858,115.854,107.727,-0.00844513,0.055944,20.9864,394.009,0.651528,0.0,0.0
1384,345.75,71.3361,70.5838,144.43,115.851,107.882,-0.00842805,0.0558261,20.9865,394.009,0.638403,0.0,0.0
1388,346.75,71.0103,70.673,141.691,115.842,107.327,-0.0084188,0.0557088,20.9865,394.019,0.683829,0.0,0.0
1392,347.75,71.1587,70.4548,147.3,115.834,107.715,-0.00843041,0.0555069,20.9865,394.009,0.650927,0.0,0.0
1396,348.75,70.8266,70.5641,142.362,115.814,108.022,-0.00845778,0.0552991,20.9866,394.009,0.623863,0.0,0.0
1400,349.75,70.703,69.8494,143.566,115.805,108.754,-0.00848278,0.0551375,20.9866,394.009,0.562676,0.0,0.0
1404,350.75,70.2421,69.9399,144.666,115.802,107.803,-0.00851716,0.055107,20.9866,394.009,0.641146,0.0,0.0
1408,351.75,70.2231,69.4091,144.41,115.782,108.147,-0.00856443,0.0551121,20.9866,394.009,0.611004,0.0,0.0
1412,352.75,69.9725,69.2509,141.619,115.764,107.702,-0.00861793,0.0551353,20.9866,393.989,0.646577,0.0,0.0
1416,353.75,69.8751,68.7825,148.685,115.757,108.177,-0.00867325,0.0551339,20.9866,393.979,0.606659,0.0,0.0
1420,354.75,69.4185,69.2938,144.747,115.739,107.972,-0.00871131,0.0550721,20.9866,393.989,0.622215,0.0,0.0
1424,355.75,69.1892,68.7859,146.481,115.719,108.149,-0.00871906,0.0550138,20.9866,393.989,0.606005,0.0,0.0
1428,356.75,69.1165,68.6735,144.445,115.704,107.919,-0.00871937,0.0549901,20.9866,393.979,0.623932,0.0,0.0
1432,357.75,68.5366,68.9136,148.143,115.697,107.559,-0.00868362,0.0549957,20.9862,393.969,0.653335,0.0,0.0
1436,358.75,68.5836,68.1597,142.164,115.683,108.085,-0.00865567,0.0549636,20.9855,393.979,0.608563,0.0,0.0
1440,359.75,68.5508,68.1298,146.62,115.663,107.844,-0.00862492,0.0549624,20.9851,393.979,0.626984,0.0,0.0
1444,360.75,68.2111,67.7255,149.003,115.662,108.677,-0.00858475,0.0549471,20.9845,393.979,0.557967,0.0,0.0
1448,361.75,68.2914,67.3174,145.124,115.646,107.418,-0.00855428,0.0549596,20.984,393.989,0.661152,0.0,0.0
1452,362.75,67.7699,66.8926,154.817,115.646,107.971,-0.00854384,0.0549902,20.9837,394.009,0.615077,0.0,0.0
1456,363.75,67.6458,67.0853,145.5,115.642,108.45,-0.0085752,0.0550104,20.9834,394.039,0.575093,0.0,0.0
1460,364.75,67.2446,65.8186,148.966,115.619,108.216,-0.00860994,0.0550037,20.9833,394.069,0.59269,0.0,0.0
1464,365.75,67.1681,66.2467,145.338,115.613,107.148,-0.00863903,0.0549742,20.9832,394.079,0.681075,0.0,0.0
1468,366.75,67.0991,66.1747,148.961,115.602,107.901,-0.00865888,0.0549357,20.9831,394.109,0.617522,0.0,0.0
1472,367.75,66.7421,65.8501,146.029,115.599,107.619,-0.00867744,0.0548991,20.9831,394.029,0.640712,0.0,0.0
1476,368.75,66.7321,65.9764,146.379,115.591,107.445,-0.00871862,0.0548751,20.9831,394.089,0.65465,0.0,0.0
1480,369.75,66.6169,65.7101,145.155,115.577,108.536,-0.00879059,0.0547337,20.9831,394.069,0.562998,0.0,0.0
1484,370.75,66.6617,65.796,145.213,115.576,107.564,-0.00886968,0.0545906,20.9833,394.059,0.643543,0.0,0.0
1488,371.75,65.637,64.5907,151.033,115.63,108.541,-0.00895345,0.0544464,20.984,394.059,0.566662,0.0,0.0
1492,372.75,66.4821,64.241,144.637,115.701,107.772,-0.0090145,0.0542726,20.9844,393.999,0.635929,0.0,0.0
1496,373.75,65.9838,64.9815,146.918,115.762,108.634,-0.00903392,0.0541372,20.9847,393.989,0.569234,0.0,0.0
1500,374.75,66.1615,64.8612,150.838,115.817,108.706,-0.00901132,0.0540484,20.9849,394.029,0.567622,0.0,0.0
1504,375.75,64.8996,63.5624,148.638,115.874,107.615,-0.00892552,0.0539398,20.9851,394.069,0.662367,0.0,0.0
1508,376.75,65.4812,63.9282,149.501,115.946,108.293,-0.00881663,0.0538183,20.9852,394.059,0.611645,0.0,0.0
1512,377.75,65.5836,64.1011,143.422,115.986,108.3,-0.00870024,0.0536884,20.9852,394.059,0.614198,0.0,0.0
1516,378.75,64.9964,63.8602,145.053,116.05,107.703,-0.00861767,0.0535635,20.9852,394.049,0.668615,0.0,0.0
1520,379.75,64.7942,63.4758,147.18,116.081,108.76,,0.0534907,,394.029,0.583488,0.0,0.0
1524,380.75,64.8375,63.9553,145.919,116.105,109.01,,0.0533788,,394.039,0.564834,0.0,0.0
1528,381.75,64.6636,63.5082,146.997,116.153,108.12,,0.0532273,,394.039,0.641981,0.0,0.0
1532,382.75,65.0527,63.5216,142.858,116.18,107.847,,,,394.029,0.666681,0.0,0.0
1536,383.75,64.5415,63.2907,147.544,116.23,108.27,,,,393.999,0.635455,0.0,0.0
1540,384.75,64.2047,63.3033,149.25,116.264,108.595,,,,393.989,0.611285,0.0,0.0
1544,385.75,64.1399,63.2516,143.208,116.278,108.268,,,,393.999,0.639269,0.0,0.0
1548,386.75,63.8195,62.5596,142.917,116.301,109.349,,,,393.999,0.552117,0.0,0.0
1552,387.75,63.802,62.0765,149.83,116.322,108.99,,,,394.019,0.583153,0.0,0.0
1556,388.75,63.7796,62.7209,143.685,116.356,109.115,,,,394.019,0.57547,0.0,0.0
1560,389.75,63.5389,62.5183,145.859,116.388,109.16,,,,394.019,0.574252,0.0,0.0
1563,390.5,63.4945,62.4357,143.813,116.414,109.05,,,,394.019,0.585317,0.0,0.0