File: 01_Data/HDPE/Cone/HDPE_Cone_HF75Scan_220201_R1.csv
Names,Time,Stack TC,Smoke TC,Exh Press,Smoke Comp,Smoke Meas,CO Meter,CO2 Meter,O2 Meter,Sample Mass,Ext Coeff,Start Test,Flame Verif
Chan Gain,,500,500,1,1,1,1,1,1,1,1,1.0,1.0
Offset,,0,0,0.14021,0,0,0,0,0,0,0,0.0,0.0
Gain,,1,1,25.011,13.3046,13.3037,1,1,1,1.00087,1.10262,1.0,1.0
Units,sec,C,C,Pa,%,%,%,%,%,g,/m,,
Baseline,,33.0588,37.0958,136.017,99.1871,104.839,0.00683182,0.0971659,20.9247,-0.869425,-0.535963,,
3,0.5,29.8579,32.9691,135.606,99.5148,105.072,0.00677783,0.111991,20.9084,930.732,-0.525611,0.0,0.0
6,1.25,30.744,33.476,133.239,99.5087,105.273,0.00669594,0.111265,20.9091,930.802,-0.544611,0.0,0.0
9,2,30.2075,33.1582,139.237,99.5116,104.975,0.00660592,0.110449,20.9102,930.812,-0.516953,0.0,0.0
12,2.75,30.3764,33.2078,132.728,99.4973,105.428,0.00652656,0.109731,20.9113,930.862,-0.560029,0.0,0.0
15,3.5,30.594,33.609,134.195,99.4815,105.201,0.00645889,0.108994,20.9125,930.852,-0.540725,0.0,0.0
18,4.25,30.1635,33.2626,135.015,99.4754,105.448,0.00640282,0.108334,20.9134,930.812,-0.563948,0.0,0.0
21,5,30.7059,33.6491,141.348,99.4811,105.339,0.00637181,0.107706,20.9141,930.822,-0.55341,0.0,0.0
24,5.75,31.0146,33.6826,132.695,99.4559,105.129,0.00636607,0.107089,20.9145,930.832,-0.536529,0.0,0.0
27,6.5,30.6173,34.2459,141.076,99.4462,104.87,0.00637768,0.106517,20.9149,930.852,-0.513653,0.0,0.0
30,7.25,30.9393,34.1961,135.445,99.4433,105.195,0.00641314,0.105961,20.9161,930.832,-0.543802,0.0,0.0
33,8,30.7691,34.3167,134.97,99.4372,104.83,0.00644149,0.105409,20.9176,930.832,-0.510815,0.0,0.0
36,8.75,30.7935,34.4937,136.682,99.4324,105.138,0.00645468,0.105006,20.9191,930.802,-0.539679,0.0,0.0
39,9.5,31.3317,34.5528,137.112,99.4125,104.725,0.00644965,0.104481,20.9202,930.782,-0.503516,0.0,0.0
42,10.25,31.2948,34.4319,135.835,99.4226,105.098,0.00642225,0.103891,20.921,930.802,-0.536927,0.0,0.0
45,11,31.9198,34.4782,136.74,99.4044,104.625,0.00639214,0.103278,20.9216,930.802,-0.495117,0.0,0.0
48,11.75,31.4622,34.8306,135.244,99.408,105.17,0.00636129,0.102636,20.9225,930.782,-0.54496,0.0,0.0
51,12.5,31.7877,34.7995,132.541,99.3812,104.922,0.00634866,0.102061,20.9233,930.762,-0.524727,0.0,0.0
54,13.25,31.498,34.982,137.031,99.3642,105.183,0.00635632,0.101458,20.9239,930.802,-0.550423,0.0,0.0
57,14,31.6036,34.8429,134.227,99.3796,105.085,0.00638274,0.100869,20.9242,930.792,-0.539919,0.0,0.0
60,14.75,31.9736,34.8102,133.673,99.3743,104.867,0.00641787,0.100376,20.9245,930.832,-0.520383,0.0,0.0
63,15.5,31.3315,34.7157,138.306,99.3512,105.014,0.00645137,0.0999388,20.9248,930.812,-0.536144,0.0,0.0
66,16.25,31.7471,35.4299,134.848,99.3564,104.864,0.00647756,0.0997289,20.925,930.792,-0.521785,0.0,0.0
69,17,31.7526,35.6018,136.879,99.3378,105.262,0.00649291,0.0996541,20.9249,930.782,-0.560307,0.0,0.0
72,17.75,31.6703,35.7509,134.67,99.3362,104.803,0.00649921,0.0998977,20.9244,930.792,-0.518142,0.0,0.0
75,18.5,31.8773,35.3566,134.638,99.3179,104.985,0.00649817,0.100348,20.9241,930.782,-0.536693,0.0,0.0
78,19.25,31.6858,35.4889,134.864,99.3081,104.882,0.00650597,0.100906,20.9238,930.762,-0.528174,0.0,0.0
81,20,32.0534,35.4347,139.429,99.3122,104.693,0.00652629,0.10151,20.923,930.772,-0.510316,0.0,0.0
84,20.75,32.038,35.3312,136.144,99.3073,104.714,0.00658868,0.102047,20.9225,930.792,-0.512779,0.0,0.0
87,21.5,31.6255,35.4631,136.009,99.2817,105.156,0.00665445,0.102439,20.922,930.752,-0.556023,0.0,0.0
90,22.25,31.9123,36.1199,139.236,99.2809,104.62,0.00678464,0.102782,20.9213,930.732,-0.506608,0.0,0.0
93,23,32.5679,36.0814,138.262,99.2736,104.545,0.00695365,0.102976,20.9206,930.752,-0.500411,0.0,0.0
96,23.75,31.6332,35.8831,131.182,99.2769,104.063,0.00716343,0.103018,20.92,930.752,-0.455444,0.0,0.0
99,24.5,32.0673,35.9336,137.743,99.2578,103.42,0.00753463,0.102995,20.9188,930.742,-0.397308,0.0,0.0
102,25.25,31.887,35.8892,134.848,99.2403,103.517,0.00774708,0.103127,20.917,930.742,-0.408118,0.0,0.0
105,26,32.1873,35.9712,133.791,99.2395,103.067,0.00799251,0.103518,20.915,930.732,-0.366036,0.0,0.0
108,26.75,31.9217,35.9518,132.691,99.2371,103.603,0.00831045,0.105029,20.9104,930.742,-0.416473,0.0,0.0
111,27.5,32.6882,36.4148,131.26,99.2188,103.825,0.00856573,0.108499,20.904,930.752,-0.438928,0.0,0.0
114,28.25,31.9221,35.7976,134.78,99.2091,104.063,0.00873582,0.110064,20.8981,930.682,-0.462053,0.0,0.0
117,29,32.2383,36.6588,132.068,99.1981,104.529,0.00885844,0.115467,20.8917,930.692,-0.506269,0.0,1.0
120,29.75,33.1165,36.7327,133.512,99.1871,104.469,0.00885426,0.120976,20.8835,930.712,-0.501777,0.0,1.0
123,30.5,33.3053,37.2568,133.021,99.1802,104.506,0.00878704,0.127679,20.8711,931.933,-0.505945,0.0,1.0
126,31.25,33.6172,37.76,127.635,99.1624,104.379,0.00869129,0.13684,20.857,930.622,-0.495919,0.0,1.0
129,32,33.7051,38.1725,130.495,99.1538,104.505,0.00860157,0.143518,20.8428,930.592,-0.508368,0.0,1.0
132,32.75,33.5293,38.4938,127.468,99.1616,104.11,0.00852356,0.155221,20.826,930.502,-0.470985,0.0,1.0
135,33.5,34.1285,38.8304,130.598,99.1543,103.973,0.00846669,0.16594,20.8109,930.522,-0.459017,0.0,1.0
138,34.25,33.8473,39.69,125.868,99.1339,103.142,0.00845585,0.177496,20.7908,930.512,-0.383377,0.0,1.0
141,35,34.6933,40.3359,129.033,99.1303,102.586,0.00846855,0.190269,20.7723,930.522,-0.331472,0.0,0.0
144,35.75,34.9196,40.8226,122.967,99.1384,100.159,0.00851306,0.201434,20.7482,930.502,-0.0990633,0.0,0.0
147,36.5,35.6916,41.5532,126.65,99.1274,98.9374,0.00863753,0.216446,20.7233,930.452,0.018564,0.0,0.0
150,37.25,36.31,42.341,123.899,99.1092,94.9789,0.00883493,0.22739,20.6916,930.412,0.411713,0.0,0.0
153,38,37.1617,43.1175,123.93,99.1071,94.2148,0.00903499,0.243033,20.6592,930.372,0.489639,0.0,0.0
156,38.75,37.4292,43.4451,122.204,99.1088,92.9737,0.00927688,0.258956,20.6274,930.342,0.618058,0.0,0.0
159,39.5,38.039,44.6252,127.132,99.1076,91.2044,0.00964405,0.275415,20.5934,930.312,0.803779,0.0,0.0
162,40.25,38.5587,45.4784,127.122,99.0893,89.9637,0.00991173,0.292416,20.5639,930.292,0.934475,0.0,0.0
165,41,38.7039,46.3131,117.978,99.0958,85.7113,0.0103733,0.313548,20.5294,930.272,1.40345,0.0,0.0
168,41.75,39.585,47.6928,118.624,99.0933,85.099,0.0108106,0.335288,20.4987,930.121,1.47255,0.0,0.0
171,42.5,40.9886,48.8702,117.033,99.0974,84.2123,0.0113019,0.353838,20.4609,930.041,1.57425,0.0,0.0
174,43.25,41.0116,49.9512,117.511,99.0966,82.9083,0.0118939,0.378285,20.4216,929.981,1.72512,0.0,0.0
177,44,42.6525,51.9853,119.56,99.0897,82.8657,0.012489,0.396107,20.3788,929.871,1.72942,0.0,0.0
180,44.75,43.2999,53.0125,115.493,99.073,84.5773,0.0130849,0.422823,20.3319,929.831,1.53004,0.0,0.0
183,45.5,44.096,53.8493,112.624,99.0787,76.9109,0.0136776,0.446508,20.2736,929.811,2.44962,0.0,0.0
186,46.25,45.0331,56.5079,115.872,99.0795,77.0555,0.0142719,0.470975,20.2245,929.751,2.43155,0.0,0.0
189,47,46.4963,57.7681,109.54,99.0694,77.293,0.0147742,0.498903,20.1774,929.691,2.40079,0.0,0.0
192,47.75,47.3389,59.0515,114.402,99.0657,75.7705,0.0153349,0.526498,20.1366,929.581,2.59285,0.0,0.0
195,48.5,48.4845,61.2038,111.794,99.0767,76.5918,0.0158764,0.553871,20.0959,929.571,2.48964,0.0,0.0
198,49.25,49.2111,62.5879,109.046,99.0913,75.7376,0.0163886,0.580959,20.0483,929.401,2.59954,0.0,0.0
201,50,50.75,64.4894,107.119,99.0657,74.2106,0.0168167,0.608988,19.9963,929.301,2.79404,0.0,0.0
204,50.75,51.879,66.1622,110.623,99.0572,76.0738,0.0172043,0.632951,19.9423,929.181,2.55338,0.0,0.0
207,51.5,52.5664,67.842,109.571,99.0544,75.902,0.0175411,0.663057,19.8961,929.161,2.57496,0.0,0.0
210,52.25,53.7994,69.6934,111.726,99.0657,74.5119,0.0178098,0.691868,19.8562,929.111,2.75486,0.0,0.0
213,53,55.4526,72.0138,104.878,99.0552,76.3519,0.0180056,0.719544,19.8166,929,2.51789,0.0,0.0
216,53.75,56.75,74.0312,104.264,99.0682,73.4531,0.01837,0.746126,19.7747,928.9,2.89352,0.0,0.0
219,54.5,56.6774,74.9834,105.437,99.0605,73.7665,0.0187367,0.777393,19.7441,928.83,2.85159,0.0,0.0
222,55.25,59.71,78.6353,107.763,99.0698,73.9102,0.0191769,0.800187,19.7007,928.72,2.83367,0.0,0.0
225,56,60.6646,80.5912,108.234,99.0613,71.6435,0.0197288,0.841303,19.6558,928.6,3.13411,0.0,0.0
228,56.75,62.1666,83.141,102.051,99.0568,72.8761,0.0203263,0.871277,19.586,928.48,2.96868,0.0,0.0
231,57.5,64.1081,86.1196,103.879,99.0552,72.5087,0.0208449,0.913953,19.5105,928.36,3.01741,0.0,0.0
234,58.25,64.9851,87.6995,95.4679,99.0641,69.9201,0.0215527,0.952523,19.4164,928.21,3.3699,0.0,0.0
237,59,67.2905,91.3578,97.9248,99.0641,67.6384,0.0223831,0.993397,19.3364,928.1,3.69079,0.0,0.0
240,59.75,69.1231,93.9004,96.6952,99.0613,66.9299,0.0233064,1.04027,19.2585,927.96,3.79236,0.0,0.0
243,60.5,70.8693,96.1911,93.3307,99.0527,67.232,0.0242943,1.08839,19.1676,927.789,3.74797,0.0,0.0
246,61.25,72.291,99.3784,91.9278,99.0544,64.9868,0.0253577,1.13981,19.1013,927.749,4.07664,0.0,0.0
249,62,73.5372,101.196,93.7085,99.0584,63.7713,0.0267198,1.19507,19.0066,927.559,4.25966,0.0,0.0
252,62.75,75.4916,104.689,88.6915,99.0418,63.9723,0.0284063,1.26469,18.9151,927.379,4.2276,0.0,0.0
255,63.5,78.3907,108.997,87.9969,99.0385,64.6442,0.0299313,1.33109,18.81,927.179,4.12623,0.0,0.0
258,64.25,80.8996,113.195,91.3988,99.0458,64.7075,0.0321263,1.40627,18.6733,927.069,4.11747,0.0,0.0
261,65,83.3639,117.275,80.7305,99.0454,64.3604,0.0343583,1.47681,18.5453,926.939,4.16945,0.0,0.0
264,65.75,85.9427,121.906,88.3656,99.0349,64.3848,0.0366281,1.55514,18.4035,926.799,4.16476,0.0,0.0
267,66.5,88.7685,126.593,95.2908,99.0349,61.0243,0.0389212,1.64238,18.2276,926.488,4.68323,0.0,0.0
270,67.25,91.0603,130.724,72.4834,99.0467,61.4214,0.0421801,1.73594,17.985,926.308,4.62165,0.0,0.0
273,68,94.1448,135.192,68.925,99.0442,60.8221,0.0433614,1.8334,17.8851,926.148,4.71624,0.0,0.0
276,68.75,97.3914,140.698,77.337,99.028,62.7835,0.0459813,1.94726,17.7228,925.868,4.40768,0.0,0.0
279,69.5,99.5171,145.296,90.7027,99.0194,62.7275,0.0481675,2.05046,17.5541,925.618,4.41548,0.0,0.0
282,70.25,103.019,151.216,77.105,99.0231,60.2201,0.0504842,2.18977,17.3791,925.377,4.8104,0.0,0.0
285,71,106.137,156.117,68.1739,99.0231,62.2679,0.0526014,2.28694,17.1523,925.307,4.48696,0.0,0.0
288,71.75,109.486,162.313,62.7936,99.0239,62.0012,0.0547287,2.39921,16.9088,924.947,4.52856,0.0,0.0
291,72.5,113.212,168.931,78.8964,99.0146,59.4714,0.0565095,2.54562,16.6979,924.727,4.93057,0.0,0.0
294,73.25,116.871,175.568,55.86,99.0154,61.844,0.058201,2.68434,16.4804,924.427,4.55227,0.0,0.0
297,74,120.376,182.641,69.8287,99.017,60.2095,0.0601927,2.81658,16.295,924.136,4.8115,0.0,0.0
300,74.75,123.868,188.757,73.4168,99.0044,60.7864,0.0616446,2.94288,16.1141,923.936,4.71804,0.0,0.0
303,75.5,127.342,195.148,75.5746,99.0036,57.903,0.0637209,3.07887,15.9823,923.696,5.18799,0.0,0.0
306,76.25,131.476,202.778,78.8124,99.002,62.4575,0.0652345,3.21321,15.8186,923.366,4.45549,0.0,0.0
309,77,135.002,209.919,66.0566,99.0073,59.7024,0.066999,3.32614,15.6748,923.045,4.89235,0.0,0.0
312,77.75,138.118,215.801,60.0229,99.0044,60.1173,0.0687912,3.45162,15.5281,922.905,4.82509,0.0,0.0
315,78.5,141.5,222.146,73.5008,98.9886,64.2816,0.0707193,3.5615,15.3454,922.575,4.17575,0.0,0.0
318,79.25,144.328,227.83,60.9541,98.9797,62.5984,0.0725329,3.67859,15.0721,922.215,4.43152,0.0,0.0
321,80,148.706,235.937,62.4654,98.9947,63.6572,0.0745541,3.82721,14.7988,921.844,4.27075,0.0,0.0
324,80.75,152.158,243.334,72.9856,98.9939,63.2175,0.0765123,3.98877,14.5363,921.654,4.33771,0.0,0.0
327,81.5,155.584,249.824,55.3585,98.9906,63.0547,0.0781465,4.14734,14.2905,921.364,4.36234,0.0,0.0
330,82.25,158.737,255.891,56.795,98.9849,60.9521,0.07988,4.302,14.0735,920.923,4.68981,0.0,0.0
333,83,162.158,262.591,56.176,98.9825,64.6535,0.0814887,4.45183,13.8508,920.743,4.11935,0.0,0.0
336,83.75,165.868,269.713,42.5905,98.9805,59.4848,0.0828558,4.60996,13.6263,920.283,4.92505,0.0,0.0
339,84.5,168.799,275.884,63.5202,98.9744,58.9939,0.0838648,4.76023,13.4426,920.133,5.0046,0.0,0.0
342,85.25,172.465,281.292,75.8654,98.9724,60.1287,0.0845695,4.88471,13.2742,919.582,4.82013,0.0,0.0
345,86,175.365,286.901,50.4377,98.9732,66.8386,0.0850215,5.05051,13.0267,919.352,3.79696,0.0,0.0
348,86.75,178.416,292.861,66.8527,98.9805,65.4696,0.0851656,5.20536,12.7414,918.912,3.99784,0.0,0.0
351,87.5,181.579,299.651,58.4017,98.9736,63.5529,0.085071,5.37639,12.4437,918.772,4.28456,0.0,0.0
354,88.25,185.388,307.531,50.1827,98.9585,67.3672,0.084917,5.56129,12.1495,918.301,3.71934,0.0,0.0
357,89,189.266,315.562,64.4171,98.9683,65.1712,0.084363,5.75245,11.8904,917.831,4.04084,0.0,0.0
360,89.75,192.901,322.487,67.8266,98.9801,64.2942,0.0835766,5.94429,11.6252,917.52,4.17302,0.0,0.0
363,90.5,196.437,329.361,43.243,98.9772,74.7904,0.0826711,6.16526,11.3109,917.32,2.71013,0.0,0.0
366,91.25,199.745,336.202,51.6574,98.9622,69.5925,0.0815201,6.38879,11.0117,916.69,3.40537,0.0,0.0
369,92,204.353,344.9,32.7411,98.9557,70.3854,0.0803987,6.57836,10.7095,916.37,3.29516,0.0,0.0
372,92.75,208.51,352.195,66.1337,98.9845,74.0304,0.0793228,6.80684,10.3964,916.009,2.80963,0.0,0.0
375,93.5,211.509,359.85,46.8503,98.9715,72.1977,0.0783025,7.01822,10.0782,915.649,3.05081,0.0,0.0
378,94.25,216.025,367.922,50.5568,98.9695,67.0229,0.0772159,7.21674,9.80821,915.399,3.76997,0.0,0.0
381,95,219.606,375.385,63.0913,98.9533,71.1527,0.0762775,7.40477,9.5464,914.608,3.19005,0.0,0.0
384,95.75,222.842,381.592,73.8122,98.9736,68.3318,0.0753112,7.59693,9.35555,914.408,3.58329,0.0,0.0
387,96.5,226.103,388.085,41.6951,98.978,74.0048,0.0741241,7.79571,9.10164,913.777,2.81234,0.0,0.0
390,97.25,228.53,394.99,34.647,98.9659,81.7098,0.0727974,8.00084,8.82823,913.407,1.85319,0.0,0.0
393,98,233.522,402.864,56.9561,98.9768,73.1295,0.071891,8.19538,8.59128,913.017,2.9273,0.0,0.0
396,98.75,236.784,409.707,54.496,98.9711,79.1069,0.0712563,8.41414,8.30761,912.646,2.16682,0.0,0.0
399,99.5,240.774,418.851,61.8257,98.965,69.9773,0.0723385,8.64363,7.98695,912.156,3.35231,0.0,0.0
402,100.25,244.651,425.324,53.0389,98.9866,79.0306,0.0746158,8.84076,7.63934,911.635,2.17766,0.0,0.0
405,101,247.189,431.788,61.7403,98.9561,77.7684,0.077695,9.05352,7.27975,911.305,2.33041,0.0,0.0
408,101.75,251.836,441.137,23.4254,98.9659,80.938,0.0810881,9.20862,6.9349,910.685,1.94498,0.0,0.0
411,102.5,254.952,446.862,45.3421,98.9801,80.4902,0.0840511,9.42848,6.64825,910.244,2.00003,0.0,0.0
414,103.25,257.951,448.563,51.2422,98.9752,77.3198,0.0878787,9.6388,6.3261,909.774,2.38823,0.0,0.0
417,104,261.201,448.334,53.4496,98.9711,80.0931,0.0923491,9.8402,6.043,909.363,2.04699,0.0,0.0
420,104.75,264.745,447.451,51.881,98.9821,84.1238,0.0972654,10.0328,5.73666,908.793,1.57316,0.0,0.0
423,105.5,268.174,444.642,55.6921,98.9776,84.9699,0.102977,10.2543,5.45812,908.232,1.47593,0.0,0.0
426,106.25,271.517,442.614,51.0315,98.9817,80.4309,0.108656,10.4504,5.16065,907.692,2.00731,0.0,0.0
429,107,275.948,440.05,53.1107,98.9801,79.1374,0.113839,10.6574,4.7985,907.221,2.16397,0.0,0.0
432,107.75,279.758,438.11,31.4329,98.9813,84.5404,0.117699,10.8175,4.53449,906.771,1.52531,0.0,0.0
435,108.5,282.721,436.732,60.2397,98.9793,75.4676,0.119524,10.9501,4.34204,906.551,2.62314,0.0,0.0
438,109.25,285.62,437.368,50.8147,98.9809,85.5375,0.120434,11.0522,4.20173,905.8,1.41185,0.0,0.0
441,110,287.054,436.961,59.5985,98.9784,76.3462,0.117816,11.1117,4.16475,905.35,2.51111,0.0,0.0
444,110.75,290.379,436.153,47.5998,98.9991,69.9968,0.114963,11.1079,4.16562,904.93,3.35295,0.0,0.0
447,111.5,292.108,436.315,34.4997,99.0008,82.6882,0.111268,11.0682,4.2774,904.609,1.74147,0.0,0.0
450,112.25,292.923,435.01,39.5267,98.9922,81.6688,0.106704,10.9641,4.49601,903.939,1.86062,0.0,0.0
453,113,295.189,436.126,43.2201,98.9695,68.3428,0.102748,10.8562,4.81189,903.728,3.58135,0.0,0.0
456,113.75,296.675,436.378,54.8631,98.9805,68.3379,0.0995953,10.6393,5.20985,903.378,3.58311,0.0,0.0
459,114.5,296.748,435.125,74.7541,99,67.9851,0.0969757,10.3797,5.67583,903.018,3.63507,0.0,0.0
462,115.25,296.688,435.409,65.3177,98.9967,60.7807,0.0950436,10.1471,6.0905,902.567,4.71819,0.0,0.0
465,116,297.527,436.813,70.9347,98.9935,65.2621,0.0935965,9.82009,6.6337,902.317,4.02981,0.0,0.0
468,116.75,295.854,436.306,75.1502,98.9955,61.9849,0.0924358,9.4757,7.02969,901.877,4.52832,0.0,0.0
471,117.5,295.445,436.877,57.0003,99.0077,69.5405,0.0914087,9.17946,7.56238,901.637,3.41704,0.0,0.0
474,118.25,295.033,438.643,59.0497,99.0069,56.914,0.0901378,8.76776,8.16967,901.446,5.35493,0.0,0.0
477,119,294.416,438.366,46.0748,99.0097,62.0998,0.0885741,8.3739,8.83931,901.086,4.5118,0.0,0.0
480,119.75,292.373,440.008,58.9658,99.0121,58.8709,0.0867601,7.9265,9.55588,900.796,5.02848,0.0,0.0
483,120.5,291.03,442.883,69.989,99.0231,58.9805,0.0847497,7.51853,10.4657,900.616,5.01156,0.0,0.0
486,121.25,288.783,444.808,59.6252,99.0349,58.1442,0.0818892,7.08121,11.1289,900.385,5.15084,0.0,0.0
489,122,286.139,447.424,69.7974,99.0211,56.4313,0.0798039,6.5889,11.8751,900.185,5.43871,0.0,0.0
492,122.75,283.465,448.044,71.4728,99.0389,57.1621,0.0762556,6.11287,12.5913,899.975,5.316,0.0,0.0
495,123.5,280.81,444.988,79.5757,99.0536,58.6497,0.0728043,5.65922,13.1868,899.875,5.06895,0.0,0.0
498,124.25,277.209,435.453,77.6126,99.0637,60.3682,0.06725,5.23157,13.7819,899.765,4.79059,0.0,0.0
501,125,273.557,426.608,83.4738,99.0617,63.6231,0.063568,4.82992,14.1342,899.655,4.28248,0.0,0.0
504,125.75,269.179,414.967,86.1773,99.0666,67.167,0.0582319,4.38338,14.818,899.585,3.75867,0.0,0.0
507,126.5,264.61,403.881,96.2746,99.0759,67.1833,0.0527466,3.92222,15.437,899.585,3.75724,0.0,0.0
510,127.25,259.4,391.796,99.0804,99.09375,74.5233,0.0474633,3.52821,16.0945,899.585,2.75612,0.0,0.0
513,128,254.588,380.368,100.411,99.1165,80.8243,0.0425781,3.22183,16.7644,899.485,1.97328,0.0,0.0
516,128.75,248.354,368.449,106.541,99.1067,88.7437,0.0380178,2.82261,17.3947,899.545,1.06824,0.0,0.0
519,129.5,241.173,353.79,109.908,99.1145,94.4174,0.0339025,2.45419,17.9581,899.555,0.469576,0.0,0.0
522,130.25,236.623,343.799,111.584,99.136,97.4206,0.0302784,2.11897,18.4772,899.535,0.168826,0.0,0.0
525,131,229.801,330.556,108.201,99.138,98.2208,0.0269442,1.8237,18.8819,899.565,0.0899015,0.0,0.0
528,131.75,223.682,319.904,110.775,99.149,98.4356,0.0240144,1.57004,19.2218,899.535,0.0698453,0.0,0.0
531,132.5,218.93,310.564,115.303,99.1672,98.6861,0.0215299,1.34132,19.5166,899.535,0.0470456,0.0,0.0
534,133.25,213.023,299.885,113.916,99.1961,98.6832,0.0192967,1.1616,19.7533,899.525,0.0501339,0.0,0.0
537,134,208.813,291.312,113.272,99.1989,98.9321,0.0180399,1.00838,19.8807,899.575,0.0260505,0.0,0.0
540,134.75,203.659,282.586,112.886,99.192,98.9597,0.0164398,0.877786,20.0589,899.575,0.0226784,0.0,0.0
543,135.5,199.661,274.645,111.93,99.2156,99.1221,0.0150317,0.768136,20.1954,899.595,0.00911482,0.0,0.0
546,136.25,195.778,266.904,115.421,99.2342,99.1814,0.0139193,0.677283,20.3062,899.545,0.00515371,0.0,0.0
549,137,190.767,258.638,114.554,99.2517,99.1895,0.0129612,0.621347,20.3957,899.575,0.00606291,0.0,0.0
552,137.75,187.048,252.144,113.685,99.2631,99.2398,0.0122628,0.552133,20.4647,899.575,0.00226193,0.0,0.0
555,138.5,184.546,245.683,113.274,99.285,99.3669,0.0114924,0.493827,20.5263,899.575,-0.00797805,0.0,0.0
558,139.25,180.657,238.712,113.256,99.2976,99.3032,0.0108471,0.444366,20.5749,899.545,-0.000545387,0.0,0.0
561,140,177.888,234.206,116.035,99.3313,99.3194,0.0103051,0.405343,20.6166,899.605,0.00115409,0.0,0.0
564,140.75,174.924,227.906,116.457,99.3353,99.4051,0.00984848,0.367065,20.6544,899.595,-0.00678897,0.0,0.0
567,141.5,171.564,222.393,112.39,99.3443,99.3815,0.00944173,0.336853,20.6871,899.585,-0.00362803,0.0,0.0
570,142.25,168.701,217.52,111.951,99.3731,99.3491,0.00910359,0.310883,20.7146,899.565,0.00233916,0.0,0.0
573,143,166.097,212.404,114.615,99.3938,99.4412,0.00889908,0.287648,20.7303,899.575,-0.00461254,0.0,0.0
576,143.75,163.397,207.368,115.046,99.3946,99.3426,0.00863811,0.268144,20.7519,899.575,0.00506728,0.0,0.0
579,144.5,160.831,202.781,115.194,99.4137,99.5305,0.00841541,0.251668,20.7691,899.535,-0.0113603,0.0,0.0
582,145.25,158.78,198.625,115.337,99.4381,99.4692,0.00819755,0.237665,20.7826,899.525,-0.00303173,0.0,0.0
585,146,156.554,194.722,114.756,99.4649,99.5155,0.00803873,0.228498,20.794,899.535,-0.00492516,0.0,0.0
588,146.75,154.296,190.843,114.089,99.4669,99.5171,0.00783692,0.216909,20.8054,899.535,-0.00488479,0.0,0.0
591,147.5,151.85,186.822,115.738,99.4681,99.4363,0.00767262,0.206753,20.8151,899.545,0.00308841,0.0,0.0
594,148.25,150.626,184.144,113.967,99.5042,99.3941,0.00752348,0.199349,20.8247,899.505,0.0107101,0.0,0.0
597,149,147.958,179.764,116.836,99.5282,99.5553,0.00737719,0.190455,20.8338,899.535,-0.00263382,0.0,0.0
600,149.75,146.628,176.495,113.627,99.5148,99.375,0.00724172,0.183261,20.8421,899.535,0.0135936,0.0,0.0
603,150.5,144.776,173.921,113.808,99.5477,99.5602,0.00712013,0.176799,20.8493,899.545,-0.00121361,0.0,0.0
606,151.25,142.95,171.099,112.329,99.555,99.3706,0.00701346,0.170826,20.857,899.605,0.0179333,0.0,0.0
609,152,141.652,168.709,117.72,99.5867,99.3689,0.00692693,0.165426,20.8629,899.595,0.0211679,0.0,0.0
612,152.75,140.192,165.841,117.7,99.5859,99.494,0.00686143,0.160621,20.8675,899.555,0.0089259,0.0,0.0
615,153.5,138.504,162.56,114.555,99.5867,99.6661,0.00681593,0.156005,20.8722,899.575,-0.00771553,0.0,0.0
618,154.25,137.066,160.099,116.07,99.6086,99.4554,0.00678903,0.152142,20.8764,899.595,0.0148831,0.0,0.0
621,155,136.017,158.198,118.658,99.6208,99.654,0.00677584,0.148475,20.8806,899.565,-0.00322146,0.0,0.0
624,155.75,134.355,155.602,113.693,99.6301,99.6674,0.00677112,0.144997,20.8848,899.575,-0.00361535,0.0,0.0
627,156.5,133.508,152.941,118.496,99.626,99.6304,0.00677332,0.141828,20.8884,899.575,-0.000423739,0.0,0.0
630,157.25,131.977,151.922,115.423,99.6439,99.4562,0.00679246,0.139019,20.8914,899.575,0.0182337,0.0,0.0
633,158,130.839,149.573,114.766,99.6654,99.4152,0.00681389,0.136163,20.8939,899.585,0.0243117,0.0,0.0
636,158.75,129.358,146.939,118.549,99.6524,99.423,0.006846,0.133584,20.8959,899.545,0.0222999,0.0,0.0
639,159.5,128.517,145.122,114.067,99.6459,99.3913,0.00689761,0.131492,20.8978,899.565,0.0247498,0.0,0.0
642,160.25,126.922,143.648,118.967,99.6488,99.3823,0.00695671,0.12924,20.8996,899.555,0.0258964,0.0,0.0
645,161,126.462,142.164,116.396,99.6561,99.2289,0.00700104,0.12733,20.9014,899.555,0.0415525,0.0,0.0
648,161.75,125.268,140.068,115.301,99.6593,99.5521,0.007024,0.12548,20.903,899.545,0.0104176,0.0,0.0
651,162.5,124.59,138.533,116.176,99.639,99.4014,0.0070238,0.12365,20.9049,899.565,0.0230925,0.0,0.0
654,163.25,123.733,137.048,117.957,99.6362,99.2959,0.00700109,0.121959,20.9062,899.555,0.0330945,0.0,0.0
657,164,122.783,135.662,118.536,99.6338,99.1745,0.00696489,0.120467,20.9072,899.545,0.0446897,0.0,0.0
660,164.75,121.682,134.1,117.705,99.635,99.3982,0.00693423,0.118929,20.9079,899.595,0.0230154,0.0,0.0
663,165.5,120.982,132.533,115.138,99.6191,99.4591,0.00691062,0.117664,20.9086,899.555,0.0155531,0.0,0.0
666,166.25,119.271,130.696,119.313,99.6025,99.3312,0.00689288,0.116495,20.9095,899.535,0.0263816,0.0,0.0
669,167,119.091,129.653,114.415,99.5834,99.2865,0.00687101,0.11533,20.9107,899.555,0.0288788,0.0,0.0
672,167.75,118.076,129.024,117.973,99.585,99.2451,0.00683241,0.114352,20.9117,899.555,0.0330704,0.0,0.0
675,168.5,117.594,127.808,118.516,99.5676,99.2122,0.00679461,0.113416,20.9124,899.505,0.0345801,0.0,0.0
678,169.25,117.327,126.619,115.249,99.5388,99.0872,0.00674994,0.112475,20.9129,899.555,0.0439781,0.0,0.0
681,170,116.411,124.974,119.796,99.5067,99.2366,0.00668809,0.111677,20.914,899.555,0.0262873,0.0,0.0
684,170.75,115.807,124.339,119.542,99.5046,99.2869,0.00662338,0.110823,20.9153,899.555,0.0211852,0.0,0.0
687,171.5,115.08,123.213,119.027,99.4685,99.2926,0.00656245,0.110201,20.9163,899.535,0.0171185,0.0,0.0
690,172.25,113.834,122.461,118.875,99.4381,99.1538,0.00651218,0.109414,20.9171,899.535,0.0276912,0.0,0.0
693,173,113.306,121.278,117.007,99.4117,99.1448,0.00644429,0.108704,20.9179,899.565,0.0259953,0.0,0.0
696,173.75,113.408,120.225,121.098,99.3837,98.8513,0.00637361,0.108064,20.9189,899.525,0.0519484,0.0,0.0
699,174.5,112.117,118.871,116.918,99.3593,99.0433,0.00630859,0.107486,20.9196,899.565,0.0308053,0.0,0.0
702,175.25,111.962,118.334,121.103,99.3207,98.6479,0.00626653,0.10697,20.9201,899.525,0.0657429,0.0,0.0
705,176,110.966,117.441,119.108,99.2785,98.8537,0.0062596,0.106552,20.9205,899.535,0.0414699,0.0,0.0
708,176.75,110.21,116.436,121.858,99.2602,98.9374,0.00627914,0.105976,20.9208,899.495,0.0315098,0.0,0.0
711,177.5,109.794,115.871,117.452,99.2103,98.8298,0.00631812,0.105513,20.9216,899.485,0.037166,0.0,0.0
714,178.25,109.494,114.965,121.382,99.1717,98.6512,0.00637906,0.105044,20.9222,899.525,0.0509024,0.0,0.0
717,179,108.795,114.157,118.48,99.1368,98.5671,0.00641992,0.104604,20.9225,899.525,0.0557402,0.0,0.0
720,179.75,108.743,113.293,118.39,99.1124,98.3925,0.00649843,0.104205,20.9231,899.535,0.0705092,0.0,0.0
723,180.5,108.082,112.394,117.355,99.0702,98.6158,0.006569,0.103874,20.9239,899.565,0.0444624,0.0,0.0
726,181.25,107.171,111.651,119.683,99.0109,98.2785,0.00660973,0.103615,20.9245,899.595,0.0718197,0.0,0.0
729,182,106.794,110.912,119.758,98.9719,98.5911,0.00661939,0.10336,20.925,899.555,0.0372934,0.0,0.0
732,182.75,106.346,110.429,117.494,98.9435,98.3698,0.0066104,0.103065,20.9253,899.535,0.0562469,0.0,0.0
735,183.5,106.102,109.593,119.982,98.8899,98.0056,0.00660064,0.102728,20.9255,899.535,0.0868807,0.0,0.0
738,184.25,105.78,108.725,122.147,98.8404,98.466,0.00658817,0.102415,20.9263,899.545,0.0367042,0.0,0.0
741,185,104.776,108.366,119.539,98.8063,98.3568,0.00657908,0.102163,20.9269,899.555,0.0441009,0.0,0.0
744,185.75,104.588,107.903,119.422,98.7592,98.2269,0.00657245,0.101901,20.9273,899.525,0.0522729,0.0,0.0
747,186.5,104.163,107.206,116.588,98.7247,97.9654,0.00656941,0.10167,20.9276,899.525,0.0746725,0.0,0.0
750,187.25,104.074,106.715,117.98,98.6658,98.0263,0.00656343,0.101448,20.9278,899.555,0.0628921,0.0,0.0
753,188,103.458,106.46,120.941,98.6146,97.9951,0.00655748,0.101225,20.928,899.565,0.0609606,0.0,0.0
756,188.75,103.179,105.878,120.1,98.5785,97.9857,0.00653886,0.101021,20.9281,899.535,0.0583364,0.0,0.0
759,189.5,102.56,104.781,119.132,98.5314,97.9171,0.00652029,0.100855,20.9282,899.535,0.0604896,0.0,0.0
762,190.25,101.804,104.179,119.636,98.4859,97.6642,0.00650462,0.100676,20.9289,899.525,0.0810409,0.0,0.0
765,191,100.816,103.44,120.519,98.436,97.5606,0.0065007,0.100491,20.9293,899.535,0.0863939,0.0,0.0
768,191.75,100.93,102.98,116.685,98.408,97.5773,0.00650104,0.100333,20.9297,899.515,0.081991,0.0,0.0
771,192.5,101.157,103.039,119.749,98.3706,97.4299,0.00652131,0.100121,20.9295,899.515,0.0929385,0.0,0.0
774,193.25,100.504,102.289,120.567,98.3231,97.6658,0.00654461,0.0999664,20.9285,899.525,0.0648783,0.0,0.0
777,194,100.563,102.318,117.052,98.2752,97.5497,0.00658659,0.0998536,20.9278,899.495,0.0716698,0.0,0.0
780,194.75,99.9198,101.896,122.69,98.2366,97.5749,0.00662471,0.0997499,20.9272,899.535,0.0653765,0.0,0.0
783,195.5,98.7749,100.451,121.292,98.2042,97.5643,0.00665636,0.0996375,20.9269,899.565,0.0632255,0.0,0.0
786,196.25,98.83,100.712,119.734,98.1497,97.8168,0.00668056,0.0994876,20.9272,899.555,0.0328624,0.0,0.0
789,197,98.794,100.271,118.207,98.1067,97.4007,0.00667856,0.0993494,20.9274,899.545,0.0698556,0.0,0.0
792,197.75,98.2933,99.525,120.705,98.073,97.5574,0.00664707,0.0992874,20.9276,899.535,0.0509839,0.0,0.0
795,198.5,97.9245,99.3302,119.762,98.0442,97.5054,0.0065859,0.0992422,20.9278,899.535,0.0532947,0.0,0.0
798,199.25,97.4262,98.2752,117.765,98.0105,97.3467,0.00654245,0.099182,20.9278,899.545,0.0657292,0.0,0.0
801,200,97.9019,99.0418,120.627,97.9613,97.7929,0.00648442,0.0991194,20.9279,899.535,0.0166477,0.0,0.0
804,200.75,97.246,98.1316,118.519,97.935,97.2789,0.00642872,0.0990615,20.9286,899.495,0.0650123,0.0,0.0
807,201.5,97.2116,97.7902,120.141,97.8862,97.5046,0.00638312,0.0989834,20.9293,899.505,0.0377804,0.0,0.0
810,202.25,96.4038,96.9851,119.089,97.8619,97.4697,0.00634249,0.098955,20.9298,899.505,0.0388381,0.0,0.0
813,203,95.8179,96.0318,119.977,97.8302,97.0836,0.00630387,0.0988849,20.9302,899.515,0.0740969,0.0,0.0
816,203.75,95.6338,95.8167,119.523,97.7961,96.8916,0.00625258,0.0988337,20.9305,899.505,0.0898741,0.0,0.0
819,204.5,95.6638,96.416,118.417,97.7604,97.0142,0.00619646,0.0987188,20.9307,899.495,0.0741095,0.0,0.0
822,205.25,95.6838,96.5068,123.758,97.7364,96.9334,0.00614495,0.0986487,20.9308,899.495,0.0797969,0.0,0.0
825,206,95.359,95.8559,123.485,97.6995,97.1599,0.0061029,0.0986034,20.9309,899.485,0.0535607,0.0,0.0
828,206.75,95.0465,95.4225,117.127,97.671,96.991,0.00607948,0.0985632,20.931,899.525,0.0675751,0.0,0.0
831,207.5,94.3018,94.8604,117.052,97.6467,97.4685,0.00607475,0.0985216,20.9311,899.535,0.0176675,0.0,0.0
834,208.25,94.3827,94.511,122.449,97.6337,97.1778,0.00609979,0.0984719,20.9311,899.515,0.0452693,0.0,0.0
837,209,93.7434,94.072,118.217,97.5988,96.782,0.00613942,0.0984214,20.9312,899.515,0.0812879,0.0,0.0
840,209.75,94.3963,93.7023,117.407,97.5687,97.3755,0.00617679,0.0983601,20.9312,899.525,0.0191728,0.0,0.0
843,210.5,93.5709,94.3504,118.022,97.5525,97.1745,0.00621855,0.0983018,20.9318,899.495,0.0375438,0.0,0.0
846,211.25,93.425,93.5561,118.825,97.5448,97.3767,0.00626149,0.0982392,20.9322,899.515,0.0166765,0.0,0.0
849,212,92.9038,93.0909,120.602,97.5289,97.2529,0.00630076,0.0981691,20.9323,899.545,0.027413,0.0,0.0
852,212.75,92.8219,92.5347,124.03,97.4985,96.6289,0.00633388,0.0981166,20.9324,899.515,0.0866522,0.0,0.0
855,213.5,92.4903,92.7068,121.66,97.4883,97.1538,0.00635737,0.0980855,20.9325,899.505,0.0332439,0.0,0.0
858,214.25,92.4085,92.1243,119.384,97.4896,97.1827,0.00637337,0.0980751,20.9325,899.515,0.030495,0.0,0.0
861,215,91.8171,91.6654,121.906,97.481,97.3995,0.00639227,0.0980539,20.9326,899.525,0.00809532,0.0,0.0
864,215.75,91.554,91.6644,122.646,97.4697,97.0763,0.00641843,0.0980327,20.9312,899.515,0.0391137,0.0,0.0
867,216.5,91.6505,91.3943,121.705,97.451,97.3353,0.00645251,0.097959,20.9304,899.535,0.0114863,0.0,0.0
870,217.25,91.7399,90.7729,120.888,97.4347,97.2878,0.00648902,0.0979053,20.9303,899.515,0.0145952,0.0,0.0
873,218,91.0798,90.3117,123.234,97.4461,98.1376,0.00652465,0.0978934,20.9301,899.495,-0.068389,0.0,0.0
876,218.75,90.8112,89.7959,122.063,97.4351,96.6638,0.00654169,0.0979105,20.93,899.495,0.0768735,0.0,0.0
879,219.5,90.3235,90.0057,121.219,97.4291,96.935,0.00653411,0.0979475,20.93,899.485,0.0491704,0.0,0.0
882,220.25,90.7088,90.1158,124.132,97.4372,97.0844,0.00652004,0.0979551,20.9299,899.485,0.0350799,0.0,0.0
885,221,89.9709,89.8002,122.142,97.4416,96.6589,0.00645712,0.0979199,20.9299,899.505,0.0780059,0.0,0.0
888,221.75,89.3843,88.9533,125.61,97.4331,97.2143,0.00642689,0.0978696,20.9299,899.525,0.0217431,0.0,0.0
891,222.5,89.1623,88.8108,118.43,97.4392,96.6955,0.00637414,0.0978208,20.9303,899.465,0.0741084,0.0,0.0
894,223.25,89.1987,88.6016,123.266,97.4502,97.1043,0.00633035,0.0978066,20.9308,899.495,0.0343883,0.0,0.0
897,224,88.4531,87.9708,119.081,97.4652,97.0475,0.00630093,0.0978401,20.9311,899.505,0.0415422,0.0,0.0
900,224.75,88.7726,88.38,124.694,97.4611,96.7799,0.00628054,0.0978386,20.9314,899.495,0.0678407,0.0,0.0
903,225.5,88.6097,88.0643,120.701,97.4745,97.5087,0.00628171,0.0978298,20.9316,899.505,-0.0033887,0.0,0.0
906,226.25,87.9242,87.5067,120.335,97.4875,97.229,0.00629881,0.0978111,20.9317,899.515,0.0256871,0.0,0.0
909,227,87.8733,86.715,125.197,97.5143,96.5952,0.0063182,0.0977975,20.9318,899.505,0.0915978,0.0,0.0
912,227.75,87.6781,87.0196,124.32,97.5338,97.0702,0.00634303,0.09771,20.9321,899.505,0.0460829,0.0,0.0
915,228.5,87.0504,86.4302,118.637,97.535,97.4352,0.00634469,0.0975783,20.9327,899.525,0.009905,0.0,0.0
918,229.25,87.5634,86.661,121.325,97.5582,97.7429,0.00631779,0.0974533,20.9332,899.505,-0.0183017,0.0,0.0
921,230,86.3839,85.7137,120.073,97.5959,97.0913,0.00624298,0.0972847,20.9335,899.525,0.0501385,0.0,0.0
924,230.75,85.9995,85.8481,121.187,97.5976,98.4831,0.00617334,0.0971618,20.9337,899.505,-0.0873605,0.0,0.0
927,231.5,86.4966,85.6429,122.455,97.6418,98.1368,0.00609676,0.0971109,20.9339,899.505,-0.0489042,0.0,0.0
930,232.25,86.3369,85.4054,124.217,97.6613,97.4198,0.00603382,0.0970738,20.9345,899.495,0.0239505,0.0,0.0
933,233,86.2904,85.3177,120.137,97.6857,97.7356,0.00598925,0.0970468,20.9351,899.495,-0.0049465,0.0,0.0
936,233.75,86.3704,85.6064,119.497,97.7161,97.5887,0.005959,0.0970465,20.9355,899.495,0.0126229,0.0,0.0
939,234.5,85.3055,84.4402,119.48,97.7523,97.9955,0.00593819,0.0970055,20.9358,899.485,-0.0240354,0.0,0.0
942,235.25,85.9378,85.3458,118.52,97.7868,97.7157,0.00592684,0.0969582,20.936,899.495,0.00702732,0.0,0.0
945,236,85.2965,84.7795,125.183,97.8266,97.4478,0.00592417,0.0969044,20.9362,899.485,0.037522,0.0,0.0
948,236.75,85.3454,84.4538,122.599,97.8712,98.3828,0.00594535,0.0968938,20.9363,899.485,-0.0504247,0.0,0.0
951,237.5,85.0636,84.1559,122.048,97.8927,97.7689,0.0059608,0.0969349,20.9364,899.525,0.0122406,0.0,0.0
954,238.25,84.0571,83.5049,121.228,97.9386,98.4514,0.00600825,0.0969377,20.9359,899.515,-0.0505093,0.0,0.0
957,239,84.6881,83.8187,125.403,97.9865,97.6354,0.00606813,0.0968996,20.9344,899.505,0.0347261,0.0,0.0
960,239.75,84.5911,84.008,122.234,98.0458,97.2046,,0.0968229,,899.495,0.0833434,0.0,0.0
963,240.5,84.0809,83.0913,120.908,98.0876,97.9236,,0.0967313,,899.475,0.0161862,0.0,0.0
966,241.25,83.9267,83.081,125.581,98.1177,98.3065,,0.0966033,,899.485,-0.0185922,0.0,0.0
969,242,83.4239,82.1479,124.328,98.1644,98.0982,,0.0965682,,899.475,0.00652266,0.0,0.0
972,242.75,83.2027,81.7287,123.849,98.2184,97.866,,,,899.485,0.0347651,0.0,0.0
975,243.5,83.6242,82.2471,123.285,98.2606,98.2253,,,,899.505,0.00347799,0.0,0.0
978,244.25,83.2365,82.479,121.93,98.3044,98.9662,,,,899.495,-0.0648915,0.0,0.0
981,245,83.2782,82.0965,122.17,98.3633,98.6223,,,,899.475,-0.0254353,0.0,0.0
984,245.75,82.9303,82.2022,123.509,98.3921,98.641,,,,899.475,-0.0244319,0.0,0.0
987,246.5,82.554,81.5882,126.12,98.4384,98.7977,,,,899.485,-0.0352371,0.0,0.0
990,247.25,82.4177,81.7073,122.87,98.4876,98.5403,,,,899.475,-0.00517953,0.0,0.0
993,248,82.2473,81.1083,124.669,98.5322,98.9926,,,,899.505,-0.0450859,0.0,0.0
996,248.75,82.2899,81.1392,122.772,98.5854,98.8939,,,,899.485,-0.0302219,0.0,0.0
999,249.5,81.4974,80.9221,121.143,98.6248,99.2325,,,,899.495,-0.0594183,0.0,0.0
1001,250,81.8529,80.9504,120.728,98.6532,99.0377,,,,899.475,-0.0376184,0.0,0.0