File: 01_Data/HDPE/Cone/HDPE_Cone_HF25Scan_220131_R2.csv
Names,Time,Stack TC,Smoke TC,Exh Press,Smoke Comp,Smoke Meas,CO Meter,CO2 Meter,O2 Meter,Sample Mass,Ext Coeff,Start Test,Flame Verif
Chan Gain,,500,500,1,1,1,1,1,1,1,1,1.0,1.0
Offset,,0,0,0.14021,0,0,0,0,0,0,0,0.0,0.0
Gain,,1,1,25.011,13.3046,13.3037,1,1,1,1.00087,1.10262,1.0,1.0
Units,sec,C,C,Pa,%,%,%,%,%,g,/m,,
Baseline,,18.3792,19.7002,168.558,97.2076,100.306,0.00388801,0.0775879,20.9526,-0.0223946,-0.303469,,
4,0.75,17.5796,18.411,171.224,97.9199,100.723,0.00391141,0.0782097,20.9503,542.473,-0.273019,0.0,0.0
8,1.75,17.7022,19.0959,172.848,97.9244,101.419,0.00388013,0.0784885,20.9493,542.573,-0.339171,0.0,0.0
12,2.75,17.6498,18.7743,165.495,97.9427,100.99,0.00383281,0.0788422,20.9486,542.563,-0.296392,0.0,0.0
16,3.75,17.2249,18.734,169.817,97.9524,100.594,0.00379508,0.0791703,20.9481,542.523,-0.257406,0.0,0.0
20,4.75,17.1715,18.9313,164.637,97.9492,100.815,0.00377924,0.0795193,20.9478,542.623,-0.278899,0.0,0.0
24,5.75,17.41,18.8217,165.062,97.9484,100.487,0.00379564,0.0798491,20.9476,542.683,-0.247495,0.0,0.0
28,6.75,17.2953,19.1916,171.463,97.9654,101.236,0.00383613,0.0800764,20.9475,542.724,-0.317644,0.0,0.0
32,7.75,17.7313,19.0805,171.43,97.965,100.979,0.00388677,0.0802255,20.9476,543.474,-0.293098,0.0,0.0
36,8.75,17.2871,18.8768,172.689,97.9796,101.597,0.0039484,0.0803234,20.9482,544.015,-0.350662,0.0,0.0
40,9.75,17.7886,19.0103,169.541,97.9837,101.333,0.00400567,0.0804624,20.9489,543.694,-0.325067,0.0,0.0
44,10.75,17.8207,19.4765,169.853,97.989,100.971,0.00401231,0.0805252,20.9494,543.014,-0.289995,0.0,0.0
48,11.75,18.0089,19.3652,171.281,97.9898,100.748,0.00396604,0.0804972,20.9497,542.523,-0.268501,0.0,0.0
52,12.75,17.9683,18.9679,166.865,97.9987,101.304,0.00389443,0.0804788,20.9501,542.523,-0.320833,0.0,0.0
56,13.75,18.25,19.0186,166.787,98.0011,100.794,0.00382976,0.0803898,20.9512,542.523,-0.271743,0.0,0.0
60,14.75,17.6571,18.953,167.402,97.9999,100.827,0.00378433,0.0801888,20.9524,542.553,-0.275058,0.0,0.0
64,15.75,17.4406,19.3714,167.913,98.0133,101.74,0.00376345,0.0799593,20.9532,542.553,-0.360893,0.0,0.0
68,16.75,17.4835,18.9376,171.931,98.0129,100.758,0.00377087,0.0796136,20.9538,542.553,-0.267153,0.0,0.0
72,17.75,17.8537,18.9476,172.674,98.0178,101.015,0.00379151,0.0792523,20.9543,542.523,-0.29131,0.0,0.0
76,18.75,17.637,19.1744,172.614,98.0198,101.135,0.00382715,0.0789252,20.9557,542.533,-0.302571,0.0,0.0
80,19.75,17.8011,18.5321,163.439,98.0243,100.663,0.00386734,0.0786032,20.957,542.553,-0.256946,0.0,0.0
84,20.75,17.4495,19.2953,165.821,98.0259,101.267,0.00389607,0.0783141,20.9578,542.523,-0.314581,0.0,0.0
88,21.75,17.7149,18.9136,169.57,98.0182,101.176,0.00390778,0.0779248,20.9584,542.533,-0.306729,0.0,0.0
92,22.75,17.5944,18.6247,163.816,98.0182,101.597,0.00389479,0.0775963,20.9587,542.523,-0.346855,0.0,0.0
96,23.75,17.9007,18.838,169.313,98.0198,101.178,0.00387704,0.0773564,20.959,542.543,-0.306725,0.0,0.0
100,24.75,17.4793,18.7481,168.561,98.0214,100.981,0.00386223,0.0771259,20.9591,542.523,-0.287684,0.0,0.0
104,25.75,17.8245,19.1491,167.648,98.0271,101.052,0.00385698,0.0768403,20.9592,542.503,-0.293964,0.0,0.0
108,26.75,18.0025,19.2118,168.332,98.0223,101.2,0.00386247,0.0765764,20.9593,542.493,-0.308619,0.0,0.0
112,27.75,17.6469,19.0052,166.655,98.0162,100.833,0.00386783,0.0763975,20.9591,542.503,-0.274001,0.0,0.0
116,28.75,17.9686,19.2948,169.26,98.0308,100.846,0.00386208,0.0763153,20.9584,542.513,-0.273843,0.0,0.0
120,29.75,17.9609,19.0168,164.716,98.0247,101.24,0.00382417,0.0762723,20.958,542.513,-0.312142,0.0,0.0
124,30.75,17.7313,19.4192,169.728,98.0239,100.637,0.00377397,0.0761954,20.9581,542.503,-0.25445,0.0,0.0
128,31.75,17.4379,19.2582,167.092,98.0369,100.79,0.00372132,0.0761258,20.9581,542.503,-0.267906,0.0,0.0
132,32.75,17.7818,18.7406,163.14,98.0194,101.139,0.00367959,0.0760345,20.9578,542.503,-0.303,0.0,0.0
136,33.75,17.6695,18.6542,168.163,98.0145,101.001,0.00367567,0.075942,20.9578,542.513,-0.290348,0.0,0.0
140,34.75,17.8641,19.5108,167.197,98.0137,101.091,0.0036911,0.07593,20.9583,542.493,-0.299017,0.0,0.0
144,35.75,17.6074,19.2439,169.883,98.0194,101.147,0.00371186,0.0758003,20.9587,542.503,-0.303776,0.0,0.0
148,36.75,18.0025,19.2421,169.84,98.0145,101.613,0.00372707,0.0756909,20.959,542.503,-0.348723,0.0,0.0
152,37.75,17.7677,19.4267,169.739,98.0113,100.982,0.00372588,0.0756678,20.9591,542.503,-0.288841,0.0,0.0
156,38.75,17.8147,19.3491,168.351,98.0101,101.199,0.00372288,0.0756719,20.9592,542.503,-0.309666,0.0,0.0
160,39.75,17.9685,19.272,169.264,98.0113,101.104,0.0037276,0.0756932,20.9593,542.523,-0.3005,0.0,0.0
164,40.75,17.8928,18.806,166.637,98.0093,101.946,0.00375078,0.0757322,20.9593,542.513,-0.380881,0.0,0.0
168,41.75,17.8278,19.2984,168.149,98.0101,101.437,0.00379279,0.0757654,20.9594,542.513,-0.332455,0.0,0.0
172,42.75,17.5256,19.0193,170.583,97.9955,101.01,0.00384134,0.075752,20.9585,542.503,-0.293047,0.0,0.0
176,43.75,17.5577,18.6184,164.047,97.9963,101.434,0.00389513,0.0757457,20.9572,542.493,-0.333508,0.0,0.0
180,44.75,17.6678,18.8424,163.246,97.9934,100.908,0.00391837,0.075795,20.9564,542.493,-0.283486,0.0,0.0
184,45.75,18.2255,18.9167,166.339,97.9918,100.334,0.0039052,0.0759309,20.956,542.493,-0.228424,0.0,0.0
188,46.75,17.3875,19.8471,168.486,97.989,101.274,0.00384764,0.0760445,20.9556,542.483,-0.318964,0.0,0.0
192,47.75,18.1546,19.0948,167.288,97.9833,100.945,0.00377821,0.0761677,20.9553,542.493,-0.287989,0.0,0.0
196,48.75,18.0293,19.3129,169.271,97.9703,101.338,0.00372151,0.0762506,20.9552,542.483,-0.326855,0.0,0.0
200,49.75,17.5498,19.1073,164.489,97.9601,100.984,0.00370526,0.0763273,20.955,542.483,-0.294046,0.0,0.0
204,50.75,17.6246,19.4202,166.564,97.965,100.811,0.00372391,0.0763911,20.955,542.453,-0.277025,0.0,0.0
208,51.75,18.1172,19.0985,166.734,97.9609,100.962,0.00374938,0.0764438,20.9552,542.483,-0.291827,0.0,0.0
212,52.75,17.631,19.3251,171.579,97.9626,101.12,0.00377466,0.0764785,20.9558,542.483,-0.306824,0.0,0.0
216,53.75,17.5917,18.7661,165.921,97.9593,101.29,0.00379283,0.0765012,20.9558,542.493,-0.323363,0.0,0.0
220,54.75,17.5164,19.3788,174.729,97.9585,100.496,0.00380651,0.0765353,20.9557,542.473,-0.247353,0.0,0.0
224,55.75,17.863,19.3716,167.795,97.9488,100.767,0.00380892,0.0766012,20.9559,542.493,-0.274343,0.0,0.0
228,56.75,17.1878,19.0093,172.454,97.9419,100.777,0.00380276,0.0766547,20.956,542.493,-0.275959,0.0,0.0
232,57.75,17.9467,19.4185,165.796,97.939,100.608,0.00378253,0.0766168,20.9552,542.483,-0.260095,0.0,0.0
236,58.75,17.6362,19.034,169.731,97.9382,100.949,0.0037645,0.0765676,20.9548,542.493,-0.292828,0.0,0.0
240,59.75,17.7587,18.9303,166.101,97.9252,100.691,0.00373259,0.0765596,20.9544,542.503,-0.269417,0.0,0.0
244,60.75,17.5583,19.1594,169.715,97.9431,100.765,0.00369827,0.0765928,20.9542,542.483,-0.274709,0.0,0.0
248,61.75,17.9657,19.1293,165.021,97.924,101.167,0.00368245,0.0766922,20.9535,542.483,-0.315098,0.0,0.0
252,62.75,17.627,19.3406,168.587,97.922,100.931,0.00370107,0.0768119,20.9528,542.493,-0.292759,0.0,0.0
256,63.75,18.1642,19.5723,169.099,97.9187,100.542,0.00373919,0.0769444,20.9524,542.483,-0.255697,0.0,0.0
260,64.75,17.2374,19.3721,167.875,97.9073,101.025,0.00380494,0.0770883,20.9521,542.473,-0.303225,0.0,0.0
264,65.75,17.6645,19.2614,169.006,97.9037,101.351,0.00387395,0.0771937,20.9519,542.463,-0.334671,0.0,0.0
268,66.75,18.259,19.9431,168.184,97.9009,101.153,0.00392723,0.0772628,20.9518,542.463,-0.316103,0.0,0.0
272,67.75,17.7532,19.0569,167.351,97.8948,101.049,0.00395601,0.077385,20.9517,542.463,-0.306684,0.0,0.0
276,68.75,18.5117,19.4078,169.474,97.9033,101.31,0.00396469,0.0774858,20.9516,542.483,-0.330835,0.0,0.0
280,69.75,17.7964,19.0863,171.411,97.8952,101.303,0.00395771,0.0775327,20.9516,542.453,-0.330978,0.0,0.0
284,70.75,17.6286,19.5109,165.408,97.8915,100.834,0.00392849,0.0775967,20.9516,542.433,-0.286425,0.0,0.0
288,71.75,17.5548,19.0849,165.524,97.8834,101.025,0.00387806,0.0776875,20.9516,542.443,-0.305592,0.0,0.0
292,72.75,17.7755,18.83,167.322,97.8846,100.722,0.00381372,0.0777645,20.9516,542.443,-0.276353,0.0,0.0
296,73.75,17.8337,19.4136,166.9,97.8814,100.509,0.00375609,0.0778323,20.9515,542.453,-0.256224,0.0,0.0
300,74.75,17.6076,19.1346,170.738,97.883,101.172,0.00370537,0.077828,20.9515,542.463,-0.319615,0.0,0.0
304,75.75,18.0672,18.994,168.816,97.8903,100.822,0.00366926,0.0778252,20.9515,542.443,-0.285455,0.0,0.0
308,76.75,17.6551,19.0134,170.791,97.8797,100.392,0.00364557,0.077994,20.9508,542.463,-0.245164,0.0,0.0
312,77.75,17.9387,19.0751,167.827,97.8785,100.863,0.00364936,0.0781535,20.9504,542.463,-0.290513,0.0,0.0
316,78.75,17.8548,18.768,169.309,97.8651,101.307,0.00366408,0.0782338,20.9504,542.473,-0.334335,0.0,0.0
320,79.75,18.0128,19.5468,169.373,97.8667,101.034,0.00367888,0.0782652,20.9503,542.463,-0.308092,0.0,0.0
324,80.75,17.8287,19.0472,174.212,97.8497,101.2,0.0036965,0.0782339,20.9503,542.453,-0.325622,0.0,0.0
328,81.75,17.9212,19.4859,168.814,97.8546,100.502,0.00373176,0.078189,20.9503,542.473,-0.258246,0.0,0.0
332,82.75,17.7319,19.3074,166.594,97.8469,100.993,0.00376122,0.078198,20.9503,542.473,-0.306132,0.0,0.0
336,83.75,17.7141,18.9495,168,97.84,100.672,0.00379517,0.0782411,20.9503,542.483,-0.275971,0.0,0.0
340,84.75,17.2744,19.1011,164.822,97.8412,100.846,0.00380635,0.0783047,20.9502,542.473,-0.292569,0.0,0.0
344,85.75,17.4988,19.1977,170.735,97.8404,100.469,0.00377799,0.0783462,20.9502,542.473,-0.256447,0.0,0.0
348,86.75,17.6828,19.3098,167.911,97.8432,100.667,0.00374812,0.0783846,20.9502,542.473,-0.275142,0.0,0.0
352,87.75,17.5911,19.0952,166.511,97.8448,100.73,0.00371761,0.0784098,20.9502,542.483,-0.281104,0.0,0.0
356,88.75,17.7043,19.2765,164.276,97.8339,101.429,0.00370739,0.0784585,20.9502,542.453,-0.349085,0.0,0.0
360,89.75,17.9621,19.1152,173.435,97.831,100.857,0.00371967,0.0784967,20.9502,542.463,-0.294625,0.0,0.0
364,90.75,17.829,19.3969,168.419,97.8237,100.795,0.00375432,0.0785705,20.9502,542.463,-0.289427,0.0,0.0
368,91.75,18.0532,19.0391,172.306,97.8176,101.076,0.0037746,0.0786293,20.9502,542.463,-0.316912,0.0,0.0
372,92.75,18.1921,19.4848,164.647,97.8144,100.672,0.00377726,0.0786266,20.9497,542.423,-0.2785,0.0,0.0
376,93.75,17.6827,19.3475,167.227,97.8209,100.656,0.00376488,0.0785913,20.949,542.413,-0.276375,0.0,0.0
380,94.75,18.2218,19.5007,165.367,97.805,101.126,0.00372949,0.0786414,20.9491,542.423,-0.322934,0.0,0.0
384,95.75,17.428,19.1722,166.58,97.8034,100.513,0.00369828,0.0786986,20.9492,542.433,-0.264321,0.0,0.0
388,96.75,17.3246,19.5687,163.45,97.7977,100.311,0.00369058,0.0787361,20.9493,542.433,-0.245407,0.0,0.0
392,97.75,17.5118,18.9127,167.271,97.7933,100.704,0.00370175,0.0786839,20.9493,542.423,-0.283669,0.0,0.0
396,98.75,17.843,19.816,169.884,97.7888,100.755,0.00375835,0.0785905,20.9493,542.443,-0.289023,0.0,0.0
400,99.75,17.6747,19.4231,168.955,97.7929,101.32,0.00383339,0.0785206,20.9494,542.443,-0.342682,0.0,0.0
404,100.75,17.5566,19.5815,169.218,97.7924,100.873,0.00388925,0.0784558,20.95,542.453,-0.299957,0.0,0.0
408,101.75,17.9615,19.1707,170.555,97.7949,101.03,0.00391549,0.0784234,20.951,542.443,-0.314808,0.0,0.0
412,102.75,18.0936,19.1327,166.147,97.7831,100.6,0.00391649,0.0783849,20.9521,542.463,-0.274647,0.0,0.0
416,103.75,17.7707,19.0407,165.843,97.7738,100.928,0.00389974,0.0783201,20.953,542.463,-0.307097,0.0,0.0
420,104.75,17.6694,18.9124,171.263,97.7811,100.58,0.0038485,0.0782527,20.9535,542.453,-0.272934,0.0,0.0
424,105.75,17.9065,19.6456,174.695,97.7864,100.688,0.00379806,0.0782044,20.9539,542.453,-0.28283,0.0,0.0
428,106.75,17.9472,19.8698,170.93,97.7803,100.191,0.00374187,0.0780997,20.9542,542.443,-0.235539,0.0,0.0
432,107.75,17.9597,19.2617,165.508,97.777,100.427,0.00371632,0.0780046,20.9543,542.423,-0.258684,0.0,0.0
436,108.75,17.7173,20.111,167.663,97.7766,100.691,0.00373758,0.0778923,20.9545,542.443,-0.284106,0.0,0.0
440,109.75,17.7559,19.4575,165.147,97.7835,100.77,0.00380001,0.0777995,20.9545,542.433,-0.291025,0.0,0.0
444,110.75,17.9773,19.85,169.993,97.7717,100.464,0.00387424,0.0777526,20.9546,542.433,-0.262764,0.0,0.0
448,111.75,17.7605,19.3542,167.658,97.7786,100.513,0.00392966,0.077727,20.9542,542.433,-0.26677,0.0,0.0
452,112.75,17.7622,19.614,167.938,97.7592,100.125,0.00395757,0.0777102,20.9536,542.433,-0.231316,0.0,0.0
456,113.75,18.2915,20.0833,172.329,97.7608,100.574,0.00395527,0.0776991,20.9532,542.433,-0.274435,0.0,0.0
460,114.75,17.9,19.715,171.013,97.7587,100.505,0.00395766,0.0776919,20.9529,542.443,-0.267957,0.0,0.0
464,115.75,17.9662,19.7219,167.433,97.7677,100.139,0.00397459,0.0776872,20.9527,542.433,-0.231767,0.0,0.0
468,116.75,18.0659,19.6971,160.523,97.7449,100.13,0.00400452,0.0777417,20.9526,542.443,-0.233192,0.0,0.0
472,117.75,18.249,20.0014,166.459,97.7429,100.849,0.00404266,0.0778314,20.9525,542.423,-0.30256,0.0,0.0
476,118.75,17.956,19.6602,166.572,97.7575,100.364,0.00407369,0.0778813,20.9525,542.433,-0.254549,0.0,0.0
480,119.75,17.8039,19.8908,165.934,97.7368,100.159,0.00409503,0.0778897,20.9525,542.433,-0.236819,0.0,0.0
484,120.75,17.9308,19.5408,174.206,97.7466,99.7835,0.00410419,0.0779093,20.9524,542.433,-0.199482,0.0,0.0
488,121.75,17.7872,19.2108,168.016,97.7315,100.635,0.0040774,0.0779273,20.9524,542.443,-0.283143,0.0,0.0
492,122.75,17.7206,19.7877,167.461,97.7263,99.9792,0.00401845,0.0779295,20.9524,542.433,-0.220442,0.0,0.0
496,123.75,17.7956,19.3936,171.922,97.7263,99.6454,0.00395278,0.077902,20.9524,542.443,-0.188101,0.0,0.0
500,124.75,18.2115,19.8137,163.941,97.7218,99.7892,0.00387099,0.0778494,20.9519,542.433,-0.202484,0.0,0.0
504,125.75,18.0997,19.5485,168.093,97.7194,99.4372,0.00383155,0.0777661,20.9512,542.443,-0.168548,0.0,0.0
508,126.75,17.7612,20.1261,171.5,97.706,99.4254,0.00384737,0.0777115,20.9508,542.443,-0.168728,0.0,0.0
512,127.75,17.6264,19.6612,168.195,97.7027,99.481,0.00397131,0.0776685,20.9505,542.413,-0.174459,0.0,0.0
516,128.75,18.3919,19.9408,164.403,97.6962,100.112,0.00415306,0.0776231,20.9505,542.403,-0.236211,0.0,0.0
520,129.75,17.7949,20.1042,168.894,97.682,99.6881,0.00431201,0.0775202,20.9511,542.403,-0.19662,0.0,0.0
524,130.75,18.3802,20.0141,165.93,97.6877,99.7445,0.00442485,0.0775102,20.9512,542.403,-0.201531,0.0,0.0
528,131.75,17.5764,19.7439,164.523,97.6808,98.5046,0.0044877,0.0775576,20.9508,542.423,-0.0812286,0.0,0.0
532,132.75,18.2301,19.2752,171.538,97.6763,99.1733,0.00450653,0.0775799,20.9504,542.403,-0.147106,0.0,0.0
536,133.75,18.0132,19.8829,168.904,97.6723,99.086,0.00449894,0.0776277,20.95,542.403,-0.13899,0.0,0.0
540,134.75,17.8894,20.0962,169.259,97.671,98.9353,0.00448319,0.0775963,20.9497,542.403,-0.124398,0.0,0.0
544,135.75,18.0161,19.3846,166.662,97.6516,99.6361,0.00447575,0.0775469,20.9495,542.393,-0.194592,0.0,0.0
548,136.75,17.7676,19.8032,168.639,97.6581,99.4461,0.00447796,0.077466,20.9493,542.383,-0.175487,0.0,0.0
552,137.75,18.1583,20.0612,164.428,97.6491,99.2342,0.00449741,0.0774155,20.9492,542.363,-0.155738,0.0,0.0
556,138.75,17.9524,20.1012,164.208,97.6503,99.6755,0.00454388,0.0774068,20.9492,542.393,-0.198535,0.0,0.0
560,139.75,17.8524,19.1329,170.202,97.6499,98.9248,0.00460618,0.0773818,20.9491,542.423,-0.125456,0.0,0.0
564,140.75,18.0296,19.8946,163.342,97.643,99.1794,0.00468055,0.0773411,20.9491,542.493,-0.150997,0.0,0.0
568,141.75,17.6802,19.7491,173.005,97.6398,99.4465,0.00477216,0.0773284,20.9491,542.493,-0.177336,0.0,0.0
572,142.75,17.4617,19.7118,165.047,97.6414,98.1514,0.00482051,0.0773445,20.9491,542.543,-0.0503841,0.0,0.0
576,143.75,17.8323,19.5959,167.151,97.6321,98.5468,0.00482292,0.0773568,20.9491,542.553,-0.0901986,0.0,0.0
580,144.75,18.1872,19.5967,165.682,97.6244,98.6414,0.00482944,0.0773683,20.9483,542.553,-0.100243,0.0,0.0
584,145.75,18.4032,19.9443,167.528,97.6264,99.0015,0.00484536,0.0774142,20.9478,542.563,-0.135289,0.0,0.0
588,146.75,17.9178,20.1895,173.433,97.6012,98.777,0.00489359,0.0775085,20.9475,542.533,-0.115823,0.0,0.0
592,147.75,18.2783,20.1702,165.107,97.6057,98.5955,0.00495237,0.0775871,20.9477,542.563,-0.0975939,0.0,0.0
596,148.75,18.2574,20.0569,166.166,97.5988,98.0738,0.00505613,0.0776105,20.9479,542.523,-0.0469639,0.0,0.0
600,149.75,18.1999,20.3556,170.062,97.6134,97.8627,0.00515346,0.0776322,20.948,542.543,-0.0246729,0.0,0.0
604,150.75,18.3586,19.6706,167.69,97.6089,97.976,0.00521957,0.0777137,20.9475,542.523,-0.0363035,0.0,0.0
608,151.75,18.679,19.9103,167.594,97.5866,98.4051,0.00524494,0.0778487,20.947,542.543,-0.0807885,0.0,0.0
612,152.75,18.3079,19.8615,166.663,97.604,97.2773,0.00525934,0.0779591,20.9466,542.543,0.0324372,0.0,0.0
616,153.75,18.0507,20.3345,170.563,97.5959,97.8067,0.00530122,0.0780457,20.9464,542.523,-0.0208631,0.0,0.0
620,154.75,18.1613,20.1628,166.277,97.5971,97.5257,0.00535498,0.0781371,20.9462,542.533,0.00707916,0.0,0.0
624,155.75,18.0705,20.1857,169.224,97.613,96.7588,0.00549707,0.0782188,20.9456,542.543,0.0850099,0.0,0.0
628,156.75,17.7843,20.1456,168.861,97.5923,96.8883,0.00563401,0.0783254,20.9453,542.543,0.0700204,0.0,0.0
632,157.75,18.1292,19.6979,166.723,97.5915,96.9728,0.00574861,0.0784529,20.945,542.513,0.0615128,0.0,0.0
636,158.75,17.8719,19.7369,166.769,97.5931,97.2919,0.00583472,0.0785926,20.9448,542.523,0.0298984,0.0,0.0
640,159.75,18.0289,20.4021,168.529,97.5919,97.747,0.00589704,0.0787034,20.9447,542.533,-0.0153621,0.0,0.0
644,160.75,18.1189,19.8817,167.138,97.5821,96.6439,0.00594434,0.0787787,20.9439,542.503,0.0934433,0.0,0.0
648,161.75,18.0838,19.9803,165.706,97.5842,97.207,0.00601377,0.0788525,20.9433,542.503,0.0374519,0.0,0.0
652,162.75,18.3814,20.0123,168.494,97.5882,96.4434,0.00609138,0.0789119,20.9429,542.463,0.11414,0.0,0.0
656,163.75,18.1336,19.8786,166.961,97.5777,96.8311,0.00618819,0.0790047,20.9427,542.463,0.0742869,0.0,0.0
660,164.75,18.1772,19.8628,165.64,97.5862,96.2846,0.0062955,0.0791305,20.9422,542.483,0.129873,0.0,0.0
664,165.75,18.0481,20.4198,172.553,97.5768,96.2485,0.00643331,0.0792721,20.9411,542.453,0.132576,0.0,0.0
668,166.75,17.9596,20.3588,170.717,97.5817,96.1782,0.00655189,0.0793822,20.9403,542.453,0.140121,0.0,0.0
672,167.75,18.2052,20.6055,166.116,97.5752,96.3561,0.00670882,0.0794285,20.9391,542.403,0.121611,0.0,0.0
676,168.75,18.7237,20.5376,169.257,97.5683,95.4832,0.00689579,0.0795077,20.9383,542.423,0.208946,0.0,0.0
680,169.75,18.3023,20.5569,168.396,97.5748,95.542,0.00705489,0.0795679,20.9378,542.423,0.203627,0.0,0.0
684,170.75,18.6484,20.42,167.719,97.5797,95.6265,0.0072114,0.0795831,20.9372,542.413,0.195565,0.0,0.0
688,171.75,18.1588,20.5168,166.239,97.5634,94.7865,0.00735631,0.0795603,20.9363,542.373,0.279292,0.0,0.0
692,172.75,18.2644,20.7433,166.884,97.5634,95.0853,0.00749842,0.0796185,20.9356,542.393,0.248849,0.0,0.0
696,173.75,17.8267,20.7921,166.194,97.5622,94.3606,0.00764948,0.0797056,20.9352,542.323,0.322728,0.0,0.0
700,174.75,18.595,20.4304,165.589,97.5683,95.0553,0.00777726,0.0798114,20.9351,542.363,0.252389,0.0,0.0
704,175.75,18.924,20.5813,166.633,97.5505,94.6497,0.00793299,0.0798565,20.9352,542.353,0.291977,0.0,0.0
708,176.75,18.6963,20.4026,166.555,97.5545,94.5506,0.00813003,0.0799105,20.9352,542.323,0.302507,0.0,0.0
712,177.75,18.6353,20.3978,166.225,97.5496,93.6777,0.00832059,0.0799468,20.9353,542.293,0.391731,0.0,0.0
716,178.75,17.9778,20.8487,169,97.5549,94.078,0.0084892,0.0799287,20.9353,542.273,0.351012,0.0,0.0
720,179.75,18.9185,20.6305,169.568,97.5509,94.4686,0.00867027,0.0798131,20.9353,542.253,0.310537,0.0,0.0
724,180.75,18.5802,21.0328,169.43,97.5375,92.9104,0.00881694,0.079786,20.9347,542.233,0.470076,0.0,0.0
728,181.75,18.7796,20.7679,172.614,97.5395,93.8263,0.00891831,0.0798658,20.9341,542.223,0.375394,0.0,0.0
732,182.75,18.7836,20.479,166.833,97.5354,93.2153,0.00885193,0.0802598,20.9313,542.173,0.438186,0.0,0.0
736,183.75,18.5352,21.0106,161.382,97.5383,95.7783,0.0086409,0.0817642,20.9225,541.953,0.176114,0.0,0.0
740,184.75,18.7636,20.5271,168.72,97.5257,100.524,0.00825815,0.0850098,20.9123,542.023,-0.292839,0.0,0.0
744,185.75,18.5773,21.7857,160.804,97.5127,100.515,0.00779425,0.0893806,20.8966,542.003,-0.293308,0.0,0.0
748,186.75,18.7815,21.6091,159.374,97.5103,101.432,0.0072423,0.0974022,20.8789,542.023,-0.381402,0.0,0.0
752,187.75,19.6341,23.2089,160.532,97.5163,100.717,0.00667823,0.105517,20.8602,542.093,-0.312342,0.0,0.0
756,188.75,20.7987,24.1723,156.955,97.5082,101.36,0.00622242,0.116316,20.8419,542.123,-0.374709,0.0,0.0
760,189.75,20.6149,24.4653,160.044,97.5103,100.887,0.00573234,0.126901,20.8261,542.133,-0.329308,0.0,0.0
764,190.75,21.9271,25.4421,159.778,97.509,100.701,0.00533006,0.136341,20.8147,542.143,-0.311508,0.0,0.0
768,191.75,21.8938,26.5623,164.577,97.5062,101.233,0.00505251,0.145118,20.802,542.113,-0.362777,0.0,1.0
772,192.75,22.8891,27.464,160.167,97.5115,100.833,0.00485937,0.154423,20.7892,542.263,-0.32397,0.0,1.0
776,193.75,22.8047,27.9488,160.328,97.5017,101.131,0.00472894,0.162144,20.7759,543.124,-0.353479,0.0,1.0
780,194.75,23.9861,28.6429,162.551,97.4924,101.552,0.00464036,0.170626,20.7632,541.813,-0.39455,0.0,1.0
784,195.75,23.8317,30.0232,155.982,97.4944,100.739,0.00458224,0.180097,20.7492,541.803,-0.316661,0.0,1.0
788,196.75,24.2756,30.0474,159.204,97.4871,100.838,0.00457383,0.189602,20.737,541.723,-0.326854,0.0,1.0
792,197.75,24.7533,30.9441,160.798,97.4993,100.662,0.00462584,0.198302,20.7234,541.713,-0.30873,0.0,1.0
796,198.75,25.7877,31.7194,157.387,97.4896,100.485,0.00472677,0.206137,20.7086,541.703,-0.292751,0.0,0.0
800,199.75,26.5529,33.1678,155.263,97.4896,100.134,0.00485992,0.214846,20.6912,541.673,-0.25885,0.0,0.0
804,200.75,26.9599,33.8825,157.694,97.4818,100.092,0.00500775,0.224727,20.6712,541.633,-0.255615,0.0,0.0
808,201.75,26.775,34.3107,153.043,97.4733,99.4595,0.00512183,0.234181,20.6559,541.572,-0.195104,0.0,0.0
812,202.75,27.9815,36.1893,155.582,97.4847,98.7985,0.00526431,0.244453,20.6332,541.522,-0.129485,0.0,0.0
816,203.75,28.2647,36.5158,155.464,97.464,98.5176,0.00546375,0.256149,20.6126,541.452,-0.103996,0.0,0.0
820,204.75,29.4643,38.1097,153.749,97.4676,97.7677,0.00570297,0.265434,20.5908,541.442,-0.0297321,0.0,0.0
824,205.75,30.4275,39.1831,154.748,97.4656,95.1312,0.00597563,0.277039,20.5703,541.392,0.234478,0.0,0.0
828,206.75,30.9298,40.5701,153.195,97.4575,94.5197,0.00626205,0.289925,20.5502,541.302,0.296038,0.0,0.0
832,207.75,31.535,41.2729,150.099,97.466,95.0439,0.00658337,0.301844,20.5296,541.262,0.243398,0.0,0.0
836,208.75,32.5412,42.6755,149.674,97.4571,93.4057,0.00692001,0.312525,20.5067,541.212,0.410674,0.0,0.0
840,209.75,33.5358,43.5469,146.286,97.4514,94.5725,0.00719587,0.325325,20.4844,541.172,0.290034,0.0,0.0
844,210.75,34.091,45.258,152.263,97.4494,95.1369,0.00754103,0.338654,20.4605,541.082,0.232289,0.0,0.0
848,211.75,34.7008,46.45,149.944,97.4449,91.4642,0.00788859,0.352068,20.4353,540.992,0.612623,0.0,0.0
852,212.75,35.5173,48.1521,149.873,97.4457,92.3408,0.00821583,0.36562,20.4074,540.872,0.520452,0.0,0.0
856,213.75,36.5728,49.2492,144.966,97.449,92.2551,0.00856957,0.380917,20.3846,540.872,0.529751,0.0,0.0
860,214.75,38.4135,51.2238,149.773,97.4498,91.1776,0.00885845,0.395451,20.3561,540.792,0.643464,0.0,0.0
864,215.75,39.0281,52.6132,145.12,97.4449,92.4975,0.00918652,0.410536,20.3302,540.702,0.503971,0.0,0.0
868,216.75,40.4201,54.1885,141.205,97.4477,89.7627,0.00955611,0.424432,20.3051,540.592,0.794531,0.0,0.0
872,217.75,40.8,56.0202,143.015,97.4437,90.731,0.00986112,0.440693,20.2748,540.512,0.690351,0.0,0.0
876,218.75,41.8856,57.7521,138.42,97.4416,88.8801,0.0102555,0.458113,20.242,540.451,0.889503,0.0,0.0
880,219.75,42.6685,59.0907,137.46,97.438,89.5893,0.0105397,0.47084,20.2139,540.311,0.812261,0.0,0.0
884,220.75,43.2239,60.9243,142.717,97.4469,87.5403,0.0110346,0.489522,20.1751,540.211,1.03694,0.0,0.0
888,221.75,44.6397,62.4498,148.004,97.442,85.989,0.0115242,0.510592,20.1347,540.161,1.20939,0.0,0.0
892,222.75,46.2083,64.555,142.356,97.4494,86.4437,0.0119967,0.5256,20.0941,540.061,1.1591,0.0,0.0
896,223.75,47.6359,65.8939,132.373,97.4433,86.0677,0.0124011,0.547344,20.0582,539.941,1.20065,0.0,0.0
900,224.75,48.5475,68.2913,135.202,97.4453,85.3682,0.0127532,0.568236,20.0268,539.821,1.27979,0.0,0.0
904,225.75,49.814,69.9081,134.988,97.442,83.3837,0.0130243,0.588713,19.9975,539.691,1.50696,0.0,0.0
908,226.75,50.31,71.2158,138.702,97.4542,85.6556,0.0132314,0.607507,19.9702,539.641,1.24816,0.0,0.0
912,227.75,51.6715,73.0235,133.927,97.4469,84.4348,0.0134016,0.624974,19.9433,539.491,1.38628,0.0,0.0
916,228.75,52.5245,74.6077,141.814,97.4433,85.3036,0.0135666,0.642937,19.9177,539.411,1.2869,0.0,0.0
920,229.75,54.5967,76.9516,135.924,97.4494,83.4803,0.0137964,0.658865,19.888,539.311,1.49649,0.0,0.0
924,230.75,54.7095,78.3824,129.186,97.4469,84.9971,0.0140089,0.675732,19.8581,539.2,1.32208,0.0,0.0
928,231.75,56.7196,80.2883,131.272,97.4498,83.8433,0.0142299,0.694065,19.8284,539.03,1.45456,0.0,0.0
932,232.75,57.3189,82.1508,132.794,97.4412,84.3565,0.0144434,0.712096,19.801,538.93,1.3947,0.0,0.0
936,233.75,58.9565,84.2961,136.737,97.453,84.3394,0.0146442,0.728229,19.7775,538.81,1.39782,0.0,0.0
940,234.75,60.1625,85.6323,135.855,97.4469,82.6878,0.0148374,0.743361,19.7503,538.66,1.5885,0.0,0.0
944,235.75,60.7967,86.6657,129.515,97.4518,82.9948,0.0150137,0.759855,19.7249,538.56,1.55315,0.0,0.0
948,236.75,61.3503,88.1771,135.915,97.4563,83.145,0.0151832,0.775919,19.7063,538.49,1.5361,0.0,0.0
952,237.75,63.2492,90.3143,128.467,97.4542,82.3435,0.0153009,0.79131,19.6877,538.28,1.62958,0.0,0.0
956,238.75,63.4308,91.4245,128.695,97.4563,84.2395,0.0153857,0.805026,19.6698,538.109,1.40961,0.0,0.0
960,239.75,64.7399,93.474,124.027,97.4494,83.2964,0.0154547,0.819091,19.6488,537.999,1.51782,0.0,0.0
964,240.75,65.4592,94.4621,119.378,97.4542,81.4057,0.0154827,0.831475,19.6217,537.869,1.74038,0.0,0.0
968,241.75,66.4651,95.706,132.656,97.4518,80.0505,0.0154912,0.847298,19.586,537.769,1.90251,0.0,0.0
972,242.75,67.5842,97.5397,133.851,97.455,84.2785,0.0155243,0.866351,19.5493,537.639,1.40501,0.0,0.0
976,243.75,68.6117,99.0358,134.998,97.4725,81.1069,0.0156227,0.884782,19.5139,537.399,1.77776,0.0,0.0
980,244.75,69.6978,100.34,127.905,97.4603,83.7191,0.0157595,0.903401,19.484,537.219,1.46995,0.0,0.0
984,245.75,71.0664,102.438,124.679,97.4668,81.6631,0.0159708,0.923055,19.4537,537.129,1.71109,0.0,0.0
988,246.75,71.934,104.828,118.506,97.4563,81.1584,0.0161946,0.941777,19.4204,536.999,1.77,0.0,0.0
992,247.75,73.738,106.87,127.968,97.4623,81.6477,0.0163856,0.961024,19.3868,536.848,1.71247,0.0,0.0
996,248.75,75.0394,108.946,117.912,97.4587,81.7646,0.0165375,0.982213,19.3504,536.638,1.69827,0.0,0.0
1000,249.75,76.3092,110.455,124.388,97.4636,81.0622,0.016657,1.00095,19.3237,536.458,1.7822,0.0,0.0
1004,250.75,77.0646,112.278,125.281,97.466,80.3732,0.0167431,1.01677,19.3028,536.368,1.865,0.0,0.0
1008,251.75,78.192,113.353,124.414,97.4632,81.7723,0.0167895,1.03195,19.2852,536.268,1.6978,0.0,0.0
1012,252.75,79.3966,115.359,135.792,97.4762,82.6314,0.0167693,1.04618,19.2709,536.128,1.59801,0.0,0.0
1016,253.75,79.9661,116.153,126.904,97.4672,82.2331,0.0167236,1.0582,19.2576,535.958,1.64385,0.0,0.0
1020,254.75,81.2238,118.41,124.099,97.477,81.6651,0.0166924,1.06954,19.2478,535.777,1.71186,0.0,0.0
1024,255.75,81.9295,119.69,119.943,97.4794,81.072,0.0166936,1.07997,19.2321,535.607,1.78261,0.0,0.0
1028,256.75,83.2422,121.103,130.972,97.4956,82.7215,0.0167223,1.09019,19.218,535.507,1.5894,0.0,0.0
1032,257.75,84.5865,122.696,124.93,97.4814,82.8851,0.0167642,1.09947,19.2076,535.387,1.56887,0.0,0.0
1036,258.75,84.6904,123.847,120.238,97.4818,81.1869,0.0168128,1.10791,19.1977,535.227,1.76915,0.0,0.0
1040,259.75,85.962,125.076,119.593,97.4883,82.0593,0.0168852,1.11516,19.1898,535.047,1.66641,0.0,0.0
1044,260.75,87.2213,126.643,120.022,97.4883,82.5376,0.0170323,1.12256,19.1808,534.847,1.6102,0.0,0.0
1048,261.75,88.0471,127.999,130.624,97.496,82.4402,0.0172096,1.1299,19.1665,534.767,1.62239,0.0,0.0
1052,262.75,88.5171,128.85,113.847,97.4997,79.4403,0.0174452,1.13744,19.1456,534.566,1.98127,0.0,0.0
1056,263.75,89.7616,130.16,118.233,97.5058,81.5393,0.0176898,1.14901,19.1152,534.396,1.72963,0.0,0.0
1060,264.75,90.8892,131.698,122.537,97.5086,80.562,0.0179351,1.16375,19.0782,534.246,1.84654,0.0,0.0
1064,265.75,91.8233,133.173,113.947,97.5277,79.301,0.0181453,1.1824,19.0476,534.096,2.00102,0.0,0.0
1068,266.75,93.165,135.354,114.032,97.5103,80.0464,0.0183989,1.2021,19.011,533.896,1.9088,0.0,0.0
1072,267.75,94.4049,137.53,115.896,97.5293,80.7017,0.0187112,1.22018,18.9766,533.756,1.83184,0.0,0.0
1076,268.75,95.7552,139.261,115.463,97.5362,81.0293,0.0190391,1.23993,18.9454,533.596,1.79333,0.0,0.0
1080,269.75,96.9607,141.247,110.614,97.5212,79.5633,0.019503,1.25989,18.9125,533.395,1.96844,0.0,0.0
1084,270.75,98.005,142.788,121.897,97.5338,82.5835,0.0200303,1.28177,18.8726,533.165,1.60934,0.0,0.0
1088,271.75,99.2625,144.329,107.271,97.5395,79.3124,0.0206043,1.30408,18.8288,532.985,2.0008,0.0,0.0
1092,272.75,100.443,146.196,121.843,97.5375,78.6153,0.0211515,1.32833,18.7892,532.835,2.08599,0.0,0.0
1096,273.75,102.324,149.135,111.436,97.5407,79.0201,0.0218572,1.36003,18.7292,532.645,2.03664,0.0,0.0
1100,274.75,103.751,152.258,108.601,97.5464,78.1289,0.022515,1.39163,18.6646,532.465,2.1469,0.0,0.0
1104,275.75,106.032,155.53,95.7663,97.5464,78.435,0.0232888,1.43048,18.5921,532.214,2.10908,0.0,0.0
1108,276.75,107.612,157.825,96.2357,97.544,77.4119,0.0240606,1.4704,18.5043,532.044,2.23583,0.0,0.0
1112,277.75,109.806,162.921,97.7363,97.5464,78.0371,0.0248533,1.5087,18.427,531.814,2.15826,0.0,0.0
1116,278.75,112.285,165.782,116.212,97.5582,77.8126,0.0255746,1.54755,18.3557,531.604,2.1873,0.0,0.0
1120,279.75,114.082,168.898,108.911,97.5647,77.5191,0.0263747,1.58617,18.2976,531.344,2.2245,0.0,0.0
1124,280.75,116.044,172.108,101.431,97.563,76.2751,0.0271707,1.6288,18.2358,531.133,2.38081,0.0,0.0
1128,281.75,118.073,175.835,101.231,97.5655,76.1773,0.028063,1.67229,18.1837,530.883,2.39346,0.0,0.0
1132,282.75,119.814,179.099,105.668,97.5744,76.5354,0.0288279,1.71094,18.1183,530.673,2.34899,0.0,0.0
1136,283.75,122.442,183.426,105.791,97.5821,74.8854,0.0298563,1.76466,18.037,530.463,2.56055,0.0,0.0
1140,284.75,124.738,186.662,100.915,97.587,75.2528,0.0310336,1.81885,17.937,530.203,2.51369,0.0,0.0
1144,285.75,126.35,190.269,110.405,97.5939,73.7961,0.0322925,1.87,17.8206,529.962,2.70344,0.0,0.0
1148,286.75,129.556,194.926,111.947,97.5963,75.2236,0.0335684,1.93501,17.7074,529.672,2.51837,0.0,0.0
1152,287.75,131.999,200.119,100.989,97.6053,74.6085,0.0349607,1.9983,17.6079,529.402,2.59867,0.0,0.0
1156,288.75,135.145,203.961,87.2314,97.6187,72.2919,0.0363788,2.0556,17.4967,529.102,2.90508,0.0,0.0
1160,289.75,137.021,208.894,121.202,97.611,71.987,0.0377973,2.11747,17.4025,528.891,2.9452,0.0,0.0
1164,290.75,139.317,213.998,108.963,97.6114,74.693,0.0390785,2.17555,17.3075,528.611,2.58833,0.0,0.0
1168,291.75,141.98,218.032,106.954,97.6317,73.2939,0.0402604,2.23291,17.2167,528.321,2.77323,0.0,0.0
1172,292.75,144.879,222.246,110.965,97.643,74.0962,0.041469,2.28967,17.1297,528.071,2.66906,0.0,0.0
1176,293.75,147.104,225.607,84.1088,97.6447,71.134,0.0425797,2.34216,17.0517,527.76,3.06383,0.0,0.0
1180,294.75,149.751,230.379,98.711,97.6479,73.518,0.0435874,2.39953,16.9811,527.49,2.74531,0.0,0.0
1184,295.75,151.253,233.059,95.4862,97.6544,73.6041,0.0444861,2.44801,16.9058,527.19,2.73463,0.0,0.0
1188,296.75,154.287,238.427,90.4737,97.6812,73.952,0.0454259,2.49714,16.8295,526.95,2.69167,0.0,0.0
1192,297.75,156.865,241.136,103.951,97.6698,73.4096,0.0464247,2.54745,16.7632,526.649,2.76175,0.0,0.0
1196,298.75,158.336,246.1,93.2536,97.6877,71.27,0.047398,2.59042,16.7197,526.409,3.04961,0.0,0.0
1200,299.75,160.733,248.337,96.1747,97.6926,72.2785,0.0481463,2.62574,16.6911,526.159,2.91419,0.0,0.0
1204,300.75,162.353,251.783,90.17,97.7039,73.4916,0.0486295,2.65219,16.6732,525.889,2.75433,0.0,0.0
1208,301.75,164.177,253.804,75.3525,97.7092,73.5306,0.0486258,2.6687,16.677,525.569,2.74972,0.0,0.0
1212,302.75,165.327,255.249,92.3888,97.721,74.5318,0.0482535,2.67558,16.6974,525.238,2.62008,0.0,0.0
1216,303.75,166.278,256.18,99.2278,97.7319,72.2878,0.0473836,2.67281,16.7406,524.968,2.91684,0.0,0.0
1220,304.75,167.307,256.998,98.7629,97.7433,74.0353,0.0463354,2.65832,16.776,524.748,2.68694,0.0,0.0
1224,305.75,167.852,256.466,91.0767,97.7506,72.5205,0.0452015,2.63482,16.8451,524.498,2.88761,0.0,0.0
1228,306.75,168.131,256.385,95.1221,97.7628,73.1575,0.0436825,2.59323,16.9555,524.247,2.80423,0.0,0.0
1232,307.75,167.152,253.639,99.3972,97.7624,75.1156,0.0415791,2.54865,17.074,524.057,2.54871,0.0,0.0
1236,308.75,166.658,250.29,90.9149,97.7734,74.792,0.0394301,2.48941,17.1917,523.837,2.59155,0.0,0.0
1240,309.75,165.814,248.17,95.2503,97.7896,73.9508,0.0371603,2.42342,17.3317,523.727,2.70256,0.0,0.0
1244,310.75,164.708,244.741,113.444,97.7896,72.0796,0.0348592,2.35191,17.5128,523.487,2.95045,0.0,0.0
1248,311.75,162.516,239.725,111,97.8018,75.416,0.0326525,2.2738,17.7127,523.297,2.514,0.0,0.0
1252,312.75,160.658,234.815,110.547,97.8152,72.5111,0.0304726,2.17179,17.9301,523.116,2.89524,0.0,0.0
1256,313.75,157.025,227.296,124.398,97.8282,77.9016,0.0282955,2.05272,18.1833,523.056,2.20299,0.0,0.0
1260,314.75,153.133,219.167,123.284,97.84,76.0993,0.0259547,1.9116,18.4084,522.946,2.43054,0.0,0.0
1264,315.75,148.988,210.253,127.155,97.8505,78.8094,0.0235749,1.7736,18.6641,522.856,2.09313,0.0,0.0
1268,316.75,144.317,200.652,135.806,97.8529,80.251,0.0212806,1.63033,18.9369,522.806,1.91804,0.0,0.0
1272,317.75,140.249,192.074,137.246,97.8858,83.4893,0.0192882,1.48689,19.2144,522.736,1.53868,0.0,0.0
1276,318.75,135.052,183.542,138.891,97.881,87.4225,0.0173021,1.35222,19.4737,522.716,1.09294,0.0,0.0
1280,319.75,130.28,174.614,142.674,97.8895,90.867,0.015527,1.22352,19.6975,522.666,0.720013,0.0,0.0
1284,320.75,125.278,166.688,141.556,97.9017,92.9299,0.0139938,1.09414,19.8765,522.626,0.504095,0.0,0.0
1288,321.75,121.409,158.643,142.396,97.913,94.0248,0.0126682,0.980659,20.0214,522.596,0.391921,0.0,0.0
1292,322.75,116.917,150.896,148.357,97.9175,98.5497,0.0115551,0.888109,20.1441,522.576,-0.0622419,0.0,0.0
1296,323.75,112.968,144.006,148.096,97.9236,98.263,0.0105336,0.801153,20.2425,522.576,-0.0334679,0.0,0.0
1300,324.75,109.25,137.817,143.107,97.9228,99.0052,0.00965337,0.721997,20.3292,522.566,-0.106325,0.0,0.0
1304,325.75,105.678,131.583,144.582,97.9536,98.6199,0.00892776,0.655464,20.4033,522.536,-0.0655642,0.0,0.0
1308,326.75,102.21,126.235,147.906,97.9504,99.2029,0.00838181,0.599591,20.4621,522.516,-0.122895,0.0,0.0
1312,327.75,99.117,120.36,142.062,97.9528,99.2821,0.00796089,0.553324,20.5025,522.486,-0.13037,0.0,0.0
1316,328.75,96.3129,116.236,145.514,97.9719,99.41,0.00764915,0.513519,20.534,522.426,-0.140937,0.0,0.0
1320,329.75,94.721,112.139,150.672,97.9703,100.215,0.00742494,0.481545,20.558,522.416,-0.219074,0.0,0.0
1324,330.75,91.0169,107.681,144.981,97.9918,99.3385,0.00726719,0.452147,20.5781,522.396,-0.132018,0.0,0.0
1328,331.75,89.8681,104.043,148.097,97.991,99.2654,0.00714794,0.43012,20.596,522.396,-0.12498,0.0,0.0
1332,332.75,87.6397,101.022,146.148,97.9934,99.5464,0.0070284,0.407742,20.6108,522.356,-0.152076,0.0,0.0
1336,333.75,85.9408,98.0901,144.135,97.9999,98.313,0.00689196,0.388799,20.6227,522.326,-0.0308459,0.0,0.0
1340,334.75,83.614,94.6389,146.423,98.0162,99.3304,0.006735,0.373381,20.6332,522.286,-0.128823,0.0,0.0
1344,335.75,83.2574,93.1957,144.949,98.0117,99.6239,0.00654382,0.359514,20.642,522.276,-0.157805,0.0,0.0
1348,336.75,81.1286,90.3509,145.34,98.017,99.6154,0.00639354,0.346895,20.6501,522.246,-0.156455,0.0,0.0
1352,337.75,80.2336,88.3917,147.544,98.0308,98.5099,0.00628959,0.336542,20.6581,522.196,-0.0471527,0.0,0.0
1356,338.75,78.4211,85.4606,147.776,98.0255,100.147,0.00621996,0.327191,20.666,522.206,-0.207117,0.0,0.0
1360,339.75,77.8845,83.8343,149.58,98.0235,99.4745,0.00617071,0.318285,20.6723,522.186,-0.142126,0.0,0.0
1364,340.75,75.9175,81.8131,147.826,98.0308,100.882,0.00611787,0.310338,20.6781,522.196,-0.277347,0.0,0.0
1368,341.75,75.3556,80.8308,151.974,98.0296,101.219,0.00606415,0.303144,20.683,522.156,-0.309644,0.0,0.0
1372,342.75,74.845,79.2271,149.983,98.0393,100.032,0.00597627,0.297051,20.6878,522.156,-0.194653,0.0,0.0
1376,343.75,74.2034,77.7874,146.945,98.034,100.474,0.00587223,0.291291,20.6917,522.115,-0.237789,0.0,0.0
1380,344.75,72.9342,76.741,148.818,98.0369,100.671,0.00574293,0.285781,20.6947,522.106,-0.256484,0.0,0.0
1384,345.75,72.0516,75.0856,145.235,98.0478,101.066,0.00562432,0.280701,20.698,522.086,-0.293282,0.0,0.0
1388,346.75,71.5508,73.8208,146.318,98.0227,101.512,0.00554426,0.276159,20.7011,522.045,-0.338333,0.0,0.0
1392,347.75,71.2076,72.8998,154.24,98.0373,101.51,0.00550973,0.271737,20.7039,522.015,-0.336659,0.0,0.0
1396,348.75,70.2735,72.2342,152.64,98.0267,100.512,0.00550305,0.267904,20.7068,522.005,-0.242183,0.0,0.0
1400,349.75,70.0139,70.6578,149.721,98.0279,101.105,0.00549587,0.264045,20.7103,521.945,-0.298935,0.0,0.0
1404,350.75,69.0666,69.954,154.015,98.0259,100.386,0.00547929,0.260655,20.7133,521.925,-0.230066,0.0,0.0
1408,351.75,68.6406,69.3902,153.48,98.017,101.194,0.00546036,0.25755,20.7159,521.945,-0.308558,0.0,0.0
1412,352.75,68.2204,68.7807,149.82,98.0089,101.891,0.0054682,0.254408,20.7171,521.895,-0.375719,0.0,0.0
1416,353.75,67.3531,68.0706,152.452,98.0064,101.563,0.00550884,0.251433,20.7181,521.895,-0.344771,0.0,0.0
1420,354.75,67.217,67.2258,150.775,97.9967,101.334,0.00556997,0.248843,20.7191,521.885,-0.323939,0.0,0.0
1424,355.75,66.3221,65.6881,148.016,97.9902,101.273,0.00563025,0.246229,20.7198,521.875,-0.318688,0.0,0.0
1428,356.75,66.0374,65.1127,149.186,97.989,102.032,0.00565402,0.243886,20.7218,521.815,-0.391048,0.0,0.0
1432,357.75,65.4984,64.7762,149.784,97.989,102.025,0.00562679,0.24161,20.7244,521.805,-0.390355,0.0,0.0
1436,358.75,64.8277,63.844,149.389,97.9898,101.909,0.00556835,0.239296,20.7266,521.775,-0.379299,0.0,0.0
1440,359.75,64.5334,63.8257,152.172,97.9723,102.135,0.00546478,0.23713,20.7293,521.765,-0.402461,0.0,0.0
1444,360.75,64.2807,63.3997,145.965,97.9609,101.785,0.00535859,0.23507,20.7312,521.775,-0.370385,0.0,0.0
1448,361.75,63.3578,62.1564,149.506,97.9516,101.934,0.00525746,0.233663,20.7324,521.745,-0.385417,0.0,0.0
1452,362.75,63.4253,62.4192,150.011,97.9435,102.229,0.00519111,0.231732,20.7335,521.725,-0.414223,0.0,0.0
1456,363.75,62.8613,61.1366,143.859,97.9272,101.509,0.00515417,0.23005,20.7347,521.715,-0.347404,0.0,0.0
1460,364.75,62.926,61.1645,147.176,97.913,102.162,0.00514601,0.228514,20.7364,521.685,-0.410891,0.0,0.0
1464,365.75,62.037,60.3605,153.335,97.9017,101.702,0.00518551,0.22695,20.7376,521.645,-0.368327,0.0,0.0
1468,366.75,62.3287,60.5609,147.412,97.8838,101.536,0.00525032,0.22561,20.7393,521.645,-0.354287,0.0,0.0
1472,367.75,61.4552,60.3281,146.365,97.8785,101.779,0.00533338,0.224358,20.7405,521.615,-0.377947,0.0,0.0
1476,368.75,61.9927,59.8895,151.259,97.8672,101.938,0.00541662,0.223239,20.742,521.595,-0.394221,0.0,0.0
1480,369.75,60.8731,60.0574,149.843,97.8456,101.662,0.00550143,0.222138,20.743,521.575,-0.370042,0.0,0.0
1484,370.75,61.3458,60.07,154.781,97.8257,102.22,0.00557408,0.220992,20.7436,521.545,-0.424975,0.0,0.0
1488,371.75,60.6868,59.0432,151.811,97.8091,102.326,0.00562235,0.220029,20.7449,521.535,-0.43668,0.0,0.0
1492,372.75,61.1509,59.2383,160.382,97.79,102.068,0.00563934,0.218907,20.7469,521.525,-0.414092,0.0,0.0
1496,373.75,60.2794,58.4621,151.288,97.7673,102.036,0.00562357,0.217797,20.7486,521.505,-0.413378,0.0,0.0
1500,374.75,60.1355,58.6445,147.891,97.7397,102.161,0.00560702,0.216556,20.7497,521.495,-0.427879,0.0,0.0
1504,375.75,59.89,58.0311,146.022,97.7348,102.153,0.00551987,0.215472,20.7502,521.485,-0.427631,0.0,0.0
1508,376.75,59.5262,57.9096,152.196,97.6946,102.105,0.00542321,0.214649,20.7503,521.455,-0.427072,0.0,0.0
1512,377.75,58.7992,57.2149,155.542,97.6714,102.116,0.00531353,0.214009,20.7504,521.415,-0.430364,0.0,0.0
1516,378.75,58.9934,57.1823,150.281,97.6499,101.703,0.00523933,0.213348,20.7505,521.425,-0.393307,0.0,0.0
1520,379.75,58.9739,57.6748,151.485,97.6231,101.897,0.00522437,0.212768,20.7506,521.405,-0.414478,0.0,0.0
1524,380.75,58.1537,56.6793,153.233,97.5854,101.974,0.00524154,0.212204,20.7506,521.415,-0.425499,0.0,0.0
1528,381.75,58.4137,56.9641,151.546,97.5704,102.065,0.00526631,0.211601,20.7506,521.385,-0.43561,0.0,0.0
1532,382.75,58.4879,56.8514,149.622,97.5452,101.515,0.00529381,0.210966,20.7512,521.365,-0.385795,0.0,0.0
1536,383.75,58.0927,56.0981,152.794,97.5082,101.4,0.00532055,0.210301,20.7518,521.335,-0.378505,0.0,0.0
1540,384.75,57.7332,56.4011,152.061,97.4725,102.036,0.00536257,0.209615,20.7522,521.355,-0.442545,0.0,0.0
1544,385.75,57.8483,56.0656,153.681,97.4364,101.999,0.00540424,0.208941,20.7532,521.325,-0.44259,0.0,0.0
1548,386.75,57.2824,55.9795,153.272,97.3885,102.283,0.00546066,0.208238,20.7539,521.115,-0.474259,0.0,0.0
1552,387.75,57.3843,55.1195,157.263,97.3556,101.964,0.00549317,0.207254,20.7548,521.175,-0.44738,0.0,0.0
1556,388.75,56.7518,54.7972,148.612,97.3077,101.228,0.00548072,0.206441,20.7554,521.255,-0.382065,0.0,0.0
1560,389.75,56.7116,55.0531,151.945,97.2853,101.703,0.00544328,0.205877,20.7563,521.265,-0.429527,0.0,0.0
1564,390.75,56.0574,54.6402,156.857,97.2484,101.852,0.00542066,0.205458,20.757,521.245,-0.4474,0.0,0.0
1568,391.75,56.0027,53.5684,149.231,97.2187,101.422,0.0053889,0.204967,20.7577,521.245,-0.409433,0.0,0.0
1572,392.75,55.4846,54.0405,155.642,97.1761,101.816,0.00535915,0.204477,20.7581,521.215,-0.451119,0.0,0.0
1576,393.75,55.0999,54.0108,151.65,97.1335,101.794,0.00531743,0.203977,20.7584,521.155,-0.45332,0.0,0.0
1580,394.75,55.2682,53.6014,155.277,97.0969,102.071,0.0052647,0.203206,20.7594,521.155,-0.483232,0.0,0.0
1584,395.75,55.2423,53.3749,151.373,97.0604,101.31,0.00522508,0.202494,20.7608,521.105,-0.414468,0.0,0.0
1588,396.75,54.6143,53.3274,150.845,97.0417,101.926,0.00522401,0.20189,20.7618,521.115,-0.47499,0.0,0.0
1592,397.75,55.1733,53.3027,154.069,96.9958,102.16,0.00525688,0.20122,20.7624,521.095,-0.501729,0.0,0.0
1596,398.75,54.6332,53.2207,151.553,96.9658,101.764,0.00530562,0.20057,20.763,521.065,-0.467099,0.0,0.0
1600,399.75,54.2275,52.3619,149.614,96.9361,101.937,0.0053849,0.200008,20.7641,521.045,-0.486558,0.0,0.0
1604,400.75,54.1409,52.3757,155.402,96.8935,101.659,0.00546169,0.1994,20.765,521.025,-0.464389,0.0,0.0
1608,401.75,54.0521,52.2677,151.736,96.8558,101.648,0.00554137,0.198835,20.7662,520.995,-0.467077,0.0,0.0
1612,402.75,53.9381,52.3436,152.943,96.8225,101.311,0.00561395,0.197928,20.7672,520.965,-0.438285,0.0,0.0
1616,403.75,53.6641,51.5845,152.278,96.7867,101.234,0.00566156,0.197128,20.7686,520.975,-0.434488,0.0,0.0
1620,404.75,53.8591,51.9383,157.63,96.7502,101.411,0.00565372,0.196407,20.77,520.944,-0.455077,0.0,0.0
1624,405.75,53.3894,51.1808,154.647,96.6917,101.445,0.00560079,0.19574,20.7712,520.955,-0.464137,0.0,0.0
1628,406.75,53.6523,52.0812,154.931,96.6653,101.716,0.00552494,0.195154,20.772,520.914,-0.492601,0.0,0.0
1632,407.75,53.2157,51.3639,150.654,96.6219,101.332,0.00543496,0.194603,20.7728,520.894,-0.460319,0.0,0.0
1636,408.75,53.1685,51.78,157.362,96.5817,101.525,0.00532308,0.19393,20.7741,520.904,-0.482772,0.0,0.0
1640,409.75,51.9371,50.9304,154.475,96.5439,101.239,0.00522543,0.193229,20.7757,520.844,-0.459325,0.0,0.0
1644,410.75,53.0652,51.5054,154.178,96.5062,101.024,0.00515232,0.192442,20.7774,520.874,-0.442491,0.0,0.0
1648,411.75,52.0184,51.3822,149.794,96.4716,101.234,0.0051008,0.191552,20.7789,520.834,-0.466064,0.0,0.0
1652,412.75,52.2645,50.9875,152.539,96.4505,101.093,0.0050696,0.190585,20.7805,520.854,-0.454711,0.0,0.0
1656,413.75,51.3515,50.1288,151.879,96.4132,100.918,0.00504883,0.189625,20.7821,520.844,-0.441702,0.0,0.0
1660,414.75,52.246,50.4225,154.735,96.3673,100.765,0.00502889,0.188708,20.7831,520.834,-0.431586,0.0,0.0
1664,415.75,51.6808,50.4698,150.914,96.3446,101.098,0.00501084,0.187887,20.7838,520.794,-0.46581,0.0,0.0
1668,416.75,51.6066,49.9951,152.453,96.3141,100.846,0.00498742,0.187219,20.7847,520.754,-0.444679,0.0,0.0
1672,417.75,51.2705,49.9071,150.112,96.2857,101.354,0.00496921,0.186573,20.7858,520.764,-0.496201,0.0,0.0
1676,418.75,51.1264,49.4553,152.393,96.2556,101.076,0.00493602,0.185814,20.7872,520.724,-0.472605,0.0,0.0
1680,419.75,51.075,49.8149,156.083,96.2345,101.359,0.00491915,0.185032,20.788,520.714,-0.501806,0.0,0.0
1684,420.75,50.5378,49.2285,152.034,96.2276,100.81,0.00492269,0.184235,20.789,520.714,-0.449979,0.0,0.0
1688,421.75,50.5412,49.0412,151.372,96.1899,101.229,0.00496349,0.1835,20.7908,520.664,-0.493852,0.0,0.0
1692,422.75,50.3126,48.9292,152.06,96.1789,100.839,0.00502462,0.182546,20.7934,520.684,-0.457604,0.0,0.0
1696,423.75,50.5779,48.8116,156.415,96.1598,101.228,0.00510202,0.181573,20.7959,520.684,-0.496835,0.0,0.0
1700,424.75,50.4726,48.7164,154.134,96.146,101.231,0.00518152,0.180509,20.7983,520.644,-0.498495,0.0,0.0
1704,425.75,49.6775,48.6145,158.158,96.1318,101.031,0.00525496,0.179454,20.8007,520.654,-0.480782,0.0,0.0
1708,426.75,49.6292,48.0186,157.955,96.1123,100.68,0.00530887,0.178513,20.8022,520.624,-0.449064,0.0,0.0
1712,427.75,49.5659,48.2882,158.637,96.118,101.28,0.00533429,0.177705,20.8032,520.614,-0.505928,0.0,0.0
1716,428.75,49.2028,48.064,154.429,96.1131,101.019,0.00531805,0.176993,20.8039,520.584,-0.481495,0.0,0.0
1720,429.75,48.5599,47.7004,155.784,96.1058,100.772,0.00525745,0.176309,20.8043,520.584,-0.458606,0.0,0.0
1724,430.75,48.8297,47.5042,157.036,96.0977,101.038,0.00519272,0.175733,20.8049,520.554,-0.484836,0.0,0.0
1728,431.75,48.9734,47.3637,148.374,96.09,101.033,0.00510166,0.174996,20.806,520.524,-0.485146,0.0,0.0
1732,432.75,48.8643,47.5461,158.227,96.0989,101.024,0.00501537,0.174359,20.8073,520.524,-0.483392,0.0,0.0
1736,433.75,48.076,47.1703,151.009,96.1058,100.553,0.00495339,0.173847,20.8081,520.494,-0.437502,0.0,0.0
1740,434.75,48.7164,46.8516,152.671,96.1066,100.87,,0.173162,,520.504,-0.467872,0.0,0.0
1744,435.75,48.5904,46.8306,158.52,96.1091,101.15,,0.172533,,520.484,-0.494491,0.0,0.0
1748,436.75,48.2473,46.7006,156.8,96.12,100.697,,0.172079,,520.464,-0.449926,0.0,0.0
1752,437.75,47.5636,46.6812,154.509,96.1375,101.302,,,,520.464,-0.5061,0.0,0.0
1756,438.75,47.5925,46.1532,155.757,96.1436,101.086,,,,520.414,-0.484843,0.0,0.0
1760,439.75,48.183,47.0314,154.77,96.1468,100.2,,,,520.414,-0.39934,0.0,0.0
1764,440.75,47.0256,45.8825,155.955,96.1655,100.93,,,,520.424,-0.467747,0.0,0.0
1768,441.75,47.4977,46.4892,154.187,96.1874,101.388,,,,520.404,-0.50933,0.0,0.0
1772,442.75,47.081,46.0963,155.248,96.198,101.214,,,,520.384,-0.4916,0.0,0.0
1776,443.75,46.8476,46.0995,154.322,96.2228,100.772,,,,520.374,-0.446768,0.0,0.0
1780,444.75,47.0014,45.9807,155.06,96.2362,101.365,,,,520.364,-0.502185,0.0,0.0
1781,445,47.2464,45.9236,156.026,96.2483,101.04,,,,520.354,-0.46992,0.0,0.0