File: 01_Data/HDPE/Cone/HDPE_Cone_HF25Scan_220131_R3.csv
Names,Time,Stack TC,Smoke TC,Exh Press,Smoke Comp,Smoke Meas,CO Meter,CO2 Meter,O2 Meter,Sample Mass,Ext Coeff,Start Test,Flame Verif
Chan Gain,,500,500,1,1,1,1,1,1,1,1,1.0,1.0
Offset,,0,0,0.14021,0,0,0,0,0,0,0,0.0,0.0
Gain,,1,1,25.011,13.3046,13.3037,1,1,1,1.00087,1.10262,1.0,1.0
Units,sec,C,C,Pa,%,%,%,%,%,g,/m,,
Baseline,,12.5978,14.0976,170.58,97.7604,100.51,0.00511022,0.0850368,20.9416,1.01776,-0.268255,,
5,1,12.3424,13.8814,171.122,95.995,98.8517,0.00517217,0.0876934,20.9433,544.005,-0.283635,0.0,0.0
10,2.25,11.9934,13.3523,171.974,96.0015,98.8135,0.0051495,0.0879919,20.9413,544.005,-0.279245,0.0,0.0
15,3.5,12.3677,13.2719,164.583,96.0193,98.6321,0.00509805,0.088472,20.9399,543.985,-0.259666,0.0,0.0
20,4.75,12.0147,13.692,174.084,96.0474,98.4299,0.0050556,0.0888512,20.9391,543.975,-0.236997,0.0,0.0
25,6,12.0737,13.8422,167.511,96.0551,98.5099,0.0050174,0.0890168,20.9386,543.985,-0.244076,0.0,0.0
30,7.25,12.089,13.9643,171.271,96.0664,99.0462,0.00499122,0.0890562,20.9384,543.985,-0.295446,0.0,0.0
35,8.5,12.3005,13.4867,168.235,96.0778,98.4214,0.00497041,0.089093,20.9382,543.995,-0.233093,0.0,0.0
40,9.75,12.0246,13.9746,170.034,96.116,98.6215,0.00494766,0.0891883,20.9381,544.005,-0.248901,0.0,0.0
45,11,12.0975,13.4956,167.414,96.1208,99.1603,0.00491778,0.0894457,20.9381,543.965,-0.301105,0.0,0.0
50,12.25,12.2632,13.669,170.993,96.1456,98.6601,0.00485588,0.0897764,20.9378,543.985,-0.249701,0.0,0.0
55,13.5,12.4701,13.7432,169.66,96.1732,98.5354,0.00480813,0.0899365,20.9371,543.955,-0.234696,0.0,0.0
60,14.75,12.5451,14.1244,167.799,96.1813,98.9893,0.00474922,0.0898816,20.9364,543.955,-0.278332,0.0,0.0
65,16,13.4062,14.6744,169.876,96.2016,98.5712,0.00472988,0.0896671,20.9377,543.915,-0.235345,0.0,0.0
70,17.25,12.6268,13.9393,171.282,96.2313,98.8265,0.00475067,0.0893869,20.9388,543.925,-0.257391,0.0,0.0
75,18.5,12.3394,13.681,167.69,96.2589,99.0632,0.00481041,0.0889189,20.9394,543.935,-0.277754,0.0,0.0
80,19.75,12.0345,13.71,170.065,96.3036,98.1818,0.00486839,0.088571,20.9397,543.915,-0.186825,0.0,0.0
85,21,12.3174,13.8113,165.882,96.3007,98.5427,0.00492033,0.0880089,20.94,543.895,-0.222601,0.0,0.0
90,22.25,12.4277,14.0787,170.907,96.3312,98.8148,0.00495529,0.0874723,20.94,543.925,-0.246204,0.0,0.0
95,23.5,12.0967,13.8713,169.291,96.3649,98.831,0.00497202,0.0870527,20.9407,543.935,-0.244412,0.0,0.0
100,24.75,11.9808,13.4901,166.603,96.3925,99.172,0.00495737,0.086738,20.9411,543.935,-0.274958,0.0,0.0
105,26,12.1471,13.4111,171.429,96.4095,99.1294,0.00491315,0.0864321,20.9413,543.945,-0.269089,0.0,0.0
110,27.25,12.2328,13.6778,168.162,96.4469,98.6893,0.00485205,0.0861485,20.9419,543.955,-0.222306,0.0,0.0
115,28.5,12.3564,14.1918,167.8,96.4842,98.7799,0.00474761,0.0858763,20.9428,543.935,-0.22743,0.0,0.0
120,29.75,12.4613,13.9521,171.955,96.5127,99.0904,0.00460758,0.0856202,20.9433,543.965,-0.254945,0.0,0.0
125,31,12.5507,13.7867,174.032,96.5362,98.9601,0.00449802,0.0852425,20.9436,543.935,-0.239856,0.0,0.0
130,32.25,12.3539,14.1251,173.219,96.5797,99.2894,0.00444977,0.0849915,20.944,543.935,-0.267632,0.0,0.0
135,33.5,12.478,14.4717,166.821,96.619,99.2398,0.00444367,0.0847851,20.9443,543.935,-0.258863,0.0,0.0
140,34.75,12.8719,14.76,171.66,96.6406,99.5005,0.00446552,0.0845914,20.9449,543.955,-0.282079,0.0,0.0
145,36,12.8048,14.0074,171.059,96.6816,99.3381,0.0045184,0.0844145,20.9457,543.915,-0.262176,0.0,0.0
150,37.25,12.7144,14.2737,166.675,96.727,99.2419,0.00458989,0.08432,20.9461,543.915,-0.248255,0.0,0.0
155,38.5,12.9859,14.5433,169.358,96.7701,99.3178,0.00462987,0.0843963,20.9456,543.875,-0.251348,0.0,0.0
160,39.75,12.9953,14.414,170.034,96.7961,99.5261,0.00462308,0.0846847,20.9452,543.875,-0.269013,0.0,0.0
165,41,12.5424,14.1733,169.407,96.8359,99.2455,0.00461414,0.0850426,20.9449,543.935,-0.237736,0.0,0.0
170,42.25,12.8496,14.2747,167.674,96.8829,99.5793,0.00462483,0.0853329,20.9447,543.925,-0.265502,0.0,0.0
175,43.5,13.0229,13.9891,167.507,96.9179,99.4351,0.00461504,0.085665,20.9443,543.884,-0.248008,0.0,0.0
180,44.75,13.1642,14.6164,173.593,96.9475,99.5468,0.0045861,0.0858276,20.9441,543.915,-0.255904,0.0,0.0
185,46,12.4566,14.3939,176.377,96.9914,100.086,0.00453888,0.0858747,20.9441,543.905,-0.303775,0.0,0.0
190,47.25,12.2879,14.5801,168.638,97.0356,99.7928,0.00451277,0.0858898,20.9449,543.905,-0.270994,0.0,0.0
195,48.5,12.9381,14.622,171.19,97.0722,99.8306,0.00449377,0.0857899,20.9459,543.884,-0.27101,0.0,0.0
200,49.75,13.2409,14.2573,171.249,97.0969,100.024,0.00448169,0.0855362,20.9469,543.915,-0.287287,0.0,0.0
205,51,12.8797,14.0852,170.119,97.1558,99.5943,0.0044799,0.0852818,20.9474,543.895,-0.23976,0.0,0.0
210,52.25,12.7521,15.0589,174.588,97.1956,100.118,0.00451938,0.0850532,20.9478,543.905,-0.28649,0.0,0.0
215,53.5,13.1707,14.6821,174.141,97.2252,100.441,0.00460631,0.0848506,20.9482,543.884,-0.314712,0.0,0.0
220,54.75,12.7382,14.3444,168.049,97.2679,100.414,0.00469676,0.084731,20.9486,543.884,-0.30793,0.0,0.0
225,56,12.8881,14.2901,170.425,97.2987,99.7209,0.00478859,0.0846622,20.9488,543.905,-0.237836,0.0,0.0
230,57.25,13.4112,14.4428,170.361,97.3206,100.613,0.00487228,0.0846075,20.948,543.875,-0.321786,0.0,0.0
235,58.5,12.6364,15.0197,170.32,97.3645,100.098,0.00494256,0.0845311,20.9475,543.865,-0.267774,0.0,0.0
240,59.75,13.425,14.7992,168.971,97.4124,99.9885,0.00498079,0.0845073,20.9472,543.865,-0.252458,0.0,0.0
245,61,12.9678,14.06,170.891,97.4558,99.6572,0.00500371,0.0845188,20.947,543.884,-0.216045,0.0,0.0
250,62.25,13.0231,14.7039,172.578,97.4774,99.9682,0.00501637,0.0844922,20.9469,543.875,-0.244046,0.0,0.0
255,63.5,12.956,14.4508,168.561,97.5013,100.25,0.00501217,0.0845462,20.9467,543.865,-0.26893,0.0,0.0
260,64.75,13.508,14.3094,173.674,97.5395,100.434,0.00497049,0.084679,20.9464,543.875,-0.282834,0.0,0.0
265,66,12.476,14.5954,165.396,97.5659,100.456,0.00491646,0.0849467,20.9462,543.875,-0.282328,0.0,0.0
270,67.25,13.5109,15.4635,174.938,97.5951,100.761,0.00488178,0.0852913,20.9457,543.884,-0.308782,0.0,0.0
275,68.5,13.2384,14.7544,174.449,97.6142,100.223,0.00489517,0.0857204,20.9448,543.865,-0.255115,0.0,0.0
280,69.75,13.0921,14.9434,172.382,97.652,100.286,0.00492812,0.0861947,20.9434,543.884,-0.257445,0.0,0.0
285,71,13.0177,15.0594,174.178,97.6796,100.058,0.00494186,0.0866712,20.9426,543.884,-0.232719,0.0,0.0
290,72.25,13.1523,14.2922,168.133,97.6991,100.39,0.004928,0.0870296,20.9421,543.884,-0.26284,0.0,0.0
295,73.5,12.9068,14.7992,172.665,97.7291,100.96,0.00488723,0.0871736,20.9428,543.905,-0.314551,0.0,0.0
300,74.75,13.1203,15.02,168.873,97.7575,100.279,0.00481767,0.0871117,20.9431,543.895,-0.246329,0.0,0.0
305,76,13.4246,14.7272,168.556,97.7571,100.391,0.00476017,0.0869441,20.9433,543.895,-0.257172,0.0,0.0
310,77.25,13.1418,15.0979,165.688,97.7794,100.073,0.00471769,0.0867557,20.9435,543.854,-0.224247,0.0,0.0
315,78.5,13.3414,15.1877,168.332,97.7981,100.508,0.00467796,0.0865553,20.9435,543.884,-0.264373,0.0,0.0
320,79.75,13.0644,14.7175,169.801,97.8132,100.615,0.00464778,0.0863585,20.9436,543.865,-0.273118,0.0,0.0
325,81,13.4922,15.1129,169.358,97.8261,100.321,0.00464635,0.0862084,20.9438,543.875,-0.243615,0.0,0.0
330,82.25,13.3003,15.1084,166.406,97.8282,100.48,0.00468369,0.0861152,20.9441,543.865,-0.258667,0.0,0.0
335,83.5,13.4546,15.5396,171.239,97.8456,100.021,0.0047407,0.0860794,20.9443,543.905,-0.212679,0.0,0.0
340,84.75,13.3653,14.7212,173.874,97.8554,100.479,0.00478244,0.0860103,20.9444,543.875,-0.2559,0.0,0.0
345,86,12.8624,14.8128,170.038,97.8546,100.208,0.00479901,0.0858817,20.9444,543.875,-0.229878,0.0,0.0
350,87.25,13.4466,14.9927,165.964,97.8603,100.906,0.00480149,0.0857766,20.9445,543.875,-0.296483,0.0,0.0
355,88.5,13.2249,14.2275,171.11,97.8639,100.555,0.00478972,0.0858602,20.9445,543.884,-0.262362,0.0,0.0
360,89.75,12.3949,14.3085,167.586,97.8712,100.705,0.00474073,0.0858804,20.9445,543.875,-0.276039,0.0,0.0
365,91,13.2341,15.2464,170.127,97.8501,100.5,0.00466064,0.086058,20.9441,543.875,-0.258492,0.0,0.0
370,92.25,13.4992,15.5402,166.868,97.8607,100.582,0.00456978,0.0865133,20.9433,543.854,-0.2653,0.0,0.0
375,93.5,13.898,15.013,171.243,97.8643,100.429,0.00448818,0.0869458,20.9429,543.865,-0.25017,0.0,0.0
380,94.75,13.6897,15.2538,169.17,97.8529,100.67,0.00443043,0.0871964,20.9426,543.865,-0.27453,0.0,0.0
385,96,13.162,15.0646,169.571,97.8404,100.609,0.00441826,0.0873642,20.9424,543.884,-0.269922,0.0,0.0
390,97.25,13.5299,15.1507,169.332,97.84,100.571,0.00449618,0.0874293,20.9426,543.875,-0.266253,0.0,0.0
395,98.5,13.2107,15.1646,169.791,97.829,100.515,0.00459218,0.0874236,20.9432,543.844,-0.262025,0.0,0.0
400,99.75,13.5045,15.34,173.105,97.8213,100.469,0.00470512,0.0873722,20.9438,543.875,-0.258294,0.0,0.0
405,101,13.3201,15.1208,172.116,97.8026,100.301,0.00480663,0.087242,20.9443,544.215,-0.243947,0.0,0.0
410,102.25,13.3619,15.2097,174.877,97.7884,100.533,0.00486412,0.08694,20.9453,544.455,-0.267681,0.0,0.0
415,103.5,14.0696,15.603,168.867,97.7742,100.239,0.00488792,0.0864838,20.9457,544.275,-0.240843,0.0,0.0
420,104.75,13.6991,15.4703,172.93,97.762,100.286,0.00489089,0.0860546,20.9452,544.105,-0.246514,0.0,0.0
425,106,13.6719,15.3077,166.369,97.7364,100.704,0.0048893,0.0857643,20.945,543.884,-0.289293,0.0,0.0
430,107.25,13.5571,15.4092,167.993,97.7259,100.556,0.00488094,0.0854941,20.9448,543.454,-0.276172,0.0,0.0
435,108.5,13.7515,15.6552,170.612,97.7039,99.9524,0.00484621,0.085216,20.9447,543.204,-0.220058,0.0,0.0
440,109.75,13.9754,15.7113,171.669,97.6771,100.501,0.00479757,0.0850317,20.9446,543.314,-0.275644,0.0,0.0
445,111,13.5253,15.6436,166.358,97.6475,100.035,0.00477374,0.084867,20.9446,543.754,-0.233659,0.0,0.0
450,112.25,13.7019,15.3453,164.306,97.6296,99.9869,0.0048276,0.0848103,20.9438,543.794,-0.230756,0.0,0.0
455,113.5,13.9061,14.7987,169.65,97.6215,100.128,0.00490589,0.0848481,20.9431,543.854,-0.245179,0.0,0.0
460,114.75,13.6847,15.1668,169.004,97.5866,99.8708,0.00502438,0.0848995,20.9427,543.844,-0.223782,0.0,0.0
465,116,13.4055,14.9044,172.955,97.5643,100.346,0.00510785,0.0848841,20.9425,543.844,-0.271929,0.0,0.0
470,117.25,13.0819,15.5373,170.621,97.5448,99.9605,0.00513115,0.084809,20.9424,543.854,-0.236614,0.0,0.0
475,118.5,13.2335,15.6275,168.613,97.5058,99.7636,0.00509222,0.084852,20.9423,543.865,-0.221408,0.0,0.0
480,119.75,13.5888,15.6127,168.506,97.4802,99.4891,0.00501511,0.0848844,20.9418,543.854,-0.1973,0.0,0.0
485,121,13.5286,15.4519,164.995,97.4607,99.2707,0.00495759,0.0849932,20.9411,543.854,-0.177976,0.0,0.0
490,122.25,13.759,15.5347,166.127,97.436,99.0535,0.00494949,0.0852126,20.9406,543.834,-0.159248,0.0,0.0
495,123.5,13.6359,15.6062,168.967,97.3966,99.2114,0.00499466,0.0854779,20.9403,543.844,-0.178567,0.0,0.0
500,124.75,13.8228,14.9485,170.968,97.3767,99.0904,0.00506341,0.0856432,20.9395,543.824,-0.168741,0.0,0.0
505,126,13.8032,15.5771,170.964,97.3584,99.2167,0.0051177,0.0857326,20.9387,543.834,-0.182874,0.0,0.0
510,127.25,13.743,15.2813,171.792,97.3194,99.2565,0.00513997,0.0859519,20.939,543.834,-0.190625,0.0,0.0
515,128.5,14.1239,15.7699,170.636,97.2938,99.4209,0.00512939,0.0862842,20.9399,543.854,-0.209177,0.0,0.0
520,129.75,13.4387,14.9171,168.664,97.274,99.3945,0.00509598,0.0865489,20.9404,543.814,-0.208587,0.0,0.0
525,131,14.108,15.5333,169.154,97.2463,98.7437,0.00508836,0.086825,20.9407,543.804,-0.147794,0.0,0.0
530,132.25,14.1505,15.6807,171.661,97.2334,98.5517,0.00512284,0.0870078,20.9401,543.834,-0.130257,0.0,0.0
535,133.5,13.2275,15.1676,166.72,97.1936,98.2752,0.00517835,0.087046,20.9403,543.814,-0.107044,0.0,0.0
540,134.75,13.5035,15.7286,167.517,97.1708,98.7214,0.00526567,0.0869753,20.94,543.834,-0.15312,0.0,0.0
545,136,13.5302,15.3604,173.027,97.1558,98.6256,0.00537534,0.0867625,20.9405,543.824,-0.145224,0.0,0.0
550,137.25,13.9066,15.6913,167.942,97.1359,98.5663,0.00549528,0.08659,20.9407,543.814,-0.14139,0.0,0.0
555,138.5,14.1467,15.7712,167.999,97.116,98.5967,0.00556994,0.0865094,20.9406,543.804,-0.146359,0.0,0.0
560,139.75,14.5633,15.7128,177.094,97.1071,98.3438,0.0055802,0.0865541,20.9405,543.804,-0.122404,0.0,0.0
565,141,13.9412,15.6132,170.887,97.0811,98.4449,0.00555237,0.0866377,20.9404,543.814,-0.13493,0.0,0.0
570,142.25,13.8764,15.8831,166.002,97.1128,98.8456,0.00557037,0.0867376,20.9404,543.804,-0.171065,0.0,0.0
575,143.5,13.7077,15.6434,168.991,97.1822,98.2391,0.00565273,0.086733,20.9404,543.794,-0.104618,0.0,0.0
580,144.75,13.6963,15.9026,167.665,97.2492,97.3276,0.00578703,0.0866918,20.9396,543.804,-0.0077963,0.0,0.0
585,146,13.9246,15.7959,169.302,97.3146,98.0052,0.0059175,0.0865894,20.9389,543.794,-0.0684023,0.0,0.0
590,147.25,13.9177,15.912,171.169,97.373,98.1611,0.00603962,0.0865292,20.9386,543.794,-0.0779665,0.0,0.0
595,148.5,14.1667,16.0849,167.287,97.4303,97.6516,0.00615057,0.0865163,20.9387,543.804,-0.0219452,0.0,0.0
600,149.75,13.5429,16.092,165.672,97.4831,98.0186,0.00628344,0.0864218,20.9388,543.794,-0.0529912,0.0,0.0
605,151,14.3838,15.8437,169.184,97.5436,98.0832,0.00642757,0.08628,20.9388,543.784,-0.0533581,0.0,0.0
610,152.25,14.5689,15.9922,169.161,97.5813,98.1323,0.00656765,0.0861303,20.9389,543.814,-0.0544578,0.0,0.0
615,153.5,13.6567,15.9223,168.571,97.6341,97.7421,0.00665148,0.0859684,20.9389,543.784,-0.010696,0.0,0.0
620,154.75,14.3336,16.1175,174.802,97.6853,97.8956,0.00667912,0.0859314,20.9389,543.804,-0.0208035,0.0,0.0
625,156,14.0976,16.6119,166.154,97.7169,97.533,0.00668097,0.0859806,20.9389,543.794,0.0182176,0.0,0.0
630,157.25,13.8182,16.2068,173.991,97.7535,97.5777,0.00668735,0.0860794,20.9389,543.764,0.0174062,0.0,0.0
635,158.5,14.3279,16.2139,168.339,97.8022,97.1425,0.00675561,0.0862153,20.9385,543.764,0.0654635,0.0,0.0
640,159.75,14.8053,16.5508,168.345,97.8391,97.4023,0.0068714,0.0862981,20.9377,543.754,0.0432802,0.0,0.0
645,161,14.3974,16.1234,166.201,97.8424,97.4575,0.0069985,0.0863293,20.9373,543.764,0.0381192,0.0,0.0
650,162.25,14.5544,16.6361,169.488,97.8611,97.462,0.00709196,0.0863826,20.937,543.754,0.0395226,0.0,0.0
655,163.5,14.069,16.171,166.294,97.9272,96.8575,0.00715592,0.0863656,20.9368,543.744,0.106241,0.0,0.0
660,164.75,14.3119,15.9965,168.144,97.9163,97.1823,0.00719838,0.0862611,20.9367,543.724,0.0727799,0.0,0.0
665,166,14.6224,16.0879,171.163,97.9203,96.2249,0.00725423,0.0861489,20.9367,543.704,0.168933,0.0,0.0
670,167.25,14.7753,16.2699,172.089,97.937,96.7677,0.0073484,0.0859946,20.9367,543.714,0.116168,0.0,0.0
675,168.5,13.96,16.074,171.519,97.9642,96.4775,0.00747323,0.085917,20.9365,543.684,0.147912,0.0,0.0
680,169.75,14.3026,16.3404,167.965,97.9626,96.015,0.00757671,0.085906,20.9362,543.684,0.194224,0.0,0.0
685,171,14.6144,16.6719,171.868,97.9528,96.7275,0.00770015,0.0859082,20.9356,543.704,0.12175,0.0,0.0
690,172.25,14.1993,16.1852,172.899,97.9524,96.0459,0.00787812,0.0858952,20.9347,543.694,0.190113,0.0,0.0
695,173.5,14.6857,16.8677,172.555,97.9459,95.9115,0.00807087,0.0858585,20.934,543.664,0.203014,0.0,0.0
700,174.75,14.7328,16.4904,162.79,97.9406,95.5364,0.0082431,0.0859924,20.9332,543.644,0.240398,0.0,0.0
705,176,14.8313,17.0587,166.717,97.9183,96.434,0.00837643,0.0865776,20.9309,543.654,0.147737,0.0,0.0
710,177.25,14.6256,16.7453,175.933,97.9061,96.4746,0.00848432,0.0880687,20.9272,543.654,0.142464,0.0,0.0
715,178.5,14.9628,16.4281,168.817,97.8984,96.1108,0.00858276,0.08999,20.9218,543.594,0.178241,0.0,0.0
720,179.75,15.2048,17.2567,165.168,97.8643,97.3284,0.00867188,0.092507,20.9159,543.584,0.0531089,0.0,0.0
725,181,15.3261,17.794,162.552,97.831,97.2984,0.00874152,0.0957901,20.9091,543.644,0.0528039,0.0,0.0
730,182.25,15.5275,17.9736,167.249,97.8002,96.2172,0.00874962,0.0993953,20.9015,543.604,0.157829,0.0,0.0
735,183.5,15.5164,18.3908,172.69,97.7592,97.4896,0.0086463,0.103401,20.8946,543.564,0.0267059,0.0,0.0
740,184.75,15.8759,18.2699,165.523,97.7084,100.645,0.00832967,0.109265,20.883,543.534,-0.286449,0.0,0.0
745,186,15.8168,19.5675,160.903,97.6556,100.77,0.00794086,0.116052,20.8689,543.474,-0.303645,0.0,0.0
750,187.25,16.7747,19.8461,160.719,97.6105,101.141,0.00751125,0.124045,20.8525,543.454,-0.343623,0.0,1.0
755,188.5,17.204,19.9984,164.218,97.5541,101.744,0.00712716,0.133238,20.8369,543.424,-0.40674,0.0,1.0
760,189.75,17.9446,21.5859,162.202,97.4818,100.492,0.00682306,0.142176,20.8236,543.374,-0.294103,0.0,1.0
765,191,18.5748,22.517,162.148,97.4246,100.461,0.00658369,0.150751,20.8113,543.394,-0.296893,0.0,1.0
770,192.25,18.8871,23.0934,160.008,97.3811,102.112,0.00637824,0.158743,20.7993,543.344,-0.458847,0.0,0.0
775,193.5,18.8348,24.4036,154.397,97.3937,100.365,0.00624228,0.166657,20.7888,543.304,-0.290649,0.0,0.0
780,194.75,20.0136,24.7012,158.38,97.4088,100.582,0.00609507,0.174662,20.7741,543.274,-0.310028,0.0,0.0
785,196,19.8039,25.1308,158.733,97.453,101.192,0.00597958,0.182802,20.7638,543.224,-0.364175,0.0,0.0
790,197.25,20.2968,25.9877,161.89,97.4713,102.115,0.00587569,0.188964,20.7551,543.234,-0.450167,0.0,0.0
795,198.5,21.0882,26.808,157.182,97.4973,101,0.00578894,0.195515,20.7472,543.184,-0.341372,0.0,0.0
800,199.75,20.9542,26.9964,160.087,97.5131,100.984,0.00570277,0.202836,20.7369,543.174,-0.338324,0.0,0.0
805,201,22.201,28.1323,157.601,97.5533,101.373,0.0056341,0.210346,20.7228,543.104,-0.371519,0.0,0.0
810,202.25,22.8432,29.104,155.924,97.5777,100.745,0.00561773,0.217872,20.708,543.054,-0.308953,0.0,0.0
815,203.5,22.6696,28.8535,161.647,97.6313,99.7352,0.00565448,0.225363,20.6937,543.004,-0.206215,0.0,0.0
820,204.75,23.822,30.4568,162.619,97.6313,99.2926,0.00575123,0.233188,20.6801,542.934,-0.163203,0.0,0.0
825,206,24.3382,31.3715,156.117,97.6568,99.7437,0.00586679,0.241849,20.6646,542.924,-0.204509,0.0,0.0
830,207.25,24.292,31.638,158.6,97.693,99.3929,0.0059587,0.250866,20.6471,542.854,-0.166855,0.0,0.0
835,208.5,25.1649,32.9862,160.275,97.7072,96.7198,0.00604846,0.260566,20.6266,542.794,0.0982359,0.0,0.0
840,209.75,25.5278,33.7109,152.951,97.7384,95.337,0.00615643,0.270828,20.6064,542.763,0.240611,0.0,0.0
845,211,25.8617,34.5414,156.813,97.7596,97.0804,0.00628959,0.281579,20.5897,542.673,0.0674342,0.0,0.0
850,212.25,27.04,36.0395,155.205,97.7872,94.4235,0.00651142,0.29118,20.5755,542.663,0.338554,0.0,0.0
855,213.5,27.5929,36.9118,153.624,97.8107,93.9185,0.00675053,0.299702,20.5575,542.573,0.392756,0.0,0.0
860,214.75,28.3293,37.5625,159.182,97.8379,92.5271,0.00703424,0.3114,20.5336,542.483,0.539805,0.0,0.0
865,216,29.0091,38.2776,147.797,97.8501,91.7168,0.00734592,0.323104,20.507,542.463,0.626092,0.0,0.0
870,217.25,29.9571,39.869,148.05,97.8663,90.9697,0.00765171,0.335883,20.4851,542.363,0.706798,0.0,0.0
875,218.5,30.3882,40.8804,150.745,97.8992,90.6149,0.00796149,0.347696,20.4691,542.273,0.747849,0.0,0.0
880,219.75,30.9419,42.3317,146.441,97.9151,88.1911,0.00825117,0.360173,20.4503,542.213,1.01165,0.0,0.0
885,221,32.0248,43.8155,148.237,97.926,91.772,0.00860504,0.37275,20.428,542.153,0.627773,0.0,0.0
890,222.25,32.731,44.4164,149.652,97.9346,87.6105,0.00901927,0.384515,20.4049,542.043,1.07746,0.0,0.0
895,223.5,34.052,46.0252,145.072,97.9459,87.9081,0.00953489,0.398253,20.3728,541.973,1.04578,0.0,0.0
900,224.75,35.3209,46.7886,149.3,97.9589,90.0692,0.00981697,0.41254,20.3483,541.883,0.812164,0.0,0.0
905,226,34.8911,47.6575,144.961,97.9613,86.8071,0.0101763,0.426506,20.3228,541.813,1.16921,0.0,0.0
910,227.25,36.6509,49.8489,149.38,97.9666,88.7441,0.010493,0.440065,20.3,541.653,0.956286,0.0,0.0
915,228.5,37.5788,51.3782,150.412,97.9691,88.8253,0.0108343,0.452655,20.2809,541.613,0.94768,0.0,0.0
920,229.75,37.9443,52.5252,144.465,97.9747,85.302,0.0111631,0.464518,20.2629,541.522,1.3397,0.0,0.0
925,231,39.6453,53.6288,144.109,97.9804,86.8862,0.0114607,0.476718,20.2424,541.392,1.16228,0.0,0.0
930,232.25,40.109,54.8428,147.629,97.9776,88.5983,0.0117321,0.489917,20.2221,541.292,0.973266,0.0,0.0
935,233.5,41.213,57.034,143.137,97.9735,87.1712,0.0120159,0.502456,20.2011,541.242,1.12992,0.0,0.0
940,234.75,42.4745,58.1234,147.434,97.9613,87.1051,0.0122559,0.514331,20.1817,541.082,1.13607,0.0,0.0
945,236,42.3879,58.7913,144.097,97.9569,88.8062,0.0123992,0.525038,20.161,540.982,0.948556,0.0,0.0
950,237.25,44.4367,60.9217,142.802,97.9471,84.5558,0.0124841,0.536332,20.1408,540.862,1.42196,0.0,0.0
955,238.5,45.3716,61.9702,143.012,97.9431,87.708,0.0125831,0.546932,20.1261,540.782,1.06755,0.0,0.0
960,239.75,45.37,63.7718,137.967,97.9232,83.929,0.0127537,0.557213,20.1156,540.692,1.49156,0.0,0.0
965,241,46.3687,64.0758,135.019,97.8952,79.6701,0.0130124,0.566994,20.0999,540.522,1.99249,0.0,0.0
970,242.25,46.951,65.4672,146.229,97.8854,82.2969,0.0132537,0.576063,20.0858,540.411,1.67777,0.0,0.0
975,243.5,48.1549,66.5212,138.399,97.8607,84.186,0.0133986,0.588104,20.0666,540.301,1.45581,0.0,0.0
980,244.75,48.5958,67.414,134.738,97.831,86.1493,0.0134726,0.599121,20.0461,540.211,1.2299,0.0,0.0
985,246,49.6887,69.6941,146.362,97.8067,86.2196,0.0135487,0.61301,20.0178,540.071,1.21961,0.0,0.0
990,247.25,51.088,70.8883,127.483,97.7819,84.4129,0.0136823,0.627138,19.9948,539.921,1.42199,0.0,0.0
995,248.5,52.0662,72.3393,138.417,97.7592,82.9501,0.0138408,0.6392,19.9735,539.851,1.58881,0.0,0.0
1000,249.75,53.0832,73.8306,137.244,97.7202,82.8112,0.0139952,0.65136,19.9536,539.681,1.60116,0.0,0.0
1005,251,53.5286,75.0395,138.85,97.6832,84.3041,0.014136,0.662947,19.9357,539.571,1.4247,0.0,0.0
1010,252.25,54.504,75.8138,131.634,97.6552,82.9538,0.0142805,0.673634,19.9196,539.421,1.5781,0.0,0.0
1015,253.5,55.6541,77.8382,135.127,97.6183,82.8803,0.0144081,0.684474,19.9059,539.301,1.58301,0.0,0.0
1020,254.75,55.9997,78.7501,134.869,97.5712,81.7597,0.0145119,0.693243,19.8905,539.16,1.71,0.0,0.0
1025,256,56.9812,80.0348,130.891,97.5427,84.1088,0.0145792,0.70205,19.8746,539.02,1.43321,0.0,0.0
1030,257.25,58.0705,81.173,132.489,97.4993,83.0703,0.0146372,0.71164,19.8601,538.91,1.54907,0.0,0.0
1035,258.5,58.5976,82.8586,133.309,97.4623,82.7585,0.0147603,0.721922,19.8433,538.78,1.58177,0.0,0.0
1040,259.75,60.225,83.7746,133.615,97.4173,79.4155,0.0149028,0.729421,19.8302,538.67,1.97611,0.0,0.0
1045,261,60.6579,84.7299,140.048,97.3787,81.0801,0.0150281,0.738403,19.8181,538.55,1.77164,0.0,0.0
1050,262.25,60.6031,85.4564,128.1,97.3324,84.4523,0.0150787,0.747014,19.8073,538.4,1.37291,0.0,0.0
1055,263.5,62.1048,87.2171,129.869,97.3068,83.4211,0.0150814,0.755118,19.7935,538.21,1.4892,0.0,0.0
1060,264.75,63.3519,88.2361,136.452,97.2549,84.296,0.0150579,0.765169,19.7785,538.049,1.38312,0.0,0.0
1065,266,63.1419,89.2081,136.245,97.2252,81.9095,0.015055,0.776103,19.7593,537.919,1.65794,0.0,0.0
1070,267.25,64.5634,90.8092,132.753,97.181,81.2591,0.0150922,0.787045,19.7429,537.759,1.73065,0.0,0.0
1075,268.5,65.2887,91.8972,126.946,97.1249,81.7548,0.0152079,0.797283,19.7263,537.649,1.66624,0.0,0.0
1080,269.75,66.3843,93.2887,127.412,97.086,82.8352,0.0153512,0.807864,19.7073,537.499,1.53539,0.0,0.0
1085,271,67.2726,93.8905,134.164,97.0433,81.2153,0.0155107,0.819249,19.6834,537.369,1.72216,0.0,0.0
1090,272.25,67.7755,95.4311,139.626,97.0182,82.4195,0.0156923,0.831223,19.6583,537.209,1.57729,0.0,0.0
1095,273.5,69.4698,96.7341,126.729,96.9658,83.2785,0.0158465,0.844769,19.636,537.008,1.47178,0.0,0.0
1100,274.75,70.5816,97.9852,123.835,96.9329,81.3533,0.0160419,0.858678,19.6115,536.898,1.69472,0.0,0.0
1105,276,71.5458,99.383,123.417,96.8951,81.4402,0.0162344,0.87052,19.5913,536.748,1.68063,0.0,0.0
1110,277.25,72.5226,101.248,132.557,96.8712,78.9941,0.0163752,0.882068,19.576,536.598,1.9732,0.0,0.0
1115,278.5,73.5841,102.277,128.528,96.8281,80.5746,0.0164983,0.893181,19.558,536.448,1.77729,0.0,0.0
1120,279.75,74.4634,103.72,137.352,96.7912,78.1423,0.0166507,0.905834,19.5348,536.258,2.07007,0.0,0.0
1125,281,75.1453,105.36,123.214,96.7526,80.1658,0.0169454,0.919645,19.5089,536.118,1.81894,0.0,0.0
1130,282.25,76.417,107.135,132.072,96.7222,80.3806,0.017375,0.934764,19.4807,535.938,1.79002,0.0,0.0
1135,283.5,77.8,108.404,110.133,96.6759,76.9633,0.0178772,0.951545,19.4492,535.717,2.20558,0.0,0.0
1140,284.75,78.974,110.652,136.097,96.6572,79.0042,0.0183037,0.967475,19.4232,535.577,1.95057,0.0,0.0
1145,286,80.049,111.855,120.299,96.6125,77.2434,0.0185858,0.982346,19.3989,535.387,2.1641,0.0,0.0
1150,287.25,80.5964,113.641,121.662,96.5817,76.1761,0.0187537,0.999045,19.3747,535.237,2.29559,0.0,0.0
1155,288.5,81.8709,114.88,119.047,96.5407,78.394,0.0188572,1.01553,19.3528,535.017,2.01389,0.0,0.0
1160,289.75,83.0377,116.58,118.419,96.52,80.1357,0.0190296,1.03118,19.3316,534.837,1.79928,0.0,0.0
1165,291,84.2843,117.934,122.263,96.4781,76.1602,0.0192486,1.04398,19.303,534.646,2.28723,0.0,0.0
1170,292.25,85.7847,119.42,112.566,96.4428,78.0457,0.0195227,1.06349,19.2626,534.456,2.04716,0.0,0.0
1175,293.5,86.5773,121.76,119.342,96.4043,76.0344,0.0198503,1.08324,19.227,534.276,2.29582,0.0,0.0
1180,294.75,87.8897,123.76,121.533,96.3819,76.8196,0.0201558,1.10278,19.1911,534.026,2.19421,0.0,0.0
1185,296,88.8127,125.366,123.156,96.3555,76.5987,0.0205281,1.12426,19.1562,533.866,2.21941,0.0,0.0
1190,297.25,90.4567,126.726,121.965,96.3072,76.157,0.0208495,1.14476,19.1118,533.666,2.27049,0.0,0.0
1195,298.5,91.6962,129.395,115.008,96.3129,74.8858,0.0211533,1.16883,19.0679,533.485,2.43387,0.0,0.0
1200,299.75,93.3252,131.663,112.591,96.2845,75.3271,0.0214474,1.19329,19.0256,533.225,2.37418,0.0,0.0
1205,301,93.7465,132.814,104.934,96.2654,74.8696,0.0216671,1.21733,18.989,533.045,2.43119,0.0,0.0
1210,302.25,96.2443,136.427,117.875,96.2341,76.2455,0.0218919,1.24152,18.9575,532.875,2.25192,0.0,0.0
1215,303.5,97.609,137.953,113.484,96.2154,75.047,0.0222348,1.26299,18.9297,532.545,2.40328,0.0,0.0
1220,304.75,99.102,140.021,109.941,96.1951,74.684,0.0227629,1.28203,18.9006,532.365,2.44813,0.0,0.0
1225,306,100.139,141.827,116.543,96.1773,75.2536,0.0235368,1.30619,18.8546,532.184,2.37285,0.0,0.0
1230,307.25,101.816,145.234,109.087,96.1566,74.4132,0.0242743,1.33452,18.7968,531.914,2.47939,0.0,0.0
1235,308.5,103.712,148.068,116.522,96.1375,74.4936,0.0249632,1.36359,18.752,531.674,2.46702,0.0,0.0
1240,309.75,105.001,149.401,109.446,96.1282,73.9853,0.0256378,1.39149,18.7089,531.464,2.53231,0.0,0.0
1245,311,106.896,152.23,104.142,96.1066,74.9828,0.026166,1.41912,18.6713,531.273,2.40061,0.0,0.0
1250,312.25,108.261,153.829,107.144,96.0871,72.6821,0.0268074,1.4467,18.6283,530.963,2.70007,0.0,0.0
1255,313.5,110.007,157.474,98.1485,96.0807,72.924,0.0274622,1.47264,18.5866,530.713,2.66727,0.0,0.0
1260,314.75,111.831,159.521,108.123,96.0668,72.2968,0.0280673,1.49698,18.5374,530.493,2.74944,0.0,0.0
1265,316,112.896,162.089,122.644,96.053,74.4356,0.028571,1.52907,18.4853,530.253,2.46606,0.0,0.0
1270,317.25,115.034,165.087,109.991,96.0534,71.9756,0.0289871,1.55723,18.4403,530.012,2.79115,0.0,0.0
1275,318.5,116.745,167.396,113.054,96.0384,71.2993,0.0293641,1.58481,18.4022,529.732,2.88096,0.0,0.0
1280,319.75,118.032,169.157,107.504,96.0201,71.8879,0.029754,1.61654,18.3322,529.462,2.79959,0.0,0.0
1285,321,120.216,171.853,87.6573,96.0177,73.9735,0.0301619,1.65983,18.26,529.212,2.52273,0.0,0.0
1290,322.25,122.564,176.123,107.205,96.0303,71.6042,0.0305628,1.68636,18.2075,528.982,2.83887,0.0,0.0
1295,323.5,124.373,178.759,99.6796,96.0043,71.1945,0.0310369,1.71997,18.1639,528.681,2.89174,0.0,0.0
1300,324.75,125.691,181.455,106.889,96.0035,73.2281,0.0315303,1.74932,18.1249,528.431,2.61926,0.0,0.0
1305,326,127.623,184.285,112.514,96.0007,74.0596,0.0321151,1.77753,18.0841,528.171,2.50976,0.0,0.0
1310,327.25,129.414,187.804,98.6805,95.9901,71.9862,0.0328305,1.80618,18.0387,527.87,2.78335,0.0,0.0
1315,328.5,131.17,189.943,87.8198,95.9869,73.6,0.0335155,1.83986,17.981,527.56,2.56858,0.0,0.0
1320,329.75,133.445,192.692,96.6883,95.9791,71.1892,0.034081,1.87204,17.9347,527.27,2.88992,0.0,0.0
1325,331,135.039,195.623,111.146,95.9832,69.4374,0.0346036,1.8986,17.901,527,3.13133,0.0,0.0
1330,332.25,136.397,198.023,98.8995,95.984,70.1089,0.0350454,1.92388,17.8638,526.7,3.03832,0.0,0.0
1335,333.5,137.325,200.097,125.283,95.9812,71.1007,0.0354913,1.95348,17.8084,526.489,2.90216,0.0,0.0
1340,334.75,139.485,203.589,100.695,95.9796,69.8174,0.0360562,1.98531,17.7625,526.089,3.07817,0.0,0.0
1345,336,140.637,205.851,107.946,95.9828,71.134,0.0366941,2.02398,17.7106,525.869,2.8978,0.0,0.0
1350,337.25,142.335,207.341,79.9848,95.9889,70.2108,0.0374417,2.05946,17.6523,525.539,3.02476,0.0,0.0
1355,338.5,144.515,211.745,92.6582,95.9848,68.6384,0.0384214,2.10718,17.5754,525.138,3.24343,0.0,0.0
1360,339.75,146.458,215.597,96.048,95.9731,70.2217,0.0395089,2.15672,17.4744,524.898,3.02166,0.0,0.0
1365,341,148.355,219.316,100.889,95.9816,67.5272,0.0406594,2.20575,17.384,524.538,3.40097,0.0,0.0
1370,342.25,151.66,222.699,92.8468,95.999,72.0223,0.0419263,2.25064,17.3058,524.207,2.7794,0.0,0.0
1375,343.5,153.42,225.279,84.8721,95.9873,69.9412,0.0429352,2.29873,17.2305,523.957,3.06181,0.0,0.0
1380,344.75,154.981,228.363,104.99,95.9836,69.6306,0.0439691,2.34397,17.1677,523.617,3.10449,0.0,0.0
1385,346,157.467,233.271,75.8624,95.9889,69.1735,0.0448381,2.38075,17.1262,523.246,3.16873,0.0,0.0
1390,347.25,158.988,234.794,91.3454,95.997,70.7004,0.0454541,2.4155,17.0816,522.916,2.95837,0.0,0.0
1395,348.5,160.595,237.178,104.587,96.0039,68.6879,0.0458408,2.44874,17.0372,522.656,3.23838,0.0,0.0
1400,349.75,163.437,240.738,88.3389,95.9901,71.7588,0.0461055,2.47452,17.0054,522.256,2.81394,0.0,0.0
1405,351,164.303,242.423,92.0705,95.997,70.5835,0.0463348,2.49689,16.9745,521.945,2.97437,0.0,0.0
1410,352.25,165.617,244.527,89.8036,95.9946,68.0951,0.0465693,2.51954,16.9359,521.575,3.32126,0.0,0.0
1415,353.5,167.308,247.107,77.5034,95.9954,69.3221,0.0467691,2.54319,16.9074,521.185,3.14863,0.0,0.0
1420,354.75,169.145,249.665,111.019,96.0137,68.9904,0.0469897,2.56183,16.8897,520.904,3.19686,0.0,0.0
1425,356,170.374,250.915,74.3213,96.0015,68.9692,0.0472515,2.5755,16.8726,520.524,3.19859,0.0,0.0
1430,357.25,171.374,251.855,103.813,96.0047,67.7135,0.0475705,2.59192,16.8575,520.304,3.37665,0.0,0.0
1435,358.5,172.586,252.542,97.6745,96.0214,67.7468,0.0482339,2.6136,16.8375,519.874,3.37357,0.0,0.0
1440,359.75,173.177,254.261,83.2005,96.012,69.7959,0.0491492,2.63318,16.7958,519.483,3.08442,0.0,0.0
1445,361,175.496,256.59,93.4001,96.0266,68.5097,0.0499422,2.66979,16.7199,519.163,3.2658,0.0,0.0
1450,362.25,177.06,259.996,85.9437,96.0234,68.2121,0.0503719,2.70458,16.6663,518.873,3.30757,0.0,0.0
1455,363.5,177.845,261.596,100.331,96.0352,68.9343,0.0504161,2.73102,16.6347,518.602,3.20689,0.0,0.0
1460,364.75,179.315,263.079,86.9573,96.0368,68.4768,0.0501965,2.74738,16.6199,518.152,3.27146,0.0,0.0
1465,366,180.877,265.726,90.676,96.0384,68.4447,0.0497248,2.74987,16.6341,517.822,3.27616,0.0,0.0
1470,367.25,181.334,266.242,86.981,96.0376,70.0837,0.0490738,2.73378,16.6903,517.471,3.04719,0.0,0.0
1475,368.5,181.313,265.731,84.6309,96.0437,66.3416,0.0484345,2.71142,16.752,517.151,3.57854,0.0,0.0
1480,369.75,181.899,265.136,82.599,96.0567,66.5519,0.0477845,2.68347,16.8151,516.831,3.54924,0.0,0.0
1485,371,182.22,263.797,82.3861,96.0628,69.7638,0.0470019,2.64939,16.8891,516.601,3.09398,0.0,0.0
1490,372.25,181.868,263.651,101.939,96.0725,70.2538,0.0459899,2.60407,16.9747,516.26,3.02726,0.0,0.0
1495,373.5,182.149,261.572,94.2298,96.0928,67.0895,0.0446561,2.55116,17.0903,516.01,3.47506,0.0,0.0
1500,374.75,180.343,258.103,105.954,96.0863,68.4224,0.0432385,2.48284,17.2184,515.71,3.28414,0.0,0.0
1505,376,179.552,255.308,119.026,96.1022,69.2502,0.0418024,2.40514,17.3675,515.48,3.16941,0.0,0.0
1510,377.25,178.232,251.755,108.86,96.1257,68.9652,0.0403566,2.33254,17.5054,515.179,3.21167,0.0,0.0
1515,378.5,176.352,249.179,92.3758,96.1265,69.4564,0.0388142,2.24951,17.6377,514.979,3.1431,0.0,0.0
1520,379.75,174.688,245.012,111.636,96.1476,71.84,0.0368916,2.16023,17.7654,514.759,2.81887,0.0,0.0
1525,381,173.133,239.906,109.4,96.1712,73.7539,0.0348966,2.07271,17.893,514.569,2.56694,0.0,0.0
1530,382.25,170.435,235.406,117.984,96.1769,73.8237,0.0325288,1.96877,18.0399,514.349,2.55836,0.0,0.0
1535,383.5,167.833,229.41,111.262,96.202,73.1206,0.0301786,1.87823,18.2562,514.159,2.65346,0.0,0.0
1540,384.75,164.993,222.945,114.537,96.2232,73.6536,0.0280031,1.75462,18.4883,513.988,2.58532,0.0,0.0
1545,386,161.497,216.584,110.859,96.2353,72.8814,0.0262247,1.63818,18.6939,513.798,2.68849,0.0,0.0
1550,387.25,158.265,209.959,130.412,96.2666,76.2053,0.0246134,1.53417,18.8578,513.658,2.26028,0.0,0.0
1555,388.5,154.88,203.503,126.751,96.2962,74.4636,0.0233091,1.43037,19.0142,513.568,2.48688,0.0,0.0
1560,389.75,151.263,196.75,116.866,96.3218,76.1631,0.0222293,1.33437,19.1697,513.438,2.27119,0.0,0.0
1565,391,147.595,190.303,122.972,96.3373,76.3977,0.0213727,1.2458,19.3198,513.348,2.24298,0.0,0.0
1570,392.25,144.353,184.163,131.34,96.3706,76.2345,0.020782,1.16283,19.4487,513.208,2.26701,0.0,0.0
1575,393.5,140.766,178.349,130.177,96.3937,76.9182,0.0201506,1.08802,19.5557,513.118,2.18297,0.0,0.0
1580,394.75,137.546,172.117,130.878,96.4327,73.4985,0.0194007,1.01954,19.6594,513.008,2.62675,0.0,0.0
1585,396,134.216,166.149,125.306,96.4672,74.846,0.0184191,0.948779,19.7664,512.908,2.45449,0.0,0.0
1590,397.25,130.866,160.037,137.901,96.5041,81.9014,0.0171957,0.882341,19.8948,512.867,1.5869,0.0,0.0
1595,398.5,127.437,154.364,135.022,96.5411,84.6098,0.0157681,0.811921,20.0206,512.817,1.27593,0.0,0.0
1600,399.75,123.058,147.917,140.102,96.5752,86.833,0.0143047,0.739934,20.1317,512.787,1.02848,0.0,0.0
1605,401,119.707,141.302,140.262,96.6004,89.2235,0.0127506,0.66865,20.244,512.777,0.768329,0.0,0.0
1610,402.25,116.068,135.963,143.373,96.6475,91.3932,0.0116298,0.600045,20.3327,512.777,0.540663,0.0,0.0
1615,403.5,111.625,128.453,147.958,96.6852,92.4585,0.0104728,0.539069,20.4229,512.767,0.432349,0.0,0.0
1620,404.75,108.994,123.84,146.674,96.7518,95.242,0.00951086,0.479866,20.5051,512.767,0.152122,0.0,0.0
1625,406,105.53,119.171,146.792,96.7888,95.3837,0.00874854,0.440457,20.5739,512.747,0.141436,0.0,0.0
1630,407.25,101.599,112.842,153.517,96.8346,97.2387,0.00819375,0.394301,20.6276,512.707,-0.0402746,0.0,0.0
1635,408.5,99.7757,109.159,150.886,96.8805,97.5704,0.00776503,0.35562,20.6806,512.707,-0.0686299,0.0,0.0
1640,409.75,96.3383,104.486,148.847,96.9158,97.745,0.00736615,0.319783,20.7244,512.707,-0.0823949,0.0,0.0
1645,411,93.3048,99.7303,149.558,96.9727,99.3576,0.00703211,0.288094,20.7634,512.687,-0.234993,0.0,0.0
1650,412.25,91.7664,96.2158,149.81,97.0165,100.337,0.00672858,0.259549,20.7989,512.697,-0.32552,0.0,0.0
1655,413.5,88.7993,92.1482,155.506,97.0677,100.515,0.00648595,0.236557,20.827,512.707,-0.337587,0.0,0.0
1660,414.75,86.5087,88.9797,147.513,97.0965,100.222,0.0062441,0.216131,20.8492,512.727,-0.306467,0.0,0.0
1665,416,84.478,85.3211,150.593,97.1485,100.054,0.00602341,0.199128,20.8679,512.707,-0.285018,0.0,0.0
1670,417.25,82.3066,82.5092,155.749,97.1875,100.436,0.00580865,0.184423,20.8829,512.717,-0.318038,0.0,0.0
1675,418.5,80.995,80.025,151.871,97.2431,100.701,0.0056193,0.171494,20.8955,512.697,-0.338001,0.0,0.0
1680,419.75,79.4654,77.3487,150.911,97.2569,100.746,0.0054941,0.160681,20.9049,512.717,-0.340879,0.0,0.0
1685,421,78.041,74.9259,148.941,97.3133,99.9625,0.00541096,0.151223,20.912,512.707,-0.259785,0.0,0.0
1690,422.25,76.3839,73.5067,152.867,97.3515,101.222,0.00532882,0.14417,20.9173,512.717,-0.377087,0.0,0.0
1695,423.5,74.8089,70.9376,154.87,97.3872,101.558,0.00525184,0.137678,20.922,512.727,-0.405644,0.0,0.0
1700,424.75,73.7235,69.0764,153.997,97.4169,100.889,0.0051939,0.131527,20.9266,512.737,-0.338692,0.0,0.0
1705,426,72.232,66.8261,155.821,97.4603,101.404,0.00514349,0.126708,20.93,512.747,-0.383646,0.0,0.0
1710,427.25,71.4579,65.5718,154.385,97.494,101.868,0.005102,0.122596,20.9328,512.727,-0.424502,0.0,0.0
1715,428.5,70.5597,63.8848,154.76,97.5163,102.019,0.00503803,0.11894,20.9341,512.737,-0.436578,0.0,0.0
1720,429.75,69.4661,62.7458,157.087,97.557,101.628,0.00496875,0.115974,20.9356,512.737,-0.395413,0.0,0.0
1725,431,68.3654,61.5967,154.838,97.589,102.111,0.00487629,0.113232,20.9365,512.737,-0.438067,0.0,0.0
1730,432.25,67.7662,60.2548,153.646,97.6268,102.259,0.00479043,0.110604,20.9379,512.727,-0.448391,0.0,0.0
1735,433.5,66.429,59.6486,155.888,97.6377,101.869,0.00475178,0.108371,20.9398,512.717,-0.410292,0.0,0.0
1740,434.75,65.9792,58.2775,151.372,97.6751,102.059,0.00476287,0.106313,20.9413,512.737,-0.424655,0.0,0.0
1745,436,65.2947,57.6637,153.212,97.7092,102.518,0.00479825,0.104423,20.9427,512.747,-0.464697,0.0,0.0
1750,437.25,65.336,56.9483,153.965,97.7425,101.637,0.00479686,0.102551,20.9443,512.727,-0.377923,0.0,0.0
1755,438.5,63.2591,55.4216,151.735,97.7384,102.122,0.00475695,0.101076,20.9454,512.747,-0.424347,0.0,0.0
1760,439.75,63.2017,54.7511,153.968,97.779,102.345,0.00470544,0.0997215,20.9461,512.737,-0.441417,0.0,0.0
1765,441,62.6374,54.3172,153.594,97.8095,102.53,0.00468052,0.0984259,20.9464,512.737,-0.455923,0.0,0.0
1770,442.25,61.4336,52.8566,155.902,97.8123,102.791,0.00471696,0.0972816,20.9467,512.757,-0.480238,0.0,0.0
1775,443.5,61.5747,52.4263,152.504,97.8286,102.618,0.00482918,0.0963348,20.9478,512.737,-0.462306,0.0,0.0
1780,444.75,61.1349,51.822,156.369,97.868,102.886,0.00494326,0.0953506,20.9484,512.737,-0.483674,0.0,0.0
1785,446,59.9806,51.338,158.217,97.8806,102.972,0.00501294,0.0944535,20.9488,512.757,-0.490441,0.0,0.0
1790,447.25,59.9325,50.9198,156.872,97.8952,102.852,0.00502871,0.0937192,20.949,512.747,-0.477703,0.0,0.0
1795,448.5,59.161,50.4499,157.357,97.9073,102.711,0.00499758,0.0930407,20.9491,512.707,-0.463281,0.0,0.0
1800,449.75,59.1688,50.0764,154.458,97.9195,102.683,0.00494743,0.0924727,20.9492,512.717,-0.459477,0.0,0.0
1805,451,58.4775,49.2183,158.73,97.9435,102.835,0.0049019,0.0919141,20.9487,512.737,-0.471364,0.0,0.0
1810,452.25,58.3288,49.398,154.003,97.9423,103.08,0.00488034,0.0914091,20.9485,512.757,-0.494484,0.0,0.0
1815,453.5,57.1276,48.7557,155.071,97.9711,103.399,0.0049106,0.0908984,20.9487,512.727,-0.521534,0.0,0.0
1820,454.75,57.6508,48.0589,155.435,97.9756,103.182,0.00496025,0.0903902,20.9488,512.737,-0.500753,0.0,0.0
1825,456,56.6605,47.6106,157.009,97.9703,102.505,0.00497384,0.0899979,20.9489,512.747,-0.437624,0.0,0.0
1830,457.25,56.0662,46.7388,157.609,97.9618,102.856,0.00493491,0.0895772,20.9489,512.747,-0.471584,0.0,0.0
1835,458.5,56.0553,46.9025,153.299,97.9768,103.083,0.00490163,0.0892121,20.949,512.717,-0.491418,0.0,0.0
1840,459.75,55.2366,46.0263,153.718,97.9833,103.301,0.00491822,0.0889609,20.949,512.737,-0.511136,0.0,0.0
1845,461,54.9225,45.7939,159.708,97.9699,103.346,0.00496314,0.0886482,20.949,512.737,-0.516716,0.0,0.0
1850,462.25,54.9128,45.931,158.583,97.9609,102.989,0.00499218,0.0883239,20.949,512.717,-0.484141,0.0,0.0
1855,463.5,54.4666,45.7469,159.165,97.9772,103.39,0.00495901,0.087995,20.9496,512.737,-0.520096,0.0,0.0
1860,464.75,54.1586,44.9052,158.613,97.978,103.351,0.00489185,0.0876842,20.9503,512.737,-0.516332,0.0,0.0
1865,466,53.8045,44.5926,154.188,97.9622,103.094,0.00484478,0.0872862,20.9507,512.767,-0.493852,0.0,0.0
1870,467.25,53.6637,44.0389,155.992,97.9743,103.074,0.00484927,0.0869159,20.951,512.767,-0.490784,0.0,0.0
1875,468.5,52.8063,43.8432,160.125,97.9711,103.15,0.00487642,0.0865408,20.9511,512.757,-0.498226,0.0,0.0
1880,469.75,52.4648,43.8217,156.013,97.9516,103.073,0.00490941,0.0862261,20.9512,512.767,-0.492952,0.0,0.0
1885,471,52.2098,42.9036,155.773,97.9386,103.36,0.0049186,0.0859956,20.9512,512.777,-0.521133,0.0,0.0
1890,472.25,52.1772,43.3256,156.938,97.9333,103.189,0.00490889,0.0858296,20.9513,512.777,-0.505608,0.0,0.0
1895,473.5,51.6299,42.8991,156.587,97.924,103.094,0.00488794,0.0856491,20.9513,512.767,-0.497622,0.0,0.0
1900,474.75,51.6636,43.0351,157.971,97.9118,103.335,0.00484031,0.0854494,20.9503,512.767,-0.521385,0.0,0.0
1905,476,51.3114,42.8718,162.168,97.8879,103.638,0.00481188,0.0853246,20.9499,512.767,-0.552098,0.0,0.0
1910,477.25,50.2216,41.7569,159.8,97.8757,103.346,0.00477762,0.0853134,20.9495,512.767,-0.52602,0.0,0.0
1915,478.5,50.5067,42.0759,161.371,97.8525,103.219,0.00477258,0.0853672,20.9484,512.757,-0.516369,0.0,0.0
1920,479.75,50.1531,41.7221,157.857,97.8351,103.365,0.0048108,0.0853856,20.9481,512.757,-0.531781,0.0,0.0
1925,481,49.3276,40.8029,163.976,97.8196,103.295,0.00487478,0.0853381,20.9485,512.757,-0.52677,0.0,0.0
1930,482.25,49.1417,41.5014,158.291,97.8042,103.444,0.00491235,0.0853485,20.9487,512.727,-0.542275,0.0,0.0
1935,483.5,49.4308,41.5794,161.587,97.779,103.305,0.00489046,0.0853358,20.9488,512.747,-0.531774,0.0,0.0
1940,484.75,49.0488,41.1014,160.449,97.7466,103.386,0.00480117,0.0852109,20.9491,512.787,-0.54251,0.0,0.0
1945,486,48.6572,40.6099,151.626,97.7352,103.443,0.00470455,0.0850601,20.9494,512.757,-0.548951,0.0,0.0
1950,487.25,48.0663,40.6143,156.854,97.7084,103.02,0.00463034,0.0849239,20.9496,512.767,-0.512005,0.0,0.0
1955,488.5,48.6599,40.4783,158.459,97.68,103.381,0.00459459,0.0847122,20.9497,512.767,-0.548646,0.0,0.0
1960,489.75,47.3896,39.2593,156.156,97.6491,103.135,0.00456481,0.0844765,20.9498,512.767,-0.528656,0.0,0.0
1965,491,47.6427,40.0129,160.262,97.6325,103.159,0.00453969,0.0843373,20.9502,512.767,-0.53259,0.0,0.0
1970,492.25,47.6491,39.7018,160.702,97.6126,102.83,0.00454008,0.0841741,20.951,512.757,-0.503601,0.0,0.0
1975,493.5,47.0297,39.2615,152.726,97.5793,103.382,0.00456253,0.0839302,20.9515,512.767,-0.558735,0.0,0.0
1980,494.75,46.6497,39.434,156.744,97.5419,102.886,0.00461735,0.0836659,20.9516,512.767,-0.515873,0.0,0.0
1985,496,46.7094,39.3985,154.093,97.5265,103.304,0.004692,0.0834226,20.9515,512.747,-0.556636,0.0,0.0
1990,497.25,46.1701,38.5573,160.276,97.5115,103.258,0.00474032,0.0831904,20.9514,512.727,-0.553791,0.0,0.0
1995,498.5,45.9749,38.6001,159.519,97.4668,103.203,0.00475882,0.0829254,20.9514,512.727,-0.553087,0.0,0.0
2000,499.75,45.9653,39.0179,161.306,97.464,103.1,0.0047612,0.0827077,20.9516,512.737,-0.543737,0.0,0.0
2005,501,45.3544,38.3695,156.734,97.4315,103.083,0.00474853,0.0824473,20.9524,512.747,-0.5454,0.0,0.0
2010,502.25,44.689,38.1589,156.149,97.4201,102.625,0.00472769,0.082226,20.9529,512.747,-0.503386,0.0,0.0
2015,503.5,44.9933,37.2311,156.872,97.3978,102.903,0.00471324,0.081979,20.9532,512.767,-0.531779,0.0,0.0
2020,504.75,44.3676,37.4961,160.042,97.4006,102.548,0.0047092,0.0817402,20.9534,512.767,-0.498125,0.0,0.0
2025,506,43.9214,37.2964,160.209,97.4753,102.824,0.00470318,0.0815271,20.9535,512.757,-0.516674,0.0,0.0
2030,507.25,43.6361,37.2092,164.086,97.5253,102.589,0.00470346,0.0814012,20.9535,512.767,-0.489621,0.0,0.0
2035,508.5,43.7464,37.0879,159.656,97.5756,103.246,0.00469995,0.0813757,20.9536,512.737,-0.546327,0.0,0.0
2040,509.75,43.2614,36.9221,157.543,97.6341,103.083,0.00469029,0.0813944,20.9536,512.747,-0.525231,0.0,0.0
2045,511,43.2956,36.4717,160.155,97.6812,102.87,0.00468315,0.0813591,20.9536,512.747,-0.500585,0.0,0.0
2050,512.25,43.1442,36.6137,159.107,97.7092,102.935,0.00468513,0.0813465,20.9536,512.757,-0.503955,0.0,0.0
2055,513.5,42.2699,35.4822,158.786,97.7596,102.759,0.0047076,0.0813237,20.9536,512.767,-0.48244,0.0,0.0
2060,514.75,42.5537,36.1962,164.969,97.7998,103.106,0.0047334,0.0813102,20.9536,512.767,-0.511043,0.0,0.0
2065,516,42.3198,36.4489,161,97.8229,103.035,0.00474685,0.0812445,20.9536,512.757,-0.502126,0.0,0.0
2070,517.25,42.1035,36.1181,163.047,97.8481,103.443,0.00473792,0.0810786,20.9536,512.757,-0.537826,0.0,0.0
2075,518.5,42.4158,35.4601,161.125,97.8818,103.433,0.00473264,0.0810109,20.953,512.737,-0.533546,0.0,0.0
2080,519.75,42.2985,35.7245,164.078,97.9118,103.209,0.00473219,0.0809802,20.9523,512.757,-0.509598,0.0,0.0
2085,521,41.9838,35.5412,158.718,97.9244,103.497,0.00473723,0.0811655,20.9523,512.767,-0.535293,0.0,0.0
2090,522.25,41.2932,36.0293,156.618,97.9378,103.457,0.00475414,0.0812749,20.9528,512.757,-0.530212,0.0,0.0
2095,523.5,41.2692,34.8813,160.377,97.9532,103.359,0.00478562,0.0813973,20.9532,512.777,-0.519613,0.0,0.0
2100,524.75,41.2899,35.0396,159.018,97.9581,103.576,,0.0814746,,512.747,-0.539398,0.0,0.0
2105,526,41.5127,34.9178,159.179,97.9687,103.139,,0.0815298,,512.767,-0.497439,0.0,0.0
2110,527.25,40.8167,34.6201,157.41,97.9589,103.76,,,,512.747,-0.55644,0.0,0.0
2115,528.5,40.8252,34.4367,161.339,97.9646,103.211,,,,512.737,-0.504576,0.0,0.0
2120,529.75,40.3208,34.9271,160.512,97.9565,103.552,,,,512.767,-0.537283,0.0,0.0
2125,531,40.2738,34.2866,156.535,97.9305,102.904,,,,512.777,-0.479138,0.0,0.0
2130,532.25,40.2698,34.3497,159.177,97.8229,103.681,,,,512.767,-0.562496,0.0,0.0
2135,533.5,39.396,34.2423,164.437,97.909,103.312,,,,512.767,-0.5195,0.0,0.0
2139,534.5,39.85,33.9956,165.24,97.8834,102.342,,,,512.757,-0.43087,0.0,0.0