File: 01_Data/HDPE/Cone/HDPE_Cone_HF25Scan_220224_R6.csv
Names,Time,Stack TC,Smoke TC,Exh Press,Smoke Comp,Smoke Meas,CO Meter,CO2 Meter,O2 Meter,Sample Mass,Ext Coeff,Start Test,Flame Verif
Chan Gain,,500,500,1,1,1,1,1,1,1,1,1.0,1.0
Offset,,0,0,0.132436,0,0,0,0,0,0,0,0.0,0.0
Gain,,1,1,25.011,15.4219,15.1528,1,1,1,1.00089,1.02113,1.0,1.0
Units,sec,C,C,Pa,%,%,%,%,%,g,/m,,
Baseline,,26.1351,26.2008,162.177,116.308,113.74,-0.00848967,0.05582,20.9753,-479.578,0.200017,,
6,1.25,23.4714,23.6816,163.079,115.311,112.943,-0.00864912,0.0632082,20.9696,425.567,0.185861,0.0,0.0
12,2.75,22.3985,23.0973,164.217,115.335,113.031,-0.00879394,0.0624115,20.9708,425.587,0.18076,0.0,0.0
18,4.25,22.8485,23.3807,157.304,115.36,112.837,-0.00883294,0.062415,20.9706,425.557,0.198027,0.0,0.0
24,5.75,22.8048,22.8608,167.184,115.387,113.263,-0.00877188,0.0632424,20.9688,425.537,0.166439,0.0,0.0
30,7.25,22.7961,22.4498,161.934,115.411,112.863,-0.00868266,0.0644809,20.9676,425.537,0.199955,0.0,0.0
36,8.75,23.0609,22.5754,163.169,115.412,113.127,-0.00860202,0.0655539,20.9672,425.537,0.179097,0.0,0.0
42,10.25,22.8553,23.3739,163.707,115.439,113.172,-0.00856412,0.0655911,20.9672,425.537,0.1777,0.0,0.0
48,11.75,23.4323,23.3567,160.07,115.452,113.405,-0.00857083,0.0648547,20.9682,425.527,0.160222,0.0,0.0
54,13.25,22.9087,23.8096,161.625,115.469,112.93,-0.00861536,0.0638271,20.9697,425.537,0.199089,0.0,0.0
60,14.75,23.333,23.0548,163.101,115.484,113.3,-0.00866276,0.0627332,20.9713,425.547,0.171,0.0,0.0
66,16.25,23.7295,23.2821,165.843,115.499,113.36,-0.00871592,0.061449,20.9727,425.547,0.167417,0.0,0.0
72,17.75,23.0439,23.239,159.197,115.49,112.722,-0.00874852,0.0603657,20.9743,425.537,0.21729,0.0,0.0
78,19.25,23.6071,23.4152,162.541,115.5,113.208,-0.00872877,0.059393,20.9754,425.547,0.179519,0.0,0.0
84,20.75,23.0562,23.4856,163.213,115.526,113.365,-0.00863479,0.0586324,20.976,425.537,0.169169,0.0,0.0
90,22.25,23.1297,23.7419,165.288,115.506,113.419,-0.00850613,0.0582125,20.9761,425.537,0.163289,0.0,0.0
96,23.75,23.4073,23.5131,164.557,115.493,113.485,-0.00844407,0.0579149,20.976,425.547,0.157083,0.0,0.0
102,25.25,23.4138,23.6874,161.483,115.516,113.521,-0.00847455,0.0577289,20.9759,425.537,0.156024,0.0,0.0
108,26.75,23.2391,23.3601,159.311,115.494,113.316,-0.00851776,0.0577464,20.9767,425.537,0.17056,0.0,0.0
114,28.25,23.284,23.4911,161.486,115.501,113.627,-0.00851811,0.0578283,20.9763,425.517,0.146504,0.0,0.0
120,29.75,23.6087,23.6283,164.875,115.482,113.625,-0.00849829,0.0577988,20.977,425.527,0.14519,0.0,0.0
126,31.25,23.9339,23.7359,159.117,115.509,113.674,-0.00851094,0.0576224,20.9772,425.527,0.143444,0.0,0.0
132,32.75,23.4027,23.7806,159.378,115.472,113.311,-0.00856487,0.0573855,20.9773,425.527,0.169174,0.0,0.0
138,34.25,23.2494,23.3855,167.17,115.488,113.317,-0.00859823,0.0571111,20.9782,425.517,0.16994,0.0,0.0
144,35.75,23.5455,23.4367,163.884,115.464,113.473,-0.00861274,0.0566837,20.9789,425.537,0.155841,0.0,0.0
150,37.25,23.5791,23.7816,161.205,115.487,113.609,-0.00866123,0.0564339,20.9793,425.537,0.146831,0.0,0.0
156,38.75,23.551,23.4059,168.441,115.462,113.61,-0.00877161,0.0560522,20.9795,425.537,0.144823,0.0,0.0
162,40.25,23.577,23.7493,164.39,115.48,113.152,-0.00887231,0.0557609,20.9796,425.517,0.182415,0.0,0.0
168,41.75,23.3776,23.8023,158.798,115.462,113.728,-0.00893631,0.055879,20.9797,425.517,0.135568,0.0,0.0
174,43.25,23.0767,23.4454,162.499,115.468,112.943,-0.00896149,0.0561048,20.9797,425.517,0.198027,0.0,0.0
180,44.75,23.6112,23.8077,163.898,115.445,113.67,-0.00890993,0.0563007,20.9797,425.507,0.138771,0.0,0.0
186,46.25,23.7391,23.8283,160.036,115.446,113.368,-0.00877319,0.056543,20.9787,425.507,0.162633,0.0,0.0
192,47.75,22.8698,23.364,162.914,115.442,113.319,-0.00860824,0.0569142,20.9781,425.507,0.166289,0.0,0.0
198,49.25,23.5752,23.9665,161.286,115.431,113.441,-0.00845091,0.0572448,20.9769,425.507,0.155768,0.0,0.0
204,50.75,23.4908,23.8777,161.512,115.422,112.847,-0.00835189,0.057586,20.9761,425.517,0.20208,0.0,0.0
210,52.25,24.3204,24.1754,165.336,115.412,113.146,-0.00830887,0.0579685,20.9757,425.517,0.177632,0.0,0.0
216,53.75,23.4374,23.7381,162.576,115.409,113.646,-0.0083087,0.0583941,20.9755,425.507,0.137891,0.0,0.0
222,55.25,24.2936,24.129,161.738,115.39,113.889,-0.0083494,0.0588134,20.975,425.507,0.117278,0.0,0.0
228,56.75,23.8907,24.2503,162.934,115.396,112.878,-0.00839123,0.0592126,20.9743,425.507,0.197611,0.0,0.0
234,58.25,23.4849,24.1936,160.338,115.384,113.895,-0.00840671,0.0596269,20.974,425.487,0.116329,0.0,0.0
240,59.75,23.8053,23.7947,162.724,115.388,112.944,-0.00843497,0.0599889,20.9738,425.487,0.191781,0.0,0.0
246,61.25,23.7655,24.1886,166.11,115.357,113.421,-0.00851146,0.0603695,20.9734,425.497,0.151639,0.0,0.0
252,62.75,23.642,24.1814,162.934,115.369,113.245,-0.00860303,0.060625,20.9724,425.487,0.166403,0.0,0.0
258,64.25,23.3896,24.1497,161.947,115.34,112.843,-0.00868096,0.0606207,20.9719,425.487,0.196015,0.0,0.0
264,65.75,23.1137,24.1732,161.735,115.34,113.436,-0.0087859,0.0605679,20.9716,425.497,0.149045,0.0,0.0
270,67.25,23.3887,23.8603,162.922,115.314,113.167,-0.00891714,0.0606503,20.9714,425.487,0.168347,0.0,0.0
276,68.75,23.3952,24.4498,158.665,115.318,112.982,-0.00896441,0.0607881,20.9714,425.487,0.183293,0.0,0.0
282,70.25,23.657,23.988,159.874,115.304,113.314,-0.00891071,0.0607906,20.9713,425.477,0.155948,0.0,0.0
288,71.75,23.9322,24.1814,162.326,115.287,113.064,-0.00881891,0.0608562,20.9713,425.487,0.174466,0.0,0.0
294,73.25,22.9742,24.4401,156.963,115.285,113.462,-0.00873462,0.0608863,20.9713,425.487,0.142832,0.0,0.0
300,74.75,23.9444,24.2389,163.27,115.277,113.003,-0.00870825,0.0609421,20.9713,425.497,0.178498,0.0,0.0
306,76.25,23.4785,24.0482,160.77,115.258,112.962,-0.00872584,0.0610537,20.9713,425.497,0.180262,0.0,0.0
312,77.75,23.7829,24.7269,159.888,115.254,113.271,-0.00872575,0.0611141,20.9715,425.487,0.155472,0.0,0.0
318,79.25,23.7367,24.3969,164.417,115.232,113.037,-0.00867361,0.0610615,20.9717,425.477,0.172275,0.0,0.0
324,80.75,23.7797,24.1695,159.114,115.228,112.474,-0.00859636,0.0609267,20.9718,425.477,0.21669,0.0,0.0
330,82.25,23.435,23.6541,161.693,115.217,113.005,-0.00854586,0.0606059,20.9719,425.437,0.173632,0.0,0.0
336,83.75,23.9776,24.4429,159.383,115.199,113.204,-0.00853524,0.0603591,20.9719,425.487,0.156495,0.0,0.0
342,85.25,24.0879,23.7509,159.402,115.195,113.24,-0.00853553,0.0603002,20.9719,425.497,0.153312,0.0,0.0
348,86.75,23.5985,23.7148,160.97,115.179,113.329,-0.00854526,0.0608181,20.971,425.487,0.145048,0.0,0.0
354,88.25,23.9138,24.5074,157.736,115.174,113.352,-0.00862123,0.061988,20.9692,425.477,0.142855,0.0,0.0
360,89.75,23.5916,24.1519,160.542,115.151,113.366,-0.00864045,0.0636363,20.9678,425.477,0.139965,0.0,0.0
366,91.25,23.8274,24.3109,159.913,115.149,113.603,-0.00863128,0.0654711,20.9665,425.497,0.121058,0.0,0.0
372,92.75,23.9797,23.741,163.749,115.132,112.919,-0.00862901,0.0662374,20.9658,425.487,0.173866,0.0,0.0
378,94.25,23.8357,24.3312,162.734,115.131,113.284,-0.00864291,0.0664658,20.9655,425.487,0.144896,0.0,0.0
384,95.75,23.6733,24.5389,161.76,115.117,112.792,-0.00867859,0.0662004,20.9661,425.477,0.18275,0.0,0.0
390,97.25,23.8426,24.7836,161.493,115.12,113.2,-0.00879572,0.0655612,20.967,425.487,0.150601,0.0,0.0
396,98.75,24.1733,24.578,168.67,115.108,113.13,-0.00893172,0.0647575,20.9676,425.487,0.155286,0.0,0.0
402,100.25,24.3287,24.4465,162.731,115.087,112.926,-0.00901976,0.0638593,20.9678,425.497,0.169799,0.0,0.0
408,101.75,24.0679,24.2144,165.12,115.08,113.525,-0.00904666,0.0630935,20.9679,425.497,0.121875,0.0,0.0
414,103.25,23.897,24.5691,162.99,115.089,113.521,-0.00905471,0.0623123,20.9682,425.457,0.122863,0.0,0.0
420,104.75,24.5408,24.7461,162.873,115.072,112.728,-0.00906178,0.0616178,20.9692,425.477,0.18434,0.0,0.0
426,106.25,23.2623,24.7383,162.018,115.08,113.281,-0.00902362,0.0610963,20.9697,425.477,0.141123,0.0,0.0
432,107.75,23.9331,24.4315,163.963,115.061,113.363,-0.00891626,0.0607175,20.9696,425.477,0.133189,0.0,0.0
438,109.25,23.7857,24.6058,166.838,115.068,113.125,-0.00878241,0.0605007,20.9695,425.497,0.152538,0.0,0.0
444,110.75,23.9675,24.6185,160.09,115.063,112.678,-0.008683,0.0603539,20.9695,425.497,0.187577,0.0,0.0
450,112.25,23.9196,24.5932,159.987,115.061,113.356,-0.00859544,0.0602325,20.9694,425.497,0.133701,0.0,0.0
456,113.75,23.5339,24.5431,159.313,115.046,113.286,-0.00851589,0.0602098,20.9686,425.487,0.138158,0.0,0.0
462,115.25,24.0817,24.7885,163.786,115.059,112.805,-0.00850761,0.0602889,20.9679,425.497,0.177253,0.0,0.0
468,116.75,23.8684,24.5799,163.244,115.058,112.975,-0.00857858,0.0603353,20.9676,425.497,0.163678,0.0,0.0
474,118.25,24.4195,24.6068,157.868,115.058,113.019,-0.00872287,0.0604394,20.9678,425.487,0.160122,0.0,0.0
480,119.75,24.1053,24.4406,161.743,115.037,112.956,-0.00883992,0.0605396,20.9679,425.497,0.163569,0.0,0.0
486,121.25,23.745,24.1965,163.739,115.049,112.8,-0.00888173,0.060608,20.9689,425.497,0.176888,0.0,0.0
492,122.75,24.3244,24.797,163.098,115.056,113.108,-0.00887024,0.060623,20.9695,425.507,0.152905,0.0,0.0
498,124.25,24.0095,24.4098,166.19,115.045,112.64,-0.00879566,0.06045,20.9699,425.477,0.189162,0.0,0.0
504,125.75,24.1169,24.4491,160.722,115.048,112.907,-0.00871774,0.0602161,20.9701,425.467,0.168262,0.0,0.0
510,127.25,24.0458,24.9021,159.195,115.036,112.924,-0.00866405,0.0599646,20.9702,425.477,0.165916,0.0,0.0
516,128.75,24.174,24.473,158.195,115.036,112.73,-0.00866537,0.0597242,20.9698,425.477,0.181371,0.0,0.0
522,130.25,24.2365,24.4782,159.229,115.038,112.859,-0.0086765,0.0596742,20.9696,425.467,0.171308,0.0,0.0
528,131.75,24.0684,24.5291,158.287,115.05,112.716,-0.00861391,0.0595646,20.9695,425.467,0.18361,0.0,0.0
534,133.25,23.7517,25.0973,158.204,115.033,112.941,-0.00846705,0.0594098,20.9695,425.457,0.164375,0.0,0.0
540,134.75,23.9238,24.8647,162.179,115.045,111.716,-0.00835942,0.059305,20.9695,425.457,0.263047,0.0,0.0
546,136.25,24.168,24.9578,163.184,115.037,112.806,-0.00831023,0.0592583,20.9694,425.477,0.17542,0.0,0.0
552,137.75,24.21,24.9242,161.054,115.058,112.649,-0.00836123,0.0591551,20.9694,425.477,0.189526,0.0,0.0
558,139.25,24.4147,24.7952,162.101,115.037,112.356,-0.00840172,0.0590463,20.9694,425.477,0.211183,0.0,0.0
564,140.75,24.2998,24.9491,162.741,115.041,111.798,-0.00837009,0.0589488,20.9702,425.477,0.256119,0.0,0.0
570,142.25,24.194,25.1572,163.072,115.036,111.845,-0.00831453,0.0589436,20.9709,425.467,0.251975,0.0,0.0
576,143.75,24.2924,24.8405,160.159,115.051,112.455,-0.00827778,0.0588921,20.9713,425.457,0.204469,0.0,0.0
582,145.25,24.3017,25.1607,160.799,115.044,112.559,-0.00822613,0.0588036,20.971,425.457,0.1956,0.0,0.0
588,146.75,24.0616,25.2755,159.046,115.056,112.179,-0.00812984,0.0588311,20.971,425.457,0.226778,0.0,0.0
594,148.25,23.9165,24.88,162.302,115.043,112.265,-0.00804752,0.0589084,20.9713,425.467,0.218924,0.0,0.0
600,149.75,24.4717,24.8461,160.721,115.062,112.539,-0.0080219,0.0588391,20.9725,425.457,0.198648,0.0,0.0
606,151.25,23.6823,24.7844,166.602,115.042,111.944,-0.00804668,0.0587014,20.9731,425.467,0.24453,0.0,0.0
612,152.75,23.979,25.0768,159.504,115.053,112.004,-0.00808094,0.0585795,20.9735,425.467,0.240601,0.0,0.0
618,154.25,24.4801,24.8681,159.537,115.043,111.266,-0.00813236,0.0584482,20.9736,425.467,0.299013,0.0,0.0
624,155.75,24.4392,25.3344,164.472,115.053,112.046,-0.00818354,0.0582515,20.9737,425.457,0.237273,0.0,0.0
630,157.25,24.4334,25.2562,164.633,115.063,112.291,-0.00821309,0.0580102,20.9738,425.457,0.218398,0.0,0.0
636,158.75,24.2235,24.7867,160.86,115.062,112.021,-0.00818631,0.0578231,20.9738,425.467,0.239929,0.0,0.0
642,160.25,24.3411,25.0764,160.388,115.064,112.248,-0.00810266,0.0576921,20.9738,425.457,0.221939,0.0,0.0
648,161.75,24.5138,25.6247,160.865,115.054,111.974,-0.00805329,0.0574729,20.9738,425.447,0.243042,0.0,0.0
654,163.25,24.4193,25.0247,161.383,115.067,111.275,-0.00805362,0.0573809,20.9738,425.437,0.300099,0.0,0.0
660,164.75,24.3209,25.3128,159.693,115.068,111.175,-0.00809028,0.0574451,20.9738,425.457,0.308292,0.0,0.0
666,166.25,24.6468,25.2612,164.661,115.069,111.642,-0.00812356,0.0574445,20.9738,425.437,0.27085,0.0,0.0
672,167.75,23.9412,24.8731,162.049,115.079,111.333,-0.0081162,0.0574315,20.9738,425.437,0.296401,0.0,0.0
678,169.25,24.8779,25.0394,162.94,115.105,111.643,-0.00809215,0.0574646,20.9739,425.437,0.273523,0.0,0.0
684,170.75,24.6738,25.1644,162.404,115.099,111.785,-0.00804822,0.0575517,20.974,425.427,0.261664,0.0,0.0
690,172.25,24.6919,25.0089,159.761,115.114,111.797,-0.00803889,0.0576865,20.9737,425.427,0.261835,0.0,0.0
696,173.75,24.6585,25.0766,162.837,115.118,111.832,-0.00802768,0.0578454,20.9728,425.437,0.259461,0.0,0.0
702,175.25,24.4999,25.1384,167.743,115.149,111.653,-0.00798202,0.0578859,20.9724,425.437,0.276112,0.0,0.0
708,176.75,24.5496,25.0901,160.761,115.144,111.436,-0.00789593,0.0579059,20.9722,425.427,0.293161,0.0,0.0
714,178.25,24.4667,25.4765,161.131,115.169,112.238,-0.00773737,0.0578422,20.9721,425.417,0.230879,0.0,0.0
720,179.75,24.5857,24.856,158.104,115.165,111.207,-0.00761597,0.0577798,20.972,425.417,0.313302,0.0,0.0
726,181.25,24.324,25.1152,165.422,115.191,110.753,-0.00759426,0.057707,20.972,425.417,0.351928,0.0,0.0
732,182.75,24.513,25.2481,166.645,115.188,111.192,-0.00764757,0.0576292,20.9719,425.417,0.31625,0.0,0.0
738,184.25,24.6497,24.9169,165.936,115.212,110.906,-0.0076375,0.0575419,20.9719,425.427,0.341168,0.0,0.0
744,185.75,24.3391,25.4486,161.347,115.215,111.231,-0.00753623,0.0574846,20.9719,425.417,0.315207,0.0,0.0
750,187.25,24.5415,25.2495,163.118,115.246,110.665,-0.00748487,0.0573969,20.9719,425.417,0.363281,0.0,0.0
756,188.75,24.2615,25.3877,159.139,115.248,110.496,-0.00758503,0.0573591,20.9715,425.387,0.377211,0.0,0.0
762,190.25,24.6716,25.5666,160.634,115.277,111.621,-0.00774915,0.0586855,20.9681,425.397,0.288697,0.0,0.0
768,191.75,24.508,25.4334,159.906,115.288,112.515,-0.00793702,0.0622094,20.9633,425.387,0.218094,0.0,1.0
774,193.25,24.4762,25.848,161.562,115.301,112.422,-0.00806983,0.0670867,20.9559,425.357,0.226485,0.0,1.0
780,194.75,24.8056,25.6628,159.721,115.322,111.386,-0.00815195,0.0722862,20.9451,425.347,0.311006,0.0,1.0
786,196.25,24.6786,25.6185,160.228,115.348,111.98,-0.00816584,0.079178,20.9315,425.357,0.265395,0.0,1.0
792,197.75,24.789,25.6519,157.663,115.365,112.259,-0.00811303,0.085448,20.9201,425.347,0.244433,0.0,1.0
798,199.25,24.7024,25.9589,157.952,115.378,112.492,-0.00794676,0.0917245,20.9112,425.327,0.226952,0.0,0.0
804,200.75,24.7146,26.3132,155.797,115.407,111.972,-0.00780758,0.0971271,20.9035,425.307,0.270664,0.0,0.0
810,202.25,25.2924,26.2243,157.894,115.422,111.67,-0.00778687,0.102095,20.8959,425.287,0.296022,0.0,0.0
816,203.75,25.2109,26.3764,163.698,115.447,111.528,-0.00786559,0.106427,20.8903,425.277,0.309352,0.0,0.0
822,205.25,25.9413,26.4884,158.97,115.452,112.121,-0.00795528,0.111449,20.8836,425.257,0.26223,0.0,0.0
828,206.75,26.034,26.8989,155.581,115.497,111.815,-0.00797641,0.115387,20.8759,425.237,0.290224,0.0,0.0
834,208.25,26.2953,27.3362,154.504,115.514,111.418,-0.00798078,0.120276,20.8665,425.197,0.323379,0.0,0.0
840,209.75,25.9286,27.6638,156.06,115.528,112.947,-0.00801122,0.125949,20.8573,425.197,0.202369,0.0,0.0
846,211.25,26.5378,27.7771,159.275,115.55,111.369,-0.008058,0.131761,20.8474,425.177,0.330056,0.0,0.0
852,212.75,27.1825,28.0464,158.004,115.568,111.857,-0.00805976,0.138494,20.8367,425.127,0.292326,0.0,0.0
858,214.25,27.1727,28.0653,153.732,115.57,111.04,-0.00801047,0.145552,20.8252,425.107,0.358182,0.0,0.0
864,215.75,27.177,27.9818,154.628,115.591,111.01,-0.00792966,0.153504,20.8125,425.076,0.362174,0.0,0.0
870,217.25,27.995,29.4263,148.149,115.6,111.395,-0.00782195,0.161899,20.7983,425.046,0.331914,0.0,0.0
876,218.75,28.5222,29.9259,151.278,115.614,110.149,-0.00773738,0.170908,20.7819,425.016,0.433709,0.0,0.0
882,220.25,29.2726,29.6107,157.424,115.618,110.872,-0.00769061,0.181661,20.764,424.976,0.375453,0.0,0.0
888,221.75,29.4907,29.9969,151.441,115.645,109.619,-0.00767112,0.190569,20.7502,424.926,0.47935,0.0,0.0
894,223.25,29.0221,30.4258,149.774,115.642,109.271,-0.00764741,0.19875,20.7364,424.896,0.507592,0.0,0.0
900,224.75,29.6552,31.5882,149.098,115.666,109.194,-0.00759275,0.206619,20.7231,424.856,0.515783,0.0,0.0
906,226.25,29.9766,31.1317,151.215,115.666,108.936,-0.00751811,0.212993,20.7148,424.806,0.536937,0.0,0.0
912,227.75,30.9685,32.745,145.632,115.681,108.043,-0.00744233,0.218308,20.7066,424.776,0.611905,0.0,0.0
918,229.25,31.2836,33.2572,147.044,115.668,109.233,-0.00745341,0.224052,20.6962,424.706,0.512744,0.0,0.0
924,230.75,31.6526,33.868,153.03,115.697,108.223,-0.00754034,0.23023,20.6856,424.666,0.598166,0.0,0.0
930,232.25,32.3885,34.423,149.439,115.685,108.431,-0.00763364,0.236979,20.6742,424.576,0.580052,0.0,0.0
936,233.75,32.7581,35.3091,148.395,115.688,107.427,-0.00760077,0.243739,20.6644,424.546,0.663625,0.0,0.0
942,235.25,32.9678,35.4212,149.54,115.689,107.454,-0.00743538,0.250564,20.653,424.506,0.661461,0.0,0.0
948,236.75,33.637,36.044,146.616,115.686,107.34,-0.00722019,0.257404,20.6412,424.446,0.670696,0.0,0.0
954,238.25,33.6118,36.7146,142.259,115.686,106.695,-0.00692462,0.26513,20.6292,424.406,0.724649,0.0,0.0
960,239.75,34.5575,37.1311,148.072,115.688,106.242,-0.00664814,0.270953,20.6203,424.316,0.762959,0.0,0.0
966,241.25,34.7038,37.8706,148.675,115.703,103.358,-0.00652325,0.276856,20.6118,424.286,1.01069,0.0,0.0
972,242.75,35.7484,38.1657,148.537,115.697,105.212,-0.0065054,0.28479,20.5991,424.266,0.85086,0.0,0.0
978,244.25,36.026,38.7989,148.643,115.734,102.881,-0.00649176,0.292388,20.5853,424.156,1.05447,0.0,0.0
984,245.75,36.3137,39.607,148.921,115.729,103.5,-0.00642473,0.299968,20.5675,424.096,1.00032,0.0,0.0
990,247.25,36.7062,40.3227,149.306,115.747,103.223,-0.00632643,0.309358,20.5512,424.046,1.02578,0.0,0.0
996,248.75,37.51,40.7642,143.512,115.747,101.124,-0.00619521,0.318662,20.5342,423.975,1.2098,0.0,0.0
1002,250.25,38.4577,41.852,140.415,115.757,101.056,-0.00605764,0.328735,20.5153,423.885,1.21659,0.0,0.0
1008,251.75,37.6726,41.4552,143.537,115.761,100.085,-0.00588627,0.340254,20.4922,423.845,1.30341,0.0,0.0
1014,253.25,39.1754,42.6344,148.485,115.771,101.514,-0.0056401,0.351996,20.4677,423.765,1.17708,0.0,0.0
1020,254.75,39.0792,42.6749,143.854,115.772,99.92,-0.0053111,0.365558,20.4455,423.675,1.31899,0.0,0.0
1026,256.25,40.9295,44.1121,140.709,115.807,96.7454,-0.00496402,0.376712,20.4282,423.595,1.61088,0.0,0.0
1032,257.75,40.5369,45.3519,141.976,115.806,98.7131,-0.00455203,0.38659,20.4108,423.495,1.43047,0.0,0.0
1038,259.25,42.2569,45.5284,139.802,115.838,97.9695,-0.00410909,0.396725,20.3948,423.435,1.50067,0.0,0.0
1044,260.75,41.9359,46.7408,143.939,115.862,97.4418,-0.00377376,0.405832,20.3836,423.315,1.5509,0.0,0.0
1050,262.25,42.4872,46.8801,146.24,115.878,95.852,-0.00339765,0.413228,20.3754,423.275,1.69944,0.0,0.0
1056,263.75,43.7399,48.1159,135.08,115.883,96.1822,-0.00316936,0.421388,20.3651,423.165,1.66904,0.0,0.0
1062,265.25,44.7886,48.6366,136.512,115.895,96.6123,-0.00307016,0.432169,20.3438,423.115,1.62999,0.0,0.0
1068,266.75,44.7411,49.9016,138.604,115.898,94.2812,-0.00298713,0.445674,20.3177,422.955,1.84906,0.0,0.0
1074,268.25,45.6692,50.5326,143.126,115.911,95.3175,-0.00285622,0.460638,20.2858,422.824,1.75209,0.0,0.0
1080,269.75,46.2981,51.3322,137.434,115.91,95.0798,-0.00267702,0.475784,20.259,422.774,1.77441,0.0,0.0
1086,271.25,47.1426,52.4601,138.953,115.917,94.3144,-0.00245866,0.489721,20.2344,422.624,1.84731,0.0,0.0
1092,272.75,47.7798,53.4092,133.305,115.912,92.6123,-0.00223145,0.504128,20.2052,422.554,2.01012,0.0,0.0
1098,274.25,49.082,54.0218,127.035,115.906,93.711,-0.00197091,0.521264,20.1773,422.424,1.90401,0.0,0.0
1104,275.75,49.3005,55.4653,136.841,115.921,91.6083,-0.00148785,0.537151,20.1534,422.314,2.10844,0.0,0.0
1110,277.25,50.6758,55.8363,126.917,115.917,90.6284,-0.00101309,0.550702,20.1269,422.224,2.2044,0.0,0.0
1116,278.75,51.3994,56.914,131.983,115.914,91.2518,-0.000628244,0.566475,20.0984,422.104,2.14279,0.0,0.0
1122,280.25,51.7457,58.6157,131.764,115.887,91.9043,-0.000434856,0.58289,20.0738,421.964,2.07686,0.0,0.0
1128,281.75,52.9266,59.5473,127.636,115.895,94.7968,-0.000246543,0.599253,20.0473,421.854,1.79999,0.0,0.0
1134,283.25,53.9937,60.4627,139.02,115.878,90.2497,-4.95199e-05,0.612128,20.0251,421.743,2.23893,0.0,0.0
1140,284.75,55.1065,61.7208,132.097,115.881,90.6691,7.05917e-05,0.627945,20.0049,421.583,2.19762,0.0,0.0
1146,286.25,56.3116,62.8612,124.824,115.863,93.04,1.55783e-05,0.640907,19.9871,421.473,1.96499,0.0,0.0
1152,287.75,56.9957,64.4746,131.676,115.863,90.6913,-0.000120673,0.653124,19.9673,421.353,2.19404,0.0,0.0
1158,289.25,57.825,65.4015,133.91,115.844,93.9117,-0.000278558,0.665352,19.9511,421.153,1.88004,0.0,0.0
1164,290.75,58.3616,66.2113,131.3,115.838,94.0333,-0.000355524,0.675712,19.9367,421.083,1.86794,0.0,0.0
1170,292.25,59.9305,67.5405,127.207,115.825,93.1759,-0.000320226,0.68586,19.9224,420.933,1.94904,0.0,0.0
1176,293.75,60.118,69.0318,133.848,115.809,91.304,-0.000182563,0.692329,19.9107,420.823,2.12955,0.0,0.0
1182,295.25,61.9355,70.0524,129.795,115.798,89.1417,-3.23351e-05,0.697803,19.9025,420.653,2.34336,0.0,0.0
1188,296.75,62.4315,71.4539,133.048,115.817,89.1158,0.000129349,0.703893,19.894,420.522,2.34745,0.0,0.0
1194,298.25,63.6611,72.0264,127.192,115.784,90.9766,0.000276815,0.709715,19.8776,420.392,2.15979,0.0,0.0
1200,299.75,64.6062,73.1331,131.943,115.771,94.0319,0.000419469,0.719482,19.8581,420.272,1.86291,0.0,0.0
1206,301.25,65.1617,74.4726,125.494,115.762,87.8691,0.000579811,0.730068,19.8419,420.112,2.46938,0.0,0.0
1212,302.75,66.9844,75.5888,130.279,115.753,89.8451,0.000769594,0.741347,19.8267,420.002,2.2695,0.0,0.0
1218,304.25,67.2062,76.6141,128.15,115.738,88.8828,0.000973518,0.754462,19.803,419.832,2.36479,0.0,0.0
1224,305.75,68.332,77.4976,122.428,115.727,89.5704,0.00118616,0.768722,19.7824,419.672,2.29492,0.0,0.0
1230,307.25,68.5822,79.0195,118.59,115.709,88.7177,0.00133266,0.78332,19.7619,419.502,2.37918,0.0,0.0
1236,308.75,69.9185,79.8544,123.189,115.701,88.9239,0.00139273,0.794794,19.7439,419.361,2.3578,0.0,0.0
1242,310.25,70.6953,80.9045,115.491,115.663,90.8782,0.00141629,0.811708,19.7229,419.221,2.16014,0.0,0.0
1248,311.75,72.0339,82.1898,119.593,115.636,88.3246,0.00146338,0.82554,19.6982,419.031,2.41331,0.0,0.0
1254,313.25,72.8713,83.6432,121.098,115.619,87.7138,0.00148887,0.835653,19.6821,418.861,2.4742,0.0,0.0
1260,314.75,73.3324,84.8481,122.603,115.598,91.5033,0.00145392,0.84488,19.6671,418.711,2.09373,0.0,0.0
1266,316.25,74.8209,86.5418,121.942,115.581,92.3269,0.00141622,0.854261,19.6538,418.561,2.01212,0.0,0.0
1272,317.75,75.5131,87.6089,119.353,115.572,88.5295,0.00147286,0.865084,19.6364,418.431,2.3876,0.0,0.0
1278,319.25,76.8003,88.7582,119.485,115.563,86.824,0.00170215,0.874843,19.6218,418.27,2.56118,0.0,0.0
1284,320.75,77.6515,89.3484,118.778,115.525,89.4978,0.00189507,0.882165,19.6095,418.06,2.28655,0.0,0.0
1290,322.25,78.7175,90.7646,120.495,115.51,87.9057,0.00198789,0.889108,19.5984,417.91,2.44616,0.0,0.0
1296,323.75,79.7777,91.6148,122.383,115.477,88.7912,0.0020629,0.899409,19.5772,417.81,2.35378,0.0,0.0
1302,325.25,80.4929,92.7787,114.459,115.472,89.3216,0.00220412,0.914603,19.5497,417.58,2.30011,0.0,0.0
1308,326.75,81.8513,93.4436,119.906,115.428,87.7443,0.00241238,0.92783,19.5292,417.4,2.45627,0.0,0.0
1314,328.25,82.8142,95.461,115.656,115.43,89.2439,0.00260277,0.940172,19.5107,417.21,2.30465,0.0,0.0
1320,329.75,83.2818,96.3759,122.577,115.398,89.0622,0.00271261,0.955043,19.4891,417.089,2.32035,0.0,0.0
1326,331.25,84.6342,97.7997,122.917,115.379,89.0668,0.00273449,0.969149,19.4701,416.879,2.31843,0.0,0.0
1332,332.75,85.2102,99.1715,123.433,115.35,88.3857,0.00275444,0.979604,19.4567,416.699,2.38496,0.0,0.0
1338,334.25,86.8954,100.337,114.148,115.333,88.2479,0.00278829,0.988351,19.4412,416.499,2.39762,0.0,0.0
1344,335.75,86.8299,101.725,121.092,115.314,87.5103,0.00283403,1.00015,19.4195,416.339,2.47134,0.0,0.0
1350,337.25,88.596,102.648,109.703,115.317,88.0342,0.00290671,1.01189,19.4028,416.149,2.41809,0.0,0.0
1356,338.75,89.8957,103.3,114.679,115.282,88.7588,0.00306187,1.02285,19.3869,416.008,2.34192,0.0,0.0
1362,340.25,90.6559,105.035,109.371,115.271,88.6899,0.00331443,1.03288,19.3723,415.808,2.34804,0.0,0.0
1368,341.75,91.3111,106.164,111.751,115.237,88.1433,0.00353795,1.04612,19.3464,415.588,2.40082,0.0,0.0
1374,343.25,92.4219,107.418,108.907,115.226,89.1764,0.00365231,1.05932,19.3235,415.468,2.29553,0.0,0.0
1380,344.75,93.4456,108.378,118.202,115.217,87.2268,0.00374215,1.07284,19.3025,415.248,2.49283,0.0,0.0
1386,346.25,94.4543,109.774,108.884,115.218,87.692,0.00388052,1.087,19.2783,415.068,2.44526,0.0,0.0
1392,347.75,95.016,111.241,127.239,115.201,86.4828,0.00406391,1.10073,19.256,414.877,2.56832,0.0,0.0
1398,349.25,96.6487,112.044,107.422,115.194,86.3265,0.00431002,1.11201,19.2365,414.657,2.58401,0.0,0.0
1404,350.75,97.1315,113.584,108.477,115.181,88.1017,0.00451469,1.12349,19.217,414.407,2.40066,0.0,0.0
1410,352.25,97.72,113.838,108.888,115.179,85.9944,0.00467687,1.13938,19.1925,414.247,2.61732,0.0,0.0
1416,353.75,99.2336,116.017,110.303,115.165,86.3038,0.00478272,1.15484,19.1705,414.057,2.5841,0.0,0.0
1422,355.25,100.535,117.536,113.891,115.16,87.8862,0.00486982,1.16578,19.1576,413.837,2.42094,0.0,0.0
1428,356.75,100.466,117.938,114.716,115.176,88.4902,0.00498032,1.17735,19.1389,413.686,2.36088,0.0,0.0
1434,358.25,102.479,119.559,118.673,115.14,86.5165,0.00506401,1.1929,19.1128,413.466,2.56007,0.0,0.0
1440,359.75,103.538,120.691,115.42,115.158,84.0162,0.00509751,1.20672,19.0913,413.236,2.82421,0.0,0.0
1446,361.25,104.439,122.631,113.016,115.143,86.0879,0.00508213,1.21679,19.0752,413.066,2.60485,0.0,0.0
1452,362.75,105.909,123.579,112.511,115.154,88.0879,0.00506702,1.22859,19.0561,412.776,2.39994,0.0,0.0
1458,364.25,106.751,124.718,110.672,115.13,86.9618,0.00511827,1.24233,19.035,412.605,2.51331,0.0,0.0
1464,365.75,107.84,126.184,103.183,115.131,86.8925,0.00536661,1.25237,19.0197,412.395,2.52053,0.0,0.0
1470,367.25,108.739,127.381,110.89,115.125,84.3186,0.0057232,1.26337,19.0045,412.225,2.78946,0.0,0.0
1476,368.75,109.753,128.803,105.494,115.122,86.024,0.00603081,1.27662,18.9757,411.965,2.60981,0.0,0.0
1482,370.25,110.453,129.789,109.549,115.114,85.6583,0.00627818,1.29556,18.9415,411.785,2.64739,0.0,0.0
1488,371.75,112.136,131.36,105.796,115.132,84.3501,0.00651405,1.31265,18.916,411.625,2.78664,0.0,0.0
1494,373.25,113.106,132.266,102.895,115.109,86.4499,0.00669918,1.32592,18.9032,411.304,2.56462,0.0,0.0
1500,374.75,114.085,133.774,105.643,115.105,85.7059,0.00687037,1.34246,18.8775,411.064,2.64172,0.0,0.0
1506,376.25,114.779,135.117,109.226,115.093,84.6127,0.00695996,1.35707,18.8537,410.844,2.75579,0.0,0.0
1512,377.75,115.881,136.856,107.824,115.099,86.1216,0.00696634,1.37235,18.8335,410.624,2.59786,0.0,0.0
1518,379.25,116.953,137.897,104.644,115.097,84.9013,0.00699546,1.38527,18.8142,410.423,2.72558,0.0,0.0
1524,380.75,118.172,139.081,107.995,115.084,85.7313,0.00708357,1.39915,18.7934,410.213,2.63737,0.0,0.0
1530,382.25,119.392,140.296,106.099,115.092,85.5991,0.00719918,1.41123,18.7722,409.933,2.65183,0.0,0.0
1536,383.75,120.604,141.421,103.337,115.086,85.7332,0.00733603,1.42787,18.7395,409.773,2.6374,0.0,0.0
1542,385.25,121.255,142.866,104.486,115.07,87.409,0.00749573,1.44738,18.7109,409.523,2.46272,0.0,0.0
1548,386.75,122.628,143.892,102.855,115.069,84.4536,0.00766204,1.46594,18.6845,409.222,2.77074,0.0,0.0
1554,388.25,123.5,145.431,100.763,115.066,85.0192,0.00777543,1.47835,18.6646,409.062,2.7107,0.0,0.0
1560,389.75,124.055,146.265,103.145,115.081,83.4465,0.00795144,1.49059,18.6476,408.762,2.87915,0.0,0.0
1566,391.25,124.882,147.551,110.049,115.064,84.8222,0.00826085,1.50055,18.6352,408.532,2.73133,0.0,0.0
1572,392.75,126.876,149.228,107.879,115.051,84.1697,0.00864961,1.5108,18.62,408.332,2.79947,0.0,0.0
1578,394.25,127.444,150.449,105.745,115.065,85.1131,0.00915615,1.52909,18.5843,408.121,2.70074,0.0,0.0
1584,395.75,128.195,151.138,97.3934,115.035,83.2333,0.00962448,1.54956,18.5461,407.811,2.89847,0.0,0.0
1590,397.25,129.384,153.475,100.149,115.046,85.5889,0.00991406,1.56944,18.5183,407.571,2.64934,0.0,0.0
1596,398.75,131.043,154.417,112.521,115.036,83.9972,0.010054,1.5846,18.499,407.401,2.81667,0.0,0.0
1602,400.25,131.843,155.935,98.8612,115.045,84.2788,0.0100664,1.59923,18.4844,407.051,2.78739,0.0,0.0
1608,401.75,133.181,157.408,96.7484,115.032,84.554,0.010074,1.61336,18.4666,406.75,2.75721,0.0,0.0
1614,403.25,134.37,158.795,101.214,115.04,84.8495,0.0101838,1.63504,18.4291,406.56,2.72662,0.0,0.0
1620,404.75,135.175,160.132,99.3878,115.029,84.7394,0.0104205,1.6503,18.4044,406.32,2.73736,0.0,0.0
1626,406.25,136.928,161.73,94.7899,115.038,85.3484,0.0106626,1.66304,18.3832,406.09,2.67391,0.0,0.0
1632,407.75,137.099,162.939,97.227,115.028,83.9487,0.0108403,1.67696,18.3577,405.809,2.82127,0.0,0.0
1638,409.25,138.4,164.411,99.4268,115.025,83.7027,0.010953,1.69253,18.3327,405.559,2.84734,0.0,0.0
1644,410.75,139.581,165.648,104.562,115.043,84.7121,0.0110497,1.70532,18.3154,405.299,2.74131,0.0,0.0
1650,412.25,140.646,166.653,90.3873,115.046,83.5676,0.0111522,1.7176,18.2985,405.049,2.86345,0.0,0.0
1656,413.75,141.325,168.445,106.537,115.044,83.2199,0.0112697,1.72701,18.2875,404.768,2.90058,0.0,0.0
1662,415.25,142.646,169.279,95.9585,115.048,82.5424,0.0114685,1.73967,18.2669,404.498,2.97412,0.0,0.0
1668,416.75,143.609,170.2,100.875,115.049,84.0583,0.0117546,1.75534,18.2399,404.248,2.81119,0.0,0.0
1674,418.25,144.746,171.631,97.7308,115.059,83.397,0.0120445,1.77215,18.2099,403.978,2.88274,0.0,0.0
1680,419.75,145.387,173.283,97.0476,115.049,83.7401,0.0122146,1.7874,18.1908,403.738,2.8452,0.0,0.0
1686,421.25,146.39,174.292,95.6295,115.057,84.1336,0.0122068,1.80062,18.1807,403.437,2.80383,0.0,0.0
1692,422.75,147.399,176.112,92.8641,115.07,82.5396,0.0121552,1.80272,18.1759,403.167,2.97615,0.0,0.0
1698,424.25,148.568,176.699,99.9618,115.071,83.508,0.0121037,1.80351,18.1754,402.867,2.87178,0.0,0.0
1704,425.75,149.526,177.61,97.7376,115.088,83.5417,0.0121789,1.81249,18.1617,402.597,2.86945,0.0,0.0
1710,427.25,150.367,178.857,99.3627,115.088,83.9764,0.0122761,1.82315,18.1512,402.446,2.82296,0.0,0.0
1716,428.75,151.328,179.631,94.0945,115.109,84.6576,0.0122821,1.82867,18.1463,402.086,2.75228,0.0,0.0
1722,430.25,152.213,180.877,100.477,115.108,83.9986,0.0121787,1.8276,18.1522,401.866,2.82217,0.0,0.0
1728,431.75,153.1,182.047,99.1779,115.114,82.2997,0.0121184,1.8237,18.1581,401.626,3.00567,0.0,0.0
1734,433.25,153.636,182.68,94.364,115.145,83.2351,0.0121286,1.82194,18.1631,401.315,2.90681,0.0,0.0
1740,434.75,154.226,183.761,98.4857,115.15,82.9401,0.0121214,1.81598,18.1758,401.045,2.93905,0.0,0.0
1746,436.25,154.863,184.834,100.306,115.14,81.9561,0.0120881,1.80011,18.2016,400.785,3.04512,0.0,0.0
1752,437.75,155.266,184.996,94.5182,115.17,83.348,0.012029,1.78833,18.2211,400.545,2.89665,0.0,0.0
1758,439.25,155.805,185.632,103.164,115.178,83.5195,0.0118739,1.78213,18.2334,400.315,2.87882,0.0,0.0
1764,440.75,156.486,185.773,98.5963,115.201,83.8987,0.0115894,1.77604,18.2502,400.084,2.84004,0.0,0.0
1770,442.25,156.854,186.59,98.5307,115.213,82.6479,0.0111721,1.76102,18.2718,399.844,2.9755,0.0,0.0
1776,443.75,157.256,187.138,103.199,115.22,84.4032,0.0108149,1.74259,18.305,399.574,2.78784,0.0,0.0
1782,445.25,157.258,187.309,103.879,115.228,82.8176,0.0105406,1.71612,18.3439,399.314,2.9583,0.0,0.0
1788,446.75,157.517,186.987,107.535,115.246,84.3057,0.0103436,1.68557,18.401,399.083,2.80025,0.0,0.0
1794,448.25,157.43,187.466,100.069,115.258,84.4005,0.0101481,1.65835,18.4466,398.843,2.79106,0.0,0.0
1800,449.75,157.743,187.283,101.062,115.26,83.3669,0.00987896,1.62902,18.4957,398.673,2.90157,0.0,0.0
1806,451.25,157.576,187.144,104.258,115.273,85.4821,0.00954657,1.60011,18.5477,398.393,2.6782,0.0,0.0
1812,452.75,157.681,186.721,105.39,115.285,83.957,0.00919638,1.56786,18.6122,398.183,2.8404,0.0,0.0
1818,454.25,157.468,186.252,106.221,115.292,83.2906,0.00888656,1.53133,18.6726,398.043,2.91226,0.0,0.0
1824,455.75,157.166,185.75,111.793,115.313,86.1138,0.00860845,1.49792,18.7201,397.762,2.61533,0.0,0.0
1830,457.25,156.601,184.967,100.514,115.317,84.1188,0.00825022,1.46735,18.7678,397.542,2.8256,0.0,0.0
1836,458.75,156.117,184.576,107.056,115.322,86.2608,0.00787713,1.43453,18.8324,397.362,2.60074,0.0,0.0
1842,460.25,156.016,183.817,113.445,115.323,86.5489,0.00747588,1.39623,18.9053,397.162,2.57099,0.0,0.0
1848,461.75,155.216,183.05,116.616,115.324,86.3057,0.00707314,1.35302,18.9665,396.992,2.59627,0.0,0.0
1854,463.25,154.492,182.1,106.196,115.321,86.8536,0.00654907,1.3148,19.0204,396.741,2.53932,0.0,0.0
1860,464.75,153.443,180.401,107.511,115.319,88.6294,0.00607118,1.27628,19.0762,396.601,2.35793,0.0,0.0
1866,466.25,153.018,180.075,106.692,115.338,86.6511,0.00563125,1.23482,19.141,396.411,2.56158,0.0,0.0
1872,467.75,152.405,178.482,113.518,115.331,86.0976,0.00526914,1.1956,19.1975,396.281,2.6184,0.0,0.0
1878,469.25,151.611,177.294,114.774,115.348,86.4106,0.00494879,1.15845,19.2513,396.121,2.58721,0.0,0.0
1884,470.75,150.582,175.826,114.857,115.339,87.2227,0.00458076,1.12601,19.2993,395.961,2.50277,0.0,0.0
1890,472.25,149.757,174.485,114.192,115.375,87.4983,0.00431142,1.0945,19.35,395.71,2.47732,0.0,0.0
1896,473.75,148.568,172.838,117.759,115.374,86.8157,0.00415951,1.06363,19.4014,395.51,2.54732,0.0,0.0
1902,475.25,147.622,171.758,119.557,115.394,85.6347,0.00408244,1.03574,19.4466,395.42,2.67162,0.0,0.0
1908,476.75,146.254,170.285,114.824,115.389,86.8805,0.00403822,1.00853,19.4889,395.29,2.54182,0.0,0.0
1914,478.25,145.026,168.096,116.649,115.411,85.4381,0.0039873,0.982509,19.5334,395.15,2.69352,0.0,0.0
1920,479.75,144.37,166.87,118.909,115.397,86.1623,0.00393163,0.953043,19.5855,394.98,2.61678,0.0,0.0
1926,481.25,143.029,165.834,118.127,115.425,84.1452,0.00387378,0.920314,19.6441,394.83,2.83116,0.0,0.0
1932,482.75,141.71,163.896,115.933,115.441,85.3568,0.00378214,0.88545,19.6959,394.75,2.70439,0.0,0.0
1938,484.25,140.094,162.293,122.052,115.454,86.5901,0.00358152,0.854876,19.7398,394.579,2.57692,0.0,0.0
1944,485.75,138.898,159.691,120.824,115.454,85.9228,0.00328547,0.828614,19.7759,394.439,2.64618,0.0,0.0
1950,487.25,137.83,158.395,126.104,115.471,88.0236,0.00290147,0.800552,19.8219,394.369,2.43116,0.0,0.0
1956,488.75,136.36,156.916,125.105,115.491,85.742,0.00255604,0.774554,19.8667,394.209,2.66793,0.0,0.0
1962,490.25,134.966,154.728,126.96,115.496,83.8252,0.0023151,0.748873,19.9006,394.079,2.87084,0.0,0.0
1968,491.75,133.775,152.91,125.332,115.532,86.7551,0.00209284,0.723999,19.9311,394.009,2.56584,0.0,0.0
1974,493.25,131.592,150.503,129.011,115.535,85.7484,0.00170463,0.695503,19.9765,393.849,2.67065,0.0,0.0
1980,494.75,130.794,149.225,129.855,115.545,85.2865,0.00120911,0.662458,20.0265,393.839,2.71984,0.0,0.0
1986,496.25,128.89,147.304,133.432,115.54,89.489,0.000471415,0.619765,20.0981,393.739,2.28859,0.0,0.0
1992,497.75,126.827,144.202,135.758,115.569,92.9003,-0.000414055,0.581713,20.1755,393.669,1.95571,0.0,0.0
1998,499.25,125.715,142.704,138.362,115.589,95.7286,-0.00152464,0.533705,20.2724,393.619,1.68866,0.0,0.0
2004,500.75,124.082,140.469,142.627,115.602,98.2312,-0.00259622,0.478475,20.3823,393.589,1.45848,0.0,0.0
2010,502.25,121.721,137.313,144.375,115.616,101.454,-0.00363108,0.425834,20.4781,393.539,1.17039,0.0,0.0
2016,503.75,120.11,135.082,142.334,115.635,103.868,-0.00447865,0.375923,20.5596,393.539,0.961269,0.0,0.0
2022,505.25,117.754,132.247,143.609,115.647,105.012,-0.00525457,0.331449,20.6303,393.539,0.86406,0.0,0.0
2028,506.75,115.758,129.976,149.898,115.679,105.405,-0.00575248,0.294458,20.6775,393.529,0.83315,0.0,0.0
2034,508.25,113.609,127.227,146.886,115.684,106.533,-0.00621698,0.262707,20.7269,393.509,0.738139,0.0,0.0
2040,509.75,111.288,124.724,148.087,115.735,105.144,-0.00657176,0.239006,20.77,393.499,0.859676,0.0,0.0
2046,511.25,109.459,121.936,150.093,115.718,106.454,-0.00685858,0.215719,20.801,393.519,0.747414,0.0,0.0
2052,512.75,107.33,119.386,150.344,115.757,106.739,-0.00713474,0.196806,20.8251,393.499,0.726464,0.0,0.0
2058,514.25,105.341,117.389,150.155,115.767,106.948,-0.00735055,0.180864,20.8454,393.478,0.70974,0.0,0.0
2064,515.75,103.713,115.062,152.574,115.801,108.036,-0.0075006,0.167799,20.8569,393.468,0.621732,0.0,0.0
2070,517.25,101.703,112.803,151.094,115.797,106.279,-0.00762717,0.15654,20.8652,393.448,0.768215,0.0,0.0
2076,518.75,100.242,110.211,148.753,115.83,108.421,-0.00774453,0.149462,20.8728,393.468,0.592144,0.0,0.0
2082,520.25,98.3699,108.131,156.736,115.841,107.673,-0.00789146,0.14182,20.881,393.468,0.654935,0.0,0.0
2088,521.75,96.6684,105.951,150.543,115.875,107.641,-0.00796514,0.134396,20.8888,393.458,0.660247,0.0,0.0
2094,523.25,95.1834,103.695,152.132,115.872,108.24,-0.00791977,0.127843,20.8965,393.448,0.610332,0.0,0.0
2100,524.75,93.4874,102.186,151.866,115.896,107.918,-0.00780426,0.122882,20.902,393.448,0.638826,0.0,0.0
2106,526.25,91.4248,99.4721,153.904,115.886,108.792,-0.007725,0.118504,20.9061,393.448,0.565812,0.0,0.0
2112,527.75,90.679,98.2665,148.433,115.926,108.795,-0.00770083,0.115108,20.9097,393.438,0.568602,0.0,0.0
2118,529.25,89.3972,96.494,155.058,115.933,107.22,-0.007709,0.112347,20.9122,393.408,0.699768,0.0,0.0
2124,530.75,87.5461,94.6734,149.555,115.947,108.74,-0.00776218,0.110041,20.9139,393.418,0.574844,0.0,0.0
2130,532.25,85.995,92.4597,152.092,115.962,107.646,-0.00788523,0.107655,20.9159,393.398,0.666514,0.0,0.0
2136,533.75,85.0904,91.2047,155.03,115.988,108.628,-0.00804269,0.105669,20.9184,393.398,0.587231,0.0,0.0
2142,535.25,84.0091,89.7801,151.842,116.004,109.182,-0.00813445,0.103767,20.9211,393.398,0.542902,0.0,0.0
2148,536.75,81.9099,87.8047,150.503,116.027,108.987,-0.00813275,0.102092,20.9225,393.398,0.560705,0.0,0.0
2154,538.25,81.7434,86.8786,153.934,116.033,108.828,-0.00807401,0.100933,20.9233,393.398,0.574186,0.0,0.0
2160,539.75,79.8444,84.931,150.327,116.038,108.341,-0.00804811,0.0998939,20.9242,393.398,0.614753,0.0,0.0
2166,541.25,79.466,84.0524,148.616,116.072,110.221,-0.0080403,0.0991343,20.9256,393.388,0.463289,0.0,0.0
2172,542.75,78.3978,82.7806,154.906,116.063,108.892,-0.00801937,0.0978585,20.9273,393.378,0.571258,0.0,0.0
2178,544.25,77.1088,81.3293,151.242,116.091,109.019,-0.00797404,0.0961265,20.9294,393.398,0.562948,0.0,0.0
2184,545.75,76.1089,79.4576,152.874,116.094,108.964,-0.00793885,0.0945803,20.9317,393.388,0.567725,0.0,0.0
2190,547.25,75.1046,78.3737,156.123,116.123,109.882,-0.00792375,0.0925202,20.9347,393.378,0.494837,0.0,0.0
2196,548.75,73.8734,77.5998,160.222,116.115,109.78,-0.00791262,0.0905642,20.9378,393.378,0.502517,0.0,0.0
2202,550.25,72.6669,76.1233,154.839,116.13,109.158,-0.00791497,0.0887264,20.9405,393.388,0.554569,0.0,0.0
2208,551.75,71.6687,75.144,154.87,116.131,108.669,-0.00793741,0.0870837,20.9421,393.378,0.59488,0.0,0.0
2214,553.25,71.1797,73.825,149.861,116.162,109.883,-0.00798179,0.0856834,20.943,393.378,0.497773,0.0,0.0
2220,554.75,70.3949,72.9699,154.346,116.174,109.505,-0.00803266,0.0843847,20.9443,393.368,0.529531,0.0,0.0
2226,556.25,69.9316,72.0066,153.654,116.196,109.452,-0.00809152,0.0832512,20.9458,393.378,0.53555,0.0,0.0
2232,557.75,68.6199,70.764,154.92,116.187,109.001,-0.00813362,0.0820459,20.9482,393.378,0.571835,0.0,0.0
2238,559.25,68.2905,69.9096,157.323,116.214,109.214,-0.00815408,0.0806096,20.9498,393.358,0.556438,0.0,0.0
2244,560.75,67.3769,68.9845,157.236,116.22,110.117,-0.008217,0.0791475,20.9509,393.358,0.483144,0.0,0.0
2250,562.25,66.9807,68.4652,155.857,116.235,110.054,-0.00830746,0.0777051,20.9519,393.368,0.489461,0.0,0.0
2256,563.75,64.9758,66.955,153.023,116.238,109.735,-0.0083381,0.0761505,20.9551,393.378,0.515685,0.0,0.0
2262,565.25,64.5518,66.5841,153.551,116.272,109.581,-0.00829386,0.0742823,20.9574,393.358,0.530872,0.0,0.0
2268,566.75,64.742,65.464,156.182,116.28,111.378,-0.00826714,0.0725791,20.9585,393.378,0.385867,0.0,0.0
2274,568.25,63.5002,64.538,155.622,116.285,110.414,-0.00828753,0.0708655,20.9604,393.368,0.464034,0.0,0.0
2280,569.75,62.9264,64.0701,154.883,116.294,110.702,-0.00837037,0.0695798,20.9628,393.358,0.441418,0.0,0.0
2286,571.25,62.3876,62.2863,157.413,116.324,110.363,-0.00841351,0.0681287,20.9647,393.849,0.471132,0.0,0.0
2292,572.75,61.5636,62.5946,152.225,116.33,109.829,-0.00836604,0.0669746,20.9658,393.338,0.515095,0.0,0.0
2298,574.25,61.2091,61.7937,154.798,116.341,110.772,-0.00828972,0.0660052,20.9667,393.358,0.439356,0.0,0.0
2304,575.75,59.9637,59.7521,160.091,116.345,110.771,-0.00826006,0.0651719,20.9679,393.368,0.439795,0.0,0.0
2310,577.25,60.4452,59.9162,153.057,116.355,110.586,-0.00832767,0.0644054,20.9689,393.368,0.455488,0.0,0.0
2316,578.75,59.3468,59.4394,158.661,116.394,110.36,-0.00844183,0.0636629,20.9701,393.358,0.476793,0.0,0.0
2322,580.25,59.0316,59.0683,152.714,116.382,110.221,-0.00856755,0.063045,20.9708,393.368,0.487193,0.0,0.0
2328,581.75,58.2555,58.0658,155.1,116.41,109.891,-0.00873786,0.0625386,20.9711,393.378,0.516163,0.0,0.0
2334,583.25,58.0488,57.0794,154.322,116.407,110.373,-0.00889161,0.0622521,20.9713,393.358,0.476756,0.0,0.0
2340,584.75,57.3551,56.7253,153.056,116.429,111.307,-0.00898316,0.0620516,20.9712,393.358,0.402934,0.0,0.0
2346,586.25,56.7379,56.3479,156.348,116.428,110.663,-0.00900031,0.0618994,20.971,393.358,0.454887,0.0,0.0
2352,587.75,56.5155,55.8958,154.613,116.441,110.616,-0.00895777,0.0617085,20.971,393.358,0.459719,0.0,0.0
2358,589.25,56.3979,55.2084,151.684,116.443,111.077,-0.00889559,0.0616245,20.9709,393.378,0.422571,0.0,0.0
2364,590.75,55.5159,54.9387,153.772,116.475,111.347,-0.0089003,0.061498,20.9709,393.358,0.403319,0.0,0.0
2370,592.25,55.3626,53.8941,154.302,116.468,110.788,-0.00892956,0.0613701,20.9709,393.378,0.44779,0.0,0.0
2376,593.75,54.5858,53.3495,154.87,116.487,109.949,-0.0089422,0.0612372,20.9713,393.378,0.517427,0.0,0.0
2382,595.25,54.1353,52.4785,153.825,116.484,110.91,-0.00897149,0.0610936,20.9722,393.358,0.43923,0.0,0.0
2388,596.75,54.0541,52.3515,158.262,116.496,111.733,-0.00899433,0.0609979,20.972,393.368,0.373977,0.0,0.0
2394,598.25,53.3734,52.1216,156.684,116.491,110.893,-0.00898562,0.0609433,20.9719,393.368,0.441079,0.0,0.0
2400,599.75,52.9898,51.7819,152.597,116.51,110.918,-0.00898629,0.0608334,20.9714,393.358,0.440585,0.0,0.0
2406,601.25,52.6782,51.2842,158.756,116.508,110.824,-0.0090091,0.0605674,20.9721,393.358,0.448025,0.0,0.0
2412,602.75,52.1155,50.6546,155.741,116.526,111.101,-0.00903552,0.0604146,20.973,393.368,0.427039,0.0,0.0
2418,604.25,51.7273,50.4477,155.55,116.53,110.876,-0.00909828,0.0602326,20.9735,393.358,0.445466,0.0,0.0
2424,605.75,51.7235,49.4352,154.334,116.536,110.638,-0.00917992,0.0601015,20.9737,393.378,0.465232,0.0,0.0
2430,607.25,50.6463,48.424,153.006,116.535,111.188,-0.00923998,0.0599741,20.9738,393.378,0.42072,0.0,0.0
2436,608.75,51.3014,49.4617,158.643,116.533,110.8,-0.00921672,0.0598413,20.9734,393.388,0.451848,0.0,0.0
2442,610.25,50.3671,48.7214,156.327,116.551,110.975,-0.00910836,0.0597284,20.973,393.398,0.43914,0.0,0.0
2448,611.75,49.4121,47.4794,152.851,116.536,111.545,-0.00897274,0.0595879,20.9725,393.388,0.39208,0.0,0.0
2454,613.25,50.0551,48.2316,158.904,116.551,110.708,-0.00891022,0.0593343,20.9721,393.388,0.460666,0.0,0.0
2460,614.75,49.6516,47.5407,158.046,116.553,112.422,-0.00887645,0.0591088,20.9719,393.388,0.323214,0.0,0.0
2466,616.25,49.5633,47.3043,157.41,116.557,111.07,-0.00881364,0.0588538,20.9724,393.368,0.431889,0.0,0.0
2472,617.75,49.5355,46.4285,155.705,116.555,111.253,-0.00875872,0.058646,20.9731,393.378,0.41706,0.0,0.0
2478,619.25,48.7973,46.8036,155.648,116.562,111.494,-0.0087539,0.0585582,20.9735,393.368,0.398154,0.0,0.0
2484,620.75,48.5866,46.3544,155.857,116.552,111.281,-0.00876157,0.0583897,20.9737,393.368,0.414536,0.0,0.0
2490,622.25,48.2384,45.6591,158.139,116.565,111.111,-0.00874395,0.0582578,20.9738,393.378,0.429222,0.0,0.0
2496,623.75,47.8245,45.7511,154.65,116.551,111.03,-0.00877652,0.0580807,20.9739,393.378,0.434663,0.0,0.0
2502,625.25,47.9256,45.3204,161.237,116.569,111.525,-0.00886687,0.0578513,20.9739,393.368,0.396244,0.0,0.0
2508,626.75,46.5846,44.2957,156.04,116.547,110.863,-0.0089785,0.0578003,20.9739,393.378,0.44785,0.0,0.0
2514,628.25,46.9035,44.7947,157.126,116.574,111.325,-0.00907808,0.0576874,20.9739,393.378,0.412628,0.0,0.0
2520,629.75,46.4934,44.8227,157.333,116.537,111.497,-0.00915508,0.0575207,20.9739,393.368,0.395977,0.0,0.0
2526,631.25,46.9052,44.242,156.788,116.578,110.926,-0.00917158,0.0574734,20.9738,393.378,0.445121,0.0,0.0
2532,632.75,46.6505,44.0594,152.566,116.571,111.865,-0.00911695,0.0574664,20.9737,393.378,0.369095,0.0,0.0
2538,634.25,46.1603,43.3888,154.645,116.573,111.099,-0.00897682,0.0573873,20.9739,393.388,0.430843,0.0,0.0
2544,635.75,46.3144,43.7672,156.015,116.566,111.94,-0.00880924,0.0573445,20.9741,393.388,0.362665,0.0,0.0
2550,637.25,45.0149,42.1623,151.316,116.574,111.147,-0.00874724,0.0574204,20.9742,393.388,0.427038,0.0,0.0
2556,638.75,45.6044,43.213,159.191,116.563,111.211,-0.00879556,0.0574656,20.9738,393.378,0.420991,0.0,0.0
2562,640.25,45.7801,42.5668,156.116,116.569,111.928,-0.00885506,0.0574987,20.973,393.378,0.363953,0.0,0.0
2568,641.75,44.8729,42.253,155.595,116.553,110.862,-0.00888444,0.057556,20.9726,393.378,0.448433,0.0,0.0
2574,643.25,45.0924,42.3378,159.453,116.558,112.538,-0.00890269,0.0576533,20.9726,393.388,0.314333,0.0,0.0
2580,644.75,44.9199,42.153,152.609,116.539,112.538,-0.00890949,0.0576181,20.973,393.378,0.312922,0.0,0.0
2586,646.25,45.0616,41.7128,155.763,116.53,112.671,-0.00893752,0.0575523,20.9732,393.378,0.301678,0.0,0.0
2592,647.75,44.2337,41.657,153.974,116.536,111.527,-0.00898211,0.0575824,20.9734,393.378,0.393492,0.0,0.0
2598,649.25,43.8335,41.7092,155.9,116.521,112.713,-0.00898251,0.0576126,20.9734,393.368,0.297609,0.0,0.0
2604,650.75,43.6645,41.6039,157.71,116.513,112.554,-0.00890993,0.0575549,20.9735,393.378,0.309681,0.0,0.0
2610,652.25,43.7099,41.1782,158.899,116.5,111.881,-0.00882808,0.057535,20.9735,393.378,0.362373,0.0,0.0
2616,653.75,43.4579,41.171,155.086,116.493,112.211,,0.0574289,,393.378,0.335473,0.0,0.0
2622,655.25,43.7613,40.7943,159.879,116.481,112.242,,0.0573056,,393.378,0.332059,0.0,0.0
2628,656.75,43.2905,40.8205,157.691,116.491,112.123,,,,393.378,0.342344,0.0,0.0
2634,658.25,42.8675,40.1692,160.683,116.47,112.174,,,,393.378,0.336616,0.0,0.0
2640,659.75,43.339,39.95,157.018,116.478,112.491,,,,393.378,0.312011,0.0,0.0
2646,661.25,42.9413,39.9396,160.561,116.465,112.069,,,,393.378,0.34464,0.0,0.0
2652,662.75,42.3106,39.7717,155.76,116.466,112.034,,,,393.378,0.347522,0.0,0.0
2658,664.25,42.4311,39.455,152.981,116.425,110.935,,,,393.368,0.432651,0.0,0.0