File: 01_Data/HDPE/Cone/HDPE_Cone_HF25Scan_220131_R1.csv
Names,Time,Stack TC,Smoke TC,Exh Press,Smoke Comp,Smoke Meas,CO Meter,CO2 Meter,O2 Meter,Sample Mass,Ext Coeff,Start Test,Flame Verif
Chan Gain,,500,500,1,1,1,1,1,1,1,1,1.0,1.0
Offset,,0,0,0.14021,0,0,0,0,0,0,0,0.0,0.0
Gain,,1,1,25.011,13.3046,13.3037,1,1,1,1.00087,1.10262,1.0,1.0
Units,sec,C,C,Pa,%,%,%,%,%,g,/m,,
Baseline,,16.6937,18.4831,169.159,97.6194,100.27,0.00358852,0.0772779,20.9512,-0.00654738,-0.2591,,
5,1,16.254,17.9153,170.963,98.0308,100.804,0.00340377,0.0756021,20.9548,537.569,-0.269792,0.0,0.0
10,2.25,16.1734,18.2542,167.645,98.0133,100.271,0.00336909,0.0764852,20.953,537.539,-0.220271,0.0,0.0
15,3.5,16.1996,17.6191,164.527,97.9833,100.44,0.00334677,0.0774422,20.952,532.114,-0.239475,0.0,0.0
20,4.75,15.9466,17.9867,173.24,97.9756,100.634,0.00333537,0.0778874,20.9514,537.539,-0.258945,0.0,0.0
25,6,15.8129,17.7102,170.522,97.9573,100.556,0.00331279,0.0781968,20.952,537.519,-0.253255,0.0,0.0
30,7.25,15.5662,18.0248,170.645,97.9272,100.138,0.00329761,0.0782925,20.9527,537.529,-0.215915,0.0,0.0
35,8.5,15.9986,18.2224,167.219,97.9118,100.298,0.00331361,0.0782747,20.9537,537.519,-0.232915,0.0,0.0
40,9.75,16.1849,18.0542,165.657,97.8944,100.516,0.00338351,0.0782223,20.9549,537.519,-0.255603,0.0,0.0
45,11,16.2631,18.2785,166.643,97.8801,100.113,0.00349811,0.0780498,20.9564,537.529,-0.218136,0.0,0.0
50,12.25,16.0076,17.9912,169.711,97.8351,100.575,0.00361651,0.0777135,20.9573,537.519,-0.267125,0.0,0.0
55,13.5,16.2052,18.2277,172.088,97.8314,100.6,0.00369935,0.0772852,20.9583,537.509,-0.269868,0.0,0.0
60,14.75,16.0222,18.1533,171.875,97.8067,100.056,0.00371746,0.0768872,20.96,537.499,-0.219947,0.0,0.0
65,16,15.9632,18.1867,170.794,97.779,100.373,0.00368344,0.0764383,20.9616,537.489,-0.253203,0.0,0.0
70,17.25,16.3309,18.0296,168.154,97.7575,100.439,0.00360576,0.0757557,20.9626,537.499,-0.261746,0.0,0.0
75,18.5,15.9196,17.9926,170.308,97.7344,100.289,0.00353984,0.0752722,20.9632,537.499,-0.249559,0.0,0.0
80,19.75,15.8484,18.162,166.451,97.7202,100.025,0.00353918,0.0747495,20.9643,537.499,-0.225481,0.0,0.0
85,21,16.8906,18.4734,169.796,97.6926,100.174,0.00357922,0.0742091,20.9649,537.499,-0.242572,0.0,0.0
90,22.25,16.1178,18.3351,172.379,97.6759,100.095,0.00362061,0.073731,20.9646,537.489,-0.236612,0.0,0.0
95,23.5,16.4601,18.3181,168.954,97.6516,100.387,0.00362576,0.0734184,20.9644,537.499,-0.26723,0.0,0.0
100,24.75,16.3004,18.0784,171.459,97.6357,100.168,0.00355986,0.0732302,20.9641,537.519,-0.247614,0.0,0.0
105,26,16.1784,18.2954,170.142,97.6203,99.8963,0.00344843,0.0730606,20.9637,537.499,-0.22292,0.0,0.0
110,27.25,16.2126,17.91,168.197,97.5935,99.9938,0.0033302,0.0729308,20.9639,537.489,-0.235005,0.0,0.0
115,28.5,16.0213,18.105,171.492,97.5777,99.5898,0.00326075,0.0727862,20.9646,537.499,-0.197421,0.0,0.0
120,29.75,16.5001,18.4619,171.424,97.5667,100.256,0.00325632,0.072614,20.965,537.489,-0.263035,0.0,0.0
125,31,16.4276,18.8499,169.628,97.5318,99.8411,0.0032775,0.0725802,20.9652,537.489,-0.226346,0.0,0.0
130,32.25,16.3999,18.0423,174.013,97.518,99.8639,0.00329803,0.0726078,20.9653,537.479,-0.229917,0.0,0.0
135,33.5,16.3933,18.577,170.129,97.4891,100.062,0.00331461,0.0725301,20.9659,537.499,-0.251986,0.0,0.0
140,34.75,16.3801,18.3542,172.123,97.4851,99.8805,0.00332097,0.0724623,20.9665,537.499,-0.234791,0.0,0.0
145,36,16.347,18.3985,170.703,97.4498,99.6994,0.00332169,0.0723008,20.9671,537.499,-0.220747,0.0,0.0
150,37.25,16.7392,18.8738,169.34,97.4416,99.9101,0.00333955,0.0722409,20.9676,537.489,-0.241972,0.0,0.0
155,38.5,16.3181,18.4198,165.615,97.4335,99.8375,0.0033574,0.0722112,20.9679,537.499,-0.235741,0.0,0.0
160,39.75,16.3464,18.4725,168.084,97.4295,100.21,0.00337535,0.0722758,20.9681,537.509,-0.272144,0.0,0.0
165,41,16.4194,18.3066,165.375,97.401,99.926,0.00338845,0.0722851,20.9682,537.509,-0.247536,0.0,0.0
170,42.25,16.6159,18.5547,170.469,97.4116,100.177,0.00340744,0.0722622,20.9678,537.509,-0.270743,0.0,0.0
175,43.5,16.188,18.0925,167.774,97.3844,100.031,0.0034113,0.0721612,20.967,537.489,-0.259362,0.0,0.0
180,44.75,16.5411,18.673,164.712,97.3742,100.357,0.00339139,0.0721285,20.9666,537.489,-0.291841,0.0,0.0
185,46,16.3785,18.4603,172.157,97.3982,99.8541,0.00335276,0.0721593,20.9661,537.469,-0.240861,0.0,0.0
190,47.25,16.5013,18.4752,167.706,97.4607,99.7952,0.00332215,0.0723819,20.9656,537.469,-0.228949,0.0,0.0
195,48.5,16.7579,18.505,167.561,97.5034,100.597,0.0032987,0.0727191,20.9645,537.469,-0.302123,0.0,0.0
200,49.75,15.9882,18.1147,169.21,97.5537,99.7368,0.003328,0.0730079,20.9638,537.469,-0.214058,0.0,0.0
205,51,16.3625,18.4398,171.646,97.6089,99.7429,0.00339322,0.0731375,20.9634,537.469,-0.209175,0.0,0.0
210,52.25,16.588,18.6575,173.883,97.6585,100.569,0.00347972,0.0732264,20.9632,537.469,-0.284095,0.0,0.0
215,53.5,16.3633,18.6942,166.097,97.7039,100.08,0.00353181,0.0733079,20.963,537.479,-0.232427,0.0,0.0
220,54.75,16.5455,18.2804,167.233,97.7348,100.349,0.00351819,0.0733702,20.963,537.469,-0.255312,0.0,0.0
225,56,16.4923,18.8538,170.316,97.7811,99.9869,0.00347221,0.073472,20.9629,537.499,-0.215764,0.0,0.0
230,57.25,16.4965,18.2392,169.752,97.8261,100.364,0.003425,0.073589,20.9633,539.13,-0.247723,0.0,0.0
235,58.5,16.588,18.3977,169.578,97.8635,100.492,0.00339596,0.0736057,20.9638,542.463,-0.256348,0.0,0.0
240,59.75,16.0462,18.6222,173.658,97.8919,100.737,0.00339006,0.0735717,20.9641,545.576,-0.277073,0.0,0.0
245,61,16.03,17.6817,165.086,97.9281,100.609,0.00338859,0.073494,20.9643,547.858,-0.261217,0.0,0.0
250,62.25,16.811,18.3636,173.414,97.9817,100.605,0.00339084,0.0735038,20.9644,549.099,-0.255574,0.0,0.0
255,63.5,16.6351,18.662,169.075,97.9938,100.308,0.00343822,0.0735668,20.9644,550.47,-0.225797,0.0,0.0
260,64.75,16.4932,18.8394,166.468,98.0279,100.233,0.00353802,0.0736711,20.9644,551.281,-0.215186,0.0,0.0
265,66,16.6228,18.323,173.607,98.0564,100.637,0.00361755,0.0735879,20.964,551.761,-0.251245,0.0,0.0
270,67.25,16.1803,18.2273,170.56,98.0726,100.729,0.00363264,0.073619,20.9631,551.421,-0.258536,0.0,0.0
275,68.5,16.652,18.2624,165.437,98.0856,100.509,0.00356136,0.0737056,20.9624,550.48,-0.236064,0.0,0.0
280,69.75,15.9048,18.1969,170.391,98.112,100.576,0.00343034,0.0737893,20.962,547.498,-0.239944,0.0,0.0
285,71,16.6859,18.4088,171.441,98.1388,100.66,0.00330611,0.0737856,20.9617,545.946,-0.245342,0.0,0.0
290,72.25,16.0155,18.7163,169.642,98.155,100.406,0.00324976,0.0738115,20.9616,543.604,-0.219291,0.0,0.0
295,73.5,16.5455,18.4736,171.647,98.1761,100.652,0.00326544,0.0738805,20.9615,541.412,-0.240881,0.0,0.0
300,74.75,16.827,18.1773,169.324,98.1733,100.506,0.00332841,0.0739259,20.9614,538.82,-0.227146,0.0,0.0
305,76,16.5605,18.2347,165.214,98.1895,100.624,0.00342608,0.0739527,20.9614,534.436,-0.236909,0.0,0.0
310,77.25,16.1379,18.3628,165.526,98.1912,100.438,0.00353078,0.073982,20.9615,532.294,-0.218819,0.0,0.0
315,78.5,16.5567,18.304,169.206,98.1981,100.177,0.00363966,0.0740014,20.9618,530.993,-0.193006,0.0,0.0
320,79.75,16.9322,18.7838,167.592,98.2139,100.812,0.0037254,0.0739793,20.9618,529.122,-0.252522,0.0,0.0
325,81,16.2961,18.5206,167.02,98.2147,100.658,0.00376381,0.0739955,20.9613,527.63,-0.237667,0.0,0.0
330,82.25,16.3464,18.3278,170.781,98.2192,101.063,0.00373438,0.0740246,20.961,526.79,-0.276044,0.0,0.0
335,83.5,16.0704,18.1541,174.221,98.209,100.759,0.00363746,0.0740035,20.9608,534.606,-0.247898,0.0,0.0
340,84.75,16.0289,18.3133,162.567,98.2009,100.87,0.00352906,0.0740097,20.9607,537.129,-0.259369,0.0,0.0
345,86,16.0788,17.6684,169.28,98.1977,100.311,0.00343884,0.0740906,20.9606,537.299,-0.205935,0.0,0.0
350,87.25,16.5771,18.5673,167.37,98.1733,100.01,0.00338925,0.0741434,20.9606,537.349,-0.179245,0.0,0.0
355,88.5,16.5331,18.6618,168.251,98.1717,100.871,0.00336424,0.0741338,20.9606,537.339,-0.262328,0.0,0.0
360,89.75,16.6579,18.5356,166.053,98.1664,101.171,0.00340293,0.0740709,20.9606,537.359,-0.291573,0.0,0.0
365,91,17.056,18.4379,169.997,98.1489,100.997,0.00347713,0.0739243,20.9606,537.359,-0.276707,0.0,0.0
370,92.25,16.7495,18.6788,169.012,98.1343,100.747,0.00354263,0.0738377,20.961,537.379,-0.254167,0.0,0.0
375,93.5,16.3345,17.9905,165.969,98.1213,100.809,0.00355768,0.0737866,20.9618,537.369,-0.261409,0.0,0.0
380,94.75,16.0808,18.2585,170.488,98.1031,100.492,0.00352737,0.0737564,20.9622,537.389,-0.232702,0.0,0.0
385,96,16.3475,18.5252,169.051,98.0763,100.191,0.0035117,0.0737002,20.9625,537.399,-0.206305,0.0,0.0
390,97.25,16.4961,18.5683,172.655,98.0511,100.782,0.00353207,0.0736185,20.9626,537.389,-0.265686,0.0,0.0
395,98.5,16.921,18.9896,168.689,98.0462,100.415,0.00358372,0.0735123,20.9627,537.399,-0.230879,0.0,0.0
400,99.75,16.3355,18.6586,173.492,98.0255,100.452,0.00360378,0.0734009,20.9625,537.429,-0.23648,0.0,0.0
405,101,16.5069,18.4394,169.658,97.9784,100.539,0.00358181,0.0732514,20.9623,537.399,-0.24953,0.0,0.0
410,102.25,16.8862,18.9019,170.989,97.9378,100.692,0.00353874,0.0731199,20.9622,537.389,-0.268213,0.0,0.0
415,103.5,16.3337,19.1993,169.003,97.922,100.238,0.00350453,0.0729921,20.9625,537.409,-0.226118,0.0,0.0
420,104.75,16.6279,18.9114,167.204,97.8781,99.9743,0.00349544,0.072851,20.9632,537.429,-0.204953,0.0,0.0
425,106,16.9182,18.4492,169.123,97.8322,100.345,0.00352154,0.0726704,20.9636,537.429,-0.245321,0.0,0.0
430,107.25,16.2392,18.4849,170.48,97.79,100.039,0.00354297,0.0724965,20.9638,537.409,-0.219945,0.0,0.0
435,108.5,16.6629,18.9964,170.372,97.7669,99.9313,0.0035508,0.0725429,20.9637,537.419,-0.211787,0.0,0.0
440,109.75,16.6021,18.7,165.959,97.7165,99.9073,0.00354791,0.0727822,20.963,537.419,-0.214451,0.0,0.0
445,111,16.8896,18.3265,166.585,97.6678,100.254,0.00354141,0.0731653,20.9617,537.419,-0.252745,0.0,0.0
450,112.25,16.5991,18.1305,173.314,97.6292,99.5504,0.00355306,0.0736172,20.9602,537.439,-0.188485,0.0,0.0
455,113.5,16.6675,18.2823,164.176,97.6158,99.911,0.00357827,0.0740134,20.9594,537.429,-0.224778,0.0,0.0
460,114.75,16.3155,18.8059,164.79,97.6191,100.194,0.00361187,0.0744017,20.9589,537.419,-0.251772,0.0,0.0
465,116,16.6062,19.1357,169.699,97.6223,99.6519,0.00363372,0.0747676,20.9586,537.389,-0.199025,0.0,0.0
470,117.25,16.6686,18.944,168.559,97.6382,99.6958,0.00363878,0.0749011,20.9584,537.409,-0.201712,0.0,0.0
475,118.5,16.5321,18.7866,168.896,97.6426,99.8091,0.00360845,0.0749008,20.9592,537.429,-0.212252,0.0,0.0
480,119.75,16.5198,18.7867,168.686,97.6426,100.31,0.00356184,0.0747698,20.9597,537.419,-0.260641,0.0,0.0
485,121,16.3821,18.8904,166.795,97.6296,99.8947,0.00352455,0.0745729,20.96,537.399,-0.221837,0.0,0.0
490,122.25,16.6513,19.202,167.078,97.6398,99.7136,0.00348755,0.0743946,20.9602,537.409,-0.203283,0.0,0.0
495,123.5,16.9375,18.7176,168.709,97.6459,99.5594,0.00345408,0.0742701,20.9603,537.399,-0.187703,0.0,0.0
500,124.75,16.7818,18.7199,169.419,97.6398,99.4173,0.00341843,0.0741484,20.9603,537.399,-0.174493,0.0,0.0
505,126,16.7878,18.6728,165.813,97.6447,99.658,0.00340386,0.073991,20.9604,537.409,-0.197404,0.0,0.0
510,127.25,16.64,18.5342,161.649,97.6637,99.8545,0.00343132,0.073771,20.9606,537.419,-0.214567,0.0,0.0
515,128.5,16.5421,18.5842,171.711,97.6775,99.3689,0.00348711,0.0736101,20.9607,537.419,-0.166051,0.0,0.0
520,129.75,16.5311,18.1384,166.733,97.6727,99.1014,0.00354489,0.0733822,20.9608,537.419,-0.140456,0.0,0.0
525,131,16.89,18.8506,172.369,97.6881,99.319,0.00360212,0.0731317,20.9609,537.439,-0.160144,0.0,0.0
530,132.25,16.9348,18.7314,168.074,97.7007,99.3815,0.0036807,0.0728669,20.9615,537.419,-0.164985,0.0,0.0
535,133.5,17.1723,18.2363,171.199,97.7254,99.3888,0.00378526,0.0726333,20.9618,537.419,-0.163245,0.0,0.0
540,134.75,16.496,19.492,164.698,97.749,99.4717,0.00391916,0.0724462,20.962,537.419,-0.16897,0.0,0.0
545,136,17.1621,19.5524,165.561,97.7445,98.801,0.00403303,0.0722774,20.9621,537.429,-0.103976,0.0,0.0
550,137.25,16.8761,19.0665,169.057,97.7656,99.06,0.00411028,0.0720815,20.9622,537.419,-0.127211,0.0,0.0
555,138.5,16.8332,19.4078,170.329,97.7665,99.6036,0.00416935,0.0720379,20.9622,537.419,-0.180065,0.0,0.0
560,139.75,17.0439,19.1321,168.943,97.7859,98.937,0.00422641,0.0720559,20.9623,537.389,-0.113184,0.0,0.0
565,141,17.1899,19.1852,169.671,97.8018,99.5626,0.00427582,0.0721068,20.9623,537.409,-0.172588,0.0,0.0
570,142.25,16.9886,19.3762,169.319,97.818,99.7684,0.00425773,0.0721969,20.9623,537.399,-0.190957,0.0,0.0
575,143.5,17.1698,19.1273,171.037,97.8156,99.049,0.00416766,0.0722656,20.9623,537.399,-0.121201,0.0,0.0
580,144.75,16.886,19.225,171.007,97.8387,99.2691,0.00405328,0.0723445,20.9623,537.399,-0.140377,0.0,0.0
585,146,16.6694,19.2413,165.972,97.8525,99.1038,0.00397442,0.0723863,20.9617,537.399,-0.122899,0.0,0.0
590,147.25,17.1654,19.0834,171.651,97.8631,99.4489,0.00395126,0.0724794,20.9618,537.379,-0.155477,0.0,0.0
595,148.5,16.704,19.1893,168.966,97.8627,98.9,0.00392428,0.0725099,20.962,537.389,-0.101984,0.0,0.0
600,149.75,17.1471,19.5008,171.647,97.8826,98.8724,0.00389495,0.0725952,20.9622,537.389,-0.0973179,0.0,0.0
605,151,17.2819,19.0857,168.704,97.9009,98.9711,0.00389964,0.0725877,20.9623,537.409,-0.105159,0.0,0.0
610,152.25,16.898,18.7418,170.337,97.9147,99.226,0.00394585,0.0725346,20.9624,537.409,-0.12868,0.0,0.0
615,153.5,16.9278,19.3199,163.805,97.922,99.0917,0.00402871,0.072421,20.9624,537.399,-0.11485,0.0,0.0
620,154.75,16.5747,19.4074,165.265,97.9346,98.5862,0.00410637,0.07234,20.9625,537.399,-0.0641429,0.0,0.0
625,156,16.7472,19.3263,169.544,97.9484,99.3125,0.00416971,0.0722347,20.9625,537.369,-0.133777,0.0,0.0
630,157.25,16.8399,18.8663,170.822,97.9402,98.95,0.00423332,0.0721918,20.9625,537.369,-0.0992054,0.0,0.0
635,158.5,16.883,19.1655,171.402,97.9492,99.0239,0.00430093,0.0721256,20.9625,537.349,-0.105543,0.0,0.0
640,159.75,16.9388,18.9006,168.426,97.98,98.1944,0.00437928,0.071994,20.9625,537.369,-0.0211392,0.0,0.0
645,161,16.4548,18.858,170.35,97.9934,98.3251,0.00444621,0.0718277,20.9625,537.359,-0.0326846,0.0,0.0
650,162.25,16.9347,19.0517,166.68,97.9894,98.1282,0.0045154,0.0717385,20.9619,537.369,-0.013697,0.0,0.0
655,163.5,16.3422,18.3608,174.613,98.0044,98.574,0.00457216,0.0717246,20.9607,537.369,-0.056054,0.0,0.0
660,164.75,16.5385,19.0919,168.735,98.0093,99.332,0.0045976,0.071752,20.9599,537.339,-0.129663,0.0,0.0
665,166,17.1701,19.0148,169.231,98.0255,99.0571,0.00461707,0.0719998,20.9594,537.369,-0.101259,0.0,0.0
670,167.25,16.7956,18.724,165.941,98.0149,98.4165,0.00469232,0.0724103,20.9584,537.359,-0.0395435,0.0,0.0
675,168.5,16.6191,19.4035,168.479,98.0332,98.4404,0.00481791,0.0728279,20.9576,537.359,-0.0400934,0.0,0.0
680,169.75,17.1816,19.4564,170.269,98.0373,98.056,0.00495649,0.0732044,20.9571,537.339,-0.00184325,0.0,0.0
685,171,17.0479,19.8254,164.572,98.0426,97.8046,0.00506253,0.0734706,20.9569,537.339,0.0234985,0.0,0.0
690,172.25,17.136,19.6719,167.856,98.0357,97.9861,0.00511006,0.0736277,20.9567,537.299,0.00488751,0.0,0.0
695,173.5,16.8484,19.2023,165.959,98.0507,98.1315,0.00508879,0.0736962,20.9573,537.289,-0.00796766,0.0,0.0
700,174.75,17.3017,19.4106,166.418,98.0531,97.5542,0.00506567,0.0737186,20.9573,537.289,0.0493436,0.0,0.0
705,176,17.0921,19.171,165.988,98.0462,97.5805,0.00506685,0.0736875,20.9573,537.279,0.0460473,0.0,0.0
710,177.25,16.7974,19.4915,168.08,98.0612,97.4384,0.00513955,0.0735399,20.9574,537.279,0.0616239,0.0,0.0
715,178.5,16.9585,19.3429,165.762,98.0665,97.2614,0.00532049,0.0733869,20.9574,537.279,0.0797317,0.0,0.0
720,179.75,17.0283,19.5796,166.989,98.0763,97.4169,0.00558749,0.0732382,20.9574,537.289,0.0652413,0.0,0.0
725,181,16.8649,19.4556,169.212,98.0689,96.3755,0.00593476,0.0729709,20.9574,537.279,0.168471,0.0,0.0
730,182.25,17.1188,18.9304,169.245,98.0803,96.2042,0.00619889,0.0728674,20.9569,537.269,0.186802,0.0,0.0
735,183.5,17.1114,19.33,167.613,98.0783,96.8266,0.00630234,0.0730572,20.9547,537.239,0.124231,0.0,0.0
740,184.75,17.1724,19.5317,163.955,98.0941,97.7799,0.00623038,0.0739685,20.9509,537.239,0.031034,0.0,0.0
745,186,17.3503,19.3815,167.774,98.0844,99.507,0.00601457,0.0761556,20.9435,537.209,-0.139277,0.0,0.0
750,187.25,17.9335,20.2036,164.342,98.0994,101.078,0.00570376,0.0801565,20.9298,537.199,-0.289323,0.0,0.0
755,188.5,18.1679,20.5833,167.321,98.1067,101.052,0.0054051,0.0858843,20.914,537.179,-0.286078,0.0,0.0
760,189.75,18.6918,21.8618,164.957,98.1152,101.509,0.00512342,0.0930004,20.8961,537.159,-0.328893,0.0,0.0
765,191,19.1093,22.9184,162.38,98.116,102.217,0.00486786,0.101323,20.8779,537.119,-0.396084,0.0,1.0
770,192.25,19.791,24.0491,161.963,98.1319,100.837,0.00467059,0.110192,20.8616,537.119,-0.263017,0.0,1.0
775,193.5,20.6509,24.5787,164.241,98.1388,101.758,0.00446882,0.119768,20.8473,537.109,-0.350257,0.0,1.0
780,194.75,21.4107,25.9572,164.236,98.1384,100.909,0.00429664,0.128297,20.8371,537.089,-0.269306,0.0,1.0
785,196,21.222,26.3612,158.456,98.1412,101.703,0.00413688,0.135873,20.8261,537.039,-0.344768,0.0,1.0
790,197.25,21.9113,27.1402,159.123,98.1538,101.629,0.00402019,0.144057,20.8173,537.029,-0.336536,0.0,0.0
795,198.5,21.4832,27.644,161.342,98.1648,101.493,0.00388105,0.15192,20.8007,536.938,-0.322464,0.0,0.0
800,199.75,22.4922,29.2368,158.209,98.1778,101.427,0.00381575,0.159178,20.7878,536.938,-0.314875,0.0,0.0
805,201,23.7387,30.4692,162.262,98.1721,100.416,0.0037546,0.1679,20.7738,536.908,-0.218549,0.0,0.0
810,202.25,23.2667,30.3643,160.371,98.1794,100.668,0.00373765,0.176336,20.7591,536.808,-0.242083,0.0,0.0
815,203.5,24.9223,32.1387,153.226,98.1899,100.343,0.00381309,0.185808,20.7439,536.798,-0.209787,0.0,0.0
820,204.75,24.8939,32.7553,158.085,98.1717,100.398,0.00394338,0.19474,20.7281,536.748,-0.216869,0.0,0.0
825,206,25.8101,33.569,152.419,98.1883,100.552,0.00413967,0.203606,20.7135,536.728,-0.230119,0.0,0.0
830,207.25,26.9071,35.8062,153.318,98.1964,99.5062,0.00430189,0.212459,20.7007,536.678,-0.128153,0.0,0.0
835,208.5,26.804,36.1692,161.384,98.1948,99.958,0.00442906,0.221271,20.6875,536.618,-0.172136,0.0,0.0
840,209.75,28.0235,37.3318,151.561,98.1863,99.9917,0.00453468,0.230824,20.6688,536.588,-0.176236,0.0,0.0
845,211,28.7806,38.6045,153.131,98.194,98.4124,0.00468518,0.241546,20.6436,536.548,-0.0214905,0.0,0.0
850,212.25,29.1896,39.8502,156.154,98.1948,97.691,0.00488424,0.252995,20.6194,536.478,0.0497566,0.0,0.0
855,213.5,30.2469,40.8674,153.607,98.1964,96.2757,0.0051055,0.26546,20.5973,536.428,0.191066,0.0,0.0
860,214.75,30.6167,41.8631,151.829,98.2074,95.6314,0.00533007,0.27772,20.5779,536.348,0.257093,0.0,0.0
865,216,31.8982,43.4626,157.187,98.196,96.0183,0.00554792,0.289439,20.5605,536.298,0.216919,0.0,0.0
870,217.25,32.6949,44.5541,147.11,98.2078,96.2939,0.00583358,0.301273,20.543,536.228,0.190349,0.0,0.0
875,218.5,33.2237,45.7959,155.641,98.1968,94.633,0.006102,0.310627,20.5263,536.138,0.357555,0.0,0.0
880,219.75,34.2303,47.3048,152.387,98.1932,95.0078,0.00644892,0.323043,20.5071,536.068,0.318971,0.0,0.0
885,221,34.9546,48.6685,152.426,98.2029,93.2993,0.0067524,0.334319,20.4894,535.998,0.495436,0.0,0.0
890,222.25,35.9402,49.7027,150.689,98.1924,92.9347,0.00709816,0.348956,20.4642,535.938,0.532266,0.0,0.0
895,223.5,36.4494,50.7739,144.482,98.1956,91.6254,0.00746541,0.363694,20.4302,535.858,0.669823,0.0,0.0
900,224.75,37.9216,52.7087,146.548,98.1981,92.6915,0.00787533,0.379462,20.3923,535.717,0.558171,0.0,0.0
905,226,39.2615,54.62,146.387,98.2001,90.9381,0.00832069,0.395823,20.3562,535.657,0.743095,0.0,0.0
910,227.25,39.6274,56.4899,139.242,98.2106,90.3437,0.00873203,0.414546,20.3212,535.537,0.80756,0.0,0.0
915,228.5,41.3106,57.7998,145.018,98.1867,89.9296,0.00911632,0.432808,20.2907,535.427,0.849636,0.0,0.0
920,229.75,42.7763,60.4309,138.246,98.1899,86.1055,0.00943977,0.451263,20.2605,535.347,1.27024,0.0,0.0
925,231,43.842,62.3291,135.616,98.1826,88.2528,0.00969448,0.470377,20.2198,535.207,1.03128,0.0,0.0
930,232.25,45.2782,64.2795,138.801,98.1778,90.2255,0.00992732,0.490295,20.1823,535.087,0.816977,0.0,0.0
935,233.5,46.6087,66.3615,137.916,98.1765,90.6587,0.0102121,0.510956,20.1503,534.947,0.77053,0.0,0.0
940,234.75,47.7131,68.3213,139.857,98.1644,90.003,0.0105044,0.530294,20.1226,534.837,0.839536,0.0,0.0
945,236,49.0051,70.256,134.717,98.1579,90.3327,0.0108013,0.548582,20.0968,534.737,0.803533,0.0,0.0
950,237.25,50.0923,73.0816,139.316,98.1623,89.2885,0.0110307,0.568629,20.0654,534.636,0.916431,0.0,0.0
955,238.5,51.4693,74.8475,135.531,98.1603,86.7953,0.0111681,0.586867,20.0346,534.506,1.19015,0.0,0.0
960,239.75,52.8384,76.4319,139.251,98.1668,88.4493,0.0112379,0.606815,19.9985,534.356,1.00821,0.0,0.0
965,241,54.3677,79.0712,134.746,98.1709,88.8817,0.0112813,0.626569,19.9676,534.266,0.961439,0.0,0.0
970,242.25,55.3864,81.0595,131.515,98.1562,87.2959,0.0113631,0.645488,19.9467,534.116,1.13413,0.0,0.0
975,243.5,57.4542,83.1966,144.291,98.1542,87.7624,0.0115049,0.659771,19.9252,533.976,1.08238,0.0,0.0
980,244.75,58.223,85.057,134.102,98.1485,87.1319,0.0116952,0.677714,19.9008,533.816,1.15156,0.0,0.0
985,246,58.9819,86.7548,133.652,98.1506,86.6008,0.0118832,0.696933,19.8695,533.706,1.21088,0.0,0.0
990,247.25,61.0331,89.1136,130.606,98.1445,88.1343,0.0120361,0.716259,19.8376,533.556,1.04052,0.0,0.0
995,248.5,62.9034,91.4564,136.286,98.1412,87.7571,0.0121344,0.734344,19.811,533.415,1.08168,0.0,0.0
1000,249.75,63.6477,93.1107,138.414,98.1327,85.1214,0.0121599,0.751723,19.7867,533.245,1.37578,0.0,0.0
1005,251,64.6074,95.3197,135.898,98.129,86.3803,0.0121375,0.76944,19.7582,533.095,1.23342,0.0,0.0
1010,252.25,66.1484,96.7772,135.834,98.1339,86.1274,0.0121371,0.787341,19.731,532.925,1.26226,0.0,0.0
1015,253.5,67.0657,98.1806,128.323,98.1197,85.9532,0.0122257,0.80704,19.6965,532.755,1.28044,0.0,0.0
1020,254.75,68.2751,100.072,125.284,98.1278,86.9313,0.0125316,0.825855,19.6622,532.575,1.1718,0.0,0.0
1025,256,70.1667,102.967,121.69,98.1173,84.7251,0.0128765,0.846262,19.632,532.404,1.41939,0.0,0.0
1030,257.25,71.6778,105.561,124.262,98.1278,86.9796,0.0132345,0.866045,19.601,532.274,1.16643,0.0,0.0
1035,258.5,73.2572,107.637,131.936,98.1165,85.3081,0.0135954,0.885915,19.5668,532.094,1.35299,0.0,0.0
1040,259.75,74.2247,110.442,122.588,98.1225,83.43,0.013892,0.903973,19.5346,531.934,1.56891,0.0,0.0
1045,261,75.8679,112.05,124.867,98.1181,83.6054,0.0140999,0.927431,19.5041,531.754,1.54815,0.0,0.0
1050,262.25,77.0189,114.07,128.633,98.1132,84.0889,0.0142283,0.942951,19.4736,531.554,1.4919,0.0,0.0
1055,263.5,78.4677,115.936,128.257,98.1136,83.0617,0.0143667,0.960859,19.4484,531.374,1.61081,0.0,0.0
1060,264.75,79.8394,117.838,121.536,98.114,81.4617,0.0145204,0.978387,19.4276,531.203,1.79898,0.0,0.0
1065,266,81.3104,119.516,125.94,98.1116,82.8007,0.0148409,0.996489,19.3965,531.003,1.64106,0.0,0.0
1070,267.25,82.4338,122.232,122.44,98.1201,83.2396,0.0150406,1.01485,19.3722,530.803,1.59077,0.0,0.0
1075,268.5,84.2685,123.586,124.87,98.114,81.2356,0.0153309,1.03441,19.3399,530.653,1.82587,0.0,0.0
1080,269.75,84.6937,125.928,121.779,98.1071,82.6866,0.015577,1.05439,19.3042,530.423,1.65395,0.0,0.0
1085,271,85.7585,127.395,114.678,98.1091,83.2375,0.0159297,1.07701,19.2643,530.273,1.58992,0.0,0.0
1090,272.25,88.3923,130.321,124.359,98.116,82.2465,0.0163378,1.09836,19.2293,530.072,1.70645,0.0,0.0
1095,273.5,89.4974,131.964,124.943,98.1014,84.0978,0.0167353,1.11848,19.1983,529.842,1.48971,0.0,0.0
1100,274.75,90.4915,134.734,124.659,98.1031,83.6699,0.0170555,1.13862,19.1673,529.652,1.53921,0.0,0.0
1105,276,91.592,136.339,120.759,98.1051,83.3086,0.0173492,1.15776,19.1362,529.462,1.58127,0.0,0.0
1110,277.25,93.7941,138.453,120.794,98.1035,81.5348,0.0176686,1.17642,19.1094,529.262,1.78927,0.0,0.0
1115,278.5,95.322,140.837,115.82,98.1181,81.7784,0.0180095,1.19503,19.0861,529.062,1.76186,0.0,0.0
1120,279.75,96.2123,142.424,109.662,98.1079,81.9932,0.0184065,1.21289,19.0614,528.811,1.73549,0.0,0.0
1125,281,97.5852,143.789,113.997,98.1165,81.1986,0.0189279,1.23031,19.0308,528.611,1.83051,0.0,0.0
1130,282.25,99.4873,146.587,106.899,98.1209,81.2518,0.019603,1.25019,18.9826,528.421,1.82462,0.0,0.0
1135,283.5,100.382,148.249,108.705,98.1096,81.0366,0.0202689,1.27516,18.9362,528.201,1.84914,0.0,0.0
1140,284.75,102.222,151.27,111.9,98.1055,80.817,0.0210066,1.30183,18.8881,527.981,1.875,0.0,0.0
1145,286,103.765,154.822,104.39,98.1311,79.7748,0.0216633,1.32667,18.8466,527.74,2.00306,0.0,0.0
1150,287.25,105.623,156.206,107.263,98.1189,78.1391,0.0221927,1.35463,18.8053,527.48,2.20224,0.0,0.0
1155,288.5,107.048,159.488,103.024,98.1189,79.165,0.0225458,1.38237,18.7624,527.27,2.07607,0.0,0.0
1160,289.75,108.805,161.968,115.941,98.1246,77.8918,0.0227962,1.41164,18.714,527.04,2.23345,0.0,0.0
1165,291,110.679,164.876,111.501,98.1225,78.841,0.0230594,1.44178,18.6637,526.76,2.1161,0.0,0.0
1170,292.25,112.514,167.444,95.8831,98.1217,76.9515,0.0235758,1.476,18.6082,526.469,2.35064,0.0,0.0
1175,293.5,113.543,169.718,120.728,98.129,77.2954,0.0244292,1.51219,18.5428,526.219,2.30824,0.0,0.0
1180,294.75,115.586,172.252,103.575,98.1432,78.4346,0.0256135,1.55064,18.4594,525.889,2.16813,0.0,0.0
1185,296,117.027,174.945,106.972,98.1453,77.4684,0.0267044,1.59372,18.3683,525.679,2.28822,0.0,0.0
1190,297.25,120.034,179.674,108.591,98.1449,78.1728,0.0276632,1.63859,18.2948,525.398,2.20063,0.0,0.0
1195,298.5,122.86,184.311,96.2388,98.1485,75.4956,0.0285284,1.68161,18.2363,525.148,2.53803,0.0,0.0
1200,299.75,124.503,187.764,129.947,98.1437,74.6227,0.0292985,1.72171,18.1774,524.878,2.65003,0.0,0.0
1205,301,126.941,190.489,99.4468,98.1526,76.1103,0.029953,1.76203,18.1232,524.578,2.46,0.0,0.0
1210,302.25,128.626,193.673,109.756,98.1636,76.4298,0.0308976,1.80323,18.0443,524.277,2.42056,0.0,0.0
1215,303.5,130.565,197.22,92.0133,98.1627,76.8752,0.0318597,1.84101,17.9563,523.997,2.36428,0.0,0.0
1220,304.75,132.618,201.396,105.013,98.1656,75.4185,0.0328274,1.88991,17.8733,523.717,2.5496,0.0,0.0
1225,306,135.928,205.014,117.189,98.1749,76.3815,0.0339255,1.94363,17.7826,523.297,2.4278,0.0,0.0
1230,307.25,137.574,209.913,96.9059,98.1765,75.8123,0.0349528,1.99678,17.716,523.056,2.50031,0.0,0.0
1235,308.5,139.854,213.936,102.051,98.1847,74.088,0.0363004,2.04906,17.614,522.796,2.72363,0.0,0.0
1240,309.75,142.091,216.53,79.565,98.183,73.6479,0.0375268,2.09527,17.5212,522.346,2.78109,0.0,0.0
1245,311,145.385,220.557,97.8798,98.1899,72.5428,0.0388231,2.16096,17.4383,522.045,2.92801,0.0,0.0
1250,312.25,147.955,225.007,83.1944,98.1855,73.5895,0.0401877,2.22397,17.3619,521.645,2.78901,0.0,0.0
1255,313.5,150.994,230.413,102.033,98.1863,75.3767,0.0416397,2.27163,17.2922,521.375,2.557,0.0,0.0
1260,314.75,152.395,234.387,93.4444,98.1883,71.9919,0.0430826,2.32636,17.2226,520.995,3.00158,0.0,0.0
1265,316,155.105,237.807,94.4237,98.1936,74.3475,0.0444443,2.38041,17.1071,520.614,2.6907,0.0,0.0
1270,317.25,157.767,241.613,104.278,98.1948,72.7263,0.0457605,2.44231,16.9971,520.354,2.90405,0.0,0.0
1275,318.5,160.207,246.859,92.2758,98.1964,72.2152,0.0469104,2.50287,16.9176,519.944,2.97243,0.0,0.0
1280,319.75,162.48,250.48,82.9295,98.1928,72.1445,0.0479788,2.56072,16.8484,519.583,2.98153,0.0,0.0
1285,321,164.448,254.946,79.7261,98.1956,74.507,0.0490206,2.61939,16.7379,519.203,2.67016,0.0,0.0
1290,322.25,168.304,260.609,82.2563,98.1981,73.2728,0.0495672,2.67595,16.6524,518.763,2.83196,0.0,0.0
1295,323.5,170.991,264.911,92.9719,98.2033,72.445,0.050227,2.73785,16.5451,518.482,2.94238,0.0,0.0
1300,324.75,174.157,270.333,99.0377,98.1944,71.0674,0.0508507,2.80227,16.4458,518.072,3.12719,0.0,0.0
1305,326,176.838,273.84,90.3692,98.2058,70.7812,0.0513663,2.86037,16.3715,517.702,3.16734,0.0,0.0
1310,327.25,179.2,278.03,71.4186,98.1928,71.0163,0.0515538,2.91412,16.3254,517.271,3.13399,0.0,0.0
1315,328.5,181.698,281.125,88.7228,98.1847,72.4141,0.0514832,2.96007,16.3003,516.951,2.94466,0.0,0.0
1320,329.75,183.43,284.564,85.6361,98.1774,70.7029,0.0512954,2.98789,16.2902,516.521,3.17525,0.0,0.0
1325,331,184.619,283.842,92.9277,98.1741,70.4113,0.0509682,3.00381,16.2894,516.1,3.21489,0.0,0.0
1330,332.25,185.181,284.5,80.9175,98.1729,71.378,0.0504934,3.01164,16.2949,515.82,3.08289,0.0,0.0
1335,333.5,186.447,286.508,92.1323,98.1591,71.5347,0.0497407,3.00759,16.3074,515.48,3.06032,0.0,0.0
1340,334.75,187.323,285.475,98.608,98.1587,71.9306,0.0490373,2.98461,16.3738,515.099,3.0069,0.0,0.0
1345,336,187.521,282.806,83.2432,98.1627,71.095,0.048054,2.94942,16.4909,514.819,3.12031,0.0,0.0
1350,337.25,186.058,280.115,83.7127,98.1331,72.7702,0.0470227,2.90551,16.6113,514.449,2.89214,0.0,0.0
1355,338.5,185.95,278.906,105.271,98.1246,70.5506,0.0457646,2.84546,16.7402,514.129,3.1909,0.0,0.0
1360,339.75,184.861,276.531,100.953,98.1185,71.577,0.0442289,2.7841,16.8527,513.858,3.05061,0.0,0.0
1365,341,184.352,273.997,98.4584,98.1059,73.8611,0.042324,2.71912,16.9741,513.538,2.74554,0.0,0.0
1370,342.25,182.543,270.132,89.1876,98.0909,75.455,0.040155,2.6427,17.1209,513.258,2.53755,0.0,0.0
1375,343.5,180.83,264.23,91.4301,98.0791,72.5428,0.0371523,2.54545,17.3431,513.068,2.91708,0.0,0.0
1380,344.75,179.162,258.873,112.789,98.0702,73.0479,0.0350832,2.4479,17.5117,512.817,2.84909,0.0,0.0
1385,346,176.217,253.126,96.6502,98.0442,73.2468,0.0328931,2.34236,17.7159,512.557,2.82023,0.0,0.0
1390,347.25,173.277,245.687,113.293,98.0316,75.103,0.0304076,2.24332,17.8878,512.367,2.57693,0.0,0.0
1395,348.5,170.052,239.371,108.182,98.0255,74.6451,0.0280458,2.12515,18.0883,512.167,2.63549,0.0,0.0
1400,349.75,166.604,232.576,116.043,97.9906,76.6028,0.0258254,2.02078,18.3119,512.007,2.38164,0.0,0.0
1405,351,163.009,223.847,113.247,97.9804,79.368,0.0239038,1.89721,18.5329,511.847,2.03765,0.0,0.0
1410,352.25,158.809,215.669,120.837,97.9516,79.4492,0.0221481,1.77232,18.739,511.706,2.02491,0.0,0.0
1415,353.5,155.142,207.217,116.279,97.9354,77.5837,0.0205977,1.62518,18.9212,511.546,2.25313,0.0,0.0
1420,354.75,150.178,197.891,130.504,97.9134,82.0179,0.0190228,1.5158,19.1295,511.476,1.71337,0.0,0.0
1425,356,144.76,188.379,136.026,97.8846,82.9111,0.0175458,1.38914,19.3586,511.406,1.60576,0.0,0.0
1430,357.25,138.896,177.819,135.77,97.8631,83.9005,0.0160979,1.25673,19.5661,511.326,1.4889,0.0,0.0
1435,358.5,134.049,167.93,135.647,97.8363,88.8691,0.0145652,1.12734,19.7795,511.286,0.92979,0.0,0.0
1440,359.75,128.579,158.374,139.176,97.8063,92.6777,0.0130971,1.00831,19.9704,511.236,0.520942,0.0,0.0
1445,361,123.825,149.115,139.687,97.7965,97.734,0.0116453,0.904338,20.1239,511.226,0.00618274,0.0,0.0
1450,362.25,118.403,140.656,142.376,97.7616,98.0507,0.0103807,0.803491,20.2598,511.196,-0.0285594,0.0,0.0
1455,363.5,113.891,133.232,143.532,97.7393,97.7807,0.00934637,0.716575,20.3658,511.176,-0.00410038,0.0,0.0
1460,364.75,109.939,126.007,139.852,97.7023,98.0673,0.00848909,0.642531,20.45,511.126,-0.036068,0.0,0.0
1465,366,106.733,120.172,145.904,97.6824,97.637,0.0078332,0.579441,20.5139,511.116,0.00449913,0.0,0.0
1470,367.25,102.597,114.596,142.478,97.6621,96.5006,0.00738496,0.528672,20.5573,511.106,0.115722,0.0,0.0
1475,368.5,100.222,109.847,145.218,97.6321,98.0166,0.00707323,0.485122,20.5877,511.066,-0.0380177,0.0,0.0
1480,369.75,97.5203,105.519,145.176,97.6097,97.2123,0.00688015,0.449243,20.6102,511.026,0.0394617,0.0,0.0
1485,371,93.947,100.815,147.535,97.5988,97.4218,0.00676522,0.421753,20.628,511.006,0.0175536,0.0,0.0
1490,372.25,92.6698,97.3354,145.01,97.5728,97.0284,0.00669282,0.397055,20.6422,510.986,0.0541157,0.0,0.0
1495,373.5,90.7666,94.5994,140.038,97.5488,98.0076,0.00659736,0.376506,20.6532,510.956,-0.0453854,0.0,0.0
1500,374.75,89.1278,91.9037,145.394,97.6,97.3333,0.0064616,0.359312,20.6618,510.926,0.0264656,0.0,0.0
1505,376,87.2256,88.9426,144.286,97.6641,97.1234,0.00628717,0.344718,20.6704,510.886,0.0537017,0.0,0.0
1510,377.25,85.9301,87.0967,147.439,97.734,98.1055,0.00611655,0.332424,20.6772,510.886,-0.0366965,0.0,0.0
1515,378.5,84.9379,85.0084,145.107,97.7843,97.4259,0.00592754,0.320547,20.6854,510.846,0.0355222,0.0,0.0
1520,379.75,83.0653,82.5838,146.958,97.8529,98.6483,0.00573864,0.310406,20.6919,510.836,-0.0782984,0.0,0.0
1525,381,82.1989,81.4329,144.282,97.8911,98.2626,0.00559404,0.300644,20.6981,510.826,-0.0366368,0.0,0.0
1530,382.25,81.2525,79.9144,147.236,97.9427,98.5509,0.00546816,0.292475,20.7014,510.786,-0.0598754,0.0,0.0
1535,383.5,79.9366,77.4033,146.651,97.9764,99.0575,0.00538589,0.285822,20.7054,510.746,-0.106148,0.0,0.0
1540,384.75,79.4786,76.796,149.597,98.017,99.3016,0.00534178,0.278377,20.7094,510.706,-0.125936,0.0,0.0
1545,386,78.1201,74.9891,141.632,98.0547,98.7279,0.00531659,0.271938,20.7144,510.676,-0.0661725,0.0,0.0
1550,387.25,77.7471,74.3141,145.017,98.0714,99.6365,0.0053129,0.266127,20.7203,510.676,-0.153138,0.0,0.0
1555,388.5,76.9959,73.2052,149.089,98.0945,99.9406,0.00533216,0.260151,20.7259,510.656,-0.18033,0.0,0.0
1560,389.75,76.0851,72.4764,145.162,98.1307,99.6365,0.00536862,0.254681,20.7314,510.646,-0.147293,0.0,0.0
1565,391,75.4057,70.6296,146.571,98.1465,99.8829,0.00537585,0.249885,20.7365,510.625,-0.169626,0.0,0.0
1570,392.25,74.6478,69.9654,146.904,98.1485,99.5017,0.00536773,0.245476,20.7401,510.575,-0.132439,0.0,0.0
1575,393.5,73.629,68.9875,144.238,98.1546,100.321,0.00536138,0.241326,20.7445,510.565,-0.211114,0.0,0.0
1580,394.75,73.3025,68.1255,148.061,98.1579,100.744,0.00533514,0.237194,20.749,510.525,-0.251534,0.0,0.0
1585,396,72.341,67.3204,147.724,98.164,100.985,0.00528876,0.233375,20.7523,510.515,-0.274021,0.0,0.0
1590,397.25,71.605,66.5282,152.653,98.1335,100.546,0.0052298,0.229648,20.7555,510.475,-0.234895,0.0,0.0
1595,398.5,71.1113,65.9508,151.851,98.14,100.411,0.00519006,0.226124,20.7588,510.475,-0.22128,0.0,0.0
1600,399.75,70.4141,65.0167,151.168,98.1079,100.058,0.00519402,0.22271,20.763,510.455,-0.190318,0.0,0.0
1605,401,70.1391,64.6093,150.288,98.0892,100.11,0.00521987,0.219483,20.7664,510.445,-0.197222,0.0,0.0
1610,402.25,69.0929,63.4712,150.327,98.0515,100.265,0.0052182,0.216322,20.7687,510.405,-0.215878,0.0,0.0
1615,403.5,68.8062,63.2164,149.187,98.0263,101.057,0.00515891,0.213444,20.7715,510.405,-0.294511,0.0,0.0
1620,404.75,68.5639,62.6065,151.342,97.9821,100.939,0.00508547,0.211351,20.7737,510.375,-0.287565,0.0,0.0
1625,406,68.2294,62.2332,152.694,97.9264,101.087,0.00503333,0.208682,20.775,510.345,-0.307246,0.0,0.0
1630,407.25,67.6333,61.2293,152.467,97.8992,100.711,0.00505679,0.206235,20.7779,510.335,-0.273895,0.0,0.0
1635,408.5,66.5406,61.2931,146.683,97.8493,101.277,0.00510674,0.203055,20.7822,510.315,-0.332992,0.0,0.0
1640,409.75,65.8872,59.6059,150.663,97.7778,100.237,0.00510826,0.199864,20.7857,510.305,-0.240247,0.0,0.0
1645,411,65.8142,59.8794,151.52,97.71,101.098,0.00503959,0.196985,20.7889,510.275,-0.329732,0.0,0.0
1650,412.25,65.2741,59.004,153.792,97.6325,101.019,0.00492818,0.194465,20.7927,510.255,-0.329835,0.0,0.0
1655,413.5,64.7854,58.4996,154.178,97.563,101.099,0.00483401,0.192175,20.7954,510.255,-0.344331,0.0,0.0
1660,414.75,64.3526,57.9349,153.146,97.4745,101.781,0.00478074,0.189863,20.797,510.225,-0.418107,0.0,0.0
1665,416,64.1387,57.7456,154.477,97.3653,101.831,0.00477748,0.187678,20.7987,510.235,-0.433732,0.0,0.0
1670,417.25,63.3482,57.205,153.732,97.3227,101.392,0.00481031,0.185513,20.8012,510.205,-0.396192,0.0,0.0
1675,418.5,62.9231,56.8112,152.978,97.3617,100.762,0.00486574,0.183262,20.8039,510.205,-0.331985,0.0,0.0
1680,419.75,62.2102,55.7435,153.583,97.3572,101.752,0.00490415,0.181162,20.8074,510.185,-0.427018,0.0,0.0
1685,421,61.7005,56.0085,148.083,97.3901,100.611,0.00489203,0.179469,20.8106,510.185,-0.314694,0.0,0.0
1690,422.25,61.5307,55.1064,151.239,97.4201,101.859,0.00484993,0.17744,20.8135,510.145,-0.430911,0.0,0.0
1695,423.5,60.6071,54.4737,154.421,97.4546,101.587,0.00481008,0.175294,20.8157,510.135,-0.401659,0.0,0.0
1700,424.75,61.0591,54.8468,154.435,97.4798,102.057,0.00478207,0.173306,20.8184,510.105,-0.443821,0.0,0.0
1705,426,59.8315,54.2252,152.365,97.518,102.101,0.00478272,0.171495,20.8201,510.075,-0.444227,0.0,0.0
1710,427.25,59.8302,53.8298,155.173,97.5529,101.938,0.00481592,0.169812,20.8216,510.075,-0.425291,0.0,0.0
1715,428.5,59.3097,53.4926,151.04,97.6016,101.651,0.00484948,0.168221,20.8225,510.065,-0.393188,0.0,0.0
1720,429.75,58.9728,52.7109,153.488,97.6361,102.179,0.00485919,0.166844,20.8232,510.055,-0.439859,0.0,0.0
1725,431,58.4593,52.8917,152.63,97.671,102.062,0.0048391,0.165747,20.8239,510.045,-0.425365,0.0,0.0
1730,432.25,58.396,52.3596,151.962,97.7198,102.79,0.0047916,0.164508,20.8254,510.015,-0.489282,0.0,0.0
1735,433.5,58.0439,51.9189,156.811,97.749,102.85,0.00475102,0.163344,20.8268,510.025,-0.49204,0.0,0.0
1740,434.75,57.597,51.4822,153.414,97.7794,102.364,0.00471762,0.162024,20.8285,509.995,-0.44318,0.0,0.0
1745,436,57.4478,51.5011,157.306,97.8326,102.677,0.00466548,0.160849,20.8296,509.985,-0.467413,0.0,0.0
1750,437.25,56.3519,50.6884,157.934,97.8582,102.487,0.00460443,0.159738,20.831,509.955,-0.44697,0.0,0.0
1755,438.5,56.5908,50.413,157.447,97.8984,102.616,0.00453501,0.158676,20.832,509.945,-0.455212,0.0,0.0
1760,439.75,56.2082,50.2444,151.297,97.9256,102.753,0.00449935,0.157913,20.8326,509.945,-0.465451,0.0,0.0
1765,441,55.6252,49.6739,149.838,97.9683,102.882,0.00448108,0.156978,20.8341,509.935,-0.473386,0.0,0.0
1770,442.25,55.3696,50.3605,153.441,98.0064,102.771,0.00446639,0.155831,20.8357,509.915,-0.459117,0.0,0.0
1775,443.5,54.8286,49.4843,156.203,98.0113,102.984,0.00446382,0.154819,20.8367,509.915,-0.478714,0.0,0.0
1780,444.75,54.9797,49.6469,153.258,98.0381,102.925,0.00446931,0.153943,20.8384,509.885,-0.470538,0.0,0.0
1785,446,55.1486,49.3049,156.852,98.0612,102.835,0.00447541,0.152935,20.8393,509.885,-0.459744,0.0,0.0
1790,447.25,54.4232,49.374,154.241,98.0706,103.503,0.00447909,0.15173,20.841,509.855,-0.521435,0.0,0.0
1795,448.5,54.1339,48.2677,154.374,98.0754,102.899,0.00444766,0.150943,20.843,509.855,-0.464411,0.0,0.0
1800,449.75,54.0339,48.7898,155.662,98.0897,103.164,0.00437022,0.15028,20.8441,509.825,-0.487822,0.0,0.0
1805,451,53.5298,48.1556,152.12,98.0974,103.035,0.00430233,0.149588,20.845,509.815,-0.47495,0.0,0.0
1810,452.25,53.5223,48.0235,155.058,98.086,102.906,0.0042552,0.148826,20.8463,509.815,-0.463982,0.0,0.0
1815,453.5,53.166,47.8426,156.6,98.0897,103.188,0.00422376,0.14789,20.8471,509.795,-0.490106,0.0,0.0
1820,454.75,52.6383,47.6,156.398,98.0844,103.43,0.00420123,0.147144,20.8476,509.775,-0.513243,0.0,0.0
1825,456,52.4625,47.2463,154.02,98.086,103.364,0.00417402,0.14597,20.8494,509.765,-0.506892,0.0,0.0
1830,457.25,52.1282,47.2612,159.308,98.0401,102.966,0.00412419,0.14491,20.8516,509.735,-0.474191,0.0,0.0
1835,458.5,51.8713,46.7637,155.388,98.034,103.038,0.00404818,0.143965,20.8528,509.735,-0.48154,0.0,0.0
1840,459.75,51.52,46.7119,156.781,98.021,103.182,0.00391554,0.143026,20.8536,509.725,-0.496265,0.0,0.0
1845,461,51.2254,46.3867,156.319,97.9906,103.317,0.00382827,0.14218,20.8546,509.695,-0.511973,0.0,0.0
1850,462.25,51.1021,46.0607,156.434,97.9427,103.629,0.00380368,0.141439,20.8554,509.695,-0.545812,0.0,0.0
1855,463.5,50.7044,45.8134,158.644,97.911,103.374,0.00388051,0.140653,20.8559,509.685,-0.525113,0.0,0.0
1860,464.75,50.6701,45.4655,154.121,97.8785,102.808,0.00398897,0.140083,20.8571,509.685,-0.475261,0.0,0.0
1865,466,50.3187,45.6599,156.565,97.8428,102.807,0.00410031,0.139366,20.8578,509.675,-0.478717,0.0,0.0
1870,467.25,49.6911,45.1194,157.414,97.7803,102.72,0.00416274,0.138661,20.8583,509.665,-0.476646,0.0,0.0
1875,468.5,49.6123,44.6548,155.203,97.7433,102.855,0.00419883,0.137945,20.8593,509.665,-0.493024,0.0,0.0
1880,469.75,49.615,44.8221,152.951,97.7051,102.524,0.00423887,0.13715,20.861,509.615,-0.465598,0.0,0.0
1885,471,49.399,44.4167,157.901,97.6329,102.789,0.00427604,0.136397,20.862,509.615,-0.497771,0.0,0.0
1890,472.25,48.9925,44.2442,160.926,97.585,102.658,0.00429732,0.135728,20.8631,509.605,-0.490209,0.0,0.0
1895,473.5,48.2983,43.5706,156.274,97.5281,102.874,0.00429997,0.135059,20.8651,509.595,-0.516173,0.0,0.0
1900,474.75,48.4279,43.3742,157.979,97.4355,102.716,0.00429299,0.134379,20.8663,509.585,-0.51046,0.0,0.0
1905,476,47.2519,43.146,156.28,97.3832,102.588,0.00429799,0.133676,20.8686,509.565,-0.503572,0.0,0.0
1910,477.25,48.51,43.8431,157.847,97.3008,102.598,0.00433926,0.133092,20.8699,509.565,-0.512757,0.0,0.0
1915,478.5,48.2393,43.7747,158.704,97.2415,102.396,0.00436529,0.132394,20.871,509.565,-0.499573,0.0,0.0
1920,479.75,47.9124,43.6725,155.955,97.1724,102.473,,0.131788,,509.525,-0.513686,0.0,0.0
1925,481,47.664,43.3936,158.325,97.0791,102.689,,0.131334,,509.525,-0.54335,0.0,0.0
1930,482.25,47.005,42.7405,155.755,97.0117,102.106,,,,509.515,-0.495037,0.0,0.0
1935,483.5,47.1481,42.795,155.595,96.9605,101.768,,,,509.495,-0.468012,0.0,0.0
1940,484.75,46.6732,41.7969,156.518,96.8744,101.742,,,,509.474,-0.47421,0.0,0.0
1945,486,47.1784,42.2528,157.574,96.7961,101.394,,,,509.464,-0.448864,0.0,0.0
1950,487.25,46.0904,42.4242,155.062,96.7376,102.13,,,,509.484,-0.524631,0.0,0.0
1955,488.5,46.2076,42.2049,161.016,96.682,101.823,,,,509.464,-0.501083,0.0,0.0
1960,489.75,46.2091,41.9567,155.932,96.604,102.12,,,,509.454,-0.537035,0.0,0.0