File: 01_Data/HDPE/Cone/HDPE_Cone_HF25Scan_220218_R3.csv
Names,Time,Stack TC,Smoke TC,Exh Press,Smoke Comp,Smoke Meas,CO Meter,CO2 Meter,O2 Meter,Sample Mass,Ext Coeff,Start Test,Flame Verif
Chan Gain,,500,500,1,1,1,1,1,1,1,1,1.0,1.0
Offset,,0,0,0.132436,0,0,0,0,0,0,0,0.0,0.0
Gain,,1,1,25.011,15.4219,15.1528,1,1,1,1.00089,1.02113,1.0,1.0
Units,sec,C,C,Pa,%,%,%,%,%,g,/m,,
Baseline,,15.8217,16.5783,168.383,114.354,114.395,-0.00839091,0.0585694,20.973,-478.218,-0.00316242,,
5,1,15.0753,15.491,164.133,116.434,116.217,-0.00834525,0.0682736,20.9691,426.818,0.0167081,0.0,0.0
10,2.25,14.4084,15.3008,165.928,116.417,116.188,-0.00836745,0.0677786,20.9693,426.828,0.0176502,0.0,0.0
15,3.5,15.4161,15.4602,172.246,116.409,116.329,-0.00841463,0.0676573,20.9683,426.818,0.00616755,0.0,0.0
20,4.75,14.8744,15.5885,170.105,116.408,116.417,-0.00844856,0.0678359,20.9675,426.818,-0.000666857,0.0,0.0
25,6,14.8732,15.4914,169.717,116.399,116.301,-0.00845064,0.0680919,20.967,426.818,0.00750766,0.0,0.0
30,7.25,14.8344,15.4662,167.617,116.363,116.174,-0.00843509,0.0682129,20.9667,426.808,0.0145549,0.0,0.0
35,8.5,15.2471,15.0994,167.759,116.372,116.578,-0.0084141,0.0682925,20.9668,426.708,-0.0158653,0.0,0.0
40,9.75,15.1619,15.6018,169.413,116.364,116.054,-0.00838855,0.0682013,20.9675,426.808,0.0239014,0.0,0.0
45,11,14.8588,15.8026,171.111,116.358,116.363,-0.00835476,0.0679412,20.968,426.818,-0.000379606,0.0,0.0
50,12.25,14.5185,15.8492,167.651,116.324,116.321,-0.00831164,0.0675429,20.9682,426.788,0.00021569,0.0,0.0
55,13.5,15.0319,15.6834,165.836,116.329,116.154,-0.00826454,0.0672369,20.9684,426.778,0.0135496,0.0,0.0
60,14.75,14.9834,15.6274,168.308,116.309,116.117,-0.00822517,0.067066,20.9685,426.828,0.0148097,0.0,0.0
65,16,14.7076,15.6105,172.02,116.284,116.093,-0.00821138,0.0671145,20.9685,426.808,0.0146722,0.0,0.0
70,17.25,15.1791,16.0557,172.033,116.271,116.16,-0.0082494,0.0672145,20.9676,426.828,0.00848488,0.0,0.0
75,18.5,15.5089,15.7981,170.546,116.258,116.392,-0.00829479,0.0672361,20.9671,426.768,-0.0103416,0.0,0.0
80,19.75,15.6303,15.7338,169.827,116.25,116.185,-0.00836674,0.0672481,20.9668,426.788,0.00503427,0.0,0.0
85,21,14.906,15.6443,166.905,116.213,116.356,-0.00847022,0.0674043,20.9666,426.768,-0.0110114,0.0,0.0
90,22.25,15.3681,16.2264,166.503,116.199,116.156,-0.00856911,0.0678423,20.9654,426.788,0.00332767,0.0,0.0
95,23.5,15.0398,16.0444,166.399,116.186,116.207,-0.0086184,0.0683446,20.9635,426.798,-0.0016093,0.0,0.0
100,24.75,15.7663,16.3521,165.817,116.176,116.037,-0.00857778,0.0688998,20.9618,426.788,0.0107206,0.0,0.0
105,26,14.4831,15.4725,170.698,116.14,116.142,-0.00850432,0.0693122,20.9609,426.788,-0.000209822,0.0,0.0
110,27.25,15.2014,16.3778,166.851,116.125,115.951,-0.00833619,0.0696164,20.9606,426.758,0.0134067,0.0,0.0
115,28.5,15.7373,15.6643,166.766,116.114,116.008,-0.0082283,0.0698425,20.9604,426.788,0.00821392,0.0,0.0
120,29.75,15.9012,15.8342,167.589,116.09,115.937,-0.00816459,0.0701634,20.9594,426.788,0.0118265,0.0,0.0
125,31,15.4947,16.2662,164.759,116.044,116.049,-0.00813937,0.0708464,20.9574,426.788,-0.000446346,0.0,0.0
130,32.25,15.4021,16.2269,169.761,116.047,115.944,-0.008178,0.0720046,20.9545,426.788,0.00791307,0.0,0.0
135,33.5,15.5574,16.2574,163.35,116.019,116.312,-0.00824701,0.0736456,20.9513,426.768,-0.0226218,0.0,0.0
140,34.75,15.0829,15.7737,166.882,116.009,115.899,-0.008318,0.0753974,20.9484,426.788,0.00847208,0.0,0.0
145,36,15.6675,15.9217,167.194,115.961,115.83,-0.00836141,0.0770462,20.9467,426.768,0.0101286,0.0,0.0
150,37.25,15.0504,15.9466,165.266,115.962,115.937,-0.00838378,0.0783452,20.9466,426.778,0.00190793,0.0,0.0
155,38.5,15.4561,16.3296,168.612,115.941,115.672,-0.00839732,0.0792067,20.9468,426.778,0.0208382,0.0,0.0
160,39.75,15.2728,16.3366,165.312,115.919,116.194,-0.00841988,0.0795598,20.9476,426.788,-0.0212426,0.0,0.0
165,41,15.7606,16.4514,169.586,115.889,116.004,-0.00845075,0.0795111,20.9481,426.798,-0.00890763,0.0,0.0
170,42.25,15.5484,16.5587,167.776,115.881,115.76,-0.00845041,0.079477,20.9484,426.778,0.00938306,0.0,0.0
175,43.5,15.4818,16.1437,166.571,115.866,115.758,-0.00840654,0.0795919,20.9485,426.778,0.00839847,0.0,0.0
180,44.75,15.5179,16.3381,166.968,115.837,115.532,-0.00835012,0.0798209,20.9486,426.798,0.0236203,0.0,0.0
185,46,15.5886,15.9949,165.398,115.822,115.737,-0.00833019,0.0798701,20.9487,426.768,0.00662423,0.0,0.0
190,47.25,16.0459,16.3091,165.974,115.805,115.83,-0.00835588,0.0797236,20.9503,426.778,-0.00191368,0.0,0.0
195,48.5,15.764,16.5186,172.281,115.813,115.665,-0.0083764,0.0794557,20.9515,426.778,0.0114447,0.0,0.0
200,49.75,15.7843,16.8491,168.604,115.765,115.971,-0.00834779,0.0789045,20.9528,426.778,-0.0159803,0.0,0.0
205,51,15.8776,16.6079,168.252,115.766,115.833,-0.0082931,0.0783071,20.9541,426.778,-0.00518614,0.0,0.0
210,52.25,15.8879,16.9025,172.073,115.755,115.831,-0.0082385,0.0776752,20.9555,426.748,-0.00591696,0.0,0.0
215,53.5,15.6539,16.3706,162.929,115.744,115.64,-0.00820808,0.0768939,20.9571,426.798,0.00802616,0.0,0.0
220,54.75,16.1696,16.6122,167.999,115.723,115.779,-0.00818337,0.0761707,20.9582,426.788,-0.00431543,0.0,0.0
225,56,15.2966,16.8682,168.04,115.719,115.806,-0.00814479,0.0753522,20.9589,426.778,-0.00671783,0.0,0.0
230,57.25,16.0616,16.5545,168.147,115.766,115.853,-0.00812168,0.0747446,20.9592,426.758,-0.00668684,0.0,0.0
235,58.5,15.9817,16.7118,171.781,115.8,115.64,-0.00812358,0.0742808,20.9595,426.758,0.0124321,0.0,0.0
240,59.75,16.0454,16.5991,169.846,115.847,116.12,-0.00813754,0.0739649,20.9596,426.758,-0.0211035,0.0,0.0
245,61,16.299,16.9119,170.116,115.907,116.097,-0.0081812,0.0736102,20.9601,426.748,-0.0146273,0.0,0.0
250,62.25,15.5687,16.0084,167.746,115.94,115.893,-0.00826779,0.0731369,20.9615,426.748,0.00366603,0.0,0.0
255,63.5,15.8978,16.4988,169.002,115.961,115.604,-0.00836526,0.0724391,20.9627,426.758,0.027596,0.0,0.0
260,64.75,16.0244,16.4412,169.156,116.001,116.097,-0.00846412,0.071575,20.9642,426.758,-0.00739213,0.0,0.0
265,66,16.4423,16.3343,166.39,116.033,116.004,-0.00853913,0.0706912,20.9661,426.758,0.00228797,0.0,0.0
270,67.25,15.6988,16.4261,165.194,116.075,115.813,-0.00859747,0.0699592,20.9673,426.758,0.0202448,0.0,0.0
275,68.5,16.1111,16.9096,167.365,116.094,116.067,-0.00866608,0.0694081,20.9679,426.748,0.00208301,0.0,0.0
280,69.75,15.4578,16.2945,162.714,116.132,116.091,-0.00872644,0.0689805,20.9683,426.758,0.0031334,0.0,0.0
285,71,15.4911,16.8816,168.43,116.169,116.511,-0.00871661,0.0686892,20.9683,426.738,-0.0263741,0.0,0.0
290,72.25,15.7038,16.4037,165.359,116.201,115.911,-0.00864593,0.0686055,20.9678,426.738,0.0223571,0.0,0.0
295,73.5,15.3124,16.6236,165.169,116.234,115.892,-0.00851485,0.0685764,20.9678,426.748,0.0263973,0.0,0.0
300,74.75,15.7335,17.0721,167.57,116.25,116.016,-0.0084372,0.0685872,20.9679,426.728,0.0180935,0.0,0.0
305,76,15.8556,16.7942,164.3,116.279,116.073,-0.00843048,0.0685461,20.9679,426.758,0.0158789,0.0,0.0
310,77.25,15.9674,16.7934,169.685,116.296,116.272,-0.0084639,0.0684393,20.9685,426.768,0.00188871,0.0,0.0
315,78.5,16.0662,16.7811,172.323,116.317,116.683,-0.0084971,0.0681684,20.9692,426.748,-0.0282019,0.0,0.0
320,79.75,16.0139,16.7638,170.856,116.341,116.515,-0.00851188,0.0677678,20.9705,426.738,-0.0133872,0.0,0.0
325,81,16.4699,16.7498,167.256,116.36,116.127,-0.00852041,0.067135,20.9712,426.738,0.0179742,0.0,0.0
330,82.25,16.1413,17.1938,165.24,116.37,116.204,-0.00852322,0.0665831,20.9717,426.758,0.0127808,0.0,0.0
335,83.5,15.679,16.9721,170.807,116.386,116.728,-0.00849681,0.0662688,20.9711,426.748,-0.026319,0.0,0.0
340,84.75,16.3394,16.6725,168.031,116.394,116.486,-0.0084557,0.0660152,20.9707,426.748,-0.00708917,0.0,0.0
345,86,15.2699,17.1411,172.42,116.424,116.382,-0.00843531,0.0659777,20.9701,426.738,0.00319638,0.0,0.0
350,87.25,16.127,16.9543,168.824,116.409,116.354,-0.00843722,0.0661896,20.9684,426.738,0.00424558,0.0,0.0
355,88.5,16.0654,17.0904,167.996,116.437,116.282,-0.00845397,0.0666068,20.9673,426.708,0.0119726,0.0,0.0
360,89.75,16.2228,16.9954,165.627,116.44,116.285,-0.00851625,0.0670964,20.9666,426.748,0.0119416,0.0,0.0
365,91,16.1788,16.6367,166.762,116.457,116.254,-0.00860935,0.0675914,20.9653,426.728,0.0155953,0.0,0.0
370,92.25,16.0746,17.0708,170.028,116.461,116.797,-0.00868034,0.0682208,20.9636,426.728,-0.0258473,0.0,0.0
375,93.5,16.4294,16.8917,167.862,116.479,116.492,-0.00872273,0.0690699,20.9616,426.748,-0.000963195,0.0,0.0
380,94.75,16.3182,16.9509,165.99,116.48,116.718,-0.00873485,0.0700123,20.9605,426.708,-0.0182607,0.0,0.0
385,96,16.4046,16.946,169.523,116.473,116.288,-0.00871367,0.0708523,20.9591,426.728,0.0142617,0.0,0.0
390,97.25,16.3167,17.0998,168.432,116.467,116.241,-0.00869343,0.071711,20.9574,426.748,0.0173529,0.0,0.0
395,98.5,16.5241,17.032,172.233,116.496,116.351,-0.00870952,0.0730035,20.9564,426.778,0.0110842,0.0,0.0
400,99.75,16.3856,16.8145,168.91,116.507,116.476,-0.00871157,0.0740687,20.9558,427.028,0.00241714,0.0,0.0
405,101,16.0065,17.0484,166.998,116.5,116.536,-0.00869355,0.0749374,20.9554,427.268,-0.0027473,0.0,0.0
410,102.25,16.9318,17.435,170.762,116.518,116.336,-0.00866706,0.0755136,20.9552,427.358,0.013959,0.0,0.0
415,103.5,16.4013,17.0111,168.209,116.521,116.245,-0.00859967,0.0757016,20.9554,427.499,0.0212653,0.0,0.0
420,104.75,16.5241,17.599,166.01,116.523,116.571,-0.00854373,0.0757382,20.9555,427.318,-0.00367608,0.0,0.0
425,106,16.4032,17.4417,163.428,116.519,116.337,-0.00848649,0.0757847,20.9556,427.529,0.0139963,0.0,0.0
430,107.25,16.0146,17.2131,168.586,116.534,116.453,-0.00845548,0.0758049,20.9557,427.579,0.00618569,0.0,0.0
435,108.5,16.3538,17.2571,166.168,116.536,116.373,-0.00845675,0.0758143,20.9557,427.529,0.012559,0.0,0.0
440,109.75,15.6916,17.121,168.586,116.551,116.361,-0.00850144,0.0756622,20.957,427.328,0.014605,0.0,0.0
445,111,16.2145,17.0859,167.655,116.532,116.277,-0.00857477,0.0753625,20.9583,426.898,0.0196034,0.0,0.0
450,112.25,16.725,17.0397,166.903,116.526,116.396,-0.00864083,0.0748153,20.9599,426.708,0.00994624,0.0,0.0
455,113.5,16.4347,17.0035,165.001,116.528,116.204,-0.00866179,0.0740646,20.961,426.748,0.0249078,0.0,0.0
460,114.75,16.8269,17.4046,166.263,116.515,115.742,-0.00862601,0.0731648,20.9616,426.738,0.0596111,0.0,0.0
465,116,16.4203,17.0986,168.561,116.517,115.932,-0.00855155,0.0724899,20.962,426.718,0.0450953,0.0,0.0
470,117.25,16.0371,17.0425,162.849,116.516,116.08,-0.00847947,0.0720167,20.9623,426.708,0.0335967,0.0,0.0
475,118.5,16.4052,17.4847,164.9,116.499,115.614,-0.00843641,0.071918,20.9617,426.718,0.0683365,0.0,0.0
480,119.75,16.8754,17.1385,170.796,116.488,115.916,-0.00844624,0.071904,20.9602,426.738,0.0440307,0.0,0.0
485,121,16.5126,17.7486,165.443,116.486,115.563,-0.00847099,0.0720604,20.9588,426.748,0.0712639,0.0,0.0
490,122.25,16.8795,17.2414,166.231,116.48,115.745,-0.00848197,0.072255,20.958,426.728,0.0567181,0.0,0.0
495,123.5,16.574,17.4558,164.464,116.472,115.585,-0.00842816,0.0724254,20.9581,426.738,0.0684944,0.0,0.0
500,124.75,15.9217,16.7444,168.593,116.445,115.344,-0.00831387,0.0724006,20.9583,426.718,0.0851208,0.0,0.0
505,126,16.1494,17.489,165.538,116.44,115.565,-0.00819907,0.0721448,20.9583,426.718,0.0675745,0.0,0.0
510,127.25,16.3833,17.5708,167.199,116.43,115.409,-0.00811796,0.071663,20.959,426.708,0.0788645,0.0,0.0
515,128.5,15.8421,17.0616,167.038,116.407,115.372,-0.00805328,0.0711131,20.9599,426.708,0.079962,0.0,0.0
520,129.75,16.7135,17.1985,169.677,116.379,115.608,-0.00800571,0.0704566,20.9611,426.678,0.0595337,0.0,0.0
525,131,16.4174,17.3525,164.845,116.377,115.244,-0.00798584,0.0699727,20.9609,426.708,0.0876303,0.0,0.0
530,132.25,16.518,16.9238,163.956,116.357,115.026,-0.00798483,0.0696547,20.9607,426.688,0.103017,0.0,0.0
535,133.5,17.0516,17.6657,167.235,116.328,114.782,-0.00797541,0.0696067,20.9606,426.718,0.119875,0.0,0.0
540,134.75,16.772,17.567,171.178,116.303,115.082,-0.00795557,0.0698793,20.96,426.708,0.0945292,0.0,0.0
545,136,16.7946,17.6018,171.066,116.28,115.088,-0.00793397,0.070291,20.9593,426.688,0.0923207,0.0,0.0
550,137.25,16.1469,17.0545,168.902,116.246,114.135,-0.00790174,0.0706857,20.9589,426.698,0.16416,0.0,0.0
555,138.5,16.6624,17.6429,165.223,116.206,114.638,-0.00783905,0.070924,20.9586,426.668,0.121679,0.0,0.0
560,139.75,16.959,17.8466,168.039,116.171,114.816,-0.00775065,0.0709081,20.9585,426.768,0.105094,0.0,0.0
565,141,17.0676,17.7592,165.214,116.141,114.31,-0.00767394,0.070642,20.9589,426.688,0.142326,0.0,0.0
570,142.25,16.7586,17.7604,167.184,116.125,114.744,-0.00763622,0.0702644,20.9598,426.708,0.107166,0.0,0.0
575,143.5,16.7015,18.1151,167.4,116.054,113.757,-0.00763044,0.0698881,20.9603,426.678,0.179051,0.0,0.0
580,144.75,16.9068,17.7034,164.233,116.02,113.954,-0.00760725,0.069824,20.9606,426.698,0.160937,0.0,0.0
585,146,16.9112,17.5345,169.044,115.985,114.101,-0.00753055,0.0702271,20.9598,426.708,0.14666,0.0,0.0
590,147.25,16.8286,17.578,166.72,115.926,114.076,-0.00743479,0.0708316,20.9594,426.688,0.144076,0.0,0.0
595,148.5,16.9459,17.75,164.994,115.877,113.981,-0.00736325,0.0714061,20.9591,426.678,0.147776,0.0,0.0
600,149.75,16.9444,17.744,170.05,115.83,113.559,-0.00733535,0.0718016,20.959,426.658,0.177305,0.0,0.0
605,151,17.315,17.85,168.18,115.782,113.547,-0.00732155,0.0719796,20.9589,426.688,0.174576,0.0,0.0
610,152.25,17.4063,17.926,167.769,115.725,113.705,-0.00729669,0.0718059,20.9593,426.678,0.157703,0.0,0.0
615,153.5,17.1434,17.8729,169.469,115.704,113.739,-0.00728267,0.0713491,20.9599,426.648,0.153478,0.0,0.0
620,154.75,16.9231,18.1313,168.083,115.717,113.576,-0.00724709,0.0707038,20.9612,426.638,0.167252,0.0,0.0
625,156,17.0344,17.7063,167.595,115.734,113.047,-0.00719404,0.0699854,20.9632,426.648,0.210419,0.0,0.0
630,157.25,17.2349,17.6452,166.306,115.727,112.9,-0.00715757,0.069145,20.9645,426.638,0.221495,0.0,0.0
635,158.5,16.9344,18.1123,166.922,115.743,113.022,-0.00714176,0.0683477,20.9653,426.628,0.21309,0.0,0.0
640,159.75,16.9797,17.9706,164.053,115.763,112.952,-0.00717075,0.0675849,20.9658,426.668,0.220192,0.0,0.0
645,161,16.8669,17.8625,167.081,115.782,112.195,-0.00719328,0.0669591,20.966,426.668,0.281881,0.0,0.0
650,162.25,17.1577,17.6076,166.484,115.767,112.827,-0.00717379,0.066465,20.9662,426.688,0.230427,0.0,0.0
655,163.5,16.0864,17.6201,165.665,115.794,112.418,-0.0071094,0.0661012,20.9663,426.708,0.264977,0.0,0.0
660,164.75,16.9974,17.8759,169.136,115.802,112.333,-0.00691461,0.0657146,20.9663,426.698,0.272415,0.0,0.0
665,166,17.1867,17.8614,166.877,115.824,112.894,-0.0067369,0.0653059,20.9663,426.648,0.229473,0.0,0.0
670,167.25,16.4983,17.3845,165.753,115.838,111.634,-0.00659106,0.0650555,20.966,426.698,0.331107,0.0,0.0
675,168.5,16.8915,18.0997,170.616,115.846,111.936,-0.00649586,0.0649031,20.9651,426.698,0.307566,0.0,0.0
680,169.75,16.8533,17.3169,165.139,115.865,111.436,-0.00641654,0.0648238,20.9643,426.658,0.34915,0.0,0.0
685,171,16.6765,17.9803,167.422,115.879,112.049,-0.00632784,0.0648291,20.9636,426.648,0.301015,0.0,0.0
690,172.25,17.2379,18.066,164.939,115.892,111.553,-0.00621552,0.0648225,20.9625,426.638,0.341787,0.0,0.0
695,173.5,17.1195,18.0936,166.309,115.911,111.713,-0.00610425,0.0647075,20.9618,426.598,0.330367,0.0,0.0
700,174.75,16.5716,18.0273,166.574,115.911,111.465,-0.00601124,0.0648608,20.9601,426.618,0.350337,0.0,0.0
705,176,16.8851,18.1101,167.709,115.937,112.134,-0.00590376,0.0656129,20.9564,426.598,0.298763,0.0,1.0
710,177.25,17.1123,18.1077,166.055,115.975,112.193,-0.00578076,0.0671966,20.952,426.618,0.296944,0.0,1.0
715,178.5,17.3707,17.9832,164.672,115.974,112.646,-0.00567135,0.0690417,20.9472,426.608,0.260837,0.0,1.0
720,179.75,17.732,17.6029,164.122,116.002,111.722,-0.00561531,0.0708708,20.9436,426.578,0.336716,0.0,1.0
725,181,16.8614,17.7094,168.484,116.006,112.364,-0.00560067,0.0725955,20.9395,426.558,0.285694,0.0,0.0
730,182.25,17.4424,18.1017,163.35,116.041,112.105,-0.00556513,0.0743654,20.9344,426.538,0.309087,0.0,0.0
735,183.5,17.0432,18.1917,169.963,116.053,111.223,-0.00548022,0.0762527,20.9285,426.528,0.380733,0.0,0.0
740,184.75,17.3571,18.4112,161.873,116.048,111.235,-0.00539115,0.0786116,20.9224,426.528,0.379401,0.0,0.0
745,186,17.0301,17.8794,162.39,116.054,111.772,-0.00534665,0.0812248,20.9164,426.448,0.336746,0.0,0.0
750,187.25,17.8149,17.9804,160.832,116.064,112.922,-0.00542963,0.0850037,20.909,426.428,0.24585,0.0,0.0
755,188.5,17.5962,18.647,161.514,116.1,114.072,-0.00572173,0.0906815,20.8964,426.338,0.157812,0.0,0.0
760,189.75,18.0546,19.0716,158.591,116.084,113.261,-0.00606906,0.0989809,20.8758,426.378,0.220567,0.0,0.0
765,191,18.2021,19.2645,157.767,116.109,113.439,-0.00642287,0.108859,20.8459,426.338,0.20835,0.0,0.0
770,192.25,18.7196,19.7512,160.977,116.108,113.792,-0.00676488,0.120886,20.8187,426.318,0.18046,0.0,0.0
775,193.5,19.0052,19.794,157.598,116.108,113.626,-0.0070445,0.132405,20.7938,426.247,0.193574,0.0,0.0
780,194.75,19.0123,20.1376,154.642,116.113,113.536,-0.00726468,0.144321,20.7723,426.217,0.201085,0.0,0.0
785,196,19.5628,21.1314,155.818,116.133,112.884,-0.00737398,0.154854,20.7545,426.237,0.254161,0.0,0.0
790,197.25,19.946,21.8622,149.096,116.139,111.821,-0.00736699,0.165688,20.7348,426.167,0.339428,0.0,0.0
795,198.5,20.6056,21.9881,155.833,116.143,111.959,-0.00731298,0.176303,20.717,426.147,0.328649,0.0,0.0
800,199.75,20.9754,23.0941,157.6,116.137,112.138,-0.00728158,0.185878,20.7001,426.137,0.313907,0.0,0.0
805,201,21.8176,22.8887,153.877,116.156,111.07,-0.00730349,0.195005,20.6877,426.097,0.401057,0.0,0.0
810,202.25,21.6243,23.292,153.438,116.149,111.968,-0.00733622,0.203236,20.6776,425.987,0.328418,0.0,0.0
815,203.5,22.0352,24.5398,153.983,116.136,110.851,-0.00734157,0.21067,20.6675,426.017,0.417189,0.0,0.0
820,204.75,23.4503,24.6783,151.684,116.135,110.665,-0.00732086,0.217806,20.6566,425.977,0.432187,0.0,0.0
825,206,22.4915,25.3015,154.504,116.13,110.319,-0.00729105,0.225062,20.6459,425.907,0.459829,0.0,0.0
830,207.25,23.651,25.4417,153.026,116.135,110.002,-0.00724653,0.232143,20.6338,425.867,0.485948,0.0,0.0
835,208.5,24.3051,26.6118,147.201,116.121,108.006,-0.00719162,0.239007,20.623,425.847,0.648905,0.0,0.0
840,209.75,24.9596,27.0374,152.697,116.111,108.674,-0.00706311,0.246331,20.611,425.827,0.592934,0.0,0.0
845,211,25.4335,27.822,152.577,116.101,108.015,-0.00692383,0.254151,20.5997,425.717,0.646577,0.0,0.0
850,212.25,25.933,28.2978,148.805,116.084,106.906,-0.00675968,0.261733,20.5849,425.697,0.737741,0.0,0.0
855,213.5,26.7894,28.8184,148.158,116.051,107.177,-0.00658528,0.270112,20.5695,425.627,0.712484,0.0,0.0
860,214.75,26.6383,29.78,146.054,116.041,106.409,-0.0064001,0.278164,20.5527,425.567,0.776184,0.0,0.0
865,216,27.9867,30.1005,150.601,116.034,105.786,-0.00620444,0.28697,20.5346,425.507,0.828223,0.0,0.0
870,217.25,28.2836,31.1489,145.933,116.001,104.006,-0.00602745,0.296165,20.5147,425.377,0.97767,0.0,0.0
875,218.5,29.0495,31.6968,144.186,115.962,102.757,-0.00582447,0.307761,20.4885,425.387,1.08295,0.0,0.0
880,219.75,29.6593,32.6408,144.535,115.959,101.125,-0.00559539,0.31927,20.4599,425.327,1.22613,0.0,0.0
885,221,30.4857,33.6939,145.99,115.937,102.18,-0.00527896,0.333448,20.4304,425.247,1.1314,0.0,0.0
890,222.25,30.8791,34.4496,142.956,115.91,101.204,-0.00488785,0.347144,20.4041,425.197,1.21527,0.0,0.0
895,223.5,32.1426,35.2247,141.357,115.877,101.957,-0.00448188,0.361486,20.3773,425.096,1.14638,0.0,0.0
900,224.75,32.3715,36.2702,139.826,115.863,100.17,-0.00412524,0.376062,20.3393,425.026,1.30362,0.0,0.0
905,226,33.0434,37.4007,135.134,115.839,96.2474,-0.00377101,0.393449,20.2979,424.946,1.65963,0.0,0.0
910,227.25,34.2413,38.4717,142.896,115.806,96.6511,-0.00341325,0.410951,20.2623,424.866,1.61959,0.0,0.0
915,228.5,35.4614,39.3521,138.913,115.793,97.1075,-0.00305817,0.43022,20.2284,424.656,1.57633,0.0,0.0
920,229.75,36.06,40.7849,139.855,115.764,95.6906,-0.00268592,0.448783,20.1881,424.656,1.70577,0.0,0.0
925,231,37.1643,41.5281,135.862,115.752,95.7794,-0.00237914,0.46622,20.1536,424.546,1.69655,0.0,0.0
930,232.25,38.2313,43.0707,137.329,115.718,95.2134,-0.00203476,0.488773,20.1148,424.456,1.74702,0.0,0.0
935,233.5,39.4926,44.5631,131.503,115.699,97.2157,-0.00168958,0.511799,20.0756,424.336,1.55907,0.0,0.0
940,234.75,40.0084,45.6679,132.64,115.671,94.3482,-0.00135196,0.52995,20.0374,424.216,1.82514,0.0,0.0
945,236,41.4797,47.1373,130.316,115.651,94.818,-0.0010672,0.554843,19.9999,424.066,1.77908,0.0,0.0
950,237.25,43.0792,48.1505,129.039,115.635,94.0684,-0.000867361,0.577267,19.96,424.026,1.8489,0.0,0.0
955,238.5,43.0723,49.3058,130.319,115.595,95.7424,-0.000757587,0.599325,19.9219,423.855,1.6878,0.0,0.0
960,239.75,45.5034,51.5065,125.238,115.564,94.1392,-0.000705251,0.621858,19.8856,423.765,1.83669,0.0,0.0
965,241,46.9826,52.6156,129.57,115.517,96.1683,-0.000679311,0.64157,19.857,423.665,1.64203,0.0,0.0
970,242.25,47.0926,54.0572,129.526,115.484,95.0354,-0.000636087,0.660558,19.8289,423.515,1.74562,0.0,0.0
975,243.5,48.9196,56.5166,124.404,115.462,93.8992,-0.000542956,0.678426,19.8028,423.415,1.85167,0.0,0.0
980,244.75,50.1786,58.0201,123.279,115.414,94.714,-0.000386653,0.694878,19.7745,423.195,1.77049,0.0,0.0
985,246,50.9779,58.6157,127.38,115.373,93.1209,-0.000152394,0.7131,19.7392,423.085,1.91925,0.0,0.0
990,247.25,53.0876,60.9799,128.946,115.342,90.3949,0.000134811,0.733193,19.7016,423.015,2.18296,0.0,0.0
995,248.5,54.1987,62.9803,124.471,115.288,94.1558,0.000417432,0.753326,19.6695,422.865,1.81371,0.0,0.0
1000,249.75,55.1466,64.1934,123.506,115.247,93.4002,0.000746092,0.771984,19.6339,422.714,1.8827,0.0,0.0
1005,251,57.123,65.8511,124.187,115.208,92.2446,0.00106461,0.791027,19.5967,422.554,1.99114,0.0,0.0
1010,252.25,58.3339,67.5413,118.653,115.177,93.0178,0.00135477,0.810033,19.5574,422.424,1.914,0.0,0.0
1015,253.5,59.3844,69.5411,122.307,115.145,93.5667,0.0016175,0.833612,19.5272,422.274,1.85877,0.0,0.0
1020,254.75,61.6935,71.0093,120.431,115.096,92.6987,0.00182913,0.855589,19.5003,422.114,1.93848,0.0,0.0
1025,256,63.0942,72.6806,122.059,115.048,91.7928,0.00200551,0.875288,19.4823,421.984,2.0227,0.0,0.0
1030,257.25,64.3887,74.7608,121.784,115.003,92.6807,0.00211171,0.892196,19.4624,421.844,1.93293,0.0,0.0
1035,258.5,65.6542,76.6308,113.286,114.964,88.6738,0.00219233,0.910152,19.4389,421.673,2.32576,0.0,0.0
1040,259.75,66.7136,78.5079,124.877,114.892,90.5582,0.00229395,0.927364,19.4124,421.523,2.13179,0.0,0.0
1045,261,67.5183,79.5898,125.237,114.871,88.6002,0.00243381,0.945087,19.3838,421.383,2.32596,0.0,0.0
1050,262.25,69.8111,82.033,115.501,114.827,91.3836,0.00260052,0.961901,19.3566,421.193,2.04549,0.0,0.0
1055,263.5,70.7174,83.47,120.771,114.785,90.905,0.00279936,0.979361,19.3312,421.053,2.08926,0.0,0.0
1060,264.75,71.9252,85.4768,115.204,114.745,89.4483,0.00304332,0.995604,19.3058,420.893,2.23079,0.0,0.0
1065,266,74.1967,86.9887,116.723,114.701,91.2222,0.00335571,1.01215,19.2856,420.713,2.05148,0.0,0.0
1070,267.25,74.7817,89.092,111.74,114.658,87.0307,0.00368451,1.02728,19.2618,420.552,2.46945,0.0,0.0
1075,268.5,76.991,90.0354,115.206,114.623,88.3639,0.00398468,1.04289,19.2365,420.402,2.33056,0.0,0.0
1080,269.75,77.6374,92.1424,110.829,114.569,87.803,0.0041936,1.05807,19.215,420.272,2.38334,0.0,0.0
1085,271,78.7183,93.7459,113.818,114.532,91.3397,0.0043135,1.07564,19.1847,420.072,2.02675,0.0,0.0
1090,272.25,80.7281,95.2102,111.825,114.498,88.344,0.00431961,1.09293,19.1571,419.882,2.32275,0.0,0.0
1095,273.5,81.9467,96.9832,110.15,114.445,90.1091,0.00424996,1.11093,19.1297,419.742,2.14143,0.0,0.0
1100,274.75,83.4324,99.4675,110.856,114.402,91.2116,0.00420578,1.12918,19.1018,419.502,2.02912,0.0,0.0
1105,276,84.8821,100.496,116.082,114.362,89.9061,0.00425504,1.14794,19.0719,419.331,2.15511,0.0,0.0
1110,277.25,86.2118,102.445,107.697,114.328,88.4647,0.00442144,1.16634,19.0503,419.191,2.29726,0.0,0.0
1115,278.5,87.7549,103.654,120.019,114.285,86.5161,0.00462358,1.18459,19.0257,418.991,2.49338,0.0,0.0
1120,279.75,88.8273,106.076,111.354,114.249,85.7692,0.00490651,1.20437,18.995,418.811,2.56819,0.0,0.0
1125,281,90.4367,107.078,111.686,114.212,88.1212,0.0051839,1.22457,18.9555,418.671,2.32297,0.0,0.0
1130,282.25,91.5443,108.942,105.223,114.18,88.025,0.0055373,1.2506,18.9082,418.391,2.33031,0.0,0.0
1135,283.5,92.9741,110.475,108.898,114.141,86.7436,0.00591746,1.27431,18.8547,418.31,2.45856,0.0,0.0
1140,284.75,94.6063,112.714,112.499,114.11,85.8751,0.0063342,1.30006,18.8075,418.08,2.54629,0.0,0.0
1145,286,96.1535,114.852,111.798,114.104,85.6953,0.00675244,1.32482,18.7712,417.87,2.56459,0.0,0.0
1150,287.25,97.1696,116.966,111.457,114.054,84.5378,0.00715669,1.34737,18.7393,417.72,2.68248,0.0,0.0
1155,288.5,99.289,118.45,107.943,114.021,84.5475,0.00755393,1.36894,18.6991,417.45,2.67886,0.0,0.0
1160,289.75,100.395,120.042,106.211,114.01,85.1764,0.00797013,1.39198,18.6563,417.25,2.61156,0.0,0.0
1165,291,101.762,121.817,109.991,113.98,85.6643,0.00834454,1.41897,18.6156,417.059,2.55811,0.0,0.0
1170,292.25,103.514,123.782,102.18,113.956,86.7191,0.00875398,1.45044,18.5565,416.869,2.4466,0.0,0.0
1175,293.5,105.116,125.709,100.766,113.941,84.7649,0.00906184,1.47873,18.509,416.619,2.64954,0.0,0.0
1180,294.75,107.053,128.321,103.032,113.934,84.8601,0.00928289,1.50524,18.4757,416.439,2.63896,0.0,0.0
1185,296,108.697,130.336,103.768,113.913,87.0516,0.0094526,1.52964,18.4463,416.199,2.40888,0.0,0.0
1190,297.25,109.944,132.966,101.891,113.899,85.1348,0.00961291,1.55096,18.4239,415.988,2.6072,0.0,0.0
1195,298.5,112.04,134.594,99.5023,113.897,84.6442,0.00977693,1.57178,18.3968,415.758,2.65886,0.0,0.0
1200,299.75,113.297,136.417,99.0352,113.867,84.8985,0.00990678,1.59319,18.3611,415.538,2.62966,0.0,0.0
1205,301,115.323,138.299,96.0546,113.864,84.9114,0.00998984,1.61654,18.3301,415.338,2.62803,0.0,0.0
1210,302.25,116.957,140.608,99.4825,113.839,83.7632,0.0100631,1.64095,18.2965,415.058,2.74802,0.0,0.0
1215,303.5,118.078,143.049,105.005,113.848,84.3815,0.0102133,1.66514,18.2607,414.837,2.68281,0.0,0.0
1220,304.75,119.825,143.884,101.235,113.827,82.9073,0.0105062,1.69103,18.2167,414.627,2.8391,0.0,0.0
1225,306,121.618,146.479,99.8763,113.843,83.3868,0.01103,1.72005,18.1604,414.337,2.78866,0.0,0.0
1230,307.25,122.497,149.144,99.268,113.834,84.4615,0.0116745,1.75014,18.1079,414.107,2.67321,0.0,0.0
1235,308.5,124.074,150.215,104.775,113.836,82.1309,0.0123283,1.78079,18.0562,413.857,2.92404,0.0,0.0
1240,309.75,126.092,152.849,102.1,113.828,82.7866,0.0129357,1.81279,17.9872,413.716,2.85222,0.0,0.0
1245,311,128.178,155.081,93.8877,113.835,82.7792,0.0135341,1.85042,17.9247,413.456,2.8535,0.0,0.0
1250,312.25,128.889,156.812,89.5523,113.833,82.7334,0.0142174,1.8846,17.8817,413.206,2.85831,0.0,0.0
1255,313.5,131.582,159.249,94.7273,113.832,82.0412,0.0150173,1.91619,17.8365,412.926,2.93353,0.0,0.0
1260,314.75,133.217,161.256,86.9053,113.844,82.2705,0.0156989,1.94902,17.78,412.665,2.90949,0.0,0.0
1265,316,135.141,163.623,92.6603,113.854,82.6039,0.0165599,1.98723,17.7025,412.405,2.87404,0.0,0.0
1270,317.25,136.856,166.049,89.2142,113.857,81.7988,0.0171969,2.02805,17.6232,412.145,2.96195,0.0,0.0
1275,318.5,138.575,168.609,94.5731,113.887,80.3205,0.0177706,2.06501,17.558,411.895,3.12769,0.0,0.0
1280,319.75,140.731,170.929,91.9078,113.878,82.2308,0.0183562,2.10855,17.4971,411.695,2.91645,0.0,0.0
1285,321,142.323,173.679,86.0229,113.886,80.24,0.0190177,2.15081,17.4284,411.384,3.13663,0.0,0.0
1290,322.25,144.21,176.407,91.8513,113.897,81.7665,0.0196898,2.19196,17.3596,411.054,2.96868,0.0,0.0
1295,323.5,146.445,178.931,90.0354,113.918,81.9468,0.0202782,2.23502,17.3023,410.754,2.95061,0.0,0.0
1300,324.75,148.432,181.213,87.7418,113.93,82.2252,0.0207085,2.27588,17.2496,410.524,2.92116,0.0,0.0
1305,326,150.303,183.903,79.8076,113.948,80.1679,0.0210106,2.31097,17.2161,410.233,3.14954,0.0,0.0
1310,327.25,151.778,186.688,89.6454,113.969,81.1676,0.0212425,2.34231,17.1853,409.993,3.04019,0.0,0.0
1315,328.5,153.672,189.271,87.8319,113.985,81.2199,0.0214906,2.38045,17.1238,409.733,3.03568,0.0,0.0
1320,329.75,155.794,191.451,85.655,114.006,78.8684,0.0218907,2.42217,17.0427,409.383,3.30046,0.0,0.0
1325,331,157.614,194.695,92.7687,114.017,80.7154,0.0225091,2.46575,16.9628,409.092,3.09397,0.0,0.0
1330,332.25,160.127,197.455,79.5618,114.037,80.9979,0.0232992,2.51328,16.8804,408.792,3.0643,0.0,0.0
1335,333.5,162.179,200.352,85.6977,114.061,78.7681,0.0241953,2.56033,16.8148,408.612,3.31623,0.0,0.0
1340,334.75,163.993,203.265,85.6191,114.067,80.1776,0.0250552,2.60455,16.7604,408.242,3.15781,0.0,0.0
1345,336,166.141,205.928,83.7964,114.09,79.5385,0.0257495,2.645,16.7079,407.971,3.23126,0.0,0.0
1350,337.25,167.524,207.813,85.439,114.116,78.3991,0.0262158,2.68502,16.6477,407.671,3.36258,0.0,0.0
1355,338.5,170.235,211.214,89.7355,114.126,76.855,0.0265703,2.72968,16.5748,407.301,3.54152,0.0,0.0
1360,339.75,171.571,213.037,82.708,114.133,77.9496,0.0269816,2.77418,16.5134,407.03,3.41541,0.0,0.0
1365,341,173.455,216.129,78.0856,114.149,74.8116,0.0275314,2.81856,16.4406,406.62,3.78472,0.0,0.0
1370,342.25,175.409,218.642,94.3579,114.178,74.9739,0.0282773,2.86544,16.355,406.45,3.76756,0.0,0.0
1375,343.5,176.984,220.469,75.2638,114.206,78.289,0.028909,2.9174,16.266,406.03,3.38225,0.0,0.0
1380,344.75,179.572,223.585,84.649,114.204,78.0157,0.0297074,2.97553,16.1666,405.649,3.41342,0.0,0.0
1385,346,181.655,227.056,82.5401,114.228,75.828,0.0303024,3.01928,16.0975,405.369,3.67008,0.0,0.0
1390,347.25,183.231,228.473,78.6703,114.236,77.8969,0.0308424,3.0704,16.0474,404.979,3.42955,0.0,0.0
1395,348.5,185.642,232.431,83.485,114.258,77.1496,0.0312864,3.11427,16.0063,404.698,3.51763,0.0,0.0
1400,349.75,187.039,235.549,78.8298,114.27,76.2987,0.0317011,3.15613,15.9635,404.388,3.61793,0.0,0.0
1405,351,189.533,237.63,64.3741,114.282,81.1255,0.0319646,3.19404,15.9356,404.078,3.0694,0.0,0.0
1410,352.25,191.389,241.162,87.751,114.3,76.344,0.0320824,3.22774,15.9139,403.718,3.61493,0.0,0.0
1415,353.5,193.101,243.386,79.2893,114.309,77.218,0.0320019,3.24597,15.902,403.327,3.51367,0.0,0.0
1420,354.75,195.032,245.927,85.352,114.326,74.1711,0.0317217,3.25236,15.9211,403.117,3.8756,0.0,0.0
1425,356,196.831,248.159,97.1438,114.34,76.9429,0.0315187,3.25018,15.9359,402.797,3.54804,0.0,0.0
1430,357.25,197.634,249.474,84.5925,114.35,75.6717,0.0313476,3.25267,15.956,402.386,3.69808,0.0,0.0
1435,358.5,198.893,250.939,82.6836,114.366,77.4594,0.0311365,3.26518,15.969,402.186,3.49018,0.0,0.0
1440,359.75,201.027,253.115,80.496,114.388,76.9489,0.0309148,3.26804,15.9865,401.816,3.55114,0.0,0.0
1445,361,201.926,255.372,75.35,114.423,78.4546,0.030738,3.26225,16.0106,401.426,3.38033,0.0,0.0
1450,362.25,203.121,256.573,75.2783,114.414,75.2902,0.0305766,3.25049,16.0485,401.195,3.74836,0.0,0.0
1455,363.5,204.04,257.661,91.865,114.429,76.7306,0.0304268,3.23373,16.0877,400.745,3.57982,0.0,0.0
1460,364.75,204.93,258.759,81.3822,114.455,79.5131,0.0302742,3.20911,16.1655,400.535,3.26275,0.0,0.0
1465,366,205.74,260.042,83.1003,114.468,79.1995,0.0299578,3.17609,16.2413,400.254,3.29921,0.0,0.0
1470,367.25,206.564,260.652,87.4968,114.476,78.3163,0.0295463,3.13445,16.3245,400.034,3.40025,0.0,0.0
1475,368.5,207.499,261.026,82.2416,114.476,79.3313,0.0285574,3.09602,16.4067,399.754,3.28487,0.0,0.0
1480,369.75,207.794,261.835,81.9195,114.489,79.7692,0.0274449,3.0368,16.5298,399.434,3.23659,0.0,0.0
1485,371,208.227,262.01,89.1355,114.493,80.2497,0.0263368,2.97288,16.636,399.214,3.18314,0.0,0.0
1490,372.25,208.041,261.418,86.6954,114.483,81.065,0.024915,2.90393,16.766,398.873,3.09179,0.0,0.0
1495,373.5,207.514,261.23,87.9548,114.5,80.0892,0.0236015,2.8396,16.936,398.593,3.20162,0.0,0.0
1500,374.75,208.251,260.894,97.8132,114.492,78.3103,0.0224993,2.74393,17.1109,398.433,3.40219,0.0,0.0
1505,376,207.389,259.958,93.2046,114.499,80.2164,0.0212801,2.65169,17.2716,398.173,3.18729,0.0,0.0
1510,377.25,206.429,258.482,92.4665,114.491,82.0583,0.0200978,2.56828,17.4146,397.922,2.98336,0.0,0.0
1515,378.5,206.231,257.551,97.0553,114.492,81.3803,0.0189385,2.48886,17.5491,397.742,3.05771,0.0,0.0
1520,379.75,204.546,255.311,96.8813,114.502,81.6564,0.0177453,2.40541,17.6911,397.552,3.02818,0.0,0.0
1525,381,204.689,254.584,97.746,114.507,81.6902,0.0164087,2.32075,17.8463,397.252,3.02485,0.0,0.0
1530,382.25,203.666,252.909,100.333,114.508,81.6106,0.0151293,2.23819,17.9823,397.142,3.03372,0.0,0.0
1535,383.5,201.377,249.955,104.402,114.491,84.1373,0.0138024,2.14686,18.1388,396.952,2.75921,0.0,0.0
1540,384.75,200.416,248.64,113.351,114.475,85.7688,0.0126147,2.05812,18.2993,396.711,2.58597,0.0,0.0
1545,386,199.172,246.157,105,114.459,84.7357,0.0115531,1.96023,18.4456,396.571,2.69323,0.0,0.0
1550,387.25,197.418,243.744,104.417,114.437,85.6874,0.0105196,1.8689,18.6166,396.381,2.59149,0.0,0.0
1555,388.5,195.418,240.699,114.356,114.412,87.736,0.00949538,1.77407,18.7679,396.241,2.37788,0.0,0.0
1560,389.75,193.236,237.754,112.17,114.394,88.338,0.00848534,1.68248,18.9097,396.191,2.31526,0.0,0.0
1565,391,191.504,234.622,120.128,114.348,86.8129,0.00757392,1.59129,19.0712,396.041,2.4676,0.0,0.0
1570,392.25,189.019,231.354,118.274,114.34,84.5679,0.00667437,1.50029,19.241,395.891,2.7017,0.0,0.0
1575,393.5,186.617,227.857,125.676,114.297,85.7054,0.00577512,1.40223,19.3804,395.821,2.57862,0.0,0.0
1580,394.75,183.892,224.423,127.3,114.253,86.8749,0.00488663,1.30993,19.5326,395.781,2.45379,0.0,0.0
1585,396,181.181,220.127,131.097,114.233,90.3968,0.00384737,1.21902,19.6735,395.59,2.09625,0.0,0.0
1590,397.25,177.817,216.352,131.686,114.216,89.8354,0.00277159,1.12802,19.8171,395.6,2.15073,0.0,0.0
1595,398.5,175.073,211.736,137.263,114.165,91.9602,0.00161543,1.03464,19.9814,395.57,1.93734,0.0,0.0
1600,399.75,171.954,207.613,140.738,114.145,92.8375,0.000394903,0.946916,20.1349,395.51,1.85071,0.0,0.0
1605,401,168.366,202.953,143.06,114.102,95.04,-0.000678847,0.861629,20.2747,395.49,1.63736,0.0,0.0
1610,402.25,165.274,198.315,144.088,114.085,98.5938,-0.00159806,0.787788,20.3915,395.44,1.30717,0.0,0.0
1615,403.5,161.471,194.345,146.644,114.051,99.2,-0.00263708,0.715774,20.4816,395.44,1.24964,0.0,0.0
1620,404.75,157.966,189.888,147.963,114.012,104.264,-0.0034977,0.652515,20.5669,395.41,0.800609,0.0,0.0
1625,406,155.106,185.28,149.804,113.977,105.813,-0.00424297,0.598386,20.645,395.39,0.665729,0.0,0.0
1630,407.25,151.971,181.012,152.6,113.951,105.415,-0.0048385,0.544011,20.7121,395.4,0.697384,0.0,0.0
1635,408.5,148.969,177.106,151.016,113.915,105.296,-0.00531626,0.488305,20.7616,395.39,0.704677,0.0,0.0
1640,409.75,145.494,173.206,151.867,113.87,105.756,-0.00569343,0.456313,20.7952,395.36,0.662143,0.0,0.0
1645,411,142.7,168.372,152.065,113.85,105.857,-0.00600316,0.423175,20.8192,395.39,0.652056,0.0,0.0
1650,412.25,139.873,165.159,153.187,113.846,106.536,-0.00620855,0.395134,20.8379,395.37,0.594426,0.0,0.0
1655,413.5,136.846,161.284,147.692,113.819,105.695,-0.0063164,0.36884,20.8537,395.39,0.663318,0.0,0.0
1660,414.75,134.569,157.699,152.103,113.798,105.621,-0.00637178,0.346514,20.8636,395.39,0.667923,0.0,0.0
1665,416,131.844,154.402,153.133,113.81,106.363,-0.00645571,0.326308,20.8719,395.36,0.606087,0.0,0.0
1670,417.25,128.967,150.968,159.148,113.825,105.876,-0.00656217,0.311755,20.8784,395.37,0.64845,0.0,0.0
1675,418.5,126.741,147.513,155.989,113.829,106.807,-0.00670531,0.296662,20.8787,395.36,0.570375,0.0,0.0
1680,419.75,124.523,145.138,152.585,113.828,105.533,-0.00687162,0.285451,20.8781,395.37,0.677709,0.0,0.0
1685,421,122.103,141.332,155.673,113.859,106.881,-0.00700538,0.272442,20.8786,395.37,0.566505,0.0,0.0
1690,422.25,119.42,138.137,152.906,113.882,106.779,-0.00710472,0.261525,20.8792,395.34,0.57685,0.0,0.0
1695,423.5,118.143,136.317,150.888,113.923,107.236,-0.00717918,0.251839,20.8802,395.32,0.541825,0.0,0.0
1700,424.75,115.745,132.866,149.391,113.957,106.413,-0.00725601,0.244031,20.8813,395.35,0.613469,0.0,0.0
1705,426,113.441,130.489,156.225,114.036,106.154,-0.00730327,0.235869,20.8828,395.32,0.641582,0.0,0.0
1710,427.25,112.024,128.194,153.775,114.091,106.725,-0.00731139,0.228374,20.885,395.33,0.597848,0.0,0.0
1715,428.5,109.693,125.82,156.466,114.143,106.415,-0.00728208,0.221144,20.8865,395.32,0.627953,0.0,0.0
1720,429.75,107.705,122.829,151.067,114.223,107.258,-0.00725263,0.214515,20.8892,395.3,0.563513,0.0,0.0
1725,431,106.327,120.699,156.817,114.337,107.266,-0.0072878,0.208055,20.8916,395.29,0.571858,0.0,0.0
1730,432.25,104.212,118.315,158.973,114.462,107.455,-0.00735614,0.202831,20.8941,395.3,0.565843,0.0,0.0
1735,433.5,102.861,116.166,154.569,114.572,107.567,-0.00742978,0.196763,20.8974,395.27,0.565096,0.0,0.0
1740,434.75,100.86,114.18,153.536,114.693,107.527,-0.00747723,0.191006,20.9012,395.27,0.577897,0.0,0.0
1745,436,99.4578,111.68,154.5,114.821,107.448,-0.00750883,0.185421,20.9044,395.27,0.594442,0.0,0.0
1750,437.25,97.505,109.278,154.775,114.965,107.558,-0.0075496,0.180335,20.907,395.25,0.596461,0.0,0.0
1755,438.5,96.4434,107.785,154.885,115.085,108.811,-0.00759578,0.175632,20.9094,395.27,0.502124,0.0,0.0
1760,439.75,95.0393,106.159,151.725,115.232,108.203,-0.00762251,0.171327,20.9114,395.24,0.56374,0.0,0.0
1765,441,93.2069,104.342,155.199,115.337,107.631,-0.00764192,0.167213,20.9127,395.24,0.61945,0.0,0.0
1770,442.25,91.7372,102.474,153.033,115.446,108.88,-0.00768199,0.163305,20.914,395.25,0.524503,0.0,0.0
1775,443.5,90.4532,100.575,157.314,115.539,108.546,-0.00773242,0.159544,20.9157,395.24,0.559242,0.0,0.0
1780,444.75,89.02,99.028,152.039,115.642,108.574,-0.00777118,0.155451,20.9192,395.24,0.564938,0.0,0.0
1785,446,88.5889,97.5368,154.28,115.728,108.684,-0.00778527,0.15138,20.9235,395.25,0.562458,0.0,0.0
1790,447.25,87.2282,95.1453,157.165,115.79,109.471,-0.00778895,0.147043,20.9284,395.23,0.502709,0.0,0.0
1795,448.5,84.9353,93.5,154.058,115.879,110.111,-0.00779022,0.14242,20.9328,395.22,0.457334,0.0,0.0
1800,449.75,84.4837,92.804,155.057,115.946,109.032,-0.00779547,0.138417,20.9361,395.22,0.550767,0.0,0.0
1805,451,82.653,90.3686,154.311,116.004,108.841,-0.00780111,0.13493,20.9382,395.2,0.570905,0.0,0.0
1810,452.25,82.3521,89.5638,156.895,116.04,109.188,-0.00780306,0.131799,20.9393,395.18,0.545169,0.0,0.0
1815,453.5,81.0894,88.0899,157.631,116.069,109.184,-0.00779703,0.128971,20.9398,395.18,0.547725,0.0,0.0
1820,454.75,80.0534,86.648,154.038,116.078,109.059,-0.00778357,0.126181,20.9408,395.18,0.558664,0.0,0.0
1825,456,78.8023,84.8944,154.994,116.067,109.619,-0.00775682,0.123445,20.9435,395.21,0.511915,0.0,0.0
1830,457.25,78.2202,84.4247,153.715,116.029,109.605,-0.00773098,0.12064,20.9451,395.16,0.510144,0.0,0.0
1835,458.5,77.214,82.7084,159.465,115.995,109.626,-0.00772405,0.118204,20.9466,395.18,0.505789,0.0,0.0
1840,459.75,76.1268,81.5044,161.42,115.941,109.265,-0.00775683,0.115884,20.9488,395.18,0.531167,0.0,0.0
1845,461,75.133,80.045,153.989,115.902,109.575,-0.00783952,0.114217,20.9501,395.17,0.502748,0.0,0.0
1850,462.25,74.3186,79.4253,159.56,115.822,109.019,-0.00793306,0.112301,20.9508,395.17,0.542227,0.0,0.0
1855,463.5,73.1852,77.5434,153.522,115.763,110.294,-0.00800553,0.110726,20.9512,395.16,0.433461,0.0,0.0
1860,464.75,72.3291,77.0642,158.422,115.717,109.18,-0.00806249,0.109276,20.9502,395.15,0.520858,0.0,0.0
1865,466,71.767,75.5972,156.121,115.656,108.755,-0.00808607,0.107882,20.9496,395.15,0.551092,0.0,0.0
1870,467.25,70.6238,74.7004,151.588,115.62,109.135,-0.00809457,0.106531,20.9492,395.15,0.517068,0.0,0.0
1875,468.5,69.9264,73.4957,157.791,115.796,109.719,-0.00807327,0.105212,20.9494,395.12,0.48285,0.0,0.0
1880,469.75,69.3659,72.5702,159.471,115.992,110.751,-0.00803816,0.103912,20.95,395.13,0.414149,0.0,0.0
1885,471,68.4305,71.8096,156.81,116.135,110.295,-0.00801218,0.102612,20.9504,395.11,0.462107,0.0,0.0
1890,472.25,67.2512,69.9793,156.257,116.266,109.611,-0.00801543,0.10133,20.951,395.12,0.52802,0.0,0.0
1895,473.5,67.0167,69.8141,156.733,116.356,110.002,-0.00805827,0.100109,20.9524,395.12,0.502956,0.0,0.0
1900,474.75,65.9135,68.814,155.83,116.41,110.393,-0.00812198,0.0988082,20.9536,395.1,0.475397,0.0,0.0
1905,476,65.1514,67.6662,156.147,116.409,110.585,-0.0082007,0.0975585,20.9567,395.12,0.459692,0.0,0.0
1910,477.25,64.739,67.1795,160.225,116.392,110.833,-0.00826088,0.0958518,20.9604,395.11,0.438371,0.0,0.0
1915,478.5,64.3625,66.0592,156.388,116.303,110.336,-0.00828113,0.0938248,20.9633,395.12,0.471716,0.0,0.0
1920,479.75,63.4499,65.8059,158.597,116.174,110.529,-0.0082628,0.0919697,20.9657,395.13,0.446212,0.0,0.0
1925,481,62.7255,64.5755,158.767,116.005,109.34,-0.00822586,0.0902692,20.9671,395.13,0.529971,0.0,0.0
1930,482.25,62.0609,63.6659,155.399,115.817,110.13,-0.00818786,0.0886421,20.968,395.14,0.45099,0.0,0.0
1935,483.5,61.301,62.598,163.264,115.608,110.275,-0.00818347,0.0869997,20.9685,394.96,0.423048,0.0,0.0
1940,484.75,59.954,60.9031,156.878,115.653,109.536,-0.00820515,0.0857801,20.9691,395.12,0.486738,0.0,0.0
1945,486,60.3204,61.1565,157.185,115.723,109.557,-0.00825542,0.084827,20.9695,395.11,0.490464,0.0,0.0
1950,487.25,59.5798,60.7629,159.087,115.81,109.745,-0.00828735,0.0843714,20.9683,395.11,0.48179,0.0,0.0
1955,488.5,58.8111,59.5874,157.855,115.919,110.283,-0.00830193,0.0841999,20.967,395.11,0.446406,0.0,0.0
1960,489.75,58.5232,58.9217,161.712,116.02,110.184,-0.00831256,0.0843593,20.9662,395.1,0.462338,0.0,0.0
1965,491,57.7755,58.5506,154.814,116.134,110.521,-0.00831176,0.0845612,20.9657,395.12,0.443764,0.0,0.0
1970,492.25,57.2124,57.5773,159.307,116.232,111.193,-0.00830145,0.0843296,20.9656,395.11,0.397021,0.0,0.0
1975,493.5,56.6257,56.8052,158.566,116.326,110.512,-0.00829351,0.0836896,20.9672,395.12,0.459237,0.0,0.0
1980,494.75,56.4673,56.3422,159.883,116.372,112.106,-0.00830502,0.0827601,20.9691,395.11,0.334515,0.0,0.0
1985,496,56.0679,55.6159,158.804,116.427,111.741,-0.00833911,0.0817003,20.9702,395.11,0.367988,0.0,0.0
1990,497.25,55.3554,55.1639,159.132,116.441,111.169,-0.00839927,0.0804854,20.9716,395.12,0.415082,0.0,0.0
1995,498.5,54.8989,54.4732,161.243,116.43,110.641,-0.008453,0.0793218,20.9726,395.1,0.456792,0.0,0.0
2000,499.75,54.1864,53.9787,158.887,116.37,111.069,-0.00846886,0.078729,20.9732,395.1,0.417592,0.0,0.0
2005,501,53.505,53.4844,157.209,116.301,111.203,-0.00844526,0.0779887,20.9738,395.11,0.401495,0.0,0.0
2010,502.25,53.5667,52.6467,159.224,116.23,111.141,-0.00841951,0.0771516,20.9753,395.11,0.400975,0.0,0.0
2015,503.5,52.757,52.3308,159.34,116.044,110.587,-0.00840517,0.0761697,20.9767,395.1,0.431471,0.0,0.0
2020,504.75,52.2061,51.5437,157.374,115.904,110.446,-0.00838852,0.0751163,20.9773,395.11,0.432068,0.0,0.0
2025,506,52.284,51.2984,158.718,115.734,110.519,-0.00839819,0.0738956,20.9777,395.12,0.412932,0.0,0.0
2030,507.25,51.2408,50.4053,157.558,115.531,110.4,-0.00845018,0.07258,20.9793,395.12,0.406931,0.0,0.0
2035,508.5,51.1114,50.0616,161.45,115.31,110.15,-0.00854618,0.0712764,20.9808,395.1,0.410011,0.0,0.0
2040,509.75,49.6407,48.8253,160.85,115.082,110.525,-0.00865968,0.0699663,20.9823,395.1,0.36189,0.0,0.0
2045,511,50.1164,49.1797,154.196,114.862,109.249,-0.00876911,0.0686807,20.9831,395.09,0.448728,0.0,0.0
2050,512.25,49.2984,47.9079,157.588,114.648,110.246,-0.00882593,0.0676894,20.9835,395.11,0.350679,0.0,0.0
2055,513.5,49.7633,48.1656,161.065,114.455,109.299,-0.00879004,0.0671135,20.9838,395.1,0.412906,0.0,0.0
2060,514.75,49.1435,47.7878,159.168,114.288,109.186,-0.00865131,0.0667169,20.9834,395.1,0.409036,0.0,0.0
2065,516,48.3397,46.5858,158.642,114.131,108.923,-0.00849959,0.0663925,20.9828,395.09,0.418356,0.0,0.0
2070,517.25,48.7251,46.5935,162.145,114.011,109.376,-0.00838425,0.0661666,20.9824,395.11,0.371705,0.0,0.0
2075,518.5,48.3819,46.4407,161.077,113.93,108.896,-0.00833475,0.0658968,20.9813,395.1,0.404813,0.0,0.0
2080,519.75,47.7885,46.43,159.004,113.885,109.247,-0.00834684,0.0657134,20.9806,395.12,0.372437,0.0,0.0
2085,521,47.8145,45.5348,160.147,113.867,109.61,-0.00841913,0.0657775,20.9802,395.1,0.34128,0.0,0.0
2090,522.25,47.4821,45.03,158.944,113.895,109.36,-0.00849822,0.0659716,20.9791,395.12,0.36393,0.0,0.0
2095,523.5,47.0358,45.0394,155.868,113.957,109.046,-0.00856568,0.066506,20.9771,395.12,0.394569,0.0,0.0
2100,524.75,46.5977,44.6348,158.715,114.066,109.432,-0.00859384,0.0675419,20.9738,395.09,0.371449,0.0,0.0
2105,526,46.1157,44.3107,157.08,114.195,109.094,-0.00859442,0.0686839,20.9715,395.11,0.409318,0.0,0.0
2110,527.25,46.2899,43.5983,160.206,114.335,109.607,-0.00860458,0.0698697,20.9702,395.12,0.37823,0.0,0.0
2115,528.5,45.6587,43.862,156.781,114.509,110.332,-0.00863939,0.0706942,20.9694,395.18,0.332803,0.0,0.0
2120,529.75,45.5092,43.475,158.544,114.699,110.541,-0.00869752,0.0712461,20.9689,395.11,0.330749,0.0,0.0
2125,531,44.8558,43.3104,159.657,114.911,110.834,-0.00875953,0.0715564,20.9686,395.11,0.323584,0.0,0.0
2130,532.25,45.1028,42.8408,159.76,115.112,110.998,-0.0088054,0.0717021,20.9685,395.12,0.325977,0.0,0.0
2135,533.5,44.3022,42.2587,162.121,115.327,111.224,-0.00883451,0.0716486,20.9684,395.11,0.324544,0.0,0.0
2140,534.75,44.2114,41.9093,158.621,115.503,111.332,-0.00885972,0.0713701,20.9691,395.12,0.329457,0.0,0.0
2145,536,44.3249,42.1404,162.382,115.623,111.196,-0.00887089,0.0708413,20.9705,395.11,0.349704,0.0,0.0
2150,537.25,43.7762,41.4808,159.277,115.742,111.307,-0.00884353,0.0700773,20.9737,395.12,0.349988,0.0,0.0
2155,538.5,43.442,41.418,160.472,115.846,111.602,-0.00876504,0.0691845,20.9758,395.12,0.334359,0.0,0.0
2160,539.75,43.2974,41.4336,158.671,115.931,112.741,-0.00869567,0.0683131,20.9776,395.13,0.249957,0.0,0.0
2165,541,43.2979,40.6373,160.178,115.974,111.806,-0.00864808,0.0672797,20.9797,395.11,0.32779,0.0,0.0
2170,542.25,42.6146,40.4464,160.912,116.013,111.871,-0.00866839,0.0662127,20.9814,395.12,0.325622,0.0,0.0
2175,543.5,42.9196,39.9755,163.792,116.007,111.816,-0.00872633,0.0653794,20.9835,395.11,0.329592,0.0,0.0
2180,544.75,42.4695,40.0259,159.711,115.978,111.443,-0.00876922,0.0642807,20.9851,395.11,0.35732,0.0,0.0
2185,546,42.1709,39.8323,161.257,115.92,111.187,-0.00874511,0.0631867,20.986,395.13,0.373388,0.0,0.0
2190,547.25,41.451,38.5392,160.964,115.844,110.917,-0.00863835,0.0622225,20.987,395.11,0.389278,0.0,0.0
2195,548.5,41.7539,39.6512,164.507,115.758,110.478,-0.00855284,0.0613531,20.9878,395.11,0.4182,0.0,0.0
2200,549.75,41.958,39.1576,159.334,115.687,111.171,-0.00851582,0.0606278,20.9881,395.11,0.356672,0.0,0.0
2205,551,40.7146,38.2287,161.731,115.605,111.636,-0.00853248,0.0599896,20.9884,395.12,0.312889,0.0,0.0
2210,552.25,41.765,38.8909,156.904,115.653,111.329,-0.00857089,0.0592763,20.9885,395.13,0.341316,0.0,0.0
2215,553.5,41.5457,37.8531,157.06,115.934,111.257,-0.00861568,0.0587908,20.9886,395.14,0.36882,0.0,0.0
2220,554.75,41.2328,37.9477,162.181,116.163,111.812,-0.00865286,0.0582635,20.9887,395.11,0.341946,0.0,0.0
2225,556,41.0546,37.7943,158.456,116.299,112.171,-0.00866842,0.0579039,20.9887,395.1,0.323727,0.0,0.0
2230,557.25,41.1522,37.6834,163.182,116.378,113.211,-0.00864319,0.0576717,20.9886,395.1,0.247149,0.0,0.0
2235,558.5,39.848,36.8636,161.778,116.406,112.661,-0.0086149,0.0575245,20.9887,395.1,0.292894,0.0,0.0
2240,559.75,40.3662,36.8772,161.957,116.355,112.168,-0.00856978,0.0574307,20.9888,395.11,0.328296,0.0,0.0
2245,561,39.5103,36.9172,162.682,116.245,111.382,-0.00849857,0.0573262,20.9889,395.11,0.382775,0.0,0.0
2250,562.25,39.9239,36.9723,160.812,116.076,111.141,-0.0084306,0.0571332,20.9889,395.12,0.389107,0.0,0.0
2255,563.5,39.9148,36.5707,157.143,115.825,111.599,-0.00837827,0.0568428,20.9896,395.17,0.332944,0.0,0.0
2260,564.75,39.6088,36.4445,161.314,115.607,111.041,-0.00832304,0.0564963,20.9903,395.14,0.360915,0.0,0.0
2265,566,39.1721,36.4156,160.834,115.707,112.136,-0.00825199,0.0561372,20.9911,395.13,0.28078,0.0,0.0
2270,567.25,38.8797,36.1314,159.013,115.825,111.602,-0.00821763,0.0557817,20.9921,395.13,0.332722,0.0,0.0
2275,568.5,38.8393,36.3448,159.776,115.943,111.406,-0.00826912,0.0554078,20.9926,395.13,0.357493,0.0,0.0
2280,569.75,38.9364,36.1182,160.964,116.088,112.246,-0.00839988,0.0551292,20.9926,395.13,0.301419,0.0,0.0
2285,571,38.7959,35.8758,165.207,116.217,112.197,-0.00854138,0.054888,20.9927,395.13,0.315313,0.0,0.0
2290,572.25,39.0865,35.6923,160.121,116.332,112.337,-0.00863354,0.0547344,20.9921,395.11,0.313053,0.0,0.0
2295,573.5,38.7951,35.5763,161.138,116.413,112.323,-0.00866691,0.0547512,20.9914,395.12,0.320391,0.0,0.0
2300,574.75,38.105,35.4372,156.82,116.446,112.304,-0.00867245,0.0548211,20.991,395.13,0.324399,0.0,0.0
2305,576,38.1321,35.5256,159.809,116.437,113.338,-0.00864837,0.0548606,20.9907,395.11,0.241657,0.0,0.0
2310,577.25,38.2396,34.946,162.118,116.392,112.928,-0.00862535,0.0548014,20.9906,395.11,0.270656,0.0,0.0
2315,578.5,37.8368,34.9351,162.628,116.265,112.212,-0.0086158,0.0547213,20.9905,395.11,0.317794,0.0,0.0
2320,579.75,37.8455,34.902,157.35,116.109,111.846,-0.00864763,0.0545848,20.9915,395.11,0.335031,0.0,0.0
2325,581,37.711,34.1392,159.424,115.904,112.009,-0.0087251,0.0544137,20.9922,395.1,0.306197,0.0,0.0
2330,582.25,37.3342,34.3774,157.935,115.672,111.661,-0.00879708,0.0541031,20.9927,395.11,0.316137,0.0,0.0
2335,583.5,36.1948,33.5974,159.918,115.398,111.226,-0.00883696,0.0537628,20.9932,395.11,0.329801,0.0,0.0
2340,584.75,36.8036,33.8782,159.447,115.128,111.971,-0.00883453,0.05351,20.9942,395.12,0.249052,0.0,0.0
2345,586,37.2976,34.037,159.432,114.848,111.886,-0.00881596,0.0532337,20.9948,395.15,0.23401,0.0,0.0
2350,587.25,37.1743,33.7174,159.732,114.595,111.042,-0.0088198,0.0529019,20.9951,395.14,0.282094,0.0,0.0
2355,588.5,36.9647,33.4623,162.17,114.336,110.573,-0.00884837,0.0525825,20.9953,395.13,0.299707,0.0,0.0
2360,589.75,36.703,33.7249,162.616,114.151,109.485,-0.00892678,0.0523497,20.9954,395.13,0.373821,0.0,0.0
2365,591,36.7783,33.8468,161.744,114.004,109.305,,0.0521742,,395.12,0.376984,0.0,0.0
2370,592.25,36.3355,33.4477,158.797,113.927,109.866,,0.0520101,,395.11,0.325144,0.0,0.0
2375,593.5,36.6872,33.0116,162.243,113.895,109.705,,,,395.12,0.335756,0.0,0.0
2380,594.75,36.636,33.2357,166.415,113.953,110.207,,,,395.11,0.299398,0.0,0.0
2385,596,36.1747,33.3763,160.539,114.058,111.338,,,,395.1,0.216143,0.0,0.0
2390,597.25,35.8256,33.1761,158.329,114.209,111.205,,,,395.11,0.238721,0.0,0.0
2395,598.5,35.8696,33.28,160.232,114.42,109.874,,,,395.1,0.36316,0.0,0.0
2400,599.75,35.8455,32.5372,165.785,114.666,111.661,,,,395.11,0.23784,0.0,0.0
2405,601,35.9777,32.6143,163.438,114.898,110.571,,,,395.12,0.343884,0.0,0.0
2406,601.25,35.6412,32.7951,157.103,114.92,111.617,,,,395.12,0.261196,0.0,0.0