File: 01_Data/HDPE/Cone/HDPE_Cone_HF25Scan_220218_R4.csv
Names,Time,Stack TC,Smoke TC,Exh Press,Smoke Comp,Smoke Meas,CO Meter,CO2 Meter,O2 Meter,Sample Mass,Ext Coeff,Start Test,Flame Verif
Chan Gain,,500,500,1,1,1,1,1,1,1,1,1.0,1.0
Offset,,0,0,0.132436,0,0,0,0,0,0,0,0.0,0.0
Gain,,1,1,25.011,15.4219,15.1528,1,1,1,1.00089,1.02113,1.0,1.0
Units,sec,C,C,Pa,%,%,%,%,%,g,/m,,
Baseline,,25.2919,24.0949,164.58,115.676,112.515,-0.00880648,0.0568296,20.9836,-478.314,0.248077,,
5,1,21.566,20.9583,164.459,115.823,112.477,-0.00873389,0.065424,20.9756,426.358,0.262556,0.0,0.0
10,2.25,21.3494,19.873,163.329,115.822,112.755,-0.00865516,0.0647971,20.9766,426.398,0.240342,0.0,0.0
15,3.5,21.2328,20.6252,163.021,115.83,113.182,-0.00861781,0.0640553,20.9776,426.378,0.207191,0.0,0.0
20,4.75,21.3628,20.8749,167.465,115.82,112.869,-0.00863481,0.0632987,20.9781,426.448,0.231127,0.0,0.0
25,6,21.1454,20.4436,163.743,115.831,113.524,-0.00871046,0.0626234,20.9791,426.438,0.180186,0.0,0.0
30,7.25,21.575,20.2733,162.962,115.829,112.959,-0.00880918,0.0620102,20.9803,426.388,0.224702,0.0,0.0
35,8.5,21.7582,20.5552,166.889,115.819,113.163,-0.00888851,0.0615122,20.981,426.378,0.207745,0.0,0.0
40,9.75,21.8002,21.1837,163.53,115.805,113.062,-0.00894484,0.0611437,20.9815,426.358,0.214709,0.0,0.0
45,11,21.0705,20.7978,165.897,115.799,113.018,-0.00898186,0.0608505,20.9817,426.358,0.217716,0.0,0.0
50,12.25,21.7666,20.9728,168.378,115.808,111.997,-0.00900201,0.0606929,20.9819,426.388,0.299735,0.0,0.0
55,13.5,21.3213,21.0986,169.096,115.795,113.236,-0.00900837,0.0607485,20.982,426.398,0.200216,0.0,0.0
60,14.75,21.6553,20.4901,168.299,115.782,113.21,-0.00901069,0.0610743,20.9816,426.388,0.201246,0.0,0.0
65,16,21.3819,20.7304,166.835,115.777,113.501,-0.00897824,0.0615941,20.9794,426.308,0.177861,0.0,0.0
70,17.25,21.5516,21.0926,163.988,115.753,113.703,-0.00891784,0.0625395,20.9762,426.408,0.160034,0.0,0.0
75,18.5,21.3121,20.635,160.616,115.762,112.831,-0.00884418,0.0633721,20.9729,426.408,0.229731,0.0,0.0
80,19.75,21.5779,21.0991,161.672,115.74,112.849,-0.00877751,0.0650239,20.9688,426.388,0.226551,0.0,0.0
85,21,21.3222,21.4222,166.187,115.733,113.354,-0.00873241,0.0666152,20.9651,426.378,0.186014,0.0,0.0
90,22.25,21.3278,20.7325,163.915,115.73,113.004,-0.00869957,0.0684036,20.9611,426.408,0.213535,0.0,0.0
95,23.5,22.1667,21.0762,166.851,115.704,112.99,-0.00868874,0.0702384,20.9578,426.368,0.212669,0.0,0.0
100,24.75,21.7581,21.3901,162.839,115.698,113.478,-0.00872281,0.0717381,20.9558,426.398,0.173494,0.0,0.0
105,26,21.9465,21.5694,164.652,115.689,113.127,-0.00877295,0.0726865,20.9551,426.388,0.200586,0.0,0.0
110,27.25,22.2606,21.0596,163.327,115.673,112.793,-0.00882012,0.0730816,20.9558,426.398,0.225821,0.0,0.0
115,28.5,21.9083,20.6994,167.565,115.641,112.796,-0.00885658,0.0731119,20.9578,426.388,0.223159,0.0,0.0
120,29.75,21.8078,21.0777,163.944,115.633,113.415,-0.00891206,0.0728267,20.9596,426.398,0.173503,0.0,0.0
125,31,21.9267,21.0997,163.14,115.629,113.356,-0.00897451,0.0723913,20.9606,426.388,0.177814,0.0,0.0
130,32.25,21.9131,21.3739,164.533,115.61,113.47,-0.00901114,0.0719285,20.9622,426.338,0.167407,0.0,0.0
135,33.5,21.7401,21.3266,166.275,115.588,112.808,-0.00899903,0.0715831,20.9631,426.368,0.21801,0.0,0.0
140,34.75,21.8449,20.8482,165.572,115.602,113.348,-0.00893814,0.0712575,20.9636,426.308,0.176393,0.0,0.0
145,36,21.4284,21.0845,163.618,115.595,112.949,-0.00884376,0.0708284,20.964,426.368,0.207401,0.0,0.0
150,37.25,21.4183,21.079,165.538,115.586,112.846,-0.00872744,0.0704611,20.9641,426.388,0.214927,0.0,0.0
155,38.5,21.5768,21.5162,166.139,115.565,112.87,-0.00862099,0.0700335,20.965,426.368,0.21134,0.0,0.0
160,39.75,21.7964,21.1466,166.314,115.57,113.033,-0.0085525,0.0694959,20.9657,426.288,0.198797,0.0,0.0
165,41,21.5715,20.7036,163.501,115.563,113.12,-0.00853906,0.069042,20.967,426.368,0.191436,0.0,0.0
170,42.25,21.511,21.2762,163.863,115.556,112.892,-0.00856485,0.0685748,20.9682,426.348,0.20896,0.0,0.0
175,43.5,21.8638,20.72,165.352,115.541,112.094,-0.00862727,0.067995,20.9703,426.618,0.271271,0.0,0.0
180,44.75,21.4888,20.9313,165.581,115.546,112.865,-0.00870598,0.0674034,20.9716,427.849,0.210322,0.0,0.0
185,46,22.2173,21.3238,166.52,115.542,112.541,-0.00878573,0.0668135,20.9723,428.54,0.23572,0.0,0.0
190,47.25,21.9479,21.3361,160.686,115.528,113.141,-0.00885423,0.0662921,20.9728,429.13,0.18698,0.0,0.0
195,48.5,20.8231,20.87,168.237,115.531,113.85,-0.0089223,0.0660209,20.973,429.651,0.131324,0.0,0.0
200,49.75,21.9045,21.2714,163.621,115.54,112.828,-0.00899094,0.0658629,20.9732,430.541,0.212747,0.0,0.0
205,51,21.8673,20.9539,166.115,115.553,113.487,-0.00905809,0.0657535,20.9727,432.083,0.161607,0.0,0.0
210,52.25,21.5975,20.9476,164.485,115.523,112.522,-0.00907218,0.0656491,20.972,434.315,0.23577,0.0,0.0
215,53.5,21.7427,20.9791,165.27,115.519,112.984,-0.00903144,0.0655392,20.9717,436.216,0.198778,0.0,0.0
220,54.75,21.9703,20.966,164.235,115.526,112.569,-0.00894082,0.0655217,20.9714,437.928,0.232234,0.0,0.0
225,56,21.7559,20.7999,165.371,115.512,113.408,-0.00884574,0.0657045,20.9707,443.203,0.164712,0.0,0.0
230,57.25,21.6098,21.4629,162.768,115.515,113.579,-0.00876996,0.0661164,20.9699,448.007,0.151355,0.0,0.0
235,58.5,22.0808,21.2963,165.472,115.515,113.344,-0.00873454,0.0666024,20.9695,451.66,0.169937,0.0,0.0
240,59.75,21.7413,20.7186,165.472,115.522,113.544,-0.00871134,0.0669656,20.9692,454.953,0.154748,0.0,0.0
245,61,21.2928,21.6821,166.874,115.495,112.864,-0.0086855,0.0670524,20.9691,457.385,0.206417,0.0,0.0
250,62.25,21.943,21.4644,164.117,115.508,113.562,-0.00864531,0.0671074,20.9691,459.017,0.15223,0.0,0.0
255,63.5,21.6272,21.3757,163.079,115.505,113.397,-0.00862152,0.06717,20.9693,460.067,0.165042,0.0,0.0
260,64.75,22.0808,21.4069,167.684,115.5,113.158,-0.0086123,0.0673009,20.9694,460.178,0.183435,0.0,0.0
265,66,21.9684,21.8019,161.745,115.498,112.603,-0.00859479,0.0675867,20.9686,459.597,0.227396,0.0,0.0
270,67.25,21.5432,21.0705,163.328,115.497,112.981,-0.00856554,0.0679404,20.968,458.406,0.197282,0.0,0.0
275,68.5,21.7122,21.1426,163.935,115.501,113.463,-0.00854345,0.0683134,20.9677,456.404,0.159418,0.0,0.0
280,69.75,21.734,21.0478,163.138,115.504,112.77,-0.00854571,0.0685593,20.9675,454.062,0.214528,0.0,0.0
285,71,21.0906,21.177,163.369,115.487,113.344,-0.00855712,0.0686744,20.9674,451.5,0.167784,0.0,0.0
290,72.25,21.4624,21.0487,164.358,115.494,113.19,-0.00855686,0.0686171,20.9682,448.317,0.180508,0.0,0.0
295,73.5,21.1985,20.9107,162.764,115.504,113.545,-0.00853534,0.0682041,20.9697,445.254,0.153251,0.0,0.0
300,74.75,21.4207,21.1101,165.085,115.489,112.555,-0.00849908,0.0674898,20.9714,442.162,0.230492,0.0,0.0
305,76,21.9397,21.3249,161.768,115.491,113.478,-0.00848714,0.0664606,20.974,439.269,0.157448,0.0,0.0
310,77.25,21.1537,20.4689,167.919,115.492,113.501,-0.0084985,0.0651475,20.9767,436.266,0.155769,0.0,0.0
315,78.5,21.9141,21.4325,165.866,115.517,113.076,-0.00854057,0.0638417,20.9784,433.664,0.19134,0.0,0.0
320,79.75,22.1569,20.824,164.247,115.549,112.888,-0.00856591,0.0628079,20.9797,432.073,0.20867,0.0,0.0
325,81,21.3166,20.6091,164.395,115.563,112.861,-0.00857816,0.0620204,20.9805,430.411,0.211966,0.0,0.0
330,82.25,21.4671,21.4171,169.209,115.579,112.908,-0.0086031,0.0614636,20.9801,428.54,0.20939,0.0,0.0
335,83.5,22.0521,20.9312,163.763,115.593,113.329,-0.00865096,0.061271,20.9798,425.907,0.177162,0.0,0.0
340,84.75,22.2922,21.5427,165.84,115.619,113.336,-0.00868171,0.0613301,20.9789,422.955,0.178656,0.0,0.0
345,86,21.896,21.378,164.883,115.614,112.222,-0.00868325,0.0615118,20.9779,419.492,0.266695,0.0,0.0
350,87.25,21.8192,21.8495,162.821,115.635,113.14,-0.00864056,0.061894,20.9763,417.009,0.195332,0.0,0.0
355,88.5,22.1108,21.2794,166.261,115.638,113.784,-0.00854422,0.0623184,20.9752,414.897,0.144807,0.0,0.0
360,89.75,21.5297,21.2161,168.086,115.636,113.603,-0.008423,0.0628472,20.9736,411.975,0.158833,0.0,0.0
365,91,21.9021,21.528,164.065,115.651,113.778,-0.00829294,0.0634455,20.9721,413.967,0.146228,0.0,0.0
370,92.25,22.2011,21.5197,168.181,115.669,113.164,-0.00819206,0.0643988,20.9707,416.869,0.19609,0.0,0.0
375,93.5,21.4207,21.6282,165.114,115.658,113.583,-0.00817369,0.0653975,20.9694,417.81,0.162114,0.0,0.0
380,94.75,21.9872,21.0254,165.12,115.633,113.207,-0.0082278,0.066351,20.9675,419.271,0.189916,0.0,0.0
385,96,21.7725,21.5831,164.559,115.636,113.242,-0.00832993,0.0675295,20.9661,419.832,0.187354,0.0,0.0
390,97.25,21.5483,21.7694,163.324,115.645,113.852,-0.0084497,0.0685508,20.9653,420.853,0.140004,0.0,0.0
395,98.5,22.041,21.5836,166.863,115.62,113.293,-0.00853699,0.0693266,20.9648,421.093,0.182055,0.0,0.0
400,99.75,22.1331,21.6061,162.576,115.614,113.533,-0.00858775,0.0697395,20.9645,420.613,0.162626,0.0,0.0
405,101,22.2172,21.4571,166.432,115.59,113.71,-0.00863298,0.0698929,20.9643,419.411,0.146877,0.0,0.0
410,102.25,21.8501,21.8607,168.805,115.586,112.359,-0.00868988,0.0699437,20.9642,419.401,0.253625,0.0,0.0
415,103.5,21.7625,21.5445,169.644,115.529,112.966,-0.00871362,0.0700291,20.9637,419.722,0.200902,0.0,0.0
420,104.75,21.9593,21.6171,166.355,115.511,112.964,-0.00870539,0.0703728,20.9629,420.162,0.199735,0.0,0.0
425,106,21.7147,21.5981,164.876,115.498,113.454,-0.00864131,0.0706661,20.9625,420.773,0.159966,0.0,0.0
430,107.25,22.0966,21.5984,168.214,115.487,112.888,-0.008561,0.0709775,20.962,421.693,0.203889,0.0,0.0
435,108.5,22.1381,22.1244,162.926,115.504,112.544,-0.00844877,0.0714101,20.9612,422.895,0.232507,0.0,0.0
440,109.75,22.27,21.837,167.18,115.494,112.697,-0.00837565,0.0719433,20.9611,424.006,0.219602,0.0,0.0
445,111,22.4111,21.8767,162.041,115.506,113.685,-0.00833906,0.0724657,20.9603,425.107,0.142387,0.0,0.0
450,112.25,21.0454,21.2726,167.836,115.499,113.003,-0.00832612,0.0731972,20.9598,426.067,0.195743,0.0,0.0
455,113.5,21.7876,22.1858,165.678,115.504,113.545,-0.00827351,0.0739361,20.9587,426.217,0.153215,0.0,0.0
460,114.75,22.3698,21.8884,167.028,115.515,112.805,-0.00817344,0.0745911,20.9578,426.288,0.21265,0.0,0.0
465,116,21.4055,21.8719,160.851,115.506,113.039,-0.00804771,0.075274,20.9554,426.268,0.193395,0.0,0.0
470,117.25,22.4397,22.4321,165.064,115.508,112.795,-0.00792481,0.0761824,20.9537,426.247,0.21291,0.0,0.0
475,118.5,21.87,21.9653,168.103,115.526,112.46,-0.00782483,0.0769904,20.9518,426.247,0.240885,0.0,0.0
480,119.75,22.294,22.5498,161.7,115.525,112.644,-0.00777028,0.0779325,20.95,426.258,0.226202,0.0,0.0
485,121,22.2932,21.8163,164.8,115.538,113.066,-0.00774568,0.0788517,20.9489,426.288,0.193678,0.0,0.0
490,122.25,22.2614,22.1751,163.58,115.521,112.869,-0.00771695,0.0798181,20.9476,426.167,0.207985,0.0,0.0
495,123.5,21.8152,22.3678,165.199,115.548,111.155,-0.00769014,0.080622,20.9466,426.237,0.347221,0.0,0.0
500,124.75,21.8723,21.886,161.36,115.542,112.127,-0.00767996,0.0814115,20.9452,426.177,0.268721,0.0,0.0
505,126,22.6505,22.3796,166.574,115.545,112.69,-0.00768005,0.0822767,20.9442,426.247,0.224095,0.0,0.0
510,127.25,22.4244,22.0142,168.797,115.543,112.634,-0.00768121,0.0830407,20.942,426.217,0.228398,0.0,0.0
515,128.5,22.2314,22.5205,163.481,115.565,112.392,-0.00769679,0.0837842,20.9397,426.217,0.249404,0.0,0.0
520,129.75,22.3927,22.8936,164.197,115.572,111.695,-0.00773145,0.084637,20.9372,426.217,0.305589,0.0,0.0
525,131,22.4539,22.3918,167.855,115.57,112.973,-0.00778022,0.085702,20.9351,426.207,0.203525,0.0,0.0
530,132.25,22.3528,22.4617,161.03,115.575,112.665,-0.00784498,0.0874584,20.9327,426.197,0.228452,0.0,0.0
535,133.5,22.6289,22.7122,164.673,115.581,113.281,-0.00790356,0.0892075,20.9289,426.167,0.179979,0.0,0.0
540,134.75,22.8223,22.6891,160.767,115.608,112.488,-0.00793532,0.0916459,20.9238,426.187,0.24506,0.0,0.0
545,136,22.3169,22.9842,161.766,115.599,112.576,-0.00796055,0.0943902,20.919,426.177,0.237373,0.0,0.0
550,137.25,22.8649,23.0222,164.256,115.61,112.636,-0.00801231,0.0970101,20.912,426.147,0.233393,0.0,0.0
555,138.5,23.0868,23.3605,163.964,115.622,111.044,-0.00805224,0.100541,20.9052,426.137,0.361859,0.0,0.0
560,139.75,22.5524,23.0108,165.19,115.636,112.407,-0.00801735,0.103825,20.8993,426.147,0.253621,0.0,0.0
565,141,23.2306,22.8055,161.851,115.64,111.38,-0.00789517,0.106579,20.8929,426.137,0.336203,0.0,0.0
570,142.25,23.331,23.21,158.779,115.65,112.364,-0.00773209,0.109926,20.8861,426.117,0.258215,0.0,1.0
575,143.5,23.2577,23.3061,161.463,115.664,112.194,-0.00762147,0.11344,20.8796,426.077,0.272811,0.0,1.0
580,144.75,23.5458,24.0597,157.663,115.659,111.106,-0.00758998,0.117119,20.8718,426.067,0.359741,0.0,1.0
585,146,23.5337,24.034,160.315,115.664,111.43,-0.00761386,0.121003,20.8644,426.017,0.334046,0.0,1.0
590,147.25,24.2151,24.0549,158.067,115.682,111.441,-0.00768692,0.125005,20.8582,426.087,0.334502,0.0,0.0
595,148.5,23.7287,24.2287,161.489,115.702,111.922,-0.00777105,0.129042,20.8518,426.047,0.297571,0.0,0.0
600,149.75,24.656,24.8976,160.196,115.711,112.033,-0.00786603,0.132987,20.8443,426.007,0.289386,0.0,0.0
605,151,24.0114,24.4675,162.023,115.719,111.606,-0.00792533,0.137238,20.8354,425.817,0.324121,0.0,1.0
610,152.25,25.0579,25.2844,159.019,115.734,112.074,-0.00792974,0.14168,20.827,425.957,0.287917,0.0,1.0
615,153.5,25.3199,25.4512,160.064,115.735,110.943,-0.00789133,0.146025,20.8211,425.977,0.378739,0.0,1.0
620,154.75,25.8634,26.3416,156.175,115.727,111.835,-0.00783421,0.150981,20.8145,425.917,0.306426,0.0,1.0
625,156,25.3298,25.6587,157.786,115.754,109.626,-0.00773006,0.156027,20.8067,425.917,0.487198,0.0,1.0
630,157.25,25.5908,26.7427,153.909,115.766,109.643,-0.00764738,0.161179,20.7958,425.877,0.486823,0.0,0.0
635,158.5,25.664,26.5701,156.528,115.773,109.914,-0.00765564,0.16755,20.781,425.807,0.465184,0.0,0.0
640,159.75,26.116,26.2712,152.441,115.779,110.022,-0.00775152,0.174355,20.7662,425.767,0.456845,0.0,0.0
645,161,26.4333,27.5617,155.247,115.791,110.321,-0.00782611,0.181231,20.7542,425.797,0.433429,0.0,0.0
650,162.25,26.7623,27.8873,153.148,115.8,109.999,-0.00780627,0.187996,20.7428,425.747,0.460367,0.0,0.0
655,163.5,26.9025,28.2004,152.668,115.811,109.846,-0.00766304,0.195369,20.7308,425.717,0.473676,0.0,0.0
660,164.75,27.2233,28.5208,152.68,115.821,109.83,-0.00750849,0.202509,20.7184,425.657,0.475722,0.0,0.0
665,166,27.8736,28.6981,150.188,115.826,109.404,-0.00739219,0.20989,20.7064,425.627,0.510924,0.0,0.0
670,167.25,28.8735,29.8385,152.235,115.837,108.453,-0.00731712,0.216613,20.6965,425.587,0.590018,0.0,0.0
675,168.5,28.5121,30.143,152.626,115.827,107.728,-0.00726208,0.222646,20.6865,425.517,0.649304,0.0,0.0
680,169.75,28.9367,30.6765,150.04,115.833,108.82,-0.00719474,0.228669,20.675,425.487,0.559417,0.0,0.0
685,171,29.9129,31.0406,148.437,115.852,108.64,-0.00712433,0.234895,20.6624,425.477,0.575766,0.0,0.0
690,172.25,29.9771,31.8246,145.777,115.836,106.455,-0.00706594,0.241218,20.6503,425.277,0.756436,0.0,0.0
695,173.5,30.2896,32.231,151.873,115.835,107.431,-0.006994,0.247901,20.638,425.377,0.674678,0.0,0.0
700,174.75,30.6144,32.6631,148.866,115.832,105.787,-0.00691332,0.254555,20.6274,425.267,0.812548,0.0,0.0
705,176,31.4365,33.5136,151.195,115.824,105.83,-0.00682243,0.261245,20.6169,425.307,0.808326,0.0,0.0
710,177.25,32.1995,33.7199,151.02,115.847,105.062,-0.0067192,0.268776,20.6056,425.237,0.87528,0.0,0.0
715,178.5,32.0974,34.3036,147.549,115.791,104.414,-0.00658635,0.277018,20.5908,425.187,0.926354,0.0,0.0
720,179.75,32.6757,34.7638,146.41,115.818,103.792,-0.0064124,0.2858,20.5728,425.127,0.981944,0.0,0.0
725,181,33.1824,35.4908,146.477,115.823,101.989,-0.00619866,0.295039,20.553,425.056,1.13939,0.0,0.0
730,182.25,33.8948,35.6818,146.925,115.825,102.129,-0.00591724,0.304955,20.5322,425.006,1.12724,0.0,0.0
735,183.5,34.3004,36.6078,148.37,115.805,101.408,-0.00564392,0.314258,20.5154,424.956,1.18909,0.0,0.0
740,184.75,34.7319,37.0834,144.142,115.798,100.517,-0.00541822,0.323329,20.4989,424.836,1.26771,0.0,0.0
745,186,35.244,38.1343,143.107,115.797,99.9496,-0.0052365,0.332744,20.4784,424.846,1.31827,0.0,0.0
750,187.25,35.8181,38.8484,146.109,115.782,101.225,-0.00505628,0.342887,20.4603,424.746,1.20353,0.0,0.0
755,188.5,36.4507,39.0367,145.237,115.759,98.5077,-0.00484208,0.352706,20.4454,424.706,1.44551,0.0,0.0
760,189.75,36.8015,40.0005,145.425,115.754,99.3119,-0.00457869,0.362048,20.4269,424.666,1.37225,0.0,0.0
765,191,37.2436,40.9769,147.865,115.74,96.9221,-0.00434339,0.37161,20.4074,424.556,1.58934,0.0,0.0
770,192.25,38.0332,41.5916,140.556,115.715,97.378,-0.00414727,0.382943,20.3837,424.476,1.54537,0.0,0.0
775,193.5,38.337,42.1886,140.573,115.697,96.0629,-0.00389593,0.394721,20.3576,424.396,1.66582,0.0,0.0
780,194.75,39.7285,42.9612,137.504,115.669,94.9845,-0.00362616,0.408607,20.3301,424.316,1.76471,0.0,0.0
785,196,40.3311,43.8486,143.755,115.654,95.0566,-0.00324208,0.422373,20.3041,424.156,1.75675,0.0,0.0
790,197.25,40.8481,44.8783,137.184,115.615,97.6236,-0.00288952,0.438066,20.2754,424.166,1.51508,0.0,0.0
795,198.5,41.619,45.8339,139.558,115.59,95.7544,-0.00261795,0.455729,20.24,424.106,1.68631,0.0,0.0
800,199.75,42.9615,46.4629,134.527,115.569,95.7059,-0.00241299,0.475064,20.197,423.975,1.68925,0.0,0.0
805,201,43.3855,47.907,133.366,115.526,97.1524,-0.0022459,0.496932,20.1583,423.825,1.55153,0.0,0.0
810,202.25,44.7968,48.6809,137.655,115.494,94.1494,-0.00208453,0.517609,20.1281,423.775,1.83032,0.0,0.0
815,203.5,45.5366,50.3347,136.933,115.456,96.2751,-0.00197051,0.532729,20.104,423.635,1.62734,0.0,0.0
820,204.75,46.3077,51.8222,132.661,115.42,97.7951,-0.00192752,0.551623,20.0812,423.545,1.48425,0.0,0.0
825,206,47.5734,52.2308,127.25,115.357,98.437,-0.00191064,0.572403,20.0471,423.435,1.42072,0.0,0.0
830,207.25,49.0895,54.0933,132.388,115.326,97.3397,-0.00189649,0.587944,20.01,423.365,1.51872,0.0,0.0
835,208.5,49.5479,55.614,127.415,115.28,96.8023,-0.00185617,0.606914,19.9804,423.195,1.56476,0.0,0.0
840,209.75,50.8882,56.9456,127.063,115.226,96.7588,-0.00178492,0.626733,19.9576,423.145,1.56457,0.0,0.0
845,211,52.4705,58.1639,132.324,115.164,96.5216,-0.00167082,0.639259,19.9355,423.005,1.58173,0.0,0.0
850,212.25,53.4743,59.353,129.814,115.108,95.311,-0.00158265,0.653828,19.9119,422.885,1.69047,0.0,0.0
855,213.5,54.2945,61.1073,125.799,115.052,97.864,-0.00153422,0.668028,19.8902,422.804,1.44929,0.0,0.0
860,214.75,55.3213,62.4395,125.464,114.996,96.3413,-0.00147205,0.682221,19.8677,422.684,1.5854,0.0,0.0
865,216,56.877,63.6857,129.099,114.933,95.7572,-0.00138674,0.696212,19.8419,422.554,1.63503,0.0,0.0
870,217.25,57.9225,64.9697,128.192,114.887,94.7538,-0.00120792,0.711736,19.8146,422.454,1.7258,0.0,0.0
875,218.5,58.933,66.4752,124.119,114.836,95.1824,-0.000975099,0.727334,19.7891,422.344,1.68136,0.0,0.0
880,219.75,59.9226,67.7121,122.908,114.776,94.4444,-0.000724618,0.744283,19.7614,422.194,1.74639,0.0,0.0
885,221,61.4202,69.3272,127.498,114.715,95.4169,-0.000462419,0.761574,19.7256,422.074,1.64989,0.0,0.0
890,222.25,62.3584,71.2771,126.651,114.678,95.5565,-0.000188656,0.780456,19.691,421.954,1.63389,0.0,0.0
895,223.5,63.4382,71.4748,121.127,114.628,93.692,8.16172e-05,0.798132,19.6671,421.804,1.80653,0.0,0.0
900,224.75,65.4782,74.2729,119.814,114.577,93.3766,0.000316132,0.813755,19.6492,421.643,1.83268,0.0,0.0
905,226,66.54,75.6653,120.336,114.544,91.9986,0.000568855,0.828619,19.6301,421.513,1.96332,0.0,0.0
910,227.25,67.8855,76.1772,121.8,114.501,91.5464,0.000783308,0.842449,19.6066,421.373,2.00411,0.0,0.0
915,228.5,68.986,79.1828,123.109,114.463,91.6666,0.00093126,0.857969,19.5815,421.243,1.98933,0.0,0.0
920,229.75,70.1497,80.0371,117.863,114.42,91.4358,0.00104275,0.874073,19.5563,421.113,2.00859,0.0,0.0
925,231,71.4496,81.119,119.365,114.404,89.9501,0.00115152,0.888362,19.5398,420.963,2.15401,0.0,0.0
930,232.25,71.9679,83.2845,128.195,114.373,90.1734,0.00130344,0.902801,19.519,420.813,2.12944,0.0,0.0
935,233.5,74.0906,84.9358,125.067,114.34,88.8943,0.00149674,0.915834,19.5011,420.713,2.25479,0.0,0.0
940,234.75,75.0469,85.9803,118.87,114.315,88.6899,0.00167116,0.926017,19.4824,420.552,2.27342,0.0,0.0
945,236,76.2224,87.3755,114.176,114.289,89.0349,0.00178594,0.939095,19.4546,420.382,2.23661,0.0,0.0
950,237.25,77.3173,88.8095,114.477,114.263,90.2062,0.00185477,0.955963,19.4258,420.242,2.11755,0.0,0.0
955,238.5,78.4524,90.2581,120.744,114.254,88.7417,0.00192466,0.972599,19.4031,420.082,2.26343,0.0,0.0
960,239.75,79.852,91.2586,118.472,114.215,88.6705,0.00206622,0.98796,19.3799,419.962,2.26756,0.0,0.0
965,241,80.6041,93.1837,125.258,114.202,89.163,0.00230844,1.00257,19.3561,419.792,2.21691,0.0,0.0
970,242.25,81.8193,94.1118,117.673,114.19,87.9884,0.0026696,1.01737,19.3317,419.602,2.33481,0.0,0.0
975,243.5,82.8372,96.238,117.15,114.173,89.3799,0.00300626,1.03271,19.302,419.472,2.1929,0.0,0.0
980,244.75,83.9991,97.5013,114.559,114.169,88.5193,0.0034097,1.05046,19.2695,419.321,2.27923,0.0,0.0
985,246,84.8798,99.4922,111.408,114.167,89.0178,0.003743,1.07082,19.2353,419.131,2.22878,0.0,0.0
990,247.25,86.3243,100.912,119.158,114.164,89.3901,0.00399766,1.08834,19.2102,418.981,2.19121,0.0,0.0
995,248.5,87.4764,102.719,112.292,114.167,88.5443,0.00419169,1.10518,19.1905,418.861,2.27655,0.0,0.0
1000,249.75,88.5526,103.668,113.709,114.176,88.7242,0.00438676,1.11883,19.1738,418.651,2.25911,0.0,0.0
1005,251,90.6213,104.96,113.614,114.187,88.2594,0.00455581,1.13358,19.1499,418.451,2.307,0.0,0.0
1010,252.25,91.7162,106.758,122.404,114.2,86.0356,0.00475205,1.15104,19.124,418.371,2.53658,0.0,0.0
1015,253.5,92.2577,107.923,116.654,114.213,87.3877,0.00493125,1.16854,19.0892,418.13,2.39797,0.0,0.0
1020,254.75,93.823,110.145,108.559,114.229,86.1105,0.00510948,1.18575,19.0599,417.98,2.53111,0.0,0.0
1025,256,95.0608,111.557,106.063,114.253,84.4966,0.005286,1.20216,19.0303,417.87,2.70242,0.0,0.0
1030,257.25,95.9429,112.408,115.481,114.268,84.8143,0.00547704,1.21752,19.007,417.64,2.67003,0.0,0.0
1035,258.5,97.6442,114.417,112.908,114.301,87.5945,0.00566391,1.23217,18.9867,417.4,2.38367,0.0,0.0
1040,259.75,98.7698,115.833,107.855,114.322,86.6395,0.00583251,1.24661,18.9668,417.26,2.48352,0.0,0.0
1045,261,99.2897,117.081,112.284,114.358,86.1702,0.00601525,1.26194,18.9334,417.069,2.53501,0.0,0.0
1050,262.25,101.636,118.75,108.855,114.383,84.8555,0.00621356,1.28028,18.8913,416.929,2.67464,0.0,0.0
1055,263.5,102.999,120.611,111.515,114.432,88.08,0.00643013,1.30296,18.8559,416.699,2.34441,0.0,0.0
1060,264.75,104.224,122.244,105.254,114.463,86.7242,0.00671742,1.32267,18.8328,416.479,2.48583,0.0,0.0
1065,266,105.204,124.058,108.092,114.5,88.6284,0.00703849,1.33913,18.8139,416.319,2.29411,0.0,0.0
1070,267.25,106.703,125.509,106.147,114.538,88.461,0.00737845,1.35442,18.795,416.119,2.31403,0.0,0.0
1075,268.5,107.647,127.757,99.8061,114.59,88.4301,0.00769912,1.36943,18.7721,415.958,2.32125,0.0,0.0
1080,269.75,109.538,129.045,102.01,114.63,87.1459,0.007958,1.3858,18.7484,415.768,2.4554,0.0,0.0
1085,271,110.732,130.188,107.1,114.676,87.9459,0.00823511,1.40473,18.725,415.628,2.37712,0.0,0.0
1090,272.25,111.764,132.148,99.0673,114.72,85.5454,0.00850201,1.42032,18.7034,415.388,2.62846,0.0,0.0
1095,273.5,113.018,134.081,105.058,114.759,88.6747,0.00875624,1.43758,18.6779,415.188,2.30974,0.0,0.0
1100,274.75,114.449,135.497,106.265,114.81,87.6855,0.00896424,1.4528,18.6562,414.968,2.41418,0.0,0.0
1105,276,116.072,137.087,103.152,114.874,86.5896,0.00914094,1.46676,18.6315,414.757,2.5318,0.0,0.0
1110,277.25,117.214,138.985,102.81,114.901,86.9938,0.00932094,1.48246,18.604,414.627,2.49221,0.0,0.0
1115,278.5,118.577,140.422,102.539,114.946,88.8083,0.0095141,1.49938,18.5791,414.407,2.31082,0.0,0.0
1120,279.75,120.047,141.94,104.755,114.989,85.7202,0.00977709,1.51736,18.5503,414.197,2.63117,0.0,0.0
1125,281,121.586,143.606,97.7468,115.021,87.2606,0.0100525,1.53425,18.5224,413.967,2.47417,0.0,0.0
1130,282.25,122.768,145.562,104.203,115.072,87.2791,0.0103058,1.5521,18.4921,413.716,2.47619,0.0,0.0
1135,283.5,123.784,147.26,106.259,115.117,85.8086,0.0105004,1.56924,18.4676,413.516,2.63187,0.0,0.0
1140,284.75,125.169,149.241,105.57,115.175,86.1623,0.0106927,1.58386,18.4506,413.426,2.5996,0.0,0.0
1145,286,126.521,150.581,101.949,115.208,83.9649,0.0109225,1.59735,18.4328,413.126,2.83357,0.0,0.0
1150,287.25,127.095,152.759,105.629,115.253,86.0148,0.0111653,1.61533,18.3981,412.926,2.62102,0.0,0.0
1155,288.5,128.466,152.952,97.1225,115.297,85.6412,0.011378,1.63391,18.3659,412.796,2.66338,0.0,0.0
1160,289.75,130.213,155.302,95.9699,115.342,85.2162,0.0115539,1.65495,18.3202,412.515,2.71141,0.0,0.0
1165,291,131.392,156.921,106.996,115.358,84.5563,0.0117645,1.67854,18.2843,412.285,2.78229,0.0,0.0
1170,292.25,131.903,158.295,100.804,115.398,86.0203,0.0120173,1.70216,18.2554,412.135,2.6317,0.0,0.0
1175,293.5,134.168,160.148,93.9747,115.439,84.9068,0.0122717,1.72399,18.225,411.695,2.75155,0.0,0.0
1180,294.75,134.901,162.501,105.025,115.476,84.5175,0.0125895,1.74583,18.1967,411.635,2.7956,0.0,0.0
1185,296,136.217,163.096,89.034,115.492,82.0629,0.0129417,1.76395,18.1665,411.394,3.0608,0.0,0.0
1190,297.25,138.263,165.476,93.2939,115.526,85.3817,0.0133058,1.78164,18.145,411.174,2.70838,0.0,0.0
1195,298.5,139.036,167.258,95.17,115.558,83.5699,0.0137525,1.79771,18.1223,410.964,2.9029,0.0,0.0
1200,299.75,140.533,168.436,94.409,115.582,82.3843,0.0142096,1.81537,18.0975,410.754,3.03276,0.0,0.0
1205,301,141.102,170.605,91.3712,115.616,84.1396,0.0146799,1.83571,18.0653,410.474,2.84657,0.0,0.0
1210,302.25,142.611,172.262,96.4378,115.654,84.9914,0.0150882,1.85837,18.0234,410.273,2.75926,0.0,0.0
1215,303.5,144.044,173.375,92.8496,115.676,84.2525,0.0155151,1.884,17.9753,409.993,2.8392,0.0,0.0
1220,304.75,145.245,175.289,96.8446,115.702,84.6123,0.0159099,1.91033,17.9348,409.763,2.80311,0.0,0.0
1225,306,146.17,177.331,92.7222,115.732,85.8816,0.0165076,1.93666,17.8835,409.493,2.67198,0.0,0.0
1230,307.25,147.98,179.2,89.0836,115.77,84.8819,0.0172392,1.97156,17.821,409.302,2.77982,0.0,0.0
1235,308.5,149.766,180.689,85.1955,115.807,85.2296,0.0178446,1.99642,17.7711,409.042,2.74611,0.0,0.0
1240,309.75,151.282,182.826,104.3,115.829,83.3965,0.0182638,2.02419,17.734,408.842,2.94253,0.0,0.0
1245,311,152.581,184.733,88.0067,115.871,83.8123,0.0185194,2.05048,17.696,408.552,2.90123,0.0,0.0
1250,312.25,154.259,186.233,89.6729,115.885,84.4721,0.0186635,2.07592,17.6639,408.262,2.83208,0.0,0.0
1255,313.5,155.53,188.206,93.7625,115.903,84.7524,0.0187855,2.09772,17.6417,408.041,2.80379,0.0,0.0
1260,314.75,156.773,190.65,86.0244,115.94,83.4696,0.0189645,2.11359,17.6265,407.811,2.94327,0.0,0.0
1265,316,158.107,192.688,91.6536,115.976,85.1894,0.0191257,2.12744,17.6147,407.551,2.7634,0.0,0.0
1270,317.25,159.124,194.11,105.914,116,84.5346,0.0192233,2.1443,17.6089,407.321,2.83437,0.0,0.0
1275,318.5,160.71,195.729,92.9748,116.028,85.0973,0.0192406,2.15699,17.6049,406.98,2.77704,0.0,0.0
1280,319.75,162.246,197.599,99.7878,116.051,84.0037,0.0192154,2.16259,17.5914,406.93,2.89468,0.0,0.0
1285,321,163.449,199.535,90.4827,116.081,83.668,0.0192092,2.16726,17.5834,406.6,2.93291,0.0,0.0
1290,322.25,164.271,200.685,91.5276,116.124,83.9464,0.019194,2.1769,17.5768,406.37,2.90646,0.0,0.0
1295,323.5,165.891,202.019,97.8582,116.133,83.12,0.0191193,2.18805,17.5682,406.14,2.99577,0.0,0.0
1300,324.75,166.047,203.393,96.8446,116.174,83.0197,0.01898,2.19424,17.5567,405.869,3.00974,0.0,0.0
1305,326,167.918,204.721,92.7794,116.193,83.5861,0.0188494,2.20047,17.5488,405.549,2.95032,0.0,0.0
1310,327.25,168.957,206.145,89.6958,116.218,84.0083,0.0187734,2.21059,17.5306,405.349,2.90708,0.0,0.0
1315,328.5,169.914,207.542,95.486,116.239,83.2587,0.0187365,2.22442,17.5128,405.099,2.98895,0.0,0.0
1320,329.75,171.236,208.642,89.8614,116.274,84.0338,0.0187131,2.23558,17.5023,404.849,2.90872,0.0,0.0
1325,331,172.222,210.472,91.4979,116.279,82.8,0.0186683,2.242,17.5008,404.488,3.04156,0.0,0.0
1330,332.25,172.737,211.768,89.2523,116.288,83.7572,0.0186048,2.24478,17.5009,404.258,2.93933,0.0,0.0
1335,333.5,173.893,212.547,87.2273,116.319,83.2379,0.0185569,2.2469,17.5009,404.128,2.99743,0.0,0.0
1340,334.75,174.665,213.394,88.5562,116.327,82.5614,0.0185893,2.25307,17.4918,403.838,3.07111,0.0,0.0
1345,336,175.514,214.223,85.7718,116.343,82.184,0.018753,2.2588,17.4789,403.557,3.11334,0.0,0.0
1350,337.25,176.467,215.332,90.3255,116.359,83.0141,0.0189583,2.26653,17.4622,403.337,3.02459,0.0,0.0
1355,338.5,177.505,216.273,84.3536,116.363,83.2527,0.0191866,2.27687,17.4426,403.077,2.99921,0.0,0.0
1360,339.75,178.615,216.986,88.257,116.38,83.2879,0.0193428,2.28717,17.4289,402.907,2.99673,0.0,0.0
1365,341,178.883,218.939,88.2639,116.391,84.2793,0.0194473,2.2962,17.4218,402.597,2.89157,0.0,0.0
1370,342.25,180.097,219.88,88.3822,116.397,83.6032,0.0195319,2.30098,17.4196,402.336,2.96418,0.0,0.0
1375,343.5,181.068,220.806,93.6022,116.41,81.0284,0.0196356,2.30051,17.4265,402.026,3.2454,0.0,0.0
1380,344.75,181.689,221.867,87.9769,116.426,82.3339,0.0198423,2.29727,17.4422,401.856,3.10347,0.0,0.0
1385,346,182.468,222.106,86.7686,116.44,82.3066,0.0201034,2.2931,17.4552,401.586,3.10749,0.0,0.0
1390,347.25,183.035,223.121,81.0792,116.439,83.7748,0.0202866,2.2883,17.4632,401.285,2.94904,0.0,0.0
1395,348.5,183.48,223.84,87.8326,116.454,81.655,0.0203361,2.28507,17.4679,401.055,3.17976,0.0,0.0
1400,349.75,184.039,225.059,97.8529,116.459,83.3928,0.0202811,2.28346,17.4707,400.815,2.99153,0.0,0.0
1405,351,184.246,225.876,81.3211,116.456,82.8717,0.0201772,2.28212,17.4741,400.545,3.0474,0.0,0.0
1410,352.25,185.66,225.864,91.6376,116.469,84.794,0.0200261,2.27873,17.4851,400.315,2.84301,0.0,0.0
1415,353.5,185.779,226.997,100.263,116.475,85.1195,0.0199002,2.27385,17.4999,400.074,2.80919,0.0,0.0
1420,354.75,186.196,228.094,89.9767,116.495,83.8844,0.0197949,2.26642,17.522,399.874,2.94164,0.0,0.0
1425,356,187.174,228.522,88.3578,116.493,82.9392,0.0196152,2.25263,17.5517,399.534,3.04296,0.0,0.0
1430,357.25,187.484,229.166,96.9896,116.502,84.2701,0.0192273,2.2305,17.6075,399.374,2.90109,0.0,0.0
1435,358.5,187.833,229.207,95.6905,116.525,83.7091,0.0186328,2.20222,17.6873,399.194,2.96269,0.0,0.0
1440,359.75,187.924,229.298,94.4464,116.515,84.1059,0.0178657,2.1698,17.764,398.883,2.91957,0.0,0.0
1445,361,188.06,228.877,94.4006,116.512,85.6976,0.0171908,2.12994,17.8238,398.733,2.75143,0.0,0.0
1450,362.25,187.809,228.997,96.8232,116.528,83.7142,0.0164668,2.09149,17.8772,398.543,2.96236,0.0,0.0
1455,363.5,187.748,228.713,101.342,116.535,86.0259,0.01572,2.04912,17.9403,398.293,2.71888,0.0,0.0
1460,364.75,187.865,227.878,95.0723,116.539,86.1998,0.0150849,2.01835,18.0165,398.083,2.70115,0.0,0.0
1465,366,187.524,227.012,96.6897,116.541,85.5329,0.0145435,1.97325,18.0994,397.872,2.77082,0.0,0.0
1470,367.25,186.654,227.024,96.4172,116.546,85.3655,0.0140179,1.92822,18.1869,397.672,2.78877,0.0,0.0
1475,368.5,186.687,225.297,102.337,116.561,86.1595,0.0135092,1.88201,18.2633,397.452,2.707,0.0,0.0
1480,369.75,185.278,225.1,103.292,116.563,87.2416,0.0129804,1.83571,18.341,397.262,2.59539,0.0,0.0
1485,371,185.585,223.684,114.469,116.569,87.1487,0.0123777,1.79166,18.4169,397.092,2.60541,0.0,0.0
1490,372.25,184.698,222.544,105.479,116.576,85.5154,0.0115812,1.74535,18.4947,396.992,2.77538,0.0,0.0
1495,373.5,183.617,221.363,101.662,116.589,88.2025,0.0106816,1.69896,18.5951,396.711,2.49922,0.0,0.0
1500,374.75,182.387,219.63,107.643,116.576,86.8782,0.0098543,1.64215,18.6957,396.621,2.63376,0.0,0.0
1505,376,181.492,217.971,113.559,116.602,87.5501,0.00910112,1.58409,18.7742,396.411,2.56677,0.0,0.0
1510,377.25,180.107,216.456,110.736,116.599,87.507,0.00817119,1.52176,18.8814,396.301,2.57089,0.0,0.0
1515,378.5,178.654,214.307,118.445,116.608,90.7154,0.00736458,1.46055,18.9931,396.131,2.24905,0.0,0.0
1520,379.75,177.751,211.626,107.459,116.589,87.8206,0.00665449,1.4079,19.1119,395.991,2.53809,0.0,0.0
1525,381,175.73,210.048,116.534,116.603,88.7514,0.00602386,1.34257,19.2196,395.921,2.44477,0.0,0.0
1530,382.25,173.554,207.842,114.656,116.613,92.6469,0.00550993,1.27898,19.3144,395.781,2.06072,0.0,0.0
1535,383.5,172.497,205.217,121.195,116.61,90.0217,0.00499621,1.21437,19.4277,395.69,2.31802,0.0,0.0
1540,384.75,169.876,202.727,127.264,116.612,85.5168,0.00451294,1.14401,19.5261,395.6,2.77798,0.0,0.0
1545,386,167.393,198.948,130.797,116.622,86.9392,0.00393899,1.07355,19.6633,395.5,2.63101,0.0,0.0
1550,387.25,166.04,196.493,130.081,116.622,87.2587,0.0031333,0.99881,19.7946,395.46,2.59811,0.0,0.0
1555,388.5,163.267,192.897,133.036,116.624,88.708,0.00223183,0.923943,19.9257,395.34,2.45071,0.0,0.0
1560,389.75,161.44,189.198,139.812,116.626,89.0788,0.00106139,0.84411,20.0683,395.32,2.41352,0.0,0.0
1565,391,157.571,186.212,146.712,116.629,100.704,-0.000215184,0.762422,20.2223,395.31,1.31499,0.0,0.0
1570,392.25,155.126,181.59,148.24,116.622,107.577,-0.00142751,0.678261,20.396,395.32,0.723108,0.0,0.0
1575,393.5,151.723,177.473,154.208,116.636,107.775,-0.00254077,0.596687,20.5571,395.33,0.707728,0.0,0.0
1580,394.75,147.23,172.402,155.134,116.636,107.604,-0.00353213,0.518685,20.6782,395.33,0.721961,0.0,0.0
1585,396,145.73,168.939,154.636,116.636,107.812,-0.00435568,0.452918,20.7631,395.35,0.704656,0.0,0.0
1590,397.25,141.934,165.421,154.103,116.629,108.23,-0.00500568,0.398743,20.8228,395.34,0.669447,0.0,0.0
1595,398.5,138.536,161.329,154.06,116.638,108.132,-0.00548177,0.356599,20.8653,395.35,0.678254,0.0,0.0
1600,399.75,136.147,157.373,157.038,116.641,107.929,-0.00589852,0.321088,20.8962,395.35,0.695337,0.0,0.0
1605,401,133.59,153.811,154.575,116.646,108.541,-0.00624696,0.292423,20.9184,395.35,0.645106,0.0,0.0
1610,402.25,130.843,150.708,154.379,116.642,108.798,-0.00658001,0.267443,20.9335,395.36,0.623588,0.0,0.0
1615,403.5,128.669,146.905,155.869,116.621,107.72,-0.00689391,0.246726,20.9442,395.35,0.711146,0.0,0.0
1620,404.75,125.925,144.322,156.235,116.637,108.291,-0.00716242,0.229932,20.9522,395.33,0.665012,0.0,0.0
1625,406,123.575,141.057,155.727,116.628,107.369,-0.00736021,0.21543,20.9577,395.33,0.740921,0.0,0.0
1630,407.25,121.11,138.06,153.864,116.631,108.86,-0.00750226,0.202066,20.9617,395.36,0.617657,0.0,0.0
1635,408.5,118.609,135.219,155.682,116.622,109.323,-0.00759854,0.190533,20.9641,395.36,0.578962,0.0,0.0
1640,409.75,116.371,132.284,154.789,116.631,108.265,-0.0076635,0.180796,20.9653,395.38,0.666761,0.0,0.0
1645,411,114.56,129.383,159.465,116.624,109.218,-0.00770808,0.171871,20.9665,395.39,0.587711,0.0,0.0
1650,412.25,112.307,126.954,154.02,116.632,108.823,-0.00774161,0.163878,20.9683,395.37,0.620771,0.0,0.0
1655,413.5,110.195,124.471,157.2,116.62,109.171,-0.0077703,0.156421,20.9697,395.34,0.591181,0.0,0.0
1660,414.75,108.358,122.179,153.341,116.628,108.614,-0.00778266,0.149751,20.9713,395.33,0.637669,0.0,0.0
1665,416,106.074,119.104,156.263,116.622,109.587,-0.0077758,0.142989,20.9724,395.38,0.557317,0.0,0.0
1670,417.25,104.123,117.021,157.23,116.61,108.055,-0.00780825,0.137326,20.9738,395.35,0.682521,0.0,0.0
1675,418.5,102.248,114.568,154.904,116.618,108.591,-0.00787499,0.132124,20.975,395.36,0.638817,0.0,0.0
1680,419.75,101.141,112.596,157.745,116.613,108.388,-0.00794147,0.127862,20.9769,395.38,0.65518,0.0,0.0
1685,421,99.655,110.475,153.559,116.611,108.775,-0.00797256,0.122959,20.9785,395.38,0.623066,0.0,0.0
1690,422.25,98.1639,108.327,157.91,116.603,108.66,-0.008003,0.118759,20.9794,395.38,0.631902,0.0,0.0
1695,423.5,96.1772,106.486,154.511,116.61,109.213,-0.00806946,0.114902,20.9799,395.39,0.587005,0.0,0.0
1700,424.75,95.0901,104.387,156.917,116.606,108.75,-0.00819401,0.111302,20.9809,395.41,0.624763,0.0,0.0
1705,426,93.2378,101.828,153.682,116.612,109.308,-0.00831835,0.108515,20.9818,395.36,0.579416,0.0,0.0
1710,427.25,91.8109,100.165,159.355,116.593,109.378,-0.00839986,0.105261,20.9828,395.38,0.572174,0.0,0.0
1715,428.5,90.5226,98.2535,157.265,116.595,109.588,-0.00845331,0.101866,20.9848,395.38,0.555182,0.0,0.0
1720,429.75,88.5618,96.0776,157.514,116.6,108.831,-0.00849255,0.0987659,20.9859,395.36,0.617628,0.0,0.0
1725,431,88.0796,95.1807,158.176,116.597,108.539,-0.00851231,0.0959716,20.9866,395.36,0.641499,0.0,0.0
1730,432.25,85.9834,93.5092,157.043,116.602,109.132,-0.00848449,0.0935314,20.9868,395.35,0.593106,0.0,0.0
1735,433.5,84.2246,91.2057,160.207,116.6,109.109,-0.00844453,0.0915416,20.9875,395.38,0.59482,0.0,0.0
1740,434.75,84.0187,90.2635,155.736,116.601,109.802,-0.00841146,0.0893542,20.9879,395.35,0.538131,0.0,0.0
1745,436,82.404,88.8782,158.829,116.58,109.459,-0.00837264,0.0874021,20.988,395.35,0.564537,0.0,0.0
1750,437.25,81.5507,87.5751,156.95,116.593,108.983,-0.00838779,0.0854807,20.9879,395.37,0.604574,0.0,0.0
1755,438.5,80.4259,85.9123,158.902,116.6,110.074,-0.00846384,0.0839843,20.9879,395.41,0.515905,0.0,0.0
1760,439.75,79.4003,84.2218,152.858,116.6,109.64,-0.00854719,0.0822354,20.9878,395.4,0.551308,0.0,0.0
1765,441,78.2322,83.192,161.744,116.6,110.204,-0.00860045,0.0807395,20.9878,395.39,0.505336,0.0,0.0
1770,442.25,77.0756,81.6558,156.114,116.6,109.458,-0.00862538,0.0794028,20.9878,395.39,0.566205,0.0,0.0
1775,443.5,76.004,80.6642,157.143,116.592,110.687,-0.00863526,0.0779853,20.9878,395.38,0.465496,0.0,0.0
1780,444.75,74.9793,79.5994,158.921,116.586,110.381,-0.00864379,0.0766638,20.9878,395.39,0.489942,0.0,0.0
1785,446,74.1232,78.0315,161.553,116.58,110.825,-0.00868018,0.0755715,20.988,395.38,0.453447,0.0,0.0
1790,447.25,73.4195,76.7879,159.325,116.582,109.958,-0.00871928,0.0746894,20.9882,395.39,0.523982,0.0,0.0
1795,448.5,71.953,75.6234,159.422,116.59,110.477,-0.00871309,0.0738399,20.9884,395.39,0.482356,0.0,0.0
1800,449.75,71.8,74.4615,155.302,116.572,108.927,-0.00868112,0.0728416,20.9885,395.38,0.607548,0.0,0.0
1805,451,70.9924,73.3767,158.706,116.568,110.765,-0.00863268,0.071751,20.9886,395.38,0.457402,0.0,0.0
1810,452.25,70.0713,72.1478,156.79,116.587,109.632,-0.0086364,0.0708888,20.9886,395.38,0.550975,0.0,0.0
1815,453.5,68.7959,71.3507,158.138,116.569,109.538,-0.0086664,0.0701976,20.9886,395.39,0.557236,0.0,0.0
1820,454.75,68.0084,70.2773,157.922,116.555,110.066,-0.00870719,0.0694141,20.9876,395.4,0.513147,0.0,0.0
1825,456,67.3185,69.5569,157.649,116.564,110.125,-0.008704,0.068815,20.9869,395.4,0.508982,0.0,0.0
1830,457.25,66.3238,68.5874,156.689,116.593,109.681,-0.00866772,0.0680568,20.9866,395.39,0.547441,0.0,0.0
1835,458.5,65.9139,67.3972,156.917,116.578,110.13,-0.00865415,0.0673082,20.9864,395.4,0.509653,0.0,0.0
1840,459.75,65.4188,66.6411,157.047,116.549,109.644,-0.00868282,0.0665875,20.9862,395.39,0.54699,0.0,0.0
1845,461,63.7668,65.437,157.979,116.556,110.337,-0.00872294,0.0659515,20.9864,395.39,0.491157,0.0,0.0
1850,462.25,63.4637,64.6424,153.257,116.567,111,-0.00876002,0.0653332,20.9868,395.39,0.438317,0.0,0.0
1855,463.5,62.7644,63.7584,155.493,116.554,109.863,-0.00880442,0.0647919,20.9871,395.4,0.529575,0.0,0.0
1860,464.75,62.6974,63.4198,157.419,116.536,110.665,-0.00883406,0.0643322,20.9876,395.38,0.46306,0.0,0.0
1865,466,62.0566,62.5163,156.378,116.555,110.471,-0.0088201,0.0638586,20.9879,395.38,0.480204,0.0,0.0
1870,467.25,61.66,61.7981,159.325,116.535,109.569,-0.00878302,0.0634491,20.9881,395.38,0.552101,0.0,0.0
1875,468.5,60.7298,60.746,159.326,116.537,110.228,-0.00877495,0.0631377,20.9882,395.38,0.498611,0.0,0.0
1880,469.75,60.2543,60.5365,156.418,116.529,110.778,-0.00879001,0.06278,20.9876,395.39,0.453354,0.0,0.0
1885,471,59.6461,59.502,159.791,116.528,110.131,-0.0088046,0.0623212,20.9871,395.41,0.50578,0.0,0.0
1890,472.25,58.664,59.0051,154.138,116.523,110.219,-0.00880662,0.0618818,20.9867,395.4,0.498203,0.0,0.0
1895,473.5,58.4849,58.026,157.548,116.513,110.646,-0.00878035,0.061627,20.9864,395.4,0.462786,0.0,0.0
1900,474.75,57.4638,57.5948,157.617,116.495,110.748,-0.00872037,0.0613421,20.9863,395.38,0.453142,0.0,0.0
1905,476,57.3214,57.1448,158.008,116.507,110.441,-0.00865866,0.0610935,20.9862,395.37,0.478954,0.0,0.0
1910,477.25,56.9046,56.1878,158.075,116.485,111.192,-0.00861548,0.0608445,20.9861,395.37,0.416512,0.0,0.0
1915,478.5,56.5886,55.9601,161.181,116.476,110.849,-0.00860218,0.0606293,20.9861,395.37,0.443583,0.0,0.0
1920,479.75,56.5175,55.0377,160.455,116.48,110.386,-0.00858342,0.0603763,20.9861,395.37,0.481353,0.0,0.0
1925,481,55.3802,54.2474,157.645,116.478,111.417,-0.00854378,0.0600769,20.9861,395.39,0.397847,0.0,0.0
1930,482.25,55.361,54.1324,154.026,116.465,111.02,-0.00850687,0.0598761,20.9861,395.37,0.428861,0.0,0.0
1935,483.5,54.6882,53.698,157.317,116.465,110.999,-0.00849331,0.0597209,20.9861,395.39,0.43054,0.0,0.0
1940,484.75,54.1218,52.7966,159.574,116.46,110.719,-0.00849639,0.0594881,20.9861,395.39,0.452785,0.0,0.0
1945,486,53.9734,52.1421,156.413,116.457,111.382,-0.00851035,0.0593045,20.9861,395.37,0.39908,0.0,0.0
1950,487.25,53.8099,51.9784,159.358,116.44,110.868,-0.0085248,0.0591383,20.9861,395.38,0.439299,0.0,0.0
1955,488.5,52.7906,51.2445,158.774,116.417,111.166,-0.00856706,0.058978,20.9861,395.38,0.413423,0.0,0.0
1960,489.75,52.336,50.8028,160.092,116.42,110.987,-0.00867617,0.0588078,20.9861,395.38,0.428108,0.0,0.0
1965,491,51.8253,50.265,161.382,116.401,110.957,-0.00876764,0.0586768,20.9853,395.38,0.42905,0.0,0.0
1970,492.25,51.588,49.7779,158.977,116.391,110.696,-0.00889529,0.0586516,20.9847,395.37,0.449333,0.0,0.0
1975,493.5,51.5136,49.1863,156.787,116.382,111.44,-0.00899711,0.0586435,20.9843,395.36,0.38864,0.0,0.0
1980,494.75,50.5907,48.7632,154.973,116.366,111.252,-0.00903883,0.0585648,20.9835,395.38,0.402511,0.0,0.0
1985,496,51.0004,48.891,156.143,116.344,111.423,-0.00900164,0.0585537,20.9827,395.38,0.387152,0.0,0.0
1990,497.25,50.0915,47.8079,158.355,116.31,110.479,-0.00889559,0.0585316,20.9822,395.39,0.460741,0.0,0.0
1995,498.5,49.5283,47.0852,159.987,116.325,111.63,-0.00878182,0.0585437,20.9819,395.39,0.369065,0.0,0.0
2000,499.75,49.9229,47.4526,159.211,116.31,110.624,-0.00867621,0.0585582,20.9817,395.38,0.448976,0.0,0.0
2005,501,49.0074,46.9796,160.488,116.293,112.318,-0.00857116,0.0585674,20.9819,395.38,0.311557,0.0,0.0
2010,502.25,48.9551,46.4802,161.801,116.287,110.934,,0.0585049,,395.37,0.422184,0.0,0.0
2015,503.5,48.7005,45.7571,160.036,116.265,111.225,,0.0583924,,395.36,0.39695,0.0,0.0
2020,504.75,48.2874,45.4617,154.96,116.265,111.176,,,,395.37,0.400899,0.0,0.0
2025,506,48.0546,45.0935,157.788,116.234,110.892,,,,395.38,0.421411,0.0,0.0
2030,507.25,48.0802,44.5841,159.971,116.221,110.905,,,,395.37,0.419424,0.0,0.0
2035,508.5,47.4674,44.9943,157.904,116.212,111.364,,,,395.38,0.381652,0.0,0.0
2040,509.75,47.3315,44.707,160.873,116.206,111.577,,,,395.38,0.364087,0.0,0.0
2045,511,47.2143,43.7561,157.875,116.17,110.948,,,,395.39,0.411958,0.0,0.0
2050,512.25,46.4,44.4486,157.196,116.177,111.764,,,,395.38,0.346851,0.0,0.0
2051,512.5,46.1893,43.8741,154.773,116.183,111.412,,,,395.38,0.375608,0.0,0.0