File: 01_Data/HDPE/Cone/HDPE_Cone_HF75Scan_220201_R2.csv
Names,Time,Stack TC,Smoke TC,Exh Press,Smoke Comp,Smoke Meas,CO Meter,CO2 Meter,O2 Meter,Sample Mass,Ext Coeff,Start Test,Flame Verif
Chan Gain,,500,500,1,1,1,1,1,1,1,1,1.0,1.0
Offset,,0,0,0.14021,0,0,0,0,0,0,0,0.0,0.0
Gain,,1,1,25.011,13.3046,13.3037,1,1,1,1.00087,1.10262,1.0,1.0
Units,sec,C,C,Pa,%,%,%,%,%,g,/m,,
Baseline,,49.8268,50.5053,131.281,97.5691,102.747,0.0062785,0.0949195,20.9341,-1.04404,-0.500149,,
3,0.5,35.4748,36.3625,131.37,98.5371,104.493,0.0066099,0.0986946,20.9329,929.461,-0.567629,0.0,0.0
6,1.25,35.5955,36.0484,133.992,98.5221,104.56,0.00659509,0.0986368,20.9332,929.271,-0.575339,0.0,0.0
9,2,35.4228,36.9095,137.085,98.507,104.217,0.00657553,0.098652,20.9333,929.281,-0.54499,0.0,0.0
12,2.75,35.6556,36.3355,134.41,98.5087,104.336,0.00655425,0.0987609,20.9334,929.411,-0.555865,0.0,0.0
15,3.5,35.3453,36.3728,133.694,98.4937,104.397,0.00653311,0.0989567,20.9329,929.391,-0.56302,0.0,0.0
18,4.25,36.0086,36.9914,133.403,98.4847,104.087,0.00650521,0.0991496,20.9325,929.331,-0.535118,0.0,0.0
21,5,35.9797,37.2058,133.566,98.4746,104.477,0.00647238,0.099376,20.9322,929.351,-0.572303,0.0,0.0
24,5.75,36.204,36.958,131.744,98.4738,104.178,0.00643259,0.0994439,20.932,929.441,-0.544679,0.0,0.0
27,6.5,35.965,37.8565,132.394,98.4595,104.314,0.00638559,0.0993847,20.9325,929.411,-0.558694,0.0,0.0
30,7.25,36.0472,37.5788,130.846,98.4429,103.896,0.00634207,0.0992378,20.9328,929.351,-0.521441,0.0,0.0
33,8,36.0792,37.9539,130.914,98.4348,104.462,0.0062945,0.0990328,20.9334,929.341,-0.574783,0.0,0.0
36,8.75,36.6755,38.2499,135.285,98.4149,104.252,0.00626517,0.0987282,20.9339,929.391,-0.557284,0.0,0.0
39,9.5,36.7944,38.5417,132.832,98.3999,104.089,0.00625891,0.0985062,20.9342,929.371,-0.543606,0.0,0.0
42,10.25,37.0869,38.4995,133.064,98.3759,103.77,0.0062802,0.0981879,20.9345,929.291,-0.516301,0.0,0.0
45,11,36.5355,37.9977,135.206,98.3556,104.266,0.00632246,0.0978772,20.9347,929.311,-0.56443,0.0,0.0
48,11.75,36.7993,38.4789,132.429,98.3556,104.195,0.00636327,0.0975162,20.935,929.331,-0.557837,0.0,0.0
51,12.5,36.9884,39.2003,131.347,98.3361,104.007,0.00639597,0.0970206,20.9357,929.331,-0.54225,0.0,0.0
54,13.25,36.8888,38.9351,131.265,98.3154,103.923,0.00641756,0.0965506,20.9362,929.311,-0.536544,0.0,0.0
57,14,37.632,39.092,131.836,98.3032,104.027,0.0064254,0.0961618,20.9365,929.321,-0.547336,0.0,0.0
60,14.75,37.4579,39.0804,132.182,98.2975,103.975,0.00641762,0.0958008,20.9368,929.351,-0.5431,0.0,0.0
63,15.5,37.0452,39.1669,134.592,98.2825,104.109,0.00638877,0.0954603,20.9369,929.321,-0.557034,0.0,0.0
66,16.25,37.4895,39.705,135.979,98.2626,103.685,0.00635525,0.0951763,20.9371,929.331,-0.519533,0.0,0.0
69,17,37.2562,39.1918,135.256,98.2513,103.806,0.00630945,0.0949082,20.9372,929.321,-0.53197,0.0,0.0
72,17.75,37.4538,39.7781,132.433,98.2443,103.56,0.00627481,0.0946178,20.9374,929.311,-0.50966,0.0,0.0
75,18.5,37.479,39.9492,132.76,98.2269,104.022,0.00623347,0.0943085,20.9381,929.281,-0.554435,0.0,0.0
78,19.25,37.2453,39.3746,126.635,98.2074,103.776,0.00620109,0.0939853,20.9385,929.281,-0.533487,0.0,0.0
81,20,37.9967,39.9803,132.981,98.2025,104.089,0.00619918,0.0936955,20.9388,929.301,-0.563022,0.0,0.0
84,20.75,37.7366,39.8307,137.756,98.1863,103.705,0.00623487,0.0935312,20.9387,929.371,-0.528868,0.0,0.0
87,21.5,37.9318,39.7769,133.215,98.1591,103.922,0.00631885,0.093322,20.9386,929.331,-0.551784,0.0,0.0
90,22.25,37.6767,40.5424,133.908,98.1522,103.431,0.00647918,0.0931695,20.9385,929.261,-0.506673,0.0,0.0
93,23,37.8228,40.3843,133.41,98.14,103.417,0.00675001,0.0929809,20.938,929.291,-0.506582,0.0,0.0
96,23.75,37.6972,40.1934,138.634,98.114,102.968,0.00705568,0.092922,20.9372,929.251,-0.467057,0.0,0.0
99,24.5,37.7083,40.699,128.404,98.1059,102.675,0.00737446,0.0930133,20.9363,929.261,-0.440321,0.0,0.0
102,25.25,37.8413,40.3461,130.579,98.0905,102.474,0.00769204,0.0933727,20.9331,929.271,-0.422854,0.0,0.0
105,26,38.2238,40.3706,130.884,98.0775,102.981,0.00800651,0.0941355,20.9286,929.241,-0.471918,0.0,0.0
108,26.75,38.1511,40.8299,131.848,98.0685,102.654,0.00824709,0.0959523,20.9244,929.241,-0.442016,0.0,0.0
111,27.5,38.2047,40.9233,131.537,98.0637,102.721,0.00844183,0.0988591,20.9177,929.341,-0.448806,0.0,0.0
114,28.25,38.3125,40.297,133.869,98.0482,102.805,0.00856582,0.10272,20.9104,929.301,-0.458237,0.0,0.0
117,29,37.9916,41.0633,131.481,98.0287,103.159,0.00862545,0.107361,20.9013,929.191,-0.493411,0.0,0.0
120,29.75,37.9023,41.1469,130.849,98.0198,103.349,0.00857878,0.114246,20.8907,929.121,-0.512052,0.0,1.0
123,30.5,39.2858,41.5764,127.746,98.0076,103.265,0.00850426,0.121243,20.8813,929.181,-0.505425,0.0,1.0
126,31.25,39.0249,42.223,131.333,97.9756,103.345,0.00838067,0.129726,20.8677,929.151,-0.516041,0.0,1.0
129,32,38.902,42.3678,127.144,97.9601,102.778,0.00823667,0.139924,20.8508,929.251,-0.464411,0.0,1.0
132,32.75,39.5232,43.3054,127.905,97.9402,102.829,0.00812414,0.151051,20.8321,929.181,-0.471151,0.0,1.0
135,33.5,39.7082,43.4269,127.246,97.9467,102.46,0.0080475,0.16255,20.8126,929.141,-0.435696,0.0,1.0
138,34.25,39.6945,43.8123,127.488,97.9163,101.807,0.00800636,0.175589,20.7866,929.081,-0.376841,0.0,1.0
141,35,40.2985,44.0728,122.46,97.9102,101.229,0.00801485,0.189436,20.7677,929.041,-0.322437,0.0,0.0
144,35.75,40.5871,44.5792,124.381,97.8915,98.8899,0.00808684,0.203562,20.7421,929.051,-0.0981425,0.0,0.0
147,36.5,40.9737,45.7461,122.498,97.8797,97.4847,0.00826906,0.221166,20.7143,929.071,0.0391126,0.0,0.0
150,37.25,41.5127,46.173,122.491,97.8696,93.0574,0.00847993,0.237785,20.6902,929,0.487667,0.0,0.0
153,38,42.0355,47.2649,119.116,97.8513,91.8718,0.0087671,0.256372,20.6572,928.99,0.60987,0.0,0.0
156,38.75,42.726,48.0567,123.042,97.8371,91.2125,0.00918329,0.278278,20.6166,928.951,0.678129,0.0,0.0
159,39.5,43.6153,49.6769,118.765,97.8298,89.7083,0.00965528,0.297811,20.5727,928.88,0.838243,0.0,0.0
162,40.25,43.8551,50.0757,122.047,97.8127,86.9443,0.00994691,0.321821,20.5415,928.84,1.13925,0.0,0.0
165,41,45.1727,51.919,121.578,97.8067,87.7043,0.01054,0.348984,20.488,928.77,1.05447,0.0,0.0
168,41.75,45.6533,52.7587,114.585,97.7778,84.8087,0.0109724,0.377981,20.4417,928.69,1.37633,0.0,0.0
171,42.5,46.7544,54.5766,107.759,97.7794,83.13,0.0116796,0.407801,20.4079,928.65,1.56987,0.0,0.0
174,43.25,47.0126,55.5746,113.092,97.7726,84.2335,0.0121951,0.433309,20.3567,928.57,1.44164,0.0,0.0
177,44,49.0668,58.39,108.415,97.7608,82.9757,0.0128505,0.462779,20.3108,928.46,1.58599,0.0,0.0
180,44.75,50.4813,60.3381,110.187,97.76,81.6294,0.0133955,0.498127,20.2629,928.45,1.74413,0.0,0.0
183,45.5,51.3214,62.3159,116.372,97.76,81.1938,0.0139738,0.529807,20.1995,928.32,1.79588,0.0,0.0
186,46.25,53.0495,64.4042,108.901,97.7332,81.0801,0.0145084,0.561681,20.1167,928.24,1.80678,0.0,0.0
189,47,53.6226,65.8747,104.829,97.7206,80.3899,0.015102,0.59993,20.0334,928.19,1.88822,0.0,0.0
192,47.75,55.2882,68.2038,111.745,97.708,78.9409,0.0156311,0.643198,19.9628,928.02,2.06291,0.0,0.0
195,48.5,56.9645,70.9725,107.205,97.6938,76.1842,0.0161816,0.684948,19.8847,927.96,2.4053,0.0,0.0
198,49.25,58.6414,73.0925,112.226,97.6885,74.3357,0.0167034,0.725584,19.8278,927.88,2.64235,0.0,0.0
201,50,59.8561,75.6341,118.265,97.6812,74.4985,0.0172899,0.765205,19.7591,927.779,2.62047,0.0,0.0
204,50.75,61.4557,78.2627,99.7453,97.6597,73.3934,0.0179451,0.809999,19.6903,927.629,2.76289,0.0,0.0
207,51.5,62.3236,80.182,97.5684,97.6548,76.0908,0.0185289,0.842654,19.6322,927.549,2.4133,0.0,0.0
210,52.25,64.8284,83.7399,94.8572,97.652,73.7096,0.019136,0.888829,19.5595,927.449,2.72053,0.0,0.0
213,53,66.4436,86.3227,104.556,97.643,71.7105,0.0198581,0.928992,19.4826,927.299,2.98559,0.0,0.0
216,53.75,67.867,89.1347,99.7277,97.6244,72.0475,0.0206275,0.975186,19.4065,927.239,2.9384,0.0,0.0
219,54.5,69.8818,92.3794,98.6927,97.6333,70.1479,0.0214412,1.01878,19.3343,927.149,3.19773,0.0,0.0
222,55.25,71.5133,94.6207,92.5277,97.6134,70.3744,0.0222898,1.06392,19.25,926.979,3.16457,0.0,0.0
225,56,73.3553,97.5826,93.5001,97.6032,68.981,0.0232436,1.10958,19.1767,926.919,3.35699,0.0,0.0
228,56.75,75.2223,100.919,100.915,97.5846,69.5717,0.0241897,1.15494,19.103,926.859,3.27266,0.0,0.0
231,57.5,76.6262,103.58,90.4577,97.585,69.1779,0.025064,1.2126,19.0205,926.638,3.32761,0.0,0.0
234,58.25,78.5977,107.313,100.43,97.5764,71.5327,0.0259061,1.26397,18.9341,926.478,3.00301,0.0,0.0
237,59,81.0298,110.283,93.8574,97.5675,70.454,0.0267383,1.31736,18.8468,926.278,3.14909,0.0,0.0
240,59.75,83.0704,114.181,90.5653,97.5545,71.402,0.027569,1.37057,18.7516,926.108,3.01853,0.0,0.0
243,60.5,85.0569,117.837,93.0971,97.5423,67.4529,0.0284993,1.4217,18.6721,925.958,3.56763,0.0,0.0
246,61.25,86.7812,120.604,87.6741,97.5415,65.213,0.02968,1.46965,18.597,925.848,3.89418,0.0,0.0
249,62,89.1833,124.153,93.2719,97.5387,65.5297,0.0306959,1.52487,18.5076,925.668,3.84704,0.0,0.0
252,62.75,91.5363,127.061,86.8245,97.5273,65.3794,0.032122,1.57543,18.4266,925.527,3.86811,0.0,0.0
255,63.5,93.1808,130.542,86.6429,97.5216,66.8073,0.0337535,1.62991,18.3406,925.367,3.65859,0.0,0.0
258,64.25,95.4877,134.189,76.6127,97.509,67.0059,0.0354552,1.70187,18.2341,925.157,3.62864,0.0,0.0
261,65,98.1161,138.487,85.1904,97.5054,64.198,0.0373774,1.77071,18.1377,924.947,4.04232,0.0,0.0
264,65.75,99.8231,142.212,78.2224,97.5021,64.4477,0.0390693,1.8489,18.0074,924.767,4.00445,0.0,0.0
267,66.5,103.119,146.822,84.7889,97.4847,62.4161,0.0414951,1.93787,17.8841,924.537,4.31252,0.0,0.0
270,67.25,105.229,150.217,87.052,97.4827,60.4645,0.0442372,2.0344,17.7458,924.366,4.61958,0.0,0.0
273,68,107.276,154.486,77.1973,97.4867,62.7092,0.0470317,2.13561,17.5601,924.166,4.26741,0.0,0.0
276,68.75,110.643,159.234,72.5742,97.4827,61.3848,0.0501564,2.24181,17.385,923.876,4.47346,0.0,0.0
279,69.5,113.23,164.862,85.6132,97.4684,59.3914,0.0524343,2.37468,17.1892,923.786,4.79136,0.0,0.0
282,70.25,116.168,170.149,59.2062,97.464,63.315,0.0550064,2.52958,16.9998,923.496,4.17217,0.0,0.0
285,71,119.575,175.939,74.5488,97.4644,59.8246,0.0574857,2.68266,16.782,923.316,4.72066,0.0,0.0
288,71.75,122.981,182.042,81.9342,97.4623,60.6796,0.059662,2.81136,16.537,923.005,4.5832,0.0,0.0
291,72.5,126.239,188.797,87.5153,97.4461,62.6057,0.0616178,2.95762,16.3243,922.705,4.27936,0.0,0.0
294,73.25,129.708,194.285,70.034,97.4404,61.3751,0.0633432,3.08659,16.111,922.365,4.4708,0.0,0.0
297,74,133.036,200.461,65.3475,97.4477,62.872,0.0648443,3.23376,15.8656,922.125,4.23846,0.0,0.0
300,74.75,136.293,206.971,73.2573,97.4538,59.7174,0.0663215,3.35605,15.6467,921.954,4.73696,0.0,0.0
303,75.5,139.926,213.105,58.4574,97.4404,60.6459,0.0676718,3.47084,15.4399,921.544,4.5864,0.0,0.0
306,76.25,142.165,218.854,69.6287,97.4258,63.2025,0.0687727,3.59309,15.2375,921.394,4.18558,0.0,0.0
309,77,145.247,224.675,77.1569,97.4315,60.028,0.0701583,3.71667,15.0348,920.984,4.68457,0.0,0.0
312,77.75,148.087,229.612,62.5318,97.4327,65.1383,0.0714946,3.85466,14.8387,920.723,3.89447,0.0,0.0
315,78.5,151.524,236.01,67.8083,97.4343,60.7645,0.0726078,3.98452,14.6536,920.433,4.56691,0.0,0.0
318,79.25,155.27,242.818,70.2187,97.4165,61.3719,0.0739241,4.11972,14.443,920.233,4.46894,0.0,0.0
321,80,158.187,247.718,61.2876,97.4323,61.4173,0.0751906,4.23557,14.2549,919.823,4.46335,0.0,0.0
324,80.75,161.581,253.632,66.0551,97.4323,65.5885,0.0759297,4.37728,14.1174,919.482,3.8278,0.0,0.0
327,81.5,164.926,259.969,58.5788,97.4449,61.41,0.0770254,4.51647,13.9054,919.392,4.46575,0.0,0.0
330,82.25,168.051,266.331,73.223,97.4213,58.3407,0.0779015,4.63323,13.6906,918.922,4.95933,0.0,0.0
333,83,170.969,271.538,59.5451,97.4169,67.07,0.0785732,4.79414,13.4694,918.621,3.61023,0.0,0.0
336,83.75,174.666,278.262,43.1744,97.423,69.8507,0.0789752,4.91978,13.2693,918.221,3.21793,0.0,0.0
339,84.5,178.684,286.739,64.4873,97.425,64.2869,0.0791967,5.08325,13.0569,917.981,4.02095,0.0,0.0
342,85.25,182.973,293.29,56.1844,97.4088,64.5995,0.0792994,5.23375,12.8376,917.651,3.97242,0.0,0.0
345,86,186.37,300.033,70.1638,97.4128,58.2627,0.079438,5.37001,12.6265,917.42,4.97141,0.0,0.0
348,86.75,188.98,305.031,56.7538,97.425,64.4038,0.0795836,5.51473,12.3962,916.88,4.00338,0.0,0.0
351,87.5,192.885,312.24,80.2917,97.4242,65.7944,0.0796491,5.6757,12.1353,916.49,3.79669,0.0,0.0
354,88.25,195.398,317.162,84.2256,97.4157,67.3591,0.0795951,5.85911,11.9105,916.179,3.56852,0.0,0.0
357,89,199.369,324.43,51.9963,97.4148,62.4693,0.0792216,6.01089,11.6876,915.709,4.29735,0.0,0.0
360,89.75,202.049,329.488,50.5331,97.427,66.0461,0.0783781,6.20327,11.4147,915.379,3.76004,0.0,0.0
363,90.5,205.526,335.792,59.8252,97.4205,71.447,0.0777632,6.40997,11.1126,915.068,2.99913,0.0,0.0
366,91.25,208.962,343.825,53.0343,97.4213,72.8741,0.0762417,6.58898,10.8485,914.578,2.80793,0.0,0.0
369,92,212.54,352.205,51.0407,97.4132,73.1648,0.0744197,6.84601,10.518,914.408,2.76862,0.0,0.0
372,92.75,217.42,361.376,55.0463,97.4282,76.7116,0.0726548,7.08732,10.1424,913.957,2.31225,0.0,0.0
375,93.5,220.586,369.263,36.5934,97.427,76.2654,0.0711381,7.38195,9.73908,913.527,2.36855,0.0,0.0
378,94.25,225.891,378.368,51.6269,97.4311,77.7042,0.0701219,7.59673,9.34263,912.956,2.18817,0.0,0.0
381,95,228.827,385.745,49.579,97.4205,74.4823,0.0694611,7.84729,8.96573,912.706,2.59673,0.0,0.0
384,95.75,232.252,392.24,44.2048,97.4425,79.7127,0.0696919,8.10372,8.60312,912.156,1.94248,0.0,0.0
387,96.5,236.466,400.041,41.4974,97.4372,78.3875,0.070814,8.32796,8.25264,911.725,2.1041,0.0,0.0
390,97.25,239.98,406.04,47.5945,97.4368,84.3118,0.0716321,8.55522,7.91143,911.075,1.39938,0.0,0.0
393,98,243.144,412.605,41.6684,97.4254,81.3062,0.0732306,8.78818,7.62614,910.685,1.74934,0.0,0.0
396,98.75,247.655,421.683,39.7045,97.4319,77.1582,0.0752562,8.97729,7.33811,910.274,2.25647,0.0,0.0
399,99.5,251.349,428.143,48.1883,97.4473,76.6864,0.0769175,9.14813,7.11422,909.984,2.31732,0.0,0.0
402,100.25,254.278,433.251,59.3619,97.4433,75.7136,0.078348,9.31628,6.94507,909.303,2.44039,0.0,0.0
405,101,256.5,438.534,57.8079,97.4433,70.1369,0.0793462,9.4353,6.82175,909.043,3.1804,0.0,0.0
408,101.75,259.443,443.749,49.5767,97.4429,72.6098,0.0799976,9.51599,6.73186,908.533,2.84521,0.0,0.0
411,102.5,262.048,448.487,42.179,97.4595,80.0907,0.0802952,9.53004,6.66633,907.972,1.89842,0.0,0.0
414,103.25,264.566,449.243,75.7303,97.4603,69.4106,0.0804655,9.51121,6.69687,907.742,3.28277,0.0,0.0
417,104,266.564,450.434,55.9294,97.4567,71.3504,0.0805896,9.44775,6.79832,907.292,3.01581,0.0,0.0
420,104.75,267.558,451.267,69.3463,97.4668,65.5089,0.0807904,9.33452,6.95059,906.881,3.84297,0.0,0.0
423,105.5,268.646,448.174,39.9633,97.477,66.8755,0.0809839,9.20801,7.13034,906.671,3.64429,0.0,0.0
426,106.25,270.577,448.672,40.8456,97.4786,74.9824,0.0812137,9.09704,7.34151,906.121,2.53776,0.0,0.0
429,107,270.71,449.448,33.7319,97.49,68.0009,0.0813664,8.9559,7.58239,905.84,3.48416,0.0,0.0
432,107.75,271.333,449.88,68.9723,97.4887,65.7704,0.0813897,8.82732,7.82129,905.52,3.80662,0.0,0.0
435,108.5,272.534,450.953,64.3804,97.5078,61.1607,0.0812974,8.68228,8.03069,905.05,4.51133,0.0,0.0
438,109.25,272.542,450.495,44.1208,97.518,68.6213,0.0811077,8.55707,8.20913,904.769,3.3991,0.0,0.0
441,110,274.181,451.228,57.0461,97.5192,67.8877,0.0808233,8.44982,8.35761,904.429,3.50319,0.0,0.0
444,110.75,274.175,449.296,64.8949,97.5253,64.47,0.0805537,8.35852,8.46586,904.109,4.0034,0.0,0.0
447,111.5,275.244,450.86,79.2506,97.5423,64.5467,0.0803572,8.26666,8.56783,903.618,3.99358,0.0,0.0
450,112.25,275.746,449.732,41.7592,97.5647,68.9762,0.0799527,8.17468,8.67068,903.168,3.35385,0.0,0.0
453,113,275.883,450.269,46.9236,97.5622,65.3068,0.0796082,8.09697,8.77762,902.908,3.88233,0.0,0.0
456,113.75,276.612,450.056,71.3652,97.5728,61.3581,0.0792694,8.01363,8.91268,902.547,4.48662,0.0,0.0
459,114.5,277.604,451.133,55.012,97.5939,68.1199,0.0789941,7.95289,9.01462,902.297,3.47756,0.0,0.0
462,115.25,277.866,450.141,55.9127,97.6191,63.712,0.0787699,7.8945,9.06776,901.817,4.12708,0.0,0.0
465,116,277.251,448.858,40.4044,97.6369,71.1941,0.0784956,7.84087,9.16888,901.356,3.0549,0.0,0.0
468,116.75,278.228,448.931,53.9587,97.6337,73.5192,0.078324,7.79312,9.25652,901.116,2.74374,0.0,0.0
471,117.5,279.017,449.702,43.2194,97.665,65.9624,0.0782587,7.74147,9.32635,900.716,3.79589,0.0,0.0
474,118.25,279.459,448.976,61.2243,97.6978,69.2405,0.0783523,7.69349,9.44304,900.406,3.33005,0.0,0.0
477,119,280.862,449.486,49.3867,97.7177,66.8508,0.0786619,7.61681,9.56315,900.005,3.67173,0.0,0.0
480,119.75,281.603,449.001,40.1052,97.7287,61.5184,0.0792134,7.49297,9.71063,899.705,4.47682,0.0,0.0
483,120.5,281.169,447.54,53.9556,97.7531,61.501,0.0797033,7.35073,9.96896,899.485,4.48197,0.0,0.0
486,121.25,281.818,446.357,60.9579,97.779,56.2048,0.0800978,7.15817,10.3718,899.245,5.35553,0.0,0.0
489,122,281.163,443.593,64.5712,97.7929,55.1126,0.0798343,6.88842,10.8639,899.204,5.54669,0.0,0.0
492,122.75,279.517,438.226,69.0723,97.8339,55.6161,0.0787893,6.57668,11.4055,898.784,5.46279,0.0,0.0
495,123.5,277.63,432.904,63.3439,97.8473,57.113,0.0762921,6.24692,12.0971,898.584,5.20723,0.0,0.0
498,124.25,275.737,427.227,75.6517,97.8761,56.9546,0.0738869,5.81249,12.7338,898.454,5.23693,0.0,0.0
501,125,272.847,419.191,74.274,97.9118,57.9043,0.070647,5.34737,13.4247,898.304,5.08053,0.0,0.0
504,125.75,270.174,411.335,83.8157,97.9329,63.4786,0.065743,4.87737,14.2226,898.254,4.19364,0.0,0.0
507,126.5,265.896,402.223,88.9464,97.9752,68.4053,0.0596191,4.41904,15.0048,898.234,3.47483,0.0,0.0
510,127.25,261.293,391.592,98.2294,98.0231,74.3251,0.0536329,3.942,15.7591,898.234,2.67679,0.0,0.0
513,128,256.362,380.97,102.886,98.0555,84.192,0.047999,3.53331,16.4774,898.234,1.47436,0.0,0.0
516,128.75,250.455,368.883,108.69,98.0953,92.5145,0.0428298,3.08064,17.1866,898.204,0.566534,0.0,0.0
519,129.5,244.464,356.738,107.165,98.1311,95.0329,0.037752,2.6492,17.7893,898.184,0.310288,0.0,0.0
522,130.25,238.616,345.735,109.939,98.1713,96.5132,0.0332759,2.27401,18.2989,898.204,0.164754,0.0,0.0
525,131,233.126,335.229,113.996,98.2017,97.384,0.0296826,1.92735,18.728,898.224,0.0808728,0.0,0.0
528,131.75,227.046,324.88,109.999,98.2326,97.3788,0.0263736,1.63775,19.0873,898.254,0.084435,0.0,0.0
531,132.5,221.939,314.663,112.205,98.2744,97.6609,0.0234531,1.39669,19.3691,898.264,0.0605664,0.0,0.0
534,133.25,216.793,304.997,111.117,98.3065,97.9744,0.0209574,1.19666,19.5746,898.184,0.0327314,0.0,0.0
537,134,211.586,296.384,111.34,98.3398,98.0694,0.0191381,1.02524,19.7703,898.214,0.0266323,0.0,0.0
540,134.75,207.112,287.946,114.07,98.3633,98.1916,0.0172074,0.889366,19.9487,898.194,0.0169021,0.0,0.0
543,135.5,202.671,280.178,112.38,98.4124,98.2724,0.0156063,0.771326,20.0914,898.214,0.0137778,0.0,0.0
546,136.25,198.688,272.257,112.108,98.4595,98.3613,0.0142841,0.677181,20.217,898.214,0.00965851,0.0,0.0
549,137,194.797,265.427,115.874,98.501,98.5022,0.0131961,0.593249,20.3321,898.204,-0.000117607,0.0,0.0
552,137.75,190.593,258.484,112.585,98.5322,98.4794,0.0122846,0.521643,20.4227,898.234,0.00518483,0.0,0.0
555,138.5,187.511,252.267,111.026,98.5675,98.6995,0.0115697,0.462775,20.5,898.234,-0.0129361,0.0,0.0
558,139.25,184.521,245.999,114.336,98.6179,98.6982,0.0108875,0.413493,20.5634,898.234,-0.00787823,0.0,0.0
561,140,181.41,240.229,112.958,98.6585,98.574,0.0103529,0.37226,20.6125,898.234,0.0082854,0.0,0.0
564,140.75,178.294,235.163,116.193,98.693,98.7214,0.00986411,0.33777,20.6558,898.244,-0.00278087,0.0,0.0
567,141.5,174.334,228.384,113.108,98.721,98.762,0.00944756,0.308255,20.6936,898.254,-0.00401214,0.0,0.0
570,142.25,172.629,224.132,110.268,98.7592,98.7746,0.00908083,0.284875,20.7234,898.204,-0.00150709,0.0,0.0
573,143,169.192,219.054,114.062,98.8108,98.8367,0.00876341,0.262982,20.749,898.214,-0.00253867,0.0,0.0
576,143.75,167.481,215.119,112.885,98.8262,98.9012,0.00849234,0.244606,20.7721,898.224,-0.00734397,0.0,0.0
579,144.5,164.249,209.167,112.845,98.8611,99.004,0.00824988,0.229097,20.791,898.244,-0.0139666,0.0,0.0
582,145.25,162.569,205.771,114.358,98.9025,99.0823,0.00807312,0.21594,20.8058,898.214,-0.0175681,0.0,0.0
585,146,160.089,201.445,113.549,98.9297,99.0421,0.00788869,0.204137,20.8187,898.224,-0.0109834,0.0,0.0
588,146.75,158.149,197.427,114.939,98.9626,99.0352,0.00771657,0.193802,20.83,898.234,-0.00709473,0.0,0.0
591,147.5,155.99,194.309,112.041,98.9748,99.0673,0.00757504,0.184923,20.8398,898.174,-0.00903628,0.0,0.0
594,148.25,153.292,189.988,115.598,99.017,98.887,0.0074307,0.176289,20.8488,898.194,0.0127047,0.0,0.0
597,149,152.569,187.627,113.669,99.032,98.9808,0.00730292,0.169994,20.8565,898.214,0.0050039,0.0,0.0
600,149.75,150.109,183.544,113.954,99.0584,98.8229,0.00719553,0.163194,20.8641,898.214,0.0230258,0.0,0.0
603,150.5,148.628,180.853,117.167,99.082,99.0466,0.00710934,0.15729,20.8714,898.194,0.00345494,0.0,0.0
606,151.25,146.506,177.581,113.216,99.1059,99.0007,0.00704652,0.152159,20.8773,898.264,0.0102747,0.0,0.0
609,152,144.068,173.822,116.267,99.1335,99.1347,0.00700071,0.147694,20.8817,898.274,-0.000111842,0.0,0.0
612,152.75,143.22,171.602,113.678,99.1441,99.226,0.00697805,0.143636,20.8858,898.224,-0.00799132,0.0,0.0
615,153.5,142.502,168.993,113.374,99.1445,98.9504,0.00696548,0.139631,20.8891,898.234,0.0189576,0.0,0.0
618,154.25,140.739,166.716,114.254,99.1616,99.0032,0.00696309,0.13641,20.8928,898.234,0.0154633,0.0,0.0
621,155,139.686,164.389,115.463,99.19,99.263,0.00694705,0.133236,20.8964,898.244,-0.00711608,0.0,0.0
624,155.75,138.109,161.3,115.789,99.1896,99.0697,0.00691155,0.130568,20.8993,898.274,0.0116936,0.0,0.0
627,156.5,136.489,159.325,114.967,99.1993,99.2374,0.00687552,0.127854,20.9017,898.214,-0.00371339,0.0,0.0
630,157.25,135.598,157.232,114.395,99.2156,99.1822,0.00684926,0.125308,20.9039,898.274,0.00325323,0.0,0.0
633,158,134.709,155.129,116.329,99.2277,98.9772,0.0067944,0.123044,20.9058,898.174,0.0244554,0.0,0.0
636,158.75,133.269,152.696,113.271,99.2521,99.1481,0.00675816,0.120806,20.9078,898.144,0.0101411,0.0,0.0
639,159.5,132.096,151.159,113.064,99.246,99.2411,0.00673334,0.119175,20.9101,898.174,0.000483097,0.0,0.0
642,160.25,131.202,149.548,116.429,99.2464,99.0023,0.00670633,0.117068,20.9126,898.244,0.0238159,0.0,0.0
645,161,129.996,147.572,117.559,99.2553,99.1046,0.00668202,0.115352,20.9148,898.204,0.0146966,0.0,0.0
648,161.75,128.708,146.133,115.466,99.2635,98.939,0.00666407,0.113793,20.9159,898.184,0.0316673,0.0,0.0
651,162.5,127.55,144.154,115.718,99.2602,99.1193,0.00663419,0.112356,20.9182,898.174,0.0137456,0.0,0.0
654,163.25,126.576,142.189,115.629,99.2558,98.9634,0.00662908,0.11118,20.9191,898.214,0.0285339,0.0,0.0
657,164,126.203,141.137,118.378,99.2562,99.0425,0.00662318,0.109836,20.9202,898.224,0.02084,0.0,0.0
660,164.75,125.007,139.555,114.925,99.2643,98.7713,0.00664744,0.109048,20.9214,898.204,0.0481528,0.0,0.0
663,165.5,124.46,138.253,115.26,99.2375,98.9122,0.00668642,0.107637,20.9227,898.244,0.0317546,0.0,0.0
666,166.25,122.842,136.519,117.278,99.2277,98.8732,0.00672391,0.106999,20.924,898.224,0.0346169,0.0,0.0
669,167,122.719,135.278,116.24,99.2188,99.0344,0.00677254,0.106044,20.925,898.194,0.017992,0.0,0.0
672,167.75,121.615,133.636,111.039,99.2204,99.0628,0.00682235,0.105184,20.9257,898.154,0.0153758,0.0,0.0
675,168.5,120.637,132.396,117.939,99.1949,99.0661,0.00686769,0.104434,20.9269,898.234,0.0125642,0.0,0.0
678,169.25,120.452,130.979,114.366,99.1762,98.909,0.00690431,0.103764,20.9277,898.254,0.0260953,0.0,0.0
681,170,119.36,129.671,118.7,99.1555,98.8631,0.00693227,0.103224,20.9285,898.194,0.0285627,0.0,0.0
684,170.75,118.728,128.515,116.772,99.1611,98.6361,0.00695516,0.102578,20.9295,898.224,0.0513463,0.0,0.0
687,171.5,118.244,127.975,115.889,99.1169,98.7587,0.00696924,0.10193,20.93,898.254,0.0350133,0.0,0.0
690,172.25,117.032,126.457,117.089,99.0881,98.3458,0.00697422,0.101382,20.9306,898.204,0.0727227,0.0,0.0
693,173,116.637,125.22,115.682,99.0718,98.6877,0.00697303,0.100847,20.931,898.204,0.0375748,0.0,0.0
696,173.75,115.933,124.089,117.148,99.045,98.6479,0.00694085,0.100348,20.9318,898.234,0.0388588,0.0,0.0
699,174.5,115.318,123.398,115.776,99.0284,98.4193,0.00689085,0.10006,20.9325,898.204,0.0596704,0.0,0.0
702,175.25,114.187,122.624,115.27,99.0044,98.3799,0.00683186,0.0996698,20.9331,898.234,0.0612012,0.0,0.0
705,176,114.478,121.519,121.731,98.9849,98.4559,0.006771,0.0992628,20.9339,898.204,0.051836,0.0,0.0
708,176.75,113.59,121.019,118.489,98.9764,98.3824,0.00672039,0.0989139,20.9347,898.164,0.0582241,0.0,0.0
711,177.5,112.926,119.731,115.922,98.9569,98.2005,0.00667884,0.0985101,20.9352,898.184,0.0742182,0.0,0.0
714,178.25,111.862,118.699,118.297,98.9358,98.1047,0.00664518,0.0981306,20.9357,898.254,0.0815955,0.0,0.0
717,179,112.237,118.125,120.63,98.9147,98.3398,0.00662064,0.0978029,20.936,898.304,0.0563833,0.0,0.0
720,179.75,111.305,117.416,119.527,98.8968,98.3856,0.00660275,0.0975395,20.9366,898.274,0.0501248,0.0,0.0
723,180.5,109.633,115.63,119.235,98.8936,98.5781,0.00658971,0.09727,20.9373,898.274,0.0309076,0.0,0.0
726,181.25,110.402,115.71,118.913,98.8997,98.0572,0.00656771,0.0970307,20.9364,898.254,0.0827467,0.0,0.0
729,182,109.881,114.566,116.056,98.9951,98.4015,0.00654417,0.0967828,20.9351,898.254,0.0581725,0.0,0.0
732,182.75,109.427,114.58,117.745,99.0601,98.4214,0.00652184,0.0966022,20.9341,898.214,0.0625634,0.0,0.0
735,183.5,109.349,113.572,116.637,99.138,98.6759,0.00650219,0.096393,20.9341,898.214,0.0451878,0.0,0.0
738,184.25,107.959,111.976,116.868,99.1944,98.1652,0.00649321,0.0962405,20.9343,898.174,0.100885,0.0,0.0
741,185,108.21,112.177,119.344,99.2594,98.2553,0.00649258,0.0960131,20.9348,898.204,0.0983409,0.0,0.0
744,185.75,107.896,111.623,116.17,99.3167,98.766,0.00649937,0.095793,20.935,898.214,0.0537717,0.0,0.0
747,186.5,107.332,111.065,113.686,99.3792,98.4855,0.00650971,0.0955809,20.9354,898.204,0.0873721,0.0,0.0
750,187.25,106.909,110.219,117.757,99.4287,98.8517,0.00651831,0.0953773,20.9356,898.204,0.0562928,0.0,0.0
753,188,105.564,109.204,116.048,99.4697,99.0113,0.00651745,0.0951516,20.9357,898.184,0.0446817,0.0,0.0
756,188.75,105.236,108.265,118.132,99.5034,98.5671,0.00650958,0.095029,20.9359,898.154,0.0914447,0.0,0.0
759,189.5,105.415,108.713,119.805,99.5388,98.8586,0.00649146,0.0948782,20.9372,898.164,0.0663155,0.0,0.0
762,190.25,105.098,107.79,118.055,99.5639,98.8525,0.00645826,0.0947819,20.9382,898.194,0.0693576,0.0,0.0
765,191,104.647,107.794,119.364,99.5716,98.775,0.00640678,0.0947175,20.9389,898.194,0.0776971,0.0,0.0
768,191.75,104.269,107.172,118.845,99.5932,98.8639,0.00636127,0.0946318,20.9394,898.214,0.0710849,0.0,0.0
771,192.5,103.084,105.976,118.971,99.6086,98.9731,0.00630138,0.0945836,20.9404,898.234,0.0619035,0.0,0.0
774,193.25,103.664,105.527,117.255,99.6167,99.0742,0.00624525,0.0945729,20.9411,898.224,0.0528177,0.0,0.0
777,194,103.167,105.53,117.724,99.6025,98.8887,0.00620434,0.0945651,20.9416,898.244,0.0695694,0.0,0.0
780,194.75,102.458,104.565,121.294,99.5956,98.5606,0.00617807,0.0945458,20.942,898.244,0.101036,0.0,0.0
783,195.5,102.558,104.513,117.252,99.5984,98.8343,0.00616615,0.0945403,20.9423,898.254,0.0744974,0.0,0.0
786,196.25,101.956,103.835,119.618,99.5879,98.9565,0.00616982,0.0945607,20.9431,898.264,0.0615197,0.0,0.0
789,197,101.627,103.279,117.36,99.5586,98.6378,0.00619031,0.0946027,20.9437,898.244,0.089881,0.0,0.0
792,197.75,101.38,102.779,117.427,99.5351,99.0291,0.00621149,0.0946449,20.9442,898.234,0.049292,0.0,0.0
795,198.5,101.308,102.268,118.316,99.512,98.9301,0.00623354,0.0946621,20.9445,898.244,0.0567226,0.0,0.0
798,199.25,100.776,101.87,119.256,99.4827,98.8988,0.00625636,0.0946474,20.9447,898.244,0.056937,0.0,0.0
801,200,100.148,101.574,118.861,99.4466,98.7579,0.00629299,0.0945786,20.9451,898.234,0.0672121,0.0,0.0
804,200.75,100.314,101.16,118.462,99.4048,98.6601,0.00632822,0.0944919,20.9458,898.254,0.0727307,0.0,0.0
807,201.5,99.2921,100.47,116.62,99.3658,98.5038,0.00639493,0.094448,20.9467,898.244,0.0842727,0.0,0.0
810,202.25,99.8077,99.9806,122.722,99.3349,98.5151,0.00645983,0.0944302,20.9476,898.214,0.0801525,0.0,0.0
813,203,98.73,99.7624,118.844,99.2647,98.3694,0.00651407,0.0944417,20.9482,898.224,0.0876314,0.0,0.0
816,203.75,98.5869,99.3859,119.328,99.2152,98.5354,0.00655098,0.0944366,20.9476,898.244,0.0664907,0.0,0.0
819,204.5,98.5692,99.1273,116.935,99.1429,98.3637,0.00657339,0.0944056,20.9451,898.224,0.0763142,0.0,0.0
822,205.25,98.2266,98.7035,117.711,99.0897,98.3564,0.00652728,0.0943464,20.9434,898.184,0.0718426,0.0,0.0
825,206,98.0002,98.043,117.81,99.0056,98.41,0.00642997,0.0943032,20.9421,898.144,0.0583674,0.0,0.0
828,206.75,97.5342,97.3734,120.812,98.9163,98.2841,0.00630956,0.094233,20.9412,898.174,0.0620146,0.0,0.0
831,207.5,97.3249,97.4562,118.849,98.8798,97.8513,0.00618362,0.0941683,20.9405,898.144,0.101125,0.0,0.0
834,208.25,96.5618,96.5485,119.996,98.9029,98.2809,0.00606564,0.0941224,20.94,898.174,0.0610236,0.0,0.0
837,209,97.1959,96.392,120.048,98.9171,97.8436,0.00596847,0.0941012,20.9396,898.224,0.10554,0.0,0.0
840,209.75,96.1167,96.245,119.827,98.9431,98.507,0.00589764,0.0940084,20.9393,898.184,0.0427246,0.0,0.0
843,210.5,96.083,96.021,119.043,98.9378,97.9342,0.00584351,0.0939407,20.9391,898.214,0.0986193,0.0,0.0
846,211.25,95.5827,95.6771,121.393,98.9797,99.1294,0.00579644,0.0938913,20.939,898.194,-0.0146219,0.0,0.0
849,212,95.3246,95.4764,118.063,99.004,98.1891,0.00575091,0.0938825,20.9395,898.204,0.0799398,0.0,0.0
852,212.75,94.6493,95.0502,119.351,99.0414,98.397,0.00569997,0.0938876,20.9399,898.214,0.0631338,0.0,0.0
855,213.5,94.3737,94.5314,120.608,99.0527,99.2808,0.00567524,0.093872,20.9401,898.234,-0.022248,0.0,0.0
858,214.25,94.6551,94.4355,122.313,99.0666,98.3921,0.00564112,0.0938219,20.9404,898.194,0.0660705,0.0,0.0
861,215,94.5173,93.6863,117.423,99.1189,99.0612,0.00566113,0.0937583,20.9405,898.164,0.00563425,0.0,0.0
864,215.75,94.1414,93.7377,120.281,99.1185,98.4327,0.0057059,0.0936932,20.9406,898.144,0.0671537,0.0,0.0
867,216.5,93.6403,92.8344,120.8,99.1591,99.1026,0.00577556,0.0936513,20.9407,898.124,0.00551325,0.0,0.0
870,217.25,93.6681,93.1334,121.08,99.1944,98.7348,0.00587501,0.09359,20.9407,898.184,0.0449238,0.0,0.0
873,218,93.5317,92.564,122.85,99.2212,98.3609,0.00597681,0.0935678,20.9408,898.214,0.0842362,0.0,0.0
876,218.75,93.2818,92.6706,118.869,99.2371,99.2748,0.00606564,0.0935614,20.9408,898.194,-0.00367186,0.0,0.0
879,219.5,93.2504,92.5067,118.216,99.259,98.6179,0.00612327,0.0935425,20.9408,898.274,0.0626779,0.0,0.0
882,220.25,92.557,92.1182,118.993,99.3057,99.1168,0.00616002,0.0935043,20.9409,898.264,0.0184121,0.0,0.0
885,221,92.5153,91.5289,120.941,99.3301,98.6552,0.00617782,0.0934629,20.9409,898.254,0.0659365,0.0,0.0
888,221.75,92.2941,91.1739,121.307,99.3508,99.7887,0.00619704,0.093427,20.9409,898.244,-0.0425459,0.0,0.0
891,222.5,91.7851,90.9874,121.286,99.367,98.6313,0.0062124,0.0934007,20.9409,898.204,0.0718827,0.0,0.0
894,223.25,91.8238,91.0937,119.965,99.3954,98.5472,0.00622135,0.0934203,20.9409,898.224,0.082893,0.0,0.0
897,224,91.6298,90.7423,119.79,99.4295,99.0673,0.00621413,0.0934703,20.9413,898.194,0.0353016,0.0,0.0
900,224.75,91.4714,90.4163,121.062,99.449,98.8351,0.00619513,0.0935678,20.9418,898.174,0.0598961,0.0,0.0
903,225.5,90.8812,89.9528,119.144,99.4612,99.8655,0.0061678,0.0936388,20.9422,898.244,-0.0392349,0.0,0.0
906,226.25,90.5285,90.2637,120.442,99.4705,98.8939,0.00614065,0.0937049,20.9425,898.134,0.0562297,0.0,0.0
909,227,90.7001,89.6041,122.863,99.5022,99.224,0.00610851,0.0937775,20.9422,898.164,0.0270807,0.0,0.0
912,227.75,90.4478,89.2798,120.512,99.5213,99.2252,0.00608382,0.0938304,20.9418,898.214,0.0288167,0.0,0.0
915,228.5,90.4635,88.8911,125.379,99.5282,98.8233,0.0060653,0.093869,20.9415,898.204,0.0687463,0.0,0.0
918,229.25,89.8232,88.9113,123.278,99.5388,99.4863,0.00606178,0.0938836,20.9412,898.194,0.0051007,0.0,0.0
921,230,89.5008,88.3258,119.591,99.5696,99.2646,0.00606346,0.093867,20.9411,898.184,0.0296731,0.0,0.0
924,230.75,89.5275,88.6996,123.256,99.5725,99.8801,0.00607181,0.0938183,20.9409,898.164,-0.0298367,0.0,0.0
927,231.5,89.0745,88.1658,120.792,99.5696,99.1704,0.00607915,0.0937149,20.9409,898.204,0.0388554,0.0,0.0
930,232.25,88.672,87.8399,119.471,99.5802,99.1964,0.00608503,0.0936107,20.9408,898.064,0.0373463,0.0,0.0
933,233,89.188,87.6516,121.1,99.5863,99.4351,0.006088,0.0935347,20.9407,898.054,0.0146897,0.0,0.0
936,233.75,88.4923,87.3192,121.358,99.5952,99.1595,0.00608792,0.0934578,20.9407,898.164,0.042409,0.0,0.0
939,234.5,88.2492,86.9425,117.623,99.5814,99.9633,0.00609499,0.0933652,20.9407,898.164,-0.0370263,0.0,0.0
942,235.25,88.2448,86.65,126.838,99.5907,99.5204,0.00610013,0.0933364,20.9407,898.194,0.00683375,0.0,0.0
945,236,87.8451,86.9455,120.17,99.594,99.4225,0.00612526,0.0932747,20.9411,898.164,0.0166627,0.0,0.0
948,236.75,88.0884,86.4247,123.934,99.594,99.1107,0.00615356,0.0931767,20.9416,898.204,0.0470433,0.0,0.0
951,237.5,87.1714,86.2868,123.089,99.5733,98.5939,0.00617845,0.0930442,20.9419,898.194,0.0956024,0.0,0.0
954,238.25,86.8534,85.9747,120.602,99.5586,99.5236,0.00620194,0.0928896,20.9418,898.204,0.00340192,0.0,0.0
957,239,87.2697,85.9678,124.227,99.5603,99.3292,0.00621282,0.0927698,20.9415,898.174,0.0224782,0.0,0.0
960,239.75,86.9147,85.7378,120.649,99.5582,99.7352,0.00621809,0.0926702,20.9412,898.224,-0.0171725,0.0,0.0
963,240.5,86.611,85.5502,119.606,99.5424,99.2135,0.00620591,0.0925434,20.9415,898.194,0.0320155,0.0,0.0
966,241.25,86.72,85.3037,117.032,99.5156,99.4347,,0.0924136,,898.094,0.00786491,0.0,0.0
969,242,85.5794,84.5863,124.35,99.4973,99.3458,,0.0922945,,898.134,0.0147415,0.0,0.0
972,242.75,85.3195,84.3353,124.368,99.5002,100.015,,0.0921942,,898.134,-0.0499037,0.0,0.0
975,243.5,86.0923,84.619,118.549,99.4738,99.4972,,0.0921153,,898.154,-0.00228034,0.0,0.0
978,244.25,85.4118,84.1237,118.692,99.4401,99.3385,,,,898.044,0.00988542,0.0,0.0
981,245,85.5086,84.4261,125.788,99.4149,99.2139,,,,898.124,0.0195812,0.0,0.0
984,245.75,85.3693,84.2487,122.333,99.4076,99.5492,,,,898.144,-0.0137674,0.0,0.0
987,246.5,84.452,83.0187,121.859,99.3853,99.6836,,,,898.124,-0.0289884,0.0,0.0
990,247.25,84.4127,82.846,125.018,99.3309,100.022,,,,898.164,-0.0670827,0.0,0.0
993,248,85.115,83.5701,120.646,99.3167,99.3564,,,,898.224,-0.00386564,0.0,0.0
996,248.75,84.3552,82.5918,120.751,99.296,98.9792,,,,898.114,0.0309041,0.0,0.0
999,249.5,84.4787,82.7374,119.407,99.2765,99.3381,,,,898.184,-0.00600325,0.0,0.0
1002,250.25,83.506,82.1333,117.484,99.2225,99.727,,,,898.174,-0.0490612,0.0,0.0
1005,251,84.4369,82.7059,123.146,99.1969,99.511,,,,898.154,-0.0305839,0.0,0.0
1008,251.75,83.9769,82.5645,121.947,99.1583,98.8472,,,,898.174,0.0303892,0.0,0.0