File: 01_Data/HDPE/Cone/HDPE_Cone_HF50Scan_220131_R3.csv
Names,Time,Stack TC,Smoke TC,Exh Press,Smoke Comp,Smoke Meas,CO Meter,CO2 Meter,O2 Meter,Sample Mass,Ext Coeff,Start Test,Flame Verif
Chan Gain,,500,500,1,1,1,1,1,1,1,1,1.0,1.0
Offset,,0,0,0.14021,0,0,0,0,0,0,0,0.0,0.0
Gain,,1,1,25.011,13.3046,13.3037,1,1,1,1.00087,1.10262,1.0,1.0
Units,sec,C,C,Pa,%,%,%,%,%,g,/m,,
Baseline,,38.4536,38.1444,157.465,98.4969,104.127,0.00563438,0.0793074,20.9601,-0.235705,-0.537611,,
3,0.5,32.6576,32.869,156.177,95.6393,102.589,0.00600116,0.0831381,20.9559,931.603,-0.678458,0.0,0.0
6,1.25,32.6328,32.5128,160.687,95.0502,102.014,0.00599598,0.0830621,20.9559,931.543,-0.683869,0.0,0.0
9,2,32.2765,32.1325,156.649,95.414,102.471,0.00595308,0.0829527,20.9559,941.111,-0.69013,0.0,0.0
12,2.75,32.9781,32.446,159.818,95.2564,102.316,0.00590797,0.08285,20.9558,915.038,-0.6915,0.0,0.0
15,3.5,32.9171,32.5318,160.44,94.5759,102.557,0.00585144,0.0827558,20.9558,910.955,-0.783615,0.0,0.0
18,4.25,32.3148,32.7495,159.891,95.0059,102.768,0.00579424,0.0826467,20.9557,966.213,-0.759593,0.0,0.0
21,5,32.3107,32.4127,158.324,94.6819,101.729,0.00575844,0.0825498,20.9555,999.162,-0.694318,0.0,0.0
24,5.75,32.3509,32.9431,161.985,94.9182,102.476,0.00574243,0.0824215,20.9553,1116.81,-0.741013,0.0,0.0
27,6.5,32.2154,31.9021,164.627,95.0132,102.102,0.00573076,0.0823271,20.9552,1129.9,-0.695942,0.0,0.0
30,7.25,33.1342,32.4118,155.308,94.9872,102.159,0.00578091,0.0822579,20.9548,990.174,-0.704047,0.0,0.0
33,8,32.3109,33.0558,158.108,95.6791,101.724,0.00582666,0.0821305,20.9545,961.179,-0.592559,0.0,0.0
36,8.75,32.6679,32.3022,159.46,95.1846,102.267,0.00587572,0.0820376,20.9542,992.035,-0.694194,0.0,0.0
39,9.5,32.6065,32.8014,159.06,94.9393,101.851,0.00591861,0.0819699,20.9541,977.573,-0.67967,0.0,0.0
42,10.25,33.0721,32.8608,158.048,94.8979,102.844,0.00594488,0.0819205,20.9539,938.279,-0.777738,0.0,0.0
45,11,32.58,33.2978,156.498,94.5678,102.163,0.00595403,0.0818076,20.9539,930.612,-0.747157,0.0,0.0
48,11.75,32.4194,33.079,156.699,94.4379,102.735,0.00594723,0.0816982,20.9544,930.652,-0.8145,0.0,0.0
51,12.5,32.6499,32.6694,158.486,94.8959,102.147,0.00591859,0.0815858,20.9548,930.682,-0.712161,0.0,0.0
54,13.25,32.9793,33.255,159.04,98.1997,103.421,0.00588761,0.0814673,20.9551,930.642,-0.501081,0.0,0.0
57,14,33.2594,33.2954,157.195,98.3361,103.887,0.00584725,0.0812849,20.9553,930.652,-0.531144,0.0,0.0
60,14.75,32.5204,32.9386,159.935,98.3369,104.009,0.00581784,0.0811518,20.9555,930.622,-0.542398,0.0,0.0
63,15.5,32.4661,33.3789,158.294,98.328,104.061,0.00580172,0.0810548,20.9556,931.132,-0.548107,0.0,0.0
66,16.25,32.2375,33.4573,159.819,98.3191,103.452,0.00579496,0.0810611,20.9557,938.339,-0.492254,0.0,0.0
69,17,33.0967,33.8322,159.046,98.3247,104.111,0.00579084,0.0810656,20.9558,930.672,-0.553067,0.0,0.0
72,17.75,32.7195,33.3879,157.143,98.3211,103.57,0.0057856,0.0811074,20.9558,946.696,-0.503056,0.0,0.0
75,18.5,32.8704,33.3289,156.36,98.3195,103.811,0.00576756,0.0811095,20.9558,940.781,-0.525673,0.0,0.0
78,19.25,33.0413,33.4069,163.275,98.3223,103.931,0.00573946,0.0810624,20.9559,930.592,-0.536546,0.0,0.0
81,20,32.883,33.5123,160.619,98.3158,103.696,0.00570344,0.0810146,20.9559,930.672,-0.515321,0.0,0.0
84,20.75,32.7371,33.6571,159.965,98.3089,103.812,0.00566149,0.0809741,20.9559,930.592,-0.526787,0.0,0.0
87,21.5,33.1157,33.7674,157.34,98.3146,104.112,0.00562239,0.0809445,20.9559,930.672,-0.554179,0.0,0.0
90,22.25,32.9303,33.8262,158.19,98.3162,104.245,0.00557934,0.0809614,20.9559,936.417,-0.566307,0.0,0.0
93,23,33.0891,34.1226,159.977,98.3227,103.62,0.00554972,0.0809737,20.9559,892.649,-0.507521,0.0,0.0
96,23.75,33.0453,34.1673,157.87,98.3101,103.384,0.00554555,0.081004,20.9559,935.136,-0.486716,0.0,0.0
99,24.5,32.882,33.4364,160.532,98.3077,104.168,0.00554994,0.0810625,20.9559,929.251,-0.560062,0.0,0.0
102,25.25,32.5806,33.9232,156.167,98.3113,104.21,0.00557638,0.0810916,20.9559,930.662,-0.563584,0.0,0.0
105,26,32.9821,33.9783,156.723,98.3134,103.946,0.00560189,0.0811071,20.956,930.622,-0.53886,0.0,0.0
108,26.75,32.9281,33.5559,158.06,98.3113,103.736,0.00562182,0.0811569,20.9562,930.592,-0.51951,0.0,0.0
111,27.5,32.9177,34.1236,158.377,98.3057,103.532,0.00563411,0.081221,20.9564,930.512,-0.50101,0.0,0.0
114,28.25,32.3082,33.6795,160.097,98.3146,103.254,0.00564307,0.0812726,20.9565,930.542,-0.474115,0.0,0.0
117,29,32.6631,33.5097,157.807,98.3243,104.027,0.00562119,0.081298,20.9566,930.642,-0.545297,0.0,0.0
120,29.75,32.7428,33.7031,157.635,98.302,103.703,0.00560524,0.081432,20.956,930.642,-0.517286,0.0,0.0
123,30.5,33.3493,34.4139,161.106,98.3126,103.871,0.00554393,0.0815296,20.9554,930.622,-0.531986,0.0,0.0
126,31.25,33.2148,33.6042,162.48,98.3101,103.589,0.00548058,0.0816778,20.9549,930.642,-0.505879,0.0,0.0
129,32,32.5996,33.7909,158.412,98.3186,103.821,0.00542907,0.0817858,20.9546,930.642,-0.526698,0.0,0.0
132,32.75,32.9791,33.9842,154.378,98.2992,103.703,0.00539599,0.081932,20.9543,930.632,-0.517565,0.0,0.0
135,33.5,33.2777,33.6567,158.017,98.3044,103.993,0.0054322,0.0820461,20.9541,930.652,-0.54412,0.0,0.0
138,34.25,33.1323,34.341,155.184,98.3053,103.763,0.00551837,0.0820928,20.954,930.602,-0.522568,0.0,0.0
141,35,32.6917,33.8543,160.663,98.3146,103.638,0.00560668,0.0821846,20.9539,930.562,-0.510025,0.0,0.0
144,35.75,32.8162,33.5099,159.694,98.3118,103.72,0.00570323,0.0823729,20.9538,930.562,-0.517955,0.0,0.0
147,36.5,32.7312,33.7696,160.678,98.3243,103.286,0.00582862,0.0825621,20.9538,930.562,-0.47616,0.0,0.0
150,37.25,32.4191,33.799,156.658,98.3186,103.699,0.00591826,0.0827769,20.9537,930.572,-0.515345,0.0,0.0
153,38,32.5043,33.3285,160.845,98.3288,103.531,0.00597966,0.0829194,20.9537,930.562,-0.498618,0.0,0.0
156,38.75,32.842,33.7273,154.809,98.3203,102.709,0.00601834,0.0829989,20.9537,930.572,-0.422383,0.0,0.0
159,39.5,33.2319,34.2594,157.042,98.3174,103.487,0.00604766,0.0830029,20.9537,930.592,-0.495677,0.0,0.0
162,40.25,32.1553,33.537,159.202,98.3191,102.984,0.00608027,0.0829402,20.9536,930.622,-0.448313,0.0,0.0
165,41,32.8048,34.0765,158.362,98.3337,102.763,0.00612132,0.0828215,20.9536,930.602,-0.426149,0.0,0.0
168,41.75,32.4287,34.2058,154.044,98.33,102.905,0.0061726,0.0826541,20.9536,930.592,-0.439834,0.0,0.0
171,42.5,32.4515,33.8704,155.973,98.3158,103.139,0.00626751,0.0824763,20.9536,930.582,-0.463226,0.0,0.0
174,43.25,33.1912,33.6076,158.489,98.3162,102.716,0.00636121,0.0823102,20.9536,930.612,-0.423394,0.0,0.0
177,44,32.9239,34.0475,157.842,98.3463,102.454,0.00650811,0.0821121,20.9536,930.602,-0.395749,0.0,0.0
180,44.75,32.8978,34.1187,162.929,98.3272,102.39,0.00668419,0.0819251,20.9534,930.622,-0.391606,0.0,0.0
183,45.5,32.388,33.1551,164.166,98.3296,102.381,0.00688488,0.081716,20.9528,930.612,-0.390523,0.0,0.0
186,46.25,33.0089,34.6369,161.554,98.3422,101.485,0.00710461,0.0814692,20.9524,930.592,-0.304263,0.0,0.0
189,47,33.1179,34.2547,158.685,98.3426,101.296,0.00738874,0.0812277,20.952,930.582,-0.286214,0.0,0.0
192,47.75,33.2013,34.0476,156.251,98.3459,101.509,0.00765303,0.0810152,20.9515,930.602,-0.306185,0.0,0.0
195,48.5,32.5885,34.1508,158.811,98.3381,101.508,0.00794344,0.0808999,20.9506,930.562,-0.306829,0.0,0.0
198,49.25,33.0927,34.2191,156.007,98.3471,100.567,0.00823183,0.0808398,20.95,930.562,-0.215859,0.0,0.0
201,50,32.9215,33.8024,157.718,98.3605,99.965,0.00857319,0.0808082,20.9495,930.592,-0.1565,0.0,0.0
204,50.75,33.0769,34.3812,157.085,98.356,99.546,0.00886733,0.0809582,20.9482,930.572,-0.116316,0.0,0.0
207,51.5,32.9009,34.1277,157.761,98.3613,100.723,0.0090462,0.0810676,20.947,930.482,-0.229445,0.0,0.0
210,52.25,32.8684,34.0426,157.049,98.3479,100.772,0.00916144,0.0830742,20.943,930.532,-0.235479,0.0,0.0
213,53,33.0486,34.6511,156.18,98.3597,103.196,0.00912506,0.0866399,20.9367,930.512,-0.46428,0.0,1.0
216,53.75,33.4087,34.3851,155.313,98.3617,103.018,0.00900398,0.0910832,20.9285,930.502,-0.447322,0.0,1.0
219,54.5,33.2849,34.6775,153.185,98.3532,103.526,0.00884177,0.0959423,20.9182,930.442,-0.495805,0.0,1.0
222,55.25,33.7472,34.7382,159.556,98.356,103.51,0.00861918,0.0994845,20.9091,930.342,-0.493971,0.0,1.0
225,56,33.3737,35.1695,157.155,98.3617,103.845,0.0084569,0.106,20.8997,930.432,-0.524659,0.0,1.0
228,56.75,32.8275,34.8995,147.961,98.3678,103.196,0.00821311,0.113192,20.8893,930.462,-0.463443,0.0,1.0
231,57.5,33.5121,36.016,154.244,98.369,103.55,0.00801092,0.120113,20.8803,930.392,-0.496448,0.0,1.0
234,58.25,33.6286,35.9363,156.068,98.3714,103.656,0.00782168,0.125874,20.8696,930.382,-0.506139,0.0,1.0
237,59,34.0312,36.5908,154.841,98.3588,103.192,0.0076398,0.132462,20.8601,930.382,-0.463941,0.0,0.0
240,59.75,34.738,37.0449,157.33,98.3731,103.392,0.00746737,0.138283,20.8505,930.362,-0.481324,0.0,0.0
243,60.5,34.9627,36.8423,153.558,98.3682,103.7,0.00730556,0.145955,20.8372,930.332,-0.510511,0.0,0.0
246,61.25,34.4159,37.355,154.363,98.3593,103.664,0.00716438,0.153871,20.8228,930.312,-0.508019,0.0,0.0
249,62,34.9525,37.7649,146.468,98.3702,102.431,0.00709815,0.160632,20.8076,930.292,-0.391208,0.0,0.0
252,62.75,35.0722,38.2673,151.613,98.3796,102.218,0.00702925,0.169656,20.7969,930.312,-0.370181,0.0,0.0
255,63.5,36.0181,39.5804,149.851,98.3767,102.392,0.00701036,0.17779,20.7814,930.272,-0.386926,0.0,0.0
258,64.25,36.4651,39.6982,146.633,98.3877,100.452,0.00702909,0.187898,20.7651,930.312,-0.20081,0.0,0.0
261,65,36.6664,40.3971,149.626,98.3678,99.9378,0.00707549,0.197862,20.7463,930.232,-0.15315,0.0,0.0
264,65.75,37.002,41.0826,146.693,98.3873,98.8119,0.00717917,0.204776,20.7293,930.242,-0.0416571,0.0,0.0
267,66.5,37.701,42.1557,156.399,98.3816,97.6573,0.00729778,0.215102,20.7115,930.232,0.0714718,0.0,0.0
270,67.25,37.6474,42.1342,149.057,98.3751,97.4502,0.00745785,0.227603,20.6879,930.131,0.0913625,0.0,0.0
273,68,38.0343,42.9876,145.913,98.3735,96.0609,0.00769861,0.238352,20.6645,930.091,0.230087,0.0,0.0
276,68.75,39.1418,43.4427,146.876,98.3832,95.3951,0.00797398,0.248984,20.6449,930.071,0.298319,0.0,0.0
279,69.5,39.2149,44.5936,148.979,98.3792,93.7731,0.00821728,0.260414,20.6206,930.031,0.463784,0.0,0.0
282,70.25,39.6234,45.3082,148.528,98.3751,92.1154,0.00847941,0.272236,20.5997,929.981,0.635893,0.0,0.0
285,71,40.1197,45.7055,145.568,98.371,91.2397,0.008863,0.284141,20.579,929.941,0.727885,0.0,0.0
288,71.75,40.1376,46.4348,144.288,98.3808,89.0538,0.00922393,0.297648,20.5577,929.931,0.963384,0.0,0.0
291,72.5,41.7606,47.6377,139.593,98.3885,88.44,0.00958015,0.310268,20.535,929.841,1.03104,0.0,0.0
294,73.25,41.9479,48.4911,146.154,98.3804,89.7213,0.00991988,0.324213,20.5106,929.811,0.891123,0.0,0.0
297,74,42.8966,49.6258,138.308,98.3694,87.1692,0.0102366,0.339066,20.479,929.751,1.16915,0.0,0.0
300,74.75,43.6983,51.2164,140.248,98.382,86.926,0.0105697,0.354,20.456,929.681,1.19741,0.0,0.0
303,75.5,43.7056,51.431,146.324,98.3856,85.8688,0.0108125,0.368492,20.4274,929.611,1.31613,0.0,0.0
306,76.25,44.4574,52.6727,139.291,98.3828,85.7665,0.0111654,0.384591,20.4037,929.591,1.32738,0.0,0.0
309,77,45.2806,54.0959,139.017,98.3601,87.1034,0.0114226,0.399956,20.3814,929.501,1.17553,0.0,0.0
312,77.75,46.4752,55.2364,146.572,98.3836,84.9858,0.0118269,0.412704,20.359,929.431,1.41591,0.0,0.0
315,78.5,47.3101,56.1644,139.854,98.3755,86.0474,0.0122289,0.427724,20.336,929.361,1.29503,0.0,0.0
318,79.25,47.7401,57.3346,139.817,98.3787,86.8079,0.0125677,0.441115,20.3121,929.321,1.21025,0.0,0.0
321,80,48.5208,59.0959,130.394,98.3698,84.881,0.0130032,0.45653,20.2833,929.281,1.42648,0.0,0.0
324,80.75,49.6535,59.88,129.969,98.3792,82.564,0.0134313,0.472765,20.2521,929.121,1.69509,0.0,0.0
327,81.5,50.2042,61.6699,132.742,98.3877,83.1149,0.013833,0.489025,20.2204,929.101,1.6316,0.0,0.0
330,82.25,50.2297,62.1898,135.228,98.3889,82.2136,0.0141986,0.505239,20.1854,929.041,1.73718,0.0,0.0
333,83,52.1546,63.7372,136.363,98.3771,81.253,0.0145377,0.521928,20.1502,928.961,1.84969,0.0,0.0
336,83.75,52.9081,65.277,130.958,98.3666,80.0919,0.0147849,0.539241,20.1205,928.89,1.98787,0.0,0.0
339,84.5,54.1435,66.7003,136.82,98.3873,81.5843,0.0150136,0.557788,20.0895,928.86,1.81134,0.0,0.0
342,85.25,54.9656,67.9248,126.725,98.3905,80.275,0.0152027,0.57562,20.0625,928.75,1.96814,0.0,0.0
345,86,55.1904,69.1085,135.154,98.3893,78.9584,0.0153584,0.590458,20.0353,928.71,2.12797,0.0,0.0
348,86.75,56.0368,70.7046,132.104,98.3779,79.3055,0.0155026,0.609783,20.0037,928.58,2.08443,0.0,0.0
351,87.5,57.39,71.6743,127.165,98.3751,77.9633,0.0156837,0.627136,19.9675,928.47,2.24925,0.0,0.0
354,88.25,58.0628,73.2464,125.191,98.3877,78.785,0.0158999,0.645372,19.9355,928.42,2.14907,0.0,0.0
357,89,59.1411,75.0631,123.876,98.3808,78.5,0.0161462,0.66653,19.8985,928.32,2.18345,0.0,0.0
360,89.75,60.0237,76.5274,124.855,98.3844,78.1813,0.0165004,0.685137,19.8671,928.21,2.22316,0.0,0.0
363,90.5,61.3018,78.0432,120.606,98.3828,77.7168,0.0167586,0.704146,19.8368,928.1,2.28063,0.0,0.0
366,91.25,62.4218,80.1723,132.848,98.3824,78.5954,0.0172108,0.725255,19.8046,928.03,2.17186,0.0,0.0
369,92,63.3999,81.4589,118.866,98.3861,76.8614,0.0176213,0.745527,19.7724,927.93,2.388,0.0,0.0
372,92.75,64.0781,83.0424,128.395,98.3848,75.0588,0.017983,0.762387,19.7415,927.849,2.61742,0.0,0.0
375,93.5,65.2534,84.6319,131.034,98.369,74.8075,0.0182944,0.78178,19.7047,927.719,2.6483,0.0,0.0
378,94.25,66.0865,86.2926,125.544,98.3775,76.8305,0.0185689,0.798944,19.6642,927.639,2.39104,0.0,0.0
381,95,67.3774,88.0422,125.544,98.3942,72.7361,0.018783,0.820938,19.6216,927.469,2.92237,0.0,0.0
384,95.75,68.0805,89.432,117.929,98.3848,72.8741,0.018982,0.846474,19.5779,927.369,2.90311,0.0,0.0
387,96.5,69.0814,90.9067,123.527,98.3755,75.7664,0.0191594,0.869018,19.5292,927.259,2.52574,0.0,0.0
390,97.25,70.993,93.3824,117.049,98.397,75.6974,0.0192887,0.892169,19.4937,927.159,2.53667,0.0,0.0
393,98,71.6086,94.9471,115.037,98.3861,73.2111,0.0195561,0.918999,19.4679,927.099,2.85861,0.0,0.0
396,98.75,73.1009,96.6275,123.413,98.3865,74.3519,0.0197511,0.945282,19.4322,927.059,2.70909,0.0,0.0
399,99.5,74.7828,99.0049,124.03,98.3905,73.0268,0.0201664,0.971934,19.3951,926.799,2.88343,0.0,0.0
402,100.25,75.8915,101.135,119.298,98.3743,74.1688,0.0205412,0.999273,19.3635,926.769,2.73175,0.0,0.0
405,101,77.3129,102.799,115.028,98.3759,71.8636,0.020938,1.0192,19.3223,926.648,3.03729,0.0,0.0
408,101.75,78.3981,105.318,111.672,98.3925,73.2825,0.021381,1.0475,19.2699,926.568,2.84982,0.0,0.0
411,102.5,79.6787,107.374,124.356,98.369,71.3983,0.0218095,1.07399,19.2167,926.428,3.09944,0.0,0.0
414,103.25,80.9498,109.416,126.369,98.3828,73.9963,0.0222274,1.10237,19.1685,926.238,2.75511,0.0,0.0
417,104,82.5119,111.768,114.291,98.3747,73.3633,0.0226358,1.13046,19.1152,926.098,2.8374,0.0,0.0
420,104.75,83.4739,113.441,102.621,98.3775,71.3626,0.0230143,1.15773,19.0702,925.998,3.10512,0.0,0.0
423,105.5,84.8645,115.562,121.341,98.3613,72.0735,0.0234286,1.1838,19.0267,925.918,3.00765,0.0,0.0
426,106.25,86.5257,117.971,114.267,98.3653,68.629,0.0238667,1.2112,18.9858,925.748,3.4817,0.0,0.0
429,107,87.2099,119.326,102.919,98.3731,69.5843,0.0242914,1.23118,18.9412,925.557,3.34875,0.0,0.0
432,107.75,88.9633,121.606,113.606,98.3637,70.8705,0.0245399,1.25751,18.9151,925.507,3.17069,0.0,0.0
435,108.5,89.5122,123.071,107.404,98.3519,72.0881,0.0250422,1.28446,18.8705,925.327,3.00477,0.0,0.0
438,109.25,91.4773,125.477,98.6171,98.3564,70.1491,0.02555,1.31096,18.8256,925.147,3.26893,0.0,0.0
441,110,92.6473,127.074,105.152,98.354,71.2124,0.0260584,1.33634,18.7823,924.997,3.12319,0.0,0.0
444,110.75,93.6941,129.475,111.789,98.3568,70.2355,0.026562,1.35636,18.7344,924.907,3.25706,0.0,0.0
447,111.5,95.0618,131.713,100.535,98.3434,67.9128,0.0269291,1.38531,18.6996,924.697,3.581,0.0,0.0
450,112.25,96.8857,133.9,96.106,98.3572,70.8462,0.0275468,1.41637,18.654,924.517,3.17337,0.0,0.0
453,113,98.3894,136.47,108.041,98.358,68.3103,0.0282063,1.44821,18.6035,924.386,3.526,0.0,0.0
456,113.75,99.3152,138.49,97.7798,98.367,71.3029,0.0287762,1.47534,18.5517,924.206,3.11217,0.0,0.0
459,114.5,101.024,141.043,102.72,98.3446,69.573,0.0295195,1.51158,18.4971,924.096,3.34754,0.0,0.0
462,115.25,102.906,143.835,94.184,98.3414,70.0338,0.0303587,1.54369,18.4354,923.926,3.28337,0.0,0.0
465,116,104.409,146.112,98.7095,98.3426,70.6996,0.0311488,1.57681,18.3744,923.726,3.19196,0.0,0.0
468,116.75,105.876,148.702,99.2003,98.3385,69.1333,0.0318979,1.61214,18.3185,923.656,3.40826,0.0,0.0
471,117.5,108.046,151.532,108.361,98.3385,71.4129,0.0326102,1.64294,18.2553,923.356,3.09447,0.0,0.0
474,118.25,108.299,152.702,87.8237,98.3398,69.6075,0.0333108,1.67402,18.2093,923.185,3.34226,0.0,0.0
477,119,110.689,155.981,99.9796,98.3316,70.093,0.0341316,1.70788,18.1643,923.125,3.27422,0.0,0.0
480,119.75,112.089,158.889,96.0563,98.3316,67.975,0.0350207,1.74211,18.1096,922.855,3.571,0.0,0.0
483,120.5,113.294,160.426,96.6311,98.3256,67.912,0.0356863,1.7789,18.0765,922.645,3.57936,0.0,0.0
486,121.25,114.479,162.466,90.9981,98.3243,67.9685,0.0366148,1.81902,18.0384,922.495,3.57121,0.0,0.0
489,122,116.979,166.534,115.526,98.3203,68.4415,0.0372917,1.85607,17.9762,922.415,3.50374,0.0,0.0
492,122.75,119.111,169.972,102.662,98.3085,67.6084,0.0385326,1.89646,17.9071,922.245,3.62103,0.0,0.0
495,123.5,120.622,172.367,115.437,98.3134,68.1552,0.0391569,1.92545,17.8398,921.994,3.54359,0.0,0.0
498,124.25,122.082,175.018,105.778,98.313,69.6002,0.039975,1.95895,17.7794,921.874,3.34064,0.0,0.0
501,125,124.144,178.222,99.043,98.2915,68.3623,0.040737,1.99255,17.7066,921.614,3.51209,0.0,0.0
504,125.75,125.655,180.531,91.4446,98.3113,66.9584,0.0414577,2.05,17.6536,921.494,3.71475,0.0,0.0
507,126.5,126.88,182.81,90.5402,98.3036,65.5167,0.0422655,2.0795,17.5731,921.254,3.92452,0.0,0.0
510,127.25,128.449,185.333,91.1676,98.2967,65.0051,0.0432411,2.13192,17.4925,920.974,3.99966,0.0,0.0
513,128,130.314,188.2,85.4674,98.2906,68.4995,0.0442387,2.17988,17.4106,920.773,3.49262,0.0,0.0
516,128.75,132.264,191.298,90.1226,98.2923,65.7607,0.0452166,2.23152,17.3272,920.593,3.88745,0.0,0.0
519,129.5,134.053,194.476,84.3202,98.2793,64.9024,0.0461493,2.2889,17.2288,920.333,4.01323,0.0,0.0
522,130.25,136.18,198.287,83.2768,98.2748,66.4809,0.0471403,2.34862,17.1256,920.143,3.78037,0.0,0.0
525,131,137.916,200.981,84.2966,98.2582,64.4404,0.0481279,2.40838,17.024,919.953,4.08026,0.0,0.0
528,131.75,139.66,204.084,89.87,98.274,65.8508,0.0490745,2.46822,16.9149,919.742,3.8724,0.0,0.0
531,132.5,141.67,207.736,80.9458,98.2622,68.5965,0.0500222,2.51879,16.8354,919.482,3.47613,0.0,0.0
534,133.25,143.799,211.613,81.1679,98.2626,69.3777,0.0511536,2.57633,16.7531,919.192,3.36665,0.0,0.0
537,134,145.738,214.919,86.5917,98.2488,67.2015,0.0525813,2.63965,16.6655,918.862,3.67353,0.0,0.0
540,134.75,147.599,217.576,71.0942,98.2578,67.1009,0.0541167,2.69778,16.5724,918.792,3.68892,0.0,0.0
543,135.5,149.464,220.81,92.6918,98.2354,67.9084,0.0556997,2.76065,16.4745,918.551,3.57101,0.0,0.0
546,136.25,151.822,224.673,79.9268,98.2281,65.1066,0.0572864,2.82742,16.352,918.251,3.97781,0.0,0.0
549,137,153.952,228.106,77.8438,98.2192,65.1675,0.059106,2.89442,16.233,918.011,3.96789,0.0,0.0
552,137.75,155.869,232.042,74.1129,98.2167,65.9028,0.0610277,2.95934,16.1089,917.791,3.85914,0.0,0.0
555,138.5,158.852,235.996,71.8743,98.2038,62.7173,0.0624287,3.02909,16.0081,917.46,4.33704,0.0,0.0
558,139.25,159.75,239.481,97.9073,98.1977,65.5999,0.063684,3.09234,15.9496,917.29,3.90181,0.0,0.0
561,140,162.147,243.396,90.7928,98.1822,64.6243,0.0652879,3.15072,15.8732,916.95,4.04521,0.0,0.0
564,140.75,164.157,246.504,73.0726,98.1713,63.8241,0.0667198,3.2052,15.785,916.77,4.16465,0.0,0.0
567,141.5,165.59,248.376,82.5242,98.1757,69.3383,0.0679658,3.26632,15.6914,916.51,3.36359,0.0,0.0
570,142.25,167.479,252.485,71.3453,98.1607,63.4481,0.0690575,3.30395,15.6107,916.289,4.22075,0.0,0.0
573,143,169.867,256.213,78.1117,98.1485,67.6441,0.0700197,3.38787,15.4775,915.989,3.60017,0.0,0.0
576,143.75,171.524,259.38,94.2993,98.1388,64.1972,0.0709148,3.46356,15.3804,915.579,4.10507,0.0,0.0
579,144.5,174.308,264.193,80.7802,98.125,64.2382,0.07165,3.54355,15.2637,915.268,4.09753,0.0,0.0
582,145.25,176.602,267.912,90.6508,98.1384,64.6422,0.0724495,3.64103,15.1396,915.118,4.03822,0.0,0.0
585,146,177.763,271.326,83.4516,98.1002,65.902,0.0731447,3.72147,15.0161,914.728,3.84777,0.0,0.0
588,146.75,180.175,275.372,83.3043,98.0962,62.6723,0.0737525,3.79612,14.9138,914.468,4.33339,0.0,0.0
591,147.5,182.934,279.876,76.9806,98.0819,63.4112,0.0742343,3.85054,14.8184,914.238,4.21862,0.0,0.0
594,148.25,184.658,282.272,64.0278,98.0669,69.1239,0.074578,3.93355,14.6919,913.997,3.38281,0.0,0.0
597,149,186.557,286.197,72.9963,98.0531,64.1834,0.0747492,4.01753,14.5621,913.537,4.0987,0.0,0.0
600,149.75,189.193,290.201,86.4307,98.0446,63.699,0.0748049,4.08874,14.429,913.347,4.17113,0.0,0.0
603,150.5,191.127,293.757,101.731,98.0381,63.9483,0.0748162,4.17862,14.2937,913.007,4.13271,0.0,0.0
606,151.25,193.579,297.642,65.0117,98.0149,66.6096,0.0747117,4.26258,14.1307,912.616,3.73606,0.0,0.0
609,152,195.867,301.83,74.6159,98.0052,68.1581,0.0745634,4.35531,13.9526,912.396,3.51282,0.0,0.0
612,152.75,198.155,305.537,58.1193,97.9861,73.3422,0.0744245,4.47677,13.7684,912.066,2.80191,0.0,0.0
615,153.5,200.43,311.032,70.6881,97.9877,68.3757,0.074196,4.60736,13.6141,911.635,3.48027,0.0,0.0
618,154.25,204.352,317.65,78.2667,97.9817,67.1922,0.0739752,4.72265,13.4672,911.445,3.64854,0.0,0.0
621,155,206.189,320.173,77.4179,97.9496,72.4243,0.0735903,4.84106,13.3011,910.965,2.92012,0.0,0.0
624,155.75,209.174,326.462,62.8722,97.9289,68.3331,0.0733936,4.94716,13.1985,910.905,3.48049,0.0,0.0
627,156.5,211.791,332.627,68.2602,97.9248,68.2563,0.0729291,5.05835,13.0162,910.464,3.49095,0.0,0.0
630,157.25,214.59,336.755,76.7188,97.9061,70.7386,0.0724673,5.1676,12.8452,910.094,3.14361,0.0,0.0
633,158,217.253,341.808,91.7698,97.8883,69.4573,0.0721237,5.25927,12.7043,909.804,3.31865,0.0,0.0
636,158.75,220.153,347.411,51.5513,97.8773,71.9233,0.0718613,5.33072,12.5435,909.323,2.98012,0.0,0.0
639,159.5,222.57,351.333,67.0954,97.8643,71.0447,0.0716676,5.42831,12.389,908.913,3.09771,0.0,0.0
642,160.25,224.768,355.312,85.9674,97.8436,66.1545,0.071489,5.52517,12.2605,908.753,3.78545,0.0,0.0
645,161,227.335,359.437,86.6009,97.8253,70.7499,0.0712946,5.63626,12.1,908.393,3.13407,0.0,0.0
648,161.75,229.428,363.586,72.0178,97.7989,68.5373,0.0710042,5.74424,11.9414,908.002,3.43878,0.0,0.0
651,162.5,232.371,368.113,51.2834,97.7916,75.5309,0.0706753,5.83447,11.808,907.622,2.49827,0.0,0.0
654,163.25,234.602,371.225,48.5287,97.7713,73.0255,0.0703436,5.93458,11.6739,907.292,2.82253,0.0,0.0
657,164,237.41,376.922,55.586,97.7514,74.8659,0.0701699,6.02818,11.5477,906.891,2.57983,0.0,0.0
660,164.75,239.035,380.022,81.4183,97.7259,72.1384,0.070263,6.10522,11.4435,906.661,2.93625,0.0,0.0
663,165.5,241.41,384.874,72.894,97.7056,72.2854,0.0706143,6.17756,11.3657,906.141,2.91455,0.0,0.0
666,166.25,244.417,388.414,71.4903,97.7015,74.0694,0.071195,6.2341,11.309,905.81,2.67835,0.0,0.0
669,167,246.57,391.989,74.89,97.6727,64.3092,0.0718449,6.27572,11.2677,905.52,4.04215,0.0,0.0
672,167.75,247.909,393.512,79.691,97.6487,66.8443,0.0727063,6.304,11.2375,905.14,3.66583,0.0,0.0
675,168.5,248.981,395.619,50.6972,97.615,70.6269,0.0735076,6.31444,11.2156,904.829,3.13009,0.0,0.0
678,169.25,250.539,397.57,58.749,97.6057,69.8965,0.0743882,6.31771,11.2209,904.449,3.2297,0.0,0.0
681,170,251.539,398.411,90.2906,97.5805,61.1299,0.0751421,6.29105,11.252,904.369,4.52342,0.0,0.0
684,170.75,252.724,399.345,59.6451,97.559,71.0954,0.0757646,6.27161,11.3053,903.718,3.06058,0.0,0.0
687,171.5,253.828,399.937,68.4632,97.5172,61.3621,0.0762611,6.20724,11.4429,903.648,4.48046,0.0,0.0
690,172.25,254.341,399.605,78.0904,97.5009,68.2973,0.0766112,6.11952,11.6357,903.288,3.44318,0.0,0.0
693,173,254.077,399.015,81.9144,97.4713,60.8968,0.0768193,6.02241,11.8156,903.038,4.54953,0.0,0.0
696,173.75,255.255,398.981,80.3512,97.4502,62.4526,0.0768992,5.90255,12.0679,902.778,4.30344,0.0,0.0
699,174.5,254.466,396.22,70.8103,97.4128,64.608,0.0767785,5.74245,12.2519,902.377,3.97155,0.0,0.0
702,175.25,254.397,394.069,82.3029,97.4051,61.4575,0.0763846,5.60365,12.5154,902.207,4.45432,0.0,0.0
705,176,254.12,391.621,74.4053,97.369,60.9874,0.0755087,5.40866,12.8116,902.037,4.525,0.0,0.0
708,176.75,252.758,387.518,83.9974,97.3478,61.2013,0.0743169,5.26651,13.1297,901.887,4.48903,0.0,0.0
711,177.5,252.12,384.548,76.2097,97.3182,57.9444,0.0728551,5.05432,13.4602,901.527,5.015,0.0,0.0
714,178.25,250.218,379.241,102.032,97.2979,61.492,0.0711784,4.82858,13.8822,901.336,4.43824,0.0,0.0
717,179,248.668,375.168,85.6476,97.2654,61.0154,0.0687937,4.60177,14.2972,901.116,4.51027,0.0,0.0
720,179.75,247.349,370.207,81.358,97.2415,62.0897,0.0660908,4.38179,14.699,900.906,4.33908,0.0,0.0
723,180.5,245.581,366.031,95.8335,97.2102,64.0043,0.0637093,4.12491,15.0833,900.776,4.04221,0.0,0.0
726,181.25,242.968,359.862,85.2957,97.1802,64.5297,0.0605505,3.87881,15.4177,900.606,3.96016,0.0,0.0
729,182,239.662,353.286,87.7076,97.1684,63.9073,0.0576412,3.6411,15.7541,900.436,4.05273,0.0,0.0
732,182.75,237.512,347.161,96.5639,97.1201,64.9199,0.053837,3.411,16.0948,900.265,3.89587,0.0,0.0
735,183.5,234.133,339.614,102.32,97.086,66.1723,0.0501843,3.20911,16.4268,900.245,3.70765,0.0,0.0
738,184.25,231.104,332.67,100.804,97.0778,68.1301,0.0471465,3.00351,16.7421,900.055,3.42484,0.0,0.0
741,185,227.112,324.933,114.677,97.0397,70.5417,0.0436595,2.78995,17.071,899.955,3.08459,0.0,0.0
744,185.75,223.462,317.723,103.436,97.0015,68.7691,0.040499,2.6071,17.396,899.925,3.32694,0.0,0.0
747,186.5,220.439,310.228,114.638,96.9585,68.7801,0.0376548,2.40295,17.7067,899.835,3.3211,0.0,0.0
750,187.25,217.347,303.767,119.597,96.9341,71.5891,0.0351085,2.22784,18.0169,899.735,2.9315,0.0,0.0
753,188,213.333,296.127,113.568,96.9073,75.0754,0.032867,2.05526,18.2431,899.685,2.46892,0.0,0.0
756,188.75,209.341,288.962,118.729,96.8752,74.8229,0.0305743,1.88089,18.4991,899.645,2.49831,0.0,0.0
759,189.5,205.305,281.669,115.431,96.835,73.3698,0.0284022,1.7222,18.71,899.545,2.68397,0.0,0.0
762,190.25,201.849,274.663,126.184,96.8099,79.3343,0.0261796,1.59305,18.9051,899.565,1.92551,0.0,0.0
765,191,198.458,267.947,124.101,96.7977,81.5279,0.024378,1.45035,19.0943,899.525,1.66049,0.0,0.0
768,191.75,194.044,259.997,127.722,96.753,80.8357,0.0224724,1.32803,19.2521,899.535,1.73849,0.0,0.0
771,192.5,190.65,253.114,127.42,96.7266,82.8056,0.0208307,1.2076,19.4445,899.485,1.50298,0.0,0.0
774,193.25,186.625,246.656,131.43,96.7092,87.261,0.0190882,1.0883,19.6211,899.485,0.994342,0.0,0.0
777,194,183.13,240.123,130.893,96.6937,89.2377,0.0176767,1.00134,19.7653,899.455,0.776135,0.0,0.0
780,194.75,179.966,233.595,129.933,96.6491,91.2316,0.0164064,0.897869,19.9154,899.485,0.557941,0.0,0.0
783,195.5,176.136,227.675,132.497,96.6239,92.964,0.0154803,0.806444,20.0551,899.465,0.373481,0.0,0.0
786,196.25,172.722,221.589,136.364,96.5939,94.0736,0.0142919,0.732975,20.1698,899.455,0.255714,0.0,0.0
789,197,169.239,215.458,135.072,96.5817,94.959,0.0132673,0.657306,20.2828,899.465,0.16388,0.0,0.0
792,197.75,165.683,209.606,136.884,96.5545,95.3723,0.0123839,0.602142,20.3791,899.475,0.11915,0.0,0.0
795,198.5,162.211,204.631,138.343,96.5273,95.7438,0.011622,0.54165,20.4611,899.485,0.0788236,0.0,0.0
798,199.25,159.545,199.232,138.601,96.5192,95.9188,0.0108983,0.491908,20.5308,899.505,0.0603487,0.0,0.0
801,200,156.499,193.649,138.913,96.5001,95.9785,0.0103149,0.445996,20.5959,899.465,0.0524197,0.0,0.0
804,200.75,153.012,188.363,139.924,96.4733,96.0089,0.00979401,0.402569,20.6466,899.465,0.0466658,0.0,0.0
807,201.5,150.435,183.836,137.926,96.4489,95.9663,0.00930275,0.365683,20.6891,899.445,0.0485188,0.0,0.0
810,202.25,147.759,179.796,141.524,96.4156,95.7073,0.00891281,0.334104,20.7269,899.445,0.0713207,0.0,0.0
813,203,145.433,175.642,136.856,96.4176,95.9001,0.00857417,0.306875,20.7566,899.455,0.052055,0.0,0.0
816,203.75,142.968,171.958,136.192,96.4071,95.8607,0.00829335,0.281747,20.7818,899.485,0.0549675,0.0,0.0
819,204.5,140.664,167.281,138.705,96.3909,95.7523,0.0080649,0.261625,20.8028,899.465,0.0642827,0.0,0.0
822,205.25,138.837,163.682,141.004,96.3697,95.7763,0.00788253,0.243874,20.8192,899.475,0.0597437,0.0,0.0
825,206,136.541,160.787,146.136,96.3535,95.525,0.00769685,0.22793,20.8343,899.505,0.0835275,0.0,0.0
828,206.75,134.579,156.884,141.187,96.3661,95.7767,0.00749878,0.215027,20.8475,899.495,0.0593369,0.0,0.0
831,207.5,132.728,153.954,139.936,96.3567,95.5587,0.00728559,0.202526,20.8589,899.475,0.0804406,0.0,0.0
834,208.25,129.923,149.988,137.669,96.3409,95.6395,0.00702849,0.192456,20.8689,899.505,0.0706775,0.0,0.0
837,209,129.029,147.67,138.91,96.3401,95.4706,0.00681346,0.183479,20.878,899.485,0.087692,0.0,0.0
840,209.75,127.583,145.032,137.53,96.349,95.5534,0.0066095,0.174795,20.8853,899.465,0.0802016,0.0,0.0
843,210.5,125.849,142.601,138.316,96.336,95.8161,0.00645832,0.167096,20.8919,899.475,0.052344,0.0,0.0
846,211.25,124.882,140.129,141.872,96.3389,95.6939,0.0063803,0.160272,20.8961,899.465,0.0649745,0.0,0.0
849,212,122.745,137.447,140.715,96.34375,95.7921,0.00630975,0.15422,20.9016,899.455,0.0555373,0.0,0.0
852,212.75,121.298,134.562,143.189,96.3766,95.5916,0.0062779,0.148631,20.9069,899.445,0.0791107,0.0,0.0
855,213.5,120.34,133.396,139.533,96.39,95.5725,0.00625468,0.143625,20.9111,899.485,0.0823855,0.0,0.0
858,214.25,118.873,130.641,137.134,96.399,95.5185,0.006244,0.140552,20.9151,899.475,0.0887477,0.0,0.0
861,215,117.026,128.858,141.896,96.4148,95.916,0.00623888,0.136271,20.9185,899.485,0.0501729,0.0,0.0
864,215.75,116.433,126.689,141.56,96.4664,95.6955,0.00621555,0.132838,20.9212,899.485,0.077601,0.0,0.0
867,216.5,115.343,125.212,142.198,96.4777,95.7199,0.00619855,0.129433,20.9236,899.475,0.0762787,0.0,0.0
870,217.25,113.72,122.893,141.655,96.5041,95.5112,0.00614343,0.126951,20.9256,899.475,0.100033,0.0,0.0
873,218,112.765,121.173,143.745,96.535,95.9322,0.00608704,0.123712,20.9277,899.465,0.0605847,0.0,0.0
876,218.75,111.658,119.861,141.206,96.5723,95.6711,0.00603115,0.121351,20.9298,899.455,0.0906829,0.0,0.0
879,219.5,110.758,118.611,140.436,96.6065,95.935,0.00597694,0.118692,20.9318,899.465,0.0674548,0.0,0.0
882,220.25,109.572,116.875,142.283,96.6462,96.2103,0.00590365,0.11653,20.934,899.465,0.0437256,0.0,0.0
885,221,108.257,114.15,142.821,96.6791,96.1453,0.00583777,0.114572,20.9363,899.495,0.0535492,0.0,0.0
888,221.75,106.938,112.515,135.696,96.7348,96.0061,0.00576846,0.112658,20.9384,899.515,0.0731323,0.0,0.0
891,222.5,106.719,111.971,140.894,96.7867,96.3199,0.00568597,0.110826,20.9401,899.485,0.0467622,0.0,0.0
894,223.25,106.186,110.825,144.381,96.8541,95.8985,0.00564382,0.109131,20.9414,899.465,0.0959049,0.0,0.0
897,224,104.687,109.496,139.084,96.8761,96.5266,0.00559689,0.107602,20.9429,899.455,0.0349547,0.0,0.0
900,224.75,104.413,108.025,144.39,96.928,96.3252,0.00558134,0.106059,20.944,899.445,0.0603407,0.0,0.0
903,225.5,103.839,106.837,140.935,96.995,96.9646,0.00558911,0.104763,20.9453,899.455,0.00302962,0.0,0.0
906,226.25,102.934,105.284,147.604,97.0344,96.3699,0.00561382,0.103894,20.9466,899.455,0.0664667,0.0,0.0
909,227,102.237,104.299,139.687,97.088,96.27,0.00564429,0.102618,20.948,899.455,0.0818367,0.0,0.0
912,227.75,101.19,103.57,141.495,97.159,96.6837,0.00567509,0.101572,20.949,899.445,0.0474369,0.0,0.0
915,228.5,100.914,102.48,140.074,97.2163,96.9265,0.00570315,0.100479,20.9497,899.425,0.0288777,0.0,0.0
918,229.25,100.243,101.377,142.041,97.2675,96.4986,0.00572183,0.0994794,20.9502,899.445,0.0767614,0.0,0.0
921,230,99.6798,100.559,143.524,97.3044,96.9898,0.00573545,0.0986635,20.9515,899.435,0.0313213,0.0,0.0
924,230.75,98.606,99.3472,143.574,97.3681,96.8193,0.00570629,0.0977975,20.9528,899.445,0.054674,0.0,0.0
927,231.5,98.4215,98.2,142.908,97.4404,96.7661,0.0056811,0.0970033,20.9537,899.455,0.0671663,0.0,0.0
930,232.25,97.3317,98.0282,141.542,97.494,96.68,0.00566454,0.0963549,20.9544,899.455,0.0810912,0.0,0.0
933,233,96.9867,96.845,139.003,97.559,96.9695,0.00566703,0.0956306,20.9549,899.445,0.0586172,0.0,0.0
936,233.75,96.6714,96.0092,145.569,97.5907,97.2691,0.00570794,0.0950241,20.9552,899.475,0.0319166,0.0,0.0
939,234.5,95.7876,95.2966,143.012,97.6491,97.3061,0.00575896,0.0944477,20.9561,899.455,0.0340367,0.0,0.0
942,235.25,94.9028,93.9066,138.064,97.7198,97.2456,0.00580518,0.0938147,20.9568,899.515,0.0470468,0.0,0.0
945,236,94.5295,93.6779,141.346,97.7661,97.0357,0.00584502,0.0932449,20.9571,899.515,0.0725258,0.0,0.0
948,236.75,94.2836,92.8047,140.789,97.8099,97.6601,0.00589105,0.0927476,20.9575,899.525,0.0148232,0.0,0.0
951,237.5,93.5692,92.1805,140.665,97.8684,97.5582,0.00592461,0.0923241,20.9582,899.535,0.0307007,0.0,0.0
954,238.25,92.9607,91.2131,145.236,97.935,97.3556,0.00594662,0.0918994,20.9579,899.515,0.0573851,0.0,0.0
957,239,92.5263,90.5584,143.24,97.9727,97.2225,0.00594337,0.0916824,20.956,899.485,0.0743532,0.0,0.0
960,239.75,92.5452,90.1417,145.132,98.0117,97.4218,0.00593962,0.0913543,20.9539,899.475,0.0583891,0.0,0.0
963,240.5,91.4027,88.9311,145.446,98.056,98.4644,0.0059191,0.0911152,20.9523,899.495,-0.040204,0.0,0.0
966,241.25,91.1908,88.4196,142.573,98.1173,97.7389,0.00590041,0.090745,20.9512,899.485,0.0373727,0.0,0.0
969,242,90.8152,88.3794,145.794,98.142,98.2577,0.00588846,0.0905441,20.9503,899.475,-0.0113972,0.0,0.0
972,242.75,90.2002,87.0373,139.345,98.1709,97.9094,0.00588537,0.0902735,20.9497,899.465,0.025794,0.0,0.0
975,243.5,89.4398,86.9626,144.043,98.2135,98.1908,0.00590267,0.0900085,20.9493,899.465,0.00224003,0.0,0.0
978,244.25,89.8114,86.3743,143.718,98.2419,98.0564,0.00591529,0.0897864,20.9496,899.465,0.0182844,0.0,0.0
981,245,89.0662,85.9179,142.131,98.2663,98.6361,0.00595473,0.0895087,20.9498,899.475,-0.0363359,0.0,0.0
984,245.75,89.0945,85.3704,146.056,98.2805,98.2671,0.00597974,0.0892792,20.95,899.465,0.00131895,0.0,0.0
987,246.5,88.6776,84.4385,146.675,98.2996,98.7803,0.00599638,0.0891003,20.9501,899.475,-0.0471817,0.0,0.0
990,247.25,87.6503,83.7054,141.781,98.3292,99.0397,0.00595676,0.0888735,20.9502,899.465,-0.0696344,0.0,0.0
993,248,87.6078,84.1964,144.593,98.3446,97.9216,0.00590887,0.0886796,20.95,899.455,0.0416972,0.0,0.0
996,248.75,87.2421,83.0837,139.872,98.3552,97.9394,0.00584143,0.0884895,20.9499,899.445,0.0409716,0.0,0.0
999,249.5,86.7225,82.7115,140.743,98.3483,97.7511,0.00576564,0.0883111,20.9498,899.455,0.058914,0.0,0.0
1002,250.25,86.8549,82.1406,145.613,98.3637,98.5285,0.00570914,0.0881668,20.9497,899.455,-0.0161931,0.0,0.0
1005,251,85.5309,81.3884,143.633,98.3621,98.5813,0.00566742,0.0880372,20.9497,899.455,-0.0215327,0.0,0.0
1008,251.75,85.2026,81.1502,146.756,98.3333,98.7937,0.00563328,0.0878463,20.9497,899.435,-0.045178,0.0,0.0
1011,252.5,85.3737,81.5535,144.024,98.326,98.4888,0.00559828,0.0876715,20.9503,899.435,-0.0160008,0.0,0.0
1014,253.25,84.8039,80.4279,149.311,98.3142,97.911,0.00555101,0.0874833,20.9507,899.445,0.0397453,0.0,0.0
1017,254,84.9673,80.6163,143.368,98.2841,99.0766,0.00550423,0.087346,20.951,899.425,-0.0776766,0.0,0.0
1020,254.75,84.4237,80.0864,144.608,98.2728,99.2191,0.00547138,0.0872033,20.9512,899.425,-0.0926964,0.0,0.0
1023,255.5,83.1711,79.1748,144.989,98.2216,99.3117,0.00545712,0.0870262,20.9514,899.465,-0.106753,0.0,0.0
1026,256.25,84.1816,78.9787,142.934,98.1981,98.8099,0.0054624,0.08682,20.9515,899.485,-0.0600761,0.0,0.0
1029,257,83.7092,78.6845,143.731,98.1465,98.531,0.00549612,0.0866427,20.9516,899.495,-0.0378151,0.0,0.0
1032,257.75,83.0073,78.3161,144.836,98.1177,98.6191,0.00553344,0.0865018,20.9517,899.495,-0.0493017,0.0,0.0
1035,258.5,82.7612,78.2654,148.814,98.0791,98.2448,0.00558431,0.0863799,20.9517,899.475,-0.0163219,0.0,0.0
1038,259.25,81.7995,77.345,148.39,98.0474,98.2979,0.00563148,0.0862099,20.9518,899.465,-0.0246798,0.0,0.0
1041,260,82.3345,77.3916,145.891,98.0271,97.8684,0.00566942,0.0860514,20.9518,899.505,0.0156751,0.0,0.0
1044,260.75,81.6061,77.026,141.106,97.9821,99.0507,0.00569708,0.0859359,20.9524,899.555,-0.104913,0.0,0.0
1047,261.5,81.715,76.8327,143.456,97.9528,97.9589,0.0056977,0.0858516,20.9526,899.495,-0.000602464,0.0,0.0
1050,262.25,81.6492,77.1029,144.486,97.9743,98.6974,0.00570064,0.0858038,20.9525,899.515,-0.0711222,0.0,0.0
1053,263,81.2888,75.854,147.49,98.1047,98.982,0.00570385,0.0857746,20.9525,899.535,-0.0861145,0.0,0.0
1056,263.75,81.0394,75.7689,139.865,98.2102,99.2723,0.00572929,0.0857818,20.9525,899.515,-0.104036,0.0,0.0
1059,264.5,80.9132,75.9406,147.089,98.2959,98.3024,0.00575905,0.0858784,20.9525,899.565,-0.000638209,0.0,0.0
1062,265.25,80.36,75.546,149.418,98.3946,99.7538,0.00578553,0.0860218,20.9525,899.495,-0.132699,0.0,0.0
1065,266,79.9802,75.1254,148.21,98.4839,99.5707,0.00581905,0.0861128,20.9524,899.535,-0.106153,0.0,0.0
1068,266.75,79.6842,75.0217,146.389,98.5294,99.5338,0.00584612,0.0861521,20.9524,899.495,-0.0980977,0.0,0.0
1071,267.5,79.5211,74.6049,141.325,98.5696,99.0003,0.00587034,0.0861442,20.9524,899.505,-0.0421736,0.0,0.0
1074,268.25,78.97,74.0951,143.998,98.6195,98.2651,0.00588816,0.086152,20.9525,899.525,0.034826,0.0,0.0
1077,269,79.0308,73.8552,145.655,98.6508,98.5984,0.00590115,0.0861634,20.9527,899.515,0.00513988,0.0,0.0
1080,269.75,78.5898,74.0655,145.784,98.6447,99.3799,0.00592129,0.0861332,20.9529,899.515,-0.0718209,0.0,0.0
1083,270.5,78.908,73.8176,141.05,98.6325,99.8273,0.0059497,0.0860974,20.953,899.515,-0.116461,0.0,0.0
1086,271.25,78.4528,72.8477,141.879,98.6012,99.8103,0.00597757,0.0860478,20.9531,899.485,-0.117876,0.0,0.0
1089,272,78.1165,73.1231,145.862,98.5716,99.9296,0.00600014,0.0859441,20.9531,899.495,-0.132343,0.0,0.0
1092,272.75,78.0602,72.5316,148.173,98.5196,98.8627,0.00599538,0.0858112,20.9532,899.465,-0.0336195,0.0,0.0
1095,273.5,77.9423,72.8331,147.904,98.4441,99.1237,0.00596581,0.0856657,20.9532,899.455,-0.0665423,0.0,0.0
1098,274.25,77.3201,72.4441,142.814,98.3402,99.5403,0.00591509,0.0855018,20.9532,899.475,-0.117321,0.0,0.0
1101,275,77.1463,71.8921,149.444,98.2614,99.846,0.0058337,0.0853538,20.9537,899.485,-0.154731,0.0,0.0
1104,275.75,77.0096,71.9387,147.222,98.1461,99.3495,0.00575445,0.0851974,20.9542,899.455,-0.117869,0.0,0.0
1107,276.5,76.42,71.3359,147.698,98.0117,99.7343,0.0056836,0.084987,20.9546,899.465,-0.16852,0.0,0.0
1110,277.25,76.3226,70.9952,143.121,97.8781,99.4534,0.00562411,0.0848123,20.9548,899.475,-0.154427,0.0,0.0
1113,278,76.483,71.0499,144.865,97.9045,99.4351,0.00558697,0.0846484,20.9553,899.485,-0.150042,0.0,0.0
1116,278.75,75.7503,70.8759,146.971,97.937,98.6926,0.00556254,0.0844905,20.956,899.465,-0.0743332,0.0,0.0
1119,279.5,75.7671,70.8737,146.463,97.9882,99.4266,0.00553354,0.0842983,20.9565,899.465,-0.140953,0.0,0.0
1122,280.25,75.3306,70.5486,145.747,98.0275,99.5853,0.00551537,0.0841582,20.9568,899.475,-0.152496,0.0,0.0
1125,281,74.9903,70.3565,144.766,98.0888,99.468,0.00546068,0.0840561,20.9571,899.455,-0.135046,0.0,0.0
1128,281.75,75.3088,70.345,144.456,98.166,98.7945,0.00540714,0.0839546,20.9573,899.455,-0.0617255,0.0,0.0
1131,282.5,74.9662,70.152,146.911,98.2196,100.18,0.00536293,0.0838691,20.9575,899.465,-0.191123,0.0,0.0
1134,283.25,74.3039,69.4692,145.368,98.2772,99.0998,0.00533182,0.083797,20.9576,899.475,-0.0806147,0.0,0.0
1137,284,74.6223,69.4326,146.919,98.3251,99.9921,0.00530914,0.0836488,20.9577,899.465,-0.162606,0.0,0.0
1140,284.75,74.2205,69.5133,145.817,98.3905,99.0373,0.00534049,0.0834922,20.9576,899.465,-0.0633682,0.0,0.0
1143,285.5,73.9429,69.2972,147.646,98.4429,100.265,0.00539445,0.0833394,20.9576,899.495,-0.177385,0.0,0.0
1146,286.25,73.1567,68.4699,148.32,98.4632,100.209,0.00544705,0.0832281,20.9575,899.495,-0.170023,0.0,0.0
1149,287,73.6027,68.7575,144.201,98.5107,100.999,0.00551528,0.083147,20.9575,899.475,-0.241238,0.0,0.0
1152,287.75,73.6035,68.6981,145.552,98.5367,99.7725,0.00557776,0.0830594,20.9574,899.485,-0.12055,0.0,0.0
1155,288.5,72.8689,68.1731,148.338,98.5651,100.743,0.00563042,0.082947,20.9574,899.495,-0.211411,0.0,0.0
1158,289.25,73.3164,68.0178,147.215,98.5606,100.397,0.00566488,0.0828515,20.9574,899.495,-0.178582,0.0,0.0
1161,290,72.4479,67.3311,149.168,98.5517,100.523,0.00568327,0.0827762,20.9574,899.485,-0.191576,0.0,0.0
1164,290.75,72.1908,67.288,148.368,98.5403,100.183,0.00568068,0.0826808,20.9574,899.455,-0.159901,0.0,0.0
1167,291.5,72.5692,67.4052,149.108,98.4961,100.848,0.00567552,0.082594,20.9574,899.435,-0.228277,0.0,0.0
1170,292.25,71.797,67.2724,150.448,98.4518,100.365,0.00566419,0.0824922,20.9574,899.455,-0.186176,0.0,0.0
1173,293,71.5983,67.0545,145.094,98.3783,100.496,0.00565257,0.0824322,20.9568,899.475,-0.20599,0.0,0.0
1176,293.75,71.4804,66.9658,145.537,98.3138,100.2,0.00564344,0.0824127,20.9563,899.485,-0.183811,0.0,0.0
1179,294.5,71.1964,66.1788,146.845,98.2472,100.281,0.00563566,0.0824371,20.956,899.485,-0.19816,0.0,0.0
1182,295.25,71.2309,66.5797,147.927,98.1225,100.098,0.0056442,0.0824818,20.9557,899.465,-0.192801,0.0,0.0
1185,296,71.4132,66.7049,147.389,98.002,101.02,0.00566912,0.0825259,20.9555,899.435,-0.29334,0.0,0.0
1188,296.75,70.8715,66.2466,146.72,97.8875,100.053,0.00570508,0.0825965,20.9554,899.465,-0.211606,0.0,0.0
1191,297.5,71.1354,66.4094,147.122,97.779,100.623,0.00574812,0.0826338,20.9547,899.505,-0.27735,0.0,0.0
1194,298.25,70.9239,65.9277,146.984,97.6386,100.083,0.00580262,0.0826367,20.9542,899.415,-0.239135,0.0,0.0
1197,299,70.5571,65.8338,150.514,97.4989,99.9601,0.00585483,0.0825619,20.9538,899.385,-0.241125,0.0,0.0
1200,299.75,70.2023,65.1602,146.241,97.3499,100.008,0.00591422,0.082565,20.9541,899.475,-0.260553,0.0,0.0
1203,300.5,70.0914,65.4762,146.038,97.2086,98.9122,0.00596539,0.0825943,20.9544,899.365,-0.16804,0.0,0.0
1206,301.25,69.329,65.1831,147.154,97.0689,99.5098,0.00601618,0.0826272,20.9546,899.465,-0.24021,0.0,0.0
1209,302,69.6382,65.1871,145.838,96.9435,100.165,0.00605855,0.0826896,20.9547,899.415,-0.316201,0.0,0.0
1212,302.75,69.5421,64.5815,150.56,96.8188,99.2285,0.00608812,0.0827352,20.9548,899.485,-0.237778,0.0,0.0
1215,303.5,69.6819,64.6952,148.806,96.7145,99.7067,0.00610743,0.0827684,20.9549,899.545,-0.294713,0.0,0.0
1218,304.25,68.6987,65.2068,145.449,96.6093,97.8883,0.00609658,0.0827997,20.9549,899.595,-0.127207,0.0,0.0
1221,305,69.2327,64.5611,149.86,96.5078,99.1144,0.00606622,0.0828346,20.955,899.575,-0.25777,0.0,0.0
1224,305.75,68.9409,63.8464,147.673,96.4367,97.4084,0.00603452,0.0828986,20.955,899.525,-0.0969662,0.0,0.0
1227,306.5,68.6727,64.2693,148.067,96.3965,98.9557,0.00598117,0.0829183,20.955,899.535,-0.253424,0.0,0.0
1230,307.25,68.5851,63.9408,148.568,96.3584,99.1379,0.00594228,0.0829211,20.955,899.485,-0.275055,0.0,0.0
1233,308,68.2104,64.2764,148.342,96.3462,99.1095,0.00588278,0.0828461,20.9549,899.485,-0.273504,0.0,0.0
1236,308.75,68.1131,63.5992,147.507,96.3511,99.6255,0.00582613,0.082805,20.9546,899.475,-0.323244,0.0,0.0
1239,309.5,67.826,63.516,146.388,96.3941,99.3897,,0.0827808,,899.455,-0.295996,0.0,0.0
1242,310.25,67.6164,63.4883,153.307,96.455,99.7563,,0.0827844,,899.455,-0.325498,0.0,0.0
1245,311,67.9464,63.1605,145.421,96.5301,99.4311,,0.0828235,,899.475,-0.286386,0.0,0.0
1248,311.75,67.7114,63.2133,148.277,96.6479,99.0425,,0.0828385,,899.475,-0.236728,0.0,0.0
1251,312.5,67.0475,62.8176,146.111,96.7839,100.04,,,,899.495,-0.320053,0.0,0.0
1254,313.25,67.2706,62.8427,148.469,96.9171,100.308,,,,899.465,-0.332585,0.0,0.0
1257,314,67.0764,62.8214,148.524,97.0437,99.2894,,,,899.465,-0.221267,0.0,0.0
1260,314.75,66.7037,62.1446,149.443,97.1875,100.218,,,,899.495,-0.29702,0.0,0.0
1263,315.5,66.6926,62.4402,148.165,97.3304,99.8314,,,,899.485,-0.245393,0.0,0.0
1266,316.25,66.3553,62.1571,144.796,97.4753,100.12,,,,899.475,-0.258927,0.0,0.0
1269,317,66.585,62.4176,144.849,97.613,101.442,,,,899.475,-0.372108,0.0,0.0
1272,317.75,66.4082,62.5344,147.608,97.7218,100.452,,,,899.465,-0.266494,0.0,0.0
1275,318.5,66.1323,61.6649,151.655,97.8404,101.513,,,,899.485,-0.356377,0.0,0.0
1278,319.25,65.7542,61.1254,148.325,97.9427,101.033,,,,899.495,-0.300475,0.0,0.0
1280,319.75,65.1906,61.1195,146.761,98.008,101.364,,,,899.505,-0.325607,0.0,0.0