File: 01_Data/HDPE/Cone/HDPE_Cone_HF25Scan_220224_R5.csv
Names,Time,Stack TC,Smoke TC,Exh Press,Smoke Comp,Smoke Meas,CO Meter,CO2 Meter,O2 Meter,Sample Mass,Ext Coeff,Start Test,Flame Verif
Chan Gain,,500,500,1,1,1,1,1,1,1,1,1.0,1.0
Offset,,0,0,0.132436,0,0,0,0,0,0,0,0.0,0.0
Gain,,1,1,25.011,15.4219,15.1528,1,1,1,1.00089,1.02113,1.0,1.0
Units,sec,C,C,Pa,%,%,%,%,%,g,/m,,
Baseline,,18.704,19.5434,167.478,116.51,111.114,-0.00842342,0.0516172,20.985,-479.606,0.424814,,
6,1.25,17.9186,18.6233,163.867,117.678,113.188,-0.00866018,0.0617662,20.9747,424.886,0.348436,0.0,0.0
12,2.75,17.8321,18.1479,167.67,117.666,113.087,-0.0086879,0.0610988,20.9755,424.876,0.355558,0.0,0.0
18,4.25,17.4579,17.991,164.756,117.615,112.636,-0.00872724,0.0612195,20.9743,424.876,0.387399,0.0,0.0
24,5.75,16.3019,17.4169,168.329,117.585,112.453,-0.00877429,0.0623656,20.9716,424.856,0.399716,0.0,0.0
30,7.25,17.5988,18.2305,170.331,117.529,112.429,-0.00877811,0.063998,20.9695,424.866,0.397364,0.0,0.0
36,8.75,17.3204,18.5853,164.24,117.474,112.315,-0.00874204,0.0653961,20.9684,424.846,0.40227,0.0,0.0
42,10.25,17.9949,18.7221,165.784,117.393,112.801,-0.00869314,0.0660408,20.9678,424.856,0.357419,0.0,0.0
48,11.75,18.019,18.4956,164.601,117.333,112.159,-0.0086503,0.0659863,20.9686,424.846,0.403972,0.0,0.0
54,13.25,17.5254,18.0612,170.285,117.233,111.692,-0.00860298,0.0655533,20.969,424.846,0.433655,0.0,0.0
60,14.75,18.0623,18.7363,169.152,117.158,112.427,-0.00851411,0.0648921,20.9692,424.856,0.369165,0.0,0.0
66,16.25,17.9837,18.3132,165.115,117.068,112.511,-0.00841817,0.0645811,20.9693,424.856,0.355697,0.0,0.0
72,17.75,17.8608,18.9871,166.779,116.987,111.895,-0.00837671,0.0649171,20.9686,424.846,0.398599,0.0,0.0
78,19.25,17.8528,18.5831,169.94,116.93,111.957,-0.00838159,0.0658887,20.9671,424.846,0.389281,0.0,0.0
84,20.75,18.0015,18.5906,169.66,116.849,112.356,-0.00833603,0.0672129,20.9652,424.836,0.351242,0.0,0.0
90,22.25,18.2412,18.5888,168.232,116.784,111.697,-0.00825121,0.0686457,20.9629,424.846,0.398987,0.0,0.0
96,23.75,17.7018,18.7311,169.111,116.744,111.949,-0.00821984,0.069964,20.9618,424.856,0.375657,0.0,0.0
102,25.25,18.1994,19.2283,169.272,116.784,111.128,-0.00826742,0.0707396,20.9613,424.866,0.444716,0.0,0.0
108,26.75,18.1028,18.5642,168.68,116.919,112.129,-0.00836735,0.0705145,20.9621,424.856,0.374663,0.0,0.0
114,28.25,18.2934,18.3238,166.886,117.034,112.084,-0.00841741,0.0695045,20.9644,424.846,0.387112,0.0,0.0
120,29.75,18.5362,18.5043,172.068,117.133,113.131,-0.00844011,0.0679411,20.9675,424.846,0.311396,0.0,0.0
126,31.25,17.7889,19.2565,167.209,117.212,112.556,-0.00844582,0.0662337,20.9696,424.846,0.36303,0.0,0.0
132,32.75,18.1591,19.0606,165.191,117.29,112.715,-0.00849241,0.0646158,20.9718,424.836,0.356384,0.0,0.0
138,34.25,18.2502,19.0833,166.393,117.337,112.462,-0.00853875,0.0630704,20.9738,424.826,0.380138,0.0,0.0
144,35.75,17.8388,19.2684,170.688,117.353,112.977,-0.00855504,0.0618294,20.9751,424.836,0.340424,0.0,0.0
150,37.25,18.151,18.8143,170.129,117.386,112.512,-0.00855854,0.0613993,20.975,424.826,0.379824,0.0,0.0
156,38.75,17.716,18.3868,165.781,117.376,111.983,-0.00858448,0.0617046,20.9739,424.836,0.421322,0.0,0.0
162,40.25,18.0914,18.9065,168.223,117.374,112.455,-0.00859064,0.0624774,20.973,424.836,0.383529,0.0,0.0
168,41.75,18.5488,19.3242,166.233,117.321,113.088,-0.00856263,0.0637637,20.9704,424.836,0.32915,0.0,0.0
174,43.25,18.3708,19.1827,165.331,117.261,112.095,-0.00855467,0.0655809,20.9676,424.836,0.403607,0.0,0.0
180,44.75,18.1473,19.3795,169.345,117.181,112.435,-0.0085738,0.0673174,20.9658,424.826,0.37034,0.0,0.0
186,46.25,19.0531,19.0592,165.695,117.113,112.751,-0.00858703,0.0687985,20.9648,424.836,0.340031,0.0,0.0
192,47.75,18.5363,19.3419,168.468,116.993,112.039,-0.00860716,0.0697884,20.9649,424.826,0.387491,0.0,0.0
198,49.25,18.1832,19.0027,165.196,116.878,112.667,-0.00864355,0.0704005,20.965,424.836,0.328667,0.0,0.0
204,50.75,18.6152,19.1872,166.822,116.718,112.064,-0.00868045,0.0708681,20.9651,424.756,0.3645,0.0,0.0
210,52.25,18.7104,19.3749,164.514,116.59,111.857,-0.0086973,0.0711339,20.9651,424.846,0.371207,0.0,0.0
216,53.75,18.5652,18.9552,165.445,116.4,112.07,-0.00867347,0.0706702,20.9662,424.836,0.339606,0.0,0.0
222,55.25,18.8415,19.4407,163.317,116.395,111.597,-0.00860369,0.0695558,20.9676,424.836,0.377025,0.0,0.0
228,56.75,18.1907,19.2576,169.394,116.403,112.018,-0.00850124,0.0683287,20.9697,424.816,0.343891,0.0,0.0
234,58.25,18.5224,19.1278,163.143,116.427,111.846,-0.00841945,0.0673494,20.9708,424.806,0.359542,0.0,0.0
240,59.75,18.8138,19.3493,167.554,116.462,112.039,-0.00834887,0.0663119,20.9721,424.796,0.346826,0.0,0.0
246,61.25,18.494,19.462,167.81,116.5,111.856,-0.00831883,0.0649721,20.9739,424.796,0.364373,0.0,0.0
252,62.75,18.513,19.1776,164.606,116.533,111.412,-0.00833565,0.06359,20.9763,424.796,0.402563,0.0,0.0
258,64.25,18.3047,19.4321,166.053,116.565,112.296,-0.00840342,0.062069,20.9782,424.806,0.334144,0.0,0.0
264,65.75,18.6887,18.6735,166.719,116.598,111.56,-0.00851438,0.0605437,20.9792,424.806,0.395664,0.0,0.0
270,67.25,18.1003,19.1167,165.456,116.655,111.216,-0.00871204,0.0594585,20.9797,424.816,0.427632,0.0,0.0
276,68.75,18.8655,19.677,175.547,116.696,112.082,-0.00889337,0.0587846,20.98,424.826,0.361397,0.0,0.0
282,70.25,19.0525,19.4954,166.814,116.718,112.838,-0.0089982,0.0586148,20.9806,424.816,0.302766,0.0,0.0
288,71.75,17.893,18.6759,165.086,116.752,112.149,-0.00903154,0.0586834,20.9802,424.796,0.360302,0.0,0.0
294,73.25,18.6308,19.6941,171.385,116.771,112.684,-0.00900606,0.0589809,20.9797,424.806,0.319151,0.0,0.0
300,74.75,18.7333,19.6056,171.642,116.82,112.206,-0.00887103,0.0595818,20.9785,424.826,0.360994,0.0,0.0
306,76.25,18.8402,19.8398,165.385,116.832,112.117,-0.00867913,0.0602621,20.977,424.816,0.368987,0.0,0.0
312,77.75,18.7698,19.7618,168.879,116.873,112.583,-0.00854139,0.060794,20.976,424.826,0.334998,0.0,0.0
318,79.25,18.7983,19.9647,166.786,116.867,112.334,-0.00842575,0.0613353,20.9755,424.816,0.354383,0.0,0.0
324,80.75,18.6806,19.8637,166.587,116.865,112.382,-0.00828321,0.0623379,20.974,424.826,0.350405,0.0,0.0
330,82.25,18.4575,19.7864,167.225,116.836,111.326,-0.00814272,0.0635071,20.9719,424.806,0.43271,0.0,0.0
336,83.75,18.5234,19.8189,162.008,116.817,112.427,-0.0080847,0.0646644,20.9701,424.806,0.343076,0.0,0.0
342,85.25,18.8598,19.9502,166.764,116.746,112.243,-0.00815401,0.0656619,20.9692,424.806,0.352301,0.0,0.0
348,86.75,19.0381,19.9783,164.87,116.721,111.936,-0.00826258,0.0660956,20.9689,424.806,0.374924,0.0,0.0
354,88.25,18.7992,20.2535,167.666,116.629,111.458,-0.00840314,0.0660013,20.9696,424.816,0.406222,0.0,0.0
360,89.75,18.8665,19.9752,164.459,116.556,112.497,-0.00851389,0.0656675,20.97,424.806,0.317537,0.0,0.0
366,91.25,18.7789,19.7542,168.331,116.466,112.117,-0.00853582,0.0654767,20.9702,424.806,0.340834,0.0,0.0
372,92.75,18.7885,19.8047,168.447,116.373,112.098,-0.00848772,0.0656244,20.9704,424.796,0.335288,0.0,0.0
378,94.25,18.6349,19.862,164.91,116.267,111.875,-0.00837759,0.0655961,20.9711,424.806,0.344889,0.0,0.0
384,95.75,19.0692,20.0337,169.209,116.173,111.441,-0.00833051,0.065359,20.9718,424.816,0.37243,0.0,0.0
390,97.25,18.9655,19.7679,165.648,116.049,111.96,-0.00841272,0.0648297,20.9733,424.806,0.321349,0.0,0.0
396,98.75,19.0064,19.7298,164.503,115.954,111.35,-0.00849816,0.0640156,20.9763,424.816,0.362902,0.0,0.0
402,100.25,19.2412,19.7916,162.977,115.854,111.246,-0.00851009,0.0625924,20.9788,424.806,0.363565,0.0,0.0
408,101.75,19.2579,19.9964,167.888,115.742,111.656,-0.00848206,0.0610733,20.9801,424.796,0.321936,0.0,0.0
414,103.25,19.1019,20.2892,171.588,115.65,111.095,-0.00852206,0.0599275,20.9808,424.796,0.359907,0.0,0.0
420,104.75,19.4898,20.2569,167.76,115.575,111.553,-0.00861161,0.0591372,20.9812,424.806,0.317236,0.0,0.0
426,106.25,18.5517,19.8374,164.088,115.501,111.013,-0.00871752,0.0585395,20.9816,424.796,0.354983,0.0,0.0
432,107.75,19.4499,20.1973,169.16,115.415,110.96,-0.00879023,0.0578606,20.9827,424.796,0.352592,0.0,0.0
438,109.25,18.8435,19.9475,162.433,115.378,110.653,-0.00880736,0.0574231,20.9833,424.806,0.37449,0.0,0.0
444,110.75,18.8893,19.4897,171.92,115.32,111.171,-0.00876361,0.0574095,20.9826,424.786,0.328241,0.0,0.0
450,112.25,19.1249,20.3894,168.241,115.302,111.037,-0.00868032,0.0576874,20.9822,424.776,0.33759,0.0,0.0
456,113.75,19.097,20.7585,168.583,115.282,110.9,-0.0085824,0.0580079,20.9819,424.806,0.347104,0.0,0.0
462,115.25,19.5107,20.4718,171.55,115.288,111.281,-0.00854774,0.0580029,20.9818,424.806,0.316855,0.0,0.0
468,116.75,19.3302,20.1641,164.109,115.294,110.661,-0.00859072,0.0578359,20.9813,424.796,0.367348,0.0,0.0
474,118.25,19.7058,19.8923,163.202,115.347,110.623,-0.00868655,0.0575443,20.9811,424.766,0.374547,0.0,0.0
480,119.75,19.5491,20.151,166.044,115.371,110.642,-0.00882073,0.0569737,20.9809,424.776,0.37484,0.0,0.0
486,121.25,19.2409,20.6599,163.608,115.461,110.519,-0.00889984,0.0564493,20.9809,424.786,0.391818,0.0,0.0
492,122.75,19.4844,20.4486,168.006,115.518,110.766,-0.00884108,0.0560201,20.9808,424.776,0.376242,0.0,0.0
498,124.25,19.2332,20.54,163.972,115.622,111.52,-0.00871208,0.0556336,20.9817,424.796,0.323557,0.0,0.0
504,125.75,19.57,20.0264,164.333,115.726,110.895,-0.00858278,0.0554217,20.9812,424.776,0.382005,0.0,0.0
510,127.25,19.5139,20.8219,168.244,115.83,110.992,-0.00844841,0.0550384,20.981,424.786,0.382174,0.0,0.0
516,128.75,18.9156,20.6758,163.711,115.948,111.247,-0.00832317,0.0547328,20.982,424.776,0.370766,0.0,0.0
522,130.25,19.9567,20.3341,168.57,116.091,110.959,-0.00824944,0.0543908,20.9825,424.786,0.405039,0.0,0.0
528,131.75,19.7371,21.0221,159.403,116.216,110.971,-0.00831833,0.054122,20.9828,424.786,0.413722,0.0,0.0
534,133.25,19.3924,20.7868,165.21,116.359,111.159,-0.00844497,0.0539665,20.9829,424.786,0.409454,0.0,0.0
540,134.75,19.7657,20.7977,167.299,116.5,111.349,-0.00855986,0.0537352,20.983,424.766,0.405051,0.0,0.0
546,136.25,19.648,20.6953,167.926,116.627,112.342,-0.0086202,0.0534976,20.983,424.776,0.335341,0.0,0.0
552,137.75,19.7826,20.4798,167.263,116.751,111.243,-0.00861781,0.0534419,20.983,424.776,0.43284,0.0,0.0
558,139.25,19.3335,20.4124,166.999,116.88,112.375,-0.00855662,0.0536679,20.9829,424.766,0.352076,0.0,0.0
564,140.75,19.6954,20.2426,161.835,116.999,111.197,-0.0085038,0.0542046,20.9805,424.766,0.455572,0.0,0.0
570,142.25,19.5384,20.2036,166.15,117.092,111.643,-0.00844878,0.055213,20.9788,424.766,0.426794,0.0,0.0
576,143.75,20.2489,20.8459,163.936,117.208,111.877,-0.00835624,0.0560941,20.9779,424.756,0.416929,0.0,0.0
582,145.25,20.1308,21.2898,168.187,117.286,111.302,-0.00824427,0.0567344,20.9773,424.766,0.46911,0.0,0.0
588,146.75,19.2187,20.2068,167.277,117.375,112.01,-0.00807896,0.0572758,20.9759,424.776,0.419031,0.0,0.0
594,148.25,19.8667,20.6502,164.621,117.426,112.154,-0.00796132,0.0578439,20.9749,424.766,0.411453,0.0,0.0
600,149.75,20.1806,20.7625,164.636,117.504,112.197,-0.00790186,0.058403,20.9744,424.756,0.41394,0.0,0.0
606,151.25,19.903,21.0789,170.011,117.547,111.46,-0.00783381,0.0589549,20.9741,424.756,0.476281,0.0,0.0
612,152.75,20.1835,20.9441,162.863,117.591,112.13,-0.00776353,0.0594396,20.973,424.746,0.425965,0.0,0.0
618,154.25,20.1134,21.4661,170.97,117.612,112.082,-0.00773449,0.0598796,20.9723,424.756,0.431385,0.0,0.0
624,155.75,20.0154,20.7882,164.602,117.655,111.785,-0.0077673,0.0601697,20.9723,424.746,0.45844,0.0,0.0
630,157.25,20.254,21.3341,164.504,117.634,112.184,-0.00781358,0.0601507,20.973,424.746,0.424906,0.0,0.0
636,158.75,19.8436,21.2028,163.649,117.665,111.72,-0.00780774,0.0599146,20.9733,424.746,0.464382,0.0,0.0
642,160.25,20.4838,21.4335,169.887,117.646,111.259,-0.00772631,0.0593866,20.9735,424.746,0.499989,0.0,0.0
648,161.75,20.3899,20.702,164.053,117.645,111.711,-0.00761573,0.0586549,20.9746,424.736,0.463617,0.0,0.0
654,163.25,20.0573,21.2739,166.18,117.623,112.016,-0.00759806,0.0580328,20.9749,424.736,0.437496,0.0,0.0
660,164.75,20.2131,20.8297,168.124,117.599,111.948,-0.00769204,0.0574803,20.975,424.736,0.441141,0.0,0.0
666,166.25,19.7341,21.5203,162.037,117.558,111.91,-0.00783775,0.0567988,20.9755,424.726,0.44102,0.0,0.0
672,167.75,20.563,20.916,170.127,117.532,112.286,-0.00795351,0.0561921,20.9768,424.716,0.40897,0.0,0.0
678,169.25,20.3596,20.8338,162.797,117.483,111.731,-0.00794592,0.055571,20.9785,424.716,0.449615,0.0,0.0
684,170.75,20.3831,20.8997,170.23,117.43,111.653,-0.00786921,0.0550935,20.9795,424.716,0.451863,0.0,0.0
690,172.25,20.2682,21.1741,164.798,117.374,111.593,-0.00777364,0.0547183,20.98,424.706,0.452414,0.0,0.0
696,173.75,19.8196,21.6556,166.561,117.324,111.527,-0.00774301,0.0543155,20.9803,424.726,0.453916,0.0,0.0
702,175.25,20.3967,21.3752,166.232,117.259,111.438,-0.0077479,0.0539901,20.9805,424.706,0.456126,0.0,0.0
708,176.75,20.2585,21.1009,166.285,117.193,111.407,-0.00779098,0.0538683,20.9805,424.706,0.453546,0.0,0.0
714,178.25,20.4463,21.6624,165.773,117.145,110.834,-0.00790297,0.0537482,20.9806,424.706,0.496062,0.0,0.0
720,179.75,20.4542,21.2055,164.724,117.063,111.019,-0.00801322,0.0537463,20.9806,424.706,0.474861,0.0,0.0
726,181.25,20.2266,21.3688,166.316,117.016,110.755,-0.00807641,0.0542027,20.9785,424.696,0.49255,0.0,0.0
732,182.75,20.4276,21.3925,166.371,116.945,111.392,-0.00808246,0.0552733,20.9763,424.706,0.435722,0.0,0.0
738,184.25,20.7183,21.5678,166.5,116.908,111.434,-0.00806566,0.0565049,20.9751,424.706,0.429527,0.0,0.0
744,185.75,20.286,21.6915,164.088,116.846,111.564,-0.00801391,0.0575649,20.9745,424.686,0.414363,0.0,0.0
750,187.25,20.7225,20.9936,165.065,116.818,111.557,-0.00794269,0.0585911,20.9728,424.686,0.412793,0.0,0.0
756,188.75,20.398,21.5567,166.428,116.78,111.831,-0.00789052,0.0595502,20.9706,424.686,0.387877,0.0,0.0
762,190.25,20.1949,21.6974,160.19,116.74,110.384,-0.0077985,0.0603391,20.9695,424.676,0.50146,0.0,0.0
768,191.75,20.4215,21.886,168.708,116.725,110.903,-0.00766777,0.0606072,20.97,424.676,0.4583,0.0,0.0
774,193.25,20.7456,21.795,167.662,116.829,110.829,-0.0075077,0.0605152,20.9702,424.686,0.472257,0.0,0.0
780,194.75,20.6975,21.5199,167.307,116.928,111.559,-0.00743028,0.0601237,20.9703,424.666,0.421012,0.0,0.0
786,196.25,21.0035,21.5834,166.239,117.031,111.09,-0.00741982,0.0599361,20.97,424.666,0.466594,0.0,0.0
792,197.75,20.7235,21.6305,161,117.104,111.273,-0.00743301,0.0606712,20.9679,424.726,0.457496,0.0,1.0
798,199.25,20.8358,21.9002,161.641,117.187,111.34,-0.00745394,0.0624165,20.9643,424.656,0.458434,0.0,1.0
804,200.75,20.6185,21.9585,164.468,117.232,112.376,-0.00745714,0.0656965,20.9563,424.656,0.378903,0.0,1.0
810,202.25,20.4241,21.6837,163.875,117.295,111.67,-0.00737322,0.0715258,20.9442,424.676,0.440219,0.0,1.0
816,203.75,20.6569,21.42,164.536,117.329,112.037,-0.00723054,0.0782891,20.9316,424.626,0.413475,0.0,1.0
822,205.25,20.9336,21.8886,165.246,117.365,111.172,-0.00715198,0.0852704,20.9228,424.636,0.485537,0.0,1.0
828,206.75,20.92,22.0534,165.458,117.369,111.869,-0.00718194,0.0912703,20.9157,424.596,0.429851,0.0,0.0
834,208.25,19.69,21.3957,165.744,117.382,112.552,-0.00724888,0.0971041,20.9079,424.576,0.376371,0.0,0.0
840,209.75,21.1571,22.4823,159.39,117.365,112.081,-0.00730707,0.102779,20.8984,424.546,0.412585,0.0,0.0
846,211.25,20.9724,22.8451,160.954,117.353,111.193,-0.00727259,0.109905,20.8841,424.516,0.482997,0.0,0.0
852,212.75,20.7948,22.7269,161.564,117.326,111.769,-0.00725327,0.118981,20.8672,424.506,0.434618,0.0,0.0
858,214.25,21.3402,22.7519,160.493,117.297,111.55,-0.00730288,0.127253,20.8534,424.486,0.45001,0.0,0.0
864,215.75,22.5004,23.3724,155.267,117.24,111.695,-0.00737844,0.135208,20.8387,424.456,0.433937,0.0,0.0
870,217.25,23.0048,24.0954,158.149,117.17,110.247,-0.00746965,0.144086,20.8249,424.416,0.545481,0.0,0.0
876,218.75,22.8153,24.6155,154.426,117.099,109.778,-0.00754465,0.151952,20.8138,424.366,0.578336,0.0,0.0
882,220.25,23.2274,25.131,157.657,117.006,109.862,-0.00752613,0.158998,20.8028,424.356,0.564305,0.0,0.0
888,221.75,23.8638,25.1647,154.53,116.909,109.807,-0.00739474,0.164926,20.7919,424.316,0.561365,0.0,0.0
894,223.25,23.74,26.2666,155.985,116.765,110.293,-0.00726421,0.17178,20.78,424.306,0.510732,0.0,0.0
900,224.75,24.7005,26.2535,151.278,116.668,109.188,-0.00720839,0.17887,20.7649,424.256,0.5935,0.0,0.0
906,226.25,24.9425,26.8702,154.546,116.52,108.999,-0.00727836,0.186695,20.7511,424.216,0.597641,0.0,0.0
912,227.75,25.6542,27.4,157.575,116.402,108.48,-0.00741578,0.193692,20.7421,424.176,0.631368,0.0,0.0
918,229.25,25.6838,27.7876,153.702,116.393,108.997,-0.00754826,0.201515,20.7344,424.126,0.588093,0.0,0.0
924,230.75,26.3389,28.6023,152.597,116.439,107.566,-0.00757086,0.208246,20.7245,424.096,0.709959,0.0,0.0
930,232.25,26.2887,28.6378,149.692,116.418,108.16,-0.00751746,0.217267,20.7101,424.016,0.659023,0.0,0.0
936,233.75,26.964,29.3822,151.621,116.464,105.899,-0.00745267,0.226717,20.6914,423.975,0.85182,0.0,0.0
942,235.25,27.8228,30.1775,150.902,116.479,107.224,-0.00738353,0.238306,20.6657,423.905,0.741616,0.0,0.0
948,236.75,28.4632,30.6874,151.721,116.505,104.652,-0.00724284,0.251376,20.6374,423.855,0.961083,0.0,0.0
954,238.25,28.8009,31.4563,152.256,116.531,102.816,-0.006988,0.266479,20.6105,423.765,1.1216,0.0,0.0
960,239.75,29.8463,32.1442,147.155,116.566,103.935,-0.00669072,0.280252,20.5876,423.715,1.02731,0.0,0.0
966,241.25,30.213,33.1628,144.869,116.596,101.39,-0.00645214,0.295363,20.5626,423.625,1.25174,0.0,0.0
972,242.75,30.7692,33.9195,147.015,116.618,100.675,-0.00627316,0.308096,20.5335,423.575,1.31682,0.0,0.0
978,244.25,31.6952,34.7681,150.264,116.642,99.7535,-0.00611981,0.323344,20.4986,423.485,1.401,0.0,0.0
984,245.75,32.2627,35.3488,143.908,116.664,99.3697,-0.00590017,0.340887,20.4662,423.405,1.43716,0.0,0.0
990,247.25,32.1078,35.5208,143.637,116.682,99.4076,-0.00563472,0.358341,20.4355,423.335,1.43515,0.0,0.0
996,248.75,34.1863,37.3489,140.868,116.694,95.5755,-0.0052481,0.376179,20.4091,423.215,1.78819,0.0,0.0
1002,250.25,33.9344,38.3126,142.351,116.716,95.8423,-0.00482125,0.391244,20.3882,423.135,1.76495,0.0,0.0
1008,251.75,34.7967,38.0644,136.889,116.742,96.0883,-0.00441699,0.406212,20.368,423.035,1.74394,0.0,0.0
1014,253.25,36.7942,40.2622,144.577,116.762,95.9746,-0.00415363,0.418471,20.3489,422.935,1.7561,0.0,0.0
1020,254.75,37.2698,41.5584,147.934,116.76,93.8492,-0.0039848,0.43003,20.3338,422.875,1.95654,0.0,0.0
1026,256.25,38.3358,42.5167,141.389,116.791,92.7408,-0.00383423,0.440014,20.3199,422.764,2.06534,0.0,0.0
1032,257.75,38.9165,43.3654,137.596,116.795,92.5757,-0.0036008,0.450557,20.3,422.704,2.08159,0.0,0.0
1038,259.25,39.8089,44.3852,140.455,116.82,94.2668,-0.00328208,0.461042,20.2793,422.524,1.92139,0.0,0.0
1044,260.75,40.5123,45.3083,136.928,116.815,92.6146,-0.00291199,0.471466,20.2642,422.444,2.07935,0.0,0.0
1050,262.25,41.2941,46.3389,142.142,116.831,93.5695,-0.00251023,0.480787,20.2516,422.374,1.98873,0.0,0.0
1056,263.75,41.6954,47.1709,141.955,116.823,91.2675,-0.00220263,0.490006,20.2359,422.204,2.21124,0.0,0.0
1062,265.25,42.6346,48.2408,138.116,116.829,92.0111,-0.00195335,0.49989,20.2168,422.144,2.13902,0.0,0.0
1068,266.75,44.1852,48.6606,141.13,116.817,90.4333,-0.00173235,0.50975,20.1996,422.014,2.29302,0.0,0.0
1074,268.25,44.2243,50.1961,140.006,116.815,90.6455,-0.00150926,0.519413,20.1844,421.934,2.27184,0.0,0.0
1080,269.75,45.2909,50.8939,137.578,116.782,89.3637,-0.00136524,0.527931,20.174,421.804,2.39692,0.0,0.0
1086,271.25,45.8738,51.7403,138.42,116.801,91.2888,-0.00123901,0.53593,20.163,421.673,2.20745,0.0,0.0
1092,272.75,46.8641,52.9303,140.083,116.762,94.3575,-0.00109256,0.542636,20.1507,421.573,1.90834,0.0,0.0
1098,274.25,48.3351,53.5103,138.232,116.768,92.8573,-0.000903324,0.549561,20.1424,421.433,2.05229,0.0,0.0
1104,275.75,48.4911,54.7914,134.636,116.7,91.3068,-0.000710902,0.557754,20.131,421.363,2.19796,0.0,0.0
1110,277.25,49.2806,55.7416,136.131,116.679,89.7817,-0.000629146,0.566786,20.1173,421.273,2.34721,0.0,0.0
1116,278.75,49.655,56.7434,133.37,116.657,92.2021,-0.000650659,0.573967,20.1082,421.123,2.10727,0.0,0.0
1122,280.25,51.0947,58.0895,136.91,116.606,92.8222,-0.000691494,0.580466,20.0997,420.943,2.04325,0.0,0.0
1128,281.75,51.6671,58.6509,139.953,116.555,93.569,-0.000705491,0.585831,20.0901,420.893,1.96757,0.0,0.0
1134,283.25,51.9149,59.1307,133.873,116.514,94.5341,-0.000697539,0.592208,20.0812,420.763,1.87254,0.0,0.0
1140,284.75,53.1276,59.8788,134.65,116.474,91.1362,-0.000691067,0.5976,20.0727,420.653,2.19735,0.0,0.0
1146,286.25,54.1081,61.6058,131.158,116.43,89.6939,-0.00066696,0.603683,20.0637,420.502,2.33684,0.0,0.0
1152,287.75,53.6604,61.564,135.368,116.375,93.1755,-0.000579931,0.609371,20.0549,420.422,1.99149,0.0,0.0
1158,289.25,55.5532,63.3286,131.522,116.316,90.1998,-0.000429134,0.615449,20.0422,420.292,2.27766,0.0,0.0
1164,290.75,56.0842,63.9741,130.109,116.271,90.7736,-0.000212735,0.62293,20.0266,420.162,2.21741,0.0,0.0
1170,292.25,56.9406,65.0351,136.572,116.202,90.5933,-4.60821e-05,0.630684,20.0154,419.982,2.22989,0.0,0.0
1176,293.75,57.8416,65.5346,133.077,116.151,89.4086,6.60113e-05,0.637088,20.0088,419.862,2.34392,0.0,0.0
1182,295.25,58.7612,66.6531,137.036,116.091,90.5225,0.000119649,0.641571,20.0026,419.722,2.22836,0.0,0.0
1188,296.75,58.8598,67.777,132.786,116.041,90.4203,7.55409e-05,0.647838,19.9897,419.612,2.23463,0.0,0.0
1194,298.25,59.8775,68.6032,134.273,115.968,90.6113,-7.20886e-06,0.656839,19.9738,419.472,2.2101,0.0,0.0
1200,299.75,60.6156,69.994,136.687,115.932,90.9179,-5.11577e-05,0.665184,19.9602,419.361,2.17704,0.0,0.0
1206,301.25,61.638,71.1215,125.791,115.851,92.3038,-1.70422e-05,0.674558,19.9437,419.211,2.03524,0.0,0.0
1212,302.75,62.4936,71.6136,134.396,115.817,91.7743,3.56796e-05,0.68478,19.9275,419.071,2.08418,0.0,0.0
1218,304.25,62.9258,72.3751,132.942,115.751,90.7787,0.00021916,0.694787,19.9107,418.941,2.17679,0.0,0.0
1224,305.75,63.8923,73.4373,132.069,115.706,89.4751,0.000397514,0.706093,19.8877,418.721,2.30281,0.0,0.0
1230,307.25,65.2968,74.5677,129.381,115.647,90.0301,0.00065303,0.718226,19.8649,418.621,2.24288,0.0,0.0
1236,308.75,65.514,75.2319,126.459,115.606,87.4405,0.00100662,0.73179,19.8382,418.471,2.50109,0.0,0.0
1242,310.25,66.4574,76.6089,132.361,115.563,87.9071,0.00128079,0.74473,19.8201,418.32,2.4501,0.0,0.0
1248,311.75,67.4352,78.1806,132.003,115.526,88.9429,0.00152201,0.758838,19.8013,418.21,2.34229,0.0,0.0
1254,313.25,68.1921,78.0822,124.108,115.47,87.0372,0.00166156,0.770201,19.7782,418.01,2.53195,0.0,0.0
1260,314.75,68.8455,79.657,124.416,115.448,90.5045,0.00177112,0.784812,19.7488,417.86,2.1804,0.0,0.0
1266,316.25,70.1717,80.2883,124.303,115.415,90.1628,0.00183816,0.802448,19.7189,417.76,2.21173,0.0,0.0
1272,317.75,70.6724,82.1439,122.462,115.366,87.6962,0.00198891,0.824423,19.6867,417.54,2.45639,0.0,0.0
1278,319.25,71.9183,83.3339,126.639,115.328,88.4823,0.00210737,0.837233,19.6644,417.41,2.37349,0.0,0.0
1284,320.75,73.0589,84.3087,125.387,115.309,89.4983,0.00218358,0.850978,19.6458,417.25,2.2697,0.0,0.0
1290,322.25,74.2787,85.5775,127.686,115.286,89.3822,0.00219749,0.865225,19.626,417.049,2.27957,0.0,0.0
1296,323.75,74.9466,86.7537,124.599,115.264,89.464,0.00220058,0.878717,19.6095,416.849,2.26965,0.0,0.0
1302,325.25,76.2213,88.2224,115.056,115.253,90.5609,0.00225729,0.890654,19.5982,416.729,2.15969,0.0,0.0
1308,326.75,76.2084,88.3659,116.668,115.234,89.7933,0.00237995,0.9032,19.5791,416.489,2.2344,0.0,0.0
1314,328.25,78.1501,90.4141,115.993,115.229,88.757,0.00253148,0.91325,19.5565,416.339,2.33805,0.0,0.0
1320,329.75,79.4757,91.8324,126.622,115.22,86.4495,0.00263589,0.926997,19.5316,416.209,2.57323,0.0,0.0
1326,331.25,80.0784,92.9999,124.452,115.215,90.0171,0.0027038,0.940618,19.507,416.018,2.21064,0.0,0.0
1332,332.75,80.8504,94.1212,120.847,115.204,86.5947,0.00271741,0.954633,19.4835,415.828,2.55699,0.0,0.0
1338,334.25,81.8032,95.5705,121.93,115.22,89.9394,0.00267867,0.968787,19.4651,415.688,2.21878,0.0,0.0
1344,335.75,82.7693,96.6843,124.152,115.223,87.8178,0.00267777,0.986875,19.434,415.428,2.43282,0.0,0.0
1350,337.25,84.4298,98.1705,115.49,115.234,87.0821,0.00285581,0.998837,19.4137,415.318,2.50903,0.0,0.0
1356,338.75,84.946,99.4189,113.944,115.243,87.489,0.00317737,1.0148,19.3865,415.088,2.46796,0.0,0.0
1362,340.25,86.1296,100.28,119.996,115.26,88.2395,0.00345406,1.03069,19.3595,414.867,2.39277,0.0,0.0
1368,341.75,86.3363,101.039,118.479,115.285,85.0039,0.00365102,1.04296,19.3443,414.747,2.7294,0.0,0.0
1374,343.25,88.0554,103.109,117.722,115.308,87.4414,0.00378881,1.05552,19.3189,414.517,2.47789,0.0,0.0
1380,344.75,89.5894,104.045,115.98,115.331,87.7568,0.00392949,1.07263,19.2923,414.357,2.44746,0.0,0.0
1386,346.25,90.2354,105.491,114.285,115.379,87.2005,0.00412957,1.08979,19.2681,414.117,2.50812,0.0,0.0
1392,347.75,91.7506,107.096,110.81,115.414,86.1813,0.00429831,1.10272,19.2457,413.907,2.6162,0.0,0.0
1398,349.25,92.1185,107.63,113.186,115.448,88.6354,0.00443405,1.1174,19.2184,413.666,2.36729,0.0,0.0
1404,350.75,93.7066,109.835,117.087,115.468,88.6756,0.00455086,1.13289,19.1991,413.526,2.36476,0.0,0.0
1410,352.25,94.8635,111.448,108.719,115.519,86.2331,0.00469986,1.1457,19.1816,413.316,2.61896,0.0,0.0
1416,353.75,95.2035,111.688,106.728,115.555,87.4812,0.00486554,1.15967,19.1566,413.156,2.49302,0.0,0.0
1422,355.25,97.2778,114.034,105.061,115.618,88.3524,0.00503566,1.17574,19.1285,412.886,2.40915,0.0,0.0
1428,356.75,97.8601,115.46,113.434,115.649,87.8969,0.00516385,1.1926,19.1035,412.706,2.45785,0.0,0.0
1434,358.25,99.7044,117.205,108.758,115.694,88.8971,0.00522083,1.20854,19.0834,412.545,2.35999,0.0,0.0
1440,359.75,100.225,118.273,111.049,115.743,86.8347,0.00518495,1.2242,19.0604,412.235,2.57404,0.0,0.0
1446,361.25,102.009,119.916,111.719,115.784,89.0576,0.00509065,1.23679,19.0408,412.045,2.3508,0.0,0.0
1452,362.75,102.433,120.836,113.137,115.84,87.4344,0.00508312,1.25113,19.0134,411.905,2.51985,0.0,0.0
1458,364.25,103.812,122.283,113.032,115.89,87.4881,0.00523932,1.26635,18.9846,411.625,2.51825,0.0,0.0
1464,365.75,105.351,124.117,114.05,115.935,89.1468,0.00552969,1.28096,18.9677,411.414,2.3535,0.0,0.0
1470,367.25,106.182,125.617,105.706,115.997,86.0684,0.0057634,1.29206,18.9564,411.244,2.67301,0.0,0.0
1476,368.75,107.99,126.279,112.155,116.039,86.7427,0.00596611,1.30268,18.9482,410.964,2.60638,0.0,0.0
1482,370.25,108.345,127.584,114.691,116.1,87.8835,0.00613812,1.31415,18.9245,410.734,2.49407,0.0,0.0
1488,371.75,109.248,129.39,105.505,116.152,85.4793,0.00634648,1.32976,18.8954,410.564,2.74651,0.0,0.0
1494,373.25,110.338,130.552,109.024,116.194,85.366,0.00654407,1.34675,18.8693,410.363,2.76166,0.0,0.0
1500,374.75,111.355,131.924,108.649,116.259,87.403,0.00663884,1.36106,18.8487,410.023,2.55544,0.0,0.0
1506,376.25,113.567,133.086,113.025,116.327,86.9554,0.00666689,1.37526,18.824,409.843,2.60665,0.0,0.0
1512,377.75,113.287,133.822,107.852,116.363,87.9195,0.00673668,1.39247,18.7979,409.643,2.51067,0.0,0.0
1518,379.25,115.034,136.152,107.777,116.418,87.0529,0.00683597,1.4054,18.7835,409.403,2.6036,0.0,0.0
1524,380.75,115.392,136.654,107.002,116.486,88.6109,0.00703039,1.41701,18.7648,409.152,2.44993,0.0,0.0
1530,382.25,117.338,138.531,103.794,116.532,88.2067,0.00733133,1.43405,18.7302,408.932,2.49446,0.0,0.0
1536,383.75,118.745,140.894,98.7566,116.578,87.4996,0.00766546,1.45351,18.6965,408.662,2.57009,0.0,0.0
1542,385.25,119.673,141.596,108.384,116.621,87.9672,0.00797232,1.47204,18.6691,408.502,2.52565,0.0,0.0
1548,386.75,121.233,143.198,103.299,116.682,87.8904,0.00826662,1.49018,18.6457,408.252,2.53817,0.0,0.0
1554,388.25,121.872,143.747,107.157,116.724,86.6358,0.00844602,1.5076,18.6188,408.031,2.67012,0.0,0.0
1560,389.75,123.237,146.363,106.82,116.768,86.9679,0.00851921,1.52232,18.5986,407.751,2.63929,0.0,0.0
1566,391.25,124.351,147.763,103.525,116.806,86.4629,0.00862639,1.53301,18.5876,407.531,2.6943,0.0,0.0
1572,392.75,125.602,148.923,106.391,116.85,85.8035,0.00883047,1.54266,18.5767,407.251,2.76631,0.0,0.0
1578,394.25,126.806,150.198,104.835,116.896,85.2869,0.0092967,1.55647,18.5533,406.95,2.82389,0.0,0.0
1584,395.75,127.664,151.313,96.653,116.943,85.0807,0.0099057,1.57282,18.5158,406.81,2.84915,0.0,0.0
1590,397.25,128.735,152.811,110.559,117.008,84.1813,0.0102407,1.59591,18.4749,406.49,2.94935,0.0,0.0
1596,398.75,129.95,153.997,98.7887,117.041,85.1598,0.0103804,1.62461,18.436,406.27,2.84839,0.0,0.0
1602,400.25,130.892,154.874,97.1934,117.113,86.5003,0.0103663,1.64107,18.41,406,2.714,0.0,0.0
1608,401.75,131.853,156.667,105.106,117.147,85.0391,0.0104622,1.65416,18.3945,405.689,2.86916,0.0,0.0
1614,403.25,133.478,158.264,99.5833,117.218,86.0176,0.0107661,1.66536,18.371,405.369,2.77215,0.0,0.0
1620,404.75,134.109,159.277,105.269,117.266,84.6183,0.0111528,1.68272,18.3297,405.209,2.9227,0.0,0.0
1626,406.25,135.159,160.597,103.384,117.314,84.0823,0.0114084,1.70677,18.2943,404.929,2.98331,0.0,0.0
1632,407.75,136.172,161.968,104.732,117.358,84.6784,0.0116834,1.72862,18.2679,404.598,2.92338,0.0,0.0
1638,409.25,138.025,163.927,105.306,117.399,83.5279,0.0118144,1.74224,18.25,404.348,3.04904,0.0,0.0
1644,410.75,138.875,164.94,93.4137,117.426,85.0284,0.0118057,1.76431,18.2102,404.128,2.89163,0.0,0.0
1650,412.25,139.619,165.747,94.7151,117.468,87.1371,0.0117799,1.78805,18.1768,403.818,2.6754,0.0,0.0
1656,413.75,141.002,167.725,99.9214,117.491,83.7771,0.0117912,1.80692,18.1576,403.477,3.02939,0.0,0.0
1662,415.25,142.342,169.397,98.749,117.506,83.4344,0.0118488,1.8191,18.1493,403.247,3.06724,0.0,0.0
1668,416.75,142.522,169.81,98.6261,117.521,86.0042,0.0119729,1.82654,18.1421,402.937,2.79661,0.0,0.0
1674,418.25,144.557,172.116,101.313,117.555,86.1924,0.0121846,1.83474,18.1312,402.797,2.77968,0.0,0.0
1680,419.75,145.535,173.679,102.708,117.548,85.8617,0.0124701,1.84238,18.1257,402.506,2.81357,0.0,0.0
1686,421.25,146.405,174.808,95.7898,117.578,85.5001,0.012714,1.8462,18.126,402.156,2.85363,0.0,0.0
1692,422.75,146.689,175.734,103.968,117.586,83.4719,0.0128742,1.84528,18.1319,401.916,3.06925,0.0,0.0
1698,424.25,147.551,176.352,100.999,117.6,85.8187,0.0129737,1.84266,18.138,401.696,2.822,0.0,0.0
1704,425.75,149.407,177.934,102.484,117.6,84.523,0.0130541,1.84114,18.1412,401.426,2.95824,0.0,0.0
1710,427.25,149.387,178.227,102.056,117.617,83.637,0.0131044,1.84057,18.1429,401.195,3.05395,0.0,0.0
1716,428.75,151.085,179.926,93.4068,117.61,84.979,0.0131339,1.83973,18.1451,400.855,2.91087,0.0,0.0
1722,430.25,151.572,181.106,102.144,117.606,84.8851,0.0131089,1.83812,18.1479,400.615,2.92041,0.0,0.0
1728,431.75,152.05,182.106,94.7838,117.607,85.3877,0.0128949,1.83338,18.16,400.365,2.86764,0.0,0.0
1734,433.25,153.57,182.869,94.0434,117.606,85.0576,0.0125249,1.82156,18.1906,400.024,2.90223,0.0,0.0
1740,434.75,153.36,183.496,102.889,117.589,85.692,0.0122649,1.8088,18.2089,399.814,2.83441,0.0,0.0
1746,436.25,154.165,183.949,105.67,117.581,84.32,0.0120337,1.79789,18.2246,399.524,2.97838,0.0,0.0
1752,437.75,154.884,184.801,101.664,117.571,84.2007,0.0118724,1.78764,18.242,399.314,2.99027,0.0,0.0
1758,439.25,155.349,185.587,101.807,117.56,84.2025,0.011687,1.77854,18.2555,399.073,2.98925,0.0,0.0
1764,440.75,155.88,186.065,98.4941,117.544,86.2187,0.0115112,1.77052,18.2715,398.783,2.77608,0.0,0.0
1770,442.25,156.192,186.065,97.2919,117.52,85.0751,0.0113651,1.75981,18.2921,398.523,2.89382,0.0,0.0
1776,443.75,156.025,186.45,107.644,117.508,85.0557,0.0111691,1.74308,18.3234,398.273,2.895,0.0,0.0
1782,445.25,156.313,186.731,106.992,117.481,85.8257,0.0109377,1.72137,18.367,398.023,2.81217,0.0,0.0
1788,446.75,156.756,186.916,102.658,117.457,85.6976,0.0106379,1.69976,18.4084,397.812,2.82375,0.0,0.0
1794,448.25,156.812,187.196,103.967,117.435,85.8918,0.0102812,1.67126,18.459,397.602,2.80182,0.0,0.0
1800,449.75,157.16,186.787,110.824,117.419,86.9928,0.0098877,1.64005,18.5135,397.342,2.68651,0.0,0.0
1806,451.25,156.679,186.94,107.384,117.38,85.5686,0.00951793,1.61109,18.558,397.142,2.8314,0.0,0.0
1812,452.75,156.952,186.669,105.35,117.376,84.3232,0.00914736,1.58445,18.5954,396.892,2.96235,0.0,0.0
1818,454.25,156.157,186.195,108.188,117.329,85.4039,0.00886862,1.55675,18.6473,396.661,2.84469,0.0,0.0
1824,455.75,156.352,185.506,109.62,117.34,88.5595,0.00869772,1.5246,18.7012,396.431,2.5206,0.0,0.0
1830,457.25,156.295,184.843,106.783,117.297,88.2992,0.00856462,1.49052,18.7532,396.241,2.5437,0.0,0.0
1836,458.75,155.348,184.358,111.799,117.281,86.7519,0.00835423,1.46117,18.7909,396.041,2.70076,0.0,0.0
1842,460.25,154.849,183.59,115.059,117.259,84.2765,0.00809788,1.42648,18.8421,395.871,2.95844,0.0,0.0
1848,461.75,154.345,182.937,110.873,117.245,86.7852,0.00767576,1.39345,18.8937,395.57,2.69459,0.0,0.0
1854,463.25,152.744,180.946,104.751,117.229,88.7038,0.00721925,1.35914,18.9449,395.47,2.49753,0.0,0.0
1860,464.75,153.661,180.501,111.487,117.204,87.2458,0.00667336,1.32331,19.0116,395.23,2.64405,0.0,0.0
1866,466.25,152.739,179.909,116.3,117.186,86.6502,0.00616306,1.28155,19.0936,395.03,2.70407,0.0,0.0
1872,467.75,151.667,178.682,113.96,117.182,84.5531,0.00573989,1.23714,19.1723,394.92,2.9232,0.0,0.0
1878,469.25,150.825,177.137,117.331,117.166,88.1387,0.00546823,1.19574,19.2475,394.7,2.54992,0.0,0.0
1884,470.75,149.726,175.52,119.473,117.156,88.1762,0.00526006,1.14548,19.3273,394.489,2.5454,0.0,0.0
1890,472.25,148.146,173.915,122.785,117.134,87.0317,0.00504117,1.09767,19.4038,394.499,2.66069,0.0,0.0
1896,473.75,147.232,172.341,122.579,117.122,87.5713,0.00480304,1.05102,19.4838,394.229,2.60446,0.0,0.0
1902,475.25,146.46,170.548,118.768,117.132,88.0347,0.00451118,1.00304,19.5584,394.119,2.55791,0.0,0.0
1908,476.75,144.438,168.745,127.267,117.108,89.0321,0.00420545,0.961316,19.622,393.979,2.45519,0.0,0.0
1914,478.25,142.256,165.797,122.478,117.101,88.6409,0.00391259,0.923498,19.6846,393.839,2.4941,0.0,0.0
1920,479.75,141.636,164.503,125.881,117.1,83.7692,0.00370356,0.881781,19.7506,393.739,3.00032,0.0,0.0
1926,481.25,140.054,162.623,127.574,117.081,86.0375,0.00353092,0.844813,19.8081,393.659,2.75961,0.0,0.0
1932,482.75,137.647,159.597,128.121,117.054,87.5436,0.00340975,0.809761,19.8523,393.448,2.60208,0.0,0.0
1938,484.25,136.68,158.294,122.566,117.064,82.9494,0.00318104,0.775952,19.8944,393.368,3.08565,0.0,0.0
1944,485.75,135.707,155.953,129.845,117.038,87.7794,0.00264832,0.749372,19.9399,393.188,2.57676,0.0,0.0
1950,487.25,133.467,153.869,132.664,117.041,87.3535,0.00187129,0.712089,20.0161,393.138,2.6205,0.0,0.0
1956,488.75,132.027,151.657,132.287,117.024,90.0657,0.000731738,0.668441,20.1134,393.038,2.34533,0.0,0.0
1962,490.25,129.106,148.745,142.215,117.029,94.2497,-0.000416986,0.61336,20.2196,392.998,1.93903,0.0,0.0
1968,491.75,128.351,147.231,137.233,117.001,98.0523,-0.00172049,0.554511,20.3355,392.948,1.58262,0.0,0.0
1974,493.25,126.133,144.034,145.816,117.002,103.306,-0.00296242,0.485798,20.4562,392.958,1.11513,0.0,0.0
1980,494.75,123.715,141.413,148.282,116.987,105.26,-0.00399141,0.419067,20.5632,392.948,0.946162,0.0,0.0
1986,496.25,121.528,138.391,149.605,116.994,105.877,-0.00478721,0.361586,20.6537,392.928,0.894402,0.0,0.0
1992,497.75,119.155,135.03,150.585,116.974,106.744,-0.00547877,0.313739,20.7208,392.918,0.819797,0.0,0.0
1998,499.25,116.596,132.343,152.074,116.973,105.714,-0.00596694,0.276332,20.7652,392.918,0.906486,0.0,0.0
2004,500.75,114.117,128.888,151.839,116.96,104.018,-0.00623982,0.24768,20.7965,392.908,1.05039,0.0,0.0
2010,502.25,111.893,126.512,151.731,116.956,104.016,-0.00639322,0.225337,20.8204,392.908,1.05023,0.0,0.0
2016,503.75,109.611,123.687,151.025,116.938,105.841,-0.00652471,0.206661,20.8395,392.918,0.893126,0.0,0.0
2022,505.25,107.746,121.357,149.411,116.934,105.976,-0.00670961,0.190117,20.8555,392.918,0.881345,0.0,0.0
2028,506.75,105.144,118.588,151.981,116.918,107.625,-0.0069875,0.174769,20.8703,392.908,0.741851,0.0,0.0
2034,508.25,103.894,116.07,153.586,116.915,108.121,-0.00732818,0.161343,20.8872,392.898,0.700398,0.0,0.0
2040,509.75,101.649,113.653,156.163,116.909,107.977,-0.0076119,0.148075,20.9031,392.878,0.711851,0.0,0.0
2046,511.25,99.2087,110.393,155.124,116.919,108.109,-0.00779684,0.137529,20.9137,392.888,0.701718,0.0,0.0
2052,512.75,97.2522,108.276,152.827,116.89,108.258,-0.00794508,0.128001,20.9245,392.898,0.687192,0.0,0.0
2058,514.25,95.167,106.154,156.137,116.896,108.32,-0.00800958,0.120573,20.9338,392.888,0.682496,0.0,0.0
2064,515.75,93.1392,103.526,155.439,116.888,109.606,-0.00801202,0.112783,20.9433,392.918,0.576165,0.0,0.0
2070,517.25,90.9835,100.665,154.139,116.878,108.264,-0.00799228,0.106288,20.952,392.918,0.685754,0.0,0.0
2076,518.75,90.0964,99.0289,157.2,116.871,109.052,-0.00802636,0.0997147,20.9558,392.908,0.620259,0.0,0.0
2082,520.25,88.7024,97.1926,153.811,116.859,108.861,-0.00809812,0.0938732,20.9599,392.918,0.635056,0.0,0.0
2088,521.75,85.7063,94.6907,158.707,116.845,109.588,-0.0081535,0.090129,20.9644,392.908,0.574323,0.0,0.0
2094,523.25,84.9157,93.0149,155.05,116.819,108.353,-0.00816675,0.0856259,20.9682,392.908,0.673828,0.0,0.0
2100,524.75,84.5052,91.4868,155.932,116.815,109.455,-0.00817748,0.0819447,20.9713,392.918,0.582905,0.0,0.0
2106,526.25,82.8031,89.759,154.365,116.817,108.811,-0.00820087,0.0790417,20.9731,392.918,0.635993,0.0,0.0
2112,527.75,81.5664,88.1315,159.863,116.796,109.287,-0.00824493,0.0762592,20.9745,392.918,0.595171,0.0,0.0
2118,529.25,79.2757,85.0727,153.28,116.781,109.416,-0.00838818,0.073897,20.976,392.928,0.583449,0.0,0.0
2124,530.75,78.6855,84.5614,161.872,116.781,109.602,-0.00855026,0.0719706,20.9779,392.928,0.568281,0.0,0.0
2130,532.25,77.2422,83.0576,153.993,116.759,108.794,-0.0086623,0.0701415,20.9789,392.928,0.632813,0.0,0.0
2136,533.75,76.3201,81.5064,154.934,116.759,108.843,-0.00872906,0.0685659,20.9804,392.928,0.628854,0.0,0.0
2142,535.25,75.5342,80.3237,157.363,116.73,109.467,-0.00879387,0.0671435,20.9813,392.928,0.575422,0.0,0.0
2148,536.75,74.3768,78.9324,152.425,116.748,109.009,-0.00885306,0.0657623,20.9818,392.938,0.614408,0.0,0.0
2154,538.25,72.5518,77.4676,151.22,116.728,109.055,-0.00886751,0.0645742,20.982,392.928,0.608983,0.0,0.0
2160,539.75,72.5567,76.2976,158.852,116.724,109.251,-0.00884435,0.0636415,20.9828,392.928,0.592642,0.0,0.0
2166,541.25,71.0378,74.6877,158.994,116.711,108.968,-0.00883081,0.0628342,20.9836,392.928,0.614826,0.0,0.0
2172,542.75,70.496,73.6649,157.659,116.695,109.3,-0.00881451,0.0619531,20.9841,392.938,0.586382,0.0,0.0
2178,544.25,68.9485,72.1674,152.761,116.692,109.059,-0.00880871,0.0612234,20.9843,392.948,0.605932,0.0,0.0
2184,545.75,68.7221,71.0142,155.785,116.704,109.254,-0.00884723,0.060494,20.9845,392.928,0.590933,0.0,0.0
2190,547.25,67.0054,70.191,156.29,116.69,109.538,-0.00894438,0.0599491,20.9845,392.928,0.566526,0.0,0.0
2196,548.75,66.1852,69.2289,158.446,116.685,108.923,-0.0090439,0.0595616,20.9846,392.928,0.616564,0.0,0.0
2202,550.25,65.8977,68.2463,157.498,116.682,109.07,-0.00909615,0.059154,20.9854,392.928,0.604263,0.0,0.0
2208,551.75,64.6972,67.0286,155.133,116.677,108.961,-0.00910538,0.05864,20.9855,392.938,0.612833,0.0,0.0
2214,553.25,63.1575,64.7586,158.103,116.661,109.978,-0.00909836,0.0580915,20.9855,392.928,0.528398,0.0,0.0
2220,554.75,63.5843,65.1092,160.999,116.668,108.585,-0.00907032,0.057692,20.9856,392.928,0.643103,0.0,0.0
2226,556.25,62.7455,64.171,157.476,116.666,108.843,-0.00900334,0.0573608,20.9856,392.948,0.621737,0.0,0.0
2232,557.75,61.1001,62.7754,157.247,116.643,109.365,-0.00892378,0.0569782,20.9856,392.938,0.577142,0.0,0.0
2238,559.25,60.9254,61.8816,157.879,116.676,110.094,-0.00888696,0.0565926,20.9864,392.938,0.520105,0.0,0.0
2244,560.75,60.4755,61.9268,155.259,116.703,108.966,-0.00886449,0.0562966,20.9871,392.948,0.614437,0.0,0.0
2250,562.25,60.038,60.7697,151.191,116.729,109.582,-0.008824,0.0560708,20.9875,392.938,0.565934,0.0,0.0
2256,563.75,59.2245,60.2047,154.136,116.747,110.164,-0.00878735,0.0559577,20.9872,392.928,0.519917,0.0,0.0
2262,565.25,58.078,58.3176,156.855,116.79,109.206,-0.00877932,0.0556936,20.9866,392.918,0.601373,0.0,0.0
2268,566.75,57.8384,58.4501,153.096,116.811,108.552,-0.00879608,0.0554995,20.9861,392.928,0.656866,0.0,0.0
2274,568.25,57.3958,57.7341,157.328,116.849,110.346,-0.00884752,0.055411,20.9859,392.938,0.51291,0.0,0.0
2280,569.75,56.6257,57.0803,154.991,116.864,110.518,-0.00890294,0.0552661,20.9862,392.918,0.500112,0.0,0.0
2286,571.25,56.6485,56.5278,158.264,116.899,109.85,-0.00894499,0.0551424,20.987,392.928,0.557139,0.0,0.0
2292,572.75,55.7877,56.0673,159.271,116.905,109.643,-0.00896188,0.0549351,20.9866,392.938,0.574441,0.0,0.0
2298,574.25,55.4952,55.2229,156.477,116.927,110.341,-0.00893155,0.0547609,20.9849,392.948,0.519312,0.0,0.0
2304,575.75,54.8212,54.6592,157.498,116.943,109.551,-0.00889206,0.0546122,20.9839,392.938,0.584884,0.0,0.0
2310,577.25,54.3667,54.4565,158.265,116.968,109.672,-0.00887135,0.0544127,20.9841,392.938,0.576895,0.0,0.0
2316,578.75,54.0621,53.3284,154.132,116.976,109.889,-0.00894312,0.0541362,20.9842,392.938,0.559811,0.0,0.0
2322,580.25,53.5049,52.9906,161.76,117.001,110.897,-0.00904812,0.0539228,20.9841,392.948,0.47996,0.0,0.0
2328,581.75,53.0802,52.4405,158.54,117.023,110.684,-0.00916923,0.0537269,20.9841,392.938,0.498852,0.0,0.0
2334,583.25,52.6812,51.8097,155.621,117.042,109.98,-0.00921223,0.053563,20.9841,392.938,0.557432,0.0,0.0
2340,584.75,51.8604,50.8498,158.037,117.057,109.808,-0.00918272,0.0534672,20.9845,392.948,0.572608,0.0,0.0
2346,586.25,51.6618,50.595,160.096,117.07,109.907,-0.00914472,0.0534163,20.9854,392.938,0.56551,0.0,0.0
2352,587.75,51.1801,50.2621,161.199,117.095,110.115,-0.0091095,0.0532177,20.9859,392.938,0.550474,0.0,0.0
2358,589.25,50.8057,49.9023,159.289,117.114,111.035,-0.00903374,0.0530025,20.9846,392.948,0.477406,0.0,0.0
2364,590.75,50.4135,49.4287,158.48,117.139,110.827,-0.00893962,0.0528909,20.9837,392.938,0.496153,0.0,0.0
2370,592.25,48.9921,47.8015,160.167,117.138,110.689,-0.0088688,0.0529013,20.984,392.948,0.507263,0.0,0.0
2376,593.75,49.8318,48.7417,158.244,117.165,110.62,-0.00885602,0.0527217,20.9845,392.928,0.514892,0.0,0.0
2382,595.25,49.2072,48.3221,157.091,117.158,110.918,-0.00886336,0.0524546,20.9847,392.938,0.490196,0.0,0.0
2388,596.75,48.4129,46.6556,157.589,117.198,111.055,-0.00886467,0.0523987,20.9851,392.938,0.482207,0.0,0.0
2394,598.25,48.8786,46.8264,156.57,117.191,111.391,-0.00888431,0.0524055,20.9858,392.938,0.454629,0.0,0.0
2400,599.75,48.9043,46.8521,156.017,117.226,110.921,-0.00891486,0.0523193,20.9862,392.948,0.495224,0.0,0.0
2406,601.25,48.4336,46.4222,154.844,117.213,110.659,-0.00891026,0.0522532,20.9864,392.938,0.515379,0.0,0.0
2412,602.75,47.4082,46.1343,153.267,117.238,111.079,-0.00883766,0.0521516,20.9865,392.948,0.483324,0.0,0.0
2418,604.25,47.3663,45.0438,156.306,117.249,111.168,-0.00875638,0.0520688,20.9865,392.948,0.477104,0.0,0.0
2424,605.75,47.4775,45.2722,154.346,117.281,111.214,-0.00874451,0.0521072,20.9866,392.958,0.475753,0.0,0.0
2430,607.25,46.5218,45.173,157.177,117.282,110.702,-0.00882616,0.0520938,20.9866,392.938,0.51722,0.0,0.0
2436,608.75,46.3011,44.7298,160.074,117.299,110.871,-0.00905742,0.0519898,20.9866,392.948,0.504868,0.0,0.0
2442,610.25,46.3747,44.4597,158.317,117.299,111.662,-0.0092627,0.0519902,20.9866,392.938,0.4411,0.0,0.0
2448,611.75,46.1891,44.305,155.546,117.315,111.019,-0.00934178,0.0519722,20.9866,392.938,0.494069,0.0,0.0
2454,613.25,45.8309,43.6469,155.535,117.31,110.12,-0.00932119,0.051905,20.9866,392.938,0.566534,0.0,0.0
2460,614.75,45.9015,43.1317,155.587,117.323,111.274,-0.00927399,0.0517666,20.9866,392.938,0.474109,0.0,0.0
2466,616.25,45.1362,43.1053,157.416,117.324,111.92,-0.00923072,0.0517181,20.9866,392.938,0.422404,0.0,0.0
2472,617.75,44.7984,42.344,158.324,117.343,110.21,-0.00919012,0.0517649,20.9866,392.948,0.561756,0.0,0.0
2478,619.25,44.6692,42.1269,157.795,117.338,111.832,-0.00916471,0.0518777,20.9866,392.938,0.430514,0.0,0.0
2484,620.75,44.5344,42.5307,157.436,117.348,111.415,,0.0518933,,392.938,0.464703,0.0,0.0
2490,622.25,44.3679,42.2156,157.633,117.332,111.087,,0.0519475,,392.948,0.489917,0.0,0.0
2496,623.75,43.6473,41.8042,159.62,117.336,110.56,,,,392.958,0.532774,0.0,0.0
2502,625.25,43.2206,40.8941,159.676,117.339,110.585,,,,392.948,0.531077,0.0,0.0
2508,626.75,43.694,41.3088,157.492,117.328,111.461,,,,392.968,0.459478,0.0,0.0
2514,628.25,43.4265,41.5919,161.186,117.328,110.923,,,,392.958,0.502801,0.0,0.0
2520,629.75,43.3277,40.4009,160.125,117.323,111.236,,,,392.958,0.477237,0.0,0.0
2525,631,42.514,39.7849,164.648,117.325,111.466,,,,392.968,0.458853,0.0,0.0