File: 01_Data/HDPE/Cone/HDPE_Cone_HF50Scan_220218_R4.csv
Names,Time,Stack TC,Smoke TC,Exh Press,Smoke Comp,Smoke Meas,CO Meter,CO2 Meter,O2 Meter,Sample Mass,Ext Coeff,Start Test,Flame Verif
Chan Gain,,500,500,1,1,1,1,1,1,1,1,1.0,1.0
Offset,,0,0,0.132436,0,0,0,0,0,0,0,0.0,0.0
Gain,,1,1,25.011,15.4219,15.1528,1,1,1,1.00089,1.02113,1.0,1.0
Units,sec,C,C,Pa,%,%,%,%,%,g,/m,,
Baseline,,44.819,45.1263,151.471,116.367,112.32,-0.00848979,0.055027,20.98,-479.407,0.317176,,
3,0.5,41.7826,42.7391,153.33,116.295,113.067,-0.00847827,0.0614131,20.9709,425.066,0.25212,0.0,0.0
6,1.25,42.2748,42.4072,154.488,116.309,112.398,-0.00845437,0.0612556,20.9711,425.056,0.306412,0.0,0.0
9,2,41.563,41.9602,152.99,116.3,113.164,-0.00841728,0.0611409,20.9713,425.046,0.24483,0.0,0.0
12,2.75,41.6938,41.9274,155.498,116.266,113.423,-0.00835966,0.0610572,20.9715,425.016,0.221746,0.0,0.0
15,3.5,42.2273,42.2868,152.253,116.26,112.303,-0.00831768,0.0610187,20.9717,425.026,0.310199,0.0,0.0
18,4.25,41.8919,42.2979,151.668,116.268,112.202,-0.00826297,0.0610289,20.9719,424.986,0.318861,0.0,0.0
21,5,41.7995,42.0777,150.905,116.238,112.158,-0.00822044,0.0609768,20.972,424.976,0.320084,0.0,0.0
24,5.75,41.6057,42.4996,150.438,116.211,112.197,-0.00820577,0.0608832,20.9721,424.976,0.314804,0.0,0.0
27,6.5,41.4333,41.6536,151.393,116.192,112.379,-0.00822302,0.0608186,20.9718,424.966,0.298893,0.0,0.0
30,7.25,41.9207,41.9043,151.2,116.192,112.123,-0.00825323,0.0607242,20.9716,424.966,0.319372,0.0,0.0
33,8,42.0829,42.3477,153.848,116.171,112.634,-0.00830543,0.0606554,20.9715,424.976,0.276938,0.0,0.0
36,8.75,41.8282,42.383,152.145,116.151,112.956,-0.00835765,0.0605655,20.9714,424.996,0.249856,0.0,0.0
39,9.5,41.8507,41.8403,151.407,116.156,112.532,-0.00840565,0.0605,20.9711,424.996,0.283907,0.0,0.0
42,10.25,41.9753,42.7455,153.161,116.151,111.396,-0.00844945,0.0604323,20.9705,424.996,0.374404,0.0,0.0
45,11,41.8119,42.093,154.457,116.15,112.764,-0.0084892,0.0603413,20.9705,424.996,0.264977,0.0,0.0
48,11.75,42.0547,41.8688,156.456,116.115,112.08,-0.0085293,0.0602278,20.9706,424.976,0.316783,0.0,0.0
51,12.5,41.7402,41.755,152.578,116.108,112.9,-0.00856457,0.0600949,20.9708,424.996,0.250989,0.0,0.0
54,13.25,41.7531,42.4446,154.115,116.101,113.044,-0.00859252,0.0598988,20.9706,425.006,0.239042,0.0,0.0
57,14,41.8912,41.9671,153.438,116.102,111.713,-0.00861158,0.0597554,20.9705,424.996,0.345158,0.0,0.0
60,14.75,41.9801,42.2954,153.072,116.083,112.501,-0.00862325,0.0596501,20.9704,424.986,0.280783,0.0,0.0
63,15.5,42.1147,42.0314,153.841,116.077,112.267,-0.00861936,0.0595733,20.9704,424.966,0.29896,0.0,0.0
66,16.25,41.7413,42.1146,156.195,116.085,112.477,-0.00861325,0.05951,20.9704,424.956,0.282806,0.0,0.0
69,17,41.8625,41.8446,152.939,116.07,112.919,-0.00860322,0.0594514,20.9703,424.956,0.246507,0.0,0.0
72,17.75,42.333,42.3196,150.458,116.034,112.09,-0.00859944,0.0593947,20.9707,424.956,0.309759,0.0,0.0
75,18.5,41.6444,42.4758,152.666,116.035,111.006,-0.00861035,0.0593254,20.971,424.976,0.396872,0.0,0.0
78,19.25,41.8381,42.329,152.77,116.022,113.27,-0.00863065,0.0592374,20.9708,424.976,0.214968,0.0,0.0
81,20,42.0128,42.7117,153.161,116.029,112.492,-0.00865663,0.0591315,20.9706,424.986,0.277305,0.0,0.0
84,20.75,42.0257,42.17,150.635,115.988,112.683,-0.00867383,0.0590584,20.9706,424.986,0.258913,0.0,0.0
87,21.5,41.629,42.5361,154.531,115.978,112.123,-0.00869873,0.0590428,20.9711,424.966,0.302849,0.0,0.0
90,22.25,42.2866,42.6107,155.927,115.977,112.734,-0.00871157,0.0589718,20.9715,424.976,0.254034,0.0,0.0
93,23,41.5015,42.9099,152.408,115.98,112.665,-0.00870976,0.0588908,20.9718,424.966,0.259802,0.0,0.0
96,23.75,41.4581,42.7476,151.185,115.963,111.983,-0.00869322,0.0588142,20.972,424.966,0.312776,0.0,0.0
99,24.5,41.6636,42.666,152.008,115.951,112.108,-0.00866328,0.0587258,20.9721,424.956,0.301885,0.0,0.0
102,25.25,41.3027,42.4809,149.117,115.929,111.793,-0.00861042,0.0586614,20.9722,424.976,0.325374,0.0,0.0
105,26,41.7863,42.3307,152.278,115.94,112.119,-0.00855015,0.0586144,20.9723,425.006,0.300163,0.0,0.0
108,26.75,42.0752,42.3756,152.934,115.911,112.123,-0.00849169,0.0586358,20.9724,424.996,0.297577,0.0,0.0
111,27.5,41.725,42.7601,149.277,115.886,112.454,-0.00844581,0.0586458,20.9724,424.996,0.269236,0.0,0.0
114,28.25,41.8463,42.7995,149.571,115.87,112.263,-0.00840677,0.058603,20.9724,424.976,0.283298,0.0,0.0
117,29,41.8133,42.6639,150.04,115.859,113.172,-0.00837831,0.0585917,20.9725,424.946,0.210143,0.0,0.0
120,29.75,41.7576,42.7317,151.569,115.841,112.663,-0.00835402,0.0585834,20.9726,424.946,0.249147,0.0,0.0
123,30.5,41.901,42.2357,155.414,115.811,111.8,-0.008331,0.0586568,20.9727,424.956,0.315685,0.0,0.0
126,31.25,41.9318,42.1103,153.586,115.787,112.382,-0.00830926,0.0587103,20.9728,424.946,0.267379,0.0,0.0
129,32,41.6845,42.6764,149.42,115.777,112.755,-0.00829129,0.0588049,20.9722,424.966,0.236956,0.0,0.0
132,32.75,41.7701,42.5999,151.27,115.755,112.297,-0.00827701,0.0589269,20.9718,424.976,0.27165,0.0,0.0
135,33.5,41.3557,42.617,153.66,115.731,112.127,-0.00826936,0.059066,20.9715,424.966,0.283376,0.0,0.0
138,34.25,41.5146,42.4338,153.208,115.708,112.246,-0.00826937,0.0592468,20.9716,424.956,0.272028,0.0,0.0
141,35,42.1177,42.2783,151.136,115.689,112.688,-0.0082818,0.0594156,20.9716,424.986,0.235437,0.0,0.0
144,35.75,41.9589,42.4169,154.999,115.671,112.849,-0.00831209,0.0596021,20.9716,424.966,0.221233,0.0,0.0
147,36.5,41.5672,42.2529,152.514,115.642,112.111,-0.00838021,0.059758,20.9716,424.976,0.277709,0.0,0.0
150,37.25,41.9964,42.6031,150.37,115.613,111.992,-0.00844294,0.0598569,20.9716,424.986,0.284986,0.0,0.0
153,38,42.0424,41.9323,150.884,115.61,111.809,-0.00851102,0.059904,20.971,424.976,0.299388,0.0,0.0
156,38.75,41.8612,42.4323,153.179,115.606,112.531,-0.00855534,0.0599244,20.9705,424.976,0.241454,0.0,0.0
159,39.5,42.1276,42.1276,151.1,115.59,111.229,-0.00857896,0.0599333,20.9702,424.976,0.344506,0.0,0.0
162,40.25,42.0953,42.305,153.265,115.614,111.983,-0.00859247,0.0598405,20.97,424.956,0.285871,0.0,0.0
165,41,41.4442,42.582,145.623,115.596,112.166,-0.00858461,0.0597656,20.9698,424.966,0.269851,0.0,0.0
168,41.75,42.004,42.7891,150.18,115.619,112.149,-0.0085632,0.0596911,20.9697,424.956,0.272967,0.0,0.0
171,42.5,42.0001,43.1433,152.778,115.611,111.55,-0.00852077,0.0596243,20.9696,424.966,0.320342,0.0,0.0
174,43.25,41.9751,42.888,151.657,115.62,110.979,-0.0084106,0.0595477,20.9693,424.986,0.366936,0.0,0.0
177,44,42.0177,42.73,154.117,115.614,111.732,-0.00833006,0.0594801,20.9687,424.996,0.305941,0.0,0.0
180,44.75,42.1821,42.5271,150.185,115.632,111.151,-0.00819843,0.0594506,20.968,424.986,0.35401,0.0,0.0
183,45.5,41.6652,42.608,152.784,115.622,110.736,-0.00801569,0.059414,20.9675,425.006,0.386736,0.0,0.0
186,46.25,41.5593,42.706,154.864,115.625,110.969,-0.00781419,0.0593615,20.9672,424.966,0.368121,0.0,0.0
189,47,41.8767,42.4091,151.434,115.633,109.849,-0.00758852,0.0593034,20.9669,424.926,0.459679,0.0,0.0
192,47.75,42.0168,42.845,150.111,115.644,110.319,-0.00733909,0.0592471,20.9661,424.936,0.422289,0.0,0.0
195,48.5,42.1204,43.1224,151.964,115.639,110.942,-0.00715725,0.0592001,20.9651,424.906,0.371417,0.0,0.0
198,49.25,42.0637,42.4162,155.978,115.659,110.194,-0.00681395,0.0591659,20.9641,424.926,0.433525,0.0,0.0
201,50,41.6291,43.0416,151.354,115.648,109.313,-0.00648546,0.0590814,20.9634,424.946,0.50458,0.0,0.0
204,50.75,41.417,42.5966,150.346,115.658,109.048,-0.00621265,0.0590198,20.963,424.936,0.527123,0.0,0.0
207,51.5,41.9907,42.7371,153.661,115.662,108.614,-0.00588092,0.0590146,20.9626,424.936,0.563113,0.0,0.0
210,52.25,42.2354,43.0679,152.278,115.654,108.77,-0.00552299,0.0590247,20.9616,424.936,0.549687,0.0,0.0
213,53,42.2221,42.6444,153.934,115.661,108.882,-0.00516037,0.059038,20.9607,424.916,0.54095,0.0,0.0
216,53.75,42.2185,42.8266,151.865,115.673,107.902,-0.0047371,0.0590676,20.96,424.916,0.622908,0.0,0.0
219,54.5,41.8938,42.8128,148.876,115.689,108.22,-0.00436078,0.0590891,20.959,424.886,0.597779,0.0,0.0
222,55.25,42.1749,42.9421,150.627,115.671,108.617,-0.00392175,0.0592636,20.9581,424.906,0.563576,0.0,0.0
225,56,42.0653,42.7255,150.801,115.677,108.186,-0.00358145,0.0594787,20.9563,424.916,0.599664,0.0,0.0
228,56.75,42.1821,42.9448,147.002,115.692,107.875,-0.00329872,0.0597859,20.954,424.896,0.626671,0.0,0.0
231,57.5,41.8657,43.0344,149.538,115.707,106.41,-0.00318077,0.060924,20.9507,424.886,0.750273,0.0,0.0
234,58.25,42.5025,43.3021,149.35,115.694,105.92,-0.00313236,0.0630338,20.9436,424.856,0.790606,0.0,0.0
237,59,42.245,42.8739,150.995,115.691,110.491,-0.0033627,0.0667608,20.9332,424.796,0.411941,0.0,1.0
240,59.75,42.0811,43.0088,151.847,115.715,110.866,-0.00378032,0.0728543,20.9201,424.796,0.38341,0.0,1.0
243,60.5,42.4682,43.0941,144.601,115.719,110.38,-0.00422631,0.0801381,20.9025,424.746,0.423128,0.0,1.0
246,61.25,43.0318,42.8936,148.354,115.709,110.865,-0.00466731,0.0878457,20.885,424.816,0.383047,0.0,1.0
249,62,42.6331,43.6258,148.753,115.72,110.606,-0.00508379,0.0967198,20.8676,424.696,0.40487,0.0,1.0
252,62.75,42.4377,43.9624,143.401,115.742,111.087,-0.00543576,0.105932,20.8506,424.716,0.367719,0.0,1.0
255,63.5,42.9738,43.944,142.395,115.739,111.38,-0.00577503,0.114966,20.836,424.726,0.343855,0.0,1.0
258,64.25,42.922,43.926,142.037,115.751,109.713,-0.00607451,0.125377,20.8214,424.716,0.479882,0.0,0.0
261,65,42.8491,44.0431,140.934,115.742,109.186,-0.0063229,0.134659,20.806,424.686,0.522258,0.0,0.0
264,65.75,43.5971,44.3408,142.578,115.761,109.427,-0.00651739,0.14432,20.7895,424.676,0.504009,0.0,0.0
267,66.5,42.984,44.4005,137.758,115.786,108.011,-0.00664179,0.1551,20.7721,424.676,0.622635,0.0,0.0
270,67.25,43.9248,44.9532,142.222,115.774,107.957,-0.00670742,0.164553,20.7494,424.606,0.626213,0.0,0.0
273,68,44.2031,45.4299,140.574,115.77,107.968,-0.00671072,0.175659,20.7269,424.546,0.624927,0.0,0.0
276,68.75,44.0047,45.7522,142.81,115.777,107.623,-0.00668854,0.187041,20.7078,424.576,0.654214,0.0,0.0
279,69.5,44.7261,45.9629,139.939,115.79,105.891,-0.00667237,0.198368,20.6874,424.556,0.800428,0.0,0.0
282,70.25,45.0591,46.82,136.325,115.794,106.847,-0.00659683,0.209409,20.6661,424.496,0.720304,0.0,0.0
285,71,45.4563,47.0153,135.704,115.792,103.88,-0.00650949,0.222289,20.6443,424.476,0.972402,0.0,0.0
288,71.75,45.8781,47.4574,138.171,115.799,104.307,-0.00643205,0.231679,20.6237,424.446,0.936256,0.0,0.0
291,72.5,45.9148,47.7201,134.876,115.822,103.057,-0.00630299,0.244083,20.6018,424.426,1.04599,0.0,0.0
294,73.25,46.8047,48.3843,137.867,115.824,101.305,-0.00612213,0.255381,20.5776,424.406,1.19973,0.0,0.0
297,74,46.947,48.8164,136.778,115.813,100.59,-0.00599028,0.267474,20.56,424.326,1.26226,0.0,0.0
300,74.75,47.4103,49.5112,138.729,115.827,100.588,-0.00577249,0.281825,20.5348,424.316,1.26355,0.0,0.0
303,75.5,48.181,50.2987,129.883,115.835,98.8314,-0.00552395,0.29614,20.5114,424.276,1.42195,0.0,0.0
306,76.25,47.9632,50.3953,132.512,115.848,97.612,-0.00527795,0.310118,20.4888,424.206,1.53421,0.0,0.0
309,77,49.2318,51.7379,134.243,115.837,96.2728,-0.00504176,0.323554,20.4664,424.176,1.65708,0.0,0.0
312,77.75,49.7948,52.6747,132.574,115.85,97.5723,-0.00477237,0.333349,20.4392,424.106,1.53797,0.0,0.0
315,78.5,49.8939,52.8739,131.42,115.854,97.5413,-0.00446796,0.350668,20.4148,424.046,1.54111,0.0,0.0
318,79.25,50.4182,53.4137,129.469,115.867,98.8009,-0.00416906,0.365903,20.3809,423.996,1.42723,0.0,0.0
321,80,50.7254,53.8804,132.015,115.879,95.7558,-0.00391835,0.381471,20.3479,423.935,1.70851,0.0,0.0
324,80.75,51.6136,54.8037,129.138,115.87,94.4606,-0.0036187,0.400295,20.3156,423.875,1.82988,0.0,0.0
327,81.5,52.0784,55.5852,125.03,115.872,92.8481,-0.00331583,0.416055,20.2838,423.825,1.98425,0.0,0.0
330,82.25,52.2416,56.2598,131.311,115.893,92.4629,-0.00297958,0.431027,20.252,423.765,2.02305,0.0,0.0
333,83,53.679,57.3359,128.787,115.894,90.9674,-0.00270058,0.447744,20.2255,423.675,2.16922,0.0,0.0
336,83.75,53.9969,57.7651,126.818,115.886,88.1725,-0.00237055,0.463324,20.2008,423.625,2.44812,0.0,0.0
339,84.5,54.8929,58.9389,129.404,115.893,87.5972,-0.00207596,0.477826,20.1767,423.565,2.50726,0.0,0.0
342,85.25,55.7979,59.8952,126.652,115.908,91.495,-0.00171245,0.491304,20.1527,423.535,2.11851,0.0,0.0
345,86,55.9269,60.234,132.38,115.915,90.0301,-0.00136675,0.505823,20.1285,423.465,2.26363,0.0,0.0
348,86.75,56.7166,61.4075,122.525,115.908,89.3064,-0.00101205,0.518409,20.1,423.375,2.33538,0.0,0.0
351,87.5,57.2615,62.0572,127.783,115.911,88.2904,-0.000677888,0.537652,20.0746,423.375,2.43804,0.0,0.0
354,88.25,57.7906,62.6103,124.364,115.932,85.114,-0.000354833,0.556743,20.0363,423.255,2.76791,0.0,0.0
357,89,58.5012,63.5193,128.888,115.94,88.5706,3.53778e-05,0.575328,19.9997,423.245,2.41191,0.0,0.0
360,89.75,59.3131,64.6719,123.597,115.94,85.7369,0.000319841,0.593169,19.9693,423.105,2.70322,0.0,0.0
363,90.5,60.5259,66.0426,125.247,115.936,89.3336,0.00068737,0.613432,19.9407,423.015,2.33483,0.0,0.0
366,91.25,60.9508,66.2995,123.395,115.947,89.8335,0.00106189,0.631284,19.909,422.975,2.28568,0.0,0.0
369,92,61.9321,67.7357,125.37,115.954,85.846,0.00140043,0.649566,19.8685,422.784,2.69291,0.0,0.0
372,92.75,62.6803,68.7836,117.616,115.958,87.0557,0.00170129,0.670058,19.829,422.814,2.56786,0.0,0.0
375,93.5,64.0516,70.3907,127.592,115.951,86.0985,0.00198394,0.688052,19.7959,422.794,2.66635,0.0,0.0
378,94.25,64.4003,70.6554,114.492,115.966,86.0768,0.00220717,0.708906,19.752,422.664,2.66974,0.0,0.0
381,95,65.4326,72.0444,118.656,115.977,86.8481,0.0024562,0.732705,19.7104,422.524,2.5907,0.0,0.0
384,95.75,66.5842,73.6789,117.516,115.969,86.5101,0.00268571,0.755579,19.6697,422.464,2.62506,0.0,0.0
387,96.5,66.7162,73.9003,112.962,115.977,87.354,0.00287347,0.777842,19.629,422.334,2.53868,0.0,0.0
390,97.25,68.0539,75.6653,113.962,115.983,84.9808,0.00307609,0.801717,19.5993,422.254,2.7859,0.0,0.0
393,98,68.8156,76.7816,109.306,116.001,84.4129,0.00325182,0.826101,19.5579,422.134,2.84734,0.0,0.0
396,98.75,70.0605,78.0497,115.129,116.007,86.1054,0.00347748,0.850237,19.524,422.044,2.66992,0.0,0.0
399,99.5,70.9895,79.2971,107.882,115.999,85.7498,0.00373036,0.874255,19.4928,421.904,2.70644,0.0,0.0
402,100.25,71.7913,80.8121,114.852,116.015,83.3655,0.00399471,0.894502,19.4577,421.804,2.96026,0.0,0.0
405,101,73.3414,82.2414,114.582,116.023,84.1993,0.00432372,0.915197,19.4229,421.743,2.87167,0.0,0.0
408,101.75,74.0508,83.3183,109.403,116.029,84.3653,0.00470847,0.940431,19.382,421.663,2.8545,0.0,0.0
411,102.5,75.2736,84.7407,111.564,116.016,80.4906,0.00513741,0.96932,19.3261,421.513,3.27465,0.0,0.0
414,103.25,76.6166,86.3941,108.333,116.02,80.1609,0.00567536,0.995088,19.2705,421.413,3.3117,0.0,0.0
417,104,77.2676,87.2402,112.396,116.035,80.1743,0.00616799,1.02193,19.2237,421.313,3.31141,0.0,0.0
420,104.75,78.3088,89.1626,106.404,116.04,76.3764,0.0066989,1.04996,19.1624,421.213,3.7465,0.0,0.0
423,105.5,79.8363,90.7028,108.876,116.031,77.7998,0.00723358,1.08332,19.1096,421.033,3.58038,0.0,0.0
426,106.25,80.8926,92.0519,109.636,116.027,80.2298,0.00775062,1.11161,19.0575,420.953,3.30459,0.0,0.0
429,107,81.9093,93.6373,110.817,116.056,80.6862,0.00823748,1.14892,18.9937,420.923,3.25603,0.0,0.0
432,107.75,83.7388,95.4616,93.5343,116.054,79.5431,0.00878394,1.17611,18.9124,420.723,3.38362,0.0,0.0
435,108.5,84.2529,96.4629,98.8032,116.035,78.1378,0.00935901,1.22193,18.8248,420.592,3.54183,0.0,0.0
438,109.25,86.3182,98.9638,96.898,116.034,78.5452,0.00995321,1.27413,18.7379,420.452,3.49518,0.0,0.0
441,110,86.8715,100.447,96.7446,116.035,79.2125,0.0105568,1.32321,18.6491,420.212,3.41948,0.0,0.0
444,110.75,89.0577,102.406,103.51,116.039,77.7003,0.0112572,1.37006,18.5844,420.162,3.59245,0.0,0.0
447,111.5,90.2712,104.251,107.833,116.029,77.0289,0.0118789,1.41513,18.5068,420.102,3.66943,0.0,0.0
450,112.25,91.7349,106.148,103.481,116.017,78.3366,0.0126659,1.46833,18.4251,419.882,3.51773,0.0,0.0
453,113,93.7607,108.806,97.8254,116.03,77.6199,0.0134188,1.51539,18.3433,419.742,3.601,0.0,0.0
456,113.75,95.2249,110.636,94.3884,116.027,76.3491,0.014126,1.56383,18.2641,419.562,3.74868,0.0,0.0
459,114.5,96.7436,112.748,93.9396,116.02,77.1195,0.0147816,1.60787,18.1825,419.492,3.6582,0.0,0.0
462,115.25,98.1163,114.83,96.8622,116.003,78.5632,0.0154959,1.65489,18.1037,419.211,3.49073,0.0,0.0
465,116,100.406,117.242,96.5569,116.001,77.8539,0.0161199,1.70473,18.0306,419.191,3.57183,0.0,0.0
468,116.75,101.981,119.652,90.2896,116.007,75.3961,0.0167513,1.75175,17.9556,418.911,3.8596,0.0,0.0
471,117.5,103.569,122.02,79.9419,115.991,74.5785,0.0173556,1.79588,17.9009,418.831,3.95602,0.0,0.0
474,118.25,105.568,124.546,94.3403,115.973,77.1477,0.017837,1.83713,17.8608,418.611,3.65129,0.0,0.0
477,119,106.944,126.609,101.59,115.968,75.1972,0.0186121,1.88101,17.8069,418.551,3.88031,0.0,0.0
480,119.75,108.492,128.723,87.5495,115.975,75.7887,0.019382,1.91301,17.7547,418.26,3.81068,0.0,0.0
483,120.5,110.424,130.998,101.313,115.971,73.4645,0.0201338,1.9549,17.7071,418.27,4.0893,0.0,0.0
486,121.25,112.252,133.412,88.915,115.962,75.0913,0.0206819,1.97632,17.6559,417.92,3.89242,0.0,0.0
489,122,114.06,135.773,85.671,115.943,74.7963,0.0215889,2.02898,17.5783,417.81,3.92623,0.0,0.0
492,122.75,115.358,137.566,83.4781,115.935,73.6009,0.0224522,2.08784,17.4853,417.61,4.06996,0.0,0.0
495,123.5,116.975,139.808,83.4476,115.939,73.6217,0.0232597,2.13947,17.3847,417.47,4.06768,0.0,0.0
498,124.25,118.963,142.538,91.304,115.926,74.2035,0.0240058,2.20363,17.2666,417.21,3.99616,0.0,0.0
501,125,121.013,145.413,74.5364,115.908,74.3376,0.0246881,2.27133,17.1805,417.079,3.97864,0.0,0.0
504,125.75,123.591,148.558,85.6443,115.903,72.8916,0.0254222,2.33714,17.0725,416.959,4.15423,0.0,0.0
507,126.5,125.299,150.978,81.9592,115.905,74.3658,0.0262431,2.40108,16.9797,416.689,3.97499,0.0,0.0
510,127.25,126.929,153.527,103.565,115.884,71.8419,0.0271058,2.46596,16.8883,416.459,4.28263,0.0,0.0
513,128,128.699,155.996,83.5445,115.855,72.8425,0.0279782,2.53285,16.7773,416.379,4.15651,0.0,0.0
516,128.75,130.936,158.952,84.9291,115.867,74.0421,0.028986,2.60938,16.6429,415.988,4.01112,0.0,0.0
519,129.5,131.946,160.969,85.9672,115.859,75.212,0.0300278,2.67701,16.5031,415.978,3.87011,0.0,0.0
522,130.25,134.685,164.218,86.8068,115.849,74.9692,0.0310717,2.76272,16.3687,415.678,3.8983,0.0,0.0
525,131,136.888,167.371,83.9811,115.819,74.4162,0.0320952,2.84571,16.2279,415.438,3.96226,0.0,0.0
528,131.75,138.852,170.467,76.4156,115.824,72.498,0.0330453,2.91494,16.1252,415.258,4.19661,0.0,0.0
531,132.5,141.256,173.826,80.3846,115.815,73.5565,0.0340866,2.99266,16.0064,414.978,4.06605,0.0,0.0
534,133.25,143.486,176.766,86.9862,115.803,72.5669,0.0352128,3.07549,15.9069,414.827,4.18642,0.0,0.0
537,134,145.427,180.06,69.424,115.778,75.5316,0.0364094,3.14694,15.8124,414.597,3.82587,0.0,0.0
540,134.75,147.694,183.115,76.0164,115.759,73.2786,0.0376565,3.21798,15.7107,414.297,4.09566,0.0,0.0
543,135.5,150.16,186.75,72.6602,115.765,70.8772,0.0389345,3.28656,15.6058,414.117,4.39455,0.0,0.0
546,136.25,152.228,189.75,66.3106,115.76,72.0342,0.0401761,3.36529,15.4769,413.827,4.24911,0.0,0.0
549,137,154.474,192.773,71.0894,115.723,73.0363,0.0413422,3.46063,15.339,413.736,4.12252,0.0,0.0
552,137.75,156.623,196.198,66.2297,115.707,74.3787,0.0423959,3.54167,15.2087,413.426,3.95814,0.0,0.0
555,138.5,159.056,199.697,87.4495,115.72,70.64,0.0432508,3.62047,15.095,413.146,4.42108,0.0,0.0
558,139.25,161.263,203.49,72.9022,115.699,75.7318,0.0440589,3.70732,14.9774,412.866,3.79604,0.0,0.0
561,140,163.544,206.412,64.555,115.68,76.6603,0.0447197,3.78825,14.8467,412.535,3.68542,0.0,0.0
564,140.75,165.805,209.736,69.3972,115.672,76.3015,0.0452715,3.87739,14.6997,412.285,3.72683,0.0,0.0
567,141.5,168.518,213.464,75.6172,115.662,75.4183,0.0457412,3.97959,14.5143,412.165,3.83032,0.0,0.0
570,142.25,170.737,217.447,72.9335,115.65,76.6234,0.0462016,4.06995,14.3431,411.815,3.68742,0.0,0.0
573,143,173.143,220.99,73.3113,115.638,74.3598,0.0466035,4.17811,14.2029,411.705,3.95507,0.0,0.0
576,143.75,175.882,224.85,81.499,115.601,70.2261,0.0470098,4.27494,14.0885,411.274,4.46449,0.0,0.0
579,144.5,178.392,228.83,72.2046,115.607,71.9718,0.0474603,4.36377,13.9844,411.004,4.24503,0.0,0.0
582,145.25,180.586,232.06,65.287,115.589,73.4252,0.0480524,4.4466,13.8718,410.664,4.06453,0.0,0.0
585,146,182.458,235.241,58.4412,115.574,73.2314,0.0486779,4.53819,13.7898,410.363,4.08703,0.0,0.0
588,146.75,185.168,238.866,68.995,115.552,76.2613,0.0494651,4.60496,13.6901,410.053,3.72222,0.0,0.0
591,147.5,187.719,242.889,72.184,115.548,72.2414,0.0502907,4.68918,13.5953,409.973,4.20695,0.0,0.0
594,148.25,189.648,246.073,62.237,115.531,73.7253,0.050788,4.78655,13.5201,409.603,4.0235,0.0,0.0
597,149,191.922,249.336,72.4916,115.517,73.7568,0.0516333,4.89314,13.3343,409.353,4.01863,0.0,0.0
600,149.75,194.152,252.248,55.0652,115.504,79.8405,0.0524609,5.02007,13.107,408.952,3.30771,0.0,0.0
603,150.5,196.245,256.048,63.794,115.478,78.104,0.0531748,5.13359,12.8924,408.702,3.50259,0.0,0.0
606,151.25,199.033,260.395,56.9643,115.488,74.3565,0.0537775,5.22025,12.7195,408.472,3.94382,0.0,0.0
609,152,201.891,264.901,66.5762,115.451,76.707,0.0542767,5.33536,12.5792,408.041,3.66217,0.0,0.0
612,152.75,204.502,268.844,68.1386,115.462,74.037,0.0546523,5.42566,12.4769,407.741,3.98042,0.0,0.0
615,153.5,206.935,272.517,66.4319,115.427,73.6583,0.054946,5.52904,12.3216,407.531,4.02362,0.0,0.0
618,154.25,208.628,275.631,70.8146,115.423,79.8673,0.0551105,5.64208,12.1508,406.99,3.29839,0.0,0.0
621,155,211.194,278.914,67.9951,115.416,77.6231,0.0551912,5.76325,11.9757,406.78,3.55313,0.0,0.0
624,155.75,213.601,283.107,64.5917,115.403,80.7639,0.0551831,5.89044,11.8033,406.41,3.19685,0.0,0.0
627,156.5,216.369,287.405,55.356,115.385,82.7847,0.0550149,6.01946,11.5635,406.33,2.9741,0.0,0.0
630,157.25,218.713,291.156,42.7483,115.389,84.5198,0.0548197,6.17556,11.3006,405.799,2.78857,0.0,0.0
633,158,221.254,295.381,47.218,115.382,82.6502,0.0546466,6.35417,11.0415,405.489,2.98842,0.0,0.0
636,158.75,223.534,299.515,70.5757,115.374,84.9753,0.0545633,6.51801,10.8241,405.129,2.73929,0.0,0.0
639,159.5,226.905,304.569,61.8599,115.348,81.7082,0.0545682,6.6587,10.6656,404.758,3.08846,0.0,0.0
642,160.25,229.518,309.103,60.7684,115.35,81.2869,0.0546841,6.77308,10.5502,404.698,3.13487,0.0,0.0
645,161,232.067,313.438,67.9257,115.334,79.834,0.0548904,6.86159,10.4647,404.308,3.29518,0.0,0.0
648,161.75,234.763,317.888,78.5184,115.332,76.9415,0.0550313,6.9283,10.4019,403.918,3.62563,0.0,0.0
651,162.5,237.275,321.85,59.148,115.315,81.5043,0.0550817,6.97918,10.3561,403.577,3.10825,0.0,0.0
654,163.25,239.567,325.45,52.064,115.311,78.8157,0.0550359,7.01937,10.3227,403.347,3.40841,0.0,0.0
657,164,241.731,329.188,53.541,115.298,81.7887,0.0548478,7.05397,10.2887,402.887,3.07573,0.0,0.0
660,164.75,244.247,332.571,72.735,115.288,79.9704,0.0545819,7.09341,10.2475,402.536,3.27634,0.0,0.0
663,165.5,246.139,335.831,52.322,115.277,87.0294,0.0542804,7.13748,10.1833,402.276,2.51778,0.0,0.0
666,166.25,248.2,338.94,69.5545,115.266,85.4784,0.0540325,7.18223,10.1364,401.856,2.67804,0.0,0.0
669,167,250.578,342.551,68.1569,115.262,76.868,0.0538038,7.22527,10.0977,401.576,3.62874,0.0,0.0
672,167.75,252.579,346.023,47.9988,115.253,83.3877,0.053637,7.26749,10.0616,401.245,2.89878,0.0,0.0
675,168.5,254.537,349.294,55.7728,115.246,82.1817,0.0536993,7.3029,10.0369,400.885,3.02876,0.0,0.0
678,169.25,256.736,352.677,63.1995,115.224,83.7017,0.0539353,7.34156,10.0194,400.575,2.86289,0.0,0.0
681,170,258.695,356.083,54.8424,115.235,87.9676,0.0543069,7.36974,10.0065,400.254,2.41847,0.0,0.0
684,170.75,260.704,359.289,52.0747,115.217,78.6576,0.0547803,7.37394,10.0283,399.864,3.41912,0.0,0.0
687,171.5,262.935,362.767,60.3181,115.217,79.8257,0.0555137,7.37005,10.072,399.574,3.28708,0.0,0.0
690,172.25,264.698,365.356,67.47,115.201,75.5182,0.0563446,7.34584,10.1247,399.524,3.78271,0.0,0.0
693,173,266.129,367.697,61.5943,115.211,76.4805,0.0570766,7.31445,10.1785,398.993,3.67006,0.0,0.0
696,173.75,267.844,370.31,68.9836,115.205,72.738,0.0582225,7.28306,10.2273,398.713,4.11901,0.0,0.0
699,174.5,268.938,372.116,71.0558,115.179,76.301,0.0592033,7.25293,10.2669,398.343,3.68861,0.0,0.0
702,175.25,270.538,374.186,57.6802,115.176,72.4486,0.060167,7.22477,10.3051,397.942,4.15243,0.0,0.0
705,176,271.799,376.417,60.3959,115.177,75.5329,0.0610325,7.19057,10.3596,397.592,3.77905,0.0,0.0
708,176.75,273.07,377.976,71.0238,115.165,74.7579,0.0616552,7.15981,10.4382,397.422,3.87048,0.0,0.0
711,177.5,273.973,379.373,57.9672,115.157,74.0953,0.0621058,7.09634,10.5425,397.152,3.94965,0.0,0.0
714,178.25,275.369,380.879,55.6438,115.139,74.9517,0.0623341,7.03892,10.657,396.831,3.84529,0.0,0.0
717,179,276.607,382.572,60.486,115.152,79.717,0.0624791,6.97801,10.7568,396.501,3.29423,0.0,0.0
720,179.75,277.583,383.744,56.7063,115.132,74.8166,0.0625484,6.89211,10.9197,396.171,3.86093,0.0,0.0
723,180.5,278.392,384.963,75.247,115.125,73.2578,0.0626272,6.79228,11.0704,396.091,4.04901,0.0,0.0
726,181.25,279.129,386.017,65.5023,115.12,70.9373,0.0627237,6.70365,11.235,395.781,4.33689,0.0,0.0
729,182,280.059,387.015,57.2169,115.116,72.9471,0.0627779,6.57931,11.4314,395.35,4.08636,0.0,0.0
732,182.75,280.624,387.353,81.6188,115.124,70.659,0.0626074,6.46551,11.6092,395.29,4.37244,0.0,0.0
735,183.5,281.159,387.803,64.9573,115.11,68.8379,0.0621748,6.34294,11.7981,394.8,4.60525,0.0,0.0
738,184.25,281.317,387.714,76.888,115.117,68.4134,0.0614855,6.20184,12.0832,394.599,4.66114,0.0,0.0
741,185,281.624,387.5,66.9097,115.106,67.9565,0.0602336,6.04794,12.3482,394.399,4.72031,0.0,0.0
744,185.75,281.542,387.284,68.3119,115.106,70.9692,0.0585517,5.8862,12.6391,394.169,4.33176,0.0,0.0
747,186.5,281.715,386.782,74.025,115.093,68.6964,0.0565565,5.67147,13.0252,394.089,4.62236,0.0,0.0
750,187.25,281.735,386.096,73.9945,115.088,68.277,0.0544199,5.4396,13.3754,393.739,4.67682,0.0,0.0
753,188,281.066,384.633,73.5235,115.095,68.671,0.0516958,5.23844,13.7479,393.659,4.62579,0.0,0.0
756,188.75,280.787,383.189,84.0926,115.096,66.5813,0.0481602,4.9544,14.1704,393.509,4.90267,0.0,0.0
759,189.5,279.574,381.332,83.9827,115.089,69.0049,0.0456889,4.69947,14.4314,393.378,4.58191,0.0,0.0
762,190.25,278.391,378.698,87.335,115.068,73.3304,0.0419814,4.43178,14.8015,393.298,4.03567,0.0,0.0
765,191,276.977,375.824,92.2321,115.093,72.1776,0.0385583,4.14553,15.1887,393.128,4.17951,0.0,0.0
768,191.75,275.493,373.021,102.946,115.1,75.3512,0.0348314,3.898,15.6315,393.078,3.79463,0.0,0.0
771,192.5,273.431,369.138,97.7499,115.092,75.9676,0.0311817,3.68715,16.1311,392.958,3.72106,0.0,0.0
774,193.25,271.508,365.601,98.162,115.098,76.5443,0.0273269,3.44354,16.6115,392.928,3.65377,0.0,0.0
777,194,269.094,361.94,103.778,115.085,80.2899,0.0241773,3.16577,17.0813,392.888,3.22481,0.0,0.0
780,194.75,266.817,357.685,108.656,115.094,76.8213,0.0208247,2.88599,17.4985,392.808,3.62112,0.0,0.0
783,195.5,264.16,353.553,116.962,115.099,84.535,0.0174998,2.62291,17.9304,392.828,2.76445,0.0,0.0
786,196.25,261.284,349.198,123.691,115.076,96.8657,0.01434,2.35028,18.372,392.848,1.54301,0.0,0.0
789,197,257.777,343.744,130.649,115.089,103.974,0.011247,2.09287,18.7644,392.858,0.909714,0.0,0.0
792,197.75,254.974,338.894,134.594,115.106,106.022,0.00859489,1.8802,19.1162,392.908,0.736345,0.0,0.0
795,198.5,251.377,333.873,132.175,115.105,107.207,0.00632132,1.67071,19.4333,392.888,0.636698,0.0,0.0
798,199.25,248.049,328.603,132.773,115.099,107.302,0.00437193,1.47888,19.7235,392.868,0.628304,0.0,0.0
801,200,244.099,323.1,136.974,115.1,107.102,0.00266281,1.31185,19.9461,392.878,0.645108,0.0,0.0
804,200.75,240.874,318.027,134.533,115.117,107.415,0.00129407,1.15798,20.1272,392.878,0.620277,0.0,0.0
807,201.5,237.783,313.022,135.329,115.118,107.034,-2.07285e-05,1.02927,20.2734,392.888,0.652223,0.0,0.0
810,202.25,234.019,307.828,136.752,115.11,107.023,-0.00104195,0.921525,20.3861,392.868,0.652451,0.0,0.0
813,203,230.672,302.905,137.965,115.142,106.893,-0.00195054,0.831253,20.4831,392.878,0.665861,0.0,0.0
816,203.75,227.202,298.196,137.945,115.124,107.34,-0.00271013,0.750654,20.5662,392.888,0.627079,0.0,0.0
819,204.5,224.456,293.512,138.155,115.137,107.045,-0.00339845,0.685591,20.6343,392.898,0.65272,0.0,0.0
822,205.25,221.261,289.266,138.563,115.127,107.295,-0.00399708,0.622854,20.687,392.888,0.631081,0.0,0.0
825,206,218.427,284.788,136.211,115.14,107.09,-0.00447477,0.570001,20.7317,392.908,0.649188,0.0,0.0
828,206.75,215.637,280.349,141.108,115.132,107.045,-0.00496645,0.525287,20.7673,392.898,0.652355,0.0,0.0
831,207.5,212.851,276.216,138.5,115.148,107.437,-0.00532488,0.487305,20.7945,392.918,0.620847,0.0,0.0
834,208.25,210.166,272.2,138.612,115.148,106.985,-0.00568181,0.452677,20.8166,392.898,0.658633,0.0,0.0
837,209,206.814,266.886,137.533,115.152,107.185,-0.00597034,0.422111,20.8358,392.898,0.642214,0.0,0.0
840,209.75,204.17,263.938,141.053,115.158,107.235,-0.00619186,0.397561,20.8507,392.908,0.638478,0.0,0.0
843,210.5,201.887,260.494,138.629,115.183,107.044,-0.0063581,0.372899,20.864,392.868,0.656423,0.0,0.0
846,211.25,199.469,257.096,141.344,115.164,107.223,-0.00648115,0.352681,20.8759,392.878,0.639922,0.0,0.0
849,212,196.763,253.291,138.053,115.172,106.995,-0.00657581,0.334111,20.8856,392.888,0.659685,0.0,0.0
852,212.75,195.499,250.141,136.955,115.184,106.946,-0.00664694,0.316234,20.8931,392.898,0.664703,0.0,0.0
855,213.5,191.925,245.775,138.489,115.158,106.988,-0.00670272,0.301464,20.8996,392.888,0.659129,0.0,0.0
858,214.25,190.352,242.928,140.395,115.196,106.934,-0.00675008,0.287725,20.9047,392.898,0.666663,0.0,0.0
861,215,187.664,239.601,137.678,115.19,106.742,-0.00678983,0.274246,20.9087,392.898,0.682276,0.0,0.0
864,215.75,185.753,236.524,137.6,115.209,107.23,-0.00682776,0.26442,20.912,392.878,0.642895,0.0,0.0
867,216.5,183.757,233.037,140.163,115.226,107.298,-0.00687651,0.252569,20.9151,392.888,0.638572,0.0,0.0
870,217.25,181.039,229.571,140.8,115.233,106.987,-0.00693281,0.242738,20.9185,392.888,0.6651,0.0,0.0
873,218,179.659,226.887,140.686,115.247,107.044,-0.00699397,0.233536,20.9223,392.858,0.661361,0.0,0.0
876,218.75,177.517,223.708,140.643,115.244,106.832,-0.00706689,0.224656,20.9259,392.868,0.678845,0.0,0.0
879,219.5,176.005,220.776,142.354,115.258,106.928,-0.00714488,0.217257,20.9291,392.868,0.67192,0.0,0.0
882,220.25,173.568,217.645,135.236,115.261,107.201,-0.00722866,0.20921,20.9318,392.888,0.649348,0.0,0.0
885,221,172.209,215.362,143.385,115.246,107.039,-0.00731767,0.202071,20.9351,392.858,0.661751,0.0,0.0
888,221.75,169.81,212.426,141.671,115.258,107.378,-0.00740801,0.195632,20.9374,392.848,0.634347,0.0,0.0
891,222.5,168.199,208.748,139.596,115.277,107.207,-0.0075174,0.189757,20.9398,392.858,0.650089,0.0,0.0
894,223.25,166.629,206.948,140.453,115.276,106.998,-0.00761839,0.183756,20.9417,392.878,0.667499,0.0,0.0
897,224,164.371,205.233,136.911,115.303,106.885,-0.0076945,0.178633,20.9435,392.858,0.679109,0.0,0.0
900,224.75,163.651,202.077,137.232,115.285,106.892,-0.00774974,0.17362,20.9452,392.878,0.677024,0.0,0.0
903,225.5,162.033,199.67,140.109,115.28,107.069,-0.00778777,0.168653,20.9477,392.878,0.661872,0.0,0.0
906,226.25,159.976,197.233,140.319,115.307,107.01,-0.00779778,0.164473,20.9498,392.898,0.668868,0.0,0.0
909,227,158.601,194.926,138.039,115.296,107.066,-0.00779332,0.160099,20.9516,392.918,0.663383,0.0,0.0
912,227.75,157.441,193.189,141.986,115.303,107.055,-0.00776996,0.155691,20.953,392.928,0.664784,0.0,0.0
915,228.5,156.175,189.99,136.631,115.311,107.001,-0.00774182,0.151582,20.954,392.918,0.669934,0.0,0.0
918,229.25,154.631,188.192,139.037,115.318,107.474,-0.0077023,0.148204,20.956,392.928,0.631008,0.0,0.0
921,230,153.052,185.952,139.227,115.308,107.325,-0.00768944,0.144363,20.9578,392.878,0.642622,0.0,0.0
924,230.75,150.965,184.199,141.642,115.314,107.096,-0.00770861,0.141116,20.9594,392.878,0.662258,0.0,0.0
927,231.5,149.861,182.068,138.956,115.318,106.912,-0.00773477,0.137986,20.9611,392.858,0.677882,0.0,0.0
930,232.25,148.583,179.755,142.851,115.339,107.075,-0.00781236,0.134714,20.9628,392.868,0.665939,0.0,0.0
933,233,146.885,177.583,140.584,115.338,107.15,-0.00790493,0.131907,20.9646,392.878,0.659637,0.0,0.0
936,233.75,146.055,175.609,139.067,115.334,107.025,-0.00800148,0.128839,20.9664,392.888,0.669788,0.0,0.0
939,234.5,144.738,173.719,137.984,115.336,107.21,-0.00809534,0.125832,20.9677,392.918,0.654428,0.0,0.0
942,235.25,142.864,171.516,140.329,115.355,106.854,-0.00815756,0.122982,20.9687,392.898,0.685728,0.0,0.0
945,236,141.742,170.245,139.847,115.364,106.788,-0.00820026,0.120339,20.9703,392.908,0.691892,0.0,0.0
948,236.75,140.763,168.687,143.202,115.35,107.114,-0.00820532,0.117661,20.9718,392.918,0.663529,0.0,0.0
951,237.5,139.995,166.224,144.427,115.354,106.851,-0.00820011,0.115379,20.9702,392.918,0.685886,0.0,0.0
954,238.25,138.187,164.592,139.296,115.374,106.991,-0.00816576,0.113153,20.9689,392.888,0.675719,0.0,0.0
957,239,137.36,162.805,140.291,115.379,106.795,-0.00814445,0.111126,20.9685,392.908,0.692515,0.0,0.0
960,239.75,136.341,161.508,138.474,115.367,106.923,-0.00813703,0.108959,20.969,392.918,0.680828,0.0,0.0
963,240.5,135.268,159.121,137.726,115.375,106.929,-0.0081428,0.107523,20.9694,392.928,0.680945,0.0,0.0
966,241.25,134.117,158.094,135.207,115.392,107.156,-0.00815763,0.105443,20.9699,392.918,0.663261,0.0,0.0
969,242,132.766,156.238,139.448,115.399,106.981,-0.00816844,0.103321,20.9707,392.938,0.678469,0.0,0.0
972,242.75,132.163,154.864,142.286,115.406,106.775,-0.00818749,0.10135,20.9712,392.928,0.696265,0.0,0.0
975,243.5,131.236,153.439,144.331,115.392,107.046,-0.00821072,0.0995022,20.9716,392.928,0.672502,0.0,0.0
978,244.25,129.872,151.898,138.706,115.402,106.737,-0.00823548,0.0977609,20.9726,392.918,0.699157,0.0,0.0
981,245,129.252,150.379,141.837,115.425,107.105,-0.00826415,0.0962391,20.9737,392.908,0.670107,0.0,0.0
984,245.75,127.827,148.717,140.442,115.43,106.963,-0.00828381,0.094698,20.9746,392.918,0.682317,0.0,0.0
987,246.5,127.365,147.886,145.131,115.415,106.86,-0.00829043,0.0930318,20.9754,392.918,0.689861,0.0,0.0
990,247.25,125.687,146.22,137.497,115.426,106.794,-0.00828296,0.0914792,20.9759,392.928,0.696248,0.0,0.0
993,248,124.799,144.3,142.911,115.442,106.863,-0.00825641,0.0900403,20.9763,392.908,0.691711,0.0,0.0
996,248.75,124.257,143.184,143.72,115.444,106.624,-0.00822805,0.0887128,20.9766,392.908,0.711918,0.0,0.0
999,249.5,123.861,141.809,138.08,115.438,107.161,-0.00819321,0.0874041,20.9772,392.908,0.666454,0.0,0.0
1002,250.25,122.425,140.89,140.006,115.458,106.939,-0.00817775,0.086197,20.9778,392.898,0.686561,0.0,0.0
1005,251,121.546,139.865,139.902,115.457,106.995,-0.00817071,0.0852093,20.9783,392.898,0.681764,0.0,0.0
1008,251.75,121.131,138.465,141.391,115.455,106.871,-0.00819214,0.084124,20.9791,392.918,0.692074,0.0,0.0
1011,252.5,119.77,137.057,141.766,115.455,107.047,-0.00822149,0.0831772,20.9799,392.898,0.677244,0.0,0.0
1014,253.25,119.045,136.195,144.392,115.47,106.948,-0.00826635,0.0819866,20.9804,392.878,0.686735,0.0,0.0
1017,254,118.082,134.691,136.27,115.47,107.483,-0.00833979,0.0809083,20.9808,392.908,0.642112,0.0,0.0
1020,254.75,117.889,133.556,141.411,115.491,106.63,-0.00841815,0.0799662,20.9811,392.918,0.714989,0.0,0.0
1023,255.5,116.645,132.863,142.121,115.468,106.681,-0.00848587,0.0791658,20.9813,392.908,0.708928,0.0,0.0
1026,256.25,115.609,131.214,141.37,115.483,106.668,-0.00856255,0.0784141,20.9817,392.918,0.711183,0.0,0.0
1029,257,115.477,130.48,141.655,115.502,106.742,-0.00863271,0.0776839,20.9824,392.908,0.706508,0.0,0.0
1032,257.75,114.465,129.101,141.868,115.502,106.773,-0.00868832,0.0769624,20.9829,392.898,0.703906,0.0,0.0
1035,258.5,113.731,128.593,140.173,115.495,107.295,-0.0087147,0.0761845,20.9832,392.888,0.659631,0.0,0.0
1038,259.25,112.468,126.728,138.219,115.515,106.848,-0.00873393,0.0755099,20.9835,392.868,0.698573,0.0,0.0
1041,260,112.234,125.814,142.267,115.518,107.208,-0.00872063,0.0747786,20.9823,392.888,0.668716,0.0,0.0
1044,260.75,111.71,125.428,141.811,115.52,106.744,-0.00869406,0.0740357,20.9809,392.888,0.707775,0.0,0.0
1047,261.5,111.042,124.497,147.312,115.52,106.891,-0.00866575,0.0734046,20.9799,392.878,0.695444,0.0,0.0
1050,262.25,110.265,122.911,141.881,115.516,106.769,-0.00864512,0.0728489,20.9795,392.898,0.705314,0.0,0.0
1053,263,109.645,122.074,141.937,115.516,107.208,-0.00863008,0.0722802,20.9795,392.898,0.668537,0.0,0.0
1056,263.75,109.16,121.527,140.422,115.553,106.877,-0.00862088,0.0716861,20.9794,392.918,0.699125,0.0,0.0
1059,264.5,108.166,120.331,138.028,115.53,107.183,-0.00861039,0.0711413,20.9793,392.888,0.671718,0.0,0.0
1062,265.25,107.655,119.463,141.093,115.534,106.994,-0.00860243,0.0706964,20.9791,392.888,0.687791,0.0,0.0
1065,266,107.161,118.912,144.15,115.557,107.095,-0.00859887,0.0702127,20.9789,392.888,0.68114,0.0,0.0
1068,266.75,106.089,117.763,146.423,115.563,106.793,-0.00861044,0.0698008,20.9793,392.908,0.706983,0.0,0.0
1071,267.5,105.536,116.802,140.124,115.552,107.227,-0.00863377,0.0693991,20.9797,392.908,0.669798,0.0,0.0
1074,268.25,104.705,115.823,142.095,115.573,106.785,-0.00865713,0.0689946,20.98,392.928,0.708334,0.0,0.0
1077,269,104.691,115.239,141.624,115.557,106.942,-0.00867652,0.0685933,20.9801,392.908,0.693951,0.0,0.0
1080,269.75,103.857,114.316,142.327,115.585,106.871,-0.00869892,0.0682002,20.9803,392.918,0.70207,0.0,0.0
1083,270.5,103.389,113.604,140.847,115.602,107.14,-0.00869755,0.0677544,20.9804,392.898,0.680855,0.0,0.0
1086,271.25,102.962,112.595,142.323,115.591,107.361,-0.00867668,0.0672503,20.9805,392.898,0.661592,0.0,0.0
1089,272,101.985,111.777,143.966,115.597,106.638,-0.00865299,0.0669926,20.9806,392.898,0.722537,0.0,0.0
1092,272.75,101.581,110.744,146.141,115.608,107.272,-0.00861448,0.0664959,20.9806,392.908,0.670354,0.0,0.0
1095,273.5,101.21,110.527,141.451,115.605,106.922,-0.00857895,0.0660751,20.9807,392.908,0.699339,0.0,0.0
1098,274.25,100.799,109.205,145.83,115.597,106.924,-0.00854922,0.0656679,20.9807,392.878,0.698601,0.0,0.0
1101,275,100.161,109.095,146.443,115.601,107.034,-0.00852643,0.0653153,20.9813,392.868,0.689675,0.0,0.0
1104,275.75,99.6534,108.473,141.509,115.614,107.17,-0.00852398,0.0649831,20.9818,392.858,0.679329,0.0,0.0
1107,276.5,99.0818,107.5625,142.573,115.626,106.929,-0.0085222,0.0646531,20.9822,392.888,0.700475,0.0,0.0
1110,277.25,98.8885,106.626,144.984,115.623,107.102,-0.0085333,0.0643568,20.9824,392.898,0.685705,0.0,0.0
1113,278,98.5613,106.229,142.998,115.63,106.957,-0.0085389,0.0641023,20.9826,392.908,0.698328,0.0,0.0
1116,278.75,97.8763,105.082,140.18,115.633,107.227,-0.00854193,0.0638917,20.9827,392.918,0.675996,0.0,0.0
1119,279.5,97.3284,104.68,146.273,115.651,106.96,-0.00852997,0.063599,20.9828,392.918,0.699773,0.0,0.0
1122,280.25,96.6072,103.335,139.678,115.646,107.297,-0.00851629,0.063349,20.9829,392.908,0.671222,0.0,0.0
1125,281,96.4501,103.645,145.243,115.646,107.272,-0.00850419,0.063104,20.9829,392.918,0.673235,0.0,0.0
1128,281.75,95.6551,102.803,140.423,115.662,106.908,-0.00848829,0.0628558,20.983,392.898,0.704952,0.0,0.0
1131,282.5,95.5141,102.354,143.957,115.68,107.224,-0.0084767,0.0626451,20.983,392.918,0.679986,0.0,0.0
1134,283.25,94.3474,100.402,145.132,115.679,107.14,-0.00843452,0.062412,20.9824,392.898,0.686871,0.0,0.0
1137,284,94.8005,100.84,142.459,115.683,107.884,-0.00841922,0.0621585,20.9818,392.888,0.62521,0.0,0.0
1140,284.75,93.9854,99.8023,144.191,115.684,107.379,-0.00841573,0.0619381,20.9813,392.918,0.667232,0.0,0.0
1143,285.5,93.6325,99.7779,147.402,115.689,106.955,-0.00842931,0.0617217,20.981,392.938,0.703075,0.0,0.0
1146,286.25,93.2401,99.0095,138.967,115.695,107.158,-0.00844937,0.0614475,20.9807,392.938,0.686565,0.0,0.0
1149,287,92.1789,98.0573,143.467,115.702,107.331,-0.00846958,0.0612888,20.9805,392.938,0.672741,0.0,0.0
1152,287.75,91.8439,97.475,146.235,115.711,107.318,-0.00847723,0.0611054,20.9804,392.908,0.674475,0.0,0.0
1155,288.5,92.1012,96.8691,143.04,115.743,106.84,-0.00848404,0.0608725,20.9803,392.898,0.716952,0.0,0.0
1158,289.25,91.4212,97.2493,147.064,115.722,107.545,-0.00849804,0.0606609,20.9802,392.898,0.656385,0.0,0.0
1161,290,91.4837,96.3489,145.469,115.727,107.431,-0.00852277,0.0604523,20.9802,392.888,0.666265,0.0,0.0
1164,290.75,91.2395,95.631,138.051,115.729,107.213,-0.00856105,0.0602302,20.9802,392.898,0.684588,0.0,0.0
1167,291.5,89.9192,94.856,144.801,115.731,107.057,-0.0086236,0.0600557,20.9801,392.918,0.697877,0.0,0.0
1170,292.25,90.3494,94.3725,140.423,115.745,107.154,-0.00870816,0.0599286,20.9801,392.908,0.690849,0.0,0.0
1173,293,89.8475,94.6241,141.234,115.752,107.507,-0.00877352,0.0598359,20.9801,392.918,0.66195,0.0,0.0
1176,293.75,88.928,93.3466,141.057,115.744,107.551,-0.00882277,0.0597088,20.9801,392.918,0.657595,0.0,0.0
1179,294.5,89.2062,93.1893,140.895,115.768,107.176,-0.00883387,0.0596439,20.9801,392.908,0.690779,0.0,0.0
1182,295.25,88.4066,92.2155,145.841,115.774,107.441,-0.0088085,0.0596085,20.9801,392.908,0.669133,0.0,0.0
1185,296,88.4562,92.0805,141.586,115.751,107.194,-0.00876464,0.059543,20.9801,392.888,0.68796,0.0,0.0
1188,296.75,88.5191,91.9903,147.6,115.772,107.097,-0.00871366,0.0594952,20.9803,392.888,0.697642,0.0,0.0
1191,297.5,87.606,91.9355,147.598,115.787,107.697,-0.00867127,0.0594604,20.9805,392.898,0.648786,0.0,0.0
1194,298.25,87.5379,91.2994,141.315,115.81,107.665,-0.00863143,0.0593767,20.9806,392.898,0.653261,0.0,0.0
1197,299,87.4194,90.4378,145.313,115.791,107.146,-0.00861478,0.0592461,20.9807,392.898,0.695038,0.0,0.0
1200,299.75,86.5013,89.6982,143.846,115.781,106.899,-0.00862617,0.0591066,20.9807,392.918,0.714905,0.0,0.0
1203,300.5,86.3138,89.7796,140.934,115.783,107.77,-0.0086747,0.0589799,20.9808,392.928,0.642419,0.0,0.0
1206,301.25,86.0065,89.0338,142.819,115.815,108.004,-0.00877207,0.0588948,20.9808,392.938,0.625506,0.0,0.0
1209,302,86.0254,88.6264,142.643,115.809,107.052,-0.00884914,0.0588453,20.9808,392.928,0.704348,0.0,0.0
1212,302.75,85.6716,88.6031,142.15,115.815,107.12,-0.0089395,0.0588092,20.9809,392.908,0.699098,0.0,0.0
1215,303.5,85.225,87.6387,144.696,115.823,107.251,-0.0090076,0.058769,20.9815,392.878,0.688703,0.0,0.0
1218,304.25,85.1854,87.9621,143.408,115.831,107.54,-0.0090468,0.0587264,20.982,392.858,0.665217,0.0,0.0
1221,305,83.9608,86.8717,142.336,115.845,107.098,-0.00905749,0.0586959,20.9823,392.888,0.703207,0.0,0.0
1224,305.75,84.5929,86.9431,146.767,115.826,107.72,-0.0090496,0.0586745,20.9825,392.928,0.649921,0.0,0.0
1227,306.5,83.7657,86.3327,143.034,115.841,107.312,-0.00901703,0.0587088,20.9819,392.978,0.68499,0.0,0.0
1230,307.25,83.3442,85.8742,146.919,115.863,107.44,-0.00897381,0.0588089,20.9814,392.968,0.675979,0.0,0.0
1233,308,83.3685,85.6694,146.367,115.85,107.228,-0.00893857,0.0588819,20.9808,392.958,0.692748,0.0,0.0
1236,308.75,82.8544,85.3885,142.297,115.844,107.591,-0.00891195,0.0591932,20.98,392.928,0.661964,0.0,0.0
1239,309.5,82.7892,84.7065,145.574,115.857,107.434,-0.00889366,0.0595228,20.9794,392.908,0.676121,0.0,0.0
1242,310.25,82.7851,84.488,143.546,115.88,107.436,-0.00887536,0.0599384,20.9787,392.908,0.677709,0.0,0.0
1245,311,82.1944,84.0395,147.193,115.877,107.919,,0.0604997,,392.908,0.637296,0.0,0.0
1248,311.75,82.3044,83.7062,147.019,115.865,107.483,,0.0610343,,392.918,0.67269,0.0,0.0
1251,312.5,81.5702,83.1126,146.303,115.878,108.078,,0.0615068,,392.918,0.624211,0.0,0.0
1254,313.25,81.5893,83.2037,143.465,115.879,108.258,,0.0619014,,392.938,0.609386,0.0,0.0
1257,314,81.1717,82.7713,143.951,115.879,107.502,,,,392.928,0.672126,0.0,0.0
1260,314.75,80.9104,82.1958,139.071,115.87,108.174,,,,392.918,0.615623,0.0,0.0
1263,315.5,80.3676,82.2209,146.404,115.885,107.472,,,,392.918,0.675067,0.0,0.0
1266,316.25,80.7116,81.5377,144.685,115.889,107.524,,,,392.928,0.671079,0.0,0.0
1269,317,80.3139,81.0505,143.172,115.898,108.653,,,,392.908,0.578188,0.0,0.0
1272,317.75,79.6211,80.9694,142.13,115.896,107.426,,,,392.908,0.679795,0.0,0.0
1275,318.5,79.5725,80.3955,142.417,115.895,108.013,,,,392.908,0.630924,0.0,0.0
1278,319.25,79.6199,80.3563,143.069,115.915,107.882,,,,392.878,0.643311,0.0,0.0
1281,320,79.2709,79.9941,142.464,115.918,108.296,,,,392.878,0.609193,0.0,0.0
1284,320.75,79.062,79.9128,142.762,115.918,107.618,,,,392.888,0.665405,0.0,0.0
1287,321.5,78.7979,79.3157,144.885,115.914,107.364,,,,392.898,0.686382,0.0,0.0