File: 01_Data/HDPE/Cone/HDPE_Cone_HF50Scan_220131_R1.csv
Names,Time,Stack TC,Smoke TC,Exh Press,Smoke Comp,Smoke Meas,CO Meter,CO2 Meter,O2 Meter,Sample Mass,Ext Coeff,Start Test,Flame Verif
Chan Gain,,500,500,1,1,1,1,1,1,1,1,1.0,1.0
Offset,,0,0,0.14021,0,0,0,0,0,0,0,0.0,0.0
Gain,,1,1,25.011,13.3046,13.3037,1,1,1,1.00087,1.10262,1.0,1.0
Units,sec,C,C,Pa,%,%,%,%,%,g,/m,,
Baseline,,24.5378,26.922,164.166,97.863,102.995,0.00550144,0.0859644,20.9436,0.837229,-0.49435,,
3,0.5,23.1074,25.2333,162.028,97.3125,102.753,0.00551879,0.0941879,20.9352,543.634,-0.526197,0.0,0.0
6,1.25,23.6507,25.4065,162.702,97.3032,102.12,0.00551819,0.0940495,20.9355,543.614,-0.467362,0.0,0.0
9,2,22.9816,24.7857,163.479,97.2955,102.251,0.00551935,0.0937939,20.9358,543.484,-0.480503,0.0,0.0
12,2.75,23.0973,25.2499,158.456,97.2861,102.107,0.00551521,0.0935647,20.936,543.534,-0.46775,0.0,0.0
15,3.5,23.0087,24.5589,163.966,97.2606,102.959,0.00550876,0.0933245,20.9362,543.574,-0.550682,0.0,0.0
18,4.25,22.9797,25.1718,162.927,97.2447,102.093,0.00550182,0.0930139,20.9369,543.564,-0.470599,0.0,0.0
21,5,23.43,25.2484,165.104,97.2334,102.288,0.00550209,0.0927091,20.9374,543.574,-0.490212,0.0,0.0
24,5.75,23.303,25.8806,162.883,97.2143,102.288,0.00550031,0.0923527,20.9378,543.584,-0.492073,0.0,0.0
27,6.5,23.4963,25.9571,161.095,97.1984,102.173,0.00549566,0.0919383,20.9381,543.554,-0.482777,0.0,0.0
30,7.25,22.9836,25.7491,164.679,97.1712,102.036,0.0054834,0.0916077,20.9383,543.574,-0.472525,0.0,0.0
33,8,23.6415,25.707,163.256,97.168,102.591,0.00547446,0.0913179,20.9391,543.574,-0.525313,0.0,0.0
36,8.75,23.6273,26.041,160.336,97.1501,102.113,0.00545302,0.0910873,20.9399,543.564,-0.481897,0.0,0.0
39,9.5,23.7768,26.5341,162.181,97.1327,102.247,0.00543103,0.0908515,20.9408,543.554,-0.496317,0.0,0.0
42,10.25,23.8813,26.4315,165.451,97.114,101.88,0.00540132,0.0906507,20.9416,543.554,-0.463358,0.0,0.0
45,11,23.6625,25.9524,165.715,97.1189,102.337,0.00536991,0.090396,20.9421,543.534,-0.506214,0.0,0.0
48,11.75,23.4964,26.2254,164.021,97.0868,102.49,0.0053403,0.0901642,20.9431,543.554,-0.523827,0.0,0.0
51,12.5,23.4016,26.0241,161.462,97.0575,102.089,0.00531125,0.0899004,20.9438,543.534,-0.488811,0.0,0.0
54,13.25,24.2594,26.2196,158.827,97.0482,102.17,0.00529436,0.0896677,20.9443,543.524,-0.497431,0.0,0.0
57,14,23.981,26.667,171.6,97.0336,101.595,0.00528522,0.0894304,20.9447,543.514,-0.44435,0.0,0.0
60,14.75,23.6489,26.2374,163.601,96.9901,102.149,0.00531048,0.0891859,20.945,543.514,-0.50122,0.0,0.0
63,15.5,24.245,26.3018,165.214,97.0048,101.954,0.00535625,0.0889345,20.9452,543.524,-0.481331,0.0,0.0
66,16.25,23.5695,26.3062,159.79,96.9828,102.325,0.00540129,0.0885969,20.9454,543.534,-0.518619,0.0,0.0
69,17,23.8192,26.3423,162.629,96.9759,102.291,0.0054572,0.0882426,20.9459,543.564,-0.516122,0.0,0.0
72,17.75,24.0196,26.3348,165.639,96.9625,101.384,0.00549672,0.0878528,20.9465,543.544,-0.431315,0.0,0.0
75,18.5,24.1287,26.4645,166.328,96.9248,102.064,0.00552499,0.0874226,20.9475,543.534,-0.499742,0.0,0.0
78,19.25,23.4969,26.4489,167.355,96.9345,102.094,0.00553441,0.0869873,20.9483,543.554,-0.501617,0.0,0.0
81,20,24.0579,26.2868,162.66,96.9102,102.175,0.00553649,0.0866181,20.9489,543.564,-0.51166,0.0,0.0
84,20.75,24.032,26.2441,161.447,96.8915,102.147,0.00553801,0.0861563,20.9499,543.554,-0.510872,0.0,0.0
87,21.5,23.6527,26.3301,162.465,96.8618,101.77,0.00555332,0.0856845,20.9506,543.544,-0.47809,0.0,0.0
90,22.25,24.4368,26.5641,160.289,96.8391,102.191,0.00557444,0.0852831,20.9512,543.544,-0.52033,0.0,0.0
93,23,23.7885,26.3826,162.564,96.8233,101.636,0.00559409,0.0848941,20.9516,543.544,-0.46924,0.0,0.0
96,23.75,24.3009,26.6742,161.814,96.8164,101.575,0.00561961,0.0845565,20.9519,543.534,-0.464093,0.0,0.0
99,24.5,23.8922,25.7844,166.003,96.7969,101.77,0.00564563,0.084259,20.9521,543.544,-0.484618,0.0,0.0
102,25.25,24.2782,26.3062,162.211,96.7656,101.72,0.00566907,0.0839934,20.9522,543.534,-0.482995,0.0,0.0
105,26,23.9897,26.7024,168.639,96.7583,102.038,0.00567373,0.0837999,20.9528,543.554,-0.513829,0.0,0.0
108,26.75,23.9641,26.5124,164.01,96.7433,101.73,0.00565844,0.0836588,20.9531,543.504,-0.486154,0.0,0.0
111,27.5,24.1523,26.9401,163.118,96.7242,101.845,0.00561321,0.0834982,20.953,543.494,-0.498941,0.0,0.0
114,28.25,23.664,25.8476,164.714,96.6933,101.95,0.00555535,0.083374,20.9529,543.484,-0.512008,0.0,0.0
117,29,24.2826,26.8105,162.914,96.6763,101.662,0.00548966,0.0832642,20.9528,543.494,-0.486406,0.0,0.0
120,29.75,24.1831,26.5124,163.982,96.6726,101.8,0.00544178,0.083172,20.9528,543.484,-0.499895,0.0,0.0
123,30.5,24.0756,26.8337,158.221,96.6552,101.667,0.0054051,0.083124,20.9528,543.484,-0.488982,0.0,0.0
126,31.25,24.0379,26.8247,164.613,96.6328,101.211,0.00537836,0.0831161,20.9527,543.524,-0.447744,0.0,0.0
129,32,23.5496,25.9852,161.405,96.6194,101.536,0.00539991,0.0831289,20.9525,543.484,-0.480035,0.0,0.0
132,32.75,23.7032,26.455,163.389,96.6211,101.721,0.00543705,0.0831504,20.9523,543.474,-0.497493,0.0,0.0
135,33.5,23.7562,26.8933,161.636,96.6012,101.259,0.00547084,0.083166,20.9521,543.474,-0.455491,0.0,0.0
138,34.25,23.8649,26.1558,164.55,96.5732,101.602,0.0054866,0.0832414,20.952,543.504,-0.490971,0.0,0.0
141,35,23.3959,25.6473,164.299,96.5602,101.449,0.00548938,0.0834057,20.9519,543.504,-0.477691,0.0,0.0
144,35.75,23.603,26.373,170.724,96.5622,101.323,0.00548442,0.083641,20.9518,543.504,-0.46552,0.0,0.0
147,36.5,24.2567,27.4571,161.958,96.546,100.773,0.0054752,0.0838261,20.9512,543.514,-0.414491,0.0,0.0
150,37.25,23.9617,26.9656,166.173,96.5139,101.567,0.00547569,0.0839668,20.9507,543.494,-0.493625,0.0,0.0
153,38,24.1412,26.6821,165.358,96.5041,101.144,0.00548836,0.0840308,20.9503,543.494,-0.454154,0.0,0.0
156,38.75,23.8275,27.0879,161.821,96.5049,101.433,0.00554732,0.0841045,20.9501,543.494,-0.481753,0.0,0.0
159,39.5,24.3006,26.5349,160.007,96.492,100.826,0.00564265,0.084184,20.9496,543.484,-0.424966,0.0,0.0
162,40.25,24.2222,27.2315,155.916,96.4737,100.769,0.00573446,0.0842662,20.9489,543.494,-0.421344,0.0,0.0
165,41,24.2383,26.9053,164.553,96.4509,99.7343,0.00590841,0.0843404,20.9478,543.494,-0.32378,0.0,0.0
168,41.75,24.3322,26.5423,162.153,96.4733,99.7262,0.00607472,0.0844401,20.9471,543.464,-0.320753,0.0,0.0
171,42.5,23.9989,26.8954,161.616,96.4473,100.108,0.00628397,0.0845492,20.9467,543.454,-0.360341,0.0,0.0
174,43.25,24.3249,26.9117,158.572,96.429,99.9434,0.00647146,0.0846702,20.9458,543.444,-0.346234,0.0,0.0
177,44,24.6036,26.9762,160.79,96.4176,99.8793,0.00663125,0.0847903,20.9451,543.434,-0.341165,0.0,0.0
180,44.75,24.1819,27.4879,168.984,96.4079,98.8375,0.00678725,0.0849022,20.9446,543.464,-0.240728,0.0,0.0
183,45.5,24.9981,27.2732,158.878,96.3941,99.0636,0.00696904,0.0849837,20.9438,543.454,-0.264218,0.0,0.0
186,46.25,24.3227,27.5861,161.826,96.377,99.805,0.00716571,0.0850432,20.9431,543.434,-0.338042,0.0,0.0
189,47,24.2643,26.8316,165.245,96.3685,99.1132,0.0073802,0.0850287,20.9425,543.444,-0.271619,0.0,0.0
192,47.75,24.2867,27.018,164.411,96.3511,98.4421,0.00761141,0.0850395,20.9415,543.434,-0.207658,0.0,0.0
195,48.5,24.2185,27.182,170.988,96.3584,98.3714,0.0079241,0.0850838,20.9407,543.434,-0.199982,0.0,0.0
198,49.25,24.7596,27.573,158.401,96.3267,97.5663,0.0082559,0.0851739,20.94,543.434,-0.123676,0.0,0.0
201,50,24.3969,27.3553,164.913,96.3027,96.9192,0.00854206,0.0852397,20.939,543.424,-0.0617139,0.0,0.0
204,50.75,24.9643,27.2377,160.445,96.2987,97.3211,0.00890062,0.0852741,20.9381,543.414,-0.10215,0.0,0.0
207,51.5,24.3884,27.1872,162.612,96.3036,97.2387,0.00923732,0.0853147,20.937,543.424,-0.0934659,0.0,0.0
210,52.25,24.3892,27.2444,166.161,96.2731,96.4559,0.00950226,0.0853808,20.9358,543.404,-0.0183508,0.0,0.0
213,53,24.7517,27.5757,161.081,96.2654,96.5526,0.00961142,0.0860647,20.9347,543.454,-0.0288098,0.0,0.0
216,53.75,24.3215,27.3554,162.447,96.2532,96.1928,0.00965519,0.0868342,20.9326,543.334,0.00606751,0.0,0.0
219,54.5,25.0247,27.4279,163.04,96.2512,100.457,0.00949564,0.0895802,20.9271,543.294,-0.413702,0.0,1.0
222,55.25,24.7639,27.9801,160.378,96.2362,100.876,0.00923788,0.0938576,20.9171,543.284,-0.45539,0.0,1.0
225,56,24.6792,28.2892,159.021,96.2357,101.624,0.00894767,0.0992741,20.9017,543.284,-0.526911,0.0,1.0
228,56.75,25.1224,28.8524,155.714,96.2134,101.439,0.00860496,0.105093,20.8862,543.304,-0.511557,0.0,1.0
231,57.5,25.6611,29.0615,155.135,96.2122,100.876,0.00835513,0.112532,20.8729,543.274,-0.457838,0.0,1.0
234,58.25,26.2186,29.3015,159.106,96.202,101.346,0.00803501,0.12019,20.8585,543.234,-0.503793,0.0,1.0
237,59,26.7899,30.4017,158.048,96.183,101.479,0.00774772,0.127866,20.8441,543.244,-0.518373,0.0,1.0
240,59.75,25.8132,29.731,154.592,96.1724,101.33,0.0074975,0.135412,20.8305,543.244,-0.505263,0.0,1.0
243,60.5,26.548,31.0577,161.658,96.1732,101.079,0.00728465,0.144386,20.8155,543.214,-0.481162,0.0,1.0
246,61.25,27.0175,31.1598,156.078,96.1757,101.523,0.00711447,0.152272,20.8003,543.184,-0.523364,0.0,0.0
249,62,28.0786,32.084,156.047,96.1399,100.682,0.00698262,0.160319,20.7873,543.164,-0.446442,0.0,0.0
252,62.75,27.976,32.5774,155.01,96.1294,101.076,0.00688415,0.168429,20.772,543.154,-0.485302,0.0,0.0
255,63.5,27.429,31.8189,151.695,96.1229,100.889,0.00681362,0.176512,20.7569,543.174,-0.468028,0.0,0.0
258,64.25,28.9862,33.923,150.545,96.1196,100.318,0.00676273,0.184478,20.7442,543.094,-0.413514,0.0,0.0
261,65,29.2144,34.6234,156.554,96.1131,100.124,0.00676134,0.194262,20.7293,543.064,-0.395439,0.0,0.0
264,65.75,30.162,35.5744,152.183,96.0904,98.9496,0.00680544,0.202815,20.716,543.064,-0.283594,0.0,0.0
267,66.5,30.4984,36.42,152.737,96.0957,97.2988,0.00689049,0.211478,20.6983,543.004,-0.120342,0.0,0.0
270,67.25,30.0838,36.632,151.163,96.0904,97.0702,0.00701009,0.220905,20.6791,542.964,-0.098125,0.0,0.0
273,68,30.9048,37.6652,147.493,96.0839,94.2627,0.00721203,0.229103,20.6542,542.944,0.185082,0.0,0.0
276,68.75,32.5378,38.4931,149.665,96.0697,94.1137,0.00744366,0.241137,20.6263,542.904,0.198952,0.0,0.0
279,69.5,32.2415,38.7778,145.944,96.0567,92.4195,0.00769702,0.25384,20.5973,542.894,0.373346,0.0,0.0
282,70.25,32.6632,40.2021,145.452,96.0612,89.4107,0.00796469,0.266971,20.565,542.804,0.693922,0.0,0.0
285,71,32.9348,40.6646,155.257,96.0636,89.3011,0.00823381,0.282472,20.5415,542.784,0.706034,0.0,0.0
288,71.75,34.4527,41.9058,141.764,96.0441,85.9167,0.00855654,0.297487,20.5131,542.734,1.07776,0.0,0.0
291,72.5,34.7598,43.2068,145.535,96.0417,87.4664,0.00891127,0.31519,20.4878,542.673,0.904608,0.0,0.0
294,73.25,35.4536,44.9071,140.757,96.0543,87.4851,0.00922079,0.328096,20.4615,542.633,0.903812,0.0,0.0
297,74,36.7893,46.7833,143.356,96.047,87.3381,0.00963557,0.345716,20.4327,542.563,0.919338,0.0,0.0
300,74.75,37.542,47.493,140.477,96.0506,86.8517,0.0100607,0.361826,20.4017,542.433,0.97372,0.0,0.0
303,75.5,38.4786,49.2571,138.126,96.0474,88.0733,0.0104231,0.379152,20.3688,542.433,0.838295,0.0,0.0
306,76.25,39.6547,50.6165,140.801,96.0591,85.9723,0.0108611,0.398265,20.3449,542.403,1.07301,0.0,0.0
309,77,40.617,52.4052,141.673,96.0612,83.3991,0.0112662,0.415182,20.3061,542.353,1.36713,0.0,0.0
312,77.75,41.4092,53.5266,136.009,96.0628,84.4661,0.0116115,0.432615,20.2842,542.233,1.24433,0.0,0.0
315,78.5,41.9973,55.347,136.334,96.0571,84.5582,0.0120105,0.450558,20.2589,542.223,1.23322,0.0,0.0
318,79.25,43.5809,56.4681,144.877,96.0746,82.8441,0.0125783,0.46587,20.2295,542.143,1.43305,0.0,0.0
321,80,44.8214,58.4271,134.261,96.092,83.1023,0.0131119,0.489276,20.1965,542.003,1.40471,0.0,0.0
324,80.75,45.8911,60.2954,142.779,96.0835,82.5461,0.0135964,0.501896,20.1606,541.983,1.46881,0.0,0.0
327,81.5,46.8926,61.9796,137.675,96.0847,78.8142,0.0140259,0.523963,20.1096,541.923,1.9164,0.0,0.0
330,82.25,47.9901,63.4862,124.885,96.0884,81.0423,0.0144283,0.543241,20.0558,541.783,1.64713,0.0,0.0
333,83,49.6926,65.7933,130.38,96.101,80.6583,0.0147761,0.568752,20.0095,541.733,1.69434,0.0,0.0
336,83.75,50.678,67.6645,133.658,96.1111,79.8118,0.0151227,0.593856,19.9577,541.653,1.79741,0.0,0.0
339,84.5,52.108,69.6839,134.393,96.0997,79.9961,0.0155276,0.621943,19.9068,541.522,1.77395,0.0,0.0
342,85.25,53.6341,72.3266,119.301,96.1213,78.759,0.0158877,0.645408,19.8641,541.402,1.92685,0.0,0.0
345,86,54.6408,74.2484,124.664,96.1383,78.945,0.0164586,0.673723,19.819,541.352,1.90576,0.0,0.0
348,86.75,55.9793,76.6277,129.169,96.1379,76.2374,0.0172191,0.70208,19.7562,541.212,2.24327,0.0,0.0
351,87.5,57.1579,78.0163,128.037,96.1651,76.3226,0.0175293,0.726042,19.7274,541.102,2.23519,0.0,0.0
354,88.25,58.3904,81.0374,123.328,96.1586,75.7469,0.0181268,0.756172,19.6617,540.972,2.30778,0.0,0.0
357,89,60.1123,82.5372,114.181,96.1793,72.9021,0.0187546,0.783535,19.5884,540.872,2.68011,0.0,0.0
360,89.75,61.3818,85.3081,114.157,96.1968,73.7965,0.0193569,0.828546,19.5151,540.752,2.56392,0.0,0.0
363,90.5,63.1132,87.9635,126.987,96.1862,72.38,0.0199369,0.854726,19.4458,540.652,2.75032,0.0,0.0
366,91.25,64.5508,90.8993,117.401,96.1968,74.2135,0.0204952,0.896577,19.363,540.542,2.50943,0.0,0.0
369,92,66.5975,93.3214,122.543,96.2284,72.8567,0.0211413,0.937705,19.2922,540.401,2.69108,0.0,0.0
372,92.75,67.9359,96.1195,126.735,96.2183,73.0617,0.0217141,0.977383,19.223,540.171,2.66288,0.0,0.0
375,93.5,70.7284,99.9314,121.953,96.2382,71.849,0.0224785,1.02316,19.1555,540.101,2.82677,0.0,0.0
378,94.25,72.0238,102.961,116.553,96.254,69.9258,0.0232638,1.0634,19.0889,539.931,3.09078,0.0,0.0
381,95,73.9871,106.011,111.316,96.2491,70.8056,0.0240702,1.10449,19.023,539.781,2.96936,0.0,0.0
384,95.75,76.0387,108.931,106.235,96.2816,70.1933,0.0248918,1.14823,18.9351,539.641,3.05662,0.0,0.0
387,96.5,78.1682,112.418,99.5048,96.2759,67.949,0.0258336,1.19292,18.8519,539.531,3.37035,0.0,0.0
390,97.25,80.086,115.94,110.968,96.2808,67.8682,0.0266504,1.23735,18.783,539.361,3.38235,0.0,0.0
393,98,81.972,118.834,107.395,96.3007,68.6278,0.0274685,1.28201,18.7047,539.18,3.2767,0.0,0.0
396,98.75,83.5863,122.273,121.599,96.3141,67.3428,0.028246,1.32598,18.6476,538.99,3.46086,0.0,0.0
399,99.5,86.3459,125.547,111.41,96.34375,67.3737,0.0291227,1.3686,18.5855,538.84,3.4594,0.0,0.0
402,100.25,88.0825,128.373,93.3231,96.3312,68.6652,0.0299585,1.41699,18.5315,538.67,3.27449,0.0,0.0
405,101,89.8035,131.356,116.431,96.336,67.4541,0.0309044,1.46031,18.4639,538.51,3.4471,0.0,0.0
408,101.75,91.6967,135.392,100.487,96.3494,67.0517,0.0319506,1.50564,18.3967,538.32,3.5063,0.0,0.0
411,102.5,93.915,139.226,102.702,96.3433,68.1625,0.032962,1.53868,18.3255,538.18,3.34677,0.0,0.0
414,103.25,95.7548,142.23,100.616,96.3714,64.9552,0.0339635,1.58944,18.2489,537.959,3.81576,0.0,0.0
417,104,97.657,145.727,90.2829,96.3636,68.3221,0.0349642,1.63781,18.1619,537.759,3.3262,0.0,0.0
420,104.75,100.486,148.801,118.756,96.3933,67.3713,0.0360818,1.68385,18.0874,537.619,3.46472,0.0,0.0
423,105.5,101.807,151.708,99.7804,96.3904,64.4676,0.036653,1.72754,18.0361,537.379,3.89055,0.0,0.0
426,106.25,103.43,155.455,104.407,96.3913,66.1236,0.0376965,1.77504,17.9695,537.219,3.64531,0.0,0.0
429,107,105.697,158.927,103.505,96.4018,65.1939,0.038721,1.81653,17.9083,537.089,3.78333,0.0,0.0
432,107.75,107.933,162.241,110.824,96.4172,65.0404,0.0396397,1.85851,17.8338,536.858,3.80768,0.0,0.0
435,108.5,109.666,165.081,100.462,96.4278,64.5853,0.0405764,1.88588,17.7677,536.698,3.87665,0.0,0.0
438,109.25,112.023,168.769,96.1586,96.4331,66.0112,0.0413855,1.92509,17.7145,536.518,3.66597,0.0,0.0
441,110,114.057,171.38,98.0722,96.4449,65.4399,0.0421913,1.96588,17.6601,536.308,3.75122,0.0,0.0
444,110.75,115.149,173.714,97.7279,96.4542,65.2629,0.043161,2.00556,17.6012,536.048,3.77835,0.0,0.0
447,111.5,116.843,176.309,84.4271,96.4627,64.567,0.0440821,2.03873,17.5373,535.918,3.88289,0.0,0.0
450,112.25,118.772,179.527,89.2021,96.4591,64.1939,0.0448448,2.08211,17.4686,535.938,3.93858,0.0,0.0
453,113,120.733,182.289,77.8286,96.4607,64.9109,0.0454287,2.12376,17.4268,535.267,3.83131,0.0,0.0
456,113.75,122.9,186.081,93.5696,96.4672,64.7895,0.0461509,2.16172,17.37,535.177,3.85007,0.0,0.0
459,114.5,124.049,188.394,96.0212,96.4875,64.9783,0.0467589,2.19507,17.3255,535.117,3.82396,0.0,0.0
462,115.25,125.743,191.135,101.924,96.4875,66.353,0.0473189,2.22578,17.2908,534.837,3.62147,0.0,0.0
465,116,127.612,192.348,96.0205,96.4911,65.5743,0.0477655,2.24339,17.2617,534.686,3.73602,0.0,0.0
468,116.75,128.805,195.468,102.983,96.5013,66.6802,0.0481564,2.27437,17.2168,533.015,3.57527,0.0,0.0
471,117.5,130.487,197.756,99.5529,96.5175,68.9213,0.0485085,2.30196,17.1688,534.306,3.25717,0.0,0.0
474,118.25,131.804,201.018,82.0586,96.5143,66.9981,0.0488259,2.33063,17.1162,508.333,3.53057,0.0,0.0
477,119,133.796,203.86,82.8456,96.5313,68.4005,0.0490831,2.36786,17.059,531.814,3.33193,0.0,0.0
480,119.75,135.468,206.511,73.9504,96.5232,67.9985,0.0494594,2.40768,16.992,533.445,3.38812,0.0,0.0
483,120.5,137.637,209.447,89.5906,96.5435,65.5715,0.0498165,2.44988,16.9323,533.375,3.74168,0.0,0.0
486,121.25,139.124,211.624,90.6455,96.5435,68.2356,0.0502182,2.49395,16.8501,533.225,3.35648,0.0,0.0
489,122,140.942,215.797,99.8094,96.5496,66.5584,0.0508149,2.54228,16.7903,532.745,3.5978,0.0,0.0
492,122.75,143.493,219.391,77.2042,96.5573,67.6096,0.0512499,2.58442,16.7179,532.555,3.44702,0.0,0.0
495,123.5,145.443,223.014,91.3592,96.578,68.3948,0.0522098,2.63756,16.6394,532.475,3.33741,0.0,0.0
498,124.25,147.486,226.354,82.7647,96.5732,64.7761,0.0531465,2.6922,16.5711,532.184,3.86269,0.0,0.0
501,125,149.467,229.37,80.9893,96.5695,67.9693,0.0542344,2.7388,16.4832,531.884,3.39691,0.0,0.0
504,125.75,151.517,233.343,89.0113,96.5634,68.2218,0.0556064,2.78744,16.398,531.694,3.36043,0.0,0.0
507,126.5,153.341,236.451,95.977,96.5711,66.5438,0.0566066,2.84799,16.2995,531.374,3.60208,0.0,0.0
510,127.25,155.201,240.704,83.7241,96.5748,66.295,0.0579256,2.92569,16.1739,531.133,3.63868,0.0,0.0
513,128,158.109,244.82,77.8141,96.5691,65.9263,0.059317,2.99604,16.0594,530.933,3.69205,0.0,0.0
516,128.75,161.281,249.672,87.3001,96.5679,67.8203,0.0606363,3.07078,15.9161,530.673,3.41798,0.0,0.0
519,129.5,163.809,254.514,82.3472,96.5849,65.9876,0.0619576,3.16212,15.7543,530.353,3.68464,0.0,0.0
522,130.25,166.046,258.828,65.4444,96.5995,69.9956,0.0631304,3.24443,15.5704,530.002,3.11579,0.0,0.0
525,131,168.707,264.185,87.5351,96.5922,65.3697,0.0642017,3.36323,15.365,529.752,3.77637,0.0,0.0
528,131.75,172.113,269.859,97.1814,96.5829,66.6608,0.0653287,3.48262,15.1411,529.502,3.58627,0.0,0.0
531,132.5,175.19,276.764,76.0311,96.5926,67.0737,0.0663703,3.60043,14.9068,529.262,3.52753,0.0,0.0
534,133.25,178.147,282.158,99.8307,96.5862,65.066,0.0672788,3.71506,14.7359,528.992,3.8208,0.0,0.0
537,134,180.937,287.533,73.7611,96.5817,67.0444,0.0681965,3.85053,14.5229,528.601,3.53064,0.0,0.0
540,134.75,183.493,292.419,61.3144,96.5821,66.6526,0.0690096,3.9903,14.3298,528.311,3.58737,0.0,0.0
543,135.5,186.034,299.018,71.1911,96.6004,70.0963,0.0696025,4.10967,14.1245,527.961,3.10197,0.0,0.0
546,136.25,189.97,306.267,67.1,96.589,67.8816,0.0700352,4.27289,13.8751,527.62,3.41135,0.0,0.0
549,137,193.529,314.541,106.749,96.5874,69.0825,0.0702926,4.44744,13.642,527.23,3.24157,0.0,0.0
552,137.75,197.77,322.57,101.02,96.5707,63.9077,0.070432,4.59838,13.3844,526.9,3.99299,0.0,0.0
555,138.5,201.172,329.451,65.6963,96.5776,63.7599,0.0704934,4.79017,13.0763,526.499,4.01607,0.0,0.0
558,139.25,205.248,337.83,54.138,96.5849,72.2497,0.0704981,4.95403,12.7839,526.069,2.80776,0.0,0.0
561,140,208.744,345.688,81.8442,96.5768,71.2688,0.0705015,5.11459,12.5419,525.779,2.93916,0.0,0.0
564,140.75,212.475,354.518,58.2353,96.5748,69.4638,0.0703461,5.29803,12.2838,525.408,3.18708,0.0,0.0
567,141.5,215.775,362.42,43.1682,96.5598,68.4601,0.0700535,5.47922,12.0574,525.108,3.32634,0.0,0.0
570,142.25,219.117,367.353,77.1676,96.5585,70.9006,0.0696299,5.63155,11.827,524.668,2.98743,0.0,0.0
573,143,222.127,375.571,56.4187,96.5464,73.9017,0.0690925,5.82943,11.5468,524.357,2.58524,0.0,0.0
576,143.75,226.278,384.029,62.7325,96.5419,75.8456,0.0682708,6.00622,11.2429,523.847,2.33366,0.0,0.0
579,144.5,230.474,393.391,56.2767,96.5366,73.7283,0.0673901,6.19072,10.9788,523.567,2.60697,0.0,0.0
582,145.25,234.438,402.162,39.3633,96.5285,76.8285,0.066628,6.38713,10.726,523.026,2.20778,0.0,0.0
585,146,238.418,410.632,69.2059,96.5123,72.8051,0.0659774,6.56917,10.5159,522.666,2.72641,0.0,0.0
588,146.75,242.27,417.197,76.4249,96.5123,77.9206,0.0653407,6.71845,10.2877,522.436,2.06963,0.0,0.0
591,147.5,246.261,423.69,54.0755,96.4895,75.5996,0.0649596,6.86574,10.1213,521.815,2.35984,0.0,0.0
594,148.25,249.691,431.48,67.7823,96.494,74.1895,0.0648239,6.97311,9.9813,521.685,2.54239,0.0,0.0
597,149,252.553,434.122,67.0756,96.4822,81.3176,0.0650295,7.0818,9.87924,521.055,1.65389,0.0,0.0
600,149.75,254.46,437.366,97.289,96.4964,73.0446,0.0654182,7.1674,9.80483,520.794,2.69306,0.0,0.0
603,150.5,257.081,441.766,63.8942,96.4639,71.6825,0.0659711,7.24068,9.75059,520.434,2.87187,0.0,0.0
606,151.25,260.059,447.091,82.9769,96.4522,64.319,0.0666611,7.28849,9.73725,520.034,3.91906,0.0,0.0
609,152,261.845,448.137,94.7496,96.4505,67.2572,0.0675115,7.31377,9.82769,519.623,3.48686,0.0,0.0
612,152.75,263.104,448.844,79.2483,96.4432,71.2091,0.0685645,7.28587,10.0111,519.253,2.93387,0.0,0.0
615,153.5,265.819,451.499,49.7141,96.4237,70.2912,0.0694536,7.20619,10.2728,518.913,3.05741,0.0,0.0
618,154.25,266.03,449.941,74.6602,96.4063,66.0899,0.0701401,7.0799,10.6241,518.672,3.65175,0.0,0.0
621,155,266.128,447.44,66.5199,96.4022,63.0283,0.0704337,6.91443,10.9486,518.352,4.11011,0.0,0.0
624,155.75,265.108,442.449,99.4071,96.3868,59.171,0.0702661,6.66299,11.4584,518.112,4.71939,0.0,0.0
627,156.5,263.874,436.918,89.9089,96.3714,60.0508,0.0688767,6.35503,11.9364,517.952,4.57509,0.0,0.0
630,157.25,262.002,428.705,80.1489,96.3539,61.3848,0.0670259,6.07737,12.4668,517.712,4.36081,0.0,0.0
633,158,258.856,418.796,95.2412,96.3511,62.246,0.0642436,5.67292,13.1137,517.642,4.22579,0.0,0.0
636,158.75,254.871,407.663,97.834,96.336,63.4449,0.0603147,5.31694,13.8051,517.532,4.03976,0.0,0.0
639,159.5,249.912,395.48,111.715,96.3251,63.9101,0.0558172,4.95289,14.4953,517.401,3.96799,0.0,0.0
642,160.25,245.345,383.125,108.173,96.3048,70.2656,0.0511309,4.49626,15.2923,517.361,3.04899,0.0,0.0
645,161,238.471,367.484,118.544,96.3064,75.1432,0.0468718,4.09585,15.8733,517.311,2.40003,0.0,0.0
648,161.75,231.389,352.394,124.41,96.2861,82.6549,0.0423256,3.68847,16.5627,517.271,1.47644,0.0,0.0
651,162.5,225.271,338.928,126.297,96.2735,86.5464,0.0376349,3.30318,17.1798,517.281,1.0302,0.0,0.0
654,163.25,218.846,324.651,127.046,96.2548,90.081,0.0335006,2.98467,17.7204,517.251,0.641164,0.0,0.0
657,164,212.247,310.06,130.985,96.2552,90.7058,0.0299244,2.64038,18.1862,517.201,0.574347,0.0,0.0
660,164.75,205.871,298.196,135.218,96.2496,91.2637,0.0268767,2.35687,18.5948,517.191,0.514475,0.0,0.0
663,165.5,198.481,284.246,137.01,96.2256,90.9174,0.0240995,2.09455,18.9222,517.191,0.54884,0.0,0.0
666,166.25,192.97,273.036,133.771,96.2077,91.2239,0.0217622,1.84911,19.2157,517.161,0.514489,0.0,0.0
669,167,187.329,262.781,136.476,96.1964,92.0038,0.019925,1.62761,19.4424,517.141,0.431006,0.0,0.0
672,167.75,181.556,251.643,136.179,96.1927,91.6839,0.0184108,1.4477,19.6293,517.121,0.46433,0.0,0.0
675,168.5,177.462,243.189,131.084,96.1805,92.223,0.0170076,1.29771,19.7655,517.091,0.406394,0.0,0.0
678,169.25,171.888,233.441,132.746,96.1602,90.8755,0.0159848,1.16961,19.8902,517.061,0.546717,0.0,0.0
681,170,168.605,225.779,134.875,96.1586,91.4715,0.0148844,1.05756,19.9984,517.041,0.483327,0.0,0.0
684,170.75,164.457,217.673,135.722,96.1525,90.5889,0.0139103,0.967919,20.0885,517.031,0.576496,0.0,0.0
687,171.5,160.07,209.988,132.158,96.1371,91.1963,0.0130889,0.883825,20.1715,517.021,0.510312,0.0,0.0
690,172.25,156.012,203.169,137.669,96.1196,90.9872,0.0124426,0.814529,20.243,517.021,0.530755,0.0,0.0
693,173,153.809,197.987,132.838,96.1131,91.4886,0.0118279,0.751671,20.3035,517.021,0.476948,0.0,0.0
696,173.75,150.795,191.748,132.181,96.1099,91.1999,0.0112957,0.696812,20.3539,516.991,0.507188,0.0,0.0
699,174.5,147.418,186.506,136.099,96.0896,91.5381,0.010872,0.650368,20.3954,516.951,0.469343,0.0,0.0
702,175.25,144.403,181.258,134.853,96.0888,91.6177,0.0104882,0.608221,20.4296,516.951,0.460857,0.0,0.0
705,176,141.341,175.1,138.245,96.0839,91.3656,0.0102696,0.574764,20.4493,516.921,0.48702,0.0,0.0
708,176.75,139.113,171.341,137.417,96.0835,92.2445,0.00995564,0.545702,20.4755,516.891,0.394374,0.0,0.0
711,177.5,136.92,166.731,140.748,96.0778,92.0582,0.00969889,0.517151,20.4977,516.881,0.41336,0.0,0.0
714,178.25,134.558,162.93,138.486,96.0754,91.284,0.00949984,0.496338,20.5167,516.871,0.494804,0.0,0.0
717,179,132.511,159.226,143.577,96.0616,91.8,0.00933126,0.480417,20.5327,516.861,0.438894,0.0,0.0
720,179.75,130.479,155.249,135.067,96.0656,91.4029,0.00919698,0.460323,20.5466,516.841,0.481228,0.0,0.0
723,180.5,128.372,151.61,139.081,96.0656,91.8962,0.00909423,0.442767,20.5592,516.801,0.42917,0.0,0.0
726,181.25,126.456,148.51,135.867,96.053,91.4285,0.00901031,0.427069,20.5721,516.801,0.477254,0.0,0.0
729,182,124.896,145.06,135.332,96.0494,91.7342,0.00893715,0.41439,20.5815,516.781,0.444599,0.0,0.0
732,182.75,123.24,141.826,136.599,96.0774,91.664,0.00886333,0.400895,20.5908,516.751,0.454828,0.0,0.0
735,183.5,121.328,139.708,137.664,96.0677,92.2458,0.00876085,0.388922,20.5989,516.751,0.392652,0.0,0.0
738,184.25,120.251,137.18,138.559,96.0587,91.6193,0.00864701,0.379284,20.6064,516.721,0.45766,0.0,0.0
741,185,118.672,134.293,134.787,96.062,92.5767,0.00853008,0.368966,20.6133,516.741,0.357448,0.0,0.0
744,185.75,117.021,131.814,138.084,96.0737,92.2628,0.00841532,0.360389,20.6203,516.701,0.391478,0.0,0.0
747,186.5,116.044,129.915,136.918,96.0973,91.4951,0.00829212,0.352331,20.6271,516.691,0.474668,0.0,0.0
750,187.25,114.521,128.11,137.99,96.0945,92.571,0.00819349,0.344398,20.6328,516.671,0.361311,0.0,0.0
753,188,113.018,125.426,140.473,96.1001,91.8828,0.00811783,0.3367,20.6382,516.671,0.434054,0.0,0.0
756,188.75,111.781,123.515,135.875,96.118,91.9214,0.00807063,0.330392,20.6426,516.641,0.431792,0.0,0.0
759,189.5,110.83,122.05,141.439,96.1411,92.901,0.00804983,0.324606,20.6466,516.651,0.331584,0.0,0.0
762,190.25,109.49,119.919,138.91,96.1407,93.2165,0.00804852,0.318778,20.65,516.601,0.298756,0.0,0.0
765,191,108.822,118.349,137.234,96.159,93.3594,0.00805282,0.313937,20.6533,516.591,0.285778,0.0,0.0
768,191.75,108.006,116.839,139.535,96.1704,93.141,0.00805481,0.309396,20.6561,516.551,0.309576,0.0,0.0
771,192.5,107.081,115.449,141.822,96.1813,92.7382,0.00804301,0.305271,20.6589,516.541,0.352592,0.0,0.0
774,193.25,105.836,113.911,138.195,96.1984,93.1316,0.00801172,0.300871,20.6642,516.541,0.313363,0.0,0.0
777,194,105.117,112.59,141.609,96.2012,92.7143,0.00795658,0.296226,20.6689,516.531,0.357091,0.0,0.0
780,194.75,104.246,111.154,138.496,96.2163,93.5454,0.00789877,0.292841,20.6734,516.491,0.272288,0.0,0.0
783,195.5,103.856,110.042,140.299,96.2451,92.7951,0.00784911,0.288466,20.6779,516.501,0.353074,0.0,0.0
786,196.25,103.041,108.703,143.318,96.2634,93.2112,0.00780033,0.284791,20.6818,516.491,0.311632,0.0,0.0
789,197,100.717,106.354,138.547,96.2739,93.113,0.00776007,0.280821,20.6859,516.461,0.322893,0.0,0.0
792,197.75,99.9317,105.057,136.447,96.2967,93.4552,0.00773185,0.277139,20.6901,516.441,0.289691,0.0,0.0
795,198.5,99.9861,104.96,139.658,96.317,93.8296,0.00772743,0.273478,20.694,516.431,0.253065,0.0,0.0
798,199.25,100.05,103.959,137.745,96.3413,93.8612,0.0077362,0.270393,20.6973,516.421,0.252248,0.0,0.0
801,200,98.2161,102.204,141.364,96.3624,93.3716,0.00776308,0.26699,20.7009,516.391,0.304954,0.0,0.0
804,200.75,97.7935,101.154,137.323,96.3706,94.093,0.0077915,0.263762,20.7043,516.37,0.231323,0.0,0.0
807,201.5,97.8115,100.837,142.728,96.3986,94.482,0.00780669,0.26109,20.7081,516.36,0.194236,0.0,0.0
810,202.25,97.4131,100.52,139.163,96.416,94.4763,0.0078019,0.258322,20.7115,516.36,0.19657,0.0,0.0
813,203,96.8565,99.582,137.872,96.4168,94.225,0.00777657,0.255573,20.714,516.32,0.222415,0.0,0.0
816,203.75,96.3774,98.7552,137.258,96.4396,93.875,0.00772073,0.252915,20.717,516.3,0.260686,0.0,0.0
819,204.5,95.1179,96.7305,140.342,96.4814,93.9603,0.00765313,0.250026,20.72,516.3,0.256098,0.0,0.0
822,205.25,95.1883,97.159,138.672,96.4838,95.225,0.00760008,0.247538,20.7237,516.27,0.127027,0.0,0.0
825,206,94.5449,96.0532,137.653,96.5025,94.3992,0.00756377,0.245073,20.7273,516.28,0.213142,0.0,0.0
828,206.75,93.6348,95.5394,138.381,96.5236,94.9192,0.00754409,0.242887,20.7311,516.27,0.162117,0.0,0.0
831,207.5,93.1788,94.25,141.731,96.548,95.2124,0.00752795,0.24063,20.7343,516.25,0.134735,0.0,0.0
834,208.25,92.2971,93.3432,139.378,96.5634,94.6448,0.00750235,0.238229,20.7371,516.23,0.19411,0.0,0.0
837,209,92.6733,92.8132,139.818,96.5833,94.7922,0.00747781,0.236023,20.7395,516.21,0.181053,0.0,0.0
840,209.75,92.0978,92.354,142.605,96.6146,94.7532,0.00742977,0.234005,20.7417,516.23,0.188162,0.0,0.0
843,210.5,91.5011,91.8058,140.531,96.6199,95.7402,0.0073819,0.232163,20.7441,516.19,0.0884644,0.0,0.0
846,211.25,90.7402,91.4246,142.142,96.6402,95.5096,0.00730763,0.230382,20.7463,516.2,0.113821,0.0,0.0
849,212,90.7444,90.5722,142.212,96.6588,95.6955,0.00723091,0.228884,20.7481,516.19,0.0968787,0.0,0.0
852,212.75,90.0043,90.1206,139.634,96.6674,95.3991,0.00715811,0.227449,20.7494,516.14,0.127732,0.0,0.0
855,213.5,89.5179,89.2885,140.396,96.6868,95.4787,0.00709262,0.225833,20.7512,516.13,0.121618,0.0,0.0
858,214.25,89.6257,89.2388,140.989,96.723,96.5375,0.00704488,0.224412,20.7529,516.13,0.0185617,0.0,0.0
861,215,89.0471,88.978,138.407,96.7303,95.1657,0.00701008,0.222772,20.7546,516.11,0.157725,0.0,0.0
864,215.75,88.6662,88.0663,145.482,96.7449,95.3086,0.00698095,0.221271,20.7556,516.09,0.144672,0.0,0.0
867,216.5,88.36,87.4456,145.727,96.7705,95.9354,0.00695811,0.219863,20.7555,516.09,0.0838235,0.0,0.0
870,217.25,87.8321,86.9075,140.29,96.8042,96.6196,0.00694272,0.218522,20.7559,516.07,0.018465,0.0,0.0
873,218,87.571,86.6774,140.438,96.8111,96.1973,0.00693955,0.217284,20.7569,516.06,0.0615151,0.0,0.0
876,218.75,86.8169,85.8999,139.296,96.8131,95.7584,0.00694044,0.215937,20.7584,516.04,0.105946,0.0,0.0
879,219.5,86.6673,85.9179,146.695,96.8468,96.9772,0.00696076,0.214549,20.7601,516.03,-0.0130158,0.0,0.0
882,220.25,86.6495,85.7414,142.89,96.8805,96.6995,0.0069831,0.213364,20.7618,516.04,0.0180853,0.0,0.0
885,221,85.9167,85.1278,145.361,96.8907,97.0828,0.00700259,0.211921,20.7638,516.03,-0.0191606,0.0,0.0
888,221.75,85.7066,84.1906,143.095,96.8927,96.9159,0.00700928,0.210551,20.7663,516.03,-0.00231782,0.0,0.0
891,222.5,85.0947,83.6319,139.796,96.9081,95.4978,0.0070084,0.209249,20.7675,516.02,0.141796,0.0,0.0
894,223.25,85.077,83.7963,143.72,96.9487,96.6662,0.00700315,0.208014,20.7692,515.99,0.0282247,0.0,0.0
897,224,84.4588,82.5351,143.87,96.9642,96.8359,0.00699807,0.206666,20.7709,515.97,0.012798,0.0,0.0
900,224.75,84.5294,82.7409,143.306,96.9792,95.907,0.00699251,0.204957,20.773,515.97,0.107525,0.0,0.0
903,225.5,84.119,82.3629,145.486,97.0011,97.382,0.00698621,0.204041,20.7751,515.96,-0.037906,0.0,0.0
906,226.25,83.9372,82.2619,143.048,97.0279,96.7962,0.00697446,0.202709,20.777,515.96,0.0231281,0.0,0.0
909,227,82.9947,81.8775,143.627,97.0515,97.2212,0.00696213,0.201621,20.7791,515.93,-0.0169057,0.0,0.0
912,227.75,83.1703,81.6099,143.571,97.06,96.2274,0.0069522,0.200454,20.7814,515.92,0.0833297,0.0,0.0
915,228.5,82.7232,80.7241,146.585,97.0823,97.2346,0.00694609,0.199128,20.7837,515.9,-0.0151635,0.0,0.0
918,229.25,82.4106,80.7506,142.98,97.1034,97.4238,0.00693662,0.197845,20.7859,515.91,-0.0318615,0.0,0.0
921,230,82.0404,79.9696,142.225,97.1367,97.0211,0.00692759,0.1966,20.7876,515.89,0.0115209,0.0,0.0
924,230.75,81.4473,79.5367,144.008,97.142,98.5115,0.00688883,0.195242,20.7891,515.89,-0.135403,0.0,0.0
927,231.5,81.1523,79.6673,145.991,97.1655,97.6837,0.00684806,0.194102,20.7906,515.89,-0.0514378,0.0,0.0
930,232.25,80.962,78.7508,140.777,97.1802,97.3325,0.00679693,0.193012,20.7923,515.86,-0.0151485,0.0,0.0
933,233,80.6446,78.5743,144.157,97.2017,96.7893,0.00673467,0.191769,20.7939,515.86,0.0411266,0.0,0.0
936,233.75,80.7236,78.5756,141.48,97.2155,98.3154,0.00666927,0.190863,20.7956,515.84,-0.108817,0.0,0.0
939,234.5,79.9731,78.418,141.445,97.25,97.5972,0.00660583,0.189831,20.7972,515.83,-0.0344687,0.0,0.0
942,235.25,80.5257,77.552,143.654,97.2528,97.9748,0.0065472,0.188785,20.7996,515.81,-0.0715323,0.0,0.0
945,236,78.7595,76.6456,142.939,97.2922,98.7181,0.00651571,0.187641,20.8018,515.82,-0.140726,0.0,0.0
948,236.75,78.9463,76.7268,143.486,97.2914,98.4437,0.00649755,0.18655,20.8035,515.81,-0.113879,0.0,0.0
951,237.5,78.9316,76.6374,143.021,97.3048,96.7726,0.0065306,0.185409,20.8048,515.79,0.0530458,0.0,0.0
954,238.25,78.6217,76.2734,144.724,97.3198,98.2131,0.00657443,0.18445,20.8058,515.78,-0.0883704,0.0,0.0
957,239,78.5652,76.2609,146.885,97.3357,97.0467,0.00664521,0.183533,20.8061,515.76,0.0287616,0.0,0.0
960,239.75,78.3858,76.2356,146.91,97.3625,98.8322,0.00671599,0.182509,20.8056,515.76,-0.144916,0.0,0.0
963,240.5,77.7607,75.1076,141.502,97.3791,98.7003,0.00677211,0.18161,20.8064,515.75,-0.130342,0.0,0.0
966,241.25,77.8899,75.3688,143.644,97.3958,98.6869,0.00679673,0.180791,20.8071,515.75,-0.127376,0.0,0.0
969,242,77.7759,75.1786,145.934,97.414,98.0247,0.00680773,0.179912,20.8075,515.73,-0.0604428,0.0,0.0
972,242.75,77.5822,74.605,142.914,97.4193,97.9784,0.00680486,0.178907,20.8083,515.71,-0.0553513,0.0,0.0
975,243.5,77.1209,74.8492,148.064,97.4404,98.5752,0.00680278,0.178032,20.8097,515.7,-0.111992,0.0,0.0
978,244.25,76.7542,74.1702,145.907,97.4526,99.2488,0.00680125,0.177152,20.8111,515.7,-0.176646,0.0,0.0
981,245,76.4894,74.1885,147.895,97.4871,99.7457,0.00679797,0.176084,20.8118,515.71,-0.221529,0.0,0.0
984,245.75,76.2175,73.8727,142.882,97.5021,99.0446,0.00679616,0.175171,20.8126,515.7,-0.15181,0.0,0.0
987,246.5,76.0114,73.5361,146.013,97.5184,98.9849,0.00679821,0.174276,20.8138,515.68,-0.144368,0.0,0.0
990,247.25,75.8429,73.5318,147.359,97.5293,98.7441,0.00681937,0.173482,20.8147,515.69,-0.119728,0.0,0.0
993,248,75.4668,72.8009,144.769,97.548,98.8813,0.00685484,0.173034,20.8154,515.67,-0.131307,0.0,0.0
996,248.75,75.3991,72.1598,145.549,97.5785,99.0462,0.00690047,0.172274,20.8159,515.65,-0.144399,0.0,0.0
999,249.5,75.2316,72.5744,148.054,97.5902,98.8667,0.00693724,0.171551,20.817,515.64,-0.125692,0.0,0.0
1002,250.25,74.6872,72.366,144.893,97.589,98.034,0.00698349,0.170847,20.8183,515.63,-0.0440046,0.0,0.0
1005,251,74.425,72.0217,147.002,97.615,99.1716,0.00701881,0.170156,20.8192,515.62,-0.15302,0.0,0.0
1008,251.75,74.0672,71.5348,148.158,97.6313,99.5281,0.00701951,0.169468,20.8199,515.61,-0.186114,0.0,0.0
1011,252.5,73.4901,71.6116,147.856,97.6552,99.4039,0.00702003,0.169032,20.8204,515.58,-0.17166,0.0,0.0
1014,253.25,73.7321,71.0575,150.172,97.6593,98.3994,0.00697945,0.16849,20.8212,515.57,-0.073029,0.0,0.0
1017,254,73.5308,71.0981,143.448,97.6731,98.4709,0.00692357,0.167926,20.822,515.58,-0.0786826,0.0,0.0
1020,254.75,73.3088,71.2265,147.437,97.7023,99.0965,0.0068591,0.167442,20.8228,515.57,-0.137046,0.0,0.0
1023,255.5,73.1203,70.5776,148.802,97.7141,99.4205,0.0067907,0.16675,20.8234,515.55,-0.167451,0.0,0.0
1026,256.25,73.1178,70.3537,147.8,97.7279,99.8135,0.0067212,0.166148,20.8251,515.56,-0.204242,0.0,0.0
1029,257,72.6554,69.834,147.306,97.7425,99.8115,0.00666929,0.165545,20.8269,515.54,-0.202599,0.0,0.0
1032,257.75,72.6318,69.7767,149.06,97.7717,100.114,0.00663092,0.164864,20.8282,515.54,-0.228973,0.0,0.0
1035,258.5,72.2899,69.6474,147.113,97.788,99.8159,0.00662614,0.164213,20.8292,515.53,-0.198533,0.0,0.0
1038,259.25,72.4684,69.3918,149.884,97.7908,100.06,0.00663094,0.163568,20.8297,515.52,-0.221906,0.0,0.0
1041,260,71.9319,69.0723,147.39,97.8111,100.464,0.00664579,0.162921,20.8303,515.51,-0.25879,0.0,0.0
1044,260.75,71.7662,68.8787,147.397,97.831,100.785,0.00666197,0.162266,20.8307,515.51,-0.287691,0.0,0.0
1047,261.5,71.0413,68.6772,146.059,97.8436,99.7222,0.00667377,0.161711,20.8322,515.5,-0.183941,0.0,0.0
1050,262.25,71.1802,68.0593,145.657,97.8509,99.898,0.00666095,0.161203,20.8333,515.48,-0.200254,0.0,0.0
1053,263,70.6493,67.8173,148.011,97.8623,100.251,0.0066516,0.160475,20.8341,515.49,-0.233229,0.0,0.0
1056,263.75,70.5321,68.385,143.449,97.8801,99.9398,0.00662677,0.159884,20.8346,515.49,-0.201412,0.0,0.0
1059,264.5,70.444,67.4975,149.463,97.8858,99.3202,0.00661118,0.159243,20.8349,515.48,-0.140704,0.0,0.0
1062,265.25,69.8486,67.6119,148.164,97.8915,99.4501,0.00660087,0.158686,20.835,515.45,-0.152787,0.0,0.0
1065,266,69.7881,67.1319,140.946,97.8862,100.274,0.00660087,0.158018,20.8353,515.44,-0.233133,0.0,0.0
1068,266.75,69.7295,67.7099,147.267,97.9362,99.3292,0.00660736,0.157435,20.8359,515.44,-0.136601,0.0,0.0
1071,267.5,70.1139,67.1599,148.541,97.9244,100.657,0.00661772,0.156846,20.837,515.43,-0.266182,0.0,0.0
1074,268.25,70.0173,67.5576,145.356,97.9289,100.529,0.00662349,0.156276,20.8382,515.43,-0.253444,0.0,0.0
1077,269,69.5088,66.6295,152.391,97.9378,100.242,0.00662395,0.155801,20.8395,515.43,-0.224906,0.0,0.0
1080,269.75,69.0416,66.4849,148.18,97.9382,100.741,0.00661938,0.155255,20.8408,515.41,-0.27293,0.0,0.0
1083,270.5,69.3766,66.7378,143.587,97.9687,100.275,0.00661043,0.154783,20.8424,515.42,-0.225071,0.0,0.0
1086,271.25,68.4441,66.0222,149.992,97.9691,100.201,0.00659854,0.154313,20.8436,515.41,-0.217862,0.0,0.0
1089,272,68.8725,66.0544,148.738,97.9747,100.893,0.00658988,0.153731,20.8445,515.39,-0.28385,0.0,0.0
1092,272.75,68.759,65.8735,148.53,97.9845,100.503,0.00658892,0.153083,20.8455,515.38,-0.245451,0.0,0.0
1095,273.5,67.1546,64.2777,148.217,97.995,100.571,0.00658498,0.152463,20.8465,515.41,-0.250933,0.0,0.0
1098,274.25,68.0062,65.5327,146.091,97.9971,100.224,0.00657659,0.151924,20.8478,515.38,-0.217369,0.0,0.0
1101,275,67.6379,65.3066,148.167,97.9882,100.804,0.00655977,0.151471,20.8489,515.38,-0.274039,0.0,0.0
1104,275.75,67.8201,65.2173,146.645,97.9987,101.308,0.00654125,0.15114,20.8498,515.38,-0.32122,0.0,0.0
1107,276.5,67.4759,64.4666,147.319,98.0304,100.989,,0.150642,,515.37,-0.287619,0.0,0.0
1110,277.25,66.5861,64.8458,147.354,98.0235,100.787,,0.150168,,515.34,-0.268877,0.0,0.0
1113,278,67.438,64.8497,148.964,98.0247,100.148,,0.149635,,515.32,-0.207276,0.0,0.0
1116,278.75,67.1187,64.3014,150.769,98.0283,101.153,,0.149046,,515.34,-0.303516,0.0,0.0
1119,279.5,66.8192,64.1808,152.563,98.0373,101.559,,,,515.32,-0.341377,0.0,0.0
1122,280.25,66.4865,64.4262,152.77,98.0454,101.097,,,,515.32,-0.296436,0.0,0.0
1125,281,65.8036,64.0205,146.785,98.0373,100.615,,,,515.31,-0.250981,0.0,0.0
1128,281.75,65.9162,63.5268,149.773,98.0422,101.373,,,,515.31,-0.323132,0.0,0.0
1131,282.5,65.8977,63.2177,149.363,98.0584,100.895,,,,515.28,-0.27583,0.0,0.0
1134,283.25,65.4181,62.9889,147.645,98.0547,100.993,,,,515.29,-0.285566,0.0,0.0
1137,284,65.6455,62.98,152.289,98.0698,101.101,,,,515.27,-0.294382,0.0,0.0
1140,284.75,65.6997,62.5599,148.809,98.0608,100.906,,,,515.27,-0.276641,0.0,0.0
1143,285.5,65.3636,63.0356,150.85,98.0694,101.851,,,,515.27,-0.365935,0.0,0.0
1146,286.25,65.2722,62.6108,146.139,98.0872,101.697,,,,515.24,-0.349511,0.0,0.0
1148,286.75,64.7135,62.629,142.201,98.0661,101.178,,,,515.22,-0.302119,0.0,0.0