File: 01_Data/HDPE/Cone/HDPE_Cone_HF50Scan_220131_R2.csv
Names,Time,Stack TC,Smoke TC,Exh Press,Smoke Comp,Smoke Meas,CO Meter,CO2 Meter,O2 Meter,Sample Mass,Ext Coeff,Start Test,Flame Verif
Chan Gain,,500,500,1,1,1,1,1,1,1,1,1.0,1.0
Offset,,0,0,0.14021,0,0,0,0,0,0,0,0.0,0.0
Gain,,1,1,25.011,13.3046,13.3037,1,1,1,1.00087,1.10262,1.0,1.0
Units,sec,C,C,Pa,%,%,%,%,%,g,/m,,
Baseline,,27.063,30.3118,161.468,97.9993,102.635,0.00560858,0.0683149,20.9814,-0.16602,-0.446918,,
3,0.5,24.1327,26.5558,160.068,98.317,102.74,0.00557585,0.0843305,20.9654,542.433,-0.425569,0.0,0.0
6,1.25,24.8931,26.8587,163.019,98.3613,103.054,0.00557041,0.0837881,20.9668,542.413,-0.450793,0.0,0.0
9,2,24.7058,26.8634,163.87,98.425,103.039,0.00557,0.0831498,20.9678,542.493,-0.443078,0.0,0.0
12,2.75,24.6993,26.7584,162.476,98.4664,103.048,0.00555849,0.0824721,20.9688,542.543,-0.439924,0.0,0.0
15,3.5,24.325,27.1511,165.773,98.5022,103.726,0.00553682,0.0816148,20.9699,542.483,-0.499844,0.0,0.0
18,4.25,23.8841,26.2302,161.229,98.5144,103.313,0.00550647,0.0806056,20.9713,542.473,-0.460033,0.0,0.0
21,5,24.8614,27.1829,166.797,98.5428,103.529,0.00548079,0.0797636,20.9728,542.503,-0.477442,0.0,0.0
24,5.75,24.7606,27.3205,160.575,98.5554,103.269,0.00547327,0.078968,20.974,542.463,-0.451825,0.0,0.0
27,6.5,24.8025,27,161.313,98.5367,103.204,0.00547256,0.0781385,20.975,542.473,-0.447572,0.0,0.0
30,7.25,25.3036,27.4779,161.557,98.531,103.981,0.00549071,0.0774559,20.9756,542.473,-0.520759,0.0,0.0
33,8,24.5997,27.0232,157.839,98.5066,103.52,0.0055191,0.0768251,20.9761,542.473,-0.480118,0.0,0.0
36,8.75,24.6004,27.3207,164.211,98.4957,103.517,0.00555213,0.076231,20.9765,542.443,-0.48089,0.0,0.0
39,9.5,25.5903,27.9765,166.017,98.4587,103.376,0.00559488,0.0755962,20.977,542.423,-0.471347,0.0,0.0
42,10.25,25.5518,28.0208,165.359,98.3877,103.366,0.00564274,0.0750475,20.9777,542.433,-0.477455,0.0,0.0
45,11,25.4897,27.7928,164.082,98.3455,103.582,0.00568134,0.0743791,20.9783,542.463,-0.501797,0.0,0.0
48,11.75,25.5777,27.9564,163.46,98.2711,103.389,0.00569705,0.0737173,20.9787,542.423,-0.491007,0.0,0.0
51,12.5,25.5849,28.0538,162.724,98.1936,103.119,0.00568483,0.0731603,20.9792,542.443,-0.473352,0.0,0.0
54,13.25,25.2732,28.6597,157.037,98.1035,102.835,0.00566584,0.0725054,20.98,542.413,-0.455618,0.0,0.0
57,14,25.8724,28.4597,159.633,98.0198,102.453,0.00563083,0.0719608,20.9807,542.433,-0.42783,0.0,0.0
60,14.75,25.4134,28.7137,162.899,97.9167,102.903,0.00559237,0.0715351,20.9817,542.443,-0.480387,0.0,0.0
63,15.5,26.005,28.3391,161.129,97.7981,103.055,0.00555761,0.0710335,20.9824,542.433,-0.506443,0.0,0.0
66,16.25,25.9063,28.3066,160.281,97.7413,102.599,0.00553759,0.0705067,20.9829,542.443,-0.469141,0.0,0.0
69,17,25.7342,27.8972,158.707,97.7596,102.943,0.00552922,0.0700541,20.9833,542.423,-0.499659,0.0,0.0
72,17.75,26.1822,29.196,161.408,97.7977,102.742,0.00552577,0.0696094,20.9836,542.413,-0.477059,0.0,0.0
75,18.5,26.0835,28.6386,160.551,97.8436,102.628,0.00551605,0.0692428,20.9838,542.403,-0.461739,0.0,0.0
78,19.25,25.5847,28.6152,162.338,97.8635,102.625,0.00549664,0.0689032,20.9843,542.433,-0.459466,0.0,0.0
81,20,26.1383,28.884,164.309,97.8976,102.468,0.00546385,0.06856,20.9847,542.423,-0.441315,0.0,0.0
84,20.75,25.9977,28.3675,158.288,97.9504,103.22,0.00543198,0.0683098,20.985,542.383,-0.506854,0.0,0.0
87,21.5,26.0065,28.6627,166.53,98.0007,103.478,0.0054086,0.0680509,20.985,542.403,-0.525973,0.0,0.0
90,22.25,25.8358,28.6563,165.364,98.0373,103.316,0.00540254,0.0677818,20.985,542.433,-0.507251,0.0,0.0
93,23,26.1905,28.6868,160.348,98.0917,102.928,0.00540309,0.0675513,20.9854,542.443,-0.46552,0.0,0.0
96,23.75,26.0517,28.5618,162.657,98.1445,103.214,0.00541221,0.0673438,20.9859,542.403,-0.487099,0.0,0.0
99,24.5,26.2193,28.8503,164.877,98.1912,103.565,0.00541798,0.0671997,20.9863,542.403,-0.515315,0.0,0.0
102,25.25,25.6049,28.716,162.161,98.2285,102.502,0.00541435,0.0671344,20.9865,542.413,-0.411857,0.0,0.0
105,26,25.7637,28.581,160.51,98.2691,103.001,0.00538156,0.0670168,20.9867,542.423,-0.454829,0.0,0.0
108,26.75,26.3445,28.586,161.369,98.3154,103.346,0.00534398,0.0668586,20.9868,542.393,-0.482625,0.0,0.0
111,27.5,26.3289,28.7779,168.285,98.3414,104.181,0.00531076,0.066686,20.9869,542.403,-0.557953,0.0,0.0
114,28.25,26.3277,28.8478,166.391,98.3666,103.362,0.00528779,0.0665735,20.987,542.403,-0.479075,0.0,0.0
117,29,25.2685,28.5646,164.023,98.3836,103.649,0.00527484,0.0664973,20.9871,542.393,-0.504221,0.0,0.0
120,29.75,26.2805,28.5329,158.889,98.4173,103.496,0.00527099,0.0664417,20.9871,542.413,-0.486692,0.0,0.0
123,30.5,26.2285,28.8586,160.334,98.4214,103.631,0.0052744,0.0663342,20.9871,542.423,-0.498918,0.0,0.0
126,31.25,25.8368,28.6721,162.14,98.4226,103.163,0.00528281,0.0662272,20.9872,542.403,-0.454934,0.0,0.0
129,32,26.2666,29.146,160.517,98.4149,102.82,0.00529453,0.0661627,20.9872,542.443,-0.423513,0.0,0.0
132,32.75,25.8699,28.6963,163.313,98.4133,103.308,0.00531726,0.0661615,20.9867,542.433,-0.469507,0.0,0.0
135,33.5,25.9369,28.4393,159.307,98.3982,103.703,0.00534169,0.0661778,20.9862,542.443,-0.507898,0.0,0.0
138,34.25,26.0759,28.8686,163.192,98.3792,103.902,0.00537293,0.0662279,20.9859,542.373,-0.52831,0.0,0.0
141,35,25.0941,28.0562,162.745,98.3459,103.595,0.0053957,0.0662912,20.9856,542.794,-0.502895,0.0,0.0
144,35.75,25.672,28.853,162.515,98.3251,103.538,0.00540166,0.0663488,20.9854,543.704,-0.499623,0.0,0.0
147,36.5,25.9354,28.8724,164.578,98.2789,103.169,0.0053988,0.0664099,20.9853,544.205,-0.469641,0.0,0.0
150,37.25,25.9434,28.8219,161.354,98.2224,102.886,0.00538179,0.0664544,20.9847,544.255,-0.44863,0.0,0.0
153,38,25.5766,28.5871,164.218,98.1566,102.858,0.00536491,0.066506,20.9842,544.245,-0.452514,0.0,0.0
156,38.75,26.4832,29.0073,159.105,98.0929,103.423,0.00535634,0.0665577,20.9837,543.884,-0.511756,0.0,0.0
159,39.5,26.3249,28.8349,160.825,98.0413,103.196,0.00536785,0.0666195,20.9834,543.434,-0.495594,0.0,0.0
162,40.25,26.3292,29.0402,161.952,97.9447,102.918,0.00538313,0.0667793,20.9832,542.703,-0.47907,0.0,0.0
165,41,25.8866,28.898,163.338,97.8716,103.025,0.0054316,0.066936,20.9824,541.973,-0.496357,0.0,0.0
168,41.75,25.8985,28.7199,162.416,97.7811,102.165,0.00548285,0.0670744,20.9819,541.422,-0.424166,0.0,0.0
171,42.5,26.7431,29.5643,161.139,97.7125,102.204,0.00553922,0.0671874,20.9816,542.173,-0.434684,0.0,0.0
174,43.25,25.6717,28.5984,166.562,97.6179,101.599,0.00561283,0.0674227,20.9812,542.363,-0.386672,0.0,0.0
177,44,26.7334,29.693,158.904,97.5111,101.974,0.0057323,0.0675943,20.9805,542.363,-0.432828,0.0,0.0
180,44.75,25.9706,29.052,156.266,97.4299,101.749,0.00585028,0.068162,20.9793,542.323,-0.419529,0.0,0.0
183,45.5,26.5659,29.4493,160.984,97.33,101.774,0.00598911,0.0687647,20.9776,542.413,-0.431842,0.0,0.0
186,46.25,26.5556,29.3652,162.325,97.2488,102.295,0.00616881,0.0699428,20.9747,542.353,-0.489292,0.0,0.0
189,47,25.9725,29.2759,164.876,97.1306,102.105,0.00634113,0.071492,20.9695,542.363,-0.483029,0.0,0.0
192,47.75,25.9659,29.1772,157.025,97.0368,101.815,0.0064969,0.0732633,20.964,542.363,-0.464952,0.0,0.0
195,48.5,26.3305,29.8324,164.665,96.9536,101.282,0.00663189,0.0754982,20.9592,542.363,-0.422402,0.0,0.0
198,49.25,26.7073,30.0348,163.53,96.8696,101.664,0.00674415,0.0780491,20.9532,542.373,-0.467206,0.0,0.0
201,50,26.3599,30.0059,158.008,96.7705,101.496,0.0068497,0.0807965,20.9471,542.343,-0.461098,0.0,0.0
204,50.75,26.459,30.1571,156.827,96.6722,101.646,0.00694454,0.0843646,20.9408,542.323,-0.485267,0.0,0.0
207,51.5,26.8142,30.4073,157.308,96.6016,101.685,0.00700615,0.0877097,20.9342,542.333,-0.496007,0.0,0.0
210,52.25,27.3788,31.0065,159.408,96.5228,100.934,0.00704786,0.0914204,20.9263,542.243,-0.432228,0.0,1.0
213,53,27.2339,31.3119,158.684,96.4599,101.847,0.00701923,0.0964221,20.9193,542.253,-0.52564,0.0,1.0
216,53.75,27.5932,31.0665,154.484,96.3783,101.761,0.00696409,0.100826,20.9111,542.283,-0.525688,0.0,1.0
219,54.5,27.57,31.41,157.089,96.3421,101.362,0.00686529,0.10533,20.9025,542.263,-0.49127,0.0,1.0
222,55.25,28.4704,32.643,158.646,96.3186,101.543,0.00671479,0.111343,20.8938,542.223,-0.510935,0.0,1.0
225,56,28.4323,32.4446,157.045,96.2877,101.652,0.00660508,0.116608,20.8831,542.283,-0.524354,0.0,1.0
228,56.75,28.5391,32.9191,156.624,96.2593,100.888,0.00643964,0.121952,20.8733,542.203,-0.454233,0.0,1.0
231,57.5,28.7781,33.6041,155.634,96.2674,101.087,0.00629907,0.128019,20.8626,542.183,-0.472471,0.0,1.0
234,58.25,28.6778,33.8034,151.351,96.2735,100.922,0.0061835,0.133366,20.8513,542.143,-0.456074,0.0,1.0
237,59,29.4531,33.9467,156.131,96.2922,101.407,0.0060914,0.140481,20.8372,542.133,-0.500583,0.0,1.0
240,59.75,29.5072,34.2748,154.229,96.3271,101.074,0.00602425,0.147071,20.822,542.123,-0.465233,0.0,0.0
243,60.5,29.5936,35.269,151.496,96.3507,100.33,0.00599027,0.154276,20.8059,542.053,-0.39143,0.0,0.0
246,61.25,30.1255,35.6303,151.14,96.4075,100.174,0.00599288,0.162775,20.7879,542.083,-0.370723,0.0,0.0
249,62,31.1626,36.4034,152.848,96.4546,100.039,0.00603071,0.17224,20.7725,542.033,-0.352898,0.0,0.0
252,62.75,31.3308,36.8452,152.459,96.5082,98.8493,0.00611955,0.181466,20.7573,542.003,-0.231824,0.0,0.0
255,63.5,31.41,37.4348,158.45,96.5719,98.7116,0.00628906,0.190439,20.744,542.013,-0.211962,0.0,0.0
258,64.25,31.9421,38.2187,152.014,96.6495,96.2107,0.00641263,0.199128,20.7303,541.973,0.0440102,0.0,0.0
261,65,32.5069,38.9218,149.271,96.74,96.607,0.00685636,0.208342,20.7134,541.963,0.0133127,0.0,0.0
264,65.75,32.9421,38.8979,151.817,96.8147,95.2245,0.00712431,0.216285,20.7032,541.903,0.160185,0.0,0.0
267,66.5,33.4933,40.4609,156.915,96.8947,94.3854,0.00743386,0.222077,20.6869,541.863,0.253788,0.0,0.0
270,67.25,33.8194,40.7701,150.525,96.9983,93.7354,0.00782715,0.232629,20.6645,541.823,0.330956,0.0,0.0
273,68,34.4644,42.0071,148.654,97.1014,91.258,0.00826931,0.248114,20.6364,541.803,0.600302,0.0,0.0
276,68.75,35.0461,42.8168,146.55,97.1826,91.0391,0.0087035,0.256825,20.6067,541.783,0.631608,0.0,0.0
279,69.5,35.3662,44.2193,147.644,97.278,89.8808,0.00895884,0.270749,20.5866,541.733,0.764949,0.0,0.0
282,70.25,36.4075,45.0059,147.738,97.3763,91.1041,0.00931692,0.284442,20.5601,541.633,0.643967,0.0,0.0
285,71,37.3534,46.2674,142.827,97.4705,88.3961,0.0096858,0.297665,20.5353,541.603,0.945172,0.0,0.0
288,71.75,37.9029,47.4459,140.664,97.5529,89.2645,0.0100586,0.312669,20.5102,541.5625,0.85879,0.0,0.0
291,72.5,37.4905,47.7326,135.408,97.6483,86.2602,0.0103918,0.323073,20.489,541.532,1.19938,0.0,0.0
294,73.25,39.111,49.6385,138.086,97.7271,87.8375,0.010661,0.338603,20.4616,541.512,1.03192,0.0,0.0
297,74,39.9092,51.0077,142.9,97.8156,86.9418,0.0109834,0.355788,20.4295,541.432,1.13981,0.0,0.0
300,74.75,40.9787,52.3165,145.727,97.8887,87.3629,0.0112865,0.370815,20.4008,541.392,1.1003,0.0,0.0
303,75.5,41.3492,53.3263,135.938,97.9439,88.0989,0.0115366,0.388526,20.3662,541.362,1.02461,0.0,0.0
306,76.25,42.6075,54.9136,154.737,98.0137,89.2386,0.0118235,0.407155,20.3314,541.272,0.907189,0.0,0.0
309,77,43.5074,56.0636,141.797,98.0811,88.211,0.0120327,0.42568,20.3019,541.182,1.02586,0.0,0.0
312,77.75,44.2332,57.9911,134.505,98.127,85.3629,0.0122882,0.443472,20.2717,541.092,1.34782,0.0,0.0
315,78.5,44.8607,58.9885,137.558,98.1595,84.9529,0.0125301,0.462205,20.2411,541.032,1.39759,0.0,0.0
318,79.25,45.8592,61.4731,139.815,98.196,88.0729,0.0127661,0.478318,20.2106,540.912,1.05233,0.0,0.0
321,80,47.3899,62.7511,139.902,98.2285,87.9138,0.013,0.49848,20.1758,540.882,1.07302,0.0,0.0
324,80.75,48.0517,64.1561,135.434,98.2691,86.0686,0.0132647,0.513179,20.1348,540.772,1.28219,0.0,0.0
327,81.5,49.1657,66.3228,139.391,98.291,84.8339,0.0135382,0.534363,20.0915,540.732,1.4241,0.0,0.0
330,82.25,50.325,67.4532,141.292,98.2992,83.5295,0.013826,0.556045,20.0486,540.652,1.57477,0.0,0.0
333,83,51.8809,69.7214,133.864,98.3292,82.6444,0.0141284,0.58116,19.9986,540.532,1.68076,0.0,0.0
336,83.75,52.8855,71.3412,130.131,98.3446,83.7974,0.014443,0.602303,19.9621,540.472,1.54827,0.0,0.0
339,84.5,54.4624,73.3911,129.395,98.3215,83.4438,0.0148334,0.628043,19.9144,540.401,1.5869,0.0,0.0
342,85.25,55.2114,75.6,127.401,98.3036,82.7361,0.0153218,0.655356,19.8713,540.301,1.66751,0.0,0.0
345,86,56.8456,78.041,128.241,98.2971,81.2323,0.0157701,0.684973,19.8257,540.161,1.84429,0.0,0.0
348,86.75,58.2894,80.3458,129.592,98.2748,80.5466,0.0162544,0.716928,19.7815,540.031,1.92409,0.0,0.0
351,87.5,59.1866,82.4944,119.219,98.2549,79.582,0.0167412,0.748593,19.7304,539.861,2.03866,0.0,0.0
354,88.25,61.0823,85.0824,128.45,98.2265,80.7589,0.0173248,0.78599,19.6487,539.771,1.89387,0.0,0.0
357,89,63.067,87.8709,114.043,98.1912,77.7396,0.0180407,0.826495,19.5642,539.701,2.25894,0.0,0.0
360,89.75,64.304,90.4346,128.28,98.1595,80.2856,0.0187819,0.861668,19.4824,539.501,1.94413,0.0,0.0
363,90.5,66.2345,93.2211,116.164,98.1282,77.3222,0.0194158,0.910605,19.4062,539.371,2.30481,0.0,0.0
366,91.25,67.6101,95.9177,121.81,98.084,77.7294,0.0201673,0.952849,19.3227,539.19,2.24964,0.0,0.0
369,92,69.0997,98.772,119.48,98.0446,73.9934,0.0209239,0.994877,19.2499,539.09,2.72217,0.0,0.0
372,92.75,71.3147,101.741,116.167,98.0125,75.1846,0.0216217,1.04485,19.1551,538.98,2.56454,0.0,0.0
375,93.5,73.1678,104.474,107.141,97.9841,74.6475,0.0223473,1.09016,19.0615,538.84,2.63108,0.0,0.0
378,94.25,74.7052,107.789,112.585,97.9443,76.4282,0.0230659,1.13838,18.9649,538.64,2.39914,0.0,0.0
381,95,76.7179,111.541,114.529,97.9199,77.3336,0.0237765,1.19896,18.8638,538.4,2.28283,0.0,0.0
384,95.75,79.284,115.283,119.021,97.9033,76.6434,0.0244758,1.25738,18.7678,538.21,2.3679,0.0,0.0
387,96.5,80.7697,118.352,116.688,97.9256,76.0981,0.0249936,1.31312,18.7121,538.149,2.43916,0.0,0.0
390,97.25,83.7645,122.783,106.207,98.0239,76.8301,0.0257976,1.36586,18.6216,537.979,2.35626,0.0,0.0
393,98,85.563,126.079,106.817,98.125,75.1936,0.0266751,1.41762,18.5461,537.879,2.57449,0.0,0.0
396,98.75,87.5862,129.76,98.9484,98.2228,74.7892,0.0275412,1.46821,18.475,537.579,2.63628,0.0,0.0
399,99.5,89.6275,133.443,110.687,98.3085,75.8464,0.0283472,1.50267,18.3914,537.369,2.50895,0.0,0.0
402,100.25,91.8824,136.783,88.2961,98.3662,74.8164,0.0292168,1.55041,18.309,537.199,2.64687,0.0,0.0
405,101,94.0933,140.123,106.515,98.4246,75.9731,0.0300395,1.59879,18.2311,537.049,2.50423,0.0,0.0
408,101.75,96.1186,143.452,96.5761,98.4924,75.6349,0.0308395,1.65173,18.1593,536.808,2.55404,0.0,0.0
411,102.5,98.1984,147.3,105.457,98.5172,77.2243,0.0316279,1.6956,18.0871,536.718,2.35532,0.0,0.0
414,103.25,99.8513,150.331,85.1682,98.5521,74.2724,0.0325252,1.73661,18.0156,536.398,2.73572,0.0,0.0
417,104,102.417,153.66,101.647,98.557,73.3775,0.0331793,1.78191,17.9555,536.228,2.85344,0.0,0.0
420,104.75,104.065,156.36,133.945,98.5529,76.4363,0.0340848,1.82704,17.8907,536.068,2.45803,0.0,0.0
423,105.5,105.742,159.995,113.619,98.5615,75.3462,0.0349012,1.87033,17.8346,535.817,2.5978,0.0,0.0
426,106.25,107.708,163.489,91.3698,98.5306,73.9439,0.0357634,1.9108,17.7755,535.487,2.77648,0.0,0.0
429,107,109.767,167.186,103.487,98.5022,76.4412,0.0367797,1.95174,17.7259,535.237,2.45243,0.0,0.0
432,107.75,111.707,169.417,99.501,98.4518,73.4855,0.0378569,1.98645,17.6633,535.037,2.82889,0.0,0.0
435,108.5,112.826,172.106,103.784,98.4157,71.4604,0.0389347,2.03387,17.5921,534.677,3.09562,0.0,0.0
438,109.25,114.654,174.575,101.463,98.3556,73.2955,0.0402126,2.07784,17.5402,534.376,2.84447,0.0,0.0
441,110,116.939,178.182,94.5466,98.2752,72.0723,0.0411442,2.12597,17.4556,534.106,2.99934,0.0,0.0
444,110.75,118.41,181.567,86.4337,98.194,73.9427,0.0424983,2.18122,17.3683,533.796,2.74354,0.0,0.0
447,111.5,120.394,185.507,94.7412,98.1031,73.8111,0.0434855,2.23239,17.2937,533.535,2.7518,0.0,0.0
450,112.25,122.915,189.012,92.6315,97.9841,71.4702,0.0447602,2.27435,17.227,533.255,3.05179,0.0,0.0
453,113,124.963,192.275,86.6681,97.8667,73.2992,0.0460212,2.3226,17.1638,532.895,2.79579,0.0,0.0
456,113.75,126.658,195.109,90.6791,97.777,71.7008,0.0472577,2.3653,17.1016,532.545,3.00017,0.0,0.0
459,114.5,128.557,198.326,102.875,97.8099,73.5322,0.0484598,2.42135,17.0032,532.304,2.75947,0.0,0.0
462,115.25,130.324,201.563,94.7687,97.8448,71.6594,0.0497129,2.47046,16.9191,531.984,3.01246,0.0,0.0
465,116,132.43,205.164,97.5959,97.8822,69.2197,0.0506264,2.52036,16.8365,531.804,3.35118,0.0,0.0
468,116.75,134.8,208.626,94.4443,97.9183,70.8726,0.0515825,2.56664,16.7754,531.223,3.12651,0.0,0.0
471,117.5,136.613,211.2,99.0148,97.9484,73.8176,0.0524282,2.60836,16.7306,530.933,2.73568,0.0,0.0
474,118.25,138.094,213.479,108.945,98.0166,74.2273,0.0531082,2.64217,16.6814,530.443,2.68889,0.0,0.0
477,119,139.582,215.283,85.1369,98.0426,74.3601,0.0537765,2.67804,16.6361,530.092,2.67417,0.0,0.0
480,119.75,141.222,218.717,94.6435,98.0897,74.4132,0.0544416,2.70897,16.587,529.722,2.6719,0.0,0.0
483,120.5,143.209,222.068,75.2624,98.1595,72.4032,0.0551049,2.74131,16.5437,529.452,2.94365,0.0,0.0
486,121.25,144.511,223.555,78.3514,98.2005,74.3901,0.0560001,2.76837,16.5096,528.951,2.68583,0.0,0.0
489,122,145.106,225.024,96.3014,98.2504,74.0397,0.057125,2.79405,16.4804,528.701,2.73641,0.0,0.0
492,122.75,146.51,226.96,102.036,98.2874,71.4462,0.0584524,2.82782,16.4024,528.181,3.08493,0.0,0.0
495,123.5,148.126,229.059,79.8177,98.3223,71.92,0.0604789,2.86855,16.308,527.881,3.02443,0.0,0.0
498,124.25,149.554,231.741,97.2799,98.3658,71.484,0.0628046,2.91484,16.2054,527.66,3.08752,0.0,0.0
501,125,151.998,235.383,78.9223,98.3999,71.4507,0.0648617,2.97565,16.1003,527.36,3.09538,0.0,0.0
504,125.75,154.109,238.818,109.103,98.421,70.0602,0.0672183,3.04265,16.0006,527.05,3.28754,0.0,0.0
507,126.5,156.549,242.31,81.1175,98.4413,70.7682,0.0695214,3.11431,15.8887,526.73,3.19228,0.0,0.0
510,127.25,157.659,245.973,76.7676,98.4742,71.7962,0.0715759,3.18904,15.7503,526.299,3.05603,0.0,0.0
513,128,160.413,249.852,69.1158,98.4567,70.1572,0.0733562,3.27026,15.6313,525.949,3.27767,0.0,0.0
516,128.75,163.569,254.757,81.0427,98.4563,69.0456,0.0748384,3.34086,15.5134,525.569,3.43211,0.0,0.0
519,129.5,165.009,258.109,81.6373,98.4425,71.5627,0.0760281,3.42163,15.3658,525.338,3.08441,0.0,0.0
522,130.25,167.492,263.742,81.4045,98.4348,69.9936,0.0769687,3.493,15.2218,524.848,3.2981,0.0,0.0
525,131,170.471,267.517,63.2393,98.3942,72.3979,0.0776571,3.57995,15.1015,524.568,2.96745,0.0,0.0
528,131.75,172.804,272.944,83.6302,98.3653,69.726,0.0781635,3.66453,14.985,524.277,3.32832,0.0,0.0
531,132.5,175.413,277.293,99.8048,98.3235,69.8109,0.0786185,3.73218,14.9001,523.957,3.31244,0.0,0.0
534,133.25,178.592,282.251,70.9186,98.276,72.782,0.0789867,3.79172,14.8341,523.567,2.90465,0.0,0.0
537,134,180.783,286.817,92.1942,98.2131,68.5101,0.0793094,3.84518,14.7783,523.237,3.48349,0.0,0.0
540,134.75,182.592,290.039,69.6424,98.1469,71.6821,0.0796374,3.88794,14.7365,522.856,3.03921,0.0,0.0
543,135.5,184.762,293.263,90.586,98.0726,69.0399,0.0797711,3.92559,14.7042,522.696,3.39514,0.0,0.0
546,136.25,186.848,296.159,81.8106,98.0149,68.7577,0.0796681,3.95304,14.6541,522.276,3.42906,0.0,0.0
549,137,187.039,298.213,67.8663,97.9159,72.0686,0.0795075,4.01154,14.5724,521.955,2.96441,0.0,0.0
552,137.75,189.578,301.758,63.5973,97.8257,71.1965,0.0789121,4.06465,14.491,521.595,3.07325,0.0,0.0
555,138.5,192.761,308.041,86.3467,97.7238,71.2298,0.0783373,4.11089,14.4316,521.305,3.05865,0.0,0.0
558,139.25,194.859,311.307,89.1915,97.6418,72.8729,0.0776773,4.14987,14.3879,520.965,2.82995,0.0,0.0
561,140,196.862,314.143,97.5066,97.5212,68.1069,0.0771912,4.1891,14.348,520.704,3.4722,0.0,0.0
564,140.75,198.473,317.653,67.4351,97.4181,71.3435,0.0769308,4.22231,14.3051,520.394,3.01292,0.0,0.0
567,141.5,199.917,319.763,88.9892,97.302,70.3943,0.0769055,4.2584,14.2739,520.024,3.13093,0.0,0.0
570,142.25,202.774,324.532,81.3435,97.1948,69.0752,0.0771624,4.28391,14.2511,519.794,3.30323,0.0,0.0
573,143,205.433,327.957,74.7785,97.1059,69.454,0.0775346,4.30113,14.2345,519.523,3.24148,0.0,0.0
576,143.75,205.397,329.124,74.9106,96.978,65.7546,0.0779139,4.30871,14.2224,519.183,3.75814,0.0,0.0
579,144.5,206.71,329.733,89.6189,96.8756,68.4199,0.0781781,4.31374,14.2135,518.963,3.36361,0.0,0.0
582,145.25,207.636,331.562,85.2415,96.7774,71.931,0.0781517,4.31657,14.2062,518.663,2.86977,0.0,0.0
585,146,210.302,334.028,72.6345,96.6921,69.7057,0.0781324,4.32486,14.2005,518.432,3.16519,0.0,0.0
588,146.75,211.244,335.265,68.7135,96.606,73.9796,0.0774462,4.33799,14.1819,518.052,2.58101,0.0,0.0
591,147.5,212.285,338.446,83.0799,96.5183,67.0647,0.0767114,4.35492,14.1622,517.762,3.52137,0.0,0.0
594,148.25,214.039,340.056,76.1547,96.4359,68.4138,0.0757749,4.37469,14.1479,517.431,3.32047,0.0,0.0
597,149,215.991,342.367,75.7242,96.4034,71.618,0.0747408,4.39723,14.1373,517.281,2.87451,0.0,0.0
600,149.75,217.634,344.228,96.1769,96.3454,72.5294,0.073683,4.41713,14.1295,516.981,2.74637,0.0,0.0
603,150.5,219.745,346.659,66.8206,96.2942,71.8993,0.0726485,4.41457,14.145,516.671,2.82562,0.0,0.0
606,151.25,221.726,349.991,54.5197,96.2601,71.4052,0.0712761,4.38714,14.2254,516.401,2.88889,0.0,0.0
609,152,222.067,350.152,101.399,96.2516,67.0278,0.0696411,4.35625,14.3644,516.15,3.49993,0.0,0.0
612,152.75,222.194,349.144,83.4051,96.2455,65.5366,0.0681787,4.26755,14.5527,515.98,3.71693,0.0,0.0
615,153.5,221.811,347.217,83.4211,96.2532,69.1312,0.0653606,4.15062,14.8063,515.82,3.20123,0.0,0.0
618,154.25,220.77,344.793,89.8792,96.2812,68.0558,0.0621113,4.01122,15.0407,515.62,3.3557,0.0,0.0
621,155,219.855,340.007,96.5051,96.3161,66.7895,0.0585566,3.85509,15.3969,515.54,3.54087,0.0,0.0
624,155.75,217.334,333.864,102.065,96.3706,68.0627,0.0548087,3.65049,15.6566,515.38,3.36369,0.0,0.0
627,156.5,214.924,325.717,105.281,96.4282,68.6676,0.0520764,3.46264,16.0424,515.24,3.28389,0.0,0.0
630,157.25,210.491,317.448,116.82,96.4993,74.6171,0.047383,3.19415,16.5147,515.199,2.48734,0.0,0.0
633,158,206.6,307.458,122.478,96.5809,74.3617,0.0427505,2.91881,17.0092,515.199,2.52867,0.0,0.0
636,158.75,201.441,297.324,128.977,96.6678,80.4735,0.0388572,2.68415,17.4874,515.199,1.7734,0.0,0.0
639,159.5,196.114,285.892,131.227,96.7705,87.2325,0.0346702,2.4136,17.9552,515.199,1.00362,0.0,0.0
642,160.25,190.171,275.293,135.746,96.8541,91.8783,0.0316178,2.17396,18.347,515.169,0.510113,0.0,0.0
645,161,184.344,264.585,139.781,96.9552,93.7885,0.0281095,1.91683,18.7249,515.189,0.321177,0.0,0.0
648,161.75,178.928,253.739,139.367,97.0624,95.1535,0.0250773,1.69229,19.0678,515.22,0.192115,0.0,0.0
651,162.5,173.447,244.117,141.644,97.1558,95.583,0.0224804,1.51278,19.3657,515.209,0.157853,0.0,0.0
654,163.25,168.157,234.663,143.892,97.2411,95.5692,0.0202724,1.31995,19.6384,515.23,0.167734,0.0,0.0
657,164,163.032,226.039,146.493,97.3385,96.1989,0.0183081,1.16467,19.8674,515.209,0.113902,0.0,0.0
660,164.75,159.043,217.136,144.495,97.4526,96.4807,0.0166636,1.02631,20.0557,515.179,0.096946,0.0,0.0
663,165.5,154.675,209.753,143.15,97.5342,96.7409,0.0152757,0.908323,20.2075,515.199,0.0789872,0.0,0.0
666,166.25,150.266,202.368,143.901,97.6118,96.7097,0.0140955,0.801012,20.3337,515.25,0.089801,0.0,0.0
669,167,146.94,195.298,143.201,97.6881,96.9801,0.0130452,0.711037,20.4302,515.31,0.070357,0.0,0.0
672,167.75,143.249,188.939,142.802,97.7713,97.4734,0.0121985,0.635562,20.5079,515.33,0.0295226,0.0,0.0
675,168.5,139.524,182.454,145.998,97.8497,97.397,0.0114108,0.567948,20.5716,515.29,0.0448481,0.0,0.0
678,169.25,136.596,177.369,142.917,97.9134,97.7454,0.0107618,0.514224,20.621,515.27,0.0166155,0.0,0.0
681,170,133.912,171.489,146.916,97.9715,97.529,0.0102568,0.467479,20.6643,515.26,0.0437864,0.0,0.0
684,170.75,131.098,166.365,140.551,98.0409,97.7312,0.00979851,0.426513,20.7039,515.28,0.0306088,0.0,0.0
687,171.5,128.206,161.631,141.128,98.0754,97.5221,0.00940496,0.393712,20.7376,515.27,0.0547268,0.0,0.0
690,172.25,125.579,157.312,144.037,98.0941,97.8367,0.00907895,0.361809,20.7654,515.25,0.0254134,0.0,0.0
693,173,122.568,152.186,147.742,98.1392,97.9565,0.00882461,0.33385,20.7876,515.27,0.0180231,0.0,0.0
696,173.75,119.963,148.232,144.171,98.1595,97.9443,0.00858251,0.309888,20.805,515.28,0.0212254,0.0,0.0
699,174.5,118.729,145.238,143.532,98.194,98.3312,0.00835932,0.289726,20.8196,515.23,-0.0135077,0.0,0.0
702,175.25,116.551,141.321,145.078,98.2143,98.4112,0.00815811,0.271115,20.8327,515.22,-0.019372,0.0,0.0
705,176,113.758,136.973,145.942,98.2261,98.6942,0.00797121,0.254714,20.8436,515.169,-0.0459832,0.0,0.0
708,176.75,112.008,134.096,144.197,98.2541,98.2663,0.00785242,0.241549,20.8496,515.179,-0.00119805,0.0,0.0
711,177.5,111.091,131.835,146.571,98.2537,98.0259,0.00770076,0.228174,20.8596,515.149,0.0224472,0.0,0.0
714,178.25,109.144,127.944,145.252,98.2545,98.4348,0.00756514,0.217333,20.8669,515.189,-0.0177275,0.0,0.0
717,179,107.468,125.805,148.28,98.2415,98.4274,0.00746626,0.207565,20.8741,515.23,-0.0182884,0.0,0.0
720,179.75,105.835,122.656,145.187,98.2407,98.1282,0.00734766,0.200883,20.8793,515.22,0.0110786,0.0,0.0
723,180.5,103.865,119.411,147.125,98.2346,98.4335,0.00724136,0.192383,20.8872,515.22,-0.0195672,0.0,0.0
726,181.25,102.577,117.555,143.344,98.2098,97.9281,0.00713421,0.184851,20.893,515.189,0.0277901,0.0,0.0
729,182,101.332,115.448,144.782,98.1936,98.6982,0.00700537,0.17936,20.8983,515.179,-0.0495816,0.0,0.0
732,182.75,99.7443,113.152,146.874,98.168,98.749,0.0068704,0.17205,20.9034,515.25,-0.0570729,0.0,0.0
735,183.5,98.8347,110.654,145.675,98.1497,97.9228,0.00675753,0.165913,20.9077,515.23,0.0223908,0.0,0.0
738,184.25,96.8534,108.144,143.691,98.1124,97.5992,0.00664261,0.160056,20.9127,515.109,0.0507224,0.0,0.0
741,185,96.4176,106.739,143.879,98.0754,98.0137,0.00654533,0.154522,20.9182,515.25,0.0060871,0.0,0.0
744,185.75,95.3336,105.071,146.361,98.0466,97.6569,0.00645482,0.149948,20.9231,515.169,0.0385246,0.0,0.0
747,186.5,94.0081,103.016,146.68,98.0239,97.5834,0.0063849,0.145229,20.927,515.159,0.0435626,0.0,0.0
750,187.25,92.8791,101.324,145.243,97.991,98.1538,0.00632718,0.141071,20.9305,515.169,-0.0160574,0.0,0.0
753,188,92.418,99.9987,144.425,97.9557,98.723,0.00629384,0.137334,20.9333,515.199,-0.0754725,0.0,0.0
756,188.75,91.1104,98.1685,143.966,97.9293,97.909,0.0062805,0.133926,20.9357,515.179,0.00200371,0.0,0.0
759,189.5,90.5714,96.9388,148.602,97.9143,98.9479,0.00628314,0.130539,20.9379,515.22,-0.101573,0.0,0.0
762,190.25,89.628,95.4651,145.504,97.8862,98.8497,0.00631028,0.127693,20.9397,515.179,-0.0947327,0.0,0.0
765,191,88.7166,94.03,147.053,97.8546,97.9804,0.00634083,0.124976,20.9417,515.189,-0.0124339,0.0,0.0
768,191.75,87.8487,92.5271,145.539,97.8404,98.6434,0.0063952,0.122295,20.9443,515.149,-0.0790656,0.0,0.0
771,192.5,87.3745,91.6414,145.055,97.9191,99.1327,0.00644484,0.119747,20.9469,515.169,-0.119132,0.0,0.0
774,193.25,86.3767,90.3834,146.189,97.995,98.0718,0.00648728,0.117384,20.9492,515.189,-0.00757186,0.0,0.0
777,194,85.6483,88.3318,145.123,98.0641,98.3617,0.00652159,0.115049,20.9509,515.139,-0.0293088,0.0,0.0
780,194.75,84.8007,87.3529,147.397,98.1485,99.6442,0.00654594,0.113085,20.9522,515.159,-0.146282,0.0,0.0
783,195.5,83.8328,86.7179,145.503,98.2293,99.2374,0.00656257,0.11103,20.9543,515.189,-0.0987552,0.0,0.0
786,196.25,83.7805,85.8059,148.733,98.2919,100.015,0.00657291,0.109191,20.9563,515.189,-0.16808,0.0,0.0
789,197,82.7966,84.9404,142.16,98.3455,99.3551,0.00656043,0.107705,20.9579,515.23,-0.098796,0.0,0.0
792,197.75,82.0581,83.7155,145.378,98.3897,99.4558,0.0065428,0.106097,20.9591,515.24,-0.104241,0.0,0.0
795,198.5,81.4996,82.9821,144.418,98.4356,99.0324,0.00649607,0.104598,20.9605,515.199,-0.058463,0.0,0.0
798,199.25,80.7623,82.2284,149.781,98.4693,99.0303,0.00643349,0.103366,20.9616,515.179,-0.0549541,0.0,0.0
801,200,80.3737,80.9196,144.137,98.4937,100.174,0.00638063,0.10206,20.9624,515.159,-0.163623,0.0,0.0
804,200.75,79.9564,80.3981,143.254,98.5127,99.9093,0.00632974,0.100823,20.9637,515.109,-0.136157,0.0,0.0
807,201.5,79.7023,79.6729,148.686,98.5237,100.101,0.00628601,0.0996562,20.9646,515.169,-0.153575,0.0,0.0
810,202.25,79.0944,79.0636,143.031,98.5444,100.272,0.00624279,0.0985613,20.9652,515.169,-0.168122,0.0,0.0
813,203,78.3914,78.1861,147.251,98.5342,100.095,0.00621128,0.0975114,20.9661,515.199,-0.15199,0.0,0.0
816,203.75,77.8642,77.2907,151.669,98.5326,100.734,0.00614382,0.0966027,20.9647,515.159,-0.213742,0.0,0.0
819,204.5,77.4462,76.9798,146.265,98.531,99.7051,0.00606472,0.0956952,20.963,515.099,-0.114573,0.0,0.0
822,205.25,76.8154,75.8416,147.873,98.5213,100.269,0.00598512,0.0950336,20.9622,515.149,-0.170081,0.0,0.0
825,206,76.5959,75.6075,146.71,98.5054,100.339,0.00591139,0.0941717,20.9616,515.109,-0.178369,0.0,0.0
828,206.75,76.1873,74.9701,148.38,98.4673,100.506,0.00585942,0.0933032,20.9611,515.159,-0.198228,0.0,0.0
831,207.5,75.8626,74.2392,142.592,98.449,99.4855,0.00584023,0.0925359,20.961,515.109,-0.101298,0.0,0.0
834,208.25,75.5239,74.1073,147.061,98.4271,101.165,0.0058342,0.0917641,20.9614,515.099,-0.265381,0.0,0.0
837,209,75.3996,73.1663,151.065,98.3763,99.5338,0.00588672,0.0910254,20.9616,515.109,-0.113136,0.0,0.0
840,209.75,74.2977,72.7551,147.535,98.3296,100.082,0.00594747,0.0903194,20.9618,515.099,-0.170842,0.0,0.0
843,210.5,74.1286,71.3938,147.869,98.2886,100.362,0.00600134,0.0896463,20.9619,515.099,-0.201873,0.0,0.0
846,211.25,74.3281,71.6579,148.526,98.2419,100.132,0.00604935,0.089034,20.9624,515.109,-0.184297,0.0,0.0
849,212,73.4805,71.3058,144.896,98.1964,100.246,0.0060804,0.0885357,20.963,515.089,-0.199828,0.0,0.0
852,212.75,73.4786,70.3141,148.784,98.1217,100.021,0.0060963,0.0880181,20.9632,515.129,-0.185385,0.0,0.0
855,213.5,72.2038,70.9104,145.223,98.0564,99.2837,0.00609543,0.0875597,20.9633,515.109,-0.120311,0.0,0.0
858,214.25,72.5419,69.9741,145.354,97.9979,99.939,0.0060898,0.0871406,20.9634,515.139,-0.189705,0.0,0.0
861,215,71.8321,68.8478,144.115,97.9301,100.043,0.00608357,0.0867492,20.9635,515.139,-0.206494,0.0,0.0
864,215.75,71.2714,68.3574,149.265,97.84,100.401,0.00607903,0.0864069,20.964,515.139,-0.249919,0.0,0.0
867,216.5,72.1532,68.5572,146.497,97.7632,99.3466,0.00607834,0.085989,20.9645,515.139,-0.155397,0.0,0.0
870,217.25,71.787,68.6325,149.192,97.7766,99.8736,0.00608234,0.0855628,20.9649,515.169,-0.205242,0.0,0.0
873,218,70.963,67.8435,144.164,97.7908,100.065,0.00609593,0.0851306,20.9652,515.139,-0.222376,0.0,0.0
876,218.75,70.9809,67.543,149.122,97.8087,99.0669,0.00611083,0.0847636,20.9654,515.099,-0.123627,0.0,0.0
879,219.5,69.6037,65.8545,150.178,97.8152,99.5732,0.0061212,0.0843806,20.9656,515.139,-0.172288,0.0,0.0
882,220.25,70.0492,67.2726,148.618,97.8416,100.374,0.00612426,0.0840069,20.9657,515.109,-0.247175,0.0,0.0
885,221,69.9087,66.8503,149.166,97.87,100.421,0.00611047,0.0836516,20.9658,515.129,-0.248865,0.0,0.0
888,221.75,69.5387,66.3262,150.208,97.8911,101.283,0.00610042,0.0833197,20.9658,515.149,-0.329442,0.0,0.0
891,222.5,69.5202,65.9247,151.847,97.9009,101.053,0.00609445,0.0830237,20.9661,515.119,-0.306548,0.0,0.0
894,223.25,68.3526,64.7304,150.921,97.9102,100.592,0.00609396,0.082731,20.9667,515.119,-0.261342,0.0,0.0
897,224,69.1144,65.5759,150.685,97.9609,100.99,0.00609923,0.0824946,20.9674,515.119,-0.29455,0.0,0.0
900,224.75,68.4984,65.4101,148.984,97.976,101.097,0.00608349,0.0822422,20.9679,515.139,-0.303327,0.0,0.0
903,225.5,68.2818,64.9146,151.67,97.9894,100.657,0.00607201,0.0820241,20.9682,515.099,-0.259807,0.0,0.0
906,226.25,67.9808,64.7337,147.483,98.0032,100.692,0.00602806,0.0818112,20.9678,515.099,-0.261838,0.0,0.0
909,227,67.787,64.8465,149.446,98.0401,100.937,0.00598749,0.0816329,20.9673,515.119,-0.281601,0.0,0.0
912,227.75,67.6021,64.1581,148.522,98.0653,101.291,0.00594334,0.081503,20.9669,515.109,-0.312984,0.0,0.0
915,228.5,67.3138,64.1969,149.08,98.0868,100.862,0.0058987,0.081387,20.9667,515.109,-0.269874,0.0,0.0
918,229.25,66.965,63.2079,150.426,98.1047,100.823,0.00587589,0.081266,20.9665,515.069,-0.264336,0.0,0.0
921,230,67.0791,63.1768,150.756,98.1282,101.624,0.00584776,0.0810432,20.9664,515.099,-0.338555,0.0,0.0
924,230.75,67.1432,62.3525,149.741,98.155,101.044,0.00582226,0.0807864,20.9662,515.089,-0.280537,0.0,0.0
927,231.5,66.2913,63.1122,152.02,98.1725,101.689,0.00580155,0.0805589,20.9661,515.089,-0.340413,0.0,0.0
930,232.25,66.0787,62.0227,149.728,98.194,100.717,0.00578113,0.0803888,20.9661,515.139,-0.245363,0.0,0.0
933,233,65.9083,62.0782,148.648,98.2241,101.302,0.00576624,0.0801922,20.966,515.159,-0.298423,0.0,0.0
936,233.75,65.3595,61.6274,151.918,98.235,101.286,0.00575997,0.0800104,20.966,515.099,-0.295872,0.0,0.0
939,234.5,65.4035,61.6346,149.019,98.2594,101.096,0.00576325,0.079851,20.966,515.129,-0.275272,0.0,0.0
942,235.25,65.8542,61.7729,153.038,98.2724,101.972,0.0057852,0.0797162,20.966,515.109,-0.357416,0.0,0.0
945,236,64.5683,61.3276,152.639,98.2902,101.51,0.0058012,0.0796057,20.9659,515.089,-0.311774,0.0,0.0
948,236.75,65.1592,61.1287,153.74,98.3109,101.831,0.00584665,0.0794579,20.9659,515.109,-0.340288,0.0,0.0
951,237.5,64.6239,60.9822,151.198,98.3251,101.325,0.00589226,0.0792788,20.9659,515.089,-0.290644,0.0,0.0
954,238.25,64.7686,60.8845,149.765,98.3272,101.269,0.00594068,0.0790755,20.9659,515.079,-0.285133,0.0,0.0
957,239,64.1015,60.4694,152.568,98.3507,101.786,0.00599282,0.0789139,20.9659,515.089,-0.332054,0.0,0.0
960,239.75,64.5276,60.514,153.57,98.3694,99.3689,0.00604686,0.0787974,20.9664,515.109,-0.0977832,0.0,0.0
963,240.5,63.6849,60.1745,149.418,98.3816,101.876,0.00609,0.0787246,20.9669,515.139,-0.337618,0.0,0.0
966,241.25,63.9234,60.3954,151.259,98.3804,102.038,0.00612305,0.0786139,20.9672,515.119,-0.353105,0.0,0.0
969,242,63.4828,60.0704,152.291,98.3877,102.003,0.00612755,0.0785473,20.9675,515.159,-0.348999,0.0,0.0
972,242.75,63.3162,59.4924,151.991,98.4149,101.264,0.00613084,0.0785231,20.9677,515.149,-0.276045,0.0,0.0
975,243.5,63.5103,59.8525,152.678,98.4234,102.636,0.00607095,0.0784862,20.9678,515.129,-0.405358,0.0,0.0
978,244.25,63.0759,59.3369,149.682,98.4267,102.312,0.00599738,0.0783785,20.9679,515.119,-0.374421,0.0,0.0
981,245,62.2295,58.644,147.095,98.4234,102.016,0.00592574,0.0782655,20.968,515.099,-0.346758,0.0,0.0
984,245.75,62.6632,59.228,150.801,98.4429,101.742,0.00586456,0.0781447,20.9681,515.109,-0.318826,0.0,0.0
987,246.5,62.5783,59.1576,153.463,98.4482,101.951,0.00583061,0.0780567,20.9681,515.119,-0.338164,0.0,0.0
990,247.25,61.6922,58.3595,151.44,98.4433,102.636,0.00581308,0.0780117,20.9681,515.119,-0.403404,0.0,0.0
993,248,62.3951,58.3858,150.931,98.4478,102.01,0.00581276,0.077952,20.9681,515.119,-0.343825,0.0,0.0
996,248.75,62.2152,58.3352,148.816,98.4555,102.086,0.00581765,0.0778757,20.9682,515.129,-0.350225,0.0,0.0
999,249.5,61.7159,57.9664,148.358,98.4526,102.292,0.00583019,0.0777838,20.968,515.069,-0.369988,0.0,0.0
1002,250.25,61.8328,57.8875,152.977,98.4587,102.821,0.00583932,0.0777167,20.9679,515.049,-0.41928,0.0,0.0
1005,251,61.6986,58.1061,153.661,98.4551,102.531,0.00586021,0.0776825,20.9678,515.069,-0.392332,0.0,0.0
1008,251.75,61.2136,57.9603,152.355,98.4559,102.097,0.00588168,0.0776025,20.9677,515.079,-0.351263,0.0,0.0
1011,252.5,61.2319,57.2329,151.391,98.4559,102.065,0.00589998,0.077527,20.9677,515.049,-0.348224,0.0,0.0
1014,253.25,60.6218,57.431,153.552,98.4522,102.658,0.00590443,0.0774527,20.9676,515.029,-0.404553,0.0,0.0
1017,254,60.6565,57.3158,152.548,98.4453,103.091,0.0058977,0.0773915,20.9676,515.069,-0.44596,0.0,0.0
1020,254.75,60.2199,57.1951,149.138,98.4457,102.83,0.00588854,0.0773347,20.9676,515.089,-0.421435,0.0,0.0
1023,255.5,60.7013,56.7955,150.84,98.4482,102.221,0.00586942,0.0772358,20.9676,515.059,-0.363782,0.0,0.0
1026,256.25,60.1659,56.0195,151.438,98.438,101.813,0.0058505,0.0771707,20.9676,515.069,-0.326056,0.0,0.0
1029,257,60.4887,56.3736,150.654,98.4165,102.232,0.00583458,0.0771354,20.9676,515.029,-0.367932,0.0,0.0
1032,257.75,59.6919,56.3972,151.948,98.4153,102.579,0.0057981,0.0770827,20.9676,515.059,-0.400799,0.0,0.0
1035,258.5,59.2843,56.1007,151.61,98.4315,103.049,0.00576757,0.0770116,20.9676,515.009,-0.443392,0.0,0.0
1038,259.25,58.6076,55.4816,152.005,98.4141,102.399,0.00573859,0.0769234,20.9676,515.029,-0.383907,0.0,0.0
1041,260,59.1139,55.7874,149.576,98.3938,101.846,0.00572989,0.0768591,20.9676,515.069,-0.333529,0.0,0.0
1044,260.75,58.968,55.8504,146.7,98.3893,102.641,0.00573601,0.0768122,20.9676,515.119,-0.409208,0.0,0.0
1047,261.5,58.7542,55.941,152.567,98.4055,102.642,0.00575366,0.0767973,20.9676,515.089,-0.407688,0.0,0.0
1050,262.25,59.0114,55.2622,151.572,98.3731,102.117,0.00577998,0.0767594,20.9676,515.039,-0.361248,0.0,0.0
1053,263,58.4529,55.2449,154.88,98.3503,102.703,0.00580984,0.0767133,20.9676,515.049,-0.418893,0.0,0.0
1056,263.75,58.723,55.0395,149.225,98.3446,102.694,0.0058316,0.0766675,20.9676,515.099,-0.418534,0.0,0.0
1059,264.5,58.6094,55.1082,147.748,98.3564,102.349,0.00581725,0.076615,20.9676,515.099,-0.384894,0.0,0.0
1062,265.25,58.3002,54.6868,156.863,98.3459,102.72,0.00579105,0.0765632,20.9676,515.089,-0.420938,0.0,0.0
1065,266,58.1587,54.6833,150.546,98.317,102.767,0.00574505,0.0765198,20.9676,515.039,-0.428167,0.0,0.0
1068,266.75,58.1195,54.5144,150.623,98.3024,103.041,0.00568488,0.0764477,20.9676,514.999,-0.455364,0.0,0.0
1071,267.5,57.4997,54.4197,149.018,98.2915,103.11,0.00564102,0.076378,20.9676,515.059,-0.462881,0.0,0.0
1074,268.25,58.1227,54.475,150.002,98.274,103.176,0.00561756,0.0763847,20.9676,515.029,-0.470805,0.0,0.0
1077,269,57.6133,54.8238,151.29,98.2732,102.781,0.00561502,0.0764434,20.9669,515.089,-0.433743,0.0,0.0
1080,269.75,57.6269,54.2776,153.094,98.2358,102.109,0.00565048,0.0765021,20.9665,515.059,-0.37402,0.0,0.0
1083,270.5,57.1281,54.1537,153.879,98.2419,103.082,0.00569469,0.0765328,20.9662,515.019,-0.465129,0.0,0.0
1086,271.25,57.4832,53.8981,151.607,98.2159,103.254,,0.0764976,,515.029,-0.483826,0.0,0.0
1089,272,57.3073,53.6774,152.185,98.1997,102.763,,0.0764853,,515.009,-0.439336,0.0,0.0
1092,272.75,56.8465,53.5505,153.562,98.1753,102.13,,0.0764822,,515.029,-0.381979,0.0,0.0
1095,273.5,56.8609,53.9952,154.113,98.1668,102.515,,0.0764607,,515.049,-0.419161,0.0,0.0
1098,274.25,56.1769,53.1139,150.766,98.1591,102.482,,,,515.079,-0.416818,0.0,0.0
1101,275,55.9493,53.6324,149.532,98.1473,103.487,,,,515.079,-0.512391,0.0,0.0
1104,275.75,56.2395,53.2861,151.009,98.1274,102.693,,,,515.069,-0.439844,0.0,0.0
1107,276.5,55.8265,53.2853,155.225,98.1152,102.604,,,,515.059,-0.432629,0.0,0.0
1110,277.25,56.6092,53.2522,152.058,98.1112,102.895,,,,515.059,-0.460469,0.0,0.0
1113,278,55.0668,52.3278,150.411,98.0957,102.622,,,,515.099,-0.436271,0.0,0.0
1116,278.75,55.2658,51.7032,158.243,98.0551,102.859,,,,515.069,-0.462598,0.0,0.0
1119,279.5,55.6523,53.2742,153.777,98.0535,102.457,,,,515.029,-0.424888,0.0,0.0
1122,280.25,55.5067,52.6377,152.301,98.0486,102.736,,,,515.039,-0.451664,0.0,0.0
1125,281,55.4726,52.4252,151.58,98.032,102.803,,,,515.009,-0.459611,0.0,0.0
1128,281.75,55.2966,52.5111,151.885,98.0089,102.63,,,,514.979,-0.445608,0.0,0.0