File: 01_Data/PEX_Pipe/STA/N2/10K_min/PEX_Pipe_STA_N2_10KData_220712_R2.csv
##Temp./Â°C,Time/min,Mass loss(subtr.2)/mg,DSC(subtr.2)/(mW/mg),Sensit./(uV/mW)
49.747,10.01,0.01152,-0.003160724,1.07017
50.247,10.6927,0.01330098,0.03508168,1.07003
50.747,10.87092,0.01274613,0.06877704,1.06989
51.247,11.00056,0.01206484,0.09626361,1.06975
51.747,11.10947,0.01325423,0.12272,1.06962
52.247,11.20578,0.01380912,0.14194,1.06948
52.747,11.29342,0.01433728,0.15938,1.06934
53.247,11.37525,0.01281755,0.18045,1.0692
53.747,11.45246,0.01229679,0.19507,1.06906
54.247,11.5257,0.01250881,0.21056,1.06892
54.747,11.59627,0.01334513,0.22206,1.06878
55.247,11.66388,0.01465366,0.23504,1.06864
55.747,11.73013,0.01348847,0.24517,1.0685
56.247,11.7944,0.01466036,0.25734,1.06836
56.747,11.85773,0.01509499,0.26795,1.06822
57.247,11.91885,0.0145525,0.27595,1.06808
57.747,11.9794,0.01431688,0.28294,1.06794
58.247,12.0395,0.01422424,0.29279,1.0678
58.747,12.0983,0.01305046,0.29444,1.06765
59.247,12.15662,0.01305165,0.30204,1.06751
59.747,12.21368,0.0141653,0.3062,1.06737
60.247,12.27055,0.01436294,0.31468,1.06723
60.747,12.3279,0.01436876,0.31752,1.06708
61.247,12.38539,0.01435527,0.31956,1.06694
61.747,12.44266,0.01443917,0.32355,1.0668
62.247,12.49888,0.01300169,0.3245,1.06666
62.747,12.55492,0.01440805,0.32735,1.06651
63.247,12.61053,0.01478239,0.33094,1.06637
63.747,12.66566,0.01453011,0.329,1.06622
64.247,12.7208,0.01317272,0.33274,1.06608
64.747,12.77567,0.01270346,0.33256,1.06593
65.247,12.83014,0.01273001,0.33519,1.06579
65.747,12.88455,0.01272349,0.33522,1.06564
66.247,12.9387,0.01404154,0.33598,1.0655
66.747,12.99293,0.01326126,0.33573,1.06535
67.247,13.0471,0.01405712,0.33766,1.06521
67.747,13.1012,0.01273115,0.33821,1.06506
68.247,13.15444,0.01232408,0.33819,1.06491
68.747,13.2081,0.01273562,0.33959,1.06477
69.247,13.2615,0.01188672,0.33937,1.06462
69.747,13.31484,0.01273856,0.34003,1.06447
70.247,13.36868,0.01272116,0.3405,1.06432
70.747,13.42185,0.01271072,0.34128,1.06418
71.247,13.47533,0.01275365,0.34346,1.06403
71.747,13.52849,0.0124261,0.34344,1.06388
72.247,13.58184,0.01240002,0.34586,1.06373
72.747,13.6349,0.01240409,0.34666,1.06358
73.247,13.68759,0.01140206,0.34745,1.06343
73.747,13.7402,0.01141424,0.35134,1.06328
74.247,13.7925,0.01140819,0.34973,1.06313
74.747,13.845,0.01011037,0.35165,1.06298
75.247,13.8975,0.01143607,0.35371,1.06283
75.747,13.95011,0.01141047,0.35418,1.06268
76.247,14.0026,0.01271032,0.35547,1.06253
76.747,14.05458,0.01141183,0.35841,1.06238
77.247,14.1062,0.0114238,0.35978,1.06223
77.747,14.15755,0.01281012,0.36132,1.06208
78.247,14.20875,0.01141412,0.36249,1.06192
78.747,14.26015,0.01141851,0.36354,1.06177
79.247,14.31126,0.01140995,0.36531,1.06162
79.747,14.36306,0.01206417,0.36732,1.06147
80.247,14.4147,0.01137804,0.36836,1.06131
80.747,14.4666,0.01273472,0.36886,1.06116
81.247,14.51855,0.01272717,0.37079,1.06101
81.747,14.56969,0.011738,0.37283,1.06085
82.247,14.62084,0.01272949,0.37475,1.0607
82.747,14.67185,0.01276481,0.37544,1.06055
83.247,14.72299,0.01141955,0.37827,1.06039
83.747,14.77444,0.01147314,0.38057,1.06024
84.247,14.82603,0.01271469,0.3813,1.06008
84.747,14.87747,0.01141693,0.38256,1.05993
85.247,14.9287,0.01141117,0.38407,1.05977
85.747,14.97954,0.01272451,0.38711,1.05961
86.247,15.03014,0.01140972,0.39057,1.05946
86.747,15.0806,0.0113843,0.39058,1.0593
87.247,15.131,0.01040265,0.39373,1.05915
87.747,15.18113,0.01174026,0.39292,1.05899
88.247,15.2309,0.01173989,0.39702,1.05883
88.747,15.2809,0.01139459,0.39987,1.05867
89.247,15.33123,0.01278651,0.40114,1.05852
89.747,15.3814,0.01195434,0.40239,1.05836
90.247,15.43179,0.01140172,0.40406,1.0582
90.747,15.48192,0.01191357,0.40706,1.05804
91.247,15.5318,0.01140976,0.40805,1.05788
91.747,15.58172,0.0114322,0.41153,1.05772
92.247,15.63165,0.01239917,0.41176,1.05756
92.747,15.68165,0.01238079,0.41565,1.0574
93.247,15.73121,0.01141071,0.41626,1.05724
93.747,15.78085,0.0114125,0.41942,1.05708
94.247,15.83022,0.01239897,0.42172,1.05692
94.747,15.87986,0.01140577,0.42212,1.05676
95.247,15.92958,0.01140999,0.42346,1.0566
95.747,15.97904,0.01016249,0.42702,1.05644
96.247,16.02875,0.01033693,0.42819,1.05628
96.747,16.07805,0.01141929,0.43074,1.05612
97.247,16.12714,0.01142013,0.4334,1.05596
97.747,16.17626,0.01124236,0.43568,1.05579
98.247,16.22549,0.01039535,0.43986,1.05563
98.747,16.27463,0.01138475,0.44106,1.05547
99.247,16.32372,0.01141002,0.44008,1.05531
99.747,16.37303,0.0114185,0.44663,1.05514
100.247,16.42226,0.01271972,0.44915,1.05498
100.747,16.47137,0.01172847,0.45424,1.05482
101.247,16.5204,0.01273359,0.4544,1.05465
101.747,16.56955,0.01273001,0.45862,1.05449
102.247,16.6185,0.01273,0.46111,1.05432
102.747,16.66753,0.01272993,0.46453,1.05416
103.247,16.7167,0.01278121,0.46953,1.05399
103.747,16.76541,0.0114068,0.47284,1.05383
104.247,16.8143,0.01140375,0.47618,1.05366
104.747,16.86329,0.01273701,0.48035,1.0535
105.247,16.91204,0.01272926,0.48432,1.05333
105.747,16.96136,0.01143453,0.48892,1.05316
106.247,17.01032,0.01273125,0.49458,1.053
106.747,17.05915,0.01272171,0.49878,1.05283
107.247,17.1081,0.01206807,0.50443,1.05266
107.747,17.1569,0.01207049,0.50895,1.05249
108.247,17.2056,0.01066674,0.51501,1.05233
108.747,17.25443,0.01075013,0.52126,1.05216
109.247,17.30317,0.01075285,0.52714,1.05199
109.747,17.35197,0.01172713,0.53182,1.05182
110.247,17.40071,0.01208301,0.53789,1.05165
110.747,17.4494,0.01206998,0.54661,1.05148
111.247,17.49788,0.01231068,0.55451,1.05131
111.747,17.54641,0.0116119,0.56231,1.05114
112.247,17.5949,0.0120695,0.57178,1.05097
112.747,17.64337,0.01207001,0.57939,1.0508
113.247,17.69227,0.0120649,0.59071,1.05063
113.747,17.74116,0.0124132,0.60346,1.05046
114.247,17.7904,0.01239999,0.61486,1.05029
114.747,17.83959,0.0124,0.62655,1.05012
115.247,17.88883,0.01239962,0.64169,1.04995
115.747,17.93807,0.0120563,0.6561,1.04978
116.247,17.98694,0.01209485,0.67333,1.04961
116.747,18.0357,0.01337893,0.69145,1.04943
117.247,18.08459,0.01197805,0.70933,1.04926
117.747,18.13358,0.01207012,0.73347,1.04909
118.247,18.18244,0.01207705,0.75735,1.04891
118.747,18.23123,0.01329844,0.78554,1.04874
119.247,18.27961,0.01206996,0.81396,1.04857
119.747,18.32788,0.01207,0.84674,1.04839
120.247,18.3762,0.01207,0.88739,1.04822
120.747,18.42483,0.01207,0.92899,1.04804
121.247,18.4737,0.01206915,0.9755,1.04787
121.747,18.5231,0.0131208,1.02789,1.04769
122.247,18.57255,0.01308609,1.08524,1.04752
122.747,18.62218,0.0117973,1.15423,1.04734
123.247,18.67168,0.01207014,1.22789,1.04717
123.747,18.72111,0.01207,1.30909,1.04699
124.247,18.77071,0.01207174,1.40068,1.04681
124.747,18.82013,0.01339006,1.5027,1.04664
125.247,18.86976,0.01207442,1.60636,1.04646
125.747,18.91988,0.01305015,1.71638,1.04628
126.247,18.96954,0.01305651,1.82784,1.04611
126.747,19.01909,0.01436968,1.94079,1.04593
127.247,19.069,0.01436904,2.05596,1.04575
127.747,19.1191,0.01305837,2.16597,1.04557
128.247,19.16891,0.01343193,2.25169,1.04539
128.747,19.21929,0.01203419,2.32468,1.04521
129.247,19.26914,0.01339008,2.39646,1.04503
129.747,19.31896,0.01339,2.43881,1.04486
130.247,19.36873,0.01339,2.45648,1.04468
130.747,19.41849,0.01338966,2.43043,1.0445
131.247,19.46815,0.01420392,2.38287,1.04431
131.747,19.5177,0.0147934,2.28678,1.04413
132.247,19.56694,0.01338968,2.14247,1.04395
132.747,19.6161,0.01339054,1.95212,1.04377
133.247,19.66477,0.01387779,1.72723,1.04359
133.747,19.7129,0.01437947,1.49417,1.04341
134.247,19.76062,0.01438054,1.28829,1.04323
134.747,19.80807,0.01369323,1.11255,1.04305
135.247,19.85541,0.01372009,0.97262,1.04286
135.747,19.90266,0.01371966,0.86062,1.04268
136.247,19.94975,0.01339681,0.76886,1.0425
136.747,19.99662,0.01372161,0.69874,1.04231
137.247,20.04346,0.01371953,0.64366,1.04213
137.747,20.0903,0.01338327,0.59973,1.04195
138.247,20.13739,0.01338991,0.56575,1.04176
138.747,20.18437,0.01338627,0.53964,1.04158
139.247,20.2314,0.01241106,0.51808,1.04139
139.747,20.27828,0.01208758,0.4998,1.04121
140.247,20.3253,0.01338836,0.48662,1.04102
140.747,20.3725,0.01339001,0.47896,1.04084
141.247,20.4198,0.01339027,0.4697,1.04065
141.747,20.46714,0.01306547,0.46177,1.04047
142.247,20.51455,0.01306006,0.45814,1.04028
142.747,20.56178,0.01303726,0.45387,1.04009
143.247,20.60905,0.01206926,0.44961,1.03991
143.747,20.6564,0.01206797,0.44774,1.03972
144.247,20.70378,0.01097263,0.4453,1.03953
144.747,20.7513,0.0111286,0.44306,1.03934
145.247,20.7985,0.01240116,0.44384,1.03915
145.747,20.84606,0.01219411,0.43984,1.03897
146.247,20.89355,0.01206991,0.44152,1.03878
146.747,20.94107,0.01205072,0.4398,1.03859
147.247,20.9889,0.01140589,0.43909,1.0384
147.747,21.0361,0.01075534,0.43964,1.03821
148.247,21.08318,0.01080014,0.43837,1.03802
148.747,21.13025,0.01173838,0.43784,1.03783
149.247,21.17718,0.01207818,0.43815,1.03764
149.747,21.22448,0.01075436,0.44018,1.03745
150.247,21.27261,0.01076001,0.43947,1.03726
150.747,21.3205,0.01076,0.43925,1.03707
151.247,21.36842,0.01076001,0.43995,1.03688
151.747,21.4163,0.01186259,0.44091,1.03669
152.247,21.4637,0.01075998,0.44001,1.03649
152.747,21.51122,0.01076,0.43808,1.0363
153.247,21.5591,0.01076,0.4401,1.03611
153.747,21.60678,0.01075999,0.43903,1.03592
154.247,21.6549,0.01076666,0.44045,1.03572
154.747,21.70252,0.00985681,0.44106,1.03553
155.247,21.75031,0.01009002,0.44015,1.03534
155.747,21.79782,0.01009,0.4403,1.03514
156.247,21.8455,0.01009,0.44178,1.03495
156.747,21.89303,0.01009,0.44091,1.03475
157.247,21.94068,0.01009,0.44162,1.03456
157.747,21.98846,0.01008991,0.44201,1.03436
158.247,22.03623,0.010267,0.44078,1.03417
158.747,22.08405,0.01070112,0.44156,1.03397
159.247,22.13194,0.01174095,0.44198,1.03378
159.747,22.17974,0.01174,0.44324,1.03358
160.247,22.22743,0.0117247,0.44353,1.03339
160.747,22.27523,0.010754,0.44431,1.03319
161.247,22.32281,0.01074999,0.44386,1.03299
161.747,22.37058,0.01075,0.44316,1.03279
162.247,22.41808,0.01074455,0.44359,1.0326
162.747,22.46575,0.01207558,0.44379,1.0324
163.247,22.5136,0.01206999,0.4454,1.0322
163.747,22.56138,0.01207,0.44497,1.032
164.247,22.60933,0.01207,0.44509,1.0318
164.747,22.65723,0.01206984,0.44555,1.03161
165.247,22.70494,0.01222326,0.44382,1.03141
165.747,22.75256,0.01206784,0.44653,1.03121
166.247,22.8003,0.01207,0.448,1.03101
166.747,22.84798,0.01207,0.44758,1.03081
167.247,22.8955,0.01207,0.44795,1.03061
167.747,22.94329,0.01207,0.44951,1.03041
168.247,22.99097,0.01207,0.44881,1.0302
168.747,23.03867,0.01207,0.4508,1.03
169.247,23.08632,0.01207,0.45169,1.0298
169.747,23.1341,0.01207001,0.45141,1.0296
170.247,23.18179,0.01206763,0.45131,1.0294
170.747,23.22935,0.01338705,0.45115,1.0292
171.247,23.27698,0.01338823,0.45239,1.02899
171.747,23.32465,0.01214553,0.45161,1.02879
172.247,23.37231,0.01206972,0.45175,1.02859
172.747,23.42008,0.01207498,0.45152,1.02838
173.247,23.46772,0.01305907,0.45209,1.02818
173.747,23.5156,0.01306,0.45239,1.02798
174.247,23.56334,0.01306,0.45227,1.02777
174.747,23.611,0.01306,0.45173,1.02757
175.247,23.65867,0.01306,0.45492,1.02736
175.747,23.7063,0.01305991,0.45413,1.02716
176.247,23.7536,0.01233706,0.45387,1.02695
176.747,23.80136,0.0120688,0.45428,1.02675
177.247,23.84897,0.01073165,0.45518,1.02654
177.747,23.89659,0.01113217,0.45525,1.02633
178.247,23.94427,0.01206901,0.45542,1.02613
178.747,23.99188,0.01207112,0.45565,1.02592
179.247,24.03951,0.01204674,0.45571,1.02571
179.747,24.08708,0.01239054,0.456,1.02551
180.247,24.13472,0.01206761,0.45648,1.0253
180.747,24.1826,0.01207,0.45471,1.02509
181.247,24.23038,0.01207,0.45527,1.02488
181.747,24.27819,0.01207005,0.45551,1.02467
182.247,24.3264,0.01201793,0.45645,1.02446
182.747,24.37418,0.01338362,0.45531,1.02426
183.247,24.422,0.01337999,0.45416,1.02405
183.747,24.46961,0.01337969,0.45757,1.02384
184.247,24.51717,0.01160555,0.45613,1.02363
184.747,24.56491,0.011452,0.45688,1.02342
185.247,24.61251,0.01109062,0.45631,1.02321
185.747,24.66026,0.01108984,0.45557,1.02299
186.247,24.70784,0.01092367,0.45718,1.02278
186.747,24.7554,0.01043025,0.4569,1.02257
187.247,24.803,0.01043,0.45766,1.02236
187.747,24.8507,0.01042998,0.45753,1.02215
188.247,24.89852,0.01041346,0.45699,1.02194
188.747,24.9463,0.01108139,0.45773,1.02172
189.247,24.99406,0.01108,0.45729,1.02151
189.747,25.04192,0.01108,0.45979,1.0213
190.247,25.08944,0.01108,0.45916,1.02108
190.747,25.13709,0.01107987,0.4601,1.02087
191.247,25.1847,0.01116692,0.45999,1.02066
191.747,25.23215,0.009759584,0.46035,1.02044
192.247,25.2793,0.0097599,0.46086,1.02023
192.747,25.32641,0.01012774,0.46073,1.02001
193.247,25.37385,0.01107902,0.46189,1.0198
193.747,25.42154,0.01108,0.46328,1.01958
194.247,25.46963,0.01108,0.46291,1.01937
194.747,25.5177,0.01108046,0.4638,1.01915
195.247,25.56576,0.009678022,0.46385,1.01893
195.747,25.61318,0.009755546,0.4629,1.01872
196.247,25.66086,0.01108301,0.46241,1.0185
196.747,25.7085,0.01108001,0.4652,1.01828
197.247,25.7561,0.01108,0.4653,1.01807
197.747,25.80387,0.01108,0.46513,1.01785
198.247,25.8515,0.01107999,0.46688,1.01763
198.747,25.89886,0.01107757,0.46557,1.01741
199.247,25.94592,0.0101033,0.46691,1.01719
199.747,25.99301,0.01008956,0.46735,1.01697
200.247,26.04018,0.00975645,0.46704,1.01676
200.747,26.08768,0.00978905,0.46851,1.01654
201.247,26.1355,0.009070813,0.46755,1.01632
201.747,26.18335,0.008777222,0.46665,1.0161
202.247,26.2312,0.01015534,0.46787,1.01588
202.747,26.2789,0.0101001,0.46971,1.01565
203.247,26.32641,0.0101,0.47141,1.01543
203.747,26.3741,0.0101,0.46936,1.01521
204.247,26.4215,0.0101,0.47124,1.01499
204.747,26.4691,0.0101,0.47001,1.01477
205.247,26.5167,0.0101,0.46982,1.01455
205.747,26.56415,0.01010005,0.47235,1.01432
206.247,26.61158,0.01008532,0.47251,1.0141
206.747,26.65904,0.01013158,0.47291,1.01388
207.247,26.7066,0.01009983,0.4732,1.01366
207.747,26.7542,0.01009887,0.47172,1.01343
208.247,26.80208,0.00938163,0.47269,1.01321
208.747,26.8499,0.009439993,0.47193,1.01298
209.247,26.89762,0.00944001,0.47192,1.01276
209.747,26.94497,0.009433594,0.47292,1.01254
210.247,26.99212,0.01076513,0.47122,1.01231
210.747,27.03913,0.009847788,0.47216,1.01208
211.247,27.08602,0.00944197,0.47433,1.01186
211.747,27.1331,0.01061139,0.47313,1.01163
212.247,27.18068,0.01075001,0.47656,1.01141
212.747,27.22867,0.01074416,0.47675,1.01118
213.247,27.27668,0.01041753,0.47712,1.01095
213.747,27.32467,0.01012488,0.47699,1.01073
214.247,27.3725,0.008114723,0.47577,1.0105
214.747,27.4201,0.008125206,0.47748,1.01027
215.247,27.4676,0.009430248,0.47679,1.01004
215.747,27.5152,0.009429871,0.47919,1.00982
216.247,27.56268,0.00948263,0.47649,1.00959
216.747,27.61028,0.008109922,0.47846,1.00936
217.247,27.6579,0.00810958,0.47668,1.00913
217.747,27.70557,0.00863593,0.48052,1.0089
218.247,27.7533,0.00942987,0.47978,1.00867
218.747,27.80092,0.009429837,0.47997,1.00844
219.247,27.8487,0.008877586,0.47949,1.00821
219.747,27.8964,0.00950117,0.47947,1.00798
220.247,27.94394,0.009429863,0.47983,1.00775
220.747,27.99147,0.00943,0.48005,1.00752
221.247,28.03906,0.009429121,0.4781,1.00729
221.747,28.0867,0.008139471,0.48037,1.00705
222.247,28.1342,0.008029805,0.47986,1.00682
222.747,28.1817,0.009430344,0.48084,1.00659
223.247,28.22937,0.00943,0.48309,1.00636
223.747,28.2768,0.00943,0.48178,1.00612
224.247,28.3245,0.00943,0.482,1.00589
224.747,28.37214,0.00943,0.48275,1.00566
225.247,28.41974,0.00943,0.48371,1.00542
225.747,28.46756,0.009430065,0.48409,1.00519
226.247,28.5153,0.009378958,0.48458,1.00496
226.747,28.56312,0.01079165,0.48433,1.00472
227.247,28.61089,0.009769539,0.4848,1.00449
227.747,28.6584,0.009839501,0.48526,1.00425
228.247,28.70591,0.008445909,0.48597,1.00401
228.747,28.7535,0.00982207,0.48567,1.00378
229.247,28.801,0.009769965,0.48605,1.00354
229.747,28.8487,0.009770226,0.48613,1.00331
230.247,28.8965,0.009327798,0.48706,1.00307
230.747,28.94412,0.00910963,0.48707,1.00283
231.247,28.9917,0.00911,0.48675,1.00259
231.747,29.03952,0.00911,0.48855,1.00236
232.247,29.0871,0.00911,0.48934,1.00212
232.747,29.13474,0.00911001,0.48672,1.00188
233.247,29.18235,0.009105573,0.48767,1.00164
233.747,29.23005,0.008779466,0.48808,1.0014
234.247,29.2775,0.01008902,0.48886,1.00116
234.747,29.32477,0.009125848,0.48733,1.00093
235.247,29.37217,0.009109981,0.48776,1.00069
235.747,29.41968,0.00911,0.48971,1.00045
236.247,29.46712,0.00911,0.48836,1.00021
236.747,29.5151,0.009110001,0.4891,0.99996
237.247,29.5628,0.009109626,0.4897,0.99972
237.747,29.6105,0.008769406,0.48897,0.99948
238.247,29.65815,0.009464766,0.4879,0.99924
238.747,29.7058,0.009439921,0.49062,0.999
239.247,29.7533,0.00944,0.49145,0.99876
239.747,29.8007,0.00944,0.4909,0.99851
240.247,29.84843,0.00943993,0.49217,0.99827
240.747,29.89607,0.009511258,0.49104,0.99803
241.247,29.94397,0.008794126,0.49014,0.99779
241.747,29.99189,0.00778656,0.49033,0.99754
242.247,30.0397,0.007790024,0.49124,0.9973
242.747,30.0874,0.007700434,0.49114,0.99705
243.247,30.1351,0.009100403,0.49259,0.99681
243.747,30.1826,0.0091,0.49211,0.99656
244.247,30.2301,0.0091,0.49247,0.99632
244.747,30.27767,0.0091,0.49307,0.99607
245.247,30.32515,0.0091,0.4918,0.99583
245.747,30.3728,0.009100001,0.49382,0.99558
246.247,30.4205,0.009099942,0.49542,0.99534
246.747,30.46787,0.00882842,0.49595,0.99509
247.247,30.5152,0.008769709,0.49597,0.99484
247.747,30.56278,0.00882323,0.49494,0.9946
248.247,30.61024,0.00744993,0.49587,0.99435
248.747,30.6578,0.00744619,0.4953,0.9941
249.247,30.70604,0.008453022,0.49576,0.99385
249.747,30.75372,0.008438039,0.49603,0.9936
250.247,30.80122,0.008764429,0.49575,0.99336
250.747,30.8488,0.008749942,0.49595,0.99311
251.247,30.8963,0.00910681,0.49641,0.99286
251.747,30.94387,0.00778315,0.49632,0.99261
252.247,30.9918,0.007790007,0.49698,0.99236
252.747,31.03937,0.00779,0.49579,0.99211
253.247,31.0868,0.00779,0.49587,0.99186
253.747,31.1342,0.00779,0.49541,0.99161
254.247,31.18177,0.00779,0.49566,0.99136
254.747,31.2294,0.00779,0.49655,0.9911
255.247,31.2769,0.00779,0.49708,0.99085
255.747,31.3248,0.00779,0.49825,0.9906
256.247,31.3726,0.00778993,0.49872,0.99035
256.747,31.4203,0.00779496,0.49764,0.9901
257.247,31.46818,0.006470676,0.49653,0.98984
257.747,31.51582,0.006469998,0.49729,0.98959
258.247,31.56349,0.00647002,0.49761,0.98934
258.747,31.6111,0.00646673,0.49834,0.98908
259.247,31.6585,0.007455242,0.49562,0.98883
259.747,31.706,0.00746002,0.4971,0.98857
260.247,31.7538,0.00746028,0.49951,0.98832
260.747,31.80146,0.00738481,0.49736,0.98806
261.247,31.84907,0.00679584,0.49876,0.98781
261.747,31.8964,0.006466062,0.49778,0.98755
262.247,31.9433,0.005375628,0.49812,0.9873
262.747,31.99055,0.005480044,0.50039,0.98704
263.247,32.03794,0.0054806,0.49934,0.98679
263.747,32.0861,0.005802075,0.50136,0.98653
264.247,32.1344,0.00627947,0.50174,0.98627
264.747,32.1824,0.006470165,0.49898,0.98601
265.247,32.23053,0.006470003,0.50006,0.98576
265.747,32.2783,0.006475049,0.50207,0.9855
266.247,32.32606,0.005144664,0.5012,0.98524
266.747,32.3739,0.00515001,0.50245,0.98498
267.247,32.42161,0.005149992,0.50264,0.98472
267.747,32.4693,0.005148139,0.50235,0.98446
268.247,32.51688,0.005797985,0.50482,0.9842
268.747,32.56447,0.00581003,0.50333,0.98394
269.247,32.61188,0.00581,0.50481,0.98368
269.747,32.6595,0.00581,0.50374,0.98342
270.247,32.7072,0.00581,0.50429,0.98316
270.747,32.75512,0.005810022,0.50372,0.9829
271.247,32.80299,0.005800102,0.50257,0.98264
271.747,32.85103,0.004828995,0.50531,0.98238
272.247,32.8986,0.00383581,0.50496,0.98212
272.747,32.94636,0.00384002,0.50413,0.98186
273.247,32.9941,0.00383968,0.50455,0.98159
273.747,33.0417,0.005221802,0.50481,0.98133
274.247,33.08977,0.00515002,0.5074,0.98107
274.747,33.13773,0.00515,0.50689,0.9808
275.247,33.1856,0.00515,0.50674,0.98054
275.747,33.23336,0.00515,0.50617,0.98028
276.247,33.28117,0.00515,0.50784,0.98001
276.747,33.329,0.00515,0.50634,0.97975
277.247,33.37683,0.00515,0.50746,0.97948
277.747,33.42471,0.00515,0.50807,0.97922
278.247,33.47252,0.00515,0.50836,0.97895
278.747,33.52037,0.00515001,0.5077,0.97869
279.247,33.56811,0.005346786,0.50784,0.97842
279.747,33.61533,0.00646832,0.50673,0.97815
280.247,33.663,0.006469997,0.50873,0.97789
280.747,33.71086,0.006471072,0.51015,0.97762
281.247,33.75863,0.005157544,0.50903,0.97735
281.747,33.80668,0.005149941,0.50938,0.97708
282.247,33.8548,0.005210073,0.50907,0.97682
282.747,33.90238,0.00610727,0.50984,0.97655
283.247,33.94964,0.006139989,0.50992,0.97628
283.747,33.99722,0.00614,0.51154,0.97601
284.247,34.04495,0.00614,0.51056,0.97574
284.747,34.0927,0.00614,0.51088,0.97547
285.247,34.1409,0.00614,0.5118,0.9752
285.747,34.18882,0.006140004,0.51062,0.97493
286.247,34.23663,0.00613563,0.51102,0.97466
286.747,34.28441,0.007146083,0.51281,0.97439
287.247,34.3322,0.007129981,0.51143,0.97412
287.747,34.37996,0.00713,0.51251,0.97385
288.247,34.42819,0.00711596,0.51113,0.97358
288.747,34.47591,0.00646591,0.51175,0.97331
289.247,34.52382,0.006470007,0.51342,0.97303
289.747,34.57181,0.00647,0.51213,0.97276
290.247,34.61967,0.006470025,0.51188,0.97249
290.747,34.6676,0.006237918,0.51245,0.97222
291.247,34.71548,0.005812835,0.51457,0.97194
291.747,34.76325,0.005499043,0.51216,0.97167
292.247,34.81093,0.00548999,0.5134,0.97139
292.747,34.85893,0.00549,0.51288,0.97112
293.247,34.90674,0.00549,0.51182,0.97085
293.747,34.95478,0.005490003,0.51171,0.97057
294.247,35.0028,0.005488606,0.51096,0.9703
294.747,35.0508,0.005806306,0.51045,0.97002
295.247,35.09877,0.00580999,0.51239,0.96974
295.747,35.14659,0.00581,0.51246,0.96947
296.247,35.19451,0.00581,0.51164,0.96919
296.747,35.2423,0.005809998,0.51196,0.96891
297.247,35.29011,0.00581006,0.51197,0.96864
297.747,35.33801,0.004580035,0.51259,0.96836
298.247,35.386,0.00449981,0.51303,0.96808
298.747,35.43388,0.004489004,0.51284,0.9678
299.247,35.4814,0.00318889,0.51314,0.96753
299.747,35.52879,0.003180095,0.51495,0.96725
300.247,35.57675,0.004229941,0.51539,0.96697
300.747,35.62465,0.00450048,0.51553,0.96669
301.247,35.6731,0.004499999,0.51619,0.96641
301.747,35.7218,0.0045,0.51473,0.96613
302.247,35.7702,0.0045,0.51619,0.96585
302.747,35.81835,0.0045,0.51697,0.96557
303.247,35.86622,0.0045,0.51832,0.96529
303.747,35.9143,0.0045,0.51807,0.96501
304.247,35.9621,0.0045,0.51846,0.96473
304.747,36.00991,0.0045,0.5177,0.96445
305.247,36.0578,0.0045,0.51618,0.96416
305.747,36.10555,0.00449999,0.51775,0.96388
306.247,36.1535,0.0045048,0.51723,0.9636
306.747,36.2014,0.003175608,0.51832,0.96332
307.247,36.24935,0.003181598,0.51746,0.96303
307.747,36.2976,0.003891188,0.51829,0.96275
308.247,36.34567,0.00350769,0.51877,0.96247
308.747,36.3934,0.003509997,0.51862,0.96218
309.247,36.44129,0.00351166,0.51926,0.9619
309.747,36.48919,0.002193819,0.52029,0.96161
310.247,36.53717,0.002189992,0.51942,0.96133
310.747,36.58514,0.00218098,0.52007,0.96104
311.247,36.63328,0.001857486,0.52114,0.96076
311.747,36.6813,0.00185998,0.522,0.96047
312.247,36.72947,0.00185601,0.52233,0.96018
312.747,36.77748,0.0005531138,0.52175,0.9599
313.247,36.82553,-0.0007842886,0.5215,0.95961
313.747,36.87331,0.0005152437,0.52158,0.95932
314.247,36.921,0.00160476,0.52216,0.95904
314.747,36.9689,0.001863606,0.52216,0.95875
315.247,37.01685,0.0005357879,0.52239,0.95846
315.747,37.06479,0.0005400081,0.52391,0.95817
316.247,37.11323,0.00054032,0.5239,0.95788
316.747,37.16127,0.000452441,0.52263,0.95759
317.247,37.20924,-0.0007800656,0.52035,0.95731
317.747,37.25731,-0.00078,0.522,0.95702
318.247,37.30545,-0.00078,0.52174,0.95673
318.747,37.35349,-0.00078,0.52289,0.95644
319.247,37.40147,-0.0007799936,0.52311,0.95615
319.747,37.44963,-0.0007790983,0.52276,0.95585
320.247,37.49785,0.0002030135,0.5229,0.95556
320.747,37.54595,0.000210202,0.5219,0.95527
321.247,37.59429,7.260246e-05,0.5242,0.95498
321.747,37.6426,-0.002090213,0.52195,0.95469
322.247,37.69076,-0.00209,0.5236,0.9544
322.747,37.73877,-0.002089944,0.52369,0.9541
323.247,37.787,-0.00215707,0.52349,0.95381
323.747,37.83511,-0.001441246,0.52212,0.95352
324.247,37.8832,-0.001440005,0.52324,0.95322
324.747,37.93118,-0.00143843,0.52458,0.95293
325.247,37.97933,-0.002747015,0.52418,0.95264
325.747,38.02728,-0.002750044,0.52384,0.95234
326.247,38.0753,-0.002732164,0.5235,0.95205
326.747,38.12316,-0.001898127,0.52661,0.95175
327.247,38.17142,-0.0014301,0.527,0.95146
327.747,38.2196,-0.0030558,0.52495,0.95116
328.247,38.26784,-0.003080208,0.52636,0.95086
328.747,38.31633,-0.00308,0.52646,0.95057
329.247,38.36445,-0.00308,0.52794,0.95027
329.747,38.41254,-0.00308,0.526,0.94998
330.247,38.46079,-0.00308,0.52658,0.94968
330.747,38.5088,-0.00308,0.52791,0.94938
331.247,38.55701,-0.00308007,0.5266,0.94908
331.747,38.6051,-0.00303106,0.52758,0.94878
332.247,38.65315,-0.004393558,0.5265,0.94849
332.747,38.70142,-0.00439,0.528,0.94819
333.247,38.74966,-0.00439,0.52733,0.94789
333.747,38.79789,-0.004390263,0.52725,0.94759
334.247,38.84588,-0.00403227,0.52623,0.94729
334.747,38.894,-0.003410318,0.52695,0.94699
335.247,38.94234,-0.003409744,0.52764,0.94669
335.747,38.99069,-0.004754336,0.52834,0.94639
336.247,39.0394,-0.004720048,0.52892,0.94609
336.747,39.0878,-0.004720418,0.53077,0.94579
337.247,39.13586,-0.004166903,0.52854,0.94548
337.747,39.18387,-0.003222021,0.53014,0.94518
338.247,39.2318,-0.00211027,0.52979,0.94488
338.747,39.2797,-0.004036065,0.5298,0.94458
339.247,39.32782,-0.004719566,0.53032,0.94428
339.747,39.37605,-0.004720001,0.5312,0.94397
340.247,39.4242,-0.00472,0.53076,0.94367
340.747,39.47279,-0.004720021,0.53056,0.94337
341.247,39.52086,-0.00471566,0.53141,0.94306
341.747,39.5691,-0.003409331,0.53339,0.94276
342.247,39.6171,-0.004591021,0.53253,0.94245
342.747,39.66545,-0.004720236,0.53276,0.94215
343.247,39.71386,-0.00472,0.53235,0.94184
343.747,39.7621,-0.00472,0.53269,0.94154
344.247,39.81044,-0.00472,0.53348,0.94123
344.747,39.8586,-0.00472,0.53345,0.94093
345.247,39.90683,-0.004721836,0.53316,0.94062
345.747,39.95536,-0.004036934,0.53228,0.94031
346.247,40.00367,-0.0039889,0.532,0.94001
346.747,40.05202,-0.00537895,0.53175,0.9397
347.247,40.10041,-0.00671166,0.53272,0.93939
347.747,40.1486,-0.006700071,0.53187,0.93908
348.247,40.1968,-0.00670026,0.5319,0.93878
348.747,40.24511,-0.006428039,0.53336,0.93847
349.247,40.29353,-0.00538101,0.53436,0.93816
349.747,40.34191,-0.005379999,0.53443,0.93785
350.247,40.39042,-0.00538,0.53479,0.93754
350.747,40.43885,-0.005380005,0.53231,0.93723
351.247,40.48715,-0.00537323,0.53379,0.93692
351.747,40.53518,-0.006713505,0.53446,0.93661
352.247,40.58356,-0.005748233,0.53335,0.9363
352.747,40.63183,-0.00571979,0.53276,0.93599
353.247,40.68026,-0.00705436,0.53524,0.93568
353.747,40.72882,-0.007040178,0.53428,0.93537
354.247,40.77715,-0.0068319,0.53279,0.93505
354.747,40.8254,-0.005737157,0.53348,0.93474
355.247,40.87373,-0.005721341,0.53575,0.93443
355.747,40.9221,-0.007018733,0.53763,0.93412
356.247,40.97039,-0.007040008,0.53673,0.9338
356.747,41.0188,-0.007040001,0.53759,0.93349
357.247,41.06729,-0.007039375,0.53906,0.93318
357.747,41.11567,-0.00668016,0.53823,0.93286
358.247,41.16405,-0.006732854,0.53874,0.93255
358.747,41.21228,-0.007696585,0.5394,0.93223
359.247,41.26061,-0.007689997,0.53946,0.93192
359.747,41.30867,-0.00769002,0.54017,0.9316
360.247,41.357,-0.00766482,0.54128,0.93129
360.747,41.4054,-0.00637167,0.54075,0.93097
361.247,41.4538,-0.006343,0.54224,0.93066
361.747,41.50226,-0.00667179,0.54377,0.93034
362.247,41.55068,-0.007693505,0.54375,0.93002
362.747,41.59915,-0.00901109,0.54547,0.92971
363.247,41.64757,-0.009009996,0.54383,0.92939
363.747,41.6961,-0.00900945,0.54395,0.92907
364.247,41.7446,-0.01046968,0.54422,0.92875
364.747,41.79316,-0.00900624,0.54495,0.92843
365.247,41.84185,-0.009009909,0.54624,0.92812
365.747,41.89027,-0.009018688,0.54745,0.9278
366.247,41.93853,-0.01033564,0.54845,0.92748
366.747,41.9871,-0.009006001,0.54724,0.92716
367.247,42.03553,-0.008914532,0.54744,0.92684
367.747,42.0839,-0.01032044,0.54652,0.92652
368.247,42.13263,-0.01032,0.54877,0.9262
368.747,42.18118,-0.01032,0.54809,0.92588
369.247,42.22967,-0.01032001,0.54905,0.92556
369.747,42.27814,-0.01029986,0.54849,0.92524
370.247,42.32666,-0.00900072,0.55008,0.92491
370.747,42.37527,-0.01040713,0.54979,0.92459
371.247,42.42375,-0.01031883,0.55053,0.92427
371.747,42.47237,-0.00959714,0.54977,0.92395
372.247,42.521,-0.01005599,0.55217,0.92362
372.747,42.56965,-0.01064993,0.55484,0.9233
373.247,42.6182,-0.01065076,0.55478,0.92298
373.747,42.6668,-0.01182341,0.55456,0.92265
374.247,42.71533,-0.01197071,0.55492,0.92233
374.747,42.76384,-0.01055258,0.5573,0.92201
375.247,42.81248,-0.01065105,0.55457,0.92168
375.747,42.86097,-0.01195753,0.55693,0.92136
376.247,42.90943,-0.01196999,0.55638,0.92103
376.747,42.95796,-0.01197,0.55717,0.92071
377.247,43.00647,-0.01197,0.55878,0.92038
377.747,43.055,-0.01197013,0.56056,0.92005
378.247,43.1036,-0.0126704,0.55971,0.91973
378.747,43.1522,-0.01329042,0.55815,0.9194
379.247,43.20081,-0.01329,0.55991,0.91907
379.747,43.24944,-0.01329,0.56074,0.91875
380.247,43.29808,-0.01329,0.56189,0.91842
380.747,43.34664,-0.01329001,0.56488,0.91809
381.247,43.39522,-0.01328649,0.56217,0.91776
381.747,43.44377,-0.0146515,0.56364,0.91743
382.247,43.4923,-0.01459997,0.56329,0.9171
382.747,43.54083,-0.0145924,0.56509,0.91678
383.247,43.58944,-0.01591867,0.56655,0.91645
383.747,43.63787,-0.01592001,0.56616,0.91612
384.247,43.68649,-0.01591997,0.56659,0.91579
384.747,43.73505,-0.0159378,0.56783,0.91546
385.247,43.7836,-0.01658506,0.56826,0.91513
385.747,43.83231,-0.01659185,0.56872,0.91479
386.247,43.8811,-0.01788636,0.56984,0.91446
386.747,43.92993,-0.01690995,0.57148,0.91413
387.247,43.9786,-0.01691001,0.57335,0.9138
387.747,44.02721,-0.01690304,0.57084,0.91347
388.247,44.07598,-0.01823558,0.57255,0.91313
388.747,44.12453,-0.01822999,0.5734,0.9128
389.247,44.17326,-0.01823,0.57427,0.91247
389.747,44.2221,-0.01823,0.57537,0.91214
390.247,44.27085,-0.01823023,0.57385,0.9118
390.747,44.31953,-0.01954772,0.57658,0.91147
391.247,44.36848,-0.01955925,0.57689,0.91113
391.747,44.41727,-0.0205342,0.57547,0.9108
392.247,44.46598,-0.02052607,0.57755,0.91046
392.747,44.51486,-0.02205875,0.57917,0.91013
393.247,44.5636,-0.02218144,0.57837,0.90979
393.747,44.61222,-0.02332231,0.57901,0.90946
394.247,44.66093,-0.02350001,0.58066,0.90912
394.747,44.7098,-0.0234992,0.58146,0.90879
395.247,44.75847,-0.02482204,0.58216,0.90845
395.747,44.80706,-0.0248201,0.5829,0.90811
396.247,44.85584,-0.02576166,0.58255,0.90777
396.747,44.90446,-0.02614482,0.58467,0.90744
397.247,44.95326,-0.02513112,0.58462,0.9071
397.747,45.00178,-0.0264653,0.58622,0.90676
398.247,45.0501,-0.02645855,0.58297,0.90642
398.747,45.09883,-0.0277796,0.58482,0.90608
399.247,45.14736,-0.02778095,0.58646,0.90574
399.747,45.19639,-0.0289287,0.58663,0.90541
400.247,45.24566,-0.02910023,0.58661,0.90507
400.747,45.29449,-0.02909956,0.58663,0.90473
401.247,45.34341,-0.0293877,0.58696,0.90439
401.747,45.39223,-0.03041012,0.58838,0.90404
402.247,45.441,-0.03078412,0.59121,0.9037
402.747,45.48981,-0.0317294,0.59016,0.90336
403.247,45.53856,-0.03173118,0.58941,0.90302
403.747,45.58745,-0.03303673,0.59091,0.90268
404.247,45.63642,-0.03305189,0.59066,0.90234
404.747,45.68533,-0.03431383,0.58953,0.902
405.247,45.73411,-0.03437004,0.59067,0.90165
405.747,45.7829,-0.03436693,0.58919,0.90131
406.247,45.83163,-0.03698632,0.59091,0.90097
406.747,45.8802,-0.03699979,0.58777,0.90062
407.247,45.92875,-0.0383141,0.58696,0.90028
407.747,45.97764,-0.03814929,0.58843,0.89993
408.247,46.02648,-0.03700084,0.58849,0.89959
408.747,46.0755,-0.0384058,0.59015,0.89925
409.247,46.12446,-0.03827629,0.59107,0.8989
409.747,46.17324,-0.04083349,0.59139,0.89856
410.247,46.22204,-0.0423112,0.59304,0.89821
410.747,46.2706,-0.04227017,0.59435,0.89786
411.247,46.31923,-0.04360337,0.59446,0.89752
411.747,46.36802,-0.04358487,0.5985,0.89717
412.247,46.41665,-0.04423002,0.60001,0.89682
412.747,46.46544,-0.04532466,0.60382,0.89648
413.247,46.5143,-0.04523983,0.60721,0.89613
413.747,46.56322,-0.0452628,0.60705,0.89578
414.247,46.6121,-0.04687892,0.60681,0.89543
414.747,46.66093,-0.04822405,0.60721,0.89509
415.247,46.70968,-0.04963571,0.60865,0.89474
415.747,46.75842,-0.05097938,0.61401,0.89439
416.247,46.8074,-0.05094415,0.61343,0.89404
416.747,46.85626,-0.05268622,0.61583,0.89369
417.247,46.9052,-0.05424672,0.61805,0.89334
417.747,46.9542,-0.0550085,0.61841,0.89299
418.247,47.00313,-0.05549928,0.62347,0.89264
418.747,47.052,-0.0568601,0.62361,0.89229
419.247,47.101,-0.05819059,0.62481,0.89194
419.747,47.15005,-0.05951023,0.62555,0.89159
420.247,47.1989,-0.06084719,0.62604,0.89123
420.747,47.24778,-0.06215929,0.62798,0.89088
421.247,47.29673,-0.06349592,0.62908,0.89053
421.747,47.34567,-0.06472763,0.63209,0.89018
422.247,47.3947,-0.06614886,0.63505,0.88983
422.747,47.44384,-0.06642931,0.63589,0.88947
423.247,47.4928,-0.06741051,0.6355,0.88912
423.747,47.5417,-0.06880327,0.63576,0.88877
424.247,47.59067,-0.07038507,0.63928,0.88841
424.747,47.63958,-0.07170072,0.64159,0.88806
425.247,47.6885,-0.07295292,0.64143,0.8877
425.747,47.73744,-0.07413036,0.64372,0.88735
426.247,47.78637,-0.07569075,0.64639,0.88699
426.747,47.8352,-0.07684733,0.64673,0.88664
427.247,47.88406,-0.07809749,0.65035,0.88628
427.747,47.933,-0.07973687,0.65522,0.88593
428.247,47.98175,-0.08193968,0.6575,0.88557
428.747,48.0306,-0.08374866,0.65837,0.88521
429.247,48.07963,-0.08582777,0.66196,0.88486
429.747,48.12845,-0.08793578,0.66327,0.8845
430.247,48.17751,-0.09049383,0.66595,0.88414
430.747,48.2265,-0.0922854,0.66968,0.88378
431.247,48.27531,-0.09355157,0.67234,0.88343
431.747,48.32432,-0.09599597,0.67364,0.88307
432.247,48.37321,-0.09879086,0.67483,0.88271
432.747,48.42217,-0.10033,0.67914,0.88235
433.247,48.4713,-0.10188,0.68124,0.88199
433.747,48.52025,-0.10507,0.6836,0.88163
434.247,48.5692,-0.108,0.69005,0.88127
434.747,48.6181,-0.10927,0.69339,0.88091
435.247,48.66713,-0.11207,0.69347,0.88055
435.747,48.71621,-0.11456,0.69787,0.88019
436.247,48.76526,-0.11837,0.69934,0.87983
436.747,48.81429,-0.12121,0.70103,0.87947
437.247,48.86327,-0.12408,0.70713,0.87911
437.747,48.9122,-0.12756,0.71135,0.87875
438.247,48.9612,-0.13004,0.71582,0.87838
438.747,49.01021,-0.13264,0.7174,0.87802
439.247,49.0591,-0.13531,0.7213,0.87766
439.747,49.10835,-0.13908,0.72512,0.8773
440.247,49.1574,-0.14289,0.73037,0.87693
440.747,49.20664,-0.14673,0.736,0.87657
441.247,49.25575,-0.1506,0.73677,0.87621
441.747,49.30489,-0.15416,0.74307,0.87584
442.247,49.35385,-0.15782,0.74583,0.87548
442.747,49.40287,-0.16026,0.75301,0.87511
443.247,49.45169,-0.16501,0.75802,0.87475
443.747,49.50073,-0.16788,0.76104,0.87438
444.247,49.54983,-0.17246,0.76798,0.87402
444.747,49.59894,-0.17666,0.77472,0.87365
445.247,49.64804,-0.18261,0.77906,0.87329
445.747,49.6972,-0.18603,0.78507,0.87292
446.247,49.7464,-0.19075,0.7917,0.87255
446.747,49.79553,-0.19734,0.79708,0.87219
447.247,49.8448,-0.20297,0.8033,0.87182
447.747,49.89423,-0.20804,0.81054,0.87145
448.247,49.94358,-0.21376,0.81569,0.87108
448.747,49.99279,-0.21774,0.82377,0.87072
449.247,50.04202,-0.22417,0.83008,0.87035
449.747,50.09124,-0.23008,0.83769,0.86998
450.247,50.14042,-0.23677,0.84734,0.86961
450.747,50.18973,-0.24313,0.8569,0.86924
451.247,50.23897,-0.25147,0.86296,0.86887
451.747,50.28803,-0.25653,0.87254,0.8685
452.247,50.33744,-0.26357,0.88202,0.86813
452.747,50.38668,-0.27018,0.89284,0.86776
453.247,50.4358,-0.27817,0.90344,0.86739
453.747,50.48505,-0.28622,0.9174,0.86702
454.247,50.53411,-0.29485,0.92885,0.86665
454.747,50.58325,-0.30474,0.93852,0.86628
455.247,50.63257,-0.3131,0.9474,0.8659
455.747,50.68179,-0.32295,0.96092,0.86553
456.247,50.73122,-0.33361,0.97514,0.86516
456.747,50.78048,-0.34336,0.98754,0.86479
457.247,50.8296,-0.35517,1.0016,0.86441
457.747,50.8789,-0.36579,1.01983,0.86404
458.247,50.92804,-0.37728,1.03388,0.86367
458.747,50.97728,-0.38994,1.0463,0.86329
459.247,51.0268,-0.40255,1.06019,0.86292
459.747,51.0764,-0.41545,1.07455,0.86255
460.247,51.12597,-0.4287,1.09349,0.86217
460.747,51.1757,-0.4435,1.10775,0.8618
461.247,51.22487,-0.45917,1.15269,0.86142
461.747,51.27405,-0.4747,1.16699,0.86104
462.247,51.3235,-0.49124,1.17799,0.86067
462.747,51.3728,-0.50864,1.18658,0.86029
463.247,51.42223,-0.52704,1.19984,0.85992
463.747,51.47149,-0.54432,1.21021,0.85954
464.247,51.521,-0.56185,1.22875,0.85916
464.747,51.57039,-0.58013,1.25006,0.85879
465.247,51.61979,-0.59932,1.27117,0.85841
465.747,51.66948,-0.62125,1.29491,0.85803
466.247,51.71887,-0.64248,1.31572,0.85765
466.747,51.7682,-0.66418,1.34846,0.85727
467.247,51.81754,-0.68762,1.38569,0.8569
467.747,51.8668,-0.71401,1.39759,0.85652
468.247,51.9162,-0.73959,1.42382,0.85614
468.747,51.9656,-0.76465,1.4567,0.85576
469.247,52.01505,-0.79378,1.48372,0.85538
469.747,52.06453,-0.82586,1.51626,0.855
470.247,52.11401,-0.85508,1.54067,0.85462
470.747,52.16363,-0.88645,1.58454,0.85424
471.247,52.21318,-0.92004,1.61456,0.85386
471.747,52.26272,-0.95581,1.63451,0.85348
472.247,52.31237,-0.99223,1.64843,0.8531
472.747,52.362,-1.0272,1.69793,0.85271
473.247,52.41165,-1.06371,1.73979,0.85233
473.747,52.46114,-1.10457,1.76295,0.85195
474.247,52.51081,-1.14759,1.79616,0.85157
474.747,52.5604,-1.18923,1.82473,0.85118
475.247,52.60985,-1.2322,1.862,0.8508
475.747,52.65948,-1.27799,1.88862,0.85042
476.247,52.70924,-1.32676,1.93454,0.85004
476.747,52.7589,-1.3741,1.94169,0.84965
477.247,52.8086,-1.42301,1.97875,0.84927
477.747,52.8584,-1.47398,2.00663,0.84888
478.247,52.90824,-1.52928,2.03104,0.8485
478.747,52.9578,-1.58244,2.06501,0.84811
479.247,53.00736,-1.63546,2.09136,0.84773
479.747,53.05705,-1.69205,2.12159,0.84734
480.247,53.1068,-1.75332,2.14948,0.84696
480.747,53.15655,-1.81364,2.17566,0.84657
481.247,53.20613,-1.87363,2.196,0.84618
481.747,53.25572,-1.93667,2.22006,0.8458
482.247,53.30531,-2.00416,2.22973,0.84541
482.747,53.3548,-2.06834,2.24599,0.84502
483.247,53.4043,-2.13224,2.25953,0.84464
483.747,53.45381,-2.19866,2.26567,0.84425
484.247,53.5027,-2.26709,2.27774,0.84386
484.747,53.55189,-2.33732,2.273,0.84347
485.247,53.601,-2.40459,2.26741,0.84308
485.747,53.6501,-2.47344,2.26468,0.8427
486.247,53.69965,-2.5442,2.24896,0.84231
486.747,53.74958,-2.61805,2.23528,0.84192
487.247,53.7994,-2.68775,2.21556,0.84153
487.747,53.8494,-2.75656,2.18506,0.84114
488.247,53.8992,-2.8275,2.15469,0.84075
488.747,53.9487,-2.89992,2.11825,0.84036
489.247,53.99788,-2.96623,2.07634,0.83997
489.747,54.0472,-3.03209,2.0345,0.83958
490.247,54.0964,-3.09833,1.97675,0.83919
490.747,54.1455,-3.16637,1.92233,0.83879
491.247,54.19474,-3.22926,1.8596,0.8384
491.747,54.24369,-3.28917,1.78804,0.83801
492.247,54.29237,-3.34825,1.71388,0.83762
492.747,54.3408,-3.40448,1.63578,0.83723
493.247,54.38929,-3.46132,1.55425,0.83683
493.747,54.438,-3.51123,1.47083,0.83644
494.247,54.48669,-3.55834,1.38018,0.83605
494.747,54.53566,-3.60462,1.29301,0.83565
495.247,54.58458,-3.64978,1.20304,0.83526
495.747,54.6332,-3.69078,1.11079,0.83487
496.247,54.6817,-3.72679,1.01868,0.83447
496.747,54.73001,-3.76065,0.92371,0.83408
497.247,54.7786,-3.79316,0.83633,0.83368
497.747,54.8273,-3.82244,0.75202,0.83329
498.247,54.8758,-3.8481,0.66691,0.83289
498.747,54.92465,-3.8703,0.58996,0.8325
499.247,54.9729,-3.89187,0.51759,0.8321
499.747,55.0213,-3.90882,0.44977,0.8317
500.247,55.06991,-3.92549,0.38552,0.83131
500.747,55.1186,-3.93819,0.3307,0.83091
501.247,55.16757,-3.94774,0.27898,0.83051
501.747,55.21643,-3.95669,0.23232,0.83012
502.247,55.26523,-3.96513,0.19674,0.82972
502.747,55.314,-3.97403,0.16032,0.82932
503.247,55.3628,-3.97896,0.13248,0.82892
503.747,55.4117,-3.98257,0.10938,0.82852
504.247,55.4606,-3.9874,0.08586243,0.82813
504.747,55.5096,-3.99015,0.07139691,0.82773
505.247,55.5584,-3.99265,0.05873687,0.82733
505.747,55.60736,-3.99458,0.04819592,0.82693
506.247,55.65635,-3.99646,0.03903326,0.82653
506.747,55.7055,-3.99824,0.03215136,0.82613
507.247,55.75475,-3.9998,0.02693495,0.82573
507.747,55.804,-4.00043,0.02313729,0.82533
508.247,55.853,-4.00123,0.01913921,0.82493
508.747,55.9022,-4.00165,0.01551032,0.82453
509.247,55.95134,-4.00183,0.01335932,0.82413
509.747,56.0005,-4.00315,0.01229359,0.82372
510.247,56.0497,-4.00315,0.01210938,0.82332
510.747,56.09876,-4.0031,0.01064842,0.82292
511.247,56.14804,-4.0048,0.01052655,0.82252
511.747,56.1975,-4.0048,0.01053932,0.82212
512.247,56.2469,-4.00597,0.01346377,0.82171
512.747,56.29626,-4.00611,0.02049125,0.82131
513.247,56.3453,-4.00611,0.03452667,0.82091
513.747,56.3941,-4.0061,0.04503858,0.8205
514.247,56.44301,-4.00744,0.04807848,0.8201
514.747,56.4925,-4.0061,0.05348622,0.8197
515.247,56.542,-4.00612,0.05466054,0.81929
515.747,56.59146,-4.00742,0.05550403,0.81889
516.247,56.6412,-4.00744,0.05131689,0.81848
516.747,56.6907,-4.00875,0.04695091,0.81808
517.247,56.74025,-4.00875,0.04344068,0.81767
517.747,56.7899,-4.00875,0.03886453,0.81727
518.247,56.83959,-4.00875,0.03112231,0.81686
518.747,56.8892,-4.00875,0.02959762,0.81645
519.247,56.9389,-4.00875,0.02447007,0.81605
519.747,56.98834,-4.00908,0.01995411,0.81564
520.247,57.038,-4.00998,0.01660678,0.81523
520.747,57.0878,-4.01007,0.01437741,0.81483
521.247,57.1373,-4.01007,0.01130777,0.81442
521.747,57.18708,-4.01144,0.007504905,0.81401
522.247,57.23664,-4.01138,0.003446468,0.8136
522.747,57.28626,-4.01138,0.004786124,0.8132
523.247,57.33599,-4.01265,0.001112418,0.81279
523.747,57.3857,-4.01269,-0.001005607,0.81238
524.247,57.43545,-4.01269,-0.000566783,0.81197
524.747,57.48509,-4.01269,-0.002703052,0.81156
525.247,57.53484,-4.01269,-0.002989732,0.81115
525.747,57.58465,-4.0126,-0.00348423,0.81074
526.247,57.63443,-4.01401,-0.00617044,0.81033
526.747,57.6842,-4.01362,-0.00636733,0.80992
527.247,57.73381,-4.01269,-0.008051149,0.80951
527.747,57.78335,-4.0127,-0.00767998,0.8091
528.247,57.83291,-4.0127,-0.00998862,0.80869
528.747,57.8824,-4.01365,-0.009416447,0.80828
529.247,57.9319,-4.01368,-0.01008704,0.80787
529.747,57.98157,-4.01368,-0.01305799,0.80746
530.247,58.0313,-4.01368,-0.01345614,0.80704
530.747,58.0811,-4.01335,-0.01303501,0.80663
531.247,58.131,-4.01335,-0.01401219,0.80622
531.747,58.18085,-4.01335,-0.01661129,0.80581
532.247,58.23049,-4.01335,-0.01548066,0.8054
532.747,58.2802,-4.01403,-0.01586948,0.80498
533.247,58.32974,-4.01467,-0.01679253,0.80457
533.747,58.3794,-4.01369,-0.01661184,0.80416
534.247,58.42918,-4.01365,-0.01900122,0.80374
534.747,58.4791,-4.015,-0.0196004,0.80333
535.247,58.5291,-4.015,-0.0231536,0.80291
535.747,58.57889,-4.015,-0.02354099,0.8025
536.247,58.62875,-4.015,-0.02474297,0.80208
536.747,58.67845,-4.01465,-0.02811872,0.80167
537.247,58.7281,-4.01368,-0.02939601,0.80125
537.747,58.77791,-4.01369,-0.02802925,0.80084
538.247,58.82765,-4.01368,-0.02958937,0.80042
538.747,58.87745,-4.01501,-0.03119391,0.80001
539.247,58.9272,-4.01501,-0.02832248,0.79959
539.747,58.97693,-4.01502,-0.03141785,0.79917
540.247,59.0267,-4.01369,-0.03169695,0.79876
540.747,59.0764,-4.01473,-0.03160858,0.79834
541.247,59.12613,-4.01369,-0.0303842,0.79792
541.747,59.1759,-4.01369,-0.0318174,0.79751
542.247,59.22541,-4.01505,-0.03291329,0.79709
542.747,59.27485,-4.015,-0.03366098,0.79667
543.247,59.32435,-4.015,-0.03352626,0.79625
543.747,59.374,-4.01502,-0.03282132,0.79583
544.247,59.42402,-4.01434,-0.03448802,0.79541
544.747,59.4739,-4.01434,-0.03249297,0.795
545.247,59.52401,-4.01434,-0.03533046,0.79458
545.747,59.57371,-4.01507,-0.03385367,0.79416
546.247,59.62336,-4.01511,-0.03428239,0.79374
546.747,59.673,-4.01401,-0.03599882,0.79332
547.247,59.7227,-4.01538,-0.03641692,0.7929
547.747,59.77241,-4.01533,-0.03842255,0.79248
548.247,59.82206,-4.01533,-0.03778685,0.79206
548.747,59.87152,-4.01533,-0.03709696,0.79164
549.247,59.9208,-4.01533,-0.03646472,0.79122
549.747,59.96971,-4.01533,-0.03827379,0.79079
550.047,59.9991,-4.01533,-0.03866047,0.79054