File: 01_Data/PEX_Pipe/STA/N2/10K_min/PEX_Pipe_STA_N2_10KData_220713_R3.csv
##Temp./Â°C,Time/min,Mass loss(subtr.2)/mg,DSC(subtr.2)/(mW/mg),Sensit./(uV/mW)
49.575,10.00917,0.03447,0.001743006,1.07021
50.075,10.69009,0.03698641,0.03781996,1.07008
50.575,10.8698,0.0377101,0.06895996,1.06994
51.075,10.9999,0.03684014,0.09540462,1.0698
51.575,11.1082,0.03986381,0.11841,1.06966
52.075,11.2041,0.03824479,0.13757,1.06952
52.575,11.2923,0.03812561,0.15673,1.06939
53.075,11.3734,0.03766884,0.17499,1.06925
53.575,11.4501,0.03765705,0.18816,1.06911
54.075,11.523,0.03841996,0.20315,1.06897
54.575,11.594,0.03963621,0.21381,1.06883
55.075,11.6617,0.03957972,0.22628,1.06869
55.575,11.72746,0.03958877,0.2379,1.06855
56.075,11.7919,0.03865889,0.24534,1.06841
56.575,11.85507,0.03820329,0.25291,1.06827
57.075,11.91748,0.03855991,0.26177,1.06813
57.575,11.9781,0.03963853,0.26982,1.06799
58.075,12.03742,0.03934321,0.27458,1.06784
58.575,12.09629,0.04001454,0.27954,1.0677
59.075,12.15381,0.0400393,0.28587,1.06756
59.575,12.21231,0.04004343,0.28987,1.06742
60.075,12.2696,0.04017845,0.29403,1.06728
60.575,12.32691,0.04084088,0.29846,1.06713
61.075,12.3842,0.04039361,0.29935,1.06699
61.575,12.4404,0.04174727,0.30274,1.06685
62.075,12.49602,0.04131757,0.30426,1.0667
62.575,12.5515,0.03942961,0.30637,1.06656
63.075,12.6067,0.04169103,0.30551,1.06642
63.575,12.66164,0.04176087,0.30789,1.06627
64.075,12.71655,0.04098362,0.30645,1.06613
64.575,12.77102,0.04163225,0.30808,1.06598
65.075,12.82545,0.04171627,0.30721,1.06584
65.575,12.8798,0.04099924,0.30681,1.06569
66.075,12.93406,0.04180262,0.30642,1.06555
66.575,12.98824,0.04302857,0.30621,1.0654
67.075,13.04266,0.0429222,0.30686,1.06526
67.575,13.09658,0.04301671,0.30681,1.06511
68.075,13.1503,0.04278414,0.30649,1.06496
68.575,13.20396,0.04219632,0.30627,1.06482
69.075,13.25721,0.04306647,0.30739,1.06467
69.575,13.31051,0.04413227,0.30636,1.06452
70.075,13.36399,0.04302818,0.30777,1.06437
70.575,13.41715,0.04414995,0.30923,1.06423
71.075,13.47025,0.04301056,0.31014,1.06408
71.575,13.52311,0.04434862,0.30981,1.06393
72.075,13.5757,0.04369758,0.31039,1.06378
72.575,13.62837,0.04435026,0.31055,1.06363
73.075,13.68108,0.04451175,0.31123,1.06348
73.575,13.73356,0.04435069,0.30993,1.06333
74.075,13.78615,0.04435315,0.31066,1.06318
74.575,13.8385,0.04435551,0.30962,1.06303
75.075,13.89051,0.04434246,0.30906,1.06288
75.575,13.9428,0.04440049,0.30869,1.06273
76.075,13.9949,0.04571338,0.30866,1.06258
76.575,14.0471,0.04567561,0.31158,1.06243
77.075,14.09936,0.04434722,0.31063,1.06228
77.575,14.15144,0.04567352,0.31055,1.06213
78.075,14.2034,0.04434269,0.31233,1.06198
78.575,14.25516,0.04401283,0.31362,1.06182
79.075,14.30676,0.04320923,0.31321,1.06167
79.575,14.3582,0.04434966,0.31311,1.06152
80.075,14.40975,0.04434994,0.31414,1.06137
80.575,14.4611,0.04576586,0.31553,1.06121
81.075,14.51208,0.04434636,0.31519,1.06106
81.575,14.5634,0.04434398,0.31506,1.06091
82.075,14.6143,0.04567624,0.31442,1.06075
82.575,14.66526,0.04576115,0.31471,1.0606
83.075,14.71615,0.04567388,0.31488,1.06044
83.575,14.7668,0.04583923,0.31597,1.06029
84.075,14.81746,0.04565713,0.31696,1.06013
84.575,14.8681,0.04566,0.31739,1.05998
85.075,14.91869,0.04566114,0.31829,1.05982
85.575,14.96914,0.04500751,0.31809,1.05967
86.075,15.0199,0.04600456,0.31846,1.05951
86.575,15.07036,0.04567678,0.31799,1.05936
87.075,15.12084,0.04700504,0.31835,1.0592
87.575,15.17084,0.04566726,0.31889,1.05904
88.075,15.2203,0.0456699,0.3186,1.05889
88.575,15.2697,0.04701969,0.32047,1.05873
89.075,15.3193,0.04698999,0.3195,1.05857
89.575,15.36933,0.0469893,0.32111,1.05841
90.075,15.4198,0.04567021,0.32213,1.05825
90.575,15.47034,0.04700906,0.32333,1.0581
91.075,15.52086,0.04697917,0.32392,1.05794
91.575,15.57125,0.04724518,0.32507,1.05778
92.075,15.62144,0.04697979,0.32621,1.05762
92.575,15.67128,0.04644839,0.32698,1.05746
93.075,15.7209,0.04566727,0.32527,1.0573
93.575,15.77069,0.04699471,0.32587,1.05714
94.075,15.82046,0.04699026,0.3283,1.05698
94.575,15.8702,0.04728085,0.32777,1.05682
95.075,15.91983,0.046964,0.32875,1.05666
95.575,15.9694,0.04697999,0.32962,1.0565
96.075,16.0187,0.04695512,0.3285,1.05634
96.575,16.06814,0.04829926,0.33004,1.05617
97.075,16.1175,0.04698845,0.33217,1.05601
97.575,16.16702,0.04697999,0.333,1.05585
98.075,16.21639,0.04697823,0.33371,1.05569
98.575,16.2658,0.04567754,0.3358,1.05553
99.075,16.31476,0.04565984,0.33636,1.05536
99.575,16.36384,0.04574074,0.33744,1.0552
100.075,16.41274,0.04567637,0.33781,1.05504
100.575,16.46172,0.04562051,0.34038,1.05487
101.075,16.5111,0.04698038,0.34323,1.05471
101.575,16.56044,0.04697944,0.3424,1.05454
102.075,16.60983,0.04572062,0.34473,1.05438
102.575,16.65915,0.04699,0.34717,1.05421
103.075,16.70825,0.04698366,0.3485,1.05405
103.575,16.7573,0.04569537,0.34977,1.05388
104.075,16.8061,0.04697898,0.35358,1.05372
104.575,16.85494,0.04698,0.35716,1.05355
105.075,16.90341,0.04698011,0.3592,1.05339
105.575,16.95204,0.0475972,0.36276,1.05322
106.075,17.0008,0.04829069,0.36661,1.05305
106.575,17.04938,0.04697975,0.36925,1.05289
107.075,17.0986,0.04763464,0.37417,1.05272
107.575,17.14808,0.04764001,0.3764,1.05255
108.075,17.19738,0.04764,0.38246,1.05238
108.575,17.24671,0.04763968,0.38588,1.05222
109.075,17.2959,0.04810245,0.38993,1.05205
109.575,17.3441,0.04830024,0.39641,1.05188
110.075,17.39292,0.0475946,0.40203,1.05171
110.575,17.44172,0.04698569,0.4069,1.05154
111.075,17.49069,0.04830464,0.41296,1.05137
111.575,17.5402,0.0483,0.4192,1.0512
112.075,17.58933,0.0483,0.42955,1.05103
112.575,17.6383,0.0483,0.43508,1.05086
113.075,17.68704,0.04830012,0.446,1.05069
113.575,17.73538,0.04929028,0.45517,1.05052
114.075,17.78349,0.0487513,0.464,1.05035
114.575,17.83165,0.04863118,0.47455,1.05018
115.075,17.88044,0.04830558,0.488,1.05001
115.575,17.92967,0.0483,0.50145,1.04984
116.075,17.97942,0.04829968,0.51865,1.04966
116.575,18.0292,0.04895774,0.53519,1.04949
117.075,18.0783,0.04830019,0.55212,1.04932
117.575,18.12742,0.04826196,0.57473,1.04915
118.075,18.17615,0.04962225,0.59795,1.04897
118.575,18.22506,0.04961872,0.62701,1.0488
119.075,18.27396,0.04882186,0.65729,1.04863
119.575,18.3229,0.04960871,0.69172,1.04845
120.075,18.37204,0.04961,0.73082,1.04828
120.575,18.4212,0.04960999,0.77614,1.0481
121.075,18.47039,0.04961598,0.82676,1.04793
121.575,18.5196,0.04963652,0.88301,1.04775
122.075,18.56845,0.04962004,0.94098,1.04758
122.575,18.61724,0.04962,1.02771,1.0474
123.075,18.6664,0.04962012,1.12453,1.04723
123.575,18.71583,0.05065951,1.22851,1.04705
124.075,18.7657,0.05094035,1.34454,1.04687
124.575,18.8156,0.05093822,1.46049,1.0467
125.075,18.86557,0.04959158,1.57318,1.04652
125.575,18.91548,0.05061086,1.69151,1.04634
126.075,18.9653,0.05061967,1.80935,1.04617
126.575,19.0153,0.05094204,1.92404,1.04599
127.075,19.06512,0.05094193,2.03598,1.04581
127.575,19.11541,0.05223062,2.12988,1.04563
128.075,19.16617,0.05225002,2.20378,1.04545
128.575,19.2167,0.05225009,2.26461,1.04528
129.075,19.26746,0.05200457,2.29386,1.0451
129.575,19.31776,0.05225149,2.29079,1.04492
130.075,19.36766,0.05225,2.24444,1.04474
130.575,19.4173,0.05225042,2.16572,1.04456
131.075,19.4667,0.05089356,2.06316,1.04438
131.575,19.51589,0.05093328,1.93537,1.0442
132.075,19.56466,0.05226606,1.80155,1.04402
132.575,19.6134,0.05224847,1.66501,1.04383
133.075,19.66188,0.05095329,1.52743,1.04365
133.575,19.7099,0.05093999,1.37855,1.04347
134.075,19.75771,0.05093542,1.2216,1.04329
134.575,19.8054,0.05226432,1.06941,1.04311
135.075,19.85286,0.05129384,0.92826,1.04293
135.575,19.90006,0.05226297,0.81129,1.04274
136.075,19.94732,0.05223995,0.71787,1.04256
136.575,19.9942,0.05094186,0.64274,1.04238
137.075,20.04105,0.05090475,0.58445,1.04219
137.575,20.08784,0.05226418,0.54051,1.04201
138.075,20.1345,0.05070642,0.50427,1.04183
138.575,20.18149,0.05072002,0.47526,1.04164
139.075,20.2284,0.0507206,0.45055,1.04146
139.575,20.2755,0.05201064,0.43462,1.04127
140.075,20.3229,0.05203004,0.42223,1.04109
140.575,20.37004,0.05203,0.4095,1.0409
141.075,20.41741,0.05203075,0.40095,1.04072
141.575,20.4648,0.05312858,0.39433,1.04053
142.075,20.512,0.05335025,0.38762,1.04034
142.575,20.5593,0.05335001,0.38593,1.04016
143.075,20.60667,0.05339123,0.38269,1.03997
143.575,20.654,0.05180474,0.38158,1.03978
144.075,20.70126,0.05181001,0.37977,1.0396
144.575,20.74869,0.05181,0.37808,1.03941
145.075,20.79618,0.05180954,0.37659,1.03922
145.575,20.84367,0.05322487,0.37602,1.03903
146.075,20.89126,0.05312989,0.37529,1.03884
146.575,20.93901,0.05313,0.37501,1.03865
147.075,20.98655,0.05313635,0.37422,1.03847
147.575,21.03397,0.05181332,0.37538,1.03828
148.075,21.08161,0.05181819,0.37261,1.03809
148.575,21.12903,0.05312611,0.37222,1.0379
149.075,21.17649,0.05177598,0.37327,1.03771
149.575,21.2238,0.05313677,0.37187,1.03752
150.075,21.27114,0.05312998,0.37191,1.03733
150.575,21.31895,0.0531291,0.37161,1.03713
151.075,21.36662,0.05445347,0.37271,1.03694
151.575,21.41433,0.05445003,0.37046,1.03675
152.075,21.46246,0.0544327,0.37088,1.03656
152.575,21.51008,0.05313081,0.37232,1.03637
153.075,21.55772,0.05313,0.37242,1.03618
153.575,21.60529,0.05313,0.37172,1.03598
154.075,21.6529,0.05313,0.37089,1.03579
154.575,21.70055,0.05313048,0.37259,1.0356
155.075,21.74819,0.0540321,0.37187,1.0354
155.575,21.7958,0.05406366,0.37275,1.03521
156.075,21.84345,0.05313087,0.37424,1.03502
156.575,21.89109,0.05317002,0.37366,1.03482
157.075,21.93885,0.05246271,0.37372,1.03463
157.575,21.98657,0.05244612,0.37304,1.03443
158.075,22.03436,0.05313168,0.37269,1.03424
158.575,22.08219,0.05313578,0.3759,1.03404
159.075,22.12979,0.05346085,0.37476,1.03384
159.575,22.1774,0.05346006,0.37424,1.03365
160.075,22.2252,0.05340774,0.3753,1.03345
160.575,22.27263,0.05477376,0.3753,1.03326
161.075,22.3204,0.05477,0.37541,1.03306
161.575,22.36841,0.05476982,0.37525,1.03286
162.075,22.41603,0.05418294,0.37704,1.03266
162.575,22.46377,0.05378659,0.37526,1.03247
163.075,22.5119,0.05291876,0.37653,1.03227
163.575,22.55956,0.05250391,0.37543,1.03207
164.075,22.60736,0.05379017,0.37595,1.03187
164.575,22.6552,0.05378744,0.37582,1.03167
165.075,22.7029,0.05411953,0.37564,1.03147
165.575,22.75064,0.05412805,0.37676,1.03128
166.075,22.79824,0.05412001,0.37537,1.03108
166.575,22.84593,0.05412,0.37591,1.03088
167.075,22.89339,0.05412,0.37554,1.03068
167.575,22.9411,0.05412,0.3763,1.03047
168.075,22.98894,0.05412002,0.37698,1.03027
168.575,23.0367,0.05385899,0.37531,1.03007
169.075,23.08471,0.05378943,0.37805,1.02987
169.575,23.1324,0.0540066,0.37821,1.02967
170.075,23.1801,0.05377352,0.37871,1.02947
170.575,23.2278,0.05378995,0.37772,1.02927
171.075,23.27546,0.05379,0.37764,1.02906
171.575,23.32316,0.05379152,0.37781,1.02886
172.075,23.371,0.05509032,0.3784,1.02866
172.575,23.41889,0.05510971,0.37856,1.02845
173.075,23.46663,0.05380305,0.37855,1.02825
173.575,23.51455,0.05378997,0.3786,1.02805
174.075,23.5623,0.05378983,0.37842,1.02784
174.575,23.60974,0.0538087,0.37866,1.02764
175.075,23.65757,0.05510107,0.3786,1.02743
175.575,23.70526,0.05519654,0.37863,1.02723
176.075,23.75307,0.0531789,0.3783,1.02702
176.575,23.80106,0.05279976,0.37849,1.02682
177.075,23.84896,0.05280002,0.37849,1.02661
177.575,23.89669,0.05271248,0.37885,1.0264
178.075,23.9443,0.05412046,0.37906,1.0262
178.575,23.99211,0.05412,0.38113,1.02599
179.075,24.03973,0.05412003,0.37952,1.02578
179.575,24.0873,0.05416023,0.37905,1.02558
180.075,24.13498,0.05292207,0.37851,1.02537
180.575,24.1827,0.05378414,0.38012,1.02516
181.075,24.23023,0.05511368,0.38137,1.02495
181.575,24.27729,0.05511001,0.37933,1.02475
182.075,24.32475,0.05511,0.37784,1.02454
182.575,24.37239,0.05511031,0.37971,1.02433
183.075,24.4199,0.053753,0.38067,1.02412
183.575,24.46761,0.05376512,0.38,1.02391
184.075,24.51555,0.05421703,0.38221,1.0237
184.575,24.56324,0.05279949,0.38118,1.02349
185.075,24.6109,0.05281017,0.38294,1.02328
185.575,24.6584,0.05439051,0.38131,1.02307
186.075,24.7061,0.05545505,0.38072,1.02286
186.575,24.7538,0.05444569,0.37933,1.02264
187.075,24.80125,0.05445001,0.38116,1.02243
187.575,24.84885,0.05444999,0.37994,1.02222
188.075,24.89643,0.05448312,0.38143,1.02201
188.575,24.9439,0.05412065,0.38244,1.0218
189.075,24.99155,0.05412,0.3825,1.02158
189.575,25.03924,0.05412,0.38389,1.02137
190.075,25.087,0.05416357,0.38067,1.02116
190.575,25.1346,0.05292135,0.38013,1.02094
191.075,25.1821,0.05379887,0.38366,1.02073
191.575,25.22946,0.0537997,0.38202,1.02052
192.075,25.277,0.05535718,0.38143,1.0203
192.575,25.32449,0.05543023,0.38222,1.02009
193.075,25.37218,0.05540439,0.38276,1.01987
193.575,25.42014,0.0541212,0.38208,1.01966
194.075,25.46791,0.05477457,0.38291,1.01944
194.575,25.5157,0.05345941,0.38084,1.01922
195.075,25.5634,0.05383666,0.38246,1.01901
195.575,25.61099,0.05477813,0.38264,1.01879
196.075,25.65851,0.05544804,0.38264,1.01858
196.575,25.7061,0.05530457,0.38257,1.01836
197.075,25.75375,0.05412141,0.3824,1.01814
197.575,25.8013,0.0555208,0.3842,1.01792
198.075,25.8489,0.05544002,0.38199,1.01771
198.575,25.89629,0.05544,0.38328,1.01749
199.075,25.9438,0.05544017,0.38402,1.01727
199.575,25.99146,0.05537575,0.38423,1.01705
200.075,26.0389,0.05511003,0.3847,1.01683
200.575,26.08652,0.05511001,0.38435,1.01661
201.075,26.13394,0.05510124,0.38679,1.01639
201.575,26.1814,0.05477722,0.38564,1.01617
202.075,26.2287,0.0541393,0.38499,1.01595
202.575,26.2764,0.05541788,0.38461,1.01573
203.075,26.32402,0.05544004,0.38719,1.01551
203.575,26.37153,0.05544,0.38562,1.01529
204.075,26.41903,0.05544,0.38499,1.01507
204.575,26.46664,0.05544,0.38433,1.01485
205.075,26.5141,0.05544412,0.38607,1.01462
205.575,26.56162,0.05443508,0.38591,1.0144
206.075,26.6091,0.05445,0.38681,1.01418
206.575,26.6566,0.05445001,0.38721,1.01396
207.075,26.70395,0.05444598,0.38688,1.01373
207.575,26.7513,0.05542788,0.38609,1.01351
208.075,26.7987,0.05576027,0.38642,1.01329
208.575,26.84603,0.05552367,0.38753,1.01306
209.075,26.8933,0.05543288,0.38711,1.01284
209.575,26.94074,0.0540849,0.38676,1.01261
210.075,26.9881,0.05411973,0.3879,1.01239
210.575,27.03551,0.05550103,0.38689,1.01216
211.075,27.0831,0.05542987,0.38729,1.01194
211.575,27.1307,0.05543,0.38846,1.01171
212.075,27.17827,0.05542911,0.38939,1.01149
212.575,27.22585,0.05413724,0.38696,1.01126
213.075,27.2735,0.05411403,0.38751,1.01103
213.575,27.3208,0.05544475,0.38831,1.0108
214.075,27.36839,0.05544001,0.38816,1.01058
214.575,27.41589,0.05544,0.38863,1.01035
215.075,27.4633,0.05544,0.38905,1.01012
215.575,27.5111,0.05544005,0.38971,1.00989
216.075,27.5587,0.05544677,0.38944,1.00967
216.575,27.60645,0.05505067,0.38865,1.00944
217.075,27.6543,0.0549999,0.38969,1.00921
217.575,27.70198,0.05499972,0.39066,1.00898
218.075,27.7496,0.05502889,0.39,1.00875
218.575,27.79712,0.05632021,0.39069,1.00852
219.075,27.8446,0.05630656,0.38985,1.00829
219.575,27.89203,0.05501321,0.38964,1.00806
220.075,27.9397,0.05499999,0.38923,1.00783
220.575,27.98736,0.055,0.38977,1.0076
221.075,28.03487,0.055,0.38916,1.00737
221.575,28.0825,0.05499999,0.38978,1.00713
222.075,28.12991,0.05500091,0.38853,1.0069
222.575,28.17735,0.05369135,0.39154,1.00667
223.075,28.22503,0.05367629,0.39074,1.00644
223.575,28.27245,0.05505085,0.39089,1.0062
224.075,28.3201,0.05499955,0.39094,1.00597
224.575,28.36763,0.05534029,0.39185,1.00574
225.075,28.4153,0.05533,0.3907,1.0055
225.575,28.46285,0.05529427,0.39073,1.00527
226.075,28.51046,0.05401005,0.39266,1.00504
226.575,28.558,0.0549861,0.39157,1.0048
227.075,28.6054,0.05500005,0.39219,1.00457
227.575,28.6529,0.05500522,0.39342,1.00433
228.075,28.7005,0.05367606,0.39075,1.0041
228.575,28.7482,0.0545832,0.39347,1.00386
229.075,28.79549,0.0549999,0.39318,1.00362
229.575,28.84252,0.05500002,0.39223,1.00339
230.075,28.8897,0.05499732,0.39311,1.00315
230.575,28.93683,0.05368512,0.39253,1.00291
231.075,28.98405,0.05401238,0.3937,1.00268
231.575,29.03195,0.05400972,0.39407,1.00244
232.075,29.07987,0.05405473,0.39321,1.0022
232.575,29.12776,0.05532013,0.39353,1.00196
233.075,29.17554,0.0553199,0.3929,1.00172
233.575,29.2233,0.05537821,0.39309,1.00149
234.075,29.27096,0.05466104,0.39321,1.00125
234.575,29.31825,0.05466,0.3936,1.00101
235.075,29.36565,0.05466,0.39181,1.00077
235.575,29.41328,0.05465835,0.39246,1.00053
236.075,29.46091,0.0536019,0.39257,1.00029
236.575,29.5085,0.05367994,0.39306,1.00005
237.075,29.5565,0.05367662,0.39246,0.99981
237.575,29.60405,0.05503937,0.39326,0.99957
238.075,29.6516,0.05498971,0.3934,0.99932
238.575,29.6992,0.05466981,0.3947,0.99908
239.075,29.7469,0.05430979,0.39352,0.99884
239.575,29.79445,0.0546693,0.3939,0.9986
240.075,29.8418,0.05470866,0.39619,0.99836
240.575,29.8892,0.05565995,0.39564,0.99811
241.075,29.93686,0.05566,0.39329,0.99787
241.575,29.98443,0.05566,0.39284,0.99763
242.075,30.03224,0.05565939,0.39264,0.99738
242.575,30.07984,0.05494375,0.39347,0.99714
243.075,30.1275,0.0543417,0.39483,0.99689
243.575,30.17507,0.05561648,0.3943,0.99665
244.075,30.2228,0.05566273,0.3942,0.9964
244.575,30.2703,0.05431262,0.39336,0.99616
245.075,30.3179,0.05521731,0.39626,0.99591
245.575,30.36553,0.05565988,0.39619,0.99567
246.075,30.41297,0.05566931,0.3954,0.99542
246.575,30.46043,0.05588701,0.39638,0.99517
247.075,30.5078,0.05565887,0.39551,0.99493
247.575,30.5554,0.05435987,0.39549,0.99468
248.075,30.6029,0.05433996,0.39656,0.99443
248.575,30.65049,0.05434,0.39503,0.99419
249.075,30.6979,0.05433996,0.39604,0.99394
249.575,30.74509,0.05439478,0.39482,0.99369
250.075,30.79235,0.05467571,0.39602,0.99344
250.575,30.8396,0.05467,0.39423,0.99319
251.075,30.88713,0.05467,0.39605,0.99294
251.575,30.9351,0.05467,0.3943,0.99269
252.075,30.98313,0.05467,0.39597,0.99244
252.575,31.03118,0.05467,0.39634,0.99219
253.075,31.0792,0.05467002,0.39623,0.99194
253.575,31.12698,0.05603154,0.3963,0.99169
254.075,31.1745,0.05599661,0.39541,0.99144
254.575,31.22202,0.05466341,0.39571,0.99119
255.075,31.26946,0.05467,0.39553,0.99094
255.575,31.3169,0.05466837,0.39552,0.99069
256.075,31.3646,0.05337272,0.39677,0.99044
256.575,31.41212,0.05334997,0.39402,0.99018
257.075,31.4597,0.05335,0.39491,0.98993
257.575,31.5073,0.05335,0.3952,0.98968
258.075,31.5548,0.05335186,0.39468,0.98942
258.575,31.6025,0.05454743,0.39462,0.98917
259.075,31.64998,0.05466971,0.39519,0.98892
259.575,31.6976,0.05379902,0.39472,0.98866
260.075,31.7455,0.05367959,0.39522,0.98841
260.575,31.7932,0.05367989,0.39499,0.98815
261.075,31.8411,0.05371542,0.39438,0.9879
261.575,31.88897,0.05236957,0.39418,0.98764
262.075,31.93654,0.05336865,0.39231,0.98739
262.575,31.98425,0.05335998,0.39394,0.98713
263.075,32.03196,0.05336,0.39272,0.98687
263.575,32.0797,0.05336,0.39419,0.98662
264.075,32.12742,0.05336,0.3918,0.98636
264.575,32.17523,0.05336,0.39397,0.9861
265.075,32.22278,0.05336,0.39292,0.98585
265.575,32.27035,0.05336,0.39257,0.98559
266.075,32.31813,0.05336,0.39262,0.98533
266.575,32.36595,0.05335802,0.39353,0.98507
267.075,32.41357,0.05226759,0.39248,0.98481
267.575,32.4616,0.05237013,0.39332,0.98455
268.075,32.50931,0.05237,0.39364,0.98429
268.575,32.557,0.05237,0.3929,0.98403
269.075,32.6045,0.05237,0.39391,0.98377
269.575,32.65238,0.05237043,0.3937,0.98351
270.075,32.70016,0.05270677,0.39313,0.98325
270.575,32.74793,0.05269004,0.39092,0.98299
271.075,32.79574,0.05269,0.39288,0.98273
271.575,32.8434,0.05269,0.39162,0.98247
272.075,32.89107,0.05269,0.39301,0.98221
272.575,32.93877,0.05269,0.39454,0.98195
273.075,32.9863,0.05269,0.39273,0.98168
273.575,33.03407,0.05269126,0.39356,0.98142
274.075,33.08169,0.05340817,0.39545,0.98116
274.575,33.12935,0.05368249,0.39461,0.98089
275.075,33.177,0.05368005,0.39361,0.98063
275.575,33.2248,0.05368,0.39454,0.98037
276.075,33.2725,0.05368,0.39134,0.9801
276.575,33.32047,0.05368,0.39244,0.97984
277.075,33.3681,0.05367966,0.39092,0.97957
277.575,33.41575,0.0533276,0.39331,0.97931
278.075,33.46354,0.05266248,0.39428,0.97904
278.575,33.5112,0.05139117,0.39478,0.97878
279.075,33.55895,0.05168246,0.39367,0.97851
279.575,33.60678,0.05242611,0.39348,0.97824
280.075,33.65468,0.05235984,0.39328,0.97798
280.575,33.70235,0.05235937,0.39354,0.97771
281.075,33.75019,0.05161471,0.39376,0.97744
281.575,33.79792,0.05103995,0.39503,0.97718
282.075,33.84555,0.05165848,0.39667,0.97691
282.575,33.89314,0.05235987,0.39553,0.97664
283.075,33.94089,0.05236,0.39597,0.97637
283.575,33.98878,0.05236,0.39561,0.9761
284.075,34.0366,0.05236012,0.39509,0.97583
284.575,34.0847,0.0522093,0.39515,0.97556
285.075,34.13248,0.05101472,0.3958,0.9753
285.575,34.18023,0.05104002,0.39704,0.97503
286.075,34.22787,0.05104,0.39481,0.97476
286.575,34.27554,0.05104,0.39699,0.97448
287.075,34.32328,0.05104001,0.39542,0.97421
287.575,34.37096,0.05103762,0.39512,0.97394
288.075,34.41867,0.05037782,0.39504,0.97367
288.575,34.46653,0.05038002,0.39531,0.9734
289.075,34.51425,0.05038129,0.39448,0.97313
289.575,34.56211,0.05110886,0.39712,0.97285
290.075,34.60987,0.05104022,0.39697,0.97258
290.575,34.65767,0.05191394,0.39593,0.97231
291.075,34.70545,0.05203041,0.39691,0.97204
291.575,34.75332,0.05202846,0.39746,0.97176
292.075,34.80126,0.05089664,0.3972,0.97149
292.575,34.8491,0.05072,0.39777,0.97121
293.075,34.8971,0.05072,0.39643,0.97094
293.575,34.945,0.05072,0.39855,0.97066
294.075,34.99306,0.05072,0.39677,0.97039
294.575,35.04107,0.05072,0.39824,0.97011
295.075,35.08899,0.05072,0.39851,0.96984
295.575,35.1364,0.05072,0.39831,0.96956
296.075,35.18417,0.05072004,0.39848,0.96929
296.575,35.23206,0.05070342,0.39713,0.96901
297.075,35.27987,0.04972719,0.3984,0.96873
297.575,35.3283,0.04972999,0.39905,0.96846
298.075,35.37657,0.04972953,0.39812,0.96818
298.575,35.4246,0.05113484,0.39972,0.9679
299.075,35.47246,0.05104982,0.40042,0.96762
299.575,35.5203,0.05106097,0.39982,0.96734
300.075,35.5684,0.04972172,0.39966,0.96706
300.575,35.61619,0.04841112,0.39939,0.96679
301.075,35.6642,0.04840828,0.40044,0.96651
301.575,35.7123,0.0490959,0.39945,0.96623
302.075,35.76023,0.04906998,0.39983,0.96595
302.575,35.80835,0.04907,0.39986,0.96567
303.075,35.85647,0.04907,0.39941,0.96539
303.575,35.90445,0.04907,0.39971,0.9651
304.075,35.95236,0.04907,0.39994,0.96482
304.575,36.00018,0.04907,0.40047,0.96454
305.075,36.04828,0.04907,0.39908,0.96426
305.575,36.09623,0.04907,0.40144,0.96398
306.075,36.1445,0.04907002,0.40007,0.9637
306.575,36.1926,0.04905851,0.40139,0.96341
307.075,36.2408,0.0480832,0.40143,0.96313
307.575,36.28886,0.04808,0.39985,0.96285
308.075,36.33684,0.04808,0.40085,0.96256
308.575,36.3849,0.04807999,0.40039,0.96228
309.075,36.43277,0.04808329,0.4003,0.96199
309.575,36.48079,0.04905868,0.39959,0.96171
310.075,36.5289,0.04907,0.40126,0.96143
310.575,36.57673,0.04907677,0.40073,0.96114
311.075,36.62448,0.04810491,0.40164,0.96085
311.575,36.67266,0.04807997,0.40147,0.96057
312.075,36.72072,0.04807789,0.40005,0.96028
312.575,36.76887,0.04939875,0.40129,0.96
313.075,36.81732,0.04940001,0.40068,0.95971
313.575,36.86544,0.04939993,0.40305,0.95942
314.075,36.9136,0.04944596,0.40154,0.95914
314.575,36.96185,0.04807652,0.40344,0.95885
315.075,37.01003,0.04808,0.40129,0.95856
315.575,37.05805,0.04808,0.40067,0.95827
316.075,37.10606,0.04807956,0.40187,0.95798
316.575,37.1541,0.0475223,0.40148,0.95769
317.075,37.20213,0.04774921,0.40247,0.9574
317.575,37.25013,0.04775122,0.40091,0.95712
318.075,37.29813,0.04841677,0.40095,0.95683
318.575,37.34618,0.04726668,0.40176,0.95654
319.075,37.39434,0.0477496,0.4028,0.95625
319.575,37.4423,0.04775,0.40406,0.95595
320.075,37.49046,0.04774992,0.40311,0.95566
320.575,37.5384,0.04746582,0.405,0.95537
321.075,37.58632,0.04676068,0.40629,0.95508
321.575,37.63426,0.04676,0.40524,0.95479
322.075,37.6821,0.04676,0.40455,0.9545
322.575,37.72991,0.04676,0.40502,0.9542
323.075,37.7778,0.04676,0.40474,0.95391
323.575,37.82566,0.04676,0.40607,0.95362
324.075,37.87379,0.04676,0.40821,0.95332
324.575,37.92202,0.04676,0.40722,0.95303
325.075,37.97018,0.04676,0.40722,0.95274
325.575,38.0184,0.0467598,0.4062,0.95244
326.075,38.0664,0.04748027,0.4086,0.95215
326.575,38.11436,0.04676184,0.40729,0.95185
327.075,38.16239,0.04558076,0.40903,0.95156
327.575,38.2104,0.04642056,0.40563,0.95126
328.075,38.25849,0.04643,0.4072,0.95097
328.575,38.30655,0.04641751,0.40935,0.95067
329.075,38.3545,0.04513291,0.40979,0.95037
329.575,38.40234,0.04511998,0.40978,0.95008
330.075,38.45026,0.04512088,0.40971,0.94978
330.575,38.49805,0.04612247,0.41021,0.94948
331.075,38.5459,0.04610995,0.40938,0.94918
331.575,38.594,0.04610909,0.41269,0.94889
332.075,38.6421,0.04520875,0.41112,0.94859
332.575,38.69014,0.04478865,0.41078,0.94829
333.075,38.73814,0.04610515,0.41335,0.94799
333.575,38.78609,0.04610887,0.41333,0.94769
334.075,38.83408,0.04522398,0.41255,0.94739
334.575,38.88172,0.04479855,0.41082,0.94709
335.075,38.9299,0.04478999,0.41273,0.94679
335.575,38.97807,0.04479,0.41461,0.94649
336.075,39.02619,0.04479,0.41403,0.94619
336.575,39.07428,0.04479,0.41573,0.94589
337.075,39.12288,0.0447899,0.41672,0.94559
337.575,39.1713,0.04483014,0.41785,0.94529
338.075,39.2196,0.04347002,0.4187,0.94499
338.575,39.26797,0.04435171,0.41851,0.94468
339.075,39.31665,0.04548541,0.42082,0.94438
339.575,39.3651,0.04448917,0.41896,0.94408
340.075,39.41338,0.04412951,0.42048,0.94377
340.575,39.46195,0.04412899,0.41945,0.94347
341.075,39.5102,0.04282299,0.42254,0.94317
341.575,39.5585,0.04278517,0.42279,0.94286
342.075,39.60685,0.04346939,0.4227,0.94256
342.575,39.65521,0.04346881,0.42616,0.94225
343.075,39.70365,0.0425961,0.4275,0.94195
343.575,39.75202,0.04247992,0.42629,0.94164
344.075,39.80032,0.04248054,0.42622,0.94134
344.575,39.84882,0.04214798,0.42933,0.94103
345.075,39.8973,0.04215002,0.43061,0.94073
345.575,39.94563,0.04215,0.43165,0.94042
346.075,39.99398,0.04215,0.43407,0.94011
346.575,40.04197,0.04215,0.43548,0.9398
347.075,40.08985,0.04215,0.43466,0.9395
347.575,40.13794,0.04215,0.43479,0.93919
348.075,40.18626,0.04215,0.43707,0.93888
348.575,40.2346,0.04215,0.43964,0.93857
349.075,40.28305,0.04215,0.4394,0.93826
349.575,40.33129,0.04215,0.4439,0.93796
350.075,40.3797,0.04215,0.4462,0.93765
350.575,40.42841,0.04215142,0.44797,0.93734
351.075,40.47712,0.04080925,0.44958,0.93703
351.575,40.52583,0.04083005,0.45295,0.93672
352.075,40.57457,0.04083,0.45796,0.93641
352.575,40.62297,0.04083,0.45938,0.93609
353.075,40.67153,0.04083,0.46271,0.93578
353.575,40.71997,0.0408301,0.4656,0.93547
354.075,40.7682,0.04113743,0.47103,0.93516
354.575,40.81625,0.0411601,0.47255,0.93485
355.075,40.86435,0.04116,0.47546,0.93454
355.575,40.91236,0.04115977,0.48266,0.93422
356.075,40.9602,0.04120992,0.49034,0.93391
356.575,41.0084,0.04181981,0.49982,0.9336
357.075,41.05639,0.04182,0.50229,0.93328
357.575,41.10461,0.04181999,0.50505,0.93297
358.075,41.153,0.04182547,0.50625,0.93266
358.575,41.20179,0.04050362,0.50932,0.93234
359.075,41.25062,0.04051001,0.51058,0.93203
359.575,41.29932,0.04051,0.51192,0.93171
360.075,41.34817,0.04051004,0.51325,0.9314
360.575,41.3967,0.04031445,0.51336,0.93108
361.075,41.44518,0.03952093,0.51741,0.93076
361.575,41.49372,0.03952238,0.51666,0.93045
362.075,41.54217,0.03911032,0.51731,0.93013
362.575,41.5906,0.03886122,0.51684,0.92981
363.075,41.63898,0.03819781,0.51876,0.9295
363.575,41.6873,0.03820003,0.51851,0.92918
364.075,41.7356,0.0382,0.51833,0.92886
364.575,41.7841,0.0382,0.51934,0.92854
365.075,41.83255,0.0382,0.51916,0.92823
365.575,41.88098,0.0382,0.52172,0.92791
366.075,41.9294,0.03820002,0.52207,0.92759
366.575,41.97779,0.03697641,0.52382,0.92727
367.075,42.02579,0.03665162,0.52476,0.92695
367.575,42.07413,0.03654983,0.52454,0.92663
368.075,42.12273,0.03655,0.52567,0.92631
368.575,42.17129,0.03655012,0.52581,0.92599
369.075,42.22019,0.03651308,0.52656,0.92567
369.575,42.26892,0.03522985,0.52836,0.92535
370.075,42.3177,0.03522998,0.52685,0.92502
370.575,42.36627,0.03524828,0.52673,0.9247
371.075,42.41495,0.03590371,0.5264,0.92438
371.575,42.4636,0.0362225,0.52812,0.92406
372.075,42.51214,0.03621999,0.53019,0.92374
372.575,42.5607,0.03622125,0.52905,0.92341
373.075,42.60937,0.03523808,0.52883,0.92309
373.575,42.658,0.03523998,0.52849,0.92277
374.075,42.70647,0.03524,0.52862,0.92244
374.575,42.75505,0.03523931,0.53074,0.92212
375.075,42.80372,0.0348753,0.53,0.92179
375.575,42.8524,0.03497285,0.53186,0.92147
376.075,42.90121,0.03358956,0.53277,0.92114
376.575,42.95,0.03359771,0.53355,0.92082
377.075,42.99875,0.032271,0.5332,0.92049
377.575,43.04735,0.03227101,0.53557,0.92017
378.075,43.09592,0.03297652,0.5375,0.91984
378.575,43.14443,0.03292991,0.53734,0.91951
379.075,43.19308,0.03293,0.53791,0.91919
379.575,43.24185,0.03293028,0.54022,0.91886
380.075,43.29054,0.03283335,0.53992,0.91853
380.575,43.33957,0.03161003,0.53896,0.9182
381.075,43.38828,0.03161,0.54222,0.91787
381.575,43.4368,0.03161163,0.54051,0.91755
382.075,43.48557,0.03093069,0.54261,0.91722
382.575,43.53443,0.03041284,0.54232,0.91689
383.075,43.58313,0.03028987,0.54318,0.91656
383.575,43.63174,0.03028996,0.54464,0.91623
384.075,43.68035,0.03030282,0.54639,0.9159
384.575,43.72872,0.02766323,0.54644,0.91557
385.075,43.77734,0.02766001,0.54707,0.91524
385.575,43.82606,0.02763103,0.54794,0.91491
386.075,43.87467,0.02770667,0.54937,0.91458
386.575,43.92352,0.02765993,0.55131,0.91425
387.075,43.97233,0.02765995,0.55231,0.91391
387.575,44.02111,0.02767956,0.55504,0.91358
388.075,44.06988,0.02633862,0.5563,0.91325
388.575,44.11846,0.02634,0.55475,0.91292
389.075,44.1671,0.02634,0.55801,0.91258
389.575,44.2158,0.02634026,0.55776,0.91225
390.075,44.2645,0.02605116,0.55906,0.91192
390.575,44.31328,0.025021,0.5586,0.91158
391.075,44.36189,0.02502197,0.56039,0.91125
391.575,44.41044,0.02369197,0.56174,0.91091
392.075,44.459,0.02239004,0.56314,0.91058
392.575,44.5076,0.02239037,0.56377,0.91024
393.075,44.55605,0.02283869,0.56514,0.90991
393.575,44.60465,0.02139939,0.56443,0.90957
394.075,44.65337,0.02063409,0.56543,0.90924
394.575,44.70145,0.02007957,0.56791,0.9089
395.075,44.75,0.02007998,0.56813,0.90856
395.575,44.79895,0.01976751,0.56831,0.90823
396.075,44.84773,0.01877051,0.57104,0.90789
396.575,44.89683,0.01877042,0.56997,0.90755
397.075,44.94592,0.01738655,0.56994,0.90722
397.575,44.99458,0.01745012,0.57137,0.90688
398.075,45.0432,0.0174504,0.57187,0.90654
398.575,45.09175,0.01724628,0.5729,0.9062
399.075,45.1403,0.01613007,0.57319,0.90586
399.575,45.18897,0.01613,0.57453,0.90552
400.075,45.23762,0.01591386,0.57609,0.90518
400.575,45.2865,0.01481101,0.57618,0.90484
401.075,45.3352,0.01479594,0.57911,0.9045
401.575,45.38389,0.01351317,0.57931,0.90416
402.075,45.4326,0.01346965,0.58066,0.90382
402.575,45.4814,0.0121808,0.5801,0.90348
403.075,45.53018,0.01111203,0.58196,0.90314
403.575,45.57897,0.01086674,0.58102,0.9028
404.075,45.62777,0.009941178,0.58134,0.90246
404.575,45.67665,0.008559746,0.58054,0.90211
405.075,45.72553,0.009656177,0.58167,0.90177
405.575,45.77421,0.008558205,0.58269,0.90143
406.075,45.82292,0.00734661,0.58257,0.90108
406.575,45.87153,0.007239905,0.58205,0.90074
407.075,45.92029,0.007260015,0.5813,0.9004
407.575,45.96904,0.00592004,0.5826,0.90005
408.075,46.01789,0.005924131,0.5817,0.89971
408.575,46.06681,0.004596565,0.58198,0.89936
409.075,46.11575,0.004650115,0.58223,0.89902
409.575,46.16453,0.003286919,0.5835,0.89867
410.075,46.21332,0.003084038,0.58364,0.89833
410.575,46.26195,0.00174681,0.5847,0.89798
411.075,46.31064,0.0006495568,0.58507,0.89764
411.575,46.35947,-0.0006655267,0.58855,0.89729
412.075,46.40825,-0.00192075,0.58761,0.89694
412.575,46.4572,-0.001977258,0.59035,0.8966
413.075,46.5062,-0.003331095,0.59189,0.89625
413.575,46.55485,-0.00361317,0.59006,0.8959
414.075,46.6038,-0.0046186,0.59132,0.89555
414.575,46.65276,-0.004927217,0.59318,0.89521
415.075,46.70165,-0.005939863,0.59559,0.89486
415.575,46.75043,-0.00594616,0.59737,0.89451
416.075,46.79919,-0.007582753,0.59956,0.89416
416.575,46.848,-0.00749232,0.60113,0.89381
417.075,46.89692,-0.008565958,0.60266,0.89346
417.575,46.9458,-0.00991429,0.60187,0.89311
418.075,46.9951,-0.01107669,0.60377,0.89276
418.575,47.04401,-0.0139863,0.60831,0.89241
419.075,47.09301,-0.01396049,0.60876,0.89206
419.575,47.1419,-0.01525753,0.61346,0.89171
420.075,47.1906,-0.01586099,0.61591,0.89136
420.575,47.2393,-0.01723953,0.61613,0.891
421.075,47.28797,-0.01856151,0.6197,0.89065
421.575,47.33696,-0.01971177,0.6233,0.8903
422.075,47.38564,-0.02115681,0.62363,0.88995
422.575,47.43481,-0.02211732,0.62431,0.88959
423.075,47.48368,-0.02401903,0.62639,0.88924
423.575,47.53256,-0.02658265,0.63112,0.88889
424.075,47.58147,-0.02784499,0.63271,0.88853
424.575,47.63049,-0.0278855,0.63473,0.88818
425.075,47.67955,-0.02920714,0.63999,0.88783
425.575,47.72845,-0.03054237,0.63992,0.88747
426.075,47.77727,-0.03193691,0.64245,0.88712
426.575,47.82588,-0.03328758,0.64855,0.88676
427.075,47.87488,-0.03501716,0.65237,0.8864
427.575,47.9236,-0.03712343,0.65528,0.88605
428.075,47.97221,-0.0389625,0.66013,0.88569
428.575,48.02101,-0.040229,0.66791,0.88534
429.075,48.06966,-0.04175488,0.67076,0.88498
429.575,48.11844,-0.04479782,0.67324,0.88462
430.075,48.16789,-0.04664676,0.67208,0.88427
430.575,48.21748,-0.04922369,0.67403,0.88391
431.075,48.26684,-0.0505902,0.67682,0.88355
431.575,48.31621,-0.05322399,0.67831,0.88319
432.075,48.36529,-0.05511186,0.68248,0.88283
432.575,48.4143,-0.05945219,0.68603,0.88247
433.075,48.46349,-0.06237703,0.68998,0.88212
433.575,48.5126,-0.06429435,0.69349,0.88176
434.075,48.5617,-0.06607947,0.69857,0.8814
434.575,48.61059,-0.06918771,0.70026,0.88104
435.075,48.65965,-0.0726064,0.70386,0.88068
435.575,48.70819,-0.0745672,0.70517,0.88032
436.075,48.7571,-0.07778749,0.70958,0.87996
436.575,48.80611,-0.08215114,0.71341,0.87959
437.075,48.85512,-0.08513454,0.71539,0.87923
437.575,48.9045,-0.08812123,0.72016,0.87887
438.075,48.9536,-0.09169776,0.72337,0.87851
438.575,49.0029,-0.09536589,0.72749,0.87815
439.075,49.05198,-0.0988179,0.73528,0.87778
439.575,49.101,-0.10097,0.74126,0.87742
440.075,49.15033,-0.10448,0.74592,0.87706
440.575,49.19925,-0.10804,0.7528,0.8767
441.075,49.24824,-0.11282,0.75557,0.87633
441.575,49.29722,-0.11886,0.7599,0.87597
442.075,49.3464,-0.12136,0.7644,0.8756
442.575,49.39544,-0.1251,0.76702,0.87524
443.075,49.44466,-0.13011,0.77258,0.87487
443.575,49.4938,-0.13429,0.77983,0.87451
444.075,49.5428,-0.13967,0.78231,0.87414
444.575,49.59202,-0.14509,0.79097,0.87378
445.075,49.64127,-0.15089,0.7944,0.87341
445.575,49.69044,-0.15632,0.80074,0.87305
446.075,49.73976,-0.16309,0.80454,0.87268
446.575,49.7889,-0.1675,0.81256,0.87231
447.075,49.83801,-0.1738,0.82017,0.87194
447.575,49.8872,-0.17999,0.82555,0.87158
448.075,49.93622,-0.1864,0.83254,0.87121
448.575,49.98496,-0.19375,0.84008,0.87084
449.075,50.0338,-0.19897,0.84837,0.87047
449.575,50.08262,-0.20686,0.85487,0.8701
450.075,50.13142,-0.2134,0.86123,0.86974
450.575,50.1806,-0.22053,0.86965,0.86937
451.075,50.23004,-0.22852,0.88161,0.869
451.575,50.27945,-0.23576,0.88955,0.86863
452.075,50.3289,-0.24443,0.8984,0.86826
452.575,50.37847,-0.25333,0.90632,0.86789
453.075,50.4277,-0.26289,0.9152,0.86752
453.575,50.47699,-0.27139,0.92652,0.86715
454.075,50.52609,-0.27968,0.93854,0.86677
454.575,50.57521,-0.29109,0.94932,0.8664
455.075,50.62455,-0.30149,0.96252,0.86603
455.575,50.6738,-0.31195,0.97405,0.86566
456.075,50.7231,-0.32273,0.98566,0.86529
456.575,50.77241,-0.3349,0.99689,0.86492
457.075,50.82164,-0.34774,1.01251,0.86454
457.575,50.8709,-0.36102,1.02515,0.86417
458.075,50.9199,-0.37429,1.03858,0.8638
458.575,50.96908,-0.38741,1.05343,0.86342
459.075,51.0184,-0.40086,1.06614,0.86305
459.575,51.06772,-0.4148,1.08605,0.86267
460.075,51.11707,-0.42932,1.10206,0.8623
460.575,51.16643,-0.44632,1.11831,0.86192
461.075,51.21581,-0.46159,1.13705,0.86155
461.575,51.26514,-0.4772,1.15598,0.86117
462.075,51.31414,-0.49566,1.17387,0.8608
462.575,51.36333,-0.51402,1.19011,0.86042
463.075,51.41251,-0.53351,1.20732,0.86005
463.575,51.46164,-0.5518,1.22807,0.85967
464.075,51.51117,-0.57149,1.24776,0.85929
464.575,51.5606,-0.5928,1.27154,0.85892
465.075,51.61007,-0.61539,1.29289,0.85854
465.575,51.65957,-0.63657,1.31377,0.85816
466.075,51.70892,-0.66023,1.33728,0.85778
466.575,51.75817,-0.68606,1.36184,0.85741
467.075,51.80743,-0.71397,1.38617,0.85703
467.575,51.8568,-0.73903,1.41032,0.85665
468.075,51.9062,-0.7667,1.43662,0.85627
468.575,51.9557,-0.79491,1.46563,0.85589
469.075,52.0052,-0.82575,1.48957,0.85551
469.575,52.0545,-0.85661,1.51739,0.85513
470.075,52.10422,-0.88819,1.54704,0.85475
470.575,52.1539,-0.92145,1.57454,0.85437
471.075,52.20366,-0.95618,1.60555,0.85399
471.575,52.25359,-0.99264,1.63669,0.85361
472.075,52.30317,-1.03006,1.66683,0.85323
472.575,52.3528,-1.0689,1.69887,0.85285
473.075,52.40234,-1.10986,1.73613,0.85246
473.575,52.45196,-1.15285,1.76309,0.85208
474.075,52.50159,-1.19553,1.79469,0.8517
474.575,52.5512,-1.24001,1.8272,0.85132
475.075,52.6009,-1.28744,1.85222,0.85093
475.575,52.65075,-1.33817,1.88945,0.85055
476.075,52.70064,-1.38707,1.92399,0.85017
476.575,52.7506,-1.4379,1.95185,0.84978
477.075,52.80055,-1.49236,1.97536,0.8494
477.575,52.85038,-1.54894,1.99865,0.84902
478.075,52.90016,-1.60234,2.01725,0.84863
478.575,52.95,-1.65759,2.04547,0.84825
479.075,52.99961,-1.71641,2.06547,0.84786
479.575,53.0494,-1.77732,2.08787,0.84748
480.075,53.09919,-1.83615,2.10303,0.84709
480.575,53.14878,-1.89724,2.13261,0.8467
481.075,53.19856,-1.96171,2.14514,0.84632
481.575,53.24827,-2.02778,2.16752,0.84593
482.075,53.29804,-2.09258,2.1714,0.84554
482.575,53.3478,-2.15801,2.18557,0.84516
483.075,53.3976,-2.22576,2.18865,0.84477
483.575,53.44724,-2.2971,2.19113,0.84438
484.075,53.4966,-2.36379,2.1912,0.84399
484.575,53.54594,-2.43122,2.18689,0.84361
485.075,53.59531,-2.50019,2.17933,0.84322
485.575,53.64481,-2.57334,2.16299,0.84283
486.075,53.69435,-2.64371,2.14393,0.84244
486.575,53.744,-2.71046,2.12795,0.84205
487.075,53.7934,-2.77963,2.09815,0.84166
487.575,53.8427,-2.85121,2.06506,0.84127
488.075,53.8921,-2.92037,2.02895,0.84088
488.575,53.94138,-2.98535,1.98514,0.84049
489.075,53.99052,-3.05026,1.93901,0.8401
489.575,54.03963,-3.11626,1.88808,0.83971
490.075,54.08855,-3.18027,1.83343,0.83932
490.575,54.13756,-3.24042,1.77275,0.83893
491.075,54.1867,-3.29871,1.7075,0.83854
491.575,54.23561,-3.35582,1.63636,0.83815
492.075,54.2846,-3.41273,1.56398,0.83775
492.575,54.3334,-3.46606,1.4877,0.83736
493.075,54.38175,-3.51467,1.41059,0.83697
493.575,54.4306,-3.56151,1.32782,0.83658
494.075,54.47964,-3.60699,1.24603,0.83618
494.575,54.5284,-3.65041,1.16164,0.83579
495.075,54.57747,-3.69033,1.07693,0.83539
495.575,54.62611,-3.7256,0.99315,0.835
496.075,54.6741,-3.75846,0.91014,0.83461
496.575,54.7226,-3.79002,0.82925,0.83421
497.075,54.77101,-3.81602,0.75159,0.83382
497.575,54.8195,-3.84045,0.67862,0.83342
498.075,54.8681,-3.86269,0.60769,0.83303
498.575,54.9165,-3.88325,0.5428,0.83263
499.075,54.965,-3.90022,0.48068,0.83224
499.575,55.01341,-3.91518,0.42231,0.83184
500.075,55.062,-3.92795,0.37093,0.83144
500.575,55.11056,-3.93855,0.32562,0.83105
501.075,55.15916,-3.94946,0.28521,0.83065
501.575,55.2079,-3.95797,0.24965,0.83025
502.075,55.2562,-3.96484,0.21961,0.82985
502.575,55.30486,-3.97091,0.19245,0.82946
503.075,55.35357,-3.97532,0.16841,0.82906
503.575,55.4022,-3.97872,0.1509,0.82866
504.075,55.45136,-3.98171,0.13351,0.82826
504.575,55.50042,-3.98407,0.12084,0.82786
505.075,55.5495,-3.98656,0.11056,0.82746
505.575,55.5988,-3.98788,0.09953597,0.82707
506.075,55.64767,-3.98931,0.09449373,0.82667
506.575,55.6966,-3.99061,0.08875149,0.82627
507.075,55.7457,-3.99165,0.08478928,0.82587
507.575,55.79481,-3.99287,0.08067747,0.82547
508.075,55.8438,-3.99321,0.07793868,0.82507
508.575,55.89295,-3.99458,0.07650644,0.82466
509.075,55.9422,-3.9946,0.07242573,0.82426
509.575,55.9915,-3.99589,0.07131849,0.82386
510.075,56.0407,-3.99721,0.07006277,0.82346
510.575,56.09013,-3.99721,0.07318191,0.82306
511.075,56.13926,-3.99721,0.06985012,0.82266
511.575,56.1883,-3.99623,0.07210917,0.82225
512.075,56.23724,-3.99739,0.0732988,0.82185
512.575,56.28621,-3.99886,0.0852318,0.82145
513.075,56.33526,-3.99886,0.10154,0.82105
513.575,56.3845,-3.99781,0.11062,0.82064
514.075,56.4339,-3.99787,0.11304,0.82024
514.575,56.4832,-3.99787,0.1143,0.81983
515.075,56.53252,-3.99787,0.11476,0.81943
515.575,56.58194,-3.99787,0.11102,0.81903
516.075,56.63154,-3.9983,0.10828,0.81862
516.575,56.68114,-3.99894,0.10376,0.81822
517.075,56.73089,-3.99928,0.09788829,0.81781
517.575,56.78069,-3.99985,0.09220496,0.81741
518.075,56.8302,-3.99985,0.08761216,0.817
518.575,56.88001,-3.99985,0.0804278,0.81659
519.075,56.92966,-3.99985,0.07286203,0.81619
519.575,56.9794,-3.99986,0.06993214,0.81578
520.075,57.02925,-4.00116,0.06449757,0.81537
520.575,57.07886,-4.00051,0.060229,0.81497
521.075,57.12871,-4.0005,0.05610449,0.81456
521.575,57.1784,-4.0005,0.05252976,0.81415
522.075,57.2281,-4.0005,0.05080476,0.81374
522.575,57.27776,-4.0005,0.04726507,0.81334
523.075,57.32755,-4.0005,0.04467625,0.81293
523.575,57.3772,-4.00052,0.04328257,0.81252
524.075,57.42697,-4.00182,0.04378423,0.81211
524.575,57.47679,-4.00182,0.04226503,0.8117
525.075,57.5265,-4.00182,0.04301129,0.81129
525.575,57.5762,-4.00182,0.04251879,0.81088
526.075,57.6259,-4.00136,0.04390552,0.81047
526.575,57.67553,-4.00117,0.04411001,0.81006
527.075,57.7251,-4.00117,0.04842225,0.80965
527.575,57.77479,-4.00117,0.04988873,0.80924
528.075,57.82444,-4.00117,0.05229368,0.80883
528.575,57.8742,-4.00117,0.05432086,0.80842
529.075,57.92406,-4.00117,0.05653506,0.80801
529.575,57.9739,-4.00117,0.05986461,0.8076
530.075,58.02332,-4.00117,0.06149975,0.80719
530.575,58.07285,-4.00117,0.06275596,0.80677
531.075,58.12234,-4.00117,0.06646145,0.80636
531.575,58.17167,-4.00112,0.06949039,0.80595
532.075,58.22133,-4.00249,0.07189666,0.80554
532.575,58.27085,-4.00249,0.0734604,0.80512
533.075,58.32,-4.00249,0.0758374,0.80471
533.575,58.36975,-4.00249,0.07887276,0.8043
534.075,58.41976,-4.00249,0.07686307,0.80388
534.575,58.46996,-4.0025,0.08237451,0.80347
535.075,58.52066,-4.00117,0.08153709,0.80306
535.575,58.57065,-4.00117,0.08432694,0.80264
536.075,58.62045,-4.00117,0.0881328,0.80223
536.575,58.6701,-4.00158,0.08856035,0.80181
537.075,58.71979,-4.00249,0.09175939,0.8014
537.575,58.7696,-4.00218,0.09057298,0.80098
538.075,58.81941,-4.00249,0.09181901,0.80057
538.575,58.86911,-4.00249,0.09300995,0.80015
539.075,58.91879,-4.00249,0.09284188,0.79973
539.575,58.9685,-4.00381,0.09234529,0.79932
540.075,59.01815,-4.00381,0.09152133,0.7989
540.575,59.06796,-4.00381,0.09160423,0.79848
541.075,59.1177,-4.00386,0.09299865,0.79807
541.575,59.1673,-4.00316,0.10035,0.79765
542.075,59.21706,-4.00183,0.09825342,0.79723
542.575,59.26679,-4.00183,0.09705992,0.79681
543.075,59.3166,-4.00183,0.09729653,0.7964
543.575,59.3664,-4.00242,0.09818988,0.79598
544.075,59.4161,-4.00381,0.09808032,0.79556
544.575,59.46575,-4.00386,0.10055,0.79514
545.075,59.51537,-4.00249,0.10209,0.79472
545.575,59.56499,-4.00249,0.10486,0.7943
546.075,59.61447,-4.00249,0.10396,0.79388
546.575,59.6642,-4.00337,0.10469,0.79346
547.075,59.71402,-4.00347,0.1055,0.79304
547.575,59.7638,-4.00488,0.1057,0.79262
548.075,59.81385,-4.00479,0.10694,0.7922
548.575,59.8635,-4.00479,0.10709,0.79178
549.075,59.91339,-4.00447,0.10698,0.79136
549.575,59.9633,-4.00446,0.10973,0.79094
549.875,59.99409,-4.00446,0.11033,0.79069