File: 01_Data/PEX_Pipe/STA/N2/10K_min/PEX_Pipe_STA_N2_10KData_220711_R1.csv
##Temp./Â°C,Time/min,Mass loss(subtr.2)/mg,DSC(subtr.2)/(mW/mg),Sensit./(uV/mW)
49.585,10.01,-0.03591,0.0142578,1.07021
50.285,10.7729,-0.03850081,0.0618081,1.07002
50.985,10.9786,-0.03999821,0.10305,1.06983
51.685,11.13268,-0.03985648,0.13828,1.06963
52.385,11.2622,-0.04061374,0.16509,1.06944
53.085,11.37801,-0.03987482,0.18847,1.06924
53.785,11.48478,-0.04048732,0.21268,1.06905
54.485,11.58438,-0.04015613,0.23158,1.06885
55.185,11.6789,-0.04172062,0.24876,1.06866
55.885,11.7703,-0.0413957,0.26448,1.06846
56.585,11.8583,-0.04178475,0.27736,1.06827
57.285,11.94465,-0.0416872,0.28946,1.06807
57.985,12.02927,-0.04192312,0.29713,1.06787
58.685,12.11215,-0.04138607,0.30761,1.06767
59.385,12.19347,-0.04196843,0.31596,1.06747
60.085,12.27436,-0.04203841,0.32134,1.06727
60.785,12.35396,-0.04103808,0.32771,1.06707
61.485,12.4331,-0.04202096,0.33226,1.06687
62.185,12.5115,-0.04202337,0.33349,1.06667
62.885,12.5894,-0.04205691,0.33744,1.06647
63.585,12.66682,-0.04260895,0.33951,1.06627
64.285,12.74417,-0.0433576,0.34214,1.06607
64.985,12.82029,-0.04367592,0.34186,1.06586
65.685,12.8964,-0.04466921,0.34508,1.06566
66.385,12.9724,-0.04334558,0.34744,1.06546
67.085,13.0483,-0.0433489,0.34874,1.06525
67.785,13.12377,-0.04337152,0.35121,1.06505
68.485,13.1988,-0.0447017,0.35072,1.06484
69.185,13.274,-0.04463848,0.3512,1.06464
69.885,13.34925,-0.04600289,0.35352,1.06443
70.585,13.42399,-0.04495178,0.35404,1.06422
71.285,13.4985,-0.04469197,0.35697,1.06402
71.985,13.5723,-0.04468612,0.35917,1.06381
72.685,13.64649,-0.04600725,0.36121,1.0636
73.385,13.72015,-0.04599777,0.36102,1.06339
74.085,13.7937,-0.04480013,0.36474,1.06318
74.785,13.86685,-0.04585249,0.36684,1.06297
75.485,13.9402,-0.04600668,0.36788,1.06276
76.185,14.01315,-0.0460203,0.37013,1.06255
76.885,14.08596,-0.04611075,0.37093,1.06234
77.585,14.1584,-0.04611878,0.3721,1.06213
78.285,14.23141,-0.04658108,0.37326,1.06191
78.985,14.3042,-0.04739381,0.37471,1.0617
79.685,14.3767,-0.04614579,0.37684,1.06149
80.385,14.44863,-0.04744445,0.3798,1.06127
81.085,14.52055,-0.04615434,0.38113,1.06106
81.785,14.5918,-0.04732305,0.38344,1.06084
82.485,14.6635,-0.04742706,0.38542,1.06063
83.185,14.7348,-0.04759167,0.38803,1.06041
83.885,14.80681,-0.04878085,0.38916,1.06019
84.585,14.8777,-0.04743651,0.39333,1.05998
85.285,14.94869,-0.04744572,0.3959,1.05976
85.985,15.0193,-0.05002401,0.39869,1.05954
86.685,15.0902,-0.05007,0.4,1.05932
87.385,15.1608,-0.05001995,0.40197,1.0591
88.085,15.23121,-0.04875034,0.40367,1.05888
88.785,15.30168,-0.04873471,0.40538,1.05866
89.485,15.3721,-0.04874712,0.40884,1.05844
90.185,15.4424,-0.05004321,0.41097,1.05822
90.885,15.51255,-0.04973838,0.41453,1.058
91.585,15.58264,-0.04876263,0.41831,1.05778
92.285,15.65257,-0.05016116,0.42096,1.05755
92.985,15.72219,-0.04886011,0.42331,1.05733
93.685,15.79166,-0.04886445,0.42519,1.0571
94.385,15.8611,-0.05017945,0.42922,1.05688
95.085,15.9308,-0.05017954,0.4327,1.05666
95.785,16.00039,-0.05016941,0.43542,1.05643
96.485,16.06992,-0.0514901,0.43781,1.0562
97.185,16.139,-0.05148821,0.44168,1.05598
97.885,16.2083,-0.05281159,0.44685,1.05575
98.585,16.27736,-0.05149635,0.4496,1.05552
99.285,16.34669,-0.05159752,0.454,1.05529
99.985,16.4158,-0.05149834,0.45679,1.05507
100.685,16.48476,-0.05253797,0.46199,1.05484
101.385,16.5538,-0.05248002,0.46482,1.05461
102.085,16.6226,-0.05227265,0.47164,1.05438
102.785,16.6915,-0.051477,0.47492,1.05415
103.485,16.7602,-0.05281003,0.47993,1.05391
104.185,16.8293,-0.05373616,0.48541,1.05368
104.885,16.89803,-0.05332946,0.49147,1.05345
105.585,16.96677,-0.05281188,0.49677,1.05322
106.285,17.0351,-0.05412828,0.50388,1.05298
106.985,17.10387,-0.05413,0.51096,1.05275
107.685,17.17245,-0.05413158,0.51792,1.05252
108.385,17.2412,-0.05413184,0.52683,1.05228
109.085,17.30971,-0.05411997,0.53537,1.05204
109.785,17.37837,-0.05378377,0.54506,1.05181
110.485,17.44697,-0.05389389,0.55547,1.05157
111.185,17.5155,-0.05266524,0.5663,1.05134
111.885,17.58387,-0.05280462,0.57789,1.0511
112.585,17.65183,-0.05420242,0.59074,1.05086
113.285,17.72006,-0.05413006,0.60594,1.05062
113.985,17.78833,-0.05413,0.62222,1.05038
114.685,17.85687,-0.05412828,0.64369,1.05014
115.385,17.92519,-0.05410798,0.66415,1.0499
116.085,17.9937,-0.05412989,0.68915,1.04966
116.785,18.0621,-0.05428656,0.71475,1.04942
117.485,18.13064,-0.05413023,0.74707,1.04918
118.185,18.1989,-0.05412225,0.78204,1.04894
118.885,18.26754,-0.05413392,0.82578,1.04869
119.585,18.33615,-0.05413,0.87462,1.04845
120.285,18.4048,-0.05413,0.93145,1.04821
120.985,18.4734,-0.05412752,0.99301,1.04796
121.685,18.54231,-0.05404834,1.06826,1.04772
122.385,18.61141,-0.05413001,1.15818,1.04747
123.085,18.6804,-0.05413,1.26298,1.04722
123.785,18.74934,-0.05443602,1.37893,1.04698
124.485,18.81874,-0.05412016,1.50843,1.04673
125.185,18.88831,-0.05411721,1.64987,1.04648
125.885,18.95819,-0.05414233,1.79074,1.04623
126.585,19.02799,-0.05413011,1.92588,1.04599
127.285,19.09805,-0.05544288,2.038,1.04574
127.985,19.1678,-0.05412985,2.14772,1.04549
128.685,19.238,-0.05537073,2.27606,1.04524
129.385,19.30819,-0.05545001,2.36103,1.04498
130.085,19.3786,-0.05545435,2.37155,1.04473
130.785,19.44855,-0.05412987,2.31945,1.04448
131.485,19.5181,-0.05413011,2.20537,1.04423
132.185,19.58713,-0.05542499,2.00836,1.04398
132.885,19.65557,-0.05544053,1.73164,1.04372
133.585,19.72314,-0.0544782,1.42942,1.04347
134.285,19.78985,-0.0544494,1.16996,1.04321
134.985,19.85604,-0.05577037,0.96753,1.04296
135.685,19.9219,-0.05577,0.81554,1.0427
136.385,19.98773,-0.05577,0.70796,1.04245
137.085,20.0534,-0.05576743,0.63074,1.04219
137.785,20.11928,-0.0570882,0.57632,1.04193
138.485,20.18508,-0.05674469,0.53729,1.04167
139.185,20.25115,-0.05545011,0.50927,1.04142
139.885,20.31719,-0.05677381,0.48838,1.04116
140.585,20.38316,-0.05677,0.47553,1.0409
141.285,20.4494,-0.05677,0.46363,1.04064
141.985,20.5156,-0.05676315,0.45584,1.04038
142.685,20.58215,-0.05808044,0.44958,1.04012
143.385,20.64858,-0.05808,0.4489,1.03985
144.085,20.7152,-0.05807953,0.4471,1.03959
144.785,20.78172,-0.05939658,0.44206,1.03933
145.485,20.84835,-0.0590893,0.44076,1.03907
146.185,20.9149,-0.05907004,0.44109,1.0388
146.885,20.98144,-0.05942323,0.43925,1.03854
147.585,21.04798,-0.0594,0.43913,1.03827
148.285,21.11461,-0.0594626,0.43931,1.03801
148.985,21.1815,-0.05840834,0.43858,1.03774
149.685,21.24795,-0.05840997,0.43931,1.03747
150.385,21.3146,-0.05886,0.43908,1.03721
151.085,21.38149,-0.05940003,0.43845,1.03694
151.785,21.4488,-0.0594,0.43911,1.03667
152.485,21.51574,-0.0594,0.44054,1.0364
153.185,21.5826,-0.05940003,0.43933,1.03613
153.885,21.6493,-0.06012151,0.43996,1.03586
154.585,21.71606,-0.05940005,0.43868,1.03559
155.285,21.78274,-0.05939619,0.44061,1.03532
155.985,21.8495,-0.06071985,0.44336,1.03505
156.685,21.91635,-0.06010382,0.44174,1.03478
157.385,21.9831,-0.05940001,0.44307,1.03451
158.085,22.05,-0.05940018,0.44369,1.03423
158.785,22.11627,-0.06071924,0.44332,1.03396
159.485,22.1829,-0.06074295,0.44431,1.03368
160.185,22.24931,-0.06204006,0.44602,1.03341
160.885,22.3164,-0.06204,0.44639,1.03313
161.585,22.3834,-0.06204003,0.44642,1.03286
162.285,22.4504,-0.06201549,0.44765,1.03258
162.985,22.51726,-0.06143208,0.44698,1.0323
163.685,22.5843,-0.061386,0.44675,1.03203
164.385,22.65142,-0.06110355,0.44833,1.03175
165.085,22.71839,-0.06203002,0.44707,1.03147
165.785,22.78514,-0.06204135,0.44881,1.03119
166.485,22.85204,-0.06203015,0.4494,1.03091
167.185,22.91905,-0.06136904,0.44977,1.03063
167.885,22.98612,-0.06075279,0.44887,1.03035
168.585,23.05295,-0.06203987,0.44984,1.03007
169.285,23.11971,-0.06204,0.44905,1.02979
169.985,23.18657,-0.06204,0.45043,1.0295
170.685,23.2533,-0.06203485,0.45228,1.02922
171.385,23.31992,-0.06303009,0.45302,1.02894
172.085,23.38692,-0.06335412,0.45316,1.02865
172.785,23.45407,-0.06138038,0.45277,1.02837
173.485,23.52102,-0.06138036,0.45462,1.02808
174.185,23.5875,-0.06269346,0.45439,1.0278
174.885,23.65446,-0.06269043,0.45423,1.02751
175.585,23.72162,-0.06136518,0.45401,1.02722
176.285,23.78879,-0.06134025,0.45543,1.02694
176.985,23.8556,-0.06269023,0.45797,1.02665
177.685,23.92238,-0.06269,0.45866,1.02636
178.385,23.9893,-0.06269,0.45736,1.02607
179.085,24.0562,-0.06268626,0.45889,1.02578
179.785,24.12302,-0.06401367,0.45887,1.02549
180.485,24.18996,-0.06401017,0.45849,1.0252
181.185,24.25674,-0.06236588,0.45927,1.02491
181.885,24.32346,-0.06235999,0.46008,1.02462
182.585,24.39015,-0.06236487,0.46034,1.02432
183.285,24.4569,-0.06368003,0.46098,1.02403
183.985,24.52376,-0.06259378,0.45995,1.02374
184.685,24.5906,-0.06270015,0.4617,1.02344
185.385,24.65756,-0.06335081,0.46244,1.02315
186.085,24.72428,-0.06336,0.46307,1.02285
186.785,24.7911,-0.06336372,0.46277,1.02256
187.485,24.8578,-0.0640093,0.46504,1.02226
188.185,24.92447,-0.06467505,0.46583,1.02196
188.885,24.99091,-0.06500037,0.4651,1.02166
189.585,25.05712,-0.06502464,0.46567,1.02137
190.285,25.12375,-0.06527361,0.46615,1.02107
190.985,25.19047,-0.06499847,0.46772,1.02077
191.685,25.25741,-0.0643407,0.46774,1.02047
192.385,25.32425,-0.06434,0.46914,1.02017
193.085,25.39095,-0.06434,0.46914,1.01987
193.785,25.4576,-0.06434,0.47039,1.01957
194.485,25.52426,-0.06435159,0.47006,1.01926
195.185,25.59075,-0.06565961,0.47227,1.01896
195.885,25.65749,-0.06566,0.47272,1.01866
196.585,25.72401,-0.06566,0.47229,1.01835
197.285,25.7908,-0.0656607,0.472,1.01805
197.985,25.85742,-0.06610597,0.47264,1.01774
198.685,25.924,-0.06631007,0.47367,1.01744
199.385,25.9905,-0.06496475,0.47404,1.01713
200.085,26.05698,-0.06498997,0.47476,1.01683
200.785,26.12375,-0.06427639,0.47503,1.01652
201.485,26.19068,-0.06471327,0.47536,1.01621
202.185,26.2576,-0.06629181,0.47531,1.0159
202.885,26.32442,-0.06762966,0.47626,1.01559
203.585,26.3911,-0.06631725,0.47749,1.01528
204.285,26.45784,-0.06630985,0.47573,1.01497
204.985,26.5243,-0.06663057,0.47908,1.01466
205.685,26.5908,-0.06663999,0.47789,1.01435
206.385,26.65748,-0.06659052,0.47884,1.01404
207.085,26.72433,-0.06631958,0.4791,1.01373
207.785,26.7913,-0.06632,0.4802,1.01342
208.485,26.8578,-0.06632004,0.47818,1.0131
209.185,26.92418,-0.06668427,0.47855,1.01279
209.885,26.99083,-0.06635171,0.47885,1.01247
210.585,27.05762,-0.06632002,0.4802,1.01216
211.285,27.1248,-0.06631988,0.48073,1.01184
211.985,27.19132,-0.06698452,0.48204,1.01153
212.685,27.2579,-0.06831643,0.48294,1.01121
213.385,27.3244,-0.06829,0.48248,1.01089
214.085,27.39123,-0.06829175,0.4841,1.01057
214.785,27.45798,-0.06729696,0.48198,1.01025
215.485,27.52465,-0.0673,0.48483,1.00994
216.185,27.59129,-0.06729996,0.48444,1.00962
216.885,27.6579,-0.06764432,0.48333,1.0093
217.585,27.72461,-0.06762376,0.48412,1.00897
218.285,27.7915,-0.06895983,0.4854,1.00865
218.985,27.8577,-0.0686198,0.48524,1.00833
219.685,27.9246,-0.06737703,0.48738,1.00801
220.385,27.9905,-0.06729154,0.48822,1.00768
221.085,28.05769,-0.06861993,0.48824,1.00736
221.785,28.1242,-0.06862007,0.48775,1.00704
222.485,28.1913,-0.06759246,0.48867,1.00671
223.185,28.25708,-0.06762999,0.48851,1.00639
223.885,28.32334,-0.06763935,0.48944,1.00606
224.585,28.38976,-0.06895015,0.4905,1.00573
225.285,28.45663,-0.06895,0.49104,1.00541
225.985,28.5235,-0.06895,0.49269,1.00508
226.685,28.59028,-0.06895,0.49374,1.00475
227.385,28.65713,-0.0690934,0.49329,1.00442
228.085,28.72392,-0.07026986,0.49479,1.00409
228.785,28.79005,-0.07027,0.4948,1.00376
229.485,28.8564,-0.07027,0.49648,1.00343
230.185,28.92272,-0.07027,0.49662,1.0031
230.885,28.98902,-0.07027,0.49882,1.00277
231.585,29.0549,-0.07027655,0.50078,1.00243
232.285,29.12105,-0.06895975,0.49971,1.0021
232.985,29.1874,-0.06895959,0.49863,1.00177
233.685,29.25413,-0.07027702,0.49965,1.00143
234.385,29.32058,-0.07027,0.50159,1.0011
235.085,29.3869,-0.07026824,0.50108,1.00076
235.785,29.45321,-0.07129661,0.4992,1.00043
236.485,29.5195,-0.07126,0.50295,1.00009
237.185,29.58592,-0.07126,0.50159,0.99975
237.885,29.65229,-0.07126232,0.50208,0.99942
238.585,29.7186,-0.07064338,0.50103,0.99908
239.285,29.7854,-0.07030182,0.50291,0.99874
239.985,29.8519,-0.07027,0.50307,0.9984
240.685,29.91876,-0.07026041,0.50416,0.99806
241.385,29.9851,-0.07126029,0.50245,0.99772
242.085,30.0515,-0.07126,0.50368,0.99738
242.785,30.1179,-0.07126155,0.50382,0.99704
243.485,30.18445,-0.07258143,0.50291,0.99669
244.185,30.25106,-0.07125812,0.50208,0.99635
244.885,30.31775,-0.07206205,0.50428,0.99601
245.585,30.38444,-0.07239259,0.50568,0.99566
246.285,30.451,-0.07257999,0.505,0.99532
246.985,30.51732,-0.07318219,0.50494,0.99497
247.685,30.5838,-0.07324001,0.50349,0.99463
248.385,30.65052,-0.07324,0.5051,0.99428
249.085,30.71708,-0.07324,0.50452,0.99393
249.785,30.7839,-0.07323854,0.50666,0.99359
250.485,30.85036,-0.07192035,0.50621,0.99324
251.185,30.91706,-0.07192679,0.50751,0.99289
251.885,30.98372,-0.07256438,0.50656,0.99254
252.585,31.0505,-0.07389014,0.50636,0.99219
253.285,31.11719,-0.07388819,0.50833,0.99184
253.985,31.1837,-0.07257187,0.50542,0.99149
254.685,31.25038,-0.07257061,0.50637,0.99114
255.385,31.31715,-0.07265312,0.50929,0.99078
256.085,31.38392,-0.0726254,0.50854,0.99043
256.785,31.45035,-0.07190992,0.50746,0.99008
257.485,31.51694,-0.07300922,0.50889,0.98972
258.185,31.58365,-0.07388043,0.50764,0.98937
258.885,31.6507,-0.07389,0.50937,0.98901
259.585,31.7175,-0.07389336,0.51023,0.98866
260.285,31.7843,-0.0725663,0.51066,0.9883
260.985,31.8507,-0.07257,0.50959,0.98794
261.685,31.91715,-0.07256997,0.51083,0.98759
262.385,31.984,-0.07294274,0.5106,0.98723
263.085,32.05061,-0.07354986,0.51044,0.98687
263.785,32.11736,-0.07487993,0.51132,0.98651
264.485,32.184,-0.0748792,0.50983,0.98615
265.185,32.25077,-0.07356544,0.50905,0.98579
265.885,32.31746,-0.07356001,0.51017,0.98543
266.585,32.38423,-0.07347981,0.51276,0.98507
267.285,32.45104,-0.07488082,0.51124,0.9847
267.985,32.51783,-0.07389188,0.51029,0.98434
268.685,32.58469,-0.07389,0.51136,0.98398
269.385,32.65148,-0.07388986,0.51236,0.98361
270.085,32.7183,-0.07520129,0.51469,0.98325
270.785,32.7853,-0.07391338,0.51269,0.98288
271.485,32.85235,-0.07389005,0.51212,0.98252
272.185,32.9193,-0.07453709,0.51357,0.98215
272.885,32.98622,-0.07322979,0.51315,0.98178
273.585,33.0531,-0.07341199,0.5142,0.98142
274.285,33.1196,-0.07388999,0.51329,0.98105
274.985,33.18657,-0.07389013,0.51523,0.98068
275.685,33.25359,-0.07509357,0.51492,0.98031
276.385,33.32099,-0.0752,0.51524,0.97994
277.085,33.38794,-0.0751784,0.51727,0.97957
277.785,33.45483,-0.07586012,0.51721,0.9792
278.485,33.5216,-0.07589178,0.51765,0.97882
279.185,33.58845,-0.07652007,0.51863,0.97845
279.885,33.65549,-0.07512639,0.51581,0.97808
280.585,33.72226,-0.07520915,0.51916,0.97771
281.285,33.78917,-0.07389899,0.51785,0.97733
281.985,33.856,-0.07389443,0.51863,0.97696
282.685,33.92305,-0.07586538,0.51971,0.97658
283.385,33.98993,-0.07586,0.51791,0.97621
284.085,34.05702,-0.07584686,0.5212,0.97583
284.785,34.12406,-0.07455266,0.52204,0.97545
285.485,34.19117,-0.07554424,0.52214,0.97507
286.185,34.25793,-0.07554161,0.51968,0.9747
286.885,34.3247,-0.07684846,0.52252,0.97432
287.585,34.3915,-0.07549569,0.5214,0.97394
288.285,34.45862,-0.07458819,0.5229,0.97356
288.985,34.5259,-0.07554628,0.52298,0.97318
289.685,34.59308,-0.07554,0.52501,0.97279
290.385,34.6599,-0.07554,0.52567,0.97241
291.085,34.72637,-0.07553311,0.52506,0.97203
291.785,34.79309,-0.0768505,0.52454,0.97165
292.485,34.86006,-0.07684993,0.5261,0.97126
293.185,34.92753,-0.07816912,0.52609,0.97088
293.885,34.99462,-0.07817,0.52623,0.97049
294.585,35.06143,-0.07817,0.52496,0.97011
295.285,35.12849,-0.07817,0.52715,0.96972
295.985,35.1956,-0.07816999,0.52762,0.96934
296.685,35.26266,-0.07757935,0.52793,0.96895
297.385,35.32954,-0.07686183,0.5276,0.96856
298.085,35.3966,-0.07548734,0.52729,0.96817
298.785,35.46359,-0.07685159,0.52806,0.96778
299.485,35.5306,-0.07816944,0.52919,0.96739
300.185,35.59767,-0.07817,0.52886,0.967
300.885,35.66485,-0.07816999,0.52928,0.96661
301.585,35.73215,-0.07821515,0.53049,0.96622
302.285,35.79918,-0.0771907,0.53103,0.96583
302.985,35.86625,-0.07850863,0.5333,0.96544
303.685,35.9332,-0.07850768,0.53179,0.96504
304.385,36.00005,-0.0798201,0.53048,0.96465
305.085,36.06706,-0.07914069,0.53471,0.96425
305.785,36.13405,-0.07720287,0.53504,0.96386
306.485,36.20108,-0.07849949,0.53466,0.96346
307.185,36.26815,-0.07981964,0.53393,0.96307
307.885,36.33534,-0.07982,0.53299,0.96267
308.585,36.4026,-0.07981097,0.53394,0.96227
309.285,36.46972,-0.07851039,0.53415,0.96188
309.985,36.53674,-0.07851066,0.53414,0.96148
310.685,36.60373,-0.08077743,0.53332,0.96108
311.385,36.67102,-0.08112997,0.53549,0.96068
312.085,36.73816,-0.08113042,0.53655,0.96028
312.785,36.80537,-0.0801756,0.53391,0.95988
313.485,36.87242,-0.08015,0.5358,0.95947
314.185,36.93955,-0.08015,0.53626,0.95907
314.885,37.00676,-0.08015,0.53645,0.95867
315.585,37.07383,-0.08015,0.53622,0.95827
316.285,37.1411,-0.08014,0.5385,0.95786
316.985,37.20812,-0.08145964,0.53499,0.95746
317.685,37.27558,-0.08145969,0.53675,0.95705
318.385,37.34305,-0.08048602,0.53662,0.95665
319.085,37.41033,-0.08048467,0.53884,0.95624
319.785,37.47743,-0.08245352,0.53758,0.95583
320.485,37.54438,-0.08245009,0.54166,0.95542
321.185,37.6115,-0.08315726,0.53974,0.95502
321.885,37.67864,-0.08311,0.5418,0.95461
322.585,37.74582,-0.08311,0.54044,0.9542
323.285,37.8131,-0.08311,0.54232,0.95379
323.985,37.88049,-0.08311011,0.54394,0.95338
324.685,37.94766,-0.08376131,0.5417,0.95297
325.385,38.015,-0.08367982,0.54498,0.95255
326.085,38.08213,-0.08509003,0.54392,0.95214
326.785,38.14945,-0.08508999,0.54474,0.95173
327.485,38.21674,-0.08516159,0.54446,0.95132
328.185,38.28382,-0.08410078,0.54565,0.9509
328.885,38.351,-0.0841,0.54671,0.95049
329.585,38.41836,-0.08409999,0.54643,0.95007
330.285,38.48587,-0.08429912,0.54722,0.94966
330.985,38.55341,-0.08552666,0.54557,0.94924
331.685,38.6207,-0.08541999,0.5477,0.94882
332.385,38.6882,-0.08536586,0.5477,0.9484
333.085,38.7556,-0.08607991,0.54488,0.94799
333.785,38.82297,-0.08607999,0.54766,0.94757
334.485,38.89011,-0.08608188,0.54618,0.94715
335.185,38.95754,-0.0850897,0.54654,0.94673
335.885,39.02492,-0.08650628,0.54743,0.94631
336.585,39.09227,-0.08739898,0.54839,0.94588
337.285,39.15956,-0.0874,0.54781,0.94546
337.985,39.22692,-0.08739999,0.54778,0.94504
338.685,39.2943,-0.08745737,0.54936,0.94462
339.385,39.3617,-0.08706957,0.55064,0.94419
340.085,39.42902,-0.08707,0.55063,0.94377
340.785,39.4966,-0.08706318,0.55079,0.94334
341.485,39.5638,-0.08838053,0.55099,0.94292
342.185,39.6314,-0.08838,0.54989,0.94249
342.885,39.69885,-0.08838,0.55119,0.94206
343.585,39.76675,-0.08838,0.54966,0.94164
344.285,39.8343,-0.08838001,0.55012,0.94121
344.985,39.9017,-0.088875,0.55258,0.94078
345.685,39.96905,-0.08970029,0.54781,0.94035
346.385,40.03652,-0.09002168,0.54996,0.93992
347.085,40.10417,-0.09143525,0.55377,0.93949
347.785,40.17195,-0.09052851,0.55282,0.93906
348.485,40.23966,-0.09002929,0.55388,0.93863
349.185,40.3073,-0.09134199,0.55422,0.9382
349.885,40.375,-0.09107954,0.55368,0.93776
350.585,40.44267,-0.08997961,0.55628,0.93733
351.285,40.51031,-0.09264077,0.55514,0.9369
351.985,40.5781,-0.09134106,0.55536,0.93646
352.685,40.6457,-0.09200431,0.55613,0.93603
353.385,40.71308,-0.092,0.55687,0.93559
354.085,40.78055,-0.092,0.55953,0.93515
354.785,40.84811,-0.092,0.5581,0.93472
355.485,40.91603,-0.092,0.56044,0.93428
356.185,40.9837,-0.092,0.55945,0.93384
356.885,41.05154,-0.09200001,0.56164,0.9334
357.585,41.11908,-0.09229149,0.56516,0.93296
358.285,41.18658,-0.09260802,0.56419,0.93252
358.985,41.25417,-0.09398027,0.56459,0.93208
359.685,41.32196,-0.09398016,0.56735,0.93164
360.385,41.3896,-0.09363617,0.56749,0.9312
361.085,41.4572,-0.09365001,0.5675,0.93076
361.785,41.52486,-0.09366294,0.56881,0.93031
362.485,41.5926,-0.09495924,0.57067,0.92987
363.185,41.66045,-0.09363726,0.56965,0.92943
363.885,41.72804,-0.09494714,0.57122,0.92898
364.585,41.7958,-0.09493163,0.57576,0.92854
365.285,41.8635,-0.09401197,0.57416,0.92809
365.985,41.93141,-0.09529991,0.57482,0.92764
366.685,41.9992,-0.09529993,0.57641,0.9272
367.385,42.06669,-0.09665896,0.57624,0.92675
368.085,42.13445,-0.09691781,0.57701,0.9263
368.785,42.20232,-0.09563012,0.5777,0.92585
369.485,42.2705,-0.09563038,0.57958,0.9254
370.185,42.33837,-0.09662139,0.57891,0.92495
370.885,42.40619,-0.09654894,0.58029,0.9245
371.585,42.47398,-0.09726788,0.57996,0.92405
372.285,42.5419,-0.09760015,0.58236,0.9236
372.985,42.60965,-0.09892042,0.58195,0.92315
373.685,42.6773,-0.09894422,0.58331,0.92269
374.385,42.74504,-0.09993532,0.58488,0.92224
375.085,42.81278,-0.09925003,0.58451,0.92179
375.785,42.88023,-0.09925,0.58696,0.92133
376.485,42.94805,-0.09923459,0.58869,0.92088
377.185,43.01582,-0.09955585,0.58925,0.92042
377.885,43.08364,-0.09960678,0.58944,0.91996
378.585,43.15164,-0.101,0.58905,0.91951
379.285,43.21971,-0.10232,0.5914,0.91905
379.985,43.28818,-0.10232,0.59028,0.91859
380.685,43.3561,-0.10232,0.59357,0.91813
381.385,43.424,-0.10234,0.59391,0.91767
382.085,43.49203,-0.10364,0.59483,0.91721
382.785,43.5597,-0.10496,0.59531,0.91675
383.485,43.6275,-0.10494,0.59704,0.91629
384.185,43.69533,-0.10557,0.59772,0.91583
384.885,43.76335,-0.1066,0.59766,0.91536
385.585,43.8315,-0.1066,0.5978,0.9149
386.285,43.89946,-0.1066,0.59848,0.91444
386.985,43.96725,-0.10792,0.6007,0.91397
387.685,44.03497,-0.10792,0.60202,0.91351
388.385,44.1029,-0.10854,0.60336,0.91304
389.085,44.1708,-0.10789,0.60494,0.91258
389.785,44.23874,-0.10793,0.60722,0.91211
390.485,44.30656,-0.11039,0.60632,0.91164
391.185,44.37467,-0.11055,0.60804,0.91118
391.885,44.44273,-0.11192,0.60924,0.91071
392.585,44.51083,-0.11187,0.60988,0.91024
393.285,44.57884,-0.11319,0.61338,0.90977
393.985,44.64693,-0.11319,0.61209,0.9093
394.685,44.7151,-0.11295,0.61436,0.90883
395.385,44.78307,-0.11352,0.61375,0.90836
396.085,44.85111,-0.11395,0.61249,0.90788
396.785,44.91936,-0.11385,0.6124,0.90741
397.485,44.9876,-0.11517,0.61393,0.90694
398.185,45.05573,-0.11628,0.6143,0.90646
398.885,45.1239,-0.11786,0.61368,0.90599
399.585,45.19207,-0.11911,0.61397,0.90552
400.285,45.26036,-0.12043,0.6148,0.90504
400.985,45.3285,-0.12174,0.61462,0.90456
401.685,45.39658,-0.12307,0.61684,0.90409
402.385,45.46481,-0.123,0.61688,0.90361
403.085,45.53298,-0.12441,0.61675,0.90313
403.785,45.601,-0.1257,0.61736,0.90265
404.485,45.6693,-0.12569,0.62029,0.90217
405.185,45.73742,-0.12571,0.61935,0.9017
405.885,45.806,-0.12802,0.61956,0.90121
406.585,45.8738,-0.12935,0.62141,0.90073
407.285,45.94182,-0.13069,0.62161,0.90025
407.985,46.01001,-0.13197,0.62332,0.89977
408.685,46.07844,-0.13328,0.61822,0.89929
409.385,46.1468,-0.13461,0.61667,0.89881
410.085,46.21482,-0.13592,0.6176,0.89832
410.785,46.2828,-0.13724,0.61996,0.89784
411.485,46.35093,-0.13799,0.62012,0.89735
412.185,46.4189,-0.1404,0.62228,0.89687
412.885,46.48703,-0.14187,0.62605,0.89638
413.585,46.5552,-0.14412,0.62945,0.89589
414.285,46.62343,-0.14573,0.63313,0.89541
414.985,46.6916,-0.147,0.63404,0.89492
415.685,46.75959,-0.14832,0.6376,0.89443
416.385,46.82756,-0.1482,0.6385,0.89394
417.085,46.89588,-0.15076,0.64633,0.89345
417.785,46.96414,-0.15226,0.64669,0.89296
418.485,47.0324,-0.15361,0.6498,0.89247
419.185,47.10049,-0.1549,0.65129,0.89198
419.885,47.1684,-0.15707,0.65567,0.89149
420.585,47.23655,-0.15884,0.6598,0.891
421.285,47.30472,-0.1602,0.66541,0.8905
421.985,47.3731,-0.16241,0.66645,0.89001
422.685,47.44127,-0.16416,0.67126,0.88952
423.385,47.5094,-0.1688,0.67419,0.88902
424.085,47.577,-0.16951,0.67892,0.88853
424.785,47.6451,-0.17233,0.68505,0.88803
425.485,47.71346,-0.17387,0.68494,0.88753
426.185,47.7821,-0.17627,0.68829,0.88704
426.885,47.85044,-0.17917,0.69041,0.88654
427.585,47.9187,-0.18201,0.69457,0.88604
428.285,47.9867,-0.18408,0.69832,0.88554
428.985,48.05466,-0.18603,0.70109,0.88504
429.685,48.12304,-0.1904,0.70435,0.88454
430.385,48.19153,-0.19293,0.70788,0.88404
431.085,48.26019,-0.1962,0.71148,0.88354
431.785,48.32844,-0.19695,0.72031,0.88304
432.485,48.39687,-0.20105,0.72053,0.88254
433.185,48.4654,-0.20415,0.72452,0.88204
433.885,48.534,-0.20864,0.7253,0.88153
434.585,48.60224,-0.21201,0.7271,0.88103
435.285,48.67057,-0.21546,0.72697,0.88053
435.985,48.73894,-0.21972,0.73368,0.88002
436.685,48.80771,-0.22495,0.73571,0.87951
437.385,48.8763,-0.22893,0.739,0.87901
438.085,48.94485,-0.23451,0.74165,0.8785
438.785,49.01334,-0.23706,0.74421,0.87799
439.485,49.08201,-0.24246,0.74884,0.87749
440.185,49.15047,-0.2477,0.75583,0.87698
440.885,49.21906,-0.25366,0.75954,0.87647
441.585,49.28755,-0.25948,0.76524,0.87596
442.285,49.35629,-0.2648,0.77309,0.87545
442.985,49.42481,-0.2718,0.77874,0.87494
443.685,49.49343,-0.27837,0.78717,0.87443
444.385,49.562,-0.28505,0.79353,0.87392
445.085,49.63069,-0.29197,0.79986,0.8734
445.785,49.6994,-0.29912,0.8111,0.87289
446.485,49.76807,-0.30707,0.81794,0.87238
447.185,49.83667,-0.31381,0.82732,0.87186
447.885,49.9052,-0.3222,0.83673,0.87135
448.585,49.97356,-0.3308,0.84651,0.87083
449.285,50.0422,-0.33897,0.85861,0.87032
449.985,50.11103,-0.34969,0.86875,0.8698
450.685,50.17985,-0.35975,0.88128,0.86929
451.385,50.24855,-0.37035,0.89142,0.86877
452.085,50.31732,-0.38203,0.90714,0.86825
452.785,50.38629,-0.39266,0.92259,0.86773
453.485,50.45531,-0.40522,0.9355,0.86721
454.185,50.52429,-0.41832,0.94912,0.86669
454.885,50.59308,-0.43066,0.96805,0.86617
455.585,50.66169,-0.44534,0.98179,0.86565
456.285,50.73061,-0.46046,0.99797,0.86513
456.985,50.7996,-0.47526,1.01726,0.86461
457.685,50.86885,-0.49281,1.03627,0.86409
458.385,50.93785,-0.51136,1.05914,0.86356
459.085,51.00667,-0.52982,1.07873,0.86304
459.785,51.07557,-0.55051,1.10257,0.86252
460.485,51.14431,-0.57212,1.1325,0.86199
461.185,51.21315,-0.59425,1.16036,0.86147
461.885,51.28167,-0.6176,1.17817,0.86094
462.585,51.35072,-0.64294,1.19901,0.86042
463.285,51.41986,-0.66776,1.23342,0.85989
463.985,51.48932,-0.69586,1.26463,0.85936
464.685,51.55829,-0.72613,1.29285,0.85883
465.385,51.62724,-0.75774,1.32734,0.8583
466.085,51.6959,-0.78953,1.35886,0.85778
466.785,51.76488,-0.82398,1.39397,0.85725
467.485,51.8341,-0.86252,1.43066,0.85672
468.185,51.9035,-0.9008,1.46329,0.85619
468.885,51.97286,-0.94147,1.50228,0.85565
469.585,52.0419,-0.98496,1.55017,0.85512
470.285,52.1113,-1.03313,1.5718,0.85459
470.985,52.18056,-1.07787,1.61788,0.85406
471.685,52.2499,-1.12762,1.65339,0.85352
472.385,52.3192,-1.18077,1.70823,0.85299
473.085,52.38836,-1.23663,1.749,0.85246
473.785,52.45791,-1.29351,1.79971,0.85192
474.485,52.5273,-1.35377,1.83461,0.85139
475.185,52.59689,-1.41866,1.86225,0.85085
475.885,52.66635,-1.48394,1.9137,0.85031
476.585,52.73581,-1.55002,1.94017,0.84978
477.285,52.8054,-1.6172,1.99891,0.84924
477.985,52.8747,-1.69291,2.04033,0.8487
478.685,52.9445,-1.77162,2.07359,0.84816
479.385,53.0138,-1.84884,2.1123,0.84762
480.085,53.0833,-1.92876,2.12577,0.84708
480.785,53.1526,-2.01459,2.15737,0.84654
481.485,53.2219,-2.09541,2.17192,0.846
482.185,53.29119,-2.17595,2.19173,0.84546
482.885,53.36,-2.23531,2.20193,0.84492
483.585,53.42846,-2.21779,2.1994,0.84437
484.285,53.49669,-2.23341,2.20511,0.84383
484.985,53.565,-2.32726,2.20993,0.84329
485.685,53.63315,-2.42945,2.20197,0.84274
486.385,53.7013,-2.52195,2.18434,0.8422
487.085,53.7695,-2.62167,2.15884,0.84165
487.785,53.83784,-2.71809,2.12358,0.84111
488.485,53.90615,-2.81563,2.0739,0.84056
489.185,53.9744,-2.91577,2.0139,0.84002
489.885,54.0427,-3.00834,1.93948,0.83947
490.585,54.111,-3.10073,1.86443,0.83892
491.285,54.17898,-3.18739,1.77588,0.83837
491.985,54.24714,-3.29336,1.67431,0.83782
492.685,54.3152,-3.34401,1.5759,0.83727
493.385,54.3834,-3.44382,1.46286,0.83672
494.085,54.4517,-3.49107,1.34527,0.83617
494.785,54.52,-3.56126,1.23235,0.83562
495.485,54.58809,-3.62545,1.10759,0.83507
496.185,54.65583,-3.68303,0.98617,0.83452
496.885,54.72331,-3.73839,0.86867,0.83397
497.585,54.79094,-3.78311,0.75726,0.83341
498.285,54.85869,-3.82465,0.65081,0.83286
498.985,54.9267,-3.86299,0.55373,0.83231
499.685,54.99448,-3.89405,0.46491,0.83175
500.385,55.0622,-3.92373,0.38929,0.8312
501.085,55.1297,-3.96565,0.32112,0.83064
501.785,55.19725,-3.98638,0.27231,0.83009
502.485,55.26489,-4.0267,0.22139,0.82953
503.185,55.3325,-4.01124,0.18596,0.82897
503.885,55.4001,-4.02062,0.16257,0.82841
504.585,55.4679,-4.03654,0.13993,0.82786
505.285,55.5358,-4.04562,0.12376,0.8273
505.985,55.6037,-4.06323,0.11001,0.82674
506.685,55.67165,-4.05662,0.10164,0.82618
507.385,55.7396,-4.05662,0.09471423,0.82562
508.085,55.8077,-4.06178,0.0913652,0.82506
508.785,55.8759,-4.06488,0.08616585,0.8245
509.485,55.94409,-4.0654,0.08230558,0.82393
510.185,56.0122,-4.07103,0.08070359,0.82337
510.885,56.08047,-4.0773,0.07821296,0.82281
511.585,56.1488,-4.08549,0.07814023,0.82225
512.285,56.217,-4.11289,0.07596367,0.82168
512.985,56.28604,-4.08336,0.07366032,0.82112
513.685,56.3609,-4.1178,0.09882628,0.82055
514.385,56.4457,-5.57358,0.65088,0.81999
515.085,56.53637,-5.49552,0.88556,0.81942
515.785,56.61945,-5.17984,0.81769,0.81886
516.485,56.69582,-4.96458,0.68158,0.81829
517.185,56.76792,-4.79154,0.55555,0.81772
517.885,56.838,-4.65336,0.44199,0.81715
518.585,56.90679,-4.53559,0.35618,0.81659
519.285,56.97486,-4.43717,0.28555,0.81602
519.985,57.04231,-4.36479,0.23025,0.81545
520.685,57.10941,-4.30735,0.18905,0.81488
521.385,57.1765,-4.2613,0.16014,0.81431
522.085,57.24375,-4.22841,0.13896,0.81374
522.785,57.3109,-4.20289,0.12448,0.81317
523.485,57.3784,-4.18392,0.11311,0.81259
524.185,57.44566,-4.17089,0.10379,0.81202
524.885,57.513,-4.15918,0.0965683,0.81145
525.585,57.5802,-4.15265,0.09411243,0.81088
526.285,57.64745,-4.14648,0.0903576,0.8103
526.985,57.7152,-4.14293,0.08831409,0.80973
527.685,57.78306,-4.14017,0.0869048,0.80915
528.385,57.8511,-4.13708,0.08806373,0.80858
529.085,57.919,-4.13576,0.08514303,0.808
529.785,57.9871,-4.13576,0.0839686,0.80743
530.485,58.05511,-4.13529,0.08375744,0.80685
531.185,58.12334,-4.13445,0.08412249,0.80627
531.885,58.1916,-4.13345,0.08338923,0.80569
532.585,58.26008,-4.13346,0.0822839,0.80512
533.285,58.3286,-4.13346,0.08382199,0.80454
533.985,58.3973,-4.13346,0.08457397,0.80396
534.685,58.46601,-4.13218,0.08191273,0.80338
535.385,58.53488,-4.13213,0.08189018,0.8028
536.085,58.60346,-4.13346,0.08007507,0.80222
536.785,58.67221,-4.13414,0.08112794,0.80164
537.485,58.741,-4.13346,0.08218023,0.80106
538.185,58.81026,-4.13346,0.07881601,0.80047
538.885,58.87939,-4.13346,0.08047993,0.79989
539.585,58.9487,-4.13346,0.08030342,0.79931
540.285,59.0181,-4.13346,0.07909999,0.79873
540.985,59.0877,-4.13346,0.08144817,0.79814
541.685,59.1575,-4.13209,0.07992007,0.79756
542.385,59.2275,-4.13209,0.08026061,0.79697
543.085,59.29767,-4.13346,0.08032344,0.79639
543.785,59.3678,-4.13413,0.08095216,0.7958
544.485,59.438,-4.13412,0.08235673,0.79522
545.185,59.508,-4.13478,0.08329503,0.79463
545.885,59.5785,-4.13253,0.08153231,0.79404
546.585,59.649,-4.13247,0.08122359,0.79345
547.285,59.71965,-4.13247,0.08163146,0.79287
547.985,59.79,-4.13247,0.08244139,0.79228
548.685,59.8605,-4.13247,0.08223206,0.79169
549.385,59.931,-4.13247,0.08281014,0.7911
550.085,60.0015,-4.13247,0.08340427,0.79051
550.785,60.0718,-4.13247,0.08246179,0.78992
551.485,60.1423,-4.13247,0.08193395,0.78933
552.185,60.2124,-4.13253,0.08034998,0.78874
552.885,60.2827,-4.13084,0.07964492,0.78815
553.585,60.3527,-4.13115,0.07965824,0.78755
554.285,60.423,-4.13115,0.07988501,0.78696
554.985,60.49337,-4.13115,0.07703883,0.78637
555.685,60.56383,-4.13042,0.07909324,0.78577
556.385,60.63414,-4.13003,0.08037991,0.78518
557.085,60.7042,-4.13119,0.07897504,0.78459
557.785,60.774,-4.12983,0.08011245,0.78399
558.485,60.8439,-4.12983,0.07805996,0.7834
559.185,60.91384,-4.12983,0.0790675,0.7828
559.885,60.9838,-4.12983,0.08069251,0.7822
560.585,61.0538,-4.12983,0.0803601,0.78161
561.285,61.1235,-4.12983,0.08036463,0.78101
561.985,61.19334,-4.12983,0.07880746,0.78041
562.685,61.2631,-4.12983,0.0778178,0.77981
563.385,61.33294,-4.12983,0.07654472,0.77922
564.085,61.40251,-4.12887,0.07545729,0.77862
564.785,61.472,-4.12885,0.07641153,0.77802
565.485,61.54141,-4.12956,0.0754565,0.77742
566.185,61.61104,-4.13016,0.07734104,0.77682
566.885,61.6808,-4.13017,0.07900872,0.77622
567.585,61.7503,-4.12885,0.07677493,0.77562
568.285,61.8198,-4.12885,0.07730111,0.77501
568.985,61.88918,-4.12885,0.07879193,0.77441
569.685,61.95879,-4.12885,0.07723944,0.77381
570.385,62.0284,-4.12885,0.07679148,0.77321
571.085,62.09777,-4.12885,0.07556126,0.7726
571.785,62.16724,-4.12885,0.07733321,0.772
572.485,62.23701,-4.12988,0.07615718,0.7714
573.185,62.3068,-4.12984,0.07664983,0.77079
573.885,62.3764,-4.12855,0.07613028,0.77019
574.585,62.44585,-4.12853,0.07456288,0.76958
575.285,62.51531,-4.12984,0.07602591,0.76898
575.985,62.5849,-4.12984,0.07420054,0.76837
576.685,62.65436,-4.12984,0.078606,0.76776
577.385,62.7239,-4.12984,0.0780766,0.76716
578.085,62.79354,-4.12984,0.07566514,0.76655
578.785,62.86316,-4.12984,0.07595471,0.76594
579.485,62.93309,-4.12984,0.07630212,0.76533
580.185,63.0029,-4.12984,0.07386741,0.76472
580.885,63.07281,-4.12984,0.07440446,0.76411
581.585,63.14244,-4.1298,0.07550732,0.7635
582.285,63.2124,-4.12852,0.07529834,0.76289
582.985,63.2823,-4.12753,0.07558576,0.76228
583.685,63.35255,-4.12885,0.07541101,0.76167
584.385,63.42258,-4.12885,0.07595875,0.76106
585.085,63.4925,-4.12885,0.07486792,0.76045
585.785,63.5623,-4.12885,0.07221841,0.75984
586.485,63.63211,-4.12885,0.07436669,0.75923
587.185,63.70194,-4.12884,0.07430984,0.75861
587.885,63.77189,-4.12751,0.07325874,0.758
588.585,63.84182,-4.12885,0.07361542,0.75739
589.285,63.9118,-4.12885,0.07360905,0.75677
589.985,63.9819,-4.12947,0.07373685,0.75616
590.685,64.05181,-4.12943,0.07445453,0.75554
591.385,64.12188,-4.12852,0.07423448,0.75493
592.085,64.19199,-4.12857,0.07504342,0.75431
592.785,64.26221,-4.12885,0.07459088,0.75369
593.485,64.33185,-4.12885,0.07324068,0.75308
594.185,64.4017,-4.12873,0.07016367,0.75246
594.885,64.4715,-4.12753,0.07120101,0.75184
595.585,64.54191,-4.12753,0.07247767,0.75123
596.285,64.61163,-4.12885,0.07100217,0.75061
596.985,64.68182,-4.12885,0.07066615,0.74999
597.685,64.75197,-4.12885,0.06954494,0.74937
598.385,64.82247,-4.12885,0.07068608,0.74875
599.085,64.8924,-4.12885,0.06803737,0.74813
599.785,64.96231,-4.12879,0.06928052,0.74751
600.485,65.03223,-4.12852,0.06812753,0.74689
601.185,65.10234,-4.12721,0.06939883,0.74627
601.885,65.17255,-4.12721,0.06661989,0.74565
602.585,65.24288,-4.12852,0.06848052,0.74503
603.285,65.3129,-4.12852,0.06897987,0.74441
603.985,65.38279,-4.12853,0.06924655,0.74378
604.685,65.45271,-4.12983,0.06806357,0.74316
605.385,65.52249,-4.12983,0.06808323,0.74254
606.085,65.59262,-4.12983,0.06651363,0.74191
606.785,65.66251,-4.12852,0.06599217,0.74129
607.485,65.73292,-4.12918,0.06688841,0.74067
608.185,65.8031,-4.13046,0.06693374,0.74004
608.885,65.87339,-4.13049,0.06683508,0.73942
609.585,65.94332,-4.13038,0.06824305,0.73879
610.285,66.0133,-4.1295,0.06212785,0.73816
610.985,66.0834,-4.1295,0.0645904,0.73754
611.685,66.15345,-4.1295,0.06272768,0.73691
612.385,66.22357,-4.12918,0.06231069,0.73629
613.085,66.29358,-4.12918,0.06249313,0.73566
613.785,66.36373,-4.13059,0.06138096,0.73503
614.485,66.43351,-4.1298,0.06424462,0.7344
615.185,66.5033,-4.12918,0.06031852,0.73377
615.885,66.57335,-4.12982,0.06158917,0.73315
616.585,66.64359,-4.12984,0.0604319,0.73252
617.285,66.714,-4.12984,0.05832611,0.73189
617.985,66.78419,-4.12984,0.0580516,0.73126
618.685,66.85432,-4.12861,0.05825589,0.73063
619.385,66.9241,-4.12918,0.05782602,0.73
620.085,66.99425,-4.12918,0.05469184,0.72937
620.785,67.06441,-4.12918,0.05419899,0.72873
621.485,67.1345,-4.12991,0.05612348,0.7281
622.185,67.20475,-4.13027,0.05587944,0.72747
622.885,67.27505,-4.13116,0.05316448,0.72684
623.585,67.34519,-4.12983,0.05114345,0.72621
624.285,67.4153,-4.12984,0.05580682,0.72557
624.985,67.48549,-4.12984,0.05410016,0.72494
625.685,67.5561,-4.12984,0.05524293,0.72431
626.385,67.6265,-4.12984,0.05559393,0.72367
627.085,67.69683,-4.12852,0.05516681,0.72304
627.785,67.76698,-4.12972,0.05472876,0.7224
628.485,67.83712,-4.13116,0.05350592,0.72177
629.185,67.90725,-4.13122,0.05324948,0.72113
629.885,67.97747,-4.13017,0.05358727,0.7205
630.585,68.04778,-4.12915,0.05422471,0.71986
631.285,68.1182,-4.12918,0.05330476,0.71922
631.985,68.18851,-4.1305,0.05220532,0.71859
632.685,68.25855,-4.1305,0.05058777,0.71795
633.385,68.32861,-4.1305,0.05241293,0.71731
634.085,68.39875,-4.1305,0.05130011,0.71668
634.785,68.46924,-4.13182,0.05090066,0.71604
635.485,68.53957,-4.13148,0.04997599,0.7154
636.185,68.61014,-4.13017,0.05128298,0.71476
636.885,68.68046,-4.13017,0.05207448,0.71412
637.585,68.7509,-4.13148,0.04751535,0.71348
638.285,68.8211,-4.13148,0.05117011,0.71284
638.985,68.89153,-4.13148,0.04989063,0.7122
639.685,68.9619,-4.13148,0.04794116,0.71156
640.385,69.03233,-4.13049,0.04504713,0.71092
641.085,69.10251,-4.1318,0.04570796,0.71028
641.785,69.17263,-4.13181,0.0464116,0.70964
642.485,69.2428,-4.12979,0.04548162,0.709
643.185,69.31314,-4.12917,0.0451002,0.70836
643.885,69.38365,-4.12916,0.04640262,0.70771
644.585,69.45424,-4.13049,0.04551182,0.70707
645.285,69.52485,-4.1305,0.04670952,0.70643
645.985,69.59541,-4.13115,0.04554258,0.70578
646.685,69.6657,-4.13115,0.04441493,0.70514
647.385,69.736,-4.13108,0.04525843,0.7045
648.085,69.80595,-4.13181,0.04398621,0.70385
648.785,69.8763,-4.13181,0.04509889,0.70321
649.485,69.9465,-4.13046,0.04579926,0.70256
650.185,70.01699,-4.1305,0.04799579,0.70192
650.885,70.08708,-4.1305,0.04684004,0.70127
651.585,70.1572,-4.1305,0.04847109,0.70063
652.285,70.2273,-4.1305,0.04991845,0.69998
652.985,70.29757,-4.1305,0.0533213,0.69934
653.685,70.36769,-4.13163,0.05507662,0.69869
654.385,70.4379,-4.13313,0.05909426,0.69804
655.085,70.5081,-4.13313,0.06313493,0.6974
655.785,70.57839,-4.13183,0.06601128,0.69675
656.485,70.64869,-4.12923,0.06824795,0.6961
657.185,70.71891,-4.1305,0.07148655,0.69545
657.885,70.78914,-4.1305,0.07286316,0.6948
658.585,70.85861,-4.1305,0.07493856,0.69416
659.285,70.9286,-4.13083,0.08136031,0.69351
659.985,70.9987,-4.13083,0.08184045,0.69286
660.685,71.06922,-4.13083,0.08437267,0.69221
661.385,71.13955,-4.13083,0.0855448,0.69156
662.085,71.20991,-4.13083,0.08696792,0.69091
662.785,71.28026,-4.13083,0.08952023,0.69026
663.485,71.35045,-4.13083,0.09416906,0.68961
664.185,71.4208,-4.13214,0.09395841,0.68896
664.885,71.49124,-4.13214,0.09451765,0.68831
665.585,71.5616,-4.13213,0.09575229,0.68765
666.285,71.63186,-4.13082,0.09540562,0.687
666.985,71.70206,-4.13082,0.09773092,0.68635
667.685,71.77216,-4.13214,0.09382621,0.6857
668.385,71.84233,-4.13158,0.09485317,0.68505
669.085,71.9126,-4.13082,0.09457649,0.68439
669.785,71.98301,-4.13064,0.09571099,0.68374
670.485,72.05335,-4.13016,0.09440517,0.68309
671.185,72.1237,-4.13016,0.09437474,0.68243
671.885,72.19411,-4.13017,0.0927051,0.68178
672.585,72.2645,-4.13148,0.09175421,0.68113
673.285,72.33505,-4.13148,0.09257678,0.68047
673.985,72.40561,-4.13216,0.09044372,0.67982
674.685,72.47609,-4.13214,0.08965477,0.67916
675.385,72.54635,-4.13213,0.09068175,0.67851
676.085,72.61671,-4.13082,0.08968594,0.67785
676.785,72.68711,-4.13081,0.08790799,0.6772
677.485,72.75754,-4.13214,0.08900697,0.67654
678.185,72.82789,-4.13214,0.08727296,0.67588
678.885,72.89834,-4.13082,0.08424203,0.67523
679.585,72.9688,-4.13213,0.08624068,0.67457
680.285,73.03914,-4.13214,0.08730065,0.67391
680.985,73.10947,-4.13182,0.08377145,0.67326
681.685,73.1802,-4.13083,0.08385008,0.6726
682.385,73.25107,-4.13083,0.08335011,0.67194
683.085,73.32177,-4.13115,0.08157119,0.67128
683.785,73.39222,-4.13115,0.07872734,0.67063
684.485,73.46281,-4.13115,0.0803283,0.66997
685.185,73.53321,-4.13115,0.07991456,0.66931
685.885,73.60384,-4.13115,0.0790129,0.66865
686.585,73.67395,-4.13115,0.07723221,0.66799
687.285,73.7446,-4.13087,0.07747336,0.66733
687.985,73.81501,-4.13116,0.07453671,0.66667
688.685,73.88563,-4.13116,0.07479515,0.66601
689.385,73.95628,-4.13116,0.07436206,0.66535
690.085,74.02688,-4.12983,0.07398263,0.66469
690.785,74.09774,-4.13154,0.07356419,0.66403
691.485,74.16796,-4.13168,0.07233765,0.66337
692.185,74.2384,-4.13117,0.07145782,0.66271
692.885,74.30884,-4.13149,0.06887905,0.66205
693.585,74.37974,-4.13149,0.067521,0.66139
694.285,74.45002,-4.13149,0.06787246,0.66073
694.985,74.52033,-4.13149,0.06508664,0.66007
695.685,74.5904,-4.1328,0.06547714,0.6594
696.385,74.66088,-4.13281,0.06383343,0.65874
697.085,74.73142,-4.13182,0.06666757,0.65808
697.785,74.80215,-4.13176,0.06418823,0.65742
698.485,74.87281,-4.13116,0.0658294,0.65675
699.185,74.94333,-4.13133,0.06536866,0.65609
699.885,75.0137,-4.13214,0.06491103,0.65543
700.585,75.0843,-4.13214,0.0646032,0.65476
701.285,75.15495,-4.13214,0.062894,0.6541
701.985,75.22559,-4.13214,0.0596206,0.65344
702.685,75.29606,-4.13185,0.05967064,0.65277
703.385,75.36655,-4.13184,0.05820219,0.65211
704.085,75.4371,-4.13313,0.06072311,0.65144
704.785,75.50766,-4.13313,0.05773083,0.65078
705.485,75.5783,-4.13313,0.05466683,0.65011
706.185,75.6491,-4.13313,0.05088004,0.64945
706.885,75.7195,-4.13313,0.05309448,0.64878
707.585,75.78971,-4.13313,0.05113418,0.64812
708.285,75.86,-4.13214,0.05087155,0.64745
708.985,75.93042,-4.13214,0.04861861,0.64679
709.685,76.0011,-4.13351,0.04782308,0.64612
710.385,76.07182,-4.13346,0.04831014,0.64546
711.085,76.14236,-4.13483,0.04718546,0.64479
711.785,76.2127,-4.13478,0.04790678,0.64412
712.485,76.283,-4.13346,0.04504528,0.64346
713.185,76.35347,-4.13346,0.04275683,0.64279
713.885,76.42394,-4.13346,0.04410981,0.64212
714.585,76.49431,-4.13412,0.04599602,0.64145
715.285,76.56477,-4.13412,0.04347082,0.64079
715.985,76.63514,-4.13412,0.04449819,0.64012
716.685,76.70536,-4.13538,0.0438602,0.63945
717.385,76.77594,-4.13411,0.04254262,0.63878
718.085,76.84663,-4.13411,0.0392559,0.63812
718.785,76.9175,-4.13411,0.04038737,0.63745
719.485,76.9879,-4.13411,0.03739218,0.63678
720.185,77.05837,-4.13411,0.03935165,0.63611
720.885,77.12894,-4.13411,0.03491317,0.63544
721.585,77.19951,-4.13411,0.03484238,0.63477
722.285,77.27033,-4.1341,0.03379644,0.6341
722.985,77.34098,-4.1328,0.03153001,0.63343
723.685,77.41179,-4.1328,0.03212548,0.63276
724.385,77.48218,-4.1328,0.03222642,0.63209
725.085,77.55303,-4.13256,0.0313042,0.63142
725.785,77.62389,-4.13222,0.03164103,0.63075
726.485,77.69467,-4.1328,0.03084134,0.63008
727.185,77.76519,-4.13279,0.02941441,0.62941
727.885,77.8359,-4.13412,0.02691434,0.62874
728.585,77.90697,-4.13412,0.02774856,0.62807
729.285,77.97808,-4.13412,0.0286172,0.6274
729.985,78.0488,-4.13544,0.02941109,0.62673
730.685,78.11938,-4.13412,0.02704527,0.62606
731.385,78.18986,-4.13313,0.0240913,0.62539
732.085,78.2604,-4.13312,0.02477082,0.62472
732.785,78.33106,-4.1328,0.02380599,0.62405
733.485,78.4016,-4.1328,0.02147456,0.62337
734.185,78.47201,-4.13412,0.01778127,0.6227
734.885,78.54235,-4.13412,0.01870783,0.62203
735.585,78.61309,-4.13398,0.01914418,0.62136
736.285,78.6837,-4.1328,0.01769455,0.62069
736.985,78.75447,-4.13285,0.01726596,0.62001
737.685,78.82507,-4.13412,0.01822715,0.61934
738.385,78.89579,-4.13412,0.01628004,0.61867
739.085,78.96634,-4.13217,0.01662039,0.618
739.785,79.03695,-4.13214,0.01256831,0.61732
740.485,79.10763,-4.13392,0.01330408,0.61665
741.185,79.17845,-4.13485,0.01049719,0.61598
741.885,79.24898,-4.13346,0.01357968,0.6153
742.585,79.31961,-4.13214,0.01419969,0.61463
743.285,79.39036,-4.13316,0.01484631,0.61396
743.985,79.46136,-4.13346,0.01440519,0.61328
744.685,79.53222,-4.1328,0.01716928,0.61261
745.385,79.60295,-4.13379,0.01634111,0.61194
746.085,79.67385,-4.13379,0.01711583,0.61126
746.785,79.74466,-4.13379,0.01825448,0.61059
747.485,79.81541,-4.13512,0.01859016,0.60991
748.185,79.88608,-4.13508,0.01600426,0.60924
748.885,79.9569,-4.13379,0.01643924,0.60857
749.285,79.9977,-4.13379,0.0169109,0.60818