File: 01_Data/Coffee_Machine/STA/N2/3K_min/Coffee_Maker_STA_N2_3KData_220202_R1.csv
##Temp./Â°C,Time/min,DSC(subtr.2)/(mW/mg),Mass loss(subtr.2)/mg,Sensit./(uV/mW)
49.898,10.0158,-0.00104953,-0.01929,1.06381
50.498,11.06808,0.02911255,-0.02043299,1.06367
51.098,11.43675,0.04610861,-0.02103349,1.06352
51.698,11.7301,0.06081703,-0.02178668,1.06338
52.298,11.99264,0.06912177,-0.02096589,1.06323
52.898,12.23935,0.07639939,-0.02097391,1.06309
53.498,12.47695,0.07897951,-0.02237656,1.06294
54.098,12.70835,0.08349228,-0.02107583,1.0628
54.698,12.93644,0.08608056,-0.02171893,1.06265
55.298,13.16061,0.08922399,-0.02091062,1.06251
55.898,13.38313,0.08884736,-0.0223698,1.06236
56.498,13.60387,0.0899124,-0.02239451,1.06221
57.098,13.824,0.09081891,-0.02233643,1.06207
57.698,14.04175,0.09170194,-0.02365525,1.06192
58.298,14.25596,0.09339611,-0.02337681,1.06178
58.898,14.4687,0.09507237,-0.02401987,1.06163
59.498,14.67985,0.09583672,-0.02411931,1.06148
60.098,14.8909,0.09771483,-0.02532617,1.06134
60.698,15.1008,0.09522853,-0.02401907,1.06119
61.298,15.30936,0.09535416,-0.02401295,1.06104
61.898,15.5172,0.09758412,-0.02463905,1.0609
62.498,15.72417,0.09607923,-0.02450555,1.06075
63.098,15.9292,0.09891268,-0.02460977,1.0606
63.698,16.13382,0.09998528,-0.02532923,1.06045
64.298,16.33693,0.09864873,-0.02585343,1.06031
64.898,16.5405,0.09844482,-0.02532075,1.06016
65.498,16.74504,0.09907163,-0.02534006,1.06001
66.098,16.94985,0.10056,-0.02664161,1.05986
66.698,17.15598,0.09760792,-0.02542504,1.05971
67.298,17.3614,0.09877124,-0.02665934,1.05956
67.898,17.56504,0.097737,-0.02663999,1.05941
68.498,17.76765,0.10016,-0.02665078,1.05927
69.098,17.97156,0.09978024,-0.02665,1.05912
69.698,18.17387,0.09897146,-0.02528314,1.05897
70.298,18.37731,0.1001,-0.02619433,1.05882
70.898,18.5786,0.10053,-0.02539739,1.05867
71.498,18.77962,0.10277,-0.02526013,1.05852
72.098,18.98037,0.10242,-0.02660261,1.05837
72.698,19.18036,0.10706,-0.02665089,1.05822
73.298,19.3807,0.10532,-0.02629694,1.05807
73.898,19.58081,0.10404,-0.02541396,1.05792
74.498,19.78193,0.10412,-0.02694964,1.05777
75.098,19.98321,0.10769,-0.02566003,1.05761
75.698,20.18488,0.1047,-0.02697875,1.05746
76.298,20.3863,0.10461,-0.02565573,1.05731
76.898,20.588,0.10351,-0.0269633,1.05716
77.498,20.78981,0.1011,-0.02698268,1.05701
78.098,20.99193,0.09785929,-0.02684014,1.05686
78.698,21.194,0.10001,-0.02727918,1.0567
79.298,21.39611,0.09971683,-0.02833857,1.05655
79.898,21.59839,0.09998294,-0.02961013,1.0564
80.498,21.79946,0.10288,-0.02829,1.05625
81.098,22.00007,0.10253,-0.02829028,1.05609
81.698,22.1999,0.10678,-0.02861769,1.05594
82.298,22.39951,0.1042,-0.02926651,1.05579
82.898,22.5999,0.10556,-0.02861939,1.05563
83.498,22.79978,0.10209,-0.02994005,1.05548
84.098,23.00021,0.10309,-0.02861519,1.05533
84.698,23.20042,0.10397,-0.0292806,1.05517
85.298,23.40014,0.10502,-0.02859819,1.05502
85.898,23.60063,0.10466,-0.02994442,1.05486
86.498,23.80086,0.10359,-0.02994,1.05471
87.098,24.00112,0.10358,-0.0295611,1.05455
87.698,24.20165,0.10553,-0.03060009,1.0544
88.298,24.40086,0.10695,-0.03186015,1.05424
88.898,24.5993,0.10717,-0.03025953,1.05409
89.498,24.7978,0.10721,-0.03000037,1.05393
90.098,24.99624,0.10997,-0.03026671,1.05378
90.698,25.19513,0.10955,-0.03158967,1.05362
91.298,25.39367,0.10876,-0.03159,1.05346
91.898,25.59295,0.10731,-0.03155093,1.05331
92.498,25.7922,0.10665,-0.03157748,1.05315
93.098,25.99162,0.10568,-0.03290675,1.05299
93.698,26.1902,0.10623,-0.03157021,1.05284
94.298,26.38877,0.10742,-0.03184383,1.05268
94.898,26.5872,0.10542,-0.03224008,1.05252
95.498,26.78637,0.10501,-0.03224167,1.05236
96.098,26.985,0.10862,-0.03164557,1.05221
96.698,27.18467,0.10823,-0.03289994,1.05205
97.298,27.3836,0.10643,-0.03422235,1.05189
97.898,27.5826,0.10864,-0.03289976,1.05173
98.498,27.7813,0.10843,-0.03426204,1.05157
99.098,27.9797,0.11086,-0.0329094,1.05141
99.698,28.1785,0.11248,-0.03421445,1.05125
100.298,28.3768,0.11177,-0.0342199,1.05109
100.898,28.57439,0.11019,-0.03356492,1.05094
101.498,28.7733,0.11117,-0.03246687,1.05078
102.098,28.9724,0.11099,-0.03322002,1.05062
102.698,29.17207,0.11067,-0.0332718,1.05045
103.298,29.37207,0.11238,-0.0329323,1.05029
103.898,29.5714,0.10993,-0.03554382,1.05013
104.498,29.7707,0.11062,-0.03487942,1.04997
105.098,29.9696,0.11093,-0.03352781,1.04981
105.698,30.1675,0.11198,-0.03422002,1.04965
106.298,30.36587,0.11276,-0.03553079,1.04949
106.898,30.5647,0.11419,-0.03551414,1.04933
107.498,30.7638,0.1129,-0.03421119,1.04916
108.098,30.96254,0.1126,-0.03553001,1.049
108.698,31.1613,0.11407,-0.036526,1.04884
109.298,31.36038,0.11265,-0.03568198,1.04868
109.898,31.55932,0.11412,-0.0382329,1.04851
110.498,31.75828,0.1157,-0.03683684,1.04835
111.098,31.95713,0.11596,-0.03680292,1.04818
111.698,32.15537,0.11719,-0.03768849,1.04802
112.298,32.35329,0.11679,-0.03685412,1.04786
112.898,32.55068,0.11501,-0.03815014,1.04769
113.498,32.74739,0.1188,-0.03821053,1.04753
114.098,32.9454,0.11535,-0.03815641,1.04736
114.698,33.14354,0.11864,-0.03782968,1.0472
115.298,33.34228,0.12168,-0.03783,1.04703
115.898,33.54015,0.1185,-0.03739305,1.04687
116.498,33.73728,0.12039,-0.03816,1.0467
117.098,33.93485,0.12116,-0.03816604,1.04654
117.698,34.1329,0.12114,-0.03817745,1.04637
118.298,34.3312,0.12142,-0.03750578,1.0462
118.898,34.52936,0.12213,-0.03881961,1.04604
119.498,34.72613,0.12149,-0.03674554,1.04587
120.098,34.9233,0.1213,-0.03828356,1.0457
120.698,35.11937,0.12206,-0.03813423,1.04553
121.298,35.31641,0.1219,-0.03816989,1.04537
121.898,35.5135,0.12431,-0.03678759,1.0452
122.498,35.71093,0.12324,-0.03816,1.04503
123.098,35.90775,0.12336,-0.03747622,1.04486
123.698,36.10472,0.12348,-0.0375001,1.04469
124.298,36.30166,0.12264,-0.03880818,1.04452
124.898,36.49981,0.12387,-0.03816552,1.04435
125.498,36.69815,0.12312,-0.03686497,1.04418
126.098,36.89646,0.12435,-0.03816999,1.04401
126.698,37.09367,0.12429,-0.03817,1.04384
127.298,37.29144,0.12169,-0.03766731,1.04367
127.898,37.48953,0.12397,-0.03683048,1.0435
128.498,37.6879,0.1208,-0.03740778,1.04333
129.098,37.8864,0.12666,-0.03881901,1.04316
129.698,38.08316,0.1266,-0.03849222,1.04299
130.298,38.28,0.1282,-0.03882,1.04282
130.898,38.47738,0.12499,-0.0384962,1.04264
131.498,38.67484,0.12705,-0.03916972,1.04247
132.098,38.87319,0.12549,-0.03787142,1.0423
132.698,39.07023,0.1263,-0.03883,1.04213
133.298,39.26758,0.12721,-0.03751134,1.04195
133.898,39.46501,0.12839,-0.03878963,1.04178
134.498,39.66247,0.13101,-0.03950826,1.04161
135.098,39.85933,0.13,-0.0381613,1.04143
135.698,40.0556,0.13109,-0.0374991,1.04126
136.298,40.25222,0.13409,-0.03849048,1.04108
136.898,40.4493,0.1332,-0.03848549,1.04091
137.498,40.64562,0.13323,-0.04045756,1.04073
138.098,40.84259,0.13777,-0.03948268,1.04056
138.698,41.0392,0.13649,-0.03980994,1.04038
139.298,41.23539,0.13839,-0.03849979,1.04021
139.898,41.43156,0.13954,-0.03980887,1.04003
140.498,41.6271,0.14077,-0.04079034,1.03985
141.098,41.824,0.14331,-0.04014126,1.03968
141.698,42.02175,0.14126,-0.04087279,1.0395
142.298,42.21983,0.14257,-0.03947515,1.03932
142.898,42.41746,0.14442,-0.0408,1.03915
143.498,42.6152,0.1453,-0.0408004,1.03897
144.098,42.81239,0.14985,-0.0410264,1.03879
144.698,43.00956,0.14911,-0.04212787,1.03861
145.298,43.20711,0.15044,-0.0408,1.03843
145.898,43.40416,0.1539,-0.04084342,1.03825
146.498,43.60212,0.15591,-0.04027951,1.03807
147.098,43.79907,0.16083,-0.04112,1.03789
147.698,43.9958,0.16217,-0.04111985,1.03771
148.298,44.19182,0.16688,-0.04114915,1.03753
148.898,44.38747,0.17012,-0.04178728,1.03735
149.498,44.58286,0.17331,-0.03946949,1.03717
150.098,44.7785,0.17701,-0.0407537,1.03699
150.698,44.97395,0.18349,-0.04077282,1.03681
151.298,45.16983,0.18513,-0.0414624,1.03663
151.898,45.36555,0.19227,-0.04145306,1.03645
152.498,45.56238,0.1972,-0.04144794,1.03626
153.098,45.75906,0.1995,-0.04137904,1.03608
153.698,45.95578,0.20576,-0.04214792,1.0359
154.298,46.1528,0.21464,-0.04211,1.03571
154.898,46.34943,0.22336,-0.04079225,1.03553
155.498,46.54757,0.23282,-0.04079878,1.03535
156.098,46.74514,0.23965,-0.04274931,1.03516
156.698,46.94267,0.25323,-0.04277549,1.03498
157.298,47.1404,0.26563,-0.0420527,1.03479
157.898,47.3369,0.27912,-0.04204213,1.03461
158.498,47.53458,0.29476,-0.0430779,1.03442
159.098,47.73144,0.31663,-0.04309136,1.03424
159.698,47.92814,0.33876,-0.04309092,1.03405
160.298,48.12477,0.36055,-0.0444225,1.03386
160.898,48.32182,0.38462,-0.04167075,1.03368
161.498,48.51919,0.41007,-0.04311035,1.03349
162.098,48.71706,0.43639,-0.04310105,1.0333
162.698,48.91492,0.46392,-0.04309999,1.03311
163.298,49.11323,0.48712,-0.04440999,1.03293
163.898,49.31178,0.51308,-0.04440916,1.03274
164.498,49.5095,0.53612,-0.04437408,1.03255
165.098,49.70677,0.55439,-0.04473942,1.03236
165.698,49.9039,0.57062,-0.04442,1.03217
166.298,50.10002,0.57176,-0.04442004,1.03198
166.898,50.29603,0.56514,-0.04480128,1.03179
167.498,50.49159,0.53629,-0.04408936,1.0316
168.098,50.68687,0.49227,-0.04475478,1.03141
168.698,50.88172,0.42368,-0.04474865,1.03122
169.298,51.076,0.33872,-0.04441206,1.03103
169.898,51.26878,0.2617,-0.04440789,1.03083
170.498,51.4611,0.21121,-0.04574995,1.03064
171.098,51.65318,0.17962,-0.04442065,1.03045
171.698,51.84602,0.16325,-0.04510018,1.03026
172.298,52.03886,0.15483,-0.04593971,1.03006
172.898,52.23165,0.15177,-0.04539692,1.02987
173.498,52.4253,0.14972,-0.04547007,1.02968
174.098,52.61909,0.14984,-0.04602987,1.02948
174.698,52.81354,0.14866,-0.04517499,1.02929
175.298,53.0086,0.14654,-0.04507019,1.02909
175.898,53.2039,0.14777,-0.04502062,1.0289
176.498,53.39898,0.14727,-0.04507,1.0287
177.098,53.59385,0.14788,-0.04375994,1.02851
177.698,53.788,0.1492,-0.04572416,1.02831
178.298,53.98235,0.1486,-0.04475333,1.02811
178.898,54.1764,0.15026,-0.04332605,1.02792
179.498,54.37105,0.1488,-0.04442138,1.02772
180.098,54.56585,0.14832,-0.04475,1.02752
180.698,54.7616,0.14874,-0.04574142,1.02733
181.298,54.95769,0.14925,-0.04573956,1.02713
181.898,55.15348,0.14925,-0.04569488,1.02693
182.498,55.34941,0.14717,-0.04541038,1.02673
183.098,55.5455,0.14718,-0.04507117,1.02653
183.698,55.7413,0.14682,-0.0449328,1.02633
184.298,55.93731,0.14723,-0.04432638,1.02613
184.898,56.1328,0.14726,-0.04539999,1.02593
185.498,56.32781,0.14708,-0.04671989,1.02573
186.098,56.52264,0.147,-0.04672,1.02553
186.698,56.71765,0.14811,-0.04672,1.02533
187.298,56.9125,0.1487,-0.04605203,1.02512
187.898,57.108,0.14712,-0.04672047,1.02492
188.498,57.3033,0.14631,-0.04669459,1.02472
189.098,57.49918,0.14821,-0.04639,1.02452
189.698,57.6959,0.14815,-0.04639001,1.02431
190.298,57.89218,0.15031,-0.04771081,1.02411
190.898,58.0885,0.14909,-0.0473793,1.02391
191.498,58.28425,0.14963,-0.04738176,1.0237
192.098,58.47973,0.15087,-0.04868988,1.0235
192.698,58.6745,0.14977,-0.04802999,1.02329
193.298,58.8691,0.15023,-0.04830139,1.02309
193.898,59.0636,0.14866,-0.04733762,1.02288
194.498,59.2577,0.14892,-0.04767439,1.02267
195.098,59.452,0.14828,-0.04766268,1.02247
195.698,59.64635,0.14796,-0.04771001,1.02226
196.298,59.84104,0.1475,-0.04903019,1.02205
196.898,60.0357,0.14606,-0.04970076,1.02184
197.498,60.23036,0.14721,-0.04937126,1.02164
198.098,60.42547,0.14518,-0.04869982,1.02143
198.698,60.6214,0.14512,-0.04902989,1.02122
199.298,60.81734,0.14611,-0.04938089,1.02101
199.898,61.01279,0.14573,-0.04968161,1.0208
200.498,61.208,0.14747,-0.05001003,1.02059
201.098,61.4029,0.1501,-0.05099822,1.02038
201.698,61.59751,0.15219,-0.051,1.02017
202.298,61.7918,0.15186,-0.05066781,1.01996
202.898,61.9861,0.15271,-0.05049188,1.01974
203.498,62.1801,0.15269,-0.05100188,1.01953
204.098,62.375,0.1523,-0.05036782,1.01932
204.698,62.5693,0.15291,-0.05134049,1.01911
205.298,62.76405,0.15277,-0.05008346,1.01889
205.898,62.95835,0.15335,-0.05133002,1.01868
206.498,63.1531,0.1547,-0.05133358,1.01847
207.098,63.34825,0.15248,-0.05066015,1.01825
207.698,63.54416,0.15185,-0.05096466,1.01804
208.298,63.74006,0.15134,-0.05064266,1.01782
208.898,63.9355,0.15185,-0.05066932,1.0176
209.498,64.13104,0.14924,-0.05199566,1.01739
210.098,64.32601,0.15253,-0.04955266,1.01717
210.698,64.52079,0.15199,-0.05103004,1.01696
211.298,64.7162,0.15228,-0.05067,1.01674
211.898,64.91145,0.15149,-0.05120241,1.01652
212.498,65.10687,0.15221,-0.05128152,1.0163
213.098,65.30317,0.15023,-0.05133001,1.01608
213.698,65.49945,0.14799,-0.05263796,1.01587
214.298,65.69662,0.14983,-0.05198928,1.01565
214.898,65.89371,0.14976,-0.05330151,1.01543
215.498,66.09052,0.14911,-0.0529825,1.01521
216.098,66.28671,0.15198,-0.05465595,1.01499
216.698,66.48218,0.1544,-0.05363002,1.01476
217.298,66.67625,0.15403,-0.05363073,1.01454
217.898,66.8695,0.15623,-0.05361377,1.01432
218.498,67.0629,0.15629,-0.05362985,1.0141
219.098,67.25618,0.15759,-0.05467917,1.01388
219.698,67.45049,0.15394,-0.05453799,1.01365
220.298,67.6456,0.15506,-0.05660983,1.01343
220.898,67.8412,0.15184,-0.05395663,1.01321
221.498,68.0368,0.15181,-0.05491428,1.01298
222.098,68.2324,0.15379,-0.05560992,1.01276
222.698,68.4268,0.15258,-0.05464928,1.01253
223.298,68.62096,0.15217,-0.05462001,1.01231
223.898,68.81526,0.15633,-0.05525135,1.01208
224.498,69.00878,0.15607,-0.05465083,1.01185
225.098,69.20264,0.15343,-0.05497326,1.01163
225.698,69.3966,0.15197,-0.05658727,1.0114
226.298,69.59135,0.15577,-0.05593019,1.01117
226.898,69.78599,0.15101,-0.05724984,1.01094
227.498,69.9799,0.15182,-0.05725022,1.01072
228.098,70.17517,0.15166,-0.05824056,1.01049
228.698,70.37037,0.15301,-0.05724997,1.01026
229.298,70.5661,0.15086,-0.05855992,1.01003
229.898,70.76171,0.15009,-0.05776186,1.0098
230.498,70.9562,0.15143,-0.05790002,1.00957
231.098,71.15084,0.15126,-0.05942858,1.00934
231.698,71.3457,0.15051,-0.05664116,1.0091
232.298,71.5405,0.15318,-0.05767826,1.00887
232.898,71.73629,0.15345,-0.05636355,1.00864
233.498,71.93046,0.15396,-0.05636971,1.00841
234.098,72.1254,0.15438,-0.05769002,1.00817
234.698,72.32085,0.15473,-0.05568813,1.00794
235.298,72.51634,0.15453,-0.05670583,1.00771
235.898,72.71209,0.154,-0.05563045,1.00747
236.498,72.90775,0.15329,-0.05537946,1.00724
237.098,73.10249,0.15416,-0.05566122,1.007
237.698,73.29767,0.15194,-0.05671699,1.00676
238.298,73.4927,0.15541,-0.05669675,1.00653
238.898,73.68773,0.15377,-0.05828816,1.00629
239.498,73.8826,0.15371,-0.05757992,1.00605
240.098,74.07755,0.15288,-0.0589,1.00582
240.698,74.27283,0.15153,-0.0589,1.00558
241.298,74.4678,0.15159,-0.05953449,1.00534
241.898,74.66337,0.15529,-0.05900054,1.0051
242.498,74.85856,0.15521,-0.05983574,1.00486
243.098,75.05411,0.15458,-0.0585954,1.00462
243.698,75.24962,0.15547,-0.05857,1.00438
244.298,75.4448,0.1572,-0.05956232,1.00414
244.898,75.6383,0.15837,-0.05956001,1.0039
245.498,75.83319,0.15702,-0.0608698,1.00366
246.098,76.02792,0.15715,-0.05824253,1.00341
246.698,76.22318,0.15742,-0.06024477,1.00317
247.298,76.41798,0.15811,-0.05923724,1.00293
247.898,76.61179,0.15908,-0.06119271,1.00268
248.498,76.80509,0.15875,-0.06021002,1.00244
249.098,76.9984,0.16411,-0.06152426,1.00219
249.698,77.1922,0.16093,-0.06191431,1.00195
250.298,77.3862,0.16261,-0.06126845,1.0017
250.898,77.5813,0.15977,-0.05988,1.00146
251.498,77.77691,0.1609,-0.05987631,1.00121
252.098,77.9732,0.15925,-0.06122193,1.00096
252.698,78.16935,0.15892,-0.06120154,1.00072
253.298,78.36578,0.15698,-0.06152001,1.00047
253.898,78.56145,0.15936,-0.06188759,1.00022
254.498,78.75735,0.15981,-0.06171337,0.99997
255.098,78.95255,0.16242,-0.0631706,0.99972
255.698,79.14732,0.15921,-0.06317401,0.99947
256.298,79.34193,0.16138,-0.06219,0.99922
256.898,79.53655,0.15891,-0.06251766,0.99897
257.498,79.73144,0.1617,-0.06252393,0.99872
258.098,79.92664,0.16107,-0.062519,0.99847
258.698,80.12161,0.16272,-0.06255445,0.99822
259.298,80.3164,0.16232,-0.06183464,0.99796
259.898,80.51075,0.16131,-0.06045541,0.99771
260.498,80.7049,0.16404,-0.06447601,0.99746
261.098,80.89922,0.16123,-0.06251287,0.9972
261.698,81.0938,0.16248,-0.06251938,0.99695
262.298,81.28936,0.16021,-0.06250507,0.99669
262.898,81.48576,0.15784,-0.06316856,0.99644
263.498,81.6827,0.15841,-0.06250169,0.99618
264.098,81.87904,0.16309,-0.06350287,0.99593
264.698,82.07417,0.16152,-0.06422673,0.99567
265.298,82.26875,0.16454,-0.062943,0.99541
265.898,82.4631,0.16599,-0.06486026,0.99515
266.498,82.65739,0.16295,-0.06548604,0.9949
267.098,82.85234,0.16617,-0.06416006,0.99464
267.698,83.04763,0.16442,-0.06646397,0.99438
268.298,83.24315,0.16359,-0.06483712,0.99412
268.898,83.4389,0.16285,-0.06646363,0.99386
269.498,83.6347,0.16266,-0.06552589,0.9936
270.098,83.83062,0.16233,-0.0658,0.99333
270.698,84.02643,0.16535,-0.06508862,0.99307
271.298,84.22108,0.16315,-0.06513919,0.99281
271.898,84.41606,0.16387,-0.06548016,0.99255
272.498,84.61022,0.1645,-0.06656741,0.99228
273.098,84.80544,0.16644,-0.06680011,0.99202
273.698,85.00066,0.16171,-0.06580078,0.99176
274.298,85.19586,0.16242,-0.06613535,0.99149
274.898,85.39099,0.16331,-0.06745093,0.99123
275.498,85.5856,0.16296,-0.06745255,0.99096
276.098,85.7796,0.16588,-0.06778102,0.99069
276.698,85.97338,0.16693,-0.06645999,0.99043
277.298,86.16707,0.16891,-0.06649071,0.99016
277.898,86.36104,0.17001,-0.06711957,0.98989
278.498,86.55509,0.16808,-0.06711998,0.98962
279.098,86.74797,0.16979,-0.06777983,0.98935
279.698,86.942,0.16723,-0.06778,0.98909
280.298,87.13632,0.16539,-0.06761989,0.98882
280.898,87.3318,0.16608,-0.06744169,0.98854
281.498,87.52718,0.16704,-0.06764046,0.98827
282.098,87.7223,0.16713,-0.0680566,0.988
282.698,87.91789,0.16311,-0.06877,0.98773
283.298,88.1138,0.16103,-0.06749419,0.98746
283.898,88.31013,0.16376,-0.06897294,0.98719
284.498,88.50581,0.16363,-0.06975,0.98691
285.098,88.70169,0.16411,-0.06978046,0.98664
285.698,88.8963,0.16726,-0.06974014,0.98636
286.298,89.09131,0.16619,-0.06861589,0.98609
286.898,89.28575,0.16546,-0.06877,0.98581
287.498,89.48055,0.16566,-0.06808814,0.98554
288.098,89.67582,0.16513,-0.0662286,0.98526
288.698,89.87103,0.16392,-0.06730794,0.98498
289.298,90.0668,0.16273,-0.06843261,0.98471
289.898,90.2623,0.16588,-0.06811056,0.98443
290.498,90.4576,0.16655,-0.06834838,0.98415
291.098,90.65247,0.16607,-0.06907166,0.98387
291.698,90.84682,0.1661,-0.06812025,0.98359
292.298,91.04143,0.16837,-0.06876964,0.98331
292.898,91.2362,0.16681,-0.06943002,0.98303
293.498,91.43163,0.16738,-0.0684734,0.98275
294.098,91.62796,0.16639,-0.0686118,0.98247
294.698,91.82315,0.16503,-0.06916368,0.98218
295.298,92.0183,0.16428,-0.06876874,0.9819
295.898,92.21355,0.16651,-0.07038589,0.98162
296.498,92.40852,0.16884,-0.0690375,0.98133
297.098,92.604,0.16911,-0.07026516,0.98105
297.698,92.7992,0.16962,-0.07173404,0.98077
298.298,92.99444,0.16924,-0.07007967,0.98048
298.898,93.18828,0.16793,-0.07041,0.98019
299.498,93.3837,0.16788,-0.07140044,0.97991
300.098,93.57907,0.16823,-0.0726275,0.97962
300.698,93.7752,0.16736,-0.07271,0.97933
301.298,93.97278,0.16847,-0.07266703,0.97904
301.898,94.17022,0.16658,-0.07410482,0.97876
302.498,94.36833,0.16744,-0.07403663,0.97847
303.098,94.56599,0.16779,-0.07303997,0.97818
303.698,94.7628,0.16833,-0.0717336,0.97789
304.298,94.95897,0.17142,-0.07383726,0.9776
304.898,95.15439,0.17187,-0.07304013,0.9773
305.498,95.34946,0.17372,-0.07303992,0.97701
306.098,95.5449,0.17267,-0.07302054,0.97672
306.698,95.73988,0.17184,-0.07319754,0.97643
307.298,95.93555,0.17119,-0.07239176,0.97613
307.898,96.13027,0.17061,-0.07271041,0.97584
308.498,96.32539,0.17203,-0.07436034,0.97555
309.098,96.5204,0.17164,-0.07566061,0.97525
309.698,96.7158,0.1714,-0.07601,0.97495
310.298,96.91171,0.17146,-0.07457358,0.97466
310.898,97.1078,0.16924,-0.07627718,0.97436
311.498,97.3037,0.1686,-0.07863646,0.97406
312.098,97.50031,0.16954,-0.07732033,0.97377
312.698,97.6969,0.16828,-0.08002765,0.97347
313.298,97.89327,0.16982,-0.07863998,0.97317
313.898,98.0894,0.1698,-0.07868053,0.97287
314.498,98.2848,0.1719,-0.07732451,0.97257
315.098,98.4795,0.17183,-0.07996002,0.97227
315.698,98.67394,0.17521,-0.07962978,0.97197
316.298,98.8685,0.17449,-0.08094051,0.97167
316.898,99.06296,0.17399,-0.08094,0.97136
317.498,99.25791,0.17385,-0.07969323,0.97106
318.098,99.4529,0.17424,-0.08159999,0.97076
318.698,99.64902,0.17123,-0.08095065,0.97045
319.298,99.84501,0.17437,-0.08194688,0.97015
319.898,100.041,0.17043,-0.08258063,0.96984
320.498,100.236,0.176,-0.08390103,0.96954
321.098,100.432,0.17561,-0.08389998,0.96923
321.698,100.627,0.17393,-0.08257985,0.96893
322.298,100.823,0.1743,-0.08259089,0.96862
322.898,101.02,0.17065,-0.08426619,0.96831
323.498,101.217,0.17317,-0.08221863,0.968
324.098,101.414,0.17339,-0.08226147,0.96769
324.698,101.61,0.17501,-0.08095005,0.96738
325.298,101.805,0.17592,-0.08095,0.96707
325.898,102.001,0.17456,-0.07962648,0.96676
326.498,102.196,0.17945,-0.08095001,0.96645
327.098,102.392,0.17679,-0.08095,0.96614
327.698,102.587,0.17591,-0.08095,0.96583
328.298,102.783,0.175,-0.08095006,0.96552
328.898,102.978,0.17566,-0.08226471,0.9652
329.498,103.174,0.17463,-0.08160009,0.96489
330.098,103.37,0.17567,-0.08291878,0.96457
330.698,103.566,0.17484,-0.08489006,0.96426
331.298,103.763,0.17658,-0.08438084,0.96394
331.898,103.959,0.17431,-0.08585914,0.96363
332.498,104.157,0.1718,-0.08620179,0.96331
333.098,104.354,0.17384,-0.08717077,0.96299
333.698,104.551,0.17444,-0.08752002,0.96268
334.298,104.75,0.17398,-0.08884018,0.96236
334.898,104.947,0.17409,-0.08949557,0.96204
335.498,105.145,0.17596,-0.0908089,0.96172
336.098,105.341,0.17764,-0.0907443,0.9614
336.698,105.537,0.18085,-0.09080988,0.96108
337.298,105.732,0.17858,-0.09212986,0.96076
337.898,105.927,0.17997,-0.09212799,0.96043
338.498,106.122,0.17713,-0.09124927,0.96011
339.098,106.316,0.18128,-0.09213,0.95979
339.698,106.51,0.18064,-0.09441001,0.95946
340.298,106.706,0.18045,-0.09458182,0.95914
340.898,106.902,0.17987,-0.09536859,0.95882
341.498,107.099,0.17805,-0.09673066,0.95849
342.098,107.295,0.17782,-0.0957459,0.95816
342.698,107.492,0.17624,-0.09775531,0.95784
343.298,107.689,0.17836,-0.09739011,0.95751
343.898,107.888,0.1786,-0.09871004,0.95718
344.498,108.085,0.17511,-0.09870981,0.95685
345.098,108.283,0.17683,-0.09969983,0.95653
345.698,108.481,0.17821,-0.10168,0.9562
346.298,108.679,0.17892,-0.10195,0.95587
346.898,108.876,0.17866,-0.10266,0.95554
347.498,109.072,0.18154,-0.10268,0.9552
348.098,109.2686,0.18671,-0.10399,0.95487
348.698,109.465,0.18092,-0.10529,0.95454
349.298,109.662,0.18185,-0.10661,0.95421
349.898,109.859,0.18426,-0.10796,0.95387
350.498,110.056,0.18323,-0.1066,0.95354
351.098,110.253,0.18456,-0.10891,0.95321
351.698,110.4497,0.18373,-0.10894,0.95287
352.298,110.646,0.18388,-0.11051,0.95253
352.898,110.843,0.18432,-0.1105,0.9522
353.498,111.038,0.18632,-0.113,0.95186
354.098,111.234,0.18948,-0.11352,0.95152
354.698,111.43,0.1888,-0.11385,0.95119
355.298,111.625,0.18979,-0.11516,0.95085
355.898,111.821,0.19094,-0.11779,0.95051
356.498,112.017,0.19105,-0.11817,0.95017
357.098,112.213,0.18905,-0.11936,0.94983
357.698,112.41,0.18691,-0.11944,0.94949
358.298,112.606,0.18902,-0.11932,0.94914
358.898,112.803,0.18764,-0.12207,0.9488
359.498,112.999,0.18852,-0.12361,0.94846
360.098,113.197,0.18707,-0.12361,0.94812
360.698,113.394,0.18868,-0.1246,0.94777
361.298,113.592,0.18943,-0.12394,0.94743
361.898,113.79,0.1887,-0.12714,0.94708
362.498,113.9872,0.18892,-0.12855,0.94674
363.098,114.185,0.18931,-0.13058,0.94639
363.698,114.381,0.19113,-0.13184,0.94604
364.298,114.578,0.1893,-0.13381,0.94569
364.898,114.774,0.19059,-0.13347,0.94535
365.498,114.97,0.19189,-0.13513,0.945
366.098,115.165,0.19112,-0.13775,0.94465
366.698,115.361,0.19198,-0.13778,0.9443
367.298,115.5576,0.19055,-0.14032,0.94395
367.898,115.755,0.19068,-0.14137,0.9436
368.498,115.952,0.18872,-0.14165,0.94324
369.098,116.149,0.18887,-0.14434,0.94289
369.698,116.348,0.1912,-0.14565,0.94254
370.298,116.546,0.1882,-0.14827,0.94218
370.898,116.744,0.18774,-0.14894,0.94183
371.498,116.942,0.19104,-0.15158,0.94148
372.098,117.14,0.18931,-0.15145,0.94112
372.698,117.338,0.19016,-0.15531,0.94076
373.298,117.535,0.1914,-0.1552,0.94041
373.898,117.732,0.19389,-0.1575,0.94005
374.498,117.9284,0.19465,-0.16012,0.93969
375.098,118.125,0.19458,-0.16145,0.93933
375.698,118.321,0.19093,-0.1618,0.93897
376.298,118.519,0.19351,-0.16439,0.93862
376.898,118.716,0.19257,-0.16573,0.93826
377.498,118.913,0.19064,-0.16834,0.93789
378.098,119.111,0.19161,-0.16999,0.93753
378.698,119.308,0.19308,-0.17247,0.93717
379.298,119.505,0.19288,-0.17434,0.93681
379.898,119.703,0.19141,-0.17739,0.93644
380.498,119.9,0.19438,-0.18021,0.93608
381.098,120.096,0.1956,-0.17909,0.93572
381.698,120.293,0.19728,-0.1827,0.93535
382.298,120.491,0.19514,-0.18386,0.93499
382.898,120.689,0.19422,-0.18745,0.93462
383.498,120.887,0.19518,-0.19162,0.93425
384.098,121.085,0.19674,-0.19305,0.93388
384.698,121.284,0.19637,-0.196,0.93352
385.298,121.483,0.19969,-0.19994,0.93315
385.898,121.681,0.2002,-0.20259,0.93278
386.498,121.88,0.20221,-0.20602,0.93241
387.098,122.077,0.20299,-0.20886,0.93204
387.698,122.274,0.20806,-0.21081,0.93167
388.298,122.471,0.20744,-0.21284,0.9313
388.898,122.668,0.20921,-0.21802,0.93092
389.498,122.866,0.21018,-0.22068,0.93055
390.098,123.064,0.20835,-0.22466,0.93018
390.698,123.262,0.21235,-0.22859,0.9298
391.298,123.461,0.21364,-0.23258,0.92943
391.898,123.659,0.21705,-0.2356,0.92905
392.498,123.857,0.21745,-0.23853,0.92868
393.098,124.054,0.21996,-0.24231,0.9283
393.698,124.251,0.22532,-0.24758,0.92792
394.298,124.447,0.22573,-0.25276,0.92754
394.898,124.643,0.2277,-0.25533,0.92717
395.498,124.84,0.23021,-0.26027,0.92679
396.098,125.037,0.23359,-0.26399,0.92641
396.698,125.233,0.23434,-0.27015,0.92603
397.298,125.4291,0.23838,-0.27515,0.92565
397.898,125.625,0.24369,-0.2803,0.92526
398.498,125.822,0.24428,-0.28592,0.92488
399.098,126.019,0.2437,-0.29145,0.9245
399.698,126.216,0.24725,-0.29593,0.92412
400.298,126.414,0.24763,-0.30392,0.92373
400.898,126.612,0.25354,-0.30992,0.92335
401.498,126.811,0.25664,-0.317,0.92296
402.098,127.01,0.25779,-0.32348,0.92258
402.698,127.208,0.2611,-0.33201,0.92219
403.298,127.408,0.26765,-0.34042,0.9218
403.898,127.607,0.27048,-0.34715,0.92141
404.498,127.807,0.27564,-0.35602,0.92103
405.098,128.006,0.28305,-0.36322,0.92064
405.698,128.204,0.28355,-0.37317,0.92025
406.298,128.4019,0.29262,-0.38155,0.91986
406.898,128.599,0.30032,-0.39179,0.91947
407.498,128.796,0.30182,-0.39921,0.91908
408.098,128.992,0.30838,-0.41173,0.91868
408.698,129.189,0.31336,-0.42287,0.91829
409.298,129.386,0.3207,-0.43526,0.9179
409.898,129.584,0.32315,-0.44577,0.9175
410.498,129.782,0.33229,-0.45868,0.91711
411.098,129.98,0.33791,-0.47111,0.91671
411.698,130.178,0.34701,-0.48519,0.91632
412.298,130.3759,0.35245,-0.49899,0.91592
412.898,130.574,0.36198,-0.51421,0.91552
413.498,130.771,0.36786,-0.52979,0.91513
414.098,130.968,0.37628,-0.54731,0.91473
414.698,131.164,0.38783,-0.56404,0.91433
415.298,131.3599,0.39856,-0.58286,0.91393
415.898,131.556,0.40571,-0.60129,0.91353
416.498,131.753,0.41713,-0.6198,0.91313
417.098,131.95,0.42902,-0.64254,0.91273
417.698,132.149,0.43438,-0.66341,0.91233
418.298,132.347,0.45097,-0.68648,0.91192
418.898,132.546,0.46221,-0.71257,0.91152
419.498,132.745,0.47307,-0.73845,0.91112
420.098,132.944,0.48274,-0.76849,0.91071
420.698,133.142,0.50804,-0.79882,0.91031
421.298,133.341,0.49208,-0.8296,0.9099
421.898,133.54,0.49864,-0.86008,0.90949
422.498,133.739,0.51167,-0.89292,0.90909
423.098,133.939,0.52451,-0.92582,0.90868
423.698,134.1387,0.53621,-0.95942,0.90827
424.298,134.338,0.55182,-0.99533,0.90786
424.898,134.537,0.5632,-1.03427,0.90745
425.498,134.736,0.58026,-1.07175,0.90704
426.098,134.936,0.5897,-1.11608,0.90663
426.698,135.136,0.60903,-1.15838,0.90622
427.298,135.335,0.62427,-1.20392,0.90581
427.898,135.535,0.63269,-1.25239,0.9054
428.498,135.734,0.65066,-1.30054,0.90498
429.098,135.933,0.66248,-1.35183,0.90457
429.698,136.131,0.6766,-1.40344,0.90416
430.298,136.329,0.69302,-1.45836,0.90374
430.898,136.527,0.70757,-1.51248,0.90333
431.498,136.725,0.71841,-1.57189,0.90291
432.098,136.923,0.73429,-1.63363,0.90249
432.698,137.122,0.74244,-1.69708,0.90208
433.298,137.322,0.754,-1.76078,0.90166
433.898,137.522,0.75918,-1.82793,0.90124
434.498,137.721,0.7702,-1.89771,0.90082
435.098,137.92,0.77898,-1.96927,0.9004
435.698,138.118,0.78094,-2.04365,0.89998
436.298,138.317,0.78484,-2.11641,0.89956
436.898,138.515,0.78835,-2.19431,0.89914
437.498,138.714,0.78956,-2.27065,0.89871
438.098,138.912,0.78605,-2.34894,0.89829
438.698,139.11,0.78319,-2.42813,0.89787
439.298,139.308,0.77966,-2.50903,0.89744
439.898,139.507,0.77275,-2.59103,0.89702
440.498,139.706,0.76096,-2.67215,0.89659
441.098,139.9065,0.74711,-2.75449,0.89616
441.698,140.106,0.73396,-2.83464,0.89574
442.298,140.304,0.71545,-2.91572,0.89531
442.898,140.502,0.69431,-2.99684,0.89488
443.498,140.7,0.67233,-3.0744,0.89445
444.098,140.898,0.64796,-3.15179,0.89402
444.698,141.0953,0.61931,-3.22526,0.89359
445.298,141.293,0.59358,-3.29735,0.89316
445.898,141.49,0.56363,-3.36769,0.89273
446.498,141.686,0.53101,-3.43577,0.8923
447.098,141.883,0.49773,-3.49902,0.89187
447.698,142.08,0.46634,-3.55935,0.89144
448.298,142.276,0.42934,-3.61508,0.891
448.898,142.474,0.39515,-3.66988,0.89057
449.498,142.6718,0.35704,-3.71995,0.89013
450.098,142.871,0.32436,-3.76721,0.8897
450.698,143.07,0.28877,-3.80979,0.88926
451.298,143.2697,0.25419,-3.84969,0.88882
451.898,143.469,0.22539,-3.8841,0.88839
452.498,143.667,0.19559,-3.91445,0.88795
453.098,143.864,0.16998,-3.94265,0.88751
453.698,144.061,0.14627,-3.96555,0.88707
454.298,144.258,0.12477,-3.98877,0.88663
454.898,144.454,0.10584,-4.00695,0.88619
455.498,144.652,0.08891029,-4.02173,0.88575
456.098,144.85,0.07636821,-4.0388,0.88531
456.698,145.048,0.06415658,-4.05051,0.88486
457.298,145.2466,0.05557966,-4.06111,0.88442
457.898,145.445,0.04573242,-4.06989,0.88398
458.498,145.643,0.03699303,-4.07696,0.88353
459.098,145.842,0.02982973,-4.08597,0.88309
459.698,146.0414,0.02336212,-4.09049,0.88264
460.298,146.241,0.01888763,-4.09604,0.8822
460.898,146.442,0.01431926,-4.10212,0.88175
461.498,146.642,0.008835768,-4.1044,0.8813
462.098,146.841,0.00612408,-4.1076,0.88086
462.698,147.041,0.000755532,-4.11207,0.88041
463.298,147.239,-0.00178008,-4.11279,0.87996
463.898,147.438,-0.005802365,-4.11512,0.87951
464.498,147.6369,-0.004973086,-4.11739,0.87906
465.098,147.835,-0.00682253,-4.11915,0.87861
465.698,148.034,-0.004252568,-4.12046,0.87815
466.298,148.232,-0.008261844,-4.12045,0.8777
466.898,148.43,-0.008373986,-4.12178,0.87725
467.498,148.629,-0.006401154,-4.12178,0.8768
468.098,148.827,-0.004558668,-4.12086,0.87634
468.698,149.0257,0.008185141,-4.12079,0.87589
469.298,149.225,-0.00584295,-4.12079,0.87543
469.898,149.425,-0.01105363,-4.12082,0.87498
470.498,149.623,-0.01253701,-4.12112,0.87452
471.098,149.8213,-0.008764651,-4.12013,0.87406
471.698,150.0198,-0.00909369,-4.12145,0.8736
472.298,150.219,-0.00907193,-4.12013,0.87314
472.898,150.418,-0.01084019,-4.12145,0.87269
473.498,150.618,-0.01136779,-4.12106,0.87223
474.098,150.819,-0.01079568,-4.12155,0.87177
474.698,151.019,-0.01136365,-4.12274,0.8713
475.298,151.219,-0.01272094,-4.12194,0.87084
475.898,151.419,-0.01669564,-4.12142,0.87038
476.498,151.618,-0.01864057,-4.12211,0.86992
477.098,151.818,-0.02031004,-4.12145,0.86945
477.698,152.019,-0.0180528,-4.1202,0.86899
478.298,152.218,-0.0183402,-4.12145,0.86853
478.898,152.418,-0.02271445,-4.12145,0.86806
479.498,152.616,-0.01805555,-4.12145,0.86759
480.098,152.814,-0.01743507,-4.12081,0.86713
480.698,153.012,-0.01814535,-4.12144,0.86666
481.298,153.21,-0.01823009,-4.1224,0.86619
481.898,153.409,-0.01563264,-4.12138,0.86573
482.498,153.608,-0.01695766,-4.12132,0.86526
483.098,153.807,-0.01385726,-4.12145,0.86479
483.698,154.007,-0.01578288,-4.11872,0.86432
484.298,154.207,-0.01471552,-4.12013,0.86385
484.898,154.407,-0.01582424,-4.1192,0.86337
485.498,154.607,-0.01373271,-4.12112,0.8629
486.098,154.807,-0.01542072,-4.11967,0.86243
486.698,155.008,-0.01271041,-4.12112,0.86196
487.298,155.208,-0.0153157,-4.11981,0.86148
487.898,155.407,-0.01702675,-4.12112,0.86101
488.498,155.607,-0.0130752,-4.11982,0.86053
489.098,155.807,-0.01420178,-4.11967,0.86006
489.698,156.008,-0.01345372,-4.12015,0.85958
490.298,156.209,-0.0150215,-4.11981,0.8591
490.898,156.41,-0.01331485,-4.12144,0.85863
491.498,156.611,-0.01561262,-4.12013,0.85815
492.098,156.812,-0.01150311,-4.12111,0.85767
492.698,157.012,-0.01288569,-4.12025,0.85719
493.298,157.212,-0.01545944,-4.12157,0.85671
493.898,157.413,-0.0117783,-4.1209,0.85623
494.498,157.613,-0.01414114,-4.1209,0.85575
495.098,157.812,-0.01431784,-4.1209,0.85527
495.698,158.01,-0.01573495,-4.1209,0.85478
496.298,158.209,-0.0131326,-4.12101,0.8543
496.898,158.408,-0.01218899,-4.12221,0.85382
497.498,158.608,-0.009766003,-4.12219,0.85333
498.098,158.808,-0.0125659,-4.12352,0.85285
498.698,159.007,-0.01068149,-4.12186,0.85236
499.298,159.206,-0.009911015,-4.12245,0.85188
499.898,159.405,-0.01079569,-4.12054,0.85139
500.498,159.604,-0.01119094,-4.1219,0.8509
501.098,159.8039,-0.007492923,-4.1209,0.85042
501.698,160.004,-0.008334566,-4.1209,0.84993
502.298,160.204,-0.0084913,-4.12221,0.84944
502.898,160.404,-0.00796023,-4.12287,0.84895
503.498,160.603,-0.00769543,-4.12092,0.84846
504.098,160.802,-0.00889296,-4.12221,0.84797
504.698,161,-0.005122784,-4.12223,0.84748
505.298,161.199,-0.008347397,-4.12123,0.84698
505.898,161.399,-0.008378043,-4.12287,0.84649
506.498,161.6,-0.00929212,-4.12287,0.846
507.098,161.8,-0.007100315,-4.12156,0.8455
507.698,162.001,-0.008791758,-4.12254,0.84501
508.298,162.201,-0.00786348,-4.11992,0.84451
508.898,162.401,-0.007169856,-4.12254,0.84402
509.498,162.601,-0.004110598,-4.12123,0.84352
510.098,162.801,-0.002051019,-4.12188,0.84303
510.698,163,-0.00534234,-4.12188,0.84253
511.298,163.199,-0.00370686,-4.1209,0.84203
511.898,163.398,-0.003678056,-4.1209,0.84153
512.498,163.597,-0.000831315,-4.1209,0.84103
513.098,163.798,-0.000833505,-4.1209,0.84053
513.698,163.999,-0.003272375,-4.12154,0.84003
514.298,164.199,-0.002217976,-4.12189,0.83953
514.898,164.399,-0.000635976,-4.12057,0.83903
515.498,164.599,-0.00203353,-4.12123,0.83853
516.098,164.799,-0.0004334778,-4.12123,0.83802
516.698,165,-0.0028444,-4.12123,0.83752
517.298,165.201,0.001786205,-4.12221,0.83702
517.898,165.403,0.00353055,-4.12221,0.83651
518.498,165.605,0.002835779,-4.12258,0.83601
519.098,165.806,0.001769843,-4.12321,0.8355
519.698,166.008,0.0005966804,-4.12218,0.835
520.298,166.2078,-0.00124427,-4.12287,0.83449
520.898,166.407,0.001278214,-4.1232,0.83398
521.498,166.606,0.002319038,-4.1232,0.83347
522.098,166.804,0.000835208,-4.1232,0.83296
522.698,167.004,0.002194394,-4.1232,0.83246
523.298,167.203,0.0003015386,-4.1232,0.83195
523.898,167.403,0.00283437,-4.12222,0.83143
524.498,167.603,0.00177293,-4.12077,0.83092
525.098,167.804,0.002789136,-4.12356,0.83041
525.698,168.004,0.0003730394,-4.12351,0.8299
526.298,168.204,-0.0005703862,-4.12094,0.82939
526.898,168.404,0.000882141,-4.12255,0.82887
527.498,168.6037,-0.002029173,-4.12148,0.82836
528.098,168.804,-0.000689476,-4.12024,0.82785
528.698,169.004,0.000909279,-4.1209,0.82733
529.298,169.205,0.001311881,-4.12085,0.82681
529.898,169.407,-0.0007264132,-4.12112,0.8263
530.498,169.607,-0.00101307,-4.12048,0.82578
531.098,169.809,0.0030014,-4.1217,0.82526
531.698,170.011,0.001303985,-4.12297,0.82475
532.298,170.212,-0.0004879574,-4.12185,0.82423
532.898,170.413,0.0002776341,-4.12322,0.82371
533.498,170.614,0.00185021,-4.12322,0.82319
534.098,170.814,-0.001530302,-4.1232,0.82267
534.698,171.016,-0.001128154,-4.12452,0.82215
535.298,171.218,0.001817181,-4.12255,0.82163
535.898,171.42,-0.00230293,-4.12421,0.8211
536.498,171.623,-0.001434004,-4.12289,0.82058
537.098,171.824,0.00326187,-4.12386,0.82006
537.698,172.025,0.002947837,-4.1226,0.81953
538.298,172.226,0.002944677,-4.12386,0.81901
538.898,172.425,0.005995391,-4.12516,0.81848
539.498,172.625,0.005183496,-4.12386,0.81796
540.098,172.826,0.005907464,-4.12378,0.81743
540.698,173.025,0.00791503,-4.12433,0.81691
541.298,173.225,0.004779865,-4.12386,0.81638
541.898,173.426,0.00960158,-4.12254,0.81585
542.498,173.625,0.006220586,-4.12396,0.81532
543.098,173.825,0.007766598,-4.12336,0.81479
543.698,174.025,0.00464352,-4.12362,0.81426
544.298,174.225,0.00603676,-4.12298,0.81373
544.898,174.426,0.006175262,-4.12214,0.8132
545.498,174.627,0.005204009,-4.12326,0.81267
546.098,174.827,0.007298975,-4.12287,0.81214
546.698,175.026,0.00776345,-4.12145,0.81161
547.298,175.227,0.006133555,-4.12364,0.81108
547.898,175.427,0.005277874,-4.12188,0.81054
548.498,175.628,0.00419645,-4.12333,0.81001
549.098,175.829,0.008646248,-4.12286,0.80947
549.698,176.03,0.00624373,-4.12155,0.80894
550.298,176.231,0.00869765,-4.12287,0.8084
550.898,176.431,0.007032111,-4.12024,0.80787
551.498,176.632,0.01281489,-4.12273,0.80733
552.098,176.831,0.01019533,-4.12013,0.80679
552.698,177.031,0.01128278,-4.12112,0.80625
553.298,177.23,0.009597691,-4.12112,0.80572
553.898,177.4297,0.009557956,-4.12112,0.80518
554.498,177.63,0.0106488,-4.12046,0.80464
555.098,177.83,0.01165677,-4.12112,0.8041
555.698,178.0299,0.01176688,-4.12112,0.80356
556.298,178.231,0.01173906,-4.12311,0.80302
556.898,178.431,0.00977661,-4.12079,0.80247
557.498,178.632,0.006994676,-4.12211,0.80193
558.098,178.832,0.008759577,-4.1231,0.80139
558.698,179.033,0.01027098,-4.12181,0.80084
559.298,179.234,0.01328513,-4.1231,0.8003
559.898,179.436,0.01593446,-4.12175,0.79976
560.498,179.6368,0.010187,-4.1224,0.79921
561.098,179.838,0.01141344,-4.12129,0.79867
561.698,180.039,0.01144155,-4.12112,0.79812
562.298,180.24,0.01076747,-4.12244,0.79757
562.898,180.441,0.01168447,-4.12377,0.79702
563.498,180.641,0.01316852,-4.12246,0.79648
564.098,180.841,0.01073991,-4.12343,0.79593
564.698,181.041,0.01211814,-4.12083,0.79538
565.298,181.241,0.01150745,-4.12145,0.79483
565.898,181.442,0.01096035,-4.12145,0.79428
566.498,181.644,0.0096691,-4.12086,0.79373
567.098,181.846,0.00813757,-4.1201,0.79318
567.698,182.048,0.00865051,-4.11953,0.79263
568.298,182.249,0.009694088,-4.12046,0.79207
568.898,182.45,0.01125447,-4.12046,0.79152
569.498,182.651,0.0100628,-4.12018,0.79097
570.098,182.852,0.008335796,-4.12046,0.79041
570.698,183.052,0.01421329,-4.12145,0.78986
571.298,183.253,0.01593724,-4.12164,0.78931
571.898,183.453,0.01360041,-4.12145,0.78875
572.498,183.653,0.01320816,-4.11982,0.78819
573.098,183.853,0.01074746,-4.12147,0.78764
573.698,184.055,0.01173704,-4.1208,0.78708
574.298,184.256,0.01220029,-4.12211,0.78652
574.898,184.457,0.01358669,-4.12047,0.78597
575.498,184.659,0.0098763,-4.12047,0.78541
576.098,184.859,0.01144285,-4.12047,0.78485
576.698,185.06,0.01475872,-4.12047,0.78429
577.298,185.261,0.0118126,-4.11914,0.78373
577.898,185.463,0.008508014,-4.12047,0.78317
578.498,185.665,0.01343554,-4.11915,0.78261
579.098,185.868,0.01096745,-4.11877,0.78204
579.698,186.071,0.01180393,-4.12014,0.78148
580.298,186.273,0.0137024,-4.12013,0.78092
580.898,186.476,0.01385782,-4.12146,0.78036
581.498,186.6776,0.0110631,-4.12016,0.77979
582.098,186.879,0.01216208,-4.12178,0.77923
582.698,187.08,0.01194374,-4.12047,0.77866
583.298,187.28,0.01736585,-4.12178,0.7781
583.898,187.48,0.01211285,-4.12094,0.77753
584.498,187.68,0.009281157,-4.12244,0.77696
585.098,187.881,0.01364001,-4.1214,0.7764
585.698,188.083,0.01057502,-4.12111,0.77583
586.298,188.285,0.01295339,-4.12097,0.77526
586.898,188.486,0.01413055,-4.12143,0.77469
587.498,188.687,0.01233794,-4.12013,0.77412
588.098,188.888,0.01553916,-4.12013,0.77356
588.698,189.088,0.0155395,-4.1201,0.77299
589.298,189.289,0.01742236,-4.12013,0.77241
589.898,189.491,0.01378535,-4.12016,0.77184
590.498,189.693,0.01191879,-4.12112,0.77127
591.098,189.895,0.01472658,-4.12211,0.7707
591.698,190.096,0.01395094,-4.12131,0.77013
592.298,190.297,0.01441715,-4.12154,0.76955
592.898,190.498,0.01708346,-4.12178,0.76898
593.498,190.7,0.01629549,-4.12178,0.76841
594.098,190.901,0.01291632,-4.12312,0.76783
594.698,191.103,0.01404591,-4.12176,0.76726
595.298,191.304,0.0168437,-4.12184,0.76668
595.898,191.505,0.01206749,-4.12046,0.76611
596.498,191.705,0.01116836,-4.12013,0.76553
597.098,191.907,0.01721563,-4.12012,0.76495
597.698,192.108,0.01281308,-4.12159,0.76437
598.298,192.31,0.01609019,-4.12012,0.7638
598.898,192.511,0.01350315,-4.1215,0.76322
599.498,192.712,0.01426503,-4.12151,0.76264
600.098,192.915,0.01639827,-4.12178,0.76206
600.698,193.117,0.01615679,-4.12079,0.76148
601.298,193.319,0.01244451,-4.12079,0.7609
601.898,193.52,0.0128986,-4.12079,0.76032
602.498,193.72,0.01250164,-4.12147,0.75974
603.098,193.9212,0.01557715,-4.12145,0.75915
603.698,194.122,0.01736607,-4.12079,0.75857
604.298,194.324,0.01273081,-4.12207,0.75799
604.898,194.526,0.01472824,-4.12065,0.7574
605.498,194.728,0.01857727,-4.12189,0.75682
606.098,194.929,0.01340989,-4.12152,0.75624
606.698,195.129,0.01721653,-4.12315,0.75565
607.298,195.3302,0.01676294,-4.12177,0.75507
607.898,195.531,0.01459738,-4.12203,0.75448
608.498,195.733,0.01535781,-4.12177,0.75389
609.098,195.936,0.01397736,-4.12177,0.75331
609.698,196.139,0.01207342,-4.12177,0.75272
610.298,196.341,0.01280659,-4.12315,0.75213
610.898,196.544,0.00979185,-4.12177,0.75154
611.498,196.746,0.01260938,-4.12177,0.75095
612.098,196.949,0.01040308,-4.12079,0.75037
612.698,197.152,0.01039101,-4.1208,0.74978
613.298,197.354,0.00957414,-4.12138,0.74919
613.898,197.556,0.00772426,-4.12267,0.74859
614.498,197.758,0.01101858,-4.12276,0.748
615.098,197.96,0.01100847,-4.12145,0.74741
615.698,198.162,0.01072983,-4.12209,0.74682
616.298,198.365,0.01325691,-4.1221,0.74623
616.898,198.566,0.009710718,-4.1221,0.74563
617.498,198.768,0.01162372,-4.12079,0.74504
618.098,198.9692,0.01011215,-4.12309,0.74445
618.698,199.171,0.01483565,-4.1231,0.74385
619.298,199.3737,0.01343134,-4.12181,0.74326
619.898,199.577,0.01121163,-4.12309,0.74266
620.498,199.78,0.01085596,-4.12309,0.74207
621.098,199.983,0.01396376,-4.12244,0.74147
621.698,200.186,0.009745586,-4.12244,0.74087
622.298,200.387,0.00868259,-4.12244,0.74028
622.898,200.587,0.00729606,-4.12183,0.73968
623.498,200.787,0.0112972,-4.12076,0.73908
624.098,200.985,0.008669769,-4.12209,0.73848
624.698,201.184,0.009195055,-4.12079,0.73788
625.298,201.384,0.00849142,-4.12079,0.73728
625.898,201.585,0.0103605,-4.12112,0.73668
626.498,201.788,0.005714961,-4.12211,0.73608
627.098,201.992,0.006772,-4.12078,0.73548
627.698,202.195,0.006059785,-4.12138,0.73488
628.298,202.398,0.005012942,-4.12211,0.73428
628.898,202.601,0.008476757,-4.12168,0.73368
629.498,202.803,0.0087796,-4.12013,0.73308
630.098,203.006,0.00666275,-4.12013,0.73247
630.698,203.208,0.00717396,-4.12013,0.73187
631.298,203.41,0.005401242,-4.1198,0.73127
631.898,203.613,0.007279055,-4.12034,0.73066
632.498,203.815,0.005709107,-4.12112,0.73006
633.098,204.0163,0.01037143,-4.12079,0.72945
633.698,204.218,0.00572836,-4.11948,0.72885
634.298,204.4203,0.005926904,-4.12039,0.72824
634.898,204.624,0.00657014,-4.12005,0.72763
635.498,204.827,0.006531099,-4.12042,0.72703
636.098,205.031,0.00821236,-4.12112,0.72642
636.698,205.235,0.003775067,-4.12013,0.72581
637.298,205.437,0.006657714,-4.12145,0.7252
637.898,205.64,0.00784946,-4.12173,0.72459
638.498,205.842,0.00540136,-4.1222,0.72399
639.098,206.044,0.008581362,-4.1215,0.72338
639.698,206.246,0.008581154,-4.12211,0.72277
640.298,206.447,0.006582786,-4.12346,0.72216
640.898,206.648,0.006598319,-4.12211,0.72155
641.498,206.849,0.004353776,-4.12178,0.72093
642.098,207.05,0.00316076,-4.12244,0.72032
642.698,207.252,0.00754775,-4.12247,0.71971
643.298,207.454,0.00418032,-4.1218,0.7191
643.898,207.656,0.003641212,-4.12375,0.71849
644.498,207.859,0.005850935,-4.12204,0.71787
645.098,208.062,0.001626455,-4.12375,0.71726
645.698,208.265,0.0037963,-4.12276,0.71664
646.298,208.4676,0.004346462,-4.12178,0.71603
646.898,208.67,0.002318351,-4.12423,0.71541
647.498,208.872,0.00513948,-4.12211,0.7148
648.098,209.074,0.007306263,-4.12172,0.71418
648.698,209.276,0.006524264,-4.12145,0.71357
649.298,209.478,0.008051467,-4.12145,0.71295
649.898,209.681,0.01186893,-4.12211,0.71233
650.498,209.883,0.009986099,-4.12112,0.71172
650.798,209.985,0.009965029,-4.12139,0.71141