File: 01_Data/Pipe_Heat_Cable/STA/N2/10K_min/Pipe_Heat_Cable_STA_N2_10KData_220727_R1.csv
##Temp./Â°C,Time/min,Mass loss(subtr.2)/mg,DSC(subtr.2)/(mW/mg),Sensit./(uV/mW)
49.435,10.00917,-0.02601,0.008376104,1.07025
50.035,10.7362,-0.02770098,0.03911561,1.07009
50.635,10.92881,-0.03040264,0.06322933,1.06992
51.235,11.07088,-0.0312784,0.08671602,1.06976
51.835,11.19006,-0.02929333,0.10388,1.06959
52.435,11.29597,-0.02994326,0.11659,1.06942
53.035,11.3934,-0.02826248,0.12772,1.06926
53.635,11.48405,-0.02989455,0.14045,1.06909
54.235,11.56892,-0.02922926,0.14863,1.06892
54.835,11.651,-0.03074059,0.15745,1.06876
55.435,11.73104,-0.03215928,0.16257,1.06859
56.035,11.80758,-0.0324193,0.17238,1.06842
56.635,11.8826,-0.02987439,0.17827,1.06825
57.235,11.95626,-0.03056279,0.18195,1.06808
57.835,12.0286,-0.03062082,0.187,1.06791
58.435,12.09963,-0.02912364,0.19119,1.06774
59.035,12.16967,-0.03164254,0.19802,1.06757
59.635,12.23886,-0.03304038,0.19886,1.0674
60.235,12.30719,-0.03168095,0.2033,1.06723
60.835,12.3751,-0.03164765,0.20728,1.06706
61.435,12.44242,-0.03172429,0.20902,1.06689
62.035,12.50988,-0.03193986,0.21158,1.06672
62.635,12.57656,-0.03202057,0.21268,1.06654
63.235,12.64289,-0.03182572,0.2166,1.06637
63.835,12.70888,-0.03194038,0.21788,1.0662
64.435,12.77455,-0.03037691,0.21847,1.06602
65.035,12.84024,-0.03161905,0.21959,1.06585
65.635,12.90577,-0.03293135,0.2214,1.06568
66.235,12.9712,-0.03423801,0.22289,1.0655
66.835,13.03647,-0.03360731,0.22475,1.06533
67.435,13.10122,-0.03302651,0.22601,1.06515
68.035,13.1653,-0.03303305,0.22727,1.06497
68.635,13.22945,-0.0337235,0.22803,1.0648
69.235,13.29313,-0.03306509,0.22903,1.06462
69.835,13.3578,-0.03304,0.23037,1.06444
70.435,13.42186,-0.03304006,0.23097,1.06427
71.035,13.4855,-0.03349221,0.23275,1.06409
71.635,13.5489,-0.03304031,0.23291,1.06391
72.235,13.612,-0.03457613,0.23547,1.06373
72.835,13.67513,-0.03448305,0.23605,1.06355
73.435,13.73805,-0.0348976,0.23642,1.06337
74.035,13.80073,-0.03457807,0.23789,1.0632
74.635,13.8635,-0.03422917,0.23523,1.06302
75.235,13.9262,-0.03449998,0.23739,1.06284
75.835,13.9886,-0.03585738,0.2384,1.06265
76.435,14.05095,-0.03590778,0.23782,1.06247
77.035,14.11289,-0.03458079,0.23868,1.06229
77.635,14.17487,-0.0356849,0.23872,1.06211
78.235,14.23688,-0.03590003,0.23949,1.06193
78.835,14.2983,-0.03589001,0.23972,1.06175
79.435,14.3601,-0.03582045,0.2393,1.06156
80.035,14.42196,-0.03386508,0.24218,1.06138
80.635,14.4839,-0.03564511,0.24306,1.0612
81.235,14.54531,-0.03567,0.24318,1.06101
81.835,14.6066,-0.03583404,0.24461,1.06083
82.435,14.668,-0.03701753,0.24323,1.06064
83.035,14.72919,-0.0356798,0.24407,1.06046
83.635,14.7902,-0.03698437,0.24433,1.06027
84.235,14.85113,-0.03566962,0.24591,1.06008
84.835,14.91201,-0.03628192,0.24696,1.0599
85.435,14.9728,-0.03566428,0.24569,1.05971
86.035,15.03365,-0.03699649,0.2459,1.05952
86.635,15.09404,-0.03701355,0.24616,1.05934
87.235,15.1546,-0.03712389,0.24729,1.05915
87.835,15.21464,-0.03709418,0.24925,1.05896
88.435,15.27486,-0.03840817,0.24784,1.05877
89.035,15.3354,-0.03954892,0.24985,1.05858
89.635,15.3956,-0.03843863,0.24966,1.05839
90.235,15.456,-0.03849559,0.2499,1.0582
90.835,15.51583,-0.03842098,0.24979,1.05801
91.435,15.57549,-0.03832315,0.25023,1.05782
92.035,15.63541,-0.03843931,0.25131,1.05763
92.635,15.69524,-0.03842001,0.25409,1.05744
93.235,15.75513,-0.03842,0.25196,1.05725
93.835,15.8148,-0.03841951,0.25389,1.05706
94.435,15.8744,-0.03967228,0.25543,1.05686
95.035,15.93322,-0.04310462,0.2561,1.05667
95.635,15.9924,-0.04096012,0.25919,1.05648
96.235,16.05151,-0.0377855,0.26022,1.05628
96.835,16.1109,-0.03922823,0.26124,1.05609
97.435,16.17073,-0.03845596,0.26024,1.0559
98.035,16.23016,-0.03930028,0.26328,1.0557
98.635,16.28949,-0.03798285,0.26331,1.05551
99.235,16.34848,-0.03964168,0.26241,1.05531
99.835,16.40711,-0.04060915,0.26479,1.05511
100.435,16.4663,-0.03965701,0.26525,1.05492
101.035,16.52516,-0.04061344,0.26572,1.05472
101.635,16.58435,-0.0406088,0.26732,1.05452
102.235,16.64337,-0.04064134,0.268,1.05433
102.835,16.70206,-0.0419405,0.26792,1.05413
103.435,16.7609,-0.04193996,0.26743,1.05393
104.035,16.81958,-0.04191941,0.27007,1.05373
104.635,16.87836,-0.0406386,0.27175,1.05353
105.235,16.93701,-0.04061003,0.27237,1.05333
105.835,16.99571,-0.0406095,0.27386,1.05313
106.435,17.05452,-0.04187406,0.2738,1.05293
107.035,17.11325,-0.04192956,0.27372,1.05273
107.635,17.1722,-0.04322458,0.27409,1.05253
108.235,17.23091,-0.04312361,0.27367,1.05233
108.835,17.28954,-0.04192665,0.27553,1.05213
109.435,17.34815,-0.04324017,0.27616,1.05193
110.035,17.4067,-0.04190493,0.27525,1.05172
110.635,17.46511,-0.04193051,0.27706,1.05152
111.235,17.5237,-0.04080406,0.27831,1.05132
111.835,17.582,-0.04127091,0.27955,1.05111
112.435,17.6406,-0.04191794,0.27964,1.05091
113.035,17.69884,-0.04193,0.28118,1.05071
113.635,17.75713,-0.04195164,0.28206,1.0505
114.235,17.81564,-0.04337241,0.2837,1.0503
114.835,17.87408,-0.04325225,0.28249,1.05009
115.435,17.93238,-0.04325,0.28546,1.04988
116.035,17.99097,-0.04325178,0.2874,1.04968
116.635,18.04955,-0.04258902,0.28717,1.04947
117.235,18.1082,-0.04389542,0.28949,1.04926
117.835,18.1665,-0.04390045,0.28752,1.04906
118.435,18.22489,-0.04458231,0.28845,1.04885
119.035,18.2833,-0.04456,0.28648,1.04864
119.635,18.34156,-0.04455145,0.28651,1.04843
120.235,18.40007,-0.0445538,0.28705,1.04822
120.835,18.45859,-0.04587612,0.28697,1.04801
121.435,18.51695,-0.04456845,0.28524,1.0478
122.035,18.57545,-0.04467733,0.28498,1.04759
122.635,18.63371,-0.04589679,0.28363,1.04738
123.235,18.69203,-0.04458246,0.28361,1.04717
123.835,18.75046,-0.04567751,0.28545,1.04696
124.435,18.80885,-0.04654,0.28374,1.04675
125.035,18.86711,-0.04518077,0.28547,1.04654
125.635,18.92524,-0.04523378,0.28507,1.04632
126.235,18.9835,-0.04646062,0.28541,1.04611
126.835,19.0416,-0.04784282,0.28457,1.0459
127.435,19.1,-0.04654082,0.28764,1.04568
128.035,19.1581,-0.04671925,0.28863,1.04547
128.635,19.21635,-0.04996815,0.28871,1.04525
129.235,19.2748,-0.04688055,0.28966,1.04504
129.835,19.3333,-0.04591018,0.29145,1.04482
130.435,19.39149,-0.04731159,0.29313,1.04461
131.035,19.44954,-0.04599285,0.29349,1.04439
131.635,19.50774,-0.04598962,0.29507,1.04417
132.235,19.56587,-0.04752831,0.29664,1.04396
132.835,19.62411,-0.04767594,0.29991,1.04374
133.435,19.68223,-0.0489505,0.30105,1.04352
134.035,19.7397,-0.04895064,0.30171,1.0433
134.635,19.79739,-0.04763743,0.302,1.04309
135.235,19.85513,-0.04839764,0.29973,1.04287
135.835,19.9131,-0.04854361,0.30052,1.04265
136.435,19.9716,-0.04935148,0.29857,1.04243
137.035,20.02962,-0.04852412,0.30015,1.04221
137.635,20.088,-0.04743396,0.30093,1.04199
138.235,20.14604,-0.04863009,0.30029,1.04177
138.835,20.20392,-0.04966812,0.29865,1.04155
139.435,20.26172,-0.04991461,0.29963,1.04132
140.035,20.31946,-0.05026976,0.29991,1.0411
140.635,20.37722,-0.04994357,0.29871,1.04088
141.235,20.435,-0.04991417,0.30075,1.04066
141.835,20.49285,-0.04893625,0.29964,1.04043
142.435,20.55066,-0.04994003,0.30031,1.04021
143.035,20.6084,-0.04994,0.30098,1.03998
143.635,20.6661,-0.04994178,0.30264,1.03976
144.235,20.7238,-0.05131718,0.30097,1.03954
144.835,20.78122,-0.04943258,0.30277,1.03931
145.435,20.8389,-0.05059999,0.30232,1.03908
146.035,20.89685,-0.0506,0.30168,1.03886
146.635,20.95477,-0.05067153,0.30341,1.03863
147.235,21.01266,-0.05203056,0.30248,1.0384
147.835,21.07049,-0.05202529,0.30132,1.03818
148.435,21.1282,-0.05136919,0.30268,1.03795
149.035,21.186,-0.05273884,0.30225,1.03772
149.635,21.24386,-0.05204782,0.30336,1.03749
150.235,21.30149,-0.05202121,0.30557,1.03726
150.835,21.35904,-0.05137059,0.30383,1.03703
151.435,21.4164,-0.05244939,0.30464,1.03681
152.035,21.47409,-0.05268986,0.30327,1.03657
152.635,21.53161,-0.05269002,0.30401,1.03634
153.235,21.58925,-0.05235308,0.30375,1.03611
153.835,21.64704,-0.05215582,0.30361,1.03588
154.435,21.70469,-0.05193319,0.30291,1.03565
155.035,21.76243,-0.05213992,0.3044,1.03542
155.635,21.82005,-0.05214149,0.30627,1.03519
156.235,21.87754,-0.05247079,0.30538,1.03495
156.835,21.93481,-0.05255653,0.30601,1.03472
157.435,21.99225,-0.0526049,0.30672,1.03449
158.035,22.04968,-0.05247,0.30728,1.03425
158.635,22.10681,-0.05247,0.30822,1.03402
159.235,22.16432,-0.05247,0.30691,1.03378
159.835,22.22171,-0.05247,0.30941,1.03355
160.435,22.2792,-0.05247002,0.30992,1.03331
161.035,22.33676,-0.05376153,0.31132,1.03307
161.635,22.3938,-0.05246338,0.31154,1.03284
162.235,22.45125,-0.05247005,0.31218,1.0326
162.835,22.50875,-0.05376471,0.31318,1.03236
163.435,22.56643,-0.05363439,0.31193,1.03213
164.035,22.62379,-0.05426254,0.31197,1.03189
164.635,22.6812,-0.0547699,0.31352,1.03165
165.235,22.73825,-0.05451018,0.31436,1.03141
165.835,22.79555,-0.05345963,0.31327,1.03117
166.435,22.85267,-0.0534552,0.31489,1.03093
167.035,22.90993,-0.05477927,0.31494,1.03069
167.635,22.9671,-0.05477433,0.31538,1.03045
168.235,23.02436,-0.05610551,0.31522,1.03021
168.835,23.08178,-0.05510297,0.31609,1.02997
169.435,23.13932,-0.05511002,0.31639,1.02973
170.035,23.19666,-0.0563227,0.31822,1.02948
170.635,23.2539,-0.05642993,0.31727,1.02924
171.235,23.31117,-0.05643,0.31897,1.029
171.835,23.3685,-0.05643009,0.32014,1.02875
172.435,23.4259,-0.05526147,0.31983,1.02851
173.035,23.48337,-0.05770982,0.32087,1.02827
173.635,23.54081,-0.05641518,0.32169,1.02802
174.235,23.59814,-0.05774138,0.32116,1.02778
174.835,23.65553,-0.05834165,0.32277,1.02753
175.435,23.7128,-0.05784313,0.324,1.02729
176.035,23.76977,-0.05785,0.32577,1.02704
176.635,23.82692,-0.05784413,0.3269,1.02679
177.235,23.88425,-0.05921405,0.32768,1.02655
177.835,23.9416,-0.05685652,0.32867,1.0263
178.435,23.9996,-0.0583992,0.3309,1.02605
179.035,24.05731,-0.05970573,0.33458,1.0258
179.635,24.11459,-0.0630014,0.33528,1.02555
180.235,24.17182,-0.06154193,0.33733,1.0253
180.835,24.22888,-0.0598254,0.33789,1.02505
181.435,24.28596,-0.06048967,0.33929,1.0248
182.035,24.3432,-0.06049,0.33964,1.02455
182.635,24.39996,-0.06048903,0.33897,1.0243
183.235,24.45713,-0.06180282,0.33851,1.02405
183.835,24.51429,-0.0618,0.33961,1.0238
184.435,24.57186,-0.0618,0.33864,1.02355
185.035,24.6295,-0.0618,0.33685,1.02329
185.635,24.68686,-0.06180161,0.34073,1.02304
186.235,24.74417,-0.06312196,0.33918,1.02279
186.835,24.80149,-0.06378455,0.33718,1.02253
187.435,24.8586,-0.06377986,0.3353,1.02228
188.035,24.9159,-0.06512048,0.33628,1.02203
188.635,24.97304,-0.06337008,0.33563,1.02177
189.235,25.03032,-0.06377993,0.33584,1.02152
189.835,25.0874,-0.06370688,0.33265,1.02126
190.435,25.1445,-0.06509988,0.33211,1.021
191.035,25.20158,-0.06510006,0.32998,1.02075
191.635,25.25868,-0.06507487,0.33023,1.02049
192.235,25.3154,-0.06769241,0.3293,1.02023
192.835,25.37264,-0.06772989,0.32975,1.01997
193.435,25.42991,-0.06638266,0.32806,1.01972
194.035,25.48711,-0.06767088,0.32738,1.01946
194.635,25.54455,-0.06800726,0.32416,1.0192
195.235,25.60151,-0.06805999,0.32519,1.01894
195.835,25.65879,-0.06805923,0.32392,1.01868
196.435,25.71591,-0.06927575,0.32281,1.01842
197.035,25.7732,-0.07068985,0.32389,1.01816
197.635,25.83044,-0.07069003,0.32099,1.0179
198.235,25.8876,-0.07190168,0.32136,1.01764
198.835,25.94485,-0.07200988,0.32068,1.01737
199.435,26.00195,-0.071988,0.32033,1.01711
200.035,26.059,-0.07068097,0.31907,1.01685
200.635,26.11594,-0.07200992,0.31754,1.01658
201.235,26.1731,-0.07201,0.31844,1.01632
201.835,26.2301,-0.07201,0.31851,1.01606
202.435,26.28715,-0.07200957,0.31884,1.01579
203.035,26.34422,-0.07326487,0.3184,1.01553
203.635,26.40103,-0.07314725,0.31845,1.01526
204.235,26.4581,-0.07322911,0.31889,1.015
204.835,26.515,-0.07366004,0.31738,1.01473
205.435,26.57262,-0.07369258,0.31699,1.01446
206.035,26.62991,-0.07498019,0.3169,1.0142
206.635,26.6871,-0.0749815,0.31903,1.01393
207.235,26.7443,-0.07629829,0.31993,1.01366
207.835,26.8015,-0.07761608,0.32073,1.01339
208.435,26.85851,-0.07761,0.32048,1.01312
209.035,26.9156,-0.07761007,0.32079,1.01286
209.635,26.97242,-0.07776053,0.31969,1.01259
210.235,27.0295,-0.07856225,0.32028,1.01232
210.835,27.0864,-0.07880076,0.3211,1.01205
211.435,27.14343,-0.08015253,0.32207,1.01177
212.035,27.2004,-0.08024,0.32262,1.0115
212.635,27.25735,-0.08003866,0.32222,1.01123
213.235,27.31452,-0.080245,0.32242,1.01096
213.835,27.37165,-0.08167668,0.32122,1.01069
214.435,27.4288,-0.08297798,0.32168,1.01041
215.035,27.4857,-0.08437667,0.32161,1.01014
215.635,27.54288,-0.08431004,0.32311,1.00987
216.235,27.60003,-0.08431217,0.32317,1.00959
216.835,27.65731,-0.08562499,0.3223,1.00932
217.435,27.71446,-0.08562998,0.32407,1.00904
218.035,27.7715,-0.08560567,0.32473,1.00877
218.635,27.82878,-0.08695024,0.32343,1.00849
219.235,27.88597,-0.0869509,0.32331,1.00822
219.835,27.9432,-0.08843364,0.32464,1.00794
220.435,28.00055,-0.08887086,0.32504,1.00766
221.035,28.05766,-0.09292161,0.32611,1.00738
221.635,28.11494,-0.0903598,0.32569,1.00711
222.235,28.17205,-0.0899002,0.3251,1.00683
222.835,28.2293,-0.09133575,0.32535,1.00655
223.435,28.2864,-0.09132663,0.32515,1.00627
224.035,28.34364,-0.09296988,0.32498,1.00599
224.635,28.40082,-0.09414303,0.32429,1.00571
225.235,28.45797,-0.09538978,0.32565,1.00543
225.835,28.5153,-0.09541671,0.32663,1.00515
226.435,28.5725,-0.09671014,0.32518,1.00487
227.035,28.6296,-0.09802322,0.32638,1.00459
227.635,28.6868,-0.09936581,0.32602,1.0043
228.235,28.74411,-0.10066,0.32798,1.00402
228.835,28.80125,-0.10119,0.32721,1.00374
229.435,28.85867,-0.10198,0.32806,1.00345
230.035,28.9158,-0.1019,0.32738,1.00317
230.635,28.973,-0.10495,0.32885,1.00289
231.235,29.0301,-0.10472,0.32796,1.0026
231.835,29.0869,-0.10744,0.32753,1.00232
232.435,29.1442,-0.10749,0.33015,1.00203
233.035,29.20144,-0.10879,0.32844,1.00174
233.635,29.25879,-0.11019,0.33287,1.00146
234.235,29.3163,-0.11023,0.33112,1.00117
234.835,29.3736,-0.11198,0.33317,1.00088
235.435,29.4308,-0.11445,0.33401,1.0006
236.035,29.4879,-0.11734,0.33379,1.00031
236.635,29.54492,-0.11714,0.33384,1.00002
237.235,29.6019,-0.11698,0.33406,0.99973
237.835,29.6591,-0.119,0.33302,0.99944
238.435,29.71592,-0.11896,0.33489,0.99915
239.035,29.7729,-0.12167,0.33527,0.99886
239.635,29.8301,-0.12454,0.33574,0.99857
240.235,29.88713,-0.12579,0.33708,0.99828
240.835,29.94448,-0.12816,0.33749,0.99799
241.435,30.0015,-0.12751,0.33708,0.99769
242.035,30.0585,-0.13152,0.34113,0.9974
242.635,30.1156,-0.13301,0.34186,0.99711
243.235,30.1726,-0.13324,0.3463,0.99682
243.835,30.22985,-0.13745,0.34837,0.99652
244.435,30.2867,-0.13787,0.34829,0.99623
245.035,30.34365,-0.14028,0.34781,0.99593
245.635,30.40066,-0.14189,0.34672,0.99564
246.235,30.45768,-0.14283,0.3465,0.99534
246.835,30.5149,-0.1457,0.34541,0.99505
247.435,30.57184,-0.14721,0.34527,0.99475
248.035,30.62896,-0.15052,0.34735,0.99445
248.635,30.6862,-0.15462,0.34543,0.99416
249.235,30.74333,-0.15491,0.34966,0.99386
249.835,30.8002,-0.1593,0.35011,0.99356
250.435,30.857,-0.15984,0.35115,0.99326
251.035,30.91406,-0.16259,0.35019,0.99296
251.635,30.97117,-0.16551,0.35149,0.99266
252.235,31.0285,-0.16708,0.35077,0.99236
252.835,31.0857,-0.17199,0.35102,0.99206
253.435,31.14283,-0.17307,0.35167,0.99176
254.035,31.19994,-0.17769,0.35247,0.99146
254.635,31.2572,-0.18197,0.35073,0.99116
255.235,31.3144,-0.18316,0.35265,0.99086
255.835,31.37165,-0.18825,0.3551,0.99056
256.435,31.42868,-0.19305,0.3552,0.99025
257.035,31.48558,-0.19459,0.35724,0.98995
257.635,31.5427,-0.19719,0.35795,0.98965
258.235,31.5999,-0.20041,0.35812,0.98934
258.835,31.65711,-0.20627,0.35934,0.98904
259.435,31.71415,-0.20876,0.3601,0.98873
260.035,31.77105,-0.21408,0.3617,0.98843
260.635,31.828,-0.21743,0.36233,0.98812
261.235,31.8851,-0.22125,0.36343,0.98782
261.835,31.9422,-0.22712,0.36401,0.98751
262.435,31.9995,-0.23158,0.3671,0.9872
263.035,32.05673,-0.23416,0.36903,0.98689
263.635,32.11411,-0.24001,0.36912,0.98659
264.235,32.17132,-0.24375,0.37066,0.98628
264.835,32.22833,-0.24989,0.372,0.98597
265.435,32.2856,-0.25334,0.37586,0.98566
266.035,32.3427,-0.25887,0.37713,0.98535
266.635,32.40002,-0.26508,0.37978,0.98504
267.235,32.4572,-0.26909,0.38165,0.98473
267.835,32.5143,-0.27587,0.38387,0.98442
268.435,32.57136,-0.27942,0.38504,0.98411
269.035,32.62854,-0.28605,0.38702,0.98379
269.635,32.68582,-0.29356,0.38882,0.98348
270.235,32.7429,-0.29984,0.39109,0.98317
270.835,32.80024,-0.30661,0.39389,0.98286
271.435,32.8575,-0.31283,0.39428,0.98254
272.035,32.91469,-0.31972,0.39814,0.98223
272.635,32.97213,-0.32752,0.40062,0.98191
273.235,33.02943,-0.33379,0.40182,0.9816
273.835,33.08645,-0.34096,0.40223,0.98128
274.435,33.14372,-0.34837,0.40615,0.98097
275.035,33.20105,-0.35577,0.40627,0.98065
275.635,33.25847,-0.36476,0.4095,0.98034
276.235,33.31617,-0.37164,0.41194,0.98002
276.835,33.37365,-0.38003,0.41374,0.9797
277.435,33.43101,-0.39034,0.41659,0.97938
278.035,33.48842,-0.39973,0.41763,0.97906
278.635,33.54573,-0.40907,0.41987,0.97875
279.235,33.60321,-0.41689,0.42419,0.97843
279.835,33.6605,-0.42732,0.42397,0.97811
280.435,33.71803,-0.4349,0.42745,0.97779
281.035,33.77548,-0.44489,0.42919,0.97747
281.635,33.83283,-0.4574,0.4314,0.97714
282.235,33.8903,-0.46806,0.43288,0.97682
282.835,33.94763,-0.47812,0.43723,0.9765
283.435,34.00505,-0.48898,0.43877,0.97618
284.035,34.06261,-0.49959,0.44287,0.97586
284.635,34.12012,-0.51335,0.44607,0.97553
285.235,34.17771,-0.52678,0.45151,0.97521
285.835,34.23535,-0.53665,0.45891,0.97488
286.435,34.2928,-0.55314,0.4672,0.97456
287.035,34.3504,-0.56618,0.47597,0.97424
287.635,34.40786,-0.5799,0.49358,0.97391
288.235,34.46525,-0.59805,0.51875,0.97358
288.835,34.5227,-0.61232,0.55934,0.97326
289.435,34.58019,-0.63249,0.62385,0.97293
290.035,34.63803,-0.65321,0.7104,0.9726
290.635,34.69583,-0.67706,0.81679,0.97228
291.235,34.7539,-0.70603,0.93329,0.97195
291.835,34.81185,-0.73524,1.06634,0.97162
292.435,34.87,-0.77557,1.20913,0.97129
293.035,34.92811,-0.81874,1.35785,0.97096
293.635,34.98652,-0.87098,1.49611,0.97063
294.235,35.0449,-0.92691,1.62425,0.9703
294.835,35.10353,-0.9881,1.72443,0.96997
295.435,35.16227,-1.05255,1.80354,0.96964
296.035,35.22101,-1.12256,1.84816,0.96931
296.635,35.2796,-1.19011,1.86589,0.96898
297.235,35.33832,-1.26055,1.8565,0.96864
297.835,35.39678,-1.32843,1.82958,0.96831
298.435,35.455,-1.39528,1.80738,0.96798
299.035,35.51312,-1.46485,1.77179,0.96764
299.635,35.57124,-1.52405,1.73056,0.96731
300.235,35.6288,-1.58864,1.68264,0.96698
300.835,35.68653,-1.64471,1.63336,0.96664
301.435,35.74423,-1.7014,1.56987,0.9663
302.035,35.8016,-1.75413,1.50057,0.96597
302.635,35.85924,-1.8015,1.42425,0.96563
303.235,35.91655,-1.85046,1.34991,0.9653
303.835,35.97358,-1.89442,1.27666,0.96496
304.435,36.0308,-1.93688,1.20366,0.96462
305.035,36.088,-1.97625,1.13531,0.96428
305.635,36.14502,-2.01143,1.07188,0.96394
306.235,36.2021,-2.04586,1.00815,0.96361
306.835,36.25912,-2.07618,0.95147,0.96327
307.435,36.31633,-2.10574,0.90073,0.96293
308.035,36.37331,-2.13204,0.85147,0.96259
308.635,36.43019,-2.15816,0.8108,0.96224
309.235,36.48709,-2.18204,0.77015,0.9619
309.835,36.54372,-2.20471,0.7379,0.96156
310.435,36.60055,-2.22501,0.70369,0.96122
311.035,36.65759,-2.2459,0.67364,0.96088
311.635,36.71465,-2.26199,0.64347,0.96053
312.235,36.77213,-2.27986,0.61507,0.96019
312.835,36.82911,-2.29521,0.5908,0.95985
313.435,36.88619,-2.30975,0.56417,0.9595
314.035,36.94328,-2.32445,0.53936,0.95916
314.635,37.00027,-2.33585,0.51459,0.95881
315.235,37.05746,-2.35064,0.49351,0.95847
315.835,37.1145,-2.36041,0.47558,0.95812
316.435,37.17157,-2.37098,0.45458,0.95777
317.035,37.22882,-2.38343,0.43753,0.95743
317.635,37.28608,-2.39119,0.4199,0.95708
318.235,37.34326,-2.40172,0.40193,0.95673
318.835,37.40051,-2.40844,0.39012,0.95638
319.435,37.45776,-2.41647,0.37638,0.95604
320.035,37.51481,-2.42641,0.36054,0.95569
320.635,37.57213,-2.43124,0.34785,0.95534
321.235,37.62916,-2.44026,0.33574,0.95499
321.835,37.6864,-2.44612,0.3243,0.95464
322.435,37.74375,-2.45319,0.31447,0.95429
323.035,37.80109,-2.45972,0.30385,0.95393
323.635,37.85844,-2.46333,0.29331,0.95358
324.235,37.91596,-2.47021,0.2828,0.95323
324.835,37.97323,-2.47435,0.27358,0.95288
325.435,38.03067,-2.4789,0.26456,0.95253
326.035,38.0882,-2.48427,0.25542,0.95217
326.635,38.14545,-2.48706,0.24993,0.95182
327.235,38.20292,-2.49228,0.23741,0.95146
327.835,38.26041,-2.49768,0.2337,0.95111
328.435,38.31798,-2.50184,0.2235,0.95075
329.035,38.37545,-2.50561,0.21858,0.9504
329.635,38.433,-2.50807,0.20953,0.95004
330.235,38.4906,-2.51207,0.20389,0.94968
330.835,38.54807,-2.51381,0.20115,0.94933
331.435,38.6057,-2.51714,0.19257,0.94897
332.035,38.66344,-2.52063,0.18759,0.94861
332.635,38.72113,-2.52261,0.18223,0.94825
333.235,38.77878,-2.52663,0.17731,0.9479
333.835,38.83651,-2.52813,0.17292,0.94754
334.435,38.894,-2.53061,0.16787,0.94718
335.035,38.9518,-2.53529,0.16291,0.94682
335.635,39.00954,-2.5362,0.15751,0.94646
336.235,39.06732,-2.53766,0.15447,0.94609
336.835,39.125,-2.53953,0.15214,0.94573
337.435,39.18267,-2.54236,0.14749,0.94537
338.035,39.24033,-2.54465,0.14488,0.94501
338.635,39.29808,-2.54394,0.14064,0.94465
339.235,39.35581,-2.54659,0.1361,0.94428
339.835,39.41349,-2.54762,0.13338,0.94392
340.435,39.47102,-2.55272,0.13181,0.94356
341.035,39.52877,-2.55267,0.12801,0.94319
341.635,39.58643,-2.55164,0.12598,0.94283
342.235,39.64432,-2.55364,0.12303,0.94246
342.835,39.702,-2.55324,0.12152,0.94209
343.435,39.75979,-2.55454,0.11804,0.94173
344.035,39.81766,-2.55601,0.11579,0.94136
344.635,39.8755,-2.55739,0.11303,0.94099
345.235,39.93329,-2.56212,0.11224,0.94063
345.835,39.99103,-2.56336,0.10993,0.94026
346.435,40.0488,-2.56178,0.1086,0.93989
347.035,40.1066,-2.56179,0.10805,0.93952
347.635,40.1644,-2.56302,0.10722,0.93915
348.235,40.22209,-2.56574,0.10511,0.93878
348.835,40.27988,-2.56574,0.1024,0.93841
349.435,40.3376,-2.56663,0.10264,0.93804
350.035,40.39575,-2.56842,0.09869776,0.93767
350.635,40.45369,-2.56851,0.09929899,0.9373
351.235,40.51169,-2.56981,0.09678463,0.93693
351.835,40.56968,-2.56981,0.0971298,0.93655
352.435,40.6275,-2.57112,0.09837667,0.93618
353.035,40.68509,-2.57208,0.09518408,0.93581
353.635,40.7429,-2.57244,0.0931626,0.93543
354.235,40.80073,-2.57343,0.09392298,0.93506
354.835,40.85882,-2.57406,0.09270251,0.93469
355.435,40.91717,-2.57508,0.09110724,0.93431
356.035,40.97518,-2.57506,0.09064,0.93394
356.635,41.03304,-2.57636,0.08932308,0.93356
357.235,41.091,-2.57902,0.09050825,0.93318
357.835,41.14908,-2.57902,0.08934958,0.93281
358.435,41.20725,-2.57852,0.08883015,0.93243
359.035,41.26542,-2.58029,0.086563,0.93205
359.635,41.3234,-2.58034,0.08434571,0.93167
360.235,41.38156,-2.57905,0.08544979,0.93129
360.835,41.43949,-2.58035,0.08401715,0.93092
361.435,41.49767,-2.58166,0.08311577,0.93054
362.035,41.55575,-2.58298,0.08211506,0.93016
362.635,41.61397,-2.58166,0.08228369,0.92978
363.235,41.67197,-2.58166,0.0824681,0.9294
363.835,41.7301,-2.58338,0.07983157,0.92901
364.435,41.78821,-2.58424,0.07868268,0.92863
365.035,41.84636,-2.58495,0.07842223,0.92825
365.635,41.90491,-2.5843,0.07859033,0.92787
366.235,41.96311,-2.58559,0.07756052,0.92749
366.835,42.02133,-2.58658,0.07636128,0.9271
367.435,42.07952,-2.58562,0.07658069,0.92672
368.035,42.13762,-2.58624,0.07583657,0.92633
368.635,42.1956,-2.58692,0.07547462,0.92595
369.235,42.25363,-2.58694,0.07534215,0.92556
369.835,42.3118,-2.58825,0.07365625,0.92518
370.435,42.37045,-2.58826,0.07481874,0.92479
371.035,42.42924,-2.58957,0.07282906,0.92441
371.635,42.4874,-2.58957,0.07061397,0.92402
372.235,42.545,-2.59022,0.07162657,0.92363
372.835,42.603,-2.59153,0.07050992,0.92324
373.435,42.66113,-2.59153,0.06952975,0.92286
374.035,42.7196,-2.59153,0.06671674,0.92247
374.635,42.77792,-2.5928,0.06540735,0.92208
375.235,42.83597,-2.59285,0.06502511,0.92169
375.835,42.89403,-2.59415,0.06390406,0.9213
376.435,42.95217,-2.59417,0.06411708,0.92091
377.035,43.01042,-2.59417,0.06067324,0.92052
377.635,43.06919,-2.59549,0.06011333,0.92013
378.235,43.12749,-2.59548,0.05786748,0.91973
378.835,43.18587,-2.59613,0.05590681,0.91934
379.435,43.244,-2.59615,0.05242528,0.91895
380.035,43.30218,-2.59617,0.05076229,0.91856
380.635,43.3602,-2.59747,0.04984032,0.91816
381.235,43.41838,-2.59747,0.04770469,0.91777
381.835,43.47618,-2.59877,0.045777,0.91738
382.435,43.53441,-2.59879,0.04401634,0.91698
383.035,43.59243,-2.60015,0.03994685,0.91659
383.635,43.6507,-2.60139,0.03840476,0.91619
384.235,43.70941,-2.6024,0.03539722,0.91579
384.835,43.76758,-2.6024,0.03151746,0.9154
385.435,43.826,-2.60277,0.02971586,0.915
386.035,43.88428,-2.60406,0.02517998,0.9146
386.635,43.9426,-2.60275,0.02579055,0.91421
387.235,44.00104,-2.60288,0.0211332,0.91381
387.835,44.05944,-2.60406,0.01773866,0.91341
388.435,44.11769,-2.606,0.01413859,0.91301
389.035,44.17595,-2.60734,0.01349319,0.91261
389.635,44.2342,-2.60734,0.009773832,0.91221
390.235,44.2926,-2.60708,0.01052211,0.91181
390.835,44.35092,-2.60759,0.007250492,0.91141
391.435,44.4094,-2.6101,0.005065093,0.91101
392.035,44.46778,-2.61009,0.003094038,0.91061
392.635,44.52595,-2.6114,0.00171126,0.9102
393.235,44.5844,-2.6114,0.000438825,0.9098
393.835,44.6426,-2.61272,-0.001286893,0.9094
394.435,44.70094,-2.61142,-0.001635526,0.909
395.035,44.75947,-2.61404,-0.002485093,0.90859
395.635,44.81783,-2.61535,-0.003287343,0.90819
396.235,44.8764,-2.61536,-0.005107642,0.90778
396.835,44.93492,-2.61591,-0.005963766,0.90738
397.435,44.9934,-2.618,-0.005244154,0.90697
398.035,45.0518,-2.61799,-0.00805179,0.90657
398.635,45.11022,-2.61804,-0.006371968,0.90616
399.235,45.16863,-2.62164,-0.006278806,0.90575
399.835,45.22712,-2.62063,-0.00770394,0.90535
400.435,45.28546,-2.62201,-0.009307504,0.90494
401.035,45.34397,-2.6256,-0.005889841,0.90453
401.635,45.40237,-2.626,-0.008515048,0.90412
402.235,45.46076,-2.62345,-0.009395473,0.90371
402.835,45.51952,-2.62425,-0.00759147,0.9033
403.435,45.57785,-2.62557,-0.008575331,0.90289
404.035,45.6365,-2.62667,-0.007987107,0.90248
404.635,45.695,-2.62687,-0.00742727,0.90207
405.235,45.75332,-2.6283,-0.009235408,0.90166
405.835,45.81176,-2.62892,-0.009402642,0.90125
406.435,45.87032,-2.62973,-0.00951786,0.90084
407.035,45.92889,-2.63304,-0.008089634,0.90042
407.635,45.98753,-2.63237,-0.009509019,0.90001
408.235,46.04619,-2.63369,-0.00980718,0.8996
408.835,46.1047,-2.63627,-0.007888098,0.89918
409.435,46.16325,-2.63784,-0.008252552,0.89877
410.035,46.22191,-2.63905,-0.01060998,0.89836
410.635,46.28053,-2.63905,-0.01130532,0.89794
411.235,46.3391,-2.64039,-0.009996457,0.89753
411.835,46.39776,-2.64161,-0.01096975,0.89711
412.435,46.45633,-2.64173,-0.01041969,0.89669
413.035,46.5148,-2.64274,-0.01062502,0.89628
413.635,46.5734,-2.64416,-0.0123675,0.89586
414.235,46.632,-2.64527,-0.01063866,0.89544
414.835,46.69056,-2.64685,-0.01277355,0.89502
415.435,46.74917,-2.64741,-0.01193992,0.89461
416.035,46.80775,-2.64868,-0.01258621,0.89419
416.635,46.866,-2.65164,-0.01327962,0.89377
417.235,46.92471,-2.65152,-0.01451538,0.89335
417.835,46.98332,-2.65452,-0.01395218,0.89293
418.435,47.04209,-2.65464,-0.01600705,0.89251
419.035,47.10074,-2.65569,-0.01666284,0.89209
419.635,47.15936,-2.65644,-0.01539133,0.89167
420.235,47.21818,-2.65729,-0.01626214,0.89124
420.835,47.27678,-2.65872,-0.01966085,0.89082
421.435,47.33551,-2.66142,-0.01987359,0.8904
422.035,47.39419,-2.66278,-0.02021008,0.88998
422.635,47.45288,-2.66448,-0.01976375,0.88955
423.235,47.51168,-2.66565,-0.01800179,0.88913
423.835,47.57012,-2.66848,-0.0192685,0.8887
424.435,47.6289,-2.67004,-0.0210284,0.88828
425.035,47.6877,-2.67135,-0.01941343,0.88785
425.635,47.74648,-2.67393,-0.02179841,0.88743
426.235,47.80505,-2.6766,-0.0163189,0.887
426.835,47.86358,-2.67795,-0.01782923,0.88658
427.435,47.92207,-2.68113,-0.01959984,0.88615
428.035,47.98069,-2.68113,-0.01544038,0.88572
428.635,48.03906,-2.68474,-0.01593327,0.88529
429.235,48.0974,-2.68678,-0.01472395,0.88487
429.835,48.15607,-2.68913,-0.0160056,0.88444
430.435,48.21495,-2.69195,-0.01299369,0.88401
431.035,48.27384,-2.69324,-0.01100118,0.88358
431.635,48.33269,-2.6959,-0.01164751,0.88315
432.235,48.39151,-2.69673,-0.008875247,0.88272
432.835,48.4502,-2.6998,-0.007282994,0.88229
433.435,48.50893,-2.70296,-0.00732775,0.88186
434.035,48.56767,-2.70606,-0.005665216,0.88143
434.635,48.6265,-2.70769,-0.001618852,0.88099
435.235,48.68512,-2.71156,-0.002030721,0.88056
435.835,48.74393,-2.71348,0.001369842,0.88013
436.435,48.80281,-2.71629,0.003748343,0.8797
437.035,48.8617,-2.7201,0.005039007,0.87926
437.635,48.92058,-2.72243,0.008139448,0.87883
438.235,48.97947,-2.72638,0.00695099,0.87839
438.835,49.03822,-2.72911,0.007329396,0.87796
439.435,49.09717,-2.73244,0.01081978,0.87752
440.035,49.15582,-2.73657,0.01259932,0.87709
440.635,49.2144,-2.73979,0.01557831,0.87665
441.235,49.27302,-2.74421,0.01807911,0.87621
441.835,49.3317,-2.74656,0.02037209,0.87578
442.435,49.3904,-2.75038,0.02142203,0.87534
443.035,49.4493,-2.75468,0.02181584,0.8749
443.635,49.50819,-2.75665,0.02741196,0.87446
444.235,49.56685,-2.76098,0.02842055,0.87403
444.835,49.62543,-2.7657,0.03045425,0.87359
445.435,49.68399,-2.76703,0.0331401,0.87315
446.035,49.74261,-2.77255,0.03631082,0.87271
446.635,49.80147,-2.77617,0.03940942,0.87227
447.235,49.8603,-2.7802,0.04030297,0.87183
447.835,49.9193,-2.78684,0.04400156,0.87139
448.435,49.97803,-2.79026,0.04743089,0.87094
449.035,50.03689,-2.79563,0.0481014,0.8705
449.635,50.09575,-2.80061,0.05125472,0.87006
450.235,50.15463,-2.80375,0.05539778,0.86962
450.835,50.21342,-2.80944,0.0596463,0.86917
451.435,50.27228,-2.81376,0.05988063,0.86873
452.035,50.33133,-2.81875,0.06313854,0.86829
452.635,50.3906,-2.82462,0.0654854,0.86784
453.235,50.4499,-2.8293,0.06924533,0.8674
453.835,50.50889,-2.83372,0.0704044,0.86695
454.435,50.5678,-2.83863,0.0740388,0.86651
455.035,50.6267,-2.84434,0.07868904,0.86606
455.635,50.68565,-2.84975,0.0792769,0.86562
456.235,50.74472,-2.85463,0.08302981,0.86517
456.835,50.8037,-2.85769,0.08705959,0.86472
457.435,50.86255,-2.8638,0.08959875,0.86427
458.035,50.92131,-2.86846,0.08874818,0.86383
458.635,50.98007,-2.87451,0.09392722,0.86338
459.235,51.039,-2.88112,0.09816012,0.86293
459.835,51.0978,-2.88519,0.09982103,0.86248
460.435,51.15681,-2.89147,0.10111,0.86203
461.035,51.21573,-2.8955,0.10427,0.86158
461.635,51.27472,-2.90078,0.10521,0.86113
462.235,51.33372,-2.90736,0.10898,0.86068
462.835,51.39268,-2.91003,0.11081,0.86023
463.435,51.45162,-2.91535,0.11118,0.85978
464.035,51.51065,-2.91972,0.11526,0.85932
464.635,51.56965,-2.92496,0.11833,0.85887
465.235,51.6287,-2.93106,0.11864,0.85842
465.835,51.6875,-2.93601,0.1213,0.85796
466.435,51.74638,-2.942,0.11958,0.85751
467.035,51.80534,-2.94655,0.12226,0.85706
467.635,51.8643,-2.95286,0.12345,0.8566
468.235,51.92317,-2.95914,0.12486,0.85615
468.835,51.98212,-2.96221,0.12824,0.85569
469.435,52.04103,-2.9678,0.13002,0.85524
470.035,52.10017,-2.97333,0.13097,0.85478
470.635,52.15933,-2.97677,0.13062,0.85432
471.235,52.21844,-2.98211,0.13223,0.85387
471.835,52.27768,-2.98665,0.13468,0.85341
472.435,52.33652,-2.99134,0.13399,0.85295
473.035,52.39555,-2.9975,0.1353,0.85249
473.635,52.4544,-2.99992,0.13589,0.85204
474.235,52.5135,-3.00481,0.13571,0.85158
474.835,52.5726,-3.00932,0.13639,0.85112
475.435,52.6316,-3.01282,0.13791,0.85066
476.035,52.6907,-3.01846,0.13891,0.8502
476.635,52.7498,-3.02279,0.13958,0.84974
477.235,52.8087,-3.02592,0.13831,0.84928
477.835,52.8676,-3.03182,0.14094,0.84882
478.435,52.92661,-3.03611,0.14211,0.84835
479.035,52.98575,-3.03977,0.14107,0.84789
479.635,53.04489,-3.04348,0.14155,0.84743
480.235,53.10435,-3.04797,0.14004,0.84697
480.835,53.16352,-3.05206,0.14151,0.8465
481.435,53.2227,-3.0558,0.13995,0.84604
482.035,53.2818,-3.059,0.13993,0.84558
482.635,53.34095,-3.06506,0.14082,0.84511
483.235,53.40014,-3.06734,0.13911,0.84465
483.835,53.4593,-3.07097,0.13941,0.84418
484.435,53.5186,-3.07541,0.14007,0.84372
485.035,53.57775,-3.07648,0.14091,0.84325
485.635,53.6367,-3.08011,0.13913,0.84278
486.235,53.69596,-3.08242,0.13653,0.84232
486.835,53.7552,-3.08513,0.13515,0.84185
487.435,53.81469,-3.08861,0.13326,0.84138
488.035,53.8738,-3.09235,0.13267,0.84091
488.635,53.9329,-3.09474,0.13458,0.84045
489.235,53.99204,-3.09784,0.13264,0.83998
489.835,54.05126,-3.09971,0.13141,0.83951
490.435,54.11068,-3.10192,0.13009,0.83904
491.035,54.17004,-3.104,0.12949,0.83857
491.635,54.22922,-3.10675,0.12973,0.8381
492.235,54.2884,-3.1091,0.12924,0.83763
492.835,54.34769,-3.11147,0.12896,0.83716
493.435,54.4071,-3.11444,0.1292,0.83669
494.035,54.46612,-3.11727,0.1278,0.83621
494.635,54.5253,-3.11786,0.12911,0.83574
495.235,54.5846,-3.12065,0.12892,0.83527
495.835,54.644,-3.12185,0.13166,0.8348
496.435,54.7034,-3.12459,0.13081,0.83432
497.035,54.7627,-3.12746,0.13234,0.83385
497.635,54.82184,-3.12794,0.13324,0.83337
498.235,54.8812,-3.1299,0.1344,0.8329
498.835,54.9407,-3.13153,0.13525,0.83243
499.435,55.0001,-3.13277,0.13618,0.83195
500.035,55.0595,-3.13431,0.13717,0.83147
500.635,55.11851,-3.13564,0.13882,0.831
501.235,55.1779,-3.13771,0.14149,0.83052
501.835,55.2372,-3.13866,0.14103,0.83005
502.435,55.29639,-3.13979,0.14332,0.82957
503.035,55.3558,-3.14154,0.14364,0.82909
503.635,55.415,-3.14308,0.14753,0.82861
504.235,55.4746,-3.1443,0.14748,0.82813
504.835,55.5337,-3.14532,0.14833,0.82766
505.435,55.59315,-3.14558,0.14811,0.82718
506.035,55.65276,-3.14572,0.14952,0.8267
506.635,55.71213,-3.1487,0.15116,0.82622
507.235,55.7718,-3.14989,0.15063,0.82574
507.835,55.831,-3.15011,0.15385,0.82526
508.435,55.8903,-3.15119,0.15498,0.82478
509.035,55.9497,-3.15182,0.15689,0.8243
509.635,56.0091,-3.15407,0.15767,0.82381
510.235,56.06845,-3.15535,0.15841,0.82333
510.835,56.12769,-3.15407,0.15859,0.82285
511.435,56.1871,-3.15571,0.1596,0.82237
512.035,56.24658,-3.15664,0.1613,0.82188
512.635,56.30621,-3.15946,0.16229,0.8214
513.235,56.3659,-3.15945,0.16305,0.82092
513.835,56.4253,-3.15948,0.16303,0.82043
514.435,56.4847,-3.16213,0.16344,0.81995
515.035,56.54404,-3.16208,0.16264,0.81946
515.635,56.60346,-3.16208,0.16357,0.81898
516.235,56.663,-3.16339,0.16406,0.81849
516.835,56.7226,-3.1629,0.16499,0.81801
517.435,56.782,-3.16544,0.16592,0.81752
518.035,56.84125,-3.16629,0.16386,0.81703
518.635,56.90053,-3.16619,0.16622,0.81654
519.235,56.9593,-3.16746,0.16688,0.81606
519.835,57.01855,-3.16874,0.16836,0.81557
520.435,57.0779,-3.16845,0.16643,0.81508
521.035,57.1375,-3.16739,0.16706,0.81459
521.635,57.19712,-3.17042,0.16811,0.8141
522.235,57.2564,-3.17006,0.16713,0.81361
522.835,57.3154,-3.17025,0.17027,0.81312
523.435,57.3749,-3.17,0.16965,0.81263
524.035,57.4344,-3.17141,0.16727,0.81214
524.635,57.4941,-3.17246,0.17003,0.81165
525.235,57.5536,-3.17275,0.17125,0.81116
525.835,57.6131,-3.17405,0.17171,0.81067
526.435,57.67244,-3.17538,0.17063,0.81018
527.035,57.73199,-3.17576,0.17285,0.80969
527.635,57.79164,-3.17555,0.17355,0.80919
528.235,57.85154,-3.17679,0.17371,0.8087
528.835,57.9111,-3.17679,0.17393,0.80821
529.435,57.97035,-3.17679,0.17407,0.80771
530.035,58.0298,-3.17679,0.17651,0.80722
530.635,58.08953,-3.1781,0.17662,0.80673
531.235,58.14921,-3.17943,0.17696,0.80623
531.835,58.20909,-3.1791,0.17918,0.80574
532.435,58.2686,-3.17938,0.17783,0.80524
533.035,58.3283,-3.18008,0.18142,0.80474
533.635,58.38794,-3.18008,0.18295,0.80425
534.235,58.44761,-3.18001,0.18502,0.80375
534.835,58.5072,-3.1814,0.18529,0.80325
535.435,58.5667,-3.18277,0.18531,0.80276
536.035,58.6262,-3.18272,0.1887,0.80226
536.635,58.6859,-3.18337,0.19261,0.80176
537.235,58.74541,-3.18381,0.19369,0.80126
537.835,58.8052,-3.18404,0.19414,0.80077
538.435,58.8651,-3.18533,0.19197,0.80027
539.035,58.9249,-3.18537,0.19476,0.79977
539.635,58.9848,-3.18608,0.19541,0.79927
540.235,59.0445,-3.18599,0.19535,0.79877
540.835,59.10416,-3.18626,0.19686,0.79827
541.435,59.1639,-3.18744,0.19707,0.79777
542.035,59.2235,-3.18744,0.1963,0.79727
542.635,59.2832,-3.18842,0.19998,0.79676
543.235,59.3429,-3.18875,0.19975,0.79626
543.835,59.40235,-3.19007,0.19798,0.79576
544.435,59.4621,-3.19007,0.20002,0.79526
545.035,59.5217,-3.19144,0.201,0.79475
545.635,59.58174,-3.19027,0.20131,0.79425
546.235,59.6415,-3.19151,0.20419,0.79375
546.835,59.7013,-3.19282,0.20413,0.79324
547.435,59.76132,-3.19282,0.2044,0.79274
548.035,59.82085,-3.1927,0.20535,0.79224
548.635,59.8804,-3.19299,0.20558,0.79173
549.235,59.94001,-3.19392,0.20713,0.79123
549.835,59.99957,-3.19523,0.20818,0.79072
550.435,60.05973,-3.19395,0.20835,0.79021
551.035,60.1192,-3.19414,0.20892,0.78971
551.635,60.1789,-3.19546,0.21172,0.7892
552.235,60.2387,-3.19546,0.21162,0.78869
552.835,60.29844,-3.19546,0.21298,0.78819
553.435,60.35819,-3.19446,0.21193,0.78768
554.035,60.418,-3.19601,0.21274,0.78717
554.635,60.47764,-3.19766,0.21329,0.78666
555.235,60.53759,-3.19787,0.21448,0.78616
555.835,60.5974,-3.19897,0.21538,0.78565
556.435,60.65726,-3.19897,0.21614,0.78514
557.035,60.7172,-3.19977,0.21451,0.78463
557.635,60.77686,-3.20029,0.21546,0.78412
558.235,60.83665,-3.20081,0.21609,0.78361
558.835,60.8965,-3.20095,0.21819,0.7831
559.435,60.95616,-3.20094,0.21955,0.78259
560.035,61.01571,-3.20172,0.21926,0.78208
560.635,61.0753,-3.20304,0.21849,0.78156
561.235,61.135,-3.20203,0.2208,0.78105
561.835,61.19461,-3.20444,0.22173,0.78054
562.435,61.2547,-3.20577,0.21898,0.78003
563.035,61.3143,-3.20442,0.22086,0.77952
563.635,61.3739,-3.20442,0.22313,0.779
564.235,61.43365,-3.20631,0.22303,0.77849
564.835,61.4933,-3.20695,0.22519,0.77797
565.435,61.55305,-3.2079,0.22666,0.77746
566.035,61.6127,-3.20595,0.22825,0.77695
566.635,61.67253,-3.2066,0.22972,0.77643
567.235,61.73239,-3.20797,0.23187,0.77592
567.835,61.79215,-3.20655,0.23275,0.7754
568.435,61.8518,-3.20927,0.23445,0.77489
569.035,61.9114,-3.20984,0.23436,0.77437
569.635,61.9711,-3.21114,0.23651,0.77385
570.235,62.03069,-3.21116,0.23416,0.77334
570.835,62.0906,-3.21116,0.23792,0.77282
571.435,62.15,-3.21221,0.24001,0.7723
572.035,62.2099,-3.21247,0.24026,0.77178
572.635,62.27,-3.21214,0.24213,0.77127
573.235,62.32985,-3.21214,0.24399,0.77075
573.835,62.38986,-3.21346,0.2451,0.77023
574.435,62.44964,-3.21346,0.24332,0.76971
575.035,62.50923,-3.21445,0.24573,0.76919
575.635,62.56899,-3.21577,0.24786,0.76867
576.235,62.6287,-3.21514,0.24974,0.76815
576.835,62.68854,-3.21675,0.25051,0.76763
577.435,62.7485,-3.21676,0.25014,0.76711
578.035,62.8086,-3.2168,0.2503,0.76659
578.635,62.8683,-3.21779,0.25217,0.76607
579.235,62.92821,-3.21911,0.25246,0.76555
579.835,62.988,-3.21776,0.25513,0.76503
580.435,63.04792,-3.21774,0.25666,0.76451
581.035,63.10796,-3.21774,0.25614,0.76398
581.635,63.168,-3.21771,0.25966,0.76346
582.235,63.2282,-3.22022,0.26172,0.76294
582.835,63.2882,-3.2217,0.26182,0.76241
583.435,63.34814,-3.22169,0.2625,0.76189
584.035,63.40804,-3.22039,0.26249,0.76137
584.635,63.46801,-3.2217,0.26665,0.76084
585.235,63.52782,-3.22301,0.26626,0.76032
585.835,63.58785,-3.22214,0.26671,0.75979
586.435,63.6479,-3.22169,0.26804,0.75927
587.035,63.70802,-3.22444,0.26776,0.75874
587.635,63.7681,-3.22444,0.26746,0.75822
588.235,63.82792,-3.22582,0.26814,0.75769
588.835,63.88775,-3.22445,0.2693,0.75717
589.435,63.94764,-3.22455,0.27444,0.75664
590.035,64.0077,-3.22586,0.27162,0.75611
590.635,64.06783,-3.22521,0.27518,0.75559
591.235,64.12799,-3.22521,0.27373,0.75506
591.835,64.1883,-3.22612,0.27459,0.75453
592.435,64.24855,-3.22652,0.27868,0.754
593.035,64.30839,-3.22784,0.28166,0.75347
593.635,64.36848,-3.22652,0.28294,0.75295
594.235,64.4284,-3.22692,0.28416,0.75242
594.835,64.48844,-3.22784,0.28514,0.75189
595.435,64.5485,-3.22782,0.28598,0.75136
596.035,64.60843,-3.22916,0.28517,0.75083
596.635,64.66839,-3.22912,0.28588,0.7503
597.235,64.7285,-3.23015,0.28901,0.74977
597.835,64.78845,-3.23015,0.29141,0.74924
598.435,64.84838,-3.23125,0.29028,0.74871
599.035,64.9084,-3.23026,0.29189,0.74818
599.635,64.9684,-3.23158,0.29173,0.74764
600.235,65.0288,-3.23158,0.29509,0.74711
600.835,65.08895,-3.23158,0.2938,0.74658
601.435,65.1493,-3.23389,0.29373,0.74605
602.035,65.2094,-3.23279,0.29575,0.74552
602.635,65.26957,-3.23279,0.29444,0.74498
603.235,65.3297,-3.23411,0.29512,0.74445
603.835,65.3898,-3.23508,0.29615,0.74392
604.435,65.44999,-3.23509,0.29781,0.74338
605.035,65.51014,-3.23508,0.29752,0.74285
605.635,65.5701,-3.23509,0.29755,0.74231
606.235,65.6302,-3.23741,0.29723,0.74178
606.835,65.6903,-3.23739,0.30068,0.74125
607.435,65.7503,-3.23604,0.30117,0.74071
608.035,65.81042,-3.23617,0.29987,0.74017
608.635,65.8707,-3.2374,0.30138,0.73964
609.235,65.93058,-3.2387,0.30081,0.7391
609.835,65.99069,-3.2374,0.30183,0.73857
610.435,66.05081,-3.2374,0.29832,0.73803
611.035,66.11102,-3.24,0.29897,0.73749
611.635,66.17107,-3.24002,0.30258,0.73696
612.235,66.23119,-3.24006,0.29899,0.73642
612.835,66.29122,-3.24,0.2987,0.73588
613.435,66.35121,-3.23921,0.29728,0.73534
614.035,66.41116,-3.24083,0.29802,0.73481
614.635,66.47118,-3.24145,0.29703,0.73427
615.235,66.53126,-3.24088,0.29593,0.73373
615.835,66.59146,-3.24146,0.29519,0.73319
616.435,66.65141,-3.24146,0.2941,0.73265
617.035,66.71134,-3.24274,0.29209,0.73211
617.635,66.7716,-3.24284,0.28782,0.73157
618.235,66.8318,-3.24416,0.28671,0.73103
618.835,66.89185,-3.24322,0.2847,0.73049
619.435,66.95185,-3.24452,0.28383,0.72995
620.035,67.01171,-3.24417,0.28146,0.72941
620.635,67.0715,-3.2442,0.27692,0.72887
621.235,67.13154,-3.2442,0.27584,0.72833
621.835,67.19155,-3.2441,0.27218,0.72779
622.435,67.2517,-3.24284,0.2729,0.72725
623.035,67.3117,-3.24356,0.27255,0.7267
623.635,67.3715,-3.24551,0.27025,0.72616
624.235,67.4315,-3.2442,0.26473,0.72562
624.835,67.49141,-3.2442,0.26316,0.72508
625.435,67.5513,-3.24554,0.25792,0.72453
626.035,67.6113,-3.24515,0.25183,0.72399
626.635,67.67138,-3.24694,0.24997,0.72345
627.235,67.7315,-3.24563,0.2459,0.7229
627.835,67.79143,-3.24563,0.24364,0.72236
628.435,67.851,-3.24563,0.24001,0.72181
629.035,67.91107,-3.24694,0.2393,0.72127
629.635,67.9713,-3.2455,0.23527,0.72072
630.235,68.03184,-3.24552,0.23461,0.72018
630.835,68.09221,-3.24554,0.23039,0.71963
631.435,68.15247,-3.24684,0.23045,0.71909
632.035,68.21274,-3.24616,0.23012,0.71854
632.635,68.27287,-3.24642,0.22906,0.718
633.235,68.333,-3.24815,0.22551,0.71745
633.835,68.39319,-3.24815,0.22197,0.7169
634.435,68.45344,-3.24836,0.22011,0.71636
635.035,68.51329,-3.24947,0.22081,0.71581
635.635,68.57339,-3.24933,0.22076,0.71526
636.235,68.63345,-3.2489,0.21808,0.71471
636.835,68.69395,-3.24948,0.219,0.71417
637.435,68.75407,-3.24947,0.2188,0.71362
638.035,68.8142,-3.24947,0.2152,0.71307
638.635,68.87444,-3.24947,0.2131,0.71252
639.235,68.93475,-3.24955,0.21111,0.71197
639.835,68.9953,-3.25079,0.21081,0.71142
640.435,69.05545,-3.25079,0.20854,0.71088
641.035,69.11583,-3.25079,0.20619,0.71033
641.635,69.17609,-3.25099,0.20611,0.70978
642.235,69.23626,-3.25145,0.20665,0.70923
642.835,69.29641,-3.25076,0.204,0.70868
643.435,69.35672,-3.24946,0.20667,0.70813
644.035,69.41688,-3.24939,0.2061,0.70758
644.635,69.47729,-3.24981,0.20442,0.70702
645.235,69.53761,-3.25058,0.20479,0.70647
645.835,69.598,-3.25056,0.20393,0.70592
646.435,69.6584,-3.25056,0.20389,0.70537
647.035,69.71855,-3.24996,0.20243,0.70482
647.635,69.7787,-3.24925,0.20036,0.70427
648.235,69.83865,-3.24922,0.2011,0.70372
648.835,69.8987,-3.25122,0.20344,0.70316
649.435,69.95859,-3.25188,0.20172,0.70261
649.735,69.98956,-3.2529,0.20315,0.70233