File: 01_Data/Pipe_Heat_Cable/STA/N2/10K_min/Pipe_Heat_Cable_STA_N2_10KData_220728_R3.csv
##Temp./Â°C,Time/min,Mass loss(subtr.2)/mg,DSC(subtr.2)/(mW/mg),Sensit./(uV/mW)
49.461,10.01,0.02449,0.0005293566,1.07024
49.961,10.6988,0.02574089,0.02944484,1.07011
50.461,10.87522,0.02727579,0.04859538,1.06997
50.961,11.00533,0.0281434,0.07204836,1.06983
51.461,11.11449,0.0268877,0.08696243,1.06969
51.961,11.21081,0.02774849,0.10107,1.06956
52.461,11.29777,0.02760048,0.11223,1.06942
52.961,11.37902,0.0274696,0.12517,1.06928
53.461,11.4559,0.02868556,0.13449,1.06914
53.961,11.52908,0.02744642,0.14177,1.069
54.461,11.59956,0.0273631,0.14994,1.06886
54.961,11.6671,0.02744673,0.15553,1.06872
55.461,11.73302,0.03003022,0.16436,1.06858
55.961,11.79701,0.02948927,0.17008,1.06844
56.461,11.85999,0.02996954,0.17642,1.0683
56.961,11.9213,0.03065818,0.181,1.06816
57.461,11.98217,0.02927995,0.18587,1.06802
57.961,12.04223,0.0288129,0.18948,1.06788
58.461,12.10052,0.02919285,0.19403,1.06774
58.961,12.15926,0.03070043,0.19679,1.06759
59.461,12.21694,0.03066574,0.20045,1.06745
59.961,12.27492,0.03125904,0.20414,1.06731
60.461,12.3326,0.03248577,0.20815,1.06717
60.961,12.38926,0.03100438,0.21027,1.06702
61.461,12.44565,0.0322853,0.21314,1.06688
61.961,12.5013,0.03095895,0.21486,1.06674
62.461,12.55669,0.03098473,0.21734,1.06659
62.961,12.6121,0.03094439,0.21913,1.06645
63.461,12.66724,0.0310156,0.22026,1.06631
63.961,12.7224,0.03049537,0.22404,1.06616
64.461,12.7773,0.02977268,0.22444,1.06602
64.961,12.83194,0.03095038,0.22658,1.06587
65.461,12.88619,0.03103883,0.22938,1.06573
65.961,12.94053,0.03035291,0.22879,1.06558
66.461,12.9946,0.02963612,0.23088,1.06543
66.961,13.04852,0.03098598,0.23196,1.06529
67.461,13.10238,0.03163166,0.23264,1.06514
67.961,13.1562,0.0309603,0.23523,1.065
68.461,13.21003,0.03096,0.23427,1.06485
68.961,13.26375,0.03094051,0.23555,1.0647
69.461,13.31705,0.03101973,0.23943,1.06456
69.961,13.3702,0.03229204,0.24041,1.06441
70.461,13.42324,0.03087444,0.24065,1.06426
70.961,13.47611,0.03097024,0.24024,1.06411
71.461,13.5293,0.03223459,0.23927,1.06396
71.961,13.58216,0.03226996,0.24119,1.06381
72.461,13.63485,0.03211122,0.24093,1.06367
72.961,13.68721,0.03083941,0.24227,1.06352
73.461,13.73956,0.03217052,0.24371,1.06337
73.961,13.79216,0.03221153,0.24476,1.06322
74.461,13.8447,0.03167372,0.24471,1.06307
74.961,13.8977,0.03217072,0.24549,1.06292
75.461,13.94996,0.03119191,0.24664,1.06277
75.961,14.0021,0.03216925,0.24521,1.06262
76.461,14.05406,0.03196534,0.24691,1.06247
76.961,14.1058,0.03278988,0.24833,1.06231
77.461,14.15775,0.03440179,0.24712,1.06216
77.961,14.2094,0.03436999,0.24736,1.06201
78.461,14.26111,0.03437,0.24814,1.06186
78.961,14.31277,0.03437409,0.24948,1.06171
79.461,14.36426,0.03298553,0.24974,1.06155
79.961,14.4157,0.03369886,0.25034,1.0614
80.461,14.46713,0.03437138,0.25096,1.06125
80.961,14.5183,0.03349347,0.25127,1.06109
81.461,14.56959,0.03237849,0.25131,1.06094
81.961,14.6206,0.03371241,0.25335,1.06079
82.461,14.6716,0.03502874,0.2537,1.06063
82.961,14.72267,0.03503,0.2542,1.06048
83.461,14.773,0.03503,0.2553,1.06032
83.961,14.8239,0.03503352,0.25478,1.06017
84.461,14.8745,0.03600752,0.25563,1.06001
84.961,14.92494,0.03465138,0.25548,1.05986
85.461,14.97606,0.03466673,0.25703,1.0597
85.961,15.02625,0.03491764,0.25687,1.05955
86.461,15.0769,0.03504498,0.25766,1.05939
86.961,15.12737,0.03546339,0.25857,1.05923
87.461,15.17769,0.03633955,0.25781,1.05908
87.961,15.2282,0.03633105,0.25834,1.05892
88.461,15.2783,0.03633609,0.26037,1.05876
88.961,15.3285,0.03634001,0.25912,1.05861
89.461,15.3785,0.03633226,0.26022,1.05845
89.961,15.4282,0.03633602,0.26055,1.05829
90.461,15.47835,0.03634124,0.26,1.05813
90.961,15.52798,0.03769161,0.26161,1.05797
91.461,15.5777,0.03633874,0.26357,1.05781
91.961,15.62747,0.03560789,0.26429,1.05766
92.461,15.67705,0.03361253,0.26524,1.0575
92.961,15.72674,0.03563348,0.26416,1.05734
93.461,15.7765,0.03622981,0.26411,1.05718
93.961,15.8261,0.03623,0.26677,1.05702
94.461,15.8756,0.03623004,0.26885,1.05686
94.961,15.92521,0.03615814,0.26798,1.0567
95.461,15.9746,0.03491358,0.27132,1.05653
95.961,16.02395,0.03620429,0.27065,1.05637
96.461,16.07328,0.03622995,0.27276,1.05621
96.961,16.12265,0.03628022,0.27259,1.05605
97.461,16.17183,0.0349017,0.27247,1.05589
97.961,16.2212,0.03623218,0.27362,1.05573
98.461,16.27056,0.03623256,0.27539,1.05556
98.961,16.31983,0.03755019,0.27485,1.0554
99.461,16.36909,0.03755006,0.27553,1.05524
99.961,16.4183,0.03747298,0.27474,1.05507
100.461,16.46694,0.03854212,0.27678,1.05491
100.961,16.51609,0.03706134,0.27804,1.05475
101.461,16.5652,0.03747047,0.27983,1.05458
101.961,16.61409,0.03618982,0.27915,1.05442
102.461,16.66339,0.03743811,0.28191,1.05425
102.961,16.71239,0.03746855,0.28317,1.05409
103.461,16.7613,0.03644927,0.28332,1.05392
103.961,16.81036,0.03645084,0.28313,1.05376
104.461,16.85949,0.0377644,0.28481,1.05359
104.961,16.90827,0.03738994,0.28456,1.05342
105.461,16.95713,0.03876265,0.28616,1.05326
105.961,17.006,0.03736303,0.28621,1.05309
106.461,17.05479,0.03743961,0.28588,1.05292
106.961,17.1039,0.0378209,0.28512,1.05276
107.461,17.15308,0.03743628,0.28763,1.05259
107.961,17.20177,0.03743983,0.29033,1.05242
108.461,17.25092,0.03750092,0.28627,1.05225
108.961,17.2998,0.03876001,0.28914,1.05209
109.461,17.34881,0.03877014,0.28793,1.05192
109.961,17.39798,0.03906766,0.28999,1.05175
110.461,17.44686,0.03908251,0.28931,1.05158
110.961,17.4956,0.03875798,0.29156,1.05141
111.461,17.5445,0.03873781,0.29148,1.05124
111.961,17.59323,0.03745407,0.29119,1.05107
112.461,17.64215,0.03827853,0.29477,1.0509
112.961,17.6911,0.03876014,0.29354,1.05073
113.461,17.73977,0.03876,0.29588,1.05056
113.961,17.78877,0.03876027,0.29628,1.05039
114.461,17.83761,0.03801374,0.29497,1.05022
114.961,17.8865,0.03594104,0.29656,1.05005
115.461,17.93499,0.03591864,0.29778,1.04988
115.961,17.9838,0.03733047,0.29825,1.0497
116.461,18.0324,0.03733014,0.2977,1.04953
116.961,18.08117,0.0377438,0.29879,1.04936
117.461,18.1301,0.03963989,0.30058,1.04919
117.961,18.1789,0.03964,0.29991,1.04901
118.461,18.22775,0.03964,0.30238,1.04884
118.961,18.27638,0.03963998,0.30097,1.04867
119.461,18.3249,0.03965289,0.30116,1.04849
119.961,18.37346,0.04094106,0.30245,1.04832
120.461,18.42192,0.03962452,0.29803,1.04814
120.961,18.4706,0.03962948,0.30063,1.04797
121.461,18.51912,0.04228101,0.30082,1.04779
121.961,18.56779,0.04226998,0.30016,1.04762
122.461,18.61632,0.04225553,0.29958,1.04744
122.961,18.66516,0.04237199,0.29871,1.04727
123.461,18.7137,0.04226984,0.29955,1.04709
123.961,18.76204,0.04227017,0.30037,1.04692
124.461,18.81062,0.04263336,0.29786,1.04674
124.961,18.8591,0.04225905,0.29952,1.04656
125.461,18.9076,0.0422599,0.3009,1.04638
125.961,18.95626,0.0412721,0.30067,1.04621
126.461,19.00477,0.04094952,0.30225,1.04603
126.961,19.05293,0.04095,0.30196,1.04585
127.461,19.1009,0.04095,0.30291,1.04567
127.961,19.14909,0.04094977,0.30074,1.04549
128.461,19.19744,0.0416869,0.30399,1.04532
128.961,19.246,0.04217197,0.30265,1.04514
129.461,19.29467,0.0409753,0.30446,1.04496
129.961,19.343,0.04226816,0.30457,1.04478
130.461,19.39128,0.04227001,0.30523,1.0446
130.961,19.43956,0.04227089,0.30541,1.04442
131.461,19.48784,0.04092767,0.30498,1.04424
131.961,19.53623,0.04095006,0.30392,1.04406
132.461,19.58449,0.04094957,0.30531,1.04388
132.961,19.63279,0.04050019,0.30577,1.04369
133.461,19.68101,0.03995866,0.30796,1.04351
133.961,19.72948,0.03996004,0.30807,1.04333
134.461,19.77818,0.04113845,0.30791,1.04315
134.961,19.8266,0.04094861,0.30829,1.04297
135.461,19.87521,0.04095007,0.30871,1.04278
135.961,19.92341,0.04091459,0.30809,1.0426
136.461,19.97155,0.0422705,0.31111,1.04242
136.961,20.01988,0.04357937,0.31166,1.04224
137.461,20.06814,0.04226938,0.31183,1.04205
137.961,20.1164,0.04225997,0.31208,1.04187
138.461,20.1648,0.04226,0.30947,1.04168
138.961,20.21305,0.04226,0.31145,1.0415
139.461,20.2612,0.04225992,0.31292,1.04131
139.961,20.3094,0.04223823,0.31159,1.04113
140.461,20.35781,0.04291596,0.31144,1.04094
140.961,20.40605,0.04195282,0.31061,1.04076
141.461,20.45431,0.04193998,0.31259,1.04057
141.961,20.5025,0.04194003,0.31257,1.04039
142.461,20.5506,0.04193582,0.31247,1.0402
142.961,20.59894,0.04137619,0.31206,1.04001
143.461,20.64702,0.04095008,0.31339,1.03983
143.961,20.69546,0.04095013,0.31018,1.03964
144.461,20.7435,0.0416354,0.31373,1.03945
144.961,20.79159,0.04227035,0.3152,1.03926
145.461,20.83952,0.04227001,0.31576,1.03907
145.961,20.88738,0.04211272,0.31627,1.03889
146.461,20.93529,0.04095282,0.31555,1.0387
146.961,20.9833,0.04101533,0.31586,1.03851
147.461,21.03132,0.04062371,0.31654,1.03832
147.961,21.079,0.04062999,0.31749,1.03813
148.461,21.12698,0.04062982,0.3173,1.03794
148.961,21.17504,0.04079622,0.31768,1.03775
149.461,21.22306,0.04096277,0.3182,1.03756
149.961,21.27143,0.04192935,0.31785,1.03737
150.461,21.31956,0.04193995,0.31884,1.03718
150.961,21.3675,0.04098673,0.31816,1.03699
151.461,21.41538,0.04193795,0.32006,1.0368
151.961,21.46324,0.04194,0.3196,1.0366
152.461,21.51118,0.04194011,0.32081,1.03641
152.961,21.55911,0.0406782,0.31826,1.03622
153.461,21.607,0.0406197,0.32076,1.03603
153.961,21.65493,0.04062,0.32216,1.03583
154.461,21.70296,0.04061984,0.32221,1.03564
154.961,21.75091,0.04065215,0.32248,1.03545
155.461,21.7988,0.0419752,0.32296,1.03525
155.961,21.84665,0.04059538,0.32465,1.03506
156.461,21.89441,0.04062005,0.32306,1.03487
156.961,21.94246,0.04061816,0.32269,1.03467
157.461,21.9903,0.04194882,0.32353,1.03448
157.961,22.03826,0.04197814,0.32361,1.03428
158.461,22.08615,0.04061709,0.32328,1.03409
158.961,22.13387,0.04062011,0.32371,1.03389
159.461,22.18159,0.04109875,0.32602,1.03369
159.961,22.2293,0.04193972,0.32445,1.0335
160.461,22.27705,0.04203335,0.3271,1.0333
160.961,22.3249,0.04061952,0.32548,1.0331
161.461,22.37279,0.04062008,0.32571,1.03291
161.961,22.42076,0.04060707,0.32592,1.03271
162.461,22.4686,0.04192738,0.3277,1.03251
162.961,22.51661,0.04125797,0.32766,1.03231
163.461,22.5646,0.04062511,0.32553,1.03212
163.961,22.61231,0.0406137,0.32656,1.03192
164.461,22.66007,0.04096003,0.33002,1.03172
164.961,22.70788,0.0402709,0.32829,1.03152
165.461,22.7557,0.04030008,0.32819,1.03132
165.961,22.80366,0.04030001,0.32968,1.03112
166.461,22.85154,0.04029797,0.33126,1.03092
166.961,22.8995,0.04160826,0.33,1.03072
167.461,22.94741,0.04161646,0.33096,1.03052
167.961,22.99532,0.04028375,0.33006,1.03032
168.461,23.04326,0.04029455,0.33172,1.03012
168.961,23.09101,0.04094658,0.3314,1.02992
169.461,23.13878,0.04094999,0.33191,1.02972
169.961,23.1865,0.04095,0.33202,1.02951
170.461,23.2343,0.04094973,0.33099,1.02931
170.961,23.2822,0.04046452,0.33133,1.02911
171.461,23.33005,0.03995999,0.33239,1.02891
171.961,23.37779,0.03996,0.33417,1.0287
172.461,23.4258,0.03996,0.33246,1.0285
172.961,23.47365,0.03995964,0.33509,1.0283
173.461,23.52153,0.04134552,0.33427,1.02809
173.961,23.56981,0.04128002,0.33604,1.02789
174.461,23.61758,0.04128,0.33721,1.02768
174.961,23.66536,0.04128205,0.33705,1.02748
175.461,23.71303,0.04248527,0.33907,1.02727
175.961,23.76089,0.04226993,0.33683,1.02707
176.461,23.80866,0.04227,0.33896,1.02686
176.961,23.85649,0.04227,0.34094,1.02666
177.461,23.9043,0.04227,0.34013,1.02645
177.961,23.95203,0.04227,0.33999,1.02625
178.461,23.99981,0.04227,0.34178,1.02604
178.961,24.0474,0.04225905,0.34471,1.02583
179.461,24.09509,0.04027933,0.34515,1.02562
179.961,24.1431,0.04029002,0.34597,1.02542
180.461,24.19083,0.04029,0.34749,1.02521
180.961,24.23863,0.04029002,0.34776,1.025
181.461,24.2864,0.04026395,0.34701,1.02479
181.961,24.3341,0.03897178,0.34846,1.02458
182.461,24.38184,0.03897,0.34877,1.02438
182.961,24.42946,0.03897,0.35036,1.02417
183.461,24.4774,0.03897,0.35146,1.02396
183.961,24.5252,0.0389703,0.35069,1.02375
184.461,24.57293,0.03882087,0.34928,1.02354
184.961,24.62079,0.0393493,0.35064,1.02333
185.461,24.66845,0.03931015,0.3521,1.02312
185.961,24.71598,0.03931001,0.35129,1.0229
186.461,24.76369,0.03930302,0.35194,1.02269
186.961,24.81137,0.03897841,0.35162,1.02248
187.461,24.85888,0.03898,0.35151,1.02227
187.961,24.90651,0.03898,0.35153,1.02206
188.461,24.95425,0.03897996,0.35031,1.02185
188.961,25.00207,0.03899442,0.35182,1.02163
189.461,25.04981,0.03864995,0.35057,1.02142
189.961,25.09753,0.03819396,0.34951,1.02121
190.461,25.14524,0.03733091,0.34639,1.02099
190.961,25.19281,0.03733,0.34868,1.02078
191.461,25.24045,0.03733,0.34675,1.02056
191.961,25.28794,0.03733,0.34514,1.02035
192.461,25.33526,0.03733,0.34504,1.02014
192.961,25.38254,0.03733,0.34522,1.01992
193.461,25.4301,0.03733,0.34392,1.01971
193.961,25.47772,0.03732844,0.34482,1.01949
194.461,25.5252,0.03603376,0.34474,1.01927
194.961,25.57293,0.03600997,0.34361,1.01906
195.461,25.62056,0.03601,0.3408,1.01884
195.961,25.66806,0.03601,0.339,1.01862
196.461,25.71557,0.03601,0.33793,1.01841
196.961,25.7632,0.03601,0.34017,1.01819
197.461,25.81079,0.03601,0.33852,1.01797
197.961,25.85826,0.03601,0.33932,1.01776
198.461,25.90587,0.03601,0.33546,1.01754
198.961,25.95351,0.03601,0.33634,1.01732
199.461,26.00106,0.03601,0.33556,1.0171
199.961,26.04872,0.03600992,0.33602,1.01688
200.461,26.0959,0.03506058,0.3347,1.01666
200.961,26.143,0.03469953,0.33686,1.01644
201.461,26.19037,0.0347,0.33562,1.01622
201.961,26.2381,0.03471074,0.33304,1.016
202.461,26.2859,0.03599877,0.33432,1.01578
202.961,26.33418,0.03601151,0.33481,1.01556
203.461,26.38177,0.03712881,0.3337,1.01534
203.961,26.4293,0.03602329,0.33303,1.01512
204.461,26.4768,0.03535245,0.33395,1.0149
204.961,26.52429,0.03470386,0.33292,1.01467
205.461,26.57181,0.03567757,0.33384,1.01445
205.961,26.6194,0.03568999,0.33405,1.01423
206.461,26.6669,0.03569007,0.33299,1.01401
206.961,26.7144,0.0356162,0.33272,1.01378
207.461,26.7618,0.03305292,0.33126,1.01356
207.961,26.8091,0.03330895,0.33135,1.01334
208.461,26.8567,0.03436692,0.33125,1.01311
208.961,26.90434,0.0331235,0.33064,1.01289
209.461,26.9519,0.03174088,0.3307,1.01266
209.961,26.9998,0.03172959,0.33073,1.01244
210.461,27.0472,0.03307957,0.32997,1.01221
210.961,27.0948,0.03304993,0.33108,1.01199
211.461,27.14231,0.03305236,0.33237,1.01176
211.961,27.1899,0.03040895,0.3312,1.01154
212.461,27.23759,0.03041005,0.33086,1.01131
212.961,27.28525,0.03041,0.33151,1.01108
213.461,27.33278,0.03041,0.33093,1.01086
213.961,27.3805,0.03041,0.33128,1.01063
214.461,27.42825,0.03041003,0.33125,1.0104
214.961,27.47587,0.03038427,0.33196,1.01017
215.461,27.5236,0.02909193,0.33334,1.00995
215.961,27.5713,0.02909465,0.33063,1.00972
216.461,27.6188,0.02974581,0.33215,1.00949
216.961,27.6664,0.02975002,0.33112,1.00926
217.461,27.7139,0.02975,0.33123,1.00903
217.961,27.7616,0.02975,0.3313,1.0088
218.461,27.80929,0.02975018,0.33331,1.00857
218.961,27.8571,0.02837318,0.33301,1.00834
219.461,27.90492,0.02843059,0.33233,1.00811
219.961,27.9525,0.02823597,0.33432,1.00788
220.461,28.00007,0.02711,0.33659,1.00765
220.961,28.0477,0.02711028,0.33499,1.00742
221.461,28.09505,0.02780726,0.33476,1.00719
221.961,28.1427,0.0280865,0.33467,1.00695
222.461,28.19043,0.02679045,0.33466,1.00672
222.961,28.23791,0.02678918,0.3357,1.00649
223.461,28.28578,0.0256863,0.33514,1.00626
223.961,28.3335,0.02547839,0.3343,1.00602
224.461,28.3812,0.02417429,0.33472,1.00579
224.961,28.42878,0.02416003,0.33411,1.00556
225.461,28.47658,0.02415987,0.33446,1.00532
225.961,28.5241,0.02423723,0.33539,1.00509
226.461,28.5717,0.02350886,0.3342,1.00485
226.961,28.61952,0.02349001,0.3361,1.00462
227.461,28.667,0.02349,0.33738,1.00438
227.961,28.71443,0.02348956,0.33471,1.00415
228.461,28.762,0.0225173,0.33714,1.00391
228.961,28.8095,0.02086015,0.3377,1.00368
229.461,28.85718,0.01949435,0.33752,1.00344
229.961,28.90492,0.01954841,0.33788,1.0032
230.461,28.9528,0.01837626,0.33774,1.00297
230.961,29.00044,0.01822986,0.339,1.00273
231.461,29.0481,0.01742251,0.339,1.00249
231.961,29.0957,0.0169101,0.3388,1.00226
232.461,29.14312,0.01691479,0.33819,1.00202
232.961,29.1906,0.01592944,0.33795,1.00178
233.461,29.23807,0.01591255,0.33869,1.00154
233.961,29.2855,0.0155883,0.33807,1.0013
234.461,29.3331,0.01417946,0.33891,1.00106
234.961,29.38056,0.01295788,0.33796,1.00082
235.461,29.42802,0.01295976,0.3389,1.00058
235.961,29.4757,0.01212465,0.34201,1.00034
236.461,29.5231,0.0103191,0.33924,1.0001
236.961,29.5707,0.01030872,0.33992,0.99986
237.461,29.6182,0.01039043,0.34044,0.99962
237.961,29.6658,0.008920901,0.34015,0.99938
238.461,29.7134,0.00758349,0.33971,0.99914
238.961,29.76095,0.008902444,0.34077,0.9989
239.461,29.80855,0.00756702,0.34147,0.99865
239.961,29.85612,0.00625968,0.34244,0.99841
240.461,29.90352,0.004960976,0.34324,0.99817
240.961,29.95112,0.006263497,0.3425,0.99792
241.461,29.9987,0.004916306,0.34374,0.99768
241.961,30.04607,0.004914114,0.34615,0.99744
242.461,30.09375,0.00362728,0.34642,0.99719
242.961,30.1414,0.001348,0.34988,0.99695
243.461,30.18889,4.012771e-05,0.35323,0.9967
243.961,30.2365,6.720707e-06,0.35325,0.99646
244.461,30.28407,-0.00132624,0.352,0.99621
244.961,30.3317,-0.00269952,0.3514,0.99597
245.461,30.37922,-0.003224714,0.35116,0.99572
245.961,30.4268,-0.004614172,0.35105,0.99548
246.461,30.47427,-0.004754492,0.34951,0.99523
246.961,30.52177,-0.00589666,0.34808,0.99498
247.461,30.5693,-0.007248866,0.34814,0.99474
247.961,30.61692,-0.00870661,0.34983,0.99449
248.461,30.6644,-0.01138529,0.3505,0.99424
248.961,30.71195,-0.01280768,0.35121,0.99399
249.461,30.7597,-0.01403509,0.3512,0.99375
249.961,30.8074,-0.01454651,0.35112,0.9935
250.461,30.8551,-0.01616393,0.3524,0.99325
250.961,30.903,-0.01707157,0.3517,0.993
251.461,30.95048,-0.01845106,0.35286,0.99275
251.961,30.998,-0.02036892,0.35303,0.9925
252.461,31.04552,-0.02253093,0.35252,0.99225
252.961,31.0931,-0.0241516,0.35381,0.992
253.461,31.1407,-0.02716283,0.35392,0.99175
253.961,31.18845,-0.02712021,0.35378,0.9915
254.461,31.2362,-0.0309245,0.35436,0.99125
254.961,31.28374,-0.03289947,0.35275,0.991
255.461,31.3313,-0.03348661,0.35223,0.99074
255.961,31.3788,-0.0344138,0.35439,0.99049
256.461,31.42615,-0.03684303,0.35485,0.99024
256.961,31.4736,-0.03871511,0.35503,0.98999
257.461,31.52113,-0.04199004,0.35515,0.98973
257.961,31.56868,-0.04450446,0.35548,0.98948
258.461,31.61641,-0.04628638,0.35614,0.98923
258.961,31.66419,-0.04911293,0.35631,0.98897
259.461,31.71197,-0.05142204,0.35876,0.98872
259.961,31.76,-0.05324027,0.35898,0.98847
260.461,31.8076,-0.05526863,0.35796,0.98821
260.961,31.85523,-0.05810138,0.35859,0.98796
261.461,31.9027,-0.06054587,0.35966,0.9877
261.961,31.9502,-0.06268313,0.3634,0.98744
262.461,31.99772,-0.06596422,0.36302,0.98719
262.961,32.04541,-0.06811346,0.3641,0.98693
263.461,32.09295,-0.07094929,0.36316,0.98668
263.961,32.1405,-0.07508421,0.36816,0.98642
264.461,32.18797,-0.07820059,0.36934,0.98616
264.961,32.23537,-0.08237174,0.3714,0.9859
265.461,32.28302,-0.08533639,0.37372,0.98565
265.961,32.33028,-0.08774066,0.37581,0.98539
266.461,32.37744,-0.0913041,0.37842,0.98513
266.961,32.4252,-0.09371864,0.38085,0.98487
267.461,32.47282,-0.09706229,0.38385,0.98461
267.961,32.52046,-0.10073,0.38676,0.98435
268.461,32.5685,-0.10571,0.38886,0.98409
268.961,32.61625,-0.11052,0.39389,0.98383
269.461,32.66381,-0.11668,0.39804,0.98357
269.961,32.71143,-0.12028,0.39854,0.98331
270.461,32.75926,-0.12316,0.40496,0.98305
270.961,32.80708,-0.12906,0.40868,0.98279
271.461,32.85485,-0.13582,0.41085,0.98253
271.961,32.90255,-0.13923,0.41419,0.98227
272.461,32.9502,-0.14626,0.41985,0.98201
272.961,32.99767,-0.1529,0.42532,0.98174
273.461,33.04525,-0.15893,0.42785,0.98148
273.961,33.09305,-0.1657,0.43335,0.98122
274.461,33.14069,-0.17319,0.43831,0.98095
274.961,33.1886,-0.17781,0.44114,0.98069
275.461,33.2364,-0.18453,0.44892,0.98043
275.961,33.28399,-0.19104,0.45608,0.98016
276.461,33.33175,-0.19869,0.46051,0.9799
276.961,33.37948,-0.20663,0.46615,0.97963
277.461,33.42722,-0.2153,0.47184,0.97937
277.961,33.47503,-0.22546,0.48207,0.9791
278.461,33.5229,-0.23354,0.48638,0.97884
278.961,33.57079,-0.24294,0.49532,0.97857
279.461,33.6186,-0.24971,0.50246,0.97831
279.961,33.66638,-0.26168,0.51329,0.97804
280.461,33.71414,-0.27216,0.52362,0.97777
280.961,33.76188,-0.282,0.532,0.9775
281.461,33.80957,-0.29279,0.54509,0.97724
281.961,33.85718,-0.30434,0.55707,0.97697
282.461,33.9048,-0.3155,0.57323,0.9767
282.961,33.95245,-0.32759,0.58853,0.97643
283.461,34.0001,-0.33992,0.60674,0.97616
283.961,34.048,-0.35373,0.62631,0.9759
284.461,34.09536,-0.36837,0.64802,0.97563
284.961,34.143,-0.38212,0.66978,0.97536
285.461,34.19095,-0.3979,0.69975,0.97509
285.961,34.23894,-0.41557,0.72868,0.97482
286.461,34.2873,-0.43446,0.75899,0.97455
286.961,34.3356,-0.45368,0.79815,0.97428
287.461,34.38371,-0.47211,0.84478,0.974
287.961,34.43185,-0.49222,0.89887,0.97373
288.461,34.4799,-0.51516,0.95842,0.97346
288.961,34.5281,-0.53948,1.01787,0.97319
289.461,34.57636,-0.56588,1.08273,0.97292
289.961,34.62444,-0.59404,1.14505,0.97264
290.461,34.67243,-0.62284,1.20624,0.97237
290.961,34.72043,-0.65492,1.2687,0.9721
291.461,34.76887,-0.68939,1.33212,0.97182
291.961,34.8175,-0.72828,1.39169,0.97155
292.461,34.8665,-0.767,1.44832,0.97128
292.961,34.9155,-0.80734,1.50105,0.971
293.461,34.96437,-0.8493,1.53827,0.97073
293.961,35.01296,-0.89394,1.56618,0.97045
294.461,35.06151,-0.93883,1.58947,0.97018
294.961,35.11013,-0.9843,1.60771,0.9699
295.461,35.15882,-1.02957,1.61319,0.96963
295.961,35.20743,-1.0746,1.60913,0.96935
296.461,35.256,-1.1231,1.59968,0.96907
296.961,35.3044,-1.16842,1.58133,0.9688
297.461,35.35263,-1.21159,1.56014,0.96852
297.961,35.40098,-1.25603,1.53944,0.96824
298.461,35.44911,-1.2999,1.5217,0.96796
298.961,35.49732,-1.34767,1.5001,0.96769
299.461,35.54534,-1.39051,1.46531,0.96741
299.961,35.59339,-1.43111,1.42529,0.96713
300.461,35.6413,-1.47138,1.37711,0.96685
300.961,35.68934,-1.51142,1.34352,0.96657
301.461,35.73723,-1.55059,1.30423,0.96629
301.961,35.78526,-1.58709,1.25056,0.96601
302.461,35.8331,-1.62255,1.21181,0.96573
302.961,35.88068,-1.65732,1.1777,0.96545
303.461,35.92832,-1.69193,1.1394,0.96517
303.961,35.97615,-1.72529,1.09807,0.96489
304.461,36.0238,-1.75692,1.06196,0.96461
304.961,36.07141,-1.78657,1.02744,0.96432
305.461,36.1192,-1.81765,0.99068,0.96404
305.961,36.16675,-1.84424,0.95373,0.96376
306.461,36.21428,-1.87272,0.92091,0.96348
306.961,36.26187,-1.89973,0.88396,0.96319
307.461,36.3093,-1.92409,0.85353,0.96291
307.961,36.35669,-1.94802,0.82364,0.96263
308.461,36.4041,-1.9707,0.79458,0.96234
308.961,36.4515,-1.99274,0.76952,0.96206
309.461,36.4991,-2.01502,0.74597,0.96177
309.961,36.54671,-2.03479,0.7228,0.96149
310.461,36.59442,-2.05408,0.70688,0.96121
310.961,36.64212,-2.07047,0.68252,0.96092
311.461,36.6898,-2.08777,0.66182,0.96063
311.961,36.73723,-2.10534,0.63933,0.96035
312.461,36.78478,-2.12094,0.62188,0.96006
312.961,36.8322,-2.13451,0.60517,0.95977
313.461,36.87965,-2.14857,0.58506,0.95949
313.961,36.92726,-2.16194,0.5678,0.9592
314.461,36.97493,-2.17605,0.55248,0.95891
314.961,37.0225,-2.18865,0.53383,0.95863
315.461,37.06974,-2.19844,0.51736,0.95834
315.961,37.11721,-2.20857,0.5015,0.95805
316.461,37.16469,-2.21884,0.48765,0.95776
316.961,37.2121,-2.22793,0.47422,0.95747
317.461,37.25991,-2.23681,0.45775,0.95718
317.961,37.3076,-2.24583,0.44353,0.95689
318.461,37.35524,-2.2558,0.43018,0.9566
318.961,37.403,-2.2644,0.41733,0.95631
319.461,37.45075,-2.27305,0.40271,0.95602
319.961,37.49834,-2.28004,0.39201,0.95573
320.461,37.54607,-2.28784,0.3811,0.95544
320.961,37.59368,-2.2948,0.36825,0.95515
321.461,37.6415,-2.30194,0.35665,0.95486
321.961,37.68913,-2.30782,0.34697,0.95456
322.461,37.73681,-2.31348,0.33631,0.95427
322.961,37.78453,-2.31965,0.32671,0.95398
323.461,37.83227,-2.32521,0.31687,0.95369
323.961,37.88037,-2.33064,0.30675,0.95339
324.461,37.9283,-2.33551,0.29947,0.9531
324.961,37.9762,-2.33995,0.2915,0.9528
325.461,38.02411,-2.34466,0.28125,0.95251
325.961,38.07202,-2.35022,0.27495,0.95222
326.461,38.11988,-2.35583,0.26606,0.95192
326.961,38.16768,-2.35953,0.25765,0.95163
327.461,38.2156,-2.36208,0.25058,0.95133
327.961,38.26342,-2.36592,0.24298,0.95103
328.461,38.31132,-2.36972,0.23454,0.95074
328.961,38.3592,-2.37281,0.22735,0.95044
329.461,38.40713,-2.37661,0.22262,0.95014
329.961,38.45469,-2.38025,0.21716,0.94985
330.461,38.50273,-2.38367,0.21068,0.94955
330.961,38.55053,-2.38736,0.20568,0.94925
331.461,38.59839,-2.39026,0.20035,0.94895
331.961,38.64669,-2.3939,0.19366,0.94866
332.461,38.6947,-2.39741,0.18955,0.94836
332.961,38.7426,-2.3994,0.18341,0.94806
333.461,38.791,-2.40234,0.1787,0.94776
333.961,38.83899,-2.40416,0.17313,0.94746
334.461,38.88691,-2.40686,0.16825,0.94716
334.961,38.93499,-2.40972,0.16545,0.94686
335.461,38.98307,-2.41178,0.16125,0.94656
335.961,39.03112,-2.41313,0.15521,0.94626
336.461,39.07927,-2.41326,0.15374,0.94596
336.961,39.12749,-2.41607,0.15106,0.94566
337.461,39.17556,-2.41751,0.14663,0.94536
337.961,39.2235,-2.41904,0.143,0.94505
338.461,39.27154,-2.42217,0.14039,0.94475
338.961,39.31951,-2.42364,0.13525,0.94445
339.461,39.36756,-2.42548,0.13386,0.94415
339.961,39.4156,-2.42675,0.12875,0.94384
340.461,39.46368,-2.42941,0.1283,0.94354
340.961,39.5118,-2.43144,0.12598,0.94324
341.461,39.55965,-2.43136,0.12318,0.94293
341.961,39.6077,-2.43401,0.11994,0.94263
342.461,39.6558,-2.43541,0.11761,0.94232
342.961,39.70414,-2.43668,0.11503,0.94202
343.461,39.75241,-2.43663,0.11368,0.94171
343.961,39.80076,-2.43796,0.1105,0.94141
344.461,39.8487,-2.43936,0.10971,0.9411
344.961,39.89689,-2.44073,0.10763,0.9408
345.461,39.94494,-2.44211,0.10666,0.94049
345.961,39.99286,-2.44226,0.10474,0.94018
346.461,40.04142,-2.44322,0.1023,0.93987
346.961,40.08938,-2.44345,0.10129,0.93957
347.461,40.13759,-2.44476,0.09844631,0.93926
347.961,40.18618,-2.44703,0.09734562,0.93895
348.461,40.23423,-2.44745,0.09656988,0.93864
348.961,40.28253,-2.44872,0.09628858,0.93833
349.461,40.3307,-2.44871,0.09492537,0.93803
349.961,40.37898,-2.45003,0.09408463,0.93772
350.461,40.4273,-2.45138,0.0917675,0.93741
350.961,40.47571,-2.45167,0.09139864,0.9371
351.461,40.52402,-2.45266,0.08966143,0.93679
351.961,40.5724,-2.45399,0.08856331,0.93648
352.461,40.62068,-2.45502,0.08757661,0.93617
352.961,40.66891,-2.4553,0.0854253,0.93585
353.461,40.71732,-2.45641,0.08538792,0.93554
353.961,40.7657,-2.45529,0.08781088,0.93523
354.461,40.81395,-2.4553,0.08422493,0.93492
354.961,40.86202,-2.45545,0.08273633,0.93461
355.461,40.9103,-2.45662,0.08383123,0.93429
355.961,40.95872,-2.45748,0.08096932,0.93398
356.461,41.00695,-2.45793,0.07940236,0.93367
356.961,41.05553,-2.4592,0.0794948,0.93336
357.461,41.10406,-2.45925,0.07840488,0.93304
357.961,41.15246,-2.46041,0.07809882,0.93273
358.461,41.20086,-2.46125,0.07886316,0.93241
358.961,41.2494,-2.46217,0.07512511,0.9321
359.461,41.29782,-2.46288,0.07662102,0.93178
359.961,41.34622,-2.46278,0.07664036,0.93147
360.461,41.39464,-2.46419,0.0771266,0.93115
360.961,41.44299,-2.46419,0.07607631,0.93084
361.461,41.49135,-2.46419,0.07491846,0.93052
361.961,41.53988,-2.46419,0.07612989,0.9302
362.461,41.58842,-2.46551,0.07434477,0.92989
362.961,41.63698,-2.46551,0.07261965,0.92957
363.461,41.68551,-2.46643,0.07190649,0.92925
363.961,41.73417,-2.46683,0.07183308,0.92893
364.461,41.78257,-2.46683,0.07240939,0.92862
364.961,41.83113,-2.4682,0.07348948,0.9283
365.461,41.8797,-2.46815,0.07018361,0.92798
365.961,41.92811,-2.46806,0.07190645,0.92766
366.461,41.97671,-2.46813,0.07158176,0.92734
366.961,42.02519,-2.46948,0.0700579,0.92702
367.461,42.0736,-2.47077,0.06815666,0.9267
367.961,42.12222,-2.47079,0.06701922,0.92638
368.461,42.1708,-2.4721,0.06626317,0.92606
368.961,42.21927,-2.47243,0.06572893,0.92574
369.461,42.2678,-2.47243,0.06657807,0.92542
369.961,42.3163,-2.47238,0.0659061,0.9251
370.461,42.36497,-2.47375,0.06460259,0.92478
370.961,42.41353,-2.47459,0.06315954,0.92445
371.461,42.46195,-2.47474,0.06513762,0.92413
371.961,42.5104,-2.47474,0.06417933,0.92381
372.461,42.5587,-2.47606,0.06412036,0.92349
372.961,42.60696,-2.47606,0.06255365,0.92316
373.461,42.65575,-2.47681,0.06119685,0.92284
373.961,42.70405,-2.47605,0.0616435,0.92252
374.461,42.75201,-2.47605,0.06136449,0.92219
374.961,42.80055,-2.47703,0.06168943,0.92187
375.461,42.8489,-2.47704,0.05983068,0.92154
375.961,42.89736,-2.47729,0.05951876,0.92122
376.461,42.94652,-2.47775,0.06107743,0.92089
376.961,42.99524,-2.47869,0.06049809,0.92057
377.461,43.0439,-2.47869,0.06008627,0.92024
377.961,43.09257,-2.47837,0.06031292,0.91991
378.461,43.14111,-2.47836,0.06001763,0.91959
378.961,43.18985,-2.47836,0.05730921,0.91926
379.461,43.23831,-2.47887,0.05867473,0.91893
379.961,43.28683,-2.47966,0.05792199,0.91861
380.461,43.3354,-2.481,0.05814834,0.91828
380.961,43.38391,-2.48099,0.05680862,0.91795
381.461,43.43241,-2.48099,0.05528118,0.91762
381.961,43.48085,-2.48235,0.0565731,0.91729
382.461,43.52945,-2.48231,0.05279552,0.91696
382.961,43.57801,-2.48181,0.05448351,0.91663
383.461,43.62641,-2.48262,0.05341481,0.9163
383.961,43.6748,-2.48396,0.05386225,0.91597
384.461,43.72316,-2.48524,0.05326399,0.91564
384.961,43.7716,-2.48527,0.05254678,0.91531
385.461,43.81985,-2.48527,0.04994234,0.91498
385.961,43.8682,-2.48527,0.0511532,0.91465
386.461,43.91686,-2.48517,0.05266544,0.91432
386.961,43.96536,-2.48659,0.05153361,0.91399
387.461,44.01378,-2.48677,0.05123136,0.91366
387.961,44.06272,-2.48791,0.05204524,0.91333
388.461,44.11121,-2.48791,0.04912062,0.91299
388.961,44.15974,-2.48791,0.04906972,0.91266
389.461,44.2081,-2.48791,0.04857785,0.91233
389.961,44.2564,-2.48787,0.04965123,0.91199
390.461,44.30513,-2.4879,0.05086496,0.91166
390.961,44.3538,-2.48927,0.0466296,0.91132
391.461,44.40279,-2.48924,0.04835015,0.91099
391.961,44.45138,-2.49054,0.04574719,0.91066
392.461,44.5,-2.49054,0.04729889,0.91032
392.961,44.54837,-2.49056,0.04753916,0.90999
393.461,44.59688,-2.49186,0.04752406,0.90965
393.961,44.64563,-2.49186,0.04577911,0.90931
394.461,44.6943,-2.49182,0.04354379,0.90898
394.961,44.74306,-2.49317,0.0459239,0.90864
395.461,44.79195,-2.49326,0.04465295,0.9083
395.961,44.8406,-2.49581,0.04301217,0.90797
396.461,44.8894,-2.49739,0.04468355,0.90763
396.961,44.93815,-2.49847,0.04368495,0.90729
397.461,44.98693,-2.49977,0.04308416,0.90695
397.961,45.0355,-2.49977,0.04399979,0.90662
398.461,45.0843,-2.50113,0.04193523,0.90628
398.961,45.13313,-2.50134,0.043283,0.90594
399.461,45.18175,-2.5024,0.04197693,0.9056
399.961,45.23061,-2.50241,0.0436443,0.90526
400.461,45.2793,-2.50234,0.04326527,0.90492
400.961,45.32813,-2.50307,0.04249646,0.90458
401.461,45.37697,-2.50437,0.03975627,0.90424
401.961,45.42577,-2.50492,0.04061466,0.9039
402.461,45.4745,-2.50569,0.0398899,0.90356
402.961,45.52332,-2.50562,0.03845108,0.90322
403.461,45.5721,-2.50701,0.03925336,0.90288
403.961,45.62084,-2.50634,0.03800294,0.90253
404.461,45.6698,-2.50767,0.03662548,0.90219
404.961,45.71863,-2.50761,0.03726815,0.90185
405.461,45.76722,-2.50853,0.03759424,0.90151
405.961,45.81593,-2.50799,0.03582326,0.90116
406.461,45.8646,-2.50932,0.03714991,0.90082
406.961,45.91345,-2.50947,0.03411866,0.90048
407.461,45.9623,-2.51063,0.03499609,0.90013
407.961,46.01101,-2.51228,0.03426288,0.89979
408.461,46.05989,-2.5126,0.03106957,0.89944
408.961,46.10881,-2.51383,0.0316513,0.8991
409.461,46.1576,-2.51491,0.03064285,0.89875
409.961,46.2066,-2.5162,0.02895208,0.89841
410.461,46.25563,-2.5168,0.03056406,0.89806
410.961,46.30435,-2.51629,0.02738446,0.89772
411.461,46.35313,-2.51884,0.02921617,0.89737
411.961,46.40184,-2.51887,0.02879459,0.89702
412.461,46.45064,-2.52018,0.02822017,0.89668
412.961,46.49949,-2.5215,0.02633254,0.89633
413.461,46.54813,-2.52275,0.02663931,0.89598
413.961,46.597,-2.52152,0.02653739,0.89563
414.461,46.64566,-2.5228,0.02837771,0.89528
414.961,46.69429,-2.5256,0.02678053,0.89494
415.461,46.7431,-2.52674,0.0256078,0.89459
415.961,46.79183,-2.52813,0.02444794,0.89424
416.461,46.8408,-2.52809,0.02341965,0.89389
416.961,46.8898,-2.52939,0.02196295,0.89354
417.461,46.93877,-2.53071,0.02184813,0.89319
417.961,46.98729,-2.53206,0.02171928,0.89284
418.461,47.03602,-2.5334,0.02049824,0.89249
418.961,47.08461,-2.53417,0.01874536,0.89214
419.461,47.13323,-2.53589,0.02073685,0.89179
419.961,47.1821,-2.5375,0.0200921,0.89144
420.461,47.23128,-2.53787,0.01906978,0.89108
420.961,47.28015,-2.53874,0.01931255,0.89073
421.461,47.3292,-2.53914,0.01919316,0.89038
421.961,47.37827,-2.54007,0.01598361,0.89003
422.461,47.4272,-2.54174,0.01656586,0.88967
422.961,47.4761,-2.54349,0.01702846,0.88932
423.461,47.52492,-2.54589,0.0155499,0.88897
423.961,47.5738,-2.54713,0.01510223,0.88861
424.461,47.62256,-2.5485,0.0142844,0.88826
424.961,47.67145,-2.55015,0.01448658,0.88791
425.461,47.7205,-2.55157,0.01510298,0.88755
425.961,47.7695,-2.553,0.01461716,0.8872
426.461,47.81832,-2.55495,0.01608743,0.88684
426.961,47.86723,-2.55681,0.0146658,0.88649
427.461,47.9161,-2.5577,0.0152819,0.88613
427.961,47.96505,-2.55925,0.01354099,0.88577
428.461,48.01393,-2.56118,0.01329848,0.88542
428.961,48.0629,-2.56324,0.0152466,0.88506
429.461,48.11195,-2.56519,0.01524861,0.8847
429.961,48.16084,-2.5653,0.01359954,0.88435
430.461,48.20985,-2.56662,0.01280946,0.88399
430.961,48.25881,-2.56959,0.01449273,0.88363
431.461,48.30771,-2.57101,0.01318052,0.88327
431.961,48.3566,-2.57355,0.01381447,0.88292
432.461,48.40501,-2.57637,0.01448756,0.88256
432.961,48.4539,-2.57911,0.01317815,0.8822
433.461,48.50245,-2.58109,0.01448687,0.88184
433.961,48.55151,-2.58266,0.01567523,0.88148
434.461,48.60051,-2.58562,0.01825739,0.88112
434.961,48.64947,-2.58902,0.01756408,0.88076
435.461,48.6987,-2.59027,0.01803161,0.8804
435.961,48.74777,-2.59316,0.01927915,0.88004
436.461,48.79675,-2.59474,0.02106732,0.87968
436.961,48.84587,-2.59809,0.02020021,0.87932
437.461,48.89479,-2.59852,0.01989047,0.87895
437.961,48.94359,-2.60135,0.01992591,0.87859
438.461,48.99261,-2.60448,0.02311523,0.87823
438.961,49.0417,-2.60659,0.02350022,0.87787
439.461,49.09078,-2.60942,0.02432031,0.8775
439.961,49.1396,-2.61138,0.02667322,0.87714
440.461,49.18877,-2.61452,0.02581412,0.87678
440.961,49.23778,-2.61785,0.03000086,0.87641
441.461,49.28672,-2.62077,0.0285678,0.87605
441.961,49.33599,-2.62436,0.02846729,0.87569
442.461,49.38499,-2.62746,0.03125084,0.87532
442.961,49.43396,-2.62842,0.03341371,0.87496
443.461,49.48302,-2.63212,0.03481987,0.87459
443.961,49.53203,-2.6366,0.03569959,0.87423
444.461,49.58101,-2.63897,0.03762226,0.87386
444.961,49.6299,-2.64291,0.03911159,0.8735
445.461,49.679,-2.64656,0.03837449,0.87313
445.961,49.72805,-2.64878,0.04246901,0.87276
446.461,49.77698,-2.65316,0.04329519,0.8724
446.961,49.82618,-2.65543,0.04545909,0.87203
447.461,49.8755,-2.65879,0.04862053,0.87166
447.961,49.92471,-2.66278,0.05032792,0.87129
448.461,49.97415,-2.66628,0.05166572,0.87093
448.961,50.0232,-2.66998,0.05301858,0.87056
449.461,50.07226,-2.67362,0.05550794,0.87019
449.961,50.12126,-2.67754,0.05586877,0.86982
450.461,50.1703,-2.68104,0.05804329,0.86945
450.961,50.2194,-2.68456,0.06152546,0.86908
451.461,50.26849,-2.68734,0.06287799,0.86871
451.961,50.31759,-2.69124,0.06537143,0.86834
452.461,50.36674,-2.6957,0.06559399,0.86797
452.961,50.41584,-2.69933,0.06824727,0.8676
453.461,50.46485,-2.70273,0.07220436,0.86723
453.961,50.51399,-2.70725,0.07437276,0.86686
454.461,50.5631,-2.71202,0.07642758,0.86649
454.961,50.61223,-2.71735,0.07739914,0.86612
455.461,50.6612,-2.72088,0.08013488,0.86574
455.961,50.71047,-2.72519,0.08337481,0.86537
456.461,50.75945,-2.72927,0.08424641,0.865
456.961,50.80858,-2.73369,0.08493448,0.86463
457.461,50.85787,-2.73754,0.08728522,0.86425
457.961,50.90703,-2.7418,0.08938118,0.86388
458.461,50.95608,-2.74586,0.09224828,0.86351
458.961,51.00521,-2.74868,0.09463571,0.86313
459.461,51.05467,-2.75309,0.09552528,0.86276
459.961,51.10388,-2.75829,0.09698606,0.86238
460.461,51.15331,-2.76305,0.09863847,0.86201
460.961,51.20259,-2.76774,0.0996164,0.86164
461.461,51.25173,-2.77105,0.09898229,0.86126
461.961,51.30083,-2.77466,0.103,0.86088
462.461,51.34997,-2.77993,0.10468,0.86051
462.961,51.39917,-2.78359,0.10576,0.86013
463.461,51.44835,-2.78874,0.10615,0.85976
463.961,51.4977,-2.79308,0.10893,0.85938
464.461,51.54679,-2.79663,0.10875,0.859
464.961,51.59601,-2.80122,0.11087,0.85862
465.461,51.64536,-2.80436,0.11077,0.85825
465.961,51.69469,-2.80879,0.11145,0.85787
466.461,51.74388,-2.81283,0.11229,0.85749
466.961,51.7932,-2.81633,0.11408,0.85711
467.461,51.84238,-2.81998,0.11392,0.85673
467.961,51.89134,-2.82206,0.11458,0.85636
468.461,51.94057,-2.82879,0.11613,0.85598
468.961,51.9897,-2.83359,0.11789,0.8556
469.461,52.03889,-2.83823,0.11934,0.85522
469.961,52.08831,-2.84168,0.11961,0.85484
470.461,52.13751,-2.84272,0.11995,0.85446
470.961,52.1867,-2.84815,0.12267,0.85408
471.461,52.23596,-2.85368,0.12105,0.85369
471.961,52.28529,-2.8585,0.12285,0.85331
472.461,52.3346,-2.86198,0.12435,0.85293
472.961,52.384,-2.86563,0.12371,0.85255
473.461,52.4332,-2.8693,0.12349,0.85217
473.961,52.48274,-2.87313,0.12291,0.85179
474.461,52.5321,-2.87607,0.12236,0.8514
474.961,52.5816,-2.88058,0.12282,0.85102
475.461,52.63106,-2.88357,0.12451,0.85064
475.961,52.6805,-2.88624,0.1239,0.85025
476.461,52.72962,-2.88992,0.12423,0.84987
476.961,52.7788,-2.89329,0.12395,0.84949
477.461,52.82813,-2.89735,0.12161,0.8491
477.961,52.8774,-2.9018,0.12047,0.84872
478.461,52.9267,-2.90507,0.12232,0.84833
478.961,52.9763,-2.90847,0.12017,0.84795
479.461,53.02554,-2.91133,0.12098,0.84756
479.961,53.07486,-2.91598,0.11983,0.84718
480.461,53.12418,-2.91907,0.11859,0.84679
480.961,53.17357,-2.92358,0.11932,0.84641
481.461,53.223,-2.92612,0.12068,0.84602
481.961,53.2724,-2.92921,0.1188,0.84563
482.461,53.3216,-2.93247,0.11725,0.84525
482.961,53.37076,-2.93602,0.11535,0.84486
483.461,53.42,-2.93802,0.11606,0.84447
483.961,53.4692,-2.94131,0.11554,0.84408
484.461,53.51825,-2.94396,0.11478,0.8437
484.961,53.5677,-2.94615,0.11561,0.84331
485.461,53.6172,-2.94874,0.11312,0.84292
485.961,53.6665,-2.95053,0.11195,0.84253
486.461,53.71605,-2.95347,0.11125,0.84214
486.961,53.76542,-2.95664,0.11156,0.84175
487.461,53.81479,-2.96034,0.11061,0.84136
487.961,53.864,-2.96257,0.10715,0.84097
488.461,53.91335,-2.96512,0.10779,0.84058
488.961,53.96264,-2.96816,0.10733,0.84019
489.461,54.01158,-2.97146,0.10769,0.8398
489.961,54.061,-2.97286,0.10426,0.83941
490.461,54.1104,-2.9755,0.10355,0.83902
490.961,54.15959,-2.9774,0.10157,0.83863
491.461,54.2091,-2.98034,0.10206,0.83823
491.961,54.2585,-2.98195,0.10221,0.83784
492.461,54.30784,-2.98385,0.0994668,0.83745
492.961,54.3569,-2.98594,0.10072,0.83706
493.461,54.4063,-2.98742,0.09908754,0.83666
493.961,54.45573,-2.99013,0.09683106,0.83627
494.461,54.50512,-2.99187,0.09857862,0.83588
494.961,54.5548,-2.99312,0.0973208,0.83548
495.461,54.60409,-2.99599,0.09603427,0.83509
495.961,54.65348,-2.99801,0.09202228,0.8347
496.461,54.7028,-2.99936,0.09426044,0.8343
496.961,54.75221,-3.00067,0.0920835,0.83391
497.461,54.8018,-3.00228,0.09302541,0.83351
497.961,54.85122,-3.00367,0.09100594,0.83312
498.461,54.90054,-3.00367,0.09047023,0.83272
498.961,54.9497,-3.0054,0.08917903,0.83233
499.461,54.99892,-3.00734,0.08891824,0.83193
499.961,55.04831,-3.00889,0.08648772,0.83153
500.461,55.09771,-3.0096,0.08602955,0.83114
500.961,55.14736,-3.0102,0.0855515,0.83074
501.461,55.1966,-3.01329,0.08462184,0.83034
501.961,55.2459,-3.01469,0.08335081,0.82995
502.461,55.2952,-3.01596,0.08297352,0.82955
502.961,55.3446,-3.01738,0.0828116,0.82915
503.461,55.39416,-3.01828,0.08259503,0.82875
503.961,55.4437,-3.01864,0.08177731,0.82835
504.461,55.49332,-3.01959,0.07985977,0.82795
504.961,55.5427,-3.02091,0.07774418,0.82756
505.461,55.59225,-3.02222,0.07814763,0.82716
505.961,55.6417,-3.02355,0.07840045,0.82676
506.461,55.69104,-3.02461,0.07749938,0.82636
506.961,55.7408,-3.02355,0.07640312,0.82596
507.461,55.7903,-3.02422,0.07685882,0.82556
507.961,55.84,-3.02628,0.07415454,0.82516
508.461,55.88961,-3.02627,0.07284623,0.82476
508.961,55.93914,-3.02791,0.07105172,0.82435
509.461,55.9886,-3.02927,0.07004046,0.82395
509.961,56.0382,-3.03043,0.0713203,0.82355
510.461,56.0878,-3.03056,0.07025665,0.82315
510.961,56.1372,-3.03191,0.06744831,0.82275
511.461,56.18691,-3.03295,0.06724568,0.82235
511.961,56.23639,-3.0331,0.06606531,0.82194
512.461,56.28585,-3.03451,0.06408164,0.82154
512.961,56.33543,-3.0357,0.06531644,0.82114
513.461,56.385,-3.03591,0.06478693,0.82073
513.961,56.4345,-3.03617,0.06528596,0.82033
514.461,56.4842,-3.03717,0.064089,0.81993
514.961,56.5338,-3.03753,0.06459416,0.81952
515.461,56.58339,-3.0388,0.06416581,0.81912
515.961,56.6329,-3.04017,0.06269098,0.81871
516.461,56.68246,-3.04009,0.06285406,0.81831
516.961,56.73202,-3.04144,0.06293924,0.8179
517.461,56.7816,-3.04144,0.06068956,0.8175
517.961,56.83133,-3.04253,0.0606383,0.81709
518.461,56.8811,-3.04407,0.05736168,0.81669
518.961,56.93084,-3.04542,0.05741445,0.81628
519.461,56.9806,-3.04574,0.05574648,0.81587
519.961,57.0304,-3.04604,0.05434326,0.81547
520.461,57.08,-3.04539,0.0532915,0.81506
520.961,57.12961,-3.04635,0.05334477,0.81465
521.461,57.17915,-3.04671,0.05339047,0.81425
521.961,57.22865,-3.04674,0.04995856,0.81384
522.461,57.27835,-3.04614,0.04904637,0.81343
522.961,57.32799,-3.04728,0.05054502,0.81302
523.461,57.37755,-3.04811,0.04833789,0.81261
523.961,57.4271,-3.04871,0.04957832,0.8122
524.461,57.4765,-3.05116,0.04980191,0.8118
524.961,57.52604,-3.05132,0.04740577,0.81139
525.461,57.5755,-3.05124,0.0484414,0.81098
525.961,57.62515,-3.05027,0.04879316,0.81057
526.461,57.67454,-3.05132,0.04746248,0.81016
526.961,57.72405,-3.05132,0.04699613,0.80975
527.461,57.77349,-3.05199,0.04899786,0.80934
527.961,57.82305,-3.05362,0.04667769,0.80893
528.461,57.87259,-3.05499,0.04529801,0.80851
528.961,57.9222,-3.05492,0.04749137,0.8081
529.461,57.972,-3.05523,0.04357669,0.80769
529.961,58.02157,-3.05659,0.04509671,0.80728
530.461,58.07128,-3.05659,0.04345081,0.80687
530.961,58.12081,-3.05732,0.04611042,0.80646
531.461,58.17035,-3.05857,0.04828258,0.80604
531.961,58.22,-3.05857,0.04782064,0.80563
532.461,58.26944,-3.05857,0.04852638,0.80522
532.961,58.3191,-3.05985,0.04984519,0.80481
533.461,58.3688,-3.05988,0.04964866,0.80439
533.961,58.4183,-3.06113,0.04991809,0.80398
534.461,58.468,-3.06069,0.05183145,0.80356
534.961,58.51755,-3.0612,0.05197925,0.80315
535.461,58.5671,-3.06119,0.05073682,0.80274
535.961,58.6168,-3.06121,0.05047313,0.80232
536.461,58.66661,-3.06185,0.05136948,0.80191
536.961,58.71635,-3.06185,0.0497338,0.80149
537.461,58.7661,-3.06313,0.05003549,0.80108
537.961,58.81581,-3.06317,0.05154712,0.80066
538.461,58.86544,-3.06312,0.04838466,0.80024
538.961,58.91515,-3.06449,0.05092993,0.79983
539.461,58.9649,-3.06376,0.04926018,0.79941
539.961,59.0146,-3.06385,0.05123098,0.799
540.461,59.06423,-3.06515,0.05128762,0.79858
540.961,59.11391,-3.06515,0.05030924,0.79816
541.461,59.16353,-3.06656,0.04970745,0.79774
541.961,59.21306,-3.06619,0.04893319,0.79733
542.461,59.26245,-3.06547,0.047324,0.79691
542.961,59.31208,-3.06547,0.04869259,0.79649
543.461,59.3617,-3.0668,0.05009325,0.79607
543.961,59.4114,-3.06679,0.04697945,0.79565
544.461,59.4609,-3.06679,0.04944037,0.79524
544.961,59.5104,-3.06847,0.04800659,0.79482
545.461,59.5601,-3.06877,0.05039643,0.7944
545.961,59.6098,-3.07009,0.04946736,0.79398
546.461,59.6595,-3.07009,0.04715208,0.79356
546.961,59.7095,-3.07009,0.04784062,0.79314
547.461,59.7592,-3.07071,0.04717995,0.79272
547.961,59.8088,-3.07296,0.04634582,0.7923
548.461,59.8586,-3.07284,0.04731908,0.79188
548.961,59.9082,-3.07206,0.04774816,0.79146
549.461,59.9579,-3.07208,0.04748325,0.79104
549.861,59.9972,-3.07339,0.04581905,0.7907