File: 01_Data/Pipe_Heat_Cable/STA/N2/10K_min/Pipe_Heat_Cable_STA_N2_10KData_220728_R2.csv
##Temp./Â°C,Time/min,Mass loss(subtr.2)/mg,DSC(subtr.2)/(mW/mg),Sensit./(uV/mW)
49.56,10.00917,0.00977,-0.009375379,1.07022
50.06,10.6911,0.01066618,0.01343388,1.07008
50.56,10.8703,0.01251718,0.03243712,1.06994
51.06,11.00131,0.01117748,0.0484746,1.06981
51.56,11.11048,0.01161224,0.06204013,1.06967
52.06,11.20745,0.01305107,0.07461451,1.06953
52.56,11.29599,0.01131922,0.08489382,1.06939
53.06,11.37774,0.01280135,0.09596313,1.06925
53.56,11.45469,0.01216785,0.10361,1.06911
54.06,11.52825,0.01339384,0.11176,1.06897
54.56,11.59868,0.01310252,0.11846,1.06883
55.06,11.66656,0.01266501,0.12235,1.06869
55.56,11.73242,0.01226099,0.1289,1.06855
56.06,11.79659,0.01272132,0.1338,1.06841
56.56,11.85967,0.0132859,0.13953,1.06827
57.06,11.9217,0.01230368,0.14347,1.06813
57.56,11.9825,0.01213494,0.14649,1.06799
58.06,12.04236,0.01324607,0.15116,1.06785
58.56,12.10154,0.01298244,0.15508,1.06771
59.06,12.16039,0.01310188,0.15931,1.06757
59.56,12.21837,0.01344976,0.16061,1.06742
60.06,12.27554,0.01317447,0.16385,1.06728
60.56,12.33232,0.01424894,0.16688,1.06714
61.06,12.3886,0.01314292,0.16886,1.067
61.56,12.44463,0.01319231,0.17106,1.06685
62.06,12.50078,0.01328299,0.17171,1.06671
62.56,12.55653,0.01353509,0.17314,1.06657
63.06,12.61218,0.01303136,0.1763,1.06642
63.56,12.66761,0.01328749,0.17753,1.06628
64.06,12.7227,0.01334389,0.17997,1.06613
64.56,12.77709,0.01327983,0.18125,1.06599
65.06,12.83136,0.01327927,0.18263,1.06584
65.56,12.88562,0.01345249,0.18349,1.0657
66.06,12.93978,0.01327983,0.1861,1.06555
66.56,12.99424,0.01205122,0.18573,1.06541
67.06,13.04836,0.01328181,0.18686,1.06526
67.56,13.10202,0.01191623,0.18784,1.06511
68.06,13.1558,0.01328274,0.18955,1.06497
68.56,13.20941,0.01359062,0.19186,1.06482
69.06,13.2628,0.01464961,0.19202,1.06467
69.56,13.3162,0.01469319,0.19344,1.06453
70.06,13.36931,0.01327968,0.19173,1.06438
70.56,13.4223,0.01200907,0.19354,1.06423
71.06,13.4754,0.01328854,0.19349,1.06408
71.56,13.5285,0.01329456,0.19354,1.06393
72.06,13.58138,0.01311878,0.19384,1.06379
72.56,13.63419,0.01325839,0.19578,1.06364
73.06,13.68682,0.01261032,0.19589,1.06349
73.56,13.73913,0.01316991,0.19513,1.06334
74.06,13.79163,0.01390507,0.1937,1.06319
74.56,13.8437,0.01316905,0.19337,1.06304
75.06,13.8959,0.01383451,0.19428,1.06289
75.56,13.9482,0.01317883,0.19495,1.06274
76.06,14.0004,0.01273948,0.19475,1.06259
76.56,14.05282,0.01178501,0.19667,1.06244
77.06,14.1049,0.01283712,0.19462,1.06228
77.56,14.15656,0.01188825,0.19557,1.06213
78.06,14.2084,0.01185555,0.19749,1.06198
78.56,14.2599,0.01317144,0.19631,1.06183
79.06,14.31145,0.01457235,0.19655,1.06168
79.56,14.36309,0.01319627,0.1981,1.06152
80.06,14.41443,0.01318227,0.1975,1.06137
80.56,14.46575,0.01333041,0.19778,1.06122
81.06,14.5172,0.0131799,0.19748,1.06106
81.56,14.5686,0.01317999,0.19836,1.06091
82.06,14.61991,0.01316981,0.19883,1.06076
82.56,14.6712,0.01317454,0.19931,1.0606
83.06,14.72235,0.01317122,0.20041,1.06045
83.56,14.77324,0.01446402,0.19985,1.06029
84.06,14.82412,0.0145791,0.20023,1.06014
84.56,14.8748,0.01316957,0.20198,1.05998
85.06,14.9255,0.01316326,0.20172,1.05983
85.56,14.9758,0.01450152,0.20368,1.05967
86.06,15.02612,0.01423535,0.20295,1.05952
86.56,15.07629,0.01448981,0.20298,1.05936
87.06,15.12646,0.01389696,0.20397,1.0592
87.56,15.17695,0.01386204,0.20482,1.05905
88.06,15.2272,0.01317381,0.20338,1.05889
88.56,15.2774,0.01449294,0.20673,1.05873
89.06,15.32748,0.0131391,0.20676,1.05857
89.56,15.3769,0.01412865,0.20588,1.05842
90.06,15.4269,0.01416331,0.20773,1.05826
90.56,15.4764,0.01277762,0.20664,1.0581
91.06,15.52651,0.01316965,0.20972,1.05794
91.56,15.5769,0.01319149,0.20878,1.05778
92.06,15.62694,0.01448916,0.20876,1.05762
92.56,15.6772,0.01448448,0.20952,1.05746
93.06,15.7271,0.01581305,0.21064,1.0573
93.56,15.7767,0.01444273,0.21058,1.05714
94.06,15.82656,0.01449007,0.21061,1.05698
94.56,15.87616,0.01449,0.21146,1.05682
95.06,15.9255,0.01449003,0.21338,1.05666
95.56,15.9751,0.01446633,0.21411,1.0565
96.06,16.02437,0.01443131,0.21528,1.05634
96.56,16.0735,0.01449003,0.21345,1.05618
97.06,16.12284,0.01448862,0.21586,1.05602
97.56,16.17212,0.01319473,0.21682,1.05586
98.06,16.22125,0.01316997,0.21729,1.05569
98.56,16.27047,0.01317046,0.21713,1.05553
99.06,16.3196,0.0141949,0.21851,1.05537
99.56,16.36873,0.01448996,0.21889,1.0552
100.06,16.41797,0.01454614,0.21751,1.05504
100.56,16.46717,0.01447962,0.21933,1.05488
101.06,16.51652,0.01446566,0.22001,1.05471
101.56,16.56561,0.0131713,0.21978,1.05455
102.06,16.61458,0.01317181,0.22121,1.05438
102.56,16.66356,0.01440714,0.22244,1.05422
103.06,16.71244,0.01558503,0.22374,1.05405
103.56,16.76138,0.01543423,0.22329,1.05389
104.06,16.8106,0.01645866,0.22493,1.05372
104.56,16.85957,0.01609567,0.22601,1.05356
105.06,16.9084,0.01515026,0.22783,1.05339
105.56,16.95734,0.01514844,0.22738,1.05323
106.06,17.0063,0.01409914,0.22546,1.05306
106.56,17.0552,0.01416718,0.22682,1.05289
107.06,17.10437,0.01481358,0.22805,1.05272
107.56,17.15333,0.01487726,0.22676,1.05256
108.06,17.2021,0.01416131,0.22912,1.05239
108.56,17.2509,0.01416,0.22793,1.05222
109.06,17.29939,0.01416,0.228,1.05205
109.56,17.3481,0.01415499,0.2271,1.05188
110.06,17.3968,0.01409255,0.23085,1.05172
110.56,17.44535,0.0151368,0.23049,1.05155
111.06,17.49442,0.01408239,0.23201,1.05138
111.56,17.5432,0.0154704,0.23221,1.05121
112.06,17.59202,0.01547,0.23191,1.05104
112.56,17.64112,0.01547,0.23362,1.05087
113.06,17.68988,0.01547085,0.23427,1.0507
113.56,17.7388,0.0154594,0.23463,1.05053
114.06,17.78739,0.01470387,0.23709,1.05036
114.56,17.83606,0.01316934,0.23774,1.05018
115.06,17.88482,0.01317,0.23693,1.05001
115.56,17.93365,0.01317,0.23781,1.04984
116.06,17.98265,0.01317131,0.23729,1.04967
116.56,18.03146,0.01431678,0.24054,1.0495
117.06,18.08025,0.01449002,0.23938,1.04932
117.56,18.1289,0.01448999,0.23908,1.04915
118.06,18.17756,0.01453985,0.23985,1.04898
118.56,18.226,0.01383123,0.23913,1.04881
119.06,18.27454,0.01347065,0.23995,1.04863
119.56,18.3232,0.01316773,0.24034,1.04846
120.06,18.37172,0.01341832,0.23865,1.04828
120.56,18.4204,0.0131699,0.23955,1.04811
121.06,18.46889,0.01316994,0.23791,1.04793
121.56,18.5173,0.0137312,0.23783,1.04776
122.06,18.56578,0.01521657,0.23863,1.04758
122.56,18.6143,0.01514981,0.23821,1.04741
123.06,18.6631,0.01519059,0.2375,1.04723
123.56,18.71187,0.01383661,0.23809,1.04706
124.06,18.76063,0.01382882,0.23818,1.04688
124.56,18.80945,0.01317227,0.23895,1.0467
125.06,18.8578,0.01384806,0.23964,1.04653
125.56,18.9064,0.01382997,0.23833,1.04635
126.06,18.95485,0.01381361,0.23852,1.04617
126.56,19.00333,0.01293313,0.24118,1.04599
127.06,19.052,0.01152932,0.23928,1.04582
127.56,19.1003,0.01156907,0.24081,1.04564
128.06,19.14864,0.01284033,0.24123,1.04546
128.56,19.1971,0.01302746,0.24133,1.04528
129.06,19.24544,0.01413975,0.24186,1.0451
129.56,19.29391,0.0134951,0.24125,1.04492
130.06,19.34256,0.01350138,0.2418,1.04474
130.56,19.39095,0.01278538,0.24146,1.04456
131.06,19.43927,0.01218003,0.24327,1.04438
131.56,19.48736,0.01218,0.24414,1.0442
132.06,19.53567,0.01218,0.24503,1.04402
132.56,19.584,0.01217975,0.24712,1.04384
133.06,19.63249,0.01233882,0.24452,1.04366
133.56,19.68072,0.0121846,0.24512,1.04348
134.06,19.72883,0.01219,0.24604,1.0433
134.56,19.77713,0.0121974,0.24716,1.04311
135.06,19.82516,0.01251195,0.24946,1.04293
135.56,19.87324,0.0125101,0.24832,1.04275
136.06,19.9217,0.01246203,0.2478,1.04257
136.56,19.9699,0.01383023,0.25131,1.04238
137.06,20.01829,0.01385199,0.2494,1.0422
137.56,20.06653,0.01387774,0.2482,1.04201
138.06,20.11496,0.0138299,0.24957,1.04183
138.56,20.16335,0.01383,0.24972,1.04165
139.06,20.21143,0.01382986,0.24919,1.04146
139.56,20.25977,0.01346121,0.25115,1.04128
140.06,20.30803,0.01284025,0.25022,1.04109
140.56,20.35612,0.01284181,0.25106,1.04091
141.06,20.40456,0.01410443,0.25313,1.04072
141.56,20.45293,0.01319482,0.25118,1.04053
142.06,20.5011,0.01283979,0.25217,1.04035
142.56,20.54938,0.01284,0.25192,1.04016
143.06,20.59715,0.01283232,0.25143,1.03998
143.56,20.64519,0.012508,0.25225,1.03979
144.06,20.6934,0.01251025,0.25188,1.0396
144.56,20.74146,0.01240878,0.25124,1.03941
145.06,20.7898,0.01250867,0.25208,1.03923
145.56,20.83793,0.01250999,0.25239,1.03904
146.06,20.88581,0.01251,0.2523,1.03885
146.56,20.9337,0.01251028,0.25343,1.03866
147.06,20.98147,0.01239596,0.25466,1.03847
147.56,21.02944,0.01152014,0.2527,1.03828
148.06,21.07751,0.01111955,0.25319,1.03809
148.56,21.12565,0.0125204,0.25404,1.0379
149.06,21.17362,0.01252,0.2545,1.03771
149.56,21.22176,0.01252,0.25456,1.03752
150.06,21.2697,0.01252022,0.25582,1.03733
150.56,21.31746,0.01217869,0.25562,1.03714
151.06,21.36528,0.01197226,0.25663,1.03695
151.56,21.41327,0.01152726,0.25663,1.03676
152.06,21.46123,0.01153,0.25618,1.03657
152.56,21.50915,0.01153,0.2561,1.03637
153.06,21.55728,0.01153028,0.25699,1.03618
153.56,21.60519,0.0111202,0.25731,1.03599
154.06,21.6532,0.01228724,0.25825,1.0358
154.56,21.70099,0.01218996,0.25901,1.0356
155.06,21.7489,0.01219497,0.25762,1.03541
155.56,21.79672,0.01186033,0.25796,1.03521
156.06,21.8446,0.01186,0.25838,1.03502
156.56,21.89256,0.01186,0.25911,1.03483
157.06,21.9406,0.01186015,0.25884,1.03463
157.56,21.9883,0.01190662,0.25984,1.03444
158.06,22.03603,0.0108713,0.26056,1.03424
158.56,22.08385,0.01087,0.26082,1.03405
159.06,22.13146,0.01086766,0.26083,1.03385
159.56,22.1794,0.01152763,0.26264,1.03365
160.06,22.22736,0.01034258,0.26291,1.03346
160.56,22.27523,0.01020961,0.26213,1.03326
161.06,22.32326,0.01021,0.26217,1.03307
161.56,22.37122,0.01021003,0.26083,1.03287
162.06,22.4193,0.01020868,0.26308,1.03267
162.56,22.46732,0.009218433,0.26351,1.03247
163.06,22.51535,0.009221355,0.26418,1.03227
163.56,22.56325,0.00993965,0.26501,1.03208
164.06,22.61116,0.009869922,0.26313,1.03188
164.56,22.65896,0.00987,0.26426,1.03168
165.06,22.70674,0.009869988,0.26372,1.03148
165.56,22.7546,0.00987922,0.26479,1.03128
166.06,22.8024,0.01020251,0.26534,1.03108
166.56,22.85033,0.0102,0.26535,1.03088
167.06,22.89808,0.0102013,0.26534,1.03068
167.56,22.94586,0.009886178,0.26716,1.03048
168.06,22.99365,0.009880414,0.26617,1.03028
168.56,23.04149,0.008475362,0.26646,1.03008
169.06,23.08906,0.008559991,0.26764,1.02988
169.56,23.1367,0.008560453,0.2672,1.02968
170.06,23.1845,0.009103416,0.26984,1.02947
170.56,23.23225,0.007849673,0.26903,1.02927
171.06,23.27983,0.00790023,0.27059,1.02907
171.56,23.32777,0.009245418,0.27248,1.02887
172.06,23.3757,0.00921978,0.27164,1.02866
172.56,23.42357,0.008429249,0.27347,1.02846
173.06,23.47152,0.007899567,0.27267,1.02826
173.56,23.5196,0.007899986,0.2751,1.02805
174.06,23.56737,0.007873226,0.27518,1.02785
174.56,23.61508,0.00822945,0.2752,1.02764
175.06,23.66271,0.008227359,0.27623,1.02744
175.56,23.71036,0.009579507,0.27863,1.02723
176.06,23.7582,0.009549781,0.27776,1.02703
176.56,23.806,0.00901412,0.28105,1.02682
177.06,23.8537,0.00756619,0.28157,1.02662
177.56,23.90152,0.007571255,0.28199,1.02641
178.06,23.9493,0.00723805,0.28171,1.0262
178.56,23.99694,0.00691032,0.2846,1.026
179.06,24.0449,0.006910001,0.28475,1.02579
179.56,24.0926,0.006909193,0.28517,1.02558
180.06,24.1403,0.006183416,0.28665,1.02538
180.56,24.18811,0.005931363,0.28848,1.02517
181.06,24.23593,0.005606098,0.28732,1.02496
181.56,24.28371,0.00565369,0.28779,1.02475
182.06,24.3313,0.004608988,0.28867,1.02454
182.56,24.37889,0.004609963,0.28853,1.02433
183.06,24.42636,0.004891162,0.28871,1.02412
183.56,24.47394,0.00461083,0.289,1.02391
184.06,24.52166,0.004609996,0.28788,1.02371
184.56,24.56932,0.004610111,0.28817,1.02349
185.06,24.617,0.003649897,0.28865,1.02328
185.56,24.6646,0.003619925,0.2875,1.02307
186.06,24.71215,0.00362,0.28732,1.02286
186.56,24.75975,0.00362,0.28843,1.02265
187.06,24.80742,0.00362,0.28738,1.02244
187.56,24.85511,0.00362,0.28516,1.02223
188.06,24.90271,0.00362,0.28632,1.02202
188.56,24.95063,0.00362,0.28502,1.0218
189.06,24.99793,0.003620157,0.28604,1.02159
189.56,25.04544,0.0032625,0.2836,1.02138
190.06,25.09309,0.002301009,0.28296,1.02116
190.56,25.14027,0.002299999,0.28245,1.02095
191.06,25.18781,0.0023,0.28117,1.02074
191.56,25.23566,0.0023,0.2807,1.02052
192.06,25.28332,0.002300008,0.28058,1.02031
192.56,25.33105,0.002297523,0.27859,1.02009
193.06,25.37885,0.003618611,0.27789,1.01988
193.56,25.42671,0.003626055,0.27753,1.01966
194.06,25.47433,0.00229305,0.27546,1.01945
194.56,25.52201,0.001853089,0.27558,1.01923
195.06,25.5695,0.00163843,0.27665,1.01902
195.56,25.6171,0.0003267714,0.27582,1.0188
196.06,25.66464,0.0008400214,0.27379,1.01858
196.56,25.71216,0.00163989,0.27493,1.01836
197.06,25.75937,0.00163907,0.27241,1.01815
197.56,25.8067,-0.0001959093,0.27165,1.01793
198.06,25.85417,-0.0003303315,0.27228,1.01771
198.56,25.90166,-0.0003299757,0.27221,1.01749
199.06,25.94942,-0.0003314159,0.2715,1.01728
199.56,25.99731,-8.72481e-06,0.27309,1.01706
200.06,26.04496,-0.0005559099,0.27199,1.01684
200.56,26.09253,-0.001319866,0.2699,1.01662
201.06,26.14013,-0.00132,0.26887,1.0164
201.56,26.18768,-0.00132,0.26932,1.01618
202.06,26.23518,-0.00132,0.26922,1.01596
202.56,26.2827,-0.00132001,0.26947,1.01574
203.06,26.33023,-0.00131856,0.26767,1.01552
203.56,26.37772,-0.003840265,0.26778,1.0153
204.06,26.42555,-0.003950893,0.26734,1.01507
204.56,26.47318,-0.0025308,0.2656,1.01485
205.06,26.5204,-0.00189881,0.26653,1.01463
205.56,26.56808,-0.001647437,0.26463,1.01441
206.06,26.61572,-0.00295028,0.26566,1.01419
206.56,26.66323,-0.00296002,0.26488,1.01396
207.06,26.71112,-0.002960119,0.26381,1.01374
207.56,26.75895,-0.003276762,0.26449,1.01352
208.06,26.80664,-0.003958067,0.26427,1.01329
208.56,26.8543,-0.004282379,0.26433,1.01307
209.06,26.90188,-0.004271098,0.26491,1.01284
209.56,26.94942,-0.005270628,0.26474,1.01262
210.06,26.9969,-0.005270011,0.26451,1.01239
210.56,27.04443,-0.00527,0.26332,1.01217
211.06,27.09233,-0.005269883,0.26428,1.01194
211.56,27.14002,-0.005290542,0.26404,1.01172
212.06,27.1877,-0.00618326,0.2649,1.01149
212.56,27.2355,-0.00683369,0.26567,1.01127
213.06,27.2832,-0.00692094,0.26556,1.01104
213.56,27.33091,-0.00772457,0.26597,1.01081
214.06,27.37855,-0.008239892,0.26528,1.01058
214.56,27.42608,-0.008240001,0.26618,1.01036
215.06,27.47358,-0.008239969,0.26588,1.01013
215.56,27.5212,-0.00825339,0.26662,1.0099
216.06,27.5686,-0.009550618,0.26613,1.00967
216.56,27.6162,-0.009549738,0.26595,1.00944
217.06,27.6639,-0.009791052,0.26536,1.00921
217.56,27.7112,-0.0108692,0.26861,1.00899
218.06,27.7586,-0.01087057,0.26617,1.00876
218.56,27.80612,-0.01217421,0.26527,1.00853
219.06,27.8537,-0.01219015,0.26549,1.0083
219.56,27.90138,-0.01214793,0.26507,1.00807
220.06,27.949,-0.01350994,0.26862,1.00783
220.56,27.9966,-0.01351001,0.26691,1.0076
221.06,28.0444,-0.01350336,0.26699,1.00737
221.56,28.09187,-0.01483658,0.2669,1.00714
222.06,28.13948,-0.01518666,0.26529,1.00691
222.56,28.187,-0.01614077,0.26672,1.00668
223.06,28.23455,-0.01739364,0.26897,1.00644
223.56,28.28228,-0.01745004,0.26604,1.00621
224.06,28.3299,-0.0174491,0.26877,1.00598
224.56,28.37755,-0.01876197,0.26915,1.00574
225.06,28.42506,-0.01876297,0.27022,1.00551
225.56,28.47253,-0.02009697,0.27023,1.00528
226.06,28.52014,-0.02009001,0.26803,1.00504
226.56,28.5677,-0.0200992,0.27046,1.00481
227.06,28.6155,-0.02139974,0.27098,1.00457
227.56,28.66323,-0.02141145,0.27114,1.00434
228.06,28.7107,-0.02250328,0.26991,1.0041
228.56,28.75791,-0.02271991,0.26977,1.00387
229.06,28.8056,-0.02287457,0.27061,1.00363
229.56,28.85322,-0.02434257,0.27062,1.00339
230.06,28.9007,-0.02613576,0.27182,1.00316
230.56,28.9489,-0.0263336,0.272,1.00292
231.06,28.9965,-0.02801898,0.27251,1.00268
231.56,29.0442,-0.02799992,0.27017,1.00245
232.06,29.092,-0.02801449,0.27194,1.00221
232.56,29.1397,-0.02930962,0.27132,1.00197
233.06,29.1874,-0.03066308,0.27294,1.00173
233.56,29.2349,-0.03063161,0.27321,1.00149
234.06,29.28252,-0.03192367,0.27172,1.00125
234.56,29.3302,-0.03331845,0.2722,1.00101
235.06,29.3778,-0.03349831,0.27232,1.00078
235.56,29.42553,-0.03596873,0.27342,1.00054
236.06,29.4734,-0.03731252,0.27489,1.0003
236.56,29.5208,-0.03866269,0.27661,1.00005
237.06,29.56829,-0.03863983,0.27565,0.99981
237.56,29.6159,-0.03866202,0.27582,0.99957
238.06,29.6635,-0.04134115,0.27545,0.99933
238.56,29.7111,-0.04258908,0.27614,0.99909
239.06,29.75889,-0.04260029,0.27731,0.99885
239.56,29.80657,-0.04390824,0.27704,0.99861
240.06,29.85424,-0.04516697,0.27856,0.99836
240.56,29.90185,-0.04613707,0.27923,0.99812
241.06,29.94942,-0.04799346,0.27847,0.99788
241.56,29.997,-0.04920357,0.27997,0.99763
242.06,30.04467,-0.0507363,0.28439,0.99739
242.56,30.09222,-0.05237476,0.28848,0.99715
243.06,30.13972,-0.05561098,0.28772,0.9969
243.56,30.1873,-0.05682757,0.28873,0.99666
244.06,30.235,-0.0579581,0.28794,0.99641
244.56,30.2826,-0.05977924,0.28726,0.99617
245.06,30.3302,-0.06089061,0.28588,0.99592
245.56,30.3779,-0.06059601,0.28309,0.99567
246.06,30.42551,-0.06202409,0.28419,0.99543
246.56,30.47305,-0.06337417,0.28559,0.99518
247.06,30.5206,-0.06731458,0.28392,0.99494
247.56,30.5681,-0.06900203,0.28409,0.99469
248.06,30.6156,-0.07192311,0.28517,0.99444
248.56,30.66323,-0.07409554,0.28594,0.99419
249.06,30.71064,-0.07657501,0.28731,0.99395
249.56,30.7582,-0.07782878,0.28757,0.9937
250.06,30.80565,-0.07961751,0.28881,0.99345
250.56,30.8533,-0.08221596,0.28968,0.9932
251.06,30.901,-0.08394074,0.28881,0.99295
251.56,30.9485,-0.08536818,0.29004,0.9927
252.06,30.9962,-0.08849724,0.29072,0.99245
252.56,31.0436,-0.09156781,0.29109,0.9922
253.06,31.09117,-0.0932483,0.29151,0.99195
253.56,31.1388,-0.09536075,0.29133,0.9917
254.06,31.18628,-0.09799117,0.29236,0.99145
254.56,31.2339,-0.10005,0.29163,0.9912
255.06,31.2814,-0.10228,0.2929,0.99095
255.56,31.32889,-0.1044,0.29272,0.99069
256.06,31.3766,-0.10816,0.29392,0.99044
256.56,31.42425,-0.1107,0.29305,0.99019
257.06,31.4718,-0.11374,0.2929,0.98994
257.56,31.51946,-0.11682,0.29634,0.98968
258.06,31.567,-0.11899,0.29448,0.98943
258.56,31.61437,-0.12149,0.2954,0.98918
259.06,31.66185,-0.12501,0.29777,0.98892
259.56,31.70925,-0.12856,0.29795,0.98867
260.06,31.75668,-0.13203,0.29963,0.98841
260.56,31.8042,-0.13513,0.30003,0.98816
261.06,31.85183,-0.13731,0.30001,0.9879
261.56,31.8995,-0.14254,0.30091,0.98765
262.06,31.94724,-0.14669,0.30304,0.98739
262.56,31.9948,-0.1496,0.30321,0.98714
263.06,32.04241,-0.15125,0.30515,0.98688
263.56,32.09,-0.15553,0.30575,0.98662
264.06,32.13769,-0.15968,0.30911,0.98637
264.56,32.1853,-0.16308,0.30951,0.98611
265.06,32.2331,-0.16796,0.31096,0.98585
265.56,32.2808,-0.17278,0.31111,0.9856
266.06,32.32846,-0.17826,0.31349,0.98534
266.56,32.37631,-0.17986,0.31619,0.98508
267.06,32.42409,-0.186,0.31831,0.98482
267.56,32.47168,-0.19383,0.31908,0.98456
268.06,32.5195,-0.19842,0.32027,0.9843
268.56,32.56714,-0.20247,0.32223,0.98404
269.06,32.61487,-0.20573,0.32487,0.98378
269.56,32.66263,-0.21062,0.32791,0.98352
270.06,32.71028,-0.21637,0.33034,0.98326
270.56,32.75796,-0.22191,0.33227,0.983
271.06,32.8057,-0.22724,0.33374,0.98274
271.56,32.8533,-0.23512,0.33576,0.98248
272.06,32.9009,-0.24232,0.33835,0.98222
272.56,32.94867,-0.24879,0.34103,0.98195
273.06,32.9963,-0.25536,0.34555,0.98169
273.56,33.04399,-0.25964,0.34716,0.98143
274.06,33.0919,-0.26636,0.35025,0.98117
274.56,33.13957,-0.27517,0.35321,0.9809
275.06,33.18727,-0.28194,0.35851,0.98064
275.56,33.23491,-0.29064,0.36349,0.98037
276.06,33.28247,-0.2988,0.36796,0.98011
276.56,33.3298,-0.3064,0.37084,0.97985
277.06,33.3776,-0.31495,0.37842,0.97958
277.56,33.42549,-0.32407,0.38347,0.97932
278.06,33.4732,-0.33266,0.39019,0.97905
278.56,33.521,-0.34206,0.39721,0.97879
279.06,33.56888,-0.35244,0.40368,0.97852
279.56,33.6166,-0.36269,0.41554,0.97825
280.06,33.66448,-0.37442,0.42549,0.97799
280.56,33.7123,-0.38686,0.43724,0.97772
281.06,33.76008,-0.39818,0.45052,0.97745
281.56,33.8078,-0.41029,0.46427,0.97718
282.06,33.85559,-0.42363,0.48369,0.97692
282.56,33.90327,-0.43728,0.50295,0.97665
283.06,33.9513,-0.45133,0.52752,0.97638
283.56,33.99909,-0.46623,0.55135,0.97611
284.06,34.04687,-0.48213,0.58079,0.97584
284.56,34.09491,-0.49986,0.61525,0.97557
285.06,34.14247,-0.51816,0.65079,0.9753
285.56,34.19011,-0.53664,0.69596,0.97503
286.06,34.23829,-0.55807,0.7535,0.97476
286.56,34.28648,-0.58054,0.82138,0.97449
287.06,34.33495,-0.6065,0.89754,0.97422
287.56,34.38362,-0.63394,0.98236,0.97395
288.06,34.43202,-0.66154,1.06974,0.97368
288.56,34.48073,-0.69334,1.15643,0.97341
289.06,34.52917,-0.72841,1.24818,0.97314
289.56,34.5777,-0.7682,1.32718,0.97286
290.06,34.6265,-0.80795,1.401,0.97259
290.56,34.67465,-0.84743,1.47586,0.97232
291.06,34.72333,-0.89161,1.52881,0.97204
291.56,34.77219,-0.93929,1.57014,0.97177
292.06,34.8208,-0.98688,1.59426,0.9715
292.56,34.86967,-1.03313,1.61412,0.97122
293.06,34.91845,-1.0799,1.61954,0.97095
293.56,34.9669,-1.12909,1.61962,0.97067
294.06,35.01529,-1.17865,1.61485,0.9704
294.56,35.0638,-1.22648,1.60526,0.97012
295.06,35.11201,-1.27235,1.57775,0.96985
295.56,35.16025,-1.319,1.5498,0.96957
296.06,35.2087,-1.36565,1.50997,0.96929
296.56,35.25691,-1.41218,1.45805,0.96902
297.06,35.30513,-1.45441,1.39633,0.96874
297.56,35.35333,-1.49609,1.34476,0.96846
298.06,35.40102,-1.53642,1.29238,0.96819
298.56,35.44882,-1.57649,1.24284,0.96791
299.06,35.49672,-1.61434,1.17498,0.96763
299.56,35.54448,-1.64978,1.11201,0.96735
300.06,35.59239,-1.68682,1.06378,0.96707
300.56,35.64033,-1.72032,1.02403,0.96679
301.06,35.68806,-1.75252,0.98306,0.96651
301.56,35.73573,-1.7846,0.94353,0.96623
302.06,35.78324,-1.8148,0.9041,0.96595
302.56,35.83079,-1.84231,0.86436,0.96567
303.06,35.8784,-1.8695,0.82894,0.96539
303.56,35.9261,-1.89357,0.79352,0.96511
304.06,35.9736,-1.91837,0.76157,0.96483
304.56,36.0208,-1.94338,0.73708,0.96455
305.06,36.0684,-1.96651,0.71138,0.96427
305.56,36.11605,-1.9877,0.67998,0.96399
306.06,36.16352,-2.00631,0.65249,0.9637
306.56,36.21163,-2.026,0.62406,0.96342
307.06,36.25956,-2.04398,0.59618,0.96314
307.56,36.30706,-2.0605,0.5758,0.96285
308.06,36.3546,-2.07641,0.55769,0.96257
308.56,36.40198,-2.092,0.53776,0.96229
309.06,36.44958,-2.10789,0.52039,0.962
309.56,36.497,-2.12178,0.49878,0.96172
310.06,36.5445,-2.13467,0.47877,0.96143
310.56,36.59219,-2.14917,0.46044,0.96115
311.06,36.63948,-2.16149,0.44696,0.96086
311.56,36.6866,-2.1731,0.42917,0.96058
312.06,36.73404,-2.18477,0.41258,0.96029
312.56,36.7815,-2.19442,0.3934,0.96
313.06,36.8292,-2.20379,0.38032,0.95972
313.56,36.87729,-2.21408,0.36383,0.95943
314.06,36.92498,-2.22292,0.34759,0.95914
314.56,36.97265,-2.232,0.33149,0.95886
315.06,37.02025,-2.24068,0.32312,0.95857
315.56,37.06791,-2.24845,0.30236,0.95828
316.06,37.11555,-2.25591,0.29044,0.95799
316.56,37.16316,-2.26288,0.28106,0.9577
317.06,37.21079,-2.27052,0.26374,0.95741
317.56,37.2585,-2.27708,0.24605,0.95712
318.06,37.3063,-2.284,0.22431,0.95683
318.56,37.354,-2.29098,0.2046,0.95654
319.06,37.402,-2.29625,0.19002,0.95625
319.56,37.4495,-2.30066,0.17492,0.95596
320.06,37.49726,-2.30683,0.15705,0.95567
320.56,37.5449,-2.31238,0.13966,0.95538
321.06,37.59259,-2.3174,0.12092,0.95509
321.56,37.6405,-2.32258,0.10485,0.9548
322.06,37.68795,-2.32664,0.08570025,0.95451
322.56,37.73559,-2.3318,0.07084035,0.95421
323.06,37.7834,-2.33644,0.05469871,0.95392
323.56,37.8312,-2.34055,0.04175384,0.95363
324.06,37.87919,-2.34421,0.02560839,0.95333
324.56,37.92708,-2.34814,0.01414091,0.95304
325.06,37.9749,-2.35158,0.003120511,0.95275
325.56,38.02255,-2.3553,-0.008718533,0.95245
326.06,38.07038,-2.35906,-0.02098625,0.95216
326.56,38.11815,-2.36329,-0.0325912,0.95186
327.06,38.16583,-2.36559,-0.04200754,0.95157
327.56,38.21362,-2.36851,-0.05390598,0.95127
328.06,38.2614,-2.37322,-0.0628772,0.95098
328.56,38.3091,-2.37647,-0.07347424,0.95068
329.06,38.35717,-2.37717,-0.08078838,0.95038
329.56,38.405,-2.37984,-0.09093781,0.95009
330.06,38.45293,-2.38212,-0.09914216,0.94979
330.56,38.50088,-2.38474,-0.10738,0.94949
331.06,38.54886,-2.38785,-0.11442,0.94919
331.56,38.59677,-2.39014,-0.1223,0.9489
332.06,38.64464,-2.39286,-0.12899,0.9486
332.56,38.69259,-2.39458,-0.13591,0.9483
333.06,38.7404,-2.39649,-0.14242,0.948
333.56,38.7881,-2.39909,-0.14947,0.9477
334.06,38.8361,-2.40168,-0.15453,0.9474
334.56,38.88393,-2.40134,-0.15983,0.9471
335.06,38.93183,-2.40414,-0.16451,0.9468
335.56,38.97987,-2.40545,-0.16982,0.9465
336.06,39.02791,-2.40679,-0.1729,0.9462
336.56,39.076,-2.40809,-0.17715,0.9459
337.06,39.1242,-2.40988,-0.18013,0.9456
337.56,39.17221,-2.41233,-0.18123,0.9453
338.06,39.22033,-2.41359,-0.18485,0.94499
338.56,39.2684,-2.41359,-0.18853,0.94469
339.06,39.31645,-2.41486,-0.1905,0.94439
339.56,39.3645,-2.41652,-0.19259,0.94409
340.06,39.4127,-2.41848,-0.19544,0.94378
340.56,39.46062,-2.41887,-0.20286,0.94348
341.06,39.50826,-2.42018,-0.20531,0.94318
341.56,39.55625,-2.42149,-0.20878,0.94287
342.06,39.60454,-2.42176,-0.21183,0.94257
342.56,39.6527,-2.42427,-0.2136,0.94226
343.06,39.70142,-2.4256,-0.21587,0.94196
343.56,39.75008,-2.42577,-0.21832,0.94165
344.06,39.79837,-2.42704,-0.21909,0.94135
344.56,39.84649,-2.42709,-0.22045,0.94104
345.06,39.89455,-2.42838,-0.22164,0.94073
345.56,39.94257,-2.42978,-0.22123,0.94043
346.06,39.99085,-2.4298,-0.22222,0.94012
346.56,40.03905,-2.43104,-0.22179,0.93981
347.06,40.0876,-2.43236,-0.2225,0.93951
347.56,40.13604,-2.43365,-0.22357,0.9392
348.06,40.18444,-2.43359,-0.22621,0.93889
348.56,40.23261,-2.435,-0.22272,0.93858
349.06,40.28073,-2.435,-0.22324,0.93827
349.56,40.32904,-2.43532,-0.22343,0.93796
350.06,40.37729,-2.43631,-0.22335,0.93766
350.56,40.42553,-2.43667,-0.22354,0.93735
351.06,40.47381,-2.43761,-0.22282,0.93704
351.56,40.5223,-2.43995,-0.22122,0.93673
352.06,40.57073,-2.43994,-0.2222,0.93642
352.56,40.61933,-2.43994,-0.22263,0.9361
353.06,40.66796,-2.43993,-0.22203,0.93579
353.56,40.71638,-2.43996,-0.22419,0.93548
354.06,40.76478,-2.44257,-0.22098,0.93517
354.56,40.8132,-2.44258,-0.22159,0.93486
355.06,40.86155,-2.44125,-0.22349,0.93455
355.56,40.90996,-2.44256,-0.22165,0.93423
356.06,40.9583,-2.44257,-0.22248,0.93392
356.56,41.00676,-2.44248,-0.22095,0.93361
357.06,41.0552,-2.44389,-0.22122,0.93329
357.56,41.1036,-2.44533,-0.2214,0.93298
358.06,41.1521,-2.44653,-0.22134,0.93267
358.56,41.2005,-2.44566,-0.21947,0.93235
359.06,41.24869,-2.44652,-0.21813,0.93204
359.56,41.29715,-2.44803,-0.22007,0.93172
360.06,41.34564,-2.44882,-0.21922,0.93141
360.56,41.39415,-2.44883,-0.21718,0.93109
361.06,41.44278,-2.44876,-0.21785,0.93077
361.56,41.49092,-2.45015,-0.21749,0.93046
362.06,41.53934,-2.45015,-0.21698,0.93014
362.56,41.58766,-2.45147,-0.21593,0.92982
363.06,41.6359,-2.45147,-0.21533,0.92951
363.56,41.68408,-2.45006,-0.21535,0.92919
364.06,41.73257,-2.45015,-0.21465,0.92887
364.56,41.78105,-2.45015,-0.21572,0.92855
365.06,41.82952,-2.45015,-0.21431,0.92823
365.56,41.8782,-2.45147,-0.21341,0.92792
366.06,41.92675,-2.45288,-0.21226,0.9276
366.56,41.97504,-2.45185,-0.21308,0.92728
367.06,42.02332,-2.4519,-0.21277,0.92696
367.56,42.0715,-2.45305,-0.21236,0.92664
368.06,42.11993,-2.45322,-0.21332,0.92632
368.56,42.16875,-2.45322,-0.21242,0.926
369.06,42.2172,-2.45453,-0.2135,0.92568
369.56,42.26612,-2.45454,-0.21366,0.92536
370.06,42.31465,-2.45457,-0.21359,0.92503
370.56,42.3632,-2.45585,-0.21486,0.92471
371.06,42.41171,-2.45585,-0.21459,0.92439
371.56,42.46027,-2.4572,-0.21486,0.92407
372.06,42.50863,-2.45717,-0.21519,0.92374
372.56,42.5571,-2.45717,-0.21514,0.92342
373.06,42.60557,-2.45716,-0.21761,0.9231
373.56,42.65397,-2.45991,-0.21535,0.92278
374.06,42.7023,-2.45981,-0.21486,0.92245
374.56,42.7509,-2.46116,-0.21444,0.92213
375.06,42.79914,-2.45981,-0.21544,0.9218
375.56,42.8476,-2.45981,-0.21441,0.92148
376.06,42.89612,-2.4605,-0.21322,0.92115
376.56,42.9447,-2.46112,-0.21302,0.92083
377.06,42.99324,-2.46107,-0.21566,0.9205
377.56,43.04183,-2.46211,-0.21659,0.92018
378.06,43.0904,-2.4621,-0.21548,0.91985
378.56,43.13883,-2.46244,-0.217,0.91952
379.06,43.18727,-2.46294,-0.2149,0.9192
379.56,43.23563,-2.46376,-0.22025,0.91887
380.06,43.28407,-2.46376,-0.22372,0.91854
380.56,43.3326,-2.46376,-0.22181,0.91821
381.06,43.38107,-2.46376,-0.21881,0.91788
381.56,43.42962,-2.46376,-0.21933,0.91756
382.06,43.4782,-2.46374,-0.21871,0.91723
382.56,43.5269,-2.46508,-0.2194,0.9169
383.06,43.57543,-2.46508,-0.21831,0.91657
383.56,43.62405,-2.46592,-0.21809,0.91624
384.06,43.67262,-2.46639,-0.21555,0.91591
384.56,43.7211,-2.46639,-0.21348,0.91558
385.06,43.76979,-2.46639,-0.2134,0.91525
385.56,43.81845,-2.46771,-0.21265,0.91492
386.06,43.8671,-2.46772,-0.21332,0.91459
386.56,43.9156,-2.47035,-0.21305,0.91426
387.06,43.9641,-2.47035,-0.21048,0.91392
387.56,44.01258,-2.47148,-0.21298,0.91359
388.06,44.06114,-2.47311,-0.21076,0.91326
388.56,44.11,-2.47254,-0.21061,0.91293
389.06,44.1586,-2.47122,-0.21098,0.91259
389.56,44.20735,-2.47122,-0.21108,0.91226
390.06,44.25597,-2.47122,-0.21061,0.91193
390.56,44.30458,-2.47123,-0.21122,0.91159
391.06,44.3532,-2.47253,-0.20884,0.91126
391.56,44.4017,-2.47254,-0.20838,0.91092
392.06,44.4504,-2.4733,-0.20751,0.91059
392.56,44.49924,-2.47386,-0.20693,0.91025
393.06,44.54811,-2.47386,-0.20531,0.90992
393.56,44.5969,-2.4749,-0.20399,0.90958
394.06,44.64548,-2.47551,-0.20381,0.90925
394.56,44.6941,-2.47551,-0.20421,0.90891
395.06,44.7428,-2.47551,-0.20214,0.90857
395.56,44.7913,-2.47686,-0.20121,0.90824
396.06,44.8399,-2.47682,-0.19949,0.9079
396.56,44.88855,-2.47814,-0.19791,0.90756
397.06,44.93738,-2.47865,-0.20055,0.90723
397.56,44.98618,-2.47946,-0.19942,0.90689
398.06,45.03525,-2.47946,-0.19956,0.90655
398.56,45.08433,-2.48087,-0.19774,0.90621
399.06,45.1329,-2.48074,-0.19598,0.90587
399.56,45.18176,-2.48209,-0.19244,0.90553
400.06,45.23039,-2.48344,-0.19174,0.90519
400.56,45.27906,-2.48341,-0.18914,0.90485
401.06,45.32808,-2.4857,-0.18745,0.90451
401.56,45.37679,-2.48577,-0.18584,0.90417
402.06,45.4256,-2.48568,-0.18149,0.90383
402.56,45.4743,-2.48572,-0.17839,0.90349
403.06,45.52297,-2.48572,-0.1773,0.90315
403.56,45.5717,-2.48712,-0.1726,0.90281
404.06,45.62044,-2.48703,-0.17086,0.90247
404.56,45.66918,-2.48736,-0.16977,0.90212
405.06,45.71802,-2.48956,-0.16333,0.90178
405.56,45.76682,-2.49,-0.16182,0.90144
406.06,45.81564,-2.49,-0.15731,0.90109
406.56,45.86452,-2.49089,-0.15534,0.90075
407.06,45.9133,-2.49131,-0.15131,0.90041
407.56,45.9621,-2.49221,-0.14722,0.90006
408.06,46.0107,-2.49263,-0.14218,0.89972
408.56,46.0595,-2.49264,-0.13955,0.89937
409.06,46.10828,-2.49451,-0.13712,0.89903
409.56,46.15705,-2.49545,-0.13196,0.89868
410.06,46.2057,-2.4966,-0.13219,0.89834
410.56,46.25445,-2.4979,-0.1275,0.89799
411.06,46.30327,-2.4981,-0.12494,0.89765
411.56,46.352,-2.49983,-0.12434,0.8973
412.06,46.4009,-2.50054,-0.12059,0.89695
412.56,46.4499,-2.50054,-0.1188,0.89661
413.06,46.4989,-2.50185,-0.11664,0.89626
413.56,46.54763,-2.50319,-0.11535,0.89591
414.06,46.5965,-2.50447,-0.11471,0.89556
414.56,46.6453,-2.50562,-0.11524,0.89522
415.06,46.6941,-2.50606,-0.11664,0.89487
415.56,46.74304,-2.50712,-0.11766,0.89452
416.06,46.79195,-2.50734,-0.11592,0.89417
416.56,46.8407,-2.50845,-0.11625,0.89382
417.06,46.88953,-2.50976,-0.11717,0.89347
417.56,46.93838,-2.51012,-0.11933,0.89312
418.06,46.98722,-2.51139,-0.11857,0.89277
418.56,47.03614,-2.51258,-0.11955,0.89242
419.06,47.08514,-2.51282,-0.11835,0.89207
419.56,47.13398,-2.5141,-0.1192,0.89172
420.06,47.1828,-2.51609,-0.12042,0.89137
420.56,47.23165,-2.51794,-0.12057,0.89101
421.06,47.28027,-2.51931,-0.12031,0.89066
421.56,47.32907,-2.51931,-0.12099,0.89031
422.06,47.37805,-2.52064,-0.12319,0.88996
422.56,47.42687,-2.52108,-0.12366,0.8896
423.06,47.47586,-2.52205,-0.12622,0.88925
423.56,47.52503,-2.52344,-0.12503,0.8889
424.06,47.57395,-2.52567,-0.12547,0.88854
424.56,47.62299,-2.52769,-0.12189,0.88819
425.06,47.67212,-2.52902,-0.12435,0.88784
425.56,47.72118,-2.53047,-0.12349,0.88748
426.06,47.77019,-2.53185,-0.12499,0.88713
426.56,47.81919,-2.53391,-0.12382,0.88677
427.06,47.86801,-2.53481,-0.1233,0.88642
427.56,47.91682,-2.5373,-0.12436,0.88606
428.06,47.9657,-2.53875,-0.12217,0.8857
428.56,48.0143,-2.54012,-0.12266,0.88535
429.06,48.06317,-2.54182,-0.12156,0.88499
429.56,48.11231,-2.54453,-0.12222,0.88463
430.06,48.16126,-2.54576,-0.1223,0.88428
430.56,48.21014,-2.54726,-0.12451,0.88392
431.06,48.2594,-2.54931,-0.12361,0.88356
431.56,48.3084,-2.55162,-0.12338,0.8832
432.06,48.35743,-2.55333,-0.1217,0.88284
432.56,48.40652,-2.55471,-0.1227,0.88249
433.06,48.45565,-2.55748,-0.12233,0.88213
433.56,48.5045,-2.55962,-0.12332,0.88177
434.06,48.55343,-2.56113,-0.12023,0.88141
434.56,48.6023,-2.56246,-0.12187,0.88105
435.06,48.65126,-2.56417,-0.11856,0.88069
435.56,48.70022,-2.56698,-0.11994,0.88033
436.06,48.74923,-2.56894,-0.1194,0.87997
436.56,48.79825,-2.57155,-0.11898,0.8796
437.06,48.8473,-2.57357,-0.11897,0.87924
437.56,48.8964,-2.57611,-0.11736,0.87888
438.06,48.94554,-2.57932,-0.11991,0.87852
438.56,48.99451,-2.58244,-0.11647,0.87816
439.06,49.0434,-2.58408,-0.11425,0.8778
439.56,49.09243,-2.58673,-0.11602,0.87743
440.06,49.14125,-2.58895,-0.11391,0.87707
440.56,49.1899,-2.59247,-0.11316,0.87671
441.06,49.2389,-2.59525,-0.11235,0.87634
441.56,49.2879,-2.5972,-0.11104,0.87598
442.06,49.3367,-2.60029,-0.11079,0.87561
442.56,49.3859,-2.60518,-0.11169,0.87525
443.06,49.43502,-2.60739,-0.10834,0.87488
443.56,49.48382,-2.60907,-0.1079,0.87452
444.06,49.53288,-2.61091,-0.10416,0.87415
444.56,49.58146,-2.61427,-0.10435,0.87379
445.06,49.63046,-2.61726,-0.10343,0.87342
445.56,49.67941,-2.62131,-0.10236,0.87306
446.06,49.72852,-2.62488,-0.09913924,0.87269
446.56,49.7777,-2.62854,-0.09815768,0.87232
447.06,49.8269,-2.63241,-0.09772896,0.87196
447.56,49.876,-2.63517,-0.09631726,0.87159
448.06,49.92491,-2.64046,-0.09223548,0.87122
448.56,49.9739,-2.64463,-0.09164418,0.87085
449.06,50.02283,-2.64767,-0.09043262,0.87048
449.56,50.07139,-2.65123,-0.08932492,0.87012
450.06,50.1205,-2.65452,-0.08637462,0.86975
450.56,50.1695,-2.65775,-0.085629,0.86938
451.06,50.21843,-2.66115,-0.08274742,0.86901
451.56,50.26782,-2.66455,-0.07850119,0.86864
452.06,50.31711,-2.66916,-0.07888486,0.86827
452.56,50.36633,-2.67402,-0.07523083,0.8679
453.06,50.41558,-2.67803,-0.07370278,0.86753
453.56,50.4647,-2.6823,-0.07241337,0.86716
454.06,50.5137,-2.68645,-0.07276536,0.86679
454.56,50.56278,-2.6896,-0.06603418,0.86641
455.06,50.61197,-2.69429,-0.06796916,0.86604
455.56,50.66106,-2.69766,-0.06666435,0.86567
456.06,50.71013,-2.70185,-0.06349757,0.8653
456.56,50.75927,-2.70727,-0.06325191,0.86493
457.06,50.80834,-2.71079,-0.06206292,0.86455
457.56,50.8575,-2.71449,-0.06008525,0.86418
458.06,50.9065,-2.71813,-0.05839253,0.86381
458.56,50.95567,-2.72237,-0.05547213,0.86343
459.06,51.00468,-2.72707,-0.05568757,0.86306
459.56,51.0537,-2.73033,-0.053657,0.86269
460.06,51.1028,-2.73518,-0.049615,0.86231
460.56,51.15166,-2.73873,-0.04854905,0.86194
461.06,51.20062,-2.74254,-0.04791158,0.86156
461.56,51.24966,-2.74715,-0.04576667,0.86119
462.06,51.2988,-2.75159,-0.04613274,0.86081
462.56,51.348,-2.75536,-0.04316137,0.86043
463.06,51.39719,-2.75847,-0.04125749,0.86006
463.56,51.44616,-2.7639,-0.04169311,0.85968
464.06,51.49519,-2.76761,-0.04000653,0.8593
464.56,51.5443,-2.77168,-0.03936365,0.85893
465.06,51.59347,-2.77577,-0.03947496,0.85855
465.56,51.64261,-2.78006,-0.03823799,0.85817
466.06,51.6917,-2.78298,-0.03738001,0.85779
466.56,51.74072,-2.78691,-0.03699581,0.85742
467.06,51.78967,-2.7925,-0.03639011,0.85704
467.56,51.83863,-2.79691,-0.036251,0.85666
468.06,51.88785,-2.80014,-0.03527994,0.85628
468.56,51.9371,-2.80371,-0.03543831,0.8559
469.06,51.98639,-2.8078,-0.03494493,0.85552
469.56,52.03575,-2.8122,-0.03463406,0.85514
470.06,52.08504,-2.8165,-0.03294778,0.85476
470.56,52.1344,-2.82029,-0.03478075,0.85438
471.06,52.1837,-2.82467,-0.03400175,0.854
471.56,52.2331,-2.82876,-0.0342368,0.85362
472.06,52.28255,-2.83172,-0.03366017,0.85324
472.56,52.33188,-2.83355,-0.03444654,0.85286
473.06,52.38135,-2.83804,-0.03390301,0.85248
473.56,52.43071,-2.84177,-0.03210494,0.85209
474.06,52.48001,-2.84535,-0.03327134,0.85171
474.56,52.5293,-2.84966,-0.03091589,0.85133
475.06,52.5787,-2.85356,-0.0322619,0.85095
475.56,52.6281,-2.85718,-0.03139476,0.85056
476.06,52.67739,-2.86047,-0.03262967,0.85018
476.56,52.7263,-2.86408,-0.03307807,0.84979
477.06,52.77553,-2.86759,-0.03253212,0.84941
477.56,52.82465,-2.87103,-0.03242492,0.84903
478.06,52.8739,-2.875,-0.0322146,0.84864
478.56,52.92349,-2.87818,-0.03425768,0.84826
479.06,52.97308,-2.88177,-0.03504233,0.84787
479.56,53.02245,-2.88402,-0.03409714,0.84749
480.06,53.0717,-2.88735,-0.03507499,0.8471
480.56,53.121,-2.8902,-0.03512826,0.84672
481.06,53.1699,-2.89372,-0.03532067,0.84633
481.56,53.21924,-2.89742,-0.03603107,0.84594
482.06,53.26862,-2.90035,-0.03516933,0.84556
482.56,53.318,-2.90344,-0.03700952,0.84517
483.06,53.3675,-2.90671,-0.03807017,0.84478
483.56,53.41675,-2.90978,-0.03949671,0.84439
484.06,53.46597,-2.91218,-0.03921685,0.84401
484.56,53.51514,-2.91445,-0.04000229,0.84362
485.06,53.56454,-2.91656,-0.04080214,0.84323
485.56,53.6139,-2.92116,-0.04244874,0.84284
486.06,53.663,-2.92402,-0.04224153,0.84245
486.56,53.71212,-2.92608,-0.04130402,0.84206
487.06,53.76135,-2.92878,-0.04278504,0.84167
487.56,53.8107,-2.92939,-0.04351044,0.84128
488.06,53.8601,-2.93176,-0.04569196,0.84089
488.56,53.9095,-2.93421,-0.04500252,0.8405
489.06,53.9588,-2.93606,-0.04439386,0.84011
489.56,54.00824,-2.93804,-0.04582849,0.83972
490.06,54.0577,-2.94134,-0.05055529,0.83933
490.56,54.10703,-2.9443,-0.04874527,0.83894
491.06,54.15648,-2.94573,-0.04932903,0.83855
491.56,54.2058,-2.94842,-0.05180698,0.83816
492.06,54.25512,-2.94975,-0.05173403,0.83776
492.56,54.30469,-2.95114,-0.05504466,0.83737
493.06,54.35416,-2.9536,-0.05579399,0.83698
493.56,54.40371,-2.95558,-0.05419885,0.83659
494.06,54.453,-2.95701,-0.05566379,0.83619
494.56,54.50249,-2.95864,-0.057789,0.8358
495.06,54.552,-2.95987,-0.05705558,0.83541
495.56,54.6014,-2.9614,-0.05834988,0.83501
496.06,54.65096,-2.9629,-0.06075027,0.83462
496.56,54.7005,-2.96471,-0.06200489,0.83422
497.06,54.74995,-2.96631,-0.06172345,0.83383
497.56,54.79945,-2.96725,-0.06450429,0.83343
498.06,54.8489,-2.96885,-0.06404263,0.83304
498.56,54.8983,-2.97019,-0.06683727,0.83264
499.06,54.9476,-2.97152,-0.06768127,0.83225
499.56,54.9971,-2.97281,-0.06464119,0.83185
500.06,55.04654,-2.97469,-0.06709918,0.83145
500.56,55.096,-2.97705,-0.06973059,0.83106
501.06,55.1455,-2.97846,-0.06839129,0.83066
501.56,55.1949,-2.97973,-0.07116359,0.83026
502.06,55.24443,-2.97849,-0.07052657,0.82987
502.56,55.29399,-2.98102,-0.07260324,0.82947
503.06,55.34335,-2.98237,-0.07396757,0.82907
503.56,55.3929,-2.98372,-0.07375213,0.82867
504.06,55.44248,-2.98473,-0.07562264,0.82827
504.56,55.4919,-2.9851,-0.07533221,0.82788
505.06,55.5416,-2.98503,-0.07679277,0.82748
505.56,55.59101,-2.98634,-0.07852099,0.82708
506.06,55.6405,-2.98764,-0.08079583,0.82668
506.56,55.69,-2.98898,-0.08079501,0.82628
507.06,55.73961,-2.98999,-0.08160519,0.82588
507.56,55.7894,-2.99028,-0.08093625,0.82548
508.06,55.8389,-2.99094,-0.08147897,0.82508
508.56,55.88841,-2.99226,-0.08052855,0.82468
509.06,55.93789,-2.99357,-0.08241996,0.82428
509.56,55.9872,-2.99357,-0.08350126,0.82387
510.06,56.03669,-2.99488,-0.08674859,0.82347
510.56,56.0863,-2.99489,-0.08637298,0.82307
511.06,56.1358,-2.99626,-0.08632166,0.82267
511.56,56.1854,-2.99759,-0.08610654,0.82227
512.06,56.23497,-2.99753,-0.08623172,0.82186
512.56,56.28439,-2.99785,-0.08738442,0.82146
513.06,56.33384,-2.99892,-0.08992433,0.82106
513.56,56.3832,-3.00027,-0.0911435,0.82065
514.06,56.43258,-3.00155,-0.08975024,0.82025
514.56,56.4821,-3.00291,-0.09371898,0.81985
515.06,56.5315,-3.00308,-0.09516833,0.81944
515.56,56.581,-3.00422,-0.09413319,0.81904
516.06,56.63057,-3.00422,-0.09418011,0.81863
516.56,56.6801,-3.00559,-0.09486334,0.81823
517.06,56.72956,-3.00554,-0.09402069,0.81782
517.56,56.7792,-3.00685,-0.09518841,0.81742
518.06,56.8288,-3.00685,-0.09615395,0.81701
518.56,56.8783,-3.00814,-0.09611446,0.81661
519.06,56.92802,-3.00818,-0.09737282,0.8162
519.56,56.97746,-3.0089,-0.09824928,0.81579
520.06,57.02695,-3.0085,-0.09867638,0.81539
520.56,57.07656,-3.00876,-0.09820853,0.81498
521.06,57.1262,-3.01002,-0.09883481,0.81457
521.56,57.17581,-3.0101,-0.09774639,0.81416
522.06,57.2254,-3.01146,-0.09921432,0.81376
522.56,57.27485,-3.01279,-0.10028,0.81335
523.06,57.32439,-3.01243,-0.10037,0.81294
523.56,57.3741,-3.01277,-0.10079,0.81253
524.06,57.4236,-3.01279,-0.1027,0.81212
524.56,57.4733,-3.01408,-0.10069,0.81171
525.06,57.52268,-3.01411,-0.10153,0.81131
525.56,57.572,-3.01411,-0.10111,0.8109
526.06,57.6215,-3.01429,-0.09943982,0.81049
526.56,57.671,-3.01542,-0.10015,0.81008
527.06,57.7205,-3.01673,-0.09913955,0.80967
527.56,57.77,-3.01712,-0.09769135,0.80926
528.06,57.81965,-3.01773,-0.09717036,0.80884
528.56,57.8694,-3.01904,-0.09810227,0.80843
529.06,57.91921,-3.01872,-0.09441909,0.80802
529.56,57.96892,-3.01936,-0.09564682,0.80761
530.06,58.01862,-3.01937,-0.09363573,0.8072
530.56,58.06827,-3.01937,-0.0947722,0.80679
531.06,58.1179,-3.02069,-0.09324382,0.80637
531.56,58.1677,-3.02069,-0.09413715,0.80596
532.06,58.21734,-3.02201,-0.09239124,0.80555
532.56,58.26696,-3.02201,-0.09233805,0.80514
533.06,58.3166,-3.022,-0.09225643,0.80472
533.56,58.36615,-3.02333,-0.09181016,0.80431
534.06,58.4158,-3.02336,-0.09273621,0.8039
534.56,58.4656,-3.02464,-0.09125216,0.80348
535.06,58.5154,-3.02499,-0.09099287,0.80307
535.56,58.56521,-3.02596,-0.09012123,0.80265
536.06,58.6151,-3.02595,-0.09243423,0.80224
536.56,58.6649,-3.02729,-0.09189693,0.80182
537.06,58.71473,-3.02721,-0.08962709,0.80141
537.56,58.7645,-3.02794,-0.09163015,0.80099
538.06,58.8139,-3.02794,-0.09015293,0.80058
538.56,58.8634,-3.028,-0.0909897,0.80016
539.06,58.9131,-3.02728,-0.09122936,0.79975
539.56,58.96286,-3.02728,-0.09042746,0.79933
540.06,59.0129,-3.02824,-0.08958226,0.79891
540.56,59.06301,-3.02827,-0.0899497,0.7985
541.06,59.113,-3.02859,-0.09001864,0.79808
541.56,59.1628,-3.02996,-0.08738996,0.79766
542.06,59.2126,-3.03128,-0.09001607,0.79724
542.56,59.26242,-3.03123,-0.08928784,0.79683
543.06,59.3121,-3.03123,-0.08990293,0.79641
543.56,59.3619,-3.03123,-0.09059725,0.79599
544.06,59.4116,-3.03253,-0.09026182,0.79557
544.56,59.46128,-3.03255,-0.09103496,0.79515
545.06,59.51086,-3.03255,-0.09078691,0.79473
545.56,59.56057,-3.03255,-0.0903889,0.79431
546.06,59.6102,-3.0332,-0.09034408,0.79389
546.56,59.6598,-3.03386,-0.09091374,0.79348
547.06,59.70946,-3.03386,-0.09093444,0.79306
547.56,59.7591,-3.03386,-0.09171411,0.79264
548.06,59.8087,-3.03385,-0.09410497,0.79221
548.56,59.8583,-3.03518,-0.09465361,0.79179
549.06,59.9079,-3.03641,-0.09476089,0.79137
549.56,59.9573,-3.03659,-0.09482431,0.79095
549.96,59.99765,-3.03651,-0.09562925,0.79061