File: 01_Data/Cotton_Felt/STA/N2/10K_min/Cotton_Felt_STA_N2_10KData_210715_R2.csv
##Temp./Â°C,Time/min,Mass loss(subtr.2)/mg,DSC(subtr.2)/(mW/mg),Sensit./(uV/mW)
49.335,10.01,-0.05539,0.04861598,0.61832
49.935,11.413,-0.06091651,0.07389393,0.61864
50.535,11.754,-0.06045502,0.09076976,0.61896
51.135,11.99886,-0.06157869,0.1063,0.61928
51.735,12.19775,-0.06223524,0.11805,0.61959
52.335,12.3717,-0.06033555,0.12818,0.61991
52.935,12.52948,-0.06351582,0.13835,0.62022
53.535,12.6747,-0.06318787,0.14152,0.62053
54.135,12.81001,-0.06328989,0.15108,0.62084
54.735,12.93803,-0.06469674,0.16167,0.62115
55.335,13.05993,-0.06483041,0.16409,0.62146
55.935,13.17741,-0.06492264,0.17141,0.62176
56.535,13.2905,-0.06628716,0.17463,0.62207
57.135,13.4013,-0.06744104,0.18277,0.62237
57.735,13.50893,-0.06776416,0.18774,0.62268
58.335,13.61292,-0.06819538,0.19256,0.62298
58.935,13.7142,-0.06953582,0.19722,0.62328
59.535,13.8135,-0.06821589,0.2034,0.62358
60.135,13.9115,-0.06838162,0.20655,0.62388
60.735,14.0083,-0.07008877,0.21272,0.62417
61.335,14.1023,-0.06976053,0.22011,0.62447
61.935,14.1944,-0.06980731,0.22291,0.62476
62.535,14.28585,-0.07162404,0.22782,0.62506
63.135,14.37585,-0.07249272,0.23439,0.62535
63.735,14.46445,-0.07110286,0.23818,0.62564
64.335,14.55206,-0.07398457,0.24114,0.62593
64.935,14.63855,-0.07258024,0.24547,0.62621
65.535,14.72364,-0.07394655,0.24994,0.6265
66.135,14.8078,-0.07384675,0.25676,0.62679
66.735,14.8914,-0.07611851,0.26084,0.62707
67.335,14.9741,-0.07524913,0.26217,0.62735
67.935,15.05644,-0.07536524,0.27027,0.62764
68.535,15.13696,-0.07788485,0.27117,0.62792
69.135,15.2167,-0.07789568,0.27639,0.62819
69.735,15.2956,-0.07824272,0.27979,0.62847
70.335,15.3743,-0.07885062,0.28559,0.62875
70.935,15.45245,-0.08441497,0.29131,0.62902
71.535,15.52951,-0.07372168,0.29417,0.6293
72.135,15.60631,-0.07925764,0.29746,0.62957
72.735,15.6824,-0.08238103,0.30138,0.62984
73.335,15.75806,-0.08367725,0.30793,0.63011
73.935,15.833,-0.08368993,0.31008,0.63038
74.535,15.9074,-0.08351649,0.31215,0.63065
75.135,15.98138,-0.08369987,0.31435,0.63092
75.735,16.0549,-0.08502674,0.32183,0.63118
76.335,16.12795,-0.08631939,0.32342,0.63144
76.935,16.20015,-0.08633878,0.32467,0.63171
77.535,16.27182,-0.08768431,0.33035,0.63197
78.135,16.34285,-0.08773172,0.33416,0.63223
78.735,16.41348,-0.08858374,0.33974,0.63249
79.335,16.484,-0.09028837,0.3441,0.63275
79.935,16.5542,-0.09160118,0.34809,0.633
80.535,16.62402,-0.09047408,0.3499,0.63326
81.135,16.69315,-0.10089,0.35186,0.63351
81.735,16.76205,-0.08664908,0.35508,0.63376
82.335,16.83024,-0.09356793,0.3568,0.63401
82.935,16.89829,-0.09488537,0.36168,0.63426
83.535,16.96611,-0.09554015,0.36217,0.63451
84.135,17.03346,-0.09623501,0.36386,0.63476
84.735,17.1003,-0.09751976,0.36765,0.63501
85.335,17.1669,-0.09619521,0.36967,0.63525
85.935,17.2333,-0.09751637,0.37274,0.6355
86.535,17.2997,-0.09882864,0.37405,0.63574
87.135,17.3654,-0.1002,0.37585,0.63598
87.735,17.43091,-0.10022,0.37706,0.63622
88.335,17.49621,-0.10115,0.3803,0.63646
88.935,17.56117,-0.10278,0.38278,0.6367
89.535,17.62557,-0.10278,0.38341,0.63693
90.135,17.68971,-0.1041,0.3834,0.63717
90.735,17.75335,-0.1041,0.38671,0.6374
91.335,17.8167,-0.10413,0.38345,0.63763
91.935,17.88,-0.10541,0.38508,0.63786
92.535,17.94346,-0.10673,0.38615,0.63809
93.135,18.0065,-0.10789,0.38439,0.63832
93.735,18.0696,-0.10805,0.38286,0.63855
94.335,18.1324,-0.10918,0.38281,0.63877
94.935,18.1949,-0.10833,0.38478,0.639
95.535,18.25711,-0.11067,0.38444,0.63922
96.135,18.31852,-0.11122,0.38632,0.63944
96.735,18.3807,-0.11205,0.38607,0.63967
97.335,18.4424,-0.11332,0.38437,0.63989
97.935,18.5044,-0.1131,0.38439,0.6401
98.535,18.56542,-0.11199,0.38543,0.64032
99.135,18.62643,-0.11322,0.38274,0.64054
99.735,18.68764,-0.1148,0.38173,0.64075
100.335,18.7483,-0.11652,0.37997,0.64096
100.935,18.80912,-0.11661,0.37976,0.64118
101.535,18.86962,-0.11726,0.38153,0.64139
102.135,18.93008,-0.11726,0.37928,0.6416
102.735,18.99107,-0.11857,0.37632,0.64181
103.335,19.05143,-0.11924,0.37585,0.64201
103.935,19.11153,-0.11924,0.37237,0.64222
104.535,19.17138,-0.11924,0.37393,0.64242
105.135,19.23145,-0.11927,0.36938,0.64263
105.735,19.29129,-0.1199,0.36634,0.64283
106.335,19.3512,-0.12127,0.36787,0.64303
106.935,19.41085,-0.12121,0.3673,0.64323
107.535,19.47034,-0.12121,0.36315,0.64343
108.135,19.52967,-0.12253,0.358,0.64362
108.735,19.58887,-0.12253,0.35839,0.64382
109.335,19.64815,-0.12384,0.35625,0.64401
109.935,19.70748,-0.12383,0.35362,0.64421
110.535,19.7668,-0.12384,0.35254,0.6444
111.135,19.8259,-0.12384,0.35281,0.64459
111.735,19.8849,-0.12399,0.35137,0.64478
112.335,19.94381,-0.12615,0.3492,0.64497
112.935,20.00275,-0.12612,0.34743,0.64515
113.535,20.06149,-0.12516,0.34629,0.64534
114.135,20.12031,-0.12516,0.34782,0.64552
114.735,20.17882,-0.12647,0.34594,0.6457
115.335,20.23726,-0.12647,0.34279,0.64589
115.935,20.29566,-0.12646,0.33956,0.64607
116.535,20.3541,-0.12648,0.33866,0.64625
117.135,20.41255,-0.12837,0.33742,0.64642
117.735,20.47085,-0.12775,0.339,0.6466
118.335,20.52893,-0.12779,0.33547,0.64678
118.935,20.58695,-0.12779,0.33575,0.64695
119.535,20.64487,-0.12778,0.33089,0.64712
120.135,20.70262,-0.1291,0.33465,0.6473
120.735,20.76041,-0.1291,0.33374,0.64747
121.335,20.81823,-0.13044,0.33277,0.64763
121.935,20.87591,-0.13042,0.33194,0.6478
122.535,20.93348,-0.13138,0.33315,0.64797
123.135,20.9905,-0.13141,0.33144,0.64813
123.735,21.0478,-0.13043,0.33142,0.6483
124.335,21.10536,-0.13055,0.32934,0.64846
124.935,21.16315,-0.13042,0.32815,0.64862
125.535,21.2207,-0.13146,0.32924,0.64878
126.135,21.27798,-0.13298,0.32742,0.64894
126.735,21.33485,-0.13174,0.32805,0.6491
127.335,21.39173,-0.13304,0.32789,0.64926
127.935,21.44848,-0.1318,0.32971,0.64941
128.535,21.5052,-0.13174,0.32965,0.64957
129.135,21.562,-0.13285,0.33204,0.64972
129.735,21.6185,-0.13245,0.33074,0.64987
130.335,21.67501,-0.13086,0.33194,0.65002
130.935,21.7313,-0.13076,0.33132,0.65017
131.535,21.7876,-0.13212,0.33067,0.65032
132.135,21.844,-0.13204,0.33175,0.65047
132.735,21.9003,-0.13207,0.33222,0.65061
133.335,21.95619,-0.13207,0.33215,0.65075
133.935,22.01226,-0.13207,0.33424,0.6509
134.535,22.0682,-0.13203,0.33173,0.65104
135.135,22.1243,-0.13337,0.33444,0.65118
135.735,22.18006,-0.13437,0.33242,0.65132
136.335,22.236,-0.13306,0.33542,0.65146
136.935,22.29194,-0.13445,0.33253,0.65159
137.535,22.3478,-0.13391,0.3351,0.65173
138.135,22.40348,-0.13155,0.33389,0.65186
138.735,22.45889,-0.13306,0.33545,0.652
139.335,22.5143,-0.13448,0.33531,0.65213
139.935,22.56992,-0.13448,0.33516,0.65226
140.535,22.62548,-0.13448,0.33322,0.65239
141.135,22.681,-0.1349,0.33704,0.65251
141.735,22.73645,-0.1358,0.33735,0.65264
142.335,22.79175,-0.13448,0.33588,0.65277
142.935,22.84703,-0.13447,0.33665,0.65289
143.535,22.90213,-0.13446,0.33805,0.65301
144.135,22.95729,-0.13443,0.33792,0.65314
144.735,23.01247,-0.1358,0.34029,0.65326
145.335,23.06758,-0.1358,0.34263,0.65338
145.935,23.12262,-0.13447,0.33855,0.65349
146.535,23.17745,-0.13337,0.33921,0.65361
147.135,23.23227,-0.13318,0.3445,0.65373
147.735,23.28706,-0.13449,0.34333,0.65384
148.335,23.34199,-0.13451,0.34586,0.65395
148.935,23.3967,-0.13317,0.34486,0.65407
149.535,23.45141,-0.13316,0.3457,0.65418
150.135,23.50605,-0.13383,0.34654,0.65429
150.735,23.5608,-0.13448,0.34599,0.65439
151.335,23.6155,-0.13448,0.34861,0.6545
151.935,23.67013,-0.13448,0.35024,0.65461
152.535,23.72479,-0.13307,0.34821,0.65471
153.135,23.77936,-0.13316,0.34946,0.65481
153.735,23.8339,-0.13448,0.34977,0.65492
154.335,23.88853,-0.13448,0.34978,0.65502
154.935,23.943,-0.13442,0.35041,0.65512
155.535,23.99749,-0.1358,0.35114,0.65522
156.135,24.05185,-0.1354,0.34929,0.65531
156.735,24.10621,-0.13558,0.35114,0.65541
157.335,24.16075,-0.13426,0.35346,0.6555
157.935,24.21527,-0.13426,0.35331,0.6556
158.535,24.26986,-0.13426,0.35315,0.65569
159.135,24.32435,-0.13426,0.35653,0.65578
159.735,24.37858,-0.13426,0.35644,0.65587
160.335,24.43296,-0.1342,0.35881,0.65596
160.935,24.48735,-0.13558,0.35813,0.65605
161.535,24.54162,-0.13479,0.35588,0.65613
162.135,24.59592,-0.13426,0.36099,0.65622
162.735,24.65025,-0.13426,0.36005,0.6563
163.335,24.7046,-0.13432,0.36333,0.65638
163.935,24.75921,-0.13499,0.36341,0.65647
164.535,24.81352,-0.13426,0.36271,0.65655
165.135,24.8677,-0.13426,0.36253,0.65663
165.735,24.92204,-0.13426,0.36276,0.6567
166.335,24.9762,-0.13539,0.36312,0.65678
166.935,25.0305,-0.13557,0.36406,0.65686
167.535,25.08481,-0.13551,0.36355,0.65693
168.135,25.13909,-0.13558,0.36636,0.657
168.735,25.1933,-0.13558,0.3694,0.65707
169.335,25.2478,-0.13623,0.36882,0.65714
169.935,25.30201,-0.13624,0.36983,0.65721
170.535,25.35624,-0.13624,0.36953,0.65728
171.135,25.41049,-0.13521,0.36823,0.65735
171.735,25.4645,-0.13494,0.37235,0.65741
172.335,25.51853,-0.13627,0.37292,0.65748
172.935,25.57256,-0.13488,0.37363,0.65754
173.535,25.62661,-0.13458,0.37533,0.65761
174.135,25.68083,-0.13661,0.3741,0.65767
174.735,25.73503,-0.13524,0.37469,0.65773
175.335,25.78921,-0.13525,0.37464,0.65778
175.935,25.84338,-0.13525,0.37761,0.65784
176.535,25.89741,-0.13522,0.37706,0.6579
177.135,25.95146,-0.13555,0.37594,0.65795
177.735,26.0053,-0.13657,0.37318,0.65801
178.335,26.0591,-0.13699,0.37674,0.65806
178.935,26.11296,-0.13656,0.37666,0.65811
179.535,26.16691,-0.13697,0.37872,0.65816
180.135,26.22089,-0.13788,0.38248,0.65821
180.735,26.2749,-0.13788,0.38134,0.65826
181.335,26.32878,-0.13788,0.38127,0.65831
181.935,26.38263,-0.13788,0.37978,0.65835
182.535,26.4364,-0.13788,0.38399,0.6584
183.135,26.48988,-0.13691,0.38143,0.65844
183.735,26.5437,-0.13657,0.38095,0.65848
184.335,26.5974,-0.13692,0.3809,0.65852
184.935,26.65134,-0.1369,0.38213,0.65856
185.535,26.7053,-0.13793,0.38426,0.6586
186.135,26.75902,-0.13788,0.38478,0.65864
186.735,26.81295,-0.13788,0.38495,0.65867
187.335,26.86668,-0.13778,0.38413,0.65871
187.935,26.92029,-0.1392,0.38759,0.65874
188.535,26.9737,-0.1392,0.38448,0.65878
189.135,27.0271,-0.1392,0.38587,0.65881
189.735,27.0804,-0.14054,0.38528,0.65884
190.335,27.13382,-0.14052,0.3846,0.65887
190.935,27.1872,-0.14009,0.38628,0.65889
191.535,27.24057,-0.1392,0.38796,0.65892
192.135,27.29407,-0.14052,0.38746,0.65895
192.735,27.3475,-0.13921,0.38696,0.65897
193.335,27.40098,-0.1392,0.38853,0.659
193.935,27.45435,-0.13912,0.39212,0.65902
194.535,27.50778,-0.14051,0.38915,0.65904
195.135,27.56105,-0.14051,0.39014,0.65906
195.735,27.61443,-0.14181,0.38929,0.65908
196.335,27.6678,-0.14236,0.38916,0.6591
196.935,27.7213,-0.14381,0.39065,0.65911
197.535,27.7749,-0.14381,0.39034,0.65913
198.135,27.82828,-0.14381,0.39127,0.65914
198.735,27.8817,-0.14248,0.3897,0.65916
199.335,27.93504,-0.14118,0.38689,0.65917
199.935,27.98828,-0.14113,0.38939,0.65918
200.535,28.04162,-0.14249,0.39126,0.65919
201.135,28.0949,-0.14249,0.39142,0.6592
201.735,28.14818,-0.14249,0.39275,0.6592
202.335,28.2014,-0.1425,0.38999,0.65921
202.935,28.2546,-0.1438,0.38697,0.65922
203.535,28.3079,-0.14381,0.38915,0.65922
204.135,28.36125,-0.14347,0.38751,0.65922
204.735,28.41485,-0.14412,0.38582,0.65922
205.335,28.46828,-0.14446,0.38893,0.65922
205.935,28.5216,-0.14446,0.38807,0.65922
206.535,28.57483,-0.1443,0.38911,0.65922
207.135,28.6281,-0.14448,0.38825,0.65922
207.735,28.6814,-0.14905,0.38778,0.65922
208.335,28.73473,-0.14664,0.38937,0.65921
208.935,28.7881,-0.14252,0.39028,0.6592
209.535,28.84145,-0.14624,0.38749,0.6592
210.135,28.89487,-0.14819,0.39064,0.65919
210.735,28.94831,-0.14736,0.39229,0.65918
211.335,29.00171,-0.14687,0.39129,0.65917
211.935,29.0551,-0.14812,0.39428,0.65916
212.535,29.1083,-0.14951,0.39816,0.65914
213.135,29.16173,-0.15081,0.39553,0.65913
213.735,29.2151,-0.1513,0.39539,0.65912
214.335,29.2685,-0.15214,0.39774,0.6591
214.935,29.32208,-0.15214,0.39749,0.65908
215.535,29.37535,-0.15214,0.39894,0.65906
216.135,29.42865,-0.15214,0.40223,0.65904
216.735,29.482,-0.15214,0.4038,0.65902
217.335,29.53544,-0.15355,0.40437,0.659
217.935,29.589,-0.16109,0.40603,0.65898
218.535,29.6425,-0.1472,0.40636,0.65896
219.135,29.6958,-0.15129,0.40604,0.65893
219.735,29.7493,-0.15566,0.40354,0.65891
220.335,29.80268,-0.15566,0.40847,0.65888
220.935,29.8559,-0.15566,0.40717,0.65885
221.535,29.9093,-0.15825,0.41017,0.65882
222.135,29.9628,-0.15917,0.40514,0.65879
222.735,30.01616,-0.15959,0.40561,0.65876
223.335,30.06999,-0.16092,0.40725,0.65873
223.935,30.1237,-0.1622,0.40611,0.65869
224.535,30.17725,-0.16157,0.40614,0.65866
225.135,30.231,-0.16157,0.40838,0.65862
225.735,30.28453,-0.16323,0.40434,0.65859
226.335,30.33786,-0.16471,0.41015,0.65855
226.935,30.39128,-0.16624,0.40658,0.65851
227.535,30.44462,-0.16618,0.40622,0.65847
228.135,30.49816,-0.16737,0.40604,0.65843
228.735,30.5519,-0.16801,0.40686,0.65839
229.335,30.60547,-0.16957,0.40482,0.65834
229.935,30.65898,-0.17079,0.40574,0.6583
230.535,30.71241,-0.17208,0.40385,0.65825
231.135,30.76553,-0.17342,0.40625,0.65821
231.735,30.8189,-0.17475,0.40267,0.65816
232.335,30.87234,-0.17605,0.40466,0.65811
232.935,30.92578,-0.176,0.40252,0.65806
233.535,30.97962,-0.17736,0.40251,0.65801
234.135,31.03316,-0.17796,0.40166,0.65796
234.735,31.08669,-0.1794,0.39913,0.65791
235.335,31.14023,-0.18277,0.4,0.65785
235.935,31.1936,-0.18377,0.40375,0.6578
236.535,31.24711,-0.18442,0.39999,0.65774
237.135,31.3007,-0.18569,0.39992,0.65768
237.735,31.3542,-0.18788,0.40022,0.65763
238.335,31.4078,-0.18985,0.39874,0.65757
238.935,31.46139,-0.19118,0.39624,0.65751
239.535,31.5147,-0.19474,0.39697,0.65745
240.135,31.56823,-0.19688,0.39941,0.65738
240.735,31.62173,-0.19703,0.39407,0.65732
241.335,31.6752,-0.1993,0.39709,0.65726
241.935,31.72878,-0.20112,0.39578,0.65719
242.535,31.7824,-0.20448,0.39516,0.65712
243.135,31.8359,-0.2058,0.39704,0.65706
243.735,31.8895,-0.20807,0.39649,0.65699
244.335,31.94312,-0.2109,0.39652,0.65692
244.935,31.9964,-0.21312,0.39234,0.65685
245.535,32.0501,-0.2151,0.3934,0.65678
246.135,32.1036,-0.21584,0.39074,0.6567
246.735,32.1571,-0.21942,0.38986,0.65663
247.335,32.21079,-0.22148,0.38738,0.65656
247.935,32.26439,-0.22403,0.38706,0.65648
248.535,32.318,-0.22774,0.3878,0.6564
249.135,32.37168,-0.23108,0.3841,0.65633
249.735,32.4253,-0.23093,0.38439,0.65625
250.335,32.47894,-0.23539,0.38338,0.65617
250.935,32.53266,-0.23931,0.38054,0.65609
251.535,32.5863,-0.24225,0.38351,0.65601
252.135,32.63989,-0.24492,0.38001,0.65592
252.735,32.6935,-0.24691,0.37837,0.65584
253.335,32.747,-0.2503,0.37848,0.65576
253.935,32.80039,-0.25351,0.38038,0.65567
254.535,32.854,-0.25659,0.37972,0.65558
255.135,32.90766,-0.25909,0.3783,0.6555
255.735,32.96141,-0.26161,0.38005,0.65541
256.335,33.01482,-0.26576,0.38167,0.65532
256.935,33.06844,-0.27169,0.37952,0.65523
257.535,33.12195,-0.27417,0.38102,0.65514
258.135,33.17558,-0.27547,0.3808,0.65505
258.735,33.2297,-0.28011,0.38026,0.65495
259.335,33.28345,-0.28315,0.38133,0.65486
259.935,33.3373,-0.28765,0.38141,0.65476
260.535,33.3911,-0.29246,0.38181,0.65467
261.135,33.44478,-0.29684,0.38367,0.65457
261.735,33.4985,-0.30062,0.37908,0.65447
262.335,33.55218,-0.30389,0.38177,0.65437
262.935,33.6059,-0.30698,0.38348,0.65427
263.535,33.65959,-0.31255,0.38123,0.65417
264.135,33.71332,-0.31663,0.38531,0.65407
264.735,33.76709,-0.32054,0.38354,0.65396
265.335,33.8207,-0.32607,0.38603,0.65386
265.935,33.8743,-0.33048,0.38731,0.65376
266.535,33.9278,-0.3368,0.38411,0.65365
267.135,33.98151,-0.34226,0.38846,0.65354
267.735,34.0352,-0.34535,0.38725,0.65343
268.335,34.08887,-0.35057,0.38914,0.65333
268.935,34.14268,-0.35528,0.38902,0.65322
269.535,34.19638,-0.35889,0.38852,0.65311
270.135,34.2502,-0.36463,0.38984,0.65299
270.735,34.30397,-0.36969,0.39087,0.65288
271.335,34.3577,-0.37346,0.39064,0.65277
271.935,34.41148,-0.3775,0.39137,0.65265
272.535,34.4649,-0.38213,0.39186,0.65254
273.135,34.51842,-0.38827,0.394,0.65242
273.735,34.5724,-0.39223,0.39326,0.6523
274.335,34.62619,-0.39922,0.3952,0.65219
274.935,34.68036,-0.40686,0.39366,0.65207
275.535,34.73421,-0.41322,0.39608,0.65195
276.135,34.7881,-0.41951,0.39668,0.65183
276.735,34.84203,-0.43121,0.39951,0.6517
277.335,34.89605,-0.43473,0.40146,0.65158
277.935,34.95021,-0.43497,0.40126,0.65146
278.535,35.00407,-0.44671,0.40395,0.65133
279.135,35.058,-0.45482,0.40589,0.65121
279.735,35.1119,-0.46283,0.40469,0.65108
280.335,35.16583,-0.46907,0.40661,0.65095
280.935,35.21966,-0.47634,0.40987,0.65083
281.535,35.27357,-0.48305,0.40929,0.6507
282.135,35.32765,-0.49244,0.40948,0.65057
282.735,35.38174,-0.4995,0.41215,0.65044
283.335,35.43589,-0.50838,0.41487,0.6503
283.935,35.48997,-0.51651,0.41407,0.65017
284.535,35.5439,-0.52452,0.41122,0.65004
285.135,35.59768,-0.53255,0.41264,0.6499
285.735,35.6516,-0.54179,0.41535,0.64977
286.335,35.70565,-0.55022,0.41786,0.64963
286.935,35.75974,-0.5598,0.416,0.64949
287.535,35.81397,-0.56956,0.41499,0.64936
288.135,35.86799,-0.57946,0.41661,0.64922
288.735,35.92195,-0.58955,0.41755,0.64908
289.335,35.97594,-0.59912,0.41803,0.64894
289.935,36.0299,-0.60767,0.4211,0.64879
290.535,36.08405,-0.61735,0.41979,0.64865
291.135,36.13814,-0.63206,0.42295,0.64851
291.735,36.19225,-0.64125,0.42164,0.64836
292.335,36.24646,-0.65248,0.42406,0.64822
292.935,36.30061,-0.66948,0.42683,0.64807
293.535,36.35465,-0.67416,0.42478,0.64793
294.135,36.40867,-0.68036,0.42096,0.64778
294.735,36.46275,-0.69599,0.42459,0.64763
295.335,36.51686,-0.70975,0.42941,0.64748
295.935,36.57107,-0.72271,0.43217,0.64733
296.535,36.6254,-0.73646,0.42922,0.64718
297.135,36.6797,-0.74799,0.43191,0.64703
297.735,36.73397,-0.76082,0.43426,0.64688
298.335,36.78818,-0.77498,0.43563,0.64672
298.935,36.84232,-0.78725,0.43719,0.64657
299.535,36.8966,-0.80217,0.43689,0.64641
300.135,36.95077,-0.81438,0.43657,0.64626
300.735,37.00499,-0.82829,0.43775,0.6461
301.335,37.05912,-0.84299,0.43917,0.64594
301.935,37.1133,-0.85685,0.44373,0.64578
302.535,37.1676,-0.87406,0.44297,0.64562
303.135,37.22185,-0.88531,0.44734,0.64546
303.735,37.2761,-0.90032,0.44695,0.6453
304.335,37.3304,-0.9171,0.44647,0.64514
304.935,37.38466,-0.93175,0.44821,0.64498
305.535,37.4392,-0.94762,0.44978,0.64481
306.135,37.4935,-0.96247,0.45255,0.64465
306.735,37.5479,-0.97798,0.45143,0.64448
307.335,37.60216,-0.99678,0.45332,0.64432
307.935,37.65633,-1.01145,0.45534,0.64415
308.535,37.71055,-1.02773,0.45582,0.64398
309.135,37.7647,-1.04503,0.45519,0.64382
309.735,37.81942,-1.06458,0.45724,0.64365
310.335,37.87383,-1.08193,0.45857,0.64348
310.935,37.9285,-1.10074,0.45953,0.64331
311.535,37.9831,-1.11598,0.46213,0.64313
312.135,38.03745,-1.13426,0.4633,0.64296
312.735,38.09189,-1.15417,0.46325,0.64279
313.335,38.14643,-1.17281,0.4634,0.64261
313.935,38.201,-1.19235,0.46588,0.64244
314.535,38.2556,-1.21215,0.46685,0.64226
315.135,38.31009,-1.23137,0.46313,0.64209
315.735,38.36459,-1.25041,0.46989,0.64191
316.335,38.41899,-1.26855,0.47066,0.64173
316.935,38.4735,-1.2897,0.47178,0.64155
317.535,38.52798,-1.31172,0.47223,0.64137
318.135,38.58245,-1.33141,0.47399,0.64119
318.735,38.63697,-1.35291,0.47588,0.64101
319.335,38.69149,-1.37757,0.47636,0.64083
319.935,38.74605,-1.39596,0.47889,0.64065
320.535,38.80041,-1.42019,0.4804,0.64047
321.135,38.855,-1.44112,0.48154,0.64028
321.735,38.9095,-1.46487,0.48387,0.6401
322.335,38.96412,-1.48735,0.489,0.63991
322.935,39.01872,-1.51015,0.48702,0.63972
323.535,39.07314,-1.53537,0.49049,0.63954
324.135,39.1277,-1.56053,0.49178,0.63935
324.735,39.18227,-1.58287,0.49354,0.63916
325.335,39.23692,-1.60781,0.49542,0.63897
325.935,39.29145,-1.63305,0.49643,0.63878
326.535,39.34603,-1.65532,0.49866,0.63859
327.135,39.40063,-1.68254,0.50157,0.6384
327.735,39.45532,-1.70862,0.50506,0.63821
328.335,39.51008,-1.73385,0.50636,0.63801
328.935,39.56479,-1.76054,0.5096,0.63782
329.535,39.61939,-1.78838,0.51027,0.63763
330.135,39.67409,-1.81505,0.51154,0.63743
330.735,39.7288,-1.84101,0.51203,0.63724
331.335,39.78354,-1.86702,0.51321,0.63704
331.935,39.83832,-1.89507,0.51319,0.63684
332.535,39.89315,-1.92624,0.51624,0.63664
333.135,39.94794,-1.95404,0.51397,0.63644
333.735,40.00284,-1.98022,0.51412,0.63624
334.335,40.05764,-2.00846,0.51268,0.63604
334.935,40.11247,-2.03721,0.51096,0.63584
335.535,40.16714,-2.06851,0.51199,0.63564
336.135,40.22173,-2.09556,0.51076,0.63544
336.735,40.27644,-2.12576,0.51041,0.63524
337.335,40.3313,-2.15549,0.50698,0.63503
337.935,40.3863,-2.18309,0.50473,0.63483
338.535,40.4413,-2.21281,0.50052,0.63462
339.135,40.49624,-2.24362,0.49825,0.63442
339.735,40.55106,-2.27183,0.49248,0.63421
340.335,40.60603,-2.30239,0.48761,0.634
340.935,40.66101,-2.33016,0.48148,0.6338
341.535,40.71588,-2.35859,0.47488,0.63359
342.135,40.77066,-2.38798,0.46678,0.63338
342.735,40.8255,-2.41549,0.45759,0.63317
343.335,40.88016,-2.44435,0.44304,0.63296
343.935,40.9351,-2.47061,0.43829,0.63275
344.535,40.99007,-2.49562,0.42321,0.63254
345.135,41.0452,-2.52281,0.41169,0.63232
345.735,41.1004,-2.54892,0.40089,0.63211
346.335,41.1556,-2.57419,0.38112,0.6319
346.935,41.21051,-2.60089,0.367,0.63168
347.535,41.26543,-2.62176,0.35539,0.63147
348.135,41.32035,-2.64436,0.3344,0.63125
348.735,41.37523,-2.66614,0.31535,0.63103
349.335,41.43038,-2.68655,0.30423,0.63082
349.935,41.48547,-2.70415,0.28378,0.6306
350.535,41.54061,-2.72334,0.26841,0.63038
351.135,41.5959,-2.73902,0.25134,0.63016
351.735,41.65108,-2.75475,0.23688,0.62994
352.335,41.70626,-2.76848,0.22229,0.62972
352.935,41.76145,-2.78157,0.21012,0.6295
353.535,41.8167,-2.79394,0.19428,0.62928
354.135,41.87177,-2.80573,0.18633,0.62906
354.735,41.92687,-2.81466,0.17337,0.62883
355.335,41.98178,-2.82239,0.16673,0.62861
355.935,42.03687,-2.83067,0.16001,0.62839
356.535,42.09219,-2.83666,0.15105,0.62816
357.135,42.14744,-2.84198,0.14602,0.62794
357.735,42.20281,-2.84939,0.14302,0.62771
358.335,42.25806,-2.85454,0.14251,0.62748
358.935,42.3134,-2.86175,0.13471,0.62726
359.535,42.36862,-2.86599,0.13599,0.62703
360.135,42.42396,-2.8702,0.13161,0.6268
360.735,42.47917,-2.87181,0.12874,0.62657
361.335,42.53435,-2.87609,0.12703,0.62634
361.935,42.5895,-2.8799,0.1255,0.62611
362.535,42.6449,-2.88367,0.1261,0.62588
363.135,42.7003,-2.88698,0.12434,0.62565
363.735,42.75566,-2.89017,0.12248,0.62542
364.335,42.81122,-2.893,0.12164,0.62518
364.935,42.86655,-2.89613,0.11886,0.62495
365.535,42.92195,-2.90012,0.12078,0.62472
366.135,42.97752,-2.9025,0.1173,0.62448
366.735,43.03307,-2.90409,0.12065,0.62425
367.335,43.0886,-2.90708,0.1188,0.62401
367.935,43.1441,-2.91017,0.1173,0.62378
368.535,43.19947,-2.91316,0.11575,0.62354
369.135,43.25484,-2.91588,0.11156,0.6233
369.735,43.3102,-2.91623,0.11149,0.62306
370.335,43.36571,-2.9194,0.1108,0.62283
370.935,43.42138,-2.92061,0.11233,0.62259
371.535,43.47715,-2.92399,0.11204,0.62235
372.135,43.53263,-2.92754,0.11149,0.62211
372.735,43.5883,-2.92722,0.10992,0.62187
373.335,43.64396,-2.92889,0.10919,0.62163
373.935,43.69954,-2.93016,0.10712,0.62138
374.535,43.75523,-2.93417,0.10747,0.62114
375.135,43.81068,-2.93553,0.10874,0.6209
375.735,43.86629,-2.93872,0.10409,0.62066
376.335,43.92192,-2.94014,0.1028,0.62041
376.935,43.97779,-2.94146,0.10165,0.62017
377.535,44.03374,-2.94331,0.10374,0.61992
378.135,44.08937,-2.94459,0.1024,0.61968
378.735,44.14517,-2.94562,0.10218,0.61943
379.335,44.20097,-2.94823,0.10169,0.61918
379.935,44.25675,-2.94993,0.10216,0.61894
380.535,44.31259,-2.94997,0.1029,0.61869
381.135,44.36805,-2.95269,0.09981288,0.61844
381.735,44.42374,-2.95429,0.09865168,0.61819
382.335,44.47959,-2.95701,0.09787407,0.61794
382.935,44.53566,-2.95734,0.09711454,0.61769
383.535,44.59169,-2.96009,0.09895255,0.61744
384.135,44.64745,-2.96144,0.09827451,0.61719
384.735,44.70327,-2.96275,0.09818502,0.61694
385.335,44.759,-2.96412,0.09802321,0.61669
385.935,44.81483,-2.96539,0.09741643,0.61644
386.535,44.8708,-2.96685,0.09942114,0.61618
387.135,44.92662,-2.9694,0.10016,0.61593
387.735,44.98253,-2.97025,0.09562181,0.61568
388.335,45.0386,-2.97085,0.09441905,0.61542
388.935,45.0946,-2.97222,0.09646082,0.61517
389.535,45.15051,-2.9748,0.09436366,0.61491
390.135,45.20643,-2.97613,0.0931444,0.61466
390.735,45.2624,-2.97803,0.09632406,0.6144
391.335,45.3183,-2.98021,0.09604149,0.61414
391.935,45.37426,-2.98018,0.0934281,0.61389
392.535,45.4303,-2.98173,0.09517501,0.61363
393.135,45.48619,-2.98303,0.09365828,0.61337
393.735,45.5423,-2.98455,0.09586953,0.61311
394.335,45.59827,-2.98718,0.09645757,0.61285
394.935,45.6544,-2.98735,0.09401155,0.61259
395.535,45.71048,-2.99005,0.0951203,0.61233
396.135,45.76654,-2.99141,0.09385693,0.61207
396.735,45.82262,-2.99131,0.09377445,0.61181
397.335,45.87872,-2.99289,0.09271309,0.61155
397.935,45.93489,-2.99425,0.09284962,0.61129
398.535,45.991,-2.99552,0.09097307,0.61103
399.135,46.04716,-2.99697,0.09266937,0.61076
399.735,46.10335,-2.99896,0.09169109,0.6105
400.335,46.1596,-3.00113,0.09018718,0.61024
400.935,46.2159,-3.00257,0.08945297,0.60997
401.535,46.27217,-3.00288,0.08930328,0.60971
402.135,46.32848,-3.00422,0.08988298,0.60944
402.735,46.3848,-3.00665,0.08973436,0.60918
403.335,46.44127,-3.00824,0.09022121,0.60891
403.935,46.49757,-3.00962,0.0884048,0.60865
404.535,46.554,-3.00964,0.09102369,0.60838
405.135,46.6105,-3.011,0.08890371,0.60811
405.735,46.66689,-3.01232,0.09342064,0.60784
406.335,46.72343,-3.01354,0.09169018,0.60758
406.935,46.77988,-3.01506,0.08958728,0.60731
407.535,46.83638,-3.01648,0.09014532,0.60704
408.135,46.89297,-3.01792,0.09199038,0.60677
408.735,46.94962,-3.02018,0.09286383,0.6065
409.335,47.0061,-3.01913,0.09059827,0.60623
409.935,47.06257,-3.02073,0.09083795,0.60596
410.535,47.11912,-3.02362,0.09079952,0.60569
411.135,47.17549,-3.0249,0.08553623,0.60542
411.735,47.23218,-3.02613,0.08671625,0.60515
412.335,47.2887,-3.02747,0.08782841,0.60487
412.935,47.3453,-3.02871,0.08773416,0.6046
413.535,47.40187,-3.02954,0.08894382,0.60433
414.135,47.45847,-3.02966,0.09180734,0.60406
414.735,47.51512,-3.03191,0.08807291,0.60378
415.335,47.57158,-3.03428,0.08622574,0.60351
415.935,47.628,-3.03498,0.08404344,0.60323
416.535,47.68452,-3.03629,0.08770612,0.60296
417.135,47.74093,-3.03765,0.08637126,0.60268
417.735,47.79769,-3.03699,0.08716435,0.60241
418.335,47.85412,-3.03775,0.08649612,0.60213
418.935,47.9105,-3.03934,0.08388147,0.60186
419.535,47.96693,-3.04191,0.0826675,0.60158
420.135,48.02339,-3.04539,0.08348151,0.6013
420.735,48.07997,-3.04665,0.08388473,0.60102
421.335,48.13658,-3.04787,0.08139769,0.60075
421.935,48.19316,-3.04664,0.08184898,0.60047
422.535,48.24978,-3.04773,0.08109915,0.60019
423.135,48.3065,-3.04905,0.08196398,0.59991
423.735,48.3634,-3.05064,0.07850489,0.59963
424.335,48.4202,-3.0518,0.08347598,0.59935
424.935,48.47702,-3.05344,0.07982516,0.59907
425.535,48.53365,-3.05643,0.08199583,0.59879
426.135,48.5904,-3.05641,0.08317236,0.59851
426.735,48.64719,-3.05771,0.08084428,0.59823
427.335,48.70382,-3.05909,0.08194208,0.59795
427.935,48.76065,-3.06045,0.08017431,0.59767
428.535,48.81736,-3.06205,0.08046764,0.59739
429.135,48.87429,-3.06222,0.07966687,0.5971
429.735,48.9313,-3.06222,0.0793035,0.59682
430.335,48.98837,-3.06353,0.08014586,0.59654
430.935,49.04537,-3.06612,0.08181298,0.59625
431.535,49.1023,-3.06805,0.08103971,0.59597
432.135,49.1592,-3.06747,0.08041032,0.59569
432.735,49.21617,-3.06807,0.08225652,0.5954
433.335,49.27324,-3.06877,0.07827476,0.59512
433.935,49.33021,-3.07013,0.07967522,0.59483
434.535,49.3873,-3.07254,0.08032048,0.59455
435.135,49.44445,-3.07508,0.08050528,0.59426
435.735,49.50139,-3.07638,0.08100064,0.59398
436.335,49.55836,-3.07769,0.08070586,0.59369
436.935,49.61533,-3.07836,0.08294637,0.59341
437.535,49.6721,-3.07888,0.08340636,0.59312
438.135,49.72914,-3.07962,0.07888591,0.59283
438.735,49.7862,-3.08093,0.07885805,0.59254
439.335,49.84335,-3.08326,0.08350277,0.59226
439.935,49.90055,-3.08407,0.08102515,0.59197
440.535,49.9578,-3.08454,0.08069302,0.59168
441.135,50.01502,-3.08706,0.07967418,0.59139
441.735,50.0723,-3.0873,0.08167757,0.5911
442.335,50.12928,-3.08843,0.07750453,0.59081
442.935,50.1864,-3.08978,0.08061609,0.59053
443.535,50.24362,-3.09236,0.08143544,0.59024
444.135,50.30085,-3.09233,0.08185336,0.58995
444.735,50.35837,-3.09381,0.07893759,0.58966
445.335,50.41559,-3.09387,0.08077303,0.58937
445.935,50.47274,-3.09515,0.07744632,0.58908
446.535,50.53014,-3.09447,0.08080175,0.58878
447.135,50.58722,-3.09438,0.08199351,0.58849
447.735,50.6445,-3.09615,0.08002951,0.5882
448.335,50.70192,-3.09929,0.08070459,0.58791
448.935,50.75922,-3.10096,0.08547863,0.58762
449.535,50.81682,-3.10094,0.08457032,0.58733
450.135,50.87424,-3.10064,0.08269142,0.58703
450.735,50.9315,-3.10291,0.08148289,0.58674
451.335,50.98888,-3.10351,0.07900103,0.58645
451.935,51.04613,-3.10771,0.07824439,0.58615
452.535,51.1034,-3.10765,0.07852409,0.58586
453.135,51.16068,-3.10906,0.0796638,0.58557
453.735,51.2181,-3.10785,0.07775359,0.58527
454.335,51.27541,-3.10803,0.07601761,0.58498
454.935,51.33271,-3.10994,0.07617183,0.58469
455.535,51.3899,-3.11069,0.07618555,0.58439
456.135,51.44723,-3.11343,0.08004491,0.5841
456.735,51.50455,-3.11465,0.07937544,0.5838
457.335,51.56191,-3.11509,0.07786312,0.58351
457.935,51.61907,-3.11641,0.07708874,0.58321
458.535,51.6764,-3.11702,0.07632013,0.58291
459.135,51.7339,-3.11916,0.07897715,0.58262
459.735,51.79135,-3.12133,0.07944856,0.58232
460.335,51.84918,-3.12002,0.07902798,0.58203
460.935,51.9067,-3.12283,0.08063857,0.58173
461.535,51.9642,-3.12277,0.0786138,0.58143
462.135,52.02172,-3.12421,0.07961129,0.58114
462.735,52.0794,-3.12407,0.07790701,0.58084
463.335,52.13702,-3.12681,0.08047586,0.58054
463.935,52.1945,-3.12683,0.07876594,0.58024
464.535,52.25221,-3.12812,0.07813994,0.57995
465.135,52.30979,-3.12814,0.07908334,0.57965
465.735,52.36745,-3.12925,0.08081567,0.57935
466.335,52.42524,-3.13055,0.07986479,0.57905
466.935,52.4828,-3.13077,0.07921044,0.57875
467.535,52.5405,-3.13233,0.07964064,0.57845
468.135,52.59805,-3.13244,0.08065247,0.57816
468.735,52.6557,-3.13361,0.08081401,0.57786
469.335,52.71334,-3.13508,0.07965009,0.57756
469.935,52.77111,-3.13504,0.08080748,0.57726
470.535,52.82835,-3.13658,0.08214719,0.57696
471.135,52.8861,-3.13769,0.08140335,0.57666
471.735,52.94376,-3.13761,0.08077474,0.57636
472.335,53.0015,-3.13769,0.08096826,0.57606
472.935,53.0594,-3.13898,0.08236246,0.57576
473.535,53.1173,-3.14032,0.08173156,0.57546
474.135,53.1752,-3.13906,0.08162731,0.57516
474.735,53.2329,-3.1415,0.08035386,0.57486
475.335,53.2905,-3.14168,0.07956934,0.57456
475.935,53.3483,-3.14438,0.08185766,0.57425
476.535,53.406,-3.14579,0.08251733,0.57395
477.135,53.46382,-3.14471,0.08002048,0.57365
477.735,53.5215,-3.14569,0.0810754,0.57335
478.335,53.57931,-3.14701,0.08299607,0.57305
478.935,53.6371,-3.14701,0.08442578,0.57275
479.535,53.695,-3.14703,0.08683479,0.57245
480.135,53.75315,-3.14833,0.08651439,0.57214
480.735,53.81081,-3.14832,0.08830131,0.57184
481.335,53.8686,-3.14965,0.08957949,0.57154
481.935,53.92638,-3.15091,0.08523025,0.57124
482.535,53.98429,-3.15365,0.08451079,0.57093
483.135,54.04251,-3.15349,0.08380307,0.57063
483.735,54.10054,-3.1533,0.08607455,0.57033
484.335,54.15846,-3.15418,0.08695147,0.57002
484.935,54.2164,-3.15371,0.08678754,0.56972
485.535,54.2744,-3.1549,0.08533667,0.56942
486.135,54.33226,-3.15734,0.08718616,0.56911
486.735,54.39034,-3.15718,0.09097041,0.56881
487.335,54.44817,-3.15753,0.09251201,0.56851
487.935,54.5062,-3.15754,0.09662756,0.5682
488.535,54.56439,-3.15886,0.09971809,0.5679
489.135,54.62243,-3.16018,0.1035,0.5676
489.735,54.6806,-3.16017,0.10601,0.56729
490.335,54.73871,-3.1602,0.10651,0.56699
490.935,54.7968,-3.16018,0.10717,0.56668
491.535,54.85505,-3.1615,0.11049,0.56638
492.135,54.91319,-3.16282,0.11268,0.56608
492.735,54.97132,-3.16281,0.11076,0.56577
493.335,55.02935,-3.16541,0.11071,0.56547
493.935,55.0875,-3.16548,0.1121,0.56516
494.535,55.14561,-3.16435,0.11333,0.56486
495.135,55.20369,-3.16544,0.11332,0.56455
495.735,55.26191,-3.16674,0.11763,0.56425
496.335,55.32,-3.16774,0.11842,0.56394
496.935,55.37829,-3.16807,0.11812,0.56364
497.535,55.43634,-3.16946,0.11916,0.56333
498.135,55.4946,-3.16939,0.11678,0.56303
498.735,55.55284,-3.17056,0.11983,0.56272
499.335,55.6111,-3.17071,0.11807,0.56241
499.935,55.6695,-3.17071,0.1151,0.56211
500.535,55.7277,-3.17169,0.12078,0.5618
501.135,55.7861,-3.17107,0.12113,0.5615
501.735,55.84418,-3.17198,0.12047,0.56119
502.335,55.9024,-3.17333,0.11915,0.56089
502.935,55.96068,-3.17333,0.11776,0.56058
503.535,56.019,-3.17465,0.12284,0.56027
504.135,56.07754,-3.17465,0.11963,0.55997
504.735,56.13606,-3.17572,0.12073,0.55966
505.335,56.19435,-3.17487,0.11946,0.55936
505.935,56.25275,-3.17596,0.12074,0.55905
506.535,56.3111,-3.17596,0.11992,0.55874
507.135,56.3693,-3.17729,0.12066,0.55844
507.735,56.42774,-3.17962,0.12122,0.55813
508.335,56.4861,-3.17959,0.11937,0.55783
508.935,56.5446,-3.17822,0.12354,0.55752
509.535,56.6031,-3.17852,0.11923,0.55721
510.135,56.6615,-3.17956,0.11953,0.55691
510.735,56.7198,-3.18024,0.11996,0.5566
511.335,56.77831,-3.18156,0.12132,0.55629
511.935,56.8366,-3.18285,0.12194,0.55599
512.535,56.8952,-3.18287,0.11784,0.55568
513.135,56.95398,-3.18184,0.12056,0.55537
513.735,57.01266,-3.18317,0.12216,0.55507
514.335,57.0714,-3.19454,0.11636,0.55476
514.935,57.1299,-3.17543,0.11804,0.55445
515.535,57.18846,-3.18244,0.11698,0.55415
516.135,57.24717,-3.18374,0.11402,0.55384
516.735,57.30584,-3.18381,0.11733,0.55353
517.335,57.36464,-3.18617,0.11453,0.55323
517.935,57.4235,-3.18618,0.11488,0.55292
518.535,57.48185,-3.18621,0.11515,0.55261
519.135,57.5404,-3.18716,0.11546,0.55231
519.735,57.599,-3.18716,0.11729,0.552
520.335,57.6576,-3.1858,0.11802,0.55169
520.935,57.7163,-3.18716,0.11825,0.55139
521.535,57.7751,-3.18733,0.11747,0.55108
522.135,57.83375,-3.18881,0.11627,0.55077
522.735,57.89225,-3.1901,0.11602,0.55047
523.335,57.95084,-3.1888,0.11685,0.55016
523.935,58.00949,-3.19011,0.11733,0.54985
524.535,58.0682,-3.19142,0.11483,0.54955
525.135,58.1267,-3.19143,0.11962,0.54924
525.735,58.18541,-3.19143,0.11769,0.54893
526.335,58.2441,-3.19142,0.1199,0.54863
526.935,58.3031,-3.19275,0.12004,0.54832
527.535,58.36226,-3.19275,0.11525,0.54801
528.135,58.421,-3.19275,0.11621,0.54771
528.735,58.4799,-3.19372,0.11538,0.5474
529.335,58.53856,-3.19409,0.11748,0.54709
529.935,58.5973,-3.19275,0.11693,0.54679
530.535,58.65619,-3.19363,0.11722,0.54648
531.135,58.715,-3.19507,0.11591,0.54617
531.735,58.77405,-3.19637,0.11684,0.54587
532.335,58.833,-3.19637,0.11583,0.54556
532.935,58.89187,-3.19507,0.11702,0.54525
533.535,58.9507,-3.1977,0.11691,0.54495
534.135,59.00966,-3.19768,0.11839,0.54464
534.735,59.0686,-3.19822,0.11954,0.54433
535.335,59.12732,-3.19876,0.11908,0.54403
535.935,59.18625,-3.199,0.11921,0.54372
536.535,59.24513,-3.199,0.11878,0.54341
537.135,59.30406,-3.199,0.12049,0.54311
537.735,59.36306,-3.199,0.12075,0.5428
538.335,59.42216,-3.19848,0.11876,0.5425
538.935,59.48111,-3.19933,0.12065,0.54219
539.535,59.5402,-3.19933,0.11867,0.54188
540.135,59.5991,-3.19933,0.12008,0.54158
540.735,59.6584,-3.2002,0.12373,0.54127
541.335,59.7174,-3.20032,0.12271,0.54097
541.935,59.77672,-3.20042,0.12315,0.54066
542.535,59.83596,-3.19932,0.12282,0.54036
543.135,59.8951,-3.20162,0.12433,0.54005
543.735,59.954,-3.20167,0.1217,0.53974
544.335,60.0131,-3.20173,0.12227,0.53944
544.935,60.07238,-3.20163,0.12136,0.53913
545.535,60.1315,-3.20163,0.12057,0.53883
546.135,60.19092,-3.20163,0.12482,0.53852
546.735,60.25011,-3.20163,0.12126,0.53822
547.335,60.3093,-3.20295,0.12342,0.53791
547.935,60.3687,-3.20295,0.11903,0.53761
548.535,60.4279,-3.20296,0.1229,0.5373
549.135,60.4866,-3.20379,0.12514,0.537
549.735,60.5458,-3.20426,0.12293,0.53669
550.335,60.60485,-3.20448,0.12401,0.53639
550.935,60.6642,-3.20427,0.11828,0.53608
551.535,60.7238,-3.20422,0.12352,0.53578
552.135,60.7827,-3.20628,0.1208,0.53548
552.735,60.8418,-3.20657,0.12445,0.53517
553.335,60.90081,-3.20657,0.12416,0.53487
553.935,60.9602,-3.20657,0.12494,0.53456
554.535,61.0196,-3.20624,0.12709,0.53426
555.135,61.07869,-3.20749,0.12411,0.53395
555.735,61.1379,-3.20705,0.1254,0.53365
556.335,61.1971,-3.20789,0.12705,0.53335
556.935,61.25629,-3.20669,0.12348,0.53304
557.535,61.31547,-3.20682,0.12464,0.53274
558.135,61.37466,-3.20863,0.1219,0.53244
558.735,61.4338,-3.21095,0.11986,0.53213
559.335,61.493,-3.2106,0.1249,0.53183
559.935,61.5526,-3.20953,0.12488,0.53153
560.535,61.61181,-3.20953,0.12795,0.53122
561.135,61.67129,-3.20887,0.12444,0.53092
561.735,61.7308,-3.20952,0.12595,0.53062
562.335,61.7901,-3.20953,0.12702,0.53032
562.935,61.84955,-3.20957,0.12566,0.53001
563.535,61.90875,-3.2092,0.13036,0.52971
564.135,61.9681,-3.20921,0.1273,0.52941
564.735,62.0275,-3.2092,0.13108,0.52911
565.335,62.087,-3.20814,0.12737,0.5288
565.935,62.1465,-3.21065,0.13203,0.5285
566.535,62.2059,-3.21075,0.1307,0.5282
567.135,62.2654,-3.21081,0.13138,0.5279
567.735,62.32485,-3.21205,0.13406,0.5276
568.335,62.3844,-3.21205,0.13166,0.5273
568.935,62.44393,-3.21205,0.13274,0.52699
569.535,62.5035,-3.21206,0.13046,0.52669
570.135,62.563,-3.21351,0.13566,0.52639
570.735,62.62249,-3.21468,0.13306,0.52609
571.335,62.6822,-3.21338,0.13548,0.52579
571.935,62.74168,-3.21604,0.13519,0.52549
572.535,62.8015,-3.21732,0.137,0.52519
573.135,62.8611,-3.21731,0.13642,0.52489
573.735,62.92085,-3.216,0.13527,0.52459
574.335,62.98064,-3.21534,0.13544,0.52429
574.935,63.04036,-3.21667,0.13724,0.52399
575.535,63.1,-3.21535,0.13806,0.52369
576.135,63.1596,-3.21436,0.1349,0.52339
576.735,63.2192,-3.21437,0.138,0.52309
577.335,63.27873,-3.2253,0.14042,0.52279
577.935,63.33831,-3.21159,0.14,0.52249
578.535,63.398,-3.21516,0.13938,0.52219
579.135,63.45754,-3.21668,0.13546,0.52189
579.735,63.5175,-3.21649,0.13828,0.5216
580.335,63.5773,-3.2174,0.14005,0.5213
580.935,63.63701,-3.21853,0.13982,0.521
581.535,63.69675,-3.21853,0.13561,0.5207
582.135,63.7563,-3.21753,0.13797,0.5204
582.735,63.816,-3.21721,0.14054,0.5201
583.335,63.8757,-3.21751,0.13607,0.51981
583.935,63.93546,-3.2185,0.13761,0.51951
584.535,63.99511,-3.22033,0.13707,0.51921
585.135,64.05471,-3.22033,0.13675,0.51891
585.735,64.11443,-3.21899,0.13373,0.51862
586.335,64.17406,-3.21996,0.1365,0.51832
586.935,64.2337,-3.21991,0.13295,0.51802
587.535,64.29332,-3.22126,0.1359,0.51773
588.135,64.353,-3.22126,0.1369,0.51743
588.735,64.4127,-3.2199,0.13677,0.51714
589.335,64.47253,-3.21995,0.13684,0.51684
589.935,64.53237,-3.21996,0.13459,0.51654
590.535,64.5922,-3.22127,0.13642,0.51625
591.135,64.65207,-3.22257,0.13488,0.51595
591.735,64.71204,-3.2225,0.14125,0.51566
592.335,64.77193,-3.22178,0.14317,0.51536
592.935,64.83188,-3.22259,0.14114,0.51507
593.535,64.89182,-3.22259,0.14334,0.51477
594.135,64.95186,-3.22394,0.13964,0.51448
594.735,65.01181,-3.22389,0.14393,0.51419
595.335,65.0718,-3.22255,0.14866,0.51389
595.935,65.13175,-3.2239,0.14438,0.5136
596.535,65.19185,-3.2239,0.14463,0.5133
597.135,65.2519,-3.22393,0.15191,0.51301
597.735,65.3119,-3.22424,0.14872,0.51272
598.335,65.372,-3.22423,0.15384,0.51242
598.935,65.43186,-3.22423,0.15272,0.51213
599.535,65.49195,-3.22359,0.1557,0.51184
600.135,65.55219,-3.22357,0.15718,0.51155
600.735,65.61248,-3.22357,0.15738,0.51125
601.335,65.67266,-3.22358,0.15946,0.51096
601.935,65.7328,-3.22479,0.16257,0.51067
602.535,65.79287,-3.22522,0.16057,0.51038
603.135,65.853,-3.22389,0.16258,0.51009
603.735,65.91332,-3.22387,0.16137,0.5098
604.335,65.97368,-3.22617,0.16402,0.50951
604.935,66.0336,-3.22653,0.16978,0.50921
605.535,66.09389,-3.2255,0.16767,0.50892
606.135,66.15442,-3.22653,0.16496,0.50863
606.735,66.21491,-3.22602,0.16319,0.50834
607.335,66.27521,-3.22387,0.16362,0.50805
607.935,66.33532,-3.22653,0.1637,0.50776
608.535,66.39546,-3.22653,0.16566,0.50748
609.135,66.45572,-3.22779,0.16402,0.50719
609.735,66.51625,-3.22784,0.16632,0.5069
610.335,66.5766,-3.22747,0.16701,0.50661
610.935,66.63687,-3.22654,0.16845,0.50632
611.535,66.69694,-3.22794,0.16137,0.50603
612.135,66.757,-3.2276,0.16199,0.50574
612.735,66.81705,-3.22922,0.15971,0.50546
613.335,66.87705,-3.22916,0.16146,0.50517
613.935,66.93719,-3.22797,0.16209,0.50488
614.535,66.99732,-3.2278,0.16396,0.50459
615.135,67.0575,-3.22961,0.15787,0.50431
615.735,67.11777,-3.23047,0.16438,0.50402
616.335,67.17793,-3.22917,0.17316,0.50373
616.935,67.23821,-3.22917,0.1756,0.50345
617.535,67.29844,-3.22917,0.18052,0.50316
618.135,67.35857,-3.23049,0.18286,0.50288
618.735,67.41869,-3.23048,0.18522,0.50259
619.335,67.4788,-3.23912,0.18678,0.5023
619.935,67.5389,-3.22625,0.1885,0.50202
620.535,67.5989,-3.22698,0.19028,0.50173
621.135,67.65893,-3.22883,0.1912,0.50145
621.735,67.71921,-3.23103,0.18914,0.50117
622.335,67.77928,-3.23197,0.19212,0.50088
622.935,67.83954,-3.23102,0.19127,0.5006
623.535,67.89965,-3.23102,0.1913,0.50031
624.135,67.95994,-3.23201,0.19062,0.50003
624.735,68.0201,-3.23201,0.19267,0.49975
625.335,68.0804,-3.23201,0.19279,0.49947
625.935,68.14086,-3.2307,0.19052,0.49918
626.535,68.20106,-3.2244,0.19793,0.4989
627.135,68.26143,-3.23775,0.19479,0.49862
627.735,68.32174,-3.2361,0.19498,0.49834
628.335,68.38215,-3.23307,0.20043,0.49806
628.935,68.4428,-3.23202,0.19806,0.49777
629.535,68.50309,-3.23356,0.19827,0.49749
630.135,68.56353,-3.23356,0.19592,0.49721
630.735,68.62406,-3.23227,0.2008,0.49693
631.335,68.6845,-3.2322,0.20473,0.49665
631.935,68.7452,-3.23383,0.20321,0.49637
632.535,68.8057,-3.23486,0.21121,0.49609
633.135,68.86618,-3.23355,0.21653,0.49581
633.735,68.9265,-3.23352,0.21601,0.49553
634.335,68.98657,-3.23224,0.22034,0.49525
634.935,69.0471,-3.23311,0.2197,0.49498
635.535,69.10761,-3.23391,0.23066,0.4947
636.135,69.16806,-3.22345,0.22623,0.49442
636.735,69.22856,-3.24432,0.22384,0.49414
637.335,69.289,-3.23687,0.22856,0.49386
637.935,69.34948,-3.23553,0.22773,0.49359
638.535,69.41005,-3.23421,0.22523,0.49331
639.135,69.47059,-3.23563,0.22766,0.49303
639.735,69.53132,-3.23563,0.22834,0.49276
640.335,69.592,-3.23563,0.22913,0.49248
640.935,69.65262,-3.23563,0.23055,0.4922
641.535,69.7133,-3.23563,0.23814,0.49193
642.135,69.77387,-3.23567,0.23996,0.49165
642.735,69.83449,-3.23655,0.23809,0.49138
643.335,69.89492,-3.23564,0.24107,0.4911
643.935,69.9556,-3.23564,0.23945,0.49083
644.535,70.0162,-3.23564,0.24555,0.49056
645.135,70.07675,-3.23564,0.24479,0.49028
645.735,70.1373,-3.23695,0.24597,0.49001
646.335,70.19785,-3.23696,0.24402,0.48973
646.935,70.25833,-3.23696,0.2469,0.48946
647.535,70.3186,-3.23696,0.24681,0.48919
648.135,70.37914,-3.23637,0.25784,0.48892
648.735,70.4396,-3.23695,0.26044,0.48864
649.335,70.50032,-3.23829,0.2641,0.48837
649.935,70.56105,-3.23805,0.26653,0.4881
650.535,70.6216,-3.23934,0.27116,0.48783
651.135,70.6824,-3.23804,0.27301,0.48756
651.735,70.74315,-3.23673,0.27252,0.48729
652.335,70.80374,-3.23798,0.27359,0.48702
652.935,70.86443,-3.23867,0.27577,0.48675
653.535,70.9251,-3.23872,0.27786,0.48648
654.135,70.98574,-3.23805,0.27874,0.48621
654.735,71.04666,-3.23804,0.27856,0.48594
655.335,71.1075,-3.23937,0.28404,0.48567
655.935,71.16812,-3.23937,0.28916,0.4854
656.535,71.2287,-3.23934,0.28882,0.48513
657.135,71.2892,-3.23674,0.28886,0.48486
657.735,71.3499,-3.23937,0.29132,0.48459
658.335,71.41075,-3.23937,0.29228,0.48433
658.935,71.47156,-3.2394,0.29407,0.48406
659.535,71.5324,-3.23936,0.29762,0.48379
660.135,71.59325,-3.24199,0.29859,0.48353
660.735,71.654,-3.23937,0.30194,0.48326
661.335,71.71499,-3.2393,0.30469,0.48299
661.935,71.77595,-3.24002,0.3035,0.48273
662.535,71.83714,-3.24001,0.31144,0.48246
663.135,71.89811,-3.2387,0.30878,0.4822
663.735,71.9589,-3.24035,0.30848,0.48193
664.335,72.0197,-3.24068,0.3115,0.48167
664.935,72.08051,-3.24068,0.31498,0.4814
665.535,72.14135,-3.24068,0.31862,0.48114
666.135,72.2024,-3.242,0.31454,0.48087
666.735,72.26335,-3.24069,0.3181,0.48061
667.335,72.32429,-3.24068,0.31887,0.48035
667.935,72.3854,-3.24068,0.31948,0.48009
668.535,72.44624,-3.24068,0.31957,0.47982
669.135,72.5072,-3.24068,0.32253,0.47956
669.735,72.5681,-3.24069,0.32628,0.4793
670.335,72.62891,-3.2407,0.32732,0.47904
670.935,72.68978,-3.242,0.32904,0.47878
671.535,72.75058,-3.242,0.33593,0.47852
672.135,72.81153,-3.242,0.33423,0.47826
672.735,72.87269,-3.24198,0.33915,0.47799
673.335,72.9338,-3.24069,0.34265,0.47773
673.935,72.99489,-3.24157,0.34436,0.47748
674.535,73.05606,-3.24157,0.34421,0.47722
675.135,73.117,-3.24427,0.34414,0.47696
675.735,73.17806,-3.24245,0.34609,0.4767
676.335,73.2389,-3.24167,0.34964,0.47644
676.935,73.29994,-3.24167,0.34641,0.47618
677.535,73.36107,-3.24298,0.34591,0.47592
678.135,73.4222,-3.24299,0.34931,0.47567
678.735,73.48335,-3.24298,0.34878,0.47541
679.335,73.5444,-3.24558,0.35298,0.47515
679.935,73.60531,-3.24429,0.34835,0.4749
680.535,73.6665,-3.2443,0.35605,0.47464
681.135,73.72749,-3.24332,0.36123,0.47438
681.735,73.78864,-3.2443,0.35922,0.47413
682.335,73.8497,-3.2443,0.36417,0.47387
682.935,73.91085,-3.24495,0.36287,0.47362
683.535,73.9723,-3.24496,0.36509,0.47336
684.135,74.03363,-3.24496,0.36824,0.47311
684.735,74.09492,-3.24501,0.3746,0.47286
685.335,74.15599,-3.24364,0.37944,0.4726
685.935,74.2171,-3.24361,0.3859,0.47235
686.535,74.27802,-3.24395,0.38338,0.4721
687.135,74.33899,-3.24431,0.38373,0.47184
687.735,74.40012,-3.24431,0.38447,0.47159
688.335,74.46115,-3.24432,0.3848,0.47134
688.935,74.5224,-3.24562,0.38772,0.47109
689.535,74.58376,-3.24529,0.38798,0.47084
690.135,74.64502,-3.24529,0.39306,0.47058
690.735,74.70614,-3.24529,0.39701,0.47033
691.335,74.76723,-3.24529,0.39648,0.47008
691.935,74.8284,-3.24529,0.40015,0.46983
692.535,74.8896,-3.24529,0.40228,0.46958
693.135,74.95098,-3.24662,0.40764,0.46933
693.735,75.01228,-3.24529,0.40498,0.46909
694.335,75.0736,-3.24563,0.40727,0.46884
694.935,75.13498,-3.24447,0.41083,0.46859
695.535,75.19621,-3.2443,0.41607,0.46834
696.135,75.25765,-3.2456,0.41874,0.46809
696.735,75.31903,-3.24463,0.41681,0.46785
697.335,75.38048,-3.24594,0.42022,0.4676
697.935,75.4419,-3.2458,0.42056,0.46735
698.535,75.50325,-3.24463,0.42377,0.46711
699.135,75.56466,-3.24594,0.42982,0.46686
699.735,75.62618,-3.24594,0.4296,0.46661
700.335,75.6876,-3.24562,0.4283,0.46637
700.935,75.7491,-3.24693,0.42959,0.46612
701.535,75.8103,-3.24693,0.42878,0.46588
702.135,75.87186,-3.24693,0.43527,0.46563
702.735,75.93329,-3.24693,0.43365,0.46539
703.335,75.99531,-3.24586,0.43129,0.46515
703.935,76.05681,-3.24565,0.43507,0.4649
704.535,76.11838,-3.2469,0.43396,0.46466
705.135,76.17992,-3.24825,0.43711,0.46442
705.735,76.2415,-3.24562,0.44123,0.46417
706.335,76.30291,-3.24788,0.44179,0.46393
706.935,76.36452,-3.24825,0.44476,0.46369
707.535,76.42583,-3.24825,0.43823,0.46345
708.135,76.48736,-3.24693,0.44173,0.46321
708.735,76.54871,-3.24792,0.43817,0.46297
709.335,76.61029,-3.24858,0.43462,0.46273
709.935,76.67198,-3.24858,0.44105,0.46249
710.535,76.7335,-3.24895,0.43343,0.46225
711.135,76.79505,-3.24891,0.4311,0.46201
711.735,76.85647,-3.24855,0.43497,0.46177
712.335,76.91798,-3.24759,0.43189,0.46153
712.935,76.97935,-3.24759,0.42351,0.46129
713.535,77.04041,-3.24891,0.41969,0.46105
714.135,77.10169,-3.24893,0.42077,0.46081
714.735,77.1629,-3.24756,0.4244,0.46058
715.335,77.2243,-3.24891,0.42833,0.46034
715.935,77.28585,-3.24891,0.42822,0.4601
716.535,77.34735,-3.24891,0.41677,0.45987
717.135,77.4088,-3.24829,0.41382,0.45963
717.735,77.47018,-3.24925,0.4154,0.4594
718.335,77.53146,-3.24924,0.41542,0.45916
718.935,77.5928,-3.24924,0.4201,0.45892
719.535,77.65419,-3.24924,0.41857,0.45869
720.135,77.7158,-3.24946,0.42336,0.45846
720.735,77.77727,-3.25023,0.42487,0.45822
721.335,77.8387,-3.25023,0.42204,0.45799
721.935,77.9002,-3.25154,0.42103,0.45775
722.535,77.96162,-3.25153,0.42094,0.45752
723.135,78.02314,-3.25022,0.42259,0.45729
723.735,78.08455,-3.25022,0.42277,0.45706
724.335,78.14615,-3.25012,0.42334,0.45682
724.935,78.20784,-3.25107,0.42231,0.45659
725.535,78.2693,-3.25011,0.42354,0.45636
726.135,78.33089,-3.25143,0.42046,0.45613
726.735,78.3924,-3.25143,0.42343,0.4559
727.335,78.45401,-3.25143,0.42303,0.45567
727.935,78.51572,-3.25143,0.42644,0.45544
728.535,78.57763,-3.25212,0.42065,0.45521
729.135,78.63943,-3.25209,0.41869,0.45498
729.735,78.70129,-3.25077,0.42251,0.45475
730.335,78.76294,-3.25077,0.4225,0.45452
730.935,78.8246,-3.25077,0.42343,0.4543
731.535,78.88623,-3.25079,0.42648,0.45407
732.135,78.9479,-3.25143,0.43011,0.45384
732.735,79.0096,-3.25143,0.42566,0.45361
733.335,79.0714,-3.25268,0.42473,0.45339
733.935,79.13335,-3.25132,0.42383,0.45316
734.535,79.1951,-3.25257,0.42359,0.45293
735.135,79.25701,-3.25193,0.42105,0.45271
735.735,79.31883,-3.25066,0.418,0.45248
736.335,79.3805,-3.25198,0.42286,0.45226
736.935,79.44225,-3.25207,0.42196,0.45203
737.535,79.50362,-3.25297,0.42611,0.45181
738.135,79.5651,-3.25297,0.42776,0.45158
738.735,79.6267,-3.25228,0.43411,0.45136
739.335,79.68826,-3.2533,0.43298,0.45113
739.935,79.7501,-3.25461,0.43375,0.45091
740.535,79.81181,-3.25329,0.4349,0.45069
741.135,79.87383,-3.25329,0.4409,0.45047
741.735,79.93579,-3.25319,0.44171,0.45024
742.335,79.99846,-3.25461,0.44501,0.45002