File: 01_Data/Cotton_Felt/STA/N2/10K_min/Cotton_Felt_STA_N2_10KData_210715_R1.csv
##Temp./Â°C,Time/min,Mass loss(subtr.2)/mg,DSC(subtr.2)/(mW/mg),Sensit./(uV/mW)
49.288,10.01,-0.02699,0.0005261914,0.6183
49.888,11.41165,-0.02894195,0.03204616,0.61862
50.488,11.749,-0.02972213,0.04995471,0.61893
51.088,11.9923,-0.02787389,0.06557803,0.61925
51.688,12.19173,-0.03140561,0.07849317,0.61957
52.288,12.36587,-0.0341218,0.09258121,0.61988
52.888,12.52091,-0.03392572,0.10487,0.62019
53.488,12.66511,-0.03440379,0.11345,0.62051
54.088,12.802,-0.04100069,0.12226,0.62082
54.688,12.92953,-0.04320845,0.132,0.62113
55.288,13.0516,-0.03623664,0.13917,0.62143
55.888,13.1698,-0.03630913,0.14549,0.62174
56.488,13.2842,-0.03632181,0.15174,0.62205
57.088,13.394,-0.03499369,0.15732,0.62235
57.688,13.5003,-0.0352211,0.16172,0.62265
58.288,13.6044,-0.03645489,0.16877,0.62296
58.888,13.7064,-0.03867906,0.17465,0.62326
59.488,13.80645,-0.03745867,0.1793,0.62355
60.088,13.9043,-0.03938501,0.18602,0.62385
60.688,14.0007,-0.03960939,0.18981,0.62415
61.288,14.09508,-0.03992683,0.1944,0.62445
61.888,14.188,-0.04231829,0.19656,0.62474
62.488,14.28046,-0.04223304,0.20176,0.62503
63.088,14.3706,-0.04224022,0.20832,0.62532
63.688,14.4584,-0.0423404,0.21322,0.62561
64.288,14.5463,-0.04428543,0.22182,0.6259
64.888,14.63286,-0.04480983,0.22502,0.62619
65.488,14.719,-0.04476172,0.22992,0.62648
66.088,14.80197,-0.04476237,0.23413,0.62676
66.688,14.88548,-0.04606938,0.23758,0.62705
67.288,14.9686,-0.0473895,0.24156,0.62733
67.888,15.0517,-0.04868018,0.2475,0.62761
68.488,15.1331,-0.04740118,0.25381,0.62789
69.088,15.2131,-0.04875626,0.25806,0.62817
69.688,15.2928,-0.04871195,0.26104,0.62845
70.288,15.37181,-0.05023486,0.26488,0.62873
70.888,15.4497,-0.05123112,0.2705,0.629
71.488,15.52709,-0.05055943,0.27396,0.62928
72.088,15.60389,-0.05280104,0.2808,0.62955
72.688,15.68029,-0.05170569,0.28692,0.62982
73.288,15.75562,-0.05500917,0.28972,0.63009
73.888,15.83053,-0.05540028,0.2955,0.63036
74.488,15.9047,-0.05539302,0.3002,0.63063
75.088,15.9788,-0.05663075,0.30526,0.63089
75.688,16.05236,-0.05672221,0.30842,0.63116
76.288,16.12523,-0.05802988,0.31256,0.63142
76.888,16.1976,-0.0580318,0.31565,0.63169
77.488,16.2697,-0.05933976,0.31867,0.63195
78.088,16.34122,-0.05176453,0.32135,0.63221
78.688,16.4124,-0.06800744,0.32477,0.63247
79.288,16.48282,-0.06222822,0.32839,0.63273
79.888,16.55285,-0.0624935,0.33119,0.63298
80.488,16.6225,-0.06392635,0.33548,0.63324
81.088,16.6914,-0.06394955,0.33733,0.63349
81.688,16.76012,-0.06395829,0.34167,0.63374
82.288,16.82819,-0.06388722,0.34311,0.634
82.888,16.89668,-0.06527185,0.34603,0.63425
83.488,16.9645,-0.06650417,0.34972,0.63449
84.088,17.03213,-0.06671157,0.35419,0.63474
84.688,17.09936,-0.0666906,0.3571,0.63499
85.288,17.16636,-0.06795877,0.35868,0.63523
85.888,17.23283,-0.07064888,0.3625,0.63548
86.488,17.299,-0.06803106,0.36414,0.63572
87.088,17.3651,-0.07478889,0.36506,0.63596
87.688,17.43093,-0.07541307,0.3658,0.6362
88.288,17.4961,-0.07374087,0.36839,0.63644
88.888,17.561,-0.07372,0.36919,0.63668
89.488,17.6253,-0.07372947,0.37303,0.63691
90.088,17.68968,-0.0763497,0.37294,0.63715
90.688,17.7538,-0.0773355,0.37368,0.63738
91.288,17.81756,-0.07832002,0.37481,0.63761
91.888,17.8811,-0.07832021,0.37758,0.63784
92.488,17.94443,-0.07971354,0.37768,0.63807
93.088,18.00753,-0.08099539,0.37816,0.6383
93.688,18.0704,-0.08173298,0.37959,0.63853
94.288,18.13281,-0.08304026,0.38002,0.63876
94.888,18.1953,-0.08311365,0.38193,0.63898
95.488,18.2576,-0.08436024,0.38295,0.63921
96.088,18.31987,-0.08435998,0.38159,0.63943
96.688,18.38201,-0.08572201,0.3814,0.63965
97.288,18.4438,-0.08568019,0.3842,0.63987
97.888,18.50539,-0.08736097,0.38162,0.64009
98.488,18.5668,-0.0883002,0.38226,0.6403
99.088,18.62813,-0.08830131,0.38124,0.64052
99.688,18.6892,-0.08962095,0.38079,0.64073
100.288,18.75014,-0.08962043,0.38095,0.64095
100.888,18.8108,-0.09193325,0.38233,0.64116
101.488,18.87141,-0.0922534,0.38201,0.64137
102.088,18.93176,-0.09191987,0.38022,0.64158
102.688,18.99227,-0.09192661,0.3813,0.64179
103.288,19.0526,-0.0946118,0.37839,0.642
103.888,19.11289,-0.09456109,0.37695,0.6422
104.488,19.1728,-0.09390652,0.37512,0.64241
105.088,19.233,-0.09384117,0.37326,0.64261
105.688,19.29285,-0.09521973,0.3724,0.64281
106.288,19.3525,-0.09608876,0.37097,0.64301
106.888,19.41236,-0.09789536,0.36795,0.64321
107.488,19.472,-0.09787042,0.3664,0.64341
108.088,19.53138,-0.09653914,0.36796,0.64361
108.688,19.591,-0.09783434,0.36434,0.6438
109.288,19.65031,-0.10048,0.36499,0.644
109.888,19.70965,-0.10048,0.36263,0.64419
110.488,19.7689,-0.10048,0.36243,0.64438
111.088,19.82787,-0.10048,0.35995,0.64457
111.688,19.88663,-0.10047,0.36162,0.64476
112.288,19.9455,-0.10179,0.35803,0.64495
112.888,20.0043,-0.10217,0.35594,0.64514
113.488,20.06287,-0.09880742,0.35457,0.64532
114.088,20.12162,-0.1046,0.35409,0.64551
114.688,20.1801,-0.10847,0.35041,0.64569
115.288,20.23865,-0.10512,0.35236,0.64587
115.888,20.29704,-0.10467,0.34994,0.64605
116.488,20.35531,-0.10465,0.34818,0.64623
117.088,20.4134,-0.10465,0.34779,0.64641
117.688,20.4715,-0.10465,0.34545,0.64659
118.288,20.52961,-0.10596,0.34508,0.64676
118.888,20.5877,-0.10596,0.3483,0.64694
119.488,20.64569,-0.10486,0.34479,0.64711
120.088,20.70373,-0.10606,0.3437,0.64728
120.688,20.76163,-0.098367,0.34407,0.64745
121.288,20.81935,-0.11449,0.34323,0.64762
121.888,20.87704,-0.10845,0.34125,0.64779
122.488,20.93455,-0.10816,0.34184,0.64796
123.088,20.99192,-0.10718,0.34018,0.64812
123.688,21.04937,-0.10718,0.33705,0.64829
124.288,21.10684,-0.10718,0.33899,0.64845
124.888,21.1642,-0.1071,0.33799,0.64861
125.488,21.22133,-0.10849,0.34016,0.64877
126.088,21.27804,-0.10849,0.33748,0.64893
126.688,21.33482,-0.10849,0.33686,0.64909
127.288,21.39163,-0.10849,0.33742,0.64925
127.888,21.44872,-0.10849,0.33853,0.6494
128.488,21.50561,-0.10942,0.33739,0.64955
129.088,21.56234,-0.10949,0.33473,0.64971
129.688,21.61877,-0.10816,0.3379,0.64986
130.288,21.67504,-0.10811,0.33361,0.65001
130.888,21.7315,-0.10947,0.33503,0.65016
131.488,21.7879,-0.10948,0.33653,0.65031
132.088,21.84423,-0.10459,0.33575,0.65045
132.688,21.90053,-0.10941,0.33458,0.6506
133.288,21.95673,-0.11347,0.33557,0.65074
133.888,22.013,-0.10968,0.33539,0.65089
134.488,22.0693,-0.10969,0.33503,0.65103
135.088,22.12547,-0.10969,0.33646,0.65117
135.688,22.18149,-0.10969,0.33676,0.65131
136.288,22.23719,-0.11099,0.33776,0.65145
136.888,22.29295,-0.11086,0.3403,0.65158
137.488,22.34872,-0.10113,0.33883,0.65172
138.088,22.40427,-0.12016,0.34041,0.65185
138.688,22.45986,-0.11123,0.33907,0.65199
139.288,22.51507,-0.11122,0.34012,0.65212
139.888,22.57062,-0.10991,0.34389,0.65225
140.488,22.6262,-0.10991,0.34061,0.65238
141.088,22.6814,-0.10991,0.34408,0.6525
141.688,22.73665,-0.11122,0.3439,0.65263
142.288,22.79177,-0.11073,0.34451,0.65276
142.888,22.84703,-0.10991,0.34373,0.65288
143.488,22.90249,-0.10988,0.34682,0.653
144.088,22.9576,-0.11253,0.34813,0.65313
144.688,23.0126,-0.11123,0.34761,0.65325
145.288,23.06746,-0.11123,0.34749,0.65337
145.888,23.1224,-0.11123,0.34773,0.65348
146.488,23.1776,-0.11128,0.3505,0.6536
147.088,23.23259,-0.10992,0.35237,0.65372
147.688,23.28761,-0.11123,0.35177,0.65383
148.288,23.3423,-0.11123,0.35251,0.65395
148.888,23.39688,-0.11122,0.35088,0.65406
149.488,23.45147,-0.11258,0.35251,0.65417
150.088,23.50604,-0.11123,0.35458,0.65428
150.688,23.561,-0.11123,0.35546,0.65439
151.288,23.6157,-0.11123,0.35617,0.65449
151.888,23.67055,-0.11123,0.35522,0.6546
152.488,23.7253,-0.11123,0.35628,0.6547
153.088,23.77981,-0.11123,0.35575,0.65481
153.688,23.8344,-0.11123,0.35886,0.65491
154.288,23.8889,-0.11221,0.36114,0.65501
154.888,23.94321,-0.11185,0.36199,0.65511
155.488,23.9978,-0.11221,0.36136,0.65521
156.088,24.05224,-0.11255,0.36103,0.65531
156.688,24.10676,-0.11255,0.36612,0.6554
157.288,24.16155,-0.11255,0.36531,0.6555
157.888,24.21581,-0.11255,0.36698,0.65559
158.488,24.27032,-0.11255,0.3682,0.65568
159.088,24.32474,-0.11255,0.36848,0.65577
159.688,24.3792,-0.11255,0.36883,0.65586
160.288,24.43352,-0.11255,0.3711,0.65595
160.888,24.48783,-0.11329,0.37387,0.65604
161.488,24.54216,-0.11255,0.37551,0.65613
162.088,24.59652,-0.11255,0.37549,0.65621
162.688,24.65085,-0.11255,0.37652,0.6563
163.288,24.7052,-0.11352,0.37922,0.65638
163.888,24.75946,-0.11353,0.38242,0.65646
164.488,24.81379,-0.11288,0.37985,0.65654
165.088,24.8683,-0.11421,0.38218,0.65662
165.688,24.92258,-0.11386,0.38547,0.6567
166.288,24.97706,-0.11386,0.38633,0.65677
166.888,25.03142,-0.11386,0.38694,0.65685
167.488,25.08566,-0.11386,0.38872,0.65692
168.088,25.13983,-0.11517,0.39195,0.657
168.688,25.1938,-0.11485,0.39373,0.65707
169.288,25.248,-0.11383,0.39378,0.65714
169.888,25.30218,-0.11387,0.39633,0.65721
170.488,25.3565,-0.11387,0.39796,0.65728
171.088,25.4107,-0.11387,0.39869,0.65734
171.688,25.46487,-0.11387,0.39858,0.65741
172.288,25.51906,-0.11327,0.40172,0.65747
172.888,25.57319,-0.11289,0.3999,0.65754
173.488,25.6275,-0.10419,0.40109,0.6576
174.088,25.68178,-0.12288,0.40386,0.65766
174.688,25.73599,-0.11534,0.40247,0.65772
175.288,25.7902,-0.11474,0.4039,0.65778
175.888,25.84446,-0.11346,0.40522,0.65784
176.488,25.89856,-0.11343,0.40634,0.65789
177.088,25.95251,-0.11395,0.40702,0.65795
177.688,26.00659,-0.11471,0.40449,0.658
178.288,26.06062,-0.11474,0.40612,0.65806
178.888,26.1147,-0.11474,0.4096,0.65811
179.488,26.16881,-0.11474,0.40873,0.65816
180.088,26.22275,-0.11562,0.41112,0.65821
180.688,26.27665,-0.11605,0.41012,0.65826
181.288,26.33056,-0.11541,0.40869,0.6583
181.888,26.38451,-0.11404,0.40811,0.65835
182.488,26.43815,-0.11409,0.4112,0.65839
183.088,26.49206,-0.11652,0.40998,0.65844
183.688,26.54593,-0.11574,0.41205,0.65848
184.288,26.59975,-0.11672,0.41403,0.65852
184.888,26.65377,-0.11672,0.41499,0.65856
185.488,26.70741,-0.11671,0.41498,0.6586
186.088,26.76098,-0.1154,0.41767,0.65863
186.688,26.81467,-0.1146,0.41806,0.65867
187.288,26.86823,-0.10975,0.41886,0.65871
187.888,26.92202,-0.12333,0.4214,0.65874
188.488,26.9758,-0.11814,0.42145,0.65877
189.088,27.0294,-0.11787,0.42185,0.6588
189.688,27.0832,-0.11792,0.42077,0.65884
190.288,27.13696,-0.11791,0.42024,0.65886
190.888,27.1906,-0.11923,0.42321,0.65889
191.488,27.24428,-0.11918,0.41932,0.65892
192.088,27.2978,-0.11792,0.41924,0.65895
192.688,27.3513,-0.11925,0.42088,0.65897
193.288,27.4048,-0.11791,0.42001,0.65899
193.888,27.45822,-0.11799,0.4235,0.65902
194.488,27.51176,-0.1166,0.42375,0.65904
195.088,27.56525,-0.1166,0.42567,0.65906
195.688,27.61853,-0.11793,0.42578,0.65908
196.288,27.67196,-0.11792,0.42477,0.65909
196.888,27.72533,-0.11792,0.42549,0.65911
197.488,27.7788,-0.11792,0.42597,0.65913
198.088,27.8322,-0.11793,0.42316,0.65914
198.688,27.8857,-0.11924,0.42698,0.65915
199.288,27.9391,-0.11851,0.42594,0.65917
199.888,27.99232,-0.11891,0.42501,0.65918
200.488,28.0458,-0.11891,0.42677,0.65919
201.088,28.09931,-0.11887,0.42621,0.6592
201.688,28.1527,-0.1199,0.42557,0.6592
202.288,28.20624,-0.12033,0.4285,0.65921
202.888,28.25958,-0.11908,0.42817,0.65921
203.488,28.3129,-0.11475,0.42709,0.65922
204.088,28.3662,-0.12931,0.42636,0.65922
204.688,28.41951,-0.12427,0.42544,0.65922
205.288,28.473,-0.1256,0.42606,0.65922
205.888,28.52627,-0.12411,0.42766,0.65922
206.488,28.57964,-0.12274,0.42594,0.65922
207.088,28.63294,-0.12274,0.42867,0.65922
207.688,28.68617,-0.12503,0.42731,0.65922
208.288,28.73963,-0.12541,0.42868,0.65921
208.888,28.7931,-0.11644,0.42883,0.65921
209.488,28.8466,-0.1338,0.43151,0.6592
210.088,28.89998,-0.12867,0.43112,0.65919
210.688,28.9532,-0.12674,0.43137,0.65918
211.288,29.0064,-0.12533,0.4329,0.65917
211.888,29.0597,-0.1267,0.43291,0.65916
212.488,29.11307,-0.1292,0.43335,0.65915
213.088,29.16651,-0.12933,0.43359,0.65913
213.688,29.22,-0.12933,0.43339,0.65912
214.288,29.2734,-0.12933,0.43507,0.6591
214.888,29.3268,-0.12933,0.43918,0.65908
215.488,29.3802,-0.13065,0.43885,0.65907
216.088,29.4335,-0.13065,0.43943,0.65905
216.688,29.48674,-0.13065,0.4402,0.65903
217.288,29.5399,-0.13065,0.44382,0.659
217.888,29.5932,-0.13328,0.44493,0.65898
218.488,29.64648,-0.13458,0.44651,0.65896
219.088,29.6998,-0.13459,0.44708,0.65893
219.688,29.75334,-0.13532,0.4461,0.65891
220.288,29.80687,-0.13525,0.44716,0.65888
220.888,29.86037,-0.13593,0.44964,0.65885
221.488,29.91375,-0.13744,0.44914,0.65882
222.088,29.9672,-0.13743,0.44739,0.65879
222.688,30.02048,-0.13876,0.4449,0.65876
223.288,30.0738,-0.14139,0.44436,0.65873
223.888,30.12718,-0.14138,0.44235,0.6587
224.488,30.1804,-0.14271,0.44435,0.65866
225.088,30.2341,-0.14263,0.44292,0.65863
225.688,30.28776,-0.14403,0.44434,0.65859
226.288,30.34117,-0.14539,0.44143,0.65855
226.888,30.39487,-0.14534,0.44134,0.65851
227.488,30.44833,-0.14555,0.43836,0.65847
228.088,30.5018,-0.14821,0.43936,0.65843
228.688,30.55527,-0.14945,0.43997,0.65839
229.288,30.6086,-0.15207,0.43968,0.65835
229.888,30.66198,-0.15214,0.44229,0.6583
230.488,30.71538,-0.15336,0.44165,0.65826
231.088,30.7688,-0.15477,0.4427,0.65821
231.688,30.8221,-0.1571,0.44589,0.65816
232.288,30.87547,-0.15882,0.44349,0.65811
232.888,30.9291,-0.16016,0.44526,0.65806
233.488,30.9826,-0.16123,0.44461,0.65801
234.088,31.03625,-0.16215,0.443,0.65796
234.688,31.0899,-0.16311,0.44383,0.65791
235.288,31.14327,-0.16541,0.44459,0.65786
235.888,31.1967,-0.16836,0.44603,0.6578
236.488,31.2501,-0.16991,0.44591,0.65774
237.088,31.3034,-0.17159,0.44391,0.65769
237.688,31.35678,-0.17415,0.44457,0.65763
238.288,31.4102,-0.17572,0.44556,0.65757
238.888,31.46375,-0.17704,0.44198,0.65751
239.488,31.5172,-0.17975,0.44355,0.65745
240.088,31.5706,-0.18258,0.44264,0.65739
240.688,31.6241,-0.1847,0.44472,0.65732
241.288,31.6775,-0.18729,0.44217,0.65726
241.888,31.73108,-0.19017,0.44139,0.6572
242.488,31.78472,-0.19284,0.43922,0.65713
243.088,31.8383,-0.1947,0.43978,0.65706
243.688,31.8919,-0.19658,0.43884,0.65699
244.288,31.9454,-0.20038,0.44167,0.65692
244.888,31.99894,-0.20284,0.43862,0.65685
245.488,32.05247,-0.20414,0.438,0.65678
246.088,32.106,-0.20657,0.43794,0.65671
246.688,32.1597,-0.21103,0.43826,0.65664
247.288,32.21309,-0.21271,0.43819,0.65656
247.888,32.26651,-0.21717,0.43702,0.65649
248.488,32.32,-0.22004,0.43419,0.65641
249.088,32.37348,-0.22283,0.4359,0.65633
249.688,32.42695,-0.22647,0.43699,0.65626
250.288,32.4804,-0.22884,0.43459,0.65618
250.888,32.53419,-0.23307,0.43459,0.6561
251.488,32.58787,-0.23722,0.43629,0.65601
252.088,32.6417,-0.24117,0.43664,0.65593
252.688,32.69571,-0.24468,0.43509,0.65585
253.288,32.74915,-0.2479,0.43206,0.65576
253.888,32.8027,-0.2505,0.43151,0.65568
254.488,32.85613,-0.25347,0.43269,0.65559
255.088,32.90959,-0.25893,0.4336,0.6555
255.688,32.9632,-0.2632,0.43254,0.65542
256.288,33.01681,-0.26719,0.43622,0.65533
256.888,33.07042,-0.26853,0.43472,0.65524
257.488,33.12406,-0.27361,0.43287,0.65514
258.088,33.1775,-0.27816,0.43381,0.65505
258.688,33.23105,-0.28143,0.43484,0.65496
259.288,33.2847,-0.28565,0.4341,0.65486
259.888,33.33829,-0.29184,0.43692,0.65477
260.488,33.39228,-0.2957,0.43515,0.65467
261.088,33.4461,-0.30083,0.43399,0.65458
261.688,33.49962,-0.305,0.43501,0.65448
262.288,33.55317,-0.31048,0.4362,0.65438
262.888,33.6068,-0.31605,0.4378,0.65428
263.488,33.66025,-0.31865,0.43565,0.65418
264.088,33.71419,-0.32397,0.43376,0.65408
264.688,33.76809,-0.32981,0.43552,0.65397
265.288,33.82189,-0.33448,0.43427,0.65387
265.888,33.87579,-0.34018,0.43512,0.65376
266.488,33.92957,-0.34647,0.43607,0.65366
267.088,33.9832,-0.3515,0.43534,0.65355
267.688,34.0366,-0.3575,0.43567,0.65344
268.288,34.08954,-0.36204,0.43529,0.65333
268.888,34.14289,-0.36917,0.43652,0.65322
269.488,34.19665,-0.37515,0.43651,0.65311
270.088,34.2506,-0.38053,0.43842,0.653
270.688,34.30495,-0.38614,0.441,0.65289
271.288,34.35893,-0.39366,0.44305,0.65278
271.888,34.41256,-0.39965,0.44147,0.65266
272.488,34.46638,-0.40637,0.44393,0.65255
273.088,34.52024,-0.41137,0.44352,0.65243
273.688,34.57405,-0.41871,0.44707,0.65231
274.288,34.6279,-0.42509,0.44578,0.6522
274.888,34.68173,-0.43206,0.44795,0.65208
275.488,34.7355,-0.43931,0.44837,0.65196
276.088,34.7892,-0.44716,0.45024,0.65184
276.688,34.84301,-0.45448,0.44979,0.65171
277.288,34.89682,-0.46057,0.44995,0.65159
277.888,34.95063,-0.46846,0.44939,0.65147
278.488,35.00447,-0.47736,0.45285,0.65134
279.088,35.05838,-0.48715,0.45545,0.65122
279.688,35.11209,-0.49495,0.45364,0.65109
280.288,35.1659,-0.50284,0.45415,0.65096
280.888,35.2199,-0.51145,0.45839,0.65084
281.488,35.27384,-0.52039,0.4568,0.65071
282.088,35.3279,-0.52976,0.45967,0.65058
282.688,35.382,-0.5398,0.46117,0.65045
283.288,35.43594,-0.54783,0.46184,0.65031
283.888,35.48988,-0.5583,0.4631,0.65018
284.488,35.54394,-0.56681,0.46366,0.65005
285.088,35.5979,-0.57788,0.46318,0.64991
285.688,35.65182,-0.58921,0.46764,0.64978
286.288,35.70556,-0.59827,0.46923,0.64964
286.888,35.75947,-0.60894,0.46963,0.6495
287.488,35.8136,-0.6195,0.46862,0.64937
288.088,35.86775,-0.63103,0.47294,0.64923
288.688,35.92207,-0.64415,0.47319,0.64909
289.288,35.97598,-0.65531,0.47451,0.64895
289.888,36.02964,-0.66627,0.47514,0.64881
290.488,36.08384,-0.67876,0.47743,0.64866
291.088,36.13797,-0.69229,0.47842,0.64852
291.688,36.1922,-0.70456,0.47956,0.64838
292.288,36.24674,-0.71769,0.48161,0.64823
292.888,36.30073,-0.73113,0.48545,0.64809
293.488,36.35494,-0.74267,0.48496,0.64794
294.088,36.40922,-0.75674,0.48533,0.64779
294.688,36.4633,-0.77126,0.49106,0.64764
295.288,36.51737,-0.78505,0.49007,0.64749
295.888,36.57142,-0.79808,0.49272,0.64734
296.488,36.62557,-0.81337,0.49158,0.64719
297.088,36.67966,-0.82849,0.49781,0.64704
297.688,36.73389,-0.84304,0.49466,0.64689
298.288,36.78804,-0.86026,0.49703,0.64673
298.888,36.8422,-0.87416,0.49801,0.64658
299.488,36.89648,-0.89078,0.49898,0.64642
300.088,36.95066,-0.90731,0.50165,0.64627
300.688,37.00479,-0.92172,0.50401,0.64611
301.288,37.059,-0.93882,0.50708,0.64595
301.888,37.11311,-0.95576,0.50752,0.6458
302.488,37.16731,-0.9743,0.50939,0.64564
303.088,37.2213,-0.99069,0.51001,0.64548
303.688,37.27537,-1.00819,0.51073,0.64531
304.288,37.32946,-1.02377,0.51012,0.64515
304.888,37.38373,-1.04198,0.51537,0.64499
305.488,37.4382,-1.06196,0.51361,0.64483
306.088,37.4925,-1.07917,0.51865,0.64466
306.688,37.54683,-1.09924,0.51588,0.6445
307.288,37.60089,-1.11665,0.51934,0.64433
307.888,37.6551,-1.13705,0.52084,0.64416
308.488,37.7093,-1.15758,0.52237,0.644
309.088,37.76332,-1.17674,0.52503,0.64383
309.688,37.8176,-1.19662,0.52816,0.64366
310.288,37.87178,-1.21637,0.53001,0.64349
310.888,37.9261,-1.23553,0.53306,0.64332
311.488,37.98052,-1.25736,0.53344,0.64315
312.088,38.03476,-1.27924,0.53561,0.64297
312.688,38.089,-1.30059,0.53778,0.6428
313.288,38.14313,-1.32281,0.5382,0.64263
313.888,38.1973,-1.34681,0.54112,0.64245
314.488,38.25164,-1.36666,0.5413,0.64228
315.088,38.30608,-1.38989,0.54565,0.6421
315.688,38.36047,-1.41194,0.54638,0.64192
316.288,38.4151,-1.43604,0.54755,0.64175
316.888,38.4696,-1.46328,0.55026,0.64157
317.488,38.52411,-1.48515,0.55327,0.64139
318.088,38.57869,-1.50868,0.55632,0.64121
318.688,38.63302,-1.53372,0.55338,0.64103
319.288,38.6875,-1.55853,0.56029,0.64085
319.888,38.7419,-1.58358,0.5611,0.64066
320.488,38.79634,-1.6094,0.56395,0.64048
321.088,38.85091,-1.6359,0.56593,0.6403
321.688,38.90538,-1.66322,0.5684,0.64011
322.288,38.96011,-1.68988,0.57121,0.63993
322.888,39.01468,-1.71597,0.57517,0.63974
323.488,39.06915,-1.7448,0.57811,0.63955
324.088,39.12362,-1.77105,0.58171,0.63936
324.688,39.178,-1.79921,0.58288,0.63918
325.288,39.2326,-1.8289,0.58653,0.63899
325.888,39.28734,-1.85625,0.58634,0.6388
326.488,39.342,-1.8861,0.58989,0.63861
327.088,39.39672,-1.91629,0.59224,0.63841
327.688,39.45147,-1.94577,0.59227,0.63822
328.288,39.506,-1.9772,0.59597,0.63803
328.888,39.56071,-2.00871,0.59827,0.63784
329.488,39.61527,-2.03746,0.59902,0.63764
330.088,39.66987,-2.07048,0.60199,0.63745
330.688,39.72463,-2.10272,0.60263,0.63725
331.288,39.77918,-2.13153,0.60757,0.63705
331.888,39.83376,-2.16501,0.60684,0.63686
332.488,39.8883,-2.19689,0.60774,0.63666
333.088,39.94232,-2.23042,0.60901,0.63646
333.688,39.99707,-2.26488,0.6104,0.63626
334.288,40.05166,-2.30211,0.60953,0.63606
334.888,40.10631,-2.32389,0.607,0.63586
335.488,40.1613,-2.36182,0.60816,0.63566
336.088,40.21618,-2.40019,0.60797,0.63546
336.688,40.27088,-2.42991,0.60966,0.63525
337.288,40.32546,-2.46395,0.60646,0.63505
337.888,40.3802,-2.49771,0.60649,0.63485
338.488,40.43477,-2.53502,0.60288,0.63464
339.088,40.4897,-2.56759,0.60281,0.63443
339.688,40.54467,-2.60172,0.59629,0.63423
340.288,40.5995,-2.63551,0.59192,0.63402
340.888,40.65444,-2.66956,0.58663,0.63381
341.488,40.70928,-2.70462,0.58227,0.6336
342.088,40.7641,-2.73664,0.57443,0.6334
342.688,40.81907,-2.77004,0.56917,0.63319
343.288,40.87401,-2.81265,0.56343,0.63298
343.888,40.92907,-2.82471,0.55238,0.63276
344.488,40.98426,-2.86695,0.53852,0.63255
345.088,41.03935,-2.89729,0.52853,0.63234
345.688,41.0944,-2.92662,0.52016,0.63213
346.288,41.1494,-2.95664,0.50599,0.63191
346.888,41.20443,-2.98314,0.49392,0.6317
347.488,41.2595,-3.01169,0.47821,0.63148
348.088,41.31474,-3.03849,0.46433,0.63127
348.688,41.3699,-3.06173,0.45452,0.63105
349.288,41.4251,-3.08518,0.43226,0.63083
349.888,41.48019,-3.10572,0.41893,0.63062
350.488,41.53515,-3.12653,0.40426,0.6304
351.088,41.59012,-3.14748,0.38771,0.63018
351.688,41.64516,-3.16313,0.37344,0.62996
352.288,41.70043,-3.17996,0.36236,0.62974
352.888,41.75589,-3.19528,0.35208,0.62952
353.488,41.81153,-3.20823,0.34198,0.6293
354.088,41.8669,-3.21998,0.33208,0.62907
354.688,41.92219,-3.23035,0.32794,0.62885
355.288,41.97745,-3.24147,0.319,0.62863
355.888,42.03269,-3.24935,0.31403,0.6284
356.488,42.088,-3.25829,0.31238,0.62818
357.088,42.14326,-3.26516,0.30354,0.62795
357.688,42.19847,-3.27195,0.3036,0.62773
358.288,42.2539,-3.27847,0.29994,0.6275
358.888,42.30941,-3.28468,0.29623,0.62727
359.488,42.36484,-3.28955,0.29268,0.62705
360.088,42.42035,-3.29382,0.29374,0.62682
360.688,42.4756,-3.2996,0.29133,0.62659
361.288,42.53035,-3.3038,0.28905,0.62636
361.888,42.58571,-3.30759,0.28883,0.62613
362.488,42.64103,-3.31187,0.28705,0.6259
363.088,42.69655,-3.31608,0.28511,0.62567
363.688,42.75242,-3.31979,0.28301,0.62543
364.288,42.80774,-3.32215,0.28363,0.6252
364.888,42.86313,-3.3251,0.28086,0.62497
365.488,42.91861,-3.33039,0.28238,0.62474
366.088,42.97391,-3.33186,0.28253,0.6245
366.688,43.02944,-3.33551,0.28371,0.62427
367.288,43.0849,-3.33888,0.28245,0.62403
367.888,43.14034,-3.34239,0.28457,0.62379
368.488,43.19595,-3.34392,0.28596,0.62356
369.088,43.25138,-3.34766,0.28317,0.62332
369.688,43.3069,-3.34927,0.28438,0.62308
370.288,43.36248,-3.35282,0.28321,0.62284
370.888,43.41792,-3.35586,0.28351,0.62261
371.488,43.4735,-3.35731,0.28418,0.62237
372.088,43.52872,-3.36086,0.28379,0.62213
372.688,43.58452,-3.36374,0.28225,0.62189
373.288,43.64029,-3.36662,0.28444,0.62164
373.888,43.6958,-3.36974,0.28043,0.6214
374.488,43.7517,-3.37214,0.28381,0.62116
375.088,43.80702,-3.37364,0.28165,0.62092
375.688,43.86285,-3.37592,0.28195,0.62067
376.288,43.91878,-3.37718,0.28368,0.62043
376.888,43.9745,-3.38105,0.28329,0.62019
377.488,44.0303,-3.38276,0.2839,0.61994
378.088,44.0859,-3.38402,0.2847,0.6197
378.688,44.1415,-3.38704,0.28202,0.61945
379.288,44.19743,-3.3884,0.28575,0.6192
379.888,44.25313,-3.39138,0.28473,0.61896
380.488,44.3089,-3.39263,0.28145,0.61871
381.088,44.36461,-3.39455,0.28409,0.61846
381.688,44.42048,-3.39547,0.28605,0.61821
382.288,44.47613,-3.39768,0.28284,0.61796
382.888,44.53197,-3.39996,0.28135,0.61771
383.488,44.58797,-3.40236,0.28367,0.61746
384.088,44.64379,-3.40433,0.28391,0.61721
384.688,44.69975,-3.40434,0.2845,0.61696
385.288,44.75567,-3.40739,0.28354,0.61671
385.888,44.81159,-3.40866,0.28599,0.61646
386.488,44.86752,-3.41161,0.28634,0.6162
387.088,44.9236,-3.41311,0.28666,0.61595
387.688,44.9795,-3.41569,0.28594,0.6157
388.288,45.0354,-3.41761,0.28681,0.61544
388.888,45.0914,-3.4199,0.2867,0.61519
389.488,45.1473,-3.42195,0.28504,0.61493
390.088,45.20333,-3.42403,0.28636,0.61468
390.688,45.25922,-3.42654,0.2865,0.61442
391.288,45.31501,-3.4273,0.28542,0.61416
391.888,45.37097,-3.42835,0.28539,0.61391
392.488,45.4268,-3.43044,0.28723,0.61365
393.088,45.48291,-3.43199,0.2863,0.61339
393.688,45.539,-3.43456,0.28606,0.61313
394.288,45.59495,-3.4359,0.28836,0.61287
394.888,45.65088,-3.43857,0.28623,0.61261
395.488,45.70693,-3.43981,0.28591,0.61235
396.088,45.76266,-3.43988,0.28722,0.61209
396.688,45.8187,-3.44133,0.28614,0.61183
397.288,45.87488,-3.44374,0.28514,0.61157
397.888,45.93107,-3.4471,0.28585,0.61131
398.488,45.98735,-3.45029,0.28658,0.61105
399.088,46.04336,-3.44949,0.28905,0.61078
399.688,46.09946,-3.45019,0.28768,0.61052
400.288,46.15563,-3.45156,0.28931,0.61026
400.888,46.21181,-3.45347,0.28674,0.60999
401.488,46.26798,-3.45442,0.28668,0.60973
402.088,46.32421,-3.45655,0.28812,0.60946
402.688,46.38016,-3.45842,0.28627,0.6092
403.288,46.4362,-3.45961,0.28754,0.60893
403.888,46.49228,-3.46316,0.28756,0.60867
404.488,46.5483,-3.46425,0.28498,0.6084
405.088,46.60448,-3.46638,0.28552,0.60813
405.688,46.6606,-3.46641,0.28362,0.60787
406.288,46.71673,-3.46773,0.28718,0.6076
406.888,46.7731,-3.46902,0.28817,0.60733
407.488,46.82942,-3.47037,0.28704,0.60706
408.088,46.88592,-3.47289,0.28868,0.60679
408.688,46.94233,-3.47527,0.28891,0.60652
409.288,46.99868,-3.47678,0.28714,0.60625
409.888,47.05513,-3.4762,0.28879,0.60598
410.488,47.11161,-3.4799,0.28927,0.60571
411.088,47.16805,-3.48103,0.28887,0.60544
411.688,47.22448,-3.48213,0.28883,0.60517
412.288,47.28085,-3.484,0.2899,0.6049
412.888,47.33716,-3.48657,0.29153,0.60462
413.488,47.39354,-3.4878,0.29015,0.60435
414.088,47.44996,-3.48934,0.28841,0.60408
414.688,47.50629,-3.49068,0.28967,0.6038
415.288,47.56259,-3.49218,0.29317,0.60353
415.888,47.61923,-3.4942,0.29291,0.60325
416.488,47.67579,-3.49603,0.28824,0.60298
417.088,47.73255,-3.49758,0.29276,0.6027
417.688,47.7893,-3.49744,0.294,0.60243
418.288,47.84595,-3.5,0.29371,0.60215
418.888,47.9026,-3.50196,0.29253,0.60188
419.488,47.95906,-3.50154,0.29509,0.6016
420.088,48.01542,-3.50461,0.29218,0.60132
420.688,48.0721,-3.51322,0.29501,0.60105
421.288,48.1289,-3.50909,0.29296,0.60077
421.888,48.1857,-3.51026,0.29668,0.60049
422.488,48.2425,-3.51296,0.29639,0.60021
423.088,48.29919,-3.5137,0.29629,0.59993
423.688,48.35575,-3.51372,0.29786,0.59965
424.288,48.4125,-3.5151,0.29665,0.59937
424.888,48.4692,-3.51786,0.29626,0.59909
425.488,48.52608,-3.51922,0.29694,0.59881
426.088,48.5831,-3.52049,0.29741,0.59853
426.688,48.63998,-3.52181,0.29829,0.59825
427.288,48.69689,-3.52299,0.2989,0.59797
427.888,48.75357,-3.52445,0.2995,0.59769
428.488,48.81047,-3.52589,0.29901,0.59741
429.088,48.86728,-3.52855,0.2987,0.59713
429.688,48.92405,-3.53015,0.29916,0.59684
430.288,48.98082,-3.53147,0.2978,0.59656
430.888,49.03763,-3.53278,0.29824,0.59628
431.488,49.09435,-3.53379,0.30194,0.59599
432.088,49.15128,-3.5355,0.30239,0.59571
432.688,49.20812,-3.5358,0.30153,0.59543
433.288,49.26513,-3.53899,0.30284,0.59514
433.888,49.32221,-3.53946,0.30304,0.59486
434.488,49.37919,-3.54152,0.30222,0.59457
435.088,49.43636,-3.54156,0.30159,0.59429
435.688,49.49349,-3.54465,0.30536,0.594
436.288,49.55065,-3.54694,0.30395,0.59371
436.888,49.60791,-3.54762,0.30409,0.59343
437.488,49.66506,-3.53992,0.30509,0.59314
438.088,49.722,-3.55529,0.30613,0.59285
438.688,49.77892,-3.55374,0.30486,0.59257
439.288,49.836,-3.55514,0.30733,0.59228
439.888,49.8932,-3.55542,0.30682,0.59199
440.488,49.95067,-3.55778,0.30573,0.5917
441.088,50.00809,-3.55775,0.30581,0.59141
441.688,50.0653,-3.55812,0.30576,0.59113
442.288,50.12262,-3.55944,0.30553,0.59084
442.888,50.17977,-3.56075,0.30853,0.59055
443.488,50.23684,-3.56172,0.30573,0.59026
444.088,50.2939,-3.56307,0.30758,0.58997
444.688,50.35111,-3.56503,0.30895,0.58968
445.288,50.40829,-3.56722,0.30647,0.58939
445.888,50.46555,-3.5684,0.30592,0.5891
446.488,50.5227,-3.56864,0.3061,0.58881
447.088,50.5799,-3.57127,0.30489,0.58852
447.688,50.63709,-3.57389,0.30566,0.58822
448.288,50.69426,-3.57532,0.30504,0.58793
448.888,50.7515,-3.57535,0.30844,0.58764
449.488,50.80854,-3.57665,0.30711,0.58735
450.088,50.86587,-3.57891,0.30591,0.58706
450.688,50.92307,-3.58059,0.30673,0.58676
451.288,50.98038,-3.58072,0.30734,0.58647
451.888,51.0375,-3.58246,0.30966,0.58618
452.488,51.0945,-3.58374,0.30774,0.58588
453.088,51.1517,-3.5856,0.30803,0.58559
453.688,51.20892,-3.58477,0.30607,0.5853
454.288,51.2662,-3.58615,0.30811,0.585
454.888,51.32358,-3.58729,0.31267,0.58471
455.488,51.38084,-3.58971,0.31046,0.58441
456.088,51.43812,-3.59103,0.31236,0.58412
456.688,51.4955,-3.59234,0.31244,0.58382
457.288,51.55277,-3.59297,0.31067,0.58353
457.888,51.61019,-3.59398,0.31378,0.58323
458.488,51.66771,-3.59644,0.31545,0.58294
459.088,51.7251,-3.59661,0.31442,0.58264
459.688,51.78265,-3.59852,0.315,0.58235
460.288,51.8403,-3.59825,0.31469,0.58205
460.888,51.89765,-3.59925,0.31617,0.58175
461.488,51.95493,-3.60189,0.3196,0.58146
462.088,52.01238,-3.6018,0.31985,0.58116
462.688,52.06993,-3.60319,0.31815,0.58086
463.288,52.12748,-3.60451,0.31958,0.58056
463.888,52.18515,-3.60578,0.31815,0.58027
464.488,52.24258,-3.60888,0.31869,0.57997
465.088,52.30003,-3.60879,0.31796,0.57967
465.688,52.35775,-3.6101,0.32088,0.57937
466.288,52.41568,-3.61146,0.3213,0.57908
466.888,52.47331,-3.61273,0.32108,0.57878
467.488,52.5311,-3.61404,0.32106,0.57848
468.088,52.58871,-3.61406,0.32274,0.57818
468.688,52.6466,-3.61674,0.32479,0.57788
469.288,52.70435,-3.61644,0.32345,0.57758
469.888,52.76206,-3.61654,0.32197,0.57728
470.488,52.8197,-3.61731,0.32029,0.57698
471.088,52.87726,-3.61901,0.32092,0.57668
471.688,52.93484,-3.62086,0.32094,0.57638
472.288,52.99244,-3.62173,0.32333,0.57608
472.888,53.05016,-3.62173,0.32351,0.57578
473.488,53.10781,-3.62306,0.32338,0.57548
474.088,53.16535,-3.62431,0.32178,0.57518
474.688,53.223,-3.62567,0.32459,0.57488
475.288,53.28051,-3.627,0.32644,0.57458
475.888,53.33818,-3.62824,0.32533,0.57428
476.488,53.39609,-3.62826,0.32774,0.57398
477.088,53.45395,-3.63061,0.32833,0.57368
477.688,53.5116,-3.6323,0.32837,0.57337
478.288,53.5693,-3.63226,0.33068,0.57307
478.888,53.6271,-3.63226,0.32827,0.57277
479.488,53.68506,-3.63405,0.32579,0.57247
480.088,53.743,-3.63753,0.32875,0.57217
480.688,53.801,-3.6381,0.33198,0.57186
481.288,53.859,-3.63905,0.33179,0.57156
481.888,53.9169,-3.64616,0.32908,0.57126
482.488,53.9747,-3.6375,0.33194,0.57096
483.088,54.0325,-3.6335,0.33345,0.57065
483.688,54.09049,-3.64073,0.33228,0.57035
484.288,54.1484,-3.64407,0.33137,0.57005
484.888,54.20638,-3.66028,0.33161,0.56975
485.488,54.26441,-3.63767,0.33486,0.56944
486.088,54.32226,-3.634,0.33585,0.56914
486.688,54.38024,-3.64391,0.33488,0.56884
487.288,54.4381,-3.64522,0.33744,0.56853
487.888,54.4963,-3.64663,0.33901,0.56823
488.488,54.55435,-3.64918,0.33681,0.56792
489.088,54.61235,-3.64926,0.33858,0.56762
489.688,54.67046,-3.65058,0.33779,0.56732
490.288,54.72845,-3.64926,0.33883,0.56701
490.888,54.78671,-3.65058,0.33965,0.56671
491.488,54.8448,-3.65049,0.3395,0.5664
492.088,54.90302,-3.65183,0.33858,0.5661
492.688,54.9612,-3.65321,0.33828,0.56579
493.288,55.01916,-3.65321,0.34121,0.56549
493.888,55.0772,-3.65454,0.34288,0.56518
494.488,55.13516,-3.65596,0.34277,0.56488
495.088,55.19295,-3.65727,0.34322,0.56458
495.688,55.2511,-3.65734,0.34417,0.56427
496.288,55.30915,-3.65858,0.34628,0.56397
496.888,55.36714,-3.65859,0.34544,0.56366
497.488,55.4253,-3.65962,0.34232,0.56335
498.088,55.4834,-3.65978,0.34649,0.56305
498.688,55.5414,-3.66122,0.34801,0.56274
499.288,55.59939,-3.66249,0.35276,0.56244
499.888,55.6577,-3.66253,0.35299,0.56213
500.488,55.71598,-3.66389,0.35247,0.56183
501.088,55.77431,-3.66385,0.35382,0.56152
501.688,55.83276,-3.66385,0.35479,0.56122
502.288,55.891,-3.6665,0.35392,0.56091
502.888,55.9495,-3.66648,0.35547,0.5606
503.488,56.0079,-3.66779,0.35523,0.5603
504.088,56.06632,-3.66911,0.3559,0.55999
504.688,56.1246,-3.66916,0.35583,0.55969
505.288,56.18255,-3.66912,0.35787,0.55938
505.888,56.2409,-3.66912,0.35984,0.55907
506.488,56.2993,-3.67135,0.3581,0.55877
507.088,56.358,-3.67176,0.36165,0.55846
507.688,56.4164,-3.67316,0.35925,0.55816
508.288,56.4749,-3.67175,0.35839,0.55785
508.888,56.53329,-3.67321,0.36237,0.55754
509.488,56.5919,-3.67434,0.36096,0.55724
510.088,56.6504,-3.67569,0.3642,0.55693
510.688,56.70887,-3.67438,0.36495,0.55662
511.288,56.76746,-3.67433,0.36378,0.55632
511.888,56.82604,-3.67583,0.36584,0.55601
512.488,56.88446,-3.66836,0.36226,0.5557
513.088,56.9428,-3.68584,0.36549,0.5554
513.688,57.00095,-3.6788,0.36572,0.55509
514.288,57.0595,-3.6786,0.36685,0.55478
514.888,57.1181,-3.67822,0.37057,0.55448
515.488,57.1767,-3.67821,0.3688,0.55417
516.088,57.23529,-3.68087,0.36909,0.55386
516.688,57.29381,-3.68222,0.37103,0.55356
517.288,57.35241,-3.68217,0.37492,0.55325
517.888,57.4108,-3.6809,0.37432,0.55294
518.488,57.46894,-3.68218,0.37419,0.55264
519.088,57.5277,-3.68341,0.37622,0.55233
519.688,57.58651,-3.68479,0.37729,0.55202
520.288,57.6456,-3.68441,0.37523,0.55172
520.888,57.7046,-3.6848,0.37463,0.55141
521.488,57.76339,-3.6848,0.37321,0.5511
522.088,57.82209,-3.68566,0.37325,0.5508
522.688,57.8808,-3.67767,0.37611,0.55049
523.288,57.9395,-3.6983,0.37372,0.55018
523.888,57.9981,-3.69002,0.3761,0.54988
524.488,58.05678,-3.68792,0.37624,0.54957
525.088,58.11571,-3.68778,0.37684,0.54926
525.688,58.1746,-3.68789,0.37758,0.54896
526.288,58.23346,-3.68922,0.37652,0.54865
526.888,58.2921,-3.69051,0.37319,0.54834
527.488,58.3508,-3.69182,0.37499,0.54804
528.088,58.4095,-3.69182,0.37574,0.54773
528.688,58.4683,-3.69184,0.3756,0.54742
529.288,58.5273,-3.69185,0.37614,0.54712
529.888,58.586,-3.69186,0.37582,0.54681
530.488,58.6448,-3.69315,0.37815,0.5465
531.088,58.7036,-3.69445,0.37919,0.5462
531.688,58.76255,-3.69446,0.37872,0.54589
532.288,58.82153,-3.69448,0.37922,0.54558
532.888,58.88051,-3.69378,0.3774,0.54528
533.488,58.9394,-3.6938,0.38006,0.54497
534.088,58.99833,-3.69512,0.37874,0.54466
534.688,59.05729,-3.69631,0.37901,0.54436
535.288,59.11628,-3.69633,0.38142,0.54405
535.888,59.1753,-3.69774,0.38252,0.54375
536.488,59.23451,-3.69775,0.38031,0.54344
537.088,59.29361,-3.69906,0.38236,0.54313
537.688,59.3528,-3.69906,0.38206,0.54283
538.288,59.4118,-3.69775,0.38481,0.54252
538.888,59.47081,-3.69905,0.38304,0.54221
539.488,59.52975,-3.69906,0.38277,0.54191
540.088,59.58865,-3.69929,0.38125,0.5416
540.688,59.64753,-3.70035,0.38411,0.5413
541.288,59.70655,-3.70078,0.38415,0.54099
541.888,59.7656,-3.70071,0.38535,0.54069
542.488,59.82455,-3.70071,0.38452,0.54038
543.088,59.88351,-3.70072,0.38728,0.54007
543.688,59.9423,-3.70335,0.38438,0.53977
544.288,60.0011,-3.70466,0.38794,0.53946
544.888,60.05995,-3.70466,0.39193,0.53916
545.488,60.1189,-3.70467,0.39019,0.53885
546.088,60.17807,-3.70499,0.38764,0.53855
546.688,60.23734,-3.70499,0.38657,0.53824
547.288,60.29655,-3.70476,0.38881,0.53794
547.888,60.35569,-3.70466,0.39065,0.53763
548.488,60.4147,-3.70541,0.39279,0.53733
549.088,60.4735,-3.70461,0.3914,0.53702
549.688,60.5325,-3.70597,0.3913,0.53672
550.288,60.5916,-3.70597,0.39347,0.53641
550.888,60.65064,-3.70728,0.39349,0.53611
551.488,60.70969,-3.70666,0.39044,0.5358
552.088,60.7688,-3.70727,0.39129,0.5355
552.688,60.8279,-3.7086,0.39248,0.53519
553.288,60.88705,-3.7086,0.39227,0.53489
553.888,60.94639,-3.7086,0.39158,0.53459
554.488,61.0057,-3.70859,0.39291,0.53428
555.088,61.06495,-3.71145,0.39261,0.53398
555.688,61.12425,-3.7104,0.39296,0.53367
556.288,61.1833,-3.70867,0.39644,0.53337
556.888,61.24264,-3.70647,0.39152,0.53307
557.488,61.3022,-3.71564,0.39242,0.53276
558.088,61.36152,-3.71234,0.39307,0.53246
558.688,61.42114,-3.712,0.39156,0.53216
559.288,61.4802,-3.712,0.39307,0.53185
559.888,61.5397,-3.712,0.3905,0.53155
560.488,61.5992,-3.71332,0.39502,0.53125
561.088,61.65857,-3.7142,0.39799,0.53094
561.688,61.71805,-3.71463,0.39611,0.53064
562.288,61.7774,-3.71463,0.39863,0.53034
562.888,61.8367,-3.71458,0.39872,0.53004
563.488,61.89631,-3.7156,0.39844,0.52973
564.088,61.95584,-3.70641,0.40117,0.52943
564.688,62.0154,-3.72582,0.39993,0.52913
565.288,62.07492,-3.7183,0.39947,0.52883
565.888,62.1343,-3.71594,0.39801,0.52853
566.488,62.19379,-3.71724,0.39939,0.52822
567.088,62.2532,-3.71757,0.39585,0.52792
567.688,62.31244,-3.71727,0.39943,0.52762
568.288,62.37191,-3.71727,0.40029,0.52732
568.888,62.4311,-3.71858,0.40076,0.52702
569.488,62.4905,-3.71858,0.4003,0.52672
570.088,62.55,-3.71858,0.40142,0.52642
570.688,62.6094,-3.71955,0.40356,0.52611
571.288,62.66881,-3.71859,0.40074,0.52581
571.888,62.7282,-3.71852,0.40241,0.52551
572.488,62.7876,-3.71859,0.40027,0.52521
573.088,62.84701,-3.71727,0.40362,0.52491
573.688,62.90654,-3.71859,0.40278,0.52461
574.288,62.96595,-3.71859,0.40411,0.52431
574.888,63.02544,-3.71989,0.40447,0.52401
575.488,63.08501,-3.71944,0.40524,0.52371
576.088,63.1446,-3.7199,0.40617,0.52341
576.688,63.20437,-3.7199,0.40784,0.52311
577.288,63.26407,-3.72016,0.40749,0.52281
577.888,63.32376,-3.7129,0.4134,0.52252
578.488,63.3835,-3.73235,0.41113,0.52222
579.088,63.4434,-3.72565,0.41032,0.52192
579.688,63.50306,-3.72438,0.41039,0.52162
580.288,63.5628,-3.72341,0.41114,0.52132
580.888,63.6224,-3.72341,0.4134,0.52102
581.488,63.68212,-3.72341,0.41434,0.52072
582.088,63.742,-3.72449,0.41628,0.52043
582.688,63.80194,-3.72445,0.41642,0.52013
583.288,63.86189,-3.72473,0.41447,0.51983
583.888,63.92176,-3.72473,0.41534,0.51953
584.488,63.9814,-3.72472,0.417,0.51924
585.088,64.04104,-3.72473,0.41623,0.51894
585.688,64.10082,-3.72473,0.41779,0.51864
586.288,64.16054,-3.72736,0.41715,0.51834
586.888,64.22029,-3.72736,0.42076,0.51805
587.488,64.27982,-3.72735,0.4191,0.51775
588.088,64.33931,-3.72737,0.41838,0.51746
588.688,64.39842,-3.72737,0.41802,0.51716
589.288,64.45805,-3.72735,0.41835,0.51686
589.888,64.51785,-3.7272,0.42134,0.51657
590.488,64.57795,-3.72755,0.41932,0.51627
591.088,64.63771,-3.72868,0.42095,0.51598
591.688,64.69751,-3.72867,0.42001,0.51568
592.288,64.75729,-3.73,0.42473,0.51539
592.888,64.81703,-3.73,0.42378,0.51509
593.488,64.87687,-3.73003,0.42237,0.5148
594.088,64.9366,-3.731,0.42676,0.5145
594.688,64.9966,-3.73229,0.42774,0.51421
595.288,65.05667,-3.7312,0.43169,0.51391
595.888,65.11659,-3.7323,0.43243,0.51362
596.488,65.17647,-3.7323,0.43633,0.51333
597.088,65.23661,-3.73166,0.43694,0.51303
597.688,65.29666,-3.73098,0.44067,0.51274
598.288,65.35685,-3.73169,0.43836,0.51245
598.888,65.41669,-3.73166,0.4411,0.51215
599.488,65.47649,-3.7323,0.44064,0.51186
600.088,65.5363,-3.73241,0.44401,0.51157
600.688,65.59618,-3.73361,0.44423,0.51128
601.288,65.65607,-3.73228,0.44485,0.51099
601.888,65.71596,-3.73229,0.44303,0.51069
602.488,65.77594,-3.73229,0.44671,0.5104
603.088,65.836,-3.73298,0.44781,0.51011
603.688,65.8964,-3.73296,0.45021,0.50982
604.288,65.95648,-3.73296,0.44849,0.50953
604.888,66.01641,-3.73358,0.45383,0.50924
605.488,66.07625,-3.73427,0.45031,0.50895
606.088,66.13609,-3.73427,0.45255,0.50866
606.688,66.19609,-3.73427,0.4533,0.50837
607.288,66.25628,-3.73427,0.45661,0.50808
607.888,66.31572,-3.73427,0.45604,0.50779
608.488,66.37568,-3.73488,0.45441,0.5075
609.088,66.43559,-3.73493,0.45914,0.50721
609.688,66.49577,-3.73493,0.45602,0.50692
610.288,66.55594,-3.73623,0.45984,0.50663
610.888,66.61599,-3.73622,0.45955,0.50634
611.488,66.676,-3.73493,0.45959,0.50605
612.088,66.7362,-3.73626,0.46328,0.50577
612.688,66.79629,-3.73632,0.46627,0.50548
613.288,66.85641,-3.73624,0.46858,0.50519
613.888,66.91656,-3.73754,0.47079,0.5049
614.488,66.97674,-3.73764,0.47002,0.50462
615.088,67.03716,-3.72804,0.47044,0.50433
615.688,67.09742,-3.74687,0.4688,0.50404
616.288,67.1576,-3.7393,0.4737,0.50376
616.888,67.21772,-3.73657,0.47366,0.50347
617.488,67.2778,-3.73789,0.47252,0.50318
618.088,67.33805,-3.7392,0.47296,0.5029
618.688,67.3985,-3.73921,0.47508,0.50261
619.288,67.4589,-3.73921,0.47494,0.50233
619.888,67.51926,-3.73921,0.47742,0.50204
620.488,67.57955,-3.7379,0.47554,0.50176
621.088,67.6399,-3.73821,0.47459,0.50147
621.688,67.69991,-3.74052,0.47323,0.50119
622.288,67.76031,-3.74052,0.47511,0.5009
622.888,67.82065,-3.74052,0.47567,0.50062
623.488,67.88114,-3.74085,0.47578,0.50034
624.088,67.94145,-3.74085,0.47823,0.50005
624.688,68.00179,-3.74053,0.47607,0.49977
625.288,68.06217,-3.74053,0.47744,0.49949
625.888,68.1224,-3.7404,0.47843,0.49921
626.488,68.18266,-3.74046,0.47529,0.49892
627.088,68.24289,-3.74053,0.48031,0.49864
627.688,68.30314,-3.74117,0.48084,0.49836
628.288,68.3635,-3.74184,0.47896,0.49808
628.888,68.4237,-3.7428,0.48041,0.4978
629.488,68.4841,-3.74316,0.47848,0.49752
630.088,68.5442,-3.74316,0.48052,0.49723
630.688,68.6044,-3.74316,0.48064,0.49695
631.288,68.66476,-3.74316,0.4822,0.49667
631.888,68.72514,-3.74323,0.48201,0.49639
632.488,68.78579,-3.74415,0.48588,0.49611
633.088,68.8459,-3.74417,0.48525,0.49583
633.688,68.90649,-3.74316,0.48654,0.49556
634.288,68.9667,-3.74381,0.48536,0.49528
634.888,69.0271,-3.74381,0.48617,0.495
635.488,69.08754,-3.74381,0.49058,0.49472
636.088,69.14803,-3.74381,0.49722,0.49444
636.688,69.20912,-3.74381,0.49448,0.49416
637.288,69.26986,-3.7425,0.49438,0.49389
637.888,69.33049,-3.74315,0.4957,0.49361
638.488,69.39111,-3.74447,0.49919,0.49333
639.088,69.4516,-3.74447,0.49635,0.49305
639.688,69.51228,-3.74578,0.49601,0.49278
640.288,69.5728,-3.74447,0.49704,0.4925
640.888,69.63346,-3.74443,0.49685,0.49223
641.488,69.694,-3.74446,0.49722,0.49195
642.088,69.75452,-3.74407,0.49578,0.49168
642.688,69.8152,-3.74364,0.49866,0.4914
643.288,69.8757,-3.74447,0.50132,0.49113
643.888,69.93649,-3.74614,0.49683,0.49085
644.488,69.99719,-3.74719,0.49416,0.49058
645.088,70.0579,-3.74579,0.49356,0.4903
645.688,70.11855,-3.74633,0.49818,0.49003
646.288,70.17908,-3.74711,0.49642,0.48976
646.888,70.23963,-3.74712,0.49982,0.48948
647.488,70.3002,-3.74579,0.5028,0.48921
648.088,70.36092,-3.74579,0.5037,0.48894
648.688,70.42158,-3.74579,0.50397,0.48866
649.288,70.48228,-3.74579,0.50831,0.48839
649.888,70.5429,-3.74579,0.50928,0.48812
650.488,70.60346,-3.7471,0.51376,0.48785
651.088,70.66411,-3.74711,0.51088,0.48758
651.688,70.72475,-3.74574,0.51015,0.48731
652.288,70.78546,-3.7471,0.51326,0.48704
652.888,70.8464,-3.7471,0.51351,0.48677
653.488,70.90728,-3.7471,0.51292,0.4865
654.088,70.96809,-3.74711,0.51453,0.48623
654.688,71.02886,-3.74842,0.51665,0.48596
655.288,71.08958,-3.74842,0.51547,0.48569
655.888,71.1504,-3.74776,0.51508,0.48542
656.488,71.21124,-3.7482,0.51452,0.48515
657.088,71.27211,-3.74778,0.51308,0.48488
657.688,71.33309,-3.74914,0.51108,0.48461
658.288,71.39399,-3.74079,0.51443,0.48435
658.888,71.455,-3.75795,0.51488,0.48408
659.488,71.5159,-3.75142,0.51348,0.48381
660.088,71.57678,-3.74886,0.51565,0.48355
660.688,71.63765,-3.74951,0.5152,0.48328
661.288,71.69829,-3.74886,0.51983,0.48301
661.888,71.75895,-3.75018,0.51808,0.48275
662.488,71.81968,-3.75149,0.52181,0.48248
663.088,71.8805,-3.75149,0.52766,0.48222
663.688,71.94142,-3.75019,0.52749,0.48195
664.288,72.00231,-3.75036,0.52619,0.48169
664.888,72.06314,-3.75149,0.5314,0.48142
665.488,72.12398,-3.75149,0.5344,0.48116
666.088,72.18479,-3.75083,0.53423,0.4809
666.688,72.24555,-3.75083,0.53356,0.48063
667.288,72.3065,-3.75214,0.53512,0.48037
667.888,72.3674,-3.75084,0.53654,0.48011
668.488,72.4282,-3.7508,0.53527,0.47984
669.088,72.48915,-3.75215,0.5375,0.47958
669.688,72.55024,-3.75215,0.5403,0.47932
670.288,72.6113,-3.75346,0.53917,0.47906
670.888,72.67215,-3.75214,0.54244,0.4788
671.488,72.73309,-3.75215,0.54217,0.47854
672.088,72.79396,-3.75215,0.54624,0.47828
672.688,72.85505,-3.75215,0.54326,0.47802
673.288,72.9162,-3.75215,0.5442,0.47776
673.888,72.97731,-3.75215,0.54443,0.4775
674.488,73.03822,-3.75215,0.54627,0.47724
675.088,73.0991,-3.75273,0.54395,0.47698
675.688,73.16006,-3.75347,0.54837,0.47672
676.288,73.2211,-3.75482,0.54787,0.47646
676.888,73.28222,-3.75395,0.54718,0.4762
677.488,73.34326,-3.7535,0.54799,0.47594
678.088,73.40415,-3.7535,0.55088,0.47569
678.688,73.4652,-3.75347,0.54851,0.47543
679.288,73.5262,-3.75347,0.54926,0.47517
679.888,73.58717,-3.75338,0.54737,0.47492
680.488,73.6482,-3.75478,0.54953,0.47466
681.088,73.70916,-3.75347,0.54936,0.4744
681.688,73.77025,-3.75478,0.55341,0.47415
682.288,73.83153,-3.75478,0.5549,0.47389
682.888,73.89271,-3.75348,0.55456,0.47364
683.488,73.95389,-3.75346,0.55995,0.47338
684.088,74.01504,-3.75551,0.55734,0.47313
684.688,74.07629,-3.75609,0.5571,0.47288
685.288,74.13745,-3.75536,0.55659,0.47262
685.888,74.1987,-3.75478,0.56136,0.47237
686.488,74.2599,-3.75478,0.56372,0.47212
687.088,74.32131,-3.75478,0.55947,0.47186
687.688,74.38261,-3.75616,0.56383,0.47161
688.288,74.44389,-3.75605,0.55828,0.47136
688.888,74.50525,-3.75643,0.5631,0.47111
689.488,74.56635,-3.75643,0.5647,0.47086
690.088,74.62748,-3.75643,0.56399,0.4706
690.688,74.68857,-3.75643,0.56418,0.47035
691.288,74.7497,-3.75643,0.57233,0.4701
691.888,74.81106,-3.75643,0.57794,0.46985
692.488,74.8725,-3.75624,0.57648,0.4696
693.088,74.93401,-3.75503,0.58232,0.46935
693.688,74.99561,-3.75643,0.5839,0.46911
694.288,75.057,-3.75648,0.58689,0.46886
694.888,75.1181,-3.74864,0.58248,0.46861
695.488,75.17928,-3.76488,0.58398,0.46836
696.088,75.24042,-3.7566,0.58373,0.46811
696.688,75.3018,-3.75729,0.58757,0.46786
697.288,75.36315,-3.75812,0.58228,0.46762
697.888,75.42445,-3.76589,0.58578,0.46737
698.488,75.48586,-3.75103,0.58532,0.46712
699.088,75.5473,-3.75599,0.58715,0.46688
699.688,75.60858,-3.75599,0.59183,0.46663
700.288,75.6698,-3.75599,0.59331,0.46639
700.888,75.7311,-3.75741,0.59422,0.46614
701.488,75.7924,-3.75871,0.59881,0.4659
702.088,75.85381,-3.75778,0.60009,0.46565
702.688,75.91511,-3.75873,0.60095,0.46541
703.288,75.97658,-3.75744,0.60165,0.46516
703.888,76.03783,-3.7601,0.60312,0.46492
704.488,76.09921,-3.75876,0.60462,0.46468
705.088,76.1605,-3.75873,0.60709,0.46444
705.688,76.22189,-3.75873,0.60428,0.46419
706.288,76.28325,-3.76004,0.60727,0.46395
706.888,76.34455,-3.75868,0.60843,0.46371
707.488,76.40575,-3.75873,0.61284,0.46347
708.088,76.4669,-3.75873,0.61559,0.46323
708.688,76.52831,-3.7588,0.61656,0.46299
709.288,76.58985,-3.7574,0.61661,0.46274
709.888,76.65136,-3.75871,0.62383,0.4625
710.488,76.7129,-3.75629,0.62116,0.46227
711.088,76.77417,-3.76626,0.62231,0.46203
711.688,76.83567,-3.76147,0.62632,0.46179
712.288,76.89701,-3.76103,0.63012,0.46155
712.888,76.95844,-3.7611,0.6306,0.46131
713.488,77.0197,-3.75971,0.63328,0.46107
714.088,77.08114,-3.7597,0.63779,0.46083
714.688,77.14235,-3.75937,0.63593,0.4606
715.288,77.2037,-3.75968,0.6353,0.46036
715.888,77.2651,-3.76103,0.63477,0.46012
716.488,77.3267,-3.76103,0.63822,0.45989
717.088,77.38786,-3.75871,0.64677,0.45965
717.688,77.4491,-3.75614,0.6398,0.45941
718.288,77.5102,-3.7654,0.64195,0.45918
718.888,77.5716,-3.76314,0.6452,0.45894
719.488,77.63311,-3.7618,0.64662,0.45871
720.088,77.69471,-3.7618,0.65207,0.45847
720.688,77.75623,-3.7618,0.65017,0.45824
721.288,77.81772,-3.76206,0.65012,0.45801
721.888,77.87916,-3.76279,0.6545,0.45777
722.488,77.94059,-3.76279,0.65485,0.45754
723.088,78.00202,-3.76279,0.65623,0.45731
723.688,78.06302,-3.76279,0.65621,0.45707
724.288,78.12446,-3.76207,0.65581,0.45684
724.888,78.18605,-3.76181,0.66154,0.45661
725.488,78.2478,-3.7618,0.66166,0.45638
726.088,78.30936,-3.75644,0.66452,0.45615
726.688,78.37085,-3.76413,0.66363,0.45592
727.288,78.43221,-3.76688,0.66211,0.45569
727.888,78.49373,-3.76411,0.66595,0.45546
728.488,78.55525,-3.76279,0.66794,0.45523
729.088,78.61685,-3.76279,0.67536,0.455
729.688,78.6787,-3.76279,0.67698,0.45477
730.288,78.74086,-3.7641,0.68288,0.45454
730.888,78.80284,-3.7753,0.68404,0.45431
731.488,78.86479,-3.75302,0.68355,0.45409
732.088,78.92662,-3.76159,0.69065,0.45386
732.688,78.98865,-3.76301,0.69827,0.45363
733.288,79.05056,-3.76301,0.70244,0.4534
733.888,79.11225,-3.76333,0.70551,0.45318
734.488,79.174,-3.76334,0.70618,0.45295
735.088,79.23589,-3.76324,0.70979,0.45272
735.688,79.29771,-3.77293,0.71396,0.4525
736.288,79.35941,-3.75655,0.71995,0.45227
736.888,79.42126,-3.76062,0.7236,0.45205
737.488,79.4829,-3.76375,0.72277,0.45182
738.088,79.54494,-3.78114,0.72412,0.4516
738.688,79.60664,-3.75343,0.72816,0.45138
739.288,79.6684,-3.76467,0.72931,0.45115
739.888,79.73018,-3.76433,0.72584,0.45093
740.488,79.79182,-3.76564,0.7335,0.45071
741.088,79.85356,-3.76495,0.7302,0.45048
741.688,79.9153,-3.76461,0.72632,0.45026
742.288,79.97706,-3.76626,0.72558,0.45004
742.488,79.99732,-3.76885,0.72885,0.44997