File: 01_Data/Cotton_Felt/STA/N2/10K_min/Cotton_Felt_STA_N2_10KData_210719_R3.csv
##Temp./Â°C,Time/min,Mass loss(subtr.2)/mg,DSC(subtr.2)/(mW/mg),Sensit./(uV/mW)
49.313,10.00917,-0.02237,-0.02041273,0.61831
50.013,11.47096,-0.02729777,-0.007103746,0.61868
50.713,11.83194,-0.028185,0.00744211,0.61905
51.413,12.09323,-0.02841685,0.01846176,0.61942
52.113,12.30741,-0.03025364,0.0304797,0.61979
52.813,12.49527,-0.02917152,0.03894928,0.62015
53.513,12.6633,-0.03147918,0.04403311,0.62052
54.213,12.82267,-0.03083581,0.05153263,0.62088
54.913,12.97015,-0.03070575,0.06037509,0.62124
55.613,13.11178,-0.03069018,0.07032671,0.6216
56.313,13.2467,-0.02968107,0.07260916,0.62196
57.013,13.37625,-0.03248132,0.07758721,0.62231
57.713,13.50121,-0.0302372,0.08180962,0.62267
58.413,13.6223,-0.03261692,0.08878185,0.62302
59.113,13.741,-0.03301043,0.09503792,0.62337
59.813,13.85699,-0.03381733,0.10128,0.62372
60.513,13.97051,-0.0354297,0.10516,0.62406
61.213,14.0808,-0.03542767,0.10985,0.62441
61.913,14.1894,-0.0369601,0.11186,0.62475
62.613,14.29635,-0.03695997,0.11703,0.62509
63.313,14.4017,-0.03695998,0.12281,0.62543
64.013,14.50485,-0.03739489,0.12749,0.62577
64.713,14.6063,-0.03986898,0.1308,0.62611
65.413,14.7064,-0.03909823,0.13561,0.62644
66.113,14.80478,-0.03994321,0.13836,0.62678
66.813,14.90219,-0.04099533,0.14319,0.62711
67.513,14.99816,-0.03981668,0.14635,0.62744
68.213,15.0929,-0.04116692,0.15204,0.62777
68.913,15.18641,-0.0412332,0.15617,0.62809
69.613,15.27953,-0.04386473,0.16009,0.62842
70.313,15.3712,-0.04253066,0.16675,0.62874
71.013,15.462,-0.04381595,0.16666,0.62906
71.713,15.5519,-0.04520052,0.17283,0.62938
72.413,15.6413,-0.0451907,0.17572,0.6297
73.113,15.7297,-0.04651111,0.18185,0.63001
73.813,15.81732,-0.04650997,0.18307,0.63033
74.513,15.90434,-0.04705729,0.18922,0.63064
75.213,15.99,-0.04846603,0.19177,0.63095
75.913,16.07497,-0.04781305,0.193,0.63126
76.613,16.1593,-0.05067742,0.19776,0.63157
77.313,16.24307,-0.05058108,0.19941,0.63187
78.013,16.32629,-0.05066541,0.20439,0.63218
78.713,16.40897,-0.05330495,0.20967,0.63248
79.413,16.4914,-0.05198,0.21122,0.63278
80.113,16.57307,-0.0519431,0.21392,0.63308
80.813,16.65415,-0.05440899,0.22425,0.63337
81.513,16.7347,-0.0557201,0.22436,0.63367
82.213,16.81482,-0.05578613,0.22406,0.63396
82.913,16.89452,-0.0556692,0.23041,0.63426
83.613,16.97348,-0.05703999,0.22655,0.63455
84.313,17.05199,-0.0583988,0.23138,0.63483
85.013,17.1297,-0.05838439,0.23407,0.63512
85.713,17.2073,-0.05967,0.23285,0.63541
86.413,17.28439,-0.05967105,0.23551,0.63569
87.113,17.3613,-0.0623088,0.2373,0.63597
87.813,17.43778,-0.06231552,0.23719,0.63625
88.513,17.51385,-0.0637201,0.2432,0.63653
89.213,17.58941,-0.06371998,0.24282,0.6368
89.913,17.6643,-0.06504007,0.24369,0.63708
90.613,17.73894,-0.06635995,0.24416,0.63735
91.313,17.81361,-0.0676773,0.24464,0.63762
92.013,17.88815,-0.06636338,0.24327,0.63789
92.713,17.9622,-0.06780878,0.24655,0.63816
93.413,18.03577,-0.06898433,0.24521,0.63843
94.113,18.10935,-0.07010702,0.24512,0.63869
94.813,18.18226,-0.07051998,0.247,0.63895
95.513,18.2549,-0.07192009,0.2444,0.63921
96.213,18.32724,-0.07176502,0.24725,0.63947
96.913,18.39876,-0.07316,0.24473,0.63973
97.613,18.46971,-0.07316,0.24365,0.63999
98.313,18.5406,-0.07321428,0.24294,0.64024
99.013,18.6118,-0.07447994,0.24193,0.64049
99.713,18.68316,-0.07521898,0.24169,0.64074
100.413,18.75406,-0.07663188,0.242,0.64099
101.113,18.8249,-0.07710102,0.23851,0.64124
101.813,18.89573,-0.07841055,0.23872,0.64148
102.513,18.96681,-0.07785395,0.23807,0.64173
103.213,19.038,-0.07909005,0.235,0.64197
103.913,19.1085,-0.07908796,0.23615,0.64221
104.613,19.17853,-0.08040006,0.23347,0.64245
105.313,19.24819,-0.08165528,0.23312,0.64269
106.013,19.31785,-0.08228301,0.22782,0.64292
106.713,19.38741,-0.08270009,0.22705,0.64315
107.413,19.4569,-0.08399852,0.22655,0.64339
108.113,19.5263,-0.08401654,0.22405,0.64362
108.813,19.59552,-0.08269911,0.2213,0.64384
109.513,19.66457,-0.08402914,0.22036,0.64407
110.213,19.7336,-0.08543879,0.21806,0.64429
110.913,19.8024,-0.08544034,0.21488,0.64452
111.613,19.87119,-0.08413467,0.21419,0.64474
112.313,19.93982,-0.08544995,0.21212,0.64496
113.013,20.00822,-0.08545088,0.21047,0.64518
113.713,20.0765,-0.08675297,0.21021,0.64539
114.413,20.14472,-0.08823214,0.20732,0.64561
115.113,20.213,-0.08686974,0.20334,0.64582
115.813,20.28106,-0.08687005,0.20053,0.64603
116.513,20.34905,-0.08785025,0.19938,0.64624
117.213,20.41684,-0.08769149,0.19949,0.64645
117.913,20.48462,-0.0872133,0.19331,0.64665
118.613,20.55229,-0.08877433,0.19374,0.64686
119.313,20.6201,-0.08983,0.19383,0.64706
120.013,20.68757,-0.08983,0.19283,0.64726
120.713,20.7549,-0.08982964,0.18941,0.64746
121.413,20.82226,-0.09047138,0.18713,0.64766
122.113,20.88951,-0.09014544,0.18551,0.64785
122.813,20.95675,-0.08983002,0.18178,0.64805
123.513,21.0239,-0.08988954,0.1818,0.64824
124.213,21.09085,-0.09246969,0.1811,0.64843
124.913,21.15782,-0.09104404,0.18267,0.64862
125.613,21.2244,-0.09235655,0.17977,0.6488
126.313,21.2913,-0.09098618,0.17767,0.64899
127.013,21.35734,-0.09102999,0.17943,0.64917
127.713,21.4241,-0.09102997,0.1811,0.64936
128.413,21.49034,-0.09240409,0.17921,0.64954
129.113,21.55705,-0.09235001,0.17658,0.64971
129.813,21.623,-0.09235,0.1782,0.64989
130.513,21.68911,-0.09234999,0.17677,0.65007
131.213,21.75498,-0.09108629,0.17513,0.65024
131.913,21.82076,-0.09104,0.17714,0.65041
132.613,21.88608,-0.09106513,0.17671,0.65058
133.313,21.95146,-0.0923499,0.17825,0.65075
134.013,22.0168,-0.0923438,0.17607,0.65092
134.713,22.08219,-0.09367032,0.17629,0.65108
135.413,22.14726,-0.09491454,0.1769,0.65124
136.113,22.2127,-0.09469411,0.17656,0.65141
136.813,22.27773,-0.09367122,0.17594,0.65157
137.513,22.3428,-0.09500524,0.17818,0.65172
138.213,22.4076,-0.0949779,0.17628,0.65188
138.913,22.47227,-0.09504734,0.17548,0.65203
139.613,22.53695,-0.09544664,0.1779,0.65219
140.313,22.6017,-0.09842805,0.17556,0.65234
141.013,22.66629,-0.09981048,0.17636,0.65249
141.713,22.73075,-0.10123,0.1754,0.65264
142.413,22.79541,-0.09992687,0.17564,0.65278
143.113,22.85976,-0.09640779,0.17429,0.65293
143.813,22.92371,-0.09644048,0.17631,0.65307
144.513,22.9876,-0.09607192,0.1755,0.65321
145.213,23.0512,-0.09477011,0.17683,0.65335
145.913,23.11536,-0.09477,0.17631,0.65349
146.613,23.17983,-0.09477323,0.17649,0.65363
147.313,23.24435,-0.09565301,0.17729,0.65376
148.013,23.30891,-0.09213113,0.17892,0.65389
148.713,23.37319,-0.09214993,0.17707,0.65402
149.413,23.43704,-0.09353947,0.17669,0.65415
150.113,23.5007,-0.09225636,0.17946,0.65428
150.813,23.5644,-0.09453754,0.17882,0.65441
151.513,23.6283,-0.09545657,0.17928,0.65453
152.213,23.69218,-0.09619022,0.18105,0.65466
152.913,23.7559,-0.09490591,0.18303,0.65478
153.613,23.8195,-0.09619062,0.1824,0.6549
154.313,23.88273,-0.09619,0.18315,0.65501
155.013,23.94578,-0.09618996,0.18287,0.65513
155.713,24.00939,-0.09620357,0.1854,0.65524
156.413,24.07323,-0.09619187,0.1849,0.65536
157.113,24.1373,-0.09619,0.18449,0.65547
157.813,24.20091,-0.09618999,0.18546,0.65558
158.513,24.26435,-0.09614083,0.18456,0.65569
159.213,24.32769,-0.09750972,0.18445,0.65579
159.913,24.3912,-0.09751267,0.18463,0.6559
160.613,24.45436,-0.09614756,0.18524,0.656
161.313,24.51783,-0.09630315,0.18842,0.6561
162.013,24.58126,-0.0963,0.18933,0.6562
162.713,24.64479,-0.0962932,0.18992,0.6563
163.413,24.70835,-0.09760982,0.18832,0.6564
164.113,24.77188,-0.09625108,0.1898,0.65649
164.813,24.8353,-0.09629329,0.18528,0.65658
165.513,24.89837,-0.09760974,0.18943,0.65667
166.213,24.96164,-0.09761,0.18645,0.65676
166.913,25.02502,-0.09761592,0.1868,0.65685
167.613,25.08861,-0.09630429,0.19019,0.65694
168.313,25.15192,-0.09761908,0.19071,0.65702
169.013,25.21516,-0.09760622,0.1887,0.65711
169.713,25.2784,-0.09629911,0.19168,0.65719
170.413,25.34163,-0.09837623,0.18933,0.65727
171.113,25.4049,-0.0984978,0.18877,0.65735
171.813,25.46816,-0.09707556,0.18843,0.65742
172.513,25.53136,-0.09837664,0.19148,0.6575
173.213,25.5947,-0.09968801,0.19046,0.65757
173.913,25.65796,-0.09979597,0.19165,0.65764
174.613,25.72133,-0.09772005,0.19402,0.65771
175.313,25.78442,-0.09772012,0.19561,0.65778
176.013,25.8474,-0.09854017,0.19514,0.65785
176.713,25.9102,-0.09904,0.20057,0.65791
177.413,25.9731,-0.09903962,0.19695,0.65798
178.113,26.0363,-0.09837471,0.197,0.65804
178.813,26.09921,-0.09839,0.19894,0.6581
179.513,26.16229,-0.09839,0.19657,0.65816
180.213,26.2252,-0.0984057,0.19564,0.65822
180.913,26.28802,-0.10078,0.19797,0.65827
181.613,26.35073,-0.0997101,0.19802,0.65833
182.313,26.4131,-0.09897533,0.19925,0.65838
183.013,26.47587,-0.09839328,0.20253,0.65843
183.713,26.53871,-0.09838908,0.19997,0.65848
184.413,26.6016,-0.09838065,0.20236,0.65853
185.113,26.66416,-0.09773128,0.20042,0.65857
185.813,26.72666,-0.09773,0.20255,0.65862
186.513,26.78935,-0.09773078,0.20193,0.65866
187.213,26.85202,-0.09917671,0.20126,0.6587
187.913,26.9145,-0.0990339,0.20246,0.65874
188.613,26.9769,-0.09904,0.20325,0.65878
189.313,27.03947,-0.09904005,0.20667,0.65882
190.013,27.102,-0.10041,0.20494,0.65885
190.713,27.1646,-0.10132,0.2068,0.65888
191.413,27.22699,-0.10087,0.20643,0.65892
192.113,27.28895,-0.10003,0.20557,0.65895
192.813,27.35095,-0.10145,0.20953,0.65898
193.513,27.4128,-0.10146,0.20942,0.659
194.213,27.47516,-0.1009,0.20932,0.65903
194.913,27.53775,-0.1008,0.20924,0.65905
195.613,27.6003,-0.10175,0.20849,0.65907
196.313,27.6627,-0.10081,0.20514,0.6591
197.013,27.72493,-0.10044,0.20463,0.65911
197.713,27.78718,-0.10047,0.20695,0.65913
198.413,27.84945,-0.10178,0.20636,0.65915
199.113,27.91184,-0.10178,0.20693,0.65916
199.813,27.97421,-0.10178,0.21015,0.65918
200.513,28.037,-0.10178,0.20785,0.65919
201.213,28.09988,-0.10309,0.20654,0.6592
201.913,28.16285,-0.10441,0.20631,0.65921
202.613,28.22555,-0.1031,0.20381,0.65921
203.313,28.28787,-0.10442,0.20866,0.65922
204.013,28.3501,-0.10442,0.20925,0.65922
204.713,28.4124,-0.10442,0.20742,0.65922
205.413,28.4747,-0.10442,0.2084,0.65922
206.113,28.537,-0.1046,0.20645,0.65922
206.813,28.5993,-0.10574,0.20375,0.65922
207.513,28.6616,-0.10443,0.20504,0.65922
208.213,28.72382,-0.10567,0.20578,0.65921
208.913,28.78613,-0.10574,0.20551,0.6592
209.613,28.84859,-0.10602,0.20951,0.6592
210.313,28.91093,-0.10716,0.21042,0.65919
211.013,28.9732,-0.10716,0.21073,0.65917
211.713,29.0354,-0.10719,0.20762,0.65916
212.413,29.09773,-0.10979,0.20842,0.65915
213.113,29.1599,-0.10979,0.20715,0.65913
213.813,29.22233,-0.10983,0.20642,0.65911
214.513,29.2845,-0.10941,0.21036,0.65909
215.213,29.34678,-0.11045,0.21293,0.65907
215.913,29.4091,-0.11045,0.21096,0.65905
216.613,29.47135,-0.11109,0.21126,0.65903
217.313,29.53381,-0.11366,0.21024,0.659
218.013,29.596,-0.11374,0.21138,0.65898
218.713,29.65832,-0.11506,0.21266,0.65895
219.413,29.7206,-0.11506,0.21454,0.65892
220.113,29.78293,-0.11435,0.2137,0.65889
220.813,29.84528,-0.11507,0.21002,0.65886
221.513,29.90772,-0.11506,0.20882,0.65882
222.213,29.97012,-0.11743,0.21095,0.65879
222.913,30.03241,-0.11901,0.20972,0.65875
223.613,30.0942,-0.1185,0.21227,0.65871
224.313,30.156,-0.11928,0.21231,0.65867
225.013,30.2178,-0.12197,0.20948,0.65863
225.713,30.28,-0.12065,0.20878,0.65859
226.413,30.3422,-0.12193,0.20728,0.65854
227.113,30.40462,-0.12471,0.21074,0.6585
227.813,30.4671,-0.12467,0.21139,0.65845
228.513,30.52967,-0.12602,0.2083,0.6584
229.213,30.59215,-0.12735,0.20816,0.65835
229.913,30.6545,-0.1286,0.20707,0.6583
230.613,30.7169,-0.13007,0.20935,0.65825
231.313,30.7797,-0.13275,0.20784,0.65819
232.013,30.84245,-0.13367,0.21003,0.65814
232.713,30.9053,-0.13546,0.2102,0.65808
233.413,30.96777,-0.13546,0.21175,0.65802
234.113,31.03006,-0.13821,0.21095,0.65796
234.813,31.09236,-0.13944,0.20878,0.6579
235.513,31.1547,-0.14322,0.2088,0.65784
236.213,31.21718,-0.14358,0.2087,0.65777
236.913,31.2798,-0.14411,0.20539,0.6577
237.613,31.3425,-0.14674,0.207,0.65764
238.313,31.40496,-0.14939,0.20781,0.65757
239.013,31.4673,-0.14935,0.20658,0.6575
239.713,31.52975,-0.15216,0.20486,0.65743
240.413,31.5922,-0.15643,0.20707,0.65735
241.113,31.65503,-0.15859,0.20612,0.65728
241.813,31.7175,-0.16079,0.20477,0.6572
242.513,31.77985,-0.16387,0.20524,0.65713
243.213,31.8422,-0.16657,0.20468,0.65705
243.913,31.9046,-0.16804,0.20373,0.65697
244.613,31.96722,-0.17054,0.20117,0.65689
245.313,32.02985,-0.17192,0.19945,0.6568
246.013,32.09255,-0.17498,0.19644,0.65672
246.713,32.15517,-0.17902,0.1983,0.65663
247.413,32.2178,-0.18196,0.19858,0.65655
248.113,32.28042,-0.18495,0.19554,0.65646
248.813,32.34303,-0.188,0.19726,0.65637
249.513,32.40569,-0.18992,0.1967,0.65628
250.213,32.46825,-0.19351,0.19759,0.65619
250.913,32.53096,-0.19785,0.19742,0.65609
251.613,32.5937,-0.20163,0.19385,0.656
252.313,32.65636,-0.20498,0.19582,0.6559
253.013,32.71917,-0.20873,0.19504,0.6558
253.713,32.78155,-0.21176,0.19608,0.6557
254.413,32.84418,-0.21485,0.1957,0.6556
255.113,32.90671,-0.21861,0.19661,0.6555
255.813,32.96925,-0.22377,0.19661,0.6554
256.513,33.03172,-0.22818,0.19924,0.65529
257.213,33.09433,-0.23051,0.19923,0.65519
257.913,33.1571,-0.23355,0.19944,0.65508
258.613,33.21969,-0.23971,0.19706,0.65497
259.313,33.2821,-0.24367,0.19773,0.65486
260.013,33.3447,-0.24825,0.20003,0.65475
260.713,33.40723,-0.25331,0.2015,0.65464
261.413,33.46991,-0.25865,0.20031,0.65452
262.113,33.5326,-0.26043,0.19973,0.65441
262.813,33.59531,-0.26402,0.20203,0.65429
263.513,33.65808,-0.26885,0.20087,0.65417
264.213,33.7209,-0.27221,0.20204,0.65405
264.913,33.78353,-0.28361,0.20203,0.65393
265.613,33.84628,-0.28672,0.20286,0.65381
266.313,33.90892,-0.2913,0.19686,0.65369
267.013,33.97137,-0.29613,0.19505,0.65356
267.713,34.0338,-0.30076,0.1942,0.65344
268.413,34.09643,-0.30705,0.19521,0.65331
269.113,34.15939,-0.31318,0.19496,0.65318
269.813,34.22225,-0.31896,0.19472,0.65305
270.513,34.28542,-0.32482,0.19629,0.65292
271.213,34.3481,-0.33143,0.197,0.65279
271.913,34.4108,-0.33813,0.19938,0.65266
272.613,34.47341,-0.34513,0.20188,0.65252
273.313,34.53605,-0.35258,0.2024,0.65239
274.013,34.5988,-0.3595,0.20186,0.65225
274.713,34.66154,-0.36719,0.20205,0.65211
275.413,34.72418,-0.371,0.20525,0.65197
276.113,34.787,-0.37965,0.20847,0.65183
276.813,34.8499,-0.37633,0.20713,0.65169
277.513,34.91272,-0.40317,0.2096,0.65155
278.213,34.97551,-0.40618,0.21233,0.6514
278.913,35.03826,-0.41036,0.21198,0.65125
279.613,35.10105,-0.41924,0.21307,0.65111
280.313,35.16381,-0.42827,0.21285,0.65096
281.013,35.22654,-0.43613,0.21317,0.65081
281.713,35.2894,-0.44472,0.21485,0.65066
282.413,35.3523,-0.45548,0.21687,0.65051
283.113,35.41519,-0.46374,0.22046,0.65035
283.813,35.4781,-0.47331,0.21822,0.6502
284.513,35.54077,-0.48298,0.21862,0.65004
285.213,35.6037,-0.49464,0.21803,0.64989
285.913,35.66661,-0.50402,0.21775,0.64973
286.613,35.7296,-0.51297,0.22015,0.64957
287.313,35.79257,-0.52546,0.22224,0.64941
288.013,35.85541,-0.53771,0.2236,0.64925
288.713,35.91834,-0.54706,0.2266,0.64908
289.413,35.9813,-0.56036,0.22797,0.64892
290.113,36.04442,-0.57121,0.22786,0.64875
290.813,36.1072,-0.58343,0.22932,0.64859
291.513,36.17038,-0.5975,0.23126,0.64842
292.213,36.23341,-0.6104,0.23246,0.64825
292.913,36.2968,-0.61989,0.23625,0.64808
293.613,36.36,-0.63448,0.2364,0.64791
294.313,36.42326,-0.65001,0.23984,0.64774
295.013,36.48648,-0.66365,0.24005,0.64756
295.713,36.54976,-0.67811,0.24019,0.64739
296.413,36.61314,-0.69451,0.24301,0.64721
297.113,36.6763,-0.70767,0.24287,0.64703
297.813,36.73944,-0.72247,0.24558,0.64686
298.513,36.80276,-0.7373,0.24457,0.64668
299.213,36.86603,-0.7539,0.2468,0.6465
299.913,36.9294,-0.77192,0.2486,0.64631
300.613,36.9929,-0.78591,0.24859,0.64613
301.313,37.0563,-0.80307,0.24998,0.64595
302.013,37.11972,-0.81974,0.25211,0.64576
302.713,37.18292,-0.83516,0.25397,0.64558
303.413,37.24625,-0.85346,0.25585,0.64539
304.113,37.30977,-0.87088,0.25664,0.6452
304.813,37.37317,-0.88995,0.25649,0.64501
305.513,37.43659,-0.90588,0.26077,0.64482
306.213,37.49947,-0.92517,0.26126,0.64463
306.913,37.56224,-0.94562,0.26192,0.64444
307.613,37.62562,-0.96519,0.26276,0.64424
308.313,37.68911,-0.98452,0.26324,0.64405
309.013,37.75311,-1.00263,0.26693,0.64385
309.713,37.81678,-1.02353,0.27313,0.64365
310.413,37.88013,-1.04315,0.27433,0.64345
311.113,37.94355,-1.06443,0.2766,0.64325
311.813,38.00697,-1.08713,0.27587,0.64305
312.513,38.07043,-1.10794,0.27787,0.64285
313.213,38.13409,-1.13122,0.2808,0.64265
313.913,38.1976,-1.15237,0.28253,0.64245
314.613,38.26105,-1.1742,0.28313,0.64224
315.313,38.3243,-1.19654,0.28651,0.64203
316.013,38.38765,-1.22099,0.2912,0.64183
316.713,38.45098,-1.24568,0.29146,0.64162
317.413,38.51439,-1.26935,0.29255,0.64141
318.113,38.57803,-1.29417,0.29387,0.6412
318.813,38.64157,-1.31809,0.29847,0.64099
319.513,38.70519,-1.3429,0.29832,0.64078
320.213,38.7686,-1.36898,0.30264,0.64056
320.913,38.83198,-1.39528,0.30492,0.64035
321.613,38.89536,-1.42149,0.30635,0.64013
322.313,38.9589,-1.44882,0.30848,0.63992
323.013,39.02254,-1.47461,0.30882,0.6397
323.713,39.0862,-1.50358,0.31238,0.63948
324.413,39.1498,-1.53173,0.31765,0.63926
325.113,39.21328,-1.5603,0.3198,0.63904
325.813,39.2769,-1.58933,0.32034,0.63882
326.513,39.34053,-1.61833,0.32192,0.6386
327.213,39.40425,-1.64982,0.32576,0.63837
327.913,39.4681,-1.67986,0.32871,0.63815
328.613,39.53184,-1.70953,0.33027,0.63792
329.313,39.59559,-1.74197,0.3324,0.6377
330.013,39.65913,-1.77328,0.3357,0.63747
330.713,39.72293,-1.8057,0.33742,0.63724
331.413,39.7866,-1.83659,0.3395,0.63701
332.113,39.8505,-1.86934,0.34022,0.63678
332.813,39.91426,-1.90106,0.33866,0.63655
333.513,39.97817,-1.93428,0.34155,0.63632
334.213,40.04215,-1.96719,0.33971,0.63609
334.913,40.106,-2.00126,0.34183,0.63585
335.613,40.16948,-2.03616,0.33997,0.63562
336.313,40.23342,-2.0675,0.33935,0.63538
337.013,40.29748,-2.10138,0.33519,0.63514
337.713,40.3616,-2.13765,0.33292,0.6349
338.413,40.42552,-2.1712,0.33059,0.63467
339.113,40.48953,-2.2073,0.32667,0.63443
339.813,40.55361,-2.23938,0.32311,0.63418
340.513,40.61755,-2.27409,0.31972,0.63394
341.213,40.6815,-2.30825,0.31052,0.6337
341.913,40.7455,-2.33987,0.30319,0.63346
342.613,40.80973,-2.37467,0.29474,0.63321
343.313,40.8739,-2.40645,0.28366,0.63297
344.013,40.9379,-2.43926,0.27328,0.63272
344.713,41.00157,-2.46866,0.26044,0.63247
345.413,41.06497,-2.49902,0.24817,0.63222
346.113,41.12903,-2.52874,0.23404,0.63198
346.813,41.19342,-2.55644,0.2197,0.63173
347.513,41.2584,-2.58524,0.20403,0.63147
348.213,41.32271,-2.60979,0.18056,0.63122
348.913,41.38693,-2.63317,0.16942,0.63097
349.613,41.45111,-2.65741,0.1505,0.63072
350.313,41.51545,-2.67729,0.13076,0.63046
351.013,41.57959,-2.69639,0.11339,0.63021
351.713,41.6436,-2.71294,0.09843698,0.62995
352.413,41.70797,-2.72938,0.08589661,0.62969
353.113,41.77241,-2.7457,0.06924853,0.62943
353.813,41.8371,-2.7569,0.05801441,0.62918
354.513,41.90142,-2.77042,0.04793581,0.62892
355.213,41.9657,-2.78023,0.03721802,0.62866
355.913,42.03027,-2.79063,0.02942148,0.62839
356.613,42.09472,-2.79533,0.0254337,0.62813
357.313,42.15916,-2.80292,0.01830305,0.62787
358.013,42.22363,-2.81041,0.01632244,0.6276
358.713,42.2879,-2.81705,0.01141252,0.62734
359.413,42.3523,-2.8227,0.008516688,0.62707
360.113,42.41669,-2.82705,0.006945821,0.62681
360.813,42.48133,-2.83168,0.005577522,0.62654
361.513,42.54618,-2.83666,0.000974751,0.62627
362.213,42.6109,-2.84129,0.001302467,0.626
362.913,42.67557,-2.84396,-0.002563128,0.62573
363.613,42.74027,-2.84898,-0.003949549,0.62546
364.313,42.80487,-2.85112,-0.004130213,0.62519
365.013,42.86955,-2.85647,-0.005151109,0.62492
365.713,42.93427,-2.85975,-0.006630431,0.62465
366.413,42.9989,-2.86269,-0.00479138,0.62437
367.113,43.06366,-2.86518,-0.008297459,0.6241
367.813,43.12838,-2.86874,-0.00934331,0.62382
368.513,43.19313,-2.87161,-0.009277323,0.62355
369.213,43.2579,-2.87588,-0.01070548,0.62327
369.913,43.32278,-2.87898,-0.01066935,0.62299
370.613,43.38743,-2.88014,-0.01163656,0.62272
371.313,43.45227,-2.88083,-0.009158544,0.62244
372.013,43.517,-2.8838,-0.01161136,0.62216
372.713,43.58204,-2.88739,-0.01068699,0.62188
373.413,43.64713,-2.88956,-0.01080744,0.62159
374.113,43.7121,-2.89281,-0.01048402,0.62131
374.813,43.77691,-2.89705,-0.01404479,0.62103
375.513,43.84171,-2.89692,-0.01328954,0.62075
376.213,43.9067,-2.89854,-0.01374285,0.62046
376.913,43.9717,-2.90092,-0.01542201,0.62018
377.613,44.03672,-2.90597,-0.01448129,0.61989
378.313,44.1017,-2.90603,-0.01600022,0.6196
379.013,44.16677,-2.909,-0.01399864,0.61932
379.713,44.23191,-2.91041,-0.01490005,0.61903
380.413,44.2971,-2.91319,-0.01720119,0.61874
381.113,44.3621,-2.91617,-0.01257409,0.61845
381.813,44.4272,-2.91747,-0.01462907,0.61816
382.513,44.4924,-2.91988,-0.01775261,0.61787
383.213,44.55769,-2.92025,-0.0161303,0.61758
383.913,44.62294,-2.92314,-0.01742306,0.61728
384.613,44.688,-2.92469,-0.01946537,0.61699
385.313,44.753,-2.9272,-0.01829063,0.6167
386.013,44.81807,-2.92851,-0.01821129,0.6164
386.713,44.88332,-2.92875,-0.01973173,0.61611
387.413,44.9487,-2.93311,-0.01800909,0.61581
388.113,45.01404,-2.93558,-0.01738345,0.61552
388.813,45.07926,-2.93597,-0.01622785,0.61522
389.513,45.14451,-2.938,-0.01718804,0.61492
390.213,45.2094,-2.93882,-0.01623154,0.61462
390.913,45.27479,-2.94041,-0.01566449,0.61432
391.613,45.34025,-2.94325,-0.01433089,0.61402
392.313,45.40599,-2.94349,-0.01228474,0.61372
393.013,45.47143,-2.94725,-0.0110872,0.61342
393.713,45.53694,-2.94859,-0.01648534,0.61312
394.413,45.60235,-2.95141,-0.01859408,0.61282
395.113,45.66788,-2.95265,-0.01250377,0.61252
395.813,45.7333,-2.95398,-0.01550623,0.61221
396.513,45.799,-2.9567,-0.01632605,0.61191
397.213,45.8643,-2.95849,-0.01395792,0.6116
397.913,45.92993,-2.95933,-0.01420193,0.6113
398.613,45.99553,-2.96126,-0.01542046,0.61099
399.313,46.06107,-2.96196,-0.01513845,0.61069
400.013,46.12661,-2.96329,-0.01358221,0.61038
400.713,46.19223,-2.96481,-0.01561053,0.61007
401.413,46.2579,-2.96788,-0.01642731,0.60976
402.113,46.3234,-2.9692,-0.01752947,0.60945
402.813,46.3891,-2.97028,-0.01886305,0.60914
403.513,46.45471,-2.97062,-0.0171795,0.60883
404.213,46.52039,-2.97326,-0.01666565,0.60852
404.913,46.58603,-2.97572,-0.01436144,0.60821
405.613,46.65183,-2.97598,-0.01876579,0.6079
406.313,46.71751,-2.97731,-0.01871243,0.60759
407.013,46.78322,-2.98029,-0.0185336,0.60727
407.713,46.84885,-2.98313,-0.0229455,0.60696
408.413,46.91471,-2.98313,-0.02586727,0.60664
409.113,46.98065,-2.98411,-0.02158309,0.60633
409.813,47.04653,-2.98588,-0.02270047,0.60601
410.513,47.11248,-2.98811,-0.02327126,0.6057
411.213,47.17846,-2.98982,-0.02257761,0.60538
411.913,47.24434,-2.99201,-0.02404545,0.60507
412.613,47.31013,-2.99287,-0.02627214,0.60475
413.313,47.3759,-2.99482,-0.02440454,0.60443
414.013,47.4416,-2.99639,-0.02598132,0.60411
414.713,47.5077,-2.99996,-0.02847125,0.60379
415.413,47.5738,-3.00057,-0.02445744,0.60347
416.113,47.64015,-3.00189,-0.02601452,0.60315
416.813,47.7061,-3.00323,-0.02949157,0.60283
417.513,47.77212,-3.00443,-0.02318277,0.60251
418.213,47.83826,-3.00568,-0.02780906,0.60219
418.913,47.90452,-3.008,-0.02638891,0.60187
419.613,47.97068,-3.00977,-0.02353717,0.60154
420.313,48.03676,-3.0111,-0.02368013,0.60122
421.013,48.10277,-3.01272,-0.02316439,0.6009
421.713,48.16903,-3.01372,-0.02223995,0.60057
422.413,48.23533,-3.01645,-0.02029579,0.60025
423.113,48.30185,-3.01835,-0.02170613,0.59992
423.813,48.36841,-3.01966,-0.0203236,0.5996
424.513,48.43479,-3.02105,-0.02292793,0.59927
425.213,48.50096,-3.02241,-0.02170324,0.59894
425.913,48.5672,-3.02371,-0.02809521,0.59862
426.613,48.63346,-3.02626,-0.02776748,0.59829
427.313,48.69981,-3.02674,-0.030041,0.59796
428.013,48.76613,-3.02898,-0.0282848,0.59763
428.713,48.8324,-3.0303,-0.03146308,0.5973
429.413,48.89867,-3.0316,-0.03029133,0.59697
430.113,48.96504,-3.03304,-0.03322957,0.59664
430.813,49.0312,-3.03436,-0.03136455,0.59631
431.513,49.09773,-3.03621,-0.03178214,0.59598
432.213,49.16408,-3.03828,-0.0311136,0.59565
432.913,49.23076,-3.03909,-0.0320598,0.59532
433.613,49.29721,-3.04098,-0.03606026,0.59499
434.313,49.36392,-3.04225,-0.03407216,0.59465
435.013,49.4303,-3.04364,-0.03297136,0.59432
435.713,49.49675,-3.04629,-0.03146066,0.59399
436.413,49.56337,-3.04735,-0.03199207,0.59365
437.113,49.63013,-3.04859,-0.03013877,0.59332
437.813,49.69703,-3.05141,-0.02837886,0.59299
438.513,49.76377,-3.05039,-0.02707341,0.59265
439.213,49.8305,-3.05177,-0.02907101,0.59232
439.913,49.89731,-3.05311,-0.02814695,0.59198
440.613,49.9643,-3.05441,-0.0246589,0.59164
441.313,50.0312,-3.05757,-0.02293286,0.59131
442.013,50.09799,-3.05791,-0.02472218,0.59097
442.713,50.16467,-3.05928,-0.02443583,0.59063
443.413,50.23131,-3.06019,-0.02427215,0.59029
444.113,50.2982,-3.06234,-0.0224326,0.58996
444.813,50.3652,-3.06339,-0.02190487,0.58962
445.513,50.4321,-3.06507,-0.01584352,0.58928
446.213,50.4987,-3.06638,-0.01630909,0.58894
446.913,50.56535,-3.0677,-0.01735944,0.5886
447.613,50.63193,-3.06902,-0.01663593,0.58826
448.313,50.69882,-3.07033,-0.01699343,0.58792
449.013,50.76571,-3.07165,-0.02077209,0.58758
449.713,50.8326,-3.07299,-0.01928833,0.58724
450.413,50.8994,-3.07463,-0.01570531,0.5869
451.113,50.96613,-3.07573,-0.01719815,0.58656
451.813,51.03285,-3.0769,-0.01853311,0.58621
452.513,51.0998,-3.07823,-0.01737561,0.58587
453.213,51.16679,-3.07898,-0.01820012,0.58553
453.913,51.2337,-3.08085,-0.01540256,0.58519
454.613,51.3007,-3.08218,-0.01515061,0.58484
455.313,51.3677,-3.08349,-0.0184894,0.5845
456.013,51.43473,-3.08491,-0.01859418,0.58416
456.713,51.50168,-3.08712,-0.01817524,0.58381
457.413,51.5685,-3.08766,-0.0142214,0.58347
458.113,51.63544,-3.08892,-0.01371521,0.58312
458.813,51.70236,-3.089,-0.01410234,0.58278
459.513,51.76952,-3.09032,-0.01815417,0.58243
460.213,51.83638,-3.09291,-0.01580872,0.58209
460.913,51.90354,-3.09424,-0.01587644,0.58174
461.613,51.9705,-3.09425,-0.01538019,0.58139
462.313,52.03757,-3.09676,-0.0169855,0.58105
463.013,52.10455,-3.09705,-0.01471236,0.5807
463.713,52.17165,-3.09831,-0.01580586,0.58035
464.413,52.239,-3.09961,-0.01426411,0.58001
465.113,52.3064,-3.10243,-0.01763464,0.57966
465.813,52.37362,-3.10242,-0.01739705,0.57931
466.513,52.4409,-3.10247,-0.01787359,0.57896
467.213,52.50818,-3.1038,-0.01589716,0.57862
467.913,52.57574,-3.1051,-0.01735246,0.57827
468.613,52.6431,-3.10707,-0.0178718,0.57792
469.313,52.71046,-3.10905,-0.01623994,0.57757
470.013,52.7778,-3.11036,-0.01857739,0.57722
470.713,52.8453,-3.11113,-0.01405573,0.57687
471.413,52.91262,-3.11234,-0.01390522,0.57652
472.113,52.97993,-3.11234,-0.01612717,0.57617
472.813,53.04715,-3.11366,-0.0153767,0.57582
473.513,53.1146,-3.11504,-0.01454924,0.57547
474.213,53.182,-3.11641,-0.01285166,0.57512
474.913,53.2497,-3.11771,-0.00989651,0.57477
475.613,53.3172,-3.11902,-0.016582,0.57442
476.313,53.3848,-3.11903,-0.01669522,0.57406
477.013,53.4522,-3.11965,-0.0154443,0.57371
477.713,53.5196,-3.12101,-0.01540536,0.57336
478.413,53.58724,-3.12237,-0.01522872,0.57301
479.113,53.6547,-3.12393,-0.01569641,0.57266
479.813,53.72229,-3.12478,-0.01472209,0.57231
480.513,53.79002,-3.12518,-0.01456274,0.57195
481.213,53.8578,-3.1265,-0.01262148,0.5716
481.913,53.9257,-3.12781,-0.01298564,0.57125
482.613,53.99349,-3.12777,-0.01303795,0.57089
483.313,54.0614,-3.12913,-0.01460981,0.57054
484.013,54.12914,-3.13044,-0.01321562,0.57019
484.713,54.19698,-3.13128,-0.01340974,0.56983
485.413,54.26472,-3.13176,-0.01509098,0.56948
486.113,54.33254,-3.13176,-0.01438563,0.56913
486.813,54.4002,-3.13306,-0.01509907,0.56877
487.513,54.46768,-3.13537,-0.01782068,0.56842
488.213,54.535,-3.13571,-0.01797841,0.56806
488.913,54.6028,-3.13669,-0.01627256,0.56771
489.613,54.67085,-3.13667,-0.01533403,0.56735
490.313,54.73884,-3.13831,-0.01322102,0.567
491.013,54.8068,-3.13887,-0.01654226,0.56664
491.713,54.875,-3.13942,-0.01717501,0.56629
492.413,54.94328,-3.14055,-0.01648928,0.56593
493.113,55.01132,-3.14208,-0.01633292,0.56558
493.813,55.0791,-3.14207,-0.01399294,0.56522
494.513,55.14702,-3.14207,-0.01688394,0.56487
495.213,55.2152,-3.14341,-0.01659836,0.56451
495.913,55.28345,-3.1435,-0.01855564,0.56416
496.613,55.3517,-3.14492,-0.01978068,0.5638
497.313,55.4198,-3.14612,-0.01640349,0.56344
498.013,55.4878,-3.14746,-0.01426453,0.56309
498.713,55.5559,-3.14744,-0.01680577,0.56273
499.413,55.6239,-3.1474,-0.01703883,0.56238
500.113,55.69214,-3.14898,-0.02055754,0.56202
500.813,55.75976,-3.15029,-0.01767038,0.56166
501.513,55.82799,-3.15174,-0.02095539,0.56131
502.213,55.89598,-3.15301,-0.01613124,0.56095
502.913,55.96464,-3.15292,-0.01942092,0.56059
503.613,56.0327,-3.15204,-0.01764493,0.56023
504.313,56.10096,-3.15334,-0.01444436,0.55988
505.013,56.16887,-3.15336,-0.01676638,0.55952
505.713,56.2371,-3.1549,-0.01206702,0.55916
506.413,56.3051,-3.15493,-0.01367753,0.55881
507.113,56.37345,-3.1562,-0.01542404,0.55845
507.813,56.44152,-3.15588,-0.01612336,0.55809
508.513,56.5098,-3.1572,-0.01519759,0.55773
509.213,56.578,-3.15721,-0.01375355,0.55738
509.913,56.6464,-3.15894,-0.01520074,0.55702
510.613,56.7142,-3.16124,-0.01389887,0.55666
511.313,56.7819,-3.16115,-0.01581613,0.5563
512.013,56.85031,-3.16115,-0.01241058,0.55595
512.713,56.91915,-3.16115,-0.01186457,0.55559
513.413,56.9882,-3.16248,-0.01014843,0.55523
514.113,57.05645,-3.1611,-0.01325175,0.55487
514.813,57.12478,-3.16247,-0.01461289,0.55452
515.513,57.1932,-3.16247,-0.01239912,0.55416
516.213,57.26146,-3.16309,-0.01408812,0.5538
516.913,57.32976,-3.16456,-0.01393811,0.55344
517.613,57.39804,-3.16602,-0.01132586,0.55308
518.313,57.46649,-3.16565,-0.01011655,0.55273
519.013,57.5349,-3.16705,-0.008129464,0.55237
519.713,57.60329,-3.16697,-0.00613092,0.55201
520.413,57.6716,-3.16732,-0.005177742,0.55165
521.113,57.74,-3.16876,-0.003441654,0.5513
521.813,57.80839,-3.16872,-0.003179337,0.55094
522.513,57.8767,-3.17004,-0.006689861,0.55058
523.213,57.9452,-3.16998,-0.005935086,0.55022
523.913,58.0136,-3.17102,-0.006968071,0.54986
524.613,58.08226,-3.17102,-0.004975269,0.54951
525.313,58.15071,-3.17135,-0.00454946,0.54915
526.013,58.21923,-3.17135,-0.004810372,0.54879
526.713,58.28774,-3.17234,-0.01035248,0.54843
527.413,58.35646,-3.17332,-0.01004848,0.54807
528.113,58.4251,-3.17332,-0.00649687,0.54772
528.813,58.49369,-3.17456,-0.00713494,0.54736
529.513,58.56215,-3.17464,-0.01081679,0.547
530.213,58.63074,-3.17596,-0.01361706,0.54664
530.913,58.69936,-3.17596,-0.0168866,0.54629
531.613,58.7679,-3.17727,-0.01603708,0.54593
532.313,58.8367,-3.17727,-0.02086424,0.54557
533.013,58.90545,-3.17727,-0.02008284,0.54521
533.713,58.97432,-3.17868,-0.02146942,0.54486
534.413,59.04286,-3.17859,-0.01929283,0.5445
535.113,59.1116,-3.17869,-0.02091007,0.54414
535.813,59.18039,-3.17991,-0.02188724,0.54378
536.513,59.24926,-3.17991,-0.01941017,0.54343
537.213,59.3181,-3.18052,-0.0200076,0.54307
537.913,59.387,-3.18056,-0.02151847,0.54271
538.613,59.456,-3.18194,-0.02384079,0.54235
539.313,59.52499,-3.18188,-0.02411628,0.542
540.013,59.594,-3.18319,-0.02117731,0.54164
540.713,59.66316,-3.18319,-0.02486256,0.54128
541.413,59.7322,-3.18319,-0.02125617,0.54093
542.113,59.8012,-3.18432,-0.02153907,0.54057
542.813,59.8702,-3.18451,-0.01779448,0.54021
543.513,59.9392,-3.18385,-0.01814475,0.53986
544.213,60.0084,-3.18452,-0.02125902,0.5395
544.913,60.0775,-3.18452,-0.02186428,0.53914
545.613,60.1467,-3.18583,-0.02318291,0.53879
546.313,60.2157,-3.18702,-0.02460021,0.53843
547.013,60.28403,-3.18851,-0.02795233,0.53808
547.713,60.35301,-3.18812,-0.02576083,0.53772
548.413,60.4221,-3.18847,-0.02532472,0.53737
549.113,60.4917,-3.18847,-0.02722679,0.53701
549.813,60.56071,-3.1885,-0.03059531,0.53665
550.513,60.62976,-3.18911,-0.02813208,0.5363
551.213,60.69896,-3.19043,-0.03016246,0.53594
551.913,60.7683,-3.18911,-0.0327621,0.53559
552.613,60.83749,-3.18912,-0.03191789,0.53523
553.313,60.9067,-3.18913,-0.03341142,0.53488
554.013,60.9756,-3.18958,-0.03140991,0.53452
554.713,61.04472,-3.19143,-0.02733003,0.53417
555.413,61.1136,-3.19143,-0.02004976,0.53381
556.113,61.1829,-3.19244,-0.01937838,0.53346
556.813,61.2521,-3.19276,-0.02110475,0.5331
557.513,61.3215,-3.19274,-0.01909472,0.53275
558.213,61.3906,-3.19275,-0.02030346,0.5324
558.913,61.4599,-3.19406,-0.02134439,0.53204
559.613,61.52919,-3.19406,-0.02302802,0.53169
560.313,61.5985,-3.19532,-0.01886093,0.53134
561.013,61.66783,-3.19603,-0.01979052,0.53098
561.713,61.737,-3.19657,-0.02432423,0.53063
562.413,61.8062,-3.19799,-0.02247373,0.53028
563.113,61.87516,-3.19671,-0.02040392,0.52992
563.813,61.94454,-3.19801,-0.01465333,0.52957
564.513,62.0139,-3.19801,-0.01854429,0.52922
565.213,62.0838,-3.19672,-0.01894512,0.52886
565.913,62.1532,-3.199,-0.0169438,0.52851
566.613,62.2226,-3.199,-0.01966994,0.52816
567.313,62.2918,-3.20032,-0.02345616,0.52781
568.013,62.36124,-3.20031,-0.01946957,0.52746
568.713,62.43082,-3.20043,-0.02012044,0.52711
569.413,62.5004,-3.20031,-0.01887113,0.52675
570.113,62.5699,-3.20101,-0.01917326,0.5264
570.813,62.6395,-3.2013,-0.01896778,0.52605
571.513,62.70907,-3.20129,-0.02042163,0.5257
572.213,62.77896,-3.20261,-0.02363981,0.52535
572.913,62.84871,-3.20193,-0.02475585,0.525
573.613,62.91834,-3.20327,-0.02502442,0.52465
574.313,62.98796,-3.20136,-0.02585146,0.5243
575.013,63.05726,-3.20294,-0.02481361,0.52395
575.713,63.12692,-3.20293,-0.02600624,0.5236
576.413,63.19654,-3.20393,-0.02399906,0.52325
577.113,63.2667,-3.20388,-0.02385518,0.5229
577.813,63.33668,-3.20523,-0.02392404,0.52255
578.513,63.4066,-3.19696,-0.02344971,0.5222
579.213,63.4763,-3.21275,-0.03008613,0.52186
579.913,63.54596,-3.2084,-0.02487338,0.52151
580.613,63.6157,-3.18798,-0.0235701,0.52116
581.313,63.6853,-3.22252,-0.0229839,0.52081
582.013,63.75466,-3.20848,-0.02243833,0.52046
582.713,63.824,-3.20749,-0.02104066,0.52012
583.413,63.89389,-3.20787,-0.02324968,0.51977
584.113,63.96386,-3.20787,-0.01963676,0.51942
584.813,64.03409,-3.20782,-0.01934945,0.51907
585.513,64.10374,-3.20919,-0.01742558,0.51873
586.213,64.17339,-3.20924,-0.01761134,0.51838
586.913,64.24315,-3.2082,-0.0146976,0.51804
587.613,64.31309,-3.2082,-0.01246311,0.51769
588.313,64.38325,-3.20957,-0.01173011,0.51734
589.013,64.45312,-3.20856,-0.0116195,0.517
589.713,64.52322,-3.20919,-0.01112805,0.51665
590.413,64.59322,-3.20919,-0.01081804,0.51631
591.113,64.66337,-3.20885,-0.01056556,0.51596
591.813,64.73335,-3.2007,-0.01119251,0.51562
592.513,64.8034,-3.22811,-0.01165077,0.51528
593.213,64.87358,-3.21417,-0.01387454,0.51493
593.913,64.9435,-3.21128,-0.01339252,0.51459
594.613,65.01356,-3.2126,-0.01406349,0.51425
595.313,65.0835,-3.21119,-0.00907789,0.5139
596.013,65.15361,-3.21227,-0.01029096,0.51356
596.713,65.2235,-3.21227,-0.01396293,0.51322
597.413,65.29344,-3.21227,-0.01394123,0.51287
598.113,65.36341,-3.21259,-0.01274135,0.51253
598.813,65.43345,-3.21391,-0.01187336,0.51219
599.513,65.50352,-3.21383,-0.01192137,0.51185
600.213,65.5736,-3.21521,-0.007913203,0.51151
600.913,65.64364,-3.21391,-0.01367077,0.51117
601.613,65.71361,-3.21523,-0.009280788,0.51083
602.313,65.78355,-3.21522,-0.01120009,0.51049
603.013,65.8536,-3.21421,-0.009961622,0.51015
603.713,65.92396,-3.21391,-0.009140768,0.50981
604.413,65.99422,-3.21534,-0.01060362,0.50947
605.113,66.06451,-3.21664,-0.01049811,0.50913
605.813,66.13465,-3.21665,-0.01031606,0.50879
606.513,66.2049,-3.21663,-0.009547305,0.50845
607.213,66.27498,-3.21663,-0.004284416,0.50811
607.913,66.34532,-3.21666,-0.00377194,0.50778
608.613,66.41561,-3.21666,7.129561e-05,0.50744
609.313,66.48599,-3.21797,0.004753271,0.5071
610.013,66.55627,-3.21782,0.001953939,0.50676
610.713,66.62651,-3.21797,0.002366336,0.50643
611.413,66.69674,-3.21797,0.003236444,0.50609
612.113,66.7668,-3.21797,0.005751872,0.50575
612.813,66.83691,-3.21797,0.004959234,0.50542
613.513,66.90727,-3.21788,0.005607959,0.50508
614.213,66.9778,-3.22038,0.006220002,0.50475
614.913,67.04816,-3.22003,0.01213065,0.50441
615.613,67.1186,-3.21939,0.01130423,0.50408
616.313,67.18897,-3.21973,0.01158329,0.50374
617.013,67.25952,-3.22037,0.01423613,0.50341
617.713,67.32977,-3.21944,0.008095701,0.50308
618.413,67.40006,-3.22038,0.009460256,0.50274
619.113,67.47059,-3.22038,0.01089235,0.50241
619.813,67.54119,-3.2204,0.008418528,0.50208
620.513,67.61168,-3.21973,0.00850885,0.50175
621.213,67.68195,-3.22039,0.01348621,0.50141
621.913,67.75224,-3.22302,0.007645081,0.50108
622.613,67.82274,-3.22302,0.01077002,0.50075
623.313,67.8933,-3.22302,0.00798454,0.50042
624.013,67.96379,-3.22257,0.006292169,0.50009
624.713,68.03413,-3.22203,0.00546251,0.49976
625.413,68.10467,-3.22268,0.003086251,0.49943
626.113,68.17528,-3.22334,0.004593767,0.4991
626.813,68.24591,-3.22334,0.002253354,0.49877
627.513,68.3162,-3.22337,-0.00330298,0.49844
628.213,68.3865,-3.22301,-0.004574857,0.49811
628.913,68.45688,-3.22433,-0.00552294,0.49778
629.613,68.52761,-3.22434,-0.01207572,0.49746
630.313,68.59852,-3.22302,-0.01587825,0.49713
631.013,68.66919,-3.22433,-0.01668387,0.4968
631.713,68.73982,-3.22334,-0.02669068,0.49648
632.413,68.81039,-3.22333,-0.02815658,0.49615
633.113,68.88105,-3.22367,-0.02506069,0.49582
633.813,68.95167,-3.225,-0.0206753,0.4955
634.513,69.02253,-3.225,-0.02574718,0.49517
635.213,69.09349,-3.22631,-0.02515659,0.49485
635.913,69.1643,-3.22631,-0.02584283,0.49452
636.613,69.23526,-3.225,-0.02083683,0.4942
637.313,69.3061,-3.22499,-0.02291469,0.49387
638.013,69.37702,-3.2263,-0.02502555,0.49355
638.713,69.44773,-3.22608,-0.02735022,0.49323
639.413,69.51844,-3.22499,-0.02816487,0.49291
640.113,69.5891,-3.22531,-0.03209375,0.49258
640.813,69.6597,-3.22627,-0.03523369,0.49226
641.513,69.73039,-3.22498,-0.03491465,0.49194
642.213,69.80111,-3.22498,-0.03649384,0.49162
642.913,69.87175,-3.22551,-0.03841914,0.4913
643.613,69.94236,-3.22663,-0.04269057,0.49098
644.313,70.01308,-3.22531,-0.04957113,0.49066
645.013,70.08381,-3.22574,-0.04929334,0.49034
645.713,70.15469,-3.22663,-0.04934864,0.49002
646.413,70.2255,-3.22534,-0.04505982,0.4897
647.113,70.29639,-3.22532,-0.04179952,0.48938
647.813,70.3673,-3.22666,-0.03897025,0.48906
648.513,70.43822,-3.22664,-0.03159641,0.48874
649.213,70.50932,-3.22664,-0.03740511,0.48843
649.913,70.58,-3.22664,-0.03548934,0.48811
650.613,70.65092,-3.22795,-0.03065545,0.48779
651.313,70.722,-3.22762,-0.03248327,0.48748
652.013,70.79303,-3.22796,-0.03162391,0.48716
652.713,70.8641,-3.22795,-0.03188539,0.48685
653.413,70.93509,-3.22861,-0.0294505,0.48653
654.113,71.00624,-3.22861,-0.03212866,0.48622
654.813,71.07729,-3.22866,-0.03304784,0.4859
655.513,71.14833,-3.22762,-0.02727773,0.48559
656.213,71.21935,-3.22904,-0.03178548,0.48527
656.913,71.2903,-3.22905,-0.03151985,0.48496
657.613,71.36125,-3.22871,-0.02937922,0.48465
658.313,71.43236,-3.22873,-0.02934444,0.48434
659.013,71.50322,-3.22968,-0.030645,0.48402
659.713,71.57425,-3.22872,-0.02888822,0.48371
660.413,71.6451,-3.22872,-0.03152696,0.4834
661.113,71.71621,-3.22872,-0.02877006,0.48309
661.813,71.7873,-3.23003,-0.02669657,0.48278
662.513,71.85848,-3.23762,-0.02711356,0.48247
663.213,71.92967,-3.22394,-0.02928313,0.48216
663.913,72.0008,-3.22576,-0.02900683,0.48185
664.613,72.07219,-3.22946,-0.02923008,0.48154
665.313,72.1434,-3.22937,-0.0321531,0.48124
666.013,72.2145,-3.22937,-0.03242767,0.48093
666.713,72.28545,-3.22937,-0.03001108,0.48062
667.413,72.35645,-3.22937,-0.03036659,0.48031
668.113,72.4275,-3.23005,-0.0345452,0.48001
668.813,72.49853,-3.23756,-0.04488501,0.4797
669.513,72.56955,-3.22306,-0.03766379,0.4794
670.213,72.64054,-3.22924,-0.03331988,0.47909
670.913,72.7115,-3.23037,-0.03528558,0.47879
671.613,72.7824,-3.2304,-0.03343835,0.47848
672.313,72.85336,-3.23168,-0.03417488,0.47818
673.013,72.92425,-3.23168,-0.03575293,0.47787
673.713,72.9954,-3.23187,-0.03161654,0.47757
674.413,73.06645,-3.23168,-0.03096402,0.47727
675.113,73.13753,-3.23168,-0.03958329,0.47697
675.813,73.20844,-3.23168,-0.04242565,0.47666
676.513,73.27959,-3.233,-0.04112839,0.47636
677.213,73.351,-3.233,-0.03406025,0.47606
677.913,73.4224,-3.23434,-0.03513767,0.47576
678.613,73.49376,-3.23219,-0.03141382,0.47546
679.313,73.5645,-3.23158,-0.02599985,0.47516
680.013,73.63524,-3.23383,-0.02530634,0.47486
680.713,73.70603,-3.23387,-0.02230245,0.47456
681.413,73.77735,-3.23323,-0.02461437,0.47427
682.113,73.8488,-3.23322,-0.02293232,0.47397
682.813,73.9203,-3.23322,-0.02443872,0.47367
683.513,73.99184,-3.23453,-0.02186638,0.47337
684.213,74.0634,-3.23389,-0.0198234,0.47308
684.913,74.13469,-3.2339,-0.02598808,0.47278
685.613,74.20618,-3.23519,-0.02010585,0.47248
686.313,74.27793,-3.23387,-0.01953548,0.47219
687.013,74.35025,-3.23387,-0.02463126,0.47189
687.713,74.42235,-3.23387,-0.02643106,0.4716
688.413,74.49438,-3.23475,-0.02671068,0.47131
689.113,74.56607,-3.23518,-0.02510101,0.47101
689.813,74.6376,-3.23639,-0.02697372,0.47072
690.513,74.70916,-3.2365,-0.02242363,0.47043
691.213,74.78094,-3.23517,-0.0162462,0.47013
691.913,74.85245,-3.2353,-0.01524976,0.46984
692.613,74.9239,-3.2353,-0.00606622,0.46955
693.313,74.9951,-3.2353,-0.00995286,0.46926
694.013,75.06668,-3.23662,-0.003268665,0.46897
694.713,75.1383,-3.23662,-0.0008257955,0.46868
695.413,75.20987,-3.23662,0.006061471,0.46839
696.113,75.2814,-3.23526,0.004412534,0.4681
696.813,75.3527,-3.23537,0.00761448,0.46781
697.513,75.42419,-3.23444,0.009905363,0.46752
698.213,75.49559,-3.23606,0.01114957,0.46724
698.913,75.56695,-3.23541,0.01189325,0.46695
699.613,75.63842,-3.2354,0.01778385,0.46666
700.313,75.70979,-3.2371,0.01850159,0.46638
701.013,75.7814,-3.23712,0.02535677,0.46609
701.713,75.8532,-3.23706,0.02938657,0.46581
702.413,75.9252,-3.23802,0.03439558,0.46552
703.113,75.99706,-3.23837,0.038225,0.46524
703.813,76.06882,-3.23705,0.03815373,0.46495
704.513,76.1404,-3.23635,0.04593318,0.46467
705.213,76.212,-3.22958,0.04882166,0.46438
705.913,76.28353,-3.24498,0.05091932,0.4641
706.613,76.35537,-3.23915,0.05745439,0.46382
707.313,76.4273,-3.23782,0.06102002,0.46354
708.013,76.49914,-3.23914,0.0593673,0.46326
708.713,76.57104,-3.23782,0.05060132,0.46298
709.413,76.64281,-3.23782,0.05031184,0.46269
710.113,76.7146,-3.23815,0.05346929,0.46241
710.813,76.78644,-3.23815,0.05892732,0.46214
711.513,76.85836,-3.23736,0.06196724,0.46186
712.213,76.93026,-3.23891,0.06183492,0.46158
712.913,77.00182,-3.24127,0.06214968,0.4613
713.613,77.07352,-3.23935,0.0698645,0.46102
714.313,77.14528,-3.23837,0.07257814,0.46074
715.013,77.21699,-3.23837,0.07538064,0.46047
715.713,77.28867,-3.23837,0.08102525,0.46019
716.413,77.36027,-3.23968,0.08243908,0.45992
717.113,77.43213,-3.23839,0.08105693,0.45964
717.813,77.50401,-3.23967,0.08358023,0.45936
718.513,77.57582,-3.23837,0.08502884,0.45909
719.213,77.64708,-3.23838,0.08110296,0.45882
719.913,77.71853,-3.23936,0.07888499,0.45854
720.613,77.79009,-3.23969,0.07856073,0.45827
721.313,77.8621,-3.24091,0.08506953,0.458
722.013,77.93405,-3.24019,0.08129723,0.45772
722.713,78.00591,-3.23968,0.08163142,0.45745
723.413,78.07757,-3.23968,0.08545134,0.45718
724.113,78.14914,-3.23968,0.08740472,0.45691
724.813,78.2208,-3.24017,0.09025347,0.45664
725.513,78.29258,-3.23969,0.08855263,0.45637
726.213,78.36439,-3.23969,0.09289315,0.4561
726.913,78.4363,-3.24057,0.09370245,0.45583
727.613,78.5082,-3.24043,0.09367436,0.45556
728.313,78.58017,-3.23969,0.09754173,0.4553
729.013,78.65195,-3.23959,0.10103,0.45503
729.713,78.72399,-3.24099,0.10369,0.45476
730.413,78.79579,-3.24125,0.10206,0.45449
731.113,78.86789,-3.24111,0.10288,0.45423
731.813,78.9396,-3.24111,0.10406,0.45396
732.513,79.01128,-3.24111,0.10467,0.4537
733.213,79.08315,-3.24248,0.10284,0.45343
733.913,79.15526,-3.24244,0.09557451,0.45317
734.613,79.22744,-3.24241,0.09223306,0.4529
735.313,79.29953,-3.24175,0.08907541,0.45264
736.013,79.37154,-3.24144,0.08659404,0.45238
736.713,79.44368,-3.24224,0.08161232,0.45211
737.413,79.51564,-3.24275,0.08615795,0.45185
738.113,79.58779,-3.24253,0.0871057,0.45159
738.813,79.65969,-3.24276,0.0913941,0.45133
739.513,79.7317,-3.24177,0.09344776,0.45107
740.213,79.80379,-3.24177,0.09541301,0.45081
740.913,79.87599,-3.24296,0.0987764,0.45055
741.613,79.94827,-3.24278,0.10412,0.45029
742.013,79.98942,-3.24276,0.11094,0.45014