File: 01_Data/PlasticC/MCC/PlasticC_MCC_30K_min_211022_R3.txt
Sample ID:	C:\MCC\MCC Cal\Test\PlasticC_MCC_30K_min_211022_R3.txt
Sample Weight (mg):	4.6
Heating Rate (C/s):	0.5
Combustor Temp (C):	900
N2 Flow Rate (cc/min):	80
O2 Flow Rate (cc/min):	20
Calibration File:	C:\MCC\MCC Cal\Coeff1 JN10440_30_210304.txt.txt
T Correction Coefficients:	0	1.024463	0
Time Shift (s):	14
*
Time (s)	Temperature (C)	N2 flow rate (cc/min)	O2 flow rate (cc/min)	Flow Rate (cc/min)	Oxygen (%)	HRR (W/g)	Heating rate (C/s)
0.000	107.970	80.003	19.996	103.005	20.054	0.073	-0.018
2.000	108.000	80.003	19.995	103.015	20.053	0.090	-0.017
4.000	107.912	80.002	19.998	103.018	20.054	0.050	-0.069
6.000	107.993	80.001	19.996	103.019	20.051	0.266	-0.007
8.000	107.958	80.002	19.995	103.007	20.050	0.323	0.029
10.000	107.927	80.022	19.999	103.019	20.054	0.036	0.010
12.000	107.913	80.012	19.996	103.035	20.051	0.239	0.009
14.000	107.927	80.003	19.997	103.010	20.049	0.369	-0.002
16.000	107.946	80.002	19.994	103.023	20.054	0.052	0.013
18.000	107.919	80.002	19.995	103.033	20.057	-0.132	-0.001
20.000	107.923	80.002	19.995	103.028	20.053	0.092	-0.007
22.000	107.947	80.002	19.995	103.017	20.051	0.239	0.013
24.000	107.944	80.001	19.996	103.033	20.051	0.257	0.001
26.000	107.916	80.002	19.995	103.053	20.044	0.751	-0.046
28.000	107.960	80.002	19.995	103.078	20.045	0.701	0.016
30.000	108.049	80.002	19.995	103.102	20.037	1.221	0.065
32.000	108.124	80.002	19.996	103.114	20.035	1.391	0.070
34.000	108.166	80.002	19.997	103.140	20.030	1.711	-0.006
36.000	108.305	80.002	19.997	103.152	20.030	1.734	0.059
38.000	108.432	80.002	19.996	103.155	20.024	2.174	0.085
40.000	108.605	80.000	19.995	103.184	20.018	2.569	0.100
42.000	108.789	80.003	19.996	103.192	20.021	2.343	0.104
44.000	108.981	80.001	19.996	103.198	20.020	2.433	0.112
46.000	109.251	80.002	19.995	103.198	20.017	2.654	0.130
48.000	109.509	80.003	19.996	103.217	20.015	2.775	0.131
50.000	109.820	80.005	19.997	103.230	20.018	2.589	0.160
52.000	110.142	80.004	19.996	103.234	20.020	2.439	0.168
54.000	110.507	80.004	19.995	103.248	20.013	2.952	0.222
56.000	110.863	80.005	19.995	103.256	20.011	3.065	0.196
58.000	111.313	80.004	19.996	103.267	20.009	3.180	0.231
60.000	111.735	80.005	19.995	103.263	20.007	3.351	0.202
62.000	112.233	80.003	19.996	103.273	20.005	3.501	0.242
64.000	112.759	80.003	19.996	103.271	20.003	3.629	0.241
66.000	113.313	80.004	19.998	103.301	20.005	3.456	0.258
68.000	113.828	80.005	19.999	103.280	20.007	3.338	0.273
70.001	114.448	80.004	19.997	103.277	20.003	3.618	0.298
72.000	115.084	80.004	19.996	103.295	20.003	3.633	0.295
74.000	115.695	80.003	19.996	103.290	20.002	3.698	0.348
76.000	116.312	80.004	19.992	103.276	20.000	3.840	0.333
78.000	116.983	80.005	19.997	103.289	20.006	3.382	0.328
80.000	117.695	80.005	19.995	103.294	20.004	3.583	0.364
82.000	118.413	80.005	19.996	103.300	20.002	3.694	0.338
84.000	119.149	80.004	19.995	103.286	19.999	3.897	0.355
86.001	119.910	80.003	19.995	103.293	20.004	3.569	0.396
88.000	120.662	80.001	19.993	103.294	20.005	3.488	0.399
90.000	121.423	80.000	19.995	103.295	20.007	3.361	0.369
92.001	122.191	80.002	19.997	103.286	20.001	3.740	0.376
94.000	123.001	80.001	19.997	103.288	20.000	3.849	0.363
96.000	123.856	80.000	19.996	103.276	20.004	3.561	0.447
98.000	124.637	80.001	19.996	103.276	20.004	3.554	0.390
100.001	125.474	80.001	19.997	103.282	20.000	3.838	0.420
102.000	126.373	80.001	19.997	103.300	20.005	3.479	0.413
104.000	127.188	80.003	19.994	103.272	20.006	3.418	0.429
106.000	128.058	80.002	19.997	103.271	20.005	3.477	0.426
108.000	128.933	80.002	19.995	103.273	20.003	3.615	0.438
110.000	129.885	80.003	19.995	103.277	20.001	3.761	0.483
112.000	130.718	80.003	19.996	103.276	20.005	3.483	0.426
114.001	131.636	80.003	19.996	103.276	20.003	3.617	0.458
116.000	132.526	80.003	19.995	103.270	20.004	3.533	0.435
118.000	133.481	80.002	19.996	103.275	20.006	3.400	0.450
120.000	134.414	80.003	19.996	103.277	20.007	3.341	0.457
122.000	135.310	80.003	19.995	103.276	20.006	3.373	0.436
124.000	136.223	80.003	19.996	103.274	20.008	3.260	0.471
126.000	137.188	80.002	19.996	103.282	20.012	3.023	0.462
128.000	138.137	80.002	19.995	103.271	20.012	2.984	0.477
130.000	139.073	80.003	19.996	103.273	20.011	3.061	0.473
132.000	140.065	80.004	19.996	103.270	20.013	2.944	0.493
134.000	141.012	80.003	19.995	103.273	20.013	2.886	0.482
136.000	141.970	80.003	19.995	103.278	20.009	3.199	0.456
138.000	142.879	80.005	19.995	103.275	20.012	3.003	0.470
140.000	143.920	80.005	19.994	103.273	20.008	3.235	0.510
142.000	144.934	80.004	19.995	103.274	20.011	3.042	0.482
144.000	145.909	80.004	19.995	103.274	20.009	3.212	0.488
146.000	146.875	80.004	19.994	103.273	20.006	3.379	0.485
148.000	147.869	80.004	19.996	103.272	20.004	3.519	0.478
150.000	148.880	80.005	19.994	103.272	20.008	3.268	0.471
152.000	149.860	80.005	19.994	103.269	20.013	2.949	0.484
154.000	150.873	80.004	19.995	103.272	20.011	3.080	0.483
156.000	151.878	80.004	19.996	103.267	20.013	2.893	0.515
158.000	152.851	80.005	19.996	103.262	20.009	3.174	0.489
160.000	153.830	80.006	19.996	103.255	20.010	3.110	0.478
162.000	154.800	80.005	19.995	103.263	20.008	3.258	0.469
164.000	155.815	80.006	19.996	103.261	20.008	3.254	0.500
166.000	156.796	80.004	19.995	103.249	20.010	3.156	0.462
168.001	157.805	80.005	19.996	103.253	20.009	3.181	0.484
170.000	158.828	80.004	19.996	103.253	20.013	2.947	0.497
172.000	159.807	80.003	19.995	103.239	20.007	3.359	0.485
174.000	160.827	80.002	19.997	103.260	20.010	3.150	0.528
176.000	161.801	80.003	19.995	103.249	20.009	3.200	0.466
178.000	162.800	80.000	19.996	103.252	20.010	3.150	0.522
180.000	163.828	80.001	19.996	103.247	20.010	3.140	0.502
182.000	164.822	80.001	19.996	103.244	20.009	3.228	0.517
184.000	165.843	80.003	19.996	103.241	20.009	3.217	0.533
186.000	166.812	80.001	19.999	103.233	20.010	3.132	0.489
188.000	167.848	80.003	19.998	103.234	20.010	3.156	0.500
190.000	168.855	80.002	19.997	103.236	20.011	3.069	0.500
192.000	169.876	80.002	19.996	103.240	20.011	3.060	0.547
194.000	170.872	80.002	19.998	103.232	20.011	3.054	0.488
196.000	171.887	80.003	19.997	103.230	20.011	3.069	0.526
198.000	172.855	80.003	19.996	103.234	20.009	3.182	0.482
200.000	173.872	80.003	19.994	103.232	20.008	3.236	0.521
202.000	174.828	80.002	19.994	103.235	20.016	2.716	0.489
204.000	175.863	80.002	19.994	103.243	20.015	2.805	0.520
206.000	176.859	80.002	19.996	103.231	20.014	2.841	0.461
208.000	177.856	80.002	19.995	103.234	20.017	2.655	0.488
210.000	178.831	80.002	19.992	103.233	20.013	2.927	0.484
212.000	179.807	80.002	19.993	103.234	20.012	3.019	0.458
214.000	180.830	80.003	19.995	103.233	20.013	2.946	0.494
216.000	181.856	80.004	19.996	103.233	20.013	2.912	0.522
218.000	182.834	80.004	19.995	103.234	20.011	3.038	0.475
220.000	183.810	80.004	19.996	103.235	20.015	2.801	0.497
222.000	184.821	80.004	19.995	103.229	20.014	2.849	0.496
224.000	185.806	80.003	19.996	103.221	20.014	2.848	0.512
226.000	186.822	80.004	19.994	103.229	20.014	2.826	0.506
228.000	187.816	80.005	19.995	103.211	20.016	2.712	0.499
230.000	188.758	80.004	19.995	103.221	20.013	2.906	0.456
232.000	189.738	80.003	19.997	103.226	20.014	2.827	0.490
234.000	190.736	80.004	19.995	103.226	20.018	2.555	0.503
236.000	191.720	80.003	19.995	103.224	20.016	2.711	0.473
238.000	192.742	80.003	19.992	103.220	20.018	2.574	0.540
240.000	193.691	80.006	19.993	103.214	20.014	2.821	0.502
242.000	194.678	80.004	19.995	103.228	20.017	2.627	0.497
244.000	195.657	80.005	19.994	103.215	20.015	2.769	0.487
246.000	196.656	80.022	19.997	103.211	20.016	2.701	0.497
248.000	197.640	80.032	20.006	103.250	20.015	2.767	0.489
250.000	198.600	80.040	20.010	103.272	20.014	2.857	0.501
252.000	199.554	80.040	20.011	103.269	20.020	2.441	0.462
254.000	200.540	80.035	20.007	103.244	20.014	2.874	0.460
256.000	201.500	80.019	20.005	103.246	20.019	2.494	0.470
258.000	202.546	80.020	20.006	103.242	20.022	2.295	0.504
260.000	203.518	80.021	20.003	103.248	20.019	2.506	0.486
262.000	204.471	80.021	20.002	103.250	20.020	2.446	0.471
264.000	205.426	80.020	20.002	103.238	20.019	2.513	0.508
266.000	206.438	80.018	20.002	103.236	20.016	2.725	0.512
268.000	207.445	80.019	20.003	103.240	20.014	2.840	0.520
270.000	208.405	80.020	20.002	103.239	20.014	2.853	0.489
272.000	209.401	80.021	20.002	103.239	20.013	2.910	0.512
274.000	210.402	80.020	20.001	103.233	20.012	3.008	0.525
276.000	211.368	80.018	20.004	103.235	20.011	3.037	0.519
278.000	212.362	80.020	20.004	103.255	20.010	3.121	0.521
280.000	213.334	80.019	20.002	103.237	20.010	3.117	0.523
282.000	214.296	80.029	20.008	103.239	20.014	2.860	0.491
284.000	215.280	80.018	20.006	103.247	20.012	3.017	0.473
286.000	216.240	80.017	20.005	103.243	20.011	3.044	0.483
288.000	217.212	80.019	20.004	103.234	20.010	3.104	0.482
290.000	218.223	80.019	20.005	103.233	20.013	2.904	0.489
292.000	219.132	80.019	20.004	103.236	20.010	3.100	0.512
294.000	220.178	80.019	20.001	103.231	20.012	2.989	0.508
296.000	221.135	80.020	20.004	103.231	20.012	3.014	0.485
298.000	222.124	80.021	20.002	103.232	20.009	3.215	0.490
300.000	223.149	80.021	20.003	103.233	20.009	3.201	0.483
302.000	224.114	80.020	20.002	103.232	20.005	3.478	0.479
304.000	225.119	80.022	20.001	103.230	20.009	3.213	0.514
306.000	226.082	80.021	20.002	103.230	20.008	3.265	0.459
308.000	227.068	80.021	20.003	103.230	20.009	3.198	0.514
310.000	228.077	80.020	20.007	103.230	20.013	2.916	0.516
312.000	229.044	80.021	20.005	103.233	20.012	2.971	0.511
314.000	230.050	80.020	20.002	103.231	20.012	3.007	0.491
316.000	231.027	80.021	20.004	103.229	20.007	3.353	0.480
318.000	231.997	80.022	20.002	103.227	20.008	3.284	0.470
320.000	233.015	80.022	20.001	103.223	20.007	3.357	0.509
322.000	233.995	80.021	20.003	103.228	20.008	3.282	0.512
324.000	234.958	80.022	20.002	103.226	20.005	3.470	0.456
326.000	235.987	80.023	20.002	103.218	20.009	3.211	0.503
328.000	236.940	80.023	20.003	103.229	20.007	3.336	0.472
330.000	237.954	80.022	20.002	103.231	20.003	3.639	0.489
332.000	238.920	80.021	20.003	103.225	20.002	3.709	0.471
334.000	239.891	80.020	20.002	103.220	20.007	3.361	0.490
336.000	240.887	80.019	20.000	103.232	20.001	3.724	0.496
338.000	241.886	80.019	20.000	103.232	20.006	3.389	0.477
340.000	242.839	80.021	20.002	103.233	19.999	3.901	0.490
342.000	243.873	80.019	20.001	103.230	20.000	3.793	0.480
344.000	244.813	80.019	20.002	103.226	20.004	3.514	0.464
346.000	245.836	80.018	20.002	103.227	20.008	3.238	0.513
348.000	246.835	80.019	20.003	103.218	20.004	3.573	0.490
350.000	247.798	80.019	20.001	103.233	20.002	3.686	0.496
352.000	248.786	80.021	20.004	103.220	20.002	3.658	0.524
354.000	249.790	80.020	20.002	103.226	20.005	3.508	0.479
356.000	250.756	80.020	20.001	103.224	19.998	3.939	0.512
358.000	251.845	80.020	20.003	103.227	20.000	3.847	0.516
360.000	253.066	80.021	20.003	103.216	19.999	3.877	0.524
362.000	253.879	80.020	20.001	103.226	20.000	3.798	0.404
364.001	254.767	80.020	20.002	103.229	19.995	4.194	0.558
366.000	255.823	80.019	20.003	103.227	19.996	4.117	0.490
368.000	256.845	80.019	20.005	103.224	19.994	4.265	0.498
370.000	257.827	80.019	20.004	103.205	19.995	4.207	0.479
372.000	258.830	80.018	20.006	103.223	19.996	4.104	0.522
374.000	259.839	80.021	20.005	103.228	19.997	4.042	0.498
376.000	260.778	80.020	20.004	103.218	19.995	4.163	0.485
378.000	261.800	80.019	20.008	103.225	19.996	4.134	0.540
380.000	262.757	80.020	20.005	103.227	19.993	4.339	0.482
382.000	263.806	80.021	20.003	103.209	19.994	4.234	0.533
384.000	264.791	80.023	20.004	103.221	19.991	4.423	0.470
386.000	265.794	80.022	20.002	103.210	19.990	4.560	0.487
388.000	266.795	80.022	20.003	103.213	19.990	4.525	0.510
390.000	267.841	80.022	20.002	103.197	19.985	4.895	0.492
392.000	268.902	80.022	20.005	103.209	19.992	4.405	0.556
394.000	269.852	80.021	20.002	103.206	19.990	4.555	0.516
396.000	270.880	80.021	20.002	103.213	19.988	4.663	0.523
398.000	271.898	80.023	20.002	103.208	19.987	4.734	0.495
400.000	272.940	80.022	20.002	103.212	19.989	4.577	0.500
402.000	273.920	80.021	20.003	103.220	19.986	4.822	0.494
404.000	274.952	80.021	20.004	103.211	19.983	5.031	0.507
406.000	275.992	80.023	20.002	103.200	19.982	5.111	0.534
408.001	276.974	80.023	20.001	103.216	19.983	4.985	0.512
410.000	277.940	80.023	20.001	103.199	19.981	5.176	0.467
412.000	278.977	80.022	20.002	103.211	19.983	4.988	0.473
414.000	279.973	80.024	20.003	103.201	19.989	4.626	0.510
416.000	280.983	80.020	20.002	103.200	19.988	4.695	0.499
418.000	281.983	80.022	20.003	103.207	19.987	4.753	0.487
420.000	282.980	80.020	20.000	103.201	19.992	4.409	0.505
422.000	283.975	80.020	20.002	103.202	19.987	4.728	0.496
424.000	284.996	80.021	20.002	103.196	19.984	4.939	0.496
426.000	285.982	80.021	20.003	103.197	19.985	4.902	0.488
428.000	287.016	80.021	20.003	103.199	19.988	4.678	0.498
430.000	288.042	80.020	20.001	103.195	19.986	4.785	0.520
432.000	289.037	80.022	20.002	103.191	19.985	4.887	0.501
434.000	289.983	80.021	20.003	103.198	19.988	4.641	0.493
436.000	291.048	80.021	20.003	103.200	19.981	5.172	0.536
438.000	292.043	80.021	20.003	103.191	19.978	5.364	0.507
440.000	293.050	80.021	20.003	103.190	19.979	5.272	0.509
442.000	294.032	80.020	20.003	103.191	19.983	4.998	0.478
444.000	295.024	80.020	20.000	103.190	19.984	4.970	0.476
446.000	296.032	80.020	20.005	103.194	19.984	4.957	0.498
448.000	297.015	80.019	20.004	103.192	19.984	4.927	0.474
450.000	297.997	80.019	20.002	103.190	19.985	4.856	0.437
452.000	299.012	80.020	20.004	103.191	19.985	4.854	0.540
454.000	299.971	80.018	20.004	103.185	19.979	5.302	0.465
456.000	301.040	80.020	20.003	103.184	19.977	5.444	0.535
458.000	302.022	80.020	20.006	103.190	19.981	5.182	0.493
460.000	303.033	80.021	20.004	103.190	19.979	5.321	0.517
462.000	304.028	80.021	20.002	103.190	19.983	5.044	0.501
464.000	305.015	80.022	20.003	103.193	19.979	5.316	0.501
466.000	305.985	80.021	20.001	103.193	19.982	5.116	0.499
468.000	307.001	80.022	20.002	103.192	19.980	5.208	0.494
470.000	308.004	80.021	20.003	103.191	19.981	5.171	0.547
472.000	308.962	80.019	20.005	103.189	19.981	5.185	0.494
474.000	309.993	80.020	20.004	103.189	19.978	5.391	0.503
476.000	310.968	80.019	20.004	103.186	19.981	5.167	0.495
478.000	311.978	80.019	20.002	103.190	19.982	5.082	0.524
480.000	313.027	80.021	20.003	103.169	19.978	5.372	0.544
482.000	313.995	80.021	20.001	103.182	19.977	5.421	0.467
484.000	315.020	80.022	19.999	103.172	19.978	5.396	0.522
486.000	316.034	80.022	20.002	103.162	19.978	5.343	0.512
488.000	317.047	80.023	20.000	103.176	19.976	5.536	0.496
490.000	318.034	80.022	20.001	103.178	19.983	4.992	0.494
492.000	319.030	80.019	19.997	103.153	19.974	5.634	0.514
494.000	320.023	80.005	19.996	103.154	19.979	5.285	0.480
496.000	321.033	80.005	19.995	103.153	19.985	4.877	0.481
498.000	322.035	80.003	19.996	103.159	19.984	4.959	0.504
500.000	323.047	80.003	19.997	103.154	19.982	5.113	0.513
502.000	324.013	80.002	19.998	103.152	19.980	5.216	0.498
504.000	325.006	80.002	19.994	103.149	19.978	5.369	0.482
506.000	326.038	80.001	19.995	103.145	19.980	5.193	0.502
508.000	327.033	80.002	19.998	103.150	19.981	5.138	0.493
510.000	328.060	80.003	19.997	103.150	19.982	5.067	0.530
512.000	329.074	80.003	19.996	103.151	19.980	5.226	0.526
514.000	330.000	80.002	19.999	103.152	19.984	4.915	0.454
516.000	331.020	80.003	19.996	103.152	19.980	5.207	0.483
518.000	332.034	80.003	19.997	103.152	19.976	5.525	0.495
520.000	333.046	80.004	19.995	103.155	19.980	5.245	0.487
522.000	334.063	80.003	19.995	103.163	19.978	5.352	0.505
524.000	335.053	80.003	19.997	103.152	19.982	5.063	0.493
526.000	336.074	80.000	19.995	103.153	19.980	5.191	0.501
528.000	337.044	80.004	19.998	103.162	19.982	5.115	0.514
530.000	338.049	80.003	19.998	103.166	19.984	4.917	0.515
532.000	339.068	80.003	19.996	103.158	19.979	5.301	0.504
534.000	340.073	80.001	19.997	103.160	19.982	5.113	0.482
536.000	341.087	80.001	19.997	103.159	19.980	5.245	0.499
538.000	342.142	80.000	19.995	103.156	19.982	5.055	0.520
540.000	343.127	80.001	19.998	103.155	19.976	5.511	0.483
542.000	344.124	80.003	19.998	103.153	19.978	5.390	0.522
544.000	345.129	80.002	19.998	103.158	19.981	5.147	0.530
546.000	346.169	80.003	19.997	103.154	19.977	5.442	0.496
548.000	347.145	80.003	19.998	103.155	19.982	5.109	0.516
550.000	348.134	80.002	19.997	103.156	19.974	5.644	0.498
552.000	349.184	80.004	19.995	103.153	19.979	5.305	0.496
554.000	350.129	80.004	19.995	103.149	19.972	5.815	0.498
556.000	351.143	80.005	19.995	103.151	19.973	5.714	0.500
558.000	352.146	80.003	19.995	103.151	19.972	5.811	0.494
560.000	353.164	80.002	19.993	103.151	19.970	5.891	0.478
562.000	354.206	80.002	19.998	103.135	19.968	6.091	0.512
564.000	355.171	80.004	19.996	103.141	19.976	5.535	0.478
566.000	356.157	80.000	19.997	103.146	19.970	5.890	0.507
568.000	357.172	80.005	19.997	103.147	19.967	6.099	0.482
570.000	358.197	80.000	19.996	103.138	19.969	5.973	0.510
572.000	359.181	80.004	19.995	103.140	19.965	6.239	0.502
574.000	360.175	80.004	19.995	103.147	19.959	6.699	0.496
576.000	361.180	80.006	19.996	103.142	19.956	6.892	0.529
578.000	362.174	80.007	19.996	103.149	19.956	6.909	0.495
580.000	363.155	80.006	19.996	103.151	19.956	6.900	0.482
582.000	364.144	80.006	19.997	103.149	19.951	7.278	0.494
584.000	365.165	80.005	19.995	103.150	19.952	7.154	0.506
586.000	366.170	80.001	19.996	103.151	19.944	7.728	0.523
588.000	367.108	80.001	19.992	103.148	19.940	8.008	0.468
590.000	368.120	80.002	19.994	103.151	19.936	8.308	0.486
592.000	369.110	80.003	19.996	103.150	19.931	8.631	0.494
594.000	370.141	80.003	19.995	103.136	19.925	9.049	0.496
596.000	371.121	80.003	19.996	103.151	19.929	8.812	0.527
598.001	372.117	80.001	19.995	103.146	19.922	9.307	0.464
600.000	373.115	80.001	19.996	103.130	19.911	10.084	0.504
602.000	374.103	80.002	19.995	103.141	19.915	9.802	0.477
604.000	375.141	80.003	19.995	103.154	19.905	10.451	0.495
606.000	376.106	80.000	19.996	103.154	19.899	10.875	0.454
608.000	377.107	80.004	19.995	103.157	19.892	11.414	0.475
610.000	378.118	80.003	19.996	103.160	19.892	11.385	0.471
612.000	379.163	80.005	19.996	103.157	19.878	12.330	0.507
614.000	380.203	80.002	19.993	103.152	19.879	12.295	0.525
616.000	381.233	80.003	19.996	103.155	19.872	12.759	0.524
618.000	382.232	80.005	19.995	103.158	19.861	13.549	0.474
620.000	383.339	80.003	19.995	103.158	19.854	14.009	0.542
622.000	384.387	80.004	19.997	103.159	19.853	14.083	0.527
624.000	385.458	80.021	20.003	103.194	19.840	15.037	0.552
626.000	386.493	80.013	20.001	103.179	19.830	15.696	0.542
628.000	387.572	80.002	19.996	103.158	19.814	16.861	0.539
630.000	388.652	80.001	19.996	103.155	19.785	18.889	0.527
632.000	389.752	80.003	19.996	103.170	19.756	20.923	0.538
634.000	390.797	80.002	19.995	103.167	19.733	22.523	0.533
636.000	391.934	80.003	19.997	103.139	19.723	23.243	0.531
638.000	393.055	80.004	19.995	103.117	19.712	24.010	0.547
640.000	394.113	80.003	19.995	103.132	19.705	24.498	0.521
642.000	395.213	80.004	19.996	103.156	19.678	26.320	0.554
644.000	396.332	80.005	19.997	103.185	19.661	27.532	0.558
646.000	397.387	80.006	19.996	103.173	19.627	29.909	0.512
648.000	398.431	80.002	19.995	103.175	19.575	33.529	0.510
650.000	399.553	80.003	19.996	103.184	19.545	35.669	0.555
652.000	400.583	80.004	19.995	103.146	19.521	37.364	0.520
654.000	401.642	80.005	19.997	103.123	19.456	41.906	0.529
656.000	402.718	80.004	19.994	103.183	19.386	46.792	0.526
658.000	403.740	80.003	19.995	103.165	19.364	48.284	0.503
660.000	404.827	80.001	19.995	103.141	19.299	52.885	0.539
662.000	405.871	80.006	19.997	103.164	19.244	56.699	0.514
664.000	406.895	80.006	19.995	103.126	19.171	61.796	0.535
666.000	407.956	80.004	19.998	103.247	19.094	67.227	0.523
668.000	408.990	80.003	19.996	103.183	19.011	73.027	0.514
670.000	410.026	80.002	19.995	103.171	18.918	79.613	0.528
672.000	411.039	80.004	19.998	103.190	18.819	86.529	0.479
674.000	412.106	80.004	19.996	103.166	18.712	93.975	0.519
676.000	413.092	80.002	19.995	103.207	18.589	102.651	0.530
678.000	414.093	80.005	19.996	103.186	18.462	111.466	0.462
680.000	415.142	80.002	19.995	103.233	18.321	121.319	0.527
682.000	416.163	80.000	19.995	103.228	18.160	132.604	0.543
684.000	417.121	80.004	19.995	103.192	17.974	145.669	0.486
686.000	418.136	80.002	19.995	103.258	17.780	159.282	0.512
688.000	419.173	80.001	19.995	103.234	17.589	172.726	0.541
690.000	420.169	80.002	19.996	103.201	17.395	186.303	0.510
692.000	421.149	80.002	19.995	103.198	17.190	200.640	0.475
694.000	422.140	80.003	19.997	103.213	16.991	214.578	0.492
696.000	423.132	80.001	19.995	103.239	16.775	229.735	0.473
698.000	424.133	80.004	19.995	103.268	16.546	245.820	0.501
700.000	425.108	80.003	19.995	103.268	16.332	260.846	0.505
702.000	426.157	80.002	19.996	103.276	16.120	275.617	0.530
704.000	427.079	80.003	19.996	103.238	15.893	291.543	0.472
706.000	428.062	80.002	19.996	103.261	15.683	306.077	0.467
708.000	429.054	80.005	19.996	103.284	15.457	321.839	0.518
710.000	430.041	80.008	19.996	103.284	15.225	338.128	0.526
712.000	431.008	80.004	19.995	103.306	14.995	354.319	0.517
714.000	431.993	80.006	19.995	103.287	14.778	369.459	0.497
716.000	432.965	80.004	19.996	103.268	14.575	383.778	0.459
718.000	433.991	80.006	19.995	103.211	14.386	397.213	0.514
720.000	434.992	80.004	19.995	103.201	14.217	408.968	0.505
722.000	435.968	80.004	19.995	103.239	14.071	419.281	0.506
724.000	436.932	80.007	19.997	103.239	13.951	427.708	0.487
726.000	437.919	80.006	19.995	103.251	13.842	435.487	0.491
728.000	438.910	80.005	19.996	103.279	13.773	440.558	0.473
730.000	439.894	80.003	19.996	103.301	13.742	442.718	0.518
732.000	440.874	80.003	19.997	103.290	13.741	442.851	0.478
734.000	441.874	80.004	19.995	103.296	13.760	441.605	0.463
736.000	442.844	80.006	19.995	103.349	13.813	437.947	0.491
738.000	443.864	80.005	19.996	103.374	13.893	432.356	0.503
740.000	444.855	80.005	19.995	103.409	13.995	425.200	0.495
742.000	445.859	80.007	19.994	103.398	14.122	416.320	0.498
744.000	446.854	80.005	19.995	103.427	14.271	405.882	0.502
746.001	447.881	80.004	19.995	103.439	14.436	394.342	0.533
748.000	448.890	80.003	19.995	103.459	14.627	380.874	0.496
750.000	449.941	80.004	19.995	103.454	14.830	366.504	0.540
752.000	450.965	80.002	19.997	103.462	15.051	350.946	0.511
754.000	451.994	80.003	19.996	103.476	15.277	335.067	0.520
756.000	453.066	80.003	19.996	103.463	15.512	318.528	0.523
758.000	454.091	80.003	19.997	103.450	15.750	301.796	0.498
760.000	455.114	79.999	19.996	103.452	15.983	285.439	0.498
762.000	456.175	80.002	19.997	103.425	16.216	269.019	0.538
764.000	457.179	80.003	19.996	103.402	16.441	253.236	0.514
766.000	458.176	80.002	19.996	103.391	16.667	237.367	0.475
768.000	459.244	80.001	19.996	103.368	16.879	222.480	0.509
770.000	460.271	80.002	19.996	103.354	17.086	207.933	0.512
772.000	461.338	80.005	19.995	103.351	17.287	193.881	0.537
774.000	462.353	80.005	19.995	103.329	17.472	180.874	0.499
776.000	463.431	80.003	19.995	103.314	17.644	168.817	0.525
778.000	464.427	80.001	19.995	103.307	17.803	157.614	0.491
780.000	465.483	80.001	19.997	103.288	17.955	146.982	0.518
782.000	466.540	80.003	19.996	103.276	18.100	136.863	0.520
784.000	467.534	80.001	19.996	103.255	18.234	127.458	0.489
786.000	468.631	80.004	19.996	103.237	18.354	119.073	0.527
788.000	469.618	80.002	19.995	103.231	18.462	111.449	0.496
790.001	470.647	80.001	19.995	103.228	18.565	104.311	0.487
792.000	471.671	80.005	19.995	103.229	18.660	97.612	0.497
794.000	472.701	80.002	19.997	103.232	18.749	91.352	0.523
796.000	473.790	80.003	19.995	103.221	18.832	85.598	0.547
798.000	474.787	80.006	19.995	103.204	18.910	80.133	0.519
800.000	475.812	80.004	19.996	103.205	18.978	75.346	0.484
802.000	476.848	80.004	19.995	103.208	19.051	70.267	0.493
804.000	477.834	80.002	19.994	103.188	19.113	65.860	0.504
806.000	478.863	80.003	19.996	103.183	19.175	61.571	0.497
808.000	479.879	80.004	19.995	103.188	19.236	57.247	0.529
810.000	480.879	80.000	19.995	103.177	19.291	53.404	0.528
812.000	481.875	80.003	19.995	103.176	19.347	49.524	0.479
814.000	482.877	80.003	19.996	103.161	19.399	45.897	0.469
816.000	483.901	80.006	19.996	103.158	19.450	42.321	0.485
818.000	484.880	80.003	19.996	103.156	19.503	38.580	0.490
820.000	485.899	80.002	19.995	103.147	19.548	35.428	0.508
822.000	486.883	80.002	19.996	103.145	19.597	31.997	0.480
824.000	487.878	80.003	19.995	103.148	19.637	29.217	0.490
826.000	488.884	80.007	19.997	103.145	19.683	26.016	0.495
828.000	489.855	80.007	19.996	103.136	19.728	22.854	0.491
830.000	490.841	80.006	19.996	103.142	19.762	20.439	0.488
832.000	491.839	80.006	19.995	103.144	19.798	17.980	0.527
834.000	492.860	80.003	19.995	103.133	19.830	15.691	0.501
836.000	493.836	80.003	19.995	103.130	19.857	13.817	0.521
838.000	494.863	80.002	19.996	103.120	19.888	11.686	0.506
840.000	495.805	80.001	19.996	103.126	19.913	9.922	0.504
842.000	496.834	80.001	19.996	103.129	19.937	8.205	0.497
844.000	497.822	80.001	19.997	103.122	19.962	6.480	0.499
846.000	498.798	80.001	19.997	103.127	19.980	5.237	0.505
848.000	499.809	80.001	19.997	103.124	19.991	4.449	0.514
850.000	500.801	80.002	19.997	103.132	20.005	3.488	0.479
852.000	501.789	80.001	19.996	103.120	20.010	3.124	0.488
854.000	502.762	80.001	19.997	103.112	20.019	2.523	0.496
856.000	503.763	80.002	19.997	103.113	20.021	2.336	0.516
858.000	504.778	80.002	19.996	103.103	20.024	2.165	0.499
860.000	505.766	80.000	19.997	103.089	20.030	1.702	0.490
862.000	506.740	80.002	19.996	103.091	20.029	1.810	0.489
864.000	507.769	80.002	19.995	103.085	20.032	1.610	0.484
866.000	508.724	80.003	19.996	103.093	20.038	1.183	0.498
868.000	509.699	80.002	19.996	103.097	20.034	1.415	0.472
870.000	510.691	80.001	19.995	103.106	20.035	1.352	0.484
872.000	511.688	80.002	19.995	103.117	20.033	1.502	0.471
874.000	512.617	80.003	19.995	103.107	20.039	1.116	0.468
876.000	513.646	80.002	19.996	103.116	20.042	0.917	0.521
878.000	514.616	80.004	19.995	103.123	20.038	1.163	0.504
880.000	515.629	80.004	19.995	103.125	20.040	1.034	0.514
882.000	516.597	80.003	19.997	103.133	20.040	1.042	0.516
884.000	517.633	80.003	19.996	103.135	20.037	1.251	0.495
886.000	518.643	80.005	19.995	103.117	20.042	0.904	0.490
888.000	519.723	80.003	19.995	103.134	20.036	1.296	0.526
890.000	520.774	80.002	19.995	103.132	20.041	0.936	0.554
892.000	521.838	80.002	19.994	103.132	20.044	0.764	0.553
894.000	522.904	80.003	19.995	103.137	20.040	1.057	0.549
896.000	523.973	80.004	19.995	103.134	20.036	1.323	0.552
898.000	525.013	80.003	19.996	103.122	20.038	1.149	0.528
900.000	526.071	80.004	19.994	103.118	20.045	0.699	0.530
902.000	527.165	80.005	19.996	103.126	20.046	0.621	0.561
904.000	528.224	80.004	19.994	103.150	20.048	0.460	0.547
906.000	529.293	80.006	19.995	103.143	20.042	0.885	0.530
908.000	530.400	80.006	19.994	103.124	20.044	0.732	0.558
910.000	531.536	80.004	19.995	103.134	20.042	0.852	0.586
912.000	532.606	80.006	19.996	103.131	20.040	1.027	0.543
914.000	533.716	80.003	19.995	103.130	20.038	1.182	0.562
916.000	534.833	80.004	19.995	103.117	20.040	1.009	0.532
918.000	535.952	80.001	19.995	103.142	20.039	1.118	0.528
920.000	537.097	80.003	19.996	103.134	20.039	1.113	0.558
922.000	538.165	80.001	19.995	103.137	20.041	0.984	0.546
924.000	539.268	80.002	19.996	103.132	20.042	0.904	0.575
926.000	540.357	80.004	19.995	103.142	20.039	1.121	0.534
928.000	541.475	80.002	19.997	103.136	20.043	0.845	0.561
930.000	542.588	80.002	19.995	103.125	20.044	0.716	0.560
932.000	543.661	80.002	19.995	103.129	20.039	1.096	0.562
934.000	544.724	80.002	19.995	103.122	20.044	0.724	0.543
936.000	545.809	80.002	19.996	103.144	20.042	0.906	0.554
938.000	546.909	80.001	19.996	103.140	20.043	0.787	0.551
940.000	548.009	80.001	19.996	103.143	20.040	1.023	0.546
942.000	549.097	80.001	19.995	103.152	20.042	0.902	0.548
944.000	550.213	80.001	19.996	103.139	20.042	0.854	0.557
946.000	551.267	80.000	19.996	103.133	20.044	0.778	0.533
948.000	552.375	80.000	19.996	103.138	20.043	0.812	0.568
950.000	553.401	80.001	19.996	103.123	20.043	0.781	0.507
952.000	554.505	80.001	19.996	103.115	20.041	0.933	0.542
954.000	555.535	80.002	19.996	103.125	20.044	0.751	0.534
956.000	556.572	80.003	19.996	103.117	20.041	0.925	0.496
958.000	557.585	80.002	19.997	103.140	20.044	0.718	0.496
960.000	558.656	80.002	19.995	103.132	20.040	1.013	0.502
962.000	559.637	80.004	19.995	103.118	20.041	0.959	0.503
964.000	560.646	80.004	19.995	103.117	20.046	0.575	0.512
966.000	561.667	80.004	19.995	103.120	20.042	0.860	0.499
968.000	562.662	80.003	19.995	103.114	20.041	0.927	0.518
970.000	563.674	80.004	19.995	103.113	20.043	0.829	0.519
972.000	564.603	80.005	19.996	103.120	20.041	0.923	0.460
974.000	565.574	80.003	19.995	103.134	20.042	0.902	0.477
976.000	566.608	80.004	19.996	103.125	20.045	0.689	0.506
978.000	567.594	80.004	19.996	103.117	20.045	0.665	0.520
980.000	568.516	80.003	19.996	103.135	20.041	0.935	0.474
982.000	569.514	80.006	19.996	103.126	20.039	1.076	0.490
984.000	570.451	80.003	19.995	103.126	20.047	0.544	0.489
986.000	571.470	80.004	19.995	103.119	20.044	0.733	0.508
988.000	572.426	80.005	19.995	103.129	20.047	0.502	0.493
990.000	573.436	80.005	19.995	103.123	20.046	0.574	0.476
992.000	574.417	80.005	19.995	103.118	20.046	0.628	0.502
994.000	575.377	80.004	19.994	103.117	20.043	0.814	0.447
996.000	576.384	80.004	19.995	103.116	20.043	0.835	0.477
998.000	577.375	80.004	19.994	103.127	20.048	0.469	0.531
1000.000	578.345	80.003	19.994	103.123	20.049	0.406	0.463
1002.000	579.332	80.003	19.996	103.121	20.047	0.511	0.489
1004.000	580.278	80.003	19.995	103.125	20.050	0.299	0.461
1006.000	581.290	80.002	19.997	103.120	20.047	0.509	0.500
1008.000	582.260	80.002	19.996	103.133	20.048	0.460	0.483
1010.000	583.263	80.002	19.996	103.132	20.049	0.417	0.503
1012.000	584.240	80.001	19.995	103.124	20.047	0.567	0.488
1014.000	585.213	80.000	19.996	103.127	20.046	0.605	0.519
1016.000	586.226	80.003	19.997	103.146	20.048	0.469	0.500
1018.000	587.209	80.004	19.997	103.123	20.046	0.607	0.486
1020.000	588.237	80.005	19.997	103.121	20.053	0.111	0.496
1022.000	589.255	80.002	19.996	103.131	20.047	0.532	0.521
1024.000	590.263	80.004	19.996	103.129	20.047	0.561	0.492
1026.000	591.310	80.004	19.996	103.146	20.046	0.611	0.548
1028.000	592.320	80.003	19.996	103.130	20.050	0.341	0.499
1030.000	593.377	80.002	19.996	103.139	20.048	0.431	0.508
1032.000	594.462	80.001	19.995	103.141	20.045	0.657	0.524
1034.000	595.542	80.001	19.996	103.136	20.047	0.519	0.520
1036.001	596.636	80.002	19.995	103.126	20.047	0.552	0.554
1038.000	597.753	80.002	19.998	103.126	20.046	0.622	0.561
1040.000	598.785	80.001	19.997	103.127	20.047	0.519	0.528
1042.000	599.926	80.002	19.998	103.128	20.044	0.768	0.561
1044.000	601.001	80.003	19.997	103.123	20.047	0.502	0.550
1046.000	602.057	80.003	19.996	103.123	20.044	0.737	0.541
1048.000	603.153	80.002	19.997	103.116	20.047	0.513	0.541
1050.000	604.244	80.004	19.997	103.129	20.043	0.818	0.561
1052.001	605.332	80.004	19.995	103.120	20.040	0.992	0.554
1054.001	606.445	80.004	19.995	103.130	20.043	0.814	0.543
1056.000	607.558	80.004	19.996	103.125	20.043	0.835	0.538
1058.000	608.589	80.002	19.996	103.122	20.044	0.776	0.537
1060.000	609.642	80.004	19.995	103.133	20.043	0.785	0.507
1062.000	610.785	80.002	19.995	103.118	20.041	0.948	0.539
1064.000	611.835	80.002	19.997	103.115	20.045	0.655	0.581
1066.000	612.872	80.004	19.996	103.132	20.042	0.917	0.531
1068.000	613.957	80.005	19.995	103.135	20.044	0.779	0.525
1070.000	615.050	80.004	19.995	103.120	20.041	0.931	0.534
1072.000	616.181	80.003	19.995	103.124	20.045	0.667	0.551
1074.000	617.236	80.005	19.995	103.125	20.045	0.663	0.550
1076.000	618.351	80.005	19.995	103.136	20.042	0.881	0.536
1078.000	619.418	80.003	19.996	103.136	20.045	0.672	0.544
1080.001	620.509	80.003	19.995	103.117	20.043	0.797	0.529
1082.000	621.579	80.003	19.994	103.126	20.046	0.613	0.545
1084.000	622.660	80.003	19.995	103.136	20.045	0.643	0.549
1086.001	623.683	80.002	19.994	103.129	20.048	0.500	0.513
1088.000	624.786	80.003	19.996	103.121	20.043	0.822	0.550
1090.000	625.804	80.002	19.994	103.126	20.050	0.293	0.524
1092.000	626.941	80.002	19.996	103.140	20.047	0.506	0.544
1094.000	627.991	80.004	19.995	103.128	20.045	0.657	0.503
1096.000	629.032	80.003	19.995	103.120	20.047	0.521	0.513
1098.000	630.121	80.003	19.994	103.126	20.044	0.714	0.542
1100.000	631.162	80.003	19.994	103.121	20.046	0.575	0.507
1102.001	632.227	80.002	19.996	103.127	20.045	0.641	0.516
1104.000	633.280	80.003	19.996	103.127	20.045	0.691	0.526
1106.000	634.372	80.003	19.996	103.124	20.044	0.768	0.551
1108.000	635.362	80.003	19.997	103.117	20.047	0.534	0.511
1110.000	636.484	80.001	19.996	103.127	20.046	0.626	0.524
1112.000	637.502	80.002	19.997	103.119	20.046	0.575	0.505
1114.000	638.531	80.002	19.997	103.117	20.047	0.515	0.478
1116.000	639.630	80.002	19.996	103.115	20.051	0.272	0.502
1118.000	640.680	80.002	19.996	103.123	20.050	0.354	0.529
1120.000	641.649	80.003	19.996	103.146	20.051	0.281	0.476
1122.000	642.755	80.003	19.996	103.144	20.048	0.469	0.544
1124.000	643.765	80.003	19.996	103.128	20.050	0.349	0.501
1126.000	644.784	80.003	19.996	103.132	20.046	0.622	0.515
1128.001	645.848	80.003	19.996	103.124	20.046	0.601	0.516
1130.000	646.863	80.004	19.996	103.127	20.045	0.668	0.500
1132.000	647.917	80.003	19.996	103.117	20.043	0.829	0.540
1134.000	648.939	80.002	19.997	103.131	20.043	0.799	0.533
1136.000	649.982	80.004	19.996	103.125	20.047	0.519	0.490
1138.001	651.042	80.003	19.997	103.132	20.045	0.699	0.520
1140.000	652.073	80.002	19.997	103.129	20.044	0.772	0.539
1142.000	653.063	80.001	19.996	103.124	20.042	0.871	0.553
1144.000	654.078	80.002	19.996	103.138	20.046	0.603	0.505
1146.001	655.108	80.004	19.997	103.119	20.047	0.529	0.513
1148.000	656.156	80.005	19.996	103.136	20.045	0.670	0.524
1150.000	657.171	80.004	19.995	103.120	20.044	0.731	0.532
1152.000	658.193	80.006	19.995	103.114	20.043	0.781	0.536
1154.000	659.220	80.004	19.996	103.112	20.042	0.862	0.524
1156.000	660.211	80.006	19.995	103.118	20.046	0.582	0.520
1158.001	661.243	80.006	19.995	103.111	20.049	0.414	0.506
1160.000	662.273	80.004	19.995	103.118	20.046	0.619	0.515
1162.001	663.311	80.006	19.996	103.115	20.046	0.624	0.525
1164.000	664.267	80.005	19.995	103.112	20.045	0.691	0.494
1166.000	665.325	80.003	19.996	103.113	20.049	0.406	0.508
1168.001	666.342	80.003	19.996	103.120	20.046	0.622	0.534
1170.000	667.365	80.003	19.996	103.128	20.047	0.550	0.522
1172.000	668.380	80.002	19.995	103.122	20.052	0.180	0.533
1174.001	669.371	80.003	19.995	103.116	20.041	0.933	0.502
1176.000	670.352	80.004	19.996	103.123	20.047	0.536	0.473
1178.000	671.380	80.004	19.996	103.118	20.046	0.609	0.493
1180.000	672.399	80.004	19.995	103.113	20.047	0.532	0.506
1182.000	673.392	80.004	19.995	103.119	20.045	0.649	0.479
1184.000	674.406	80.003	19.994	103.118	20.051	0.260	0.497
1186.000	675.433	80.004	19.994	103.118	20.043	0.829	0.517
1188.000	676.324	80.003	19.994	103.119	20.045	0.653	0.455
1190.000	677.449	80.003	19.995	103.118	20.046	0.571	0.533
1192.001	678.452	80.003	19.994	103.120	20.047	0.525	0.527
1194.000	679.435	80.002	19.995	103.121	20.047	0.552	0.495
1196.000	680.432	80.002	19.995	103.118	20.041	0.982	0.511
1198.000	681.459	80.003	19.995	103.116	20.048	0.456	0.533
1200.000	682.427	80.002	19.997	103.118	20.044	0.764	0.498
1202.000	683.466	80.003	19.996	103.117	20.045	0.666	0.503
1204.001	684.436	80.003	19.995	103.117	20.043	0.802	0.505
1206.000	685.483	80.004	19.995	103.128	20.045	0.657	0.511
1208.000	686.475	80.003	19.996	103.120	20.043	0.800	0.512
1210.000	687.473	80.005	19.995	103.118	20.046	0.586	0.493
1212.000	688.491	80.005	19.996	103.127	20.045	0.703	0.532
1214.000	689.501	80.005	19.995	103.120	20.047	0.536	0.517
1216.000	690.501	80.024	20.000	103.142	20.046	0.596	0.495
1218.000	691.517	80.007	19.996	103.124	20.044	0.743	0.483
1220.000	692.531	80.004	19.997	103.112	20.043	0.781	0.519
1222.000	693.559	80.004	19.997	103.112	20.045	0.701	0.503
1224.001	694.607	80.003	19.997	103.118	20.044	0.751	0.539
1226.000	695.582	80.004	19.996	103.112	20.046	0.580	0.507
1228.000	696.645	80.003	19.997	103.116	20.043	0.808	0.531
1230.000	697.634	80.003	19.995	103.113	20.041	0.923	0.492
1232.000	698.626	80.004	19.996	103.111	20.046	0.617	0.489
1234.000	699.622	80.004	19.996	103.114	20.042	0.881	0.459
1236.000	700.680	80.005	19.998	103.113	20.045	0.701	0.533
1238.000	701.680	80.006	19.996	103.110	20.042	0.864	0.487
1240.000	702.680	80.006	19.995	103.123	20.045	0.659	0.518
1242.000	703.713	80.005	19.995	103.114	20.044	0.730	0.529
1244.000	704.707	80.006	19.995	103.114	20.042	0.856	0.543
1246.000	705.669	80.004	19.995	103.113	20.046	0.630	0.502
1248.000	706.736	80.002	19.995	103.105	20.044	0.749	0.529
1250.000	707.765	80.004	19.996	103.105	20.040	1.013	0.526
1252.000	708.718	80.003	19.995	103.116	20.045	0.668	0.495
1254.000	709.750	80.003	19.996	103.122	20.041	0.953	0.493
1256.000	710.752	80.001	19.995	103.122	20.039	1.090	0.508
1258.000	711.742	80.003	19.995	103.119	20.041	0.977	0.495
1260.001	712.738	80.003	19.994	103.115	20.043	0.839	0.489
1262.000	713.769	80.003	19.996	103.115	20.044	0.758	0.488
1264.001	714.761	80.002	19.995	103.110	20.041	0.954	0.491
1266.001	715.783	80.003	19.996	103.101	20.042	0.873	0.488
1268.000	716.802	80.003	19.996	103.114	20.044	0.753	0.488
1270.001	717.785	80.003	19.995	103.116	20.043	0.804	0.497
1272.000	718.812	80.002	19.996	103.116	20.044	0.731	0.495
1274.000	719.799	80.003	19.995	103.116	20.040	1.053	0.514
1276.000	720.829	80.003	19.994	103.116	20.041	0.969	0.543
1278.000	721.792	80.002	19.994	103.116	20.042	0.892	0.493
1280.000	722.798	80.003	19.995	103.114	20.039	1.074	0.509
1282.000	723.816	80.004	19.995	103.116	20.040	1.000	0.487
1284.000	724.819	80.004	19.995	103.114	20.042	0.906	0.522
1286.000	725.822	80.004	19.996	103.112	20.042	0.883	0.519
1288.000	726.819	80.003	19.995	103.117	20.044	0.754	0.496
1290.000	727.837	80.003	19.996	103.115	20.041	0.952	0.490
1292.000	728.856	80.004	19.995	103.113	20.039	1.113	0.484
1294.000	729.854	80.005	19.997	103.113	20.041	0.957	0.497
1296.000	730.850	80.004	19.996	103.119	20.038	1.157	0.484
1298.000	731.859	80.002	19.996	103.127	20.041	0.963	0.488
1300.000	732.894	80.005	19.995	103.112	20.044	0.745	0.533
1302.000	733.877	80.004	19.996	103.111	20.043	0.837	0.473
1304.000	734.877	80.003	19.995	103.115	20.040	1.017	0.481
1306.000	735.866	80.003	19.995	103.111	20.040	0.994	0.516
1308.000	736.864	80.005	19.995	103.111	20.039	1.086	0.518
1310.000	737.842	80.005	19.994	103.113	20.040	1.032	0.514
1312.000	738.901	80.005	19.995	103.117	20.040	1.011	0.523
1314.000	739.925	80.004	19.994	103.121	20.042	0.904	0.486
1316.000	740.904	80.004	19.995	103.114	20.041	0.929	0.506
1318.000	741.932	80.005	19.995	103.116	20.038	1.153	0.507
1320.001	742.952	80.005	19.995	103.113	20.040	0.992	0.542
1321.500	743.667	80.005	19.996	103.116	20.038	1.170	0.473