File: 01_Data/PlasticC/MCC/PlasticC_MCC_30K_min_211021_R2.txt
Sample ID:	C:\MCC\MCC Cal\Test\PlasticC_MCC_30K_min_211021_R2.txt
Sample Weight (mg):	4.94
Heating Rate (C/s):	0.5
Combustor Temp (C):	900
N2 Flow Rate (cc/min):	80
O2 Flow Rate (cc/min):	20
Calibration File:	C:\MCC\MCC Cal\Coeff1 JN10440_30_210304.txt.txt
T Correction Coefficients:	0	1.024463	0
Time Shift (s):	14
*
Time (s)	Temperature (C)	N2 flow rate (cc/min)	O2 flow rate (cc/min)	Flow Rate (cc/min)	Oxygen (%)	HRR (W/g)	Heating rate (C/s)
-0.001	108.500	80.001	19.997	102.990	20.275	-0.031	-0.015
2.000	108.528	79.999	19.996	102.992	20.274	0.000	-0.014
3.999	108.472	80.000	19.996	102.991	20.276	-0.101	-0.020
5.999	108.458	80.000	19.996	102.990	20.271	0.198	-0.016
7.999	108.464	80.001	19.994	103.018	20.270	0.265	0.000
9.999	108.478	80.001	19.995	103.049	20.268	0.413	0.007
11.999	108.546	80.001	19.994	103.067	20.266	0.501	0.000
13.999	108.594	80.001	19.995	103.068	20.261	0.862	0.035
16.000	108.677	80.002	19.995	103.098	20.257	1.091	0.072
18.000	108.762	80.001	19.997	103.115	20.255	1.250	0.051
20.000	108.838	80.002	19.996	103.121	20.251	1.517	0.081
22.000	108.964	80.000	19.995	103.134	20.252	1.437	0.059
24.000	109.140	80.001	19.994	103.119	20.255	1.261	0.092
26.000	109.278	80.001	19.995	103.105	20.254	1.333	0.098
28.000	109.454	80.001	19.995	103.115	20.254	1.340	0.121
30.000	109.644	80.000	19.995	103.141	20.248	1.708	0.099
32.000	109.896	80.001	19.994	103.152	20.244	1.949	0.140
34.000	110.140	80.002	19.995	103.158	20.247	1.785	0.153
35.999	110.395	80.003	19.994	103.166	20.246	1.839	0.129
37.999	110.698	80.004	19.995	103.163	20.240	2.247	0.168
39.999	110.988	80.004	19.995	103.183	20.237	2.390	0.137
42.001	111.336	80.003	19.995	103.186	20.236	2.483	0.199
43.999	111.650	80.003	19.995	103.207	20.234	2.639	0.179
45.999	112.023	80.003	19.996	103.213	20.233	2.655	0.181
47.999	112.443	80.001	19.996	103.219	20.231	2.809	0.220
50.001	112.857	80.001	19.995	103.225	20.231	2.818	0.214
52.000	113.302	80.001	19.997	103.225	20.228	2.986	0.211
53.999	113.799	80.001	19.997	103.231	20.227	3.048	0.239
55.999	114.305	80.000	19.996	103.230	20.225	3.210	0.260
57.999	114.834	80.001	19.995	103.233	20.224	3.268	0.267
59.999	115.381	80.001	19.997	103.241	20.222	3.400	0.291
61.999	115.932	80.000	19.995	103.248	20.224	3.269	0.272
63.999	116.515	80.002	19.996	103.260	20.222	3.387	0.280
65.999	117.171	80.001	19.997	103.265	20.221	3.473	0.300
67.999	117.820	80.001	19.997	103.260	20.220	3.497	0.340
69.999	118.457	80.001	19.996	103.262	20.216	3.811	0.341
71.999	119.146	80.000	19.996	103.261	20.219	3.613	0.334
73.999	119.868	80.000	19.996	103.252	20.222	3.367	0.365
76.001	120.558	79.999	19.996	103.267	20.219	3.620	0.336
77.999	121.329	79.999	19.996	103.259	20.219	3.596	0.418
79.999	122.087	79.999	19.997	103.267	20.220	3.537	0.397
82.000	122.851	79.998	19.996	103.268	20.220	3.522	0.385
83.999	123.635	79.999	19.997	103.260	20.218	3.651	0.386
86.000	124.406	80.000	19.996	103.265	20.222	3.405	0.370
87.999	125.257	80.001	19.997	103.265	20.223	3.358	0.387
89.999	126.087	80.000	19.996	103.265	20.224	3.284	0.406
91.999	126.971	80.001	19.996	103.265	20.221	3.461	0.424
93.999	127.795	80.001	19.994	103.264	20.224	3.279	0.412
95.999	128.680	80.003	19.995	103.268	20.225	3.199	0.423
97.999	129.526	80.003	19.995	103.268	20.219	3.600	0.436
99.999	130.424	80.003	19.995	103.269	20.218	3.685	0.431
101.999	131.330	80.002	19.994	103.268	20.219	3.613	0.441
103.999	132.235	80.002	19.996	103.267	20.220	3.542	0.453
105.999	133.170	80.001	19.994	103.266	20.219	3.571	0.467
107.999	134.080	80.003	19.995	103.265	20.217	3.714	0.474
109.999	135.019	80.001	19.995	103.266	20.219	3.566	0.494
111.999	135.940	80.002	19.996	103.265	20.219	3.560	0.452
113.999	136.894	80.002	19.995	103.265	20.221	3.488	0.489
115.999	137.830	80.004	19.994	103.263	20.219	3.623	0.439
117.999	138.801	80.004	19.995	103.265	20.221	3.450	0.477
119.999	139.782	80.004	19.993	103.259	20.220	3.557	0.492
122.000	140.766	80.004	19.994	103.259	20.222	3.389	0.479
123.999	141.742	80.004	19.995	103.263	20.221	3.493	0.501
126.000	142.746	80.003	19.995	103.262	20.221	3.473	0.496
128.000	143.736	80.004	19.995	103.258	20.222	3.412	0.501
130.000	144.763	80.002	19.995	103.257	20.219	3.572	0.510
132.000	145.704	80.003	19.995	103.262	20.225	3.228	0.467
134.000	146.756	80.001	19.995	103.256	20.225	3.218	0.518
136.000	147.757	80.001	19.995	103.252	20.227	3.070	0.535
138.000	148.778	80.000	19.995	103.250	20.223	3.312	0.494
140.000	149.765	80.002	19.995	103.245	20.220	3.538	0.526
142.000	150.811	80.000	19.996	103.248	20.224	3.274	0.506
144.000	151.811	80.001	19.996	103.242	20.222	3.364	0.497
146.000	152.855	80.002	19.996	103.243	20.221	3.462	0.543
148.000	153.854	80.000	19.996	103.241	20.223	3.325	0.521
150.000	154.852	80.001	19.995	103.244	20.222	3.390	0.519
152.000	155.805	79.999	19.995	103.230	20.222	3.370	0.493
154.000	156.820	80.000	19.995	103.234	20.221	3.433	0.502
156.000	157.839	80.000	19.996	103.234	20.220	3.545	0.518
158.000	158.876	80.000	19.995	103.236	20.222	3.373	0.511
160.000	159.835	80.000	19.996	103.233	20.223	3.352	0.496
162.000	160.866	80.001	19.995	103.238	20.225	3.214	0.541
164.000	161.844	80.000	19.995	103.231	20.224	3.277	0.507
166.000	162.859	80.001	19.996	103.230	20.222	3.409	0.499
168.000	163.869	79.999	19.995	103.226	20.224	3.234	0.494
170.000	164.839	79.999	19.997	103.227	20.224	3.243	0.473
172.000	165.951	80.001	19.996	103.227	20.223	3.315	0.521
174.000	166.909	80.001	19.996	103.225	20.224	3.232	0.504
176.000	167.935	80.002	19.997	103.223	20.226	3.110	0.493
178.000	168.933	80.003	19.996	103.224	20.225	3.182	0.492
180.000	169.962	80.002	19.997	103.223	20.226	3.162	0.495
182.000	170.939	80.001	19.996	103.222	20.226	3.126	0.489
184.000	171.938	80.001	19.994	103.221	20.224	3.232	0.508
186.000	172.955	80.002	19.994	103.222	20.222	3.366	0.490
188.000	173.971	80.003	19.995	103.223	20.227	3.041	0.502
190.000	174.977	80.002	19.996	103.222	20.228	3.023	0.483
192.000	175.932	80.002	19.996	103.222	20.226	3.137	0.481
194.000	176.905	80.002	19.995	103.215	20.226	3.156	0.470
196.000	177.903	80.003	19.995	103.222	20.226	3.135	0.478
198.000	178.879	80.003	19.994	103.223	20.224	3.286	0.501
200.000	179.871	80.002	19.995	103.225	20.224	3.252	0.498
202.000	180.891	80.003	19.994	103.226	20.224	3.259	0.482
204.000	181.888	80.003	19.994	103.222	20.220	3.497	0.492
206.000	182.871	80.002	19.994	103.221	20.222	3.364	0.515
208.000	183.819	80.002	19.994	103.214	20.227	3.089	0.461
210.000	184.816	80.002	19.994	103.219	20.227	3.073	0.474
212.000	185.824	80.001	19.995	103.219	20.226	3.140	0.493
214.000	186.796	80.001	19.995	103.223	20.220	3.539	0.505
216.000	187.766	80.000	19.994	103.218	20.221	3.438	0.432
218.000	188.735	80.002	19.994	103.224	20.222	3.378	0.452
220.000	189.722	80.001	19.995	103.214	20.223	3.326	0.479
222.000	190.732	80.001	19.995	103.206	20.222	3.381	0.535
224.000	191.701	80.000	19.994	103.206	20.222	3.397	0.467
226.000	192.679	80.002	19.995	103.213	20.221	3.452	0.527
228.000	193.627	80.001	19.995	103.205	20.220	3.522	0.455
230.000	194.611	80.001	19.995	103.207	20.220	3.553	0.491
232.000	195.564	80.000	19.995	103.207	20.220	3.520	0.489
234.000	196.551	80.002	19.995	103.195	20.222	3.403	0.498
236.000	197.514	79.999	19.996	103.201	20.218	3.630	0.456
238.000	198.514	80.000	19.996	103.207	20.223	3.345	0.484
240.000	199.450	80.001	19.995	103.198	20.223	3.311	0.459
242.000	200.435	80.001	19.996	103.194	20.222	3.425	0.499
244.000	201.378	79.999	19.995	103.194	20.218	3.683	0.480
246.000	202.375	80.000	19.995	103.196	20.223	3.350	0.519
248.000	203.323	80.000	19.996	103.203	20.221	3.490	0.471
250.000	204.282	80.002	19.996	103.194	20.219	3.562	0.461
252.000	205.275	80.000	19.996	103.191	20.218	3.655	0.478
254.000	206.239	80.001	19.996	103.203	20.219	3.614	0.470
256.000	207.222	80.002	19.996	103.193	20.219	3.566	0.468
258.000	208.166	80.002	19.997	103.194	20.218	3.676	0.503
260.000	209.114	80.002	19.995	103.202	20.219	3.567	0.435
262.000	210.083	80.002	19.996	103.197	20.217	3.713	0.504
264.000	211.061	80.001	19.996	103.196	20.218	3.661	0.471
266.000	212.027	80.001	19.997	103.206	20.218	3.668	0.462
268.000	212.993	80.000	19.996	103.206	20.212	4.026	0.504
270.000	213.966	80.001	19.996	103.200	20.215	3.831	0.482
272.000	214.936	80.001	19.996	103.192	20.218	3.654	0.470
274.000	215.932	80.001	19.995	103.212	20.214	3.910	0.485
276.000	216.910	80.003	19.996	103.194	20.213	3.976	0.489
278.000	217.911	80.003	19.995	103.211	20.217	3.717	0.487
280.000	218.841	80.002	19.995	103.205	20.213	3.984	0.463
282.000	219.814	80.003	19.994	103.199	20.209	4.244	0.464
284.000	220.829	80.002	19.994	103.196	20.209	4.213	0.494
286.000	221.800	80.004	19.995	103.203	20.210	4.145	0.516
288.000	222.781	80.002	19.994	103.222	20.213	4.007	0.514
290.000	223.721	80.002	19.995	103.198	20.212	4.039	0.487
292.000	224.754	80.001	19.994	103.195	20.210	4.166	0.484
294.000	225.768	80.001	19.996	103.193	20.209	4.243	0.533
296.000	226.685	80.002	19.995	103.205	20.209	4.233	0.458
298.000	227.674	80.000	19.995	103.195	20.207	4.355	0.472
300.000	228.714	80.001	19.995	103.191	20.208	4.279	0.507
302.000	229.745	80.001	19.995	103.191	20.207	4.368	0.520
304.000	230.771	80.001	19.994	103.189	20.205	4.510	0.522
306.000	231.729	80.001	19.996	103.190	20.203	4.664	0.493
308.000	232.704	80.002	19.995	103.195	20.204	4.573	0.474
310.000	233.745	80.002	19.995	103.191	20.201	4.736	0.516
312.000	234.717	80.002	19.994	103.191	20.202	4.683	0.517
314.000	235.725	80.002	19.995	103.193	20.203	4.644	0.488
316.000	236.675	80.002	19.994	103.191	20.204	4.595	0.485
318.000	237.668	80.001	19.994	103.188	20.197	4.994	0.512
320.000	238.667	80.001	19.996	103.188	20.201	4.790	0.506
322.000	239.634	80.000	19.995	103.187	20.201	4.774	0.447
324.000	240.640	80.001	19.995	103.187	20.195	5.154	0.500
326.000	241.639	80.000	19.996	103.188	20.194	5.192	0.478
328.000	242.670	80.001	19.996	103.188	20.198	4.987	0.496
330.000	243.637	80.000	19.996	103.188	20.195	5.125	0.508
332.000	244.620	80.001	19.996	103.188	20.198	4.987	0.483
334.000	245.580	80.001	19.995	103.190	20.192	5.329	0.536
336.000	246.604	80.001	19.995	103.190	20.194	5.241	0.479
338.000	247.550	80.004	19.995	103.188	20.195	5.142	0.479
340.000	248.532	80.002	19.995	103.188	20.194	5.243	0.456
342.000	249.615	80.002	19.995	103.187	20.191	5.434	0.541
344.000	250.608	80.003	19.995	103.189	20.191	5.387	0.504
346.000	251.620	80.001	19.995	103.190	20.194	5.214	0.511
348.000	252.648	80.002	19.995	103.190	20.194	5.221	0.532
350.000	253.615	80.002	19.996	103.189	20.192	5.331	0.501
352.000	254.560	80.001	19.996	103.191	20.189	5.570	0.501
354.000	255.550	80.002	19.996	103.187	20.189	5.518	0.516
356.000	256.505	80.001	19.997	103.190	20.188	5.607	0.494
358.000	257.449	80.001	19.996	103.187	20.190	5.493	0.499
360.000	258.453	80.002	19.996	103.183	20.189	5.532	0.510
362.000	259.415	80.004	19.997	103.173	20.187	5.688	0.482
364.000	260.348	80.002	19.997	103.179	20.188	5.603	0.447
366.000	261.320	80.003	19.996	103.181	20.185	5.818	0.464
368.000	262.243	80.003	19.996	103.180	20.183	5.924	0.464
370.000	263.177	80.003	19.994	103.175	20.183	5.935	0.453
372.000	264.143	80.002	19.995	103.179	20.180	6.121	0.475
374.000	265.129	80.002	19.995	103.185	20.181	6.087	0.461
376.000	266.113	80.002	19.996	103.183	20.179	6.206	0.458
378.000	267.066	80.001	19.995	103.185	20.177	6.343	0.516
380.000	268.056	80.002	19.995	103.181	20.177	6.318	0.497
382.000	269.016	80.001	19.995	103.183	20.177	6.309	0.465
384.000	269.995	80.002	19.995	103.185	20.175	6.444	0.503
386.000	271.008	80.002	19.994	103.187	20.178	6.279	0.510
388.000	271.962	80.001	19.995	103.186	20.179	6.204	0.500
390.000	272.969	80.001	19.995	103.182	20.179	6.165	0.498
392.000	273.979	80.002	19.995	103.183	20.178	6.275	0.476
394.000	274.944	80.001	19.995	103.187	20.177	6.295	0.515
396.000	275.944	80.002	19.995	103.177	20.173	6.557	0.503
398.000	276.874	80.001	19.995	103.186	20.177	6.337	0.457
400.000	277.880	80.000	19.994	103.188	20.174	6.500	0.484
402.000	278.886	80.002	19.995	103.184	20.176	6.359	0.506
404.000	279.868	80.001	19.994	103.179	20.174	6.494	0.515
406.000	280.828	80.000	19.995	103.176	20.176	6.388	0.479
408.000	281.836	80.000	19.995	103.177	20.172	6.650	0.497
410.000	282.826	79.999	19.995	103.188	20.172	6.640	0.502
412.000	283.835	80.001	19.995	103.181	20.172	6.660	0.502
414.000	284.775	79.999	19.994	103.175	20.174	6.534	0.457
416.000	285.831	80.002	19.996	103.179	20.172	6.661	0.515
418.000	286.808	80.002	19.995	103.177	20.170	6.759	0.499
420.000	287.847	80.002	19.994	103.181	20.172	6.630	0.556
422.000	288.810	80.002	19.995	103.166	20.172	6.666	0.477
424.000	289.846	80.003	19.995	103.173	20.166	7.029	0.514
426.000	290.857	80.002	19.996	103.170	20.169	6.840	0.529
428.000	291.866	80.001	19.995	103.167	20.166	7.038	0.527
430.000	292.830	80.001	19.996	103.170	20.167	6.976	0.478
432.000	293.822	80.002	19.995	103.161	20.167	6.980	0.520
434.000	294.847	80.003	19.996	103.161	20.168	6.910	0.495
436.000	295.873	80.002	19.996	103.167	20.168	6.882	0.499
438.000	296.869	80.002	19.996	103.167	20.167	6.978	0.522
440.000	297.886	80.002	19.995	103.151	20.169	6.863	0.508
442.000	298.849	80.005	19.995	103.159	20.162	7.309	0.465
444.000	299.843	80.004	19.996	103.169	20.163	7.262	0.472
446.000	300.871	80.004	19.995	103.163	20.169	6.865	0.498
448.000	301.855	80.003	19.997	103.149	20.166	7.030	0.504
450.000	302.869	80.003	19.996	103.159	20.166	7.023	0.503
452.000	303.874	80.001	19.996	103.166	20.166	7.025	0.504
454.000	304.864	80.002	19.996	103.161	20.168	6.922	0.473
456.000	305.866	80.002	19.996	103.156	20.169	6.874	0.486
458.000	306.869	80.001	19.995	103.158	20.168	6.898	0.497
460.000	307.871	80.000	19.995	103.155	20.171	6.747	0.493
462.000	308.889	80.000	19.994	103.155	20.170	6.812	0.511
464.000	309.895	80.000	19.994	103.163	20.169	6.828	0.498
466.000	310.913	80.001	19.994	103.158	20.169	6.873	0.510
468.000	311.934	80.002	19.994	103.156	20.170	6.804	0.488
470.000	312.940	80.002	19.994	103.159	20.168	6.931	0.511
472.000	313.975	80.001	19.995	103.157	20.167	6.981	0.502
474.000	314.915	80.002	19.995	103.153	20.169	6.857	0.492
476.000	315.920	80.001	19.994	103.158	20.167	6.956	0.490
478.000	316.926	80.001	19.994	103.151	20.171	6.689	0.482
480.000	317.938	80.001	19.994	103.151	20.167	6.958	0.524
482.000	318.949	80.000	19.994	103.149	20.164	7.174	0.552
484.000	319.884	79.999	19.994	103.153	20.168	6.933	0.481
486.000	320.902	80.001	19.995	103.152	20.168	6.918	0.495
488.000	321.897	80.000	19.995	103.154	20.169	6.870	0.503
490.000	322.887	80.001	19.995	103.155	20.165	7.077	0.509
492.000	323.901	80.001	19.995	103.156	20.165	7.095	0.509
494.000	324.887	80.001	19.996	103.156	20.167	7.003	0.475
496.000	325.846	80.001	19.995	103.160	20.165	7.095	0.462
498.000	326.878	80.004	19.995	103.154	20.167	6.978	0.504
500.000	327.900	80.003	19.995	103.151	20.169	6.868	0.511
502.000	328.905	80.003	19.995	103.161	20.166	7.067	0.513
504.000	329.902	80.003	19.995	103.151	20.167	6.988	0.483
506.000	330.957	80.003	19.995	103.149	20.164	7.203	0.511
508.000	331.961	80.001	19.995	103.157	20.169	6.873	0.500
510.000	333.050	80.001	19.996	103.152	20.165	7.122	0.548
512.000	334.090	80.003	19.995	103.150	20.168	6.907	0.547
514.000	335.118	80.003	19.996	103.146	20.164	7.172	0.515
516.000	336.138	80.002	19.996	103.147	20.165	7.113	0.524
518.000	337.184	80.002	19.995	103.146	20.165	7.084	0.525
520.000	338.210	80.003	19.995	103.147	20.169	6.869	0.551
522.000	339.214	80.003	19.994	103.149	20.165	7.091	0.523
524.000	340.242	80.002	19.995	103.148	20.166	7.073	0.518
526.000	341.267	80.005	19.995	103.149	20.167	6.943	0.500
528.000	342.312	80.003	19.995	103.149	20.166	7.044	0.533
530.000	343.305	80.003	19.995	103.151	20.166	7.040	0.514
532.000	344.315	80.003	19.994	103.152	20.165	7.108	0.515
534.000	345.353	80.001	19.995	103.150	20.164	7.160	0.544
536.000	346.357	80.001	19.995	103.152	20.162	7.316	0.528
538.000	347.351	80.001	19.996	103.150	20.162	7.270	0.522
540.000	348.401	80.000	19.995	103.150	20.163	7.244	0.526
542.000	349.394	80.000	19.997	103.141	20.162	7.293	0.517
544.000	350.379	80.000	19.995	103.140	20.159	7.486	0.503
546.000	351.363	80.000	19.996	103.135	20.161	7.338	0.487
548.000	352.354	80.001	19.997	103.149	20.158	7.556	0.503
550.000	353.369	80.000	19.996	103.151	20.160	7.403	0.522
552.000	354.388	80.001	19.996	103.146	20.159	7.511	0.530
554.000	355.307	80.002	19.995	103.142	20.159	7.472	0.471
556.000	356.294	80.001	19.995	103.141	20.156	7.703	0.440
558.000	357.252	80.002	19.995	103.146	20.157	7.621	0.461
560.000	358.208	80.001	19.995	103.147	20.156	7.690	0.486
562.000	359.179	80.002	19.994	103.142	20.152	7.946	0.445
564.000	360.123	80.002	19.995	103.143	20.144	8.462	0.438
566.000	361.088	80.001	19.996	103.139	20.155	7.761	0.533
568.000	362.127	80.001	19.996	103.138	20.143	8.541	0.472
570.000	363.010	80.000	19.995	103.143	20.141	8.654	0.477
572.000	364.069	80.001	19.995	103.146	20.139	8.811	0.466
574.000	365.025	80.001	19.995	103.143	20.134	9.123	0.549
576.000	365.888	80.002	19.996	103.135	20.134	9.133	0.386
578.000	366.684	80.002	19.995	103.143	20.126	9.666	0.075
580.000	367.952	80.003	19.995	103.146	20.121	9.942	0.576
582.000	368.852	80.003	19.995	103.146	20.115	10.344	0.341
584.000	369.952	80.003	19.995	103.147	20.110	10.691	0.481
586.000	370.817	80.003	19.994	103.141	20.105	10.984	0.501
588.000	371.795	80.003	19.995	103.138	20.102	11.238	0.410
590.000	372.801	80.002	19.995	103.145	20.095	11.660	0.497
592.000	373.814	80.002	19.994	103.149	20.086	12.245	0.500
594.000	374.810	80.002	19.995	103.151	20.075	12.974	0.510
596.000	375.802	80.002	19.994	103.148	20.067	13.492	0.469
598.000	376.772	80.002	19.995	103.137	20.060	13.957	0.466
600.000	377.757	80.002	19.996	103.132	20.056	14.186	0.476
602.000	378.738	80.003	19.995	103.115	20.057	14.118	0.480
604.000	379.693	80.004	19.996	103.117	20.052	14.455	0.459
606.000	380.680	80.003	19.995	103.134	20.045	14.938	0.472
608.000	381.733	80.003	19.994	103.154	20.038	15.348	0.519
610.000	382.682	80.003	19.995	103.151	20.023	16.368	0.486
612.000	383.681	80.003	19.995	103.154	20.005	17.532	0.485
614.000	384.738	80.002	19.995	103.151	19.989	18.553	0.521
616.000	385.736	80.001	19.995	103.142	19.976	19.408	0.518
618.000	386.662	80.000	19.994	103.122	19.966	20.061	0.481
620.000	387.738	80.001	19.995	103.138	19.948	21.228	0.487
622.000	388.774	80.001	19.995	103.150	19.928	22.555	0.494
624.000	389.817	80.001	19.996	103.161	19.917	23.296	0.526
626.000	390.808	80.000	19.995	103.135	19.914	23.439	0.517
628.000	391.821	80.001	19.995	103.110	19.904	24.119	0.538
630.000	392.842	80.001	19.996	103.136	19.876	25.929	0.492
632.000	393.907	80.000	19.996	103.174	19.856	27.253	0.519
634.000	394.904	80.001	19.996	103.159	19.826	29.191	0.487
636.000	395.958	80.001	19.996	103.166	19.799	30.969	0.516
638.000	396.977	80.001	19.996	103.127	19.777	32.364	0.519
640.000	397.939	80.001	19.996	103.130	19.750	34.156	0.491
642.000	398.950	80.001	19.997	103.158	19.713	36.573	0.488
644.000	399.974	80.000	19.997	103.144	19.674	39.121	0.515
646.000	400.978	80.001	19.996	103.174	19.625	42.271	0.508
648.000	401.984	80.001	19.994	103.174	19.568	46.028	0.524
650.000	403.009	80.001	19.995	103.180	19.501	50.374	0.522
652.000	404.066	80.000	19.996	103.186	19.448	53.813	0.535
654.000	405.059	80.000	19.996	103.155	19.378	58.375	0.531
656.000	406.072	80.000	19.994	103.159	19.300	63.506	0.504
658.000	407.102	80.002	19.995	103.177	19.228	68.146	0.531
660.000	408.109	80.003	19.995	103.193	19.133	74.363	0.499
662.000	409.172	80.003	19.994	103.215	19.031	81.022	0.516
664.000	410.217	80.002	19.995	103.183	18.929	87.686	0.526
666.000	411.251	80.003	19.995	103.193	18.825	94.462	0.543
668.000	412.284	80.001	19.994	103.186	18.708	102.062	0.501
670.000	413.259	80.002	19.994	103.204	18.581	110.373	0.460
672.000	414.289	80.002	19.994	103.226	18.447	119.127	0.495
674.000	415.319	80.001	19.995	103.235	18.296	129.033	0.499
676.000	416.305	80.001	19.994	103.253	18.137	139.396	0.482
678.000	417.343	80.003	19.995	103.236	17.983	149.392	0.504
680.000	418.335	80.003	19.994	103.226	17.816	160.307	0.507
682.000	419.355	80.002	19.995	103.228	17.645	171.529	0.505
684.000	420.402	80.002	19.994	103.239	17.460	183.623	0.525
686.000	421.396	80.005	19.994	103.263	17.271	195.923	0.530
688.000	422.445	80.005	19.993	103.246	17.067	209.080	0.523
690.000	423.411	80.005	19.994	103.270	16.844	223.627	0.509
692.000	424.396	80.004	19.994	103.288	16.590	240.329	0.468
694.000	425.408	80.002	19.994	103.312	16.335	257.105	0.512
696.000	426.414	80.002	19.995	103.312	16.102	272.283	0.493
698.000	427.414	80.002	19.997	103.236	15.889	286.023	0.514
700.000	428.424	80.002	19.995	103.221	15.674	299.895	0.495
702.000	429.403	80.001	19.996	103.232	15.436	315.316	0.480
704.000	430.395	80.000	19.996	103.336	15.189	331.596	0.503
706.000	431.368	80.002	19.996	103.344	14.944	347.625	0.484
708.000	432.381	80.002	19.994	103.307	14.721	362.216	0.495
710.000	433.338	80.001	19.996	103.244	14.515	375.671	0.461
712.000	434.361	80.003	19.996	103.186	14.332	387.732	0.524
714.000	435.301	80.001	19.996	103.214	14.165	398.688	0.476
716.000	436.308	80.001	19.995	103.249	14.029	407.384	0.475
718.000	437.280	80.001	19.996	103.276	13.903	415.492	0.477
720.000	438.216	80.001	19.995	103.261	13.776	424.020	0.451
722.000	439.149	80.002	19.997	103.320	13.669	431.280	0.463
724.000	440.176	80.000	19.995	103.363	13.592	436.500	0.481
726.000	441.131	80.000	19.996	103.341	13.573	437.749	0.468
728.000	442.079	79.999	19.996	103.280	13.602	435.944	0.489
730.000	443.042	80.000	19.996	103.270	13.652	432.644	0.488
732.000	444.025	80.000	19.996	103.320	13.726	427.878	0.482
734.000	445.022	79.999	19.996	103.402	13.826	421.386	0.508
736.000	446.011	80.001	19.996	103.453	13.945	413.631	0.472
738.000	447.010	80.000	19.996	103.453	14.084	404.454	0.491
740.000	448.045	80.002	19.994	103.439	14.248	393.773	0.511
742.000	449.041	80.001	19.994	103.460	14.425	382.108	0.507
744.000	450.068	80.003	19.994	103.466	14.623	369.209	0.521
746.000	451.113	80.002	19.995	103.473	14.838	355.064	0.506
748.000	452.215	80.002	19.994	103.474	15.069	339.901	0.520
750.000	453.232	80.002	19.995	103.458	15.306	324.328	0.531
752.000	454.317	80.003	19.996	103.451	15.549	308.380	0.535
754.000	455.414	80.003	19.994	103.452	15.792	292.524	0.537
756.000	456.455	80.001	19.994	103.419	16.030	276.896	0.517
758.000	457.513	80.002	19.995	103.403	16.267	261.453	0.516
760.000	458.624	80.003	19.996	103.390	16.492	246.697	0.552
762.000	459.680	80.005	19.995	103.348	16.719	231.855	0.533
764.000	460.709	80.003	19.995	103.335	16.934	217.855	0.521
766.000	461.793	80.005	19.995	103.323	17.150	203.751	0.544
768.000	462.850	80.004	19.996	103.302	17.353	190.473	0.532
770.000	463.873	80.004	19.995	103.297	17.540	178.265	0.522
772.000	464.840	80.003	19.996	103.287	17.715	166.824	0.495
774.000	465.837	80.003	19.995	103.269	17.881	156.022	0.475
776.000	466.904	80.002	19.995	103.263	18.033	146.095	0.512
778.000	467.886	80.002	19.994	103.251	18.168	137.256	0.488
780.000	468.890	80.001	19.995	103.245	18.299	128.744	0.506
782.000	469.932	80.001	19.995	103.230	18.425	120.492	0.517
784.000	470.926	80.001	19.995	103.225	18.540	112.988	0.495
786.000	471.963	79.999	19.995	103.204	18.646	106.072	0.522
788.000	472.949	80.001	19.996	103.194	18.745	99.624	0.499
790.000	473.958	80.001	19.994	103.189	18.844	93.209	0.511
792.000	474.965	80.002	19.996	103.180	18.933	87.368	0.520
794.000	475.960	80.001	19.996	103.166	19.017	81.946	0.492
796.000	476.930	80.001	19.995	103.179	19.092	77.009	0.497
798.000	477.885	80.002	19.995	103.172	19.166	72.176	0.491
800.000	478.865	80.001	19.995	103.176	19.236	67.621	0.492
802.000	479.839	80.001	19.995	103.164	19.305	63.114	0.500
804.000	480.802	80.002	19.995	103.182	19.372	58.780	0.506
806.000	481.753	80.003	19.995	103.165	19.433	54.832	0.484
808.000	482.719	80.001	19.994	103.161	19.498	50.580	0.465
810.000	483.648	80.001	19.995	103.166	19.556	46.802	0.477
812.000	484.592	80.000	19.996	103.167	19.608	43.389	0.458
814.000	485.576	80.001	19.996	103.159	19.658	40.140	0.473
816.000	486.508	80.001	19.996	103.182	19.709	36.799	0.455
818.000	487.456	80.001	19.996	103.164	19.756	33.776	0.473
820.000	488.425	80.001	19.997	103.149	19.799	30.931	0.483
822.000	489.394	80.002	19.996	103.147	19.841	28.206	0.501
824.000	490.328	80.003	19.996	103.146	19.881	25.620	0.482
826.000	491.293	80.002	19.995	103.142	19.920	23.046	0.474
828.000	492.231	80.002	19.995	103.143	19.953	20.885	0.457
830.000	493.189	80.003	19.995	103.128	19.993	18.332	0.466
832.000	494.175	80.003	19.995	103.128	20.026	16.190	0.500
834.000	495.186	80.002	19.995	103.122	20.056	14.205	0.493
836.000	496.135	80.001	19.995	103.135	20.085	12.320	0.498
838.000	497.089	80.001	19.995	103.126	20.106	10.922	0.477
840.000	498.042	80.002	19.995	103.131	20.131	9.315	0.460
842.000	499.002	80.002	19.996	103.129	20.148	8.230	0.461
844.000	499.991	80.004	19.995	103.129	20.163	7.240	0.475
846.000	500.981	80.004	19.994	103.128	20.176	6.391	0.486
848.000	501.962	80.003	19.995	103.124	20.185	5.796	0.513
850.000	502.972	80.003	19.995	103.114	20.195	5.152	0.506
852.000	503.938	80.002	19.994	103.114	20.204	4.566	0.489
854.000	504.926	80.003	19.994	103.109	20.209	4.238	0.478
856.000	505.934	80.003	19.996	103.111	20.213	3.952	0.521
858.000	506.873	80.002	19.994	103.111	20.215	3.824	0.477
860.000	507.886	80.000	19.995	103.112	20.220	3.517	0.479
862.000	508.881	80.001	19.994	103.111	20.220	3.515	0.488
864.000	509.846	80.000	19.995	103.113	20.221	3.452	0.466
866.000	510.863	80.001	19.995	103.113	20.221	3.463	0.482
868.000	511.862	80.002	19.994	103.114	20.221	3.437	0.482
870.000	512.836	80.002	19.994	103.113	20.222	3.394	0.500
872.000	513.837	80.001	19.995	103.114	20.217	3.737	0.508
874.000	514.873	80.002	19.994	103.113	20.219	3.593	0.524
876.000	515.877	80.002	19.995	103.109	20.221	3.474	0.502
878.000	516.891	80.002	19.996	103.097	20.221	3.454	0.523
880.000	517.912	80.002	19.996	103.097	20.218	3.629	0.519
882.000	518.909	80.002	19.996	103.102	20.222	3.380	0.491
884.000	519.922	80.004	19.997	103.110	20.221	3.456	0.515
886.000	520.920	80.001	19.995	103.110	20.221	3.431	0.490
888.000	521.939	80.002	19.997	103.110	20.221	3.481	0.496
890.000	522.967	80.002	19.995	103.114	20.219	3.609	0.493
892.000	524.028	80.000	19.995	103.119	20.223	3.335	0.504
894.000	525.036	80.001	19.995	103.110	20.224	3.272	0.482
896.000	526.077	80.001	19.995	103.112	20.221	3.467	0.499
898.000	527.131	80.001	19.996	103.115	20.224	3.279	0.537
900.000	528.156	80.002	19.996	103.113	20.219	3.588	0.540
902.000	529.204	80.002	19.996	103.112	20.223	3.321	0.517
904.000	530.215	80.002	19.995	103.111	20.224	3.270	0.526
906.000	531.296	80.001	19.995	103.110	20.221	3.458	0.533
908.000	532.305	80.002	19.997	103.109	20.222	3.382	0.507
910.000	533.367	80.002	19.997	103.111	20.222	3.386	0.527
912.000	534.441	80.002	19.996	103.116	20.223	3.328	0.562
914.000	535.494	80.002	19.994	103.111	20.221	3.429	0.540
916.000	536.499	80.002	19.997	103.115	20.225	3.180	0.530
918.000	537.543	80.002	19.996	103.111	20.221	3.487	0.510
920.000	538.621	80.002	19.996	103.111	20.226	3.160	0.533
922.000	539.631	80.003	19.995	103.113	20.223	3.303	0.527
924.000	540.670	80.003	19.995	103.127	20.221	3.479	0.513
926.000	541.771	80.003	19.994	103.120	20.225	3.168	0.536
928.000	542.817	80.004	19.994	103.115	20.223	3.341	0.520
930.000	543.872	80.004	19.994	103.116	20.224	3.245	0.547
932.000	544.918	80.003	19.994	103.124	20.224	3.280	0.532
934.000	545.937	80.004	19.995	103.119	20.226	3.130	0.513
936.000	546.970	80.004	19.995	103.114	20.224	3.290	0.540
938.000	548.052	80.002	19.994	103.116	20.223	3.355	0.508
940.000	549.071	80.003	19.994	103.118	20.222	3.417	0.496
942.000	550.114	80.003	19.996	103.114	20.225	3.164	0.527
944.000	551.186	80.001	19.996	103.123	20.223	3.299	0.539
946.000	552.210	80.001	19.996	103.126	20.223	3.321	0.495
948.000	553.232	80.003	19.994	103.115	20.222	3.368	0.502
950.000	554.285	80.001	19.995	103.116	20.221	3.447	0.518
952.000	555.321	80.002	19.996	103.120	20.224	3.270	0.512
954.000	556.380	80.002	19.994	103.113	20.223	3.299	0.528
956.000	557.405	80.003	19.994	103.111	20.223	3.343	0.539
958.000	558.453	80.003	19.995	103.128	20.222	3.392	0.519
960.000	559.428	80.002	19.993	103.121	20.222	3.424	0.501
962.000	560.490	80.002	19.994	103.116	20.221	3.467	0.568
964.000	561.515	80.002	19.994	103.111	20.224	3.240	0.499
966.000	562.576	80.004	19.995	103.121	20.223	3.294	0.537
968.000	563.611	80.001	19.995	103.128	20.221	3.436	0.551
970.000	564.647	80.002	19.996	103.126	20.221	3.444	0.517
972.000	565.674	80.001	19.994	103.124	20.224	3.269	0.531
974.000	566.672	80.002	19.996	103.125	20.223	3.339	0.506
976.000	567.709	80.000	19.996	103.118	20.222	3.363	0.494
978.000	568.739	80.002	19.997	103.116	20.226	3.161	0.514
980.000	569.745	80.002	19.996	103.114	20.221	3.473	0.488
982.000	570.800	80.003	19.996	103.130	20.223	3.343	0.511
984.000	571.844	80.002	19.996	103.116	20.222	3.386	0.504
986.000	572.827	80.003	19.996	103.129	20.221	3.452	0.476
988.000	573.883	80.003	19.996	103.121	20.221	3.465	0.528
990.000	574.965	80.002	19.995	103.128	20.222	3.414	0.547
992.000	575.939	80.004	19.995	103.124	20.223	3.335	0.513
994.000	576.959	80.001	19.995	103.124	20.221	3.466	0.520
996.000	577.990	80.002	19.995	103.120	20.221	3.436	0.513
998.000	579.000	80.001	19.994	103.115	20.220	3.492	0.511
1000.000	580.038	80.002	19.996	103.113	20.221	3.468	0.498
1002.000	581.067	80.002	19.996	103.111	20.221	3.465	0.508
1004.000	582.115	80.002	19.997	103.118	20.223	3.316	0.521
1006.000	583.167	80.004	19.996	103.133	20.224	3.253	0.530
1008.000	584.173	80.004	19.996	103.119	20.223	3.305	0.523
1010.000	585.235	80.004	19.997	103.135	20.221	3.486	0.549
1012.000	586.256	80.005	19.996	103.129	20.225	3.194	0.519
1014.000	587.334	80.005	19.994	103.112	20.219	3.578	0.521
1016.000	588.351	80.004	19.995	103.127	20.224	3.281	0.506
1018.000	589.424	80.004	19.994	103.121	20.223	3.310	0.527
1020.000	590.465	80.003	19.995	103.112	20.226	3.140	0.511
1022.000	591.456	80.003	19.995	103.110	20.225	3.222	0.463
1024.000	592.554	80.002	19.994	103.110	20.223	3.310	0.521
1026.000	593.523	80.003	19.997	103.107	20.222	3.366	0.493
1027.999	594.581	80.002	19.997	103.109	20.223	3.299	0.513
1029.999	595.608	80.002	19.996	103.108	20.222	3.384	0.513
1031.999	596.651	80.003	19.995	103.110	20.225	3.200	0.507
1033.999	597.673	80.002	19.995	103.110	20.222	3.404	0.522
1035.999	598.644	80.001	19.995	103.110	20.226	3.153	0.510
1037.999	599.584	80.001	19.996	103.111	20.222	3.379	0.464
1039.999	600.555	80.001	19.994	103.122	20.224	3.281	0.500
1041.999	601.584	80.000	19.993	103.112	20.219	3.579	0.510
1043.999	602.506	80.001	19.995	103.112	20.221	3.478	0.481
1045.999	603.500	80.001	19.995	103.112	20.222	3.371	0.496
1047.999	604.461	80.001	19.996	103.115	20.224	3.245	0.534
1049.999	605.419	80.003	19.995	103.117	20.225	3.200	0.473
1051.999	606.405	80.001	19.995	103.121	20.223	3.357	0.506
1054.000	607.417	80.000	19.997	103.119	20.229	2.942	0.524
1055.999	608.358	80.000	19.993	103.112	20.230	2.849	0.498
1057.999	609.399	80.000	19.996	103.118	20.227	3.038	0.546
1059.999	610.352	80.000	19.996	103.121	20.225	3.195	0.498
1061.999	611.316	80.001	19.995	103.124	20.228	3.032	0.508
1063.999	612.313	80.002	19.996	103.119	20.222	3.404	0.463
1066.000	613.261	80.002	19.995	103.118	20.222	3.411	0.426
1067.999	614.314	80.003	19.996	103.119	20.221	3.436	0.511
1070.000	615.326	80.004	19.996	103.132	20.226	3.135	0.507
1071.999	616.360	80.003	19.995	103.119	20.226	3.157	0.466
1074.000	617.349	80.001	19.997	103.120	20.225	3.182	0.512
1075.999	618.333	80.002	19.995	103.124	20.225	3.226	0.491
1077.999	619.347	80.003	19.995	103.124	20.223	3.306	0.512
1079.999	620.393	80.002	19.996	103.125	20.225	3.175	0.530
1081.999	621.409	80.004	19.996	103.135	20.224	3.251	0.501
1083.999	622.461	80.003	19.994	103.131	20.221	3.429	0.512
1085.999	623.496	80.003	19.995	103.135	20.225	3.227	0.537
1087.999	624.541	80.004	19.994	103.118	20.218	3.644	0.533
1089.999	625.584	80.004	19.996	103.119	20.221	3.487	0.527
1091.999	626.556	80.004	19.997	103.130	20.222	3.400	0.514
1093.999	627.666	80.003	19.995	103.118	20.224	3.271	0.518
1095.999	628.687	80.004	19.996	103.121	20.225	3.204	0.501
1097.999	629.708	80.005	19.995	103.109	20.222	3.386	0.534
1099.999	630.744	80.003	19.997	103.119	20.219	3.613	0.505
1101.999	631.707	80.001	19.997	103.113	20.219	3.577	0.491
1104.000	632.756	80.000	19.995	103.125	20.224	3.236	0.508
1105.999	633.766	80.001	19.995	103.120	20.218	3.658	0.528
1108.000	634.810	80.001	19.995	103.121	20.219	3.604	0.524
1109.999	635.858	80.001	19.994	103.118	20.218	3.630	0.537
1111.999	636.858	80.001	19.993	103.118	20.220	3.516	0.510
1113.999	637.835	80.002	19.994	103.113	20.219	3.606	0.504
1115.999	638.847	80.001	19.996	103.113	20.219	3.592	0.502
1118.000	639.909	80.002	19.994	103.120	20.218	3.675	0.551
1119.999	640.906	80.002	19.994	103.118	20.217	3.704	0.535
1121.999	641.897	80.001	19.996	103.136	20.216	3.792	0.517
1123.999	642.955	80.002	19.995	103.115	20.217	3.696	0.522
1125.999	644.003	80.001	19.994	103.121	20.214	3.881	0.488
1128.000	644.996	80.002	19.995	103.134	20.218	3.644	0.507
1129.999	646.040	80.001	19.997	103.135	20.216	3.772	0.512
1131.999	647.075	80.002	19.996	103.142	20.213	3.972	0.548
1133.999	648.083	80.001	19.996	103.125	20.214	3.924	0.493
1135.999	649.150	80.001	19.996	103.116	20.214	3.909	0.525
1137.999	650.203	80.003	19.997	103.110	20.218	3.674	0.542
1139.999	651.177	80.002	19.994	103.120	20.218	3.665	0.473
1142.000	652.278	80.002	19.995	103.120	20.217	3.738	0.518
1143.999	653.271	80.003	19.995	103.128	20.217	3.701	0.511
1145.999	654.264	80.003	19.994	103.123	20.216	3.757	0.486
1147.999	655.334	80.004	19.995	103.127	20.220	3.498	0.538
1149.999	656.390	80.004	19.996	103.114	20.216	3.792	0.548
1152.000	657.374	80.003	19.996	103.124	20.218	3.666	0.508
1153.999	658.407	80.004	19.994	103.111	20.214	3.911	0.544
1155.999	659.363	80.002	19.994	103.115	20.215	3.824	0.508
1158.000	660.371	80.002	19.996	103.117	20.216	3.790	0.496
1159.999	661.361	80.001	19.995	103.124	20.216	3.807	0.475
1161.999	662.393	80.002	19.995	103.138	20.211	4.100	0.487
1163.999	663.381	80.002	19.995	103.126	20.212	4.029	0.488
1166.000	664.375	80.003	19.996	103.117	20.217	3.693	0.480
1168.000	665.345	80.003	19.996	103.131	20.213	3.977	0.480
1169.999	666.313	80.003	19.996	103.132	20.215	3.859	0.482
1171.999	667.308	80.004	19.997	103.132	20.214	3.894	0.511
1173.999	668.255	80.004	19.994	103.122	20.215	3.848	0.478
1175.999	669.216	80.003	19.994	103.125	20.213	3.951	0.505
1177.999	670.217	80.004	19.995	103.125	20.213	3.996	0.517
1179.999	671.188	80.004	19.995	103.128	20.208	4.324	0.449
1182.000	672.210	80.002	19.995	103.125	20.207	4.365	0.492
1183.999	673.186	79.999	19.996	103.126	20.211	4.120	0.516
1185.999	674.174	79.999	19.996	103.130	20.209	4.221	0.487
1187.999	675.226	79.999	19.997	103.131	20.214	3.910	0.537
1189.999	676.217	80.000	19.998	103.136	20.212	4.061	0.492
1192.000	677.177	80.000	19.996	103.126	20.210	4.161	0.480
1193.999	678.184	80.000	19.996	103.128	20.210	4.203	0.535
1195.999	679.157	80.001	19.996	103.138	20.210	4.159	0.493
1198.000	680.150	80.000	19.996	103.129	20.215	3.851	0.487
1199.999	681.157	80.002	19.995	103.106	20.211	4.084	0.522
1202.000	682.154	80.001	19.995	103.114	20.212	4.070	0.485
1203.999	683.139	80.002	19.996	103.122	20.211	4.101	0.490
1205.999	684.134	80.002	19.996	103.125	20.211	4.089	0.500
1208.001	685.178	80.001	19.995	103.119	20.211	4.098	0.523
1209.999	686.168	80.002	19.995	103.130	20.210	4.187	0.509
1211.999	687.236	80.003	19.995	103.132	20.211	4.124	0.568
1213.999	688.170	80.001	19.996	103.137	20.211	4.103	0.497
1215.999	689.212	80.001	19.996	103.130	20.210	4.148	0.512
1217.999	690.241	80.002	19.995	103.125	20.209	4.216	0.488
1219.999	691.272	80.001	19.996	103.133	20.208	4.319	0.519
1222.000	692.365	80.001	19.996	103.135	20.211	4.131	0.531
1223.999	693.474	80.002	19.995	103.136	20.209	4.214	0.560
1225.999	694.594	80.001	19.995	103.143	20.209	4.270	0.572
1227.999	695.683	80.003	19.995	103.146	20.209	4.216	0.552
1229.999	696.845	80.004	19.994	103.147	20.211	4.113	0.583
1231.999	697.958	80.004	19.994	103.137	20.205	4.476	0.562
1233.999	699.098	80.003	19.995	103.135	20.206	4.426	0.553
1235.999	700.249	80.004	19.994	103.147	20.208	4.305	0.532
1237.999	701.404	80.004	19.994	103.146	20.205	4.469	0.593
1240.000	702.587	80.002	19.994	103.133	20.210	4.149	0.612
1241.999	703.734	80.003	19.994	103.146	20.210	4.159	0.609
1243.999	704.860	80.003	19.995	103.149	20.208	4.301	0.566
1245.999	706.022	80.003	19.996	103.143	20.204	4.546	0.598
1247.999	707.202	80.002	19.995	103.141	20.212	4.043	0.587
1249.999	708.320	80.002	19.995	103.136	20.207	4.392	0.575
1251.999	709.472	80.004	19.996	103.148	20.206	4.467	0.568
1253.999	710.653	80.005	19.996	103.143	20.207	4.360	0.568
1255.999	711.799	80.004	19.996	103.133	20.203	4.618	0.601
1257.999	712.909	80.005	19.996	103.139	20.202	4.712	0.540
1259.999	714.064	80.003	19.995	103.129	20.203	4.625	0.558
1261.999	715.175	80.005	19.996	103.138	20.203	4.636	0.553
1264.000	716.312	80.005	19.997	103.136	20.200	4.800	0.575
1266.000	717.463	80.003	19.994	103.138	20.203	4.620	0.569
1267.999	718.576	80.005	19.997	103.140	20.205	4.507	0.567
1269.999	719.666	80.002	19.995	103.131	20.206	4.456	0.545
1271.999	720.775	80.002	19.996	103.128	20.202	4.699	0.538
1273.999	721.907	80.001	19.996	103.132	20.202	4.679	0.551
1275.999	723.036	80.001	19.996	103.145	20.202	4.706	0.580
1277.999	724.123	80.002	19.997	103.128	20.205	4.501	0.569
1279.999	725.182	80.002	19.996	103.129	20.206	4.464	0.553
1281.999	726.313	80.002	19.997	103.135	20.207	4.398	0.559
1283.999	727.366	80.002	19.997	103.135	20.201	4.784	0.549
1286.000	728.443	80.001	19.996	103.136	20.203	4.650	0.546
1287.999	729.497	80.002	19.997	103.134	20.202	4.674	0.537
1289.999	730.619	80.002	19.997	103.127	20.204	4.562	0.549
1291.999	731.665	80.003	19.996	103.127	20.203	4.637	0.531
1293.999	732.713	80.001	19.996	103.130	20.202	4.671	0.537
1296.000	733.805	80.003	19.997	103.121	20.205	4.513	0.554
1298.001	734.848	80.002	19.995	103.133	20.203	4.645	0.538
1299.999	735.876	80.003	19.995	103.139	20.200	4.803	0.531
1302.000	736.919	80.002	19.995	103.128	20.201	4.784	0.501
1304.000	737.947	80.002	19.995	103.122	20.201	4.767	0.502
1306.000	739.017	80.002	19.994	103.125	20.201	4.761	0.527
1307.999	740.036	80.003	19.995	103.131	20.200	4.825	0.486
1309.999	741.103	80.004	19.996	103.124	20.198	4.973	0.510
1311.999	742.116	80.003	19.995	103.133	20.202	4.692	0.507
1313.999	743.165	80.003	19.995	103.144	20.198	4.932	0.505
1315.999	744.183	80.003	19.995	103.120	20.195	5.164	0.515
1318.000	745.194	80.003	19.997	103.126	20.197	5.052	0.517
1318.501	745.443	80.002	19.995	103.125	20.199	4.859	0.493