File: 01_Data/PlasticC/MCC/PlasticC_MCC_30K_min_211021_R1.txt
Sample ID:	C:\MCC\MCC Cal\Test\PlasticC_MCC_30K_min_211021_R1.txt
Sample Weight (mg):	4.54
Heating Rate (C/s):	0.5
Combustor Temp (C):	900
N2 Flow Rate (cc/min):	80
O2 Flow Rate (cc/min):	20
Calibration File:	C:\MCC\MCC Cal\Coeff1 JN10440_30_210304.txt.txt
T Correction Coefficients:	0	1.024463	0
Time Shift (s):	14
*
Time (s)	Temperature (C)	N2 flow rate (cc/min)	O2 flow rate (cc/min)	Flow Rate (cc/min)	Oxygen (%)	HRR (W/g)	Heating rate (C/s)
0.000	108.079	80.003	19.997	103.009	20.254	0.122	0.007
2.000	108.105	80.002	19.996	103.013	20.254	0.071	0.003
4.000	108.071	80.002	19.996	103.003	20.256	-0.037	0.006
6.000	108.099	80.002	19.997	103.000	20.252	0.233	-0.020
7.999	108.044	80.003	19.998	103.013	20.257	-0.147	-0.032
9.999	108.075	80.002	19.997	103.022	20.256	-0.037	0.023
12.001	108.081	80.001	19.994	103.006	20.257	-0.155	0.012
14.000	108.069	80.002	19.997	103.009	20.258	-0.172	0.016
15.999	108.035	80.002	19.995	103.013	20.257	-0.127	-0.002
17.999	108.033	80.003	19.996	103.016	20.256	-0.069	0.016
20.000	108.025	80.005	19.995	103.014	20.256	-0.051	-0.014
22.000	108.062	80.003	19.995	103.005	20.255	0.035	0.011
23.999	108.000	80.003	19.995	103.012	20.252	0.196	-0.025
25.999	108.021	80.004	19.994	103.013	20.252	0.204	0.012
28.001	108.030	80.002	19.995	103.007	20.256	-0.039	-0.015
30.000	108.025	80.002	19.995	103.007	20.254	0.057	-0.011
32.000	108.017	80.001	19.996	103.013	20.253	0.167	-0.007
34.000	108.042	80.002	19.995	103.003	20.255	-0.012	0.011
36.000	107.984	80.000	19.996	103.010	20.254	0.121	-0.025
38.001	107.998	80.001	19.994	103.015	20.255	0.004	-0.019
39.999	107.980	79.999	19.995	103.014	20.257	-0.122	-0.015
42.000	108.007	80.001	19.996	103.008	20.255	0.016	-0.008
44.000	108.008	80.001	19.995	103.014	20.255	-0.006	0.017
46.000	107.982	80.002	19.996	103.008	20.253	0.147	-0.017
48.000	107.992	80.001	19.994	103.008	20.258	-0.212	0.008
50.001	107.980	80.001	19.994	103.011	20.254	0.053	-0.031
52.000	107.986	80.002	19.997	103.021	20.256	-0.075	-0.018
53.999	108.003	80.001	19.995	103.020	20.253	0.173	0.008
55.999	107.959	80.002	19.995	103.002	20.257	-0.134	-0.035
57.999	107.956	80.001	19.996	103.009	20.252	0.236	0.001
59.999	107.908	80.002	19.997	103.014	20.236	1.332	-0.031
61.999	107.987	80.001	19.996	103.237	20.219	2.549	0.018
64.000	108.075	80.002	19.997	103.398	20.204	3.670	0.047
66.001	108.291	80.001	19.997	103.417	20.193	4.400	0.122
67.999	108.602	80.001	19.995	103.424	20.188	4.797	0.124
70.000	108.952	80.000	19.996	103.406	20.187	4.842	0.183
72.000	109.381	80.003	19.996	103.388	20.185	4.962	0.224
74.000	109.854	80.002	19.994	103.398	20.184	5.053	0.257
76.000	110.409	80.002	19.995	103.390	20.182	5.196	0.253
78.000	110.984	80.001	19.995	103.383	20.183	5.104	0.311
80.000	111.650	80.004	19.997	103.385	20.186	4.948	0.331
81.999	112.379	80.004	19.995	103.386	20.182	5.211	0.361
84.001	113.097	80.003	19.996	103.388	20.179	5.381	0.368
85.999	113.902	80.003	19.996	103.386	20.182	5.236	0.396
88.000	114.712	80.002	19.996	103.383	20.181	5.290	0.405
90.000	115.550	80.002	19.996	103.376	20.179	5.384	0.434
92.000	116.440	79.999	19.996	103.346	20.182	5.195	0.425
93.999	117.381	80.001	19.996	103.306	20.183	5.155	0.516
95.999	118.303	80.002	19.996	103.426	20.185	4.988	0.459
98.000	119.249	80.001	19.995	103.386	20.181	5.273	0.487
99.999	120.221	80.001	19.994	103.370	20.178	5.450	0.477
102.000	121.289	80.005	19.995	103.357	20.182	5.169	0.512
104.000	122.328	80.003	19.996	103.357	20.184	5.049	0.517
106.000	123.413	80.003	19.994	103.354	20.186	4.927	0.552
107.999	124.466	80.005	19.995	103.350	20.186	4.924	0.506
110.000	125.551	80.005	19.994	103.350	20.188	4.739	0.539
112.001	126.623	80.002	19.994	103.345	20.191	4.560	0.548
114.001	127.707	80.001	19.995	103.349	20.190	4.613	0.540
115.999	128.868	80.002	19.996	103.346	20.191	4.554	0.564
117.999	130.009	80.000	19.996	103.327	20.192	4.493	0.577
120.001	131.142	80.001	19.996	103.317	20.191	4.532	0.601
121.999	132.276	80.002	19.996	103.327	20.195	4.265	0.586
124.000	133.518	80.001	19.995	103.315	20.195	4.272	0.616
125.999	134.627	80.001	19.996	103.311	20.198	4.096	0.543
128.000	135.774	80.001	19.996	103.310	20.198	4.046	0.564
130.000	136.982	80.003	19.996	103.311	20.196	4.202	0.589
131.999	138.154	80.003	19.995	103.307	20.197	4.124	0.600
133.999	139.275	80.002	19.995	103.299	20.197	4.128	0.565
135.999	140.446	80.003	19.996	103.293	20.199	4.010	0.565
137.999	141.624	80.002	19.995	103.305	20.196	4.222	0.577
139.999	142.821	80.002	19.995	103.298	20.201	3.870	0.592
142.000	143.990	80.003	19.997	103.290	20.204	3.670	0.600
143.999	145.131	80.002	19.995	103.273	20.202	3.778	0.575
145.999	146.297	80.001	19.994	103.269	20.207	3.400	0.576
147.999	147.435	80.000	19.996	103.269	20.205	3.534	0.589
149.999	148.580	80.001	19.996	103.269	20.209	3.271	0.569
151.999	149.719	80.001	19.996	103.269	20.209	3.274	0.557
154.000	150.865	80.001	19.997	103.269	20.209	3.257	0.586
156.000	151.952	80.001	19.996	103.251	20.210	3.186	0.573
158.000	153.093	80.002	19.994	103.244	20.213	2.992	0.517
160.000	154.160	80.002	19.995	103.256	20.214	2.929	0.521
162.001	155.238	80.003	19.996	103.253	20.211	3.113	0.529
164.001	156.380	80.004	19.995	103.254	20.215	2.884	0.560
166.000	157.445	80.002	19.995	103.256	20.212	3.038	0.571
168.000	158.503	80.003	19.996	103.264	20.214	2.960	0.522
170.000	159.601	80.001	19.994	103.244	20.213	2.999	0.553
172.001	160.688	80.001	19.996	103.243	20.214	2.912	0.559
174.001	161.758	80.000	19.996	103.251	20.212	3.069	0.512
175.999	162.768	80.001	19.995	103.242	20.212	3.087	0.492
177.999	163.869	80.002	19.996	103.239	20.215	2.861	0.540
179.999	164.936	80.001	19.996	103.238	20.217	2.692	0.543
182.001	165.992	80.002	19.996	103.232	20.217	2.724	0.508
184.000	167.077	80.002	19.997	103.229	20.213	2.991	0.508
185.999	168.097	80.003	19.996	103.228	20.218	2.637	0.480
188.001	169.128	80.003	19.997	103.226	20.216	2.771	0.506
189.999	170.186	80.003	19.996	103.229	20.215	2.859	0.527
191.999	171.212	80.002	19.996	103.228	20.216	2.796	0.511
193.999	172.304	80.003	19.994	103.227	20.214	2.953	0.506
196.001	173.298	80.002	19.994	103.227	20.212	3.097	0.527
197.999	174.343	80.000	19.995	103.228	20.215	2.826	0.519
200.000	175.397	80.001	19.996	103.229	20.218	2.671	0.531
202.001	176.440	80.001	19.996	103.228	20.216	2.759	0.530
204.001	177.419	80.001	19.995	103.225	20.215	2.859	0.522
206.000	178.462	80.001	19.995	103.226	20.218	2.637	0.501
208.000	179.452	80.002	19.997	103.225	20.217	2.684	0.521
210.000	180.419	80.000	19.995	103.223	20.216	2.747	0.475
211.999	181.464	80.001	19.996	103.224	20.218	2.611	0.503
214.000	182.515	80.002	19.996	103.217	20.219	2.596	0.489
216.000	183.487	80.001	19.995	103.210	20.215	2.861	0.492
218.000	184.522	80.000	19.996	103.212	20.219	2.591	0.522
219.999	185.493	80.001	19.995	103.207	20.218	2.629	0.499
221.999	186.526	80.002	19.994	103.205	20.218	2.670	0.496
223.999	187.527	80.000	19.996	103.201	20.217	2.723	0.493
225.999	188.524	80.000	19.995	103.205	20.215	2.841	0.503
228.000	189.461	80.001	19.995	103.197	20.214	2.896	0.475
230.000	190.487	80.001	19.995	103.194	20.219	2.591	0.509
232.000	191.462	80.000	19.996	103.214	20.216	2.803	0.452
234.000	192.433	80.000	19.996	103.197	20.217	2.693	0.484
236.000	193.424	80.000	19.995	103.196	20.213	2.982	0.509
238.001	194.400	80.001	19.995	103.196	20.216	2.790	0.507
240.000	195.384	80.002	19.994	103.196	20.214	2.917	0.489
242.001	196.309	80.001	19.995	103.198	20.216	2.774	0.452
244.000	197.334	80.002	19.995	103.196	20.218	2.635	0.483
246.000	198.277	80.003	19.996	103.193	20.218	2.627	0.516
248.001	199.238	80.002	19.995	103.199	20.212	3.041	0.474
250.000	200.241	80.002	19.996	103.192	20.216	2.787	0.494
252.000	201.177	80.003	19.996	103.193	20.216	2.763	0.489
254.000	202.192	80.001	19.996	103.196	20.217	2.703	0.531
255.999	203.126	80.002	19.996	103.193	20.216	2.784	0.484
258.001	204.090	80.002	19.995	103.160	20.216	2.762	0.477
260.000	205.058	80.002	19.997	103.135	20.219	2.577	0.499
262.001	206.034	80.002	19.997	103.268	20.215	2.829	0.469
264.000	207.031	80.003	19.996	103.199	20.218	2.662	0.522
265.999	208.015	80.003	19.995	103.191	20.216	2.748	0.512
268.000	208.977	80.002	19.995	103.199	20.216	2.784	0.484
270.000	209.944	80.003	19.996	103.187	20.215	2.886	0.487
272.000	210.888	80.003	19.996	103.189	20.215	2.837	0.492
274.000	211.854	80.003	19.997	103.190	20.214	2.925	0.475
275.999	212.834	80.002	19.997	103.192	20.210	3.173	0.483
278.000	213.810	80.002	19.997	103.191	20.212	3.076	0.476
280.000	214.820	80.001	19.997	103.187	20.211	3.104	0.500
282.000	215.766	80.001	19.997	103.188	20.213	2.962	0.504
283.999	216.716	80.001	19.996	103.190	20.213	2.996	0.507
286.000	217.690	79.998	19.995	103.203	20.210	3.182	0.495
288.000	218.641	80.001	19.995	103.196	20.213	3.021	0.489
290.000	219.644	80.000	19.995	103.191	20.215	2.845	0.519
292.000	220.604	80.002	19.995	103.193	20.211	3.125	0.458
294.000	221.620	80.001	19.996	103.193	20.210	3.200	0.517
296.000	222.600	80.000	19.996	103.197	20.210	3.241	0.504
297.999	223.578	80.002	19.996	103.193	20.210	3.206	0.490
299.999	224.537	80.002	19.995	103.195	20.212	3.066	0.492
302.000	225.548	80.001	19.995	103.192	20.210	3.241	0.486
304.000	226.540	80.001	19.995	103.194	20.211	3.151	0.490
306.000	227.502	80.000	19.996	103.194	20.212	3.045	0.463
308.001	228.508	80.001	19.996	103.196	20.211	3.170	0.512
310.000	229.492	80.001	19.995	103.193	20.210	3.233	0.504
312.001	230.516	79.999	19.996	103.192	20.213	2.988	0.507
314.000	231.521	80.000	19.995	103.186	20.209	3.257	0.502
316.000	232.504	80.001	19.996	103.190	20.210	3.184	0.507
318.000	233.492	80.003	19.995	103.190	20.211	3.141	0.485
320.000	234.488	80.001	19.995	103.190	20.209	3.276	0.499
321.999	235.502	80.002	19.995	103.189	20.210	3.217	0.472
323.999	236.489	80.003	19.994	103.188	20.208	3.331	0.513
326.000	237.489	80.003	19.995	103.181	20.206	3.484	0.470
328.000	238.491	80.003	19.995	103.189	20.202	3.771	0.519
329.999	239.451	80.003	19.994	103.190	20.203	3.671	0.510
332.000	240.447	80.002	19.995	103.189	20.202	3.796	0.495
334.000	241.423	80.002	19.995	103.185	20.202	3.745	0.465
336.000	242.446	80.002	19.996	103.186	20.203	3.716	0.508
338.000	243.410	80.002	19.996	103.187	20.199	3.971	0.491
340.001	244.397	80.002	19.996	103.179	20.201	3.839	0.503
341.999	245.381	80.001	19.995	103.183	20.200	3.928	0.474
344.000	246.404	80.003	19.996	103.171	20.201	3.828	0.503
346.000	247.428	80.002	19.996	103.183	20.200	3.940	0.522
347.999	248.307	80.003	19.996	103.179	20.196	4.210	0.472
350.000	249.404	80.004	19.995	103.173	20.196	4.177	0.498
352.001	250.448	80.003	19.996	103.177	20.197	4.147	0.517
354.001	251.475	80.003	19.995	103.185	20.196	4.183	0.529
356.001	252.437	80.004	19.995	103.189	20.195	4.289	0.474
358.000	253.437	80.002	19.995	103.177	20.194	4.367	0.500
360.000	254.438	80.001	19.996	103.179	20.195	4.299	0.500
362.001	255.440	80.001	19.995	103.168	20.198	4.087	0.495
364.001	256.464	80.000	19.995	103.170	20.195	4.242	0.493
366.000	257.431	80.000	19.996	103.188	20.194	4.375	0.474
368.000	258.491	80.000	19.995	103.172	20.192	4.454	0.543
370.001	259.460	79.999	19.996	103.177	20.190	4.659	0.504
372.001	260.499	80.000	19.996	103.177	20.189	4.676	0.485
373.999	261.509	80.002	19.997	103.182	20.191	4.555	0.477
375.999	262.475	80.001	19.996	103.178	20.193	4.410	0.498
378.001	263.480	80.001	19.996	103.172	20.190	4.626	0.487
380.001	264.478	80.001	19.995	103.168	20.188	4.747	0.511
382.000	265.480	80.001	19.996	103.176	20.192	4.514	0.487
383.999	266.473	80.001	19.995	103.179	20.193	4.400	0.467
386.000	267.486	80.002	19.995	103.162	20.192	4.461	0.504
388.001	268.515	80.001	19.996	103.170	20.192	4.506	0.510
390.000	269.531	80.002	19.995	103.155	20.188	4.753	0.521
391.999	270.546	80.000	19.995	103.166	20.191	4.577	0.498
393.999	271.532	80.001	19.995	103.158	20.186	4.898	0.512
396.001	272.612	80.001	19.996	103.161	20.188	4.775	0.539
398.000	273.622	80.001	19.996	103.154	20.189	4.686	0.542
400.000	274.615	80.000	19.995	103.157	20.188	4.761	0.521
401.999	275.625	80.002	19.996	103.154	20.189	4.676	0.521
404.000	276.635	80.002	19.996	103.158	20.185	4.969	0.500
405.999	277.607	80.002	19.995	103.154	20.187	4.841	0.494
408.000	278.594	80.003	19.995	103.153	20.187	4.861	0.496
410.000	279.588	80.002	19.995	103.158	20.189	4.714	0.507
411.999	280.631	80.003	19.996	103.153	20.185	4.955	0.531
413.999	281.595	80.003	19.995	103.154	20.185	4.951	0.496
416.000	282.558	80.002	19.995	103.155	20.184	5.081	0.479
418.000	283.558	80.004	19.995	103.155	20.186	4.916	0.512
420.000	284.545	80.003	19.995	103.152	20.187	4.808	0.487
422.001	285.566	80.001	19.995	103.154	20.185	5.002	0.509
424.000	286.527	80.003	19.994	103.160	20.181	5.240	0.484
426.000	287.544	80.002	19.995	103.158	20.184	5.059	0.488
428.001	288.528	80.003	19.995	103.157	20.182	5.184	0.478
430.001	289.487	80.004	19.995	103.153	20.183	5.112	0.512
431.999	290.484	80.004	19.994	103.154	20.182	5.208	0.511
433.999	291.521	80.002	19.995	103.152	20.182	5.177	0.520
436.000	292.505	80.004	19.995	103.153	20.180	5.332	0.520
437.999	293.453	80.003	19.996	103.151	20.183	5.088	0.492
439.999	294.469	80.003	19.996	103.149	20.185	4.980	0.505
441.999	295.434	80.003	19.996	103.149	20.184	5.061	0.483
444.000	296.477	80.002	19.996	103.151	20.186	4.887	0.486
446.000	297.460	80.000	19.996	103.154	20.181	5.261	0.523
448.000	298.436	80.001	19.995	103.157	20.179	5.389	0.488
450.001	299.427	80.002	19.996	103.150	20.183	5.086	0.500
451.999	300.468	80.001	19.997	103.153	20.183	5.104	0.521
454.001	301.493	80.001	19.995	103.155	20.181	5.249	0.525
456.001	302.412	80.001	19.996	103.154	20.181	5.290	0.506
458.000	303.527	80.001	19.996	103.154	20.178	5.494	0.523
459.999	304.410	80.002	19.996	103.151	20.181	5.296	0.513
461.999	305.431	80.002	19.995	103.140	20.178	5.443	0.452
463.999	306.452	80.001	19.996	103.147	20.180	5.333	0.451
466.001	307.304	80.001	19.996	103.143	20.182	5.186	0.467
468.001	308.477	80.002	19.996	103.146	20.182	5.190	0.400
470.001	309.458	80.000	19.996	103.148	20.180	5.362	0.521
472.000	310.460	80.000	19.996	103.145	20.185	4.953	0.528
474.000	311.485	80.002	19.995	103.142	20.183	5.147	0.465
475.999	312.560	80.000	19.996	103.148	20.185	4.992	0.489
477.999	313.581	80.001	19.995	103.149	20.182	5.208	0.524
480.000	314.548	80.000	19.995	103.149	20.179	5.412	0.515
481.999	315.543	80.001	19.996	103.139	20.183	5.092	0.500
484.000	316.545	80.001	19.995	103.154	20.184	5.074	0.509
486.000	317.567	80.002	19.994	103.153	20.184	5.020	0.491
488.001	318.604	80.002	19.994	103.153	20.187	4.855	0.553
490.001	319.585	80.003	19.995	103.152	20.185	4.955	0.505
492.000	320.541	80.002	19.995	103.148	20.185	4.986	0.475
494.001	321.515	80.002	19.995	103.139	20.184	5.056	0.484
495.999	322.491	80.000	19.994	103.149	20.184	5.054	0.445
498.000	323.499	80.001	19.995	103.150	20.186	4.884	0.464
500.001	324.536	80.002	19.995	103.150	20.183	5.088	0.491
502.000	325.541	80.001	19.995	103.150	20.188	4.772	0.509
504.000	326.526	80.002	19.995	103.140	20.187	4.864	0.521
506.001	327.475	80.001	19.994	103.138	20.185	5.006	0.518
508.001	328.471	80.002	19.996	103.146	20.186	4.903	0.492
510.001	329.473	80.002	19.995	103.150	20.186	4.927	0.548
512.000	330.428	80.002	19.995	103.149	20.186	4.939	0.478
514.000	331.418	80.003	19.995	103.138	20.184	5.035	0.490
516.001	332.420	80.004	19.995	103.142	20.188	4.797	0.543
518.000	333.387	80.005	19.995	103.144	20.191	4.542	0.479
520.000	334.392	80.004	19.995	103.134	20.185	4.969	0.508
522.000	335.361	80.004	19.994	103.140	20.183	5.102	0.472
524.001	336.307	80.001	19.995	103.140	20.186	4.909	0.472
526.001	337.324	80.000	19.996	103.147	20.187	4.837	0.488
528.000	338.312	80.002	19.995	103.138	20.181	5.258	0.486
530.000	339.289	80.000	19.995	103.139	20.188	4.731	0.489
532.000	340.264	80.001	19.997	103.148	20.189	4.676	0.467
534.000	341.264	80.000	19.996	103.139	20.187	4.855	0.490
536.000	342.293	80.000	19.995	103.146	20.191	4.523	0.512
538.000	343.205	80.002	19.996	103.123	20.187	4.829	0.447
540.001	344.202	80.001	19.997	103.140	20.184	5.061	0.484
542.001	345.179	80.002	19.995	103.139	20.184	5.037	0.486
543.999	346.197	80.002	19.997	103.142	20.186	4.902	0.494
546.000	347.207	80.001	19.995	103.152	20.183	5.104	0.540
547.999	348.182	80.001	19.995	103.151	20.184	5.081	0.477
549.999	349.197	80.001	19.996	103.153	20.184	5.051	0.513
552.001	350.200	80.001	19.996	103.150	20.181	5.245	0.479
554.000	351.179	79.999	19.995	103.153	20.181	5.231	0.491
555.999	352.212	80.000	19.996	103.153	20.179	5.429	0.513
558.000	353.223	79.999	19.996	103.152	20.178	5.473	0.510
560.000	354.346	79.999	19.996	103.153	20.176	5.600	0.560
562.000	355.321	80.001	19.997	103.144	20.173	5.798	0.516
564.000	356.359	79.999	19.995	103.148	20.171	5.947	0.516
565.999	357.339	80.000	19.995	103.143	20.172	5.926	0.505
568.000	358.392	80.002	19.996	103.146	20.170	6.069	0.519
569.999	359.390	80.001	19.995	103.151	20.169	6.134	0.496
572.000	360.401	80.002	19.995	103.147	20.169	6.142	0.513
573.999	361.439	80.004	19.994	103.138	20.162	6.617	0.499
575.999	362.428	80.003	19.995	103.142	20.158	6.879	0.491
578.001	363.480	80.003	19.994	103.140	20.158	6.919	0.504
579.999	364.517	80.003	19.994	103.142	20.157	6.980	0.523
582.000	365.518	80.002	19.995	103.146	20.152	7.313	0.525
584.000	366.588	80.002	19.994	103.146	20.149	7.555	0.530
586.000	367.624	80.002	19.994	103.142	20.148	7.602	0.552
588.001	368.610	80.002	19.994	103.146	20.142	8.002	0.497
590.000	369.681	80.002	19.995	103.146	20.139	8.242	0.530
592.001	370.739	80.004	19.996	103.149	20.134	8.621	0.539
594.001	371.777	80.002	19.994	103.146	20.128	9.008	0.550
595.999	372.792	80.003	19.994	103.148	20.125	9.246	0.531
597.999	373.834	80.003	19.994	103.149	20.116	9.899	0.517
600.000	374.944	80.004	19.996	103.145	20.109	10.355	0.519
601.999	375.943	80.004	19.995	103.139	20.107	10.483	0.508
604.000	376.982	80.003	19.994	103.129	20.108	10.428	0.496
606.001	378.060	80.002	19.994	103.139	20.103	10.759	0.561
608.000	379.081	80.002	19.995	103.144	20.100	11.037	0.532
610.001	380.132	80.001	19.995	103.145	20.096	11.305	0.547
612.001	381.124	80.002	19.996	103.152	20.089	11.754	0.512
614.000	382.147	80.000	19.994	103.154	20.085	12.070	0.524
615.999	383.173	80.001	19.997	103.149	20.078	12.533	0.510
618.001	384.196	80.001	19.995	103.144	20.065	13.466	0.487
620.000	385.194	80.000	19.995	103.147	20.051	14.460	0.506
622.000	386.212	80.000	19.996	103.152	20.036	15.510	0.483
624.001	387.206	80.000	19.996	103.141	20.029	16.007	0.514
626.000	388.240	79.999	19.994	103.123	20.025	16.304	0.498
628.000	389.250	80.001	19.996	103.116	20.023	16.465	0.492
630.000	390.243	80.002	19.995	103.141	20.007	17.556	0.500
632.001	391.263	80.001	19.995	103.166	19.988	18.930	0.506
634.000	392.279	80.002	19.996	103.165	19.956	21.203	0.477
636.001	393.312	80.001	19.996	103.161	19.914	24.189	0.527
637.999	394.365	80.000	19.996	103.158	19.896	25.437	0.518
640.001	395.332	80.001	19.996	103.095	19.892	25.740	0.482
642.001	396.342	80.001	19.996	103.072	19.873	27.112	0.485
644.000	397.378	79.998	19.996	103.110	19.831	30.094	0.501
646.000	398.363	80.001	19.995	103.204	19.806	31.861	0.489
648.000	399.405	80.001	19.997	103.162	19.807	31.785	0.525
650.001	400.366	80.000	19.995	103.093	19.791	32.877	0.459
652.000	401.426	80.001	19.997	103.099	19.735	36.880	0.499
654.000	402.383	80.002	19.996	103.212	19.693	39.880	0.485
656.001	403.397	80.003	19.996	103.214	19.665	41.822	0.496
658.000	404.407	80.003	19.996	103.136	19.600	46.452	0.490
660.000	405.435	80.003	19.996	103.149	19.519	52.175	0.512
661.999	406.421	80.002	19.996	103.161	19.456	56.681	0.501
663.999	407.396	80.002	19.995	103.189	19.376	62.338	0.491
665.999	408.445	80.000	19.995	103.167	19.286	68.779	0.520
668.000	409.412	80.001	19.995	103.150	19.204	74.543	0.495
669.999	410.427	80.002	19.994	103.187	19.121	80.448	0.485
672.001	411.457	80.002	19.994	103.178	19.024	87.310	0.515
673.999	412.437	80.003	19.993	103.158	18.920	94.673	0.480
676.000	413.435	80.002	19.994	103.225	18.800	103.206	0.456
677.999	414.407	80.002	19.994	103.219	18.678	111.901	0.486
680.000	415.355	80.003	19.995	103.201	18.547	121.193	0.505
682.000	416.367	80.003	19.994	103.179	18.415	130.613	0.493
684.001	417.380	80.003	19.995	103.202	18.272	140.804	0.506
686.001	418.375	80.002	19.995	103.189	18.123	151.309	0.495
688.000	419.347	80.001	19.996	103.194	17.971	162.088	0.489
690.001	420.345	80.000	19.994	103.238	17.803	173.952	0.523
692.000	421.324	79.999	19.995	103.257	17.615	187.430	0.502
694.000	422.318	79.999	19.995	103.269	17.413	201.744	0.515
695.999	423.303	80.000	19.995	103.277	17.215	215.798	0.500
697.999	424.307	80.002	19.996	103.242	17.009	230.391	0.500
700.001	425.316	80.001	19.994	103.235	16.794	245.673	0.533
702.001	426.284	80.001	19.995	103.250	16.568	261.694	0.498
704.000	427.235	80.001	19.997	103.293	16.343	277.683	0.490
706.000	428.198	80.000	19.996	103.282	16.115	293.778	0.485
708.001	429.190	80.000	19.995	103.267	15.879	310.426	0.482
710.001	430.156	80.001	19.995	103.259	15.642	327.264	0.504
712.001	431.166	80.001	19.996	103.279	15.417	343.296	0.475
714.001	432.138	80.001	19.996	103.289	15.197	358.932	0.501
716.000	433.133	80.002	19.997	103.261	15.005	372.544	0.522
718.001	434.132	80.001	19.996	103.227	14.816	386.008	0.484
720.000	435.165	80.002	19.996	103.225	14.646	398.196	0.520
722.000	436.147	80.001	19.996	103.234	14.490	409.277	0.502
723.999	437.145	80.001	19.996	103.243	14.356	418.801	0.511
726.000	438.175	80.001	19.996	103.260	14.239	427.194	0.508
728.001	439.144	80.000	19.995	103.263	14.146	433.790	0.472
730.000	440.159	80.000	19.996	103.289	14.078	438.809	0.517
732.000	441.155	80.001	19.996	103.294	14.041	441.547	0.492
734.001	442.187	80.001	19.995	103.317	14.031	442.274	0.492
736.000	443.190	80.001	19.995	103.298	14.052	440.733	0.522
738.000	444.219	80.002	19.996	103.332	14.100	437.316	0.501
740.000	445.205	80.001	19.995	103.339	14.177	432.023	0.468
742.000	446.260	80.001	19.995	103.381	14.270	425.426	0.519
744.000	447.262	80.000	19.996	103.393	14.388	417.022	0.466
746.000	448.317	80.001	19.996	103.392	14.537	406.532	0.533
748.000	449.372	80.001	19.998	103.389	14.704	394.556	0.533
750.001	450.398	80.000	19.995	103.406	14.895	380.961	0.495
752.000	451.452	80.001	19.996	103.422	15.101	366.238	0.530
754.001	452.519	80.001	19.997	103.433	15.328	350.061	0.533
756.001	453.605	80.002	19.994	103.436	15.553	334.032	0.540
758.000	454.623	80.003	19.995	103.424	15.800	316.415	0.515
759.999	455.694	80.004	19.995	103.431	16.039	299.356	0.524
762.000	456.707	80.003	19.994	103.414	16.277	282.450	0.500
763.999	457.821	80.004	19.995	103.389	16.514	265.623	0.548
766.000	458.874	80.004	19.995	103.376	16.737	249.770	0.541
768.000	459.954	80.003	19.995	103.349	16.963	233.658	0.539
770.000	460.995	80.003	19.995	103.331	17.177	218.485	0.510
772.000	462.085	80.003	19.996	103.319	17.381	203.915	0.535
774.000	463.179	80.001	19.996	103.314	17.572	190.393	0.528
776.001	464.218	80.002	19.997	103.305	17.752	177.596	0.473
778.001	465.262	80.001	19.995	103.291	17.922	165.537	0.521
779.999	466.340	80.001	19.996	103.278	18.079	154.373	0.537
782.000	467.394	80.002	19.995	103.263	18.225	143.982	0.509
784.001	468.466	80.003	19.996	103.241	18.364	134.153	0.551
785.999	469.528	80.003	19.996	103.227	18.486	125.456	0.525
787.999	470.588	80.002	19.996	103.225	18.604	117.073	0.539
790.001	471.642	80.003	19.995	103.209	18.714	109.310	0.517
792.000	472.705	80.003	19.995	103.201	18.819	101.850	0.555
794.000	473.816	80.002	19.996	103.198	18.909	95.465	0.568
796.001	474.888	80.003	19.995	103.194	19.000	88.973	0.553
797.999	475.861	80.002	19.995	103.189	19.080	83.304	0.507
800.000	476.912	80.002	19.995	103.186	19.158	77.772	0.499
802.001	477.954	80.000	19.996	103.174	19.231	72.638	0.529
804.000	478.986	80.000	19.997	103.175	19.296	67.962	0.534
806.000	480.046	79.999	19.996	103.161	19.362	63.298	0.513
808.000	481.048	79.999	19.996	103.161	19.427	58.734	0.499
809.999	482.058	80.001	19.996	103.160	19.486	54.508	0.484
812.000	483.070	80.001	19.997	103.153	19.542	50.520	0.501
814.001	484.105	80.001	19.997	103.147	19.600	46.434	0.511
816.000	485.067	80.001	19.996	103.149	19.651	42.846	0.488
818.001	486.071	80.001	19.996	103.138	19.702	39.177	0.484
820.000	487.069	80.001	19.994	103.124	19.750	35.828	0.485
822.001	488.043	80.000	19.995	103.121	19.797	32.497	0.494
824.001	489.055	80.002	19.996	103.122	19.837	29.659	0.502
826.000	490.091	80.002	19.995	103.118	19.880	26.623	0.505
828.000	491.020	80.001	19.996	103.115	19.920	23.772	0.469
830.000	492.068	80.003	19.996	103.117	19.957	21.110	0.513
832.001	493.074	80.001	19.997	103.112	19.992	18.645	0.493
834.000	494.093	80.002	19.996	103.116	20.032	15.850	0.495
835.999	495.110	80.002	19.996	103.113	20.062	13.691	0.514
837.999	496.107	80.001	19.997	103.113	20.087	11.928	0.504
840.001	497.102	80.002	19.995	103.110	20.116	9.876	0.512
842.000	498.110	80.003	19.996	103.108	20.144	7.883	0.484
844.001	499.118	80.003	19.996	103.101	20.159	6.791	0.499
846.001	500.128	80.003	19.995	103.105	20.179	5.397	0.508
848.001	501.061	80.005	19.997	103.108	20.190	4.585	0.508
850.000	502.053	80.002	19.996	103.107	20.207	3.383	0.468
852.000	503.089	80.001	19.995	103.107	20.216	2.751	0.525
854.000	504.081	80.003	19.995	103.105	20.222	2.331	0.517
856.000	505.073	80.001	19.995	103.100	20.230	1.773	0.489
857.999	506.070	80.002	19.994	103.090	20.233	1.579	0.481
860.000	507.032	80.000	19.994	103.083	20.237	1.326	0.457
862.000	508.036	79.999	19.995	103.083	20.241	0.990	0.481
863.999	509.057	80.001	19.996	103.074	20.240	1.094	0.502
865.999	510.044	80.000	19.995	103.075	20.241	0.975	0.477
868.000	511.038	80.001	19.996	103.077	20.242	0.955	0.485
870.000	512.023	80.000	19.995	103.080	20.245	0.704	0.466
871.999	513.016	80.001	19.996	103.084	20.245	0.720	0.499
874.000	514.058	80.002	19.996	103.086	20.247	0.549	0.518
876.000	515.068	80.001	19.995	103.092	20.244	0.789	0.505
878.000	516.064	80.000	19.996	103.108	20.248	0.526	0.491
879.999	517.105	80.003	19.995	103.109	20.247	0.616	0.527
882.001	518.121	80.000	19.996	103.103	20.246	0.689	0.510
884.001	519.106	80.001	19.995	103.096	20.247	0.608	0.517
885.999	520.085	80.001	19.995	103.104	20.246	0.630	0.486
888.000	521.104	80.000	19.995	103.105	20.245	0.702	0.502
890.001	522.127	80.001	19.995	103.107	20.251	0.288	0.505
892.001	523.151	80.000	19.995	103.114	20.250	0.384	0.494
894.000	524.154	80.002	19.995	103.115	20.252	0.210	0.505
896.001	525.157	80.003	19.995	103.113	20.248	0.504	0.487
898.001	526.163	80.003	19.995	103.111	20.246	0.641	0.485
900.000	527.207	80.002	19.994	103.110	20.248	0.516	0.496
901.999	528.257	80.001	19.996	103.110	20.246	0.665	0.518
903.999	529.286	80.004	19.996	103.110	20.248	0.506	0.507
906.001	530.279	80.005	19.997	103.111	20.250	0.365	0.503
908.000	531.356	80.003	19.995	103.112	20.252	0.259	0.514
909.999	532.383	80.001	19.995	103.114	20.250	0.373	0.512
911.999	533.419	80.002	19.995	103.111	20.249	0.408	0.529
914.001	534.456	80.001	19.994	103.109	20.250	0.379	0.534
916.000	535.519	80.004	19.997	103.110	20.254	0.067	0.522
918.001	536.537	80.002	19.996	103.108	20.252	0.208	0.517
920.001	537.628	80.004	19.995	103.108	20.256	-0.026	0.546
922.001	538.617	80.003	19.996	103.108	20.248	0.512	0.510
924.000	539.686	80.002	19.995	103.102	20.249	0.434	0.506
925.999	540.681	80.004	19.996	103.109	20.252	0.208	0.493
928.001	541.764	80.003	19.996	103.108	20.250	0.383	0.542
930.000	542.825	80.005	19.996	103.108	20.250	0.384	0.539
931.999	543.893	80.002	19.998	103.110	20.250	0.337	0.528
933.999	544.950	80.001	19.996	103.113	20.250	0.396	0.533
936.000	545.982	80.001	19.997	103.112	20.251	0.304	0.496
938.000	547.029	80.000	19.997	103.111	20.252	0.212	0.505
939.999	548.142	80.001	19.997	103.112	20.249	0.447	0.545
942.000	549.193	80.001	19.996	103.113	20.251	0.332	0.519
943.999	550.276	80.001	19.995	103.115	20.253	0.179	0.549
946.000	551.363	80.003	19.995	103.115	20.250	0.392	0.554
948.001	552.418	80.002	19.995	103.115	20.252	0.233	0.512
950.000	553.529	80.000	19.995	103.114	20.248	0.530	0.547
952.001	554.620	80.002	19.996	103.121	20.246	0.639	0.557
953.999	555.664	80.003	19.995	103.114	20.253	0.149	0.548
956.000	556.762	80.001	19.995	103.113	20.249	0.463	0.546
958.000	557.812	80.005	19.994	103.114	20.250	0.335	0.546
960.000	558.926	80.003	19.995	103.115	20.244	0.824	0.540
962.000	559.918	80.002	19.996	103.108	20.251	0.265	0.508
963.999	560.945	80.003	19.995	103.102	20.247	0.555	0.504
965.999	562.077	79.999	19.995	103.110	20.251	0.306	0.552
968.001	563.134	80.002	19.998	103.105	20.251	0.269	0.539
969.999	564.149	80.001	19.996	103.100	20.251	0.330	0.522
972.001	565.181	80.002	19.995	103.103	20.250	0.337	0.504
974.000	566.214	80.003	19.995	103.108	20.251	0.316	0.531
976.000	567.260	80.001	19.995	103.108	20.250	0.347	0.509
978.001	568.329	80.002	19.994	103.111	20.252	0.233	0.509
980.000	569.309	80.001	19.996	103.109	20.255	-0.012	0.497
982.001	570.373	80.005	19.995	103.106	20.248	0.514	0.533
984.000	571.392	80.004	19.996	103.107	20.252	0.224	0.503
986.000	572.397	80.002	19.995	103.098	20.251	0.306	0.493
988.000	573.450	80.005	19.995	103.107	20.255	0.026	0.506
990.001	574.492	80.002	19.997	103.101	20.250	0.373	0.510
992.001	575.505	80.001	19.997	103.089	20.251	0.312	0.479
994.001	576.481	80.002	19.996	103.098	20.257	-0.135	0.461
996.000	577.463	80.001	19.996	103.102	20.253	0.182	0.473
997.999	578.507	80.003	19.996	103.106	20.253	0.171	0.507
1000.000	579.492	80.003	19.996	103.110	20.250	0.355	0.495
1002.000	580.445	79.999	19.997	103.112	20.256	-0.027	0.495
1003.999	581.486	80.002	19.997	103.114	20.253	0.131	0.498
1006.000	582.541	80.002	19.995	103.114	20.250	0.361	0.551
1008.000	583.558	80.003	19.996	103.112	20.252	0.261	0.518
1010.000	584.591	80.004	19.994	103.115	20.250	0.386	0.531
1012.000	585.613	80.004	19.996	103.112	20.247	0.561	0.522
1014.000	586.709	80.003	19.996	103.112	20.249	0.445	0.544
1016.001	587.794	80.002	19.995	103.113	20.249	0.416	0.576
1018.001	588.832	80.001	19.996	103.113	20.250	0.339	0.533
1020.001	589.877	80.001	19.996	103.114	20.252	0.253	0.519
1022.000	590.969	80.001	19.997	103.113	20.254	0.069	0.533
1023.999	592.077	79.998	19.996	103.113	20.252	0.194	0.536
1026.000	593.187	80.001	19.997	103.106	20.256	-0.041	0.553
1028.001	594.292	80.000	19.996	103.110	20.255	0.037	0.538
1030.001	595.370	80.001	19.996	103.100	20.257	-0.151	0.535
1031.999	596.510	80.000	19.996	103.106	20.248	0.530	0.557
1034.001	597.624	80.003	19.996	103.109	20.251	0.330	0.537
1035.999	598.710	80.001	19.995	103.108	20.253	0.155	0.570
1038.000	599.815	80.003	19.996	103.108	20.256	-0.029	0.562
1040.000	600.925	80.001	19.996	103.108	20.253	0.151	0.534
1041.999	602.045	80.001	19.996	103.108	20.254	0.102	0.539
1044.000	603.116	80.001	19.995	103.110	20.250	0.398	0.531
1046.000	604.188	80.002	19.995	103.104	20.252	0.218	0.529
1048.000	605.287	80.001	19.995	103.108	20.251	0.288	0.581
1049.999	606.395	80.003	19.996	103.108	20.255	0.033	0.543
1052.000	607.493	80.003	19.997	103.104	20.253	0.126	0.546
1054.001	608.576	80.000	19.996	103.105	20.253	0.190	0.525
1055.999	609.688	80.003	19.995	103.105	20.252	0.204	0.536
1058.001	610.758	80.003	19.996	103.096	20.250	0.359	0.558
1060.000	611.841	79.999	19.995	103.108	20.253	0.149	0.530
1062.000	612.900	80.002	19.995	103.108	20.250	0.373	0.536
1064.001	613.969	80.004	19.995	103.108	20.255	0.031	0.543
1065.999	615.080	80.001	19.995	103.110	20.256	-0.061	0.540
1067.999	616.205	80.003	19.995	103.111	20.254	0.108	0.571
1069.999	617.256	80.003	19.995	103.111	20.254	0.067	0.543
1071.999	618.261	80.000	19.997	103.112	20.256	-0.027	0.506
1074.000	619.353	80.003	19.995	103.114	20.257	-0.110	0.541
1076.000	620.422	80.002	19.993	103.107	20.258	-0.200	0.536
1078.000	621.504	80.001	19.995	103.107	20.255	0.026	0.550
1079.999	622.597	80.004	19.996	103.112	20.255	-0.008	0.534
1082.000	623.643	80.003	19.995	103.101	20.253	0.137	0.528
1083.999	624.739	80.002	19.994	103.108	20.257	-0.133	0.529
1085.999	625.750	80.003	19.995	103.114	20.254	0.096	0.510
1088.000	626.808	80.001	19.995	103.109	20.257	-0.159	0.537
1090.001	627.851	80.003	19.996	103.110	20.258	-0.228	0.512
1091.999	628.910	80.005	19.997	103.106	20.258	-0.171	0.527
1094.000	629.917	80.004	19.996	103.108	20.259	-0.263	0.495
1096.000	630.942	80.004	19.996	103.108	20.260	-0.345	0.526
1098.000	631.977	80.005	19.997	103.108	20.257	-0.131	0.502
1100.001	633.016	80.002	19.996	103.109	20.259	-0.290	0.505
1101.999	634.076	80.002	19.997	103.105	20.258	-0.171	0.545
1103.999	635.142	80.004	19.996	103.107	20.254	0.071	0.554
1106.000	636.158	79.999	19.995	103.108	20.260	-0.355	0.531
1107.999	637.187	80.003	19.995	103.103	20.258	-0.169	0.531
1109.999	638.184	80.001	19.995	103.104	20.255	-0.008	0.517
1112.001	639.194	80.001	19.996	103.107	20.254	0.082	0.522
1114.000	640.238	80.001	19.997	103.106	20.255	0.035	0.509
1116.000	641.232	80.002	19.996	103.107	20.256	-0.027	0.519
1117.999	642.214	80.002	19.997	103.101	20.254	0.071	0.504
1120.000	643.274	80.003	19.997	103.101	20.255	0.014	0.521
1121.999	644.252	80.001	19.996	103.108	20.257	-0.131	0.499
1124.000	645.295	80.001	19.997	103.107	20.254	0.110	0.513
1126.000	646.307	80.001	19.996	103.108	20.254	0.061	0.514
1128.000	647.300	80.002	19.995	103.108	20.259	-0.284	0.499
1130.000	648.333	80.002	19.995	103.109	20.256	-0.051	0.525
1132.001	649.332	80.001	19.995	103.112	20.257	-0.096	0.533
1133.999	650.370	80.000	19.996	103.113	20.256	-0.043	0.529
1136.000	651.397	79.999	19.994	103.108	20.255	0.010	0.517
1138.000	652.401	80.001	19.996	103.113	20.255	0.026	0.516
1140.000	653.411	80.001	19.994	103.100	20.255	-0.020	0.535
1142.000	654.471	80.001	19.996	103.110	20.254	0.102	0.553
1143.999	655.439	80.002	19.997	103.115	20.254	0.086	0.498
1145.999	656.449	80.002	19.995	103.114	20.259	-0.251	0.512
1148.000	657.497	80.002	19.995	103.113	20.262	-0.479	0.488
1150.000	658.491	80.003	19.996	103.109	20.259	-0.243	0.499
1152.001	659.509	80.002	19.996	103.105	20.256	-0.078	0.508
1154.001	660.501	80.004	19.995	103.112	20.256	-0.051	0.507
1155.999	661.500	80.003	19.994	103.108	20.259	-0.273	0.497
1157.999	662.494	80.001	19.994	103.110	20.255	0.000	0.478
1159.999	663.540	80.005	19.996	103.101	20.255	0.041	0.498
1162.001	664.540	80.003	19.996	103.104	20.257	-0.155	0.474
1164.000	665.504	80.001	19.994	103.098	20.257	-0.151	0.493
1166.000	666.507	80.002	19.995	103.103	20.255	0.002	0.472
1168.000	667.539	80.005	19.996	103.093	20.259	-0.261	0.490
1170.000	668.505	80.004	19.995	103.098	20.253	0.133	0.501
1172.001	669.520	80.002	19.995	103.102	20.254	0.067	0.507
1174.000	670.526	80.005	19.996	103.104	20.254	0.086	0.509
1175.999	671.551	80.005	19.995	103.107	20.254	0.059	0.499
1177.999	672.547	80.004	19.996	103.108	20.251	0.275	0.494
1179.999	673.559	80.002	19.995	103.105	20.258	-0.216	0.506
1181.999	674.576	80.005	19.996	103.095	20.245	0.736	0.523
1183.999	675.626	80.001	19.996	103.108	20.256	-0.063	0.502
1186.000	676.631	79.999	19.996	103.110	20.256	-0.061	0.487
1188.000	677.685	80.000	19.995	103.106	20.252	0.237	0.535
1190.000	678.667	80.000	19.996	103.105	20.253	0.165	0.510
1191.999	679.695	80.002	19.997	103.109	20.251	0.281	0.496
1193.999	680.669	80.003	19.998	103.111	20.251	0.320	0.472
1195.999	681.697	80.000	19.995	103.111	20.256	-0.033	0.527
1197.999	682.724	80.001	19.996	103.109	20.257	-0.141	0.513
1200.000	683.758	80.003	19.996	103.114	20.254	0.073	0.507
1201.999	684.762	80.000	19.996	103.113	20.254	0.122	0.523
1204.000	685.818	80.001	19.996	103.115	20.247	0.590	0.509
1206.000	686.817	79.999	19.996	103.113	20.255	0.035	0.492
1208.000	687.784	80.001	19.997	103.112	20.254	0.094	0.532
1210.000	688.872	80.000	19.996	103.111	20.249	0.439	0.512
1211.999	689.884	80.000	19.998	103.103	20.247	0.557	0.486
1213.999	690.899	79.999	19.996	103.110	20.249	0.406	0.481
1216.000	691.919	80.001	19.997	103.113	20.252	0.237	0.518
1218.000	692.875	80.001	19.995	103.115	20.251	0.318	0.463
1219.999	693.941	79.998	19.996	103.114	20.250	0.396	0.508
1222.000	694.919	80.001	19.998	103.111	20.256	-0.024	0.459
1223.999	695.996	80.002	19.995	103.110	20.252	0.231	0.517
1226.000	696.965	80.002	19.996	103.109	20.251	0.280	0.487
1228.000	697.988	80.001	19.995	103.110	20.249	0.432	0.517
1230.000	699.021	80.001	19.995	103.110	20.246	0.649	0.529
1232.000	700.068	80.003	19.995	103.108	20.245	0.706	0.550
1234.001	701.049	80.002	19.995	103.107	20.250	0.379	0.475
1235.999	702.103	80.000	19.994	103.105	20.250	0.381	0.512
1237.999	703.117	80.003	19.996	103.108	20.245	0.690	0.501
1240.001	704.138	80.004	19.996	103.111	20.251	0.306	0.518
1242.000	705.098	80.001	19.995	103.108	20.247	0.608	0.498
1244.000	706.100	80.005	19.995	103.105	20.246	0.661	0.479
1245.999	707.100	80.001	19.995	103.108	20.249	0.471	0.502
1248.000	708.170	80.005	19.996	103.108	20.249	0.406	0.526
1250.000	709.219	80.003	19.996	103.110	20.248	0.506	0.520
1251.999	710.208	80.003	19.995	103.107	20.249	0.408	0.496
1253.999	711.254	80.004	19.997	103.111	20.252	0.206	0.488
1256.000	712.260	80.006	19.995	103.101	20.249	0.451	0.527
1257.999	713.247	80.004	19.995	103.110	20.249	0.426	0.501
1259.999	714.286	80.002	19.994	103.109	20.250	0.377	0.511
1261.999	715.304	80.002	19.995	103.102	20.249	0.416	0.514
1263.999	716.373	80.002	19.996	103.113	20.247	0.559	0.540
1265.999	717.339	80.001	19.995	103.102	20.248	0.543	0.492
1268.000	718.382	79.999	19.996	103.110	20.251	0.333	0.509
1270.000	719.393	80.002	19.995	103.113	20.248	0.514	0.521
1272.000	720.427	80.001	19.995	103.097	20.250	0.369	0.506
1273.999	721.426	80.000	19.994	103.101	20.248	0.477	0.485
1275.999	722.436	80.000	19.996	103.113	20.245	0.753	0.510
1277.999	723.487	79.999	19.996	103.114	20.247	0.588	0.541
1280.000	724.517	80.001	19.996	103.112	20.240	1.110	0.509
1281.999	725.485	80.000	19.996	103.110	20.238	1.218	0.495
1284.000	726.521	80.001	19.997	103.113	20.242	0.918	0.510
1286.000	727.462	80.000	19.996	103.114	20.245	0.692	0.459
1287.999	728.492	80.003	19.996	103.108	20.242	0.940	0.514
1289.999	729.518	80.002	19.995	103.108	20.242	0.955	0.503
1292.001	730.492	80.001	19.995	103.099	20.245	0.739	0.486
1294.000	731.480	80.001	19.996	103.102	20.242	0.922	0.503
1296.001	732.457	80.002	19.995	103.108	20.242	0.906	0.485
1298.000	733.507	80.000	19.996	103.104	20.240	1.083	0.536
1300.000	734.487	80.001	19.997	103.107	20.245	0.730	0.529
1301.999	735.485	80.002	19.996	103.111	20.242	0.918	0.480
1304.000	736.489	80.001	19.997	103.106	20.240	1.081	0.542
1306.001	737.501	80.002	19.997	103.111	20.240	1.106	0.472
1308.000	738.475	80.001	19.995	103.107	20.242	0.941	0.495
1309.999	739.523	80.001	19.996	103.109	20.248	0.514	0.526
1311.999	740.511	80.003	19.997	103.109	20.246	0.651	0.503
1314.000	741.516	80.003	19.997	103.109	20.242	0.947	0.484
1315.999	742.531	80.004	19.996	103.107	20.247	0.577	0.488
1317.999	743.550	80.003	19.996	103.100	20.244	0.804	0.492