File: 01_Data/Laminate_Flooring/MCC/Laminate_Flooring_MCC_30K_min_211108_R3.txt
Sample ID:	C:\MCC\MCC Cal\Test\Laminate_Flooring_MCC_30K_min_211108_R3.txt
Sample Weight (mg):	4.41
Heating Rate (C/s):	0.5
Combustor Temp (C):	900
N2 Flow Rate (cc/min):	80
O2 Flow Rate (cc/min):	20
Calibration File:	C:\MCC\MCC Cal\Coeff1 JN10440_30_210304.txt.txt
T Correction Coefficients:	0	1.024463	0
Time Shift (s):	14
*
Time (s)	Temperature (C)	N2 flow rate (cc/min)	O2 flow rate (cc/min)	Flow Rate (cc/min)	Oxygen (%)	HRR (W/g)	Heating rate (C/s)
-0.001	108.919	80.003	19.995	103.029	20.042	0.038	0.005
2.000	108.887	80.002	19.998	103.029	20.042	0.090	-0.025
4.000	108.859	80.001	19.996	103.030	20.039	0.247	-0.033
6.000	108.864	80.002	19.996	103.035	20.042	0.070	-0.027
8.000	108.871	80.004	19.997	103.063	20.038	0.377	0.001
10.000	108.912	80.004	19.995	103.070	20.039	0.299	0.017
12.000	108.930	80.004	19.995	103.076	20.034	0.635	0.030
14.000	108.956	80.005	19.997	103.067	20.032	0.773	0.047
16.000	108.945	80.004	19.995	103.081	20.028	1.053	0.027
18.000	108.997	80.003	19.995	103.112	20.022	1.528	0.027
20.000	109.058	80.005	19.994	103.129	20.020	1.660	0.037
22.000	109.117	80.003	19.994	103.135	20.016	1.984	0.023
24.000	109.227	80.002	19.995	103.104	20.013	2.144	0.056
26.000	109.376	80.001	19.995	103.238	20.011	2.335	0.076
28.000	109.530	80.002	19.995	103.220	20.009	2.451	0.100
30.000	109.694	80.002	19.994	103.208	20.003	2.867	0.076
32.000	109.920	80.003	19.995	103.214	20.003	2.938	0.122
33.999	110.162	80.002	19.995	103.224	19.999	3.208	0.130
35.999	110.430	80.002	19.996	103.221	20.001	3.054	0.158
37.999	110.744	80.002	19.995	103.224	19.998	3.266	0.149
39.999	111.074	80.002	19.995	103.226	19.995	3.500	0.187
41.999	111.397	80.003	19.994	103.238	19.995	3.458	0.181
43.999	111.755	80.003	19.996	103.255	19.997	3.362	0.185
45.999	112.149	80.002	19.995	103.261	19.996	3.442	0.189
47.999	112.601	80.002	19.996	103.270	19.994	3.532	0.220
49.999	113.067	80.003	19.996	103.269	19.990	3.879	0.266
51.999	113.527	80.003	19.995	103.264	19.989	3.953	0.241
54.000	114.070	80.004	19.996	103.263	19.985	4.217	0.262
55.999	114.612	80.003	19.995	103.263	19.983	4.331	0.265
57.999	115.166	80.002	19.995	103.263	19.986	4.117	0.291
59.999	115.727	80.004	19.995	103.263	19.984	4.313	0.259
61.999	116.307	80.004	19.996	103.267	19.983	4.359	0.306
64.000	116.902	80.003	19.995	103.267	19.987	4.049	0.308
66.000	117.532	80.002	19.995	103.266	19.984	4.262	0.329
67.999	118.118	80.003	19.995	103.264	19.984	4.313	0.303
69.999	118.800	80.002	19.995	103.266	19.982	4.413	0.311
71.999	119.422	80.005	19.996	103.266	19.980	4.554	0.313
73.999	120.137	80.004	19.996	103.267	19.984	4.272	0.350
76.000	120.826	80.003	19.996	103.273	19.983	4.349	0.357
77.999	121.549	80.002	19.996	103.271	19.981	4.502	0.371
79.999	122.267	80.003	19.996	103.267	19.979	4.625	0.353
81.999	123.033	80.003	19.996	103.280	19.980	4.579	0.371
83.999	123.737	80.002	19.995	103.292	19.983	4.400	0.357
85.999	124.514	80.004	19.994	103.270	19.983	4.376	0.368
87.999	125.222	80.003	19.994	103.272	19.978	4.718	0.357
89.999	126.080	80.002	19.995	103.278	19.977	4.772	0.397
91.999	126.843	80.002	19.995	103.269	19.980	4.613	0.362
93.999	127.653	80.004	19.994	103.277	19.979	4.631	0.397
96.000	128.482	80.004	19.996	103.292	19.977	4.821	0.401
97.999	129.275	80.004	19.996	103.291	19.975	4.925	0.401
99.999	130.156	80.003	19.996	103.290	19.974	5.012	0.425
101.999	130.957	80.004	19.995	103.276	19.976	4.885	0.406
104.000	131.793	80.003	19.996	103.280	19.973	5.070	0.461
105.999	132.653	80.004	19.995	103.274	19.975	4.979	0.428
107.999	133.476	80.002	19.996	103.279	19.974	5.022	0.401
109.999	134.386	80.003	19.996	103.280	19.972	5.140	0.445
111.999	135.223	80.001	19.996	103.281	19.970	5.347	0.406
113.999	136.127	80.002	19.996	103.280	19.969	5.396	0.422
115.999	137.045	80.004	19.995	103.287	19.974	5.043	0.453
117.999	137.979	80.002	19.996	103.285	19.972	5.137	0.474
119.999	138.865	80.002	19.994	103.292	19.971	5.271	0.456
121.999	139.796	80.003	19.995	103.283	19.966	5.597	0.470
123.999	140.733	80.003	19.994	103.287	19.969	5.394	0.503
126.000	141.629	80.003	19.995	103.293	19.969	5.394	0.451
127.999	142.568	80.002	19.995	103.269	19.968	5.442	0.459
130.000	143.541	80.002	19.995	103.282	19.967	5.554	0.506
132.000	144.466	80.002	19.996	103.269	19.967	5.501	0.494
134.000	145.422	80.002	19.996	103.281	19.969	5.373	0.481
136.000	146.371	80.001	19.996	103.290	19.970	5.317	0.457
138.000	147.348	80.003	19.995	103.292	19.965	5.698	0.518
140.000	148.277	80.001	19.995	103.298	19.965	5.659	0.497
142.000	149.285	80.001	19.996	103.291	19.969	5.365	0.514
144.000	150.299	80.001	19.995	103.288	19.970	5.282	0.502
146.000	151.264	80.003	19.994	103.278	19.971	5.243	0.500
148.000	152.258	80.001	19.995	103.271	19.969	5.371	0.501
150.000	153.226	80.003	19.994	103.270	19.967	5.568	0.499
152.000	154.193	80.004	19.995	103.273	19.965	5.662	0.512
154.000	155.153	80.002	19.994	103.268	19.970	5.331	0.496
156.000	156.127	80.004	19.995	103.267	19.965	5.656	0.482
158.000	157.090	80.003	19.993	103.275	19.965	5.644	0.469
160.000	158.095	80.005	19.994	103.274	19.967	5.510	0.486
162.000	159.139	80.004	19.995	103.268	19.966	5.616	0.493
164.000	160.118	80.003	19.996	103.268	19.967	5.532	0.500
166.000	161.074	80.003	19.996	103.271	19.969	5.400	0.482
168.000	162.127	80.003	19.996	103.265	19.969	5.390	0.568
170.000	163.046	80.003	19.995	103.264	19.968	5.438	0.496
172.000	164.091	80.002	19.997	103.264	19.968	5.492	0.510
174.000	165.117	80.003	19.996	103.263	19.969	5.400	0.509
176.000	166.172	80.004	19.996	103.263	19.967	5.538	0.507
178.000	167.158	80.005	19.994	103.262	19.964	5.764	0.486
180.000	168.139	80.005	19.994	103.263	19.966	5.571	0.467
182.000	169.205	80.005	19.995	103.263	19.966	5.618	0.546
184.000	170.210	80.007	19.994	103.260	19.966	5.592	0.516
186.000	171.222	80.004	19.994	103.256	19.965	5.689	0.507
188.000	172.198	80.004	19.995	103.259	19.964	5.723	0.488
190.000	173.197	80.004	19.996	103.253	19.962	5.867	0.503
192.000	174.186	80.004	19.995	103.245	19.962	5.866	0.492
194.000	175.248	80.003	19.995	103.255	19.964	5.761	0.530
196.000	176.192	80.002	19.994	103.250	19.967	5.557	0.508
198.000	177.202	80.003	19.995	103.250	19.966	5.621	0.500
200.000	178.174	80.001	19.996	103.252	19.964	5.727	0.475
202.000	179.217	80.002	19.996	103.253	19.964	5.739	0.499
204.000	180.216	80.001	19.995	103.251	19.962	5.894	0.504
206.000	181.211	80.002	19.996	103.244	19.962	5.877	0.498
208.000	182.235	80.002	19.996	103.238	19.960	6.030	0.530
210.000	183.246	80.002	19.997	103.244	19.959	6.102	0.520
212.000	184.210	80.002	19.996	103.242	19.963	5.788	0.480
214.000	185.214	80.003	19.994	103.245	19.964	5.787	0.465
216.000	186.240	80.003	19.995	103.235	19.959	6.096	0.523
218.000	187.274	80.002	19.994	103.245	19.957	6.265	0.514
220.000	188.228	80.002	19.995	103.236	19.961	5.945	0.491
222.000	189.211	80.001	19.994	103.235	19.960	6.059	0.483
224.000	190.223	80.001	19.994	103.239	19.957	6.281	0.503
226.000	191.220	80.001	19.996	103.234	19.963	5.795	0.523
228.000	192.136	80.002	19.995	103.227	19.960	6.065	0.456
230.000	193.110	80.001	19.995	103.225	19.963	5.850	0.464
232.000	194.113	80.002	19.995	103.216	19.957	6.247	0.507
234.000	195.015	80.003	19.995	103.222	19.959	6.151	0.450
236.000	196.011	80.003	19.994	103.220	19.959	6.149	0.491
238.000	196.934	80.003	19.995	103.215	19.956	6.351	0.465
240.000	197.914	80.005	19.995	103.224	19.955	6.423	0.473
242.000	198.863	80.003	19.995	103.219	19.957	6.245	0.453
244.000	199.799	80.004	19.995	103.223	19.954	6.503	0.476
246.000	200.735	80.005	19.995	103.224	19.953	6.523	0.441
248.000	201.668	80.005	19.994	103.222	19.954	6.467	0.473
250.000	202.593	80.004	19.995	103.222	19.952	6.653	0.471
252.000	203.538	80.002	19.995	103.220	19.953	6.589	0.465
254.000	204.506	80.003	19.995	103.217	19.950	6.765	0.502
256.000	205.438	80.004	19.995	103.224	19.951	6.723	0.483
258.000	206.328	80.003	19.995	103.222	19.946	7.072	0.446
260.000	207.297	80.003	19.994	103.219	19.947	7.016	0.483
262.000	208.268	80.005	19.996	103.223	19.944	7.204	0.461
264.000	209.162	80.003	19.996	103.221	19.946	7.096	0.457
266.000	210.127	80.004	19.996	103.225	19.946	7.094	0.476
268.000	211.088	80.005	19.996	103.218	19.945	7.152	0.448
270.000	212.012	80.005	19.995	103.216	19.944	7.220	0.475
272.000	212.904	80.005	19.995	103.222	19.941	7.426	0.445
274.000	213.874	80.005	19.995	103.214	19.939	7.584	0.492
276.000	214.843	80.003	19.994	103.223	19.937	7.744	0.457
278.000	215.789	80.001	19.994	103.224	19.940	7.466	0.506
280.000	216.743	80.004	19.995	103.224	19.935	7.855	0.497
282.000	217.673	80.004	19.995	103.222	19.932	8.101	0.473
284.000	218.599	80.003	19.995	103.219	19.931	8.159	0.477
286.000	219.573	80.001	19.995	103.226	19.928	8.391	0.468
288.000	220.482	80.002	19.995	103.226	19.932	8.083	0.444
290.000	221.476	80.002	19.995	103.222	19.933	8.045	0.500
292.000	222.419	80.003	19.996	103.220	19.928	8.371	0.506
294.000	223.380	80.002	19.998	103.224	19.927	8.417	0.496
296.000	224.328	80.001	19.997	103.224	19.925	8.625	0.452
298.000	225.292	80.003	19.997	103.222	19.924	8.635	0.501
300.000	226.300	80.002	19.995	103.223	19.924	8.648	0.526
302.000	227.269	80.002	19.996	103.222	19.922	8.828	0.469
304.000	228.235	80.003	19.996	103.218	19.925	8.629	0.503
306.000	229.246	80.003	19.996	103.222	19.918	9.080	0.498
308.000	230.198	80.004	19.996	103.222	19.917	9.201	0.480
310.000	231.162	80.003	19.994	103.221	19.917	9.201	0.464
312.000	232.167	80.003	19.995	103.221	19.914	9.430	0.498
314.000	233.138	80.003	19.995	103.222	19.912	9.514	0.492
316.000	234.157	80.001	19.994	103.221	19.912	9.573	0.502
318.000	235.114	80.003	19.995	103.221	19.910	9.721	0.488
320.000	236.136	80.003	19.995	103.211	19.910	9.701	0.508
322.000	237.107	80.004	19.995	103.223	19.908	9.872	0.499
324.000	238.121	80.004	19.995	103.222	19.907	9.934	0.501
326.000	239.091	80.005	19.994	103.221	19.906	9.950	0.491
328.000	240.034	80.004	19.995	103.221	19.903	10.171	0.484
330.000	241.054	80.005	19.996	103.218	19.905	10.083	0.501
332.000	242.061	80.004	19.994	103.213	19.904	10.139	0.463
334.000	243.031	80.005	19.996	103.206	19.904	10.109	0.505
336.000	244.034	80.004	19.996	103.211	19.900	10.391	0.488
338.000	245.013	80.005	19.995	103.212	19.903	10.224	0.465
340.000	246.057	80.005	19.994	103.224	19.903	10.196	0.510
342.000	247.080	80.004	19.994	103.222	19.901	10.314	0.505
344.000	248.073	80.004	19.995	103.222	19.903	10.222	0.484
346.000	249.088	80.004	19.994	103.218	19.904	10.145	0.514
348.000	250.128	80.004	19.994	103.216	19.901	10.338	0.532
350.000	251.127	80.006	19.994	103.209	19.905	10.026	0.502
352.000	252.180	80.005	19.994	103.214	19.902	10.302	0.526
354.000	253.153	80.005	19.994	103.210	19.903	10.182	0.517
356.000	254.134	80.006	19.994	103.214	19.899	10.524	0.482
358.000	255.200	80.006	19.993	103.217	19.903	10.227	0.525
360.000	256.206	80.006	19.995	103.216	19.901	10.328	0.500
362.000	257.196	80.004	19.995	103.214	19.904	10.163	0.481
364.000	258.214	80.003	19.996	103.219	19.902	10.251	0.507
366.000	259.213	80.003	19.995	103.215	19.903	10.229	0.480
368.000	260.184	80.003	19.995	103.216	19.904	10.149	0.502
370.000	261.149	80.003	19.995	103.220	19.905	10.089	0.475
372.000	262.158	80.002	19.995	103.220	19.908	9.870	0.487
374.000	263.167	80.002	19.995	103.221	19.908	9.844	0.527
376.000	264.149	80.004	19.996	103.222	19.908	9.868	0.507
378.000	265.141	80.003	19.995	103.221	19.911	9.586	0.507
380.000	266.152	80.002	19.995	103.224	19.911	9.595	0.502
382.000	267.141	80.004	19.996	103.225	19.913	9.468	0.493
384.000	268.133	80.003	19.995	103.228	19.913	9.482	0.502
386.000	269.153	80.002	19.996	103.226	19.913	9.464	0.512
388.000	270.132	80.003	19.996	103.234	19.913	9.447	0.531
390.000	271.160	80.002	19.996	103.234	19.914	9.419	0.508
392.000	272.174	80.002	19.996	103.240	19.917	9.203	0.509
394.000	273.139	80.002	19.997	103.252	19.915	9.365	0.491
396.000	274.138	80.002	19.997	103.248	19.914	9.381	0.491
398.000	275.118	80.002	19.997	103.260	19.913	9.456	0.499
400.000	276.103	80.001	19.996	103.261	19.916	9.270	0.491
402.000	277.081	80.002	19.996	103.271	19.916	9.275	0.473
404.000	278.082	80.002	19.996	103.278	19.916	9.253	0.502
406.000	279.080	80.003	19.996	103.285	19.913	9.483	0.508
408.000	280.057	80.004	19.994	103.294	19.913	9.475	0.482
410.000	281.038	80.004	19.994	103.287	19.907	9.895	0.497
412.000	282.027	80.005	19.996	103.303	19.903	10.178	0.453
414.000	282.997	80.006	19.994	103.303	19.898	10.571	0.475
416.000	284.031	80.006	19.995	103.303	19.900	10.469	0.499
418.000	284.976	80.005	19.995	103.303	19.890	11.171	0.463
420.000	285.987	80.004	19.994	103.306	19.884	11.581	0.503
422.000	286.992	80.005	19.994	103.310	19.875	12.256	0.500
424.000	287.936	80.004	19.994	103.319	19.865	12.955	0.507
426.000	288.903	80.004	19.994	103.329	19.862	13.202	0.490
428.000	289.840	80.003	19.994	103.319	19.857	13.535	0.465
430.000	290.901	80.004	19.993	103.306	19.851	14.014	0.504
432.000	291.872	80.004	19.995	103.304	19.856	13.612	0.478
434.000	292.839	80.004	19.994	103.302	19.857	13.552	0.484
436.000	293.828	80.006	19.994	103.292	19.859	13.392	0.498
438.000	294.788	80.006	19.995	103.291	19.864	13.039	0.495
440.000	295.772	80.005	19.993	103.275	19.872	12.451	0.510
442.000	296.696	80.007	19.995	103.262	19.874	12.331	0.456
444.000	297.664	80.006	19.995	103.262	19.876	12.144	0.491
446.000	298.627	80.006	19.994	103.260	19.888	11.308	0.490
448.000	299.619	80.005	19.993	103.245	19.890	11.177	0.470
450.000	300.594	80.003	19.995	103.249	19.894	10.883	0.489
452.000	301.580	80.003	19.994	103.237	19.899	10.508	0.477
454.000	302.658	80.003	19.994	103.228	19.903	10.215	0.529
456.000	303.716	80.003	19.995	103.226	19.907	9.896	0.587
458.000	304.649	80.003	19.995	103.216	19.911	9.620	0.580
460.000	305.543	80.003	19.995	103.215	19.916	9.285	0.347
462.000	306.545	80.004	19.995	103.199	19.917	9.160	0.195
464.000	307.660	80.004	19.995	103.199	19.918	9.117	0.481
466.000	308.600	80.004	19.995	103.198	19.922	8.839	0.501
468.000	309.677	80.003	19.995	103.181	19.921	8.923	0.496
470.000	310.729	80.004	19.995	103.187	19.922	8.807	0.521
472.000	311.817	80.003	19.995	103.188	19.926	8.495	0.525
474.000	312.863	80.004	19.995	103.179	19.930	8.236	0.526
476.000	313.890	80.003	19.995	103.186	19.932	8.101	0.542
478.000	314.932	80.002	19.995	103.186	19.929	8.294	0.531
480.000	315.946	80.002	19.995	103.181	19.932	8.063	0.517
482.000	316.955	80.002	19.994	103.177	19.932	8.056	0.494
484.000	318.017	80.003	19.995	103.182	19.935	7.900	0.501
486.000	319.044	80.002	19.996	103.178	19.930	8.223	0.527
488.000	320.067	80.002	19.995	103.173	19.940	7.467	0.510
490.000	321.036	80.001	19.996	103.175	19.932	8.109	0.489
492.000	322.118	80.001	19.996	103.178	19.931	8.134	0.519
494.000	323.075	80.001	19.997	103.184	19.937	7.728	0.503
496.000	324.053	80.002	19.996	103.173	19.937	7.710	0.481
498.000	325.106	80.005	19.996	103.183	19.935	7.874	0.521
500.000	326.058	80.004	19.995	103.166	19.936	7.770	0.461
502.000	327.055	80.005	19.994	103.175	19.936	7.820	0.504
504.000	328.045	80.004	19.996	103.180	19.936	7.794	0.517
506.000	329.114	80.005	19.995	103.181	19.932	8.066	0.532
508.000	330.265	80.004	19.995	103.181	19.937	7.748	0.471
510.000	331.173	80.004	19.994	103.180	19.935	7.830	0.532
512.000	332.197	80.005	19.994	103.176	19.934	7.906	0.515
514.000	333.197	80.005	19.995	103.182	19.935	7.858	0.520
516.000	334.208	80.003	19.995	103.181	19.935	7.874	0.533
518.000	335.253	80.005	19.994	103.180	19.933	7.984	0.521
520.000	336.212	80.004	19.993	103.176	19.937	7.692	0.514
522.000	337.220	80.005	19.995	103.173	19.936	7.786	0.492
524.000	338.274	80.006	19.995	103.181	19.938	7.680	0.487
526.000	339.272	80.005	19.993	103.181	19.936	7.778	0.530
528.000	340.312	80.005	19.994	103.182	19.938	7.624	0.519
530.000	341.308	80.004	19.996	103.179	19.940	7.522	0.509
532.000	342.317	80.004	19.995	103.179	19.936	7.781	0.517
534.000	343.367	80.005	19.995	103.173	19.940	7.502	0.545
536.000	344.362	80.003	19.995	103.181	19.939	7.546	0.492
538.000	345.400	80.003	19.995	103.179	19.938	7.672	0.499
540.000	346.416	80.002	19.995	103.172	19.934	7.925	0.491
542.000	347.459	80.001	19.994	103.178	19.937	7.686	0.510
544.000	348.461	80.002	19.993	103.185	19.937	7.696	0.517
546.000	349.502	80.003	19.994	103.172	19.939	7.566	0.505
548.000	350.505	80.003	19.994	103.184	19.938	7.615	0.475
550.000	351.578	80.004	19.995	103.166	19.934	7.970	0.507
552.000	352.579	80.004	19.995	103.170	19.936	7.826	0.538
554.000	353.627	80.003	19.994	103.180	19.932	8.073	0.528
556.000	354.659	80.003	19.994	103.166	19.933	7.974	0.499
558.000	355.669	80.003	19.994	103.184	19.933	8.039	0.490
560.000	356.680	80.003	19.994	103.166	19.931	8.153	0.487
562.000	357.689	80.003	19.995	103.163	19.930	8.231	0.497
564.000	358.731	80.003	19.995	103.170	19.932	8.116	0.503
566.000	359.713	80.002	19.996	103.173	19.934	7.950	0.496
568.000	360.680	80.001	19.995	103.171	19.935	7.871	0.482
570.000	361.751	80.002	19.995	103.159	19.934	7.933	0.512
572.000	362.732	80.002	19.994	103.168	19.934	7.923	0.485
574.000	363.765	80.003	19.995	103.170	19.929	8.321	0.507
576.000	364.772	80.003	19.995	103.159	19.930	8.213	0.543
578.000	365.785	80.004	19.994	103.155	19.931	8.160	0.486
580.000	366.784	80.004	19.996	103.170	19.926	8.549	0.521
582.000	367.824	80.004	19.996	103.167	19.928	8.358	0.520
584.000	368.858	80.003	19.995	103.166	19.926	8.519	0.518
586.000	369.895	80.004	19.995	103.151	19.929	8.321	0.498
588.000	370.804	80.004	19.996	103.159	19.930	8.199	0.470
590.000	371.862	80.004	19.996	103.156	19.928	8.408	0.540
592.000	372.901	80.002	19.996	103.154	19.928	8.379	0.508
594.000	373.930	80.004	19.996	103.158	19.927	8.429	0.507
596.000	374.928	80.002	19.996	103.151	19.927	8.437	0.500
598.000	375.934	80.005	19.997	103.148	19.925	8.589	0.512
600.000	376.969	80.004	19.996	103.145	19.923	8.703	0.519
602.000	377.979	80.004	19.994	103.145	19.925	8.568	0.499
604.000	378.969	80.006	19.995	103.157	19.924	8.633	0.509
606.000	379.977	80.006	19.995	103.150	19.926	8.497	0.470
608.000	380.975	80.006	19.995	103.153	19.922	8.820	0.472
610.000	381.977	80.006	19.993	103.157	19.921	8.920	0.506
612.000	383.021	80.006	19.994	103.147	19.919	9.008	0.515
614.000	384.032	80.006	19.994	103.148	19.919	9.002	0.527
616.000	385.068	80.005	19.994	103.151	19.921	8.854	0.510
618.000	386.019	80.005	19.995	103.147	19.919	9.006	0.483
620.000	387.013	80.003	19.995	103.149	19.919	9.062	0.478
622.000	388.005	80.004	19.995	103.149	19.917	9.142	0.467
624.000	389.049	80.003	19.996	103.151	19.917	9.140	0.514
626.000	389.993	80.002	19.996	103.153	19.918	9.131	0.502
628.000	391.033	80.002	19.996	103.149	19.916	9.277	0.523
630.000	392.020	80.003	19.996	103.149	19.915	9.305	0.507
632.000	393.038	80.002	19.995	103.149	19.914	9.401	0.504
634.000	394.051	80.003	19.995	103.152	19.911	9.648	0.498
636.000	395.054	80.004	19.995	103.148	19.909	9.728	0.491
638.000	396.073	80.004	19.995	103.147	19.906	9.966	0.486
640.000	397.035	80.004	19.995	103.148	19.907	9.932	0.506
642.000	398.083	80.004	19.995	103.145	19.906	9.982	0.520
644.000	399.075	80.004	19.993	103.146	19.905	10.076	0.511
646.000	400.078	80.005	19.994	103.149	19.906	10.006	0.509
648.000	401.036	80.003	19.995	103.147	19.902	10.286	0.475
650.000	402.015	80.004	19.996	103.144	19.901	10.313	0.478
652.000	402.986	80.003	19.995	103.149	19.902	10.277	0.480
654.000	404.030	80.003	19.996	103.147	19.897	10.636	0.492
656.000	405.006	80.003	19.995	103.148	19.898	10.557	0.494
658.000	406.006	80.003	19.996	103.151	19.897	10.665	0.506
660.000	406.971	80.002	19.996	103.147	19.895	10.784	0.509
662.000	407.963	80.004	19.995	103.144	19.894	10.878	0.488
664.000	408.921	80.003	19.997	103.145	19.892	10.968	0.465
666.000	409.918	80.004	19.996	103.145	19.891	11.093	0.513
668.000	410.915	80.005	19.995	103.149	19.888	11.311	0.508
670.000	411.891	80.005	19.996	103.146	19.885	11.543	0.467
672.000	412.849	80.004	19.995	103.145	19.886	11.433	0.454
674.000	413.811	80.006	19.994	103.146	19.883	11.661	0.465
676.000	414.773	80.004	19.994	103.144	19.881	11.824	0.458
678.000	415.754	80.003	19.995	103.144	19.876	12.183	0.488
680.000	416.698	80.003	19.997	103.146	19.874	12.339	0.462
682.000	417.679	80.003	19.996	103.146	19.870	12.631	0.472
684.000	418.639	80.003	19.995	103.148	19.869	12.672	0.451
686.000	419.644	80.003	19.996	103.147	19.865	12.942	0.494
688.000	420.603	80.004	19.996	103.148	19.863	13.109	0.506
690.000	421.539	80.003	19.995	103.162	19.857	13.587	0.469
692.000	422.477	80.004	19.995	103.151	19.855	13.701	0.475
694.000	423.488	80.005	19.996	103.151	19.852	13.953	0.506
696.000	424.445	80.005	19.995	103.158	19.849	14.142	0.474
698.000	425.482	80.005	19.995	103.152	19.845	14.452	0.513
700.000	426.490	80.005	19.995	103.156	19.838	14.942	0.508
702.000	427.502	80.005	19.994	103.151	19.831	15.416	0.503
704.000	428.480	80.005	19.994	103.149	19.829	15.590	0.495
706.000	429.520	80.004	19.995	103.148	19.827	15.715	0.494
708.000	430.522	80.003	19.995	103.145	19.820	16.234	0.475
710.000	431.535	80.004	19.995	103.148	19.813	16.789	0.501
712.000	432.555	80.004	19.994	103.154	19.808	17.134	0.536
714.000	433.563	80.004	19.995	103.149	19.799	17.785	0.497
716.000	434.666	80.004	19.995	103.150	19.797	17.943	0.547
718.000	435.700	80.005	19.994	103.159	19.785	18.805	0.524
720.000	436.724	80.003	19.994	103.153	19.782	19.026	0.520
722.000	437.786	80.002	19.996	103.145	19.774	19.608	0.508
724.000	438.838	80.006	19.994	103.144	19.767	20.105	0.542
726.000	439.895	80.005	19.995	103.145	19.761	20.533	0.543
728.000	440.891	80.005	19.995	103.144	19.749	21.445	0.506
730.000	441.964	80.004	19.995	103.145	19.742	21.920	0.529
732.000	442.981	80.004	19.995	103.148	19.731	22.779	0.502
734.000	444.030	80.004	19.995	103.145	19.722	23.386	0.509
736.000	445.035	80.003	19.995	103.155	19.713	24.039	0.532
738.000	446.059	80.002	19.995	103.146	19.704	24.687	0.538
740.000	447.126	80.002	19.995	103.147	19.695	25.396	0.513
742.000	448.132	80.002	19.995	103.150	19.687	25.963	0.520
744.000	449.143	80.004	19.994	103.149	19.680	26.461	0.506
746.000	450.130	80.003	19.994	103.151	19.665	27.560	0.502
748.000	451.255	80.005	19.994	103.148	19.655	28.286	0.559
750.000	452.198	80.005	19.995	103.149	19.651	28.596	0.509
752.000	453.238	80.005	19.995	103.148	19.640	29.398	0.503
754.000	454.203	80.005	19.995	103.148	19.639	29.455	0.482
756.000	455.247	80.005	19.995	103.149	19.634	29.844	0.530
758.000	456.262	80.005	19.995	103.146	19.623	30.617	0.494
760.000	457.259	80.004	19.996	103.147	19.624	30.566	0.470
762.000	458.257	80.004	19.995	103.146	19.618	31.010	0.498
764.000	459.308	80.003	19.995	103.148	19.612	31.408	0.529
766.000	460.299	80.005	19.995	103.148	19.615	31.220	0.491
768.000	461.329	80.004	19.994	103.147	19.614	31.251	0.515
770.000	462.319	80.004	19.996	103.144	19.611	31.504	0.476
772.000	463.306	80.004	19.994	103.139	19.608	31.734	0.488
774.000	464.279	80.007	19.995	103.143	19.610	31.553	0.455
776.000	465.266	80.005	19.995	103.144	19.607	31.821	0.472
778.000	466.231	80.005	19.995	103.141	19.614	31.304	0.473
780.000	467.241	80.005	19.994	103.142	19.615	31.183	0.514
782.000	468.228	80.006	19.996	103.143	19.618	31.012	0.479
784.000	469.193	80.006	19.995	103.139	19.626	30.392	0.495
786.000	470.143	80.007	19.995	103.140	19.629	30.229	0.485
788.000	471.115	80.007	19.995	103.152	19.633	29.886	0.485
790.000	472.074	80.004	19.995	103.155	19.638	29.513	0.447
792.000	473.110	80.004	19.998	103.155	19.644	29.083	0.507
794.000	474.157	80.006	19.994	103.152	19.653	28.410	0.538
796.000	475.216	80.003	19.995	103.164	19.658	28.081	0.504
798.000	476.271	80.004	19.995	103.156	19.663	27.727	0.531
800.000	477.338	80.004	19.995	103.155	19.672	27.056	0.530
802.000	478.399	80.002	19.998	103.158	19.677	26.666	0.558
804.000	479.512	80.002	19.994	103.161	19.686	26.039	0.556
806.000	480.528	80.003	19.997	103.157	19.687	25.996	0.495
808.000	481.652	80.003	19.995	103.154	19.698	25.142	0.537
810.000	482.737	80.004	19.995	103.152	19.703	24.813	0.544
812.000	483.828	80.005	19.995	103.150	19.706	24.538	0.561
814.000	484.993	80.003	19.995	103.154	19.717	23.798	0.591
816.000	486.067	80.005	19.994	103.167	19.723	23.370	0.549
818.000	487.204	80.003	19.997	103.156	19.728	22.968	0.574
820.000	488.280	80.003	19.996	103.154	19.736	22.399	0.549
822.000	489.407	80.002	19.995	103.150	19.746	21.628	0.586
824.000	490.511	80.004	19.994	103.152	19.753	21.146	0.561
826.000	491.644	80.005	19.996	103.157	19.761	20.553	0.524
828.000	492.754	80.003	19.994	103.159	19.766	20.175	0.556
830.000	493.869	80.005	19.996	103.156	19.771	19.800	0.544
832.000	495.036	80.003	19.996	103.151	19.778	19.296	0.610
834.000	496.082	80.003	19.994	103.154	19.790	18.427	0.530
836.000	497.211	80.006	19.994	103.150	19.792	18.284	0.532
838.000	498.365	80.007	19.994	103.149	19.803	17.500	0.530
840.000	499.446	80.005	19.995	103.154	19.808	17.125	0.534
842.000	500.564	80.006	19.995	103.148	19.815	16.627	0.562
844.000	501.690	80.007	19.994	103.151	19.820	16.244	0.560
846.000	502.748	80.006	19.995	103.144	19.829	15.568	0.522
848.000	503.901	80.005	19.995	103.145	19.830	15.492	0.567
850.000	504.936	80.004	19.995	103.145	19.838	14.923	0.549
852.000	506.066	80.003	19.994	103.144	19.844	14.493	0.573
854.000	507.130	80.005	19.996	103.143	19.851	14.012	0.547
856.000	508.207	80.007	19.996	103.144	19.859	13.371	0.541
858.000	509.311	80.005	19.996	103.149	19.860	13.360	0.522
860.000	510.362	80.007	19.995	103.144	19.867	12.824	0.524
862.000	511.436	80.006	19.996	103.137	19.870	12.640	0.518
864.000	512.479	80.008	19.996	103.143	19.872	12.483	0.505
866.000	513.521	80.006	19.995	103.142	19.877	12.102	0.528
868.000	514.636	80.006	19.994	103.149	19.877	12.072	0.561
870.000	515.719	80.007	19.996	103.148	19.880	11.861	0.514
872.000	516.732	80.006	19.996	103.143	19.880	11.904	0.518
874.000	517.778	80.003	19.995	103.143	19.887	11.329	0.540
876.000	518.845	80.005	19.996	103.144	19.888	11.273	0.500
878.000	519.862	80.003	19.995	103.143	19.891	11.060	0.487
880.000	520.929	80.004	19.996	103.147	19.892	11.026	0.519
882.000	521.960	80.003	19.996	103.147	19.892	10.992	0.522
884.000	522.981	80.004	19.996	103.145	19.893	10.940	0.493
886.000	524.020	80.002	19.996	103.145	19.894	10.856	0.514
888.000	525.070	80.003	19.996	103.144	19.894	10.836	0.540
890.000	526.056	80.004	19.997	103.145	19.899	10.457	0.494
892.000	527.086	80.003	19.996	103.146	19.897	10.641	0.503
894.000	528.091	80.003	19.996	103.145	19.899	10.501	0.505
896.000	529.108	80.003	19.995	103.145	19.900	10.405	0.509
898.000	530.153	80.005	19.995	103.146	19.902	10.277	0.515
900.000	531.130	80.004	19.995	103.146	19.904	10.135	0.500
902.000	532.142	80.004	19.995	103.153	19.903	10.222	0.496
904.000	533.125	80.004	19.995	103.148	19.905	10.047	0.506
906.000	534.114	80.004	19.995	103.146	19.907	9.917	0.521
908.000	535.107	80.005	19.996	103.144	19.906	9.997	0.512
910.000	536.104	80.003	19.996	103.144	19.906	9.990	0.479
912.000	537.124	80.004	19.996	103.145	19.910	9.716	0.488
914.000	538.084	80.004	19.995	103.148	19.908	9.849	0.475
916.000	539.063	80.004	19.996	103.144	19.910	9.689	0.498
918.000	540.047	80.004	19.995	103.164	19.908	9.839	0.474
920.000	541.033	80.005	19.995	103.149	19.910	9.657	0.486
922.000	542.014	80.005	19.997	103.152	19.910	9.703	0.492
924.000	542.985	80.004	19.996	103.172	19.913	9.483	0.472
926.000	543.981	80.007	19.995	103.153	19.910	9.689	0.485
928.000	544.953	80.005	19.995	103.157	19.912	9.515	0.498
930.000	545.954	80.007	19.994	103.159	19.911	9.588	0.505
932.000	546.943	80.006	19.996	103.154	19.913	9.462	0.501
934.000	547.893	80.005	19.996	103.155	19.910	9.693	0.496
936.000	548.881	80.004	19.995	103.163	19.910	9.701	0.471
938.000	549.889	80.005	19.994	103.179	19.911	9.648	0.510
940.000	550.883	80.005	19.995	103.176	19.912	9.525	0.510
942.000	551.883	80.006	19.994	103.183	19.914	9.425	0.500
944.000	552.856	80.006	19.995	103.178	19.914	9.380	0.476
946.000	553.886	80.006	19.996	103.173	19.913	9.446	0.506
948.000	554.882	80.006	19.995	103.174	19.912	9.578	0.508
950.000	555.907	80.006	19.995	103.168	19.914	9.410	0.505
952.000	556.875	80.006	19.996	103.172	19.915	9.323	0.500
954.000	557.869	80.007	19.996	103.169	19.912	9.514	0.499
956.000	558.884	80.005	19.996	103.182	19.915	9.354	0.502
958.000	559.910	80.005	19.994	103.181	19.914	9.366	0.502
960.000	560.932	80.005	19.996	103.182	19.917	9.209	0.488
962.000	561.923	80.004	19.996	103.181	19.915	9.296	0.503
964.000	562.965	80.004	19.996	103.185	19.913	9.436	0.514
966.000	563.953	80.003	19.996	103.180	19.915	9.344	0.480
968.000	564.948	80.003	19.995	103.185	19.916	9.242	0.502
970.000	565.939	80.003	19.995	103.186	19.915	9.336	0.510
972.000	566.991	80.003	19.995	103.185	19.913	9.458	0.497
974.000	568.020	80.003	19.996	103.183	19.919	9.014	0.522
976.000	568.977	80.002	19.996	103.182	19.915	9.343	0.508
978.000	569.984	80.004	19.996	103.181	19.914	9.374	0.508
980.000	571.031	80.003	19.996	103.174	19.913	9.452	0.532
982.000	572.025	80.003	19.998	103.178	19.917	9.192	0.526
984.000	573.068	80.004	19.997	103.179	19.916	9.222	0.525
986.000	574.076	80.004	19.996	103.174	19.917	9.173	0.504
988.000	575.138	80.004	19.996	103.176	19.917	9.209	0.514
990.000	576.154	80.003	19.996	103.167	19.915	9.285	0.485
992.000	577.172	80.005	19.995	103.156	19.918	9.081	0.510
994.000	578.227	80.003	19.996	103.157	19.919	9.013	0.503
996.000	579.228	80.003	19.995	103.153	19.916	9.220	0.492
998.000	580.269	80.005	19.994	103.143	19.919	8.999	0.510
1000.000	581.274	80.004	19.995	103.144	19.916	9.279	0.494
1002.000	582.284	80.004	19.996	103.145	19.918	9.119	0.492
1004.000	583.255	80.004	19.995	103.144	19.919	9.043	0.514
1006.000	584.285	80.004	19.996	103.140	19.918	9.129	0.500
1008.000	585.277	80.005	19.995	103.136	19.919	9.027	0.516
1010.000	586.263	80.005	19.995	103.144	19.919	9.055	0.480
1012.000	587.248	80.006	19.995	103.145	19.921	8.872	0.492
1014.000	588.243	80.006	19.995	103.144	19.919	9.057	0.500
1016.000	589.253	80.005	19.995	103.145	19.921	8.878	0.509
1018.000	590.246	80.006	19.995	103.140	19.922	8.816	0.487
1020.000	591.274	80.006	19.996	103.143	19.923	8.712	0.513
1022.000	592.260	80.004	19.995	103.146	19.922	8.808	0.510
1024.000	593.263	80.005	19.995	103.144	19.921	8.854	0.513
1025.999	594.306	80.004	19.995	103.148	19.919	9.034	0.511
1027.999	595.319	80.005	19.994	103.146	19.917	9.153	0.512
1029.999	596.353	80.005	19.995	103.147	19.917	9.167	0.520
1031.999	597.333	80.005	19.993	103.147	19.919	9.058	0.522
1033.999	598.344	80.007	19.995	103.147	19.919	8.999	0.482
1035.999	599.376	80.007	19.996	103.147	19.923	8.742	0.515
1037.999	600.384	80.008	19.994	103.147	19.919	9.058	0.502
1039.999	601.360	80.007	19.995	103.145	19.921	8.888	0.508
1041.999	602.378	80.005	19.996	103.148	19.920	8.924	0.495
1043.999	603.368	80.004	19.994	103.149	19.919	9.040	0.502
1045.999	604.386	80.005	19.995	103.144	19.919	9.037	0.517
1047.999	605.394	80.003	19.996	103.151	19.916	9.273	0.518
1049.999	606.423	80.006	19.995	103.151	19.919	9.056	0.518
1051.999	607.417	80.004	19.995	103.147	19.916	9.278	0.513
1053.999	608.458	80.003	19.996	103.145	19.918	9.109	0.511
1056.000	609.496	80.004	19.996	103.156	19.919	9.026	0.514
1057.999	610.487	80.005	19.995	103.173	19.916	9.276	0.519
1059.999	611.511	80.005	19.997	103.160	19.916	9.238	0.544
1062.001	612.474	80.005	19.997	103.156	19.918	9.077	0.480
1064.001	613.538	80.005	19.995	103.160	19.914	9.381	0.505
1066.001	614.523	80.005	19.995	103.160	19.915	9.302	0.512
1067.999	615.552	80.004	19.996	103.154	19.918	9.112	0.490
1069.999	616.571	80.006	19.997	103.158	19.917	9.153	0.512
1071.999	617.572	80.005	19.996	103.164	19.913	9.490	0.514
1073.999	618.561	80.004	19.996	103.180	19.915	9.358	0.503
1076.001	619.541	80.003	19.996	103.176	19.918	9.115	0.497
1077.999	620.604	80.002	19.997	103.183	19.915	9.351	0.478
1079.999	621.633	80.001	19.996	103.182	19.917	9.159	0.550
1081.999	622.668	80.003	19.996	103.183	19.915	9.305	0.524
1084.000	623.721	80.003	19.996	103.185	19.911	9.606	0.538
1085.999	624.770	80.004	19.996	103.185	19.913	9.488	0.548
1087.999	625.847	80.004	19.996	103.184	19.911	9.629	0.525
1089.999	626.893	80.005	19.996	103.191	19.911	9.623	0.513
1091.999	628.011	80.005	19.995	103.187	19.914	9.425	0.523
1094.000	629.115	80.005	19.995	103.186	19.909	9.745	0.546
1095.999	630.157	80.004	19.996	103.188	19.912	9.527	0.536
1098.000	631.218	80.007	19.995	103.190	19.907	9.904	0.523
1099.999	632.327	80.006	19.995	103.200	19.911	9.625	0.530
1101.999	633.374	80.005	19.995	103.194	19.910	9.690	0.545
1104.000	634.495	80.005	19.995	103.197	19.909	9.794	0.575
1105.999	635.626	80.006	19.995	103.199	19.907	9.887	0.588
1107.999	636.692	80.005	19.995	103.194	19.905	10.033	0.555
1109.999	637.790	80.004	19.995	103.196	19.906	10.013	0.560
1111.999	638.869	80.005	19.995	103.205	19.906	10.011	0.515
1113.999	639.960	80.005	19.996	103.210	19.907	9.925	0.519
1115.999	641.053	80.006	19.994	103.220	19.906	10.011	0.519
1117.999	642.158	80.007	19.995	103.217	19.904	10.101	0.554
1119.999	643.142	80.007	19.995	103.219	19.901	10.324	0.533
1121.999	644.284	80.006	19.994	103.221	19.907	9.905	0.543
1123.999	645.276	80.008	19.995	103.222	19.906	9.981	0.539
1126.000	646.373	80.006	19.995	103.223	19.905	10.042	0.551
1127.999	647.435	80.006	19.994	103.225	19.902	10.278	0.525
1129.999	648.505	80.006	19.995	103.228	19.903	10.230	0.509
1131.999	649.553	80.005	19.994	103.237	19.906	10.011	0.547
1133.999	650.605	80.007	19.995	103.240	19.900	10.393	0.511
1135.999	651.705	80.004	19.994	103.244	19.900	10.425	0.520
1137.999	652.757	80.006	19.995	103.254	19.900	10.451	0.512
1139.999	653.822	80.006	19.995	103.258	19.900	10.463	0.532
1141.999	654.895	80.004	19.995	103.258	19.898	10.541	0.549
1143.999	655.960	80.004	19.995	103.261	19.896	10.732	0.533
1145.999	657.034	80.005	19.994	103.262	19.895	10.774	0.520
1147.999	658.072	80.004	19.995	103.266	19.896	10.705	0.519
1150.000	659.109	80.004	19.995	103.266	19.894	10.883	0.533
1151.999	660.116	80.005	19.995	103.268	19.897	10.643	0.496
1154.000	661.171	80.004	19.995	103.272	19.895	10.769	0.527
1156.000	662.200	80.004	19.995	103.271	19.893	10.965	0.553
1157.999	663.188	80.003	19.995	103.282	19.893	10.971	0.487
1159.999	664.253	80.004	19.995	103.287	19.892	11.035	0.537
1161.999	665.306	80.003	19.995	103.295	19.893	10.909	0.516
1163.999	666.323	80.002	19.994	103.303	19.895	10.771	0.487
1165.999	667.382	80.001	19.994	103.306	19.891	11.101	0.524
1167.999	668.366	80.002	19.996	103.303	19.893	10.967	0.511
1169.999	669.412	80.004	19.995	103.304	19.890	11.147	0.515
1171.999	670.418	80.004	19.995	103.304	19.887	11.431	0.534
1173.999	671.394	80.004	19.996	103.300	19.889	11.254	0.475
1175.999	672.452	80.005	19.996	103.314	19.886	11.472	0.514
1177.999	673.448	80.006	19.997	103.321	19.891	11.096	0.481
1179.999	674.388	80.005	19.996	103.346	19.892	11.052	0.447
1182.000	675.491	80.005	19.996	103.451	19.888	11.291	0.485
1183.999	676.483	80.007	19.996	103.353	19.889	11.229	0.487
1185.999	677.504	80.006	19.996	103.335	19.884	11.602	0.501
1188.000	678.478	80.006	19.996	103.335	19.881	11.834	0.510
1189.999	679.462	80.005	19.996	103.337	19.880	11.871	0.480
1191.999	680.486	80.006	19.996	103.340	19.878	12.030	0.494
1193.999	681.463	80.004	19.996	103.340	19.881	11.797	0.514
1196.000	682.451	80.004	19.996	103.351	19.875	12.299	0.468
1197.999	683.432	80.007	19.995	103.350	19.880	11.905	0.511
1199.999	684.396	80.006	19.995	103.364	19.878	12.074	0.472
1201.999	685.390	80.004	19.995	103.373	19.873	12.414	0.491
1203.999	686.409	80.006	19.995	103.372	19.873	12.414	0.501
1205.999	687.382	80.008	19.995	103.375	19.871	12.538	0.496
1207.999	688.402	80.007	19.995	103.376	19.871	12.559	0.511
1210.000	689.358	80.007	19.995	103.333	19.872	12.475	0.471
1211.999	690.386	80.004	19.994	103.347	19.868	12.765	0.523
1213.999	691.358	80.005	19.994	103.379	19.869	12.716	0.495
1215.999	692.362	80.001	19.994	103.394	19.869	12.680	0.498
1217.999	693.375	80.004	19.995	103.409	19.871	12.552	0.543
1219.999	694.372	80.003	19.994	103.415	19.869	12.743	0.521
1222.000	695.353	80.005	19.995	103.407	19.864	13.044	0.491
1223.999	696.372	80.004	19.996	103.413	19.869	12.695	0.504
1226.001	697.382	80.005	19.995	103.418	19.867	12.830	0.492
1228.000	698.408	80.002	19.993	103.417	19.868	12.753	0.531
1230.000	699.411	80.005	19.994	103.411	19.868	12.756	0.518
1231.999	700.444	80.004	19.995	103.405	19.871	12.593	0.532
1233.999	701.437	80.003	19.995	103.400	19.868	12.745	0.479
1235.999	702.393	80.005	19.994	103.414	19.870	12.636	0.487
1238.000	703.469	80.006	19.996	103.401	19.866	12.947	0.494
1239.999	704.450	80.005	19.996	103.380	19.859	13.427	0.504
1241.999	705.483	80.006	19.996	103.388	19.865	12.999	0.530
1243.999	706.496	80.006	19.997	103.387	19.861	13.324	0.488
1245.999	707.570	80.002	19.996	103.394	19.861	13.300	0.535
1247.999	708.552	80.004	19.996	103.394	19.864	13.068	0.492
1249.999	709.593	80.003	19.996	103.408	19.865	13.011	0.507
1251.999	710.582	80.000	19.995	103.403	19.866	12.903	0.491
1253.999	711.603	80.002	19.995	103.388	19.866	12.924	0.484
1256.000	712.652	80.003	19.996	103.384	19.864	13.088	0.527
1257.999	713.666	80.000	19.995	103.371	19.866	12.901	0.508
1259.999	714.671	80.006	19.995	103.372	19.865	12.965	0.501
1261.999	715.732	80.008	19.995	103.367	19.865	13.025	0.521
1263.999	716.731	80.004	19.994	103.362	19.867	12.873	0.494
1265.999	717.745	80.006	19.995	103.374	19.870	12.600	0.488
1267.999	718.773	80.007	19.996	103.378	19.873	12.410	0.485
1269.999	719.794	80.006	19.995	103.377	19.871	12.526	0.497
1271.999	720.852	80.006	19.996	103.377	19.873	12.384	0.514
1273.999	721.841	80.004	19.997	103.376	19.875	12.268	0.514
1276.001	722.892	80.004	19.996	103.373	19.872	12.511	0.537
1277.999	723.879	80.005	19.995	103.357	19.877	12.128	0.519
1279.999	724.896	80.005	19.996	103.345	19.878	12.033	0.479
1282.000	725.903	80.005	19.997	103.335	19.883	11.658	0.502
1283.999	726.967	80.006	19.996	103.339	19.887	11.408	0.535
1285.999	727.994	80.005	19.995	103.318	19.885	11.498	0.524
1287.999	729.019	80.005	19.995	103.302	19.885	11.547	0.478
1289.999	730.022	80.004	19.994	103.298	19.885	11.503	0.459
1291.999	731.060	80.007	19.994	103.278	19.888	11.317	0.512
1293.999	732.077	80.004	19.994	103.264	19.894	10.893	0.495
1295.999	733.101	80.007	19.995	103.254	19.896	10.685	0.492
1297.999	734.183	80.006	19.995	103.230	19.901	10.346	0.514
1299.999	735.129	80.003	19.995	103.217	19.903	10.172	0.484
1302.001	736.158	80.003	19.995	103.209	19.903	10.179	0.503
1303.999	737.168	80.003	19.995	103.186	19.905	10.055	0.499
1305.999	738.185	80.004	19.995	103.154	19.909	9.755	0.523
1307.999	739.201	80.001	19.997	103.173	19.912	9.549	0.537
1309.999	740.268	80.005	19.996	103.150	19.911	9.608	0.526
1311.999	741.248	80.004	19.996	103.145	19.913	9.462	0.516
1313.999	742.274	80.003	19.997	103.145	19.915	9.316	0.526
1315.999	743.248	80.005	19.995	103.131	19.914	9.381	0.491
1316.499	743.545	80.004	19.996	103.130	19.918	9.132	0.497