File: 01_Data/Laminate_Flooring/MCC/Laminate_Flooring_MCC_30K_min_211108_R2.txt
Sample ID:	C:\MCC\MCC Cal\Test\Laminate_Flooring_MCC_30K_min_211108_R2.txt
Sample Weight (mg):	4.93
Heating Rate (C/s):	0.5
Combustor Temp (C):	900
N2 Flow Rate (cc/min):	80
O2 Flow Rate (cc/min):	20
Calibration File:	C:\MCC\MCC Cal\Coeff1 JN10440_30_210304.txt.txt
T Correction Coefficients:	0	1.024463	0
Time Shift (s):	14
*
Time (s)	Temperature (C)	N2 flow rate (cc/min)	O2 flow rate (cc/min)	Flow Rate (cc/min)	Oxygen (%)	HRR (W/g)	Heating rate (C/s)
0.000	107.841	80.000	19.995	102.963	20.215	0.242	-0.015
2.000	107.837	79.996	19.996	102.976	20.213	0.371	-0.014
4.000	107.804	80.001	19.994	102.972	20.218	0.096	0.010
6.000	107.818	80.000	19.994	102.972	20.218	0.102	0.004
8.000	107.806	80.000	19.995	102.974	20.215	0.259	-0.036
10.001	107.824	80.000	19.995	102.988	20.218	0.070	-0.002
12.000	107.839	80.002	19.995	102.984	20.218	0.054	0.030
14.000	107.826	80.004	19.994	102.987	20.215	0.264	0.015
16.000	107.791	80.004	19.994	102.986	20.215	0.275	-0.002
18.000	107.848	80.001	19.996	102.992	20.212	0.471	0.050
20.000	107.851	80.002	19.994	102.994	20.211	0.530	0.003
22.000	107.847	80.003	19.994	103.009	20.209	0.636	0.007
24.000	107.888	80.002	19.994	103.032	20.207	0.764	0.010
26.000	107.942	80.001	19.993	103.056	20.201	1.180	-0.001
28.000	107.968	80.000	19.995	103.087	20.200	1.261	0.033
30.000	108.065	80.004	19.995	103.109	20.195	1.580	0.042
32.000	108.205	80.002	19.994	103.112	20.196	1.512	0.056
34.000	108.334	80.002	19.994	103.141	20.188	2.006	0.057
36.000	108.505	80.008	19.993	103.137	20.187	2.102	0.085
38.000	108.716	80.003	19.994	103.136	20.188	2.036	0.099
40.001	108.958	80.001	19.994	103.141	20.188	2.053	0.113
42.000	109.201	80.000	19.994	103.139	20.186	2.189	0.134
44.000	109.461	79.988	19.995	103.147	20.184	2.294	0.139
46.000	109.793	79.995	19.994	103.147	20.180	2.538	0.173
48.000	110.040	80.005	19.993	103.169	20.176	2.804	0.115
50.000	110.415	80.001	19.995	103.183	20.175	2.854	0.182
52.000	110.813	80.000	19.996	103.200	20.175	2.863	0.170
54.000	111.168	80.010	19.997	103.209	20.174	2.956	0.180
56.000	111.613	80.010	19.994	103.220	20.175	2.904	0.234
58.001	112.049	80.000	19.997	103.226	20.172	3.072	0.207
60.000	112.550	79.995	19.999	103.220	20.174	2.973	0.242
62.000	113.011	79.998	19.996	103.225	20.172	3.051	0.223
64.000	113.567	79.995	19.997	103.230	20.170	3.205	0.276
66.000	114.117	79.997	19.997	103.223	20.167	3.432	0.283
68.000	114.712	80.000	19.995	103.209	20.169	3.288	0.293
70.000	115.300	80.014	19.992	103.210	20.169	3.269	0.276
72.000	115.906	79.996	19.994	103.212	20.167	3.394	0.328
74.001	116.514	80.001	19.993	103.227	20.165	3.514	0.331
76.000	117.147	80.010	19.993	103.235	20.171	3.150	0.303
78.000	117.806	79.998	19.994	103.233	20.168	3.350	0.354
80.000	118.488	80.004	19.995	103.232	20.170	3.239	0.342
82.000	119.145	80.005	19.995	103.232	20.165	3.527	0.367
84.000	119.869	80.004	19.996	103.240	20.164	3.584	0.381
86.000	120.566	79.992	19.995	103.243	20.165	3.501	0.367
88.000	121.343	79.997	19.997	103.253	20.165	3.507	0.391
90.000	122.146	80.003	19.995	103.245	20.163	3.691	0.422
92.001	122.936	80.011	19.991	103.252	20.162	3.703	0.416
94.000	123.733	80.000	19.994	103.238	20.165	3.535	0.399
96.001	124.539	79.999	19.994	103.238	20.166	3.498	0.384
98.000	125.304	79.999	19.995	103.244	20.165	3.551	0.423
100.001	126.171	80.002	19.994	103.252	20.167	3.376	0.427
102.000	127.012	79.999	19.995	103.241	20.167	3.376	0.414
104.000	127.854	80.002	19.996	103.236	20.170	3.213	0.432
106.000	128.694	80.004	19.995	103.234	20.170	3.195	0.436
108.000	129.616	79.994	19.995	103.227	20.169	3.256	0.460
110.000	130.495	79.983	19.997	103.228	20.170	3.205	0.442
112.000	131.384	80.012	19.992	103.231	20.169	3.247	0.440
114.000	132.237	80.004	19.994	103.230	20.170	3.185	0.416
116.000	133.147	79.994	19.995	103.225	20.168	3.312	0.424
118.000	134.097	80.001	19.994	103.231	20.172	3.101	0.477
120.001	134.998	80.003	19.994	103.227	20.168	3.346	0.461
122.000	135.868	79.999	19.994	103.232	20.172	3.074	0.432
124.000	136.837	79.999	19.994	103.229	20.172	3.099	0.478
126.000	137.745	79.999	19.995	103.234	20.173	2.995	0.434
128.000	138.688	80.001	19.992	103.232	20.169	3.249	0.435
130.000	139.618	79.990	19.994	103.224	20.171	3.172	0.466
132.000	140.539	80.017	19.994	103.230	20.170	3.192	0.439
134.000	141.524	79.998	19.994	103.225	20.168	3.306	0.477
136.000	142.482	80.001	19.994	103.221	20.168	3.333	0.486
138.000	143.442	80.006	19.995	103.228	20.169	3.285	0.484
140.000	144.406	80.009	19.996	103.230	20.172	3.054	0.500
142.000	145.341	80.001	19.994	103.233	20.172	3.108	0.463
144.000	146.307	80.001	19.995	103.226	20.167	3.421	0.474
146.000	147.247	79.997	19.994	103.222	20.171	3.172	0.469
148.000	148.230	80.000	19.996	103.225	20.173	2.997	0.468
150.000	149.193	80.001	19.996	103.219	20.171	3.119	0.476
152.000	150.200	79.998	19.996	103.226	20.171	3.170	0.484
154.000	151.172	79.997	19.993	103.224	20.173	3.040	0.498
156.000	152.144	80.002	19.994	103.224	20.174	2.913	0.481
158.000	153.137	80.000	19.995	103.222	20.173	2.993	0.484
160.000	154.145	79.994	19.995	103.230	20.174	2.943	0.482
162.000	155.115	79.999	19.996	103.221	20.175	2.893	0.468
164.000	156.113	80.000	19.993	103.220	20.174	2.925	0.506
166.000	157.115	79.996	19.994	103.215	20.175	2.863	0.506
168.000	158.067	79.990	19.997	103.202	20.176	2.816	0.489
170.000	159.096	80.004	19.995	103.195	20.175	2.893	0.524
172.000	160.106	80.002	19.995	103.196	20.175	2.898	0.525
174.000	161.096	80.004	19.995	103.203	20.177	2.780	0.491
176.000	162.059	79.997	19.995	103.223	20.175	2.871	0.480
178.000	163.029	80.001	19.994	103.206	20.171	3.168	0.483
180.000	164.019	80.000	19.995	103.202	20.173	3.039	0.524
182.000	164.996	80.003	19.995	103.209	20.172	3.057	0.492
184.000	166.055	80.006	19.992	103.193	20.171	3.112	0.521
186.000	167.027	80.002	19.990	103.200	20.172	3.071	0.474
188.000	167.992	80.003	19.994	103.207	20.174	2.946	0.487
190.000	168.945	80.005	19.994	103.200	20.174	2.921	0.508
192.000	169.977	80.002	19.992	103.196	20.173	3.027	0.501
194.000	170.922	80.000	19.994	103.191	20.172	3.087	0.480
196.000	171.913	80.002	19.994	103.192	20.173	2.994	0.499
198.000	172.872	80.001	19.995	103.194	20.177	2.769	0.482
200.000	173.869	79.999	19.995	103.189	20.174	2.967	0.512
202.000	174.868	80.002	19.994	103.190	20.172	3.101	0.478
204.000	175.832	80.000	19.994	103.189	20.175	2.894	0.498
206.000	176.811	80.001	19.995	103.188	20.172	3.073	0.463
208.000	177.808	80.004	19.994	103.187	20.172	3.094	0.501
210.000	178.778	80.004	19.995	103.192	20.171	3.114	0.502
212.000	179.778	80.000	19.994	103.186	20.174	2.958	0.511
214.000	180.738	79.999	19.994	103.186	20.173	2.978	0.492
216.000	181.751	79.995	19.994	103.186	20.173	2.998	0.508
218.000	182.753	79.995	19.996	103.188	20.176	2.822	0.544
220.000	183.710	80.001	19.994	103.191	20.173	2.983	0.458
222.000	184.687	80.004	19.992	103.187	20.177	2.729	0.496
224.000	185.712	80.008	19.993	103.185	20.174	2.924	0.488
226.000	186.679	80.001	19.996	103.188	20.174	2.931	0.486
228.000	187.685	79.999	19.995	103.184	20.171	3.130	0.492
230.000	188.717	79.999	19.996	103.180	20.171	3.154	0.506
232.000	189.593	80.004	19.996	103.177	20.174	2.955	0.507
234.000	190.652	80.007	19.995	103.168	20.170	3.235	0.508
236.000	191.593	80.005	19.996	103.170	20.170	3.194	0.438
238.000	192.539	80.002	19.995	103.172	20.171	3.155	0.476
240.000	193.488	80.003	19.994	103.172	20.174	2.940	0.492
242.000	194.473	80.001	19.995	103.169	20.168	3.305	0.481
244.000	195.400	79.998	19.997	103.180	20.172	3.087	0.444
246.000	196.361	79.997	19.995	103.171	20.175	2.878	0.502
248.000	197.346	80.001	19.994	103.180	20.173	3.012	0.504
250.000	198.289	80.001	19.994	103.171	20.171	3.124	0.498
252.000	199.327	80.003	19.995	103.166	20.168	3.351	0.540
254.000	200.231	79.998	19.996	103.177	20.168	3.353	0.457
256.000	201.199	80.000	19.995	103.177	20.170	3.221	0.460
258.000	202.178	80.000	19.997	103.179	20.169	3.251	0.489
260.000	203.192	80.000	19.996	103.175	20.169	3.274	0.502
262.000	204.136	79.999	19.996	103.188	20.166	3.480	0.480
264.000	205.120	80.001	19.994	103.182	20.162	3.706	0.477
266.000	206.117	80.000	19.994	103.180	20.164	3.572	0.523
268.000	207.032	80.002	19.995	103.180	20.165	3.542	0.449
270.000	208.054	80.002	19.996	103.182	20.164	3.587	0.500
272.000	209.078	80.005	19.992	103.173	20.162	3.742	0.497
274.000	210.003	80.005	19.992	103.178	20.163	3.693	0.456
276.000	210.977	80.002	19.994	103.164	20.162	3.737	0.450
278.000	211.988	80.002	19.994	103.153	20.162	3.721	0.485
280.000	212.982	80.002	19.995	103.163	20.159	3.926	0.482
282.000	213.996	80.001	19.995	103.174	20.159	3.948	0.499
284.000	214.979	80.000	19.994	103.170	20.156	4.101	0.493
286.000	215.971	79.999	19.995	103.158	20.159	3.949	0.507
288.000	216.965	80.000	19.995	103.173	20.156	4.099	0.505
290.000	217.970	79.998	19.996	103.178	20.154	4.247	0.497
292.000	218.959	79.998	19.995	103.180	20.152	4.394	0.534
294.000	219.926	79.999	19.995	103.173	20.151	4.451	0.486
296.000	220.929	80.003	19.994	103.171	20.151	4.449	0.492
298.000	221.930	80.002	19.996	103.163	20.150	4.494	0.499
300.000	222.933	80.002	19.994	103.169	20.149	4.577	0.517
302.000	223.865	80.001	19.994	103.162	20.147	4.717	0.463
304.000	224.921	80.000	19.994	103.166	20.146	4.748	0.501
306.000	225.931	80.000	19.996	103.174	20.141	5.095	0.560
308.000	226.949	80.002	19.995	103.165	20.143	4.993	0.513
310.000	227.926	80.000	19.995	103.157	20.139	5.217	0.500
312.000	228.948	79.999	19.995	103.157	20.142	5.031	0.505
314.000	230.004	80.000	19.995	103.169	20.140	5.171	0.506
316.000	230.997	80.000	19.996	103.167	20.137	5.381	0.487
318.000	232.001	79.998	19.996	103.158	20.135	5.494	0.504
320.000	232.966	79.998	19.996	103.159	20.134	5.549	0.492
322.000	233.989	79.999	19.995	103.159	20.132	5.691	0.504
324.000	234.960	80.000	19.995	103.159	20.125	6.133	0.474
326.000	235.960	80.002	19.994	103.159	20.128	5.949	0.511
328.000	236.974	80.000	19.997	103.153	20.125	6.129	0.517
330.000	237.975	80.003	19.995	103.153	20.126	6.104	0.497
332.000	238.955	80.000	19.995	103.151	20.122	6.350	0.506
334.000	239.929	80.002	19.995	103.149	20.121	6.425	0.486
336.000	240.907	80.002	19.996	103.151	20.120	6.449	0.472
338.000	241.886	80.001	19.995	103.148	20.119	6.509	0.495
340.000	242.895	80.000	19.996	103.146	20.115	6.790	0.506
342.000	243.881	80.001	19.995	103.149	20.113	6.897	0.484
344.000	244.885	80.000	19.996	103.149	20.115	6.791	0.524
346.000	245.815	80.001	19.996	103.149	20.107	7.285	0.506
348.000	246.814	80.001	19.996	103.150	20.107	7.336	0.508
350.000	247.848	80.002	19.995	103.147	20.107	7.313	0.498
352.000	248.828	80.002	19.995	103.148	20.106	7.404	0.494
354.000	249.837	80.001	19.995	103.145	20.103	7.558	0.531
356.000	250.834	80.000	19.997	103.151	20.104	7.520	0.508
358.000	251.838	80.002	19.995	103.147	20.103	7.579	0.509
360.000	252.821	80.003	19.996	103.146	20.101	7.685	0.507
362.001	253.782	80.000	19.995	103.147	20.101	7.680	0.475
364.001	254.815	80.001	19.996	103.149	20.106	7.406	0.524
366.000	255.847	79.999	19.995	103.150	20.102	7.630	0.495
368.000	256.814	80.000	19.994	103.152	20.100	7.762	0.495
370.000	257.809	80.001	19.994	103.152	20.105	7.439	0.489
372.000	258.775	79.999	19.994	103.156	20.103	7.571	0.490
374.000	259.821	80.001	19.994	103.153	20.108	7.235	0.493
376.000	260.757	79.999	19.994	103.152	20.108	7.247	0.480
378.000	261.828	80.002	19.994	103.162	20.109	7.176	0.542
380.000	262.743	80.000	19.995	103.167	20.110	7.133	0.471
382.000	263.735	80.003	19.994	103.160	20.114	6.898	0.508
384.000	264.781	79.999	19.994	103.161	20.114	6.845	0.513
386.000	265.788	80.001	19.993	103.166	20.113	6.957	0.502
388.000	266.829	80.000	19.995	103.183	20.117	6.692	0.536
390.000	267.836	79.998	19.995	103.182	20.130	5.817	0.508
392.000	268.818	80.001	19.995	103.223	20.147	4.695	0.466
394.000	269.861	80.000	19.995	103.284	20.151	4.472	0.518
396.000	270.923	79.999	19.995	103.214	20.145	4.840	0.521
398.000	271.960	80.000	19.994	103.192	20.145	4.824	0.528
400.000	272.955	80.002	19.995	103.190	20.138	5.306	0.523
402.000	273.966	80.001	19.995	103.187	20.139	5.200	0.531
404.000	275.013	80.002	19.995	103.188	20.134	5.555	0.485
406.000	276.050	80.004	19.995	103.191	20.134	5.565	0.521
408.000	277.044	80.001	19.996	103.201	20.132	5.669	0.489
410.000	278.096	80.003	19.995	103.213	20.136	5.409	0.501
412.000	279.160	80.003	19.995	103.222	20.136	5.401	0.537
414.000	280.127	79.998	19.995	103.223	20.137	5.339	0.469
416.000	281.219	80.001	19.996	103.229	20.140	5.178	0.518
418.000	282.199	80.000	19.995	103.230	20.136	5.428	0.527
420.000	283.228	80.002	19.996	103.234	20.133	5.622	0.534
422.000	284.222	80.002	19.995	103.254	20.129	5.916	0.514
424.000	285.275	80.002	19.995	103.266	20.126	6.066	0.549
426.001	286.298	80.002	19.995	103.270	20.118	6.612	0.530
428.000	287.318	80.002	19.995	103.271	20.116	6.769	0.513
430.000	288.322	80.002	19.995	103.277	20.106	7.389	0.524
432.000	289.306	80.002	19.995	103.299	20.096	8.063	0.483
434.000	290.305	80.003	19.995	103.305	20.090	8.446	0.511
436.000	291.273	80.002	19.995	103.284	20.081	8.997	0.469
438.000	292.334	80.001	19.996	103.270	20.077	9.307	0.503
440.000	293.276	80.001	19.996	103.267	20.075	9.423	0.478
442.000	294.338	80.000	19.995	103.266	20.079	9.131	0.520
444.000	295.248	79.999	19.996	103.254	20.083	8.868	0.461
446.000	296.236	79.999	19.995	103.247	20.089	8.469	0.482
448.000	297.253	80.000	19.995	103.241	20.098	7.897	0.533
450.000	298.224	80.003	19.995	103.240	20.103	7.587	0.475
452.000	299.208	80.000	19.994	103.233	20.108	7.261	0.508
454.000	300.152	80.000	19.995	103.226	20.119	6.531	0.447
456.000	301.165	80.000	19.994	103.218	20.127	6.024	0.511
458.000	302.181	80.002	19.995	103.204	20.133	5.607	0.504
460.000	303.182	80.001	19.994	103.188	20.139	5.243	0.499
462.000	304.188	80.002	19.995	103.184	20.139	5.238	0.505
464.001	305.181	80.001	19.994	103.170	20.145	4.866	0.494
466.000	306.162	80.001	19.995	103.158	20.150	4.511	0.500
468.000	307.177	79.999	19.995	103.149	20.154	4.251	0.488
470.000	308.181	80.000	19.995	103.144	20.157	4.040	0.496
472.000	309.189	79.999	19.996	103.135	20.160	3.876	0.496
474.000	310.184	80.002	19.994	103.115	20.163	3.632	0.506
476.000	311.196	79.999	19.994	103.111	20.167	3.386	0.511
478.000	312.250	80.000	19.994	103.114	20.169	3.294	0.525
480.000	313.199	80.000	19.995	103.108	20.170	3.195	0.499
482.000	314.242	80.002	19.994	103.106	20.173	3.020	0.512
484.000	315.234	80.002	19.995	103.112	20.175	2.849	0.507
486.000	316.199	80.002	19.994	103.092	20.175	2.872	0.494
488.000	317.161	80.006	19.994	103.109	20.179	2.637	0.484
490.000	318.176	80.001	19.995	103.100	20.178	2.667	0.506
492.000	319.196	80.002	19.994	103.105	20.179	2.617	0.522
494.000	320.193	80.001	19.994	103.110	20.181	2.469	0.520
496.000	321.140	80.000	19.994	103.112	20.184	2.310	0.482
498.000	322.146	80.002	19.994	103.113	20.182	2.410	0.469
500.000	323.162	80.000	19.988	103.110	20.180	2.519	0.522
502.000	324.190	80.001	19.996	103.112	20.182	2.416	0.528
504.000	325.134	80.002	19.995	103.112	20.182	2.398	0.470
506.000	326.165	79.999	19.994	103.112	20.182	2.449	0.504
508.000	327.177	80.000	19.995	103.112	20.184	2.290	0.498
510.000	328.135	80.003	19.995	103.113	20.186	2.180	0.484
512.000	329.157	80.005	19.994	103.115	20.184	2.272	0.469
514.000	330.141	80.002	19.993	103.127	20.189	1.992	0.468
516.000	331.152	80.002	19.994	103.118	20.186	2.177	0.479
518.000	332.131	80.000	19.993	103.113	20.184	2.280	0.450
520.000	333.148	79.999	19.995	103.112	20.182	2.396	0.516
522.000	334.162	80.003	19.995	103.109	20.185	2.203	0.496
524.000	335.168	80.001	19.995	103.109	20.185	2.253	0.525
526.000	336.167	79.996	19.996	103.128	20.188	2.005	0.485
528.001	337.206	79.999	19.995	103.128	20.188	2.003	0.500
530.000	338.174	80.005	19.994	103.121	20.186	2.133	0.495
532.000	339.193	80.000	19.995	103.118	20.186	2.164	0.505
534.000	340.184	79.998	19.997	103.132	20.184	2.292	0.487
536.000	341.205	80.002	19.995	103.116	20.187	2.089	0.531
538.000	342.227	79.997	19.995	103.133	20.185	2.203	0.517
540.000	343.243	80.015	19.994	103.122	20.187	2.087	0.497
542.000	344.294	80.006	19.995	103.120	20.186	2.182	0.501
544.000	345.299	79.992	19.994	103.121	20.186	2.175	0.510
546.000	346.323	79.999	19.995	103.125	20.186	2.175	0.495
548.000	347.411	79.996	19.995	103.122	20.186	2.157	0.550
550.000	348.401	80.006	19.994	103.119	20.189	1.969	0.527
552.000	349.449	80.000	19.995	103.129	20.189	1.950	0.541
554.000	350.448	79.999	19.995	103.122	20.188	2.048	0.499
556.001	351.509	79.999	19.995	103.124	20.188	2.048	0.514
558.000	352.545	80.001	19.995	103.127	20.186	2.187	0.545
560.000	353.611	80.002	19.995	103.123	20.190	1.899	0.524
562.000	354.647	80.002	19.995	103.123	20.191	1.858	0.519
564.000	355.682	80.004	19.994	103.118	20.193	1.725	0.516
566.000	356.757	80.001	19.994	103.123	20.188	1.998	0.545
568.000	357.756	79.999	19.995	103.131	20.188	2.048	0.510
570.000	358.811	80.003	19.994	103.123	20.191	1.832	0.547
572.000	359.813	80.002	19.994	103.111	20.191	1.821	0.500
574.000	360.849	80.002	19.994	103.115	20.187	2.074	0.501
576.000	361.894	80.004	19.993	103.118	20.187	2.064	0.528
578.000	362.936	80.001	19.994	103.116	20.185	2.239	0.523
580.000	363.904	80.003	19.993	103.116	20.187	2.106	0.514
582.000	364.917	80.002	19.994	103.116	20.187	2.069	0.499
584.000	365.989	80.002	19.994	103.112	20.187	2.121	0.542
586.000	366.978	80.003	19.995	103.111	20.187	2.079	0.494
588.000	368.021	80.008	19.994	103.110	20.185	2.237	0.514
590.000	368.998	80.004	19.995	103.112	20.184	2.301	0.506
592.000	370.010	80.002	19.995	103.098	20.185	2.242	0.493
594.000	371.029	80.002	19.995	103.103	20.183	2.335	0.495
596.000	372.041	80.000	19.995	103.097	20.184	2.320	0.486
598.000	373.088	80.002	19.995	103.103	20.183	2.371	0.487
600.000	374.096	80.002	19.995	103.108	20.183	2.372	0.477
602.000	375.073	79.994	19.998	103.106	20.184	2.263	0.515
604.000	376.033	80.000	19.995	103.092	20.184	2.320	0.500
606.001	377.007	79.998	19.994	103.098	20.184	2.256	0.491
608.000	377.979	79.996	19.996	103.101	20.184	2.283	0.468
610.000	378.900	79.998	19.995	103.096	20.181	2.483	0.445
612.000	379.920	79.994	19.997	103.090	20.179	2.628	0.501
614.000	380.861	80.002	19.995	103.094	20.180	2.562	0.486
616.000	381.824	80.001	19.997	103.101	20.178	2.655	0.453
618.000	382.814	79.997	19.995	103.108	20.180	2.549	0.477
620.000	383.769	79.999	19.996	103.093	20.181	2.508	0.497
622.000	384.746	79.999	19.996	103.106	20.178	2.655	0.468
624.000	385.749	79.999	19.997	103.101	20.178	2.676	0.506
626.000	386.682	79.998	19.995	103.112	20.177	2.760	0.471
628.000	387.693	80.001	19.996	103.113	20.175	2.863	0.480
630.000	388.720	79.999	19.996	103.108	20.177	2.737	0.499
632.000	389.708	79.998	19.994	103.105	20.176	2.813	0.486
634.000	390.670	79.998	19.995	103.110	20.172	3.084	0.489
636.000	391.677	80.001	19.995	103.110	20.173	2.990	0.490
638.000	392.710	79.998	19.995	103.113	20.172	3.050	0.532
640.000	393.703	79.997	19.992	103.111	20.171	3.149	0.506
642.000	394.732	80.005	19.994	103.108	20.168	3.347	0.516
644.000	395.747	80.003	19.995	103.101	20.170	3.183	0.537
646.000	396.778	80.004	19.995	103.090	20.168	3.350	0.497
648.000	397.766	80.001	19.995	103.100	20.166	3.461	0.512
650.000	398.767	80.003	19.995	103.094	20.167	3.414	0.500
652.000	399.793	80.000	19.996	103.098	20.161	3.802	0.503
654.000	400.761	79.991	19.995	103.104	20.165	3.514	0.477
656.000	401.750	79.994	19.995	103.089	20.165	3.539	0.495
658.000	402.710	80.004	19.993	103.089	20.160	3.845	0.491
660.000	403.720	80.000	19.995	103.099	20.160	3.855	0.493
662.001	404.746	80.002	19.994	103.094	20.161	3.785	0.489
664.000	405.694	79.992	19.998	103.103	20.161	3.819	0.482
666.000	406.646	79.987	19.997	103.084	20.157	4.021	0.494
668.000	407.656	80.002	19.993	103.086	20.155	4.200	0.500
670.000	408.648	80.004	19.995	103.093	20.153	4.289	0.472
672.000	409.619	79.997	19.994	103.094	20.152	4.371	0.479
674.000	410.640	80.008	19.993	103.088	20.149	4.568	0.521
676.000	411.568	80.007	19.995	103.085	20.150	4.497	0.473
678.000	412.558	80.025	19.994	103.083	20.147	4.727	0.511
680.000	413.519	79.998	19.995	103.098	20.143	4.939	0.472
682.001	414.475	79.984	19.996	103.099	20.143	4.975	0.461
684.000	415.405	79.998	19.993	103.096	20.139	5.200	0.487
686.000	416.351	80.000	19.994	103.105	20.136	5.432	0.480
688.000	417.360	80.000	19.995	103.112	20.134	5.536	0.490
690.000	418.370	80.013	19.992	103.094	20.130	5.797	0.492
692.000	419.383	79.996	19.996	103.103	20.125	6.151	0.517
694.001	420.345	79.982	19.999	103.106	20.126	6.067	0.455
696.000	421.427	80.010	19.994	103.111	20.121	6.420	0.536
698.001	422.410	80.001	19.995	103.111	20.118	6.578	0.498
700.000	423.440	79.994	19.994	103.114	20.115	6.768	0.481
702.000	424.477	79.997	19.995	103.109	20.106	7.352	0.551
704.000	425.478	79.997	19.995	103.108	20.105	7.440	0.509
706.000	426.489	79.996	19.994	103.094	20.097	7.941	0.507
708.000	427.540	79.997	19.996	103.095	20.099	7.812	0.537
710.000	428.600	79.996	19.996	103.100	20.092	8.276	0.527
712.000	429.636	79.998	19.997	103.093	20.082	8.911	0.533
714.000	430.665	80.000	19.995	103.080	20.080	9.049	0.514
716.000	431.707	79.990	19.997	103.086	20.079	9.142	0.511
718.000	432.705	79.999	19.997	103.083	20.072	9.582	0.475
720.000	433.764	79.992	19.996	103.093	20.066	9.965	0.520
722.000	434.861	80.006	19.994	103.089	20.061	10.298	0.522
724.000	435.887	80.004	19.995	103.082	20.053	10.840	0.512
726.000	436.922	79.995	19.994	103.086	20.045	11.327	0.510
728.001	437.943	79.989	19.996	103.065	20.037	11.870	0.536
730.000	438.984	80.006	19.995	103.069	20.034	12.075	0.509
732.000	439.991	80.000	19.995	103.080	20.024	12.700	0.508
734.000	441.012	79.994	19.995	103.086	20.011	13.569	0.491
736.000	441.976	80.004	19.994	103.076	20.007	13.829	0.482
738.000	442.980	80.008	19.994	103.084	19.996	14.553	0.494
740.000	443.995	80.006	19.995	103.075	19.988	15.062	0.506
742.000	444.954	79.999	19.994	103.074	19.980	15.603	0.521
744.000	445.972	80.003	19.993	103.071	19.969	16.284	0.526
746.000	446.947	80.007	19.992	103.075	19.961	16.839	0.511
748.000	447.939	79.990	19.996	103.080	19.948	17.702	0.495
750.000	448.920	80.002	19.994	103.081	19.942	18.064	0.484
752.000	449.938	79.994	19.994	103.080	19.934	18.619	0.497
754.000	450.903	80.004	19.994	103.082	19.924	19.246	0.485
756.000	451.875	79.993	19.996	103.076	19.917	19.716	0.475
758.000	452.872	80.001	19.994	103.069	19.904	20.548	0.469
760.000	453.862	79.992	19.995	103.072	19.896	21.068	0.492
762.000	454.819	80.001	19.994	103.075	19.890	21.496	0.469
764.000	455.813	79.995	19.996	103.078	19.881	22.076	0.477
766.000	456.804	79.999	19.995	103.074	19.874	22.542	0.504
768.000	457.820	80.002	19.992	103.077	19.867	22.953	0.520
770.000	458.760	79.994	19.996	103.080	19.859	23.517	0.491
772.000	459.741	79.994	19.996	103.073	19.855	23.763	0.479
774.000	460.731	80.001	19.996	103.078	19.850	24.081	0.483
776.000	461.749	80.000	19.995	103.087	19.849	24.173	0.517
778.000	462.760	80.003	19.995	103.089	19.843	24.506	0.514
780.000	463.771	79.998	19.995	103.086	19.842	24.574	0.517
782.000	464.765	80.000	19.994	103.075	19.841	24.687	0.493
784.000	465.783	80.001	19.996	103.077	19.841	24.664	0.533
786.000	466.802	80.000	19.994	103.081	19.837	24.903	0.503
788.000	467.859	80.000	19.994	103.080	19.841	24.650	0.511
790.000	468.907	80.002	19.994	103.074	19.839	24.789	0.524
792.000	469.945	79.999	19.995	103.079	19.842	24.568	0.538
794.000	470.991	79.999	19.996	103.068	19.843	24.529	0.537
796.000	472.017	79.998	19.996	103.069	19.847	24.243	0.492
798.000	473.074	79.998	19.997	103.068	19.857	23.630	0.512
800.000	474.094	80.001	19.996	103.068	19.859	23.499	0.527
802.000	475.153	80.000	19.997	103.066	19.865	23.124	0.504
804.000	476.147	80.001	19.996	103.067	19.867	22.976	0.518
806.000	477.133	80.001	19.994	103.064	19.876	22.360	0.505
808.000	478.166	80.000	19.995	103.074	19.881	22.023	0.502
810.000	479.184	80.000	19.995	103.077	19.887	21.683	0.503
812.000	480.237	80.000	19.997	103.072	19.894	21.186	0.507
814.000	481.248	80.000	19.995	103.074	19.903	20.599	0.510
816.000	482.244	80.001	19.996	103.073	19.912	20.021	0.505
818.000	483.240	80.002	19.993	103.074	19.919	19.585	0.488
820.000	484.217	80.001	19.994	103.076	19.931	18.814	0.481
822.000	485.208	80.002	19.995	103.076	19.936	18.456	0.490
824.000	486.219	80.001	19.995	103.076	19.949	17.592	0.471
826.000	487.207	80.002	19.993	103.073	19.956	17.152	0.492
828.000	488.229	79.999	19.994	103.074	19.965	16.592	0.515
830.000	489.235	80.004	19.993	103.072	19.972	16.144	0.489
832.000	490.221	80.002	19.993	103.074	19.980	15.593	0.465
834.000	491.238	80.000	19.996	103.073	19.992	14.788	0.501
836.000	492.257	79.999	19.994	103.074	19.999	14.328	0.503
838.000	493.276	79.994	19.999	103.077	20.007	13.821	0.518
840.000	494.301	79.997	19.996	103.069	20.018	13.099	0.487
842.000	495.289	80.000	19.996	103.070	20.021	12.891	0.499
844.000	496.300	80.000	19.996	103.069	20.036	11.928	0.500
846.000	497.303	80.000	19.995	103.070	20.039	11.717	0.502
848.000	498.335	80.000	19.994	103.076	20.051	10.989	0.521
850.000	499.327	80.002	19.995	103.073	20.058	10.484	0.506
852.000	500.318	80.001	19.995	103.076	20.066	9.971	0.467
854.000	501.333	80.000	19.995	103.070	20.070	9.743	0.513
856.000	502.305	80.000	19.996	103.071	20.080	9.092	0.503
858.000	503.333	80.000	19.994	103.072	20.088	8.576	0.532
860.000	504.294	80.000	19.994	103.074	20.094	8.164	0.481
862.000	505.280	80.002	19.995	103.069	20.099	7.841	0.481
864.000	506.325	79.999	19.995	103.069	20.100	7.756	0.512
866.000	507.327	80.000	19.995	103.067	20.110	7.144	0.504
868.000	508.324	79.999	19.996	103.066	20.117	6.674	0.508
870.000	509.334	79.999	19.995	103.070	20.119	6.531	0.491
872.000	510.366	79.998	19.996	103.073	20.127	5.994	0.520
874.000	511.374	79.997	19.995	103.078	20.128	5.973	0.518
876.000	512.374	79.998	19.995	103.079	20.135	5.487	0.506
878.001	513.368	79.999	19.997	103.074	20.139	5.229	0.509
880.000	514.451	80.000	19.995	103.073	20.143	4.952	0.541
882.000	515.473	80.001	19.995	103.073	20.147	4.688	0.550
884.000	516.488	80.001	19.995	103.074	20.150	4.522	0.484
886.000	517.510	80.001	19.994	103.073	20.155	4.206	0.539
888.000	518.547	80.000	19.996	103.071	20.157	4.035	0.517
890.000	519.538	79.999	19.996	103.073	20.159	3.894	0.497
892.000	520.565	80.000	19.996	103.073	20.163	3.628	0.504
894.000	521.588	80.000	19.996	103.073	20.168	3.342	0.496
896.000	522.639	80.000	19.996	103.070	20.167	3.380	0.535
898.000	523.668	79.999	19.996	103.070	20.168	3.307	0.491
900.000	524.685	79.999	19.995	103.070	20.171	3.132	0.494
902.000	525.721	80.001	19.996	103.069	20.173	3.012	0.501
904.000	526.750	80.000	19.994	103.069	20.174	2.938	0.525
906.000	527.793	80.001	19.996	103.069	20.174	2.912	0.508
908.000	528.857	80.002	19.994	103.068	20.175	2.893	0.542
910.000	529.885	80.002	19.996	103.070	20.177	2.753	0.535
912.000	530.960	80.003	19.994	103.069	20.181	2.455	0.546
914.000	531.968	80.002	19.993	103.085	20.179	2.612	0.502
916.000	533.023	79.999	19.994	103.074	20.180	2.520	0.535
918.001	534.073	80.002	19.995	103.071	20.180	2.525	0.515
920.000	535.153	79.999	19.995	103.070	20.178	2.691	0.544
922.000	536.192	80.001	19.995	103.064	20.183	2.359	0.524
924.000	537.245	80.002	19.995	103.070	20.184	2.317	0.551
926.000	538.281	80.002	19.995	103.070	20.183	2.359	0.517
928.000	539.343	80.002	19.994	103.072	20.184	2.299	0.493
930.000	540.383	79.999	19.995	103.073	20.183	2.331	0.539
932.000	541.369	80.001	19.995	103.071	20.189	1.983	0.528
934.000	542.427	80.000	19.994	103.082	20.188	2.022	0.532
936.000	543.492	80.001	19.994	103.078	20.185	2.233	0.515
938.000	544.529	80.001	19.995	103.078	20.190	1.917	0.527
940.000	545.540	80.001	19.994	103.078	20.192	1.765	0.506
942.000	546.590	80.000	19.994	103.080	20.192	1.751	0.520
944.000	547.629	79.998	19.994	103.075	20.193	1.689	0.539
946.000	548.641	80.002	19.995	103.080	20.192	1.771	0.510
948.000	549.664	79.990	19.995	103.082	20.194	1.648	0.476
950.000	550.718	79.996	19.994	103.081	20.191	1.821	0.497
952.000	551.772	79.996	19.994	103.085	20.191	1.846	0.527
954.000	552.791	79.997	19.996	103.102	20.191	1.855	0.532
956.000	553.822	79.997	19.996	103.098	20.190	1.892	0.526
958.000	554.864	79.998	19.996	103.099	20.192	1.790	0.521
960.000	555.872	79.996	19.995	103.103	20.192	1.783	0.486
962.000	556.876	80.004	19.995	103.102	20.193	1.696	0.506
964.000	557.943	80.002	19.995	103.101	20.190	1.878	0.516
966.000	558.981	80.000	19.995	103.102	20.193	1.712	0.483
968.000	559.979	80.002	19.994	103.107	20.193	1.680	0.515
970.000	561.002	79.997	19.994	103.109	20.195	1.542	0.530
972.000	562.045	80.002	19.994	103.109	20.194	1.657	0.536
974.000	563.060	79.999	19.995	103.106	20.196	1.532	0.549
976.000	564.069	80.000	19.996	103.108	20.195	1.585	0.509
978.000	565.053	80.000	19.995	103.110	20.195	1.551	0.501
980.000	566.121	80.002	19.996	103.108	20.193	1.671	0.528
982.000	567.097	80.003	19.995	103.112	20.194	1.649	0.458
984.000	568.124	80.001	19.996	103.106	20.199	1.333	0.522
986.000	569.181	80.003	19.995	103.106	20.198	1.366	0.507
988.000	570.174	80.002	19.995	103.106	20.197	1.464	0.492
990.000	571.205	80.001	19.996	103.108	20.199	1.341	0.503
992.000	572.229	80.004	19.995	103.104	20.199	1.292	0.542
994.000	573.230	79.996	19.995	103.106	20.201	1.196	0.509
996.000	574.249	80.004	19.994	103.110	20.196	1.500	0.541
998.000	575.299	79.998	19.996	103.112	20.197	1.459	0.527
1000.000	576.323	79.998	19.996	103.109	20.200	1.219	0.483
1002.000	577.358	80.002	19.995	103.111	20.200	1.274	0.496
1004.000	578.363	80.004	19.995	103.110	20.197	1.462	0.555
1006.000	579.361	80.000	19.995	103.114	20.198	1.362	0.521
1008.000	580.418	80.011	19.992	103.116	20.208	0.694	0.489
1010.000	581.361	80.009	19.996	103.112	20.200	1.224	0.482
1012.000	582.386	79.993	19.997	103.099	20.194	1.651	0.440
1014.000	583.503	79.994	19.996	103.084	20.204	0.999	0.510
1016.000	584.483	79.998	19.995	103.086	20.201	1.174	0.460
1018.000	585.497	80.012	19.994	103.077	20.208	0.694	0.650
1020.000	586.538	79.996	19.994	103.080	20.204	0.953	0.551
1022.000	588.234	79.998	19.994	103.087	20.205	0.944	1.035
1024.000	588.737	79.999	19.994	103.077	20.207	0.794	0.093
1026.000	589.947	79.997	19.995	103.084	20.207	0.808	0.835
1028.001	590.645	80.000	19.995	103.079	20.208	0.714	0.474
1030.000	591.726	79.999	19.994	103.073	20.211	0.500	0.419
1032.000	592.838	79.998	19.994	103.073	20.211	0.539	0.533
1034.000	593.778	80.000	19.994	103.072	20.210	0.610	0.486
1036.000	594.906	79.999	19.995	103.074	20.209	0.632	0.497
1038.000	595.939	80.001	19.996	103.069	20.210	0.582	0.481
1040.000	596.833	80.004	19.996	103.069	20.211	0.496	0.491
1042.001	597.918	80.001	19.995	103.069	20.209	0.639	0.490
1044.000	598.943	80.001	19.994	103.070	20.209	0.676	0.508
1046.000	599.912	80.002	19.996	103.076	20.210	0.609	0.465
1048.000	600.897	80.002	19.995	103.071	20.209	0.630	0.508
1050.000	601.888	80.000	19.996	103.074	20.208	0.755	0.503
1052.000	602.839	80.003	19.995	103.068	20.209	0.628	0.489
1054.000	603.858	80.005	19.995	103.069	20.210	0.605	0.509
1056.000	604.790	80.002	19.995	103.075	20.210	0.591	0.478
1058.001	605.778	80.002	19.995	103.078	20.206	0.860	0.503
1060.000	606.751	80.002	19.996	103.076	20.208	0.719	0.518
1062.000	607.712	80.000	19.995	103.076	20.207	0.776	0.476
1064.000	608.675	80.003	19.995	103.077	20.210	0.605	0.494
1066.000	609.657	80.001	19.996	103.088	20.209	0.651	0.479
1068.000	610.597	80.001	19.995	103.076	20.204	0.982	0.483
1070.000	611.599	80.002	19.995	103.072	20.207	0.819	0.487
1072.000	612.543	80.002	19.995	103.088	20.206	0.880	0.477
1074.000	613.535	80.002	19.995	103.098	20.211	0.498	0.464
1076.000	614.515	80.000	19.997	103.099	20.210	0.603	0.492
1078.001	615.446	79.999	19.996	103.076	20.207	0.762	0.472
1080.000	616.462	80.009	19.994	103.090	20.207	0.798	0.480
1082.000	617.409	79.995	19.995	103.102	20.210	0.603	0.462
1084.000	618.361	80.000	19.995	103.094	20.205	0.930	0.478
1086.001	619.358	80.001	19.995	103.097	20.207	0.767	0.479
1088.000	620.343	79.999	19.998	103.103	20.210	0.612	0.502
1090.000	621.276	80.011	19.995	103.101	20.208	0.718	0.457
1092.001	622.277	80.002	19.996	103.088	20.209	0.664	0.490
1094.000	623.240	79.998	19.995	103.095	20.207	0.784	0.488
1096.000	624.237	80.000	19.996	103.085	20.208	0.752	0.492
1098.000	625.216	79.998	19.996	103.091	20.209	0.661	0.476
1100.000	626.208	80.014	19.993	103.097	20.207	0.775	0.498
1102.000	627.174	79.998	19.996	103.104	20.209	0.653	0.482
1104.000	628.101	80.000	19.995	103.103	20.206	0.843	0.471
1106.000	629.141	80.009	19.995	103.112	20.206	0.837	0.501
1108.000	630.091	80.000	19.995	103.112	20.205	0.935	0.478
1110.000	631.079	80.000	19.995	103.109	20.202	1.146	0.505
1112.000	632.130	79.999	19.995	103.108	20.202	1.094	0.519
1114.000	633.100	79.999	19.996	103.114	20.205	0.930	0.487
1116.000	634.164	80.002	19.995	103.111	20.201	1.198	0.510
1118.001	635.179	79.998	19.994	103.111	20.202	1.114	0.523
1120.000	636.245	80.002	19.995	103.113	20.201	1.205	0.520
1122.001	637.311	80.001	19.995	103.123	20.202	1.084	0.532
1124.000	638.287	80.002	19.996	103.127	20.202	1.087	0.487
1126.000	639.400	80.000	19.994	103.137	20.204	0.987	0.570
1128.000	640.426	80.000	19.994	103.123	20.204	0.977	0.493
1130.000	641.069	80.000	19.995	103.134	20.199	1.339	0.416
1132.001	642.507	79.999	19.995	103.128	20.201	1.195	0.096
1134.001	643.270	79.999	19.995	103.126	20.201	1.173	0.463
1136.000	644.732	80.000	19.995	103.129	20.200	1.245	0.593
1138.000	645.727	79.999	19.995	103.141	20.202	1.143	0.551
1140.000	646.789	79.999	19.995	103.133	20.201	1.154	0.556
1142.000	647.809	80.004	19.995	103.144	20.202	1.102	0.482
1144.000	648.837	80.002	19.994	103.149	20.199	1.338	0.502
1146.001	649.816	80.001	19.995	103.150	20.200	1.225	0.465
1148.000	651.017	80.002	19.994	103.144	20.200	1.222	0.533
1150.000	651.927	80.001	19.995	103.148	20.197	1.434	0.497
1152.000	652.983	80.000	19.995	103.150	20.200	1.240	0.518
1154.000	653.998	79.999	19.996	103.153	20.198	1.368	0.514
1156.000	655.044	79.997	19.995	103.169	20.195	1.590	0.546
1158.000	656.027	79.998	19.997	103.171	20.196	1.513	0.496
1160.000	657.044	79.999	19.998	103.160	20.197	1.438	0.520
1162.001	658.129	80.000	19.997	103.170	20.190	1.888	0.523
1164.000	659.115	79.999	19.996	103.169	20.194	1.635	0.510
1166.000	660.112	79.998	19.996	103.186	20.195	1.571	0.495
1168.000	661.186	79.999	19.995	103.186	20.189	1.934	0.529
1170.000	662.210	80.000	19.995	103.186	20.189	1.982	0.513
1172.000	663.271	80.000	19.994	103.189	20.190	1.877	0.543
1174.000	664.332	80.001	19.996	103.191	20.192	1.753	0.507
1176.001	665.358	79.998	19.995	103.212	20.193	1.716	0.533
1178.000	666.449	79.999	19.995	103.222	20.190	1.893	0.222
1180.000	667.528	79.998	19.995	103.221	20.192	1.787	0.559
1182.001	668.504	80.001	19.996	103.224	20.188	2.037	0.547
1184.000	669.587	79.997	19.995	103.225	20.187	2.121	0.526
1186.000	670.643	79.996	19.995	103.231	20.190	1.920	0.538
1188.000	671.758	79.999	19.995	103.230	20.187	2.079	0.534
1190.000	672.770	80.001	19.996	103.231	20.188	2.059	0.493
1192.000	673.845	79.998	19.996	103.231	20.186	2.140	0.542
1194.000	674.944	80.003	19.994	103.231	20.184	2.304	0.547
1196.001	675.993	80.000	19.994	103.233	20.187	2.070	0.530
1198.000	677.003	79.999	19.995	103.240	20.187	2.104	0.500
1200.000	678.067	80.001	19.994	103.249	20.185	2.256	0.549
1202.000	679.075	80.001	19.995	103.258	20.183	2.380	0.503
1204.001	680.104	80.004	19.993	103.250	20.184	2.310	0.516
1206.000	681.071	79.995	19.994	103.267	20.185	2.217	0.492
1208.000	682.078	79.999	19.994	103.268	20.184	2.318	0.509
1210.000	683.107	79.997	19.994	103.271	20.181	2.520	0.527
1212.000	684.047	80.001	19.995	103.270	20.182	2.410	0.485
1214.000	685.036	80.004	19.994	103.274	20.183	2.328	0.515
1216.000	685.983	79.995	19.996	103.284	20.182	2.439	0.495
1218.000	686.934	80.002	19.996	103.285	20.178	2.710	0.471
1220.000	687.928	80.002	19.995	103.303	20.176	2.797	0.485
1222.000	688.871	80.003	19.994	103.280	20.178	2.660	0.487
1224.000	689.810	80.003	19.995	103.284	20.177	2.767	0.462
1226.000	690.793	80.007	19.994	103.302	20.175	2.874	0.461
1228.000	691.775	80.007	19.995	103.298	20.176	2.842	0.493
1230.000	692.713	80.004	19.996	103.305	20.174	2.957	0.493
1232.000	693.658	79.999	19.994	103.311	20.171	3.113	0.501
1234.000	694.643	79.998	19.995	103.309	20.173	3.002	0.483
1236.000	695.644	80.000	19.995	103.305	20.174	2.956	0.518
1238.000	696.571	79.998	19.995	103.310	20.169	3.253	0.474
1240.001	697.570	80.000	19.996	103.325	20.170	3.187	0.489
1242.001	698.609	80.005	19.996	103.340	20.167	3.421	0.533
1244.001	699.581	80.003	19.998	103.337	20.169	3.276	0.533
1246.000	700.609	80.001	19.997	103.345	20.169	3.299	0.501
1248.000	701.672	79.999	19.996	103.342	20.170	3.210	0.551
1250.000	702.667	80.000	19.996	103.348	20.170	3.243	0.495
1252.000	703.685	79.999	19.997	103.345	20.170	3.204	0.502
1254.000	704.725	79.994	19.997	103.348	20.168	3.354	0.511
1256.000	705.781	79.999	19.996	103.350	20.168	3.327	0.513
1258.000	706.804	80.000	19.995	103.349	20.166	3.447	0.522
1260.000	707.828	80.000	19.995	103.355	20.163	3.651	0.534
1262.000	708.871	79.997	19.995	103.374	20.159	3.956	0.529
1264.000	709.943	79.998	19.995	103.372	20.160	3.854	0.556
1266.000	710.988	79.999	19.994	103.361	20.159	3.902	0.532
1268.000	712.019	80.000	19.996	103.368	20.160	3.864	0.532
1270.000	713.086	80.001	19.995	103.382	20.159	3.914	0.538
1272.000	714.162	80.001	19.997	103.378	20.159	3.937	0.554
1274.000	715.169	80.000	19.996	103.385	20.160	3.896	0.543
1276.000	716.216	80.002	19.994	103.385	20.159	3.932	0.493
1278.000	717.287	80.001	19.995	103.383	20.156	4.122	0.534
1280.000	718.340	80.002	19.995	103.373	20.156	4.148	0.538
1282.000	719.382	80.001	19.995	103.380	20.153	4.319	0.512
1284.000	720.476	80.002	19.995	103.373	20.155	4.158	0.528
1286.000	721.506	79.999	19.994	103.373	20.157	4.052	0.516
1288.000	722.557	80.003	19.995	103.374	20.155	4.201	0.508
1290.000	723.593	80.001	19.996	103.366	20.156	4.096	0.530
1292.000	724.642	80.000	19.995	103.347	20.159	3.947	0.531
1294.000	725.646	80.001	19.994	103.344	20.160	3.831	0.523
1296.000	726.665	80.003	19.995	103.343	20.158	3.975	0.517
1298.000	727.690	80.003	19.994	103.338	20.161	3.826	0.536
1300.000	728.756	80.002	19.995	103.330	20.163	3.688	0.554
1302.000	729.807	80.002	19.995	103.310	20.165	3.544	0.540
1304.000	730.848	80.003	19.995	103.301	20.166	3.456	0.523
1306.000	731.883	80.001	19.995	103.292	20.171	3.168	0.533
1308.000	732.958	80.002	19.994	103.272	20.172	3.058	0.517
1310.000	733.996	80.001	19.995	103.258	20.173	2.996	0.518
1312.000	735.080	80.000	19.996	103.240	20.177	2.729	0.518
1314.000	736.126	79.999	19.996	103.228	20.181	2.482	0.531
1316.000	737.221	79.999	19.996	103.218	20.184	2.264	0.525
1318.000	738.284	80.000	19.995	103.198	20.185	2.208	0.531
1320.000	739.308	80.001	19.995	103.183	20.188	2.011	0.512
1322.000	740.362	80.000	19.996	103.174	20.193	1.668	0.512
1324.000	741.415	79.999	19.995	103.146	20.194	1.608	0.523
1326.000	742.505	80.000	19.996	103.122	20.201	1.188	0.517
1328.000	743.542	79.998	19.996	103.113	20.199	1.336	0.542