File: 01_Data/Laminate_Flooring/MCC/Laminate_Flooring_MCC_30K_min_211105_R1.txt
Sample ID:	C:\MCC\MCC Cal\Test\Laminate_Flooring_MCC_30K_min_211105_R1.txt
Sample Weight (mg):	4.61
Heating Rate (C/s):	0.5
Combustor Temp (C):	900
N2 Flow Rate (cc/min):	80
O2 Flow Rate (cc/min):	20
Calibration File:	C:\MCC\MCC Cal\Coeff1 JN10440_30_210304.txt.txt
T Correction Coefficients:	0	1.024463	0
Time Shift (s):	14
*
Time (s)	Temperature (C)	N2 flow rate (cc/min)	O2 flow rate (cc/min)	Flow Rate (cc/min)	Oxygen (%)	HRR (W/g)	Heating rate (C/s)
0.000	107.448	80.002	19.994	102.999	20.004	-0.020	0.010
2.000	107.429	80.003	19.995	102.991	20.000	0.237	-0.011
4.000	107.417	80.002	19.994	103.011	20.004	-0.074	0.008
6.000	107.451	80.002	19.994	103.017	20.007	-0.228	0.013
8.000	107.396	80.003	19.995	103.021	20.001	0.146	0.017
10.001	107.404	80.001	19.997	103.021	20.000	0.217	0.004
12.000	107.454	80.004	19.995	103.042	19.998	0.356	0.004
14.000	107.455	80.003	19.994	103.035	19.996	0.539	0.012
16.000	107.509	80.003	19.996	103.041	19.994	0.634	0.030
18.000	107.540	80.003	19.995	103.060	19.992	0.813	0.035
20.000	107.602	80.006	19.994	103.061	19.986	1.186	0.029
22.000	107.659	80.004	19.995	103.084	19.982	1.488	0.024
24.000	107.753	80.004	19.993	103.133	19.980	1.624	0.016
26.000	107.838	80.006	19.994	103.132	19.982	1.468	0.041
28.000	107.928	80.002	19.994	103.122	19.976	1.893	0.064
30.001	108.056	80.001	19.994	103.134	19.975	1.941	0.085
32.000	108.206	80.002	19.993	103.149	19.976	1.893	0.046
34.000	108.415	80.004	19.995	103.158	19.968	2.430	0.088
36.000	108.606	80.003	19.994	103.178	19.969	2.364	0.077
38.000	108.833	80.003	19.996	103.180	19.969	2.368	0.119
40.000	109.173	80.006	19.993	103.184	19.966	2.607	0.178
42.000	109.413	80.004	19.994	103.186	19.967	2.548	0.152
44.000	109.717	80.007	19.994	103.182	19.965	2.693	0.149
46.000	110.059	80.003	19.994	103.190	19.962	2.867	0.166
48.001	110.346	80.004	19.994	103.206	19.960	3.000	0.135
50.001	110.752	80.002	19.994	103.203	19.963	2.808	0.219
52.000	111.148	80.003	19.994	103.215	19.960	3.051	0.184
54.000	111.539	80.007	19.993	103.210	19.960	3.015	0.195
56.000	111.973	80.004	19.994	103.213	19.962	2.878	0.207
58.000	112.403	80.004	19.995	103.214	19.963	2.798	0.222
60.000	112.881	80.003	19.993	103.215	19.959	3.082	0.229
62.000	113.389	80.003	19.993	103.215	19.961	2.936	0.273
64.000	113.826	80.001	19.994	103.214	19.958	3.138	0.253
66.000	114.384	80.006	19.995	103.217	19.960	3.016	0.256
68.000	114.934	80.007	19.995	103.216	19.958	3.140	0.254
70.000	115.436	80.007	19.994	103.216	19.959	3.108	0.302
72.000	115.998	80.006	19.995	103.215	19.956	3.296	0.269
74.001	116.585	80.005	19.995	103.215	19.957	3.231	0.272
76.000	117.183	80.005	19.995	103.218	19.954	3.465	0.311
78.000	117.789	80.004	19.995	103.222	19.950	3.701	0.283
80.000	118.368	80.004	19.995	103.215	19.955	3.369	0.291
82.000	119.006	80.001	19.994	103.224	19.951	3.653	0.320
84.000	119.611	80.004	19.993	103.243	19.955	3.399	0.290
86.001	120.271	80.003	19.994	103.247	19.950	3.718	0.333
88.000	120.917	80.001	19.996	103.252	19.952	3.582	0.327
90.000	121.595	80.006	19.994	103.256	19.950	3.708	0.341
92.000	122.234	80.001	19.995	103.254	19.949	3.783	0.328
94.001	122.977	80.003	19.994	103.256	19.949	3.807	0.339
96.000	123.706	80.004	19.996	103.257	19.948	3.861	0.346
98.000	124.429	80.003	19.995	103.254	19.951	3.653	0.360
100.000	125.187	80.001	19.994	103.254	19.948	3.840	0.343
102.000	125.961	80.002	19.996	103.257	19.947	3.952	0.381
104.000	126.700	80.002	19.995	103.256	19.948	3.861	0.372
106.000	127.490	80.001	19.995	103.257	19.950	3.703	0.368
108.000	128.249	80.000	19.994	103.263	19.946	3.981	0.372
110.000	129.097	80.001	19.995	103.258	19.949	3.807	0.407
112.001	129.873	80.004	19.995	103.254	19.945	4.048	0.413
114.001	130.711	80.002	19.995	103.257	19.947	3.950	0.405
116.001	131.519	80.000	19.995	103.254	19.945	4.043	0.385
118.000	132.358	80.004	19.995	103.253	19.945	4.083	0.432
120.001	133.174	80.005	19.994	103.261	19.946	3.978	0.398
122.000	134.039	80.005	19.993	103.259	19.947	3.957	0.451
124.000	134.898	80.002	19.997	103.262	19.945	4.039	0.436
126.001	135.786	80.007	19.994	103.268	19.948	3.874	0.475
128.000	136.658	80.004	19.995	103.253	19.947	3.902	0.427
130.000	137.553	80.003	19.995	103.259	19.946	4.000	0.410
132.000	138.455	80.005	19.994	103.265	19.945	4.085	0.460
134.000	139.335	80.003	19.994	103.257	19.948	3.870	0.462
136.000	140.274	80.003	19.996	103.257	19.944	4.134	0.463
138.000	141.153	80.004	19.995	103.255	19.945	4.038	0.442
140.000	142.097	80.005	19.995	103.266	19.944	4.167	0.466
142.000	143.037	80.006	19.995	103.268	19.943	4.184	0.462
144.000	143.958	80.007	19.994	103.261	19.947	3.941	0.468
146.000	144.934	80.005	19.993	103.258	19.944	4.127	0.480
148.000	145.848	80.012	19.993	103.269	19.946	3.974	0.452
150.000	146.820	80.006	19.993	103.267	19.944	4.145	0.459
152.000	147.741	80.003	19.994	103.262	19.945	4.061	0.450
154.000	148.706	80.005	19.994	103.269	19.947	3.937	0.477
156.000	149.723	80.003	19.994	103.267	19.946	4.035	0.515
158.001	150.693	80.004	19.993	103.268	19.943	4.187	0.502
160.000	151.654	80.005	19.993	103.275	19.945	4.063	0.482
162.000	152.646	80.001	19.994	103.261	19.943	4.180	0.514
164.000	153.577	80.003	19.994	103.259	19.941	4.362	0.470
166.000	154.580	80.002	19.994	103.259	19.945	4.098	0.504
168.001	155.545	80.004	19.994	103.259	19.940	4.389	0.513
170.000	156.547	80.006	19.994	103.255	19.945	4.068	0.465
172.000	157.545	80.002	19.994	103.257	19.944	4.157	0.543
174.000	158.480	80.004	19.993	103.258	19.944	4.139	0.473
176.000	159.456	80.005	19.994	103.255	19.940	4.387	0.506
178.000	160.461	80.003	19.993	103.254	19.946	3.996	0.491
180.000	161.420	80.001	19.994	103.254	19.943	4.211	0.471
182.000	162.424	80.002	19.994	103.252	19.940	4.391	0.494
184.000	163.463	80.003	19.994	103.248	19.939	4.465	0.557
186.000	164.429	79.999	19.995	103.254	19.942	4.304	0.496
188.000	165.429	80.002	19.996	103.251	19.943	4.206	0.501
190.000	166.415	80.002	19.996	103.252	19.942	4.315	0.496
192.000	167.390	80.003	19.996	103.251	19.943	4.233	0.496
194.000	168.399	80.002	19.995	103.248	19.943	4.220	0.489
196.000	169.407	80.002	19.995	103.252	19.943	4.201	0.516
198.000	170.413	80.000	19.996	103.251	19.940	4.422	0.491
200.000	171.417	80.004	19.995	103.249	19.943	4.229	0.483
202.000	172.449	80.004	19.996	103.248	19.940	4.405	0.541
204.000	173.416	80.004	19.995	103.245	19.942	4.284	0.495
206.000	174.461	80.008	19.994	103.232	19.939	4.508	0.517
208.000	175.458	80.005	19.994	103.227	19.942	4.274	0.482
210.000	176.428	80.002	19.996	103.241	19.944	4.135	0.496
212.000	177.426	80.002	19.994	103.239	19.943	4.233	0.484
214.000	178.414	80.004	19.994	103.234	19.941	4.333	0.498
216.000	179.393	80.006	19.996	103.219	19.938	4.555	0.461
218.000	180.369	80.004	19.994	103.233	19.942	4.288	0.477
220.000	181.352	80.005	19.994	103.243	19.943	4.220	0.492
222.000	182.379	80.004	19.994	103.235	19.941	4.337	0.512
224.000	183.345	80.005	19.994	103.236	19.940	4.419	0.516
226.000	184.326	80.007	19.994	103.232	19.942	4.313	0.515
228.000	185.316	80.007	19.993	103.223	19.941	4.377	0.469
230.000	186.267	80.005	19.993	103.229	19.938	4.542	0.512
232.000	187.325	80.002	19.993	103.235	19.939	4.456	0.507
234.000	188.310	80.012	19.992	103.245	19.934	4.804	0.509
236.000	189.285	79.998	19.993	103.244	19.940	4.416	0.501
238.000	190.287	80.000	19.994	103.234	19.937	4.653	0.489
240.000	191.263	80.002	19.993	103.229	19.939	4.510	0.492
242.000	192.224	79.998	19.994	103.223	19.939	4.460	0.479
244.000	193.215	80.000	19.996	103.218	19.939	4.497	0.483
246.000	194.206	80.005	19.994	103.221	19.939	4.491	0.468
248.000	195.206	80.001	19.995	103.221	19.936	4.725	0.531
250.000	196.191	80.005	19.995	103.218	19.940	4.390	0.510
252.000	197.167	80.002	19.995	103.218	19.936	4.686	0.486
254.000	198.155	80.005	19.995	103.215	19.936	4.681	0.501
256.000	199.148	80.005	19.995	103.213	19.935	4.751	0.514
258.000	200.185	80.005	19.995	103.214	19.933	4.935	0.502
260.000	201.125	80.002	19.995	103.219	19.931	5.031	0.498
262.000	202.100	80.004	19.996	103.218	19.934	4.835	0.485
264.000	203.090	80.005	19.995	103.214	19.933	4.931	0.478
266.000	204.079	80.006	19.994	103.214	19.931	5.066	0.487
268.000	205.074	80.004	19.994	103.216	19.930	5.104	0.550
270.000	206.068	80.001	19.994	103.217	19.930	5.096	0.505
272.000	207.063	80.002	19.995	103.214	19.932	5.003	0.488
274.000	208.074	80.004	19.994	103.212	19.929	5.178	0.514
276.000	209.020	80.003	19.995	103.214	19.932	4.972	0.488
278.000	209.992	80.000	19.994	103.216	19.928	5.228	0.496
280.000	211.000	80.001	19.996	103.217	19.928	5.261	0.493
282.000	211.979	80.004	19.995	103.214	19.925	5.460	0.508
284.000	212.954	80.004	19.996	103.216	19.929	5.166	0.472
286.000	213.963	80.001	19.996	103.212	19.929	5.165	0.482
288.000	214.951	80.003	19.996	103.212	19.925	5.463	0.493
290.000	215.909	80.010	19.995	103.216	19.922	5.650	0.493
292.000	216.925	80.005	19.995	103.218	19.923	5.602	0.488
294.000	217.873	80.003	19.994	103.215	19.921	5.738	0.493
296.000	218.878	80.006	19.995	103.214	19.922	5.710	0.518
298.000	219.871	79.999	19.994	103.218	19.924	5.537	0.507
300.000	220.833	80.002	19.994	103.216	19.922	5.667	0.480
302.000	221.811	80.007	19.994	103.210	19.920	5.790	0.491
304.000	222.788	80.005	19.996	103.215	19.920	5.790	0.486
306.000	223.761	80.005	19.994	103.209	19.917	6.030	0.509
308.000	224.740	80.001	19.995	103.213	19.919	5.893	0.486
310.000	225.789	80.000	19.995	103.207	19.915	6.156	0.511
312.000	226.741	80.006	19.993	103.203	19.914	6.245	0.495
314.000	227.750	80.007	19.995	103.189	19.914	6.221	0.503
316.000	228.661	79.999	19.994	103.205	19.913	6.280	0.467
318.000	229.661	80.002	19.995	103.197	19.911	6.429	0.498
320.000	230.683	80.003	19.994	103.204	19.909	6.581	0.503
322.000	231.630	80.001	19.994	103.207	19.908	6.677	0.479
324.000	232.631	80.006	19.994	103.208	19.909	6.583	0.494
326.000	233.590	80.002	19.993	103.194	19.906	6.791	0.478
328.000	234.557	79.998	19.995	103.206	19.902	7.063	0.503
330.000	235.550	80.004	19.994	103.204	19.902	7.044	0.481
332.000	236.505	80.005	19.994	103.203	19.904	6.933	0.466
334.000	237.518	80.004	19.994	103.206	19.898	7.319	0.497
336.000	238.519	80.005	19.993	103.211	19.900	7.238	0.499
338.000	239.453	80.004	19.994	103.205	19.899	7.298	0.498
340.000	240.417	80.002	19.994	103.205	19.897	7.397	0.473
342.000	241.439	80.003	19.995	103.204	19.896	7.511	0.507
344.000	242.394	80.004	19.994	103.199	19.895	7.574	0.497
346.000	243.417	80.004	19.994	103.187	19.896	7.475	0.494
348.000	244.405	80.004	19.994	103.189	19.898	7.345	0.496
350.000	245.375	80.003	19.994	103.202	19.895	7.541	0.492
352.000	246.410	80.002	19.995	103.201	19.897	7.452	0.530
354.000	247.348	80.003	19.994	103.190	19.897	7.425	0.459
356.000	248.338	80.003	19.994	103.190	19.894	7.651	0.493
358.000	249.378	80.004	19.995	103.179	19.891	7.820	0.507
360.000	250.406	80.004	19.994	103.193	19.890	7.910	0.513
362.000	251.373	80.003	19.994	103.210	19.889	8.012	0.476
364.000	252.399	80.001	19.993	103.207	19.891	7.837	0.504
366.000	253.363	80.006	19.994	103.214	19.889	7.990	0.497
368.001	254.348	80.006	19.993	103.212	19.888	8.029	0.505
370.000	255.341	80.006	19.994	103.215	19.890	7.935	0.519
372.000	256.364	80.005	19.994	103.199	19.889	8.014	0.514
374.000	257.332	80.002	19.995	103.210	19.888	8.081	0.504
376.000	258.333	80.004	19.995	103.212	19.887	8.101	0.494
378.000	259.405	80.004	19.995	103.201	19.891	7.865	0.536
380.000	260.332	80.004	19.996	103.210	19.893	7.690	0.463
382.000	261.427	80.002	19.995	103.207	19.894	7.648	0.553
384.000	262.415	80.004	19.994	103.207	19.895	7.590	0.520
386.000	263.456	80.005	19.995	103.206	19.897	7.453	0.549
388.000	264.420	80.006	19.994	103.193	19.898	7.334	0.491
390.000	265.454	80.005	19.995	103.183	19.896	7.521	0.526
392.000	266.441	80.006	19.994	103.192	19.900	7.178	0.495
394.000	267.437	80.007	19.994	103.199	19.901	7.173	0.470
396.000	268.470	80.006	19.994	103.212	19.900	7.231	0.506
398.000	269.457	80.005	19.994	103.206	19.900	7.197	0.499
400.000	270.509	80.003	19.994	103.212	19.905	6.898	0.555
402.000	271.477	80.002	19.994	103.212	19.905	6.882	0.522
404.000	272.470	80.003	19.994	103.215	19.905	6.890	0.481
406.000	273.507	80.004	19.994	103.221	19.905	6.842	0.534
408.000	274.475	80.004	19.995	103.229	19.905	6.834	0.491
410.000	275.452	80.003	19.994	103.233	19.904	6.949	0.485
412.000	276.454	80.002	19.994	103.244	19.911	6.463	0.518
414.000	277.457	80.004	19.994	103.251	19.907	6.709	0.498
416.000	278.439	80.004	19.994	103.253	19.908	6.638	0.481
418.000	279.471	80.004	19.994	103.252	19.905	6.839	0.479
420.000	280.434	80.005	19.994	103.254	19.907	6.705	0.504
422.000	281.444	80.004	19.993	103.266	19.903	6.999	0.499
424.000	282.428	80.003	19.994	103.284	19.901	7.155	0.507
426.000	283.456	80.004	19.994	103.289	19.900	7.210	0.517
428.000	284.437	80.003	19.994	103.293	19.897	7.425	0.514
430.001	285.432	80.003	19.994	103.295	19.888	8.042	0.501
432.000	286.416	80.002	19.994	103.301	19.883	8.383	0.497
434.000	287.416	80.004	19.994	103.299	19.878	8.749	0.510
436.000	288.397	80.002	19.994	103.311	19.869	9.356	0.485
438.000	289.369	80.003	19.994	103.313	19.862	9.846	0.496
440.000	290.424	80.003	19.993	103.314	19.854	10.460	0.536
442.000	291.408	80.005	19.994	103.322	19.846	10.992	0.512
444.000	292.421	80.004	19.995	103.324	19.840	11.407	0.507
446.000	293.425	80.005	19.995	103.321	19.835	11.761	0.500
448.000	294.410	80.006	19.994	103.305	19.833	11.872	0.487
450.000	295.368	80.004	19.995	103.299	19.832	11.973	0.491
452.000	296.405	80.007	19.996	103.290	19.837	11.613	0.518
454.000	297.361	80.005	19.994	103.289	19.843	11.215	0.451
456.000	298.371	80.004	19.995	103.269	19.849	10.744	0.506
458.000	299.350	80.005	19.996	103.263	19.855	10.359	0.478
460.000	300.318	80.004	19.994	103.260	19.859	10.095	0.478
462.000	301.279	80.005	19.996	103.252	19.861	9.919	0.484
464.000	302.298	80.003	19.995	103.246	19.871	9.250	0.498
466.000	303.292	80.005	19.995	103.231	19.876	8.917	0.502
468.000	304.268	80.006	19.995	103.226	19.882	8.470	0.463
470.000	305.270	80.005	19.994	103.214	19.887	8.125	0.497
472.000	306.257	80.006	19.996	103.210	19.892	7.776	0.502
474.000	307.257	80.006	19.995	103.209	19.896	7.500	0.485
476.000	308.212	80.005	19.995	103.187	19.896	7.460	0.455
478.000	309.202	80.004	19.995	103.175	19.903	7.002	0.503
480.000	310.215	80.004	19.995	103.178	19.904	6.900	0.493
482.000	311.171	80.004	19.994	103.174	19.906	6.814	0.495
484.000	312.216	80.002	19.995	103.175	19.910	6.530	0.525
486.000	313.248	80.003	19.994	103.182	19.909	6.560	0.523
488.000	314.241	80.003	19.994	103.176	19.913	6.317	0.508
490.000	315.277	80.003	19.993	103.176	19.911	6.414	0.528
492.000	316.294	80.004	19.994	103.171	19.912	6.341	0.511
494.000	317.305	80.003	19.994	103.157	19.916	6.087	0.517
496.000	318.283	80.003	19.994	103.156	19.916	6.074	0.467
498.000	319.324	80.002	19.994	103.163	19.918	5.965	0.503
500.000	320.300	80.003	19.994	103.173	19.916	6.073	0.511
502.000	321.321	80.005	19.994	103.170	19.919	5.869	0.496
504.000	322.347	80.004	19.994	103.169	19.920	5.835	0.523
506.001	323.343	80.005	19.994	103.171	19.921	5.747	0.502
508.000	324.371	80.005	19.995	103.170	19.914	6.238	0.486
510.000	325.417	80.004	19.993	103.174	19.918	5.930	0.502
512.001	326.494	80.005	19.994	103.173	19.917	6.051	0.564
514.000	327.512	80.003	19.993	103.171	19.915	6.171	0.542
516.000	328.513	80.003	19.995	103.175	19.916	6.062	0.550
518.000	329.594	80.003	19.994	103.175	19.918	5.952	0.572
520.000	330.626	80.005	19.994	103.176	19.917	6.017	0.519
522.000	331.674	80.004	19.994	103.181	19.916	6.119	0.521
524.000	332.743	80.006	19.994	103.173	19.917	6.034	0.559
526.000	333.749	80.005	19.994	103.173	19.920	5.826	0.511
528.000	334.806	80.005	19.994	103.172	19.919	5.850	0.509
530.000	335.888	80.005	19.993	103.172	19.919	5.882	0.532
532.000	336.920	80.005	19.995	103.174	19.922	5.691	0.516
534.000	337.986	80.006	19.993	103.170	19.914	6.225	0.495
536.000	338.992	80.005	19.994	103.170	19.913	6.293	0.505
538.000	340.043	80.004	19.993	103.171	19.919	5.862	0.509
540.000	341.107	80.006	19.994	103.172	19.915	6.191	0.535
542.000	342.164	80.006	19.994	103.175	19.914	6.232	0.538
544.000	343.155	80.003	19.995	103.174	19.913	6.328	0.478
546.000	344.212	80.004	19.994	103.173	19.916	6.091	0.517
548.000	345.189	80.003	19.995	103.176	19.912	6.371	0.496
550.000	346.243	80.004	19.994	103.175	19.912	6.400	0.522
552.000	347.261	80.004	19.994	103.173	19.912	6.372	0.520
554.000	348.265	80.006	19.993	103.171	19.914	6.228	0.515
556.000	349.256	80.006	19.994	103.168	19.913	6.291	0.509
558.000	350.242	80.006	19.994	103.165	19.913	6.268	0.502
560.000	351.252	80.005	19.994	103.168	19.916	6.120	0.498
562.000	352.248	80.004	19.995	103.162	19.914	6.231	0.488
564.000	353.273	80.004	19.994	103.162	19.915	6.177	0.492
566.000	354.250	80.003	19.995	103.164	19.917	6.038	0.469
568.000	355.247	80.003	19.995	103.150	19.915	6.173	0.490
570.000	356.251	80.003	19.995	103.154	19.914	6.198	0.507
572.000	357.218	80.004	19.994	103.155	19.913	6.300	0.488
574.000	358.217	80.005	19.994	103.146	19.913	6.311	0.498
576.000	359.175	80.003	19.994	103.146	19.913	6.276	0.480
578.000	360.142	80.004	19.994	103.164	19.913	6.273	0.478
580.000	361.162	80.005	19.993	103.168	19.913	6.281	0.516
582.000	362.119	80.004	19.994	103.161	19.911	6.464	0.480
584.000	363.065	80.005	19.994	103.164	19.911	6.406	0.495
586.000	364.051	80.004	19.994	103.156	19.911	6.414	0.476
588.000	365.026	80.004	19.994	103.162	19.912	6.377	0.487
590.000	365.990	80.005	19.994	103.146	19.912	6.393	0.500
592.000	366.952	80.004	19.993	103.152	19.909	6.558	0.450
594.000	367.916	80.003	19.994	103.150	19.913	6.271	0.479
596.000	368.885	80.004	19.994	103.150	19.911	6.407	0.474
598.000	369.870	80.003	19.995	103.151	19.907	6.717	0.503
600.001	370.866	80.004	19.994	103.140	19.910	6.484	0.506
602.000	371.837	80.003	19.994	103.139	19.910	6.527	0.494
604.000	372.843	80.004	19.995	103.144	19.908	6.643	0.490
606.000	373.796	80.004	19.994	103.150	19.906	6.776	0.482
608.000	374.777	80.006	19.993	103.156	19.907	6.747	0.462
610.000	375.762	80.005	19.994	103.148	19.904	6.953	0.478
612.000	376.769	80.007	19.994	103.141	19.902	7.036	0.521
614.000	377.738	80.006	19.992	103.157	19.900	7.207	0.493
616.000	378.702	80.005	19.994	103.159	19.904	6.937	0.500
618.000	379.658	80.004	19.994	103.153	19.905	6.859	0.466
620.000	380.699	80.005	19.994	103.167	19.901	7.104	0.497
622.000	381.737	80.005	19.994	103.161	19.902	7.037	0.536
624.000	382.719	80.005	19.994	103.156	19.904	6.945	0.531
626.000	383.723	80.006	19.994	103.150	19.902	7.038	0.512
628.000	384.710	80.005	19.994	103.151	19.900	7.240	0.517
630.000	385.749	80.006	19.994	103.147	19.898	7.342	0.505
632.000	386.768	80.007	19.995	103.156	19.900	7.196	0.510
634.000	387.771	80.006	19.994	103.141	19.894	7.656	0.509
636.000	388.803	80.007	19.994	103.144	19.894	7.633	0.501
638.000	389.799	80.006	19.994	103.134	19.898	7.377	0.493
640.000	390.853	80.007	19.995	103.135	19.894	7.593	0.502
642.000	391.894	80.006	19.994	103.138	19.893	7.715	0.499
644.000	392.890	80.005	19.994	103.138	19.892	7.789	0.523
646.000	393.874	80.006	19.994	103.134	19.889	7.943	0.471
648.000	394.972	80.005	19.995	103.141	19.890	7.923	0.525
650.000	395.939	80.004	19.994	103.137	19.888	8.022	0.531
652.000	396.977	80.005	19.994	103.149	19.887	8.103	0.509
654.000	397.986	80.004	19.994	103.153	19.886	8.209	0.520
656.001	398.997	80.004	19.995	103.147	19.884	8.344	0.502
658.000	400.009	80.003	19.994	103.152	19.881	8.555	0.496
660.000	401.060	80.004	19.995	103.142	19.883	8.416	0.507
662.000	402.145	80.003	19.995	103.138	19.880	8.596	0.526
664.000	403.179	80.003	19.995	103.136	19.880	8.622	0.490
666.000	404.164	80.004	19.996	103.139	19.875	8.930	0.515
668.001	405.208	80.004	19.994	103.133	19.874	9.031	0.525
670.000	406.206	80.004	19.994	103.135	19.872	9.171	0.501
672.000	407.236	80.004	19.993	103.135	19.870	9.316	0.504
674.000	408.270	80.006	19.995	103.138	19.866	9.553	0.520
676.000	409.263	80.006	19.994	103.136	19.864	9.753	0.501
678.000	410.276	80.004	19.995	103.145	19.867	9.545	0.504
680.000	411.304	80.004	19.993	103.137	19.858	10.125	0.523
682.000	412.329	80.003	19.994	103.140	19.861	9.964	0.489
684.000	413.344	80.003	19.994	103.145	19.857	10.186	0.478
686.000	414.356	80.004	19.994	103.140	19.855	10.351	0.529
688.000	415.348	80.003	19.994	103.142	19.849	10.790	0.500
690.000	416.342	80.004	19.994	103.138	19.846	10.965	0.493
692.000	417.387	80.005	19.993	103.138	19.845	11.054	0.540
694.000	418.380	80.006	19.993	103.136	19.843	11.183	0.504
696.000	419.398	80.006	19.994	103.133	19.841	11.329	0.505
698.000	420.392	80.005	19.994	103.134	19.840	11.428	0.492
700.000	421.431	80.006	19.993	103.137	19.836	11.692	0.506
702.000	422.408	80.006	19.994	103.141	19.832	11.980	0.484
704.000	423.428	80.005	19.995	103.135	19.828	12.246	0.496
706.000	424.466	80.005	19.994	103.135	19.824	12.503	0.476
708.000	425.534	80.005	19.994	103.137	19.822	12.662	0.515
710.000	426.566	80.006	19.994	103.136	19.817	13.018	0.523
712.000	427.566	80.006	19.994	103.135	19.809	13.588	0.518
714.000	428.577	80.007	19.994	103.144	19.805	13.872	0.518
716.000	429.609	80.007	19.994	103.141	19.800	14.159	0.505
718.000	430.651	80.007	19.994	103.135	19.795	14.540	0.516
720.000	431.649	80.007	19.994	103.134	19.790	14.891	0.509
722.000	432.675	80.006	19.994	103.145	19.787	15.074	0.490
724.001	433.692	80.005	19.995	103.139	19.788	14.994	0.505
726.000	434.761	80.006	19.995	103.145	19.781	15.508	0.531
728.000	435.707	80.005	19.995	103.135	19.757	17.196	0.523
730.000	436.803	80.004	19.995	103.136	19.757	17.213	0.518
732.000	437.771	80.003	19.995	103.137	19.754	17.407	0.473
734.000	438.714	80.004	19.994	103.139	19.747	17.897	0.524
736.000	439.748	80.004	19.994	103.142	19.740	18.368	0.411
738.000	441.235	80.004	19.994	103.137	19.732	18.908	0.916
740.000	442.031	80.004	19.994	103.135	19.725	19.395	0.261
742.000	442.557	80.004	19.994	103.136	19.717	19.959	0.263
744.000	443.828	80.003	19.994	103.136	19.709	20.520	0.504
746.000	444.911	80.002	19.995	103.138	19.700	21.148	0.577
748.000	445.935	80.002	19.995	103.144	19.695	21.534	0.507
750.000	446.978	80.003	19.993	103.142	19.684	22.251	0.500
752.000	448.016	80.003	19.996	103.137	19.675	22.887	0.538
754.000	449.039	80.002	19.996	103.142	19.662	23.819	0.525
756.000	450.102	80.004	19.995	103.141	19.654	24.404	0.503
758.001	451.156	80.003	19.995	103.144	19.646	24.942	0.514
760.000	452.217	80.002	19.995	103.134	19.633	25.873	0.550
762.000	453.258	80.002	19.994	103.134	19.625	26.431	0.544
764.001	454.313	80.003	19.994	103.144	19.618	26.907	0.528
766.000	455.376	80.005	19.995	103.144	19.612	27.320	0.519
768.000	456.385	80.003	19.994	103.153	19.607	27.687	0.550
770.000	457.432	80.004	19.994	103.137	19.601	28.063	0.519
772.000	458.471	80.006	19.994	103.132	19.593	28.636	0.543
774.000	459.481	80.006	19.994	103.134	19.585	29.177	0.513
776.000	460.530	80.005	19.994	103.134	19.582	29.413	0.511
778.000	461.571	80.005	19.994	103.133	19.578	29.681	0.495
780.000	462.605	80.005	19.995	103.132	19.576	29.848	0.508
782.000	463.644	80.005	19.993	103.132	19.575	29.898	0.505
784.000	464.618	80.006	19.994	103.133	19.569	30.338	0.511
786.000	465.618	80.006	19.994	103.134	19.571	30.186	0.492
788.000	466.661	80.006	19.994	103.134	19.571	30.201	0.500
790.000	467.675	80.005	19.994	103.132	19.572	30.112	0.484
792.000	468.718	80.004	19.996	103.132	19.574	29.962	0.487
794.000	469.757	80.005	19.993	103.132	19.574	29.956	0.521
796.000	470.719	80.005	19.994	103.136	19.581	29.463	0.505
798.000	471.740	80.007	19.993	103.135	19.584	29.265	0.501
800.000	472.755	80.006	19.992	103.137	19.583	29.343	0.510
802.000	473.827	80.007	19.994	103.137	19.590	28.844	0.574
804.000	474.846	80.009	19.994	103.137	19.595	28.468	0.514
806.000	475.955	80.007	19.994	103.136	19.600	28.148	0.546
808.000	476.928	80.006	19.992	103.136	19.602	27.994	0.503
810.000	477.933	80.007	19.992	103.136	19.609	27.515	0.517
812.000	479.045	80.005	19.993	103.136	19.622	26.632	0.547
814.000	480.104	80.002	19.994	103.137	19.624	26.481	0.496
816.000	481.106	80.003	19.994	103.138	19.635	25.715	0.524
818.000	482.177	80.002	19.995	103.139	19.638	25.499	0.544
820.000	483.142	80.003	19.995	103.141	19.647	24.841	0.504
822.000	484.169	80.005	19.994	103.140	19.652	24.496	0.518
824.000	485.245	80.003	19.995	103.135	19.662	23.851	0.528
826.000	486.288	80.003	19.994	103.133	19.669	23.315	0.536
828.000	487.349	80.005	19.995	103.132	19.674	23.014	0.515
830.000	488.352	80.003	19.995	103.132	19.682	22.399	0.512
832.000	489.363	80.003	19.996	103.133	19.693	21.652	0.493
834.000	490.432	80.003	19.995	103.133	19.700	21.165	0.504
836.000	491.478	80.005	19.995	103.125	19.706	20.751	0.543
838.000	492.477	80.004	19.996	103.129	19.712	20.313	0.522
840.000	493.501	80.003	19.994	103.133	19.720	19.769	0.526
842.001	494.571	80.002	19.996	103.132	19.729	19.124	0.523
844.000	495.570	80.002	19.995	103.132	19.738	18.523	0.508
846.000	496.603	80.002	19.996	103.133	19.743	18.148	0.525
848.000	497.641	80.002	19.995	103.133	19.748	17.845	0.520
850.000	498.648	80.001	19.996	103.136	19.753	17.458	0.493
852.000	499.646	80.003	19.996	103.131	19.761	16.912	0.506
854.000	500.669	80.002	19.993	103.135	19.766	16.547	0.515
856.000	501.741	80.004	19.995	103.134	19.773	16.105	0.533
858.000	502.777	80.004	19.997	103.136	19.780	15.588	0.499
860.000	503.871	80.006	19.994	103.139	19.785	15.236	0.527
862.000	504.906	80.005	19.994	103.146	19.790	14.895	0.539
864.000	505.984	80.006	19.994	103.143	19.796	14.438	0.532
866.000	507.044	80.005	19.994	103.137	19.801	14.102	0.511
868.000	508.156	80.004	19.995	103.139	19.803	13.950	0.545
870.000	509.239	80.006	19.995	103.138	19.807	13.685	0.532
872.000	510.349	80.005	19.992	103.135	19.812	13.322	0.563
874.000	511.425	80.005	19.994	103.140	19.820	12.778	0.540
876.000	512.544	80.005	19.995	103.138	19.824	12.515	0.566
878.000	513.658	80.005	19.994	103.141	19.826	12.354	0.561
880.000	514.792	80.005	19.993	103.137	19.830	12.070	0.600
882.000	515.891	80.005	19.994	103.136	19.834	11.825	0.564
884.000	517.036	80.007	19.994	103.136	19.836	11.664	0.562
886.000	518.170	80.007	19.992	103.136	19.836	11.659	0.565
888.000	519.294	80.007	19.993	103.134	19.842	11.240	0.560
890.000	520.437	80.007	19.994	103.131	19.847	10.936	0.597
892.000	521.531	80.006	19.993	103.131	19.845	11.025	0.556
894.000	522.653	80.006	19.993	103.126	19.847	10.926	0.584
896.000	523.771	80.005	19.994	103.131	19.851	10.642	0.551
898.000	524.886	80.004	19.993	103.129	19.849	10.784	0.564
900.000	525.987	80.005	19.994	103.133	19.849	10.786	0.553
902.000	527.086	80.004	19.993	103.134	19.851	10.629	0.571
904.001	528.170	80.003	19.994	103.138	19.855	10.325	0.556
906.000	529.354	80.003	19.994	103.140	19.854	10.384	0.566
908.000	530.359	80.005	19.994	103.135	19.856	10.262	0.543
910.001	531.507	80.004	19.995	103.134	19.861	9.960	0.567
912.000	532.579	80.004	19.995	103.134	19.857	10.195	0.553
914.000	533.649	80.005	19.996	103.133	19.856	10.312	0.558
916.000	534.774	80.004	19.995	103.133	19.856	10.309	0.564
918.000	535.880	80.003	19.995	103.133	19.859	10.073	0.559
920.000	536.924	80.005	19.994	103.132	19.856	10.245	0.515
922.000	538.029	80.005	19.994	103.134	19.858	10.148	0.550
924.000	539.111	80.004	19.993	103.134	19.859	10.066	0.531
926.000	540.141	80.005	19.994	103.138	19.861	9.945	0.533
928.000	541.214	80.003	19.995	103.140	19.856	10.249	0.537
930.000	542.267	80.002	19.994	103.147	19.858	10.149	0.543
932.000	543.303	80.003	19.995	103.145	19.861	9.935	0.505
934.000	544.344	80.002	19.995	103.141	19.863	9.824	0.499
936.000	545.392	80.004	19.995	103.141	19.861	9.924	0.516
938.000	546.460	80.004	19.995	103.139	19.859	10.054	0.524
940.000	547.505	80.004	19.996	103.139	19.862	9.836	0.501
942.000	548.537	80.004	19.995	103.148	19.862	9.845	0.517
944.000	549.608	80.005	19.994	103.145	19.862	9.873	0.552
946.000	550.690	80.004	19.995	103.152	19.864	9.744	0.546
948.000	551.716	80.006	19.996	103.143	19.862	9.861	0.514
950.000	552.716	80.004	19.994	103.155	19.863	9.787	0.525
952.000	553.753	80.004	19.994	103.159	19.859	10.094	0.505
954.000	554.792	80.004	19.994	103.153	19.859	10.068	0.541
956.000	555.881	80.006	19.994	103.159	19.862	9.884	0.511
958.000	556.895	80.004	19.994	103.167	19.861	9.923	0.499
960.000	557.922	80.006	19.994	103.167	19.860	10.002	0.524
962.000	558.940	80.005	19.994	103.166	19.864	9.746	0.490
964.000	559.979	80.005	19.993	103.150	19.862	9.831	0.496
966.000	560.996	80.006	19.995	103.164	19.861	9.908	0.542
968.000	562.033	80.008	19.993	103.172	19.859	10.091	0.510
970.000	563.056	80.007	19.994	103.170	19.859	10.051	0.486
972.000	564.057	80.007	19.993	103.171	19.861	9.949	0.475
974.000	565.078	80.005	19.995	103.163	19.860	10.016	0.504
976.000	566.113	80.006	19.995	103.173	19.862	9.893	0.510
978.000	567.134	80.005	19.994	103.170	19.862	9.868	0.552
980.000	568.149	80.004	19.994	103.171	19.858	10.170	0.478
982.000	569.130	80.004	19.994	103.173	19.858	10.164	0.500
984.000	570.195	80.004	19.994	103.174	19.857	10.199	0.526
986.000	571.263	80.005	19.995	103.173	19.857	10.186	0.557
988.000	572.242	80.003	19.995	103.176	19.856	10.296	0.524
990.000	573.288	80.004	19.994	103.176	19.857	10.231	0.504
992.000	574.341	80.005	19.994	103.175	19.855	10.322	0.549
994.000	575.360	80.005	19.994	103.175	19.857	10.228	0.523
996.000	576.367	80.004	19.995	103.176	19.859	10.082	0.506
998.000	577.397	80.006	19.994	103.175	19.860	9.969	0.515
1000.000	578.438	80.005	19.994	103.175	19.859	10.101	0.483
1002.000	579.479	80.004	19.994	103.168	19.854	10.403	0.515
1004.000	580.488	80.005	19.994	103.162	19.857	10.181	0.515
1006.000	581.514	80.004	19.995	103.157	19.859	10.059	0.512
1008.000	582.528	80.003	19.995	103.144	19.861	9.941	0.519
1010.000	583.555	80.003	19.994	103.145	19.859	10.101	0.496
1012.000	584.634	80.004	19.995	103.140	19.861	9.942	0.553
1014.000	585.596	80.003	19.995	103.138	19.864	9.736	0.489
1016.000	586.592	80.003	19.993	103.139	19.862	9.888	0.505
1018.000	587.629	80.004	19.994	103.142	19.862	9.893	0.509
1020.000	588.609	80.006	19.995	103.142	19.861	9.927	0.493
1022.000	589.656	80.005	19.994	103.136	19.863	9.782	0.495
1024.000	590.686	80.004	19.996	103.134	19.863	9.784	0.502
1026.000	591.643	80.004	19.995	103.135	19.862	9.893	0.477
1028.000	592.693	80.005	19.995	103.135	19.863	9.814	0.495
1030.000	593.737	80.006	19.996	103.133	19.861	9.941	0.519
1032.000	594.700	80.005	19.996	103.134	19.862	9.861	0.502
1034.000	595.733	80.004	19.995	103.134	19.863	9.785	0.524
1036.000	596.787	80.005	19.995	103.132	19.863	9.785	0.502
1038.000	597.797	80.004	19.995	103.138	19.862	9.884	0.536
1040.000	598.762	80.006	19.996	103.132	19.860	9.966	0.501
1042.000	599.744	80.004	19.995	103.131	19.856	10.268	0.507
1044.000	600.815	80.004	19.996	103.132	19.857	10.214	0.525
1046.000	601.810	80.006	19.996	103.131	19.859	10.092	0.534
1048.000	602.800	80.006	19.996	103.133	19.859	10.089	0.516
1050.000	603.822	80.006	19.994	103.135	19.855	10.320	0.498
1052.000	604.826	80.008	19.993	103.134	19.855	10.351	0.480
1054.000	605.793	80.007	19.993	103.139	19.856	10.272	0.509
1056.000	606.818	80.007	19.994	103.140	19.855	10.342	0.504
1058.000	607.806	80.006	19.994	103.143	19.855	10.368	0.492
1060.000	608.834	80.005	19.993	103.142	19.856	10.299	0.496
1062.000	609.846	80.004	19.994	103.139	19.857	10.237	0.489
1064.000	610.828	80.004	19.994	103.142	19.857	10.192	0.490
1066.000	611.856	80.003	19.994	103.147	19.855	10.349	0.515
1068.000	612.827	80.004	19.994	103.159	19.856	10.281	0.509
1070.000	613.804	80.004	19.994	103.156	19.851	10.614	0.491
1072.001	614.841	80.005	19.994	103.148	19.855	10.334	0.533
1074.000	615.899	80.005	19.994	103.154	19.853	10.505	0.566
1076.000	616.862	80.004	19.993	103.153	19.857	10.191	0.541
1078.000	617.835	80.004	19.994	103.150	19.855	10.367	0.530
1080.000	618.807	80.005	19.995	103.170	19.850	10.721	0.465
1082.000	619.785	80.003	19.994	103.171	19.852	10.563	0.511
1084.000	620.725	80.006	19.994	103.162	19.848	10.836	0.471
1086.001	621.715	80.005	19.995	103.158	19.849	10.747	0.507
1088.000	622.683	80.005	19.994	103.151	19.849	10.751	0.489
1090.000	623.646	80.005	19.993	103.164	19.851	10.605	0.491
1092.001	624.583	80.004	19.994	103.153	19.847	10.892	0.449
1094.001	625.500	80.003	19.994	103.154	19.847	10.889	0.485
1096.000	626.437	80.004	19.995	103.165	19.847	10.881	0.472
1098.000	627.392	80.005	19.996	103.170	19.849	10.788	0.496
1100.000	628.354	80.003	19.995	103.173	19.847	10.931	0.499
1102.000	629.244	80.004	19.995	103.174	19.848	10.874	0.462
1104.000	630.202	80.005	19.995	103.175	19.844	11.115	0.478
1106.000	631.115	80.005	19.995	103.174	19.845	11.082	0.477
1108.000	632.122	80.006	19.994	103.171	19.844	11.145	0.483
1110.000	633.034	80.006	19.996	103.169	19.842	11.273	0.491
1112.001	634.020	80.006	19.994	103.171	19.840	11.424	0.501
1114.000	634.936	80.007	19.994	103.173	19.838	11.521	0.453
1116.001	635.944	80.006	19.995	103.173	19.837	11.597	0.509
1118.000	636.871	80.005	19.995	103.175	19.840	11.381	0.481
1120.000	637.829	80.004	19.995	103.186	19.838	11.516	0.488
1122.000	638.768	80.004	19.994	103.193	19.837	11.638	0.447
1124.000	639.760	80.004	19.995	103.190	19.838	11.555	0.446
1126.001	640.671	80.005	19.995	103.190	19.833	11.877	0.485
1128.000	641.669	80.004	19.995	103.196	19.833	11.904	0.514
1130.000	642.647	80.005	19.995	103.211	19.833	11.902	0.474
1132.000	643.650	80.005	19.995	103.208	19.831	12.058	0.538
1134.000	644.632	80.006	19.994	103.209	19.830	12.098	0.501
1136.000	645.668	80.006	19.994	103.212	19.828	12.243	0.523
1138.001	646.672	80.007	19.994	103.212	19.827	12.298	0.526
1140.001	647.709	80.006	19.995	103.218	19.828	12.260	0.531
1142.000	648.693	80.007	19.995	103.219	19.825	12.475	0.506
1144.001	649.800	80.004	19.994	103.219	19.827	12.329	0.576
1146.000	650.845	80.004	19.994	103.229	19.822	12.639	0.523
1148.001	651.912	80.006	19.994	103.232	19.824	12.537	0.480
1150.001	652.953	80.005	19.995	103.242	19.822	12.660	0.538
1152.000	654.032	80.005	19.994	103.246	19.823	12.619	0.532
1154.000	655.102	80.004	19.993	103.250	19.825	12.458	0.511
1156.001	656.184	80.004	19.995	103.254	19.822	12.634	0.509
1158.001	657.228	80.007	19.994	103.257	19.821	12.716	0.521
1160.001	658.300	80.003	19.994	103.255	19.820	12.826	0.519
1162.000	659.350	80.005	19.994	103.259	19.820	12.821	0.531
1164.000	660.438	80.006	19.995	103.256	19.816	13.091	0.564
1166.000	661.495	80.005	19.994	103.257	19.817	12.984	0.536
1168.000	662.538	80.005	19.994	103.257	19.813	13.285	0.501
1170.000	663.576	80.005	19.994	103.257	19.814	13.221	0.496
1172.000	664.645	80.005	19.995	103.268	19.811	13.442	0.523
1174.000	665.649	80.005	19.995	103.269	19.810	13.503	0.503
1176.000	666.644	80.004	19.995	103.279	19.808	13.640	0.489
1178.000	667.672	80.004	19.994	103.281	19.809	13.563	0.490
1180.000	668.653	80.005	19.994	103.271	19.807	13.746	0.530
1182.000	669.652	80.005	19.995	103.288	19.808	13.623	0.495
1184.001	670.668	80.005	19.995	103.291	19.804	13.940	0.475
1186.000	671.635	80.006	19.993	103.289	19.802	14.052	0.491
1188.000	672.600	80.006	19.995	103.291	19.804	13.938	0.475
1190.000	673.594	80.006	19.993	103.302	19.801	14.152	0.511
1192.000	674.571	80.006	19.994	103.302	19.801	14.143	0.484
1194.000	675.534	80.006	19.996	103.312	19.802	14.063	0.466
1196.001	676.529	80.007	19.993	103.329	19.799	14.262	0.451
1198.000	677.493	80.005	19.994	103.324	19.800	14.237	0.465
1200.000	678.529	80.006	19.994	103.329	19.797	14.408	0.470
1202.000	679.460	80.006	19.996	103.322	19.797	14.438	0.441
1204.000	680.421	80.006	19.994	103.319	19.798	14.343	0.489
1206.000	681.435	80.004	19.996	103.334	19.794	14.628	0.508
1208.000	682.486	80.005	19.994	103.339	19.794	14.606	0.530
1210.000	683.407	80.006	19.994	103.366	19.794	14.607	0.476
1212.000	684.383	80.006	19.994	103.344	19.792	14.805	0.475
1214.000	685.335	80.007	19.993	103.348	19.792	14.753	0.483
1216.000	686.292	80.007	19.995	103.358	19.789	14.954	0.456
1218.000	687.345	80.009	19.994	103.354	19.785	15.246	0.478
1220.000	688.322	80.008	19.995	103.354	19.789	15.024	0.459
1222.000	689.313	80.008	19.994	103.365	19.788	15.035	0.516
1224.000	690.351	80.007	19.995	103.364	19.786	15.185	0.504
1226.000	691.333	80.006	19.995	103.362	19.781	15.517	0.486
1228.000	692.323	80.004	19.995	103.366	19.781	15.579	0.515
1230.000	693.310	80.003	19.994	103.369	19.783	15.427	0.491
1232.000	694.325	80.005	19.996	103.377	19.779	15.689	0.499
1234.000	695.350	80.005	19.995	103.370	19.776	15.901	0.523
1236.001	696.334	80.007	19.995	103.368	19.783	15.438	0.503
1238.000	697.327	80.006	19.994	103.371	19.777	15.801	0.484
1240.001	698.280	80.006	19.995	103.371	19.778	15.771	0.498
1242.000	699.229	80.005	19.994	103.375	19.775	16.000	0.469
1244.001	700.189	80.005	19.995	103.380	19.775	15.991	0.461
1246.001	701.129	80.005	19.994	103.387	19.774	16.036	0.468
1248.000	702.108	80.006	19.995	103.393	19.772	16.168	0.494
1250.000	703.095	80.006	19.993	103.395	19.772	16.171	0.488
1252.000	704.031	80.004	19.994	103.404	19.775	15.988	0.491
1254.000	705.008	80.006	19.993	103.406	19.770	16.319	0.458
1256.000	705.989	80.006	19.993	103.407	19.770	16.350	0.509
1258.000	706.939	80.006	19.994	103.409	19.771	16.244	0.490
1260.000	707.854	80.004	19.994	103.409	19.768	16.437	0.472
1262.001	708.830	80.004	19.995	103.408	19.768	16.457	0.476
1264.001	709.799	80.004	19.992	103.400	19.768	16.470	0.492
1266.000	710.724	80.004	19.995	103.406	19.766	16.572	0.447
1268.000	711.655	80.006	19.994	103.409	19.768	16.436	0.452
1270.001	712.622	80.004	19.994	103.411	19.766	16.631	0.477
1272.000	713.538	80.006	19.994	103.409	19.768	16.447	0.484
1274.000	714.572	80.007	19.994	103.405	19.766	16.584	0.491
1276.000	715.540	80.007	19.992	103.401	19.764	16.716	0.497
1278.000	716.512	80.007	19.993	103.401	19.765	16.685	0.500
1280.000	717.538	80.009	19.993	103.380	19.767	16.559	0.475
1282.001	718.480	80.006	19.995	103.378	19.768	16.483	0.536
1284.001	719.470	80.006	19.994	103.382	19.766	16.564	0.510
1286.000	720.480	80.007	19.994	103.384	19.766	16.604	0.510
1288.000	721.499	80.006	19.995	103.369	19.769	16.372	0.545
1290.000	722.499	80.006	19.994	103.366	19.769	16.382	0.520
1292.000	723.523	80.006	19.994	103.354	19.768	16.442	0.493
1294.000	724.539	80.006	19.995	103.355	19.768	16.437	0.517
1296.000	725.586	80.006	19.994	103.334	19.774	16.047	0.529
1298.000	726.610	80.007	19.996	103.328	19.773	16.106	0.508
1300.000	727.628	80.008	19.995	103.315	19.776	15.890	0.518
1302.000	728.689	80.009	19.994	103.293	19.773	16.101	0.562
1304.000	729.711	80.007	19.994	103.285	19.776	15.871	0.524
1306.000	730.741	80.009	19.995	103.265	19.776	15.855	0.519
1308.000	731.794	80.007	19.995	103.250	19.775	15.952	0.499
1310.000	732.775	80.005	19.995	103.248	19.776	15.885	0.522
1312.000	733.828	80.005	19.994	103.245	19.775	15.904	0.550
1314.000	734.856	80.004	19.996	103.228	19.781	15.548	0.524
1316.000	735.827	80.005	19.995	103.211	19.785	15.270	0.486
1318.000	736.870	80.005	19.995	103.205	19.785	15.257	0.546
1320.000	737.815	80.005	19.994	103.184	19.787	15.126	0.474
1322.000	738.880	80.004	19.995	103.175	19.793	14.665	0.527
1324.000	739.907	80.004	19.997	103.166	19.790	14.850	0.509
1326.000	740.951	80.003	19.997	103.167	19.793	14.639	0.542
1328.000	741.996	80.004	19.997	103.140	19.793	14.684	0.515
1330.001	743.030	80.005	19.995	103.141	19.794	14.572	0.512
1330.501	743.275	80.005	19.995	103.141	19.795	14.564	0.531