File: 01_Data/R13_Fiberglass_Insulation/Cone/R13_Fiberglass_Insulation_Cone_HF50Scan_220429_R1.csv
Names,Time,Stack TC,Smoke TC,Exh Press,Smoke Comp,Smoke Meas,CO Meter,CO2 Meter,O2 Meter,Sample Mass,Ext Coeff,Start Test,Flame Verif
Chan Gain,,500,500,1,1,1,1,1,1,1,1,1.0,1.0
Offset,,0,0,0.138979,0,0,0,0,0,0,0,0.0,0.0
Gain,,1,1,25.011,14.099,15.1965,1,1,1,1.00087,0.986176,1.0,1.0
Units,sec,C,C,Pa,%,%,%,%,%,g,/m,,
Baseline,,31.2573,32.3119,148.664,106.288,103.057,0.0006223,0.0437839,21.0317,-837.346,0.267098,,
17,4,28.8409,30.388,147.623,105.612,102.317,0.00113318,0.0509234,21.0254,-354.268,0.274199,0.0,0.0
34,8.25,28.9615,30.2288,147.6,105.581,102.571,0.00173332,0.0546868,21.0209,-354.308,0.250171,0.0,0.0
51,12.5,29.648,30.7942,147.159,105.661,102.426,0.00170943,0.054455,21.0208,-354.388,0.268972,0.0,0.0
68,16.75,29.9799,30.9123,145.332,105.732,102.646,0.00141946,0.0519177,21.0237,-354.418,0.256237,0.0,0.0
85,21,29.9827,31.3794,146.879,105.816,102.849,0.00140246,0.0518002,21.0254,-354.478,0.246,0.0,0.0
102,25.25,30.5874,31.5162,150.599,105.896,102.827,0.00147788,0.0502478,21.0283,-354.478,0.254413,0.0,0.0
119,29.5,30.2213,31.6207,148.087,105.966,103.312,0.00120244,0.0487338,21.03,-354.518,0.219387,0.0,0.0
136,33.75,30.5412,32.1459,147.768,106.009,102.97,0.00106088,0.0476674,21.0303,-354.508,0.251601,0.0,0.0
153,38,30.7506,31.9736,146.032,106.081,102.88,0.00138479,0.0474261,21.0319,-354.448,0.26506,0.0,0.0
170,42.25,31.0434,31.9928,146.527,106.119,103.073,0.00159683,0.0493437,21.028,-354.498,0.251905,0.0,0.0
187,46.5,31.1193,31.9861,147.945,106.148,103.327,0.0013577,0.0512714,21.0267,-354.518,0.233063,0.0,0.0
204,50.75,30.6036,31.7127,145.787,106.166,103.28,0.000872524,0.051797,21.0248,-354.558,0.23842,0.0,0.0
221,55,30.687,32.245,147.065,106.201,103.039,0.000723024,0.0505373,21.0245,-354.538,0.261447,0.0,0.0
238,59.25,31.355,32.5953,146.426,106.197,103.301,0.000803805,0.0485866,21.026,-354.478,0.239161,0.0,0.0
255,63.5,31.3305,32.1325,148.972,106.183,103.174,0.00082095,0.046692,21.0298,-354.508,0.248723,0.0,0.0
272,67.75,31.1289,32.1819,144.041,106.167,103.277,0.000789216,0.0453731,21.0323,-354.568,0.238727,0.0,0.0
289,72,30.7934,31.9488,147.147,106.12,103.514,0.000699945,0.0444834,21.0347,-354.528,0.215039,0.0,0.0
306,76.25,31.2597,32.4161,147.798,106.055,102.944,0.00068324,0.0439769,21.0366,-354.598,0.257539,0.0,0.0
323,80.5,31.8505,32.7842,148.095,106.006,103.282,0.000683539,0.043748,21.0369,-354.598,0.225217,0.0,0.0
340,84.75,31.4638,32.7056,151.035,105.958,102.875,0.000666926,0.0437269,21.0369,-354.578,0.255487,0.0,0.0
357,89,31.3421,33.4422,146.43,105.885,102.846,0.000868262,0.0436069,21.0369,-354.578,0.251936,0.0,0.0
374,93.25,31.4515,33.2049,145.518,105.806,102.924,0.000804355,0.0439409,21.0363,-354.588,0.238874,0.0,0.0
391,97.5,31.8745,32.8187,148.542,105.754,102.821,0.000653588,0.0444682,21.0349,-354.578,0.243306,0.0,0.0
408,101.75,32.2453,32.6145,146.189,105.678,102.789,0.000432384,0.0445427,21.0368,-354.568,0.239805,0.0,0.0
425,106,31.9044,33.0467,146.739,105.606,102.729,0.000208639,0.0441208,21.0376,-354.568,0.238958,0.0,0.0
442,110.25,31.5789,32.864,146.657,105.517,102.577,0.000431786,0.0435985,21.0372,-354.598,0.244407,0.0,0.0
459,114.5,31.8996,32.5977,148.411,105.434,102.526,0.000540332,0.0438106,21.0353,-354.618,0.24201,0.0,0.0
476,118.75,31.8627,33.383,147.86,105.354,101.926,0.00051231,0.0451207,21.0311,-354.618,0.286185,0.0,0.0
493,123,32.0465,33.2442,146.815,105.32,102.389,0.000510837,0.0460844,21.0276,-354.618,0.244164,0.0,0.0
510,127.25,31.4718,33.2821,143.802,105.311,102.446,0.000551488,0.0456592,21.0287,-354.628,0.238565,0.0,0.0
527,131.5,31.7463,33.1107,147.052,105.316,102.561,0.000754705,0.045571,21.0303,-354.628,0.229322,0.0,0.0
544,135.75,31.7099,33.1104,146.194,105.336,102.408,0.000906986,0.0450532,21.0328,-354.658,0.243827,0.0,0.0
561,140,32.1164,33.5689,147.46,105.35,102.41,0.000949869,0.0445946,21.0339,-354.598,0.244836,0.0,0.0
578,144.25,31.9905,33.1852,144.274,105.325,102.245,0.000691622,0.0440963,21.0347,-354.608,0.256744,0.0,0.0
595,148.5,32.188,33.3375,147.275,105.335,102.06,0.000440073,0.0437915,21.0349,-354.588,0.273223,0.0,0.0
612,152.75,32.5655,33.7685,149.01,105.345,102.288,0.000433229,0.043469,21.035,-354.618,0.254796,0.0,0.0
629,157,31.9352,33.7523,147.43,105.338,102.61,0.000317335,0.043201,21.0365,-354.608,0.226975,0.0,0.0
646,161.25,31.9943,33.8608,147.681,105.356,102.306,0.000758904,0.0430245,21.0368,-354.638,0.254111,0.0,0.0
663,165.5,31.7593,33.0698,148.955,105.366,102.652,0.000813957,0.0429998,21.0362,-354.668,0.225683,0.0,0.0
680,169.75,32.528,33.0007,146.927,105.366,102.296,0.000444431,0.0428968,21.0361,-354.678,0.255789,0.0,0.0
697,174,32.2333,33.4967,149.735,105.386,102.587,0.000336078,0.0430652,21.0346,-354.638,0.232891,0.0,0.0
714,178.25,31.8547,33.1814,149.358,105.397,102.26,0.000386595,0.0431923,21.0357,-354.638,0.261424,0.0,0.0
731,182.5,32.4334,33.2812,147.227,105.39,102.139,0.000397648,0.0431474,21.0359,-354.658,0.271034,0.0,0.0
748,186.75,32.1442,33.5322,145.837,105.392,102.4,0.000153528,0.0429776,21.0351,-354.658,0.249086,0.0,0.0
765,191,32.6708,33.8347,150.811,105.417,102.591,0.000429408,0.0429981,21.0338,-354.638,0.235047,0.0,0.0
782,195.25,31.9365,33.4522,147.459,105.41,102.95,0.000378777,0.0430339,21.0332,-354.628,0.204302,0.0,0.0
799,199.5,32.3474,33.3947,148.147,105.401,102.485,0.000309696,0.0433965,21.0328,-354.588,0.242661,0.0,0.0
816,203.75,31.8433,33.3336,148.203,105.423,102.489,0.000465149,0.0440552,21.036,-354.548,0.244147,0.0,0.0
833,208,31.8028,33.6651,149.323,105.431,102.677,0.000515798,0.0441454,21.0356,-354.598,0.228942,0.0,0.0
850,212.25,32.272,33.264,146.588,105.421,102.492,0.000512467,0.0441433,21.0352,-354.618,0.243736,0.0,0.0
867,216.5,31.8204,33.3543,146.982,105.444,102.28,0.000590805,0.0440423,21.0346,-354.618,0.263586,0.0,0.0
884,220.75,32.4453,33.9019,143.184,105.457,102.384,0.000432214,0.0440132,21.0343,-354.608,0.255823,0.0,0.0
901,225,32.5379,33.2236,151.127,105.452,102.477,0.00057157,0.0441935,21.0351,-354.608,0.247531,0.0,0.0
918,229.25,32.0245,33.3091,146.699,105.475,102.485,0.000560887,0.0442154,21.0362,-354.648,0.248771,0.0,0.0
935,233.5,32.1463,33.3543,142.342,105.485,102.464,0.00032878,0.0443233,21.0348,-354.668,0.251381,0.0,0.0
952,237.75,31.7899,33.5923,147.348,105.473,102.487,0.000132499,0.0441059,21.0336,-354.628,0.248434,0.0,0.0
969,242,32.545,33.6057,148.578,105.477,102.719,0.000257073,0.0441891,21.0333,-354.618,0.229241,0.0,0.0
986,246.25,32.2313,33.7227,145.183,105.486,102.553,0.000393248,0.0444088,21.0329,-354.618,0.244011,0.0,0.0
1003,250.5,32.1163,33.4938,146.176,105.477,102.169,0.000421898,0.044377,21.0318,-354.638,0.275608,0.0,0.0
1020,254.75,32.2006,33.2571,150.009,105.468,102.518,0.00056742,0.0443984,21.0316,-354.658,0.245389,0.0,0.0
1037,259,32.4971,33.3854,148.479,105.476,102.466,0.000634506,0.0440632,21.0316,-354.648,0.250482,0.0,0.0
1054,263.25,31.5744,33.5841,147.243,105.464,102.274,0.000541286,0.0441191,21.0316,-354.668,0.265715,0.0,0.0
1071,267.5,32.3308,33.8429,147.98,105.445,102.485,0.000348892,0.0439738,21.0316,-354.678,0.246297,0.0,0.0
1088,271.75,31.8747,33.2916,144.228,105.444,102.58,0.000248593,0.0439466,21.0351,-354.658,0.23817,0.0,0.0
1105,276,32.3464,33.0503,149.855,105.446,102.484,0.000407326,0.0439225,21.0354,-354.658,0.246411,0.0,0.0
1122,280.25,32.2934,33.5778,146.998,105.432,102.468,0.000613225,0.0438986,21.0352,-354.668,0.246686,0.0,0.0
1139,284.5,32.0214,33.3887,149.216,105.431,102.548,0.000456551,0.0436771,21.0354,-354.648,0.239849,0.0,0.0
1156,288.75,32.1158,33.9237,144.132,105.44,102.289,0.000270573,0.0436439,21.0354,-354.668,0.262412,0.0,0.0
1173,293,32.2233,33.8152,146.929,105.415,102.412,0.000288633,0.0435188,21.0355,-354.638,0.250016,0.0,0.0
1190,297.25,32.3898,33.5152,151.762,105.396,102.422,1.82108e-05,0.0434097,21.0358,-354.648,0.247597,0.0,0.0
1207,301.5,32.2771,33.2121,149.583,105.403,102.386,0.000186245,0.0429812,21.0375,-354.658,0.251214,0.0,0.0
1224,305.75,32.2765,33.0195,143.405,105.394,102.392,0.000170526,0.0426633,21.0388,-354.658,0.250006,0.0,0.0
1241,310,32.1533,33.1318,147.505,105.375,102.415,0.000180558,0.0423863,21.039,-354.678,0.24649,0.0,0.0
1258,314.25,31.8247,33.4786,148.696,105.373,102.167,0.00037794,0.042099,21.039,-354.658,0.26726,0.0,0.0
1275,318.5,32.1474,33.393,146.617,105.365,102.277,0.000375958,0.0419904,21.0389,-354.648,0.257327,0.0,0.0
1292,322.75,31.709,33.4953,147.008,105.333,102.452,0.000394766,0.0419967,21.0394,-354.658,0.239858,0.0,0.0
1309,327,32.3136,33.5546,146.385,105.324,102.335,0.000187562,0.0418217,21.0383,-354.648,0.249064,0.0,0.0
1326,331.25,31.87,32.9435,148.136,105.339,102.478,8.46878e-05,0.0418754,21.038,-354.668,0.238235,0.0,0.0
1343,335.5,32.3451,32.992,146.348,105.322,102.266,0.000216788,0.0419109,21.0368,-354.628,0.254696,0.0,0.0
1360,339.75,32.0762,33.2889,146.966,105.301,102.186,0.00032718,0.0419538,21.0366,-354.648,0.259715,0.0,0.0
1377,344,32.4972,33.7349,147.984,105.311,102.306,0.000395815,0.0419865,21.0382,-354.648,0.250435,0.0,0.0
1394,348.25,32.5071,33.1164,146.61,105.303,102.277,0.000498575,0.0418503,21.0382,-354.648,0.252199,0.0,0.0
1411,352.5,32.4036,33.367,145.363,105.3,102.22,0.000259658,0.0418677,21.039,-354.648,0.256778,0.0,0.0
1428,356.75,32.0411,33.7295,142.5,105.333,102.422,0.000284634,0.0417795,21.0401,-354.658,0.24244,0.0,0.0
1445,361,32.1708,33.3474,148.788,105.34,102.296,0.000399229,0.0418205,21.0397,-354.638,0.253705,0.0,0.0
1462,365.25,32.0707,33.1275,148.487,105.345,102.496,0.000315429,0.041645,21.0386,-354.648,0.237203,0.0,0.0
1479,369.5,31.8929,33.5964,147.959,105.365,102.382,0.000377799,0.0416928,21.0364,-354.638,0.248388,0.0,0.0
1496,373.75,32.0719,34.1304,147.099,105.367,102.373,0.000308956,0.0417706,21.036,-354.668,0.249349,0.0,0.0
1513,378,32.1727,33.6613,146.612,105.361,102.221,0.000194569,0.0420621,21.036,-354.658,0.261713,0.0,0.0
1530,382.25,32.0204,33.5408,145.234,105.372,102.412,0.000483484,0.0419263,21.036,-354.618,0.246442,0.0,0.0
1547,386.5,31.9269,33.2675,145.231,105.354,102.345,0.00035867,0.0418876,21.0384,-354.608,0.25064,0.0,0.0
1564,390.75,32.0195,33.3839,148.95,105.336,102.253,0.000342656,0.041696,21.0396,-354.628,0.256956,0.0,0.0
1581,395,32.3247,33.3483,145.921,105.308,102.535,0.000680812,0.0416338,21.0397,-354.658,0.230841,0.0,0.0
1598,399.25,32.5291,33.2134,148.791,105.324,102.441,0.000639315,0.0415211,21.0398,-354.678,0.240096,0.0,0.0
1615,403.5,32.0656,33.4073,143.709,105.323,102.26,0.000417342,0.0414797,21.0398,-354.648,0.255348,0.0,0.0
1632,407.75,32.1005,33.2908,146.896,105.304,102.026,0.000363899,0.0415841,21.0394,-354.658,0.273592,0.0,0.0
1649,412,32.3447,33.6411,145.849,105.322,102.22,0.000579683,0.041453,21.0408,-354.668,0.258655,0.0,0.0
1666,416.25,32.687,33.7671,144.36,105.326,102.137,0.00036412,0.0417757,21.0407,-354.668,0.265958,0.0,0.0
1683,420.5,32.5375,33.4783,146.896,105.333,102.074,0.000237054,0.0420275,21.041,-354.668,0.271867,0.0,0.0
1700,424.75,32.1372,33.9422,148.481,105.301,102.184,0.000418833,0.041712,21.0392,-354.618,0.259907,0.0,0.0
1717,429,32.0614,33.3552,143.957,105.316,102.478,0.000562412,0.0415918,21.0403,-354.658,0.236292,0.0,0.0
1734,433.25,32.351,33.829,148.181,105.307,102.162,0.000240441,0.0417645,21.0415,-354.648,0.262211,0.0,0.0
1751,437.5,32.544,34.1025,146.551,105.309,102.199,1.5366e-05,0.0416978,21.0399,-354.648,0.259362,0.0,0.0
1768,441.75,32.4322,33.9459,146.448,105.313,102.459,6.68697e-05,0.0417944,21.0388,-354.648,0.237649,0.0,0.0
1785,446,32.1815,33.6701,149.143,105.309,102.233,0.000186402,0.0418791,21.0386,-354.688,0.256496,0.0,0.0
1802,450.25,32.9652,33.4063,149.084,105.302,102.157,0.000311185,0.0419554,21.0408,-354.668,0.262254,0.0,0.0
1819,454.5,32.6374,33.7806,141.98,105.312,102.192,0.000200542,0.042006,21.0404,-354.648,0.260197,0.0,0.0
1836,458.75,32.4604,33.6428,149.741,105.333,102.191,0.000272661,0.0419496,21.0392,-354.648,0.261968,0.0,0.0
1853,463,31.839,33.853,149.827,105.348,102.373,7.63365e-05,0.0419924,21.0401,-354.648,0.247791,0.0,0.0
1870,467.25,32.1714,34.2867,145.496,105.371,102.45,0.000212265,0.0421338,21.0408,-354.698,0.24316,0.0,0.0
1887,471.5,32.4739,33.4747,143.728,105.408,102.272,0.000335629,0.0420411,21.0391,-354.678,0.261251,0.0,0.0
1904,475.75,31.8872,34.1918,146.82,105.431,102.075,0.000200378,0.0421857,21.0402,-354.678,0.279841,0.0,0.0
1921,480,32.6283,33.7055,145.566,105.508,102.433,0.000382636,0.0422256,21.0402,-354.668,0.25587,0.0,0.0
1938,484.25,32.6858,33.712,144.482,105.567,102.666,0.000448078,0.0421915,21.0399,-354.668,0.241067,0.0,0.0
1955,488.5,32.6928,33.695,148.79,105.563,102.415,0.000543005,0.0422258,21.0391,-354.648,0.261951,0.0,0.0
1972,492.75,33.1643,33.2978,146.837,105.62,102.633,0.000374623,0.0421835,21.038,-354.638,0.248174,0.0,0.0
1989,497,32.5147,34.0957,147.009,105.667,102.403,4.20829e-05,0.0420403,21.0378,-354.648,0.271424,0.0,0.0
2006,501.25,32.6747,34.2884,148.428,105.689,102.738,0.000225975,0.0420839,21.0393,-354.648,0.244941,0.0,0.0
2023,505.5,32.9676,33.5692,147.167,105.728,102.822,0.000356612,0.04216,21.0403,-354.618,0.241119,0.0,0.0
2040,509.75,32.0785,33.6077,146.131,105.779,102.78,5.1753e-05,0.0421506,21.0397,-354.618,0.248785,0.0,0.0
2057,514,33.1184,34.3824,145.512,105.828,102.975,2.16774e-05,0.0422466,21.0385,-354.638,0.236413,0.0,0.0
2074,518.25,32.9961,33.4791,149.475,105.854,102.983,0.0002224,0.0421912,21.0383,-354.608,0.237899,0.0,0.0
2091,522.5,32.5832,33.6919,144.473,105.909,103.25,0.000281456,0.0421593,21.0382,-354.628,0.21995,0.0,0.0
2108,526.75,32.7511,34.2629,143.322,105.962,102.906,0.000202687,0.0419823,21.0389,-354.658,0.253152,0.0,0.0
2125,531,32.4346,34.3545,146.606,105.983,102.947,0.000409621,0.042069,21.039,-354.608,0.251481,0.0,0.0
2142,535.25,33.0363,33.6693,151.583,106.016,103.139,0.000460768,0.0421519,21.0391,-354.658,0.238032,0.0,0.0
2159,539.5,32.6995,33.799,146.15,106.049,102.975,0.000298895,0.0420676,21.0386,-354.648,0.254515,0.0,0.0
2176,543.75,32.3238,33.7177,149.496,106.087,103.077,0.000215285,0.0421139,21.0378,-354.648,0.248962,0.0,0.0
2193,548,32.7768,33.7849,145.622,106.111,103.236,0.000136817,0.0422491,21.0379,-354.638,0.237587,0.0,0.0
2210,552.25,32.7066,34.0115,150.093,106.136,103.109,0.000450053,0.0421551,21.0376,-354.598,0.250272,0.0,0.0
2227,556.5,32.4349,34.2514,147.29,106.152,103.341,0.000541604,0.0423824,21.0375,-354.608,0.232172,0.0,0.0
2244,560.75,32.611,33.7061,147.221,106.173,103.058,0.000466297,0.0422821,21.0373,-354.628,0.257608,0.0,0.0
2261,565,33.0872,33.9061,150.39,106.197,103.257,0.000304952,0.0423729,21.0378,-354.658,0.242851,0.0,0.0
2278,569.25,32.377,33.8248,143.825,106.203,103.239,0.000290697,0.0424522,21.038,-354.598,0.244818,0.0,0.0
2295,573.5,32.8721,33.8276,151.619,106.183,103.135,0.000332079,0.0425322,21.0385,-354.628,0.251993,0.0,0.0
2312,577.75,32.646,33.5492,147.875,106.19,103.528,0.000277525,0.0424058,21.0392,-354.648,0.219627,0.0,0.0
2329,582,32.6009,33.9749,145.329,106.18,103.243,0.000470933,0.0423816,21.0394,-354.648,0.242655,0.0,0.0
2346,586.25,32.4641,33.7498,149.51,106.167,103.504,0.000544795,0.0426298,21.0387,-354.648,0.219713,0.0,0.0
2363,590.5,32.3662,33.5786,147.884,106.168,103.312,0.000748336,0.042935,21.037,-354.648,0.235885,0.0,0.0
2380,594.75,32.7568,33.5655,145.596,106.153,103.011,0.000623257,0.0430656,21.0353,-354.618,0.259931,0.0,0.0
2397,599,32.3056,34.0129,145.17,106.109,103.299,0.000101052,0.0431126,21.0349,-354.608,0.232168,0.0,0.0
2414,603.25,32.562,33.8372,147.839,106.109,102.96,0.000172563,0.0428127,21.0364,-354.658,0.260565,0.0,0.0
2431,607.5,32.5937,34.1477,145.245,106.1,103.591,9.95983e-05,0.0427867,21.037,-354.648,0.206997,0.0,0.0
2448,611.75,32.9295,34.1533,149.135,106.097,103.196,-1.38682e-05,0.0429095,21.0371,-354.578,0.239811,0.0,0.0
2465,616,32.0492,33.4255,148.531,106.087,102.969,0.000156267,0.0430357,21.0386,-354.628,0.25811,0.0,0.0
2482,620.25,32.4324,33.8907,147.041,106.094,103.032,0.000347121,0.0430043,21.04,-354.648,0.253335,0.0,0.0
2499,624.5,32.7193,33.8248,146.845,106.095,102.878,0.000287316,0.0429051,21.0386,-354.618,0.266381,0.0,0.0
2516,628.75,32.7212,34.3814,147.519,106.096,103.4,0.00043755,0.0427259,21.0381,-354.618,0.222613,0.0,0.0
2533,633,32.7164,34.5505,148.143,106.124,103.047,0.000183386,0.0426742,21.0396,-354.638,0.254541,0.0,0.0
2550,637.25,32.8734,34.1512,146.344,106.14,103.028,0.000140242,0.0425192,21.0402,-354.638,0.257365,0.0,0.0
2567,641.5,32.7605,33.848,149.09,106.143,103.125,0.000136984,0.0427773,21.0406,-354.648,0.249585,0.0,0.0
2584,645.75,32.7203,33.7494,151.998,106.173,103.212,8.17525e-05,0.0430596,21.0407,-354.638,0.244694,0.0,0.0
2601,650,33.2485,34.4554,141.966,106.193,103.251,0.000306465,0.0431465,21.0407,-354.628,0.243077,0.0,0.0
2618,654.25,33.1766,33.6445,148.42,106.176,103.12,9.36181e-05,0.0429016,21.0405,-354.638,0.252603,0.0,0.0
2635,658.5,33.3898,34.144,147.492,106.18,103.195,0.000150843,0.0428077,21.0393,-354.638,0.246618,0.0,0.0
2652,662.75,32.9115,34.3722,146.562,106.18,103.263,6.50212e-05,0.0426477,21.04,-354.638,0.240976,0.0,0.0
2669,667,32.9407,34.3968,147.513,106.159,103.049,-3.84236e-06,0.0426028,21.0408,-354.658,0.257229,0.0,0.0
2686,671.25,33.146,34.7726,145.84,106.144,103.198,0.00030668,0.0424678,21.0403,-354.628,0.243511,0.0,0.0
2703,675.5,32.3065,34.5203,151.286,106.165,103.359,0.000187231,0.0423307,21.0402,-354.628,0.231711,0.0,0.0
2720,679.75,33.0453,33.9212,144.95,106.148,103.639,0.000113643,0.0419155,21.0407,-354.618,0.206899,0.0,0.0
2737,684,33.0093,33.9737,146.869,106.14,103.029,0.00022401,0.0422589,21.0397,-354.638,0.257357,0.0,0.0
2754,688.25,32.4799,34.4281,144.847,106.148,103.338,0.000238918,0.0430985,21.0373,-354.608,0.232093,0.0,0.0
2771,692.5,32.8957,34.154,146.846,106.154,103.07,0.000241766,0.0439291,21.0342,-354.588,0.255092,0.0,0.0
2788,696.75,32.483,34.4043,150.196,106.146,103.135,0.000273494,0.0442679,21.0325,-354.608,0.248939,0.0,0.0
2805,701,33.0396,33.674,152.124,106.161,103.433,0.000383702,0.0440322,21.0341,-354.608,0.225155,0.0,0.0
2822,705.25,32.4983,34.2832,148.117,106.13,103.132,0.000258097,0.0437666,21.0347,-354.608,0.247914,0.0,0.0
2839,709.5,32.9504,33.513,147.748,106.101,102.724,0.00037449,0.0434086,21.0373,-354.608,0.279825,0.0,0.0
2856,713.75,32.4161,34.4634,152.181,106.097,102.989,0.000510678,0.0429124,21.0392,-354.638,0.257168,0.0,0.0
2873,718,32.6531,33.8427,147.277,106.098,102.891,0.00030382,0.0427765,21.0395,-354.678,0.265531,0.0,0.0
2890,722.25,32.0218,34.0099,144.479,106.088,103.296,0.000335071,0.0428567,21.0395,-354.648,0.230751,0.0,0.0
2907,726.5,33.181,33.7224,145.105,106.085,103.052,8.44743e-05,0.0428093,21.0386,-354.638,0.250963,0.0,0.0
2924,730.75,33.0318,34.0291,144.992,106.103,103.141,9.01783e-05,0.0428039,21.0394,-354.658,0.244925,0.0,0.0
2941,735,32.4639,33.9491,140.732,106.093,102.905,0.000388644,0.0428343,21.0391,-354.618,0.263901,0.0,0.0
2958,739.25,33.2362,34.0175,153.721,106.095,102.981,0.000357564,0.0428517,21.0395,-354.598,0.257689,0.0,0.0
2975,743.5,33.1685,34.0173,146.849,106.111,102.964,0.000128789,0.0428905,21.0377,-354.608,0.260428,0.0,0.0
2992,747.75,33.0696,34.1029,148.716,106.118,103.094,0.000404475,0.0431089,21.0385,-354.608,0.250087,0.0,0.0
3009,752,32.7121,33.6437,150.667,106.104,103.028,0.000565032,0.0429484,21.039,-354.598,0.254492,0.0,0.0
3026,756.25,32.5015,34.3913,149.975,106.115,102.969,0.000342331,0.0430433,21.0373,-354.608,0.26039,0.0,0.0
3043,760.5,32.6468,33.7224,146.468,106.143,103.134,0.000265127,0.0437457,21.0358,-354.618,0.24881,0.0,0.0
3060,764.75,32.2819,34.0715,149.984,106.141,103.257,0.000232687,0.0442307,21.0346,-354.618,0.238368,0.0,0.0
3077,769,32.5833,33.8944,146.485,106.178,103.238,0.000221693,0.0443627,21.0344,-354.668,0.242902,0.0,0.0
3094,773.25,32.7963,34.2465,149.797,106.171,103.148,0.000383573,0.0440388,21.0337,-354.658,0.249957,0.0,0.0
3111,777.5,32.8374,34.4165,150.669,106.175,103.142,0.000354846,0.0437727,21.0341,-354.608,0.250705,0.0,0.0
3128,781.75,33.0217,33.8811,145.379,106.171,103.194,0.000134345,0.0432535,21.0395,-354.648,0.246029,0.0,0.0
3145,786,32.8597,34.079,146.621,106.185,103.372,0.000483311,0.0428078,21.0402,-354.618,0.232274,0.0,0.0
3162,790.25,32.61,33.8881,146.44,106.195,103.264,0.000544139,0.0427425,21.0403,-354.598,0.242125,0.0,0.0
3179,794.5,32.4582,34.0888,152.25,106.178,103.024,0.000169397,0.0429848,21.0401,-354.578,0.26091,0.0,0.0
3196,798.75,32.7671,33.9761,151.239,106.188,103.004,-0.000142851,0.0430878,21.0401,-354.568,0.263356,0.0,0.0
3213,803,32.7173,34.1062,146.616,106.209,102.97,4.82747e-06,0.0430533,21.0393,-354.598,0.267912,0.0,0.0
3230,807.25,32.7815,33.908,149.028,106.168,103.114,0.000319838,0.0429626,21.0391,-354.608,0.252477,0.0,0.0
3247,811.5,32.9663,33.9727,148.94,106.195,102.891,0.000280068,0.0428255,21.039,-354.618,0.273421,0.0,0.0
3264,815.75,32.5063,33.6975,143.548,106.184,103.212,0.000258925,0.0427531,21.0393,-354.618,0.245608,0.0,0.0
3281,820,32.5177,33.6084,147.859,106.174,103.057,0.000311643,0.0425328,21.0398,-354.598,0.257829,0.0,0.0
3298,824.25,32.752,34.0839,143.545,106.197,103.15,0.000418639,0.0423776,21.0401,-354.638,0.251792,0.0,0.0
3315,828.5,32.4521,34.2041,145.97,106.192,103.02,0.00020551,0.0423496,21.0396,-354.598,0.262268,0.0,0.0
3332,832.75,32.3511,34.1482,147.303,106.173,103.04,0.000212919,0.0420773,21.0395,-354.618,0.259086,0.0,0.0
3349,837,32.4723,34.1238,148.656,106.168,103.501,0.000223447,0.042146,21.0395,-354.618,0.220125,0.0,0.0
3366,841.25,32.8487,33.7083,144.747,106.18,103.247,0.000173536,0.042333,21.0395,-354.688,0.242301,0.0,0.0
3383,845.5,32.7087,33.9222,147.916,106.174,103.193,0.000291971,0.0426783,21.0377,-354.628,0.246322,0.0,0.0
3400,849.75,32.8635,33.6975,147.727,106.16,103.143,0.000441833,0.0425515,21.0393,-354.648,0.249361,0.0,0.0
3417,854,32.1367,34.4692,151.367,106.147,102.906,0.000523388,0.0427969,21.04,-354.648,0.268208,0.0,0.0
3434,858.25,32.5392,33.6944,150.174,106.152,103.264,0.000257659,0.0428402,21.0397,-354.618,0.238658,0.0,0.0
3451,862.5,32.6338,33.9897,147.466,106.103,103.275,0.000143624,0.0427429,21.0394,-354.648,0.233657,0.0,0.0
3468,866.75,33.1359,34.1556,145.666,106.083,102.992,0.000144367,0.0428218,21.0393,-354.608,0.255846,0.0,0.0
3485,871,32.1407,33.8737,147.071,106.062,103.053,0.000107921,0.0427223,21.0396,-354.598,0.248951,0.0,0.0
3502,875.25,32.8829,34.0662,144.059,106.013,102.919,4.65253e-05,0.0425475,21.0399,-354.558,0.256278,0.0,0.0
3519,879.5,32.4358,34.0619,144.734,105.973,103.14,-0.000172763,0.0424198,21.0386,-354.588,0.234442,0.0,0.0
3536,883.75,32.7132,33.7093,148.514,105.956,102.887,-2.16161e-05,0.0422696,21.0384,-354.558,0.254223,0.0,0.0
3553,888,32.772,34.1533,145.985,105.872,102.861,0.000151143,0.0420364,21.0381,-354.598,0.249589,0.0,0.0
3570,892.25,32.6333,33.3505,145.652,105.819,102.806,4.96312e-05,0.0417562,21.0396,-354.598,0.249871,0.0,0.0
3587,896.5,32.4037,33.8109,147.042,105.783,102.61,-0.00012917,0.041891,21.0403,-354.628,0.263474,0.0,0.0
3604,900.75,32.7588,33.7264,150.081,105.7,102.823,-0.000175759,0.0419045,21.0407,-354.628,0.238714,0.0,0.0
3621,905,32.2972,33.7631,142.905,105.621,102.687,0.000191375,0.0419383,21.0408,-354.628,0.243714,0.0,0.0
3638,909.25,33.0112,33.6202,148.808,105.531,102.314,0.000341753,0.0420837,21.0394,-354.658,0.267776,0.0,0.0
3655,913.5,32.3464,33.3714,150.951,105.406,102.565,0.000171603,0.0424603,21.0395,-354.638,0.236318,0.0,0.0
3672,917.75,32.8001,33.5247,147.753,105.294,102.318,8.56073e-05,0.0425361,21.0382,-354.618,0.248002,0.0,0.0
3689,922,32.6778,33.647,146.84,105.295,102.013,7.32933e-05,0.0424474,21.0383,-354.658,0.273951,0.0,0.0
3706,926.25,32.79,33.6735,146.372,105.315,102.253,0.00010124,0.0423446,21.0396,-354.638,0.255225,0.0,0.0
3723,930.5,33.3382,34.3172,146.854,105.33,102.264,7.19341e-05,0.0422711,21.0404,-354.648,0.25556,0.0,0.0
3740,934.75,32.6049,33.9055,146.421,105.338,102.443,0.00022816,0.0423355,21.04,-354.638,0.24107,0.0,0.0
3757,939,32.6498,33.736,147.417,105.369,102.187,0.000426854,0.0424422,21.039,-354.658,0.265294,0.0,0.0
3774,943.25,33.0644,33.6044,148.349,105.378,102.305,0.000467206,0.0430364,21.0383,-354.668,0.256029,0.0,0.0
3791,947.5,32.6057,33.7414,147.295,105.394,102.22,0.000309839,0.0441331,21.0367,-354.678,0.264555,0.0,0.0
3808,951.75,33.097,33.754,146.74,105.443,102.646,2.28455e-05,0.0449289,21.0354,-354.668,0.232622,0.0,0.0
3825,956,32.3804,33.8687,149.242,105.449,102.25,6.78797e-05,0.0450462,21.0352,-354.628,0.266488,0.0,0.0
3842,960.25,33.0472,33.4913,145.415,105.453,102.572,0.0001747,0.045102,21.0335,-354.618,0.239689,0.0,0.0
3859,964.5,32.108,33.7136,145.125,105.49,102.257,0.000318043,0.0449393,21.0343,-354.628,0.269249,0.0,0.0
3876,968.75,32.6673,33.9948,146.701,105.519,102.454,0.000159823,0.0442711,21.0365,-354.568,0.254954,0.0,0.0
3893,973,32.3741,34.0737,151.144,105.511,102.116,0.00025717,0.0440523,21.0369,-354.568,0.282948,0.0,0.0
3910,977.25,32.4447,33.7244,148.923,105.549,102.338,0.000269384,0.0437398,21.0369,-354.588,0.267253,0.0,0.0
3927,981.5,32.7502,33.7838,147.852,105.574,102.302,0.000116536,0.043824,21.0387,-354.648,0.272361,0.0,0.0
3944,985.75,32.5051,34.0292,150.635,105.582,102.345,0.000276622,0.0433487,21.0392,-354.638,0.26942,0.0,0.0
3961,990,32.5196,33.5773,148.237,105.606,102.614,0.00034797,0.0429684,21.0392,-354.638,0.248688,0.0,0.0
3978,994.25,32.7725,34.1372,146.048,105.621,102.625,0.000494972,0.042646,21.0397,-354.608,0.248908,0.0,0.0
3995,998.5,32.2931,34.2177,148.197,105.634,102.455,0.000391237,0.0423158,21.0411,-354.638,0.264328,0.0,0.0
4012,1002.75,32.3342,34.1793,149.68,105.657,102.771,0.000506853,0.0423301,21.0405,-354.618,0.239563,0.0,0.0
4029,1007,32.8107,33.8487,144.998,105.668,102.485,0.000558831,0.0425389,21.0391,-354.578,0.264636,0.0,0.0
4046,1011.25,33.1294,34.0172,143.816,105.674,102.575,0.000287865,0.0426387,21.0392,-354.568,0.257469,0.0,0.0
4063,1015.5,32.2103,34.2551,148.589,105.68,102.668,0.000310836,0.0430314,21.039,-354.618,0.250104,0.0,0.0
4080,1019.75,33.1052,33.4817,146.583,105.684,102.666,0.000381542,0.0437876,21.0373,-354.598,0.250687,0.0,0.0
4097,1024,32.5923,33.7669,147.242,105.686,102.506,0.000502536,0.0440409,21.037,-354.588,0.264281,0.0,0.0
4114,1028.25,32.6351,33.9206,144.158,105.67,102.675,0.000520104,0.0438769,21.0375,-354.628,0.248743,0.0,0.0
4131,1032.5,32.8739,33.6374,146.385,105.66,102.762,0.000439714,0.0434223,21.039,-354.618,0.24059,0.0,0.0
4148,1036.75,32.4945,33.7983,150.768,105.637,102.419,0.000330218,0.0431199,21.0395,-354.638,0.267625,0.0,0.0
4165,1041,32.4617,34.1283,148.763,105.583,102.376,0.000273792,0.0429862,21.0396,-354.618,0.266828,0.0,0.0
4182,1045.25,32.5828,33.756,148.141,105.554,102.36,0.00025388,0.0429978,21.0396,-354.618,0.265834,0.0,0.0
4199,1049.5,32.4269,33.7457,149.265,105.514,102.588,0.000556209,0.043194,21.0389,-354.628,0.243296,0.0,0.0
4216,1053.75,32.7137,33.9363,144.432,105.461,102.211,0.000359188,0.0434616,21.0386,-354.628,0.270808,0.0,0.0
4233,1058,32.715,33.5912,148.497,105.416,102.412,0.000216893,0.043721,21.0383,-354.608,0.250122,0.0,0.0
4250,1062.25,32.8254,33.6879,149.103,105.398,102.303,0.000322856,0.0437982,21.0383,-354.618,0.257885,0.0,0.0
4267,1066.5,32.1345,33.7595,148.648,105.32,102.124,0.000493744,0.0438289,21.038,-354.648,0.266606,0.0,0.0
4284,1070.75,32.6617,33.5229,148.228,105.277,102.11,0.000401669,0.0435824,21.038,-354.588,0.264211,0.0,0.0
4301,1075,32.5606,33.5643,148.801,105.246,102.048,0.000361685,0.0438144,21.0363,-354.598,0.266927,0.0,0.0
4318,1079.25,32.3505,33.2284,145.429,105.205,102.339,0.000220573,0.0439995,21.0373,-354.658,0.238992,0.0,0.0
4335,1083.5,32.3067,33.3841,147.825,105.137,101.952,0.000216028,0.0445463,21.0363,-354.618,0.266086,0.0,0.0
4352,1087.75,32.9761,33.2477,146.663,105.096,102.041,0.000241368,0.0451545,21.0359,-354.648,0.255205,0.0,0.0
4369,1092,32.423,32.9858,145.073,105.024,102.072,0.000256972,0.0455047,21.0339,-354.678,0.246694,0.0,0.0
4386,1096.25,32.1815,33.7675,145.981,104.955,101.873,0.000350261,0.0455754,21.0336,-354.638,0.257789,0.0,0.0
4403,1100.5,32.5183,33.741,148.09,104.863,102.092,0.000132475,0.0458085,21.0326,-354.598,0.231668,0.0,0.0
4420,1104.75,32.1998,33.1739,146.754,104.81,101.937,3.53289e-05,0.0453498,21.0318,-354.588,0.240507,0.0,0.0
4437,1109,32.5192,33.9113,149.605,104.752,101.702,0.000495769,0.0445081,21.0335,-354.588,0.255613,0.0,0.0
4454,1113.25,32.1311,33.0016,148.271,104.708,101.387,0.000487831,0.0441902,21.0331,-354.618,0.27885,0.0,0.0
4471,1117.5,32.412,33.6138,145.041,104.677,101.695,0.000555888,0.0437388,21.0339,-354.638,0.249945,0.0,0.0
4488,1121.75,32.5748,33.8649,144.006,104.653,101.602,0.000230202,0.043177,21.0357,-354.628,0.255957,0.0,0.0
4505,1126,32.3593,33.5492,147.794,104.617,101.409,0.000356285,0.0428698,21.037,-354.608,0.269416,0.0,0.0
4522,1130.25,32.5663,33.3766,142.487,104.612,101.507,0.000396092,0.0427348,21.0384,-354.578,0.260605,0.0,0.0
4539,1134.5,32.7641,33.3553,146.948,104.612,101.435,6.59192e-05,0.042649,21.0374,-354.598,0.266809,0.0,0.0
4556,1138.75,32.5487,33.482,146.662,104.586,101.362,0.000132611,0.0429151,21.039,-354.618,0.270851,0.0,0.0
4573,1143,32.4327,33.6645,144.441,104.563,101.577,0.000237167,0.0431606,21.0382,-354.618,0.250654,0.0,0.0
4590,1147.25,32.7999,34.0268,149.764,104.557,101.392,0.000416623,0.0433545,21.0382,-354.648,0.265967,0.0,0.0
4607,1151.5,32.5526,33.8563,148.203,104.51,101.395,0.000254396,0.0433733,21.0382,-354.628,0.261699,0.0,0.0
4624,1155.75,32.6659,33.2931,147.93,104.48,101.315,0.000373623,0.0436805,21.0368,-354.638,0.266053,0.0,0.0
4641,1160,32.0987,33.3099,147.36,104.466,101.56,0.000555462,0.0438737,21.0365,-354.628,0.244031,0.0,0.0
4658,1164.25,32.4119,33.5837,147.21,104.435,101.473,0.000263186,0.0439194,21.0358,-354.638,0.248855,0.0,0.0
4675,1168.5,32.6423,33.358,149.581,104.416,101.247,4.43644e-05,0.0437635,21.0357,-354.638,0.266598,0.0,0.0
4692,1172.75,32.2657,33.3012,149.221,104.41,101.298,0.000200784,0.0435383,21.0366,-354.628,0.261781,0.0,0.0
4709,1177,32.5237,33.9534,148.046,104.4,101.162,0.000290863,0.0434447,21.0378,-354.648,0.272537,0.0,0.0
4726,1181.25,32.2946,33.3721,147.769,104.383,101.171,0.000289363,0.043356,21.0372,-354.668,0.270358,0.0,0.0
4743,1185.5,32.2743,33.2514,142.21,104.382,101.465,0.000109048,0.043507,21.0371,-354.658,0.245182,0.0,0.0
4760,1189.75,33.0957,33.7152,148.235,104.373,101.475,-1.33187e-05,0.0434779,21.0371,-354.608,0.243599,0.0,0.0
4777,1194,32.0751,33.8188,148.579,104.356,101.214,7.00246e-05,0.0433143,21.0374,-354.638,0.264459,0.0,0.0
4794,1198.25,31.8364,33.9838,145.002,104.383,101.173,0.000368568,0.0430933,21.0374,-354.588,0.270195,0.0,0.0
4811,1202.5,31.9126,33.1435,149.026,104.392,101.344,0.000317807,0.0430818,21.0374,-354.618,0.256289,0.0,0.0
4828,1206.75,32.4089,33.2418,146.724,104.401,101.538,0.000283718,0.0429258,21.0374,-354.618,0.240582,0.0,0.0
4845,1211,32.1671,33.5117,145.163,104.423,101.77,0.000259335,0.0428034,21.0391,-354.588,0.222627,0.0,0.0
4862,1215.25,32.0982,33.1669,145.645,104.445,101.538,0.000310283,0.0425666,21.0402,-354.568,0.244218,0.0,0.0
4879,1219.5,32.1478,33.518,145.882,104.436,101.455,0.000172428,0.0424328,21.0388,-354.558,0.250505,0.0,0.0
4896,1223.75,31.7325,33.8201,149.989,104.425,101.466,0.000137361,0.0423916,21.0386,-354.578,0.248633,0.0,0.0
4913,1228,32.3203,33.2793,146.285,104.43,101.321,0.000354504,0.0425767,21.0379,-354.648,0.261406,0.0,0.0
4930,1232.25,32.3324,33.8117,151.573,104.404,101.334,0.000108788,0.0426079,21.0377,-354.588,0.258198,0.0,0.0
4947,1236.5,31.9342,33.7094,144.206,104.394,101.639,0.000286042,0.0425016,21.0374,-354.628,0.231366,0.0,0.0
4964,1240.75,32.4197,33.4131,147.775,104.407,101.498,0.000539589,0.042526,21.0399,-354.618,0.244439,0.0,0.0
4981,1245,31.8164,33.5514,146.198,104.403,101.436,0.000505033,0.0425193,21.0411,-354.618,0.249457,0.0,0.0
4998,1249.25,32.397,33.7068,151.273,104.375,101.074,0.00024282,0.0426588,21.0419,-354.618,0.278047,0.0,0.0
5015,1253.5,32.7732,33.6553,143.248,104.379,101.258,0.00011818,0.0425609,21.042,-354.618,0.262586,0.0,0.0
5032,1257.75,32.5109,33.6467,145.739,104.361,101.196,0.000112857,0.0426822,21.0416,-354.598,0.266397,0.0,0.0
5049,1262,32.8578,33.4354,145.257,104.346,101.423,0.000117802,0.0426462,21.041,-354.588,0.245821,0.0,0.0
5066,1266.25,32.5611,34.0446,144.341,104.331,101.489,0.000351753,0.0427683,21.0408,-354.598,0.238918,0.0,0.0
5083,1270.5,32.1749,34.0142,144.94,104.319,101.283,0.000504383,0.0426411,21.0402,-354.598,0.255528,0.0,0.0
5100,1274.75,32.3858,33.2277,149.534,104.314,101.173,0.000499653,0.0426376,21.0405,-354.638,0.264492,0.0,0.0
5117,1279,32.4704,33.7112,148.245,104.303,101.288,0.000417962,0.0426322,21.0412,-354.588,0.253771,0.0,0.0
5134,1283.25,32.463,33.7233,145.217,104.312,101.172,0.000319904,0.0428057,21.0409,-354.638,0.264353,0.0,0.0
5151,1287.5,32.79,33.7666,148.871,104.307,101.46,0.000154222,0.0428716,21.0381,-354.588,0.239371,0.0,0.0
5168,1291.75,32.6881,33.9331,146.946,104.324,101.188,0.000300576,0.0427174,21.0378,-354.568,0.26408,0.0,0.0
5185,1296,32.5958,33.7315,147.526,104.342,101.249,0.000349693,0.0427783,21.0372,-354.608,0.260271,0.0,0.0
5202,1300.25,33.0412,33.8691,146.685,104.341,101.164,0.000395861,0.0425738,21.0386,-354.578,0.267417,0.0,0.0
5219,1304.5,32.8232,33.1563,147.332,104.303,101.335,0.000370458,0.0425996,21.0399,-354.618,0.249737,0.0,0.0
5236,1308.75,32.4047,33.527,148.306,104.322,101.303,0.000393661,0.0425107,21.0395,-354.658,0.253999,0.0,0.0
5253,1313,32.6504,33.7349,144.782,104.291,101.531,0.000462953,0.0426762,21.0394,-354.588,0.231967,0.0,0.0
5270,1317.25,33.078,33.4606,145.051,104.255,101.486,0.000200536,0.043233,21.0391,-354.648,0.232873,0.0,0.0
5287,1321.5,32.3999,33.5027,144.345,104.257,101.544,1.71313e-05,0.0434931,21.0374,-354.628,0.228077,0.0,0.0
5304,1325.75,32.4646,33.8463,146.695,104.256,101.232,6.72538e-05,0.0434495,21.039,-354.608,0.254639,0.0,0.0
5321,1330,32.4809,33.8191,147.988,104.241,101.128,-0.000142891,0.043183,21.0393,-354.598,0.262267,0.0,0.0
5338,1334.25,33.005,33.7564,152.221,104.229,101.433,2.61047e-05,0.0430728,21.04,-354.608,0.235207,0.0,0.0
5355,1338.5,32.835,33.6885,146.49,104.25,101.155,0.000303325,0.0427102,21.0402,-354.588,0.260681,0.0,0.0
5372,1342.75,32.4198,33.644,146.767,104.225,101.236,0.000224855,0.0423175,21.0397,-354.598,0.251672,0.0,0.0
5389,1347,32.4616,33.7698,145.405,104.208,101.227,0.000526999,0.0420861,21.0404,-354.618,0.251071,0.0,0.0
5406,1351.25,32.5908,33.8088,144.128,104.221,101.199,0.000602282,0.0423278,21.0417,-354.628,0.254524,0.0,0.0
5423,1355.5,32.4364,33.7791,144.756,104.23,101.222,0.000427336,0.0422319,21.0418,-354.628,0.253253,0.0,0.0
5440,1359.75,32.2132,34.1334,148.316,104.214,101.288,0.000237798,0.042172,21.0422,-354.598,0.246342,0.0,0.0
5457,1364,32.3844,33.9791,149.322,104.218,101.155,0.00023406,0.0421911,21.0421,-354.618,0.258002,0.0,0.0
5474,1368.25,32.6782,34.0101,145.287,104.227,101.249,0.000232049,0.0420972,21.0416,-354.618,0.250745,0.0,0.0
5491,1372.5,32.6654,33.537,151.829,104.21,101.05,8.38748e-05,0.0419831,21.0415,-354.598,0.266363,0.0,0.0
5508,1376.75,32.7491,33.5877,145.131,104.219,101.198,5.80487e-05,0.0419864,21.0415,-354.598,0.254497,0.0,0.0
5525,1381,32.7759,33.8738,147.685,104.239,101.311,6.83129e-05,0.0419973,21.0427,-354.598,0.246548,0.0,0.0
5542,1385.25,32.7065,33.4791,144.551,104.218,101.214,0.000298106,0.0421263,21.0412,-354.568,0.253038,0.0,0.0
5559,1389.5,32.5863,33.4415,144.576,104.219,101.028,0.000519126,0.0421496,21.0402,-354.618,0.268984,0.0,0.0
5576,1393.75,32.6939,33.738,142.426,104.24,101.331,0.000422658,0.0423183,21.04,-354.628,0.244876,0.0,0.0
5593,1398,32.3193,33.8331,148.053,104.238,101.287,0.000327398,0.0423081,21.04,-354.618,0.24846,0.0,0.0
5610,1402.25,33.0399,33.5035,144.455,104.248,101.18,0.000323003,0.0421436,21.0401,-354.628,0.258361,0.0,0.0
5627,1406.5,32.4584,33.3602,149.907,104.251,101.254,0.000179966,0.0421687,21.0409,-354.598,0.252384,0.0,0.0
5644,1410.75,32.5693,33.4575,149.119,104.261,101.326,0.000449756,0.0422557,21.041,-354.608,0.247062,0.0,0.0
5661,1415,32.7032,33.3273,143.966,104.25,101.639,0.000550066,0.0422029,21.0425,-354.568,0.21945,0.0,0.0
5678,1419.25,32.1394,33.8963,143.246,104.255,101.375,0.000175063,0.0422191,21.0418,-354.608,0.242255,0.0,0.0
5695,1423.5,32.3791,33.332,150.09,104.256,101.274,-0.000142252,0.0423351,21.0412,-354.618,0.251034,0.0,0.0
5712,1427.75,32.3511,34.0717,147.655,104.23,101.098,-0.000278284,0.0425712,21.0399,-354.598,0.263953,0.0,0.0
5729,1432,32.6672,33.6213,147.295,104.238,101.337,0.000124149,0.0427996,21.0393,-354.648,0.244108,0.0,0.0
5746,1436.25,32.4341,33.8293,149.332,104.247,101.218,1.39331e-05,0.0431003,21.0386,-354.628,0.255038,0.0,0.0
5763,1440.5,32.4802,33.7764,148.81,104.224,101.047,-3.06505e-05,0.0433512,21.0366,-354.628,0.267783,0.0,0.0
5780,1444.75,32.4242,33.3095,148.727,104.227,101.509,0.000193351,0.0437077,21.0347,-354.588,0.228655,0.0,0.0
5797,1449,32.3725,33.7782,144.124,104.24,101.161,0.000282172,0.0440579,21.0357,-354.608,0.259419,0.0,0.0
5814,1453.25,32.8049,33.9493,148.903,104.224,100.946,0.000367894,0.0439943,21.0382,-354.588,0.276443,0.0,0.0
5831,1457.5,32.6911,33.4622,146.376,104.199,101.093,0.00062346,0.0438834,21.0387,-354.628,0.261747,0.0,0.0
5848,1461.75,31.7123,33.6979,150.165,104.222,101.447,0.000652689,0.0441074,21.0386,-354.598,0.233485,0.0,0.0
5865,1466,32.5971,33.9531,146.695,104.219,101.006,0.000770005,0.0440389,21.0372,-354.618,0.270925,0.0,0.0
5882,1470.25,32.4194,33.8206,145.201,104.211,101.067,0.00048056,0.0441173,21.036,-354.618,0.265005,0.0,0.0
5899,1474.5,32.2072,33.8771,148.253,104.226,101.061,0.000309632,0.0439843,21.0364,-354.618,0.266771,0.0,0.0
5916,1478.75,32.3747,33.5945,147.091,104.233,101.245,0.0003235,0.0437962,21.0365,-354.598,0.251637,0.0,0.0
5933,1483,32.1481,33.3172,147.956,104.226,101.3,0.000154656,0.0436712,21.0365,-354.598,0.246312,0.0,0.0
5950,1487.25,32.3231,33.5071,149.054,104.24,101.268,0.000143609,0.0435754,21.0366,-354.598,0.250263,0.0,0.0
5967,1491.5,31.901,33.7574,149.342,104.293,101.513,0.00033876,0.0433304,21.0372,-354.598,0.233727,0.0,0.0
5984,1495.75,32.176,33.4501,145.992,104.328,101.484,0.000415172,0.0433547,21.0377,-354.608,0.239142,0.0,0.0
6001,1500,31.9927,33.7304,147.004,104.372,101.232,7.15219e-05,0.0430906,21.0371,-354.628,0.264237,0.0,0.0
6018,1504.25,32.1113,33.096,149.971,104.45,101.253,0.000112188,0.0428539,21.0389,-354.598,0.268903,0.0,0.0
6035,1508.5,32.0904,33.6225,146.563,104.514,101.296,0.000158305,0.0427337,21.0394,-354.618,0.270602,0.0,0.0
6052,1512.75,32.3574,33.4648,148.857,104.583,101.399,6.81702e-06,0.0424958,21.04,-354.538,0.267474,0.0,0.0
6069,1517,32.0227,33.5489,150.169,104.653,101.377,5.36137e-05,0.0423716,21.0399,-354.578,0.275134,0.0,0.0
6086,1521.25,32.7116,33.9866,151.591,104.711,101.445,5.46335e-05,0.0427999,21.0393,-354.608,0.274159,0.0,0.0
6103,1525.5,32.3006,33.4935,146.507,104.767,101.571,0.00012096,0.0440908,21.0375,-354.598,0.268028,0.0,0.0
6120,1529.75,32.452,33.4379,148.379,104.843,101.874,0.000252931,0.0444592,21.0372,-354.608,0.248445,0.0,0.0
6137,1534,32.3709,33.9011,149.487,104.937,101.883,0.000223238,0.0439329,21.0372,-354.608,0.255473,0.0,0.0
6154,1538.25,32.6994,33.4631,144.28,105.007,102.013,0.000318422,0.0434501,21.0388,-354.598,0.25027,0.0,0.0
6171,1542.5,32.0351,33.0033,147.292,105.088,101.815,0.000278585,0.0433699,21.0381,-354.638,0.273735,0.0,0.0
6188,1546.75,31.854,33.7881,144.194,105.163,101.906,0.000351219,0.0433138,21.0373,-354.638,0.272137,0.0,0.0
6205,1551,32.1457,32.8347,143.909,105.19,102.007,0.000492277,0.0432794,21.0372,-354.638,0.265793,0.0,0.0
6222,1555.25,32.1626,33.693,146.414,105.211,101.958,0.000225886,0.0430333,21.0372,-354.638,0.271731,0.0,0.0
6239,1559.5,32.0902,33.8306,148.981,105.256,102.049,0.000199733,0.042737,21.0369,-354.648,0.267662,0.0,0.0
6256,1563.75,32.0399,34.0907,144.692,105.278,101.917,0.000255585,0.0423919,21.037,-354.628,0.280716,0.0,0.0
6273,1568,32.1906,33.4751,146.848,105.313,102.233,0.000390475,0.0421735,21.0388,-354.668,0.25677,0.0,0.0
6290,1572.25,32.2579,33.5078,143.922,105.359,102.517,0.000544606,0.0422187,21.0409,-354.658,0.236573,0.0,0.0
6307,1576.5,32.2517,33.1822,147.036,105.382,102.468,0.000262819,0.042123,21.0407,-354.638,0.242555,0.0,0.0
6324,1580.75,32.2628,33.1196,148.057,105.387,102.079,0.000268663,0.0421309,21.04,-354.638,0.275851,0.0,0.0
6341,1585,32.6596,33.2927,147.207,105.407,102.404,0.000562173,0.0422476,21.0412,-354.618,0.250043,0.0,0.0
6358,1589.25,31.8613,33.8209,148.381,105.428,102.277,0.000468371,0.0421637,21.0419,-354.618,0.262514,0.0,0.0
6375,1593.5,32.1229,33.7479,144.144,105.435,102.385,0.000307253,0.0420774,21.0405,-354.628,0.253945,0.0,0.0
6392,1597.75,32.2857,33.666,149.474,105.437,102.166,0.000193256,0.0419749,21.0409,-354.608,0.272565,0.0,0.0
6409,1602,32.2483,34.1788,146.675,105.452,102.487,0.000143749,0.0420311,21.0419,-354.608,0.246745,0.0,0.0
6426,1606.25,32.3062,33.6146,150.071,105.472,102.305,0.000173197,0.0419807,21.0428,-354.628,0.263726,0.0,0.0
6443,1610.5,32.508,33.4517,147.79,105.504,102.639,0.000463375,0.0420291,21.0422,-354.648,0.238149,0.0,0.0
6460,1614.75,31.9992,33.5538,143.519,105.554,102.319,0.000641482,0.0420576,21.0416,-354.628,0.269249,0.0,0.0
6477,1619,32.3647,33.463,147.551,105.586,102.29,0.000304202,0.0420309,21.0417,-354.638,0.274363,0.0,0.0
6494,1623.25,32.077,33.4726,146.505,105.603,102.514,-1.61245e-05,0.042016,21.0418,-354.638,0.256741,0.0,0.0
6511,1627.5,32.4874,33.698,144.651,105.632,102.676,0.000147547,0.0419297,21.0408,-354.618,0.245564,0.0,0.0
6528,1631.75,32.4197,33.5435,151.241,105.653,102.431,0.000241617,0.0418029,21.0406,-354.628,0.26791,0.0,0.0
6545,1636,32.3984,34.0304,146.444,105.644,102.509,0.000249538,0.0418707,21.0412,-354.628,0.260554,0.0,0.0
6562,1640.25,32.6791,33.8656,148.566,105.663,102.813,0.000421066,0.0417975,21.0414,-354.648,0.236582,0.0,0.0
6579,1644.5,32.3488,33.6196,148.829,105.689,102.493,0.000477061,0.0417475,21.0425,-354.628,0.265697,0.0,0.0
6596,1648.75,32.2519,33.9501,150.118,105.689,102.453,0.000263945,0.0418803,21.0426,-354.628,0.269029,0.0,0.0
6613,1653,32.0914,33.328,146.131,105.68,102.473,0.000237839,0.0419478,21.0417,-354.638,0.266571,0.0,0.0
6630,1657.25,32.1464,33.3469,148.054,105.704,102.584,0.00020951,0.0418948,21.0421,-354.618,0.259151,0.0,0.0
6647,1661.5,32.4259,33.1717,155.143,105.673,102.689,0.000220079,0.0420432,21.0427,-354.648,0.247782,0.0,0.0
6664,1665.75,32.115,33.5225,144.974,105.665,102.646,0.000297786,0.0419764,21.0428,-354.618,0.250818,0.0,0.0
6681,1670,32.0554,32.7848,145.54,105.683,102.596,0.000388571,0.0420708,21.0437,-354.638,0.25648,0.0,0.0
6698,1674.25,32.2029,33.6343,149.543,105.645,102.647,0.000443659,0.0418968,21.0433,-354.648,0.249044,0.0,0.0
6715,1678.5,32.6481,33.0608,144.51,105.633,102.386,0.000403667,0.0417959,21.0412,-354.628,0.270054,0.0,0.0
6732,1682.75,31.7359,33.2939,145.828,105.63,102.489,0.000465259,0.0419073,21.0395,-354.628,0.261153,0.0,0.0
6749,1687,32.0459,33.0605,153.026,105.624,102.357,0.000204568,0.0419837,21.0411,-354.618,0.271744,0.0,0.0
6766,1691.25,31.8695,33.2579,151.644,105.589,102.668,0.000251379,0.0420661,21.0414,-354.618,0.242709,0.0,0.0
6783,1695.5,31.7338,33.4403,148.91,105.579,102.239,0.000357948,0.0422122,21.041,-354.618,0.278115,0.0,0.0
6800,1699.75,32.3266,33.4265,150.716,105.578,102.463,0.000265773,0.042136,21.0395,-354.628,0.259072,0.0,0.0
6817,1704,32.8424,33.4365,150.126,105.554,102.458,0.00021108,0.0422321,21.0392,-354.598,0.257529,0.0,0.0
6834,1708.25,32.1586,33.2377,146.952,105.543,102.325,0.000390821,0.0423404,21.0391,-354.548,0.267897,0.0,0.0
6851,1712.5,32.1895,33.6254,149.346,105.554,102.629,0.000264561,0.0421204,21.0391,-354.568,0.243101,0.0,0.0
6868,1716.75,31.5107,33.2776,149.1,105.523,102.644,0.000515596,0.0420126,21.0398,-354.618,0.239342,0.0,0.0
6885,1721,32.1889,33.4868,149.127,105.508,102.492,0.000535813,0.041945,21.0413,-354.608,0.250936,0.0,0.0
6902,1725.25,32.3749,33.6022,149.695,105.519,102.396,0.000118554,0.0417626,21.0416,-354.608,0.259889,0.0,0.0
6919,1729.5,31.8261,33.1889,142.758,105.519,102.283,0.000355919,0.0418514,21.0419,-354.598,0.269451,0.0,0.0
6936,1733.75,32.0467,33.3419,151.164,105.521,102.265,0.000260503,0.0418346,21.0422,-354.628,0.271118,0.0,0.0
6953,1738,32.135,33.3235,149.226,105.532,102.538,0.00038919,0.04179,21.0423,-354.658,0.249037,0.0,0.0
6970,1742.25,32.021,33.3131,147.106,105.551,102.382,0.000479338,0.0418268,21.0428,-354.648,0.263671,0.0,0.0
6987,1746.5,32.4822,33.429,144.686,105.538,102.536,0.000406916,0.0419913,21.0424,-354.668,0.249688,0.0,0.0
7004,1750.75,32.4477,33.5354,150.519,105.553,102.315,0.000287283,0.0423238,21.0415,-354.618,0.269536,0.0,0.0
7021,1755,31.8116,33.3815,145.492,105.554,102.549,0.000217248,0.0424937,21.0409,-354.608,0.249897,0.0,0.0
7038,1759.25,32.2534,33.5362,149.711,105.545,102.413,0.000348486,0.0425937,21.0399,-354.608,0.260626,0.0,0.0
7055,1763.5,32.1473,33.4692,147.444,105.554,102.638,0.000513762,0.0430012,21.0387,-354.638,0.242279,0.0,0.0
7072,1767.75,31.7181,33.3646,150.176,105.56,102.406,0.000505591,0.0430976,21.0402,-354.618,0.262373,0.0,0.0
7089,1772,32.2585,33.9987,151.207,105.556,102.67,0.000297043,0.0432874,21.0407,-354.608,0.239759,0.0,0.0
7106,1776.25,32.4539,33.4501,148.241,105.551,102.557,0.000109905,0.0435192,21.0395,-354.578,0.248946,0.0,0.0
7123,1780.5,32.3656,33.6544,144.999,105.565,102.369,0.000264356,0.043716,21.0392,-354.538,0.265896,0.0,0.0
7140,1784.75,32.3537,33.7009,151.963,105.562,102.52,0.000362792,0.0436122,21.0391,-354.568,0.252996,0.0,0.0
7157,1789,32.4642,33.1754,145.437,105.562,102.315,0.000120219,0.0431367,21.0399,-354.598,0.270275,0.0,0.0
7174,1793.25,32.3166,33.6593,148.052,105.571,102.463,0.000123027,0.0428815,21.0412,-354.588,0.258477,0.0,0.0
7191,1797.5,32.6408,33.5679,143.861,105.552,102.417,0.000271583,0.0427846,21.0418,-354.578,0.260838,0.0,0.0
7208,1801.75,32.4615,33.7216,147.407,105.532,102.387,0.000142479,0.0425457,21.0421,-354.538,0.261688,0.0,0.0
7225,1806,32.3992,33.4121,147.627,105.546,102.12,0.00049544,0.0423234,21.0421,-354.598,0.285451,0.0,0.0
7242,1810.25,32.3747,33.8404,147.028,105.544,102.606,0.000538897,0.0422507,21.0421,-354.548,0.244275,0.0,0.0
7259,1814.5,32.4602,33.5989,147.626,105.536,102.24,0.000244188,0.0420547,21.0416,-354.588,0.274435,0.0,0.0
7276,1818.75,32.5514,33.615,144.453,105.54,102.587,0.000245446,0.0420494,21.0407,-354.558,0.245452,0.0,0.0
7293,1823,31.8311,33.2824,151.148,105.561,102.291,0.000307334,0.0419605,21.0398,-354.578,0.272165,0.0,0.0
7310,1827.25,31.7733,32.7967,148.02,105.563,102.537,0.000437312,0.0419195,21.04,-354.558,0.251584,0.0,0.0
7327,1831.5,31.504,33.0558,146.385,105.557,102.321,0.000587936,0.041986,21.04,-354.578,0.269339,0.0,0.0
7344,1835.75,31.5545,33.0777,147.187,105.561,102.418,0.000560193,0.0420178,21.04,-354.578,0.26154,0.0,0.0
7361,1840,32.0608,33.0315,148.124,105.568,102.256,0.000276208,0.0420184,21.04,-354.578,0.275751,0.0,0.0
7378,1844.25,32.0935,33.0597,141.838,105.548,102.271,0.000127408,0.0421855,21.0411,-354.588,0.272838,0.0,0.0
7395,1848.5,31.5208,33.2046,146.134,105.564,102.277,0.000328914,0.0424833,21.0414,-354.608,0.273624,0.0,0.0
7412,1852.75,31.8137,32.249,147.102,105.575,102.143,0.000155881,0.0429918,21.0412,-354.618,0.285885,0.0,0.0
7429,1857,31.7452,32.6982,149.135,105.547,102.547,-0.000132753,0.0435652,21.0411,-354.618,0.249415,0.0,0.0
7446,1861.25,31.3895,33.0014,146.556,105.558,102.577,0.000197311,0.0442911,21.0386,-354.598,0.247794,0.0,0.0
7463,1865.5,31.7225,33.4793,150.564,105.581,101.997,0.000249711,0.0443229,21.0387,-354.618,0.298798,0.0,0.0
7480,1869.75,31.8132,33.1757,151.343,105.554,102.676,0.000426845,0.0437153,21.0388,-354.638,0.239149,0.0,0.0
7497,1874,31.798,33.4918,146.055,105.527,102.562,0.000318448,0.0436615,21.0388,-354.618,0.246505,0.0,0.0
7514,1878.25,31.835,32.527,145.555,105.55,102.205,0.000239986,0.0436482,21.0388,-354.618,0.278546,0.0,0.0
7531,1882.5,32.1094,33.0081,148.624,105.513,102.653,0.000301941,0.0435696,21.0402,-354.618,0.237713,0.0,0.0
7548,1886.75,31.646,33.0971,147.303,105.494,102.341,0.000182279,0.0434186,21.0397,-354.618,0.262506,0.0,0.0
7565,1891,31.5805,32.7091,148.644,105.492,102.308,9.65912e-05,0.0433428,21.0399,-354.598,0.26511,0.0,0.0
7582,1895.25,31.849,33.4422,147.614,105.469,102.424,3.04348e-05,0.0434722,21.0395,-354.608,0.253442,0.0,0.0
7599,1899.5,31.9721,32.9429,147.2,105.467,102.2,0.000176805,0.0436193,21.0393,-354.608,0.27224,0.0,0.0
7616,1903.75,31.5872,33.0188,141.499,105.429,102.316,0.000146258,0.0435893,21.0393,-354.618,0.259217,0.0,0.0
7633,1908,32.2123,33.099,148.825,105.397,102.319,0.000415856,0.0437237,21.0385,-354.648,0.256368,0.0,0.0
7650,1912.25,31.8536,32.7631,146.515,105.355,102.308,0.000151192,0.0437516,21.0391,-354.628,0.253883,0.0,0.0
7667,1916.5,31.8651,33.0955,147.234,105.344,102.22,0.000118581,0.0433884,21.0394,-354.638,0.260457,0.0,0.0
7684,1920.75,31.7356,33.1521,149.008,105.328,102.023,0.000357171,0.0430791,21.0388,-354.618,0.275772,0.0,0.0
7701,1925,31.3591,32.485,148.997,105.298,102.206,0.000587706,0.0429717,21.0391,-354.658,0.25785,0.0,0.0
7718,1929.25,31.5898,32.9164,146.134,105.288,102.035,0.00062477,0.04268,21.0392,-354.578,0.271458,0.0,0.0
7735,1933.5,31.2464,33.3576,148.629,105.41,102.461,,0.0424291,,-354.598,0.245477,0.0,0.0
7752,1937.75,31.6385,32.8826,146.424,105.531,102.332,,,,-354.618,0.266286,0.0,0.0
7769,1942,31.4775,32.8284,146.576,105.641,102.284,,,,-354.598,0.279388,0.0,0.0
7775,1943.5,31.7527,32.8243,147.718,105.677,102.575,,,,-354.608,0.257786,0.0,0.0