File: 01_Data/R13_Fiberglass_Insulation/Cone/R13_Fiberglass_Insulation_Cone_HF75Scan_220429_R3.csv
Names,Time,Stack TC,Smoke TC,Exh Press,Smoke Comp,Smoke Meas,CO Meter,CO2 Meter,O2 Meter,Sample Mass,Ext Coeff,Start Test,Flame Verif
Chan Gain,,500,500,1,1,1,1,1,1,1,1,1.0,1.0
Offset,,0,0,0.13436,0,0,0,0,0,0,0,0.0,0.0
Gain,,1,1,25.011,14.4414,16.1819,1,1,1,1.0009,1.01483,1.0,1.0
Units,sec,C,C,Pa,%,%,%,%,%,g,/m,,
Baseline,,43.6855,45.3003,131.477,110.151,113.58,0.000572249,0.0579774,21.0078,-496.552,-0.272767,,
7,1.5,40.5667,42.7382,129.23,109.923,113.102,0.00176846,0.0655454,21.0009,4.94444,-0.253785,0.0,0.0
14,3.25,41.1867,42.8277,127.537,109.901,113.629,0.00231468,0.0707359,20.9944,4.86437,-0.296981,0.0,0.0
21,5,40.8197,42.7616,128.353,109.885,114.741,0.00264097,0.0745048,20.9909,4.77429,-0.384895,0.0,0.0
28,6.75,41.1912,42.8766,125.438,109.9,113.741,0.00282639,0.0755158,20.9892,4.73425,-0.305827,0.0,0.0
35,8.5,41.5082,43.1678,127.891,109.904,114.084,0.0029756,0.0756482,20.9875,4.71423,-0.33233,0.0,0.0
42,10.25,41.6652,42.8516,128.602,109.886,113.56,0.00309609,0.0757732,20.9864,4.69421,-0.292742,0.0,0.0
49,12,42.1261,43.385,130.177,109.887,113.908,0.00318863,0.0758147,20.9858,4.61414,-0.319956,0.0,0.0
56,13.75,42.2325,43.9078,131.689,109.893,113.762,0.00322849,0.0756299,20.9853,4.62415,-0.307989,0.0,0.0
63,15.5,42.0628,43.5538,129.599,109.896,114.054,0.00319034,0.0752978,20.9862,4.62415,-0.330623,0.0,0.0
70,17.25,42.2561,43.7245,128.001,109.889,114.202,0.00314306,0.0748286,20.9871,4.57411,-0.342747,0.0,0.0
77,19,42.4122,43.6691,127.586,109.885,113.893,0.00316275,0.0741381,20.9883,4.54408,-0.318905,0.0,0.0
84,20.75,43.0794,44.0015,129.942,109.874,113.367,0.00322955,0.0732724,20.9898,4.54408,-0.278592,0.0,0.0
91,22.5,43.1846,43.8196,131.313,109.897,113.776,0.00319254,0.072361,20.9905,4.54408,-0.308824,0.0,0.0
98,24.25,43.0821,44.5542,129.768,109.889,114.899,0.00294941,0.0715469,20.9907,4.55409,-0.396825,0.0,0.0
105,26,43.1637,44.7159,127.737,109.894,114.223,0.00276443,0.070903,20.9908,4.57411,-0.343899,0.0,0.0
112,27.75,43.1167,44.7789,132.814,109.925,113.086,0.00268044,0.0702908,20.9914,4.53407,-0.252359,0.0,0.0
119,29.5,43.9639,44.8348,128.816,109.935,114.74,0.00261084,0.0694363,20.9922,4.54408,-0.380784,0.0,0.0
126,31.25,43.4279,44.7004,131.232,109.927,114.228,0.00248107,0.0686892,20.9933,4.54408,-0.341645,0.0,0.0
133,33,43.7829,45.1947,129.057,109.924,114.194,0.00229636,0.0682353,20.9948,4.50404,-0.339237,0.0,0.0
140,34.75,43.6925,45.036,126.402,109.93,114.105,0.00216483,0.0676633,20.9956,4.51405,-0.331804,0.0,0.0
147,36.5,43.728,45.1813,129.759,109.977,113.335,0.00211091,0.0670228,20.9974,4.52406,-0.26772,0.0,0.0
154,38.25,43.8182,45.5595,126.476,109.96,114.439,0.0020522,0.0665035,20.9995,4.49403,-0.355423,0.0,0.0
161,40,43.7586,44.9282,130.886,109.95,113.831,0.00193918,0.0658095,21.0006,4.52406,-0.308793,0.0,0.0
168,41.75,44.1223,45.5174,132.093,109.971,113.214,0.00176634,0.0651773,21.0012,4.49403,-0.25875,0.0,0.0
175,43.5,44.1604,45.5911,128.309,109.986,113.374,0.00158318,0.0645516,21.0014,4.51405,-0.270035,0.0,0.0
182,45.25,44.2452,45.6757,133.465,109.992,113.499,0.00139849,0.0639698,21.0028,4.52406,-0.279375,0.0,0.0
189,47,44.3688,45.6684,129.091,109.99,113.857,0.00126037,0.0633458,21.0034,4.53407,-0.30759,0.0,0.0
196,48.75,44.2615,45.545,131.615,109.998,113.742,0.00117303,0.0626939,21.0043,4.54408,-0.29795,0.0,0.0
203,50.5,44.4932,45.5866,129.869,110.016,113.197,0.00107369,0.062291,21.0054,4.52406,-0.253714,0.0,0.0
210,52.25,44.388,45.5361,131.102,110.029,113.76,0.000996283,0.0618468,21.0058,4.51405,-0.296846,0.0,0.0
217,54,44.1509,45.9333,126.582,110.061,113.799,0.000950149,0.0613735,21.0061,4.49403,-0.297296,0.0,0.0
224,55.75,44.4037,46.2079,125.931,110.04,114.082,0.000882435,0.0611039,21.0062,4.49403,-0.32115,0.0,0.0
231,57.5,44.117,45.6454,132.264,110.043,114.504,0.000761546,0.0608285,21.0063,4.49403,-0.353749,0.0,0.0
238,59.25,44.9032,45.9873,123.776,110.066,114.146,0.000661662,0.0605076,21.006,4.47402,-0.32398,0.0,0.0
245,61,44.4189,46.1862,131.804,110.075,114.445,0.000621308,0.0602679,21.0055,4.48402,-0.346612,0.0,0.0
252,62.75,45.0848,46.3023,129.61,110.087,114.111,0.000651007,0.059879,21.0052,4.50404,-0.319609,0.0,0.0
259,64.5,44.6983,46.3971,132.619,110.093,115.648,0.000600817,0.0597015,21.0048,4.48402,-0.438235,0.0,0.0
266,66.25,44.8145,46.446,128.304,110.104,113.862,0.000483261,0.0595985,21.0044,4.48402,-0.298817,0.0,0.0
273,68,44.7562,46.3732,129.07,110.105,114.565,0.000468321,0.0596852,21.0043,4.49403,-0.353485,0.0,0.0
280,69.75,45.0529,46.8255,123.122,110.106,113.459,0.000587502,0.0597261,21.0042,4.50404,-0.267005,0.0,0.0
287,71.5,44.6268,46.6803,132.404,110.108,113.713,0.000746766,0.0597885,21.0035,4.49403,-0.286794,0.0,0.0
294,73.25,44.7679,46.4414,132.012,110.099,113.057,0.000817385,0.0599391,21.0029,4.49403,-0.236018,0.0,0.0
301,75,45.2124,47.1566,129.768,110.106,114.442,0.000747104,0.0599861,21.0036,4.52406,-0.343889,0.0,0.0
308,76.75,44.7202,46.6028,129.26,110.115,114.756,0.00051769,0.0600766,21.0043,4.48402,-0.367465,0.0,0.0
315,78.5,45.2579,46.87,129.33,110.108,113.641,0.000341777,0.0599131,21.0047,4.49403,-0.281222,0.0,0.0
322,80.25,44.7098,46.7067,127.369,110.113,113.904,0.000284048,0.0596908,21.0048,4.47402,-0.301311,0.0,0.0
329,82,44.6917,46.3458,132.991,110.112,114.984,0.000266157,0.059465,21.0061,4.48402,-0.385395,0.0,0.0
336,83.75,45.3248,46.8388,129.171,110.125,114.993,0.000274972,0.0592468,21.0071,4.454,-0.385047,0.0,0.0
343,85.5,45.4189,46.9551,129.547,110.135,114.167,0.000243219,0.0590396,21.0076,4.47402,-0.32008,0.0,0.0
350,87.25,45.0842,46.8846,129.02,110.119,114.628,0.00017719,0.0590097,21.0078,4.47402,-0.357252,0.0,0.0
357,89,45.5126,47.1183,130.398,110.131,114.218,0.00017182,0.0589934,21.0079,4.49403,-0.324328,0.0,0.0
364,90.75,45.1773,47.2373,131.548,110.135,113.799,0.000324441,0.0590059,21.0079,4.454,-0.291348,0.0,0.0
371,92.5,45.7532,46.8484,131.213,110.154,114.039,0.000530749,0.0589223,21.008,4.44399,-0.308532,0.0,0.0
378,94.25,44.9996,47.2989,127.328,110.149,114.843,0.000684505,0.0587321,21.008,4.454,-0.3715,0.0,0.0
385,96,45.859,46.6129,130.223,110.148,113.952,0.000688514,0.0586279,21.008,4.44399,-0.30228,0.0,0.0
392,97.75,45.5225,47.2501,128.605,110.168,115.157,0.000564281,0.0587181,21.008,4.46401,-0.39424,0.0,0.0
399,99.5,45.2025,47.1512,126.083,110.182,113.984,0.00042462,0.0586652,21.008,4.47402,-0.301973,0.0,0.0
406,101.25,45.6627,47.2196,133.066,110.194,114.704,0.000305186,0.0585675,21.008,4.47402,-0.357101,0.0,0.0
413,103,45.7485,47.1228,127.814,110.186,114.214,0.000248978,0.0585226,21.0088,4.48402,-0.319678,0.0,0.0
420,104.75,45.329,47.3711,131.571,110.202,115.834,0.000244498,0.0584006,21.0096,4.47402,-0.443647,0.0,0.0
427,106.5,45.9533,47.3363,126.385,110.209,114.418,0.000333309,0.0583059,21.0095,4.47402,-0.333635,0.0,0.0
434,108.25,45.4346,47.8044,129.058,110.222,114.421,0.000347485,0.0583966,21.0089,4.48402,-0.332872,0.0,0.0
441,110,45.2224,46.8731,131.962,110.221,113.924,0.000317693,0.0584168,21.0076,4.48402,-0.294172,0.0,0.0
448,111.75,45.8199,46.6406,130.623,110.241,114.815,0.000365879,0.0583537,21.007,4.46401,-0.361947,0.0,0.0
455,113.5,45.449,47.218,129.234,110.237,114.27,0.000444482,0.0583811,21.0068,4.46401,-0.319823,0.0,0.0
462,115.25,45.4931,47.6223,130.123,110.252,114.261,0.000560587,0.0584837,21.0066,4.48402,-0.317994,0.0,0.0
469,117,45.2578,47.3817,129.072,110.254,114.391,0.000644256,0.0584538,21.0065,4.44399,-0.327929,0.0,0.0
476,118.75,45.6772,47.3094,127.647,110.255,114.406,0.000614789,0.0583532,21.007,4.454,-0.329014,0.0,0.0
483,120.5,45.3819,47.6715,126.252,110.272,114.865,0.000483208,0.0582822,21.0072,4.454,-0.363249,0.0,0.0
490,122.25,45.1409,47.1074,133.134,110.284,115.572,0.000375508,0.0582493,21.0072,4.43398,-0.416891,0.0,0.0
497,124,45.6052,47.4096,131.132,110.284,114.186,0.000437246,0.0582263,21.0073,4.42397,-0.309473,0.0,0.0
504,125.75,45.6799,47.6032,128.124,110.277,114.333,0.000630707,0.0582346,21.0073,4.43398,-0.321546,0.0,0.0
511,127.5,46.2338,47.8954,129.253,110.285,114.813,0.000701285,0.0584141,21.0077,4.43398,-0.358201,0.0,0.0
518,129.25,45.9152,47.9137,128.145,110.319,113.633,0.000648543,0.0584646,21.0094,4.43398,-0.263439,0.0,0.0
525,131,45.7341,47.3295,127.701,110.307,114.676,0.000634577,0.0583752,21.0102,4.47402,-0.345769,0.0,0.0
532,132.75,45.7867,47.8506,130.921,110.314,114.789,0.00065037,0.0582181,21.0106,4.46401,-0.354012,0.0,0.0
539,134.5,46.0724,47.5859,126.838,110.299,115.386,0.00058928,0.0581429,21.0108,4.46401,-0.401403,0.0,0.0
546,136.25,45.9118,48.0882,128.334,110.31,115.134,0.000404519,0.058163,21.0109,4.47402,-0.381027,0.0,0.0
553,138,45.8991,47.8028,128.694,110.331,114.852,0.000278189,0.0582976,21.0097,4.44399,-0.357562,0.0,0.0
560,139.75,45.9374,47.6941,127.768,110.32,115.171,0.000216365,0.0583687,21.0092,4.43398,-0.383107,0.0,0.0
567,141.5,45.6038,47.5626,127.632,110.319,113.85,0.00018497,0.0584163,21.0089,4.39394,-0.280519,0.0,0.0
574,143.25,46.2491,47.915,131.083,110.327,114.66,0.000183452,0.058368,21.0088,4.42397,-0.342945,0.0,0.0
581,145,45.9654,48.0676,130.3,110.333,114.802,0.000246825,0.0582701,21.0087,4.41396,-0.353517,0.0,0.0
588,146.75,46.1296,47.6518,128.283,110.332,114.503,0.000345532,0.0582934,21.0076,4.40395,-0.330353,0.0,0.0
595,148.5,46.0399,48.1077,129.341,110.32,114.793,0.00040463,0.0583781,21.0069,4.43398,-0.353818,0.0,0.0
602,150.25,45.5891,47.6189,128.419,110.332,114.079,0.000408749,0.0582683,21.0066,4.43398,-0.297276,0.0,0.0
609,152,45.6731,47.8881,129.365,110.339,114.301,0.000344925,0.0583773,21.0065,4.42397,-0.314028,0.0,0.0
616,153.75,45.9441,47.6504,131.227,110.345,114.313,0.000254856,0.058543,21.0064,4.42397,-0.314527,0.0,0.0
623,155.5,45.8793,47.6613,126.761,110.344,115.094,0.00019422,0.0586333,21.0063,4.44399,-0.375195,0.0,0.0
630,157.25,45.949,47.82,129.557,110.334,113.863,0.00019142,0.0585503,21.0066,4.42397,-0.28024,0.0,0.0
637,159,45.9109,47.7297,127.649,110.332,114.36,0.000263625,0.0584335,21.0077,4.41396,-0.319251,0.0,0.0
644,160.75,46.2188,48.0049,129.411,110.357,114.335,0.000321951,0.0583595,21.0082,4.41396,-0.315224,0.0,0.0
651,162.5,46.0145,48.262,129.118,110.344,115.169,0.000368764,0.0583618,21.0084,4.43398,-0.380961,0.0,0.0
658,164.25,45.9727,48.146,130.042,110.337,114.126,0.000435615,0.0582873,21.0092,4.40395,-0.300581,0.0,0.0
665,166,45.9497,47.9941,130.739,110.341,113.953,0.000542551,0.0581942,21.0099,4.41396,-0.286734,0.0,0.0
672,167.75,45.976,47.7651,129.7,110.334,114.794,0.0006097,0.0581995,21.0092,4.44399,-0.352796,0.0,0.0
679,169.5,46.2364,47.8609,130.758,110.345,114.428,0.000583319,0.0582846,21.0088,4.40395,-0.323449,0.0,0.0
686,171.25,45.891,47.9518,127.379,110.333,113.703,0.000466096,0.0584259,21.0083,4.42397,-0.267828,0.0,0.0
693,173,46.1112,48.0265,131.859,110.336,114.475,0.000375727,0.0583931,21.008,4.40395,-0.327844,0.0,0.0
700,174.75,46.1326,48.1693,127.582,110.335,114.668,0.000383375,0.0582085,21.0086,4.40395,-0.34288,0.0,0.0
707,176.5,45.8106,47.8094,129.114,110.334,113.7,0.000523372,0.058088,21.009,4.41396,-0.26749,0.0,0.0
714,178.25,46.2635,48.1917,126.93,110.334,114.315,0.000726929,0.058153,21.0091,4.41396,-0.315535,0.0,0.0
721,180,46.0834,47.7452,132.307,110.331,114.976,0.000870844,0.0581178,21.0092,4.42397,-0.367126,0.0,0.0
728,181.75,45.7138,47.7942,130.075,110.336,114.833,0.000868106,0.0582313,21.0097,4.38393,-0.355642,0.0,0.0
735,183.5,46.451,47.8765,125.746,110.327,114.335,0.00072751,0.0582235,21.01,4.43398,-0.317678,0.0,0.0
742,185.25,46.6109,48.2868,131.777,110.339,115.079,0.00062166,0.0582853,21.0101,4.41396,-0.374438,0.0,0.0
749,187,46.0175,48.1566,131.506,110.329,114.053,0.000633773,0.0582968,21.0101,4.40395,-0.295518,0.0,0.0
756,188.75,46.1882,48.1316,129.6,110.321,113.9,0.000688164,0.0583079,21.0101,4.43398,-0.284205,0.0,0.0
763,190.5,45.9467,48.102,131.273,110.325,113.47,0.000657664,0.058367,21.0102,4.40395,-0.25024,0.0,0.0
770,192.25,46.4944,48.3707,129.275,110.317,114.454,0.000546038,0.0583535,21.0102,4.41396,-0.32776,0.0,0.0
777,194,45.818,48.175,127.889,110.314,114.453,0.000469594,0.0583552,21.0102,4.40395,-0.327897,0.0,0.0
784,195.75,46.11,48.0757,129.827,110.311,114.01,0.000491086,0.0582704,21.01,4.40395,-0.293661,0.0,0.0
791,197.5,46.6097,47.8421,133.078,110.309,114.929,0.000608437,0.0582058,21.0093,4.40395,-0.36527,0.0,0.0
798,199.25,45.9115,48.0565,129.179,110.298,115.531,0.000690041,0.0581734,21.009,4.40395,-0.412633,0.0,0.0
805,201,46.6278,48.286,127.853,110.289,114.265,0.000679626,0.0580819,21.0088,4.38393,-0.315239,0.0,0.0
812,202.75,46.3073,48.1597,127.563,110.29,114.695,0.000561733,0.0581171,21.0087,4.41396,-0.348618,0.0,0.0
819,204.5,46.4941,48.4073,130.393,110.261,113.778,0.000371187,0.0581703,21.0087,4.43398,-0.279503,0.0,0.0
826,206.25,46.3281,48.4606,129.323,110.266,114.434,0.000268127,0.0581186,21.0087,4.39394,-0.330276,0.0,0.0
833,208,46.5858,48.1579,131.406,110.264,113.717,0.000388509,0.0581053,21.0087,4.40395,-0.274495,0.0,0.0
840,209.75,46.6112,48.6412,132.62,110.248,114.914,0.00059265,0.058052,21.0096,4.38393,-0.368997,0.0,0.0
847,211.5,46.6737,48.2474,127.491,110.224,115.067,0.000703419,0.0579121,21.0103,4.38393,-0.382731,0.0,0.0
854,213.25,46.1437,48.4649,131.306,110.205,114.87,0.00071108,0.0578184,21.0107,4.39394,-0.36908,0.0,0.0
861,215,46.1245,48.0826,130.3,110.21,114.8,0.00066708,0.0578201,21.0108,4.41396,-0.363253,0.0,0.0
868,216.75,46.5711,48.5227,130.857,110.203,114.098,0.000570946,0.0578984,21.0109,4.39394,-0.309165,0.0,0.0
875,218.5,46.5731,48.2652,129.288,110.184,114.693,0.000472599,0.0577615,21.0111,4.39394,-0.357077,0.0,0.0
882,220.25,46.2418,48.1881,130.452,110.166,113.351,0.000422372,0.0576936,21.0114,4.41396,-0.253709,0.0,0.0
889,222,46.0612,47.6872,131.442,110.144,114.895,0.000476272,0.0577407,21.0104,4.39394,-0.375943,0.0,0.0
896,223.75,46.2686,47.9507,127.006,110.161,114.528,0.0006008,0.0576884,21.0098,4.43398,-0.34608,0.0,0.0
903,225.5,46.2205,48.0864,129.993,110.123,114.795,0.000725523,0.0576247,21.0101,4.42397,-0.369847,0.0,0.0
910,227.25,46.4299,48.2661,130.474,110.104,113.979,0.000740394,0.0575693,21.0097,4.40395,-0.307924,0.0,0.0
917,229,46.4018,48.0424,127.918,110.089,114.172,0.000651093,0.0574571,21.0107,4.41396,-0.324207,0.0,0.0
924,230.75,46.5953,48.264,132.532,110.072,114.362,0.000546901,0.0574168,21.0112,4.41396,-0.34037,0.0,0.0
931,232.5,46.5596,48.4963,129.358,110.063,114.976,0.00045459,0.0573253,21.0114,4.40395,-0.388772,0.0,0.0
938,234.25,46.4764,48.4861,130.307,110.032,114.231,0.000363318,0.0573753,21.0115,4.42397,-0.333422,0.0,0.0
945,236,46.3559,48.4294,126.567,110.015,114.427,0.000281503,0.0574242,21.011,4.42397,-0.350004,0.0,0.0
952,237.75,46.0324,48.5348,129.758,110.009,114.086,0.000206153,0.0575199,21.0112,4.39394,-0.323993,0.0,0.0
959,239.5,46.8596,48.4568,128.842,109.986,114.05,0.000166679,0.057532,21.0114,4.41396,-0.32296,0.0,0.0
966,241.25,46.5208,48.2339,128.718,109.948,114.184,0.000191721,0.0575332,21.0115,4.39394,-0.336577,0.0,0.0
973,243,46.7555,48.3677,131.59,109.918,114.207,0.000282977,0.0575289,21.012,4.38393,-0.340704,0.0,0.0
980,244.75,46.4739,48.4582,127.324,109.903,114.203,0.000318917,0.0576293,21.0111,4.37393,-0.341646,0.0,0.0
987,246.5,46.5931,48.6323,129.078,109.911,114.322,0.00028468,0.0575368,21.0104,4.38393,-0.350313,0.0,0.0
994,248.25,46.696,48.4637,129.298,109.891,113.83,0.00027997,0.0574816,21.0101,4.38393,-0.313499,0.0,0.0
1001,250,46.4609,48.0613,127.199,109.866,114.763,0.000327019,0.0574608,21.0099,4.39394,-0.388264,0.0,0.0
1008,251.75,46.2575,48.3223,130.022,109.852,112.96,0.000433853,0.0574647,21.0098,4.38393,-0.248371,0.0,0.0
1015,253.5,46.1411,48.2681,130.69,109.84,113.793,0.00046758,0.0575188,21.0098,4.38393,-0.314742,0.0,0.0
1022,255.25,46.5106,48.4015,128.228,109.817,113.411,0.00033447,0.0576731,21.0102,4.38393,-0.286689,0.0,0.0
1029,257,46.5372,48.4459,128.512,109.802,114.86,0.000243053,0.0577304,21.0104,4.38393,-0.400912,0.0,0.0
1036,258.75,46.7259,48.5694,132.158,109.776,114.181,0.000316179,0.0577721,21.0112,4.39394,-0.350236,0.0,0.0
1043,260.5,46.5972,48.2525,128.725,109.753,113.767,0.000470152,0.0577718,21.0121,4.38393,-0.319772,0.0,0.0
1050,262.25,46.6293,48.6729,128.97,109.742,114.289,0.000588663,0.0577024,21.0125,4.40395,-0.361454,0.0,0.0
1057,264,46.7821,48.5157,132.743,109.711,114.357,0.000584135,0.0577096,21.0126,4.35391,-0.369225,0.0,0.0
1064,265.75,46.3243,48.3961,131.606,109.693,114.298,0.00046472,0.0575836,21.0125,4.39394,-0.366077,0.0,0.0
1071,267.5,46.5941,48.6451,131.708,109.671,113.409,0.000310069,0.0575807,21.0121,4.37393,-0.298363,0.0,0.0
1078,269.25,47.0631,48.2451,126.899,109.645,113.833,0.000288895,0.0576125,21.0117,4.36392,-0.33371,0.0,0.0
1085,271,46.761,48.7718,129.456,109.631,113.77,0.000366961,0.0576343,21.0124,4.37393,-0.329875,0.0,0.0
1092,272.75,47.1432,48.6319,127.382,109.592,114.237,0.000442343,0.057617,21.013,4.39394,-0.369539,0.0,0.0
1099,274.5,46.4992,48.6837,126.276,109.585,113.844,0.000485149,0.0576117,21.0133,4.39394,-0.339427,0.0,0.0
1106,276.25,46.8494,49.069,128.475,109.542,113.345,0.000539108,0.0577015,21.0135,4.37393,-0.303849,0.0,0.0
1113,278,46.5427,48.4146,134.908,109.516,114.161,0.000609734,0.0576837,21.0135,4.38393,-0.369809,0.0,0.0
1120,279.75,46.77,48.5525,126.677,109.47,113.409,0.000613726,0.0577104,21.0136,4.36392,-0.314655,0.0,0.0
1127,281.5,46.4142,48.3899,127.259,109.443,113.845,0.000590655,0.0579325,21.0136,4.37393,-0.351078,0.0,0.0
1134,283.25,46.7071,48.1991,127.629,109.404,114.733,0.000595385,0.0579632,21.0136,4.37393,-0.423391,0.0,0.0
1141,285,46.653,48.6388,129.285,109.391,113.811,0.000636969,0.0578589,21.0134,4.38393,-0.352606,0.0,0.0
1148,286.75,46.6582,48.8588,129.935,109.357,113.84,0.000634117,0.0578198,21.0131,4.36392,-0.357685,0.0,0.0
1155,288.5,46.1978,48.5056,130.519,109.34,113.394,0.000564741,0.057817,21.0133,4.39394,-0.324069,0.0,0.0
1162,290.25,46.4391,48.5228,126.297,109.292,113.984,0.00052534,0.0577976,21.0135,4.38393,-0.374191,0.0,0.0
1169,292,46.7573,48.9666,129.671,109.257,113.728,0.000554941,0.0577615,21.0135,4.38393,-0.357099,0.0,0.0
1176,293.75,46.6508,48.8915,127.526,109.212,113.337,0.000528847,0.0577317,21.0136,4.39394,-0.330023,0.0,0.0
1183,295.5,46.7988,48.7279,128.292,109.182,112.475,0.000469095,0.0576418,21.0137,4.37393,-0.264517,0.0,0.0
1190,297.25,46.993,48.9176,126.77,109.137,113.689,0.000486915,0.0576643,21.0141,4.37393,-0.363818,0.0,0.0
1197,299,46.6262,48.6266,128.943,109.091,113.436,0.000574202,0.0577507,21.0143,4.36392,-0.347623,0.0,0.0
1204,300.75,45.9667,48.3889,127.525,109.075,112.954,0.000688398,0.0576932,21.0144,4.39394,-0.311014,0.0,0.0
1211,302.5,46.8782,48.8563,132.889,109.047,113.171,0.000784695,0.0577041,21.0144,4.38393,-0.330462,0.0,0.0
1218,304.25,46.0038,48.4186,129.365,109.02,113.372,0.000847545,0.057685,21.0144,4.36392,-0.34845,0.0,0.0
1225,306,46.7631,48.2493,129.268,109.041,112.711,0.000836877,0.0576791,21.0145,4.37393,-0.294725,0.0,0.0
1232,307.75,46.8034,48.632,129.806,109.091,113.028,0.000689181,0.0576377,21.0145,4.36392,-0.315593,0.0,0.0
1239,309.5,46.1389,48.5567,129.227,109.185,112.881,0.000499258,0.0576776,21.0145,4.37393,-0.296377,0.0,0.0
1246,311.25,46.3286,48.6914,130.056,109.196,113.024,0.00036992,0.0577063,21.0139,4.39394,-0.306727,0.0,0.0
1253,313,46.7928,49.0614,130.694,109.175,113.443,0.000276479,0.0577395,21.012,4.36392,-0.341448,0.0,0.0
1260,314.75,46.4706,48.3944,132.48,109.168,113.463,0.000131809,0.0576998,21.0109,4.36392,-0.343535,0.0,0.0
1267,316.5,47.189,49.1028,128.394,109.154,113.207,-3.57539e-05,0.0576061,21.0109,4.37393,-0.32452,0.0,0.0
1274,318.25,46.4928,48.719,126.95,109.111,112.969,-0.000182648,0.0576744,21.0116,4.37393,-0.309343,0.0,0.0
1281,320,46.4843,48.8361,129.408,109.079,113.073,-0.000243589,0.057642,21.012,4.38393,-0.320139,0.0,0.0
1288,321.75,46.6856,48.8699,129.681,109.058,113.695,-0.00016758,0.0576025,21.0121,4.37393,-0.37068,0.0,0.0
1295,323.5,46.7569,48.4566,127.83,109.033,113.166,-1.12433e-05,0.0575836,21.0122,4.37393,-0.331261,0.0,0.0
1302,325.25,46.571,48.2676,132.677,109.004,113.31,0.00019857,0.0575138,21.0123,4.37393,-0.344895,0.0,0.0
1309,327,46.6661,48.9262,132.722,108.967,113.155,0.000379785,0.057523,21.0123,4.37393,-0.335728,0.0,0.0
1316,328.75,46.5772,48.508,130.835,108.94,112.8,0.000419903,0.0574826,21.012,4.37393,-0.30995,0.0,0.0
1323,330.5,46.4858,48.7192,127.539,108.912,113.685,0.000413478,0.0573121,21.011,4.39394,-0.38186,0.0,0.0
1330,332.25,46.5707,48.6971,128.331,108.885,113.277,0.00038678,0.0574093,21.0104,4.37393,-0.351946,0.0,0.0
1337,334,46.4257,48.8786,131.832,108.859,112.099,0.000355624,0.0574883,21.0103,4.38393,-0.261029,0.0,0.0
1344,335.75,46.5439,48.7476,130.006,108.832,113.303,0.000370067,0.0574873,21.0105,4.38393,-0.358402,0.0,0.0
1351,337.5,46.2545,48.3695,127.597,108.819,112.842,0.000427355,0.0575466,21.0105,4.36392,-0.323171,0.0,0.0
1358,339.25,46.5705,48.6585,130.661,108.805,112.804,0.000512849,0.0574889,21.0108,4.38393,-0.321325,0.0,0.0
1365,341,46.8709,49.0831,129.164,108.786,112.512,0.000576103,0.0574354,21.0119,4.40395,-0.299738,0.0,0.0
1372,342.75,46.5858,48.8963,131.32,108.759,114.04,0.000591296,0.0574055,21.0125,4.37393,-0.422128,0.0,0.0
1379,344.5,46.6549,48.5295,128.589,108.744,113.377,0.000547622,0.0574314,21.0127,4.37393,-0.371397,0.0,0.0
1386,346.25,46.8816,48.9279,128.812,108.735,112.943,0.000451301,0.0574064,21.0124,4.35391,-0.337968,0.0,0.0
1393,348,46.3265,48.6669,131.144,108.707,113.885,0.000424676,0.0574654,21.0115,4.37393,-0.414271,0.0,0.0
1400,349.75,46.931,48.8128,130.537,108.675,112.7,0.000459178,0.0574787,21.011,4.36392,-0.323742,0.0,0.0
1407,351.5,46.9347,48.7067,128.906,108.663,112.878,0.000451422,0.0573403,21.0108,4.36392,-0.338712,0.0,0.0
1414,353.25,46.9877,49.0472,129.72,108.641,111.637,0.000390875,0.0573069,21.0107,4.39394,-0.242104,0.0,0.0
1421,355,46.4769,48.7876,128.518,108.627,112.656,0.000268129,0.0572532,21.0107,4.35391,-0.324244,0.0,0.0
1428,356.75,46.431,48.5028,130.6,108.622,112.201,0.000198536,0.057303,21.0108,4.35391,-0.28859,0.0,0.0
1435,358.5,47.0303,48.5696,131.965,108.603,111.567,0.000172451,0.057289,21.011,4.36392,-0.239696,0.0,0.0
1442,360.25,46.8023,48.7136,130.648,108.571,112.536,0.000173697,0.0573002,21.0108,4.38393,-0.319345,0.0,0.0
1449,362,46.9836,48.886,126.572,108.569,112.033,0.000190246,0.057296,21.0106,4.39394,-0.279594,0.0,0.0
1456,363.75,46.9721,48.6522,127.039,108.57,112.713,0.000257666,0.0572973,21.0105,4.40395,-0.333316,0.0,0.0
1463,365.5,46.9139,48.7809,128.217,108.536,112.472,0.000314524,0.0573516,21.0105,4.38393,-0.31712,0.0,0.0
1470,367.25,46.6386,48.5277,127.714,108.525,113.273,0.000327621,0.0573465,21.0104,4.38393,-0.381122,0.0,0.0
1477,369,47.112,48.7208,129.22,108.532,113.408,0.000319584,0.057338,21.0106,4.36392,-0.391243,0.0,0.0
1484,370.75,47.0953,49.1354,127.511,108.529,113.198,0.000309175,0.0572683,21.0109,4.39394,-0.374896,0.0,0.0
1491,372.5,47.0094,48.9682,130.951,108.556,112.612,0.000318898,0.0573064,21.0111,4.39394,-0.326548,0.0,0.0
1498,374.25,46.5235,49.3009,128.208,108.508,112.497,0.000310353,0.0573783,21.0112,4.37393,-0.321388,0.0,0.0
1505,376,46.7913,48.8658,133.478,108.503,113.214,0.000236726,0.0575203,21.0112,4.37393,-0.37831,0.0,0.0
1512,377.75,47.1362,49.2844,127.64,108.511,112.973,0.000162683,0.0575757,21.0113,4.37393,-0.35869,0.0,0.0
1519,379.5,46.5565,48.5336,128.972,108.491,113.063,0.000193865,0.0574831,21.0121,4.37393,-0.367396,0.0,0.0
1526,381.25,46.7523,48.9249,126.922,108.487,113.149,0.000360553,0.0574508,21.0116,4.38393,-0.374523,0.0,0.0
1533,383,47.3071,48.8091,128.766,108.505,113.064,0.000475232,0.0574281,21.0107,4.38393,-0.366393,0.0,0.0
1540,384.75,47.0988,48.6734,132.142,108.494,113.15,0.000505101,0.0573866,21.0103,4.40395,-0.374095,0.0,0.0
1547,386.5,46.925,49.1831,132.544,108.506,112.455,0.000536559,0.057421,21.0101,4.38393,-0.31821,0.0,0.0
1554,388.25,46.148,48.7791,129.752,108.499,113.584,0.000521364,0.0572964,21.01,4.37393,-0.407744,0.0,0.0
1561,390,47.0266,48.6371,130.865,108.499,112.951,0.000452241,0.0573645,21.01,4.39394,-0.357951,0.0,0.0
1568,391.75,47.1053,48.6075,129.553,108.521,113.512,0.000345632,0.057477,21.01,4.39394,-0.400249,0.0,0.0
1575,393.5,46.8362,48.6793,125.064,108.518,113.21,0.000224972,0.0575614,21.01,4.35391,-0.37677,0.0,0.0
1582,395.25,46.7539,48.8182,129.748,108.529,112.169,0.000150824,0.0575127,21.01,4.3439,-0.29367,0.0,0.0
1589,397,46.9108,48.825,127.649,108.527,111.578,0.00011863,0.0575013,21.01,4.38393,-0.246814,0.0,0.0
1596,398.75,46.9492,48.6602,127.044,108.533,113.88,0.000132648,0.0574639,21.01,4.39394,-0.428042,0.0,0.0
1603,400.5,47.0686,48.9961,127.61,108.55,112.925,0.000153541,0.0576231,21.01,4.37393,-0.351808,0.0,0.0
1610,402.25,46.9699,48.7416,130.923,108.568,112.126,0.000144427,0.0576656,21.0092,4.36392,-0.28704,0.0,0.0
1617,404,47.0421,49.02,127.331,108.564,113.189,0.000201956,0.0576732,21.0103,4.35391,-0.371416,0.0,0.0
1624,405.75,46.9957,48.84,126.527,108.589,113.152,0.000302544,0.0576808,21.0108,4.37393,-0.366443,0.0,0.0
1631,407.5,46.7406,49.0835,128.146,108.597,112.631,0.000347325,0.0577724,21.0111,4.37393,-0.324635,0.0,0.0
1638,409.25,47.5718,49.0809,130.484,108.614,113.002,0.000298816,0.0576601,21.0112,4.36392,-0.352529,0.0,0.0
1645,411,46.9179,49.4264,129.371,108.619,112.76,0.000212006,0.0576408,21.0105,4.38393,-0.333049,0.0,0.0
1652,412.75,47.0078,48.6583,131.174,108.633,112.244,0.000140752,0.0576761,21.0103,4.37393,-0.291095,0.0,0.0
1659,414.5,47.1112,49.1439,129.366,108.627,112.691,7.95036e-05,0.0576936,21.0104,4.35391,-0.326939,0.0,0.0
1666,416.25,47.3252,49.0064,125.682,108.651,113.114,4.39291e-05,0.0577131,21.0109,4.35391,-0.358394,0.0,0.0
1673,418,46.7171,48.4866,130.977,108.651,113.252,1.92029e-05,0.0576816,21.0111,4.37393,-0.369159,0.0,0.0
1680,419.75,46.8796,48.533,133.287,108.656,112.949,5.69763e-05,0.057722,21.0112,4.39394,-0.344895,0.0,0.0
1687,421.5,46.8492,49.1948,134.756,108.668,112.463,0.000179281,0.0578059,21.0112,4.37393,-0.305578,0.0,0.0
1694,423.25,46.908,48.8088,134.064,108.673,113.012,0.000262197,0.0578504,21.0113,4.36392,-0.348543,0.0,0.0
1701,425,47.1873,49.0375,131.362,108.696,112.863,0.000278798,0.0578875,21.0111,4.36392,-0.334946,0.0,0.0
1708,426.75,46.7256,49.2092,130.016,108.708,113.14,0.000324052,0.05782,21.0103,4.37393,-0.355725,0.0,0.0
1715,428.5,47.017,48.9934,128.633,108.71,112.606,0.000380084,0.0579415,21.01,4.35391,-0.313478,0.0,0.0
1722,430.25,46.8603,48.9987,131.145,108.718,113.038,0.000373531,0.0579831,21.0098,4.36392,-0.346809,0.0,0.0
1729,432,46.5531,48.8899,130.812,108.743,114.123,0.000268584,0.0579827,21.0097,4.38393,-0.429862,0.0,0.0
1736,433.75,47.1862,49.2291,128.061,108.738,112.408,0.00014365,0.0578775,21.0096,4.36392,-0.295536,0.0,0.0
1743,435.5,46.7667,48.6526,132.891,108.77,113.612,0.000137141,0.057798,21.0099,4.37393,-0.387739,0.0,0.0
1750,437.25,46.1169,48.8595,129.926,108.783,113.916,0.000297035,0.057771,21.0109,4.38393,-0.410461,0.0,0.0
1757,439,47.0272,49.3622,129.517,108.802,112.462,0.000470883,0.0577601,21.0115,4.35391,-0.294532,0.0,0.0
1764,440.75,46.9455,48.7441,129.146,108.819,113.639,0.000552807,0.0577491,21.0108,4.36392,-0.385792,0.0,0.0
1771,442.5,47.1252,48.6496,128.772,108.826,112.206,0.00050222,0.0577658,21.0102,4.36392,-0.272278,0.0,0.0
1778,444.25,46.9164,48.6142,128.408,108.85,114.14,0.000359876,0.0576572,21.0099,4.35391,-0.422409,0.0,0.0
1785,446,47.0489,48.7924,130.069,108.875,113.803,0.000282908,0.0576658,21.0097,4.36392,-0.394124,0.0,0.0
1792,447.75,46.9998,49.1095,131.262,108.915,112.831,0.000347087,0.0576517,21.0097,4.35391,-0.314455,0.0,0.0
1799,449.5,47.1517,48.8258,131.224,108.935,112.687,0.000517914,0.0577629,21.0092,4.37393,-0.301491,0.0,0.0
1806,451.25,46.946,48.961,131.143,108.948,112.882,0.000652794,0.0579055,21.0089,4.37393,-0.315769,0.0,0.0
1813,453,46.8336,49.2252,132.175,108.982,113.042,0.000702369,0.057962,21.0086,4.38393,-0.325609,0.0,0.0
1820,454.75,47.1673,48.9124,127.044,109.014,112.693,0.000667121,0.0578259,21.0081,4.37393,-0.295477,0.0,0.0
1827,456.5,47.1448,49.0262,129.586,109.052,113.573,0.000630956,0.0577056,21.0079,4.36392,-0.361627,0.0,0.0
1834,458.25,46.8912,48.7743,129.772,109.068,112.665,0.000600915,0.0577941,21.0078,4.38393,-0.288831,0.0,0.0
1841,460,46.7466,48.7736,131.784,109.096,112.62,0.000560258,0.0577337,21.0078,4.3439,-0.283013,0.0,0.0
1848,461.75,47.2242,49.1248,130.484,109.121,112.612,0.000532737,0.0578396,21.0078,4.35391,-0.28034,0.0,0.0
1855,463.5,46.8817,49.0047,132.798,109.159,113.059,0.000545904,0.0578447,21.0077,4.38393,-0.312468,0.0,0.0
1862,465.25,47.0558,49.1864,128.57,109.17,113.767,0.000547458,0.0579144,21.0077,4.3439,-0.367228,0.0,0.0
1869,467,47.1198,49.0499,128.363,109.183,112.914,0.000514794,0.0580137,21.0077,4.3439,-0.299091,0.0,0.0
1876,468.75,47.2881,49.3159,132.931,109.201,113.387,0.000521206,0.0580292,21.0068,4.38393,-0.334799,0.0,0.0
1883,470.5,47.0296,49.1647,126.264,109.228,113.577,0.000573208,0.0580126,21.0065,4.35391,-0.347596,0.0,0.0
1890,472.25,46.9943,48.8358,130.397,109.254,112.968,0.000622344,0.0580416,21.0078,4.37393,-0.297589,0.0,0.0
1897,474,46.8678,48.8233,130.851,109.261,113.44,0.000642667,0.0580666,21.009,4.36392,-0.334173,0.0,0.0
1904,475.75,47.1873,49.1843,127.988,109.306,114.318,0.000559922,0.0580602,21.0098,4.37393,-0.399076,0.0,0.0
1911,477.5,47.1789,48.9136,129.536,109.306,113.311,0.000395664,0.0579022,21.0101,4.36392,-0.320316,0.0,0.0
1918,479.25,47.4007,49.0107,127.392,109.326,113.796,0.000273676,0.0577527,21.0103,4.36392,-0.356682,0.0,0.0
1925,481,46.9701,48.9273,125.855,109.355,113.498,0.000198128,0.0576959,21.0104,4.37393,-0.331064,0.0,0.0
1932,482.75,47.2369,49.1065,127.485,109.347,113.93,0.000192444,0.0576949,21.0104,4.35391,-0.365537,0.0,0.0
1939,484.5,46.5157,48.9228,128.357,109.365,114.52,0.000346441,0.0577806,21.0104,4.38393,-0.410053,0.0,0.0
1946,486.25,47.0186,49.2736,130.919,109.387,112.781,0.000483667,0.0579309,21.01,4.37393,-0.272062,0.0,0.0
1953,488,47.0168,48.8035,126.774,109.402,114.59,0.00048791,0.057951,21.009,4.36392,-0.412454,0.0,0.0
1960,489.75,46.764,49.0237,130.514,109.409,113.746,0.000503042,0.0579498,21.0086,4.35391,-0.346038,0.0,0.0
1967,491.5,46.8339,49.1514,132.372,109.422,113.354,0.00059662,0.0578512,21.0083,4.39394,-0.314256,0.0,0.0
1974,493.25,47.0039,48.8988,128.611,109.436,114.074,0.000672686,0.0579279,21.0082,4.36392,-0.369438,0.0,0.0
1981,495,46.9219,48.9028,128.869,109.456,113.31,0.000664214,0.0579302,21.0073,4.39394,-0.308046,0.0,0.0
1988,496.75,46.9529,49.1354,131.78,109.474,113.537,0.000555259,0.0578539,21.0064,4.39394,-0.324403,0.0,0.0
1995,498.5,46.9252,48.8526,130.271,109.483,113.237,0.000392822,0.0578922,21.006,4.37393,-0.300152,0.0,0.0
2002,500.25,46.7976,48.9921,129.343,109.498,114.055,0.000250932,0.0578812,21.0058,4.3439,-0.36292,0.0,0.0
2009,502,46.8827,49.0653,130.12,109.522,113.068,0.000193917,0.0578184,21.0057,4.40395,-0.283676,0.0,0.0
2016,503.75,46.968,48.9204,127.199,109.535,113.396,0.000222432,0.0579179,21.0067,4.39394,-0.308381,0.0,0.0
2023,505.5,47.1825,49.3247,130.819,109.537,114.012,0.000243304,0.0578746,21.0074,4.36392,-0.35645,0.0,0.0
2030,507.25,47.2261,48.8109,130.672,109.558,113.119,0.000234945,0.0577756,21.0077,4.3439,-0.284741,0.0,0.0
2037,509,47.2136,49.3469,128.422,109.574,115.615,0.000245797,0.0577292,21.0078,4.35391,-0.477695,0.0,0.0
2044,510.75,46.9034,49.1647,133.756,109.593,113.294,0.000264579,0.0577199,21.0079,4.36392,-0.295661,0.0,0.0
2051,512.5,46.8837,49.0158,130.745,109.611,113.827,0.000246422,0.0576905,21.0079,4.39394,-0.335966,0.0,0.0
2058,514.25,46.9475,49.0915,132.638,109.624,113.313,0.000245612,0.0577028,21.0079,4.38393,-0.294594,0.0,0.0
2065,516,47.1209,49.201,129.239,109.632,112.785,0.000270911,0.0578268,21.0068,4.38393,-0.252419,0.0,0.0
2072,517.75,47.0057,49.1912,126.409,109.661,113.184,0.000300965,0.0578882,21.0066,4.37393,-0.281457,0.0,0.0
2079,519.5,46.9229,49.2031,129.686,109.654,114.084,0.000322415,0.0579415,21.008,4.36392,-0.352591,0.0,0.0
2086,521.25,46.9508,48.9171,131.113,109.671,112.925,0.000353589,0.0579706,21.0086,4.38393,-0.260258,0.0,0.0
2093,523,47.2892,49.4476,130.821,109.688,113.864,0.000369358,0.0580095,21.009,4.36392,-0.332672,0.0,0.0
2100,524.75,47.0728,49.0401,128.807,109.708,114.825,0.000390386,0.0580031,21.0091,4.35391,-0.405806,0.0,0.0
2107,526.5,47.0339,49.0134,128.43,109.713,114.382,0.000472199,0.0580892,21.0093,4.36392,-0.370967,0.0,0.0
2114,528.25,46.8947,48.655,129.453,109.712,113.448,0.000530599,0.0582713,21.0097,4.36392,-0.298099,0.0,0.0
2121,530,47.0281,49.0119,129.302,109.73,114.853,0.000528565,0.0583285,21.0099,4.36392,-0.406238,0.0,0.0
2128,531.75,47.2555,49.3206,131.536,109.738,113.421,0.000490092,0.0584099,21.01,4.36392,-0.293859,0.0,0.0
2135,533.5,47.4335,49.2851,130.335,109.755,113.543,0.000508136,0.0583938,21.009,4.37393,-0.302035,0.0,0.0
2142,535.25,47.052,49.2359,129.234,109.766,113.999,0.000549721,0.0583041,21.0083,4.37393,-0.336804,0.0,0.0
2149,537,47.0466,49.0259,130.144,109.772,114.673,0.000563786,0.0582765,21.0085,4.36392,-0.388861,0.0,0.0
2156,538.75,46.9973,49.183,127.84,109.777,114.251,0.000563605,0.0581196,21.0093,4.37393,-0.355597,0.0,0.0
2163,540.5,46.957,49.1974,131.05,109.787,113.782,0.000541157,0.0581577,21.0097,4.36392,-0.318179,0.0,0.0
2170,542.25,47.092,49.0326,129.881,109.81,114.631,0.000444786,0.0580925,21.0091,4.36392,-0.382493,0.0,0.0
2177,544,46.9371,49.3716,130.018,109.812,112.882,0.00032787,0.058107,21.0088,4.36392,-0.245467,0.0,0.0
2184,545.75,47.0657,48.8729,129.923,109.817,113.69,0.000195804,0.0581655,21.0087,4.35391,-0.30856,0.0,0.0
2191,547.5,46.9287,48.8191,129.964,109.834,114.402,0.000110202,0.0581065,21.0086,4.36392,-0.36279,0.0,0.0
2198,549.25,47.0693,49.0413,130.121,109.832,114.694,0.000112524,0.0580823,21.0086,4.35391,-0.385576,0.0,0.0
2205,551,46.7539,48.7764,129.349,109.84,113.824,0.000189027,0.0581193,21.0086,4.3439,-0.317214,0.0,0.0
2212,552.75,47.011,49.1447,127.46,109.845,114.191,0.000264448,0.0582389,21.0086,4.38393,-0.345397,0.0,0.0
2219,554.5,47.0351,48.7329,131.455,109.864,114.456,0.000235509,0.058177,21.0086,4.36392,-0.36451,0.0,0.0
2226,556.25,47.0203,49.148,127.246,109.869,113.133,0.00016004,0.058145,21.0086,4.37393,-0.260621,0.0,0.0
2233,558,47.1967,49.136,131.293,109.858,113.908,7.50611e-05,0.0581467,21.0086,4.37393,-0.322238,0.0,0.0
2240,559.75,47.0792,49.312,131.099,109.855,113.364,3.14548e-05,0.0580985,21.0086,4.39394,-0.279931,0.0,0.0
2247,561.5,46.8488,49.199,127.751,109.855,113.878,8.62959e-05,0.0581629,21.0086,4.40395,-0.32017,0.0,0.0
2254,563.25,47.3672,49.4767,128.339,109.867,113.736,0.000223019,0.0580971,21.0086,4.37393,-0.308122,0.0,0.0
2261,565,47.0053,49.1356,130.841,109.855,115.367,0.000362673,0.0581092,21.0086,4.38393,-0.435772,0.0,0.0
2268,566.75,47.0035,48.9413,131.013,109.858,113.702,0.000456614,0.0582259,21.0086,4.39394,-0.306204,0.0,0.0
2275,568.5,46.954,48.9289,127.574,109.859,114.114,0.000470545,0.0582496,21.0086,4.454,-0.338246,0.0,0.0
2282,570.25,47.2022,49.5858,130.705,109.858,114.093,0.000468241,0.0582457,21.0089,4.46401,-0.336734,0.0,0.0
2289,572,46.7845,48.7683,131.714,109.859,113.53,0.000529803,0.0586333,21.0092,4.40395,-0.292632,0.0,0.0
2296,573.75,46.6658,48.9328,130.098,109.851,114.066,0.000577849,0.0590764,21.0093,4.42397,-0.335226,0.0,0.0
2303,575.5,46.3479,48.8317,129.823,109.855,114.15,0.000513882,0.0596847,21.0082,4.42397,-0.341415,0.0,0.0
2310,577.25,47.1531,48.9487,131.058,109.834,113.997,0.000421014,0.0602296,21.0081,4.40395,-0.33115,0.0,0.0
2317,579,46.9873,48.9798,127.966,109.839,114.01,0.000381204,0.060559,21.0088,4.37393,-0.33176,0.0,0.0
2324,580.75,46.5579,48.9925,129.873,109.842,114.787,0.000372388,0.060574,21.0087,4.36392,-0.391956,0.0,0.0
2331,582.5,46.7796,49.1135,127.157,109.837,115.069,0.000357268,0.0604219,21.0087,4.40395,-0.4143,0.0,0.0
2338,584.25,46.7464,48.9485,131.467,109.827,114.269,0.000339896,0.0602693,21.0086,4.41396,-0.352905,0.0,0.0
2345,586,47.0083,49.3806,131.367,109.831,113.829,0.000360343,0.0601084,21.0086,4.37393,-0.318275,0.0,0.0
2352,587.75,47.1775,49.2176,129.83,109.825,114.749,0.000455269,0.0601312,21.0091,4.38393,-0.390474,0.0,0.0
2359,589.5,46.8115,48.9246,132.043,109.811,113.909,0.000584208,0.060089,21.0095,4.37393,-0.326212,0.0,0.0
2366,591.25,47.0732,48.777,128.14,109.824,113.774,0.000678487,0.0599464,21.0097,4.37393,-0.314598,0.0,0.0
2373,593,47.1681,49.4405,125.315,109.826,113.822,0.000739657,0.0597828,21.0096,4.38393,-0.318127,0.0,0.0
2380,594.75,47.3264,48.8016,130.139,109.837,114.289,0.00078229,0.0597853,21.0085,4.37393,-0.3537,0.0,0.0
2387,596.5,47.2085,49.155,131.88,109.825,114.443,0.000848796,0.0598114,21.008,4.36392,-0.366728,0.0,0.0
2394,598.25,47.1735,49.3186,132.783,109.821,112.998,0.000817998,0.0597258,21.0078,4.36392,-0.253864,0.0,0.0
2401,600,47.1606,48.6878,131.142,109.837,114.68,0.000680113,0.0596341,21.0077,4.37393,-0.384147,0.0,0.0
2408,601.75,47.0882,49.4291,130.49,109.819,114.383,0.000424658,0.0593807,21.0076,4.38393,-0.362431,0.0,0.0
2415,603.5,45.744,47.9289,134.919,109.829,113.394,0.000294697,0.059229,21.0076,4.38393,-0.284293,0.0,0.0
2422,605.25,45.8306,47.2983,128.666,109.809,114.136,0.000373695,0.0592801,21.0076,4.38393,-0.344051,0.0,0.0
2429,607,45.4897,46.9057,129.957,109.814,113.271,0.000515104,0.059433,21.0076,4.40395,-0.275885,0.0,0.0
2436,608.75,45.3367,47.7758,130.121,109.825,114.828,0.00059096,0.0594536,21.0076,4.39394,-0.396566,0.0,0.0
2443,610.5,45.7712,47.8333,130.094,109.84,114.49,0.000570337,0.0594152,21.0065,4.41396,-0.369124,0.0,0.0
2450,612.25,45.4119,47.5604,130.774,109.811,115.254,0.000449998,0.0595862,21.0066,4.41396,-0.430649,0.0,0.0
2457,614,45.2092,46.9443,129.363,109.82,115.604,0.000367336,0.0594364,21.0071,4.41396,-0.456975,0.0,0.0
2464,615.75,45.8957,47.4154,133.41,109.816,114.455,0.000339146,0.0592637,21.0074,4.41396,-0.368365,0.0,0.0
2471,617.5,45.7669,47.2216,132.022,109.826,113.5,0.00029168,0.059105,21.0075,4.41396,-0.292985,0.0,0.0
2478,619.25,45.2611,47.7402,125.652,109.822,113.354,0.000162338,0.0589465,21.0075,4.41396,-0.281834,0.0,0.0
2485,621,45.4658,47.3773,131.247,109.809,114.808,1.88183e-05,0.0588117,21.0076,4.39394,-0.396283,0.0,0.0
2492,622.75,45.5872,47.3827,129.518,109.808,113.95,-7.81161e-05,0.0587378,21.0073,4.42397,-0.32959,0.0,0.0
2499,624.5,45.5303,47.5972,132.042,109.82,113.576,-2.27428e-05,0.0585421,21.007,4.3439,-0.299337,0.0,0.0
2506,626.25,45.4015,47.0818,132.929,109.822,113.624,6.92254e-05,0.0584174,21.0068,4.37393,-0.302986,0.0,0.0
2513,628,45.1293,47.5229,128.764,109.811,113.668,8.73273e-05,0.0584435,21.0068,4.40395,-0.307323,0.0,0.0
2520,629.75,45.6205,47.1063,127.869,109.813,113.18,8.24231e-05,0.0583843,21.0067,4.36392,-0.268851,0.0,0.0
2527,631.5,45.7503,47.3531,130.4,109.82,113.927,0.000132316,0.0584233,21.0067,4.41396,-0.32685,0.0,0.0
2534,633.25,45.5397,47.4733,129.013,109.843,114.416,0.000252435,0.0584587,21.0067,4.37393,-0.363112,0.0,0.0
2541,635,45.2038,47.6578,132.07,109.824,113.994,0.000394961,0.0584465,21.0065,4.37393,-0.331737,0.0,0.0
2548,636.75,45.3117,47.3964,130.518,109.815,113.819,0.00050428,0.0584664,21.0064,4.37393,-0.318789,0.0,0.0
2555,638.5,45.4801,47.3496,131.445,109.819,114.228,0.000608273,0.0584815,21.0063,4.37393,-0.350355,0.0,0.0
2562,640.25,45.3125,47.237,129.787,109.826,114.093,0.000635913,0.0584581,21.0063,4.39394,-0.339271,0.0,0.0
2569,642,45.3204,47.3328,128.117,109.839,114.482,0.000641058,0.0585802,21.0063,4.41396,-0.368619,0.0,0.0
2576,643.75,44.7767,46.7614,125.863,109.823,114.268,0.00065941,0.058677,21.0063,4.40395,-0.353225,0.0,0.0
2583,645.5,45.2372,47.1055,130.473,109.84,114.034,0.000649509,0.0586441,21.0063,4.38393,-0.333575,0.0,0.0
2590,647.25,45.592,47.6337,130.455,109.854,113.533,0.000563962,0.0584935,21.0069,4.37393,-0.293258,0.0,0.0
2597,649,44.8139,47.0208,130.96,109.829,113.403,0.00046829,0.0585267,21.007,4.35391,-0.285068,0.0,0.0
2604,650.75,45.4489,47.2625,133.122,109.829,113.867,0.000450817,0.0586327,21.0066,4.38393,-0.321392,0.0,0.0
2611,652.5,45.4789,47.6078,126.394,109.836,115.404,0.000541869,0.0586306,21.0064,4.37393,-0.440237,0.0,0.0
2618,654.25,45.7473,47.8301,127.217,109.832,114.239,0.000635436,0.0585098,21.0063,4.37393,-0.35024,0.0,0.0
2625,656,45.4293,47.209,127.474,109.837,113.874,0.000652865,0.0584678,21.0063,4.40395,-0.321254,0.0,0.0
2632,657.75,45.1011,47.7819,127.408,109.837,114.994,0.00050842,0.0584516,21.0065,4.37393,-0.408491,0.0,0.0
2639,659.5,45.3415,47.3848,129.24,109.827,113.812,0.000263416,0.0584242,21.0067,4.37393,-0.317284,0.0,0.0
2646,661.25,45.6999,47.6911,128.627,109.826,115.189,6.69857e-05,0.0584147,21.0068,4.40395,-0.424472,0.0,0.0
2653,663,45.1598,47.5237,129.568,109.853,114.605,1.18783e-05,0.0585518,21.0069,4.38393,-0.376997,0.0,0.0
2660,664.75,45.7089,47.4452,130.539,109.841,114.513,0.000105579,0.0585399,21.0073,4.40395,-0.370786,0.0,0.0
2667,666.5,44.999,47.0798,127.596,109.832,112.804,0.000197893,0.0585311,21.0083,4.39394,-0.237743,0.0,0.0
2674,668.25,45.4377,47.1566,127.556,109.831,114.409,0.000192474,0.0585484,21.0088,4.40395,-0.363577,0.0,0.0
2681,670,45.1608,47.2976,127.508,109.834,114.79,0.000174346,0.0586334,21.009,4.41396,-0.392868,0.0,0.0
2688,671.75,45.4551,47.0404,128.527,109.831,115.024,0.000236328,0.0584895,21.0091,4.37393,-0.411249,0.0,0.0
2695,673.5,45.3388,47.5094,130.465,109.827,113.112,0.000291186,0.0583187,21.0092,4.36392,-0.262307,0.0,0.0
2702,675.25,45.8035,47.4641,126.441,109.827,114.045,0.000279795,0.0582485,21.0092,4.38393,-0.335535,0.0,0.0
2709,677,45.2617,47.7929,129.023,109.826,114.239,0.000287456,0.0582951,21.0092,4.38393,-0.350739,0.0,0.0
2716,678.75,44.8302,47.2343,130.954,109.841,113.392,0.000305783,0.0581935,21.0092,4.41396,-0.283213,0.0,0.0
2723,680.5,45.3143,47.3932,130.336,109.828,113.111,0.000321764,0.0582155,21.009,4.40395,-0.262158,0.0,0.0
2730,682.25,44.9586,47.0734,130.481,109.816,114.136,0.000351671,0.0582174,21.0088,4.40395,-0.343518,0.0,0.0
2737,684,44.9837,47.0659,128.317,109.806,113.767,0.000328483,0.0581067,21.0087,4.40395,-0.315447,0.0,0.0
2744,685.75,45.3274,47.079,129.853,109.806,112.891,0.000278178,0.0580518,21.0086,4.38393,-0.246632,0.0,0.0
2751,687.5,45.0794,46.7363,131.096,109.811,113.76,0.000239939,0.0580006,21.0086,4.38393,-0.314514,0.0,0.0
2758,689.25,45.2498,47.378,130.35,109.79,113.512,0.000219069,0.0580905,21.0086,4.39394,-0.296769,0.0,0.0
2765,691,45.5062,47.2976,130.3,109.789,114.194,0.000191635,0.05818,21.0086,4.40395,-0.350203,0.0,0.0
2772,692.75,45.492,47.4805,129.403,109.777,113.668,0.000184459,0.0581787,21.008,4.37393,-0.309999,0.0,0.0
2779,694.5,45.5502,47.6718,129.051,109.788,114.11,0.000281402,0.0582213,21.0071,4.35391,-0.343689,0.0,0.0
2786,696.25,45.0528,47.4315,126.64,109.79,114.386,0.000425156,0.058258,21.0067,4.38393,-0.365055,0.0,0.0
2793,698,45.0289,46.9453,129.849,109.763,113.161,0.000539748,0.0582416,21.0064,4.36392,-0.271449,0.0,0.0
2800,699.75,45.1085,47.2842,130.73,109.757,113.08,0.000586736,0.0582298,21.0064,4.37393,-0.265541,0.0,0.0
2807,701.5,45.7637,46.95,129.221,109.748,112.563,0.000583627,0.0582684,21.0063,4.40395,-0.225419,0.0,0.0
2814,703.25,44.8783,47.3969,128.399,109.761,113.897,0.000567008,0.0584063,21.0066,4.39394,-0.329288,0.0,0.0
2821,705,45.3289,46.8565,129.176,109.751,114.294,0.000506183,0.0587397,21.0071,4.37393,-0.361089,0.0,0.0
2828,706.75,45.6568,46.9781,129.904,109.733,113.878,0.000414216,0.0590119,21.0074,4.39394,-0.329996,0.0,0.0
2835,708.5,45.7811,47.5173,132.445,109.723,115,0.000368722,0.0591412,21.0075,4.37393,-0.418132,0.0,0.0
2842,710.25,45.4324,47.4936,128.811,109.723,113.978,0.000351017,0.0591522,21.0087,4.41396,-0.33869,0.0,0.0
2849,712,45.7389,47.2024,132.418,109.711,113.45,,0.0591278,,4.39394,-0.298325,0.0,0.0
2856,713.75,45.0725,47.0966,130.48,109.699,113.243,,,,4.39394,-0.283116,0.0,0.0
2863,715.5,45.2754,47.5088,128.558,109.696,114.076,,,,4.37393,-0.348505,0.0,0.0
2870,717.25,45.6564,47.2327,132.806,109.711,113.458,,,,4.36392,-0.29891,0.0,0.0
2877,719,45.6573,47.247,133.139,109.734,114.406,,,,4.38393,-0.371209,0.0,0.0
2884,720.75,45.3331,47.522,126.114,109.688,114.294,,,,4.41396,-0.366165,0.0,0.0
2887,721.5,45.2957,46.9095,130.558,109.703,113.35,,,,4.37393,-0.291139,0.0,0.0