File: 01_Data/R13_Fiberglass_Insulation/Cone/R13_Fiberglass_Insulation_Cone_HF25Scan_220429_R3.csv
Names,Time,Stack TC,Smoke TC,Exh Press,Smoke Comp,Smoke Meas,CO Meter,CO2 Meter,O2 Meter,Sample Mass,Ext Coeff,Start Test,Flame Verif
Chan Gain,,500,500,1,1,1,1,1,1,1,1,1.0,1.0
Offset,,0,0,0.134537,0,0,0,0,0,0,0,0.0,0.0
Gain,,1,1,25.011,14.8585,16.6522,1,1,1,1.00087,1.0138,1.0,1.0
Units,sec,C,C,Pa,%,%,%,%,%,g,/m,,
Baseline,,21.1813,21.7817,140.204,111.915,112.968,0.000424568,0.0527724,21.0111,-834.069,-0.0832631,,
7,1.5,19.5485,19.9752,138.445,112.318,113.146,0.00013332,0.0717843,20.9938,-329.245,-0.0653772,0.0,0.0
14,3.25,19.5449,19.6299,142.133,112.327,113.097,0.000284241,0.0691918,20.9961,-329.255,-0.0607451,0.0,0.0
21,5,19.1705,20.0135,138.397,112.334,113.082,0.000429928,0.0661497,21,-329.265,-0.0590155,0.0,0.0
28,6.75,19.7216,19.872,138.91,112.321,113.55,0.000524936,0.0634799,21.0031,-329.275,-0.0967876,0.0,0.0
35,8.5,19.9733,19.8443,135.154,112.339,114.008,0.000484964,0.0608685,21.0065,-329.315,-0.131135,0.0,0.0
42,10.25,19.5025,20.1918,137.849,112.339,113.237,0.000357691,0.0583933,21.0094,-329.325,-0.070834,0.0,0.0
49,12,19.6501,20.5093,144.664,112.34,113.86,0.000243558,0.0563452,21.012,-329.335,-0.119561,0.0,0.0
56,13.75,19.9758,20.3295,139.845,112.345,113.393,0.000171676,0.054858,21.0132,-329.355,-0.0825787,0.0,0.0
63,15.5,19.9068,20.4821,138.403,112.344,113.546,0.000216093,0.0537547,21.0138,-329.365,-0.0946385,0.0,0.0
70,17.25,20.0512,20.2334,140.326,112.367,113.295,0.000347557,0.0531773,21.0153,-329.375,-0.0731606,0.0,0.0
77,19,19.8613,20.1528,140.79,112.34,113.391,0.000481961,0.0528416,21.0164,-329.375,-0.0828099,0.0,0.0
84,20.75,19.7876,20.5011,140.11,112.349,113.886,0.000527283,0.0526222,21.0169,-329.395,-0.120831,0.0,0.0
91,22.5,19.6541,20.3145,138.447,112.345,113.644,0.000424263,0.0523469,21.0171,-329.395,-0.102241,0.0,0.0
98,24.25,20.2692,20.7852,138.811,112.36,113.798,0.000204079,0.0522519,21.0173,-329.395,-0.113098,0.0,0.0
105,26,19.8478,20.3761,140.806,112.35,113.749,2.63608e-05,0.0522216,21.0173,-329.416,-0.109999,0.0,0.0
112,27.75,20.3075,20.3561,138.743,112.346,113.851,1.8551e-06,0.0521151,21.018,-329.426,-0.11838,0.0,0.0
119,29.5,20.379,20.6628,140.4,112.357,113.622,8.64469e-05,0.0519674,21.0189,-329.436,-0.099522,0.0,0.0
126,31.25,20.1539,20.8186,140.725,112.363,113.937,0.000172179,0.0519587,21.0193,-329.436,-0.123647,0.0,0.0
133,33,20.3603,20.2085,138.864,112.365,114.016,0.000233487,0.051923,21.0183,-329.426,-0.129728,0.0,0.0
140,34.75,20.3221,21.0126,139.552,112.361,113.945,0.000254632,0.0518615,21.0186,-329.446,-0.1245,0.0,0.0
147,36.5,20.3877,20.8536,138.979,112.361,113.67,0.000248263,0.0517738,21.0192,-329.446,-0.103013,0.0,0.0
154,38.25,19.9498,20.8135,140.252,112.361,113.585,0.000239069,0.0516641,21.0194,-329.446,-0.0963354,0.0,0.0
161,40,20.2962,21.0519,138.542,112.371,113.461,0.000268681,0.0516823,21.0191,-329.456,-0.0858317,0.0,0.0
168,41.75,20.4363,20.6746,140.616,112.368,113.697,0.00035199,0.0515761,21.0182,-329.456,-0.104582,0.0,0.0
175,43.5,20.5424,20.7988,141.828,112.371,113.607,0.000478017,0.0515601,21.0178,-329.476,-0.0972956,0.0,0.0
182,45.25,20.5418,20.8012,136.863,112.358,113.657,0.000577389,0.0515113,21.0175,-329.486,-0.10223,0.0,0.0
189,47,20.6672,20.913,143.056,112.367,113.844,0.000625595,0.0514163,21.017,-329.476,-0.116098,0.0,0.0
196,48.75,20.6231,20.972,139.84,112.375,113.658,0.00059446,0.0513604,21.0167,-329.486,-0.100986,0.0,0.0
203,50.5,20.9542,20.7205,140.085,112.365,113.978,0.000471976,0.0513254,21.0166,-329.486,-0.126755,0.0,0.0
210,52.25,20.5586,20.9394,143.593,112.366,113.241,0.000353196,0.0513679,21.0165,-329.496,-0.0690031,0.0,0.0
217,54,20.6225,21.2112,137.751,112.377,113.852,0.000285729,0.0512898,21.0165,-329.506,-0.115943,0.0,0.0
224,55.75,20.7312,21.206,138.016,112.379,113.498,0.00024299,0.0511824,21.0166,-329.506,-0.0880894,0.0,0.0
231,57.5,20.5892,21.0474,143.594,112.378,113.555,0.00020391,0.0512514,21.017,-329.516,-0.0926994,0.0,0.0
238,59.25,20.4906,21.4009,138.03,112.372,113.758,0.00015004,0.0512182,21.0167,-329.506,-0.109028,0.0,0.0
245,61,20.497,21.2222,139.877,112.371,113.702,9.29262e-05,0.0512209,21.0158,-329.506,-0.104732,0.0,0.0
252,62.75,20.7324,21.5955,136,112.378,113.063,7.1489e-05,0.0512412,21.0164,-329.516,-0.0540113,0.0,0.0
259,64.5,20.7157,21.2269,144.746,112.378,113.507,9.14339e-05,0.0512624,21.0169,-329.526,-0.0888812,0.0,0.0
266,66.25,20.4847,21.3479,136.487,112.375,113.898,0.000136191,0.0512813,21.017,-329.506,-0.119698,0.0,0.0
273,68,20.804,21.115,140.461,112.373,113.733,0.000154141,0.0512014,21.016,-329.516,-0.107012,0.0,0.0
280,69.75,20.6933,21.3137,140.463,112.378,113.344,0.000118353,0.0511467,21.015,-329.526,-0.0761278,0.0,0.0
287,71.5,20.7464,21.4291,140.258,112.365,113.495,9.30568e-05,0.0511115,21.0146,-329.526,-0.0889267,0.0,0.0
294,73.25,21.1157,21.1233,138.404,112.369,113.534,0.000111983,0.051129,21.0144,-329.536,-0.0916694,0.0,0.0
301,75,20.4931,21.4503,142.021,112.383,114.343,0.000155248,0.0511785,21.0143,-329.536,-0.153703,0.0,0.0
308,76.75,20.7226,21.2596,138.078,112.376,113.448,0.000137419,0.0512183,21.0145,-329.536,-0.0844413,0.0,0.0
315,78.5,20.893,21.5634,136.264,112.377,113.325,2.89171e-05,0.0512823,21.016,-329.526,-0.0746844,0.0,0.0
322,80.25,20.8768,21.5002,136.885,112.376,113.814,-9.36876e-05,0.051261,21.0167,-329.536,-0.113113,0.0,0.0
329,82,20.7399,21.1237,138.645,112.369,113.828,-8.64832e-05,0.0512045,21.0171,-329.536,-0.114723,0.0,0.0
336,83.75,20.7646,21.7868,137.021,112.366,114.035,2.79089e-05,0.0512152,21.0172,-329.536,-0.131083,0.0,0.0
343,85.5,20.6103,21.7252,139.53,112.382,114.203,0.000113147,0.0511907,21.0165,-329.536,-0.142971,0.0,0.0
350,87.25,21.3522,21.2127,140.129,112.365,113.731,0.000154175,0.0512841,21.0157,-329.546,-0.107423,0.0,0.0
357,89,20.8497,21.2411,138.664,112.377,113.746,0.000224965,0.0513535,21.0154,-329.546,-0.107679,0.0,0.0
364,90.75,20.6313,21.7325,143.11,112.377,113.506,0.000381018,0.051352,21.0152,-329.566,-0.0889455,0.0,0.0
371,92.5,21.2111,21.5781,140.874,112.371,113.743,0.0005067,0.0513039,21.0151,-329.556,-0.107911,0.0,0.0
378,94.25,21.0433,21.1556,138.283,112.375,113.976,0.000488382,0.0513147,21.0151,-329.566,-0.125803,0.0,0.0
385,96,21.0888,21.8834,136.656,112.367,113.838,0.000418414,0.0513554,21.0151,-329.556,-0.115621,0.0,0.0
392,97.75,21.1674,21.5344,139.061,112.368,114.358,0.000344519,0.0514245,21.015,-329.556,-0.156148,0.0,0.0
399,99.5,21.3231,21.5839,138.281,112.36,113.531,0.000239622,0.0514584,21.0145,-329.556,-0.0921488,0.0,0.0
406,101.25,20.9285,21.6898,137.723,112.367,113.393,0.000116296,0.0513892,21.0143,-329.566,-0.0808161,0.0,0.0
413,103,21.32,22.0523,140.349,112.362,113.731,7.72252e-06,0.0514342,21.0143,-329.566,-0.107675,0.0,0.0
420,104.75,21.2604,21.6061,140.65,112.365,113.215,-0.000105443,0.0515553,21.0131,-329.566,-0.0670348,0.0,0.0
427,106.5,20.895,21.579,140.821,112.356,113.755,-0.000137359,0.0515703,21.0125,-329.566,-0.110049,0.0,0.0
434,108.25,20.9299,21.8155,139.532,112.359,113.755,-0.00014312,0.0514373,21.0133,-329.566,-0.109798,0.0,0.0
441,110,21.2163,21.8638,139.845,112.358,113.899,-0.000147717,0.051385,21.0141,-329.566,-0.121177,0.0,0.0
448,111.75,20.8776,21.9391,139.484,112.357,113.697,-0.000115495,0.0513367,21.0142,-329.566,-0.105447,0.0,0.0
455,113.5,20.9257,22.3691,141.267,112.354,113.483,-9.64663e-05,0.0512922,21.0143,-329.566,-0.0889482,0.0,0.0
462,115.25,21.0977,21.956,133.219,112.347,113.561,-0.000113917,0.0513943,21.0143,-329.566,-0.095537,0.0,0.0
469,117,20.9816,21.8975,142.791,112.348,113.616,-0.000140023,0.0514931,21.0144,-329.566,-0.099767,0.0,0.0
476,118.75,21.0377,21.8475,142.102,112.366,113.536,-0.000174429,0.0514037,21.0144,-329.576,-0.0921552,0.0,0.0
483,120.5,21.0272,22.0325,140.092,112.353,113.688,-0.000161383,0.0512728,21.0144,-329.576,-0.105018,0.0,0.0
490,122.25,21.484,21.86,139.473,112.319,113.474,-8.56389e-05,0.0511437,21.0144,-329.586,-0.0909599,0.0,0.0
497,124,20.7698,22.3164,136.739,112.336,113.531,-1.85791e-06,0.0510745,21.0144,-329.596,-0.0940514,0.0,0.0
504,125.75,20.8777,22.0772,139.419,112.318,113.786,0.00010439,0.0511527,21.0144,-329.576,-0.115447,0.0,0.0
511,127.5,21.0408,21.7748,139.903,112.315,113.363,0.000155011,0.0512659,21.0144,-329.576,-0.0825568,0.0,0.0
518,129.25,21.0562,21.7993,139.403,112.312,113.314,0.000175491,0.0513062,21.0144,-329.576,-0.0790152,0.0,0.0
525,131,21.4604,22.0865,141.198,112.301,113.991,0.000178398,0.0512772,21.0136,-329.586,-0.132768,0.0,0.0
532,132.75,21.3586,21.7438,143.849,112.304,113.383,0.000111859,0.0512397,21.0128,-329.586,-0.0850123,0.0,0.0
539,134.5,21.791,21.6894,139.402,112.294,113.585,2.84123e-05,0.0511921,21.0127,-329.576,-0.101684,0.0,0.0
546,136.25,21.2652,22.0021,136.634,112.283,113.991,-3.19095e-05,0.0512333,21.0138,-329.576,-0.134204,0.0,0.0
553,138,21.5899,21.417,140.089,112.263,113.471,-8.78781e-05,0.0514161,21.0145,-329.576,-0.0951694,0.0,0.0
560,139.75,21.0443,21.6691,141.209,112.269,113.256,-6.51583e-05,0.0512979,21.0148,-329.586,-0.0778794,0.0,0.0
567,141.5,21.052,22.0846,142.391,112.259,113.206,5.02185e-05,0.0511973,21.0149,-329.576,-0.0746818,0.0,0.0
574,143.25,21.6072,21.9271,143.886,112.247,113.295,0.000165901,0.0512021,21.015,-329.596,-0.0826001,0.0,0.0
581,145,21.0101,22.0821,140.204,112.226,113.347,0.00024819,0.0513649,21.015,-329.606,-0.0883962,0.0,0.0
588,146.75,21.1219,22.1847,136.865,112.223,113.572,0.000338973,0.0513282,21.015,-329.596,-0.106253,0.0,0.0
595,148.5,21.1394,22.1264,138.352,112.209,113.532,0.0004214,0.0511863,21.015,-329.596,-0.104224,0.0,0.0
602,150.25,21.3353,22.0509,141.846,112.2,113.635,0.000478131,0.0510548,21.015,-329.586,-0.113058,0.0,0.0
609,152,21.0983,22.0656,139.887,112.18,113.904,0.000514361,0.0510442,21.015,-329.596,-0.135653,0.0,0.0
616,153.75,21.206,22.2112,137.491,112.175,113.368,0.000526185,0.0511129,21.015,-329.596,-0.0941312,0.0,0.0
623,155.5,21.0632,21.3317,141.399,112.159,113.647,0.000544842,0.0510892,21.015,-329.586,-0.117248,0.0,0.0
630,157.25,21.2471,21.8309,140.256,112.153,113.342,0.000506018,0.0509595,21.0131,-329.596,-0.0937444,0.0,0.0
637,159,20.9858,22.3307,139.036,112.136,113.396,0.000398859,0.050931,21.0122,-329.596,-0.0994164,0.0,0.0
644,160.75,21.044,22.3282,138.641,112.129,113.694,0.000241845,0.0508401,21.0122,-329.606,-0.123204,0.0,0.0
651,162.5,21.0205,22.038,140.516,112.123,113.477,0.000146375,0.0507851,21.013,-329.596,-0.106718,0.0,0.0
658,164.25,21.745,22.5619,140.987,112.101,113.179,0.000140574,0.0508834,21.0134,-329.606,-0.085152,0.0,0.0
665,166,21.6807,22.1961,139.545,112.094,113.481,0.000154413,0.0510005,21.0136,-329.606,-0.109414,0.0,0.0
672,167.75,20.9685,22.0861,135.879,112.082,113.411,0.000152409,0.0509572,21.0136,-329.596,-0.104777,0.0,0.0
679,169.5,21.3234,21.8314,139.686,112.075,113.271,0.000150722,0.0508601,21.0137,-329.596,-0.0943867,0.0,0.0
686,171.25,21.3344,22.1985,141.423,112.051,113.776,0.000111485,0.050862,21.0134,-329.606,-0.135901,0.0,0.0
693,173,21.7019,22.3521,140.176,112.046,113.65,8.85314e-05,0.0508237,21.0119,-329.606,-0.12644,0.0,0.0
700,174.75,21.3985,22.1671,141.377,112.034,113.75,0.000162119,0.0508563,21.0123,-329.616,-0.13513,0.0,0.0
707,176.5,21.6317,22.3714,140.619,112.025,113.27,0.000271963,0.0508957,21.0126,-329.606,-0.0983053,0.0,0.0
714,178.25,21.3876,22.5108,136.27,112.022,113.311,0.000349592,0.0507904,21.0131,-329.606,-0.101673,0.0,0.0
721,180,21.2442,21.9235,142.762,112.003,113.206,0.000387478,0.0507707,21.0152,-329.606,-0.0950366,0.0,0.0
728,181.75,21.5705,22.1329,139.662,111.988,113.106,0.000363166,0.0508291,21.0161,-329.606,-0.0883255,0.0,0.0
735,183.5,21.6146,22.2679,139.894,111.965,112.899,0.00027224,0.0509844,21.017,-329.616,-0.0739206,0.0,0.0
742,185.25,21.7005,22.6507,136.501,111.963,113.535,0.000195367,0.0510722,21.0175,-329.616,-0.123997,0.0,0.0
749,187,21.6316,21.8317,138.93,111.968,113.124,0.000226059,0.0509958,21.0177,-329.616,-0.0913406,0.0,0.0
756,188.75,21.5676,22.1967,139.219,111.954,113.453,0.000315119,0.0509269,21.0178,-329.616,-0.118274,0.0,0.0
763,190.5,21.7143,22.5372,140.57,111.944,113.161,0.000304367,0.0508536,21.0178,-329.596,-0.0961291,0.0,0.0
770,192.25,21.4244,22.4446,141.769,111.941,113.092,0.000231685,0.0509772,21.0178,-329.606,-0.0909877,0.0,0.0
777,194,21.3043,22.0245,138.364,111.932,113.428,0.000148047,0.0510884,21.0162,-329.616,-0.118123,0.0,0.0
784,195.75,21.3494,22.209,138.633,111.933,112.892,2.38293e-05,0.0512594,21.0154,-329.606,-0.0758824,0.0,0.0
791,197.5,21.4424,22.1914,139.936,111.922,113.462,-0.000106022,0.051397,21.015,-329.606,-0.12155,0.0,0.0
798,199.25,21.5793,22.0144,141.54,111.907,113.497,-0.000149286,0.0512837,21.0149,-329.606,-0.125443,0.0,0.0
805,201,21.6311,22.6192,142.083,111.901,113.248,-0.000122407,0.0511387,21.0148,-329.616,-0.106342,0.0,0.0
812,202.75,21.2405,22.6124,140.199,111.897,113.501,-8.3777e-05,0.0509178,21.0144,-329.616,-0.126554,0.0,0.0
819,204.5,21.4112,21.9676,139.314,111.891,113.137,-4.38385e-05,0.050841,21.0142,-329.626,-0.0984709,0.0,0.0
826,206.25,21.403,22.5853,137.585,111.901,113.324,1.81743e-05,0.0508685,21.0142,-329.626,-0.112327,0.0,0.0
833,208,21.9036,22.5401,136.284,111.877,113.374,6.79814e-05,0.0508621,21.0142,-329.626,-0.118179,0.0,0.0
840,209.75,21.4664,21.8576,140.171,111.886,113.129,5.12501e-05,0.0508381,21.0142,-329.616,-0.098301,0.0,0.0
847,211.5,21.6041,21.9104,141.354,111.875,113.552,-1.33871e-05,0.050821,21.0145,-329.606,-0.132381,0.0,0.0
854,213.25,21.2179,22.0579,141.774,111.868,113.529,-2.57513e-05,0.0508801,21.0156,-329.606,-0.13105,0.0,0.0
861,215,21.7063,22.0701,138.259,111.866,113.05,4.56792e-05,0.0508716,21.0161,-329.616,-0.0936566,0.0,0.0
868,216.75,21.3477,22.3406,137.214,111.87,113.27,0.000143981,0.0508661,21.0159,-329.626,-0.110625,0.0,0.0
875,218.5,21.7777,22.1324,137.791,111.878,113.072,0.000227071,0.0508627,21.0158,-329.616,-0.0943985,0.0,0.0
882,220.25,21.553,22.0866,138.723,111.875,113.238,0.000225063,0.0508416,21.0157,-329.636,-0.107711,0.0,0.0
889,222,21.4753,22.2726,142.528,111.877,113.088,0.000161686,0.0509149,21.0157,-329.626,-0.0957535,0.0,0.0
896,223.75,21.7492,22.1206,139.802,111.886,113.566,0.000100687,0.0508727,21.0157,-329.616,-0.132554,0.0,0.0
903,225.5,21.0244,22.3132,141.07,111.899,112.827,0.000101059,0.0508043,21.0157,-329.616,-0.0734546,0.0,0.0
910,227.25,21.4461,22.0207,139.59,111.902,113.403,0.000178141,0.0508465,21.0157,-329.616,-0.11847,0.0,0.0
917,229,21.7242,22.1108,141.002,111.893,113.439,0.000213013,0.0509429,21.0157,-329.626,-0.122024,0.0,0.0
924,230.75,21.411,22.0902,136.227,111.89,113.031,0.000120843,0.0508247,21.0157,-329.636,-0.0902626,0.0,0.0
931,232.5,22.0066,22.5537,140.576,111.901,113.191,-7.9669e-05,0.0507102,21.0157,-329.616,-0.101908,0.0,0.0
938,234.25,21.5698,22.299,139.813,111.902,113.155,-0.000236196,0.0506228,21.0157,-329.616,-0.0990412,0.0,0.0
945,236,21.9541,22.3299,139.403,111.888,113.12,-0.00025484,0.0506692,21.0156,-329.626,-0.0974414,0.0,0.0
952,237.75,21.8835,22.6049,138.094,111.882,113.511,-0.000170645,0.0507528,21.0152,-329.616,-0.128504,0.0,0.0
959,239.5,21.7103,22.3348,139.134,111.881,113.343,-6.82592e-05,0.0508086,21.0139,-329.626,-0.115463,0.0,0.0
966,241.25,21.7244,22.3822,140.103,111.876,113.022,-1.76024e-05,0.0508352,21.0139,-329.626,-0.0906289,0.0,0.0
973,243,21.2909,22.1157,139.66,111.879,113.173,-5.63164e-05,0.0507892,21.0138,-329.626,-0.102316,0.0,0.0
980,244.75,21.5983,22.5789,139.676,111.865,112.937,-0.000146291,0.0507079,21.0143,-329.636,-0.0848095,0.0,0.0
987,246.5,21.6286,22.3379,139.423,111.861,113.227,-0.000195526,0.0508263,21.0146,-329.656,-0.107914,0.0,0.0
994,248.25,21.6473,22.3188,138.22,111.862,112.937,-0.000191007,0.0509191,21.0147,-329.626,-0.0849855,0.0,0.0
1001,250,21.2862,22.0806,138.296,111.851,113.014,-0.000141037,0.0509884,21.0149,-329.626,-0.0920074,0.0,0.0
1008,251.75,21.4883,22.1432,141.338,111.846,113.721,-3.06624e-05,0.0509349,21.015,-329.626,-0.147891,0.0,0.0
1015,253.5,21.777,22.3847,139.914,111.829,113.37,5.62941e-05,0.0508652,21.0144,-329.626,-0.121686,0.0,0.0
1022,255.25,21.3325,22.3466,139.137,111.819,113.069,8.09466e-05,0.0508623,21.0138,-329.626,-0.0988499,0.0,0.0
1029,257,21.5519,22.8097,141.044,111.815,112.9,6.20806e-05,0.0508624,21.0134,-329.636,-0.0858943,0.0,0.0
1036,258.75,21.0934,22.0472,140.574,111.813,113.121,5.47904e-05,0.0509006,21.0135,-329.626,-0.10347,0.0,0.0
1043,260.5,21.3292,22.3903,142.761,111.785,112.727,9.6695e-05,0.0509088,21.0135,-329.646,-0.0746096,0.0,0.0
1050,262.25,21.7407,22.7379,138.807,111.779,113.062,0.000163305,0.0509462,21.0136,-329.636,-0.10146,0.0,0.0
1057,264,21.5762,22.3023,141.785,111.776,113.25,0.000175126,0.0508783,21.0136,-329.636,-0.116529,0.0,0.0
1064,265.75,21.7333,22.5548,138.323,111.769,113.069,8.24026e-05,0.0509198,21.0136,-329.626,-0.102854,0.0,0.0
1071,267.5,21.4879,22.1792,140.712,111.758,113.167,-2.78013e-05,0.0509449,21.0133,-329.626,-0.111427,0.0,0.0
1078,269.25,21.6605,22.2684,139.394,111.741,113.021,-7.76046e-05,0.0508713,21.013,-329.626,-0.101256,0.0,0.0
1085,271,21.5937,22.6834,139.038,111.752,113.093,-1.5992e-05,0.0508109,21.0129,-329.636,-0.106102,0.0,0.0
1092,272.75,21.6734,22.348,140.148,111.73,112.598,0.000169864,0.0508557,21.0126,-329.636,-0.0687915,0.0,0.0
1099,274.5,21.3762,22.0721,138.587,111.733,112.911,0.000308035,0.0507789,21.0123,-329.636,-0.0932645,0.0,0.0
1106,276.25,21.8483,22.4697,140.813,111.728,113.322,0.000299289,0.0506951,21.0122,-329.626,-0.125944,0.0,0.0
1113,278,21.6122,22.3216,140.772,111.708,112.951,0.000213378,0.0507599,21.0122,-329.626,-0.0983712,0.0,0.0
1120,279.75,21.5116,22.6014,141.183,111.749,113.251,0.000115327,0.0507678,21.0126,-329.626,-0.118702,0.0,0.0
1127,281.5,21.6895,22.4307,141.509,111.76,113.241,3.56245e-05,0.0507322,21.0128,-329.626,-0.117114,0.0,0.0
1134,283.25,21.5594,22.2688,140.505,111.803,113.079,6.71911e-06,0.0507735,21.0133,-329.646,-0.100943,0.0,0.0
1141,285,21.3455,22.2914,143.609,111.798,112.905,2.35063e-05,0.0507203,21.0143,-329.656,-0.0876248,0.0,0.0
1148,286.75,21.4872,22.3361,137.825,111.837,113.281,5.79646e-05,0.0506529,21.0148,-329.626,-0.11409,0.0,0.0
1155,288.5,21.8453,22.4819,137.289,111.852,113.15,0.000125468,0.0506681,21.0147,-329.626,-0.10261,0.0,0.0
1162,290.25,21.5952,22.1894,140.48,111.87,112.859,0.000210173,0.0506186,21.0145,-329.626,-0.0782885,0.0,0.0
1169,292,21.5425,22.1792,140.02,111.889,113.134,0.000236555,0.0506232,21.0145,-329.636,-0.0984125,0.0,0.0
1176,293.75,21.3386,22.4315,139.466,111.927,113.352,0.000213413,0.0507299,21.0144,-329.636,-0.112465,0.0,0.0
1183,295.5,21.8653,22.5078,141.023,111.958,113.363,0.000152328,0.0508602,21.0148,-329.646,-0.110933,0.0,0.0
1190,297.25,21.7616,22.2982,141.447,111.988,113.115,6.08654e-05,0.0508005,21.0142,-329.656,-0.0890445,0.0,0.0
1197,299,21.9885,22.1961,138.703,112.03,113.601,1.71716e-05,0.0507055,21.0139,-329.656,-0.123842,0.0,0.0
1204,300.75,21.7825,22.5145,137.626,112.05,113.334,2.8951e-06,0.0507482,21.0141,-329.646,-0.101352,0.0,0.0
1211,302.5,21.3742,22.4748,142.811,112.099,113.527,-4.02469e-05,0.0507468,21.0142,-329.646,-0.112602,0.0,0.0
1218,304.25,21.4051,22.6601,139.247,112.129,113.892,-8.53843e-05,0.0508176,21.0142,-329.636,-0.138804,0.0,0.0
1225,306,21.6285,22.6409,141.654,112.176,114.104,-0.000125037,0.0507791,21.0142,-329.646,-0.15156,0.0,0.0
1232,307.75,21.9269,22.8194,138.339,112.183,113.686,-0.000193404,0.0508232,21.0142,-329.656,-0.118365,0.0,0.0
1239,309.5,21.7619,22.4515,140.806,112.216,113.957,-0.000290265,0.0508443,21.0142,-329.656,-0.136904,0.0,0.0
1246,311.25,21.7656,22.0794,138.137,112.25,113.494,-0.000366094,0.0508407,21.0142,-329.666,-0.0980438,0.0,0.0
1253,313,21.6114,22.6041,141.573,112.277,113.824,-0.00030232,0.0508176,21.0142,-329.656,-0.121694,0.0,0.0
1260,314.75,21.637,22.1524,138.102,112.303,113.343,-6.12981e-05,0.0509004,21.0142,-329.646,-0.0820068,0.0,0.0
1267,316.5,21.3247,22.2298,143.511,112.335,113.723,0.000145698,0.0509695,21.0142,-329.646,-0.109197,0.0,0.0
1274,318.25,21.6097,22.8811,140.427,112.362,113.589,0.000185906,0.0510025,21.0142,-329.646,-0.0965818,0.0,0.0
1281,320,21.9559,22.3273,141.03,112.382,113.771,0.000124822,0.0508547,21.0137,-329.646,-0.10927,0.0,0.0
1288,321.75,21.7265,22.3767,141.538,112.402,113.636,2.54367e-05,0.0507386,21.0134,-329.626,-0.097084,0.0,0.0
1295,323.5,21.7666,22.5228,141.186,112.433,113.882,-2.94249e-05,0.0507293,21.0133,-329.636,-0.113836,0.0,0.0
1302,325.25,21.3557,22.6048,139.069,112.467,113.637,-0.000127847,0.0507836,21.0135,-329.646,-0.0920347,0.0,0.0
1309,327,21.5905,22.2484,141.941,112.492,113.565,-0.000212745,0.0507416,21.0145,-329.646,-0.0844536,0.0,0.0
1316,328.75,21.8078,22.3656,136.68,112.506,113.836,-0.000175857,0.050672,21.015,-329.646,-0.104491,0.0,0.0
1323,330.5,21.9221,22.1707,141.694,112.533,113.762,-6.23525e-05,0.0507456,21.015,-329.656,-0.0966547,0.0,0.0
1330,332.25,21.4095,22.3888,138.255,112.552,114.039,4.15634e-05,0.0507921,21.0145,-329.656,-0.116774,0.0,0.0
1337,334,21.5962,22.4071,141.029,112.563,114.065,8.70367e-05,0.0508069,21.0147,-329.656,-0.117863,0.0,0.0
1344,335.75,21.9156,22.6611,136.696,112.583,113.642,9.453e-05,0.0507024,21.0156,-329.656,-0.0832582,0.0,0.0
1351,337.5,21.6174,22.1252,138.162,112.597,113.874,9.04875e-05,0.0506355,21.016,-329.656,-0.100227,0.0,0.0
1358,339.25,21.4409,22.4277,138.742,112.608,113.994,3.78609e-05,0.0504787,21.0162,-329.656,-0.108729,0.0,0.0
1365,341,21.7637,22.52,139.212,112.62,114.326,-9.73021e-06,0.0506316,21.0161,-329.646,-0.133724,0.0,0.0
1372,342.75,21.6635,21.9273,142.074,112.635,113.837,-2.22457e-05,0.0506035,21.0157,-329.646,-0.0943937,0.0,0.0
1379,344.5,21.434,22.8071,139.02,112.637,114.067,8.69408e-06,0.0505707,21.0145,-329.646,-0.112144,0.0,0.0
1386,346.25,21.9255,22.6832,138.403,112.645,113.939,2.83112e-05,0.0505946,21.0139,-329.656,-0.101622,0.0,0.0
1393,348,21.5557,22.256,138.538,112.655,113.881,1.42477e-05,0.0505893,21.0136,-329.646,-0.0963118,0.0,0.0
1400,349.75,21.349,21.9009,139.909,112.691,114.043,-3.00113e-07,0.0505781,21.0141,-329.646,-0.106023,0.0,0.0
1407,351.5,21.6274,22.2701,141.406,112.669,113.903,2.11948e-05,0.0505812,21.0153,-329.656,-0.0968326,0.0,0.0
1414,353.25,21.7118,22.3939,140.219,112.675,113.989,4.36667e-05,0.0505587,21.016,-329.656,-0.103114,0.0,0.0
1421,355,21.508,22.5099,142.021,112.693,114.217,2.91994e-05,0.0506189,21.0163,-329.666,-0.119462,0.0,0.0
1428,356.75,21.6498,22.7137,138.108,112.686,114.309,6.68321e-05,0.0507119,21.0164,-329.656,-0.127193,0.0,0.0
1435,358.5,21.8429,22.5597,141.057,112.694,114.26,0.000143554,0.0508288,21.0165,-329.656,-0.12275,0.0,0.0
1442,360.25,21.4622,22.1747,142.461,112.688,113.953,0.000175322,0.0509592,21.0156,-329.666,-0.0992921,0.0,0.0
1449,362,21.8338,22.59,142.521,112.685,113.801,0.000108497,0.0510406,21.0149,-329.666,-0.0876408,0.0,0.0
1456,363.75,21.8108,22.4413,137.465,112.702,114.156,1.65134e-05,0.051136,21.0147,-329.666,-0.114033,0.0,0.0
1463,365.5,21.829,22.5868,140.019,112.702,114.341,-3.2184e-05,0.0511185,21.0152,-329.656,-0.128392,0.0,0.0
1470,367.25,21.7661,22.3512,141.349,112.701,114.406,-6.1708e-06,0.0511875,21.0155,-329.646,-0.133485,0.0,0.0
1477,369,21.6605,22.4805,136.363,112.693,114.576,1.38204e-05,0.0512538,21.0156,-329.646,-0.147353,0.0,0.0
1484,370.75,21.7674,22.3721,143.527,112.689,113.667,1.819e-05,0.0513367,21.0156,-329.646,-0.0769041,0.0,0.0
1491,372.5,22.1963,22.7205,138.998,112.696,114.049,6.38022e-05,0.0514302,21.0157,-329.636,-0.106105,0.0,0.0
1498,374.25,21.5971,22.3596,138.446,112.687,113.851,0.000128105,0.0514363,21.0157,-329.656,-0.0913535,0.0,0.0
1505,376,21.4888,22.5816,139.187,112.685,113.801,0.000101991,0.0513133,21.0157,-329.666,-0.087605,0.0,0.0
1512,377.75,21.486,22.5304,141.656,112.675,114.095,6.02861e-05,0.0512114,21.0157,-329.676,-0.111428,0.0,0.0
1519,379.5,21.6278,22.8811,136.468,112.678,113.971,0.000126721,0.0512183,21.0161,-329.656,-0.101507,0.0,0.0
1526,381.25,21.4501,22.3445,139.444,112.669,113.732,0.000272217,0.0511216,21.0171,-329.656,-0.0834915,0.0,0.0
1533,383,21.9106,22.5289,142.634,112.672,113.839,0.000398801,0.0510008,21.0175,-329.656,-0.0916566,0.0,0.0
1540,384.75,21.5525,22.321,144.28,112.64,114.068,0.000393581,0.0510153,21.0173,-329.656,-0.112044,0.0,0.0
1547,386.5,21.5954,22.2836,139.374,112.636,114.204,0.000342518,0.0509808,21.0172,-329.666,-0.122978,0.0,0.0
1554,388.25,21.2203,22.5346,141.394,112.631,114.29,0.000175347,0.0508584,21.0168,-329.656,-0.130058,0.0,0.0
1561,390,21.6069,22.2588,138.703,112.625,114.054,-3.11753e-05,0.0509544,21.0166,-329.656,-0.112121,0.0,0.0
1568,391.75,22.0219,22.4765,138.571,112.606,114.048,-0.000174515,0.0509021,21.0164,-329.666,-0.113153,0.0,0.0
1575,393.5,21.6527,22.2469,138.368,112.595,113.84,-0.000222458,0.0510861,21.0167,-329.666,-0.0977865,0.0,0.0
1582,395.25,21.4618,22.5502,137.78,112.588,114.404,-0.000215152,0.0510973,21.017,-329.656,-0.14228,0.0,0.0
1589,397,21.9092,22.1699,137.527,112.569,114.272,-0.000140393,0.0510868,21.0171,-329.666,-0.133469,0.0,0.0
1596,398.75,22.109,22.7197,136.904,112.558,113.83,1.73154e-05,0.0511341,21.0159,-329.666,-0.100006,0.0,0.0
1603,400.5,21.8173,22.3584,136.974,112.532,113.711,0.000182736,0.0510984,21.0154,-329.656,-0.0927133,0.0,0.0
1610,402.25,21.8188,22.4524,141.489,112.525,113.784,0.00024996,0.0512647,21.0152,-329.656,-0.0988965,0.0,0.0
1617,404,21.7331,22.5637,141.017,112.526,114.035,0.000284254,0.051244,21.015,-329.656,-0.118463,0.0,0.0
1624,405.75,21.842,22.3513,141.225,112.492,113.804,0.000300156,0.0513239,21.015,-329.656,-0.103101,0.0,0.0
1631,407.5,21.9455,22.5426,139.065,112.473,113.881,0.000320302,0.0512088,21.0149,-329.666,-0.110677,0.0,0.0
1638,409.25,21.8217,22.8143,138.698,112.431,113.82,0.000346855,0.0509849,21.0149,-329.676,-0.109213,0.0,0.0
1645,411,21.8918,22.6737,141.98,112.423,113.882,0.000319756,0.0508644,21.0145,-329.676,-0.114665,0.0,0.0
1652,412.75,22.0593,22.8639,138.23,112.393,113.449,0.000313981,0.0508669,21.0143,-329.666,-0.0831534,0.0,0.0
1659,414.5,22.0513,22.6923,140.084,112.35,113.32,0.000358158,0.0508657,21.0141,-329.656,-0.0764422,0.0,0.0
1666,416.25,21.8582,22.4023,141.094,112.32,113.87,0.000369758,0.0509512,21.0141,-329.656,-0.121859,0.0,0.0
1673,418,21.677,22.4819,142.462,112.299,113.561,0.000367757,0.0509813,21.014,-329.666,-0.0993424,0.0,0.0
1680,419.75,21.8544,22.2636,140.377,112.263,113.298,0.0003252,0.0509591,21.014,-329.656,-0.0816217,0.0,0.0
1687,421.5,21.3577,22.7097,139.975,112.235,113.724,0.00021577,0.0510735,21.014,-329.656,-0.117248,0.0,0.0
1694,423.25,21.3428,22.8766,141.012,112.205,113.021,0.000151062,0.0510662,21.014,-329.656,-0.0644545,0.0,0.0
1701,425,21.5653,22.5369,138.731,112.162,113.51,0.000192025,0.0510713,21.014,-329.666,-0.106253,0.0,0.0
1708,426.75,21.4914,22.5949,139.855,112.16,113.146,0.000240845,0.0510889,21.014,-329.656,-0.0778414,0.0,0.0
1715,428.5,21.7275,22.5611,141.321,112.17,113.669,0.000161453,0.0510353,21.014,-329.676,-0.11802,0.0,0.0
1722,430.25,21.9628,22.5645,140.818,112.176,113.796,4.82187e-05,0.0510083,21.014,-329.666,-0.127522,0.0,0.0
1729,432,21.6416,22.4934,141.844,112.175,113.482,6.72425e-05,0.0510083,21.014,-329.676,-0.103021,0.0,0.0
1736,433.75,21.6095,22.5704,135.308,112.197,113.402,0.000168365,0.0509585,21.0142,-329.656,-0.0949257,0.0,0.0
1743,435.5,21.6136,22.47,139.065,112.202,113.552,0.000295849,0.0508713,21.0141,-329.656,-0.10643,0.0,0.0
1750,437.25,21.9667,22.7668,141.183,112.219,113.976,0.000455908,0.0508289,21.014,-329.656,-0.138159,0.0,0.0
1757,439,21.9066,22.2431,139.4,112.231,113.575,0.000545031,0.0508066,21.0139,-329.676,-0.105881,0.0,0.0
1764,440.75,21.4236,22.6211,141.267,112.234,113.592,0.000537621,0.0508705,21.0145,-329.666,-0.106907,0.0,0.0
1771,442.5,21.5229,22.5628,139.4,112.25,113.16,0.000470516,0.0508152,21.0153,-329.656,-0.0718075,0.0,0.0
1778,444.25,21.7157,22.3509,136.951,112.258,113.764,0.00039861,0.0508761,21.0158,-329.666,-0.11848,0.0,0.0
1785,446,22.1551,22.7005,139.665,112.27,113.495,0.000334725,0.0507973,21.016,-329.666,-0.0964661,0.0,0.0
1792,447.75,22.2107,22.8562,140.749,112.281,113.681,0.000331199,0.0508128,21.0153,-329.676,-0.11017,0.0,0.0
1799,449.5,22.0688,22.4628,139.7,112.296,113.483,0.000347494,0.0509137,21.015,-329.656,-0.0935034,0.0,0.0
1806,451.25,21.6412,22.5416,139.268,112.316,113.342,0.000420198,0.0509501,21.0148,-329.666,-0.0808102,0.0,0.0
1813,453,21.9032,22.6746,137.729,112.347,113.364,0.000547654,0.0509986,21.0148,-329.676,-0.0801624,0.0,0.0
1820,454.75,21.9312,22.5647,139.374,112.347,113.454,0.00057363,0.0508852,21.0147,-329.676,-0.0871767,0.0,0.0
1827,456.5,21.6177,22.1316,135.568,112.366,113.878,0.000537321,0.050874,21.0143,-329.666,-0.118828,0.0,0.0
1834,458.25,21.8911,22.4776,137.355,112.383,113.372,0.000479439,0.0507932,21.0135,-329.656,-0.0779259,0.0,0.0
1841,460,21.5802,21.9547,137.516,112.406,113.583,0.000405798,0.0509273,21.0142,-329.666,-0.0926233,0.0,0.0
1848,461.75,21.4503,22.8523,139.11,112.43,113.574,0.000324357,0.0509378,21.0146,-329.666,-0.0900817,0.0,0.0
1855,463.5,21.7023,22.654,140.974,112.475,113.949,0.000280124,0.0509485,21.0148,-329.676,-0.115774,0.0,0.0
1862,465.25,21.7851,22.6292,141.818,112.479,114.026,0.000228436,0.0509032,21.0137,-329.666,-0.121478,0.0,0.0
1869,467,21.5948,22.9784,141.93,112.494,113.716,0.00016901,0.0509182,21.0134,-329.676,-0.096121,0.0,0.0
1876,468.75,21.689,22.3832,140.016,112.508,113.676,0.000123952,0.0507982,21.0135,-329.676,-0.0918703,0.0,0.0
1883,470.5,21.6983,22.4153,139.632,112.532,113.864,0.000131178,0.0507403,21.0135,-329.676,-0.104708,0.0,0.0
1890,472.25,21.6137,22.5534,143.145,112.576,114.185,0.000135478,0.0508411,21.0136,-329.686,-0.126241,0.0,0.0
1897,474,21.7688,22.8433,141.916,112.589,113.858,8.71039e-05,0.0507345,21.0136,-329.686,-0.0997171,0.0,0.0
1904,475.75,21.8938,22.406,143.14,112.608,113.736,5.3898e-06,0.0507367,21.0142,-329.676,-0.0886457,0.0,0.0
1911,477.5,22.027,23.239,136.671,112.636,113.735,3.08016e-05,0.0507418,21.014,-329.676,-0.0863781,0.0,0.0
1918,479.25,21.5497,22.582,137.862,112.647,114.256,7.99923e-05,0.0507485,21.0134,-329.676,-0.126083,0.0,0.0
1925,481,21.7836,22.6747,140.481,112.672,114.379,5.39648e-05,0.0505995,21.0134,-329.686,-0.133756,0.0,0.0
1932,482.75,22.1029,23.1104,139.1,112.693,114.002,-6.898e-05,0.0505018,21.0134,-329.686,-0.102709,0.0,0.0
1939,484.5,21.4999,22.5579,137.449,112.713,114.483,-0.000125214,0.0504246,21.0134,-329.696,-0.138597,0.0,0.0
1946,486.25,22.0005,22.7566,139.403,112.727,114.352,-9.09614e-05,0.0504073,21.0134,-329.676,-0.127258,0.0,0.0
1953,488,22.1136,22.1864,134.885,112.77,113.933,2.19834e-06,0.0505187,21.0134,-329.676,-0.0912314,0.0,0.0
1960,489.75,21.6698,22.7565,138.219,112.791,114.088,5.43092e-05,0.0505846,21.015,-329.676,-0.10168,0.0,0.0
1967,491.5,21.8321,22.5656,140.781,112.81,113.971,5.55877e-05,0.050576,21.0146,-329.676,-0.0910991,0.0,0.0
1974,493.25,21.8845,22.4483,138.126,112.826,114.067,1.92263e-05,0.0505376,21.0144,-329.686,-0.0972994,0.0,0.0
1981,495,21.6135,22.4289,135.141,112.869,114.302,-2.15974e-05,0.0505192,21.0143,-329.676,-0.112155,0.0,0.0
1988,496.75,22.31,22.6585,139.69,112.897,114.323,-1.20864e-05,0.0505104,21.0143,-329.676,-0.111601,0.0,0.0
1995,498.5,21.8787,22.909,140.061,112.925,114.365,-1.38849e-05,0.0504814,21.0143,-329.666,-0.112627,0.0,0.0
2002,500.25,21.8328,22.5512,140.284,112.942,114.724,-0.000146563,0.0505155,21.0138,-329.676,-0.13924,0.0,0.0
2009,502,21.6881,22.5035,141.886,112.943,114.125,-0.000270244,0.0505849,21.0144,-329.666,-0.0925269,0.0,0.0
2016,503.75,21.8862,22.6803,139.309,112.968,114.416,-0.000280776,0.0507201,21.015,-329.666,-0.113226,0.0,0.0
2023,505.5,21.8073,22.4484,143.121,112.984,114.056,-0.000278566,0.0507454,21.0154,-329.666,-0.0839271,0.0,0.0
2030,507.25,21.8476,22.8235,140.641,113.008,114.343,-0.000333479,0.0507369,21.0155,-329.666,-0.10447,0.0,0.0
2037,509,21.7645,22.6996,139.819,113.001,114.596,-0.000439987,0.0507944,21.0156,-329.676,-0.124667,0.0,0.0
2044,510.75,21.9561,22.3078,138.164,113.038,114.337,-0.000436342,0.0508296,21.0161,-329.686,-0.101642,0.0,0.0
2051,512.5,22.405,22.7474,141.796,113.025,114.72,-0.000295857,0.0507147,21.0163,-329.676,-0.132389,0.0,0.0
2058,514.25,22.0503,22.4216,138.248,113.048,114.515,-0.000118563,0.0506416,21.0165,-329.676,-0.114644,0.0,0.0
2065,516,22.2133,22.6103,139.052,113.058,114.219,5.10228e-05,0.0506315,21.0165,-329.686,-0.0908576,0.0,0.0
2072,517.75,22.0295,22.3689,136.958,113.055,114.27,0.000103412,0.0505993,21.0165,-329.676,-0.0950307,0.0,0.0
2079,519.5,21.8923,23.0559,137.984,113.071,114.694,2.8098e-05,0.050513,21.0164,-329.676,-0.126746,0.0,0.0
2086,521.25,21.9863,22.8076,139.342,113.067,114.012,-6.57726e-05,0.0505872,21.016,-329.666,-0.0739901,0.0,0.0
2093,523,21.5318,22.5035,138.922,113.071,114.333,-0.000109583,0.0507298,21.0159,-329.666,-0.0986859,0.0,0.0
2100,524.75,21.7881,22.2504,141.028,113.073,114.436,-7.12337e-05,0.0506145,21.0146,-329.686,-0.106563,0.0,0.0
2107,526.5,21.5592,22.5929,137.691,113.09,114.677,3.41603e-05,0.0505162,21.0135,-329.686,-0.123908,0.0,0.0
2114,528.25,21.824,22.353,138.009,113.093,114.582,0.000135673,0.0505804,21.0135,-329.696,-0.116357,0.0,0.0
2121,530,21.3767,22.5121,138.905,113.111,114.586,0.000119715,0.0505542,21.0136,-329.686,-0.115207,0.0,0.0
2128,531.75,21.9036,22.4855,137.995,113.099,114.561,5.09363e-06,0.0505627,21.0139,-329.666,-0.114241,0.0,0.0
2135,533.5,22.0348,22.6273,140.287,113.108,114.404,-1.19093e-05,0.0506066,21.0141,-329.656,-0.101294,0.0,0.0
2142,535.25,21.7619,22.2272,138.984,113.113,114.521,0.000113477,0.0506737,21.0142,-329.666,-0.109944,0.0,0.0
2149,537,22.1891,22.6271,141.303,113.123,114.013,0.000171014,0.0506468,21.0142,-329.666,-0.0696879,0.0,0.0
2156,538.75,21.8868,22.6506,138.913,113.115,114.266,0.00012561,0.0506807,21.0142,-329.666,-0.0900474,0.0,0.0
2163,540.5,21.737,22.8099,137.796,113.118,114.351,7.73911e-05,0.0506511,21.0142,-329.666,-0.0963611,0.0,0.0
2170,542.25,21.8801,22.8272,138.663,113.123,114.431,8.4882e-05,0.0505727,21.0139,-329.666,-0.102207,0.0,0.0
2177,544,21.6375,22.4666,137.29,113.133,114.171,4.07115e-05,0.0505966,21.0136,-329.686,-0.0812188,0.0,0.0
2184,545.75,21.6839,22.7918,135.743,113.129,114.779,-4.84118e-05,0.0506289,21.0135,-329.676,-0.12876,0.0,0.0
2191,547.5,22.0819,23.0364,137.581,113.123,114.275,-9.94953e-05,0.050577,21.0138,-329.666,-0.0901491,0.0,0.0
2198,549.25,21.7069,22.5269,141.529,113.141,114.439,-6.158e-05,0.0505737,21.0143,-329.666,-0.101449,0.0,0.0
2205,551,21.8771,22.8272,137.014,113.142,114.244,5.81037e-05,0.0505242,21.0157,-329.676,-0.0861683,0.0,0.0
2212,552.75,22.0777,22.5824,140.501,113.147,114.679,0.000123079,0.0505733,21.0164,-329.666,-0.119609,0.0,0.0
2219,554.5,21.7747,22.5523,137.85,113.142,114.52,0.000119929,0.050685,21.0161,-329.686,-0.107694,0.0,0.0
2226,556.25,21.9543,22.3044,139.965,113.143,114.433,0.000122907,0.0507168,21.0153,-329.666,-0.100796,0.0,0.0
2233,558,21.7871,22.7282,140.651,113.153,114.693,0.000187473,0.0506993,21.015,-329.666,-0.120174,0.0,0.0
2240,559.75,21.713,22.3269,143.276,113.154,114.284,0.000275248,0.0507204,21.0148,-329.686,-0.0884015,0.0,0.0
2247,561.5,21.8164,22.415,137.538,113.149,114.382,0.000308315,0.0506046,21.0148,-329.696,-0.0964227,0.0,0.0
2254,563.25,21.7269,22.2287,140.022,113.151,114.573,0.000267338,0.0506169,21.0147,-329.676,-0.111124,0.0,0.0
2261,565,21.4059,22.0608,139.432,113.156,114.369,0.000150116,0.0506056,21.0141,-329.666,-0.0948207,0.0,0.0
2268,566.75,21.843,22.6114,137.965,113.157,114.392,2.83088e-05,0.0505801,21.0137,-329.666,-0.0965668,0.0,0.0
2275,568.5,22.2256,22.4513,139.633,113.16,114.422,-1.90077e-05,0.0505126,21.0142,-329.666,-0.098613,0.0,0.0
2282,570.25,21.8803,22.5774,139.055,113.16,114.878,-0.000110234,0.0505429,21.0144,-329.686,-0.134046,0.0,0.0
2289,572,21.8876,22.6636,139.275,113.163,114.929,-0.000278244,0.0505278,21.0151,-329.686,-0.137655,0.0,0.0
2296,573.75,21.6081,22.8872,139.794,113.168,115.259,-0.000354705,0.0507196,21.0154,-329.696,-0.162822,0.0,0.0
2303,575.5,21.5037,22.6375,141.907,113.17,114.626,-0.000350605,0.0509058,21.0156,-329.696,-0.113693,0.0,0.0
2310,577.25,21.6176,22.9209,140.981,113.166,114.929,-0.000268198,0.0510763,21.0156,-329.706,-0.137516,0.0,0.0
2317,579,21.8353,22.7189,141.117,113.161,114.708,-0.000132604,0.0511895,21.0157,-329.696,-0.120747,0.0,0.0
2324,580.75,22.2225,22.5135,137.024,113.17,114.533,-2.31236e-05,0.0511146,21.0157,-329.686,-0.106511,0.0,0.0
2331,582.5,21.5047,22.443,138.548,113.172,114.589,4.59962e-05,0.0509378,21.0157,-329.686,-0.110596,0.0,0.0
2338,584.25,21.7069,22.3148,138.426,113.164,114.734,4.73333e-05,0.050917,21.0161,-329.676,-0.12255,0.0,0.0
2345,586,22.0359,22.3633,140.796,113.154,114.097,1.67226e-05,0.0511127,21.0159,-329.686,-0.0737982,0.0,0.0
2352,587.75,22.2937,22.8119,139.151,113.162,114.307,4.95301e-05,0.0516117,21.0138,-329.696,-0.0894648,0.0,0.0
2359,589.5,21.781,22.819,138.298,113.161,114.594,9.37539e-05,0.0521966,21.0129,-329.696,-0.111957,0.0,0.0
2366,591.25,21.4296,22.3665,137.372,113.176,114.434,0.000126603,0.0525788,21.0124,-329.696,-0.0983493,0.0,0.0
2373,593,22.0207,22.689,141.925,113.153,114.392,0.00013568,0.0527905,21.012,-329.686,-0.0968921,0.0,0.0
2380,594.75,21.8133,22.571,138.104,113.162,114.381,0.000126852,0.0526851,21.0116,-329.676,-0.0952354,0.0,0.0
2387,596.5,21.7037,22.5767,139.208,113.166,114.435,0.000102244,0.0522622,21.012,-329.676,-0.0992122,0.0,0.0
2394,598.25,21.7654,22.9261,142.047,113.169,114.406,6.96107e-05,0.0518351,21.0122,-329.686,-0.0966724,0.0,0.0
2401,600,21.9449,22.6298,139.916,113.177,114.658,2.24078e-06,0.0514946,21.0123,-329.676,-0.115566,0.0,0.0
2408,601.75,21.93,22.5544,137.917,113.173,114.526,1.07117e-05,0.0512688,21.0123,-329.696,-0.105672,0.0,0.0
2415,603.5,21.4093,21.7397,144.165,113.158,114.667,5.86769e-05,0.0510016,21.0123,-329.696,-0.117847,0.0,0.0
2422,605.25,21.3948,21.8889,135.499,113.172,114.099,7.62533e-05,0.050892,21.0123,-329.666,-0.0725353,0.0,0.0
2429,607,20.9085,21.5573,136.401,113.165,114.782,3.18197e-05,0.0508591,21.0123,-329.686,-0.126216,0.0,0.0
2436,608.75,21.179,22.1368,138.258,113.151,114.917,-3.00282e-05,0.0509062,21.0123,-329.686,-0.137788,0.0,0.0
2443,610.5,20.682,22.2556,139.622,113.171,114.838,-3.17918e-05,0.0508343,21.0123,-329.686,-0.130011,0.0,0.0
2450,612.25,21.0121,22.0943,136.947,113.174,114.701,3.98633e-06,0.0507941,21.0123,-329.696,-0.119202,0.0,0.0
2457,614,21.2978,22.0041,137.107,113.166,114.489,6.56712e-05,0.0507606,21.0123,-329.686,-0.103362,0.0,0.0
2464,615.75,21.147,21.7655,136.427,113.172,114.214,6.93535e-05,0.0507404,21.0126,-329.686,-0.0814815,0.0,0.0
2471,617.5,20.9768,21.9364,141.696,113.176,114.165,-2.07464e-05,0.0507078,21.0137,-329.696,-0.0773618,0.0,0.0
2478,619.25,21.0757,21.5579,137.046,113.176,114.64,-7.69783e-05,0.0506688,21.0142,-329.686,-0.11433,0.0,0.0
2485,621,21.6476,22.0477,138.778,113.166,114.549,-4.23357e-05,0.0506588,21.0145,-329.666,-0.107983,0.0,0.0
2492,622.75,21.3673,21.9084,138.468,113.158,114.31,3.34939e-05,0.0506702,21.0146,-329.676,-0.0900618,0.0,0.0
2499,624.5,21.385,22.0034,142.389,113.166,114.532,0.000117652,0.0507694,21.0146,-329.676,-0.106713,0.0,0.0
2506,626.25,21.2646,21.9739,138.526,113.178,114.778,0.00018896,0.0509077,21.0147,-329.676,-0.124832,0.0,0.0
2513,628,21.1287,22.0593,139.068,113.167,114.453,0.000164537,0.050973,21.0147,-329.686,-0.100527,0.0,0.0
2520,629.75,21.6921,22.03,140.259,113.166,114.355,5.50497e-05,0.0509236,21.014,-329.686,-0.0929345,0.0,0.0
2527,631.5,21.2242,22.1865,138.407,113.166,114.295,-8.27726e-05,0.0510166,21.014,-329.676,-0.0883095,0.0,0.0
2534,633.25,21.8433,21.8388,140.337,113.154,114.484,-0.000168743,0.0511645,21.0143,-329.696,-0.103933,0.0,0.0
2541,635,20.979,22.0052,137.296,113.178,114.365,-0.000119809,0.0512715,21.0145,-329.676,-0.0927985,0.0,0.0
2548,636.75,20.6606,21.8569,140.983,113.167,114.598,-7.13215e-06,0.0513399,21.0146,-329.686,-0.111773,0.0,0.0
2555,638.5,20.889,21.7606,137.335,113.147,114.6,0.000153767,0.0514389,21.0146,-329.686,-0.113535,0.0,0.0
2562,640.25,20.9695,22.3472,140.629,113.149,114.614,0.000304798,0.0515761,21.014,-329.686,-0.114382,0.0,0.0
2569,642,21.2618,21.8423,141.943,113.153,114.793,0.000317226,0.0516774,21.0135,-329.686,-0.128008,0.0,0.0
2576,643.75,21.3745,21.6215,139.003,113.142,114.471,0.000233476,0.051726,21.0132,-329.686,-0.10383,0.0,0.0
2583,645.5,21.2883,22.0628,138.171,113.142,114.985,7.08033e-05,0.0517295,21.0131,-329.686,-0.14369,0.0,0.0
2590,647.25,21.7153,21.6698,138.304,113.143,114.644,-0.000240045,0.0515257,21.0131,-329.686,-0.117175,0.0,0.0
2597,649,21.6239,22.5814,139.442,113.116,114.235,-0.000445937,0.0514694,21.013,-329.686,-0.0875991,0.0,0.0
2604,650.75,21.4144,22.1479,138.752,113.136,114.748,-0.000416445,0.0513115,21.013,-329.686,-0.125823,0.0,0.0
2611,652.5,21.5243,22.1987,140.622,113.125,114.216,-0.000283743,0.051179,21.013,-329.696,-0.085343,0.0,0.0
2618,654.25,21.6225,22.3226,138.851,113.106,114.404,-0.00019321,0.0510762,21.013,-329.686,-0.101433,0.0,0.0
2625,656,21.4633,21.9847,137.095,113.086,114.481,-0.000159342,0.0510351,21.013,-329.676,-0.109079,0.0,0.0
2632,657.75,21.4806,22.3095,139.692,113.095,114.56,-0.000130688,0.0510784,21.013,-329.686,-0.114407,0.0,0.0
2639,659.5,21.4858,22.2313,142.116,113.07,114.142,-2.89552e-05,0.0511236,21.013,-329.686,-0.0839222,0.0,0.0
2646,661.25,21.1057,22.1227,140.003,113.049,114.368,0.000105636,0.0511207,21.013,-329.676,-0.10316,0.0,0.0
2653,663,21.4165,22.3999,142.397,113.027,114.423,0.000174849,0.0510486,21.013,-329.686,-0.109214,0.0,0.0
2660,664.75,21.4249,21.8235,141.835,113.024,114.351,0.000125874,0.0509624,21.013,-329.676,-0.103854,0.0,0.0
2667,666.5,21.8204,22.29,138.684,113.017,114.043,-4.23648e-07,0.050875,21.013,-329.686,-0.0804074,0.0,0.0
2674,668.25,21.4982,22.6708,139.393,112.979,114.597,-0.000108972,0.050735,21.013,-329.696,-0.126495,0.0,0.0
2681,670,21.4237,22.0193,140.003,112.927,114.554,-0.000158895,0.0506136,21.013,-329.696,-0.127212,0.0,0.0
2688,671.75,21.242,21.5573,138.977,112.91,114.142,-0.000115004,0.0505556,21.013,-329.686,-0.0965561,0.0,0.0
2695,673.5,21.3086,22.3331,138.826,112.88,114.085,-1.79796e-05,0.0505206,21.0137,-329.686,-0.094398,0.0,0.0
2702,675.25,21.5388,22.301,141.533,112.848,114.503,3.04384e-05,0.0504982,21.0145,-329.696,-0.129442,0.0,0.0
2709,677,21.2093,22.3126,139.552,112.821,114.236,-1.26602e-05,0.050365,21.0147,-329.706,-0.110805,0.0,0.0
2716,678.75,21.3563,22.4125,137.746,112.786,113.981,-8.07323e-05,0.0503107,21.0146,-329.676,-0.0937118,0.0,0.0
2723,680.5,21.5336,22.1958,138.339,112.748,114.067,-0.00014795,0.050389,21.0145,-329.676,-0.103449,0.0,0.0
2730,682.25,21.3419,21.8754,142.337,112.714,114.008,-0.000210592,0.0504972,21.0145,-329.706,-0.101464,0.0,0.0
2737,684,21.4,22.232,139.236,112.691,114.225,-0.000277485,0.0505393,21.0145,-329.696,-0.120199,0.0,0.0
2744,685.75,21.1265,22.1708,139.448,112.637,113.925,-0.000342944,0.0504893,21.0155,-329.686,-0.10116,0.0,0.0
2751,687.5,21.3824,22.281,137.794,112.6,113.767,-0.000330637,0.0504324,21.0161,-329.696,-0.0916748,0.0,0.0
2758,689.25,21.5763,22.1824,142.516,112.568,113.812,-0.000305837,0.0504878,21.0164,-329.696,-0.0977522,0.0,0.0
2765,691,21.1446,22.2662,136.64,112.529,113.648,-0.000320463,0.050537,21.0165,-329.706,-0.0880027,0.0,0.0
2772,692.75,21.3251,22.189,138.597,112.504,113.808,-0.000354993,0.0505177,21.0166,-329.696,-0.102451,0.0,0.0
2779,694.5,21.109,21.9033,142.494,112.458,113.956,-0.000352611,0.0504895,21.0166,-329.676,-0.117731,0.0,0.0
2786,696.25,21.445,21.9952,138.837,112.458,113.706,-0.00029204,0.0505533,21.0166,-329.676,-0.0981585,0.0,0.0
2793,698,21.3489,22.19,139.223,112.415,113.483,-0.000179605,0.0505065,21.0168,-329.686,-0.0841042,0.0,0.0
2800,699.75,20.8936,22.1518,138.478,112.39,114.105,-5.69604e-05,0.0505619,21.0165,-329.686,-0.134723,0.0,0.0
2807,701.5,21.546,21.5823,137.662,112.346,113.811,0.000109546,0.0506062,21.0162,-329.706,-0.115167,0.0,0.0
2814,703.25,20.9005,22.0995,137.848,112.317,113.675,0.000126387,0.050613,21.0157,-329.696,-0.106897,0.0,0.0
2821,705,21.3223,22.374,136.94,112.31,113.595,2.21978e-05,0.0506199,21.0154,-329.696,-0.101147,0.0,0.0
2828,706.75,21.5631,22.1905,140.748,112.273,113.484,-4.36061e-05,0.0506854,21.0153,-329.696,-0.0954186,0.0,0.0
2835,708.5,21.1974,22.075,136.037,112.245,113.076,-3.59171e-05,0.0507111,21.0148,-329.696,-0.0656458,0.0,0.0
2842,710.25,21.3448,21.554,139.491,112.198,113.531,,0.0506399,,-329.706,-0.105046,0.0,0.0
2849,712,21.4354,21.7916,139.79,112.188,113.453,,0.0505445,,-329.696,-0.0997043,0.0,0.0
2856,713.75,21.5973,21.3957,138.713,112.18,113.132,,,,-329.706,-0.0751441,0.0,0.0
2863,715.5,21.5436,21.5861,141.976,112.13,113.873,,,,-329.686,-0.137188,0.0,0.0
2870,717.25,21.5846,22.2725,140.132,112.069,113.156,,,,-329.706,-0.0858691,0.0,0.0
2877,719,21.6094,21.7216,136.819,112.042,113.595,,,,-329.706,-0.122432,0.0,0.0
2884,720.75,21.5614,21.9054,140.487,112.002,113.317,,,,-329.696,-0.103772,0.0,0.0
2885,721,21.473,22.2216,142.125,111.994,113.533,,,,-329.696,-0.121353,0.0,0.0