File: 01_Data/R13_Fiberglass_Insulation/Cone/R13_Fiberglass_Insulation_Cone_HF50Scan_220429_R3.csv
Names,Time,Stack TC,Smoke TC,Exh Press,Smoke Comp,Smoke Meas,CO Meter,CO2 Meter,O2 Meter,Sample Mass,Ext Coeff,Start Test,Flame Verif
Chan Gain,,500,500,1,1,1,1,1,1,1,1,1.0,1.0
Offset,,0,0,0.13436,0,0,0,0,0,0,0,0.0,0.0
Gain,,1,1,25.011,14.4414,16.1819,1,1,1,1.0009,1.01483,1.0,1.0
Units,sec,C,C,Pa,%,%,%,%,%,g,/m,,
Baseline,,27.5431,28.4792,138.199,108.808,109.882,0.000978093,0.0585141,21.0085,-494.982,-0.0874248,,
7,1.5,26.5235,28.0222,138.777,108.777,109.064,0.00134697,0.0635363,21.0056,6.92622,-0.023424,0.0,0.0
14,3.25,26.8449,27.6078,137.931,108.765,109.699,0.00172001,0.0646912,21.0041,6.91621,-0.0761242,0.0,0.0
21,5,26.6287,27.5047,134.695,108.755,110.09,0.00206263,0.0661676,21.002,6.89619,-0.108672,0.0,0.0
28,6.75,26.3203,27.7917,134.485,108.769,110.21,0.00231827,0.0676183,21,6.82613,-0.117215,0.0,0.0
35,8.5,26.9487,28.2673,135.878,108.781,110.303,0.0023787,0.0684884,20.999,6.78609,-0.123698,0.0,0.0
42,10.25,26.8867,28.1239,134.695,108.788,110.482,0.00236347,0.0689138,20.9985,6.76607,-0.137541,0.0,0.0
49,12,27.3571,28.6226,135.504,108.786,110.334,0.00242791,0.068752,20.9983,6.75606,-0.125775,0.0,0.0
56,13.75,27.7434,28.352,141.472,108.812,109.644,0.00251898,0.0679235,20.9994,6.74605,-0.067816,0.0,0.0
63,15.5,27.8318,28.6467,138.72,108.803,109.942,0.00251077,0.0669133,20.9999,6.72604,-0.0926771,0.0,0.0
70,17.25,27.4748,28.3563,137.075,108.808,109.998,0.00233582,0.065806,21.0014,6.70602,-0.0968381,0.0,0.0
77,19,27.5626,28.5931,134.978,108.825,110.277,0.00207591,0.0649139,21.0022,6.67599,-0.118059,0.0,0.0
84,20.75,27.8519,28.5884,139.311,108.814,110.228,0.00183915,0.0639841,21.0037,6.686,-0.114937,0.0,0.0
91,22.5,27.7312,28.9331,134.924,108.821,110.039,0.00172775,0.0632861,21.0044,6.66598,-0.0991085,0.0,0.0
98,24.25,28.1122,28.7312,139.595,108.818,109.984,0.00172654,0.062636,21.0047,6.65597,-0.0948525,0.0,0.0
105,26,28.3889,28.9159,136.833,108.822,110.052,0.00180318,0.0623544,21.0049,6.64597,-0.100039,0.0,0.0
112,27.75,28.4135,29.586,137.633,108.831,109.911,0.00181823,0.0621207,21.0056,6.63596,-0.0879264,0.0,0.0
119,29.5,28.6232,29.6571,139.488,108.847,110.101,0.00168049,0.062008,21.007,6.63596,-0.102014,0.0,0.0
126,31.25,28.5466,28.7574,139.039,108.87,110.297,0.00164649,0.0617967,21.0077,6.63596,-0.115901,0.0,0.0
133,33,27.9048,29.6466,135.875,108.865,110.452,0.0016946,0.0615182,21.008,6.61594,-0.12884,0.0,0.0
140,34.75,28.5129,29.1302,137.956,108.871,110.04,0.00163202,0.0615107,21.0082,6.64597,-0.0950794,0.0,0.0
147,36.5,28.4111,29.5475,135.948,108.883,110.048,0.00148444,0.0614144,21.0083,6.64597,-0.0947496,0.0,0.0
154,38.25,28.5829,29.4663,134.167,108.912,110.289,0.0012881,0.061355,21.0083,6.60593,-0.111805,0.0,0.0
161,40,28.5943,29.3739,136.067,108.925,109.861,0.00117118,0.0612115,21.0081,6.60593,-0.076174,0.0,0.0
168,41.75,28.4403,29.8384,140.545,108.925,109.93,0.00110214,0.0612351,21.007,6.61594,-0.0817703,0.0,0.0
175,43.5,28.5062,29.9643,137.483,108.939,110.131,0.00104313,0.0613192,21.0065,6.62595,-0.0968789,0.0,0.0
182,45.25,28.1102,29.2512,138.039,108.962,110.781,0.00106435,0.0613297,21.0062,6.58591,-0.147423,0.0,0.0
189,47,28.6215,29.535,141.861,108.977,110.127,0.00115554,0.061585,21.0065,6.60593,-0.0934637,0.0,0.0
196,48.75,28.4105,29.4401,136.673,108.982,110.337,0.00119326,0.0618541,21.0059,6.59592,-0.109981,0.0,0.0
203,50.5,28.5504,29.9048,140.852,108.988,110.564,0.00117754,0.062085,21.0052,6.59592,-0.127785,0.0,0.0
210,52.25,28.9935,29.5999,137.132,109.025,110.498,0.00116652,0.062559,21.0049,6.59592,-0.119509,0.0,0.0
217,54,29.195,29.8073,134.673,109.031,111.176,0.00108936,0.0629354,21.0048,6.58591,-0.173386,0.0,0.0
224,55.75,29.0589,29.9705,137.863,109.052,110.339,0.000928789,0.0632305,21.0047,6.5759,-0.104382,0.0,0.0
231,57.5,28.8807,29.6887,135.47,109.06,110.799,0.00075769,0.0632702,21.0047,6.56589,-0.140826,0.0,0.0
238,59.25,29.2961,29.9881,137.068,109.077,110.266,0.000701933,0.0631075,21.0047,6.56589,-0.0965087,0.0,0.0
245,61,29.2248,30.1243,138.971,109.101,110.762,0.000762308,0.0627965,21.0049,6.55588,-0.134469,0.0,0.0
252,62.75,28.955,30.5209,139.723,109.126,110.602,0.000905758,0.0621986,21.006,6.55588,-0.119586,0.0,0.0
259,64.5,29.2373,30.0466,135.539,109.12,110.43,0.00104125,0.0617688,21.0068,6.53587,-0.106207,0.0,0.0
266,66.25,29.5428,30.2436,139.561,109.139,110.987,0.00105765,0.0613631,21.008,6.54588,-0.149457,0.0,0.0
273,68,29.3109,30.2931,136.81,109.165,110.695,0.000949844,0.060859,21.0083,6.55588,-0.123896,0.0,0.0
280,69.75,29.575,30.2397,137.274,109.191,110.3,0.000851518,0.0604545,21.0084,6.56589,-0.0899849,0.0,0.0
287,71.5,29.7428,30.6103,136.926,109.206,110.383,0.000804991,0.0601213,21.0095,6.53587,-0.0954205,0.0,0.0
294,73.25,29.4451,30.355,136.595,109.227,110.478,0.000788886,0.0597646,21.0108,6.53587,-0.101376,0.0,0.0
301,75,29.5038,30.1324,137.105,109.242,110.62,0.000822762,0.0594751,21.012,6.54588,-0.111567,0.0,0.0
308,76.75,29.6449,30.4644,140.299,109.278,110.682,0.000857142,0.0593669,21.0136,6.53587,-0.113668,0.0,0.0
315,78.5,29.2036,30.1708,135.79,109.294,110.735,0.000865501,0.0592395,21.0145,6.52586,-0.116621,0.0,0.0
322,80.25,29.9337,30.4509,138.555,109.309,110.624,0.000893104,0.0590597,21.0138,6.51585,-0.106432,0.0,0.0
329,82,29.9842,30.7027,139.551,109.32,110.51,0.000910989,0.0587776,21.0134,6.52586,-0.0963103,0.0,0.0
336,83.75,29.4557,30.5895,133.925,109.347,110.59,0.000921539,0.0584892,21.0132,6.52586,-0.100599,0.0,0.0
343,85.5,29.6044,30.472,136.194,109.367,110.648,0.000922211,0.0584394,21.0131,6.51585,-0.103674,0.0,0.0
350,87.25,29.544,30.1862,133.496,109.369,111.146,0.000860198,0.0585051,21.013,6.51585,-0.143493,0.0,0.0
357,89,29.7412,30.6013,136.383,109.372,111.205,0.000752803,0.0585292,21.013,6.52586,-0.147987,0.0,0.0
364,90.75,29.5873,30.225,134.795,109.384,111.425,0.000692754,0.0584905,21.013,6.50584,-0.164557,0.0,0.0
371,92.5,29.8516,30.8526,138.025,109.386,110.907,0.000720573,0.0583647,21.013,6.49583,-0.122966,0.0,0.0
378,94.25,30.0656,30.8488,140.72,109.408,111.566,0.000810902,0.058305,21.013,6.49583,-0.173896,0.0,0.0
385,96,29.4859,30.4378,139.429,109.398,110.707,0.000886979,0.0582618,21.0136,6.49583,-0.105819,0.0,0.0
392,97.75,29.7119,30.6216,136.375,109.414,110.822,0.00094708,0.0582429,21.0133,6.49583,-0.11385,0.0,0.0
399,99.5,29.8739,30.6723,132.696,109.427,110.615,0.00101191,0.0582022,21.0134,6.50584,-0.0960984,0.0,0.0
406,101.25,29.8968,31.1368,136.256,109.436,110.919,0.00105847,0.0582038,21.0139,6.48582,-0.119829,0.0,0.0
413,103,29.9928,30.8001,137.36,109.428,111.093,0.00103054,0.0580942,21.0142,6.49583,-0.134379,0.0,0.0
420,104.75,30.0815,30.8361,138.074,109.425,110.766,0.000964493,0.0581323,21.0144,6.50584,-0.108395,0.0,0.0
427,106.5,29.9665,31.0997,136.705,109.447,111.128,0.000952423,0.0582323,21.0144,6.50584,-0.135722,0.0,0.0
434,108.25,30.1322,30.6854,133.854,109.448,111.031,0.00100505,0.058308,21.0145,6.49583,-0.127814,0.0,0.0
441,110,30.2053,31.2632,137.647,109.446,110.676,0.00113741,0.0582757,21.0144,6.49583,-0.0994797,0.0,0.0
448,111.75,30.0115,30.9613,139.455,109.446,111.697,0.00123135,0.0581343,21.014,6.49583,-0.181249,0.0,0.0
455,113.5,30.0266,30.8578,137.761,109.459,110.465,0.00121989,0.0579842,21.0138,6.47581,-0.0814314,0.0,0.0
462,115.25,29.593,30.6228,138.328,109.469,110.642,0.00114403,0.0579549,21.0137,6.47581,-0.0949142,0.0,0.0
469,117,30.1555,31.2361,135.377,109.469,110.717,0.00112031,0.0580049,21.0137,6.48582,-0.100912,0.0,0.0
476,118.75,29.9515,31.3507,137.218,109.469,111.936,0.00114625,0.0579414,21.0137,6.48582,-0.198378,0.0,0.0
483,120.5,30.2601,31.2039,132.977,109.464,110.704,0.00112313,0.0579392,21.0136,6.49583,-0.100238,0.0,0.0
490,122.25,30.1755,31.5444,138,109.472,110.833,0.000985015,0.0578908,21.0136,6.48582,-0.109991,0.0,0.0
497,124,30.292,31.3514,139.725,109.472,111.564,0.000800648,0.0579109,21.0136,6.47581,-0.16854,0.0,0.0
504,125.75,30.2323,31.1265,135.952,109.478,110.835,0.00075161,0.0578178,21.0146,6.48582,-0.109608,0.0,0.0
511,127.5,30.6217,31.4976,134.099,109.464,111.228,0.000749642,0.0577575,21.0149,6.45579,-0.142348,0.0,0.0
518,129.25,30.5099,31.2281,137.192,109.457,110.602,0.000753547,0.0577914,21.015,6.4658,-0.0926272,0.0,0.0
525,131,30.4705,31.3766,139.27,109.48,110.865,0.000724637,0.0578132,21.0143,6.4658,-0.11192,0.0,0.0
532,132.75,30.0459,31.421,133.921,109.472,110.921,0.000701753,0.0577514,21.014,6.47581,-0.117048,0.0,0.0
539,134.5,30.5135,31.5922,132.916,109.458,111.526,0.000733306,0.0578251,21.0138,6.47581,-0.166617,0.0,0.0
546,136.25,30.5697,31.6858,135.423,109.454,110.522,0.000778038,0.0578586,21.0137,6.4658,-0.0865124,0.0,0.0
553,138,30.0798,31.1754,136.135,109.444,110.802,0.000773333,0.0578247,21.0137,6.4658,-0.10979,0.0,0.0
560,139.75,30.3903,31.4,137.194,109.446,110.955,0.000807505,0.0578817,21.0137,6.4658,-0.121858,0.0,0.0
567,141.5,30.5529,31.582,134.013,109.454,110.981,0.000798219,0.0578795,21.0136,6.4658,-0.123277,0.0,0.0
574,143.25,30.2501,31.362,139.129,109.427,111.214,0.000669135,0.0579646,21.0136,6.4658,-0.144212,0.0,0.0
581,145,30.4685,31.6643,138.152,109.429,111.113,0.000572725,0.0579993,21.0137,6.4658,-0.135926,0.0,0.0
588,146.75,30.2935,31.5902,137.696,109.42,110.695,0.000596589,0.0580215,21.014,6.45579,-0.103072,0.0,0.0
595,148.5,30.243,31.5337,137.954,109.413,111.014,0.000651623,0.058033,21.0142,6.4658,-0.129376,0.0,0.0
602,150.25,30.062,31.4941,136.489,109.398,110.766,0.000683854,0.0578868,21.0142,6.4658,-0.110654,0.0,0.0
609,152,30.4986,31.3746,136.991,109.383,110.436,0.000650621,0.0576876,21.0143,6.4658,-0.0853225,0.0,0.0
616,153.75,30.3184,30.6461,142.887,109.385,111.028,0.00054203,0.0576148,21.014,6.45579,-0.132668,0.0,0.0
623,155.5,30.2482,31.7699,136.932,109.371,111.072,0.000433876,0.0576959,21.0134,6.45579,-0.137378,0.0,0.0
630,157.25,30.5824,31.7902,136.442,109.347,110.611,0.000472588,0.0577482,21.0131,6.4658,-0.102272,0.0,0.0
637,159,30.6924,31.8354,137.907,109.32,110.555,0.000629289,0.0577638,21.013,6.45579,-0.0999299,0.0,0.0
644,160.75,30.88,31.5891,140.552,109.315,110.337,0.000756416,0.0579183,21.0129,6.44579,-0.0828425,0.0,0.0
651,162.5,30.7798,31.8927,136.777,109.303,110.166,0.000818828,0.0580808,21.0129,6.44579,-0.0700154,0.0,0.0
658,164.25,30.8079,31.559,136.06,109.288,110.774,0.000911645,0.0582906,21.0125,6.44579,-0.120227,0.0,0.0
665,166,30.7661,31.7409,138.79,109.265,110.974,0.00104968,0.058332,21.0122,6.4658,-0.138148,0.0,0.0
672,167.75,30.1358,31.7645,136.134,109.253,110.768,0.00117665,0.0582683,21.0121,6.44579,-0.122619,0.0,0.0
679,169.5,30.7598,32.0724,136.169,109.237,110.497,0.00116249,0.0581876,21.0127,6.44579,-0.102137,0.0,0.0
686,171.25,30.5003,31.7953,137.197,109.227,110.692,0.000981438,0.05809,21.013,6.45579,-0.118625,0.0,0.0
693,173,30.6433,31.7863,134.263,109.211,111.756,0.000835774,0.0580927,21.0132,6.44579,-0.205093,0.0,0.0
700,174.75,30.2866,31.5908,135.868,109.175,110.702,0.000809865,0.0580237,21.0132,6.45579,-0.123585,0.0,0.0
707,176.5,30.068,31.5421,139.809,109.16,110.883,0.000805628,0.0579111,21.0133,6.44579,-0.139481,0.0,0.0
714,178.25,30.619,31.5474,132.497,109.131,110.479,0.000799512,0.0579784,21.0133,6.44579,-0.109328,0.0,0.0
721,180,30.6545,31.4251,134.067,109.096,110.414,0.00080078,0.0579886,21.0133,6.43578,-0.106915,0.0,0.0
728,181.75,30.4753,31.7312,133.155,109.056,110.544,0.000810017,0.0578282,21.0133,6.43578,-0.120689,0.0,0.0
735,183.5,30.0167,31.2038,135.918,109.036,110.621,0.000818113,0.0578214,21.0133,6.44579,-0.128434,0.0,0.0
742,185.25,30.3853,31.8575,138.881,109.009,110.135,0.000819377,0.0578674,21.0136,6.44579,-0.0914746,0.0,0.0
749,187,30.2956,31.5472,138.616,108.98,110.704,0.000786068,0.0578345,21.0139,6.43578,-0.139714,0.0,0.0
756,188.75,30.7816,32.0491,137.252,108.961,110.635,0.000684954,0.0579237,21.014,6.43578,-0.135705,0.0,0.0
763,190.5,30.5661,31.9448,136.84,108.937,111.018,0.000542467,0.0579136,21.0141,6.44579,-0.168427,0.0,0.0
770,192.25,30.715,31.9165,139.279,108.91,110.234,0.000521713,0.0578394,21.0148,6.45579,-0.107595,0.0,0.0
777,194,30.8531,31.6626,134.882,108.877,110.071,0.000687198,0.0577843,21.0152,6.42577,-0.0970913,0.0,0.0
784,195.75,30.7353,32.0645,136.977,108.853,109.908,0.000994335,0.057843,21.015,6.42577,-0.0858443,0.0,0.0
791,197.5,30.78,31.881,137.538,108.826,110.421,0.00114188,0.0578984,21.0149,6.44579,-0.129468,0.0,0.0
798,199.25,30.6045,31.3317,135.82,108.783,110.027,0.00102265,0.0577887,21.0148,6.47581,-0.101215,0.0,0.0
805,201,30.766,31.9406,137.236,108.751,109.748,0.000794737,0.057664,21.0148,6.41576,-0.081245,0.0,0.0
812,202.75,30.1995,32.0219,135.607,108.723,110.623,0.000709304,0.0575862,21.014,6.44579,-0.154216,0.0,0.0
819,204.5,30.9491,31.8652,138.044,108.677,110.255,0.000762164,0.0575947,21.0132,6.45579,-0.128314,0.0,0.0
826,206.25,30.5949,32.3835,136.834,108.638,110.267,0.000840036,0.0576469,21.0128,6.44579,-0.132481,0.0,0.0
833,208,30.6822,31.8358,135.686,108.604,110.452,0.000935252,0.0577933,21.0126,6.4658,-0.150203,0.0,0.0
840,209.75,30.5369,32.1395,135.276,108.566,110.681,0.00100281,0.0578924,21.0125,6.44579,-0.171759,0.0,0.0
847,211.5,30.9524,32.2167,134.451,108.518,109.81,0.00095904,0.0581503,21.0125,6.45579,-0.105395,0.0,0.0
854,213.25,30.676,31.8536,134.268,108.459,109.397,0.000856634,0.0586668,21.012,6.45579,-0.0766691,0.0,0.0
861,215,30.7675,32.2332,133.371,108.413,109.463,0.000785577,0.0589343,21.011,6.43578,-0.0857387,0.0,0.0
868,216.75,30.829,32.6891,136.626,108.36,109.67,0.000748318,0.0591218,21.0106,6.43578,-0.10693,0.0,0.0
875,218.5,30.7998,31.9683,136.62,108.293,109.767,0.000690042,0.0592198,21.0107,6.45579,-0.120328,0.0,0.0
882,220.25,31.4315,32.1656,137.026,108.228,109.219,0.000621772,0.0592177,21.0108,6.43578,-0.0811653,0.0,0.0
889,222,30.5703,32.1008,133.61,108.17,109.592,0.000620345,0.0591694,21.0112,6.43578,-0.11629,0.0,0.0
896,223.75,30.6422,31.8935,137.539,108.132,109.21,0.000645711,0.0589095,21.0121,6.42577,-0.0883471,0.0,0.0
903,225.5,31.1407,31.8585,140.263,108.073,109.367,0.000680757,0.0587335,21.0137,6.41576,-0.105926,0.0,0.0
910,227.25,30.606,32.192,133.109,108.021,109.245,0.000691565,0.0585409,21.0144,6.42577,-0.100316,0.0,0.0
917,229,30.9709,31.7863,136.303,107.969,109.526,0.000690799,0.0581534,21.0145,6.42577,-0.12743,0.0,0.0
924,230.75,30.5957,32.0197,136.163,107.919,109.171,0.000728703,0.0579141,21.0146,6.42577,-0.102668,0.0,0.0
931,232.5,31.2077,32.1807,137.368,107.888,109.594,0.000804725,0.0577179,21.0146,6.42577,-0.139656,0.0,0.0
938,234.25,31.2191,30.9562,132.546,107.836,109.406,0.000857742,0.0575329,21.0148,6.42577,-0.128689,0.0,0.0
945,236,31.0847,32.1809,137.071,107.79,109.467,0.000831306,0.0572754,21.0157,6.42577,-0.137414,0.0,0.0
952,237.75,30.9676,32.4421,136.686,107.753,108.74,0.000790228,0.0570941,21.0158,6.42577,-0.0812006,0.0,0.0
959,239.5,30.7446,31.8276,134.115,107.737,109.503,0.000793621,0.0569306,21.0166,6.42577,-0.144717,0.0,0.0
966,241.25,30.9183,32.1362,136.517,107.711,109.365,0.000824716,0.0569153,21.0169,6.41576,-0.135732,0.0,0.0
973,243,31.1677,32.3928,137.997,107.682,109.085,0.000829442,0.0568268,21.0171,6.41576,-0.115239,0.0,0.0
980,244.75,30.706,32.1537,138.718,107.66,109.253,0.000837532,0.0568012,21.0172,6.40575,-0.130715,0.0,0.0
987,246.5,31.2625,32.1408,137.732,107.632,109.199,0.00089453,0.0570047,21.016,6.40575,-0.128701,0.0,0.0
994,248.25,31.1547,32.2071,135,107.619,109.173,0.000916915,0.0571317,21.0152,6.39574,-0.127624,0.0,0.0
1001,250,31.1451,32.0731,134.719,107.592,108.892,0.000894318,0.0570235,21.0146,6.39574,-0.106903,0.0,0.0
1008,251.75,30.9838,32.5108,138.574,107.562,109.023,0.000859737,0.0569954,21.0143,6.39574,-0.120079,0.0,0.0
1015,253.5,31.148,32.3402,139.022,107.542,108.516,0.000831409,0.056957,21.0142,6.39574,-0.0802888,0.0,0.0
1022,255.25,30.9542,32.4256,136.956,107.55,108.732,0.000783867,0.0571101,21.0141,6.39574,-0.097278,0.0,0.0
1029,257,30.2785,32.1785,138.779,107.513,108.727,0.000750056,0.0573386,21.0141,6.37572,-0.099938,0.0,0.0
1036,258.75,30.938,32.807,137.245,107.48,109.469,0.000745536,0.0574306,21.0141,6.38573,-0.163203,0.0,0.0
1043,260.5,31.1183,32.387,140.765,107.469,108.754,0.0007587,0.0575607,21.0143,6.39574,-0.105848,0.0,0.0
1050,262.25,31.3719,32.1706,135.688,107.459,109.39,0.000779507,0.0577442,21.0146,6.39574,-0.158527,0.0,0.0
1057,264,31.3657,32.4781,134.139,107.473,109.142,0.000782727,0.0578742,21.014,6.39574,-0.137194,0.0,0.0
1064,265.75,31.0612,32.3285,135.566,107.439,108.959,0.000790169,0.0580607,21.0122,6.40575,-0.125131,0.0,0.0
1071,267.5,30.9797,32.2621,136.444,107.426,108.873,0.000804341,0.0581218,21.0112,6.39574,-0.119086,0.0,0.0
1078,269.25,31.1036,31.9551,136.62,107.418,108.902,0.000777702,0.0582155,21.0107,6.39574,-0.122125,0.0,0.0
1085,271,31.1239,32.1945,138.677,107.398,108.707,0.000747171,0.0584092,21.0105,6.39574,-0.107773,0.0,0.0
1092,272.75,31.2203,32.2999,137.579,107.404,108.75,0.000721978,0.0584028,21.0108,6.38573,-0.110853,0.0,0.0
1099,274.5,31.2571,32.9756,138.774,107.392,108.627,0.000678798,0.0582173,21.0118,6.39574,-0.101731,0.0,0.0
1106,276.25,31.0828,32.3365,139.552,107.388,109.067,0.000628453,0.0580961,21.0122,6.39574,-0.138082,0.0,0.0
1113,278,31.1108,32.4921,138.872,107.401,108.72,0.000613408,0.0580236,21.0124,6.38573,-0.108682,0.0,0.0
1120,279.75,31.0716,32.8024,135.108,107.393,108.917,0.00061994,0.0580275,21.0133,6.39574,-0.125422,0.0,0.0
1127,281.5,31.3683,32.4401,134.517,107.386,109.104,0.000602469,0.0579377,21.0142,6.40575,-0.141328,0.0,0.0
1134,283.25,31.436,32.4883,136.892,107.387,109.174,0.000553919,0.0578488,21.0151,6.38573,-0.146937,0.0,0.0
1141,285,31.3937,32.455,139.519,107.389,109.008,0.000473349,0.0578743,21.0161,6.39574,-0.133252,0.0,0.0
1148,286.75,31.4883,32.1939,133.721,107.391,108.796,0.000390313,0.0577849,21.0165,6.39574,-0.115715,0.0,0.0
1155,288.5,30.3233,32.4768,138.721,107.4,108.87,0.000390073,0.0577749,21.0167,6.39574,-0.120999,0.0,0.0
1162,290.25,31.4324,32.7502,133.599,107.405,108.594,0.000500896,0.0577908,21.0158,6.38573,-0.0979593,0.0,0.0
1169,292,30.6559,32.4202,133.573,107.416,109.248,0.000691358,0.0577615,21.0156,6.37572,-0.150561,0.0,0.0
1176,293.75,31.4027,32.5106,137.059,107.44,108.38,0.000837675,0.0577869,21.0155,6.37572,-0.0774917,0.0,0.0
1183,295.5,31.2334,32.757,135.049,107.445,109.26,0.000857219,0.057697,21.0155,6.38573,-0.149157,0.0,0.0
1190,297.25,31.3212,32.5101,138.759,107.437,109.273,0.000791543,0.0576601,21.0155,6.38573,-0.150859,0.0,0.0
1197,299,31.4531,32.5639,139.843,107.461,108.482,0.000734489,0.0576498,21.0155,6.39574,-0.0842452,0.0,0.0
1204,300.75,31.3674,32.7349,136.451,107.475,109.57,0.000688765,0.0576906,21.0154,6.37572,-0.171866,0.0,0.0
1211,302.5,31.1552,32.5845,133.687,107.498,109.048,0.000686987,0.0576425,21.015,6.37572,-0.127458,0.0,0.0
1218,304.25,31.2143,32.3074,133.402,107.503,108.935,0.000758367,0.057644,21.0148,6.37572,-0.117823,0.0,0.0
1225,306,31.3429,32.2498,133.544,107.514,108.949,0.000856747,0.0577476,21.0143,6.36571,-0.118037,0.0,0.0
1232,307.75,31.3893,32.6172,132.048,107.537,108.989,0.000859118,0.0577996,21.0139,6.38573,-0.119372,0.0,0.0
1239,309.5,31.5208,32.3464,138.264,107.557,108.84,0.000733035,0.0578004,21.0138,6.37572,-0.105544,0.0,0.0
1246,311.25,31.55,32.4762,135.14,107.57,109.299,0.000573347,0.0578209,21.014,6.37572,-0.14193,0.0,0.0
1253,313,31.2715,32.837,137.603,107.593,108.58,0.000482899,0.0578362,21.0142,6.37572,-0.0812424,0.0,0.0
1260,314.75,31.4731,32.5103,135.535,107.61,109.032,0.000509735,0.0577267,21.0144,6.37572,-0.11679,0.0,0.0
1267,316.5,30.7318,32.8456,138.326,107.636,109.032,0.000583296,0.0576503,21.0144,6.37572,-0.114675,0.0,0.0
1274,318.25,31.526,32.2841,136.197,107.651,108.674,0.000634259,0.0576378,21.0144,6.39574,-0.0841595,0.0,0.0
1281,320,30.6751,32.8236,136.303,107.666,109.036,0.000674514,0.0575161,21.0144,6.38573,-0.112563,0.0,0.0
1288,321.75,31.3258,32.2492,136.82,107.693,109.449,0.000692881,0.0575209,21.0141,6.39574,-0.143943,0.0,0.0
1295,323.5,31.238,32.6398,139.668,107.711,109.036,0.000673971,0.0577095,21.0139,6.37572,-0.10884,0.0,0.0
1302,325.25,31.7193,32.6363,135.095,107.746,109.176,0.000672596,0.0578033,21.0137,6.37572,-0.117373,0.0,0.0
1309,327,31.2538,32.6887,140.299,107.751,109.586,0.000671804,0.0576695,21.0137,6.36571,-0.150367,0.0,0.0
1316,328.75,31.3485,32.7684,133.76,107.766,108.979,0.000633684,0.0574874,21.0137,6.3557,-0.0996536,0.0,0.0
1323,330.5,31.3495,32.4995,135.144,107.779,109.236,0.000617954,0.0573824,21.0138,6.37572,-0.119513,0.0,0.0
1330,332.25,30.99,32.853,138.777,107.808,109.474,0.000656123,0.0573562,21.0142,6.39574,-0.136484,0.0,0.0
1337,334,31.9017,32.8636,139.411,107.828,109.289,0.000691695,0.0571758,21.0145,6.39574,-0.119779,0.0,0.0
1344,335.75,31.6348,32.4754,136.586,107.844,109.02,0.000770685,0.0570838,21.0147,6.37572,-0.0965565,0.0,0.0
1351,337.5,31.8544,32.6813,135.878,107.861,108.966,0.000855344,0.0571399,21.0147,6.38573,-0.0907043,0.0,0.0
1358,339.25,31.491,32.6978,132.399,107.872,109.861,0.000828109,0.0571964,21.0148,6.38573,-0.16264,0.0,0.0
1365,341,31.3182,32.7577,137.213,107.878,109.181,0.000742538,0.0572565,21.0148,6.38573,-0.106855,0.0,0.0
1372,342.75,31.7069,32.8069,133.837,107.896,109.192,0.000657852,0.0572784,21.0146,6.3557,-0.10625,0.0,0.0
1379,344.5,31.5355,33.1187,136.082,107.903,109.215,0.000671798,0.0573691,21.0143,6.36571,-0.107637,0.0,0.0
1386,346.25,31.3131,32.9596,137.568,107.933,109.954,0.000770108,0.057595,21.0141,6.36571,-0.165101,0.0,0.0
1393,348,31.8982,32.7566,137.345,107.957,109.249,0.000878657,0.0577227,21.014,6.37572,-0.105942,0.0,0.0
1400,349.75,31.47,32.3602,135.382,107.965,109.331,0.000949833,0.05777,21.014,6.37572,-0.111889,0.0,0.0
1407,351.5,31.7208,32.5433,135.362,107.979,109.668,0.000942844,0.0577686,21.0137,6.37572,-0.138107,0.0,0.0
1414,353.25,31.9327,33.0595,138.268,108.006,109.737,0.000863224,0.0578428,21.0135,6.36571,-0.141541,0.0,0.0
1421,355,31.9671,33.0234,137.925,108.014,109.328,0.000731273,0.0578653,21.0134,6.3557,-0.107691,0.0,0.0
1428,356.75,31.9283,32.6486,130.288,108.047,109.884,0.000604468,0.0577772,21.0133,6.3557,-0.150129,0.0,0.0
1435,358.5,31.5903,32.914,136.446,108.056,109.516,0.000516215,0.0577239,21.0133,6.36571,-0.119509,0.0,0.0
1442,360.25,31.5092,32.8195,136.509,108.07,110.832,0.000462512,0.0576717,21.0133,6.37572,-0.224646,0.0,0.0
1449,362,31.2593,32.9687,133.147,108.08,109.538,0.000422114,0.0576283,21.0133,6.38573,-0.119317,0.0,0.0
1456,363.75,31.777,32.67,132.994,108.102,109.352,0.000462527,0.0574991,21.0133,6.37572,-0.10236,0.0,0.0
1463,365.5,31.8909,32.8303,133.699,108.112,109.403,0.000580055,0.057336,21.0137,6.37572,-0.105629,0.0,0.0
1470,367.25,31.3983,32.9472,137.02,108.117,109.423,0.00063347,0.0572975,21.0149,6.36571,-0.106913,0.0,0.0
1477,369,31.5873,33.3683,137.721,108.146,109.247,0.000584253,0.0573781,21.0149,6.3557,-0.0902004,0.0,0.0
1484,370.75,31.585,33.1035,132.854,108.168,109.52,0.000481807,0.0575076,21.0145,6.3557,-0.110652,0.0,0.0
1491,372.5,31.8251,32.9985,134.422,108.187,109.379,0.000413605,0.0575197,21.0143,6.3557,-0.0975333,0.0,0.0
1498,374.25,31.7601,32.8946,134.894,108.177,109.557,0.000414591,0.0575272,21.0146,6.36571,-0.112864,0.0,0.0
1505,376,31.6599,33.117,133.176,108.197,109.758,0.000476528,0.0576057,21.0133,6.36571,-0.127509,0.0,0.0
1512,377.75,31.5231,32.9114,132.922,108.212,109.491,0.00054183,0.0576401,21.0126,6.3557,-0.104545,0.0,0.0
1519,379.5,31.7324,33.1788,138.738,108.233,109.982,0.000576848,0.0576111,21.0136,6.36571,-0.142661,0.0,0.0
1526,381.25,31.3796,33.2014,135.029,108.246,110.173,0.000615606,0.0576385,21.014,6.3557,-0.157066,0.0,0.0
1533,383,31.7348,32.9472,133.715,108.263,109.871,0.00066493,0.0575543,21.0142,6.3557,-0.131239,0.0,0.0
1540,384.75,31.587,32.8627,137.379,108.293,109.544,0.000650925,0.0575343,21.0143,6.36571,-0.102284,0.0,0.0
1547,386.5,31.3004,33.0924,136.523,108.334,109.711,0.000565394,0.0575242,21.0144,6.36571,-0.112469,0.0,0.0
1554,388.25,31.6369,33.0055,135.588,108.327,110.115,0.000519593,0.0575302,21.0144,6.36571,-0.145689,0.0,0.0
1561,390,31.6252,32.8379,138.638,108.331,110.266,0.000529543,0.0575303,21.0144,6.3557,-0.157572,0.0,0.0
1568,391.75,32.0777,32.6839,135.412,108.341,110.093,0.000537512,0.0576736,21.0144,6.3557,-0.142813,0.0,0.0
1575,393.5,31.8065,32.8615,134.048,108.375,109.972,0.000567805,0.0577306,21.0144,6.36571,-0.130233,0.0,0.0
1582,395.25,31.382,32.781,133.125,108.402,109.913,0.000632658,0.0577433,21.0144,6.3557,-0.123195,0.0,0.0
1589,397,32.1032,32.9584,136.447,108.419,109.841,0.000726191,0.0579052,21.0142,6.3557,-0.116015,0.0,0.0
1596,398.75,31.6775,32.9711,139.575,108.426,109.708,0.000870562,0.0579701,21.0139,6.33569,-0.104627,0.0,0.0
1603,400.5,31.4119,33.1257,136.201,108.448,109.832,0.000918469,0.057881,21.0137,6.3557,-0.112906,0.0,0.0
1610,402.25,31.5325,33.2657,135.475,108.479,110.126,0.000864193,0.0578795,21.0137,6.3457,-0.134122,0.0,0.0
1617,404,31.6893,33.3998,133.707,108.49,110.009,0.000781848,0.0579981,21.0136,6.3457,-0.123791,0.0,0.0
1624,405.75,32.1076,33.2537,137.705,108.502,109.398,0.000666051,0.057831,21.0137,6.3557,-0.0732461,0.0,0.0
1631,407.5,31.83,32.7394,134.222,108.517,110.103,0.000644109,0.0576607,21.0141,6.3457,-0.129136,0.0,0.0
1638,409.25,31.7766,33.1031,136.311,108.544,109.839,0.000775015,0.0576149,21.0143,6.33569,-0.105588,0.0,0.0
1645,411,31.9124,32.8863,136.385,108.56,109.824,0.000935239,0.0575767,21.0146,6.3457,-0.103042,0.0,0.0
1652,412.75,31.5401,32.9794,134.182,108.572,110.579,0.00100934,0.0574891,21.0157,6.3557,-0.163061,0.0,0.0
1659,414.5,31.3333,32.6693,137.754,108.582,110.414,0.000996053,0.0574205,21.0172,6.3457,-0.148945,0.0,0.0
1666,416.25,31.7865,32.969,135.851,108.587,109.749,0.000956793,0.057474,21.0179,6.33569,-0.0947147,0.0,0.0
1673,418,31.9381,32.8924,135.421,108.618,109.818,0.000905932,0.0575221,21.017,6.3457,-0.0978691,0.0,0.0
1680,419.75,31.7635,33.0435,138.306,108.623,110.47,0.000859167,0.0575614,21.0166,6.3457,-0.150119,0.0,0.0
1687,421.5,31.5302,33.0083,135.953,108.624,109.931,0.000819458,0.0575932,21.0169,6.3457,-0.106489,0.0,0.0
1694,423.25,31.8047,33.2525,132.699,108.688,110.094,0.00081087,0.0575476,21.0171,6.3557,-0.114437,0.0,0.0
1701,425,31.6585,32.9954,137.294,108.659,110.115,0.00081118,0.0575986,21.0172,6.3557,-0.118464,0.0,0.0
1708,426.75,31.7392,33.3326,133.176,108.672,110.879,0.000770898,0.0577441,21.0176,6.3557,-0.179039,0.0,0.0
1715,428.5,31.4367,33.0291,139.826,108.685,110.517,0.000683998,0.0577335,21.0179,6.33569,-0.148768,0.0,0.0
1722,430.25,31.9823,32.4971,137.677,108.687,110.162,0.000557676,0.0576087,21.018,6.3457,-0.120022,0.0,0.0
1729,432,32.3177,33.1218,133.412,108.698,110.093,0.00042683,0.0574537,21.0191,6.3557,-0.113566,0.0,0.0
1736,433.75,32.1864,32.7266,135.589,108.71,110.624,0.00033229,0.0573939,21.0198,6.33569,-0.155302,0.0,0.0
1743,435.5,31.5753,32.8614,131.586,108.714,110.798,0.000365889,0.0574017,21.0192,6.33569,-0.16903,0.0,0.0
1750,437.25,32.1411,33.0923,137.843,108.725,110.279,0.000485571,0.0573464,21.0186,6.33569,-0.126406,0.0,0.0
1757,439,31.8491,32.637,136.082,108.733,110.32,0.000628049,0.0572879,21.0183,6.3557,-0.128992,0.0,0.0
1764,440.75,31.6726,32.7832,133.209,108.746,109.706,0.000655193,0.0572768,21.0182,6.3457,-0.0782325,0.0,0.0
1771,442.5,31.824,32.4289,133.77,108.756,110.794,0.000623834,0.0573375,21.0181,6.33569,-0.165246,0.0,0.0
1778,444.25,31.7814,33.1484,134.694,108.758,110.498,0.000634772,0.0571644,21.0168,6.33569,-0.141306,0.0,0.0
1785,446,31.5647,33.2019,139.453,108.773,110.15,0.000669775,0.057052,21.016,6.33569,-0.111984,0.0,0.0
1792,447.75,32.2268,33.2334,133.202,108.782,110.181,0.000757627,0.057049,21.0156,6.3457,-0.113744,0.0,0.0
1799,449.5,31.8889,33.2752,135.774,108.786,110.405,0.000869067,0.0570725,21.0154,6.33569,-0.131515,0.0,0.0
1806,451.25,31.3673,32.5577,136.473,108.796,109.875,0.000921054,0.0570597,21.0153,6.3457,-0.0878139,0.0,0.0
1813,453,31.9271,32.991,137.28,108.8,110.145,0.000902971,0.0570398,21.0162,6.3457,-0.109384,0.0,0.0
1820,454.75,32.0007,33.1155,132.752,108.813,110.15,0.000936966,0.0569871,21.0169,6.33569,-0.108742,0.0,0.0
1827,456.5,31.8742,32.977,137.937,108.816,110.655,0.00100708,0.0570692,21.017,6.3557,-0.149184,0.0,0.0
1834,458.25,32.3044,33.2509,135.732,108.822,109.95,0.00101354,0.0569816,21.0161,6.3457,-0.0917705,0.0,0.0
1841,460,31.6209,32.8184,135.595,108.825,109.894,0.000956029,0.0568948,21.0157,6.32568,-0.0870712,0.0,0.0
1848,461.75,31.4513,33.2955,133.705,108.825,110.455,0.000837963,0.0568981,21.0155,6.33569,-0.132359,0.0,0.0
1855,463.5,31.7579,33.2913,135.92,108.845,110.088,0.000661725,0.0570017,21.0153,6.33569,-0.101044,0.0,0.0
1862,465.25,32.025,33.1698,136.794,108.833,110.206,0.000510815,0.0569478,21.0153,6.32568,-0.111668,0.0,0.0
1869,467,32.078,33.506,134.089,108.837,110.609,0.000428163,0.0569812,21.015,6.33569,-0.143795,0.0,0.0
1876,468.75,32.0587,33.1868,136.948,108.829,111.011,0.000442266,0.0571315,21.0148,6.3557,-0.17674,0.0,0.0
1883,470.5,32.1256,32.8983,134.683,108.835,110.19,0.000457957,0.0571764,21.0147,6.37572,-0.110095,0.0,0.0
1890,472.25,32.0366,32.9774,138.497,108.833,109.816,0.000444756,0.0572758,21.0146,6.3557,-0.0800633,0.0,0.0
1897,474,31.7124,33.063,137.972,108.821,110.074,0.000472505,0.0573533,21.0146,6.3457,-0.101905,0.0,0.0
1904,475.75,32.0113,33.4349,135.811,108.803,110.586,0.000533122,0.0574072,21.0146,6.36571,-0.144742,0.0,0.0
1911,477.5,31.7993,33.0298,137.439,108.794,110.47,0.000562236,0.0574523,21.0135,6.3457,-0.136041,0.0,0.0
1918,479.25,31.7962,32.8962,135.322,108.794,110.188,0.000558733,0.0575294,21.0129,6.3457,-0.113289,0.0,0.0
1925,481,32.4107,33.0828,139.734,108.791,110.603,0.000523308,0.057636,21.0126,6.37572,-0.147071,0.0,0.0
1932,482.75,31.8828,33.1372,136.692,108.768,110.508,0.000522521,0.0576985,21.0124,6.3557,-0.141272,0.0,0.0
1939,484.5,32.1488,33.1915,132.962,108.746,110.624,0.000580665,0.0578295,21.0123,6.3457,-0.152419,0.0,0.0
1946,486.25,31.7152,33.1766,132.999,108.729,110.073,0.000591305,0.0580029,21.0123,6.3457,-0.109331,0.0,0.0
1953,488,32.1111,33.2122,137.626,108.726,110.09,0.000567979,0.058172,21.0123,6.32568,-0.110941,0.0,0.0
1960,489.75,31.8443,33.1902,136.252,108.703,110.443,0.000535528,0.0584275,21.0126,6.33569,-0.141399,0.0,0.0
1967,491.5,32.0955,33.3451,138.221,108.676,110.423,0.000534075,0.058487,21.0131,6.33569,-0.141969,0.0,0.0
1974,493.25,31.2796,33.3161,136.042,108.658,110.367,0.000597523,0.058415,21.0134,6.31567,-0.138873,0.0,0.0
1981,495,32.0385,33.7289,133.105,108.645,109.999,0.000659158,0.0582412,21.0135,6.31567,-0.110232,0.0,0.0
1988,496.75,32.0589,33.277,132.964,108.616,110.317,0.000763628,0.0579152,21.0145,6.33569,-0.138277,0.0,0.0
1995,498.5,32.3756,33.3911,139.022,108.589,110.187,0.000852343,0.0577783,21.0152,6.3457,-0.130069,0.0,0.0
2002,500.25,32.3819,33.174,134.94,108.566,110.242,0.000839972,0.0576944,21.0151,6.3457,-0.136416,0.0,0.0
2009,502,32.6291,33.3925,134.913,108.568,110.565,0.000744573,0.057544,21.0151,6.3557,-0.162313,0.0,0.0
2016,503.75,32.0056,32.6929,136.638,108.567,109.939,0.000721478,0.0573521,21.0151,6.3457,-0.111826,0.0,0.0
2023,505.5,32.3031,33.3562,136.715,108.534,110.335,0.000786092,0.0571948,21.0151,6.32568,-0.146472,0.0,0.0
2030,507.25,32.0001,33.0444,134.804,108.512,110.062,0.000860578,0.0572277,21.0163,6.33569,-0.126295,0.0,0.0
2037,509,32.146,33.3147,136.949,108.518,109.884,0.000865029,0.0571005,21.0169,6.32568,-0.111322,0.0,0.0
2044,510.75,31.8758,33.1093,133.792,108.503,109.633,0.00083063,0.0571457,21.0171,6.33569,-0.0922005,0.0,0.0
2051,512.5,32.1313,33.042,136.819,108.485,110.213,0.000750383,0.0571673,21.0174,6.31567,-0.140715,0.0,0.0
2058,514.25,31.8839,33.1308,136.693,108.471,110.146,0.000662478,0.0573851,21.0178,6.31567,-0.136445,0.0,0.0
2065,516,31.993,33.1138,136.381,108.473,109.925,0.000666109,0.0574622,21.0181,6.32568,-0.11833,0.0,0.0
2072,517.75,32.1563,33.118,137.106,108.463,109.972,0.0007212,0.0574666,21.0182,6.32568,-0.123,0.0,0.0
2079,519.5,32.5207,32.9452,133.873,108.451,110.041,0.000718832,0.0574343,21.0182,6.32568,-0.129572,0.0,0.0
2086,521.25,31.9165,33.3942,138.326,108.439,110.379,0.000669214,0.0574528,21.0172,6.31567,-0.157868,0.0,0.0
2093,523,32.285,33.2571,135.759,108.421,109.88,0.00063418,0.057442,21.017,6.32568,-0.118959,0.0,0.0
2100,524.75,32.5938,33.4651,135.876,108.408,109.745,0.00066163,0.0575039,21.0169,6.31567,-0.109075,0.0,0.0
2107,526.5,31.9258,33.3568,133.561,108.413,109.851,0.000666749,0.0575308,21.0168,6.32568,-0.117362,0.0,0.0
2114,528.25,31.9851,33.3473,137.67,108.387,109.613,0.00060761,0.0574736,21.0168,6.31567,-0.100074,0.0,0.0
2121,530,32.3506,33.2282,138.77,108.374,109.66,0.000505021,0.0573645,21.0179,6.31567,-0.10497,0.0,0.0
2128,531.75,31.9874,33.6059,139.773,108.362,110.112,0.000446074,0.0572612,21.0177,6.31567,-0.142589,0.0,0.0
2135,533.5,32.216,33.251,133.708,108.357,109.651,0.00050819,0.0572923,21.0167,6.32568,-0.105737,0.0,0.0
2142,535.25,32.018,33.1853,135.531,108.339,109.521,0.00055404,0.0573131,21.0164,6.31567,-0.0965946,0.0,0.0
2149,537,32.1416,33.1422,135.662,108.322,110.024,0.000567415,0.057357,21.0165,6.32568,-0.138775,0.0,0.0
2156,538.75,32.2597,33.5212,132.386,108.325,109.623,0.000562288,0.0573062,21.0165,6.32568,-0.106022,0.0,0.0
2163,540.5,32.5185,33.8201,136.305,108.311,109.526,0.000528517,0.0573068,21.0166,6.32568,-0.0993134,0.0,0.0
2170,542.25,32.1091,33.2868,136.357,108.294,109.764,0.000493983,0.0571491,21.0168,6.31567,-0.11998,0.0,0.0
2177,544,32.5101,33.0127,136.527,108.282,109.967,0.000534496,0.0572261,21.0171,6.31567,-0.137439,0.0,0.0
2184,545.75,32.4458,33.4222,134.376,108.266,110.196,0.000584107,0.0572384,21.0173,6.31567,-0.157234,0.0,0.0
2191,547.5,32.1585,33.3751,137.175,108.261,109.67,0.000547973,0.0571544,21.0174,6.31567,-0.115157,0.0,0.0
2198,549.25,32.0972,33.1594,139.434,108.25,109.868,0.000474001,0.0571728,21.0174,6.31567,-0.132083,0.0,0.0
2205,551,32.5889,33.4573,136.085,108.253,109.786,0.000469984,0.0571945,21.0174,6.30566,-0.125152,0.0,0.0
2212,552.75,32.0114,33.4081,135.508,108.238,109.695,0.000503117,0.057316,21.0174,6.31567,-0.119009,0.0,0.0
2219,554.5,32.1935,32.9737,133.506,108.232,109.738,0.000528026,0.0574193,21.017,6.31567,-0.123006,0.0,0.0
2226,556.25,32.4239,33.5922,135.237,108.253,109.947,0.0005887,0.0573307,21.0168,6.32568,-0.138196,0.0,0.0
2233,558,32.3152,33.5496,138.152,108.276,110.264,0.000644467,0.0572951,21.0167,6.31567,-0.162017,0.0,0.0
2240,559.75,32.3646,33.3485,135.198,108.309,110.583,0.000608712,0.0572125,21.017,6.31567,-0.184981,0.0,0.0
2247,561.5,32.4949,33.6811,135.295,108.345,110.033,0.000471631,0.0572851,21.0171,6.30566,-0.137611,0.0,0.0
2254,563.25,32.2078,33.4228,134.837,108.391,109.888,0.000351741,0.0573982,21.0172,6.31567,-0.122099,0.0,0.0
2261,565,32.3557,33.647,135.694,108.43,109.416,0.000371381,0.0574189,21.0172,6.31567,-0.0805881,0.0,0.0
2268,566.75,32.2089,33.6425,133.83,108.468,109.687,0.000454512,0.0575053,21.0172,6.31567,-0.0995436,0.0,0.0
2275,568.5,32.0083,33.6567,134.256,108.496,109.9,0.000488212,0.057556,21.0172,6.31567,-0.114486,0.0,0.0
2282,570.25,32.4119,33.697,136.156,108.537,110.189,0.000472399,0.0575176,21.0172,6.30566,-0.134457,0.0,0.0
2289,572,32.4482,33.5535,134.364,108.562,110.18,0.000485248,0.057436,21.0172,6.30566,-0.131675,0.0,0.0
2296,573.75,32.4361,33.6568,134.455,108.581,109.787,0.000544609,0.057687,21.0172,6.32568,-0.0983445,0.0,0.0
2303,575.5,32.3122,33.8254,134.023,108.609,109.448,0.000657159,0.0579843,21.0165,6.33569,-0.0685576,0.0,0.0
2310,577.25,32.1511,33.3288,133.683,108.636,110.019,0.000699552,0.0580869,21.0161,6.33569,-0.112629,0.0,0.0
2317,579,32.0138,33.5184,134.996,108.668,110.05,0.000645557,0.0580358,21.0159,6.30566,-0.11247,0.0,0.0
2324,580.75,32.4161,33.2156,135.265,108.673,110.245,0.000581551,0.0579095,21.0158,6.31567,-0.127914,0.0,0.0
2331,582.5,32.1804,33.343,135.328,108.692,110.206,0.000494027,0.0579269,21.015,6.31567,-0.123171,0.0,0.0
2338,584.25,32.2875,33.8907,135.2,108.71,110.123,0.000385347,0.0578242,21.0146,6.30566,-0.114991,0.0,0.0
2345,586,32.4997,33.4311,134.226,108.737,110.444,0.000397896,0.057777,21.0144,6.30566,-0.1387,0.0,0.0
2352,587.75,32.4747,33.7075,134.998,108.758,110.03,0.000565108,0.0576614,21.0143,6.31567,-0.10351,0.0,0.0
2359,589.5,32.025,33.8398,136.368,108.79,109.991,0.000718651,0.057595,21.0143,6.31567,-0.0977559,0.0,0.0
2366,591.25,32.2625,33.5495,134.412,108.809,110.43,0.000759248,0.0576527,21.0154,6.30566,-0.131631,0.0,0.0
2373,593,33.0103,33.6475,130.73,108.848,110.549,0.000704883,0.0578024,21.016,6.30566,-0.138007,0.0,0.0
2380,594.75,32.0503,33.5368,132.766,108.881,110.489,0.000620097,0.0578708,21.0152,6.31567,-0.130455,0.0,0.0
2387,596.5,32.2215,33.417,139.451,108.908,110.674,0.00063104,0.0577221,21.0147,6.31567,-0.143126,0.0,0.0
2394,598.25,32.6774,33.9354,136.613,108.947,110.622,0.000693535,0.0577202,21.0145,6.30566,-0.13582,0.0,0.0
2401,600,32.1553,33.4063,136.529,108.945,110.211,0.000770193,0.0577929,21.0144,6.31567,-0.102843,0.0,0.0
2408,601.75,32.3026,33.516,138.668,108.969,110.033,0.000724858,0.0576106,21.0143,6.31567,-0.0864481,0.0,0.0
2415,603.5,31.8577,33.5823,135.872,108.998,110.111,0.000622603,0.057379,21.0149,6.29565,-0.0904186,0.0,0.0
2422,605.25,31.3252,32.9197,133.088,109.019,110.496,0.000580285,0.0573189,21.0155,6.31567,-0.119781,0.0,0.0
2429,607,31.9833,33.3825,140.157,109.023,110.264,0.000564347,0.0573294,21.0157,6.31567,-0.100771,0.0,0.0
2436,608.75,31.7717,32.7436,137.668,109.054,110.417,0.000547594,0.0572461,21.0158,6.31567,-0.110606,0.0,0.0
2443,610.5,32.1866,33.1089,135.305,109.066,110.623,0.000571516,0.0573871,21.0159,6.30566,-0.126146,0.0,0.0
2450,612.25,31.9232,33.0646,135.613,109.087,110.705,0.000608254,0.0575706,21.0159,6.30566,-0.13105,0.0,0.0
2457,614,31.9976,33.163,132.741,109.104,110.457,0.000610823,0.0574841,21.0159,6.31567,-0.10973,0.0,0.0
2464,615.75,31.8552,32.7509,132.812,109.104,110.296,0.00053163,0.0573989,21.0159,6.31567,-0.0967823,0.0,0.0
2471,617.5,32.0207,33.216,137.722,109.12,110.967,0.000443002,0.0573633,21.0159,6.30566,-0.149414,0.0,0.0
2478,619.25,31.6301,33.2322,135.846,109.14,110.321,0.000421889,0.0571845,21.0159,6.30566,-0.0958265,0.0,0.0
2485,621,31.975,33.3802,137.971,109.158,110.466,0.000402942,0.0570382,21.0159,6.30566,-0.106022,0.0,0.0
2492,622.75,32.4396,33.1368,132.757,109.156,110.653,0.000428755,0.0570385,21.0159,6.29565,-0.121235,0.0,0.0
2499,624.5,31.9951,33.1155,134.37,109.161,110.621,0.000518983,0.0569639,21.0159,6.29565,-0.118297,0.0,0.0
2506,626.25,31.968,33.5695,133.029,109.181,110.983,0.000602356,0.056913,21.0159,6.29565,-0.145725,0.0,0.0
2513,628,31.9083,33.0168,136.385,109.185,110.413,0.000669445,0.0568475,21.0159,6.29565,-0.0995345,0.0,0.0
2520,629.75,31.9325,33.5565,131.469,109.195,110.867,0.000754192,0.0568387,21.0159,6.30566,-0.135259,0.0,0.0
2527,631.5,32.2707,33.7535,135.861,109.198,110.677,0.000819315,0.0569556,21.0153,6.29565,-0.119692,0.0,0.0
2534,633.25,32.0457,33.4014,133.793,109.216,111.024,0.000865932,0.0571137,21.0144,6.30566,-0.146135,0.0,0.0
2541,635,32.1685,32.686,136.391,109.216,110.63,0.000878645,0.0573055,21.014,6.31567,-0.114481,0.0,0.0
2548,636.75,32.0548,33.4012,136.91,109.222,110.343,0.000808949,0.0572273,21.0138,6.30566,-0.0909364,0.0,0.0
2555,638.5,32.2537,33.4292,133.725,109.212,110.854,0.000673613,0.0572455,21.0132,6.30566,-0.132862,0.0,0.0
2562,640.25,31.8699,33.23,133.057,109.23,110.793,0.0006161,0.0573856,21.013,6.30566,-0.126474,0.0,0.0
2569,642,32.42,32.9104,132.644,109.228,110.524,0.000664621,0.0573336,21.0128,6.29565,-0.105042,0.0,0.0
2576,643.75,32.0688,33.6522,137.045,109.233,110.94,0.000748257,0.0573397,21.0128,6.28564,-0.138,0.0,0.0
2583,645.5,32.2223,33.1791,132.144,109.227,110.797,0.000752244,0.0574363,21.0127,6.31567,-0.126968,0.0,0.0
2590,647.25,32.1815,33.0784,133.237,109.23,111.288,0.000721409,0.0575908,21.0127,6.30566,-0.166219,0.0,0.0
2597,649,31.5856,33.6823,135.114,109.231,110.654,0.000688164,0.0577169,21.0123,6.28564,-0.115243,0.0,0.0
2604,650.75,31.7421,33.5388,135.136,109.221,110.739,0.000750483,0.0578582,21.0118,6.30566,-0.122904,0.0,0.0
2611,652.5,31.8862,33.4279,134.192,109.211,110.511,0.000911489,0.0579643,21.0134,6.29565,-0.10537,0.0,0.0
2618,654.25,32.0858,33.2196,133.823,109.226,110.843,0.00101259,0.0579853,21.0142,6.28564,-0.130804,0.0,0.0
2625,656,31.9061,33.1645,134.382,109.205,110.708,0.00104511,0.0579623,21.0133,6.30566,-0.121659,0.0,0.0
2632,657.75,32.3168,32.8672,134.251,109.199,110.394,0.0010636,0.0579457,21.0129,6.30566,-0.0968311,0.0,0.0
2639,659.5,32.0535,33.7222,134.693,109.197,110.473,0.00110213,0.0580431,21.0135,6.30566,-0.103456,0.0,0.0
2646,661.25,32.4348,32.8892,135.693,109.183,110.576,0.0011012,0.0580368,21.0138,6.30566,-0.112879,0.0,0.0
2653,663,32.1083,33.263,137.931,109.187,110.537,0.000988351,0.0579537,21.0145,6.31567,-0.109418,0.0,0.0
2660,664.75,31.9868,33.1072,135.199,109.183,110.837,0.000860501,0.0579176,21.0155,6.31567,-0.133888,0.0,0.0
2667,666.5,32.4265,32.9903,136.309,109.171,110.772,0.000747441,0.0577802,21.0159,6.31567,-0.129583,0.0,0.0
2674,668.25,31.7983,33.4974,139.541,109.158,110.663,0.000681911,0.0577619,21.0162,6.30566,-0.12189,0.0,0.0
2681,670,31.8335,33.4202,133.221,109.128,110.352,0.000678567,0.0576899,21.0167,6.29565,-0.0992324,0.0,0.0
2688,671.75,32.0935,33.2348,135.51,109.154,110.326,0.00059738,0.0575888,21.017,6.29565,-0.0950397,0.0,0.0
2695,673.5,32.6563,33.3475,137.674,109.149,110.12,0.000494067,0.0573784,21.0171,6.29565,-0.078915,0.0,0.0
2702,675.25,32.0863,33.3445,133.219,109.133,110.674,0.000466732,0.0574292,21.0161,6.30566,-0.124813,0.0,0.0
2709,677,31.5416,32.9144,135.959,109.11,110.659,0.00048172,0.0573737,21.0153,6.29565,-0.125486,0.0,0.0
2716,678.75,32.1888,33.1021,140.706,109.114,110.172,0.000479359,0.0572278,21.0157,6.30566,-0.0858705,0.0,0.0
2723,680.5,32.287,33.4416,136.523,109.11,110.532,0.000501844,0.0569645,21.0163,6.30566,-0.115311,0.0,0.0
2730,682.25,31.8712,33.3141,131.825,109.106,110.485,0.000532945,0.0568421,21.0166,6.29565,-0.11178,0.0,0.0
2737,684,32.0628,33.4724,134.746,109.097,110.47,0.000545226,0.0568896,21.0167,6.29565,-0.111337,0.0,0.0
2744,685.75,31.9488,33.3991,136.169,109.093,110.636,0.00054595,0.0569172,21.0168,6.31567,-0.125026,0.0,0.0
2751,687.5,32.2548,32.9477,136.501,109.101,110.565,0.000597864,0.0570405,21.0168,6.28564,-0.118619,0.0,0.0
2758,689.25,32.4293,33.822,136.623,109.097,110.347,0.000652595,0.0571291,21.0169,6.29565,-0.10135,0.0,0.0
2765,691,31.744,33.3443,133.97,109.081,110.562,0.000669427,0.0571697,21.0161,6.29565,-0.120074,0.0,0.0
2772,692.75,31.7863,32.7314,135.691,109.093,110.439,0.000661236,0.0571592,21.0159,6.29565,-0.109197,0.0,0.0
2779,694.5,32.3461,33.0359,134.459,109.081,111.14,0.000607682,0.0571372,21.0158,6.28564,-0.166509,0.0,0.0
2786,696.25,32.134,33.5494,135.766,109.087,110.517,0.000492497,0.0571821,21.0152,6.29565,-0.115872,0.0,0.0
2793,698,32.5006,33.4646,133.733,109.08,110.76,0.000280908,0.0571628,21.0152,6.29565,-0.136036,0.0,0.0
2800,699.75,31.8583,33.3681,136.441,109.056,110.381,6.06895e-05,0.0572052,21.0154,6.29565,-0.107444,0.0,0.0
2807,701.5,32.2288,33.1211,135.311,109.07,110.625,-3.05654e-05,0.0572736,21.0163,6.29565,-0.126021,0.0,0.0
2814,703.25,31.5601,32.9925,134.398,109.075,110.551,1.05002e-05,0.0572582,21.017,6.28564,-0.119587,0.0,0.0
2821,705,31.6842,33.5499,136.479,109.076,110.325,0.000243006,0.0573583,21.0175,6.28564,-0.101364,0.0,0.0
2828,706.75,32.1089,33.2982,136.572,109.058,110.209,0.000467548,0.0573018,21.0177,6.31567,-0.0934294,0.0,0.0
2835,708.5,32.1048,33.1876,135.736,109.062,110.559,0.000506787,0.0573327,21.0178,6.30566,-0.121382,0.0,0.0
2842,710.25,31.9553,33.1223,133.167,109.05,110.166,0.000425732,0.0572756,21.0174,6.28564,-0.0906823,0.0,0.0
2849,712,31.9573,33.5484,132.827,109.032,110.611,,0.0571598,,6.31567,-0.127963,0.0,0.0
2856,713.75,32.6214,32.9933,134.35,109.027,110.273,,,,6.30566,-0.101128,0.0,0.0
2863,715.5,32.0446,33.2609,139.483,109.01,110.339,,,,6.29565,-0.107836,0.0,0.0
2870,717.25,32.2311,33.4712,136.731,108.996,109.939,,,,6.29565,-0.0766974,0.0,0.0
2877,719,32.1909,33.6169,141.34,109.02,110.278,,,,6.28564,-0.102183,0.0,0.0
2884,720.75,32.0236,33.4049,136.723,108.986,110.545,,,,6.28564,-0.126379,0.0,0.0
2886,721.25,32.4004,33.48,133.395,108.999,110.58,,,,6.28564,-0.128233,0.0,0.0