File: 01_Data/R13_Fiberglass_Insulation/Cone/R13_Fiberglass_Insulation_Cone_HF50Scan_220429_R2.csv
Names,Time,Stack TC,Smoke TC,Exh Press,Smoke Comp,Smoke Meas,CO Meter,CO2 Meter,O2 Meter,Sample Mass,Ext Coeff,Start Test,Flame Verif
Chan Gain,,500,500,1,1,1,1,1,1,1,1,1.0,1.0
Offset,,0,0,0.135741,0,0,0,0,0,0,0,0.0,0.0
Gain,,1,1,25.011,14.8585,16.6522,1,1,1,1.00087,1.0138,1.0,1.0
Units,sec,C,C,Pa,%,%,%,%,%,g,/m,,
Baseline,,39.032,40.1766,135.793,114.055,120.618,0.000501723,0.0486239,21.0083,-4.64674,-0.497477,,
7,1.5,36.4763,37.0073,134.642,113.832,119.129,0.00062108,0.051752,21.004,492.817,-0.404525,0.0,0.0
14,3.25,36.7574,37.7993,141.628,113.815,121.45,0.000892,0.0517951,21.0046,492.767,-0.577389,0.0,0.0
21,5,35.9619,37.2984,135.793,113.804,120.241,0.00116255,0.0526216,21.0039,492.707,-0.489341,0.0,0.0
28,6.75,36.4925,37.8598,131.916,113.793,120.734,0.00132147,0.054223,21.003,492.717,-0.526539,0.0,0.0
35,8.5,36.1861,37.9884,135.445,113.791,121.062,0.00140782,0.0555718,21.0026,492.667,-0.550793,0.0,0.0
42,10.25,36.7302,37.8455,137.083,113.787,121.04,0.00149756,0.0565933,21.0013,492.637,-0.549541,0.0,0.0
49,12,36.8541,37.6501,130.444,113.776,120.918,0.00155694,0.0572142,21.0002,492.607,-0.541389,0.0,0.0
56,13.75,36.6997,38.0218,133.056,113.775,120.653,0.00156835,0.0577099,21.0008,492.607,-0.521968,0.0,0.0
63,15.5,37.4961,37.8033,137.012,113.746,121.161,0.00164827,0.0577804,21.0011,492.607,-0.56165,0.0,0.0
70,17.25,37.5496,38.3961,135.407,113.738,120.847,0.001711,0.0574497,21.0012,492.567,-0.539172,0.0,0.0
77,19,37.2371,38.629,134.957,113.735,120.912,0.00165132,0.0567686,21.0013,492.547,-0.544204,0.0,0.0
84,20.75,37.4401,38.5862,132.124,113.724,120.257,0.00155317,0.056216,21.0013,492.557,-0.496782,0.0,0.0
91,22.5,37.6825,38.8223,134.69,113.708,120.437,0.001438,0.0556559,21.0013,492.557,-0.511244,0.0,0.0
98,24.25,38.011,38.8078,135.163,113.713,120.772,0.00135582,0.0550394,21.0016,492.537,-0.535621,0.0,0.0
105,26,37.8745,38.4317,133.784,113.691,120.822,0.00129078,0.0544859,21.0028,492.507,-0.540953,0.0,0.0
112,27.75,37.5506,39.2071,138.339,113.675,120.111,0.00123278,0.0540315,21.0034,492.487,-0.48971,0.0,0.0
119,29.5,37.928,38.6544,135.681,113.65,121.129,0.0011848,0.0535286,21.0036,492.477,-0.566781,0.0,0.0
126,31.25,37.6655,38.8323,133.28,113.653,120.881,0.00116388,0.053126,21.0038,492.497,-0.548345,0.0,0.0
133,33,37.1829,39.0808,136.938,113.641,120.91,0.00120745,0.0527548,21.0046,492.477,-0.551396,0.0,0.0
140,34.75,37.7987,39.1824,132.473,113.635,120.67,0.00120663,0.0524035,21.0054,492.457,-0.534161,0.0,0.0
147,36.5,38.4566,38.7576,133.746,113.608,120.492,0.00114658,0.0520554,21.0058,492.457,-0.523172,0.0,0.0
154,38.25,38.1679,39.0918,137.807,113.596,120.254,0.00110971,0.0516927,21.0062,492.477,-0.506488,0.0,0.0
161,40,38.04,39.1197,137.633,113.605,120.098,0.00111188,0.0514391,21.0074,492.487,-0.494343,0.0,0.0
168,41.75,37.9545,39.5625,134.612,113.584,120.75,0.00111791,0.0512576,21.008,492.407,-0.544089,0.0,0.0
175,43.5,38.4956,38.867,135.323,113.562,120.902,0.0010871,0.0511463,21.0081,492.437,-0.557012,0.0,0.0
182,45.25,37.9648,39.3125,133.373,113.55,120.258,0.00108206,0.0510466,21.0079,492.457,-0.510446,0.0,0.0
189,47,37.87,39.4257,133.679,113.546,120.524,0.00113059,0.050901,21.0077,492.427,-0.530399,0.0,0.0
196,48.75,38.1905,38.8794,138.144,113.541,120.373,0.00115092,0.0508712,21.0082,492.437,-0.519646,0.0,0.0
203,50.5,38.2289,39.3623,138.178,113.522,119.934,0.00108854,0.0507274,21.0087,492.457,-0.488643,0.0,0.0
210,52.25,38.2727,39.7636,133.353,113.488,119.733,0.00103515,0.0505779,21.0089,492.457,-0.476373,0.0,0.0
217,54,38.1981,39.1608,134.162,113.481,120.377,0.00108949,0.0504821,21.0091,492.437,-0.524601,0.0,0.0
224,55.75,38.0285,39.448,131.908,113.465,120.342,0.00118444,0.050519,21.0096,492.427,-0.52329,0.0,0.0
231,57.5,38.7607,39.5839,136.158,113.442,119.773,0.0011545,0.0505645,21.0098,492.427,-0.482944,0.0,0.0
238,59.25,38.4403,38.885,136.621,113.42,119.944,0.00105338,0.0505383,21.0099,492.407,-0.49739,0.0,0.0
245,61,38.5072,39.4233,134.606,113.408,120.782,0.000971887,0.0506586,21.01,492.417,-0.56023,0.0,0.0
252,62.75,38.2013,39.583,137.122,113.407,119.928,0.000911344,0.0508095,21.01,492.417,-0.49718,0.0,0.0
259,64.5,38.1715,39.5608,133.394,113.385,119.214,0.000889144,0.0508636,21.01,492.457,-0.445822,0.0,0.0
266,66.25,38.3377,38.7226,135.121,113.382,120.064,0.000862498,0.0508484,21.01,492.467,-0.509267,0.0,0.0
273,68,38.2732,39.2988,134.478,113.354,119.369,0.000784957,0.0507837,21.01,492.447,-0.459793,0.0,0.0
280,69.75,38.6959,39.8004,135.879,113.346,120.264,0.000724299,0.0506815,21.01,492.417,-0.526893,0.0,0.0
287,71.5,38.5051,39.5933,132.219,113.349,121.433,0.000719537,0.0504195,21.0099,492.497,-0.612658,0.0,0.0
294,73.25,38.5236,39.8616,134.517,113.322,120.089,0.000731208,0.0502766,21.0092,492.467,-0.515734,0.0,0.0
301,75,37.8341,39.1429,131.175,113.317,119.135,0.000705478,0.0500218,21.0088,492.407,-0.445279,0.0,0.0
308,76.75,38.1005,39.5214,133.811,113.295,119.974,0.000629223,0.0497519,21.0096,492.397,-0.509398,0.0,0.0
315,78.5,38.0313,39.4326,140.424,113.29,119.343,0.00055039,0.0496288,21.009,492.407,-0.46288,0.0,0.0
322,80.25,38.384,39.6233,131.303,113.272,120.677,0.000494215,0.0495094,21.0088,492.417,-0.563157,0.0,0.0
329,82,38.0927,39.6509,133.656,113.272,119.604,0.000495547,0.0493846,21.0086,492.397,-0.483783,0.0,0.0
336,83.75,38.6914,39.845,135.567,113.24,120.318,0.000574623,0.0491485,21.0088,492.397,-0.539242,0.0,0.0
343,85.5,38.1471,39.7876,132.984,113.221,120.286,0.000677623,0.0489814,21.0097,492.427,-0.538298,0.0,0.0
350,87.25,38.1365,39.0407,134.366,113.225,120.81,0.000725895,0.0488385,21.01,492.407,-0.576702,0.0,0.0
357,89,38.2807,39.3733,130.152,113.201,120.7,0.000707801,0.0487756,21.01,492.397,-0.570397,0.0,0.0
364,90.75,38.1249,39.8293,135.049,113.244,120.642,0.000698938,0.0489231,21.01,492.377,-0.562778,0.0,0.0
371,92.5,38.0024,39.6832,131.351,113.29,120.228,0.000712645,0.0489485,21.01,492.367,-0.528565,0.0,0.0
378,94.25,38.5754,39.3536,130.873,113.331,120.095,0.000716206,0.0488425,21.01,492.397,-0.515545,0.0,0.0
385,96,38.3375,39.3672,134.869,113.38,120.561,0.000702406,0.0488673,21.0099,492.397,-0.546145,0.0,0.0
392,97.75,38.6722,39.5117,136.121,113.386,121.927,0.00067749,0.0488136,21.0113,492.377,-0.645841,0.0,0.0
399,99.5,37.5733,39.1441,134.219,113.422,119.475,0.000672507,0.0488451,21.0122,492.377,-0.462367,0.0,0.0
406,101.25,37.5214,39.2,135.787,113.473,120.709,0.000632049,0.0488653,21.0126,492.367,-0.549721,0.0,0.0
413,103,38.6637,39.581,134.825,113.492,121.233,0.000581357,0.0488211,21.0128,492.367,-0.586782,0.0,0.0
420,104.75,38.3506,40.0248,137.37,113.525,121.122,0.000544177,0.0488071,21.0129,492.357,-0.576058,0.0,0.0
427,106.5,38.6156,40.0086,134.949,113.535,121.363,0.000495344,0.0488061,21.0129,492.347,-0.592944,0.0,0.0
434,108.25,38.5589,39.9624,136.313,113.551,120.237,0.000472217,0.0487995,21.0126,492.387,-0.508799,0.0,0.0
441,110,38.5505,39.8477,133.389,113.58,121.516,0.000450376,0.0487259,21.0123,492.367,-0.600597,0.0,0.0
448,111.75,38.1176,40.0271,133.39,113.586,120.377,0.000366915,0.0485314,21.0122,492.337,-0.51636,0.0,0.0
455,113.5,38.4096,39.33,134.423,113.602,119.898,0.00028505,0.0484709,21.0122,492.357,-0.479679,0.0,0.0
462,115.25,38.0211,39.5238,135.365,113.609,120.416,0.000303836,0.0483702,21.0122,492.377,-0.517475,0.0,0.0
469,117,38.6816,39.3983,131.732,113.625,120.643,0.000395281,0.0484162,21.0121,492.377,-0.532956,0.0,0.0
476,118.75,38.3159,39.8899,135.907,113.639,120.053,0.000442151,0.0484158,21.0121,492.377,-0.48826,0.0,0.0
483,120.5,38.197,39.7234,134.633,113.656,120.256,0.000388015,0.0483425,21.0121,492.367,-0.501993,0.0,0.0
490,122.25,38.319,39.8512,133.578,113.634,119.595,0.000309846,0.0482696,21.0121,492.377,-0.454631,0.0,0.0
497,124,38.3378,40.1182,136.216,113.656,120.262,0.000304761,0.0482348,21.0121,492.357,-0.502441,0.0,0.0
504,125.75,37.9713,39.3006,133.766,113.655,120.522,0.000346168,0.0481985,21.0121,492.347,-0.521696,0.0,0.0
511,127.5,38.4642,39.8034,135.061,113.655,119.713,0.000403924,0.0481155,21.0121,492.347,-0.461796,0.0,0.0
518,129.25,38.5488,39.8056,134.39,113.654,120.349,0.00047649,0.0480729,21.0121,492.367,-0.509009,0.0,0.0
525,131,38.1957,39.7506,138.474,113.658,120.746,0.000570646,0.0480286,21.0121,492.357,-0.537968,0.0,0.0
532,132.75,38.5185,39.5002,132.121,113.658,120.685,0.000556671,0.048057,21.0121,492.347,-0.533474,0.0,0.0
539,134.5,38.842,39.7921,134.149,113.669,120.764,0.000454915,0.0480005,21.0121,492.347,-0.538428,0.0,0.0
546,136.25,38.2679,39.3934,136.342,113.666,119.717,0.000382332,0.0479554,21.0121,492.347,-0.46125,0.0,0.0
553,138,38.4483,39.4076,136.374,113.637,120.465,0.000384821,0.0479519,21.0121,492.317,-0.518915,0.0,0.0
560,139.75,38.1661,39.736,136.465,113.643,119.732,0.000415088,0.0478701,21.0119,492.357,-0.464227,0.0,0.0
567,141.5,38.3457,39.7313,135.5,113.648,121.54,0.000460025,0.0478276,21.0135,492.367,-0.597056,0.0,0.0
574,143.25,38.523,39.6169,136.145,113.634,121.14,0.000481783,0.0478134,21.0145,492.357,-0.568772,0.0,0.0
581,145,38.3999,39.6898,133.55,113.615,121.367,0.00045623,0.0477547,21.015,492.367,-0.586958,0.0,0.0
588,146.75,38.4727,39.8447,135.13,113.606,120.532,0.000408534,0.047686,21.0144,492.337,-0.526279,0.0,0.0
595,148.5,38.6258,39.9317,133.13,113.609,120.246,0.000398897,0.0475951,21.0139,492.367,-0.504931,0.0,0.0
602,150.25,38.4064,39.5138,135.394,113.607,120.551,0.000421571,0.0475086,21.0148,492.327,-0.527595,0.0,0.0
609,152,38.2815,39.546,137.034,113.572,120.07,0.000422766,0.0474837,21.015,492.357,-0.494829,0.0,0.0
616,153.75,38.059,39.7949,137.62,113.557,120.409,0.000323962,0.0475199,21.0147,492.327,-0.520998,0.0,0.0
623,155.5,37.9676,39.8652,131.331,113.544,119.538,0.0001995,0.0475372,21.0143,492.357,-0.457462,0.0,0.0
630,157.25,39.0113,39.7772,135.18,113.537,119.876,0.000156805,0.0474726,21.0142,492.327,-0.483139,0.0,0.0
637,159,38.022,39.8447,132.608,113.509,119.453,0.000212744,0.047251,21.0141,492.337,-0.453881,0.0,0.0
644,160.75,38.9471,39.4319,134.146,113.474,120.575,0.000295058,0.0471956,21.0137,492.347,-0.539726,0.0,0.0
651,162.5,38.562,39.9235,135.131,113.454,120.85,0.000362067,0.0472911,21.0134,492.347,-0.561617,0.0,0.0
658,164.25,38.5331,39.3816,130.383,113.44,120.695,0.000420314,0.0473817,21.0138,492.347,-0.551307,0.0,0.0
665,166,38.7122,39.7865,135.041,113.429,119.804,0.000457081,0.0474828,21.0144,492.357,-0.486241,0.0,0.0
672,167.75,39.02,39.8308,132.705,113.382,120.025,0.000476672,0.0474743,21.0145,492.357,-0.506332,0.0,0.0
679,169.5,38.3794,39.8668,129.264,113.366,120.466,0.000449363,0.0473277,21.0147,492.337,-0.540236,0.0,0.0
686,171.25,38.3335,40.1558,136.713,113.361,121.471,0.00043953,0.0473957,21.0147,492.337,-0.614487,0.0,0.0
693,173,38.7515,40.3549,134.814,113.363,119.78,0.00047623,0.0474253,21.0147,492.337,-0.489621,0.0,0.0
700,174.75,38.7216,39.9917,136.239,113.333,121.079,0.000464879,0.0474522,21.0147,492.357,-0.587888,0.0,0.0
707,176.5,38.5442,39.5228,132.76,113.303,121.432,0.000462203,0.0474847,21.0147,492.367,-0.616177,0.0,0.0
714,178.25,38.6676,39.8017,135.258,113.287,119.825,0.000513643,0.0474096,21.0147,492.337,-0.498993,0.0,0.0
721,180,38.8699,40.0157,135.982,113.299,119.959,0.000570195,0.0474063,21.0147,492.357,-0.507945,0.0,0.0
728,181.75,38.8345,39.5782,136.072,113.252,120.444,0.000566796,0.0474721,21.0147,492.357,-0.547555,0.0,0.0
735,183.5,38.3408,40.087,134.775,113.211,120.039,0.000505384,0.0473819,21.0147,492.347,-0.520803,0.0,0.0
742,185.25,38.6822,39.8432,140.218,113.173,120.242,0.000427192,0.0473502,21.0147,492.327,-0.538806,0.0,0.0
749,187,38.9967,40.1021,133.34,113.155,120.374,0.000360393,0.047214,21.0141,492.337,-0.549961,0.0,0.0
756,188.75,38.5832,39.994,137.44,113.106,119.903,0.000295254,0.0472527,21.0134,492.357,-0.518975,0.0,0.0
763,190.5,38.8722,40.1989,135.352,113.072,119.017,0.00025917,0.0473907,21.0133,492.347,-0.455674,0.0,0.0
770,192.25,38.8738,39.731,135.291,113.02,118.633,0.000248838,0.0474451,21.0142,492.347,-0.431061,0.0,0.0
777,194,38.6811,39.9752,136.184,112.978,121.272,0.000227663,0.0474065,21.0139,492.347,-0.629964,0.0,0.0
784,195.75,38.9835,40.0888,137.171,112.943,119.933,0.000176024,0.04737,21.0138,492.317,-0.534007,0.0,0.0
791,197.5,38.8744,39.7585,136.479,112.872,119.606,0.000144089,0.0473134,21.0137,492.347,-0.515316,0.0,0.0
798,199.25,38.6193,39.9149,135.598,112.886,119.879,0.000160189,0.0472814,21.0137,492.357,-0.534513,0.0,0.0
805,201,38.63,40.1813,133.794,112.911,119.087,0.000187833,0.0472725,21.0137,492.347,-0.47358,0.0,0.0
812,202.75,38.3093,40.0734,133.95,112.938,120.096,0.000231228,0.0473154,21.0133,492.397,-0.546523,0.0,0.0
819,204.5,38.4216,40.3379,133.252,112.969,120.84,0.000352078,0.0472619,21.013,492.367,-0.599018,0.0,0.0
826,206.25,39.0379,39.8128,133.646,112.975,119.047,0.000432247,0.0472573,21.0129,492.357,-0.465585,0.0,0.0
833,208,38.7299,39.9746,138.032,113.016,119.906,0.000373285,0.0471597,21.0128,492.357,-0.526263,0.0,0.0
840,209.75,38.7121,39.9285,132.401,113.036,121.231,0.000250182,0.0471355,21.0128,492.337,-0.62245,0.0,0.0
847,211.5,38.7907,40.3822,133.103,113.079,120.568,0.000167192,0.0470581,21.0146,492.327,-0.570353,0.0,0.0
854,213.25,39.017,40.5798,140.555,113.099,119.815,0.000231983,0.0470689,21.0156,492.337,-0.512987,0.0,0.0
861,215,38.7673,39.979,135.801,113.1,119.727,0.000372139,0.0471513,21.0161,492.347,-0.506388,0.0,0.0
868,216.75,38.6572,40.4238,137.168,113.141,119.134,0.00052089,0.0470922,21.0164,492.357,-0.459058,0.0,0.0
875,218.5,38.4528,40.163,136.975,113.162,118.533,0.000593557,0.0472188,21.0165,492.347,-0.412357,0.0,0.0
882,220.25,38.7666,40.2131,134.496,113.191,119.856,0.000581072,0.0471488,21.0166,492.347,-0.508771,0.0,0.0
889,222,38.777,40.053,138.264,113.203,119.652,0.000516792,0.0471257,21.0166,492.337,-0.492674,0.0,0.0
896,223.75,38.5828,40.2134,135.196,113.236,120.13,0.000372644,0.0471397,21.0157,492.327,-0.525618,0.0,0.0
903,225.5,38.6524,40.4204,137.454,113.255,120.612,0.000272455,0.0472019,21.0153,492.317,-0.55968,0.0,0.0
910,227.25,39.0544,40.9771,136.071,113.283,120.289,0.000245009,0.0471195,21.0156,492.337,-0.533645,0.0,0.0
917,229,38.8744,40.8407,131.337,113.293,120.582,0.00027255,0.0471024,21.0157,492.337,-0.554511,0.0,0.0
924,230.75,39.0708,40.0924,133.858,113.313,119.738,0.000310113,0.0470471,21.0157,492.317,-0.490403,0.0,0.0
931,232.5,38.8424,40.5025,134.527,113.332,119.968,0.00030377,0.0469086,21.0157,492.317,-0.506027,0.0,0.0
938,234.25,38.6913,40.3919,133.955,113.384,120.557,0.000297669,0.0469998,21.015,492.317,-0.545561,0.0,0.0
945,236,38.9086,40.4954,132.272,113.393,119.79,0.000280463,0.0470377,21.0145,492.317,-0.488064,0.0,0.0
952,237.75,38.6397,40.3046,136.189,113.41,121.271,0.000294241,0.0471661,21.0143,492.327,-0.59601,0.0,0.0
959,239.5,38.7685,40.3899,134.232,113.433,121.172,0.000352143,0.0472716,21.0142,492.337,-0.586927,0.0,0.0
966,241.25,38.9501,40.3814,133.101,113.468,121.294,0.000468287,0.0472815,21.0137,492.327,-0.593137,0.0,0.0
973,243,39.2418,40.3904,133.049,113.488,120.101,0.000565548,0.0472215,21.0127,492.307,-0.503694,0.0,0.0
980,244.75,39.1334,40.1669,132.067,113.503,119.772,0.000577812,0.0471481,21.0122,492.317,-0.478106,0.0,0.0
987,246.5,38.9767,40.1957,139.785,113.5,120.17,0.000531891,0.0472087,21.012,492.317,-0.50785,0.0,0.0
994,248.25,38.8299,40.4287,133.335,113.546,120.275,0.000451974,0.047168,21.0125,492.297,-0.511973,0.0,0.0
1001,250,38.4016,40.7276,132.641,113.569,120.243,0.00043016,0.0471692,21.0133,492.307,-0.507828,0.0,0.0
1008,251.75,38.8608,39.9155,134.588,113.59,120.169,0.000423124,0.0471555,21.0137,492.307,-0.500706,0.0,0.0
1015,253.5,38.8013,40.3913,133.571,113.604,120.166,0.000386795,0.0472616,21.0133,492.317,-0.499382,0.0,0.0
1022,255.25,38.6768,40.5913,135.079,113.609,120.435,0.000385841,0.0473217,21.0121,492.317,-0.518901,0.0,0.0
1029,257,38.3694,40.2605,133.793,113.619,120.369,0.000417906,0.0472941,21.0124,492.337,-0.513205,0.0,0.0
1036,258.75,38.7489,40.1774,137.239,113.639,120.332,0.000500823,0.0471738,21.0127,492.317,-0.508939,0.0,0.0
1043,260.5,39.0775,39.9346,134.414,113.637,120.222,0.000512594,0.0470684,21.0129,492.347,-0.500927,0.0,0.0
1050,262.25,38.8511,40.1793,135.313,113.644,121.074,0.000461179,0.0470933,21.013,492.317,-0.563248,0.0,0.0
1057,264,38.7771,40.4419,132.163,113.666,120.748,0.00039321,0.0470576,21.0131,492.327,-0.537513,0.0,0.0
1064,265.75,38.7869,40.344,135.053,113.673,120.876,0.00027769,0.0471015,21.0142,492.317,-0.546373,0.0,0.0
1071,267.5,38.7095,40.334,133.844,113.679,121.323,0.000151756,0.0471608,21.0148,492.317,-0.578679,0.0,0.0
1078,269.25,38.6756,40.0849,139.503,113.679,120.274,0.000202556,0.0471018,21.0144,492.347,-0.501533,0.0,0.0
1085,271,38.3714,40.5763,139.212,113.694,119.604,0.000334859,0.0470976,21.0142,492.327,-0.450663,0.0,0.0
1092,272.75,38.7375,40.3544,135.29,113.716,120.507,0.000440082,0.0470723,21.014,492.317,-0.515854,0.0,0.0
1099,274.5,38.8174,40.4162,134.303,113.693,120.982,0.000471733,0.0470052,21.0146,492.327,-0.552587,0.0,0.0
1106,276.25,38.9402,40.1383,131.476,113.689,121.363,0.000481697,0.047054,21.0155,492.307,-0.580878,0.0,0.0
1113,278,38.8547,39.9841,133.931,113.698,121.619,0.000508194,0.0469763,21.0159,492.317,-0.598915,0.0,0.0
1120,279.75,38.7972,40.3873,135.666,113.701,120.376,0.000516234,0.0468668,21.015,492.307,-0.507308,0.0,0.0
1127,281.5,38.8637,39.9916,133.864,113.721,121.328,0.000438161,0.0468179,21.0143,492.327,-0.575862,0.0,0.0
1134,283.25,39.058,41.1635,134.543,113.734,122.063,0.000289445,0.0467752,21.0145,492.307,-0.628459,0.0,0.0
1141,285,38.8476,40.176,134.994,113.731,120.976,0.000180801,0.0467502,21.0145,492.357,-0.549122,0.0,0.0
1148,286.75,38.6864,40.1524,140.089,113.738,119.838,0.000149454,0.0467583,21.0142,492.377,-0.464625,0.0,0.0
1155,288.5,38.8708,40.2858,135.956,113.727,120.286,0.000151753,0.046698,21.0134,492.347,-0.498638,0.0,0.0
1162,290.25,38.7411,40.367,135.375,113.739,121.085,0.000179114,0.0466878,21.0124,492.327,-0.556621,0.0,0.0
1169,292,38.9946,40.4919,135.384,113.731,120.13,0.000224968,0.0468984,21.012,492.357,-0.486742,0.0,0.0
1176,293.75,38.9998,40.2132,132.66,113.748,120.89,0.000229346,0.0469299,21.0118,492.347,-0.54153,0.0,0.0
1183,295.5,39.013,40.4536,134.576,113.756,120.241,0.000214095,0.0469012,21.012,492.337,-0.493027,0.0,0.0
1190,297.25,38.9694,40.6866,132.558,113.748,120.439,0.00019437,0.0468669,21.0122,492.327,-0.508274,0.0,0.0
1197,299,39.4457,40.8499,135.6,113.741,120.699,0.000170537,0.046934,21.0123,492.327,-0.528033,0.0,0.0
1204,300.75,39.144,40.6966,134.424,113.738,120.581,0.000218188,0.0469455,21.0124,492.337,-0.519552,0.0,0.0
1211,302.5,39.0732,40.451,135.841,113.771,121.955,0.00028029,0.0469741,21.0126,492.307,-0.617737,0.0,0.0
1218,304.25,39.0478,40.3672,135.921,113.763,121.089,0.00025219,0.0469445,21.0128,492.307,-0.554968,0.0,0.0
1225,306,38.9895,40.4853,134.024,113.772,120.647,0.000194356,0.0469111,21.013,492.327,-0.521802,0.0,0.0
1232,307.75,38.8855,40.3996,134.019,113.772,120.517,0.000159905,0.0468535,21.013,492.357,-0.512208,0.0,0.0
1239,309.5,39.0153,40.6832,134.328,113.767,120.541,0.000154096,0.046897,21.0131,492.347,-0.51436,0.0,0.0
1246,311.25,39.0172,40.8002,136.796,113.773,119.665,0.000169264,0.0469588,21.0131,492.337,-0.449029,0.0,0.0
1253,313,38.7333,40.5195,138.151,113.785,120.809,0.00021751,0.0470189,21.0131,492.337,-0.532751,0.0,0.0
1260,314.75,38.8155,40.7051,136.979,113.769,121.341,0.00025659,0.0468971,21.0131,492.367,-0.573072,0.0,0.0
1267,316.5,39.0283,40.7322,137.084,113.774,121.081,0.000252125,0.0469124,21.0131,492.347,-0.553593,0.0,0.0
1274,318.25,39.0545,40.2934,134.632,113.78,120.904,0.000233132,0.046894,21.0125,492.327,-0.540134,0.0,0.0
1281,320,38.9518,40.699,139.253,113.794,121.079,0.000177509,0.0468764,21.0116,492.347,-0.551848,0.0,0.0
1288,321.75,39.0726,40.8108,132.256,113.78,120.341,7.36772e-05,0.0468544,21.0112,492.337,-0.498583,0.0,0.0
1295,323.5,39.331,40.3168,135.493,113.784,120.419,9.09782e-05,0.0469793,21.012,492.327,-0.503973,0.0,0.0
1302,325.25,38.6231,40.5368,134.179,113.775,119.975,0.000248724,0.0470655,21.0125,492.347,-0.47186,0.0,0.0
1309,327,39.2011,40.8284,137.649,113.793,119.929,0.000476997,0.0470939,21.0122,492.337,-0.467012,0.0,0.0
1316,328.75,39.0574,40.1362,133.611,113.791,121.176,0.000570178,0.0471068,21.0119,492.327,-0.559186,0.0,0.0
1323,330.5,38.7737,40.6244,134.814,113.785,121.594,0.000493106,0.0470868,21.0117,492.337,-0.590288,0.0,0.0
1330,332.25,39.1163,40.5628,132.537,113.778,120.557,0.00036783,0.0471247,21.0116,492.347,-0.514709,0.0,0.0
1337,334,38.9784,40.5508,136.118,113.786,120.926,0.000311283,0.0471345,21.0116,492.317,-0.541209,0.0,0.0
1344,335.75,39.1224,40.3582,132.208,113.788,121.275,0.000277835,0.0471836,21.0116,492.337,-0.566703,0.0,0.0
1351,337.5,39.2715,40.6133,136.597,113.78,121.044,0.000244247,0.0471789,21.0119,492.327,-0.550299,0.0,0.0
1358,339.25,39.0296,40.1758,133.01,113.764,119.939,0.000235915,0.0472461,21.0122,492.337,-0.470068,0.0,0.0
1365,341,38.9311,40.4826,134.678,113.761,120.224,0.000264178,0.0472405,21.0123,492.337,-0.491433,0.0,0.0
1372,342.75,38.3246,40.7101,133.949,113.771,120.089,0.00031913,0.047271,21.0124,492.337,-0.480648,0.0,0.0
1379,344.5,38.915,40.7955,137.174,113.772,120.449,0.000345412,0.047282,21.0124,492.357,-0.507109,0.0,0.0
1386,346.25,39.0616,40.6489,134.134,113.744,119.905,0.000346086,0.0473729,21.0124,492.357,-0.469068,0.0,0.0
1393,348,38.8445,40.5381,138.304,113.75,120.726,0.000303246,0.0473558,21.0124,492.347,-0.529381,0.0,0.0
1400,349.75,39.1906,40.4547,135.994,113.747,120.513,0.000330563,0.0473162,21.0133,492.357,-0.513784,0.0,0.0
1407,351.5,39.0624,40.7903,135.907,113.751,121.426,0.000357461,0.047314,21.0139,492.317,-0.580599,0.0,0.0
1414,353.25,38.9437,40.5982,137.673,113.712,121.017,0.000343927,0.0473257,21.0142,492.347,-0.55371,0.0,0.0
1421,355,38.7642,40.2158,133.966,113.693,120.328,0.000278111,0.0473162,21.0143,492.357,-0.504381,0.0,0.0
1428,356.75,38.8183,40.364,135.515,113.692,120.887,0.000244044,0.0473645,21.0143,492.347,-0.545668,0.0,0.0
1435,358.5,38.2925,40.6734,133.569,113.692,120.506,0.000306785,0.04741,21.0143,492.327,-0.517587,0.0,0.0
1442,360.25,39.1949,39.9491,137.48,113.666,121.34,0.000357816,0.0473902,21.0139,492.337,-0.581047,0.0,0.0
1449,362,38.8504,40.3183,134.303,113.648,120.288,0.000316234,0.0473762,21.0137,492.347,-0.504996,0.0,0.0
1456,363.75,38.81,40.2242,132.863,113.629,121.347,0.000201757,0.0473368,21.0136,492.327,-0.58437,0.0,0.0
1463,365.5,39.4789,40.1686,139.554,113.621,121.64,0.000101771,0.0473427,21.0136,492.307,-0.606435,0.0,0.0
1470,367.25,38.7846,40.7236,139.573,113.618,120.976,5.35266e-05,0.0473374,21.0136,492.307,-0.558064,0.0,0.0
1477,369,38.9015,40.5652,136.115,113.59,119.838,2.91488e-05,0.0473545,21.0137,492.297,-0.476118,0.0,0.0
1484,370.75,38.9997,40.1414,133.997,113.579,120.563,3.69029e-05,0.0473807,21.0141,492.307,-0.530658,0.0,0.0
1491,372.5,38.6551,40.3626,136.45,113.555,120.934,0.000129561,0.0473851,21.014,492.307,-0.559935,0.0,0.0
1498,374.25,39.4242,40.5297,136.103,113.544,120.166,0.000182831,0.0473528,21.0139,492.307,-0.504104,0.0,0.0
1505,376,38.9041,40.2285,135.97,113.522,119.707,0.000122489,0.0472377,21.0138,492.317,-0.471783,0.0,0.0
1512,377.75,39.2342,40.7675,139.478,113.495,120.083,3.27532e-05,0.0472364,21.0138,492.317,-0.501771,0.0,0.0
1519,379.5,39.2572,40.3478,132.494,113.474,121.093,-4.02666e-05,0.0472127,21.0137,492.317,-0.577874,0.0,0.0
1526,381.25,39.1738,40.9912,133.45,113.459,120.221,-2.54338e-05,0.0473139,21.0133,492.297,-0.514809,0.0,0.0
1533,383,39.325,40.5218,132.942,113.434,121.154,0.000108814,0.0473202,21.0131,492.307,-0.585552,0.0,0.0
1540,384.75,38.953,40.4612,141.511,113.42,120.779,0.00020383,0.0472122,21.013,492.307,-0.559081,0.0,0.0
1547,386.5,39.4203,40.4749,135.901,113.377,119.511,0.00020601,0.0472059,21.0129,492.327,-0.468573,0.0,0.0
1554,388.25,39.3858,40.3986,133.66,113.358,120.022,0.000148468,0.0471719,21.0129,492.317,-0.507992,0.0,0.0
1561,390,39.162,41.0317,137.949,113.33,119.441,0.00012248,0.0471623,21.0131,492.327,-0.46709,0.0,0.0
1568,391.75,39.154,40.2059,133.575,113.298,120.273,0.000215059,0.047142,21.0125,492.327,-0.531306,0.0,0.0
1575,393.5,39.1376,40.345,135.205,113.29,119.953,0.000268743,0.0470929,21.0119,492.337,-0.508169,0.0,0.0
1582,395.25,38.7956,40.6687,132.745,113.239,119.836,0.000209019,0.0471285,21.0125,492.337,-0.503558,0.0,0.0
1589,397,39.2539,40.7662,131.994,113.234,120.427,0.000141001,0.0472028,21.0131,492.317,-0.547739,0.0,0.0
1596,398.75,39.0695,39.9375,134.741,113.192,119.966,0.000183441,0.0473102,21.0135,492.317,-0.516914,0.0,0.0
1603,400.5,39.0192,40.5482,135.752,113.159,120.08,0.000323558,0.047276,21.0134,492.337,-0.527912,0.0,0.0
1610,402.25,38.9598,40.6115,132.727,113.142,120.302,0.000396256,0.0471894,21.0132,492.337,-0.545626,0.0,0.0
1617,404,39.3657,40.6073,135.56,113.135,119.957,0.000363666,0.0472279,21.013,492.307,-0.520652,0.0,0.0
1624,405.75,39.349,40.5891,133.048,113.099,120.3,0.000332812,0.0472577,21.0129,492.307,-0.5489,0.0,0.0
1631,407.5,39.3915,40.666,136.378,113.081,118.843,0.000348848,0.0472792,21.0129,492.317,-0.441963,0.0,0.0
1638,409.25,39.3371,40.3873,137.285,113.041,120.588,0.000372526,0.0472918,21.0129,492.317,-0.57474,0.0,0.0
1645,411,38.8216,40.2328,133.728,113.002,120.577,0.000385905,0.0472506,21.0129,492.337,-0.576984,0.0,0.0
1652,412.75,38.6068,40.6031,134.844,112.986,119.683,0.000377531,0.0471238,21.0129,492.337,-0.512059,0.0,0.0
1659,414.5,39.0544,40.2994,134.017,112.962,118.938,0.000297165,0.0471318,21.0129,492.337,-0.45842,0.0,0.0
1666,416.25,38.9621,40.1593,134.61,112.927,120.06,0.000162899,0.0470991,21.0129,492.347,-0.544708,0.0,0.0
1673,418,39.2355,40.1736,138.7,112.893,119.781,5.25388e-05,0.0470899,21.0129,492.307,-0.526735,0.0,0.0
1680,419.75,39.1291,40.2723,136.322,112.875,119.131,4.36785e-05,0.0471036,21.0125,492.327,-0.47974,0.0,0.0
1687,421.5,38.8922,40.5726,133.359,112.863,118.986,0.000134465,0.0470359,21.0123,492.327,-0.469849,0.0,0.0
1694,423.25,38.957,40.2946,134.595,112.826,119.862,0.000251544,0.0470152,21.0122,492.357,-0.537946,0.0,0.0
1701,425,39.3155,40.297,131.625,112.793,120.007,0.000327124,0.0469925,21.0121,492.337,-0.551334,0.0,0.0
1708,426.75,38.5847,40.1965,133.859,112.79,120.167,0.000344217,0.0469817,21.0121,492.317,-0.563439,0.0,0.0
1715,428.5,39.0871,40.2259,140.155,112.784,119.919,0.000343041,0.0469023,21.0121,492.317,-0.545494,0.0,0.0
1722,430.25,38.569,40.3005,134.746,112.754,120.607,0.000383675,0.0470001,21.0121,492.347,-0.598736,0.0,0.0
1729,432,38.9821,40.1866,137.941,112.729,119.687,0.000434819,0.0468694,21.0122,492.347,-0.532656,0.0,0.0
1736,433.75,39.0767,40.1092,131.189,112.711,121,0.000419177,0.0468232,21.0126,492.347,-0.631088,0.0,0.0
1743,435.5,38.5864,40.436,136.822,112.708,120.061,0.000361497,0.0467934,21.0127,492.347,-0.562012,0.0,0.0
1750,437.25,38.9142,40.2759,136.648,112.689,119.667,0.000351536,0.04685,21.0128,492.327,-0.534297,0.0,0.0
1757,439,38.6751,40.6636,130.335,112.66,119.619,0.000417869,0.046827,21.0129,492.317,-0.532996,0.0,0.0
1764,440.75,38.8493,40.2575,139.12,112.633,119.956,0.000462903,0.0468588,21.0129,492.327,-0.560158,0.0,0.0
1771,442.5,38.6717,39.9844,132.302,112.636,119.099,0.000450541,0.0467872,21.0141,492.357,-0.496195,0.0,0.0
1778,444.25,38.9541,40.6371,136.124,112.624,118.73,0.000388578,0.0467846,21.0135,492.347,-0.469537,0.0,0.0
1785,446,38.9457,40.7679,137.218,112.612,119.616,0.000313355,0.0468684,21.014,492.337,-0.536565,0.0,0.0
1792,447.75,38.6928,40.7337,135.755,112.591,119.776,0.000275841,0.0469795,21.0146,492.327,-0.550105,0.0,0.0
1799,449.5,39.6435,39.8245,133.579,112.58,119.891,0.000294374,0.0471394,21.0147,492.327,-0.559524,0.0,0.0
1806,451.25,38.9921,40.4598,136.103,112.588,120.313,0.00033898,0.0472207,21.0137,492.307,-0.590112,0.0,0.0
1813,453,38.7842,40.6007,134.351,112.572,119.501,0.000389984,0.0472003,21.0134,492.337,-0.531138,0.0,0.0
1820,454.75,38.4241,40.7373,132.051,112.566,118.889,0.00044419,0.0471683,21.0136,492.357,-0.485989,0.0,0.0
1827,456.5,39.2894,39.9522,135.262,112.568,119.324,0.000503623,0.0473136,21.0147,492.347,-0.518289,0.0,0.0
1834,458.25,38.8886,40.7556,136.417,112.565,119.044,0.000553897,0.0472111,21.0154,492.357,-0.497721,0.0,0.0
1841,460,39.2037,40.1583,136.763,112.56,118.79,0.000470815,0.0472612,21.0158,492.327,-0.479077,0.0,0.0
1848,461.75,39.207,39.9701,136.842,112.561,118.923,0.000253779,0.0472508,21.0151,492.327,-0.48893,0.0,0.0
1855,463.5,38.7744,40.5041,132.541,112.576,119.819,-7.24881e-06,0.0473153,21.0144,492.337,-0.554531,0.0,0.0
1862,465.25,38.6564,40.5328,137.125,112.566,119.661,-0.000149413,0.0474017,21.0143,492.337,-0.543544,0.0,0.0
1869,467,38.8895,40.3051,134.277,112.567,119.065,-0.000153811,0.0475106,21.0147,492.307,-0.499096,0.0,0.0
1876,468.75,38.9993,40.349,134.539,112.586,119.65,-6.11413e-05,0.0476009,21.0149,492.327,-0.541173,0.0,0.0
1883,470.5,38.4399,40.1492,134.538,112.55,119.296,4.2529e-05,0.047626,21.015,492.317,-0.517639,0.0,0.0
1890,472.25,39.0342,40.7157,134.359,112.571,119.39,9.81116e-05,0.0476041,21.015,492.327,-0.523032,0.0,0.0
1897,474,39.1319,39.8398,138.104,112.575,118.789,0.000127673,0.0475624,21.015,492.297,-0.477819,0.0,0.0
1904,475.75,39.045,40.3213,134.539,112.575,119.414,0.000167896,0.04762,21.015,492.307,-0.524489,0.0,0.0
1911,477.5,39.322,39.9519,139.043,112.562,119.79,0.000166482,0.0475277,21.015,492.337,-0.553492,0.0,0.0
1918,479.25,38.9567,40.1942,134.799,112.561,119.682,0.000169633,0.0473707,21.015,492.327,-0.545522,0.0,0.0
1925,481,38.7662,40.0099,134.997,112.563,119.1,0.00026828,0.047284,21.015,492.317,-0.502039,0.0,0.0
1932,482.75,38.778,40.4854,133.809,112.567,118.989,0.000407038,0.0472267,21.015,492.337,-0.493367,0.0,0.0
1939,484.5,38.9217,40.3164,132.496,112.576,119.412,0.000436625,0.0473197,21.015,492.327,-0.524268,0.0,0.0
1946,486.25,38.8733,40.0002,135.25,112.56,118.991,0.000322142,0.0473661,21.015,492.317,-0.494054,0.0,0.0
1953,488,39.5635,40.0857,135.958,112.556,119.658,0.000158722,0.047456,21.015,492.337,-0.544143,0.0,0.0
1960,489.75,39.1319,40.0671,134.736,112.576,119.091,6.60778e-05,0.0474675,21.0145,492.317,-0.500352,0.0,0.0
1967,491.5,38.5638,39.9393,134.504,112.571,118.999,4.81222e-05,0.0473781,21.0141,492.317,-0.493875,0.0,0.0
1974,493.25,38.6587,40.5185,137.783,112.548,119.07,5.05228e-05,0.0473179,21.0139,492.327,-0.50098,0.0,0.0
1981,495,38.6159,40.0736,134.267,112.554,119.104,9.59779e-05,0.0473276,21.0138,492.337,-0.502985,0.0,0.0
1988,496.75,38.9425,40.2564,132.67,112.574,118.879,0.000162633,0.0472672,21.0138,492.337,-0.484584,0.0,0.0
1995,498.5,38.4131,40.3602,135.438,112.561,119.372,0.000135339,0.0471904,21.0138,492.337,-0.52246,0.0,0.0
2002,500.25,38.9285,40.6415,137.738,112.548,118.506,1.24975e-05,0.0471061,21.0138,492.317,-0.458717,0.0,0.0
2009,502,39.0465,40.3332,134.369,112.539,120.374,-7.06021e-05,0.0471339,21.0138,492.327,-0.598488,0.0,0.0
2016,503.75,38.8824,40.5911,133.724,112.534,119.089,-2.54219e-05,0.0471824,21.0145,492.357,-0.503497,0.0,0.0
2023,505.5,38.5892,40.7468,135.01,112.54,118.83,5.56166e-05,0.0470693,21.0153,492.327,-0.483694,0.0,0.0
2030,507.25,39.0533,40.3535,141.42,112.533,118.746,9.5043e-05,0.0470572,21.0157,492.347,-0.477878,0.0,0.0
2037,509,38.9201,40.3058,137.442,112.541,119.904,0.000132731,0.0469843,21.0159,492.337,-0.563622,0.0,0.0
2044,510.75,38.9097,40.249,132.673,112.541,119.237,0.000159196,0.0468796,21.0155,492.317,-0.51396,0.0,0.0
2051,512.5,39.2431,40.114,136.493,112.532,120.4,0.00018418,0.0467564,21.0153,492.327,-0.600976,0.0,0.0
2058,514.25,38.7977,39.826,135.796,112.531,118.894,0.000280423,0.0467339,21.0153,492.327,-0.489128,0.0,0.0
2065,516,38.6897,40.46,136.272,112.523,119.036,0.00043556,0.0466807,21.0154,492.337,-0.50041,0.0,0.0
2072,517.75,38.9087,40.1568,132.264,112.524,119.075,0.000540599,0.0465813,21.0154,492.357,-0.503297,0.0,0.0
2079,519.5,38.9707,40.7092,135.502,112.508,118.552,0.000580744,0.0465355,21.0154,492.327,-0.465375,0.0,0.0
2086,521.25,38.9147,40.3737,135.449,112.502,119.332,0.000534475,0.0466004,21.0154,492.337,-0.524127,0.0,0.0
2093,523,39.1405,40.2672,135.685,112.51,118.467,0.000493448,0.0467719,21.0154,492.317,-0.458826,0.0,0.0
2100,524.75,38.651,40.6963,136.8,112.495,119.494,0.000568521,0.0468782,21.0154,492.317,-0.5367,0.0,0.0
2107,526.5,38.6603,40.2228,130.966,112.484,120.158,0.000623564,0.046929,21.0154,492.317,-0.58689,0.0,0.0
2114,528.25,38.6933,40.1166,136.642,112.498,118.391,0.000571522,0.0468789,21.0154,492.337,-0.454033,0.0,0.0
2121,530,38.7904,40.3452,137.357,112.487,118.198,0.000438804,0.0468345,21.0154,492.337,-0.440412,0.0,0.0
2128,531.75,39.1298,40.3537,133.434,112.468,118.695,0.000364628,0.0467704,21.0154,492.337,-0.479198,0.0,0.0
2135,533.5,38.9346,40.2304,132.631,112.47,118.795,0.000337407,0.0468665,21.0154,492.307,-0.486516,0.0,0.0
2142,535.25,38.6874,40.61,136.413,112.481,119.55,0.000355149,0.0468643,21.0149,492.327,-0.54197,0.0,0.0
2149,537,38.6487,40.3308,133.738,112.465,119.303,0.000409096,0.046777,21.0143,492.317,-0.524908,0.0,0.0
2156,538.75,39.2747,40.4027,134.41,112.473,118.899,0.000414129,0.0467401,21.014,492.337,-0.494096,0.0,0.0
2163,540.5,38.9913,40.3678,133.543,112.468,119.112,0.000309919,0.04675,21.0139,492.327,-0.510476,0.0,0.0
2170,542.25,39.0054,40.2727,134.488,112.462,120.095,0.000187506,0.0468286,21.0138,492.327,-0.583946,0.0,0.0
2177,544,39.1105,40.5796,134.413,112.465,119.608,0.000159264,0.0468574,21.0138,492.337,-0.547607,0.0,0.0
2184,545.75,39.0067,40.8377,135.642,112.455,119.583,0.000163745,0.0468695,21.0138,492.337,-0.546509,0.0,0.0
2191,547.5,39.3818,40.2406,134.813,112.46,117.831,0.000162744,0.0469921,21.0136,492.337,-0.414879,0.0,0.0
2198,549.25,39.0557,40.1496,138.12,112.451,119.336,0.000196028,0.047034,21.0132,492.327,-0.528517,0.0,0.0
2205,551,38.9956,40.4739,134.962,112.461,119.376,0.000306809,0.0470949,21.013,492.327,-0.530648,0.0,0.0
2212,552.75,39.4346,40.4055,135.31,112.454,119.972,0.000363927,0.0470563,21.013,492.347,-0.575518,0.0,0.0
2219,554.5,38.6231,40.8002,136.881,112.461,119.241,0.000314043,0.0470758,21.0129,492.357,-0.520569,0.0,0.0
2226,556.25,39.1207,40.6123,133.045,112.454,118.277,0.000218464,0.047072,21.0129,492.337,-0.448992,0.0,0.0
2233,558,39.2115,41.1394,137.222,112.459,118.387,0.00012694,0.0471522,21.0129,492.347,-0.456885,0.0,0.0
2240,559.75,39.3269,40.5431,137.593,112.448,118.898,0.000159344,0.0472087,21.0139,492.327,-0.495992,0.0,0.0
2247,561.5,39.4702,39.8802,135.026,112.448,119.366,0.000260245,0.0471874,21.0145,492.337,-0.530967,0.0,0.0
2254,563.25,39.0394,40.1811,132.485,112.43,118.349,0.000391177,0.0471385,21.0148,492.337,-0.456243,0.0,0.0
2261,565,38.7979,40.3048,137.492,112.435,120.192,0.000581893,0.0470551,21.0149,492.327,-0.593282,0.0,0.0
2268,566.75,39.4647,40.2157,136.555,112.441,119.324,0.000744938,0.0468134,21.015,492.317,-0.528361,0.0,0.0
2275,568.5,38.9626,40.704,135.851,112.44,119.048,0.000769908,0.0467809,21.0149,492.317,-0.507881,0.0,0.0
2282,570.25,38.8367,40.9878,140.471,112.427,119.107,0.000719203,0.04682,21.0145,492.317,-0.51325,0.0,0.0
2289,572,38.9015,40.8717,138.256,112.422,119.13,0.000649621,0.0469657,21.0143,492.297,-0.515388,0.0,0.0
2296,573.75,38.7838,40.2145,136.726,112.44,117.825,0.000506353,0.0469817,21.0143,492.297,-0.416071,0.0,0.0
2303,575.5,39.2371,40.1244,136.284,112.438,118.859,0.000363884,0.0470035,21.0154,492.317,-0.493927,0.0,0.0
2310,577.25,39.2561,40.6637,138.857,112.439,120.13,0.000389232,0.0470562,21.016,492.317,-0.588371,0.0,0.0
2317,579,38.9101,40.1477,138.73,112.422,119.211,0.000500842,0.0470288,21.0163,492.297,-0.521382,0.0,0.0
2324,580.75,39.0753,40.4727,130.989,112.425,118.714,0.000555581,0.0468599,21.016,492.317,-0.484049,0.0,0.0
2331,582.5,39.0118,40.0893,129.479,112.431,119.182,0.000368368,0.0468444,21.0151,492.327,-0.51854,0.0,0.0
2338,584.25,39.4539,40.3455,135.404,112.446,119.348,0.000195113,0.0469514,21.0147,492.317,-0.529749,0.0,0.0
2345,586,38.5466,40.5115,135.22,112.438,118.794,0.000286929,0.0470454,21.0146,492.307,-0.489059,0.0,0.0
2352,587.75,38.6109,40.4812,138.441,112.437,119.266,0.000505613,0.0470327,21.0145,492.337,-0.524367,0.0,0.0
2359,589.5,39.1839,40.3135,136.993,112.431,119.575,0.000613633,0.0470484,21.0146,492.307,-0.54784,0.0,0.0
2366,591.25,38.4783,40.3878,130.275,112.427,119.307,0.000602725,0.0470589,21.0149,492.327,-0.528186,0.0,0.0
2373,593,38.9107,39.5034,133,112.436,119.065,0.000540498,0.0470771,21.0151,492.337,-0.509421,0.0,0.0
2380,594.75,39.3706,39.7626,134.559,112.434,118.828,0.000474555,0.0470814,21.0152,492.317,-0.491895,0.0,0.0
2387,596.5,38.6586,40.762,134.887,112.442,119.728,0.000344289,0.0470202,21.0152,492.317,-0.558312,0.0,0.0
2394,598.25,38.7918,40.3825,134.096,112.466,118.692,0.000204197,0.0469264,21.0152,492.317,-0.479112,0.0,0.0
2401,600,38.8902,39.8929,132.932,112.436,118.88,0.000138005,0.0468666,21.0153,492.317,-0.495556,0.0,0.0
2408,601.75,37.8982,40.3159,135.756,112.432,118.573,0.000186937,0.046861,21.0153,492.327,-0.472888,0.0,0.0
2415,603.5,39.2447,40.5551,138.405,112.436,118.974,0.000272536,0.0468232,21.0153,492.327,-0.502624,0.0,0.0
2422,605.25,38.671,40.2843,136.4,112.457,118.71,0.000344318,0.0468665,21.0151,492.337,-0.481198,0.0,0.0
2429,607,39.0019,40.2752,135.122,112.451,118.472,0.000468902,0.0469234,21.0147,492.327,-0.463832,0.0,0.0
2436,608.75,38.8292,40.1207,136.182,112.457,118.53,0.000568313,0.0469507,21.0146,492.327,-0.467675,0.0,0.0
2443,610.5,38.9391,40.5011,139.05,112.448,119.526,0.000529553,0.0470228,21.0144,492.347,-0.54281,0.0,0.0
2450,612.25,38.9671,39.8201,131.518,112.454,119.108,0.000397986,0.047011,21.0139,492.327,-0.51121,0.0,0.0
2457,614,38.6792,40.1908,133.047,112.459,118.225,0.000259584,0.0470172,21.0137,492.327,-0.444625,0.0,0.0
2464,615.75,39.0848,40.1831,135.071,112.457,119.511,0.000223165,0.0469167,21.0136,492.317,-0.540997,0.0,0.0
2471,617.5,38.5108,39.8116,135.971,112.452,118.615,0.000309704,0.0469356,21.0136,492.327,-0.474511,0.0,0.0
2478,619.25,38.6476,40.379,133.109,112.493,118.565,0.000424774,0.0469906,21.0136,492.327,-0.467547,0.0,0.0
2485,621,39.0058,40.0384,132.983,112.472,118.559,0.00054498,0.0469881,21.0136,492.337,-0.4687,0.0,0.0
2492,622.75,38.8629,40.1993,137.393,112.467,119.455,0.000590425,0.0471542,21.014,492.327,-0.536047,0.0,0.0
2499,624.5,38.8376,40.1695,135.895,112.473,118.152,0.000458611,0.0471978,21.0142,492.327,-0.438008,0.0,0.0
2506,626.25,38.7499,40.1118,134.765,112.471,118.633,0.000307123,0.0471949,21.0143,492.337,-0.474374,0.0,0.0
2513,628,39.003,39.9758,138.506,112.475,118.826,0.000158683,0.047192,21.0144,492.307,-0.488478,0.0,0.0
2520,629.75,38.412,40.1871,135.159,112.485,119.284,0.000117963,0.0472135,21.0144,492.327,-0.521893,0.0,0.0
2527,631.5,38.5928,39.9818,136.891,112.505,118.833,0.000175561,0.0472152,21.0144,492.327,-0.486609,0.0,0.0
2534,633.25,38.4421,39.8688,134.326,112.497,119.399,0.000306763,0.0471264,21.0139,492.317,-0.529517,0.0,0.0
2541,635,38.5888,40.1886,138.476,112.499,119.28,0.000435678,0.0470689,21.0137,492.317,-0.520478,0.0,0.0
2548,636.75,38.5904,40.5343,136.493,112.509,118.878,0.000525718,0.0471072,21.0136,492.297,-0.489742,0.0,0.0
2555,638.5,38.5449,39.9849,129.966,112.54,119.13,0.000548476,0.0471743,21.0136,492.337,-0.506067,0.0,0.0
2562,640.25,38.4515,40.1547,133.476,112.516,120.582,0.00054075,0.0470853,21.0136,492.307,-0.615657,0.0,0.0
2569,642,38.8881,40.2064,134.79,112.521,118.603,0.000464895,0.047131,21.0135,492.337,-0.468183,0.0,0.0
2576,643.75,38.5976,40.1436,136.7,112.543,119.099,0.000392128,0.0472066,21.0135,492.337,-0.503575,0.0,0.0
2583,645.5,38.8122,40.2384,134.562,112.559,118.871,0.000367568,0.0470656,21.0135,492.337,-0.485232,0.0,0.0
2590,647.25,38.5668,40.0082,137.271,112.553,118.991,0.000344198,0.0469985,21.0135,492.347,-0.494591,0.0,0.0
2597,649,38.7841,40.4121,131.766,112.573,118.692,0.000232874,0.0470913,21.0135,492.337,-0.47069,0.0,0.0
2604,650.75,38.9376,40.1303,132.309,112.575,119.466,0.00012702,0.0471204,21.0135,492.317,-0.528348,0.0,0.0
2611,652.5,38.6941,40.1189,135.077,112.597,119.148,5.43356e-05,0.0470414,21.014,492.357,-0.502919,0.0,0.0
2618,654.25,38.7196,40.6213,135.226,112.611,119.15,5.66186e-05,0.046987,21.0147,492.337,-0.501996,0.0,0.0
2625,656,38.6435,40.4946,138.045,112.617,118.617,0.000102873,0.0471161,21.015,492.347,-0.461544,0.0,0.0
2632,657.75,38.7955,39.9778,132.493,112.61,119.346,0.000102456,0.0471797,21.0151,492.337,-0.516661,0.0,0.0
2639,659.5,39.4536,39.9609,134.217,112.634,119.492,7.79871e-05,0.0471862,21.0152,492.317,-0.52566,0.0,0.0
2646,661.25,38.9207,39.9504,133.859,112.667,120.43,0.000111824,0.0472299,21.0152,492.327,-0.592591,0.0,0.0
2653,663,38.7051,40.2317,129.966,112.665,119.879,0.000223358,0.0471943,21.0152,492.307,-0.551927,0.0,0.0
2660,664.75,39.189,40.2215,131.499,112.657,119.743,0.000300074,0.0471179,21.015,492.367,-0.542462,0.0,0.0
2667,666.5,38.5854,40.0657,133.668,112.679,119.713,0.000253584,0.0472486,21.0147,492.387,-0.538444,0.0,0.0
2674,668.25,38.0239,40.2027,133.024,112.687,119.056,0.000159063,0.0473053,21.0145,492.347,-0.488925,0.0,0.0
2681,670,37.3995,38.8777,134.838,112.695,119.905,8.90904e-05,0.047421,21.0145,492.397,-0.551485,0.0,0.0
2688,671.75,36.3057,38.24,134.685,112.701,119.914,0.00017578,0.0474287,21.0144,492.367,-0.551663,0.0,0.0
2695,673.5,37.3256,38.2579,138.863,112.719,118.339,0.000288223,0.0475053,21.0142,492.387,-0.432699,0.0,0.0
2702,675.25,37.0904,38.5435,137.488,112.741,118.671,0.000342144,0.0476394,21.0134,492.367,-0.455923,0.0,0.0
2709,677,37.3545,38.5471,132.933,112.763,120.233,0.000370535,0.0477666,21.0134,492.337,-0.570435,0.0,0.0
2716,678.75,36.894,38.4503,133.563,112.78,119.147,0.000372511,0.0477877,21.014,492.357,-0.488422,0.0,0.0
2723,680.5,37.2862,38.5581,132.983,112.795,118.884,0.000357681,0.0478904,21.0139,492.357,-0.467575,0.0,0.0
2730,682.25,37.056,38.0469,135.001,112.833,120.207,0.000355852,0.0479194,21.0149,492.367,-0.562976,0.0,0.0
2737,684,36.8405,38.6558,129.364,112.853,119.958,0.000386143,0.0478177,21.0153,492.357,-0.542963,0.0,0.0
2744,685.75,37.3724,38.5828,137.872,112.877,119.677,0.000469976,0.0477669,21.0155,492.357,-0.520174,0.0,0.0
2751,687.5,37.3212,38.5841,133.795,112.892,119.623,0.000601124,0.0478347,21.0145,492.367,-0.515064,0.0,0.0
2758,689.25,36.7906,38.7676,135.816,112.923,119.892,0.000660065,0.047855,21.0139,492.347,-0.532528,0.0,0.0
2765,691,36.9627,38.7989,135.017,112.981,119.494,0.00060632,0.0477156,21.0137,492.327,-0.498429,0.0,0.0
2772,692.75,36.6662,38.5013,135.633,112.984,119.544,0.000470157,0.0476042,21.0135,492.357,-0.501921,0.0,0.0
2779,694.5,36.7972,38.3016,135.928,113.021,120.326,0.000351048,0.0475802,21.0135,492.347,-0.556951,0.0,0.0
2786,696.25,37.3819,38.9019,132.803,113.05,119.162,0.00023196,0.0474445,21.0134,492.337,-0.468201,0.0,0.0
2793,698,37.0652,38.7754,131.951,113.095,120.326,9.5797e-05,0.0473633,21.0134,492.337,-0.551134,0.0,0.0
2800,699.75,37.0882,38.3438,133.364,113.124,121.083,-3.8425e-05,0.0473189,21.0132,492.337,-0.604642,0.0,0.0
2807,701.5,37.2815,38.3529,133.036,113.142,120.667,-4.03983e-05,0.047383,21.0138,492.327,-0.572667,0.0,0.0
2814,703.25,36.8844,38.7967,139.364,113.177,119.803,5.92209e-05,0.0475173,21.0141,492.317,-0.505915,0.0,0.0
2821,705,36.7867,38.3539,137.074,113.208,119.265,0.000149234,0.0474486,21.0143,492.337,-0.463493,0.0,0.0
2828,706.75,36.7271,38.2104,131.174,113.232,120.097,0.00017371,0.0473153,21.0143,492.357,-0.523493,0.0,0.0
2835,708.5,37.0765,38.5939,133.331,113.248,119.172,0.000146587,0.0473127,21.0144,492.337,-0.453456,0.0,0.0
2842,710.25,36.8903,38.3152,135.841,113.262,120.441,0.00013576,0.0473476,21.0144,492.347,-0.546546,0.0,0.0
2849,712,37.0275,38.7004,134.033,113.274,119.446,0.000237965,0.0473675,21.0144,492.347,-0.471881,0.0,0.0
2856,713.75,37.0291,39.1611,134.111,113.303,119.862,0.000421144,0.0473852,21.0136,492.337,-0.500499,0.0,0.0
2863,715.5,37.0774,38.164,134.202,113.312,119.751,0.000473561,0.0473974,21.0128,492.357,-0.491529,0.0,0.0
2870,717.25,37.1364,38.0883,135.529,113.318,119.284,0.000372474,0.0474982,21.0124,492.317,-0.456278,0.0,0.0
2877,719,36.8762,38.3865,134.725,113.335,119.357,0.00018359,0.0475349,21.0122,492.327,-0.46038,0.0,0.0
2884,720.75,37.2747,37.9363,135.084,113.335,120.226,0.000119881,0.0474923,21.0122,492.327,-0.524966,0.0,0.0
2891,722.5,37.3729,38.4728,135.378,113.351,119.85,0.000265386,0.0473719,21.0125,492.337,-0.495824,0.0,0.0
2898,724.25,37.0327,38.2015,137.556,113.354,119.154,0.000409646,0.0473774,21.0126,492.337,-0.443765,0.0,0.0
2905,726,36.8708,38.1701,133.642,113.354,119.088,0.000407293,0.0474133,21.0131,492.347,-0.438869,0.0,0.0
2912,727.75,37.2773,38.3606,137.161,113.376,120.094,0.000273699,0.0474485,21.0138,492.347,-0.511949,0.0,0.0
2919,729.5,36.2339,38.318,137.161,113.384,118.562,0.000149833,0.0474168,21.014,492.347,-0.397119,0.0,0.0
2926,731.25,37.0133,38.5249,137.235,113.385,119.649,0.000105403,0.0474929,21.0141,492.347,-0.478213,0.0,0.0
2933,733,36.9362,38.666,134.249,113.39,119.567,5.17601e-05,0.0475094,21.0141,492.337,-0.471735,0.0,0.0
2940,734.75,36.9656,38.3396,134.365,113.383,119.761,3.9376e-05,0.0475157,21.0139,492.337,-0.48666,0.0,0.0
2947,736.5,36.4213,38.5214,136.787,113.399,119.891,7.72925e-05,0.047433,21.0129,492.327,-0.495106,0.0,0.0
2954,738.25,37.0458,38.3134,136.262,113.387,120.146,0.000143688,0.047432,21.0124,492.357,-0.514934,0.0,0.0
2961,740,37.2103,38.4912,134.12,113.371,120.33,0.000222285,0.0474275,21.0126,492.337,-0.529784,0.0,0.0
2968,741.75,37.0136,37.8893,138.289,113.377,119.902,0.00017785,0.0474265,21.0127,492.327,-0.497607,0.0,0.0
2975,743.5,36.8496,38.5079,132.187,113.372,120.174,8.1395e-05,0.0473755,21.0127,492.337,-0.518176,0.0,0.0
2982,745.25,36.9622,38.3047,132.639,113.368,119.769,2.28485e-05,0.047445,21.0124,492.327,-0.488474,0.0,0.0
2989,747,37.1123,38.0298,135.12,113.349,119.327,-6.95913e-06,0.0475224,21.0122,492.327,-0.457078,0.0,0.0
2996,748.75,36.6804,38.3269,137.032,113.336,120.39,1.77965e-05,0.0473924,21.012,492.337,-0.536917,0.0,0.0
3003,750.5,37.0707,38.452,134.413,113.344,120.218,9.06931e-05,0.0472311,21.0122,492.337,-0.523579,0.0,0.0
3010,752.25,37.3214,38.5155,135.042,113.335,119.107,0.000151206,0.0472315,21.0117,492.347,-0.441805,0.0,0.0
3017,754,37.3722,38.478,133.667,113.332,121.002,0.000150589,0.0472586,21.0114,492.337,-0.582393,0.0,0.0
3024,755.75,36.9134,38.0197,135.127,113.312,119.614,0.000143182,0.04729,21.0113,492.327,-0.481369,0.0,0.0
3031,757.5,37.0985,38.3303,132.681,113.3,119.782,0.000195117,0.0472497,21.0113,492.327,-0.494756,0.0,0.0
3038,759.25,37.4009,38.0849,134.868,113.292,119.975,0.000263085,0.0471966,21.0126,492.337,-0.509758,0.0,0.0
3045,761,36.4158,38.4502,132.428,113.293,119.291,0.000274449,0.047089,21.0135,492.307,-0.458766,0.0,0.0
3052,762.75,37.4724,38.6154,132.867,113.283,119.309,0.000243884,0.0471645,21.014,492.317,-0.460875,0.0,0.0
3059,764.5,36.5999,38.2527,135.991,113.27,119.522,0.00016931,0.0473167,21.014,492.337,-0.477729,0.0,0.0
3066,766.25,36.7553,38.2611,134.727,113.269,119.25,0.000118399,0.0473451,21.013,492.327,-0.457619,0.0,0.0
3073,768,36.9629,38.6092,133.109,113.269,119.418,0.000137425,0.0472996,21.0129,492.347,-0.470157,0.0,0.0
3080,769.75,36.7982,38.2502,134.901,113.248,120.522,0.000180067,0.0472291,21.0131,492.327,-0.553577,0.0,0.0
3087,771.5,36.6692,37.822,133.517,113.232,120.119,0.000223006,0.0470563,21.0133,492.347,-0.525038,0.0,0.0
3094,773.25,36.4346,38.2954,136.112,113.23,118.84,0.000265766,0.0468553,21.0133,492.327,-0.430084,0.0,0.0
3101,775,37.1405,38.5232,132.282,113.25,118.929,0.00032819,0.0468676,21.0134,492.337,-0.435133,0.0,0.0
3108,776.75,37.0462,38.3557,136.39,113.228,120.09,,0.0469377,,492.347,-0.523249,0.0,0.0
3115,778.5,36.4547,37.9578,134.788,113.217,119.507,,0.0469703,,492.337,-0.480836,0.0,0.0
3122,780.25,36.6907,38.397,135.425,113.193,119.236,,,,492.347,-0.462546,0.0,0.0
3129,782,36.9207,38.6357,133.514,113.207,120.379,,,,492.337,-0.546239,0.0,0.0
3136,783.75,36.801,38.0046,131.297,113.197,119.715,,,,492.347,-0.497893,0.0,0.0
3143,785.5,36.9438,37.836,134.496,113.183,119.494,,,,492.317,-0.482487,0.0,0.0
3150,787.25,36.7663,38.486,132.669,113.179,119.767,,,,492.357,-0.503094,0.0,0.0
3151,787.5,36.8993,37.8424,136.057,113.195,119.076,,,,492.357,-0.450492,0.0,0.0