File: 01_Data/R13_Fiberglass_Insulation/Cone/R13_Fiberglass_Insulation_Cone_HF25Scan_220429_R1.csv
Names,Time,Stack TC,Smoke TC,Exh Press,Smoke Comp,Smoke Meas,CO Meter,CO2 Meter,O2 Meter,Sample Mass,Ext Coeff,Start Test,Flame Verif
Chan Gain,,500,500,1,1,1,1,1,1,1,1,1.0,1.0
Offset,,0,0,0.134537,0,0,0,0,0,0,0,0.0,0.0
Gain,,1,1,25.011,14.8585,16.6522,1,1,1,1.00087,1.0138,1.0,1.0
Units,sec,C,C,Pa,%,%,%,%,%,g,/m,,
Baseline,,18.0014,18.5599,141.46,110.998,111.364,0.000380512,0.0549247,21.0062,-833.728,-0.0293333,,
17,4,17.1285,17.8783,138.203,110.817,110.926,0.000550746,0.0700959,20.9922,-338.333,-0.00873869,0.0,0.0
34,8.25,17.2019,17.935,137.178,110.862,111.119,0.00057923,0.0658801,20.9963,-338.383,-0.0206057,0.0,0.0
51,12.5,17.7283,17.9396,138.153,110.937,111.243,0.000578636,0.0620217,21.0009,-338.413,-0.0244467,0.0,0.0
68,16.75,17.7893,18.3366,137.413,111.015,111.532,0.000350325,0.0581078,21.0054,-338.433,-0.0413195,0.0,0.0
85,21,17.8164,18.4123,140.362,111.07,111.487,0.000145217,0.0557257,21.0065,-338.463,-0.0333579,0.0,0.0
102,25.25,18.1041,18.212,141.671,111.174,111.709,0.000320497,0.0549433,21.0091,-338.493,-0.0427047,0.0,0.0
119,29.5,17.9766,18.2486,143.556,111.248,111.778,0.000501306,0.0547951,21.0101,-338.503,-0.0422621,0.0,0.0
136,33.75,18.4616,18.8233,141.335,111.345,111.67,0.000536723,0.054491,21.0105,-338.523,-0.0259298,0.0,0.0
153,38,18.4854,18.7437,139.605,111.423,111.784,0.000447782,0.0544276,21.0123,-338.533,-0.0287627,0.0,0.0
170,42.25,18.765,18.6267,141.249,111.498,112.064,0.000425508,0.0542834,21.013,-338.533,-0.045041,0.0,0.0
187,46.5,18.4331,18.889,144.902,111.569,111.932,0.000553766,0.0543084,21.0128,-338.553,-0.0289105,0.0,0.0
204,50.75,18.4662,18.9646,140.492,111.599,112.184,0.000265104,0.054267,21.0117,-338.563,-0.0464967,0.0,0.0
221,55,18.4604,19.1607,136.335,111.654,112.166,0.000322464,0.0541807,21.01,-338.563,-0.0407113,0.0,0.0
238,59.25,18.2756,19.157,138.361,111.696,112.372,0.000152933,0.054008,21.0103,-338.573,-0.0536919,0.0,0.0
255,63.5,18.9661,19.4643,141.151,111.703,112.111,0.000112632,0.0540489,21.0115,-338.593,-0.0324232,0.0,0.0
272,67.75,18.6155,19.3462,139.622,111.723,112.211,-0.000115749,0.0539044,21.01,-338.603,-0.0387727,0.0,0.0
289,72,19.0296,19.3212,140.461,111.735,112.15,0.000145362,0.053874,21.0125,-338.613,-0.0329589,0.0,0.0
306,76.25,18.9011,19.2535,142.594,111.73,112.175,0.000460993,0.0538035,21.0134,-338.613,-0.0353353,0.0,0.0
323,80.5,19.2164,19.1784,142.808,111.759,112.104,0.000518443,0.0537624,21.0136,-338.634,-0.027419,0.0,0.0
340,84.75,18.8502,19.2573,139.394,111.772,112.476,0.000517376,0.0537092,21.013,-338.634,-0.0557938,0.0,0.0
357,89,19.0141,19.5168,139.726,111.775,112.221,0.000266379,0.053668,21.0128,-338.644,-0.0354241,0.0,0.0
374,93.25,19.1616,19.2542,137.594,111.793,112.236,0.000337893,0.0536107,21.0127,-338.634,-0.0351527,0.0,0.0
391,97.5,19.4249,19.7589,140.608,111.81,112.576,0.000340238,0.0533756,21.0127,-338.634,-0.0607115,0.0,0.0
408,101.75,18.7645,19.8351,140.067,111.812,112.127,0.000318128,0.0531938,21.0143,-338.654,-0.0250888,0.0,0.0
425,106,19.0878,19.8516,134.404,111.807,112.302,7.42514e-05,0.0531798,21.0131,-338.664,-0.0392998,0.0,0.0
442,110.25,19.1316,19.8832,140.799,111.811,112.3,5.46253e-05,0.0532264,21.0127,-338.654,-0.038778,0.0,0.0
459,114.5,19.5266,20.2355,141.273,111.812,112.295,0.000305462,0.0530902,21.0143,-338.664,-0.0383399,0.0,0.0
476,118.75,19.3428,19.9106,140.05,111.795,112.546,0.00021816,0.0529783,21.0132,-338.654,-0.0595732,0.0,0.0
493,123,19.2578,20.149,143.685,111.8,112.349,0.000284025,0.0528526,21.0144,-338.674,-0.0435063,0.0,0.0
510,127.25,19.615,20.0796,142.53,111.785,112.338,0.00022808,0.0528656,21.0127,-338.664,-0.0439277,0.0,0.0
527,131.5,19.3799,20.1163,141.681,111.754,112.271,0.000330014,0.0529386,21.0142,-338.664,-0.0410292,0.0,0.0
544,135.75,19.7911,19.9641,141.135,111.738,112.354,0.000371771,0.0528664,21.0129,-338.664,-0.0488511,0.0,0.0
561,140,19.8227,20.3676,139.099,111.72,112.364,0.000172411,0.0529049,21.0124,-338.664,-0.0510632,0.0,0.0
578,144.25,19.6278,20.1636,140.457,111.68,112.463,5.09556e-05,0.0529418,21.0123,-338.664,-0.0621515,0.0,0.0
595,148.5,19.4258,19.983,141.852,111.663,112.214,0.000200849,0.0529552,21.0134,-338.664,-0.0437396,0.0,0.0
612,152.75,19.0798,20.393,140.078,111.642,112.299,8.18109e-05,0.0529178,21.0144,-338.674,-0.0522367,0.0,0.0
629,157,19.1289,20.1067,140.726,111.608,112.143,0.000358341,0.0527642,21.0151,-338.674,-0.0425098,0.0,0.0
646,161.25,19.3466,19.9918,141.095,111.593,112.074,0.000446362,0.0527244,21.0135,-338.684,-0.0382159,0.0,0.0
663,165.5,19.6116,20.3145,140.162,111.575,112.436,0.00015834,0.0526672,21.013,-338.684,-0.0683306,0.0,0.0
680,169.75,19.6472,20.7096,142.33,111.558,112.263,0.00017105,0.0527355,21.0123,-338.694,-0.0560274,0.0,0.0
697,174,19.5238,20.1857,137.611,111.532,111.959,0.000286231,0.0528817,21.0121,-338.684,-0.0339778,0.0,0.0
714,178.25,19.6169,20.2165,142.72,111.506,111.913,0.000237873,0.052786,21.0126,-338.694,-0.0324051,0.0,0.0
731,182.5,19.8581,20.3149,139.583,111.48,111.996,5.59749e-05,0.0527862,21.0129,-338.674,-0.0410867,0.0,0.0
748,186.75,20.0753,19.9873,137.978,111.473,112.074,0.000211184,0.0528061,21.0132,-338.684,-0.0477612,0.0,0.0
765,191,19.3767,20.1236,138.093,111.43,112.122,0.000271275,0.0528247,21.0128,-338.684,-0.0550684,0.0,0.0
782,195.25,20.0319,20.7982,139.167,111.39,111.986,0.000286284,0.0528829,21.0128,-338.684,-0.0474446,0.0,0.0
799,199.5,19.6514,20.6091,136.056,111.342,111.966,0.000295873,0.0528741,21.0127,-338.684,-0.0497087,0.0,0.0
816,203.75,19.7417,20.5537,141.973,111.299,111.586,0.000282509,0.0527105,21.0127,-338.704,-0.0229033,0.0,0.0
833,208,20.1081,20.5542,139.625,111.264,111.887,0.000287869,0.0524934,21.0127,-338.714,-0.0496015,0.0,0.0
850,212.25,19.6778,19.9525,138.34,111.261,112.187,0.000164191,0.0526274,21.0136,-338.704,-0.0736951,0.0,0.0
867,216.5,20.0616,21.0326,139.721,111.27,111.949,0.000488548,0.0525952,21.0131,-338.694,-0.0540972,0.0,0.0
884,220.75,20.0763,20.8349,139.589,111.44,111.983,0.000643215,0.0526301,21.0153,-338.704,-0.0432176,0.0,0.0
901,225,19.7949,20.5294,142.299,111.589,112.197,0.000204581,0.0526259,21.0141,-338.714,-0.0482989,0.0,0.0
918,229.25,20.0631,20.6413,141.392,111.694,112.35,0.000246411,0.0527017,21.0138,-338.724,-0.0520671,0.0,0.0
935,233.5,20.1336,20.7194,142.887,111.811,112.384,0.00042303,0.0527503,21.0129,-338.714,-0.0454555,0.0,0.0
952,237.75,20.1758,20.7145,139.416,111.885,112.493,0.000540281,0.0526893,21.0126,-338.714,-0.0482568,0.0,0.0
969,242,19.8682,20.586,142.478,111.944,112.452,0.00061485,0.0527393,21.0126,-338.714,-0.0402779,0.0,0.0
986,246.25,19.9825,20.7473,143.259,111.982,112.767,0.000433456,0.0528262,21.0126,-338.714,-0.0621387,0.0,0.0
1003,250.5,20.1858,20.9414,138.284,112.028,112.603,0.000401796,0.0527505,21.0126,-338.724,-0.0455083,0.0,0.0
1020,254.75,19.7719,20.5217,137.67,112.068,112.549,0.00058224,0.0527924,21.0125,-338.704,-0.0380897,0.0,0.0
1037,259,19.759,20.6104,140.724,112.13,112.944,0.00037833,0.0527141,21.012,-338.724,-0.0643072,0.0,0.0
1054,263.25,20.0526,20.8309,142.112,112.179,112.681,0.000381208,0.0525932,21.0132,-338.714,-0.0397124,0.0,0.0
1071,267.5,20.014,21.0016,140.139,112.207,112.642,0.000306529,0.052718,21.0126,-338.724,-0.0344673,0.0,0.0
1088,271.75,20.1256,20.8675,142.695,112.249,112.747,0.000230979,0.0525079,21.0123,-338.714,-0.0393908,0.0,0.0
1105,276,19.9691,20.8568,142.408,112.253,112.823,0.000199312,0.0526051,21.0127,-338.714,-0.0450336,0.0,0.0
1122,280.25,20.4068,20.9681,139.979,112.263,113.031,0.000114869,0.0527282,21.0139,-338.724,-0.0606111,0.0,0.0
1139,284.5,20.1996,20.7928,141.526,112.248,112.93,0.000297731,0.0528038,21.0145,-338.724,-0.0538412,0.0,0.0
1156,288.75,19.7921,20.4796,139.494,112.252,112.899,0.000216659,0.0528044,21.0145,-338.734,-0.0511117,0.0,0.0
1173,293,20.3185,20.6902,141.25,112.223,112.874,0.000158423,0.0527198,21.0141,-338.724,-0.051414,0.0,0.0
1190,297.25,19.9115,21.1268,137.873,112.173,112.82,0.000277681,0.0525752,21.0138,-338.724,-0.0511181,0.0,0.0
1207,301.5,19.8909,20.6785,141.009,112.124,112.692,9.97966e-05,0.0526633,21.0138,-338.724,-0.0448647,0.0,0.0
1224,305.75,19.9396,21.349,138,112.053,112.835,0.000187133,0.0527418,21.0146,-338.744,-0.0618515,0.0,0.0
1241,310,20.3035,20.8133,142.738,111.981,112.647,0.00039392,0.0526046,21.0143,-338.724,-0.0527832,0.0,0.0
1258,314.25,19.8984,20.8301,137.209,111.913,112.632,0.00034241,0.0524661,21.0142,-338.734,-0.0569833,0.0,0.0
1275,318.5,20.2193,21.0885,142.307,111.844,112.311,0.000324496,0.0526448,21.0126,-338.734,-0.0370666,0.0,0.0
1292,322.75,20.3017,20.8434,137.765,111.757,112.211,0.000248715,0.05238,21.0118,-338.734,-0.036066,0.0,0.0
1309,327,20.2428,20.7906,139.149,111.664,111.931,0.000320309,0.0522528,21.0129,-338.734,-0.0212422,0.0,0.0
1326,331.25,20.3195,20.8899,141.44,111.702,112.25,0.000224833,0.0522757,21.0132,-338.744,-0.0435335,0.0,0.0
1343,335.5,20.0539,20.9368,138.744,111.735,112.228,1.12242e-05,0.0523138,21.0132,-338.734,-0.0391268,0.0,0.0
1360,339.75,20.7267,21.0437,138.709,111.76,112.458,8.51409e-05,0.0524816,21.0132,-338.744,-0.0553654,0.0,0.0
1377,344,20.0104,20.9648,138.945,111.8,112.422,-4.03144e-05,0.0525091,21.0132,-338.744,-0.0493372,0.0,0.0
1394,348.25,20.6536,21.2072,139.248,111.837,112.42,9.23441e-05,0.0524219,21.0129,-338.744,-0.0462553,0.0,0.0
1411,352.5,19.8624,21.005,139.832,111.872,112.394,0.000252068,0.0524236,21.0124,-338.744,-0.041353,0.0,0.0
1428,356.75,20.4702,21.0603,137.318,111.922,112.464,0.000203904,0.0523775,21.0123,-338.754,-0.0429358,0.0,0.0
1445,361,20.4384,21.0877,141.667,111.982,112.708,0.000125427,0.0523493,21.0122,-338.734,-0.0574885,0.0,0.0
1462,365.25,20.404,20.944,141.536,112.037,112.664,3.98309e-05,0.0522941,21.0122,-338.754,-0.0496794,0.0,0.0
1479,369.5,20.3616,20.8061,138.354,112.059,112.598,6.45849e-05,0.0523116,21.0124,-338.734,-0.0426594,0.0,0.0
1496,373.75,20.31,20.8258,142.992,112.124,112.686,0.000137335,0.0523687,21.0136,-338.754,-0.0444604,0.0,0.0
1513,378,19.9318,21.2639,138.033,112.182,112.754,-0.000112967,0.0526657,21.0139,-338.754,-0.0452664,0.0,0.0
1530,382.25,20.4474,21.0315,136.463,112.22,113.197,4.55434e-05,0.0526579,21.0139,-338.754,-0.0770533,0.0,0.0
1547,386.5,20.5091,21.1538,136.524,112.29,113.129,0.000189965,0.0523762,21.0138,-338.754,-0.066246,0.0,0.0
1564,390.75,20.0918,20.626,140.882,112.345,112.851,0.000372335,0.0523848,21.0132,-338.764,-0.0399116,0.0,0.0
1581,395,20.1835,20.6872,142.058,112.378,112.895,0.000503873,0.0522917,21.0129,-338.754,-0.0408109,0.0,0.0
1598,399.25,20.7692,21.3242,137.149,112.43,113.07,0.000363435,0.0523863,21.0154,-338.754,-0.0505205,0.0,0.0
1615,403.5,20.5556,21.1138,142.47,112.469,112.984,6.55861e-05,0.0524012,21.016,-338.764,-0.0406394,0.0,0.0
1632,407.75,20.3709,21.2492,139.784,112.512,113.371,2.91491e-05,0.0522382,21.0161,-338.754,-0.0676255,0.0,0.0
1649,412,20.1813,20.9369,137.812,112.548,112.965,0.000105196,0.052286,21.0143,-338.764,-0.0329227,0.0,0.0
1666,416.25,20.7393,20.7985,141.754,112.591,113.17,3.49642e-05,0.0522263,21.0134,-338.754,-0.0455919,0.0,0.0
1683,420.5,20.1642,21.0017,141.679,112.611,113.178,0.000168278,0.0522203,21.0133,-338.764,-0.044731,0.0,0.0
1700,424.75,20.4897,21.145,138.595,112.628,113.316,-4.88897e-05,0.0521707,21.0135,-338.764,-0.0541452,0.0,0.0
1717,429,20.1346,20.9068,138.006,112.641,113.415,1.80444e-05,0.0521944,21.0138,-338.764,-0.0608806,0.0,0.0
1734,433.25,20.4245,21.0434,140.216,112.637,113.269,0.000351495,0.0522511,21.0133,-338.764,-0.0497588,0.0,0.0
1751,437.5,20.2543,20.9719,138.882,112.639,113.444,0.000375883,0.0520907,21.0139,-338.764,-0.0632944,0.0,0.0
1768,441.75,20.3946,20.8482,138.987,112.655,113.152,7.43707e-05,0.0520962,21.0141,-338.764,-0.0391459,0.0,0.0
1785,446,20.5638,21.354,141.098,112.638,113.378,-0.000136117,0.0520884,21.0142,-338.764,-0.0582259,0.0,0.0
1802,450.25,20.5255,20.841,139.236,112.61,113.148,-4.46666e-05,0.0520107,21.0132,-338.764,-0.0424107,0.0,0.0
1819,454.5,20.173,21.2304,141.108,112.608,112.929,0.000179352,0.0521126,21.0123,-338.754,-0.0253583,0.0,0.0
1836,458.75,20.506,21.0718,138.407,112.591,113.259,0.000202861,0.0519775,21.012,-338.764,-0.0526131,0.0,0.0
1853,463,20.8135,21.6324,136.998,112.55,113.236,2.29332e-05,0.0520453,21.0136,-338.774,-0.0540412,0.0,0.0
1870,467.25,20.037,20.7654,138.239,112.527,113.034,0.000268409,0.0532365,21.014,-338.754,-0.0400106,0.0,0.0
1887,471.5,20.3287,21.3117,139.677,112.481,113.064,0.000280407,0.0572104,21.0114,-338.784,-0.0459894,0.0,0.0
1904,475.75,20.785,21.7646,135.36,112.42,112.913,-5.37795e-05,0.0570102,21.011,-338.764,-0.0389111,0.0,0.0
1921,480,20.3725,20.7488,141.99,112.378,113.097,1.71194e-05,0.0550264,21.0128,-338.774,-0.0566894,0.0,0.0
1938,484.25,20.5721,21.1955,138.477,112.342,113.077,0.000121267,0.0537323,21.0131,-338.764,-0.0580407,0.0,0.0
1955,488.5,20.5493,21.3608,142.338,112.276,112.935,0.000216983,0.0532772,21.0129,-338.774,-0.0520495,0.0,0.0
1972,492.75,20.4201,20.9238,141.998,112.22,112.74,0.000111976,0.0529956,21.0132,-338.774,-0.0411246,0.0,0.0
1989,497,20.8937,21.2623,140.246,112.152,112.67,-0.000266583,0.0527473,21.014,-338.784,-0.0409829,0.0,0.0
2006,501.25,20.8114,21.2952,139.031,112.042,112.707,-0.000181378,0.0525526,21.0139,-338.764,-0.0526558,0.0,0.0
2023,505.5,20.5876,21.0745,139.474,111.925,112.459,4.3591e-05,0.0525091,21.0133,-338.774,-0.0423532,0.0,0.0
2040,509.75,20.5094,21.2542,141.528,111.822,112.859,-0.000169574,0.0526148,21.0141,-338.774,-0.0821459,0.0,0.0
2057,514,20.606,21.0444,139.751,111.67,112.179,-0.000223133,0.0525233,21.0144,-338.774,-0.0404185,0.0,0.0
2074,518.25,20.5702,21.0314,139.607,111.534,112.334,3.06074e-05,0.0525745,21.015,-338.784,-0.0636131,0.0,0.0
2091,522.5,21.0041,21.6319,141.897,111.432,112.122,0.000109917,0.0525184,21.0161,-338.764,-0.0549601,0.0,0.0
2108,526.75,20.7166,20.8395,142.419,111.33,111.859,-5.79569e-05,0.0524815,21.0169,-338.784,-0.04213,0.0,0.0
2125,531,20.5338,21.3286,139.377,111.236,111.714,-0.000107587,0.0522462,21.0166,-338.774,-0.0381413,0.0,0.0
2142,535.25,20.4552,21.432,141.357,111.12,111.944,-2.53276e-05,0.0521689,21.0138,-338.774,-0.065657,0.0,0.0
2159,539.5,20.6488,21.0948,137.467,111.036,111.809,0.000146321,0.0523689,21.0133,-338.784,-0.0616679,0.0,0.0
2176,543.75,20.9486,21.1883,136,110.978,111.419,0.00028388,0.0524011,21.0132,-338.784,-0.035298,0.0,0.0
2193,548,20.8166,21.549,140.807,110.915,111.571,0.000131362,0.0521981,21.0133,-338.784,-0.0524334,0.0,0.0
2210,552.25,20.5259,20.9385,137.428,110.893,111.393,0.000281997,0.0521047,21.0131,-338.794,-0.0399904,0.0,0.0
2227,556.5,20.4366,21.3664,135.48,110.856,111.21,0.000188747,0.0520934,21.0144,-338.784,-0.0283554,0.0,0.0
2244,560.75,20.7661,21.2484,135.833,110.832,111.648,0.00010738,0.0520522,21.0152,-338.774,-0.06524,0.0,0.0
2261,565,20.7128,21.653,138.429,110.809,111.668,0.000123249,0.0522099,21.0168,-338.774,-0.0686414,0.0,0.0
2278,569.25,20.7293,21.6392,135.624,110.791,111.638,0.000266342,0.0521248,21.0156,-338.794,-0.0677457,0.0,0.0
2295,573.5,20.8518,21.5918,143.549,110.76,111.219,0.000460218,0.0520019,21.0154,-338.794,-0.0367605,0.0,0.0
2312,577.75,20.6388,21.4017,137.88,110.733,111.371,0.000513797,0.0520992,21.0157,-338.794,-0.0510872,0.0,0.0
2329,582,20.5692,21.5853,139.215,110.719,111.169,0.000326877,0.052088,21.0161,-338.784,-0.0360511,0.0,0.0
2346,586.25,20.7455,21.4689,143.499,110.681,111.274,0.000165189,0.0521815,21.0162,-338.784,-0.0475219,0.0,0.0
2363,590.5,20.2725,21.6483,140.474,110.668,111.099,0.000303082,0.0522654,21.0155,-338.784,-0.0346009,0.0,0.0
2380,594.75,20.8158,21.527,141.509,110.636,111.067,0.000289886,0.0522929,21.0154,-338.794,-0.0345881,0.0,0.0
2397,599,20.5794,21.6683,140.684,110.62,111.287,0.000124917,0.0521992,21.0155,-338.784,-0.0534652,0.0,0.0
2414,603.25,20.836,21.5623,142.393,110.581,111.347,0.000172703,0.0521161,21.0148,-338.784,-0.0613872,0.0,0.0
2431,607.5,20.5093,21.4982,138.816,110.556,111.127,0.000197378,0.0521075,21.0146,-338.794,-0.0458019,0.0,0.0
2448,611.75,20.6705,21.7243,136.53,110.539,111.159,0.000202772,0.0521077,21.0138,-338.794,-0.0497492,0.0,0.0
2465,616,20.5483,21.5811,142.463,110.519,110.918,4.6833e-05,0.0520027,21.0137,-338.804,-0.0320625,0.0,0.0
2482,620.25,20.3091,21.4392,139.116,110.521,111.123,-8.84875e-05,0.051946,21.014,-338.784,-0.0483256,0.0,0.0
2499,624.5,20.6729,21.2963,141.381,110.514,111.154,-2.15337e-05,0.052019,21.0144,-338.794,-0.0513543,0.0,0.0
2516,628.75,20.6254,21.6688,136.108,110.498,110.913,-5.53371e-05,0.0520304,21.0142,-338.784,-0.0333382,0.0,0.0
2533,633,20.8678,21.6972,138.852,110.504,111.424,0.000193712,0.0520514,21.0145,-338.794,-0.0736785,0.0,0.0
2550,637.25,20.6575,21.2991,141.759,110.507,111.047,0.000310448,0.0520959,21.0145,-338.794,-0.0433178,0.0,0.0
2567,641.5,20.4989,21.4119,136.079,110.503,111.084,0.000141203,0.0520669,21.0142,-338.804,-0.046576,0.0,0.0
2584,645.75,20.681,21.3741,141.444,110.515,111.212,7.081e-05,0.0520564,21.0137,-338.784,-0.05591,0.0,0.0
2601,650,20.7453,21.7341,137.562,110.52,111.313,0.000243888,0.0522675,21.014,-338.784,-0.0635928,0.0,0.0
2618,654.25,21.1163,21.1982,136.654,110.521,111.283,0.00012593,0.0520944,21.015,-338.794,-0.061124,0.0,0.0
2635,658.5,20.8699,21.519,142.395,110.529,111.559,6.62782e-05,0.0519134,21.0151,-338.804,-0.0825317,0.0,0.0
2652,662.75,20.9313,21.5363,139.074,110.541,111.124,0.000192391,0.0519079,21.0134,-338.784,-0.046802,0.0,0.0
2669,667,20.7631,21.6699,141.898,110.566,111.082,6.8849e-05,0.0518687,21.0148,-338.784,-0.0413424,0.0,0.0
2686,671.25,20.9169,21.7099,143.973,110.552,111.134,7.89054e-05,0.0517723,21.0153,-338.794,-0.0466624,0.0,0.0
2703,675.5,21.1232,21.4674,136.843,110.604,111.426,0.000286249,0.0518877,21.0158,-338.794,-0.0658572,0.0,0.0
2720,679.75,20.7872,21.3498,144.506,110.609,111.3,0.000273904,0.0519542,21.0158,-338.794,-0.0553878,0.0,0.0
2737,684,21.0359,21.6257,138.353,110.639,111.087,0.000311568,0.0520729,21.0156,-338.804,-0.0359202,0.0,0.0
2754,688.25,20.8583,21.418,136.075,110.663,111.143,0.000326895,0.0519381,21.0139,-338.804,-0.0384586,0.0,0.0
2771,692.5,20.8102,21.3258,143.153,110.688,111.37,0.0001414,0.0517372,21.0139,-338.804,-0.0545756,0.0,0.0
2788,696.75,20.5113,20.9953,140.486,110.722,111.3,0.000239039,0.0517234,21.0159,-338.804,-0.0462787,0.0,0.0
2805,701,20.6131,21.2714,138.264,110.735,111.63,3.2128e-05,0.0518947,21.0183,-338.804,-0.0715756,0.0,0.0
2822,705.25,21.0009,21.6771,140.032,110.772,111.374,3.39272e-05,0.0518363,21.0172,-338.814,-0.048163,0.0,0.0
2839,709.5,20.4475,21.5047,142.622,110.82,111.277,-2.21851e-05,0.0520785,21.0173,-338.804,-0.0365918,0.0,0.0
2856,713.75,21.0307,21.9191,137.886,110.855,111.446,0.000250448,0.0519651,21.018,-338.804,-0.0473002,0.0,0.0
2873,718,20.4984,21.4797,142.866,110.902,111.447,0.000260212,0.0519208,21.0175,-338.804,-0.0435622,0.0,0.0
2890,722.25,20.7154,21.2357,139.292,110.953,111.639,3.38454e-05,0.0518002,21.0172,-338.794,-0.054766,0.0,0.0
2907,726.5,20.4612,21.4927,137.362,110.99,111.673,0.000100469,0.0518891,21.0176,-338.784,-0.054534,0.0,0.0
2924,730.75,20.5961,21.2847,141.368,111.033,111.569,9.34776e-05,0.0518652,21.0179,-338.804,-0.0428235,0.0,0.0
2941,735,20.815,21.364,138.226,111.072,111.573,0.000233176,0.0516994,21.0177,-338.814,-0.0400207,0.0,0.0
2958,739.25,20.6234,21.1104,140.171,111.12,111.675,0.000388629,0.0516558,21.017,-338.804,-0.0443155,0.0,0.0
2975,743.5,20.8169,21.5311,139.668,111.165,111.597,7.32394e-05,0.051752,21.0177,-338.804,-0.0345291,0.0,0.0
2992,747.75,21.0579,21.534,140.64,111.237,111.83,9.64823e-05,0.0517935,21.0178,-338.814,-0.0473274,0.0,0.0
3009,752,20.6373,21.294,140.14,111.278,111.819,9.7906e-06,0.0519039,21.0178,-338.804,-0.0431409,0.0,0.0
3026,756.25,20.6494,21.0969,141.176,111.321,111.995,0.000109298,0.0518638,21.0166,-338.814,-0.0537121,0.0,0.0
3043,760.5,20.8848,21.3186,138.537,111.39,111.939,0.000180774,0.0518832,21.0157,-338.794,-0.0436911,0.0,0.0
3060,764.75,21.1873,21.5876,136.423,111.428,112.006,4.3346e-05,0.0518233,21.0164,-338.804,-0.0460144,0.0,0.0
3077,769,20.2645,21.4128,140.655,111.442,112.011,-3.68791e-05,0.0517702,21.0173,-338.804,-0.0452558,0.0,0.0
3094,773.25,20.9436,21.6714,141.559,111.498,112.37,8.28724e-05,0.0518049,21.0178,-338.804,-0.0692905,0.0,0.0
3111,777.5,21.1465,21.6105,138.278,111.518,112.317,0.000125418,0.0519067,21.0185,-338.804,-0.0634754,0.0,0.0
3128,781.75,21.1757,21.5442,143.246,111.51,112.101,0.000146887,0.0518004,21.0179,-338.814,-0.047045,0.0,0.0
3145,786,21.0775,21.2625,141.225,111.575,112.11,0.00016567,0.0518774,21.0169,-338.824,-0.0425284,0.0,0.0
3162,790.25,20.5605,21.3052,141.252,111.606,112.266,0.000221498,0.0518621,21.0165,-338.804,-0.0524745,0.0,0.0
3179,794.5,20.9272,21.4883,141.841,111.636,112.56,0.000297891,0.0516633,21.0183,-338.804,-0.0733669,0.0,0.0
3196,798.75,21.0047,21.6673,137.288,111.678,112.455,0.000307069,0.0517036,21.0167,-338.824,-0.0616578,0.0,0.0
3213,803,20.5002,21.6362,141.054,111.715,112.472,0.000148283,0.0517248,21.0157,-338.804,-0.059983,0.0,0.0
3230,807.25,21.1981,21.6575,134.823,111.744,112.215,0.000298503,0.0518416,21.0155,-338.804,-0.0373945,0.0,0.0
3247,811.5,20.9067,21.2661,142.266,111.763,112.29,0.000208202,0.05189,21.016,-338.804,-0.0418334,0.0,0.0
3264,815.75,20.8338,21.6935,141.87,111.818,112.267,0.000253044,0.0517706,21.0163,-338.814,-0.0356248,0.0,0.0
3281,820,21.0395,21.3898,141.47,111.839,112.343,0.000456087,0.0519376,21.0162,-338.824,-0.0400383,0.0,0.0
3298,824.25,20.4414,21.3227,136.154,111.825,112.51,0.000238065,0.0518226,21.0156,-338.804,-0.0543409,0.0,0.0
3315,828.5,20.88,21.7216,142.344,111.857,112.485,-3.70327e-05,0.0518402,21.0155,-338.814,-0.0497369,0.0,0.0
3332,832.75,21.3762,21.6081,141.202,111.884,112.512,-0.000128394,0.0518837,21.0144,-338.814,-0.0497391,0.0,0.0
3349,837,20.5958,21.3193,140.641,111.879,112.546,-0.000134639,0.0519773,21.0134,-338.814,-0.0528264,0.0,0.0
3366,841.25,20.7277,21.7254,138.392,111.891,112.373,-7.7428e-05,0.0518106,21.0132,-338.794,-0.0382265,0.0,0.0
3383,845.5,20.5823,21.518,139.538,111.896,112.538,0.000168038,0.0517135,21.0132,-338.814,-0.0508505,0.0,0.0
3400,849.75,21.0295,21.4981,143.918,111.911,112.415,0.00026642,0.0519047,21.0132,-338.804,-0.0399414,0.0,0.0
3417,854,20.488,21.3814,138.501,111.923,112.552,0.000360679,0.0518333,21.0126,-338.814,-0.0498489,0.0,0.0
3434,858.25,21.1788,21.7625,144.093,111.947,112.268,7.9203e-05,0.0520284,21.0135,-338.814,-0.0254694,0.0,0.0
3451,862.5,21.0082,21.5632,140.532,111.967,112.65,-0.000293289,0.0522953,21.0139,-338.804,-0.0541046,0.0,0.0
3468,866.75,20.8852,21.2447,139.239,111.959,112.834,-0.000328738,0.0522455,21.0145,-338.824,-0.0692996,0.0,0.0
3485,871,20.718,21.4945,139.952,111.983,112.479,-0.000214692,0.0522512,21.0147,-338.824,-0.0392742,0.0,0.0
3502,875.25,20.545,20.9228,139.919,111.989,112.552,-9.63349e-05,0.0529044,21.0144,-338.834,-0.0445941,0.0,0.0
3519,879.5,20.5294,21.2089,141.496,111.993,112.476,0.000103496,0.0532127,21.0135,-338.824,-0.0382771,0.0,0.0
3536,883.75,20.4506,21.7699,138.608,111.993,112.641,0.000101246,0.0528653,21.0138,-338.824,-0.0512893,0.0,0.0
3553,888,21.1121,21.1515,138.797,112.014,112.478,9.68909e-05,0.0528413,21.0138,-338.804,-0.0367095,0.0,0.0
3570,892.25,20.8569,21.4256,138.445,111.989,112.712,0.000303485,0.0523674,21.0138,-338.804,-0.0572293,0.0,0.0
3587,896.5,20.8949,21.4302,142.76,111.995,112.711,0.000249893,0.0522642,21.0149,-338.814,-0.0567214,0.0,0.0
3604,900.75,20.7033,21.2554,139.114,111.997,112.583,0.000250476,0.0523607,21.0154,-338.814,-0.0463906,0.0,0.0
3621,905,21.2105,21.2848,138.837,112.004,112.627,0.000159291,0.0523487,21.0173,-338.804,-0.049302,0.0,0.0
3638,909.25,20.7121,21.5189,140.472,111.989,112.629,5.30871e-05,0.0526148,21.0163,-338.814,-0.0506511,0.0,0.0
3655,913.5,20.6067,21.5151,138.968,111.989,112.504,0.000181915,0.0523239,21.0174,-338.804,-0.0407385,0.0,0.0
3672,917.75,20.8288,21.5688,140.695,112.008,112.589,0.000242693,0.0523907,21.0163,-338.804,-0.0460128,0.0,0.0
3689,922,21.1509,21.5876,139.785,111.983,112.421,0.000265257,0.0528031,21.016,-338.804,-0.034693,0.0,0.0
3706,926.25,21.1061,21.3882,140.303,111.99,112.706,0.000344628,0.0534264,21.0155,-338.794,-0.0566398,0.0,0.0
3723,930.5,21.1297,21.6225,141.127,111.98,112.829,0.000142348,0.0536153,21.0138,-338.824,-0.0672068,0.0,0.0
3740,934.75,20.7115,21.6745,139.625,111.972,112.683,0.000115042,0.0540522,21.013,-338.814,-0.056316,0.0,0.0
3757,939,20.8256,21.5293,137.824,111.994,112.584,0.000149349,0.0548505,21.0128,-338.804,-0.0467274,0.0,0.0
3774,943.25,20.6422,21.7295,140.786,111.972,112.502,0.000180393,0.0557897,21.0128,-338.824,-0.0420224,0.0,0.0
3791,947.5,20.9666,21.2745,145.784,111.966,112.772,-0.000109094,0.056109,21.0104,-338.824,-0.0638357,0.0,0.0
3808,951.75,21.1846,21.5061,139.962,111.95,112.622,0.000104705,0.0554468,21.0104,-338.824,-0.0532311,0.0,0.0
3825,956,20.6241,21.5158,137.815,111.951,112.588,0.000220269,0.0548626,21.0105,-338.834,-0.0504699,0.0,0.0
3842,960.25,21.1553,22.0997,137.224,111.942,112.748,0.000212973,0.0541924,21.0105,-338.824,-0.063785,0.0,0.0
3859,964.5,20.9447,21.3147,143.487,111.926,112.567,1.83194e-05,0.0537813,21.0121,-338.824,-0.0507252,0.0,0.0
3876,968.75,21.3297,21.6087,139.548,111.936,112.383,5.33905e-05,0.0533862,21.0122,-338.844,-0.0354273,0.0,0.0
3893,973,21.144,21.5761,137.729,111.95,112.689,0.000190981,0.0529406,21.0146,-338.824,-0.0585214,0.0,0.0
3910,977.25,21.2879,21.5759,140.404,111.929,112.889,3.67005e-07,0.0529401,21.0162,-338.814,-0.0759658,0.0,0.0
3927,981.5,21.2563,21.614,140.173,111.934,112.809,0.000104552,0.0528951,21.0166,-338.824,-0.0692424,0.0,0.0
3944,985.75,20.8927,21.6266,142.069,111.93,112.576,0.00037799,0.0529811,21.0173,-338.804,-0.0511629,0.0,0.0
3961,990,20.8465,21.6199,138.179,111.923,112.724,0.000432115,0.0529044,21.0187,-338.824,-0.063414,0.0,0.0
3978,994.25,20.8294,21.8453,135.267,111.931,112.43,0.00023598,0.0527901,21.0166,-338.814,-0.0395985,0.0,0.0
3995,998.5,21.7375,21.8012,138.902,111.941,112.421,0.00023965,0.0525863,21.0145,-338.814,-0.0380461,0.0,0.0
4012,1002.75,21.0254,21.6501,139.386,111.906,112.535,0.000319106,0.0522769,21.0142,-338.824,-0.0497801,0.0,0.0
4029,1007,21.2659,21.4388,138.87,111.918,112.459,0.000298394,0.0521639,21.0159,-338.834,-0.0429337,0.0,0.0
4046,1011.25,20.9265,21.6013,142.334,111.915,112.354,-3.11544e-05,0.0521161,21.0139,-338.844,-0.0348281,0.0,0.0
4063,1015.5,20.8424,21.7824,142.39,111.907,112.509,-1.2732e-05,0.0519322,21.0134,-338.834,-0.0476599,0.0,0.0
4080,1019.75,21.0172,21.6086,135.169,111.898,112.724,0.000370141,0.0518442,21.0163,-338.844,-0.0653558,0.0,0.0
4097,1024,20.6771,21.5399,137.456,111.895,112.434,0.000256732,0.0518926,21.0177,-338.824,-0.0427665,0.0,0.0
4114,1028.25,20.9411,22.0023,139.068,111.869,112.577,-7.60308e-05,0.0518732,21.0179,-338.824,-0.0561085,0.0,0.0
4131,1032.5,21.3298,21.9559,140.093,111.867,112.66,9.67204e-05,0.0519285,21.019,-338.824,-0.0627536,0.0,0.0
4148,1036.75,21.1698,21.8565,139.252,111.86,112.403,0.000122838,0.0519988,21.0187,-338.844,-0.0430488,0.0,0.0
4165,1041,21.1164,21.4424,139.795,111.852,112.644,8.41635e-05,0.0518711,21.0165,-338.824,-0.0627403,0.0,0.0
4182,1045.25,21.2829,21.7044,139.518,111.82,112.381,-4.84817e-05,0.0518411,21.0148,-338.834,-0.0444534,0.0,0.0
4199,1049.5,21.1921,21.6242,138.881,111.814,112.514,0.000193077,0.0518556,21.0147,-338.834,-0.0554919,0.0,0.0
4216,1053.75,21.1053,21.9619,141.339,111.798,112.215,0.000341236,0.0519574,21.0145,-338.834,-0.0330642,0.0,0.0
4233,1058,21.3813,21.7209,140.951,111.793,112.475,0.000352072,0.0518768,21.0154,-338.814,-0.054094,0.0,0.0
4250,1062.25,21.3114,21.5267,140.021,111.79,112.169,0.000135917,0.0517621,21.0165,-338.814,-0.0301247,0.0,0.0
4267,1066.5,21.2441,21.6853,143.037,111.778,112.367,0.000173952,0.0518109,21.0177,-338.834,-0.0467572,0.0,0.0
4284,1070.75,21.0694,22.0427,140.938,111.748,112.422,6.70579e-05,0.0515654,21.0186,-338.824,-0.053486,0.0,0.0
4301,1075,20.9893,21.3669,138.436,111.722,112.333,-0.000129466,0.0514669,21.0178,-338.814,-0.0485052,0.0,0.0
4318,1079.25,21.0528,22.2731,139.281,111.714,112.258,-7.38539e-05,0.0515975,21.0174,-338.834,-0.0432352,0.0,0.0
4335,1083.5,20.861,21.4585,137.536,111.698,112.263,-3.6019e-05,0.0518444,21.0173,-338.844,-0.0449009,0.0,0.0
4352,1087.75,21.1255,21.6198,139.294,111.66,112.564,0.000170572,0.0518257,21.0155,-338.834,-0.0716579,0.0,0.0
4369,1092,21.0386,21.6618,139.535,111.653,112.365,9.55674e-05,0.0517267,21.0144,-338.824,-0.0564872,0.0,0.0
4386,1096.25,20.8984,21.5064,137.72,111.638,112.365,-1.64238e-05,0.0518334,21.0136,-338.824,-0.0576795,0.0,0.0
4403,1100.5,21.0257,22.1793,140.187,111.6,112.184,-0.00034527,0.051701,21.0133,-338.814,-0.0464205,0.0,0.0
4420,1104.75,21.1953,21.7987,140.938,111.584,112.149,-0.000154448,0.0517138,21.0134,-338.824,-0.0449409,0.0,0.0
4437,1109,21.068,21.72,142.473,111.56,112.18,-0.000139308,0.0517988,21.014,-338.834,-0.0492823,0.0,0.0
4454,1113.25,20.9448,21.8378,141.269,111.543,112.308,-0.000171154,0.0519654,21.0166,-338.844,-0.0607985,0.0,0.0
4471,1117.5,20.8993,21.2845,139.255,111.515,112.125,-6.80643e-05,0.0518774,21.0164,-338.814,-0.0485414,0.0,0.0
4488,1121.75,20.9551,22.1042,138.815,111.496,112.005,-0.000202406,0.0518632,21.0158,-338.824,-0.0405431,0.0,0.0
4505,1126,20.462,21.6267,139.229,111.466,112.138,0.00024919,0.0518692,21.0162,-338.824,-0.0534599,0.0,0.0
4522,1130.25,21.1981,21.5968,139.855,111.43,112.068,0.000274347,0.0519563,21.0169,-338.844,-0.0507508,0.0,0.0
4539,1134.5,20.9371,21.5301,139.307,111.432,111.803,0.000293447,0.0517613,21.0175,-338.834,-0.0295343,0.0,0.0
4556,1138.75,21.2866,21.5035,141.086,111.406,112.237,0.000381748,0.0515905,21.0172,-338.824,-0.0660917,0.0,0.0
4573,1143,21.064,21.3658,140.767,111.389,112.033,0.000195158,0.0517767,21.0169,-338.834,-0.0513015,0.0,0.0
4590,1147.25,21.1213,21.658,139.488,111.374,112.057,8.02941e-05,0.0517608,21.017,-338.824,-0.0543921,0.0,0.0
4607,1151.5,21.2065,21.3899,138.698,111.375,111.845,-0.00011868,0.0518307,21.0176,-338.834,-0.0374499,0.0,0.0
4624,1155.75,21.0808,21.8525,139.587,111.395,112.005,-0.000140292,0.0519126,21.0175,-338.834,-0.048576,0.0,0.0
4641,1160,21.1737,21.9226,138.08,111.478,112.156,-1.06284e-05,0.0520102,21.0158,-338.824,-0.0539692,0.0,0.0
4658,1164.25,21.2048,21.8688,134.414,111.566,112.373,0.000101136,0.0518612,21.0169,-338.824,-0.0641438,0.0,0.0
4675,1168.5,20.8093,21.7873,139.11,111.637,112.159,0.000285252,0.051939,21.0168,-338.824,-0.0414835,0.0,0.0
4692,1172.75,19.9317,21.8369,142.999,111.701,112.278,6.47381e-05,0.0519457,21.015,-338.834,-0.0458194,0.0,0.0
4709,1177,21.224,21.7183,137.572,111.809,112.498,-3.50682e-05,0.0517735,21.0141,-338.814,-0.0546033,0.0,0.0
4726,1181.25,21.0844,21.4044,136.856,111.885,112.664,5.77964e-05,0.0517246,21.0149,-338.834,-0.0617448,0.0,0.0
4743,1185.5,20.7495,21.6564,142.021,111.95,112.414,0.000101518,0.0517067,21.0169,-338.834,-0.0367228,0.0,0.0
4760,1189.75,21.0559,21.6973,141.003,111.996,112.815,0.000130658,0.0516261,21.0172,-338.824,-0.0647882,0.0,0.0
4777,1194,20.8414,21.8648,139.171,111.99,112.684,7.10272e-06,0.0519504,21.0163,-338.834,-0.0549916,0.0,0.0
4794,1198.25,21.925,21.8644,134.867,112,112.492,0.000138521,0.0518756,21.0152,-338.844,-0.0389867,0.0,0.0
4811,1202.5,21.4792,21.8672,141.547,112.007,112.524,0.000173167,0.0517899,21.0146,-338.844,-0.041017,0.0,0.0
4828,1206.75,20.9079,21.9753,140.055,112.036,112.682,0.000106059,0.0517482,21.0149,-338.824,-0.0511949,0.0,0.0
4845,1211,21.5012,22.0605,138.307,112.071,112.698,0.000252181,0.0517139,21.0159,-338.834,-0.0496314,0.0,0.0
4862,1215.25,21.3842,21.6525,138.677,112.12,112.804,0.000173308,0.0517565,21.0142,-338.814,-0.0541233,0.0,0.0
4879,1219.5,21.2925,22.1171,137.537,112.173,112.692,-0.000116846,0.0518058,21.0138,-338.834,-0.0409818,0.0,0.0
4896,1223.75,21.0518,21.9084,139.293,112.211,112.901,-0.0001897,0.0518962,21.0126,-338.834,-0.0545057,0.0,0.0
4913,1228,20.9769,20.9435,139.083,112.245,113.147,1.92385e-05,0.0518029,21.0138,-338.844,-0.0711642,0.0,0.0
4930,1232.25,21.367,22.7687,140.372,112.292,112.981,0.000148674,0.0517826,21.0152,-338.824,-0.0544332,0.0,0.0
4947,1236.5,21.2022,21.5782,140.454,112.318,112.91,-0.000102912,0.0517983,21.0154,-338.824,-0.0467093,0.0,0.0
4964,1240.75,21.2764,22.0903,136.53,112.342,113.048,-0.000300776,0.0518933,21.0154,-338.834,-0.0557271,0.0,0.0
4981,1245,20.8373,21.3682,145.035,112.381,112.831,-9.75593e-05,0.0518677,21.0138,-338.844,-0.0355141,0.0,0.0
4998,1249.25,21.3988,22.0733,142.396,112.392,113.053,-4.56845e-05,0.0519015,21.0138,-338.834,-0.0521434,0.0,0.0
5015,1253.5,21.2441,20.7451,142.622,112.398,112.946,8.27509e-05,0.0515794,21.0146,-338.844,-0.0432347,0.0,0.0
5032,1257.75,21.109,21.6806,140.614,112.404,112.787,0.000180133,0.051781,21.016,-338.864,-0.0301991,0.0,0.0
5049,1262,21.0378,22.0126,140.314,112.397,113.001,0.000201828,0.0517035,21.0162,-338.844,-0.0475901,0.0,0.0
5066,1266.25,21.1008,21.3358,142.551,112.386,113.128,0.000275372,0.0518036,21.0163,-338.844,-0.0585556,0.0,0.0
5083,1270.5,21.0637,21.9082,136.533,112.374,113.224,0.000106249,0.0515397,21.0162,-338.854,-0.0669995,0.0,0.0
5100,1274.75,21.1851,22.2447,139.137,112.352,112.933,-9.9191e-05,0.0514857,21.0161,-338.824,-0.045934,0.0,0.0
5117,1279,20.8582,21.812,137.769,112.333,113.014,0.000135765,0.0516264,21.0161,-338.834,-0.053726,0.0,0.0
5134,1283.25,21.2599,21.3508,140.045,112.308,112.823,0.000258627,0.0517285,21.0161,-338.844,-0.0406927,0.0,0.0
5151,1287.5,21.8075,21.8605,137.902,112.284,112.702,-5.13029e-05,0.0516777,21.0154,-338.844,-0.0330169,0.0,0.0
5168,1291.75,21.0866,21.493,145.752,112.279,112.981,-0.000108978,0.0517077,21.0153,-338.854,-0.0554391,0.0,0.0
5185,1296,20.9414,21.7177,139.619,112.24,112.582,2.53999e-05,0.051625,21.0149,-338.834,-0.0270728,0.0,0.0
5202,1300.25,21.4537,21.5431,140.857,112.226,112.769,-8.88733e-05,0.0515285,21.015,-338.824,-0.0429066,0.0,0.0
5219,1304.5,21.0813,21.7985,136.299,112.191,113.085,-0.000135341,0.0515374,21.0152,-338.834,-0.0705663,0.0,0.0
5236,1308.75,21.1818,21.5867,138.903,112.163,112.705,-0.000201401,0.0516387,21.0138,-338.854,-0.0428874,0.0,0.0
5253,1313,21.1165,21.4986,137.004,112.147,112.645,-6.3839e-05,0.0516231,21.0135,-338.814,-0.0394175,0.0,0.0
5270,1317.25,21.1956,21.9597,137.678,112.118,113.016,-4.47154e-05,0.0514973,21.0157,-338.844,-0.0709937,0.0,0.0
5287,1321.5,21.351,21.7194,139.814,112.095,112.755,-0.000104906,0.0514762,21.0148,-338.844,-0.0522148,0.0,0.0
5304,1325.75,21.2145,21.3282,140.91,112.061,112.889,-4.13301e-05,0.0516726,21.0165,-338.824,-0.0654525,0.0,0.0
5321,1330,21.1791,22.1189,139.747,112.045,113.01,0.000265262,0.0517878,21.0143,-338.834,-0.07627,0.0,0.0
5338,1334.25,21.3434,21.2979,137.499,112.007,112.416,0.000422822,0.0517743,21.0152,-338.844,-0.0324221,0.0,0.0
5355,1338.5,21.1391,21.8137,138.537,111.97,113.027,0.000432291,0.0514938,21.0142,-338.844,-0.0835659,0.0,0.0
5372,1342.75,21.4389,21.8406,137.189,111.89,112.302,0.000235174,0.0515943,21.0151,-338.834,-0.0327014,0.0,0.0
5389,1347,21.259,22.1276,137.114,111.846,112.63,0.00010526,0.0515662,21.0153,-338.844,-0.0621574,0.0,0.0
5406,1351.25,21.5012,21.9787,141.099,111.868,112.512,0.000161822,0.0515527,21.0153,-338.834,-0.0510366,0.0,0.0
5423,1355.5,21.0719,20.7184,138.226,111.907,112.276,0.000167409,0.0514067,21.0168,-338.834,-0.0292838,0.0,0.0
5440,1359.75,21.2551,21.8282,136.855,111.947,112.493,0.000329257,0.0515855,21.0175,-338.824,-0.0433209,0.0,0.0
5457,1364,21.4725,21.9287,137.053,111.977,112.652,0.000122577,0.0515332,21.0149,-338.844,-0.0534327,0.0,0.0
5474,1368.25,21.2107,21.6352,140.921,112.018,112.592,8.23861e-05,0.0513641,21.015,-338.834,-0.0454614,0.0,0.0
5491,1372.5,21.1003,21.8569,140.758,112.041,113.008,4.39972e-05,0.0514061,21.0151,-338.844,-0.0763989,0.0,0.0
5508,1376.75,21.1048,21.8584,140.872,112.068,112.708,1.17142e-05,0.0513743,21.0137,-338.834,-0.050609,0.0,0.0
5525,1381,21.13,22.1214,139.974,112.08,112.655,1.47718e-05,0.0514304,21.0136,-338.864,-0.0455024,0.0,0.0
5542,1385.25,21.4399,22.0175,141.187,112.097,112.855,-2.47688e-05,0.0515336,21.0133,-338.844,-0.0599633,0.0,0.0
5559,1389.5,21.2265,21.9633,138.629,112.129,112.942,-2.26018e-05,0.0514455,21.0153,-338.854,-0.0642185,0.0,0.0
5576,1393.75,21.3988,21.6914,138.871,112.128,112.787,-0.000144492,0.0513724,21.0145,-338.844,-0.0521093,0.0,0.0
5593,1398,21.1505,21.81,140.314,112.157,112.923,-0.000125725,0.0515597,21.0158,-338.854,-0.0605807,0.0,0.0
5610,1402.25,21.1328,21.8393,136.976,112.213,113.022,-0.000112283,0.051493,21.0143,-338.844,-0.0638475,0.0,0.0
5627,1406.5,21.0696,21.9292,139.166,112.213,112.8,-1.31582e-05,0.0513535,21.0136,-338.834,-0.0464332,0.0,0.0
5644,1410.75,21.2439,21.6532,137.999,112.25,112.904,0.000255751,0.0514513,21.0153,-338.844,-0.0516923,0.0,0.0
5661,1415,21.4374,22.0044,141.479,112.294,112.863,1.71921e-05,0.0516174,21.0157,-338.844,-0.0450048,0.0,0.0
5678,1419.25,21.2749,21.9677,139,112.309,112.874,0.000146609,0.0513312,21.0169,-338.834,-0.0445893,0.0,0.0
5695,1423.5,20.9549,21.9799,139.416,112.337,112.853,0.000104652,0.0513524,21.0161,-338.834,-0.0407529,0.0,0.0
5712,1427.75,21.1297,22.2651,140.361,112.37,112.893,0.000200482,0.0515181,21.0158,-338.844,-0.0413003,0.0,0.0
5729,1432,21.066,21.4466,141.447,112.38,112.994,2.63361e-05,0.0514065,21.0161,-338.854,-0.0484743,0.0,0.0
5746,1436.25,21.3147,21.6695,143.094,112.394,112.873,-0.00014527,0.0515651,21.0158,-338.854,-0.0378336,0.0,0.0
5763,1440.5,21.5207,21.8527,136.472,112.417,113.147,-0.000145582,0.0515555,21.0147,-338.834,-0.0575227,0.0,0.0
5780,1444.75,21.5066,21.5552,138.575,112.426,113.095,-1.51956e-05,0.0514069,21.0161,-338.834,-0.0526899,0.0,0.0
5797,1449,21.0827,22.3439,136.878,112.464,113.192,0.000210417,0.0514562,21.0149,-338.844,-0.0574186,0.0,0.0
5814,1453.25,21.3021,21.8766,139.482,112.495,113.052,0.000335825,0.0514034,21.0148,-338.844,-0.0439591,0.0,0.0
5831,1457.5,20.9587,22.0275,141.748,112.519,113.18,0.000257438,0.0514568,21.0156,-338.854,-0.0520869,0.0,0.0
5848,1461.75,20.9258,21.6233,140.296,112.533,113.528,1.42628e-06,0.051557,21.0157,-338.844,-0.0782826,0.0,0.0
5865,1466,21.1315,21.6091,138.594,112.565,113.134,-9.28394e-05,0.0515394,21.0173,-338.854,-0.0447976,0.0,0.0
5882,1470.25,21.1596,22.0676,138.703,112.602,113.487,-5.59176e-05,0.0513259,21.0187,-338.854,-0.0696522,0.0,0.0
5899,1474.5,21.0254,21.9411,134.455,112.615,113.813,-0.000124013,0.0513234,21.0172,-338.854,-0.0941028,0.0,0.0
5916,1478.75,20.8261,22.1694,136.592,112.645,113.114,-4.58517e-05,0.0512431,21.0143,-338.844,-0.0369415,0.0,0.0
5933,1483,21.4737,21.8072,137.512,112.67,113.181,-0.000117771,0.0512871,21.0136,-338.844,-0.0402406,0.0,0.0
5950,1487.25,21.2354,21.8403,140.704,112.679,113.317,-0.000123776,0.051619,21.0134,-338.844,-0.0501842,0.0,0.0
5967,1491.5,21.2158,22.0435,138.486,112.705,113.342,-0.00028768,0.0515403,21.0134,-338.834,-0.0501346,0.0,0.0
5984,1495.75,21.9253,22.0541,139.652,112.721,113.252,2.27213e-05,0.0513314,21.0115,-338.844,-0.0417455,0.0,0.0
6001,1500,20.816,22.0805,140.01,112.752,113.469,-6.41189e-06,0.0511804,21.0134,-338.844,-0.0563368,0.0,0.0
6018,1504.25,21.4752,21.9481,140.435,112.754,113.29,-0.000144197,0.0513368,21.0165,-338.834,-0.042203,0.0,0.0
6035,1508.5,21.0752,21.9045,140.466,112.781,113.369,9.24031e-05,0.0514039,21.0176,-338.854,-0.0462382,0.0,0.0
6052,1512.75,21.3549,22.031,139.916,112.785,113.616,0.000282748,0.0513019,21.0179,-338.834,-0.0653083,0.0,0.0
6069,1517,21.4821,22.2612,141.734,112.791,113.643,0.000356786,0.0512178,21.0179,-338.854,-0.0669878,0.0,0.0
6086,1521.25,20.8445,22.0211,142.575,112.794,113.786,0.000167885,0.0512878,21.0179,-338.844,-0.0778655,0.0,0.0
6103,1525.5,21.3104,21.7016,140.148,112.805,113.181,-7.21555e-05,0.0512249,21.0159,-338.824,-0.0296216,0.0,0.0
6120,1529.75,21.2353,21.9054,142.214,112.808,113.2,-0.000223185,0.0513328,21.0155,-338.864,-0.0308486,0.0,0.0
6137,1534,21.1765,21.9406,138.981,112.815,113.553,-0.000203011,0.0513211,21.0168,-338.844,-0.0580514,0.0,0.0
6154,1538.25,20.9005,21.8178,139.124,112.815,113.469,-2.2245e-05,0.0512138,21.0169,-338.854,-0.0514428,0.0,0.0
6171,1542.5,21.1289,21.8551,141.006,112.82,113.396,7.95089e-05,0.0513638,21.0156,-338.864,-0.0453117,0.0,0.0
6188,1546.75,20.9865,21.675,138.56,112.81,113.268,0.000411784,0.0512865,21.0164,-338.844,-0.0360138,0.0,0.0
6205,1551,21.1144,21.9285,143.184,112.803,113.362,0.000357995,0.0513475,21.0162,-338.844,-0.0439639,0.0,0.0
6222,1555.25,20.9221,22.179,140.167,112.784,113.835,0.000325617,0.0514417,21.0162,-338.834,-0.082468,0.0,0.0
6239,1559.5,21.285,22.1278,141.11,112.758,113.553,0.000349647,0.051413,21.0158,-338.844,-0.0624451,0.0,0.0
6256,1563.75,21.2202,22.0889,137.712,112.751,113.532,0.000187269,0.0514456,21.0149,-338.854,-0.0613813,0.0,0.0
6273,1568,21.2856,21.792,139.277,112.719,113.385,0.000116705,0.0516743,21.0148,-338.844,-0.052338,0.0,0.0
6290,1572.25,21.168,21.7715,139.793,112.706,113.167,0.000171455,0.0515445,21.0167,-338.854,-0.0362597,0.0,0.0
6307,1576.5,21.3627,21.7645,140.845,112.704,113.61,1.60355e-05,0.0512885,21.017,-338.854,-0.0712293,0.0,0.0
6324,1580.75,20.8424,21.9264,136.75,112.693,113.421,4.72463e-05,0.0514397,21.0167,-338.854,-0.0573189,0.0,0.0
6341,1585,21.4722,21.5238,140.612,112.665,113.059,0.000113275,0.051488,21.0158,-338.854,-0.0310816,0.0,0.0
6358,1589.25,21.1501,22.0401,139.984,112.662,113.111,8.62299e-05,0.0514601,21.0156,-338.844,-0.0353374,0.0,0.0
6375,1593.5,20.844,21.2535,141.998,112.631,113.069,0.000213171,0.0514237,21.0155,-338.844,-0.0345259,0.0,0.0
6392,1597.75,21.2736,22.1817,141.269,112.606,113.049,7.02718e-05,0.0514266,21.0157,-338.844,-0.0349766,0.0,0.0
6409,1602,21.052,22.1708,137.995,112.57,113.283,0.0001701,0.0512409,21.0154,-338.854,-0.0561005,0.0,0.0
6426,1606.25,21.166,21.9665,139.987,112.542,113.189,7.69777e-06,0.0513337,21.0154,-338.834,-0.0510136,0.0,0.0
6443,1610.5,21.4549,21.5322,137.875,112.518,113.341,-4.11031e-07,0.051416,21.0154,-338.844,-0.0648075,0.0,0.0
6460,1614.75,21.3076,21.8307,139.045,112.464,113.181,0.000256441,0.0511885,21.0154,-338.844,-0.0565406,0.0,0.0
6477,1619,21.3693,21.8756,143.13,112.439,112.922,0.000189028,0.0515122,21.0151,-338.844,-0.0381653,0.0,0.0
6494,1623.25,21.1511,21.5681,137.716,112.398,113.058,-0.000107703,0.0515722,21.0144,-338.854,-0.0520362,0.0,0.0
6511,1627.5,21.4099,21.6858,141.115,112.368,112.917,7.05109e-05,0.0513049,21.0142,-338.854,-0.0433257,0.0,0.0
6528,1631.75,21.4019,21.931,142.031,112.328,113.074,0.000252707,0.0513265,21.0145,-338.834,-0.0588784,0.0,0.0
6545,1636,21.3851,22.29,140.288,112.296,112.959,1.9389e-05,0.0515095,21.0149,-338.844,-0.0523151,0.0,0.0
6562,1640.25,21.1705,21.9558,137.814,112.247,113.026,1.54336e-05,0.0513901,21.016,-338.854,-0.0615489,0.0,0.0
6579,1644.5,21.2744,21.7974,140.265,112.197,112.978,-0.000101283,0.0512973,21.0166,-338.834,-0.0617026,0.0,0.0
6596,1648.75,21.463,21.4979,139.283,112.153,112.655,0.000103546,0.0512982,21.0167,-338.834,-0.0397161,0.0,0.0
6613,1653,20.9911,21.7523,137.997,112.071,112.868,-8.06585e-05,0.0513357,21.0167,-338.844,-0.063051,0.0,0.0
6630,1657.25,21.2297,21.9468,144.091,112.021,112.74,-0.000101116,0.051383,21.0167,-338.854,-0.0568777,0.0,0.0
6647,1661.5,21.3794,21.7175,140.684,111.955,112.388,7.34631e-05,0.0513424,21.0167,-338.864,-0.0342758,0.0,0.0
6664,1665.75,21.0523,22.2893,139.1,111.878,112.552,-5.14436e-06,0.0513797,21.0167,-338.844,-0.0534167,0.0,0.0
6681,1670,21.0714,21.9114,144.997,111.789,112.357,-7.92031e-05,0.0514598,21.0167,-338.854,-0.045056,0.0,0.0
6698,1674.25,21.5208,21.5693,142.056,111.726,112.215,-4.71857e-05,0.0513691,21.0167,-338.854,-0.0388377,0.0,0.0
6715,1678.5,21.4067,21.9055,136.419,111.654,112.131,4.2886e-05,0.0514226,21.0167,-338.854,-0.0378906,0.0,0.0
6732,1682.75,20.9699,21.825,139.629,111.582,112.632,0.000106037,0.0514818,21.0167,-338.864,-0.0832855,0.0,0.0
6749,1687,21.6223,21.83,141.663,111.559,112.24,-0.000107276,0.0515705,21.0167,-338.854,-0.054103,0.0,0.0
6766,1691.25,21.5331,22.1121,142.86,111.506,112.086,-6.78566e-06,0.0512585,21.0167,-338.864,-0.0460885,0.0,0.0
6783,1695.5,21.2996,21.6908,140.2,111.453,111.797,-5.20935e-05,0.0513674,21.0167,-338.844,-0.0273849,0.0,0.0
6800,1699.75,21.1937,21.9381,139.145,111.415,112.022,0.00011117,0.0513878,21.0167,-338.864,-0.0482787,0.0,0.0
6817,1704,21.3396,22.4005,139.671,111.367,111.899,0.000167228,0.0514759,21.0167,-338.844,-0.042424,0.0,0.0
6834,1708.25,21.0683,22.0326,141.809,111.308,111.898,0.000192744,0.0515305,21.0167,-338.854,-0.0470114,0.0,0.0
6851,1712.5,21.0733,21.7496,137.008,111.257,112.175,0.000127703,0.0514101,21.0157,-338.844,-0.0731307,0.0,0.0
6868,1716.75,21.1903,22.0393,138.305,111.196,112.022,8.73167e-05,0.0514439,21.0155,-338.854,-0.0658172,0.0,0.0
6885,1721,21.1363,22.1808,139.67,111.126,111.854,0.000316671,0.0514924,21.0165,-338.854,-0.0580407,0.0,0.0
6902,1725.25,21.3037,22.0344,142.44,111.06,111.694,0.00014712,0.0514698,21.0167,-338.844,-0.0505637,0.0,0.0
6919,1729.5,21.3333,21.9306,141.039,111.014,111.789,-0.000114949,0.0515309,21.0167,-338.844,-0.0618713,0.0,0.0
6936,1733.75,21.1516,22.0385,140.819,110.964,111.642,-0.000171647,0.0516585,21.0172,-338.854,-0.0541766,0.0,0.0
6953,1738,21.1413,21.7994,144.066,110.909,111.488,-0.000106766,0.051742,21.0173,-338.864,-0.0462968,0.0,0.0
6970,1742.25,21.3277,21.4384,139.306,110.871,111.303,-0.000141822,0.0518057,21.0164,-338.854,-0.0345844,0.0,0.0
6987,1746.5,20.95,21.7461,140.11,110.85,111.326,-0.0001678,0.05177,21.0172,-338.844,-0.0380849,0.0,0.0
7004,1750.75,20.9677,21.791,141.212,110.825,111.332,-7.48685e-05,0.0519438,21.0157,-338.864,-0.0405771,0.0,0.0
7021,1755,21.4062,21.9899,139.294,110.818,111.668,4.97956e-05,0.0521265,21.015,-338.854,-0.067946,0.0,0.0
7038,1759.25,21.4171,22.1281,141.37,110.805,111.361,0.000221176,0.0523506,21.0145,-338.854,-0.044528,0.0,0.0
7055,1763.5,21.0212,21.9461,139.494,110.795,111.542,0.000239427,0.0529023,21.0144,-338.854,-0.0597279,0.0,0.0
7072,1767.75,21.0243,21.881,137.427,110.774,111.492,0.000226165,0.0531686,21.0144,-338.854,-0.0574667,0.0,0.0
7089,1772,21.7084,22.2722,137.775,110.771,111.366,9.87253e-05,0.0531259,21.0144,-338.844,-0.0476226,0.0,0.0
7106,1776.25,21.4341,22.0419,140.698,110.771,111.127,3.96233e-05,0.0529178,21.0144,-338.854,-0.0285298,0.0,0.0
7123,1780.5,21.4294,22.0767,142.808,110.761,111.551,5.75294e-05,0.0525354,21.0153,-338.844,-0.0631865,0.0,0.0
7140,1784.75,21.153,22.0611,141.635,110.768,111.723,0.000105946,0.0523892,21.0158,-338.844,-0.0763604,0.0,0.0
7157,1789,21.3555,21.8179,139.764,110.762,111.268,5.63709e-05,0.0522108,21.0159,-338.864,-0.0405196,0.0,0.0
7174,1793.25,21.2585,22.0453,137.252,110.75,111.38,0.000402044,0.0522583,21.0152,-338.854,-0.0504699,0.0,0.0
7191,1797.5,21.2273,22.052,139.239,110.752,111.518,0.000269987,0.052043,21.0167,-338.844,-0.0612809,0.0,0.0
7208,1801.75,21.2878,21.6957,139.894,110.749,111.402,6.48429e-05,0.0521179,21.0161,-338.844,-0.0522511,0.0,0.0
7225,1806,21.2833,22.2898,139.252,110.742,111.433,0.00035801,0.0522401,21.0158,-338.854,-0.0553078,0.0,0.0
7242,1810.25,20.6318,21.5672,142.234,110.729,111.231,0.000361189,0.0522686,21.0157,-338.844,-0.0401714,0.0,0.0
7259,1814.5,21.0236,21.433,140.303,110.738,111.077,0.000120174,0.0521819,21.0157,-338.844,-0.02716,0.0,0.0
7276,1818.75,20.6939,21.3262,138.71,110.727,111.443,0.000112354,0.052155,21.0157,-338.854,-0.0573573,0.0,0.0
7293,1823,20.2973,21.6997,141.002,110.712,111.125,3.75249e-05,0.0526008,21.0157,-338.834,-0.0330999,0.0,0.0
7310,1827.25,20.3458,21.4709,139.145,110.723,111.582,3.29438e-05,0.0531629,21.0147,-338.844,-0.0687531,0.0,0.0
7327,1831.5,20.4739,21.6655,136.452,110.725,111.474,6.97386e-06,0.0532703,21.0126,-338.844,-0.0599761,0.0,0.0
7344,1835.75,20.6133,21.6065,141.731,110.716,111.626,-9.71107e-05,0.0527443,21.0131,-338.854,-0.0728186,0.0,0.0
7361,1840,20.9903,21.3996,138.54,110.725,111.46,4.61986e-05,0.052377,21.0142,-338.864,-0.0588453,0.0,0.0
7378,1844.25,20.8253,21.3484,139.284,110.727,111.734,0.000183886,0.0523026,21.0143,-338.854,-0.0805267,0.0,0.0
7395,1848.5,20.7459,21.5282,137.919,110.713,111.528,0.000151788,0.0520889,21.0151,-338.844,-0.0652602,0.0,0.0
7412,1852.75,20.6597,21.6663,140.915,110.712,111.206,0.000147259,0.0520683,21.0156,-338.854,-0.0395687,0.0,0.0
7429,1857,20.8102,21.5864,140.562,110.722,111.226,5.01854e-05,0.0519088,21.0157,-338.874,-0.0403524,0.0,0.0
7446,1861.25,20.6693,21.385,142.913,110.711,111.334,8.94806e-05,0.0518134,21.0157,-338.854,-0.0498718,0.0,0.0
7463,1865.5,20.7085,21.6334,140.454,110.712,111.474,0.000141293,0.0516857,21.0166,-338.854,-0.0610328,0.0,0.0
7480,1869.75,20.8743,21.5383,137.868,110.716,111.293,9.26677e-05,0.0517876,21.0176,-338.864,-0.0462196,0.0,0.0
7497,1874,20.7405,21.3379,134.836,110.722,111.553,-0.000256183,0.0519066,21.0159,-338.844,-0.0665173,0.0,0.0
7514,1878.25,20.8763,21.3326,140.388,110.707,111.699,3.8632e-05,0.0518573,21.0152,-338.864,-0.0793746,0.0,0.0
7531,1882.5,20.5911,21.2688,139.4,110.714,111.465,0.000237835,0.0517972,21.017,-338.884,-0.0601612,0.0,0.0
7548,1886.75,20.4535,21.3935,139.408,110.728,111.418,0.000207231,0.0517214,21.0156,-338.854,-0.0552246,0.0,0.0
7565,1891,20.9149,21.4804,137.768,110.701,111.591,0.00019993,0.0517186,21.0151,-338.844,-0.0712662,0.0,0.0
7582,1895.25,20.8187,21.5752,139.187,110.707,111.598,2.04171e-05,0.0515663,21.0148,-338.854,-0.0713239,0.0,0.0
7599,1899.5,21.0023,21.6041,141.3,110.707,111.291,1.20618e-05,0.0515075,21.0143,-338.844,-0.0467897,0.0,0.0
7616,1903.75,20.4827,21.4214,136.917,110.717,111.395,0.000284536,0.0516678,21.0149,-338.854,-0.0542694,0.0,0.0
7633,1908,20.8339,21.0629,142.782,110.71,111.327,0.0001768,0.0516062,21.0143,-338.854,-0.0493771,0.0,0.0
7650,1912.25,21.0776,21.2898,141.27,110.72,111.476,8.92398e-05,0.0516596,21.0142,-338.854,-0.0605028,0.0,0.0
7667,1916.5,21.2661,21.1115,138.012,110.719,111.282,0.000151719,0.0514042,21.014,-338.864,-0.0451162,0.0,0.0
7684,1920.75,20.7648,21.4577,136.936,110.72,111.512,,0.0515281,,-338.854,-0.0633766,0.0,0.0
7701,1925,20.7741,21.1774,140.506,110.732,111.241,,,,-338.864,-0.0407699,0.0,0.0
7716,1928.75,20.8321,21.3203,139.617,110.727,111.431,,,,-338.874,-0.0563112,0.0,0.0