File: 01_Data/Polyester_Batting/MCC/Polyester_Batting_MCC_30K_min_210308_R2.txt
Sample ID:	C:\MCC\MCC Cal\Test\Polyester_Batting_30_2.txt
Sample Weight (mg):	3.76
Heating Rate (C/s):	0.5
Combustor Temp (C):	900
N2 Flow Rate (cc/min):	80
O2 Flow Rate (cc/min):	20
Calibration File:	C:\MCC\MCC Cal\Coeff1 JN10440_30_210304.txt.txt
T Correction Coefficients:	0	1.024463	0
Time Shift (s):	14
*
Time (s)	Temperature (C)	N2 flow rate (cc/min)	O2 flow rate (cc/min)	Flow Rate (cc/min)	Oxygen (%)	HRR (W/g)	Heating rate (C/s)
0.000	108.118	79.992	19.990	99.687	20.088	-0.054	-0.010
1.500	108.103	79.993	19.991	99.687	20.089	-0.134	0.002
3.000	108.121	79.994	19.991	99.699	20.090	-0.261	-0.002
4.500	108.093	79.993	19.993	99.706	20.087	0.025	-0.031
6.000	108.119	79.993	19.992	99.708	20.088	-0.063	0.036
7.500	108.156	79.994	19.991	99.703	20.087	0.011	-0.001
9.000	108.113	79.994	19.990	99.693	20.087	-0.039	-0.012
10.500	108.080	79.992	19.992	99.688	20.082	0.381	-0.002
12.000	108.147	79.992	19.992	99.709	20.084	0.231	0.047
13.500	108.111	79.992	19.992	99.723	20.085	0.199	-0.006
15.000	108.108	79.993	19.992	99.720	20.080	0.564	0.005
16.500	108.106	79.993	19.993	99.724	20.083	0.342	0.012
18.000	108.125	79.993	19.992	99.731	20.084	0.263	0.007
19.500	108.154	79.993	19.991	99.733	20.084	0.274	0.035
21.000	108.172	79.993	19.994	99.728	20.080	0.578	-0.005
22.500	108.197	79.992	19.991	99.742	20.081	0.508	0.018
24.000	108.208	79.994	19.992	99.754	20.079	0.671	0.000
25.500	108.265	79.994	19.991	99.770	20.078	0.765	0.052
27.000	108.371	79.994	19.992	99.789	20.076	0.901	0.055
28.500	108.387	79.994	19.992	99.774	20.074	1.099	0.012
30.000	108.443	79.994	19.989	99.755	20.072	1.230	0.054
31.500	108.538	79.994	19.992	99.765	20.070	1.409	0.050
33.000	108.600	79.996	19.991	99.792	20.069	1.480	0.056
34.501	108.650	79.993	19.992	99.812	20.067	1.682	0.025
36.000	108.780	79.993	19.992	99.841	20.064	1.934	0.072
37.500	108.956	79.991	19.992	99.870	20.058	2.406	0.103
39.000	109.054	79.991	19.993	99.892	20.059	2.341	0.085
40.500	109.205	79.992	19.991	99.906	20.054	2.711	0.079
42.000	109.366	79.991	19.992	99.901	20.057	2.522	0.088
43.500	109.577	79.991	19.994	99.878	20.051	2.945	0.130
45.000	109.720	79.990	19.991	99.896	20.053	2.804	0.108
46.500	109.997	79.991	19.993	99.903	20.048	3.219	0.169
48.000	110.217	79.991	19.992	99.904	20.046	3.398	0.122
49.500	110.418	79.990	19.992	99.917	20.044	3.526	0.137
51.000	110.694	79.990	19.993	99.926	20.044	3.585	0.180
52.500	111.004	79.992	19.993	99.933	20.042	3.699	0.209
54.000	111.285	79.992	19.991	99.925	20.039	3.962	0.181
55.500	111.583	79.992	19.992	99.930	20.040	3.885	0.214
57.001	111.895	79.991	19.991	99.933	20.039	3.943	0.201
58.500	112.231	79.992	19.991	99.919	20.031	4.671	0.247
60.000	112.552	79.991	19.992	99.915	20.033	4.444	0.210
61.500	112.919	79.991	19.992	99.918	20.031	4.644	0.245
63.000	113.303	79.991	19.992	99.934	20.029	4.781	0.272
64.500	113.704	79.990	19.992	99.936	20.031	4.616	0.288
66.000	114.106	79.991	19.991	99.937	20.028	4.895	0.279
67.500	114.577	79.990	19.992	99.969	20.036	4.265	0.299
69.000	115.024	79.990	19.992	99.991	20.035	4.324	0.314
70.501	115.447	79.990	19.992	99.993	20.032	4.518	0.295
72.000	115.953	79.990	19.994	99.991	20.032	4.548	0.338
73.500	116.416	79.988	19.992	99.977	20.031	4.608	0.298
75.000	116.917	79.989	19.992	99.969	20.028	4.881	0.313
76.500	117.443	79.989	19.993	99.973	20.028	4.912	0.367
78.000	117.920	79.991	19.992	99.960	20.028	4.855	0.329
79.500	118.518	79.992	19.992	99.959	20.027	4.958	0.399
81.000	119.085	79.991	19.992	99.973	20.025	5.140	0.406
82.501	119.635	79.991	19.992	99.991	20.029	4.824	0.367
84.000	120.242	79.992	19.991	99.999	20.028	4.855	0.389
85.500	120.827	79.992	19.990	100.009	20.031	4.671	0.381
87.000	121.478	79.992	19.992	100.002	20.028	4.865	0.433
88.500	122.017	79.993	19.990	99.992	20.030	4.753	0.382
90.000	122.654	79.994	19.991	99.993	20.029	4.839	0.433
91.500	123.281	79.993	19.992	100.006	20.029	4.780	0.404
93.000	123.931	79.993	19.991	100.007	20.030	4.764	0.429
94.500	124.585	79.993	19.992	100.002	20.030	4.757	0.416
96.000	125.226	79.992	19.992	99.996	20.032	4.596	0.440
97.500	125.924	79.992	19.990	100.004	20.027	5.003	0.463
99.000	126.603	79.992	19.992	100.000	20.029	4.846	0.450
100.500	127.273	79.992	19.993	99.999	20.027	4.985	0.447
102.000	127.936	79.993	19.991	99.999	20.027	4.991	0.440
103.500	128.619	79.991	19.991	99.991	20.024	5.187	0.452
105.000	129.318	79.994	19.992	99.988	20.024	5.240	0.483
106.500	130.043	79.994	19.992	99.987	20.027	5.004	0.474
108.000	130.741	79.994	19.992	99.993	20.027	4.975	0.449
109.500	131.459	79.994	19.993	99.994	20.030	4.705	0.476
111.001	132.151	79.994	19.991	99.995	20.028	4.930	0.454
112.501	132.888	79.994	19.991	99.994	20.027	5.000	0.480
114.001	133.592	79.994	19.990	99.992	20.029	4.803	0.452
115.500	134.315	79.994	19.991	99.986	20.022	5.384	0.484
117.000	135.035	79.994	19.991	99.973	20.027	4.941	0.455
118.500	135.775	79.992	19.990	99.986	20.028	4.925	0.487
120.000	136.545	79.991	19.990	99.992	20.025	5.164	0.511
121.500	137.289	79.992	19.991	99.988	20.027	4.934	0.497
123.000	138.073	79.991	19.992	99.991	20.027	4.957	0.519
124.501	138.817	79.990	19.991	99.994	20.028	4.927	0.508
126.000	139.599	79.990	19.991	99.996	20.024	5.229	0.517
127.500	140.346	79.990	19.992	99.991	20.029	4.767	0.498
129.000	141.069	79.990	19.991	99.991	20.028	4.863	0.485
130.500	141.850	79.991	19.992	99.995	20.030	4.761	0.521
132.000	142.689	79.991	19.993	99.977	20.029	4.834	0.567
133.500	143.389	79.991	19.992	99.978	20.029	4.826	0.482
135.000	144.227	79.993	19.992	99.980	20.030	4.733	0.556
136.500	144.961	79.991	19.992	99.975	20.028	4.928	0.479
138.000	145.757	79.991	19.992	99.969	20.029	4.767	0.521
139.500	146.505	79.991	19.994	99.974	20.032	4.546	0.511
141.000	147.299	79.992	19.992	99.967	20.032	4.553	0.518
142.500	148.076	79.991	19.991	99.971	20.032	4.594	0.506
144.000	148.903	79.991	19.992	99.967	20.036	4.229	0.543
145.500	149.658	79.993	19.991	99.959	20.032	4.531	0.505
147.000	150.420	79.991	19.992	99.956	20.035	4.274	0.510
148.500	151.223	79.992	19.991	99.954	20.035	4.328	0.530
150.000	151.958	79.990	19.992	99.952	20.035	4.301	0.483
151.500	152.729	79.992	19.992	99.949	20.032	4.542	0.503
153.000	153.517	79.991	19.992	99.951	20.031	4.640	0.508
154.500	154.246	79.991	19.992	99.959	20.032	4.522	0.486
156.000	155.051	79.990	19.992	99.968	20.034	4.426	0.551
157.500	155.818	79.991	19.993	99.957	20.032	4.517	0.512
159.000	156.583	79.992	19.993	99.944	20.031	4.635	0.502
160.500	157.391	79.990	19.993	99.949	20.033	4.465	0.531
162.000	158.107	79.991	19.992	99.952	20.036	4.251	0.476
163.500	158.890	79.992	19.992	99.960	20.032	4.542	0.514
165.000	159.665	79.993	19.991	99.960	20.035	4.276	0.496
166.500	160.400	79.993	19.992	99.945	20.038	4.067	0.497
168.000	161.164	79.993	19.992	99.948	20.039	3.945	0.508
169.500	161.915	79.993	19.992	99.961	20.040	3.929	0.493
171.000	162.684	79.992	19.992	99.956	20.035	4.330	0.507
172.500	163.409	79.994	19.991	99.951	20.036	4.224	0.469
174.000	164.236	79.993	19.992	99.953	20.035	4.291	0.559
175.500	164.995	79.992	19.991	99.951	20.038	4.068	0.520
177.000	165.759	79.992	19.990	99.952	20.036	4.189	0.498
178.500	166.471	79.991	19.991	99.956	20.038	4.082	0.486
180.000	167.266	79.992	19.990	99.953	20.036	4.219	0.525
181.500	168.004	79.991	19.991	99.906	20.039	4.008	0.488
183.000	168.735	79.991	19.990	99.880	20.039	4.007	0.481
184.500	169.530	79.993	19.992	99.996	20.041	3.826	0.530
186.000	170.270	79.993	19.991	100.031	20.042	3.724	0.525
187.500	171.034	79.993	19.992	99.947	20.040	3.908	0.496
189.000	171.771	79.993	19.992	99.927	20.039	3.992	0.516
190.500	172.547	79.994	19.990	99.942	20.040	3.903	0.516
192.000	173.338	79.993	19.990	99.949	20.041	3.797	0.544
193.501	174.079	79.994	19.991	99.936	20.038	4.060	0.500
195.000	174.760	79.994	19.990	99.923	20.039	3.987	0.458
196.500	175.544	79.993	19.993	99.944	20.038	4.016	0.509
198.000	176.290	79.994	19.991	99.953	20.039	3.998	0.504
199.500	177.042	79.992	19.990	99.948	20.039	3.995	0.510
201.000	177.776	79.994	19.992	99.945	20.042	3.717	0.506
202.500	178.553	79.991	19.991	99.949	20.039	3.935	0.497
204.000	179.246	79.991	19.991	99.942	20.041	3.770	0.454
205.500	179.980	79.992	19.991	99.933	20.041	3.830	0.477
207.000	180.736	79.990	19.991	99.925	20.035	4.302	0.501
208.500	181.420	79.992	19.991	99.925	20.036	4.218	0.485
210.000	182.171	79.993	19.991	99.923	20.039	3.964	0.494
211.500	182.951	79.990	19.992	99.926	20.041	3.826	0.513
213.000	183.612	79.992	19.991	99.947	20.038	4.060	0.468
214.500	184.329	79.991	19.991	99.951	20.032	4.517	0.489
216.000	185.120	79.992	19.992	99.942	20.046	3.427	0.562
217.500	185.911	79.993	19.991	99.928	20.041	3.842	0.516
219.001	186.646	79.992	19.992	99.921	20.040	3.925	0.485
220.500	187.355	79.992	19.992	99.927	20.034	4.379	0.481
222.000	188.100	79.992	19.992	99.939	20.039	3.947	0.519
223.500	188.832	79.992	19.992	99.940	20.038	4.099	0.473
225.000	189.577	79.991	19.991	99.945	20.043	3.629	0.493
226.500	190.320	79.993	19.991	99.949	20.041	3.849	0.488
228.000	191.004	79.991	19.992	99.944	20.033	4.500	0.428
229.500	191.729	79.992	19.991	99.927	20.037	4.164	0.474
231.000	192.557	79.992	19.992	99.922	20.036	4.255	0.569
232.500	193.209	79.990	19.991	99.938	20.035	4.277	0.449
234.000	194.077	79.991	19.992	99.953	20.035	4.293	0.565
235.500	194.745	79.991	19.993	99.953	20.036	4.192	0.457
237.000	195.454	79.991	19.993	99.946	20.037	4.180	0.475
238.500	196.203	79.990	19.991	99.930	20.039	3.953	0.479
240.000	196.891	79.990	19.991	99.919	20.038	4.091	0.436
241.500	197.632	79.991	19.991	99.925	20.039	3.989	0.499
243.000	198.352	79.990	19.992	99.923	20.039	3.966	0.501
244.500	199.057	79.991	19.991	99.921	20.041	3.841	0.459
246.000	199.793	79.992	19.991	99.938	20.037	4.157	0.509
247.500	200.505	79.992	19.991	99.933	20.038	4.089	0.457
249.000	201.268	79.992	19.992	99.920	20.037	4.168	0.516
250.500	201.991	79.991	19.991	99.928	20.038	4.043	0.478
252.000	202.718	79.993	19.993	99.928	20.039	4.007	0.498
253.500	203.488	79.992	19.992	99.924	20.038	4.041	0.497
255.000	204.164	79.992	19.992	99.925	20.040	3.866	0.447
256.500	204.932	79.993	19.992	99.926	20.040	3.880	0.487
258.000	205.685	79.992	19.992	99.926	20.041	3.789	0.487
259.500	206.393	79.990	19.991	99.921	20.039	3.962	0.477
261.000	207.133	79.992	19.991	99.921	20.040	3.880	0.492
262.500	207.909	79.991	19.991	99.922	20.041	3.787	0.537
264.000	208.618	79.991	19.992	99.920	20.037	4.171	0.471
265.500	209.389	79.993	19.992	99.926	20.036	4.250	0.509
267.000	210.138	79.993	19.990	99.922	20.040	3.917	0.494
268.500	210.901	79.992	19.991	99.923	20.035	4.334	0.519
270.000	211.636	79.993	19.992	99.927	20.041	3.785	0.497
271.500	212.357	79.994	19.991	99.917	20.041	3.840	0.495
273.000	213.105	79.993	19.991	99.917	20.038	4.019	0.480
274.500	213.806	79.994	19.991	99.930	20.036	4.193	0.471
276.000	214.580	79.994	19.992	99.932	20.040	3.916	0.492
277.500	215.283	79.992	19.991	99.942	20.042	3.744	0.463
279.000	216.032	79.995	19.991	99.938	20.041	3.793	0.496
280.500	216.783	79.993	19.991	99.927	20.040	3.925	0.502
282.000	217.551	79.992	19.991	99.936	20.039	4.004	0.488
283.500	218.263	79.993	19.990	99.936	20.042	3.698	0.473
285.000	219.054	79.991	19.991	99.925	20.038	4.036	0.520
286.500	219.765	79.993	19.990	99.918	20.037	4.168	0.464
288.000	220.482	79.991	19.992	99.925	20.038	4.036	0.486
289.500	221.236	79.991	19.991	99.915	20.039	3.948	0.505
291.000	222.017	79.991	19.993	99.914	20.043	3.657	0.516
292.500	222.725	79.991	19.992	99.915	20.037	4.148	0.498
294.000	223.475	79.992	19.991	99.914	20.040	3.866	0.511
295.500	224.204	79.991	19.992	99.913	20.036	4.220	0.483
297.000	224.996	79.991	19.991	99.918	20.043	3.680	0.524
298.500	225.691	79.991	19.991	99.922	20.043	3.650	0.466
300.000	226.463	79.990	19.990	99.917	20.040	3.855	0.494
301.500	227.179	79.991	19.992	99.922	20.041	3.782	0.479
303.000	227.961	79.993	19.991	99.923	20.039	3.942	0.516
304.500	228.773	79.991	19.991	99.919	20.039	3.951	0.540
306.000	229.514	79.990	19.990	99.917	20.041	3.819	0.491
307.500	230.267	79.992	19.991	99.919	20.041	3.794	0.504
309.000	231.067	79.990	19.992	99.918	20.043	3.607	0.528
310.500	231.780	79.990	19.993	99.917	20.042	3.730	0.468
312.000	232.525	79.991	19.992	99.890	20.042	3.716	0.495
313.500	233.284	79.991	19.992	99.838	20.043	3.662	0.507
315.000	234.033	79.989	19.992	99.900	20.044	3.540	0.509
316.500	234.791	79.991	19.992	99.982	20.043	3.612	0.516
318.000	235.577	79.990	19.991	99.963	20.042	3.689	0.523
319.500	236.312	79.991	19.992	99.916	20.049	3.137	0.505
321.000	237.032	79.990	19.992	99.916	20.051	2.972	0.499
322.500	237.854	79.990	19.992	99.916	20.048	3.238	0.534
324.000	238.568	79.990	19.992	99.917	20.049	3.138	0.472
325.500	239.342	79.991	19.991	99.932	20.046	3.419	0.485
327.000	240.063	79.990	19.992	99.925	20.047	3.344	0.475
328.500	240.821	79.991	19.991	99.918	20.044	3.519	0.513
330.000	241.560	79.993	19.992	99.916	20.042	3.741	0.503
331.500	242.353	79.991	19.993	99.917	20.045	3.448	0.521
333.000	243.093	79.992	19.991	99.926	20.045	3.478	0.488
334.500	243.867	79.992	19.992	99.930	20.044	3.553	0.523
336.000	244.565	79.992	19.992	99.917	20.046	3.373	0.467
337.500	245.349	79.991	19.993	99.920	20.047	3.296	0.542
339.000	246.056	79.992	19.993	99.925	20.046	3.389	0.471
340.500	246.801	79.991	19.992	99.919	20.048	3.235	0.494
342.000	247.488	79.991	19.992	99.914	20.051	3.015	0.452
343.500	248.223	79.990	19.993	99.913	20.044	3.559	0.469
345.000	249.025	79.992	19.993	99.910	20.041	3.814	0.530
346.500	249.775	79.992	19.993	99.911	20.045	3.480	0.510
348.000	250.549	79.992	19.993	99.912	20.045	3.480	0.503
349.500	251.286	79.991	19.992	99.913	20.046	3.376	0.504
351.000	252.062	79.992	19.992	99.913	20.042	3.721	0.524
352.500	252.759	79.993	19.993	99.913	20.045	3.437	0.473
354.000	253.505	79.996	19.991	99.912	20.042	3.709	0.493
355.500	254.260	79.994	19.991	99.910	20.046	3.360	0.518
357.000	255.001	79.995	19.991	99.913	20.044	3.553	0.478
358.500	255.738	79.995	19.992	99.914	20.043	3.664	0.482
360.000	256.498	79.995	19.991	99.916	20.044	3.589	0.509
361.500	257.260	79.993	19.991	99.918	20.044	3.548	0.484
363.000	258.017	79.995	19.992	99.919	20.042	3.753	0.502
364.500	258.772	79.994	19.990	99.916	20.043	3.675	0.532
366.000	259.518	79.992	19.990	99.921	20.042	3.723	0.488
367.500	260.241	79.992	19.991	99.919	20.044	3.578	0.488
369.000	261.014	79.991	19.992	99.919	20.044	3.562	0.497
370.500	261.719	79.992	19.990	99.920	20.043	3.623	0.492
372.000	262.506	79.991	19.991	99.921	20.042	3.707	0.526
373.500	263.310	79.991	19.991	99.923	20.041	3.834	0.515
375.000	264.025	79.991	19.990	99.916	20.045	3.487	0.481
376.500	264.807	79.992	19.991	99.916	20.042	3.757	0.520
378.000	265.581	79.991	19.992	99.919	20.041	3.807	0.523
379.500	266.303	79.991	19.991	99.932	20.041	3.828	0.475
381.000	267.089	79.990	19.991	99.929	20.044	3.530	0.523
382.500	267.820	79.991	19.991	99.917	20.049	3.115	0.508
384.000	268.590	79.991	19.991	99.918	20.048	3.203	0.520
385.500	269.303	79.992	19.991	99.919	20.049	3.149	0.469
387.000	270.155	79.993	19.990	99.921	20.048	3.192	0.569
388.500	270.911	79.991	19.989	99.924	20.047	3.287	0.519
390.000	271.696	79.992	19.990	99.919	20.050	3.060	0.502
391.500	272.462	79.992	19.991	99.918	20.049	3.149	0.492
393.000	273.219	79.993	19.991	99.918	20.048	3.233	0.490
394.500	273.977	79.993	19.991	99.916	20.047	3.276	0.505
396.000	274.785	79.991	19.991	99.916	20.048	3.214	0.551
397.500	275.531	79.990	19.992	99.914	20.047	3.344	0.495
399.000	276.303	79.991	19.992	99.913	20.046	3.380	0.505
400.500	277.024	79.991	19.992	99.911	20.047	3.294	0.490
402.000	277.830	79.992	19.992	99.912	20.046	3.421	0.533
403.500	278.612	79.991	19.992	99.914	20.048	3.253	0.515
405.000	279.351	79.991	19.990	99.913	20.046	3.419	0.494
406.501	280.039	79.993	19.991	99.914	20.046	3.412	0.453
408.000	280.817	79.992	19.993	99.914	20.045	3.451	0.521
409.500	281.604	79.993	19.992	99.914	20.047	3.333	0.520
411.000	282.302	79.995	19.992	99.915	20.049	3.144	0.466
412.500	283.069	79.992	19.992	99.913	20.050	3.064	0.525
414.000	283.849	79.994	19.991	99.915	20.047	3.273	0.521
415.500	284.570	79.994	19.991	99.917	20.048	3.230	0.488
417.000	285.340	79.994	19.991	99.912	20.047	3.337	0.518
418.500	286.111	79.994	19.992	99.913	20.049	3.185	0.507
420.001	286.868	79.993	19.992	99.919	20.048	3.216	0.508
421.500	287.643	79.992	19.991	99.915	20.048	3.264	0.512
423.000	288.391	79.994	19.992	99.909	20.046	3.407	0.500
424.500	289.118	79.991	19.993	99.910	20.048	3.207	0.482
426.000	289.895	79.993	19.992	99.913	20.046	3.432	0.519
427.500	290.684	79.991	19.992	99.912	20.044	3.598	0.537
429.000	291.396	79.991	19.994	99.911	20.043	3.612	0.502
430.500	292.121	79.992	19.992	99.907	20.041	3.771	0.476
432.000	292.900	79.993	19.992	99.908	20.043	3.614	0.502
433.500	293.660	79.992	19.992	99.911	20.042	3.732	0.493
435.000	294.447	79.993	19.992	99.909	20.044	3.555	0.519
436.500	295.175	79.994	19.992	99.909	20.042	3.734	0.500
438.000	295.918	79.993	19.990	99.911	20.042	3.748	0.509
439.500	296.671	79.995	19.990	99.912	20.041	3.782	0.502
441.000	297.377	79.994	19.990	99.914	20.042	3.757	0.470
442.500	298.153	79.995	19.990	99.914	20.042	3.759	0.512
444.000	298.886	79.994	19.990	99.914	20.043	3.616	0.501
445.500	299.650	79.994	19.991	99.914	20.042	3.698	0.523
447.000	300.394	79.992	19.990	99.914	20.045	3.443	0.483
448.500	301.146	79.992	19.992	99.915	20.044	3.546	0.502
450.000	301.914	79.990	19.991	99.915	20.042	3.732	0.514
451.500	302.626	79.990	19.990	99.916	20.043	3.634	0.462
453.000	303.337	79.991	19.990	99.917	20.045	3.468	0.465
454.500	304.095	79.991	19.991	99.915	20.045	3.457	0.496
456.000	304.878	79.989	19.992	99.915	20.046	3.432	0.540
457.500	305.639	79.990	19.992	99.912	20.045	3.468	0.484
459.000	306.375	79.990	19.991	99.907	20.042	3.693	0.507
460.500	307.091	79.991	19.992	99.910	20.041	3.784	0.494
462.000	307.844	79.991	19.991	99.910	20.044	3.600	0.504
463.500	308.591	79.992	19.991	99.907	20.041	3.791	0.481
465.000	309.350	79.991	19.991	99.905	20.044	3.600	0.505
466.500	310.124	79.991	19.991	99.904	20.041	3.800	0.503
468.000	310.887	79.992	19.991	99.905	20.043	3.655	0.519
469.500	311.631	79.992	19.991	99.910	20.040	3.859	0.477
471.000	312.441	79.992	19.991	99.912	20.040	3.850	0.537
472.500	313.166	79.991	19.991	99.913	20.039	3.950	0.479
474.000	313.958	79.991	19.991	99.914	20.042	3.743	0.507
475.500	314.674	79.991	19.991	99.914	20.040	3.864	0.475
477.000	315.415	79.991	19.990	99.915	20.044	3.559	0.490
478.500	316.194	79.990	19.991	99.915	20.040	3.863	0.513
480.000	316.957	79.990	19.991	99.913	20.039	3.957	0.507
481.501	317.688	79.991	19.992	99.913	20.038	4.032	0.498
483.000	318.438	79.992	19.991	99.913	20.041	3.836	0.509
484.500	319.170	79.992	19.991	99.914	20.039	3.970	0.496
486.000	319.930	79.991	19.992	99.912	20.039	4.014	0.495
487.500	320.685	79.990	19.991	99.903	20.038	4.068	0.495
489.000	321.476	79.993	19.992	99.904	20.040	3.918	0.526
490.500	322.228	79.992	19.992	99.913	20.036	4.186	0.503
492.000	322.976	79.992	19.991	99.911	20.037	4.170	0.522
493.500	323.763	79.993	19.992	99.913	20.036	4.188	0.511
495.000	324.452	79.994	19.992	99.914	20.038	4.052	0.451
496.500	325.266	79.996	19.993	99.916	20.039	3.998	0.538
498.000	326.021	79.996	19.992	99.916	20.036	4.249	0.480
499.500	326.773	79.993	19.991	99.913	20.034	4.395	0.486
501.000	327.508	79.993	19.990	99.915	20.035	4.320	0.478
502.500	328.297	79.994	19.992	99.916	20.037	4.100	0.513
504.000	329.032	79.992	19.991	99.911	20.035	4.302	0.479
505.500	329.787	79.991	19.992	99.912	20.034	4.370	0.498
507.000	330.543	79.992	19.991	99.916	20.035	4.286	0.484
508.500	331.296	79.991	19.991	99.909	20.033	4.465	0.491
510.000	332.039	79.992	19.992	99.910	20.037	4.120	0.484
511.500	332.814	79.991	19.992	99.913	20.035	4.315	0.521
513.000	333.588	79.991	19.991	99.915	20.036	4.234	0.504
514.500	334.388	79.992	19.992	99.916	20.038	4.029	0.546
516.000	335.154	79.991	19.993	99.917	20.036	4.209	0.491
517.500	335.891	79.992	19.991	99.918	20.041	3.807	0.484
519.000	336.690	79.992	19.992	99.914	20.037	4.122	0.521
520.500	337.453	79.993	19.992	99.911	20.036	4.204	0.518
522.000	338.216	79.992	19.992	99.913	20.037	4.165	0.517
523.500	338.975	79.992	19.992	99.914	20.037	4.147	0.506
525.000	339.775	79.993	19.992	99.913	20.036	4.208	0.524
526.500	340.545	79.994	19.991	99.912	20.039	4.006	0.518
528.000	341.327	79.992	19.991	99.911	20.032	4.556	0.514
529.500	342.064	79.992	19.991	99.910	20.036	4.236	0.485
531.000	342.823	79.992	19.991	99.906	20.033	4.463	0.516
532.500	343.564	79.992	19.991	99.908	20.036	4.202	0.488
534.000	344.333	79.992	19.991	99.909	20.034	4.388	0.498
535.500	345.075	79.991	19.991	99.903	20.035	4.284	0.511
537.000	345.838	79.991	19.990	99.903	20.034	4.420	0.508
538.500	346.611	79.991	19.991	99.907	20.032	4.578	0.487
540.000	347.394	79.991	19.991	99.913	20.035	4.342	0.504
541.500	348.127	79.991	19.991	99.914	20.036	4.206	0.486
543.000	348.918	79.991	19.991	99.908	20.032	4.594	0.545
544.500	349.667	79.992	19.990	99.904	20.037	4.177	0.493
546.000	350.430	79.993	19.991	99.911	20.037	4.131	0.513
547.500	351.192	79.992	19.991	99.908	20.036	4.209	0.511
549.000	351.984	79.993	19.991	99.900	20.036	4.204	0.531
550.500	352.769	79.992	19.991	99.886	20.033	4.442	0.538
552.000	353.480	79.992	19.992	99.893	20.036	4.231	0.489
553.500	354.294	79.992	19.990	99.898	20.035	4.270	0.536
555.001	355.022	79.992	19.992	99.909	20.033	4.474	0.479
556.500	355.862	79.993	19.991	99.907	20.032	4.565	0.563
558.000	356.617	79.990	19.991	99.912	20.029	4.812	0.515
559.500	357.370	79.992	19.991	99.907	20.034	4.422	0.486
561.000	358.121	79.992	19.990	99.904	20.030	4.756	0.492
562.500	358.890	79.992	19.991	99.898	20.031	4.644	0.510
564.000	359.618	79.991	19.990	99.906	20.024	5.189	0.469
565.500	360.429	79.992	19.991	99.913	20.028	4.875	0.528
567.000	361.184	79.991	19.990	99.911	20.028	4.903	0.496
568.500	361.928	79.992	19.990	99.909	20.025	5.133	0.470
570.000	362.652	79.991	19.992	99.905	20.029	4.822	0.503
571.500	363.411	79.992	19.990	99.912	20.021	5.457	0.496
573.000	364.195	79.992	19.991	99.914	20.022	5.380	0.524
574.500	364.957	79.991	19.990	99.905	20.016	5.880	0.523
576.000	365.701	79.991	19.992	99.902	20.018	5.685	0.509
577.500	366.450	79.992	19.991	99.900	20.016	5.876	0.510
579.000	367.216	79.991	19.991	99.912	20.013	6.135	0.505
580.500	367.979	79.992	19.991	99.913	20.015	6.005	0.495
582.000	368.721	79.992	19.992	99.917	20.010	6.393	0.488
583.500	369.519	79.992	19.993	99.913	20.012	6.222	0.531
585.000	370.264	79.992	19.992	99.917	20.010	6.409	0.489
586.500	371.053	79.993	19.992	99.929	20.008	6.527	0.527
588.000	371.797	79.994	19.993	99.927	20.010	6.411	0.471
589.500	372.554	79.992	19.992	99.924	20.005	6.808	0.526
591.000	373.320	79.992	19.990	99.934	20.003	6.981	0.507
592.500	374.065	79.992	19.993	99.918	20.001	7.132	0.492
594.000	374.851	79.993	19.992	99.916	19.999	7.256	0.520
595.501	375.613	79.991	19.992	99.918	19.994	7.746	0.501
597.000	376.337	79.994	19.993	99.918	19.994	7.744	0.464
598.500	377.091	79.993	19.992	99.917	19.989	8.154	0.495
600.000	377.866	79.993	19.992	99.917	19.987	8.274	0.502
601.500	378.633	79.994	19.992	99.917	19.987	8.325	0.511
603.000	379.383	79.994	19.992	99.933	19.984	8.512	0.520
604.500	380.176	79.995	19.991	99.929	19.973	9.444	0.517
606.000	380.903	79.995	19.992	99.915	19.972	9.507	0.483
607.500	381.678	79.995	19.992	99.921	19.969	9.806	0.512
609.000	382.390	79.994	19.993	99.932	19.965	10.124	0.482
610.501	383.193	79.993	19.992	99.942	19.958	10.727	0.534
612.000	383.954	79.992	19.991	99.927	19.953	11.089	0.500
613.500	384.708	79.993	19.993	99.925	19.948	11.511	0.509
615.000	385.459	79.991	19.991	99.920	19.942	12.022	0.491
616.500	386.251	79.992	19.991	99.934	19.934	12.697	0.533
618.000	387.010	79.990	19.992	99.933	19.931	12.930	0.498
619.500	387.764	79.992	19.992	99.920	19.926	13.363	0.529
621.000	388.517	79.992	19.993	99.939	19.917	14.111	0.496
622.500	389.269	79.992	19.991	99.952	19.910	14.638	0.474
624.000	390.023	79.990	19.992	99.948	19.901	15.419	0.491
625.500	390.817	79.991	19.992	99.949	19.891	16.281	0.534
627.000	391.587	79.991	19.991	99.955	19.886	16.666	0.522
628.500	392.331	79.992	19.990	99.963	19.874	17.670	0.502
630.000	393.102	79.991	19.991	99.964	19.866	18.314	0.530
631.500	393.854	79.993	19.991	99.958	19.858	18.958	0.509
633.000	394.647	79.992	19.990	99.960	19.853	19.376	0.524
634.500	395.433	79.992	19.992	99.960	19.852	19.535	0.521
636.000	396.179	79.992	19.992	99.958	19.843	20.248	0.509
637.500	396.964	79.992	19.991	99.961	19.833	21.054	0.513
639.000	397.707	79.992	19.990	99.969	19.818	22.304	0.492
640.500	398.468	79.991	19.992	99.988	19.805	23.385	0.510
642.000	399.205	79.992	19.992	99.998	19.790	24.653	0.505
643.500	399.980	79.991	19.993	99.998	19.772	26.113	0.533
645.000	400.783	79.991	19.991	99.999	19.753	27.746	0.563
646.500	401.544	79.991	19.992	100.009	19.726	29.946	0.523
648.000	402.300	79.991	19.991	100.009	19.710	31.312	0.511
649.500	403.080	79.992	19.993	99.998	19.693	32.706	0.525
651.000	403.870	79.992	19.991	100.007	19.677	34.010	0.519
652.500	404.596	79.991	19.991	100.005	19.666	34.925	0.485
654.000	405.330	79.992	19.991	99.995	19.655	35.859	0.483
655.500	406.110	79.993	19.991	100.015	19.639	37.140	0.504
657.000	406.904	79.992	19.990	100.035	19.623	38.481	0.535
658.500	407.666	79.992	19.991	100.048	19.611	39.560	0.517
660.000	408.406	79.994	19.991	100.040	19.592	41.128	0.501
661.500	409.151	79.994	19.990	100.046	19.575	42.528	0.492
663.000	409.941	79.994	19.990	100.068	19.555	44.165	0.515
664.500	410.720	79.995	19.992	100.069	19.534	45.922	0.529
666.000	411.461	79.994	19.991	100.010	19.515	47.517	0.485
667.500	412.247	79.994	19.994	100.028	19.495	49.162	0.521
669.000	413.009	79.994	19.991	100.093	19.478	50.584	0.504
670.500	413.732	79.992	19.990	100.153	19.462	51.922	0.460
672.000	414.472	79.993	19.991	100.113	19.443	53.516	0.494
673.500	415.208	79.992	19.991	100.099	19.413	55.980	0.473
675.000	416.022	79.994	19.992	100.112	19.385	58.277	0.544
676.501	416.764	79.993	19.992	100.139	19.348	61.426	0.518
678.001	417.532	79.993	19.992	100.157	19.308	64.808	0.517
679.500	418.322	79.993	19.992	100.168	19.270	67.939	0.546
681.000	419.066	79.994	19.991	100.150	19.247	69.864	0.469
682.500	419.820	79.993	19.990	100.147	19.225	71.703	0.509
684.000	420.663	79.994	19.992	100.144	19.198	74.016	0.556
685.500	421.422	79.995	19.992	100.122	19.171	76.273	0.484
687.000	422.126	79.994	19.990	100.130	19.146	78.431	0.485
688.500	422.865	79.993	19.992	100.201	19.110	81.440	0.515
690.000	423.596	79.993	19.990	100.254	19.071	84.650	0.490
691.500	424.325	79.993	19.991	100.271	19.017	89.127	0.487
693.000	425.108	79.992	19.992	100.296	18.956	94.361	0.544
694.500	425.853	79.991	19.989	100.331	18.883	100.448	0.499
696.000	426.616	79.992	19.991	100.371	18.799	107.394	0.488
697.500	427.332	79.992	19.992	100.399	18.725	113.537	0.479
699.001	428.064	79.992	19.993	100.424	18.651	119.454	0.498
700.500	428.850	79.991	19.992	100.390	18.553	127.480	0.523
702.000	429.567	79.990	19.991	100.393	18.400	140.493	0.473
703.500	430.344	79.991	19.991	100.514	18.262	152.465	0.501
705.000	431.120	79.991	19.993	100.552	18.185	158.996	0.515
706.500	431.856	79.991	19.992	100.459	18.154	161.542	0.486
708.000	432.650	79.989	19.992	100.466	18.148	161.904	0.517
709.500	433.446	79.991	19.991	100.330	18.141	162.327	0.550
711.000	434.191	79.991	19.992	100.145	18.124	163.604	0.484
712.500	435.009	79.991	19.989	100.273	18.095	166.176	0.552
714.000	435.733	79.990	19.992	100.630	18.062	169.019	0.492
715.500	436.531	79.991	19.992	100.773	18.029	171.753	0.513
717.000	437.300	79.990	19.992	100.742	17.997	174.464	0.507
718.500	438.127	79.992	19.991	100.663	17.976	176.249	0.546
720.000	438.942	79.991	19.993	100.577	17.965	177.177	0.554
721.500	439.711	79.992	19.991	100.474	17.959	177.664	0.511
723.000	440.454	79.992	19.990	100.476	17.959	177.683	0.478
724.500	441.213	79.992	19.992	100.593	17.959	177.652	0.517
726.000	442.001	79.991	19.990	100.615	17.954	178.103	0.508
727.500	442.772	79.992	19.992	100.603	17.951	178.306	0.522
729.000	443.519	79.992	19.992	100.635	17.943	179.006	0.502
730.500	444.252	79.990	19.992	100.636	17.942	179.052	0.502
732.000	445.022	79.991	19.993	100.613	17.945	178.817	0.502
733.500	445.782	79.994	19.993	100.610	17.946	178.706	0.504
735.000	446.568	79.992	19.991	100.594	17.953	178.098	0.537
736.500	447.382	79.993	19.991	100.601	17.961	177.402	0.544
738.000	448.108	79.993	19.992	100.619	17.971	176.495	0.472
739.500	448.873	79.993	19.990	100.621	17.992	174.743	0.535
741.000	449.633	79.993	19.991	100.603	18.018	172.550	0.515
742.500	450.349	79.995	19.991	100.597	18.044	170.348	0.479
744.000	451.146	79.994	19.990	100.605	18.078	167.435	0.533
745.500	451.910	79.996	19.991	100.578	18.111	164.698	0.491
747.000	452.657	79.995	19.991	100.549	18.146	161.795	0.473
748.500	453.433	79.994	19.990	100.529	18.193	157.772	0.516
750.000	454.167	79.994	19.992	100.515	18.239	153.827	0.477
751.500	454.920	79.993	19.991	100.526	18.286	149.981	0.500
753.000	455.708	79.994	19.991	100.496	18.339	145.517	0.518
754.500	456.466	79.993	19.992	100.469	18.396	140.712	0.488
756.000	457.211	79.991	19.992	100.463	18.448	136.363	0.495
757.500	457.973	79.994	19.991	100.446	18.506	131.557	0.506
759.000	458.786	79.992	19.992	100.402	18.570	126.224	0.534
760.500	459.521	79.994	19.992	100.346	18.634	120.806	0.485
762.000	460.279	79.994	19.993	100.339	18.702	115.127	0.489
763.500	461.057	79.994	19.992	100.335	18.775	109.051	0.500
765.000	461.794	79.994	19.991	100.315	18.849	102.901	0.539
766.501	462.554	79.994	19.991	100.305	18.925	96.536	0.506
768.000	463.301	79.995	19.991	100.285	18.999	90.384	0.522
769.501	464.024	79.997	19.992	100.258	19.077	83.893	0.475
771.000	464.780	79.995	19.993	100.233	19.148	78.021	0.491
772.500	465.522	79.994	19.992	100.215	19.217	72.214	0.496
774.000	466.274	79.993	19.991	100.194	19.281	66.894	0.508
775.500	467.031	79.994	19.991	100.168	19.345	61.611	0.501
777.000	467.780	79.993	19.991	100.153	19.402	56.839	0.506
778.500	468.595	79.991	19.991	100.145	19.453	52.589	0.534
780.000	469.309	79.991	19.991	100.145	19.498	48.889	0.502
781.500	470.079	79.992	19.992	100.122	19.540	45.416	0.546
783.000	470.845	79.992	19.993	100.087	19.580	42.059	0.498
784.500	471.637	79.991	19.993	100.060	19.615	39.192	0.488
786.000	472.368	79.991	19.992	100.069	19.649	36.298	0.483
787.500	473.140	79.992	19.993	100.076	19.674	34.242	0.525
789.000	473.943	79.992	19.994	100.034	19.706	31.594	0.554
790.500	474.682	79.991	19.994	100.014	19.733	29.361	0.490
792.000	475.448	79.991	19.993	100.008	19.755	27.528	0.495
793.500	476.186	79.992	19.993	100.026	19.777	25.722	0.510
795.000	476.955	79.993	19.993	100.000	19.799	23.905	0.512
796.500	477.691	79.991	19.991	99.984	19.813	22.721	0.486
798.000	478.461	79.993	19.992	99.984	19.830	21.277	0.492
799.500	479.209	79.993	19.992	99.983	19.847	19.912	0.495
801.000	479.969	79.992	19.991	99.997	19.865	18.431	0.501
802.500	480.709	79.993	19.990	99.993	19.876	17.525	0.509
804.000	481.486	79.993	19.991	99.989	19.890	16.338	0.518
805.500	482.273	79.993	19.992	99.976	19.901	15.457	0.529
807.000	483.024	79.991	19.993	99.984	19.909	14.773	0.498
808.500	483.806	79.992	19.991	99.970	19.920	13.833	0.520
810.000	484.545	79.992	19.992	99.968	19.928	13.193	0.509
811.500	485.307	79.992	19.992	99.976	19.935	12.624	0.517
813.000	486.111	79.992	19.992	99.948	19.945	11.778	0.507
814.500	486.857	79.991	19.992	99.969	19.946	11.678	0.504
816.000	487.562	79.994	19.993	99.965	19.952	11.146	0.503
817.500	488.365	79.999	19.993	99.948	19.963	10.252	0.528
819.000	489.150	80.007	19.992	99.940	19.970	9.706	0.530
820.500	489.869	80.001	19.992	99.945	19.974	9.402	0.487
822.000	490.653	79.996	19.992	99.933	19.978	9.041	0.507
823.500	491.451	79.994	19.991	99.943	19.979	8.953	0.525
825.000	492.154	79.993	19.991	99.974	19.986	8.388	0.486
826.500	492.968	79.992	19.990	99.923	19.989	8.118	0.553
828.000	493.712	79.995	19.991	99.928	19.991	7.984	0.479
829.500	494.511	79.995	19.992	99.934	19.994	7.666	0.529
831.000	495.284	79.993	19.991	99.927	19.998	7.333	0.513
832.500	496.034	79.992	19.991	99.941	19.996	7.564	0.520
834.000	496.838	79.993	19.990	99.897	20.001	7.140	0.531
835.500	497.616	79.991	19.992	99.899	20.003	6.973	0.520
837.000	498.372	79.993	19.991	99.940	20.006	6.689	0.493
838.500	499.152	79.994	19.991	99.948	20.009	6.469	0.501
840.000	499.889	79.993	19.991	99.925	20.016	5.920	0.502
841.500	500.667	79.993	19.992	99.916	20.014	6.019	0.500
843.000	501.428	79.993	19.991	99.917	20.013	6.144	0.502
844.500	502.243	79.994	19.991	99.916	20.012	6.232	0.552
846.000	502.999	79.994	19.991	99.930	20.014	6.079	0.508
847.500	503.740	79.994	19.991	99.934	20.017	5.783	0.505
849.000	504.532	79.995	19.992	99.929	20.017	5.790	0.520
850.500	505.308	79.994	19.991	99.946	20.019	5.598	0.521
852.000	506.081	79.995	19.990	99.938	20.020	5.589	0.495
853.500	506.847	79.996	19.992	99.893	20.021	5.474	0.520
855.000	507.676	79.994	19.992	99.885	20.022	5.408	0.549
856.500	508.423	79.995	19.993	99.877	20.023	5.310	0.503
858.000	509.135	79.994	19.992	99.889	20.024	5.251	0.492
859.500	509.903	79.994	19.993	99.901	20.026	5.068	0.517
861.000	510.714	79.993	19.991	99.908	20.022	5.395	0.536
862.500	511.489	79.992	19.992	99.921	20.024	5.189	0.520
864.000	512.237	79.991	19.991	99.893	20.027	5.005	0.491
865.500	513.027	79.991	19.990	99.872	20.027	4.949	0.532
867.000	513.824	79.992	19.991	99.900	20.023	5.267	0.553
868.500	514.594	79.992	19.994	99.927	20.023	5.341	0.514
870.000	515.373	79.992	19.993	99.900	20.025	5.145	0.507
871.500	516.217	79.992	19.991	99.889	20.027	4.968	0.538
873.000	516.937	79.991	19.992	99.893	20.027	4.957	0.500
874.500	517.707	79.991	19.992	99.902	20.026	5.024	0.546
876.000	518.468	79.992	19.992	99.910	20.029	4.804	0.517
877.500	519.268	79.991	19.993	99.912	20.029	4.801	0.538
879.000	520.017	79.992	19.993	99.905	20.028	4.916	0.468
880.500	520.815	79.992	19.992	99.913	20.031	4.633	0.507
882.001	521.593	79.992	19.992	99.967	20.033	4.481	0.524
883.500	522.347	79.992	19.993	99.952	20.030	4.687	0.485
885.000	523.115	79.991	19.991	99.917	20.032	4.577	0.490
886.500	523.859	79.992	19.991	99.914	20.028	4.865	0.491
888.000	524.669	79.992	19.991	99.910	20.030	4.742	0.541
889.500	525.479	79.992	19.992	99.894	20.032	4.536	0.532
891.000	526.243	79.993	19.991	99.903	20.033	4.493	0.502
892.500	526.980	79.991	19.991	99.913	20.034	4.385	0.475
894.000	527.772	79.992	19.990	99.905	20.036	4.230	0.525
895.500	528.566	79.991	19.991	99.915	20.033	4.502	0.542
897.000	529.358	79.990	19.991	99.923	20.034	4.366	0.532
898.500	530.135	79.990	19.991	99.920	20.032	4.580	0.531
900.000	530.866	79.990	19.990	99.918	20.033	4.435	0.500
901.500	531.673	79.991	19.991	99.924	20.030	4.722	0.505
903.000	532.444	79.993	19.991	99.915	20.030	4.706	0.501
904.500	533.209	79.993	19.991	99.878	20.026	5.062	0.486
906.000	534.015	79.992	19.990	99.871	20.023	5.288	0.519
907.500	534.733	79.994	19.991	99.873	20.030	4.749	0.453
909.000	535.477	79.995	19.991	99.894	20.031	4.671	0.500
910.500	536.313	79.994	19.989	99.900	20.031	4.662	0.562
912.000	537.070	79.994	19.991	99.910	20.037	4.106	0.528
913.500	537.771	79.996	19.991	99.910	20.028	4.904	0.497
915.000	538.604	79.995	19.991	99.910	20.015	6.000	0.493
916.500	539.352	79.994	19.991	99.896	20.039	3.937	0.501
918.000	540.134	79.992	19.991	99.903	20.024	5.250	0.526
919.500	540.867	79.994	19.992	99.906	20.022	5.351	0.533
921.000	541.650	79.992	19.991	99.902	20.033	4.484	0.533
922.500	542.342	79.993	19.990	99.907	20.033	4.443	0.528
924.000	543.287	79.994	19.991	99.895	20.030	4.736	0.498
925.500	543.748	79.994	19.992	99.879	20.030	4.729	0.443
927.000	544.872	79.994	19.993	99.884	20.028	4.888	0.383
928.500	545.331	79.996	19.991	99.891	20.032	4.566	0.352
930.000	546.745	79.995	19.992	99.886	20.029	4.790	0.985
931.500	546.734	79.993	19.992	99.882	20.032	4.586	0.076
933.000	547.566	79.995	19.991	99.877	20.032	4.573	0.752
934.500	548.247	79.994	19.992	99.875	20.029	4.802	0.515
936.000	549.232	79.994	19.991	99.876	20.029	4.791	0.632
937.500	549.953	79.995	19.993	99.876	20.028	4.850	0.496
939.000	550.776	79.995	19.992	99.874	20.026	5.029	0.516
940.500	551.580	79.995	19.992	99.877	20.029	4.796	0.538
942.000	552.316	79.993	19.991	99.879	20.030	4.696	0.496
943.500	553.113	79.993	19.992	99.880	20.031	4.673	0.535
945.000	553.858	79.992	19.992	99.888	20.028	4.896	0.538
946.500	554.696	79.992	19.992	99.895	20.030	4.759	0.555
948.000	555.455	79.992	19.992	99.887	20.030	4.755	0.505
949.500	556.219	79.992	19.990	99.877	20.026	5.030	0.526
951.000	556.994	79.991	19.991	99.885	20.025	5.095	0.524
952.500	557.746	79.992	19.992	99.895	20.028	4.845	0.507
954.000	558.491	79.992	19.991	99.894	20.025	5.102	0.485
955.500	559.266	79.991	19.990	99.899	20.029	4.812	0.505
957.000	560.011	79.993	19.992	99.888	20.032	4.589	0.536
958.500	560.822	79.992	19.991	99.882	20.026	5.039	0.533
960.000	561.604	79.993	19.992	99.896	20.032	4.521	0.505
961.500	562.407	79.993	19.993	99.894	20.027	4.965	0.525
963.000	563.146	79.993	19.991	99.880	20.031	4.675	0.486
964.500	563.935	79.992	19.991	99.884	20.030	4.753	0.529
966.000	564.667	79.992	19.993	99.892	20.029	4.798	0.500
967.500	565.466	79.990	19.991	99.885	20.026	5.085	0.509
969.000	566.251	79.991	19.992	99.895	20.026	5.077	0.522
970.500	567.052	79.990	19.992	99.890	20.028	4.852	0.523
972.000	567.833	79.991	19.991	99.879	20.024	5.199	0.516
973.500	568.624	79.991	19.992	99.881	20.025	5.109	0.524
975.000	569.347	79.992	19.991	99.896	20.024	5.202	0.485
976.500	570.133	79.992	19.992	99.899	20.031	4.643	0.552
978.000	570.911	79.992	19.992	99.904	20.024	5.184	0.511
979.500	571.682	79.992	19.992	99.897	20.025	5.150	0.507
981.000	572.432	79.992	19.992	99.891	20.023	5.270	0.472
982.500	573.223	79.992	19.992	99.883	20.028	4.925	0.512
984.000	573.990	79.993	19.991	99.880	20.028	4.891	0.535
985.501	574.782	79.992	19.992	99.895	20.026	5.043	0.509
987.000	575.548	79.993	19.991	99.888	20.027	4.979	0.497
988.500	576.345	79.993	19.991	99.888	20.025	5.124	0.514
990.000	577.142	79.995	19.990	99.890	20.022	5.380	0.509
991.500	577.895	79.993	19.991	99.892	20.030	4.754	0.495
993.000	578.695	79.994	19.992	99.899	20.026	5.039	0.524
994.500	579.446	79.993	19.991	99.887	20.025	5.130	0.509
996.000	580.228	79.993	19.991	99.886	20.026	5.077	0.511
997.500	581.022	79.995	19.991	99.892	20.028	4.898	0.542
999.000	581.828	79.993	19.991	99.882	20.026	5.038	0.561
1000.500	582.580	79.994	19.991	99.876	20.026	5.036	0.509
1002.000	583.307	79.994	19.992	99.878	20.027	4.950	0.486
1003.500	584.099	79.994	19.991	99.887	20.025	5.111	0.544
1005.000	584.907	79.994	19.991	99.900	20.024	5.257	0.557
1006.500	585.684	79.995	19.991	99.894	20.025	5.121	0.532
1008.000	586.485	79.994	19.991	99.886	20.027	5.002	0.531
1009.500	587.243	79.994	19.991	99.879	20.025	5.127	0.515
1011.000	588.061	79.995	19.990	99.882	20.022	5.365	0.540
1012.500	588.846	79.996	19.992	99.881	20.025	5.167	0.517
1014.000	589.597	79.995	19.991	99.886	20.026	5.040	0.514
1015.500	590.379	79.995	19.990	99.904	20.025	5.106	0.528
1017.000	591.207	79.995	19.990	99.911	20.025	5.120	0.525
1018.501	592.003	79.995	19.990	99.900	20.027	4.956	0.525
1020.000	592.735	79.995	19.991	99.890	20.031	4.654	0.484
1021.500	593.556	79.994	19.992	99.884	20.028	4.902	0.528
1023.000	594.333	79.994	19.991	99.877	20.030	4.720	0.508
1024.501	595.094	79.992	19.991	99.881	20.027	4.979	0.504
1026.000	595.831	79.992	19.991	99.885	20.028	4.868	0.496
1027.500	596.675	79.992	19.991	99.883	20.023	5.295	0.558
1029.000	597.442	79.992	19.991	99.886	20.026	5.029	0.505
1030.500	598.202	79.991	19.991	99.881	20.026	5.081	0.510
1032.000	599.000	79.990	19.992	99.880	20.028	4.873	0.528
1033.500	599.783	79.992	19.991	99.879	20.027	4.999	0.507
1035.000	600.523	79.990	19.991	99.879	20.027	4.990	0.491
1036.500	601.319	79.991	19.993	99.884	20.025	5.092	0.531
1038.001	602.057	79.989	19.991	99.886	20.028	4.913	0.487
1039.500	602.830	79.991	19.992	99.888	20.026	5.061	0.526
1041.001	603.608	79.992	19.992	99.884	20.026	5.047	0.509
1042.500	604.306	79.991	19.992	99.883	20.025	5.142	0.484
1044.000	605.094	79.992	19.992	99.887	20.023	5.308	0.532
1045.500	605.873	79.992	19.991	99.879	20.026	5.072	0.526
1047.000	606.637	79.992	19.992	99.876	20.023	5.296	0.520
1048.500	607.413	79.992	19.992	99.877	20.026	5.067	0.525
1050.001	608.233	79.992	19.993	99.881	20.026	5.031	0.549
1051.501	608.989	79.990	19.992	99.879	20.024	5.201	0.503
1053.000	609.740	79.992	19.993	99.874	20.022	5.356	0.522
1054.500	610.515	79.991	19.992	99.875	20.020	5.565	0.529
1056.000	611.280	79.990	19.993	99.880	20.025	5.096	0.504
1057.500	612.053	79.990	19.993	99.880	20.022	5.398	0.525
1059.000	612.805	79.990	19.993	99.878	20.022	5.416	0.514
1060.500	613.511	79.990	19.993	99.879	20.023	5.304	0.467
1062.000	614.362	79.992	19.993	99.883	20.024	5.200	0.570
1063.500	615.092	79.990	19.992	99.879	20.025	5.106	0.495
1065.000	615.877	79.992	19.992	99.885	20.027	4.968	0.522
1066.500	616.680	79.992	19.992	99.898	20.030	4.735	0.530
1068.000	617.426	79.992	19.991	99.908	20.032	4.581	0.502
1069.500	618.189	79.992	19.992	99.899	20.027	4.953	0.500
1071.000	618.965	79.993	19.992	99.887	20.027	4.960	0.520
1072.500	619.765	79.994	19.991	99.894	20.027	4.984	0.539
1074.000	620.503	79.994	19.991	99.895	20.029	4.815	0.505
1075.500	621.330	79.994	19.992	99.884	20.031	4.597	0.586
1077.000	622.092	79.994	19.990	99.906	20.029	4.761	0.506
1078.500	622.886	79.993	19.991	99.914	20.028	4.890	0.524
1080.000	623.687	79.993	19.990	99.909	20.024	5.253	0.524
1081.501	624.442	79.993	19.991	99.882	20.019	5.609	0.505
1083.000	625.211	79.993	19.991	99.855	20.025	5.142	0.525
1084.500	625.949	79.992	19.992	99.865	20.022	5.394	0.489
1086.000	626.759	79.992	19.992	99.875	20.020	5.566	0.516
1087.500	627.534	79.993	19.992	99.875	20.020	5.541	0.529
1089.000	628.298	79.993	19.992	99.877	20.019	5.650	0.514
1090.500	629.056	79.994	19.991	99.877	20.022	5.372	0.515
1092.000	629.828	79.995	19.991	99.876	20.021	5.446	0.534
1093.500	630.545	79.994	19.990	99.876	20.026	5.042	0.476
1095.000	631.297	79.994	19.991	99.877	20.024	5.233	0.522
1096.500	632.091	79.993	19.990	99.876	20.029	4.781	0.510
1098.000	632.848	79.996	19.990	99.876	20.025	5.162	0.480
1099.501	633.619	79.994	19.992	99.876	20.022	5.346	0.505
1101.000	634.353	79.994	19.990	99.880	20.024	5.217	0.524
1102.500	635.131	79.994	19.991	99.881	20.024	5.230	0.515
1104.000	635.950	79.993	19.990	99.877	20.026	5.081	0.561
1105.500	636.703	79.994	19.991	99.877	20.023	5.280	0.497
1107.000	637.502	79.993	19.990	99.877	20.030	4.756	0.518
1108.500	638.268	79.992	19.991	99.876	20.021	5.431	0.536
1110.001	639.060	79.993	19.991	99.875	20.025	5.127	0.518
1111.500	639.819	79.992	19.991	99.869	20.023	5.337	0.507
1113.000	640.554	79.993	19.992	99.873	20.024	5.237	0.471
1114.500	641.366	79.992	19.992	99.875	20.022	5.380	0.541
1116.000	642.097	79.993	19.992	99.875	20.025	5.174	0.490
1117.500	642.911	79.993	19.992	99.875	20.022	5.355	0.528
1119.000	643.606	79.992	19.993	99.882	20.022	5.351	0.460
1120.501	644.382	79.993	19.992	99.887	20.026	5.076	0.514
1122.000	645.153	79.992	19.992	99.873	20.025	5.117	0.517
1123.500	645.907	79.992	19.992	99.870	20.023	5.267	0.505
1125.000	646.685	79.994	19.993	99.874	20.026	5.040	0.519
1126.500	647.449	79.994	19.991	99.875	20.025	5.128	0.518
1128.000	648.214	79.994	19.992	99.875	20.032	4.515	0.500
1129.500	648.978	79.992	19.990	99.877	20.027	4.940	0.529
1131.000	649.762	79.993	19.991	99.875	20.026	5.072	0.515
1132.500	650.518	79.993	19.991	99.873	20.030	4.749	0.507
1134.000	651.296	79.994	19.992	99.877	20.028	4.885	0.518
1135.500	652.024	79.992	19.993	99.879	20.020	5.517	0.513
1137.000	652.839	79.993	19.992	99.867	20.026	5.048	0.535
1138.500	653.599	79.993	19.992	99.855	20.028	4.898	0.516
1140.000	654.373	79.991	19.992	99.864	20.026	5.067	0.488
1141.500	655.155	79.990	19.992	99.872	20.027	4.947	0.528
1143.000	655.901	79.992	19.994	99.866	20.030	4.715	0.492
1144.500	656.672	79.991	19.993	99.865	20.023	5.267	0.510
1146.000	657.473	79.992	19.993	99.875	20.033	4.482	0.518
1147.500	658.201	79.992	19.994	99.894	20.029	4.812	0.502
1149.000	659.005	79.991	19.991	99.898	20.031	4.610	0.519
1150.500	659.756	79.993	19.992	99.877	20.022	5.402	0.522
1152.000	660.513	79.994	19.992	99.876	20.024	5.181	0.504
1153.500	661.275	79.993	19.993	99.875	20.025	5.120	0.516
1155.001	662.030	79.994	19.991	99.875	20.034	4.349	0.509
1156.500	662.811	79.993	19.991	99.877	20.032	4.538	0.494
1158.000	663.547	79.993	19.991	99.894	20.033	4.497	0.505
1159.500	664.371	79.995	19.992	99.911	20.028	4.906	0.504
1161.000	665.084	79.994	19.992	99.897	20.034	4.425	0.497
1162.500	665.791	79.993	19.991	99.888	20.034	4.363	0.469
1164.000	666.550	79.990	19.991	99.889	20.029	4.813	0.435
1165.500	667.796	79.994	19.992	99.897	20.026	5.087	0.693
1167.001	668.200	79.994	19.992	99.902	20.033	4.466	0.280
1168.501	669.135	79.994	19.991	99.909	20.031	4.640	0.378
1170.001	669.633	79.994	19.992	99.889	20.036	4.209	0.381
1171.501	670.435	79.992	19.990	99.877	20.033	4.466	0.545
1173.000	671.238	79.994	19.990	99.862	20.037	4.157	0.507
1174.500	671.899	79.994	19.990	99.860	20.034	4.408	0.486
1176.000	672.600	79.993	19.989	99.871	20.033	4.445	0.527
1177.500	672.782	79.994	19.991	99.874	20.028	4.876	0.408
1179.000	674.211	79.995	19.991	99.872	20.035	4.298	0.913
1180.500	675.023	79.996	19.991	99.864	20.029	4.820	0.586
1182.000	675.725	79.995	19.991	99.869	20.036	4.223	0.501
1183.500	676.520	79.995	19.991	99.874	20.030	4.677	0.531
1185.000	677.326	79.995	19.991	99.863	20.037	4.121	0.512
1186.500	678.094	79.995	19.990	99.868	20.034	4.361	0.511
1188.000	678.864	79.994	19.989	99.875	20.033	4.450	0.528
1189.500	679.626	79.993	19.991	99.874	20.032	4.584	0.509
1191.000	680.400	79.993	19.991	99.876	20.035	4.327	0.531
1192.500	681.189	79.991	19.989	99.875	20.036	4.223	0.512
1194.000	681.940	79.992	19.991	99.874	20.036	4.210	0.538
1195.500	682.703	79.994	19.993	99.875	20.039	3.985	0.525
1197.000	683.474	79.994	19.992	99.876	20.043	3.657	0.521
1198.500	684.279	79.992	19.992	99.877	20.042	3.734	0.543
1200.000	685.048	79.993	19.991	99.877	20.035	4.324	0.502
1201.500	685.824	79.991	19.992	99.866	20.038	4.056	0.505
1203.000	686.666	79.993	19.991	99.868	20.041	3.785	0.510
1204.500	687.365	79.992	19.992	99.884	20.045	3.488	0.483
1206.000	688.188	79.993	19.992	99.886	20.040	3.862	0.522
1207.501	688.945	79.992	19.991	99.861	20.040	3.885	0.528
1209.000	689.737	79.993	19.992	99.847	20.036	4.234	0.523
1210.500	690.516	79.991	19.991	99.839	20.037	4.168	0.510
1212.000	691.301	79.994	19.993	99.845	20.037	4.098	0.504
1213.500	692.056	79.993	19.992	99.866	20.037	4.153	0.501
1215.000	692.827	79.993	19.993	99.877	20.038	4.060	0.508
1216.000	693.353	79.993	19.993	99.875	20.039	3.956	0.543