File: 01_Data/Polyester_Batting/MCC/Polyester_Batting_MCC_30K_min_210308_R1.txt
Sample ID:	C:\MCC\MCC Cal\Test\Polyester_Batting_30_1.txt
Sample Weight (mg):	5.43
Heating Rate (C/s):	0.5
Combustor Temp (C):	900
N2 Flow Rate (cc/min):	80
O2 Flow Rate (cc/min):	20
Calibration File:	C:\MCC\MCC Cal\Coeff1 JN10440_30_210304.txt.txt
T Correction Coefficients:	0	1.024463	0
Time Shift (s):	14
*
Time (s)	Temperature (C)	N2 flow rate (cc/min)	O2 flow rate (cc/min)	Flow Rate (cc/min)	Oxygen (%)	HRR (W/g)	Heating rate (C/s)
0.000	106.669	79.990	19.992	99.694	20.075	0.058	-0.004
1.500	106.660	79.988	19.994	99.701	20.070	0.373	0.019
3.000	106.658	79.989	19.993	99.710	20.074	0.154	0.012
4.500	106.603	79.988	19.993	99.700	20.076	0.033	-0.062
6.000	106.615	79.990	19.993	99.701	20.073	0.184	-0.000
7.501	106.576	79.988	19.993	99.706	20.074	0.138	-0.015
9.002	106.639	79.991	19.992	99.714	20.074	0.168	0.007
10.500	106.596	79.990	19.993	99.715	20.075	0.060	-0.032
12.000	106.672	79.990	19.992	99.702	20.074	0.136	0.049
13.500	106.591	79.991	19.992	99.707	20.070	0.391	-0.010
15.000	106.594	79.991	19.992	99.719	20.072	0.229	-0.015
16.500	106.577	79.992	19.993	99.720	20.073	0.217	-0.043
18.000	106.630	79.992	19.991	99.721	20.067	0.518	0.033
19.500	106.674	79.994	19.991	99.723	20.068	0.513	0.048
21.000	106.700	79.992	19.993	99.723	20.063	0.792	0.010
22.500	106.688	79.993	19.991	99.724	20.065	0.679	-0.008
24.000	106.735	79.992	19.992	99.722	20.062	0.856	0.050
25.500	106.777	79.992	19.991	99.735	20.061	0.908	0.019
27.000	106.831	79.990	19.991	99.745	20.061	0.908	0.035
28.500	106.848	79.991	19.992	99.754	20.057	1.120	0.022
30.000	106.907	79.991	19.992	99.725	20.054	1.280	0.039
31.500	106.962	79.992	19.991	99.716	20.055	1.250	0.007
33.000	107.099	79.991	19.992	99.838	20.056	1.189	0.111
34.501	107.119	79.993	19.991	99.881	20.054	1.268	0.024
36.000	107.241	79.993	19.990	99.816	20.051	1.435	0.079
37.500	107.309	79.993	19.992	99.810	20.050	1.492	0.036
39.000	107.477	79.992	19.992	99.829	20.048	1.611	0.128
40.500	107.584	79.992	19.991	99.822	20.047	1.682	0.081
42.000	107.766	79.992	19.991	99.833	20.045	1.791	0.128
43.500	107.892	79.992	19.991	99.849	20.046	1.754	0.018
45.000	108.050	79.994	19.990	99.873	20.040	2.081	0.048
46.500	108.262	79.993	19.991	99.890	20.039	2.158	0.138
48.000	108.508	79.993	19.992	99.914	20.039	2.132	0.209
49.500	108.709	79.994	19.993	99.921	20.039	2.144	0.167
51.000	108.987	79.993	19.991	99.928	20.036	2.314	0.129
52.500	109.192	79.991	19.992	99.929	20.033	2.471	0.104
54.000	109.509	79.993	19.992	99.924	20.032	2.580	0.217
55.500	109.765	79.998	19.991	99.921	20.032	2.574	0.233
57.000	110.135	79.992	19.991	99.921	20.028	2.805	0.292
58.501	110.388	79.989	19.991	99.909	20.033	2.503	0.212
60.001	110.788	80.005	19.993	99.863	20.024	3.013	0.280
61.500	111.125	80.010	19.992	99.833	20.028	2.808	0.234
63.000	111.542	80.008	19.992	99.969	20.028	2.812	0.285
64.500	111.843	80.008	19.991	100.020	20.031	2.592	0.227
66.000	112.268	80.008	19.993	99.965	20.030	2.663	0.294
67.500	112.593	80.007	19.992	99.953	20.022	3.117	0.209
69.000	113.051	80.007	19.992	99.928	20.021	3.214	0.256
70.500	113.391	80.004	19.993	99.940	20.027	2.857	0.074
72.000	113.702	80.001	19.993	99.952	20.024	3.018	0.213
73.500	114.380	79.999	19.990	99.952	20.023	3.056	0.258
75.000	114.695	79.991	19.992	99.972	20.029	2.705	0.054
76.500	115.284	79.992	19.992	99.978	20.021	3.204	0.207
78.001	115.377	79.989	19.990	99.964	20.034	2.451	-0.003
79.501	116.076	79.992	19.993	99.954	20.020	3.265	0.385
81.001	116.292	79.990	19.992	99.951	20.023	3.083	0.112
82.500	116.915	79.987	19.993	99.948	20.023	3.087	0.527
84.000	117.534	79.991	19.993	99.959	20.017	3.433	0.527
85.500	118.230	79.989	19.991	99.978	20.013	3.632	0.492
87.000	118.535	79.989	19.993	99.967	20.017	3.435	0.379
88.500	119.337	79.990	19.992	99.974	20.014	3.570	0.542
90.000	119.833	79.989	19.994	99.979	20.005	4.109	0.193
91.500	120.321	79.990	19.994	99.983	20.006	4.025	0.550
93.000	120.745	79.988	19.994	99.994	20.005	4.122	0.311
94.500	121.507	79.990	19.992	99.997	20.008	3.910	0.513
96.000	122.123	79.991	19.992	99.991	20.009	3.864	0.317
97.500	122.586	79.990	19.992	99.996	20.009	3.852	0.351
99.000	123.245	79.990	19.991	100.012	20.009	3.858	0.557
100.500	123.844	79.993	19.992	100.019	20.011	3.750	0.465
102.000	124.717	79.993	19.990	100.011	20.001	4.352	0.432
103.500	125.286	79.992	19.991	99.996	20.013	3.626	0.529
105.000	125.962	79.992	19.991	100.001	20.007	3.976	0.484
106.500	126.430	79.992	19.992	100.005	20.006	4.032	0.435
108.000	127.313	79.991	19.991	100.011	20.011	3.735	0.542
109.500	127.988	79.990	19.991	100.016	20.013	3.658	0.448
111.000	128.708	79.991	19.990	100.015	20.005	4.092	0.398
112.500	129.370	79.992	19.991	100.000	20.003	4.204	0.428
114.000	130.152	79.992	19.990	99.996	20.005	4.115	0.561
115.500	130.641	79.991	19.992	99.997	20.005	4.118	0.430
117.000	131.467	79.992	19.990	100.001	20.006	4.020	0.611
118.500	132.241	79.993	19.992	99.999	20.006	4.039	0.505
120.000	132.942	79.993	19.992	99.994	20.008	3.950	0.430
121.500	133.762	79.993	19.993	99.995	20.006	4.053	0.417
123.000	134.638	79.993	19.991	99.997	20.009	3.901	0.543
124.500	135.237	79.993	19.991	99.994	20.010	3.824	0.402
126.000	136.095	79.992	19.992	99.993	20.006	4.063	0.488
127.500	136.937	79.992	19.991	99.987	20.007	3.972	0.607
129.000	137.559	79.993	19.991	99.980	20.011	3.766	0.583
130.500	138.337	79.991	19.990	99.991	20.008	3.918	0.572
132.000	139.215	79.990	19.990	99.981	20.008	3.961	0.599
133.500	139.974	79.992	19.991	99.976	20.009	3.847	0.589
135.000	140.867	79.991	19.991	99.986	20.010	3.839	0.607
136.500	141.619	79.991	19.993	99.986	20.013	3.664	0.515
138.000	142.388	79.989	19.989	99.993	20.013	3.674	0.452
139.500	143.226	79.989	19.992	99.993	20.012	3.725	0.572
141.000	144.047	79.990	19.991	99.981	20.012	3.702	0.558
142.500	144.881	79.991	19.991	99.973	20.014	3.589	0.571
144.000	145.611	79.989	19.992	99.968	20.014	3.603	0.457
145.500	146.487	79.991	19.993	99.965	20.016	3.485	0.527
147.000	147.180	79.990	19.992	99.963	20.018	3.386	0.501
148.500	147.984	79.991	19.991	99.955	20.017	3.429	0.514
150.000	148.867	79.990	19.992	99.958	20.017	3.439	0.576
151.500	149.631	79.990	19.991	99.965	20.017	3.431	0.495
153.000	150.389	79.989	19.993	99.964	20.020	3.242	0.502
154.501	151.250	79.990	19.993	99.948	20.014	3.600	0.558
156.000	151.964	79.991	19.994	99.953	20.014	3.561	0.507
157.500	152.811	79.991	19.992	99.954	20.018	3.371	0.519
159.000	153.627	79.990	19.991	99.937	20.018	3.330	0.485
160.500	154.373	79.991	19.992	99.937	20.021	3.208	0.530
162.000	155.174	79.991	19.992	99.955	20.023	3.071	0.537
163.500	155.915	79.987	19.994	99.941	20.023	3.068	0.486
165.000	156.672	79.990	19.992	99.946	20.024	3.028	0.510
166.500	157.462	79.990	19.991	99.967	20.024	3.001	0.549
168.000	158.232	79.989	19.993	99.938	20.024	3.033	0.506
169.500	158.975	79.990	19.994	99.942	20.026	2.910	0.511
171.000	159.769	79.988	19.995	99.939	20.025	2.962	0.522
172.501	160.501	79.989	19.991	99.935	20.030	2.676	0.508
174.000	161.330	79.989	19.992	99.921	20.026	2.924	0.539
175.500	162.051	79.990	19.993	99.920	20.024	3.010	0.484
177.000	162.828	79.990	19.994	99.924	20.022	3.117	0.512
178.500	163.578	79.991	19.992	99.937	20.019	3.328	0.516
180.000	164.373	79.991	19.993	99.938	20.024	3.030	0.530
181.500	165.142	79.992	19.991	99.920	20.024	2.992	0.503
183.000	165.868	79.992	19.995	99.922	20.020	3.264	0.464
184.500	166.635	79.992	19.992	99.917	20.022	3.151	0.486
186.000	167.390	79.992	19.993	99.915	20.021	3.196	0.505
187.500	168.120	79.991	19.993	99.920	20.021	3.209	0.514
189.000	168.832	79.991	19.992	99.922	20.023	3.065	0.470
190.500	169.617	79.992	19.991	99.927	20.020	3.269	0.540
192.000	170.272	79.991	19.993	99.944	20.022	3.128	0.440
193.500	171.039	79.992	19.992	99.947	20.023	3.056	0.493
195.000	171.780	79.991	19.992	99.931	20.023	3.087	0.522
196.500	172.530	79.991	19.992	99.937	20.020	3.226	0.503
198.000	173.255	79.989	19.992	99.939	20.021	3.166	0.505
199.500	173.947	79.991	19.993	99.944	20.026	2.897	0.453
201.000	174.719	79.993	19.993	99.936	20.023	3.053	0.532
202.500	175.475	79.991	19.992	99.927	20.027	2.821	0.493
204.000	176.151	79.993	19.991	99.920	20.027	2.865	0.434
205.500	176.886	79.994	19.991	99.916	20.020	3.226	0.509
207.000	177.652	79.994	19.991	99.914	20.021	3.199	0.520
208.500	178.321	79.993	19.992	99.914	20.020	3.231	0.440
210.000	179.061	79.993	19.990	99.914	20.018	3.369	0.487
211.500	179.749	79.994	19.992	99.892	20.021	3.194	0.472
213.000	180.549	79.992	19.993	99.850	20.019	3.279	0.528
214.501	181.264	79.993	19.993	99.896	20.023	3.041	0.491
216.000	181.981	79.990	19.990	99.918	20.023	3.054	0.508
217.501	182.717	79.991	19.992	99.924	20.020	3.241	0.509
219.000	183.420	79.991	19.991	99.931	20.024	3.026	0.447
220.500	184.120	79.991	19.993	100.019	20.025	2.946	0.472
222.000	184.861	79.990	19.992	99.972	20.023	3.081	0.508
223.500	185.637	79.992	19.992	99.874	20.021	3.199	0.511
225.000	186.370	79.992	19.992	99.879	20.021	3.208	0.502
226.500	187.121	79.990	19.993	99.912	20.020	3.260	0.476
228.000	187.885	79.992	19.992	99.914	20.023	3.051	0.481
229.500	188.572	79.992	19.991	99.915	20.018	3.353	0.462
231.000	189.280	79.991	19.992	99.916	20.019	3.290	0.478
232.500	189.999	79.990	19.994	99.917	20.021	3.207	0.477
234.000	190.768	79.990	19.992	99.918	20.021	3.191	0.525
235.500	191.503	79.990	19.992	99.919	20.026	2.894	0.490
237.000	192.220	79.991	19.992	99.986	20.023	3.054	0.468
238.500	193.007	79.992	19.992	99.991	20.026	2.895	0.505
240.000	193.665	79.989	19.991	99.936	20.023	3.053	0.458
241.500	194.429	79.991	19.993	99.900	20.027	2.859	0.495
243.000	195.143	79.990	19.994	99.903	20.023	3.083	0.464
244.500	195.905	79.990	19.991	99.923	20.021	3.164	0.513
246.000	196.613	79.989	19.993	99.926	20.021	3.198	0.480
247.500	197.317	79.989	19.992	99.906	20.020	3.235	0.458
249.000	198.044	79.990	19.992	99.881	20.020	3.233	0.467
250.500	198.850	79.989	19.992	99.907	20.024	3.012	0.519
252.000	199.554	79.991	19.994	99.947	20.023	3.069	0.472
253.500	200.310	79.990	19.991	99.935	20.022	3.103	0.529
255.000	201.068	79.991	19.991	99.936	20.022	3.104	0.479
256.500	201.779	79.990	19.992	99.940	20.023	3.083	0.466
258.000	202.532	79.990	19.993	99.926	20.025	2.934	0.482
259.500	203.211	79.991	19.990	99.939	20.027	2.868	0.466
261.000	203.972	79.991	19.991	99.943	20.022	3.134	0.493
262.500	204.708	79.991	19.992	99.908	20.023	3.050	0.483
264.000	205.465	79.992	19.992	99.897	20.023	3.063	0.510
265.500	206.186	79.991	19.992	99.934	20.023	3.072	0.476
267.001	206.927	79.992	19.992	99.966	20.026	2.903	0.484
268.500	207.688	79.991	19.995	99.961	20.025	2.938	0.520
270.000	208.433	79.992	19.992	99.951	20.026	2.925	0.512
271.500	209.205	79.991	19.993	99.950	20.027	2.867	0.489
273.000	209.945	79.991	19.993	99.925	20.024	3.002	0.499
274.500	210.696	79.991	19.992	99.897	20.021	3.177	0.488
276.000	211.434	79.991	19.993	99.888	20.022	3.126	0.519
277.500	212.163	79.993	19.992	99.905	20.017	3.398	0.463
279.000	212.877	79.991	19.992	99.913	20.022	3.131	0.464
280.501	213.674	79.992	19.992	99.910	20.021	3.177	0.520
282.000	214.390	79.992	19.992	99.910	20.023	3.089	0.483
283.500	215.143	79.993	19.993	99.903	20.019	3.272	0.491
285.000	215.872	79.992	19.992	99.904	20.019	3.301	0.494
286.500	216.660	79.992	19.991	99.910	20.021	3.206	0.503
288.000	217.402	79.993	19.991	99.902	20.019	3.292	0.512
289.500	218.122	79.993	19.992	99.907	20.021	3.190	0.476
291.000	218.875	79.992	19.991	99.917	20.022	3.105	0.484
292.501	219.602	79.993	19.990	99.919	20.018	3.377	0.515
294.000	220.358	79.992	19.992	99.924	20.020	3.238	0.490
295.500	221.103	79.992	19.991	99.925	20.022	3.130	0.497
297.000	221.887	79.991	19.992	99.903	20.020	3.251	0.505
298.500	222.613	79.990	19.992	99.887	20.021	3.180	0.485
300.000	223.380	79.991	19.992	99.909	20.022	3.117	0.519
301.500	224.119	79.989	19.991	99.918	20.019	3.276	0.513
303.000	224.914	79.990	19.991	99.915	20.021	3.202	0.503
304.500	225.616	79.990	19.990	99.917	20.018	3.357	0.474
306.000	226.375	79.989	19.992	99.919	20.022	3.143	0.506
307.500	227.121	79.990	19.991	99.918	20.020	3.232	0.529
309.000	227.873	79.989	19.991	99.917	20.021	3.157	0.524
310.500	228.646	79.990	19.990	99.916	20.020	3.259	0.535
312.000	229.416	79.991	19.991	99.917	20.019	3.324	0.506
313.500	230.209	79.990	19.991	99.913	20.020	3.235	0.496
315.000	230.928	79.991	19.989	99.911	20.019	3.321	0.487
316.500	231.709	79.992	19.991	99.897	20.023	3.090	0.535
318.000	232.468	79.990	19.991	99.901	20.019	3.296	0.485
319.500	233.221	79.991	19.992	99.924	20.020	3.227	0.527
321.000	234.017	79.992	19.992	99.915	20.022	3.129	0.533
322.500	234.772	79.990	19.993	99.911	20.021	3.204	0.502
324.000	235.513	79.990	19.991	99.904	20.022	3.112	0.494
325.500	236.257	79.990	19.992	99.900	20.017	3.433	0.493
327.000	237.066	79.990	19.993	99.904	20.024	2.988	0.511
328.500	237.815	79.991	19.992	99.905	20.019	3.285	0.506
330.000	238.602	79.989	19.993	99.903	20.021	3.177	0.505
331.500	239.305	79.990	19.994	99.902	20.024	2.987	0.451
333.000	240.057	79.990	19.992	99.910	20.025	2.932	0.511
334.500	240.783	79.989	19.994	99.918	20.025	2.984	0.481
336.000	241.583	79.991	19.992	99.906	20.023	3.057	0.511
337.500	242.317	79.988	19.992	99.905	20.023	3.062	0.487
339.000	243.033	79.991	19.993	99.914	20.025	2.930	0.473
340.500	243.786	79.991	19.992	99.916	20.023	3.098	0.482
342.000	244.569	79.990	19.991	99.915	20.022	3.133	0.526
343.500	245.341	79.992	19.992	99.921	20.027	2.864	0.518
345.000	246.078	79.992	19.992	99.921	20.025	2.968	0.498
346.500	246.854	79.993	19.992	99.911	20.022	3.147	0.508
348.000	247.631	79.994	19.992	99.905	20.026	2.889	0.489
349.500	248.389	79.992	19.991	99.908	20.023	3.080	0.510
351.000	249.130	79.991	19.993	99.912	20.024	3.022	0.505
352.500	249.937	79.992	19.991	99.913	20.023	3.081	0.520
354.000	250.678	79.992	19.995	99.913	20.024	2.993	0.518
355.500	251.388	79.992	19.993	99.920	20.026	2.893	0.456
357.000	252.161	79.991	19.993	99.919	20.023	3.061	0.502
358.500	252.893	79.991	19.993	99.906	20.030	2.687	0.489
360.000	253.604	79.990	19.993	99.895	20.022	3.149	0.462
361.500	254.430	79.992	19.994	99.893	20.023	3.048	0.552
363.000	255.127	79.992	19.993	99.900	20.025	2.947	0.478
364.500	255.879	79.992	19.993	99.911	20.024	3.002	0.500
366.000	256.586	79.992	19.993	99.893	20.023	3.049	0.468
367.500	257.352	79.992	19.992	99.885	20.026	2.878	0.497
369.000	258.121	79.991	19.992	99.892	20.022	3.141	0.508
370.500	258.844	79.994	19.991	99.887	20.028	2.784	0.514
372.000	259.571	79.993	19.992	99.901	20.026	2.891	0.484
373.500	260.311	79.993	19.992	99.908	20.028	2.785	0.470
375.000	261.027	79.993	19.992	99.908	20.026	2.901	0.500
376.500	261.812	79.991	19.992	99.912	20.025	2.978	0.500
378.000	262.554	79.992	19.991	99.913	20.025	2.955	0.481
379.500	263.319	79.990	19.991	99.915	20.029	2.714	0.504
381.000	264.089	79.990	19.991	99.924	20.025	2.928	0.509
382.500	264.826	79.990	19.990	99.924	20.026	2.885	0.498
384.000	265.555	79.989	19.992	99.903	20.025	2.948	0.480
385.500	266.365	79.989	19.991	99.890	20.027	2.865	0.501
387.000	267.107	79.990	19.991	99.891	20.026	2.924	0.531
388.500	267.896	79.990	19.992	99.903	20.027	2.824	0.532
390.000	268.582	79.990	19.992	99.896	20.023	3.053	0.471
391.500	269.324	79.990	19.992	99.898	20.025	2.967	0.491
393.000	270.179	79.990	19.991	99.891	20.024	3.027	0.582
394.500	270.923	79.993	19.992	99.887	20.027	2.826	0.513
396.000	271.688	79.991	19.991	99.891	20.029	2.733	0.537
397.500	272.382	79.991	19.992	99.904	20.025	2.955	0.470
399.000	273.181	79.989	19.991	99.899	20.027	2.854	0.523
400.500	273.953	79.990	19.991	99.883	20.024	2.990	0.529
402.000	274.680	79.988	19.991	99.887	20.024	2.990	0.483
403.500	275.413	79.990	19.990	99.901	20.025	2.977	0.511
405.000	276.188	79.991	19.990	99.908	20.023	3.045	0.513
406.500	276.938	79.991	19.992	99.912	20.024	2.993	0.511
408.000	277.691	79.992	19.990	99.893	20.025	2.972	0.537
409.500	278.456	79.992	19.992	99.892	20.024	2.991	0.503
411.000	279.246	79.991	19.992	99.904	20.022	3.134	0.506
412.500	280.006	79.990	19.991	99.914	20.025	2.941	0.477
414.000	280.724	79.991	19.992	99.915	20.021	3.176	0.468
415.500	281.483	79.990	19.993	99.914	20.020	3.248	0.499
417.000	282.206	79.990	19.994	99.908	20.020	3.222	0.486
418.500	283.007	79.990	19.992	99.901	20.020	3.263	0.517
420.000	283.751	79.991	19.992	99.904	20.021	3.212	0.513
421.500	284.497	79.991	19.992	99.906	20.021	3.157	0.501
423.000	285.234	79.993	19.993	99.910	20.024	3.030	0.498
424.500	286.006	79.991	19.993	99.895	20.021	3.173	0.508
426.001	286.763	79.994	19.992	99.881	20.021	3.157	0.500
427.500	287.460	79.992	19.993	99.889	20.024	2.995	0.463
429.000	288.256	79.991	19.992	99.901	20.023	3.063	0.534
430.500	288.961	79.994	19.992	99.887	20.024	3.022	0.486
432.000	289.766	79.992	19.992	99.882	20.026	2.908	0.551
433.500	290.500	79.990	19.991	99.886	20.027	2.861	0.524
435.000	291.273	79.996	19.991	99.888	20.020	3.237	0.528
436.500	292.056	79.995	19.992	99.880	20.023	3.094	0.532
438.000	292.770	79.991	19.992	99.881	20.020	3.240	0.484
439.500	293.550	79.992	19.993	99.882	20.021	3.160	0.478
441.001	294.297	79.991	19.992	99.881	20.020	3.254	0.503
442.500	295.045	79.990	19.992	99.875	20.022	3.147	0.488
444.000	295.796	79.991	19.994	99.877	20.020	3.265	0.503
445.500	296.609	79.992	19.993	99.881	20.021	3.171	0.527
447.000	297.316	79.995	19.991	99.882	20.022	3.108	0.471
448.500	298.064	79.991	19.992	99.880	20.024	3.039	0.507
450.000	298.838	79.992	19.992	99.879	20.024	3.031	0.502
451.500	299.591	79.992	19.993	99.881	20.024	3.031	0.529
453.000	300.368	79.992	19.991	99.872	20.023	3.095	0.524
454.500	301.095	79.995	19.993	99.870	20.022	3.109	0.497
456.000	301.854	79.992	19.991	99.876	20.019	3.296	0.515
457.500	302.647	79.991	19.991	99.876	20.021	3.172	0.514
459.000	303.393	79.992	19.990	99.887	20.025	2.949	0.503
460.500	304.125	79.992	19.991	99.910	20.023	3.048	0.492
462.000	304.887	79.991	19.991	99.914	20.022	3.155	0.525
463.500	305.632	79.993	19.992	99.913	20.024	3.021	0.488
465.000	306.425	79.990	19.990	99.905	20.019	3.270	0.537
466.500	307.176	79.991	19.991	99.911	20.022	3.122	0.493
468.000	307.943	79.990	19.992	99.904	20.020	3.267	0.499
469.500	308.672	79.989	19.992	99.902	20.020	3.253	0.490
471.000	309.447	79.989	19.992	99.905	20.015	3.551	0.525
472.500	310.215	79.989	19.993	99.903	20.016	3.457	0.522
474.000	310.976	79.990	19.992	99.898	20.018	3.377	0.503
475.500	311.755	79.992	19.991	99.884	20.018	3.339	0.532
477.000	312.557	79.989	19.992	99.878	20.017	3.409	0.528
478.500	313.308	79.992	19.993	99.889	20.018	3.343	0.479
480.000	314.017	79.990	19.992	99.889	20.016	3.464	0.491
481.500	314.732	79.992	19.992	99.881	20.015	3.517	0.487
483.000	315.503	79.992	19.991	99.883	20.016	3.460	0.497
484.500	316.271	79.991	19.990	99.878	20.019	3.279	0.516
486.000	317.019	79.990	19.992	99.879	20.013	3.644	0.512
487.500	317.803	79.990	19.991	99.891	20.015	3.532	0.507
489.000	318.527	79.989	19.991	99.888	20.016	3.454	0.485
490.500	319.283	79.991	19.992	99.898	20.017	3.427	0.488
492.000	320.049	79.992	19.992	99.898	20.019	3.314	0.503
493.500	320.769	79.991	19.992	99.876	20.013	3.664	0.469
495.000	321.547	79.992	19.991	99.875	20.014	3.579	0.512
496.500	322.294	79.992	19.992	99.877	20.014	3.573	0.490
498.000	323.057	79.991	19.991	99.873	20.017	3.439	0.511
499.500	323.809	79.991	19.992	99.877	20.014	3.561	0.490
501.000	324.520	79.988	19.991	99.885	20.016	3.480	0.471
502.500	325.358	79.991	19.992	99.883	20.013	3.643	0.554
504.000	326.089	79.991	19.992	99.880	20.014	3.580	0.503
505.500	326.878	79.992	19.993	99.888	20.017	3.432	0.520
507.000	327.610	79.993	19.993	99.901	20.016	3.459	0.498
508.500	328.377	79.992	19.993	99.900	20.017	3.440	0.516
510.000	329.133	79.992	19.991	99.897	20.019	3.313	0.510
511.500	329.888	79.991	19.993	99.902	20.018	3.329	0.487
513.000	330.620	79.993	19.992	99.907	20.015	3.555	0.475
514.500	331.411	79.993	19.993	99.887	20.016	3.487	0.522
516.000	332.213	79.990	19.992	99.878	20.018	3.360	0.546
517.500	332.989	79.991	19.992	99.877	20.015	3.499	0.520
519.000	333.717	79.993	19.991	99.878	20.014	3.587	0.476
520.500	334.501	79.991	19.992	99.880	20.018	3.372	0.527
522.000	335.268	79.991	19.994	99.903	20.016	3.455	0.528
523.500	336.035	79.992	19.993	99.913	20.016	3.498	0.506
525.000	336.825	79.995	19.991	99.889	20.014	3.588	0.502
526.500	337.576	79.992	19.993	99.861	20.016	3.455	0.514
528.000	338.350	79.991	19.992	99.856	20.012	3.672	0.511
529.501	339.110	79.990	19.991	99.874	20.012	3.705	0.499
531.000	339.867	79.991	19.993	99.881	20.015	3.523	0.517
532.500	340.655	79.994	19.993	99.878	20.014	3.573	0.528
534.000	341.376	79.994	19.994	99.880	20.012	3.685	0.476
535.500	342.195	79.993	19.991	99.902	20.013	3.619	0.558
537.000	342.952	79.993	19.992	99.907	20.016	3.493	0.521
538.500	343.696	79.994	19.992	99.885	20.016	3.496	0.486
540.000	344.461	79.992	19.993	99.862	20.011	3.733	0.496
541.500	345.208	79.991	19.993	99.860	20.013	3.628	0.519
543.000	345.963	79.991	19.993	99.868	20.013	3.629	0.498
544.500	346.756	79.990	19.991	99.876	20.010	3.803	0.520
546.000	347.469	79.991	19.993	99.877	20.009	3.858	0.478
547.500	348.257	79.990	19.993	99.876	20.009	3.858	0.511
549.000	348.999	79.991	19.991	99.874	20.011	3.784	0.500
550.500	349.791	79.992	19.992	99.868	20.011	3.772	0.511
552.000	350.508	79.991	19.991	99.873	20.011	3.734	0.479
553.500	351.313	79.990	19.992	99.886	20.012	3.679	0.523
555.000	352.078	79.992	19.992	99.892	20.011	3.745	0.495
556.500	352.863	79.990	19.994	99.889	20.010	3.812	0.528
558.000	353.645	79.991	19.991	99.896	20.012	3.688	0.507
559.500	354.395	79.991	19.991	99.881	20.013	3.660	0.508
561.000	355.119	79.991	19.993	99.885	20.010	3.800	0.500
562.500	355.896	79.991	19.993	99.888	20.012	3.718	0.535
564.000	356.708	79.991	19.992	99.883	20.011	3.778	0.536
565.500	357.454	79.991	19.992	99.879	20.008	3.925	0.493
567.000	358.202	79.991	19.992	99.879	20.007	3.977	0.505
568.500	358.963	79.996	19.991	99.878	20.006	4.029	0.518
570.000	359.744	79.989	19.993	99.888	20.006	4.059	0.524
571.500	360.514	79.992	19.993	99.893	20.009	3.856	0.516
573.000	361.276	79.992	19.992	99.890	20.004	4.133	0.520
574.500	362.038	80.005	19.990	99.883	20.009	3.889	0.484
576.000	362.776	79.984	19.992	99.881	20.003	4.197	0.481
577.500	363.521	79.990	19.993	99.884	20.002	4.295	0.515
579.001	364.317	79.991	19.992	99.884	20.000	4.385	0.516
580.500	365.035	79.994	19.992	99.883	19.999	4.465	0.489
582.000	365.779	79.989	19.992	99.883	19.999	4.440	0.490
583.500	366.541	79.991	19.990	99.880	19.992	4.861	0.513
585.000	367.280	79.993	19.992	99.881	19.994	4.735	0.487
586.500	368.037	79.993	19.992	99.882	19.990	4.983	0.492
588.000	368.808	79.989	19.991	99.892	19.989	5.048	0.492
589.500	369.545	79.987	19.991	99.908	19.982	5.411	0.480
591.000	370.299	79.986	19.992	99.904	19.984	5.282	0.487
592.500	371.015	79.987	19.991	99.892	19.980	5.538	0.478
594.000	371.780	79.991	19.993	99.888	19.979	5.611	0.531
595.500	372.587	79.996	19.992	99.894	19.973	5.946	0.510
597.000	373.295	79.996	19.992	99.884	19.971	6.078	0.479
598.500	374.071	79.992	19.992	99.890	19.970	6.099	0.518
600.000	374.841	79.992	19.992	99.890	19.964	6.476	0.539
601.500	375.538	79.989	19.993	99.883	19.960	6.704	0.479
603.000	376.310	79.992	19.993	99.884	19.957	6.852	0.503
604.500	377.075	79.987	19.992	99.895	19.955	6.957	0.513
606.000	377.867	79.991	19.993	99.906	19.945	7.559	0.526
607.500	378.582	79.991	19.993	99.898	19.942	7.702	0.496
609.000	379.350	79.990	19.992	99.905	19.940	7.859	0.506
610.500	380.080	79.988	19.991	99.912	19.934	8.158	0.480
612.000	380.819	79.991	19.994	99.908	19.932	8.319	0.507
613.500	381.579	79.988	19.994	99.910	19.924	8.754	0.513
615.000	382.334	79.991	19.992	99.915	19.920	8.999	0.482
616.500	383.098	79.989	19.992	99.915	19.910	9.568	0.515
618.000	383.872	79.992	19.993	99.914	19.905	9.824	0.511
619.500	384.596	79.995	19.992	99.928	19.894	10.476	0.487
621.000	385.342	79.995	19.992	99.932	19.891	10.674	0.494
622.500	386.115	79.991	19.992	99.925	19.885	11.023	0.506
624.000	386.892	79.993	19.991	99.926	19.876	11.514	0.496
625.500	387.708	79.994	19.993	99.923	19.868	11.946	0.526
627.000	388.439	79.989	19.993	99.930	19.856	12.684	0.502
628.500	389.151	79.986	19.995	99.952	19.846	13.215	0.504
630.000	389.943	79.990	19.993	99.951	19.835	13.845	0.532
631.500	390.700	79.988	19.993	99.959	19.823	14.553	0.515
633.000	391.439	79.990	19.993	99.962	19.813	15.135	0.480
634.500	392.184	79.995	19.994	99.949	19.804	15.662	0.492
636.000	392.986	79.986	19.992	99.937	19.792	16.340	0.536
637.500	393.770	80.005	19.990	99.939	19.782	16.932	0.529
639.000	394.524	79.998	19.991	99.940	19.767	17.762	0.521
640.500	395.298	79.991	19.992	99.970	19.751	18.685	0.533
642.000	396.090	79.970	19.992	99.993	19.740	19.365	0.530
643.500	396.859	79.992	19.992	99.992	19.723	20.316	0.511
645.000	397.589	79.989	19.991	99.989	19.706	21.289	0.487
646.500	398.395	79.990	19.991	99.990	19.687	22.386	0.526
648.000	399.123	79.997	19.991	99.995	19.664	23.700	0.486
649.500	399.896	79.995	19.991	100.009	19.643	24.932	0.495
651.000	400.619	79.992	19.992	100.030	19.613	26.652	0.486
652.500	401.384	79.992	19.992	100.031	19.580	28.556	0.504
654.000	402.194	79.987	19.992	100.040	19.546	30.527	0.555
655.500	402.905	79.991	19.991	100.042	19.516	32.247	0.484
657.000	403.683	79.989	19.993	100.026	19.498	33.279	0.528
658.500	404.484	79.987	19.992	100.027	19.477	34.465	0.555
660.000	405.254	79.993	19.992	100.011	19.461	35.412	0.509
661.500	406.032	79.990	19.990	99.986	19.438	36.725	0.518
663.000	406.777	79.990	19.992	100.006	19.415	38.070	0.496
664.500	407.631	79.992	19.991	100.060	19.386	39.747	0.565
666.000	408.372	79.991	19.991	100.110	19.366	40.912	0.503
667.500	409.130	79.995	19.993	100.103	19.344	42.129	0.519
669.000	409.895	79.992	19.993	100.078	19.322	43.405	0.509
670.500	410.677	79.987	19.992	100.095	19.298	44.796	0.507
672.000	411.421	79.995	19.991	100.106	19.274	46.216	0.476
673.500	412.190	79.985	19.993	100.106	19.252	47.468	0.513
675.000	412.933	79.991	19.993	100.125	19.227	48.906	0.506
676.500	413.667	79.988	19.988	100.156	19.199	50.566	0.511
678.000	414.389	79.991	19.991	100.174	19.163	52.625	0.510
679.500	415.181	79.993	19.992	100.171	19.123	54.927	0.527
681.000	415.953	79.992	19.992	100.194	19.092	56.762	0.517
682.500	416.752	79.986	19.994	100.212	19.058	58.773	0.522
684.000	417.531	79.999	19.988	100.215	19.021	60.990	0.511
685.500	418.215	79.992	19.993	100.228	18.990	62.783	0.458
687.000	418.955	79.984	19.989	100.232	18.959	64.536	0.492
688.500	419.766	79.991	19.991	100.253	18.926	66.297	0.517
690.000	420.518	79.998	19.992	100.272	18.885	68.498	0.492
691.500	421.235	79.983	19.993	100.308	18.787	74.075	0.505
693.000	422.019	79.993	19.990	100.395	18.610	84.541	0.523
694.500	422.745	80.001	19.990	100.549	18.460	93.446	0.485
696.000	423.481	79.985	19.991	100.540	18.384	97.877	0.501
697.500	424.209	79.979	19.994	100.478	18.346	100.286	0.461
699.000	425.014	79.993	19.991	100.383	18.322	101.754	0.544
700.500	425.822	79.988	19.991	100.136	18.303	102.685	0.538
702.000	426.553	79.994	19.993	99.958	18.291	103.330	0.472
703.500	427.322	80.007	19.989	100.181	18.293	102.942	0.488
705.000	428.081	79.988	19.994	100.569	18.275	103.619	0.529
706.500	428.809	79.998	19.991	100.644	18.128	112.164	0.499
708.000	429.547	79.980	19.994	100.734	17.929	124.473	0.498
709.500	430.301	80.009	19.991	100.908	17.794	132.859	0.525
711.000	431.046	79.985	19.993	100.791	17.730	136.425	0.501
712.500	431.781	79.995	19.991	100.736	17.706	137.666	0.479
714.000	432.587	79.988	19.991	100.578	17.711	137.128	0.524
715.500	433.361	79.985	19.993	100.199	17.714	136.431	0.516
717.000	434.120	79.988	19.993	100.064	17.613	142.217	0.492
718.500	434.961	79.988	19.992	100.595	17.438	153.037	0.559
720.000	435.650	79.989	19.993	101.206	17.287	162.153	0.463
721.500	436.409	79.996	19.992	101.231	17.192	167.603	0.490
723.000	437.158	79.992	19.993	101.104	17.128	171.118	0.492
724.500	437.905	79.993	19.991	100.946	17.075	173.879	0.500
726.000	438.599	79.977	19.993	100.632	17.001	178.136	0.493
727.500	439.385	79.986	19.990	100.397	16.895	184.500	0.518
729.000	440.110	79.996	19.992	100.788	16.800	190.201	0.488
730.500	440.863	79.988	19.992	101.119	16.739	193.740	0.493
732.000	441.657	79.980	19.990	101.166	16.699	196.062	0.544
733.500	442.409	79.974	19.992	101.045	16.669	197.729	0.487
735.000	443.174	79.983	19.993	100.885	16.657	198.448	0.506
736.500	443.920	79.977	19.995	100.790	16.654	198.591	0.489
738.000	444.720	79.997	19.990	100.882	16.669	197.676	0.521
739.500	445.459	79.993	19.991	101.002	16.687	196.579	0.502
741.000	446.189	79.989	19.990	101.042	16.705	195.502	0.489
742.500	447.008	79.998	19.991	101.019	16.732	193.833	0.529
744.000	447.783	79.995	19.991	101.005	16.759	192.215	0.491
745.500	448.608	79.984	19.993	101.002	16.793	190.246	0.536
747.000	449.337	79.979	19.991	100.997	16.832	187.943	0.481
748.500	450.073	79.988	19.992	100.972	16.876	185.362	0.489
750.000	450.868	79.996	19.992	100.942	16.936	181.870	0.536
751.500	451.615	79.999	19.991	100.917	16.992	178.552	0.519
753.000	452.402	79.987	19.991	100.884	17.059	174.610	0.527
754.500	453.226	80.004	19.990	100.856	17.133	170.299	0.542
756.000	453.936	79.990	19.991	100.839	17.207	165.970	0.494
757.500	454.693	79.987	19.992	100.818	17.290	161.098	0.515
759.000	455.463	79.968	19.992	100.801	17.376	156.056	0.526
760.500	456.253	79.990	19.990	100.782	17.463	150.981	0.507
762.000	457.013	79.993	19.990	100.762	17.564	145.105	0.522
763.500	457.810	79.968	19.995	100.729	17.661	139.508	0.528
765.000	458.610	79.987	19.991	100.694	17.761	133.664	0.500
766.500	459.390	79.990	19.990	100.660	17.860	127.930	0.508
768.000	460.137	80.003	19.993	100.632	17.966	121.804	0.511
769.500	460.903	79.998	19.992	100.586	18.068	115.831	0.518
771.000	461.720	79.993	19.992	100.547	18.176	109.583	0.559
772.500	462.499	79.989	19.992	100.535	18.279	103.650	0.495
774.000	463.259	79.988	19.992	100.514	18.386	97.430	0.511
775.500	464.008	80.002	19.990	100.480	18.494	91.162	0.485
777.000	464.820	80.005	19.990	100.467	18.599	85.129	0.551
778.500	465.614	79.998	19.992	100.440	18.709	78.740	0.540
780.000	466.377	79.974	19.993	100.396	18.810	72.900	0.517
781.500	467.148	79.990	19.991	100.362	18.906	67.360	0.509
783.001	467.880	79.992	19.991	100.342	18.996	62.194	0.505
784.500	468.618	79.983	19.996	100.319	19.073	57.716	0.498
786.000	469.443	79.989	19.992	100.293	19.146	53.523	0.543
787.500	470.200	80.011	19.988	100.275	19.214	49.592	0.499
789.001	470.983	80.001	19.993	100.253	19.272	46.244	0.520
790.501	471.748	79.981	19.992	100.219	19.323	43.302	0.491
792.001	472.531	79.991	19.992	100.192	19.372	40.521	0.529
793.500	473.296	79.992	19.994	100.163	19.415	38.014	0.514
795.000	474.088	79.997	19.985	100.146	19.457	35.622	0.508
796.500	474.884	79.997	19.991	100.136	19.497	33.338	0.556
798.000	475.621	79.998	19.994	100.103	19.528	31.511	0.484
799.500	476.354	79.989	19.993	100.084	19.557	29.824	0.495
801.000	477.155	79.989	19.992	100.086	19.586	28.194	0.542
802.500	477.917	79.992	19.996	100.068	19.614	26.558	0.540
804.000	478.665	79.987	19.991	100.058	19.645	24.799	0.493
805.500	479.415	79.993	19.993	100.043	19.674	23.108	0.514
807.000	480.185	79.987	19.994	100.041	19.695	21.889	0.520
808.500	480.938	79.988	19.992	100.034	19.721	20.406	0.513
810.000	481.693	79.987	19.993	100.014	19.740	19.339	0.508
811.500	482.449	79.990	19.987	99.997	19.762	18.072	0.489
813.000	483.241	79.995	19.990	99.988	19.784	16.821	0.523
814.500	483.982	79.986	19.990	99.970	19.801	15.798	0.528
816.000	484.739	79.985	19.992	99.970	19.825	14.461	0.503
817.500	485.549	79.998	19.992	99.982	19.838	13.715	0.538
819.001	486.317	79.999	19.989	99.973	19.853	12.833	0.527
820.500	487.079	79.999	19.989	99.959	19.867	12.019	0.506
822.000	487.826	80.001	19.990	99.955	19.884	11.063	0.513
823.500	488.621	79.993	19.988	99.949	19.895	10.439	0.499
825.000	489.356	79.993	19.997	99.946	19.901	10.069	0.493
826.500	490.149	79.993	19.989	99.931	19.907	9.700	0.534
828.000	490.905	79.993	19.991	99.932	19.918	9.093	0.517
829.500	491.653	79.994	19.992	99.928	19.930	8.426	0.508
831.000	492.452	79.994	19.987	99.923	19.934	8.151	0.511
832.500	493.238	79.995	19.989	99.916	19.942	7.745	0.510
834.000	494.012	79.985	19.993	99.901	19.949	7.320	0.495
835.500	494.846	79.990	19.988	99.906	19.953	7.108	0.565
837.000	495.571	79.983	19.993	99.899	19.960	6.712	0.483
838.501	496.326	79.998	19.992	99.882	19.961	6.619	0.532
840.000	497.099	79.977	19.993	99.895	19.963	6.522	0.513
841.500	497.880	79.999	19.990	99.890	19.964	6.460	0.533
843.000	498.674	79.998	19.991	99.885	19.965	6.399	0.521
844.500	499.424	79.995	19.986	99.902	19.969	6.148	0.490
846.000	500.195	79.994	19.989	99.909	19.970	6.092	0.486
847.500	501.006	79.997	19.991	99.908	19.969	6.182	0.572
849.000	501.813	79.994	19.992	99.912	19.975	5.801	0.537
850.500	502.562	79.990	19.993	99.899	19.976	5.774	0.507
852.000	503.342	79.987	19.993	99.880	19.975	5.822	0.511
853.501	504.105	79.992	19.986	99.879	19.977	5.694	0.514
855.000	504.827	79.987	19.991	99.887	19.982	5.445	0.498
856.500	505.595	79.987	19.993	99.885	19.980	5.553	0.516
858.000	506.414	79.990	19.993	99.885	19.982	5.421	0.512
859.500	507.163	79.988	19.999	99.879	19.986	5.211	0.478
861.000	507.900	80.015	19.992	99.868	19.981	5.457	0.484
862.500	508.693	80.001	19.991	99.872	19.986	5.220	0.536
864.000	509.438	79.977	19.992	99.878	19.982	5.412	0.501
865.500	510.263	79.997	19.991	99.878	19.984	5.311	0.505
867.000	511.015	79.993	19.994	99.876	19.986	5.193	0.497
868.500	511.774	80.008	19.990	99.870	19.988	5.097	0.494
870.000	512.542	80.001	19.990	99.877	19.989	5.042	0.511
871.500	513.289	79.981	19.990	99.875	19.986	5.168	0.507
873.000	514.114	80.000	19.987	99.872	19.986	5.201	0.544
874.500	514.890	79.984	19.993	99.859	19.985	5.242	0.500
876.000	515.659	80.006	19.988	99.865	19.985	5.253	0.514
877.500	516.379	79.966	19.994	99.880	19.992	4.842	0.461
879.000	517.188	79.993	19.993	99.877	19.993	4.773	0.543
880.501	517.988	79.985	19.993	99.877	19.990	4.944	0.524
882.000	518.734	79.991	19.992	99.879	19.988	5.066	0.523
883.500	519.533	79.996	19.992	99.880	19.992	4.842	0.518
885.000	520.313	79.983	19.993	99.892	19.991	4.900	0.528
886.500	521.129	79.987	19.993	99.906	19.991	4.891	0.547
888.000	521.871	79.988	19.995	99.891	19.993	4.782	0.501
889.500	522.625	79.998	19.989	99.863	19.992	4.829	0.511
891.000	523.414	79.986	19.991	99.853	19.989	5.005	0.525
892.500	524.219	79.987	19.994	99.855	19.989	5.017	0.536
894.000	524.983	79.994	19.990	99.851	19.989	5.041	0.490
895.500	525.741	79.987	19.993	99.856	19.991	4.885	0.505
897.000	526.581	79.989	19.991	99.861	19.990	4.937	0.548
898.500	527.346	79.987	19.993	99.874	19.993	4.778	0.500
900.000	528.077	79.985	19.994	99.880	19.995	4.665	0.495
901.500	528.906	79.998	19.988	99.877	19.995	4.696	0.581
903.000	529.663	79.989	19.991	99.880	19.995	4.662	0.502
904.500	530.402	79.988	19.991	99.880	19.993	4.780	0.510
906.000	531.212	79.988	19.993	99.879	19.994	4.718	0.534
907.500	531.948	79.990	19.991	99.873	19.995	4.691	0.482
909.000	532.727	79.992	19.991	99.866	19.992	4.824	0.511
910.500	533.501	79.988	19.993	99.866	19.996	4.613	0.490
912.000	534.319	79.988	19.991	99.871	19.994	4.753	0.536
913.500	535.098	79.987	19.992	99.853	19.996	4.646	0.531
915.000	535.909	79.996	19.994	99.859	19.994	4.711	0.522
916.500	536.693	79.990	19.993	99.893	19.996	4.598	0.541
918.000	537.441	79.992	19.991	99.904	19.996	4.644	0.480
919.500	538.190	79.993	19.991	99.882	19.994	4.750	0.515
921.000	538.985	79.993	19.991	99.877	19.992	4.842	0.509
922.500	539.673	79.991	19.992	99.868	19.993	4.793	0.479
924.000	540.498	79.990	19.993	99.874	19.996	4.610	0.533
925.500	541.250	79.991	19.992	99.879	19.997	4.556	0.514
927.000	542.041	79.992	19.992	99.876	19.992	4.866	0.541
928.500	542.806	79.996	19.991	99.862	19.993	4.798	0.515
930.000	543.525	79.989	19.994	99.863	19.995	4.697	0.490
931.500	544.301	79.992	19.990	99.885	19.993	4.803	0.527
933.000	545.065	79.993	19.990	99.893	19.989	5.030	0.497
934.500	545.834	79.996	19.993	99.876	19.989	5.039	0.495
936.000	546.627	80.003	19.989	99.865	19.991	4.924	0.543
937.500	547.366	79.976	19.994	99.850	19.992	4.843	0.526
939.000	548.142	79.982	19.992	99.852	19.994	4.735	0.493
940.500	548.903	79.993	19.991	99.876	19.994	4.708	0.510
942.000	549.648	79.993	19.989	99.862	19.990	4.966	0.511
943.500	550.459	79.996	19.994	99.844	19.990	4.964	0.535
945.000	551.214	79.980	19.993	99.845	19.992	4.862	0.490
946.500	552.029	79.990	19.992	99.853	19.986	5.169	0.561
948.000	552.746	79.995	19.991	99.875	19.992	4.836	0.469
949.500	553.539	79.997	19.991	99.865	19.990	4.987	0.545
951.001	554.327	79.993	19.991	99.848	19.991	4.877	0.523
952.500	555.111	79.992	19.991	99.858	19.986	5.176	0.521
954.000	555.869	79.991	19.992	99.851	19.984	5.317	0.513
955.500	556.618	79.987	19.992	99.870	19.987	5.154	0.512
957.000	557.376	79.971	19.995	99.877	19.987	5.146	0.497
958.500	558.175	79.990	19.993	99.869	19.985	5.234	0.519
960.000	558.934	79.996	19.994	99.875	19.985	5.244	0.497
961.500	559.697	80.008	19.994	99.865	19.986	5.198	0.509
963.000	560.468	79.994	19.994	99.826	19.990	4.963	0.520
964.500	561.257	79.991	19.993	99.897	19.988	5.066	0.543
966.000	561.965	79.985	19.993	99.946	19.989	5.001	0.485
967.500	562.788	79.992	19.992	99.888	19.991	4.918	0.524
969.000	563.473	79.995	19.991	99.877	19.994	4.709	0.463
970.500	564.272	79.988	19.993	99.876	19.993	4.785	0.521
972.000	565.045	79.992	19.992	99.879	19.993	4.774	0.515
973.500	565.783	79.991	19.993	99.884	19.992	4.846	0.490
975.000	566.576	79.992	19.991	99.889	19.992	4.841	0.543
976.500	567.360	79.992	19.993	99.874	19.994	4.710	0.531
978.000	568.145	79.989	19.994	99.887	19.992	4.842	0.519
979.500	568.922	79.990	19.993	99.903	19.993	4.763	0.528
981.000	569.731	79.993	19.992	99.883	19.992	4.861	0.521
982.500	570.447	79.987	19.993	99.863	19.990	4.966	0.478
984.000	571.217	79.988	19.993	99.839	19.989	5.002	0.521
985.500	572.023	79.993	19.993	99.841	19.994	4.734	0.519
987.000	572.781	79.988	19.993	99.860	19.992	4.853	0.492
988.501	573.534	79.989	19.993	99.871	19.997	4.579	0.527
990.000	574.365	79.990	19.992	99.857	19.991	4.880	0.555
991.500	575.130	79.991	19.992	99.856	19.992	4.831	0.511
993.000	575.885	79.989	19.993	99.865	19.987	5.160	0.506
994.500	576.681	79.991	19.991	99.855	19.991	4.906	0.523
996.000	577.409	79.993	19.991	99.859	19.989	5.036	0.498
997.500	578.197	79.992	19.992	99.864	19.990	4.979	0.520
999.000	578.970	79.991	19.992	99.875	19.985	5.244	0.495
1000.500	579.737	79.990	19.992	99.868	19.991	4.921	0.518
1002.000	580.508	79.994	19.992	99.864	19.988	5.083	0.518
1003.500	581.292	79.992	19.992	99.874	19.988	5.091	0.543
1005.000	582.074	79.993	19.992	99.881	19.986	5.218	0.534
1006.500	582.794	79.993	19.992	99.877	19.985	5.237	0.453
1008.000	583.569	79.993	19.993	99.873	19.986	5.201	0.511
1009.500	584.328	79.993	19.993	99.877	19.988	5.081	0.513
1011.000	585.119	79.993	19.992	99.878	19.987	5.140	0.514
1012.500	585.891	79.991	19.992	99.876	19.986	5.218	0.514
1014.000	586.687	79.991	19.992	99.877	19.990	4.977	0.525
1015.500	587.442	79.993	19.991	99.877	19.990	4.964	0.509
1017.000	588.212	79.992	19.991	99.875	19.987	5.155	0.536
1018.500	588.998	79.994	19.990	99.871	19.987	5.138	0.524
1020.000	589.748	79.990	19.991	99.872	19.990	4.989	0.506
1021.500	590.508	79.992	19.993	99.876	19.986	5.216	0.531
1023.000	591.291	79.992	19.991	99.876	19.987	5.161	0.535
1024.500	592.120	79.993	19.992	99.870	19.981	5.466	0.532
1026.000	592.866	79.997	19.992	99.856	19.984	5.291	0.516
1027.001	593.426	79.994	19.992	99.858	19.985	5.270	0.522