File: 01_Data/Polyester_Batting/MCC/Polyester_Batting_MCC_30K_min_210308_R3.txt
Sample ID:	C:\MCC\MCC Cal\Test\Polyester_Batting_30_3.txt
Sample Weight (mg):	4.22
Heating Rate (C/s):	0.5
Combustor Temp (C):	900
N2 Flow Rate (cc/min):	80
O2 Flow Rate (cc/min):	20
Calibration File:	C:\MCC\MCC Cal\Coeff1 JN10440_30_210304.txt.txt
T Correction Coefficients:	0	1.024463	0
Time Shift (s):	14
*
Time (s)	Temperature (C)	N2 flow rate (cc/min)	O2 flow rate (cc/min)	Flow Rate (cc/min)	Oxygen (%)	HRR (W/g)	Heating rate (C/s)
0.000	111.283	79.990	19.992	99.717	20.139	0.478	-0.002
1.500	111.249	79.992	19.993	99.714	20.142	0.279	-0.008
3.000	111.210	79.992	19.992	99.713	20.140	0.462	-0.013
4.500	111.237	79.991	19.991	99.723	20.140	0.472	0.016
6.000	111.167	79.992	19.992	99.723	20.139	0.484	-0.041
7.500	111.141	79.992	19.991	99.719	20.142	0.301	-0.032
9.000	111.066	79.993	19.992	99.716	20.139	0.509	-0.048
10.500	111.074	79.992	19.992	99.722	20.135	0.818	-0.020
12.000	111.054	79.994	19.991	99.727	20.137	0.640	0.000
13.500	111.125	79.993	19.991	99.725	20.139	0.485	0.015
15.000	111.091	79.994	19.991	99.723	20.140	0.461	-0.019
16.500	111.085	79.993	19.992	99.720	20.136	0.764	-0.021
18.000	111.083	79.994	19.991	99.719	20.136	0.742	0.002
19.500	111.108	79.994	19.992	99.720	20.132	1.013	0.016
21.000	111.082	79.994	19.991	99.723	20.132	1.052	-0.025
22.500	111.083	79.993	19.991	99.748	20.133	0.983	-0.023
24.001	111.066	79.994	19.992	99.785	20.132	1.044	-0.013
25.500	111.079	79.993	19.991	99.817	20.122	1.747	0.023
27.000	111.136	79.993	19.991	99.836	20.119	2.025	0.032
28.500	111.160	79.994	19.991	99.854	20.117	2.114	0.034
30.000	111.241	79.994	19.991	99.876	20.109	2.727	0.036
31.500	111.322	79.994	19.991	99.889	20.104	3.087	0.047
33.000	111.425	79.993	19.991	99.895	20.107	2.848	0.063
34.501	111.556	79.995	19.992	99.907	20.107	2.878	0.073
36.000	111.720	79.995	19.990	99.910	20.103	3.143	0.097
37.500	111.857	79.995	19.991	99.908	20.098	3.517	0.103
39.000	112.082	79.995	19.990	99.912	20.102	3.261	0.146
40.500	112.246	79.995	19.991	99.915	20.099	3.453	0.117
42.000	112.424	79.993	19.992	99.922	20.101	3.303	0.077
43.500	112.661	79.994	19.991	99.926	20.101	3.294	0.171
45.000	112.918	79.994	19.991	99.921	20.099	3.442	0.185
46.500	113.166	79.993	19.991	99.914	20.101	3.322	0.174
48.000	113.486	79.993	19.991	99.912	20.098	3.577	0.190
49.501	113.774	79.992	19.990	99.918	20.099	3.472	0.179
51.000	114.080	79.992	19.990	99.923	20.102	3.260	0.207
52.501	114.392	79.993	19.992	99.930	20.097	3.614	0.197
54.000	114.693	79.992	19.990	99.936	20.098	3.504	0.192
55.500	115.032	79.991	19.990	99.954	20.097	3.589	0.237
57.000	115.381	79.992	19.990	99.947	20.094	3.844	0.245
58.500	115.722	79.993	19.991	99.948	20.093	3.939	0.241
60.001	116.117	79.991	19.991	99.955	20.101	3.281	0.255
61.500	116.495	79.991	19.992	99.952	20.098	3.529	0.240
63.000	116.939	79.992	19.992	99.952	20.095	3.768	0.305
64.501	117.311	79.993	19.993	99.948	20.093	3.896	0.264
66.000	117.693	79.993	19.991	99.945	20.087	4.368	0.279
67.501	118.156	79.990	19.992	99.948	20.089	4.184	0.319
69.000	118.614	79.992	19.992	99.945	20.088	4.296	0.317
70.500	119.017	79.991	19.992	99.938	20.088	4.296	0.270
72.000	119.498	79.993	19.992	99.946	20.086	4.396	0.317
73.500	119.944	79.992	19.992	99.951	20.091	4.076	0.304
75.000	120.477	79.990	19.991	99.965	20.091	4.036	0.349
76.500	120.944	79.991	19.991	99.993	20.090	4.126	0.326
78.000	121.433	79.991	19.991	99.994	20.092	3.984	0.323
79.500	121.902	79.991	19.991	99.996	20.089	4.184	0.327
81.000	122.485	79.992	19.992	100.003	20.091	4.066	0.362
82.500	122.962	79.992	19.991	100.018	20.091	4.032	0.346
84.000	123.507	79.992	19.992	100.019	20.092	3.986	0.368
85.500	124.061	79.992	19.993	99.993	20.091	4.038	0.370
87.000	124.637	79.992	19.993	99.974	20.086	4.447	0.374
88.500	125.167	79.991	19.992	99.955	20.086	4.442	0.367
90.000	125.727	79.992	19.993	99.950	20.090	4.120	0.374
91.500	126.261	79.992	19.992	99.960	20.085	4.515	0.358
93.001	126.855	79.992	19.992	99.986	20.087	4.351	0.396
94.500	127.486	79.994	19.992	99.994	20.088	4.316	0.425
96.000	128.073	79.994	19.992	99.990	20.087	4.381	0.392
97.500	128.662	79.993	19.993	99.985	20.084	4.614	0.380
99.000	129.265	79.991	19.993	99.999	20.090	4.147	0.379
100.500	129.856	79.993	19.992	100.006	20.091	4.068	0.401
102.000	130.432	79.994	19.992	100.015	20.090	4.148	0.380
103.500	131.103	79.993	19.992	100.010	20.091	4.039	0.406
105.000	131.696	79.995	19.992	99.999	20.090	4.141	0.409
106.501	132.307	79.993	19.992	100.001	20.090	4.166	0.409
108.000	132.970	79.993	19.990	100.009	20.086	4.435	0.429
109.500	133.552	79.993	19.990	99.993	20.087	4.344	0.408
111.000	134.235	79.994	19.991	99.982	20.086	4.439	0.432
112.500	134.862	79.994	19.992	99.970	20.090	4.134	0.421
114.000	135.480	79.993	19.991	99.951	20.085	4.491	0.417
115.500	136.199	79.995	19.990	99.973	20.088	4.293	0.466
117.000	136.841	79.994	19.992	99.999	20.085	4.470	0.428
118.500	137.541	79.995	19.990	99.992	20.089	4.208	0.461
120.000	138.208	79.995	19.991	99.990	20.085	4.528	0.454
121.500	138.859	79.996	19.992	99.994	20.087	4.319	0.432
123.000	139.562	79.995	19.991	100.005	20.086	4.429	0.459
124.500	140.273	79.994	19.991	100.028	20.087	4.364	0.462
126.000	140.969	79.996	19.992	100.028	20.090	4.109	0.462
127.500	141.673	79.993	19.991	100.016	20.088	4.311	0.470
129.000	142.348	79.992	19.991	99.993	20.088	4.247	0.458
130.500	143.072	79.993	19.991	99.986	20.085	4.474	0.479
132.000	143.767	79.994	19.992	99.988	20.089	4.241	0.474
133.500	144.463	79.993	19.990	99.992	20.085	4.517	0.431
135.000	145.189	79.992	19.992	99.996	20.090	4.127	0.452
136.500	145.859	79.992	19.991	99.997	20.088	4.279	0.441
138.000	146.555	79.993	19.991	99.984	20.088	4.286	0.465
139.500	147.291	79.993	19.991	99.983	20.094	3.852	0.515
141.000	148.021	79.993	19.992	99.998	20.092	3.978	0.473
142.500	148.762	79.993	19.990	100.004	20.087	4.352	0.504
144.000	149.524	79.994	19.991	100.016	20.090	4.109	0.514
145.500	150.223	79.994	19.994	100.029	20.087	4.368	0.472
147.000	150.937	79.995	19.992	100.006	20.090	4.127	0.475
148.500	151.716	79.993	19.991	99.971	20.090	4.152	0.508
150.000	152.467	79.993	19.992	99.973	20.089	4.200	0.516
151.500	153.194	79.993	19.991	99.990	20.086	4.396	0.464
153.000	153.906	79.992	19.993	99.993	20.089	4.220	0.473
154.500	154.606	79.993	19.992	99.992	20.088	4.281	0.488
156.000	155.355	79.994	19.993	99.989	20.087	4.335	0.505
157.500	156.135	79.992	19.993	99.994	20.087	4.371	0.524
159.000	156.846	79.992	19.990	99.990	20.086	4.463	0.450
160.500	157.530	79.991	19.992	99.989	20.081	4.764	0.458
162.000	158.264	79.992	19.993	99.978	20.084	4.570	0.516
163.500	159.025	79.992	19.990	99.981	20.088	4.307	0.498
165.000	159.727	79.992	19.991	99.992	20.082	4.689	0.479
166.500	160.526	79.993	19.993	99.979	20.085	4.529	0.525
168.000	161.280	79.992	19.992	99.969	20.090	4.162	0.485
169.500	162.004	79.993	19.993	99.980	20.093	3.928	0.470
171.000	162.800	79.993	19.991	99.979	20.084	4.560	0.494
172.500	163.471	79.994	19.993	99.986	20.089	4.176	0.452
174.000	164.281	79.995	19.992	99.983	20.085	4.521	0.530
175.500	165.031	79.996	19.992	99.973	20.088	4.299	0.489
177.000	165.781	79.995	19.992	99.961	20.088	4.300	0.479
178.500	166.535	79.995	19.995	99.954	20.085	4.497	0.493
180.000	167.278	79.994	19.992	99.954	20.085	4.518	0.510
181.500	168.072	79.992	19.993	99.971	20.086	4.458	0.505
183.000	168.798	79.994	19.993	99.989	20.087	4.388	0.490
184.500	169.602	79.994	19.993	99.987	20.087	4.324	0.525
186.000	170.299	79.994	19.992	99.952	20.082	4.716	0.486
187.500	171.081	79.992	19.992	99.889	20.091	4.060	0.526
189.000	171.834	79.992	19.993	100.038	20.092	3.996	0.488
190.500	172.551	79.995	19.992	100.066	20.086	4.406	0.475
192.000	173.371	79.994	19.992	99.971	20.093	3.903	0.556
193.500	174.104	79.994	19.991	99.979	20.090	4.119	0.474
195.000	174.854	79.996	19.991	99.991	20.092	4.011	0.522
196.500	175.620	79.994	19.990	100.006	20.091	4.089	0.506
198.000	176.384	79.994	19.992	100.026	20.087	4.324	0.517
199.500	177.143	79.996	19.991	100.000	20.089	4.176	0.529
201.000	177.896	79.997	19.992	99.977	20.086	4.405	0.505
202.500	178.701	79.995	19.991	99.949	20.088	4.264	0.517
204.000	179.471	79.997	19.991	99.941	20.089	4.187	0.495
205.500	180.175	79.994	19.990	99.955	20.084	4.612	0.505
207.001	180.948	79.994	19.990	99.957	20.089	4.227	0.517
208.500	181.691	79.994	19.991	99.955	20.090	4.148	0.507
210.000	182.379	79.994	19.992	99.949	20.091	4.065	0.498
211.500	183.168	79.993	19.991	99.950	20.093	3.925	0.541
213.000	183.911	79.993	19.992	99.961	20.092	4.016	0.490
214.500	184.707	79.994	19.992	99.970	20.086	4.405	0.506
216.000	185.423	79.993	19.992	99.967	20.093	3.899	0.491
217.500	186.205	79.992	19.993	99.959	20.093	3.891	0.527
219.000	186.933	79.995	19.992	99.962	20.093	3.945	0.453
220.500	187.712	79.994	19.992	99.965	20.088	4.251	0.508
222.000	188.478	79.993	19.991	99.959	20.092	4.016	0.515
223.500	189.208	79.993	19.989	99.952	20.091	4.033	0.489
225.000	189.976	79.994	19.994	99.952	20.085	4.506	0.490
226.500	190.719	79.992	19.990	99.954	20.089	4.190	0.504
228.001	191.447	79.992	19.990	99.953	20.092	3.995	0.477
229.500	192.234	79.993	19.991	99.950	20.089	4.213	0.512
231.000	192.993	79.992	19.990	99.935	20.091	4.041	0.501
232.500	193.694	79.992	19.990	99.938	20.092	3.962	0.482
234.000	194.435	79.993	19.990	99.960	20.095	3.741	0.484
235.500	195.175	79.993	19.991	99.985	20.093	3.887	0.503
237.000	195.919	79.993	19.992	99.991	20.090	4.098	0.484
238.500	196.652	79.992	19.992	99.989	20.093	3.934	0.487
240.000	197.402	79.994	19.991	99.964	20.094	3.859	0.510
241.500	198.128	79.992	19.991	99.947	20.094	3.865	0.500
243.000	198.884	79.992	19.994	99.950	20.097	3.620	0.499
244.500	199.645	79.992	19.992	99.949	20.095	3.792	0.510
246.000	200.382	79.992	19.992	99.948	20.096	3.711	0.495
247.500	201.070	79.993	19.992	99.968	20.097	3.651	0.471
249.000	201.843	79.993	19.994	99.968	20.093	3.889	0.493
250.500	202.583	79.992	19.992	99.955	20.093	3.916	0.493
252.000	203.357	79.992	19.993	99.956	20.089	4.225	0.499
253.500	204.102	79.992	19.993	99.955	20.094	3.831	0.500
255.000	204.867	79.994	19.991	99.958	20.091	4.057	0.538
256.500	205.585	79.994	19.991	99.968	20.093	3.907	0.480
258.000	206.348	79.995	19.992	99.969	20.093	3.895	0.507
259.500	207.085	79.995	19.990	99.959	20.089	4.172	0.507
261.000	207.834	79.996	19.993	99.958	20.088	4.308	0.512
262.500	208.607	79.993	19.992	99.965	20.091	4.033	0.509
264.000	209.326	79.993	19.993	99.969	20.093	3.885	0.460
265.500	210.088	79.993	19.992	99.959	20.094	3.832	0.493
267.000	210.796	79.993	19.990	99.957	20.097	3.606	0.470
268.500	211.540	79.994	19.991	99.958	20.097	3.606	0.507
270.000	212.270	79.993	19.991	99.953	20.096	3.658	0.488
271.500	213.001	79.992	19.991	99.958	20.100	3.425	0.511
273.000	213.718	79.992	19.993	99.958	20.099	3.484	0.482
274.500	214.478	79.994	19.994	99.947	20.097	3.620	0.494
276.000	215.197	79.995	19.992	99.950	20.095	3.737	0.483
277.500	215.925	79.993	19.994	99.952	20.096	3.674	0.491
279.000	216.714	79.994	19.991	99.952	20.095	3.749	0.520
280.500	217.463	79.994	19.990	99.949	20.094	3.852	0.503
282.000	218.182	79.995	19.991	99.944	20.090	4.114	0.481
283.500	218.945	79.994	19.990	99.949	20.093	3.901	0.489
285.000	219.686	79.996	19.994	99.953	20.089	4.237	0.499
286.500	220.418	79.997	19.990	99.950	20.094	3.840	0.491
288.000	221.174	79.995	19.990	99.951	20.094	3.838	0.497
289.500	221.896	79.996	19.992	99.949	20.092	3.984	0.497
291.000	222.628	79.994	19.992	99.948	20.091	4.073	0.486
292.500	223.375	79.994	19.991	99.950	20.089	4.206	0.506
294.000	224.112	79.993	19.991	99.951	20.095	3.794	0.492
295.500	224.828	79.992	19.991	99.949	20.095	3.790	0.493
297.000	225.587	79.995	19.993	99.949	20.089	4.172	0.508
298.500	226.312	79.992	19.989	99.951	20.097	3.642	0.480
300.000	227.045	79.994	19.990	99.950	20.095	3.764	0.493
301.500	227.805	79.993	19.992	99.949	20.095	3.790	0.503
303.000	228.549	79.993	19.992	99.948	20.096	3.715	0.517
304.500	229.274	79.993	19.992	99.951	20.093	3.942	0.491
306.000	230.084	79.992	19.990	99.955	20.095	3.729	0.536
307.500	230.804	79.992	19.991	99.951	20.100	3.359	0.472
309.000	231.501	79.993	19.991	99.952	20.094	3.846	0.478
310.500	232.307	79.994	19.990	99.956	20.098	3.521	0.543
312.000	233.074	79.993	19.991	99.952	20.101	3.351	0.516
313.500	233.796	79.992	19.990	99.951	20.100	3.363	0.494
315.000	234.580	79.995	19.993	99.953	20.094	3.819	0.516
316.500	235.321	79.992	19.991	99.951	20.103	3.189	0.493
318.000	236.107	79.993	19.993	99.945	20.096	3.707	0.495
319.500	236.874	79.994	19.991	99.947	20.093	3.880	0.534
321.000	237.609	79.994	19.992	99.953	20.096	3.710	0.493
322.500	238.357	79.993	19.992	99.960	20.096	3.688	0.505
324.000	239.137	79.992	19.992	99.990	20.095	3.764	0.518
325.500	239.874	79.993	19.993	100.021	20.102	3.234	0.481
327.000	240.626	79.993	19.990	100.025	20.102	3.242	0.503
328.500	241.356	79.992	19.992	99.991	20.100	3.401	0.504
330.000	242.101	79.993	19.991	99.930	20.094	3.808	0.480
331.500	242.807	79.994	19.990	99.916	20.097	3.617	0.460
333.000	243.545	79.992	19.992	99.923	20.104	3.065	0.473
334.500	244.269	79.993	19.991	99.920	20.094	3.804	0.453
336.000	245.051	79.995	19.993	99.915	20.094	3.806	0.513
337.500	245.757	79.995	19.992	99.918	20.095	3.792	0.481
339.000	246.485	79.993	19.991	99.931	20.097	3.646	0.482
340.500	247.250	79.995	19.992	99.949	20.100	3.423	0.497
342.000	247.976	79.996	19.991	99.942	20.090	4.135	0.501
343.500	248.707	79.995	19.991	99.945	20.096	3.688	0.483
345.000	249.420	79.997	19.992	99.950	20.098	3.511	0.492
346.500	250.244	79.996	19.993	99.942	20.104	3.128	0.513
348.000	250.998	79.994	19.992	99.944	20.102	3.276	0.508
349.500	251.779	79.993	19.992	99.947	20.096	3.656	0.519
351.000	252.415	79.994	19.992	99.941	20.101	3.347	0.406
352.500	253.182	79.993	19.992	99.934	20.099	3.498	0.527
354.000	254.028	79.993	19.991	99.937	20.097	3.638	0.567
355.500	254.665	79.996	19.992	99.948	20.096	3.725	0.433
357.000	255.436	79.993	19.992	99.949	20.095	3.798	0.530
358.500	256.163	79.994	19.994	99.945	20.100	3.417	0.494
360.000	256.961	79.995	19.992	99.946	20.092	3.978	0.523
361.500	257.695	79.994	19.992	99.949	20.100	3.419	0.475
363.000	258.446	79.995	19.994	99.949	20.096	3.709	0.509
364.500	259.174	79.996	19.992	99.946	20.093	3.917	0.487
366.000	259.942	79.994	19.989	99.945	20.097	3.615	0.503
367.500	260.639	79.995	19.992	99.949	20.096	3.700	0.479
369.000	261.426	79.995	19.993	99.948	20.100	3.359	0.495
370.500	262.158	79.995	19.993	99.947	20.099	3.435	0.483
372.000	262.903	79.994	19.991	99.939	20.098	3.551	0.511
373.500	263.656	79.995	19.990	99.942	20.096	3.726	0.516
375.001	264.420	79.993	19.991	99.947	20.098	3.557	0.499
376.500	265.133	79.995	19.991	99.934	20.099	3.445	0.471
378.000	265.871	79.992	19.990	99.936	20.097	3.641	0.498
379.500	266.629	79.994	19.992	99.944	20.097	3.611	0.505
381.000	267.365	79.994	19.992	99.943	20.095	3.781	0.494
382.501	268.137	79.993	19.994	99.952	20.099	3.435	0.513
384.000	268.896	79.992	19.992	99.977	20.096	3.664	0.510
385.500	269.688	79.993	19.992	99.958	20.098	3.542	0.528
387.000	270.436	79.995	19.990	99.935	20.103	3.198	0.509
388.500	271.212	79.994	19.992	99.917	20.098	3.569	0.537
390.000	271.957	79.994	19.991	99.927	20.103	3.201	0.481
391.500	272.714	79.994	19.994	99.942	20.105	2.990	0.517
393.000	273.462	79.992	19.991	99.939	20.103	3.184	0.506
394.500	274.183	79.992	19.993	99.943	20.098	3.504	0.479
396.000	274.978	79.991	19.994	99.934	20.098	3.526	0.510
397.500	275.727	79.993	19.991	99.926	20.101	3.321	0.519
399.000	276.513	79.994	19.991	99.934	20.100	3.364	0.515
400.500	277.266	79.991	19.991	99.942	20.105	3.057	0.493
402.000	278.029	79.994	19.993	99.943	20.101	3.318	0.496
403.500	278.783	79.993	19.991	99.931	20.097	3.608	0.484
405.000	279.548	79.994	19.989	99.930	20.098	3.511	0.492
406.500	280.301	79.991	19.991	99.934	20.097	3.640	0.500
408.000	281.074	79.992	19.991	99.922	20.098	3.571	0.506
409.500	281.807	79.993	19.990	99.921	20.100	3.369	0.489
411.000	282.590	79.992	19.991	99.934	20.096	3.690	0.526
412.500	283.307	79.993	19.991	99.951	20.100	3.364	0.482
414.000	284.080	79.993	19.991	99.953	20.102	3.279	0.533
415.500	284.817	79.992	19.989	99.952	20.105	3.047	0.501
417.000	285.521	79.996	19.994	99.953	20.098	3.542	0.466
418.500	286.303	79.993	19.992	99.955	20.093	3.906	0.509
420.000	287.032	79.994	19.993	99.949	20.094	3.801	0.496
421.500	287.840	79.993	19.991	99.944	20.096	3.652	0.545
423.000	288.609	79.995	19.992	99.934	20.098	3.549	0.500
424.500	289.322	79.995	19.992	99.932	20.098	3.574	0.480
426.000	290.125	79.995	19.992	99.935	20.099	3.465	0.544
427.500	290.903	79.994	19.992	99.927	20.099	3.457	0.529
429.000	291.642	79.994	19.991	99.923	20.097	3.586	0.488
430.500	292.366	79.995	19.992	99.921	20.102	3.208	0.501
432.000	293.118	79.995	19.992	99.936	20.100	3.358	0.494
433.500	293.916	79.993	19.991	99.954	20.103	3.180	0.547
435.000	294.656	79.994	19.992	99.961	20.093	3.898	0.496
436.500	295.425	79.993	19.990	99.943	20.093	3.894	0.513
438.000	296.146	79.994	19.991	99.914	20.102	3.217	0.484
439.500	296.923	79.995	19.992	99.913	20.102	3.237	0.537
441.000	297.774	79.993	19.990	99.918	20.095	3.757	0.556
442.500	298.466	79.994	19.993	99.918	20.102	3.213	0.476
444.000	299.222	79.995	19.992	99.925	20.098	3.561	0.498
445.500	299.957	79.994	19.992	99.934	20.101	3.337	0.482
447.000	300.725	79.995	19.992	99.932	20.098	3.576	0.514
448.500	301.462	79.995	19.992	99.952	20.102	3.208	0.475
450.000	302.236	79.995	19.992	99.954	20.100	3.370	0.525
451.500	303.010	79.996	19.992	99.951	20.100	3.366	0.507
453.000	303.747	79.994	19.993	99.945	20.102	3.277	0.483
454.500	304.498	79.995	19.993	99.941	20.097	3.579	0.471
456.000	305.281	79.993	19.992	99.923	20.101	3.320	0.531
457.500	306.046	79.993	19.993	99.910	20.102	3.251	0.498
459.000	306.777	79.991	19.993	99.922	20.099	3.471	0.509
460.500	307.532	79.992	19.992	99.933	20.098	3.511	0.513
462.001	308.297	79.993	19.992	99.923	20.098	3.513	0.504
463.500	309.036	79.993	19.990	99.923	20.101	3.315	0.498
465.000	309.792	79.993	19.992	99.938	20.095	3.739	0.508
466.500	310.567	79.993	19.992	99.939	20.100	3.380	0.501
468.000	311.351	79.993	19.991	99.926	20.099	3.449	0.528
469.500	312.132	79.995	19.991	99.934	20.098	3.560	0.528
471.000	312.893	79.994	19.991	99.926	20.098	3.515	0.533
472.500	313.677	79.992	19.991	99.913	20.101	3.338	0.500
474.000	314.400	79.993	19.991	99.906	20.102	3.248	0.507
475.500	315.114	79.993	19.992	99.885	20.099	3.472	0.478
477.000	315.921	79.994	19.992	99.897	20.099	3.488	0.530
478.500	316.644	79.993	19.991	99.916	20.103	3.180	0.478
480.000	317.414	79.994	19.992	99.916	20.104	3.066	0.505
481.500	318.105	79.993	19.992	99.912	20.102	3.267	0.454
483.000	318.901	79.994	19.993	99.928	20.097	3.636	0.521
484.500	319.663	79.994	19.993	99.951	20.103	3.185	0.517
486.000	320.442	79.991	19.992	99.951	20.103	3.147	0.526
487.500	321.242	79.993	19.992	99.951	20.100	3.372	0.515
489.000	321.939	79.994	19.993	99.940	20.102	3.274	0.470
490.500	322.696	79.993	19.991	99.918	20.098	3.553	0.509
492.000	323.490	79.994	19.993	99.915	20.097	3.638	0.523
493.500	324.209	79.994	19.993	99.909	20.102	3.279	0.465
495.000	324.958	79.993	19.992	99.903	20.096	3.689	0.464
496.500	325.721	79.994	19.993	99.914	20.097	3.604	0.499
498.000	326.440	79.993	19.993	99.912	20.097	3.602	0.499
499.500	327.172	79.992	19.991	99.909	20.094	3.872	0.489
501.000	327.962	79.996	19.992	99.890	20.097	3.602	0.514
502.500	328.661	79.996	19.991	99.897	20.096	3.655	0.470
504.000	329.491	79.995	19.991	99.919	20.098	3.519	0.538
505.500	330.196	79.996	19.991	99.943	20.102	3.248	0.487
507.000	330.948	79.994	19.990	99.953	20.106	2.937	0.501
508.500	331.735	79.992	19.990	99.964	20.102	3.240	0.511
510.000	332.474	79.995	19.993	99.952	20.101	3.301	0.472
511.500	333.211	79.993	19.992	99.917	20.100	3.363	0.516
513.000	334.032	79.994	19.993	99.908	20.098	3.561	0.542
514.500	334.743	79.993	19.992	99.908	20.097	3.642	0.476
516.000	335.527	79.992	19.992	99.909	20.102	3.216	0.513
517.500	336.301	79.992	19.993	99.911	20.102	3.254	0.544
519.000	337.064	79.993	19.993	99.906	20.097	3.626	0.503
520.500	337.824	79.992	19.992	99.907	20.097	3.606	0.515
522.000	338.599	79.994	19.992	99.906	20.097	3.601	0.512
523.500	339.370	79.994	19.992	99.896	20.100	3.395	0.511
525.000	340.096	79.994	19.992	99.939	20.101	3.300	0.480
526.500	340.855	79.994	19.991	99.965	20.105	3.044	0.523
528.000	341.615	79.993	19.990	99.953	20.101	3.327	0.522
529.500	342.341	79.995	19.990	99.957	20.105	3.035	0.493
531.000	343.094	79.994	19.993	99.952	20.104	3.089	0.510
532.500	343.875	79.995	19.991	99.944	20.102	3.279	0.523
534.000	344.621	79.994	19.991	99.954	20.103	3.184	0.468
535.500	345.422	79.994	19.992	99.948	20.099	3.496	0.518
537.000	346.178	79.995	19.991	99.914	20.097	3.599	0.531
538.500	346.913	79.993	19.993	99.907	20.099	3.497	0.520
540.000	347.664	79.991	19.993	99.888	20.099	3.488	0.500
541.500	348.450	79.993	19.992	99.903	20.095	3.733	0.497
543.000	349.194	79.991	19.993	99.924	20.096	3.666	0.501
544.500	350.008	79.992	19.993	99.914	20.093	3.941	0.543
546.000	350.691	79.991	19.993	99.903	20.091	4.076	0.454
547.500	351.464	79.993	19.993	99.871	20.097	3.582	0.505
549.000	352.192	79.993	19.992	99.887	20.096	3.653	0.493
550.500	352.999	79.993	19.993	99.933	20.093	3.879	0.532
552.000	353.762	79.993	19.992	99.947	20.100	3.412	0.503
553.500	354.509	79.993	19.992	99.950	20.096	3.673	0.493
555.000	355.254	79.994	19.992	99.931	20.097	3.606	0.519
556.500	355.990	79.994	19.991	99.922	20.094	3.865	0.505
558.000	356.765	79.993	19.991	99.916	20.088	4.298	0.517
559.500	357.523	79.994	19.991	99.913	20.089	4.205	0.474
561.000	358.283	79.993	19.993	99.914	20.089	4.221	0.522
562.500	359.055	79.993	19.991	99.907	20.087	4.335	0.529
564.000	359.754	79.992	19.991	99.908	20.085	4.472	0.474
565.500	360.534	79.992	19.992	99.947	20.086	4.448	0.512
567.000	361.275	79.993	19.992	99.962	20.086	4.458	0.474
568.500	362.037	79.992	19.991	99.912	20.088	4.266	0.496
570.000	362.743	79.992	19.992	99.910	20.081	4.812	0.479
571.500	363.502	79.991	19.991	99.909	20.083	4.661	0.506
573.000	364.276	79.993	19.992	99.925	20.080	4.894	0.522
574.500	364.992	79.991	19.991	99.922	20.078	5.005	0.478
576.000	365.770	79.992	19.991	99.915	20.077	5.094	0.500
577.500	366.536	79.992	19.992	99.920	20.071	5.536	0.511
579.000	367.303	79.992	19.991	99.916	20.071	5.558	0.518
580.500	368.032	79.992	19.991	99.916	20.067	5.805	0.495
582.000	368.801	79.993	19.992	99.926	20.063	6.092	0.532
583.500	369.534	79.992	19.990	99.935	20.063	6.155	0.472
585.000	370.310	79.993	19.992	99.934	20.058	6.505	0.523
586.500	371.057	79.994	19.992	99.923	20.059	6.405	0.498
588.000	371.782	79.994	19.991	99.941	20.057	6.579	0.471
589.500	372.538	79.994	19.992	99.946	20.055	6.742	0.503
591.000	373.313	79.994	19.990	99.948	20.051	7.001	0.509
592.500	374.025	79.995	19.992	99.946	20.046	7.355	0.470
594.000	374.798	79.994	19.990	99.922	20.042	7.667	0.505
595.500	375.584	79.993	19.990	99.935	20.039	7.867	0.520
597.000	376.301	79.994	19.992	99.956	20.034	8.304	0.504
598.500	377.102	79.992	19.991	99.965	20.033	8.379	0.506
600.000	377.891	79.993	19.992	99.953	20.030	8.571	0.540
601.500	378.677	79.993	19.992	99.953	20.025	8.936	0.511
603.000	379.418	79.993	19.993	99.952	20.018	9.477	0.495
604.500	380.171	79.993	19.992	99.954	20.015	9.637	0.511
606.000	380.943	79.994	19.991	99.947	20.012	9.894	0.516
607.500	381.690	79.992	19.991	99.946	20.008	10.180	0.493
609.000	382.472	79.993	19.992	99.964	19.994	11.218	0.529
610.500	383.248	79.995	19.991	99.980	19.997	11.015	0.516
612.000	384.037	79.994	19.991	99.963	19.989	11.608	0.525
613.500	384.825	79.995	19.991	99.951	19.982	12.128	0.524
615.000	385.642	79.996	19.992	99.951	19.975	12.634	0.540
616.500	386.357	79.995	19.992	99.947	19.971	12.900	0.498
618.000	387.176	79.994	19.991	99.948	19.963	13.501	0.540
619.501	387.911	79.994	19.991	99.950	19.956	14.037	0.492
621.000	388.671	79.994	19.991	99.950	19.947	14.704	0.513
622.500	389.433	79.993	19.992	99.950	19.941	15.138	0.511
624.000	390.216	79.991	19.994	99.964	19.934	15.698	0.527
625.500	390.946	79.992	19.992	99.980	19.927	16.193	0.463
627.000	391.735	79.991	19.992	99.985	19.917	16.951	0.546
628.500	392.501	79.992	19.992	99.989	19.912	17.303	0.507
630.000	393.305	79.991	19.992	99.987	19.897	18.380	0.537
631.500	394.072	79.992	19.993	99.989	19.884	19.342	0.527
633.000	394.831	79.991	19.993	99.993	19.869	20.458	0.510
634.500	395.592	79.992	19.995	100.010	19.861	21.075	0.524
636.000	396.355	79.991	19.992	100.024	19.839	22.667	0.497
637.500	397.095	79.991	19.993	100.029	19.820	24.127	0.493
639.000	397.897	79.993	19.992	100.029	19.799	25.647	0.518
640.500	398.652	79.991	19.992	100.019	19.785	26.707	0.471
642.000	399.428	79.993	19.990	100.006	19.775	27.444	0.540
643.501	400.168	79.993	19.991	99.998	19.765	28.182	0.478
645.000	400.916	79.993	19.989	99.996	19.753	29.037	0.476
646.500	401.642	79.993	19.991	100.001	19.732	30.606	0.479
648.000	402.432	79.993	19.991	100.032	19.717	31.748	0.527
649.500	403.193	79.992	19.991	100.076	19.698	33.168	0.499
651.000	403.966	79.992	19.992	100.080	19.678	34.649	0.511
652.500	404.716	79.991	19.992	100.072	19.661	35.927	0.503
654.000	405.467	79.992	19.992	100.073	19.647	36.970	0.508
655.500	406.208	79.991	19.991	100.070	19.632	38.035	0.497
657.000	406.964	79.992	19.992	100.070	19.610	39.676	0.508
658.500	407.780	79.993	19.991	100.086	19.590	41.195	0.524
660.000	408.529	79.992	19.991	100.108	19.561	43.284	0.497
661.500	409.237	79.991	19.990	100.114	19.537	45.103	0.484
663.000	410.022	79.992	19.991	100.124	19.505	47.450	0.506
664.500	410.777	79.995	19.992	100.141	19.475	49.687	0.513
666.000	411.535	79.994	19.991	100.149	19.450	51.546	0.471
667.500	412.307	79.994	19.992	100.146	19.415	54.205	0.526
669.000	413.079	79.994	19.991	100.145	19.378	56.920	0.503
670.500	413.820	79.995	19.991	100.148	19.348	59.239	0.494
672.000	414.581	79.994	19.992	100.172	19.321	61.234	0.495
673.500	415.275	79.996	19.991	100.190	19.291	63.368	0.468
675.000	416.040	79.994	19.990	100.201	19.262	65.497	0.517
676.500	416.788	79.994	19.991	100.217	19.220	68.531	0.488
678.000	417.546	79.994	19.990	100.242	19.156	73.268	0.503
679.500	418.351	79.995	19.990	100.289	19.046	81.486	0.534
681.000	419.115	79.994	19.990	100.387	18.948	88.925	0.484
682.501	419.917	79.993	19.991	100.413	18.896	92.828	0.532
684.000	420.705	79.996	19.991	100.286	18.867	95.012	0.531
685.500	421.415	79.995	19.990	100.232	18.845	96.611	0.465
687.000	422.208	79.994	19.990	100.162	18.832	97.579	0.518
688.500	422.994	79.996	19.990	100.082	18.804	99.636	0.527
690.000	423.793	79.995	19.991	100.156	18.782	101.288	0.531
691.500	424.539	79.996	19.990	100.394	18.748	103.852	0.517
693.000	425.311	79.995	19.991	100.488	18.716	106.263	0.505
694.500	426.078	79.997	19.991	100.464	18.679	108.984	0.501
696.000	426.823	79.996	19.993	100.431	18.636	112.294	0.506
697.500	427.581	79.996	19.992	100.426	18.593	115.674	0.525
699.000	428.341	79.995	19.990	100.431	18.546	119.305	0.484
700.500	429.136	79.994	19.992	100.451	18.504	122.402	0.543
702.000	429.877	79.995	19.992	100.492	18.465	125.191	0.488
703.500	430.619	79.993	19.992	100.510	18.433	127.407	0.477
705.000	431.372	79.993	19.990	100.509	18.385	130.623	0.510
706.500	432.144	79.992	19.993	100.545	18.260	139.839	0.523
708.000	432.902	79.994	19.992	100.672	18.084	153.300	0.491
709.500	433.691	79.991	19.992	100.856	17.926	165.457	0.531
711.000	434.449	79.993	19.992	100.850	17.822	173.294	0.497
712.500	435.212	79.993	19.991	100.769	17.756	178.087	0.519
714.000	435.960	79.993	19.992	100.664	17.717	180.979	0.497
715.500	436.753	79.993	19.992	100.429	17.695	182.541	0.543
717.000	437.503	79.992	19.991	100.261	17.681	183.557	0.492
718.500	438.331	79.994	19.992	100.458	17.663	184.913	0.541
720.000	439.046	79.992	19.991	100.763	17.652	185.764	0.477
721.500	439.831	79.993	19.993	100.850	17.653	185.669	0.531
723.000	440.565	79.992	19.992	100.813	17.648	185.999	0.473
724.500	441.293	79.993	19.992	100.779	17.650	185.872	0.482
726.000	442.057	79.991	19.993	100.762	17.652	185.697	0.504
727.500	442.834	79.993	19.992	100.743	17.655	185.437	0.493
729.000	443.578	79.991	19.992	100.739	17.663	184.841	0.522
730.500	444.332	79.992	19.991	100.746	17.671	184.253	0.507
732.000	445.159	79.993	19.992	100.745	17.684	183.268	0.560
733.500	445.912	79.992	19.990	100.735	17.702	181.870	0.509
735.000	446.703	79.992	19.991	100.730	17.725	180.085	0.502
736.500	447.453	79.993	19.992	100.714	17.748	178.399	0.502
738.000	448.212	79.993	19.993	100.700	17.783	175.717	0.527
739.500	449.021	79.992	19.992	100.698	17.819	172.994	0.524
741.000	449.730	79.992	19.992	100.693	17.859	170.004	0.464
742.500	450.552	79.993	19.992	100.681	17.903	166.732	0.555
744.000	451.299	79.993	19.992	100.660	17.954	162.869	0.507
745.500	452.057	79.993	19.992	100.637	18.003	159.177	0.513
747.000	452.839	79.994	19.992	100.625	18.063	154.672	0.531
748.500	453.550	79.994	19.992	100.614	18.120	150.393	0.503
750.000	454.356	79.994	19.993	100.582	18.183	145.723	0.510
751.500	455.108	79.996	19.992	100.551	18.249	140.767	0.515
753.000	455.854	79.996	19.993	100.538	18.309	136.259	0.519
754.500	456.640	79.995	19.991	100.521	18.376	131.267	0.511
756.000	457.432	79.995	19.992	100.492	18.452	125.655	0.510
757.500	458.140	79.994	19.991	100.469	18.522	120.401	0.507
759.000	458.940	79.995	19.991	100.443	18.595	114.991	0.520
760.500	459.650	79.994	19.992	100.401	18.672	109.217	0.461
762.000	460.428	79.994	19.991	100.379	18.746	103.746	0.529
763.501	461.194	79.995	19.990	100.365	18.831	97.401	0.513
765.001	461.990	79.994	19.993	100.342	18.913	91.355	0.523
766.500	462.720	79.995	19.991	100.316	18.995	85.248	0.480
768.000	463.546	79.995	19.992	100.292	19.081	78.847	0.540
769.500	464.202	79.995	19.991	100.274	19.159	73.068	0.452
771.000	465.001	79.995	19.993	100.265	19.234	67.530	0.532
772.500	465.755	79.996	19.991	100.245	19.304	62.317	0.526
774.000	466.525	79.995	19.991	100.216	19.370	57.399	0.524
775.500	467.310	79.997	19.991	100.199	19.432	52.789	0.487
777.000	467.964	79.996	19.991	100.188	19.486	48.836	0.460
778.500	468.768	79.995	19.991	100.163	19.541	44.765	0.548
780.000	469.588	79.995	19.991	100.142	19.586	41.422	0.505
781.501	470.302	79.995	19.991	100.126	19.621	38.847	0.492
783.000	471.077	79.994	19.991	100.108	19.658	36.064	0.526
784.500	471.883	79.994	19.991	100.085	19.696	33.293	0.503
786.000	472.613	79.994	19.993	100.074	19.737	30.214	0.463
787.500	473.429	79.993	19.991	100.067	19.763	28.313	0.535
789.000	474.305	79.993	19.992	100.051	19.792	26.194	0.524
790.500	475.056	79.994	19.993	100.039	19.816	24.353	0.477
792.000	475.620	79.994	19.992	100.036	19.836	22.891	0.435
793.500	476.614	79.993	19.992	100.034	19.854	21.614	0.406
795.000	477.378	79.994	19.990	100.026	19.871	20.349	0.537
796.500	478.375	79.994	19.992	100.002	19.886	19.235	0.467
798.001	479.209	79.994	19.993	99.993	19.905	17.816	0.366
799.500	479.529	79.993	19.992	99.993	19.921	16.653	0.067
801.000	480.319	79.991	19.992	99.990	19.934	15.638	0.335
802.500	481.172	79.993	19.992	99.996	19.947	14.680	0.482
804.000	482.009	79.993	19.992	100.000	19.954	14.201	0.497
805.500	482.666	79.994	19.992	99.992	19.972	12.867	0.412
807.000	483.427	79.994	19.992	99.988	19.980	12.293	0.478
808.500	484.196	79.992	19.992	99.980	19.988	11.655	0.506
810.000	484.855	79.993	19.992	99.965	19.996	11.059	0.462
811.500	485.646	79.993	19.992	99.974	20.002	10.617	0.508
813.000	486.406	79.992	19.994	99.962	20.014	9.741	0.505
814.501	487.126	79.992	19.993	99.955	20.021	9.266	0.515
816.000	487.934	79.992	19.993	99.952	20.020	9.310	0.547
817.500	488.635	79.992	19.993	99.953	20.026	8.832	0.445
819.000	489.384	79.993	19.994	99.953	20.039	7.930	0.522
820.500	490.169	79.992	19.991	99.956	20.041	7.751	0.515
822.000	490.890	79.993	19.992	99.983	20.042	7.649	0.468
823.500	491.610	79.994	19.991	99.979	20.051	7.015	0.479
825.000	492.357	79.993	19.991	99.950	20.052	6.970	0.492
826.500	493.176	79.994	19.991	99.927	20.057	6.596	0.545
828.000	493.943	79.992	19.991	99.956	20.059	6.384	0.524
829.500	494.659	79.995	19.991	99.985	20.061	6.241	0.466
831.000	495.387	79.994	19.990	99.954	20.065	5.985	0.475
832.500	496.159	79.995	19.992	99.917	20.064	6.058	0.517
834.000	496.905	79.995	19.992	99.915	20.067	5.800	0.490
835.500	497.662	79.995	19.992	99.941	20.067	5.801	0.492
837.000	498.442	79.995	19.993	99.929	20.072	5.489	0.546
838.500	499.167	79.994	19.993	99.915	20.072	5.445	0.472
840.000	499.915	79.995	19.991	99.912	20.077	5.091	0.503
841.500	500.663	79.994	19.990	99.904	20.079	4.960	0.534
843.000	501.410	79.994	19.991	99.917	20.076	5.169	0.501
844.500	502.220	79.994	19.992	99.919	20.077	5.068	0.548
846.000	502.930	79.996	19.993	99.939	20.079	4.957	0.458
847.501	503.692	79.995	19.992	99.951	20.079	4.972	0.531
849.000	504.437	79.995	19.992	99.932	20.081	4.809	0.518
850.500	505.156	79.995	19.992	99.915	20.082	4.736	0.493
852.000	505.907	79.996	19.991	99.917	20.081	4.812	0.472
853.500	506.690	79.995	19.990	99.926	20.081	4.826	0.513
855.000	507.503	79.995	19.991	99.938	20.081	4.800	0.540
856.500	508.203	79.996	19.990	99.951	20.082	4.697	0.476
858.000	508.953	79.996	19.990	99.938	20.087	4.339	0.489
859.500	509.759	79.997	19.991	99.911	20.086	4.421	0.534
861.000	510.492	79.996	19.990	99.895	20.090	4.098	0.495
862.500	511.241	79.995	19.991	99.902	20.089	4.182	0.485
864.000	511.933	79.996	19.991	99.916	20.094	3.831	0.475
865.500	512.716	79.996	19.991	99.920	20.088	4.262	0.518
867.000	513.460	79.994	19.990	99.919	20.090	4.118	0.476
868.500	514.255	79.993	19.992	99.915	20.091	4.080	0.515
870.000	515.028	79.993	19.993	99.912	20.090	4.108	0.507
871.500	515.805	79.992	19.992	99.913	20.091	4.038	0.522
873.000	516.591	79.993	19.993	99.906	20.088	4.302	0.511
874.500	517.368	79.993	19.992	99.906	20.088	4.300	0.525
876.000	518.140	79.994	19.993	99.911	20.088	4.274	0.515
877.500	518.903	79.993	19.993	99.912	20.087	4.348	0.528
879.000	519.695	79.994	19.992	99.914	20.087	4.351	0.533
880.500	520.490	79.992	19.993	99.914	20.089	4.213	0.531
882.000	521.197	79.993	19.992	99.927	20.092	3.960	0.511
883.500	521.963	79.993	19.992	99.926	20.094	3.853	0.492
885.000	522.706	79.993	19.991	99.915	20.096	3.699	0.495
886.500	523.520	79.992	19.991	99.914	20.091	4.080	0.537
888.000	524.291	79.992	19.992	99.935	20.098	3.551	0.514
889.500	525.060	79.993	19.991	99.936	20.095	3.774	0.528
891.000	525.829	79.993	19.992	99.914	20.091	4.027	0.479
892.500	526.577	79.993	19.991	99.913	20.091	4.061	0.488
894.000	527.329	79.994	19.993	99.911	20.090	4.108	0.516
895.500	528.142	79.994	19.993	99.910	20.090	4.148	0.531
897.000	528.868	79.993	19.991	99.891	20.093	3.919	0.474
898.500	529.642	79.992	19.991	99.880	20.090	4.128	0.531
900.000	530.447	79.993	19.993	99.898	20.092	3.956	0.515
901.500	531.234	79.992	19.993	99.912	20.090	4.167	0.502
903.000	531.969	79.991	19.993	99.896	20.096	3.669	0.484
904.500	532.742	79.992	19.993	99.899	20.095	3.749	0.492
906.000	533.514	79.993	19.993	99.908	20.090	4.130	0.513
907.500	534.258	79.992	19.993	99.928	20.094	3.805	0.500
909.000	535.017	79.993	19.991	99.926	20.096	3.697	0.514
910.501	535.845	79.995	19.991	99.907	20.090	4.137	0.531
912.000	536.645	79.994	19.992	99.919	20.092	3.958	0.539
913.500	537.384	79.995	19.992	99.916	20.092	3.978	0.486
915.000	538.155	79.993	19.992	99.884	20.094	3.867	0.521
916.500	538.961	79.996	19.991	99.888	20.090	4.096	0.540
918.000	539.715	79.995	19.991	99.913	20.092	3.950	0.528
919.500	540.478	79.995	19.989	99.909	20.094	3.859	0.517
921.000	541.250	79.995	19.991	99.885	20.096	3.722	0.512
922.500	542.017	79.995	19.991	99.903	20.096	3.703	0.539
924.000	542.799	79.994	19.992	99.914	20.096	3.691	0.526
925.500	543.537	79.995	19.991	99.912	20.095	3.734	0.484
927.000	544.305	79.996	19.992	99.913	20.096	3.657	0.514
928.500	545.085	79.996	19.992	99.909	20.094	3.800	0.500
930.000	545.881	79.996	19.993	99.910	20.096	3.703	0.537
931.500	546.641	79.996	19.992	99.914	20.093	3.940	0.508
933.000	547.430	79.996	19.991	99.910	20.097	3.587	0.528
934.500	548.185	79.995	19.991	99.905	20.097	3.626	0.517
936.000	548.937	79.998	19.992	99.907	20.098	3.563	0.510
937.500	549.734	79.996	19.991	99.912	20.101	3.328	0.542
939.000	550.561	79.997	19.991	99.912	20.097	3.593	0.533
940.500	551.308	79.996	19.992	99.898	20.095	3.753	0.514
942.000	552.085	79.997	19.991	99.901	20.097	3.624	0.525
943.500	552.838	79.996	19.990	99.890	20.095	3.748	0.494
945.000	553.631	79.996	19.992	99.883	20.097	3.644	0.535
946.500	554.384	79.996	19.990	99.900	20.102	3.235	0.500
948.000	555.158	79.996	19.990	99.889	20.098	3.537	0.546
949.500	555.962	79.994	19.991	99.893	20.098	3.561	0.542
951.000	556.734	79.995	19.992	99.890	20.097	3.603	0.514
952.500	557.489	79.993	19.991	99.882	20.099	3.486	0.512
954.000	558.202	79.994	19.992	99.897	20.096	3.684	0.478
955.500	558.973	79.994	19.992	99.892	20.098	3.565	0.499
957.000	559.775	79.994	19.992	99.880	20.101	3.335	0.532
958.500	560.517	79.992	19.992	99.905	20.098	3.550	0.511
960.000	561.319	79.993	19.991	99.895	20.102	3.250	0.532
961.500	562.091	79.994	19.992	99.881	20.094	3.809	0.482
963.000	562.879	79.994	19.992	99.888	20.095	3.783	0.525
964.501	563.594	79.990	19.992	99.883	20.099	3.472	0.471
966.000	564.361	79.995	19.993	99.895	20.100	3.391	0.508
967.500	565.099	79.995	19.991	99.914	20.100	3.383	0.494
969.000	565.905	79.992	19.992	99.914	20.100	3.396	0.546
970.500	566.693	79.993	19.992	99.914	20.099	3.432	0.508
972.000	567.445	79.996	19.991	99.914	20.099	3.473	0.510
973.500	568.158	79.993	19.991	99.923	20.102	3.230	0.489
975.000	568.931	79.993	19.992	99.903	20.100	3.380	0.503
976.500	569.653	79.993	19.992	99.887	20.101	3.315	0.471
978.000	570.480	79.994	19.992	99.898	20.100	3.396	0.535
979.500	571.229	79.994	19.991	99.902	20.097	3.588	0.493
981.000	571.983	79.992	19.993	99.914	20.098	3.524	0.499
982.500	572.737	79.993	19.991	99.913	20.097	3.618	0.490
984.000	573.561	79.992	19.991	99.911	20.092	3.961	0.553
985.500	574.333	79.991	19.992	99.915	20.095	3.749	0.535
987.000	575.080	79.993	19.991	99.915	20.095	3.756	0.492
988.500	575.880	79.992	19.994	99.915	20.095	3.744	0.526
990.000	576.641	79.994	19.993	99.904	20.097	3.614	0.526
991.500	577.413	79.994	19.993	99.888	20.098	3.548	0.501
993.000	578.174	79.994	19.992	99.890	20.099	3.483	0.519
994.500	578.927	79.995	19.991	99.888	20.096	3.683	0.509
996.000	579.689	79.995	19.992	99.886	20.092	3.984	0.504
997.500	580.463	79.996	19.992	99.901	20.093	3.901	0.525
999.000	581.194	79.994	19.991	99.907	20.091	4.067	0.500
1000.500	581.986	79.996	19.991	99.908	20.095	3.758	0.524
1002.001	582.730	79.995	19.990	99.911	20.095	3.728	0.474
1003.500	583.506	79.994	19.991	99.911	20.091	4.071	0.532
1005.000	584.268	79.994	19.991	99.909	20.093	3.903	0.511
1006.500	585.054	79.996	19.992	99.906	20.093	3.930	0.516
1008.000	585.817	79.995	19.990	99.899	20.090	4.119	0.493
1009.500	586.581	79.996	19.992	99.898	20.090	4.097	0.496
1011.000	587.369	79.995	19.992	99.908	20.093	3.911	0.501
1012.500	588.136	79.995	19.990	99.913	20.092	3.996	0.519
1014.000	588.898	79.996	19.991	99.912	20.086	4.398	0.496
1015.500	589.694	79.996	19.992	99.907	20.089	4.231	0.518
1017.000	590.391	79.997	19.992	99.904	20.093	3.879	0.449
1018.500	591.195	79.995	19.992	99.898	20.091	4.076	0.527
1020.000	591.955	79.996	19.992	99.885	20.095	3.766	0.526
1021.500	592.704	79.996	19.990	99.892	20.092	3.974	0.517
1023.000	593.482	79.998	19.992	99.900	20.090	4.144	0.514
1024.501	594.279	79.995	19.990	99.900	20.090	4.135	0.515
1026.001	595.033	79.996	19.990	99.897	20.090	4.158	0.504
1027.500	595.806	79.995	19.991	99.910	20.092	3.950	0.525
1029.000	596.574	79.996	19.991	99.912	20.091	4.090	0.530
1030.500	597.386	79.993	19.991	99.912	20.092	3.969	0.527
1032.000	598.156	79.993	19.990	99.911	20.092	3.999	0.526
1033.500	598.912	79.994	19.991	99.905	20.090	4.111	0.506
1035.000	599.692	79.993	19.990	99.889	20.092	3.946	0.534
1036.500	600.449	79.993	19.991	99.901	20.087	4.360	0.511
1038.000	601.219	79.992	19.991	99.912	20.091	4.064	0.553
1039.500	601.971	79.993	19.991	99.918	20.089	4.224	0.490
1041.000	602.761	79.992	19.990	99.898	20.088	4.279	0.534
1042.500	603.543	79.991	19.990	99.879	20.093	3.877	0.519
1044.000	604.252	79.992	19.991	99.885	20.086	4.413	0.470
1045.500	605.042	79.992	19.991	99.898	20.092	3.998	0.517
1047.000	605.818	79.992	19.991	99.889	20.094	3.866	0.513
1048.501	606.538	79.990	19.991	99.879	20.095	3.741	0.477
1050.000	607.298	79.991	19.992	99.876	20.095	3.784	0.507
1051.500	608.093	79.992	19.991	99.894	20.090	4.103	0.542
1053.000	608.852	79.994	19.993	99.912	20.097	3.593	0.503
1054.500	609.589	79.992	19.992	99.909	20.096	3.657	0.496
1056.000	610.409	79.991	19.991	99.897	20.092	3.980	0.534
1057.500	611.159	79.992	19.992	99.878	20.092	3.982	0.511
1059.000	611.922	79.992	19.992	99.891	20.088	4.272	0.501
1060.500	612.715	79.992	19.992	99.907	20.094	3.841	0.527
1062.000	613.521	79.992	19.992	99.897	20.092	3.964	0.559
1063.500	614.299	79.993	19.992	99.887	20.092	3.952	0.505
1065.000	615.100	79.992	19.992	99.904	20.092	3.980	0.534
1066.500	615.839	79.993	19.992	99.900	20.093	3.938	0.486
1068.000	616.615	79.993	19.993	99.893	20.093	3.891	0.538
1069.500	617.348	79.993	19.993	99.904	20.095	3.762	0.496
1071.000	618.106	79.991	19.992	99.908	20.093	3.899	0.520
1072.500	618.890	79.994	19.991	99.910	20.093	3.899	0.526
1074.000	619.674	79.993	19.993	99.910	20.096	3.721	0.522
1075.500	620.538	79.994	19.992	99.911	20.091	4.032	0.574
1077.000	621.267	79.995	19.992	99.910	20.094	3.838	0.505
1078.500	622.002	79.994	19.992	99.903	20.094	3.836	0.503
1080.000	622.783	79.994	19.992	99.903	20.090	4.157	0.510
1081.500	623.549	79.994	19.992	99.904	20.096	3.654	0.502
1083.000	624.336	79.994	19.993	99.901	20.094	3.820	0.528
1084.501	625.083	79.992	19.992	99.891	20.095	3.775	0.493
1086.000	625.858	79.992	19.993	99.886	20.091	4.066	0.538
1087.501	626.654	79.994	19.993	99.884	20.092	3.963	0.516
1089.000	627.428	79.994	19.992	99.882	20.097	3.607	0.515
1090.500	628.197	79.992	19.991	99.883	20.093	3.939	0.495
1092.000	628.957	79.993	19.991	99.884	20.092	4.000	0.518
1093.500	629.708	79.991	19.990	99.896	20.091	4.026	0.480
1095.000	630.486	79.994	19.992	99.886	20.093	3.887	0.527
1096.500	631.277	79.994	19.992	99.877	20.096	3.693	0.542
1098.000	632.026	79.995	19.991	99.882	20.095	3.792	0.500
1099.500	632.770	79.995	19.991	99.887	20.098	3.547	0.495
1101.000	633.566	79.996	19.990	99.881	20.094	3.826	0.525
1102.500	634.336	79.996	19.991	99.879	20.095	3.746	0.535
1104.001	635.061	79.996	19.989	99.885	20.094	3.821	0.483
1105.501	635.795	79.996	19.991	99.888	20.097	3.631	0.490
1107.002	636.607	79.996	19.990	99.898	20.096	3.721	0.567
1108.500	637.371	79.997	19.991	99.895	20.095	3.747	0.495
1110.001	638.186	79.995	19.991	99.898	20.095	3.735	0.535
1111.500	638.941	79.994	19.991	99.892	20.098	3.514	0.509
1113.000	639.679	79.993	19.991	99.904	20.097	3.595	0.509
1114.500	640.505	79.993	19.992	99.915	20.099	3.430	0.544
1116.000	641.291	79.995	19.991	99.916	20.096	3.675	0.514
1117.500	642.042	79.994	19.991	99.903	20.099	3.459	0.512
1119.000	642.789	79.995	19.990	99.889	20.097	3.601	0.484
1120.500	643.542	79.992	19.991	99.895	20.096	3.697	0.500
1122.000	644.356	79.992	19.991	99.882	20.095	3.727	0.549
1123.500	645.134	79.993	19.991	99.874	20.098	3.515	0.532
1125.000	645.946	79.993	19.991	99.896	20.097	3.614	0.536
1126.500	646.702	79.992	19.991	99.905	20.096	3.654	0.521
1128.000	647.486	79.994	19.991	99.882	20.097	3.616	0.540
1129.500	648.273	79.995	19.990	99.881	20.098	3.515	0.523
1131.001	649.089	79.993	19.991	99.899	20.100	3.384	0.540
1132.500	649.840	79.994	19.990	99.902	20.098	3.570	0.479
1134.000	650.632	79.994	19.991	99.906	20.100	3.417	0.536
1135.500	651.419	79.993	19.992	99.894	20.098	3.565	0.523
1137.000	652.175	79.994	19.993	99.893	20.098	3.555	0.532
1138.500	653.026	79.992	19.992	99.908	20.099	3.434	0.562
1140.000	653.772	79.994	19.992	99.899	20.098	3.537	0.502
1141.501	654.548	79.994	19.992	99.900	20.101	3.292	0.508
1143.000	655.365	79.991	19.992	99.907	20.096	3.652	0.490
1144.500	656.121	79.993	19.991	99.898	20.094	3.823	0.499
1146.000	656.886	79.993	19.991	99.888	20.100	3.403	0.523
1147.500	657.698	79.992	19.991	99.895	20.097	3.626	0.556
1149.000	658.472	79.993	19.992	99.893	20.098	3.505	0.520
1150.500	659.238	79.993	19.991	99.887	20.096	3.670	0.501
1152.000	659.975	79.994	19.991	99.888	20.098	3.545	0.502
1153.500	660.752	79.994	19.991	99.881	20.094	3.828	0.505
1155.000	661.547	79.994	19.991	99.879	20.100	3.401	0.511
1156.500	662.324	79.995	19.991	99.879	20.101	3.350	0.538
1158.000	663.004	79.993	19.993	99.892	20.102	3.269	0.467
1159.500	663.808	79.994	19.990	99.905	20.094	3.826	0.541
1161.000	664.570	79.994	19.992	99.895	20.098	3.555	0.537
1162.501	665.364	79.995	19.992	99.883	20.099	3.436	0.520
1164.000	666.084	79.994	19.992	99.889	20.103	3.147	0.475
1165.500	666.877	79.993	19.992	99.886	20.099	3.494	0.535
1167.000	667.638	79.994	19.991	99.880	20.099	3.484	0.505
1168.501	668.433	79.995	19.992	99.875	20.098	3.561	0.495
1170.000	669.177	79.992	19.992	99.887	20.100	3.391	0.508
1171.500	669.939	79.995	19.992	99.892	20.100	3.391	0.513
1173.000	670.668	79.993	19.992	99.883	20.098	3.504	0.510
1174.500	671.486	79.992	19.993	99.897	20.104	3.076	0.547
1176.000	672.304	79.994	19.992	99.898	20.102	3.276	0.541
1177.500	673.027	79.996	19.992	99.895	20.102	3.276	0.505
1179.000	673.790	79.996	19.992	99.893	20.099	3.428	0.509
1180.500	674.534	79.992	19.992	99.878	20.100	3.393	0.507
1182.000	675.323	79.993	19.990	99.875	20.098	3.551	0.503
1183.501	676.085	79.995	19.991	99.876	20.103	3.186	0.511
1185.001	676.837	79.996	19.991	99.890	20.103	3.148	0.494
1186.500	677.613	79.994	19.990	99.901	20.104	3.108	0.519
1188.000	678.366	79.996	19.991	99.907	20.100	3.360	0.487
1189.500	679.144	79.995	19.991	99.899	20.102	3.271	0.522
1191.000	679.966	79.995	19.991	99.889	20.101	3.320	0.553
1192.500	680.694	79.996	19.991	99.887	20.103	3.197	0.481
1194.000	681.445	79.995	19.991	99.876	20.101	3.290	0.479
1195.500	682.192	79.993	19.992	99.878	20.104	3.100	0.509
1197.000	682.973	79.994	19.992	99.878	20.103	3.168	0.532
1198.500	683.789	79.993	19.991	99.873	20.099	3.479	0.530
1200.001	684.509	79.992	19.992	99.875	20.099	3.482	0.445
1201.500	685.265	79.992	19.992	99.875	20.099	3.480	0.491
1203.000	686.003	79.994	19.991	99.872	20.101	3.300	0.504
1204.500	686.822	79.993	19.992	99.889	20.099	3.470	0.567
1206.000	687.539	79.996	19.992	99.894	20.098	3.541	0.478
1207.500	688.327	79.994	19.991	99.875	20.101	3.339	0.532
1209.000	689.071	79.994	19.991	99.867	20.098	3.508	0.503
1210.500	689.820	79.994	19.991	99.867	20.099	3.431	0.472
1212.000	690.615	79.994	19.992	99.874	20.103	3.183	0.511
1213.500	691.368	79.995	19.991	99.877	20.103	3.136	0.495
1215.001	692.119	79.995	19.991	99.892	20.102	3.211	0.498
1216.500	692.898	79.993	19.990	99.896	20.105	3.041	0.523
1217.500	693.379	79.994	19.992	99.894	20.102	3.211	0.484