File: 01_Data/Luan_Panel/Cone/Luan_Panel_Cone_HF25Scan_220915_R1.csv
Names,Time,Stack TC,Smoke TC,Exh Press,Smoke Comp,Smoke Meas,CO Meter,CO2 Meter,O2 Meter,Sample Mass,Ext Coeff,Start Test,Flame Verif
Chan Gain,,500,500,1,1,1,1,1,1,1,1,1.0,1.0
Offset,,0,0,0.146632,0,0,0,0,0,0,0,0.0,0.0
Gain,,1,1,25.011,13.0826,14.7555,1,1,1,1.00088,1.03743,1.0,1.0
Units,sec,C,C,Pa,%,%,%,%,%,g,/m,,
Baseline,,38.6655,39.4627,147.358,100.586,104.901,0.000557076,0.0436442,20.9805,-449.294,-0.382249,,
4,0.75,37.3384,38.4265,146.158,99.8509,104.466,0.000751503,0.0487481,20.9783,89.689,-0.411197,0.0,0.0
8,1.75,36.5507,38.0341,153.731,99.8393,104.001,0.000722313,0.0485266,20.9789,89.5288,-0.3716,0.0,0.0
12,2.75,37.0473,37.8178,155.749,99.8146,103.997,0.000690584,0.0480796,20.9793,89.5689,-0.373542,0.0,0.0
16,3.75,36.732,37.4936,149.975,99.7942,104.055,0.000650558,0.0476104,20.9796,89.5789,-0.38052,0.0,0.0
20,4.75,37.1202,37.8907,143.344,99.7726,103.665,0.000587711,0.047202,20.9798,89.5188,-0.348317,0.0,0.0
24,5.75,37.2162,37.8271,145.28,99.7387,104.232,0.000517234,0.0467952,20.9803,89.5188,-0.400967,0.0,0.0
28,6.75,36.7063,38.0027,148.94,99.7056,104.461,0.000448041,0.0463721,20.981,89.4988,-0.423981,0.0,0.0
32,7.75,37.1373,38.0749,145.41,99.68,104.121,0.000394024,0.0459875,20.9815,89.4688,-0.396686,0.0,0.0
36,8.75,37.2519,37.8871,150.638,99.6668,104.033,0.000353683,0.0456096,20.9818,89.4488,-0.390172,0.0,0.0
40,9.75,36.7821,37.7701,142.675,99.6333,104.155,0.000322508,0.0452612,20.982,89.4388,-0.403864,0.0,0.0
44,10.75,37.1272,38.2197,146.808,99.6165,103.769,0.000298569,0.044882,20.9826,89.4087,-0.371615,0.0,0.0
48,11.75,36.93,37.8783,149.739,99.5942,103.991,0.000294127,0.0445327,20.9833,89.4388,-0.393106,0.0,0.0
52,12.75,37.2299,37.6631,146.914,99.577,104.077,0.000315283,0.0442758,20.9838,89.4087,-0.402237,0.0,0.0
56,13.75,37.0518,37.6917,149.143,99.5471,103.542,0.000346002,0.0440775,20.9841,89.4488,-0.358078,0.0,0.0
60,14.75,37.127,38.0053,146.151,99.5351,103.557,0.000408232,0.0439296,20.9847,89.4988,-0.360519,0.0,0.0
64,15.75,37.2406,37.8089,146.997,99.5223,103.451,0.000466699,0.0438325,20.9852,89.4888,-0.352303,0.0,0.0
68,16.75,36.8476,38.191,145.657,99.5087,103.653,0.000493504,0.043755,20.9854,89.4087,-0.371312,0.0,0.0
72,17.75,37.4323,38.2451,147.489,99.4999,103.6,0.000517078,0.0436929,20.9856,89.4288,-0.36749,0.0,0.0
76,18.75,37.7867,38.1164,151.458,99.4888,103.599,0.000530328,0.0436444,20.9858,89.4388,-0.368433,0.0,0.0
80,19.75,37.5627,37.9335,148.879,99.4688,103.389,0.000536098,0.0436254,20.9859,89.3987,-0.351808,0.0,0.0
84,20.75,37.2747,37.951,147.956,99.47,103.215,0.000531306,0.0436079,20.9859,89.4388,-0.336307,0.0,0.0
88,21.75,36.8666,38.3558,151.809,99.462,103.948,0.000512295,0.0436968,20.986,89.3987,-0.401484,0.0,0.0
92,22.75,37.2971,38.1146,147.297,99.4381,103.331,0.000480254,0.0438145,20.986,89.4187,-0.349506,0.0,0.0
96,23.75,37.2861,38.2904,149.216,99.4373,103.567,0.00044981,0.0439076,20.986,89.3887,-0.370297,0.0,0.0
100,24.75,37.5156,37.9167,143.93,99.4369,103.341,0.000424604,0.0440084,20.9856,89.3987,-0.350449,0.0,0.0
104,25.75,37.4976,37.6678,147.98,99.4341,103.221,0.000410463,0.0441445,20.9851,89.3887,-0.34015,0.0,0.0
108,26.75,37.1042,38.3501,148.932,99.4161,103.516,0.000400869,0.0442775,20.9846,89.3987,-0.367801,0.0,0.0
112,27.75,37.2663,37.8224,145.149,99.4097,103.341,0.000393769,0.0444383,20.9843,89.3387,-0.352934,0.0,0.0
116,28.75,36.9777,38.1843,145.571,99.4017,103.283,0.000372944,0.0446198,20.9841,89.3487,-0.348588,0.0,0.0
120,29.75,37.7259,38.0587,145.649,99.3945,103.222,0.000328909,0.0449132,20.984,89.3587,-0.343887,0.0,0.0
124,30.75,37.6877,38.107,147.568,99.3918,103.222,0.000275626,0.045156,20.9839,89.3087,-0.344104,0.0,0.0
128,31.75,37.4608,37.6417,149.75,99.3937,103.695,0.000198334,0.0453906,20.9838,89.3287,-0.38555,0.0,0.0
132,32.75,37.5661,38.2938,147.684,99.4013,103.38,0.000129948,0.0455446,20.9838,89.3287,-0.357111,0.0,0.0
136,33.75,37.4115,38.2107,144.674,99.4081,103.38,9.90082e-05,0.0456654,20.9838,89.2786,-0.35653,0.0,0.0
140,34.75,37.2113,38.4952,148.753,99.4029,103.098,0.000112066,0.0457916,20.9837,89.2486,-0.332117,0.0,0.0
144,35.75,37.0429,38.2099,149.18,99.4025,103.07,0.000161712,0.0459637,20.9837,89.2486,-0.329728,0.0,0.0
148,36.75,37.0994,38.2072,145.863,99.4217,103.188,0.000222503,0.0461216,20.9837,89.2586,-0.338345,0.0,0.0
152,37.75,37.7049,38.147,144.839,99.4261,103.152,0.000309485,0.0462398,20.9829,89.2786,-0.334766,0.0,0.0
156,38.75,37.7319,38.3608,146.586,99.4253,103.012,0.000387501,0.046353,20.9824,89.2286,-0.322475,0.0,0.0
160,39.75,37.5123,37.9545,147.834,99.4301,103.072,0.000432102,0.0464669,20.9821,89.1986,-0.327327,0.0,0.0
164,40.75,37.6914,38.1654,146.708,99.4389,102.934,0.000437226,0.0466078,20.9818,89.2086,-0.314387,0.0,0.0
168,41.75,37.5825,38.5183,146.14,99.4512,102.235,0.000413915,0.0467307,20.9816,89.1885,-0.251218,0.0,0.0
172,42.75,37.9107,38.4333,144.19,99.4532,102.572,0.000387029,0.0467756,20.9812,89.1585,-0.280968,0.0,0.0
176,43.75,37.6238,38.5732,148.861,99.47,102.65,0.000367062,0.0468553,20.981,89.1485,-0.286343,0.0,0.0
180,44.75,38.0205,38.2787,145.954,99.4648,102.687,0.00035553,0.0469309,20.9809,89.1185,-0.290091,0.0,0.0
184,45.75,37.788,38.5187,143.014,99.468,102.5,0.000367885,0.0469554,20.9801,89.0885,-0.273222,0.0,0.0
188,46.75,37.668,38.5445,146.005,99.488,102.444,0.000387059,0.0470308,20.9795,89.0985,-0.266477,0.0,0.0
192,47.75,37.997,38.0684,149.026,99.4832,102.996,0.000430643,0.0471797,20.9791,89.0584,-0.315786,0.0,0.0
196,48.75,37.923,38.2769,146.099,99.4956,102.647,0.000507989,0.0473594,20.9788,89.0284,-0.283806,0.0,0.0
200,49.75,38.1869,38.6365,152.288,99.5095,102.106,0.000623052,0.0474984,20.9792,88.9984,-0.234375,0.0,0.0
204,50.75,37.8121,38.3726,146.062,99.5275,102.439,0.000740528,0.0475686,20.9797,88.9884,-0.262423,0.0,0.0
208,51.75,37.7239,37.9746,147.402,99.5379,102.126,0.000828896,0.0476649,20.98,88.9283,-0.233588,0.0,0.0
212,52.75,37.4541,38.0862,147.147,99.5479,102.622,0.000915751,0.0477784,20.9802,88.8883,-0.276748,0.0,0.0
216,53.75,37.7521,38.1228,146.421,99.5546,102.397,0.000968293,0.0478885,20.9801,88.8683,-0.256179,0.0,0.0
220,54.75,37.7565,38.4492,147.241,99.5606,101.858,0.000990512,0.0479805,20.9795,88.8482,-0.207642,0.0,0.0
224,55.75,38.1478,38.0931,154.423,99.5858,102.296,0.000984295,0.0481574,20.979,88.8583,-0.244325,0.0,0.0
228,56.75,38.2047,38.7985,147.153,99.595,102.155,0.000952769,0.0483218,20.9788,88.8382,-0.230938,0.0,0.0
232,57.75,37.7792,38.8773,146.689,99.6121,102.447,0.000918974,0.0483959,20.9786,88.8182,-0.255367,0.0,0.0
236,58.75,38.2522,39.0129,147.16,99.6301,101.836,0.000894919,0.0485001,20.9785,88.7682,-0.199323,0.0,0.0
240,59.75,37.9315,38.9444,149.426,99.6513,101.689,0.000943875,0.0486281,20.9784,88.7882,-0.184222,0.0,0.0
244,60.75,37.5069,38.3546,143.661,99.6912,101.88,0.00103194,0.0487478,20.9793,88.7782,-0.197647,0.0,0.0
248,61.75,38.436,38.5058,146.227,99.688,101.927,0.00110254,0.0489269,20.9799,88.7181,-0.202121,0.0,0.0
252,62.75,38.5781,38.7406,144.729,99.7167,101.583,0.00113857,0.0491103,20.9803,88.7181,-0.16877,0.0,0.0
256,63.75,38.135,38.8412,145.778,99.7403,102.035,0.00113876,0.0493912,20.9806,88.6881,-0.206952,0.0,0.0
260,64.75,38.168,39.1003,145.18,99.7674,101.69,0.00112342,0.0495682,20.9807,88.6481,-0.173699,0.0,0.0
264,65.75,38.0609,39.2013,148.572,99.8078,101.332,0.00110232,0.0496664,20.9809,88.578,-0.137969,0.0,0.0
268,66.75,38.6018,39.0375,142.916,99.8154,101.533,0.00109023,0.0498064,20.9809,88.548,-0.155256,0.0,0.0
272,67.75,38.1434,38.6688,147.772,99.8433,101.147,0.00110028,0.0499486,20.9805,88.4879,-0.118053,0.0,0.0
276,68.75,38.0585,38.6736,142.842,99.8764,100.977,0.00113961,0.0501608,20.9799,88.4679,-0.0997057,0.0,0.0
280,69.75,38.1809,38.8506,145.068,99.8984,101.319,0.00120099,0.0503321,20.9795,88.4179,-0.128537,0.0,0.0
284,70.75,38.376,38.7162,149.38,99.9307,101.657,0.00127511,0.0504948,20.9793,88.3878,-0.155834,0.0,0.0
288,71.75,38.5191,38.5905,145.085,99.9471,100.934,0.00135538,0.0506771,20.9791,88.3478,-0.0894542,0.0,0.0
292,72.75,38.4614,38.7195,146.388,99.9771,100.177,0.00142178,0.0508974,20.979,88.3378,-0.0181414,0.0,0.0
296,73.75,38.2182,38.9046,141.321,100,100.529,0.0014866,0.0510639,20.9789,88.2777,-0.0479666,0.0,0.0
300,74.75,38.065,38.7576,154.056,100.037,101.691,0.00153862,0.0512266,20.9789,88.2077,-0.149308,0.0,0.0
304,75.75,38.2659,39.2589,145.939,100.051,101.303,0.00160394,0.0513731,20.9788,88.2177,-0.113234,0.0,0.0
308,76.75,38.2571,39.3563,143.164,100.08,100.825,0.00168694,0.0514521,20.9788,88.0976,-0.0675263,0.0,0.0
312,77.75,38.6657,38.8858,146.503,100.104,100.839,0.00178379,0.0515788,20.9782,88.0876,-0.0666033,0.0,0.0
316,78.75,38.7506,38.7126,147.033,100.132,100.483,0.00188529,0.0523052,20.9745,88.0475,-0.03183,0.0,0.0
320,79.75,37.8536,39.2082,146.814,100.142,100.776,0.00197657,0.057685,20.968,87.9975,-0.0574693,0.0,0.0
324,80.75,38.48,38.8764,144.671,100.165,104.569,0.00207004,0.0709259,20.9558,87.9775,-0.39158,0.0,1.0
328,81.75,38.6293,38.9724,137.73,100.197,104.921,0.00214236,0.0908196,20.9348,87.8774,-0.419239,0.0,1.0
332,82.75,38.5284,39.1236,134.834,100.206,103.946,0.00224622,0.117662,20.9065,87.8073,-0.33341,0.0,1.0
336,83.75,39.1096,39.4647,134.434,100.225,104.132,0.00237188,0.157114,20.8632,87.6071,-0.348049,0.0,1.0
340,84.75,40.001,39.8554,129.827,100.239,103.742,0.00249572,0.188326,20.8129,87.5671,-0.312564,0.0,1.0
344,85.75,39.737,38.7228,131.401,100.262,103.602,0.00257198,0.221799,20.7766,87.427,-0.298245,0.0,1.0
348,86.75,40.3552,39.3553,128.791,100.275,102.776,0.00265526,0.254222,20.7336,87.3069,-0.224172,0.0,0.0
352,87.75,40.9518,39.8388,130.122,100.293,104.139,0.00273905,0.282157,20.6997,87.1768,-0.342481,0.0,0.0
356,88.75,41.8264,40.3767,134.554,100.311,104.15,0.0028344,0.299792,20.6729,87.0266,-0.341835,0.0,0.0
360,89.75,42.4266,41.132,130.461,100.331,103.641,0.00293737,0.318398,20.6538,86.9065,-0.295379,0.0,0.0
364,90.75,43.4494,41.6525,130.179,100.346,103.941,0.00302065,0.331755,20.6411,86.7964,-0.320258,0.0,0.0
368,91.75,44.3125,42.2269,133.001,100.367,103.924,0.00305957,0.340534,20.6328,86.6863,-0.316877,0.0,0.0
372,92.75,44.6092,42.8928,135.878,100.394,104.039,0.0030649,0.34516,20.6286,86.5662,-0.324581,0.0,0.0
376,93.75,45.3839,43.3546,132.101,100.398,103.794,0.00305929,0.346507,20.6271,86.4762,-0.302731,0.0,0.0
380,94.75,45.9825,43.8729,138.262,100.421,103.515,0.00302297,0.345714,20.6283,86.3861,-0.27612,0.0,0.0
384,95.75,46.9014,44.3698,136.194,100.441,103.58,0.00297369,0.343164,20.6334,86.256,-0.280083,0.0,0.0
388,96.75,47.1038,45.4607,135.56,100.464,104.406,0.00288531,0.337317,20.6399,86.1659,-0.350219,0.0,0.0
392,97.75,47.6975,44.9763,133.989,100.474,104.218,0.00277805,0.330683,20.6493,86.0558,-0.333009,0.0,0.0
396,98.75,47.1595,45.7184,131.404,100.493,104.286,0.00266515,0.32353,20.6598,85.9757,-0.33713,0.0,0.0
400,99.75,48.6555,46.4819,137.341,100.496,104.703,0.00256871,0.31729,20.6681,85.8556,-0.373197,0.0,0.0
404,100.75,48.8358,46.3284,134.052,100.519,105.334,0.00250914,0.312004,20.674,85.7455,-0.425805,0.0,0.0
408,101.75,48.5761,46.7593,135.825,100.522,104.393,0.00248171,0.308014,20.6787,85.6154,-0.343913,0.0,0.0
412,102.75,49.4101,47.536,132.175,100.552,104.937,0.00247443,0.304883,20.6823,85.4953,-0.388427,0.0,0.0
416,103.75,48.6593,47.6596,138.592,100.565,104.885,0.00247461,0.301528,20.6854,85.4252,-0.382776,0.0,0.0
420,104.75,49.8932,47.9794,131.31,100.57,105.109,0.00247949,0.298281,20.6888,85.3051,-0.40174,0.0,0.0
424,105.75,49.8118,48.2887,134.719,100.58,104.885,0.00248622,0.295144,20.6922,85.215,-0.381404,0.0,0.0
428,106.75,49.8394,48.8918,132.538,100.588,104.44,0.00249653,0.29219,20.6947,85.135,-0.341958,0.0,0.0
432,107.75,50.5785,48.6014,138.422,100.605,104.617,0.0025073,0.289995,20.6969,85.0349,-0.355848,0.0,0.0
436,108.75,50.0748,48.9248,133.792,100.603,104.45,0.0025278,0.288435,20.6983,84.9548,-0.341526,0.0,0.0
440,109.75,50.4345,49.1692,134.642,100.615,104.859,0.00254797,0.287513,20.6993,84.8347,-0.375995,0.0,0.0
444,110.75,50.5798,49.6405,136.958,100.631,104.7,0.0025612,0.286704,20.6999,84.7346,-0.360744,0.0,0.0
448,111.75,50.4637,49.2193,137.564,100.614,105.095,0.00256764,0.285612,20.7016,84.6145,-0.396525,0.0,0.0
452,112.75,51.2173,50.388,138.952,100.619,104.586,0.00255423,0.284045,20.7039,84.4944,-0.351848,0.0,0.0
456,113.75,51.7468,50.315,139.423,100.617,104.685,0.00252305,0.281446,20.7065,84.4243,-0.360681,0.0,0.0
460,114.75,51.2634,50.8661,136.282,100.612,104.889,0.00250106,0.27818,20.7094,84.3142,-0.37879,0.0,0.0
464,115.75,51.5501,50.7871,135.981,100.615,105.018,0.00250231,0.274928,20.7121,84.2342,-0.389818,0.0,0.0
468,116.75,51.4329,50.7988,137.298,100.597,105.64,0.00252218,0.27215,20.7136,84.1241,-0.445134,0.0,0.0
472,117.75,51.7913,51.0089,138.119,100.598,104.64,0.00253521,0.270057,20.7145,84.044,-0.35846,0.0,0.0
476,118.75,51.7537,51.3236,138.505,100.58,105.607,0.00251019,0.269034,20.7136,83.984,-0.443855,0.0,0.0
480,119.75,51.8828,51.5202,138.217,100.569,105.499,0.00245351,0.269065,20.7123,83.8739,-0.435551,0.0,0.0
484,120.75,51.8968,51.6975,134.716,100.553,104.164,0.00237607,0.269503,20.7113,83.7838,-0.321131,0.0,0.0
488,121.75,52.3451,51.5422,135.912,100.555,105.003,0.00231647,0.270002,20.7107,83.6837,-0.393948,0.0,0.0
492,122.75,52.3939,51.5011,136.732,100.537,105.117,0.00226882,0.270544,20.7103,83.6036,-0.405407,0.0,0.0
496,123.75,52.6359,52.1328,135.833,100.51,105.251,0.00222145,0.271018,20.71,83.5135,-0.41936,0.0,0.0
500,124.75,52.5109,52.4825,139.35,100.496,105.677,0.00217685,0.271369,20.7098,83.4235,-0.457384,0.0,0.0
504,125.75,52.8252,52.2892,131.37,100.473,105.401,0.00213918,0.27106,20.7097,83.2833,-0.43583,0.0,0.0
508,126.75,52.4513,53.0201,133.649,100.451,105.129,0.00212925,0.270148,20.7115,83.2233,-0.414233,0.0,0.0
512,127.75,52.9574,52.8437,131.47,100.433,105.389,0.00214332,0.269172,20.7129,83.1232,-0.438396,0.0,0.0
516,128.75,53.0947,53.1127,133.658,100.409,105.385,0.00217401,0.268051,20.7144,83.0331,-0.440217,0.0,0.0
520,129.75,53.696,53.1829,141.185,100.393,105.454,0.00224647,0.266523,20.7151,82.933,-0.447576,0.0,0.0
524,130.75,53.1485,53.1111,138.039,100.373,105.218,0.00231862,0.265334,20.7169,82.843,-0.428998,0.0,0.0
528,131.75,53.389,53.2259,134.098,100.346,105.026,0.00236372,0.26342,20.7202,82.7229,-0.414816,0.0,0.0
532,132.75,53.1962,53.3309,135.762,100.341,104.721,0.0023687,0.261703,20.7229,82.6628,-0.388796,0.0,0.0
536,133.75,53.3163,53.8951,133.705,100.316,105.175,0.00233619,0.260544,20.7247,82.5727,-0.430475,0.0,0.0
540,134.75,53.5366,54.1453,134.916,100.288,105.141,0.0022858,0.259968,20.7259,82.4626,-0.430012,0.0,0.0
544,135.75,53.4523,53.9563,141.475,100.281,104.714,0.00224651,0.259663,20.7266,82.4026,-0.39368,0.0,0.0
548,136.75,53.8285,53.682,131.588,100.256,104.682,0.0022342,0.259326,20.727,82.3125,-0.393148,0.0,0.0
552,137.75,53.7537,54.1948,135.114,100.243,104.604,0.00226324,0.259003,20.7271,82.2124,-0.387566,0.0,0.0
556,138.75,54.2898,54.5663,133.436,100.243,105.228,0.00235446,0.258679,20.7272,82.1223,-0.441626,0.0,0.0
560,139.75,53.9212,54.4654,138.539,100.217,105.503,0.00246742,0.258708,20.7272,82.0523,-0.467749,0.0,0.0
564,140.75,54.0959,54.619,139.985,100.199,104.667,0.00253124,0.259147,20.7265,81.9922,-0.397004,0.0,0.0
568,141.75,53.8157,54.8755,138.744,100.183,105.431,0.00255907,0.260533,20.7244,81.8821,-0.464648,0.0,0.0
572,142.75,54.1302,54.9387,131.372,100.172,105.154,0.00249899,0.263006,20.7217,81.782,-0.441731,0.0,0.0
576,143.75,54.0331,55.0537,138.374,100.151,104.568,0.00241933,0.266275,20.7184,81.6919,-0.392736,0.0,0.0
580,144.75,54.3246,54.5921,132.97,100.134,104.79,0.00234248,0.270005,20.7147,81.5718,-0.413671,0.0,0.0
584,145.75,54.3816,55.3348,135.033,100.115,105.364,0.00227445,0.273542,20.7105,81.4918,-0.4651,0.0,0.0
588,146.75,54.6751,55.2995,132.009,100.102,105.095,0.00221628,0.277015,20.7059,81.4017,-0.442937,0.0,0.0
592,147.75,54.4592,55.2943,138.103,100.089,104.934,0.00215639,0.280253,20.7022,81.2816,-0.430241,0.0,0.0
596,148.75,54.9604,55.5011,135.478,100.082,105.5,0.00210929,0.283278,20.6997,81.2115,-0.4797,0.0,0.0
600,149.75,54.7595,55.4123,133.969,100.06,104.631,0.00207335,0.286736,20.6949,81.1014,-0.40657,0.0,0.0
604,150.75,54.8483,55.8489,136.549,100.057,105.063,0.00205294,0.289762,20.6918,80.9813,-0.44427,0.0,0.0
608,151.75,55.3064,56.2319,131.856,100.051,105.554,0.00205436,0.293161,20.6894,80.8612,-0.487229,0.0,0.0
612,152.75,55.4818,56.2461,131.872,100.041,105.144,0.00207838,0.296861,20.6861,80.7811,-0.452777,0.0,0.0
616,153.75,55.7164,56.2955,133.225,100.055,104.688,0.00211302,0.300173,20.6803,80.651,-0.411904,0.0,0.0
620,154.75,55.6209,56.4836,135.603,100.03,105.297,0.00215485,0.304416,20.6744,80.581,-0.467036,0.0,0.0
624,155.75,55.7396,56.8364,135.713,100.019,104.455,0.0021913,0.308369,20.6694,80.4308,-0.394949,0.0,0.0
628,156.75,55.9246,57.0689,132.944,100.017,104.411,0.00225994,0.311783,20.6649,80.3107,-0.391209,0.0,0.0
632,157.75,56.13,56.9117,132.75,100.008,104.661,0.00233193,0.314551,20.6612,80.1906,-0.413838,0.0,0.0
636,158.75,55.9522,56.8698,138.298,99.993,105.061,0.00238812,0.317085,20.6582,80.0605,-0.449885,0.0,0.0
640,159.75,55.9804,57.2424,134.111,99.9998,104.333,0.00241793,0.319422,20.6542,79.9404,-0.386055,0.0,0.0
644,160.75,56.2483,57.3416,131.644,99.9914,104.808,0.00242677,0.322351,20.6497,79.8303,-0.428162,0.0,0.0
648,161.75,56.2739,57.5265,130.35,99.9858,104.651,0.00241081,0.324894,20.6464,79.7202,-0.415014,0.0,0.0
652,162.75,57.478,58.5507,133.315,99.985,104.448,0.00236548,0.326623,20.6442,79.6201,-0.39737,0.0,0.0
656,163.75,56.9536,58.4304,133.733,99.9818,104.87,0.00230653,0.327194,20.6428,79.53,-0.43435,0.0,0.0
660,164.75,56.7339,58.0054,136.703,99.9894,103.994,0.00225842,0.326961,20.6426,79.45,-0.357337,0.0,0.0
664,165.75,57.4211,58.5251,132.554,99.9898,104.323,0.00223932,0.326396,20.6425,79.3299,-0.38606,0.0,0.0
668,166.75,57.4801,58.593,135.009,99.9894,104.696,0.00224436,0.325863,20.6432,79.2498,-0.418602,0.0,0.0
672,167.75,57.144,58.5566,132.759,99.985,103.992,0.0022667,0.325307,20.6437,79.1397,-0.357618,0.0,0.0
676,168.75,57.5785,58.9623,132.213,99.987,104.303,0.00228928,0.32455,20.6438,79.0296,-0.384586,0.0,0.0
680,169.75,57.745,59.1806,134.679,99.9834,104.422,0.00230533,0.323358,20.6442,78.9395,-0.395318,0.0,0.0
684,170.75,57.7522,59.2726,137.033,99.9942,104.288,0.0023181,0.321471,20.6461,78.7794,-0.382596,0.0,0.0
688,171.75,57.9278,59.5284,138.774,99.9998,105.326,0.00232812,0.319471,20.6489,78.7494,-0.472251,0.0,0.0
692,172.75,57.8007,59.3881,139.37,99.999,104.773,0.00233258,0.317515,20.6519,78.6593,-0.424382,0.0,0.0
696,173.75,57.9783,59.4955,136.476,100.006,104.687,0.00233251,0.315381,20.6545,78.5792,-0.416294,0.0,0.0
700,174.75,57.869,59.37,139.65,99.9946,104.485,0.00230955,0.312833,20.6582,78.4391,-0.399715,0.0,0.0
704,175.75,58.259,60.1239,135.61,99.9974,104.843,0.00226544,0.309929,20.6621,78.349,-0.430627,0.0,0.0
708,176.75,58.2297,59.7526,135.655,99.9942,104.461,0.0022167,0.307666,20.6653,78.2589,-0.397712,0.0,0.0
712,177.75,58.0833,59.8384,133.039,100.005,104.358,0.00214565,0.306013,20.6674,78.1488,-0.387706,0.0,0.0
716,178.75,58.09,60.3344,136.165,99.9978,104.259,0.0020894,0.305074,20.6691,78.0387,-0.379794,0.0,0.0
720,179.75,58.2127,59.9229,134.831,100.022,104.414,0.00206905,0.304283,20.6706,77.9286,-0.391048,0.0,0.0
724,180.75,58.0591,59.9571,140.792,100.025,104.599,0.0020731,0.303653,20.6719,77.8586,-0.406986,0.0,0.0
728,181.75,57.9663,60.1143,136.068,100.036,104.667,0.00209308,0.303241,20.6729,77.7385,-0.411804,0.0,0.0
732,182.75,57.9511,60.0827,136.27,100.023,104.495,0.00209949,0.303226,20.6735,77.6784,-0.398073,0.0,0.0
736,183.75,58.1564,60.1805,136.97,100.038,104.276,0.00208766,0.303408,20.6738,77.5783,-0.377539,0.0,0.0
740,184.75,58.0256,60.2925,135.349,100.043,104.489,0.0020484,0.303842,20.6741,77.4782,-0.395636,0.0,0.0
744,185.75,58.0385,60.6205,131.999,100.046,104.152,0.00198794,0.304478,20.674,77.4082,-0.366075,0.0,0.0
748,186.75,58.133,60.2316,135.797,100.057,104.47,0.00191998,0.305349,20.6734,77.3781,-0.39279,0.0,0.0
752,187.75,58.2427,60.5433,132.144,100.062,103.987,0.00186991,0.306794,20.6722,77.2781,-0.350059,0.0,0.0
756,188.75,58.1591,60.3782,132.66,100.072,104.005,0.00185779,0.308501,20.6699,77.1579,-0.350839,0.0,0.0
760,189.75,58.3523,60.6943,135.788,100.087,104.221,0.00187357,0.31084,20.6665,77.0579,-0.368314,0.0,0.0
764,190.75,58.5265,60.7062,131.564,100.091,104.312,0.00192856,0.314261,20.6625,76.9778,-0.375853,0.0,0.0
768,191.75,58.5897,60.7842,132.966,100.096,103.961,0.00199985,0.31852,20.6575,76.8677,-0.344799,0.0,0.0
772,192.75,58.4397,60.6493,133.672,100.105,103.797,0.00206843,0.322915,20.6523,76.7676,-0.329529,0.0,0.0
776,193.75,58.6846,60.7777,134.29,100.119,103.396,0.00212342,0.326751,20.6471,76.6875,-0.29309,0.0,0.0
780,194.75,58.3681,61.2317,132.729,100.121,103.073,0.00214963,0.33108,20.6411,76.5574,-0.264451,0.0,0.0
784,195.75,59.1081,61.15,129.78,100.13,103.414,0.00215233,0.335409,20.6349,76.4673,-0.293623,0.0,0.0
788,196.75,59.2093,61.3877,135.131,100.141,102.359,0.00214124,0.340222,20.631,76.3673,-0.199363,0.0,0.0
792,197.75,58.9007,61.5626,131.477,100.145,102.685,0.00213098,0.344847,20.6259,76.2471,-0.227935,0.0,0.0
796,198.75,59.6697,61.6869,134.266,100.158,103.096,0.00214882,0.349627,20.6208,76.1471,-0.263136,0.0,0.0
800,199.75,59.1216,62.0814,130.65,100.165,102.383,0.00218958,0.352386,20.6165,76.047,-0.199231,0.0,0.0
804,200.75,59.774,61.8534,132.398,100.169,102.362,0.00224986,0.356701,20.6115,75.9369,-0.197103,0.0,0.0
808,201.75,59.6503,62.2867,133.678,100.181,102.969,0.00231762,0.360257,20.6078,75.8368,-0.249785,0.0,0.0
812,202.75,59.7855,62.3757,134.579,100.183,102.381,0.00241157,0.36261,20.6059,75.7267,-0.197515,0.0,0.0
816,203.75,60.3527,61.8803,132.792,100.19,102.616,0.00255668,0.363452,20.6045,75.5966,-0.217728,0.0,0.0
820,204.75,60.3077,62.551,132.971,100.212,102.174,0.00275589,0.363013,20.6048,75.5265,-0.176438,0.0,0.0
824,205.75,60.4784,62.7213,134.894,100.208,101.311,0.00306517,0.36174,20.6058,75.4164,-0.0996656,0.0,0.0
828,206.75,60.8767,62.6055,130.635,100.219,101.664,0.00339638,0.359179,20.6088,75.2963,-0.13023,0.0,0.0
832,207.75,60.2997,62.825,133.595,100.233,103.009,0.00368889,0.355518,20.6123,75.2162,-0.248533,0.0,0.0
836,208.75,60.5091,62.9672,135.897,100.227,103.014,0.00395312,0.350671,20.6178,75.1362,-0.249594,0.0,0.0
840,209.75,60.7333,63.0144,137.93,100.24,103.464,0.00417849,0.344786,20.6266,75.0461,-0.288047,0.0,0.0
844,210.75,60.5245,62.8773,134.207,100.253,103.902,0.00439653,0.336329,20.6351,74.966,-0.32538,0.0,0.0
848,211.75,60.4693,63.0655,135.855,100.257,103.621,0.00463782,0.324822,20.6447,74.906,-0.300338,0.0,0.0
852,212.75,60.0726,63.2617,136.274,100.271,103.118,0.00489283,0.311378,20.6578,74.8459,-0.254827,0.0,0.0
856,213.75,60.1669,63.0115,138.803,100.283,102.618,0.00517486,0.29735,20.6732,74.8059,-0.209446,0.0,0.0
860,214.75,59.5377,63.2445,140.86,100.285,104.017,0.00545456,0.285895,20.6922,74.7358,-0.332461,0.0,0.0
864,215.75,59.5055,62.5446,141.804,100.302,104.163,0.00571461,0.271468,20.7129,74.6958,-0.34373,0.0,0.0
868,216.75,58.8238,62.6885,142.102,100.311,104.262,0.0059004,0.256477,20.7293,74.6457,-0.351551,0.0,0.0
872,217.75,58.2619,62.3185,142.51,100.327,104.366,0.00613135,0.241335,20.7503,74.5957,-0.359177,0.0,0.0
876,218.75,58.2134,62.0237,140.523,100.34,104.314,0.00642349,0.225738,20.7705,74.5857,-0.353539,0.0,0.0
880,219.75,58.3006,62.4922,136.79,100.343,103.707,0.00678312,0.21334,20.7865,74.5657,-0.3001,0.0,0.0
884,220.75,58.866,61.9424,141.32,100.369,104.802,0.00705407,0.197432,20.8008,74.5356,-0.393341,0.0,0.0
888,221.75,57.7699,60.8788,145.78,100.373,104.89,0.00743419,0.185801,20.8191,74.4956,-0.400603,0.0,0.0
892,222.75,56.7437,61.131,144.49,100.379,104.59,0.0077942,0.171378,20.8307,74.4456,-0.374003,0.0,0.0
896,223.75,56.7261,60.5158,145.271,100.396,104.75,0.00815738,0.158936,20.8452,74.3955,-0.386307,0.0,0.0
900,224.75,56.8444,60.448,141.533,100.402,104.775,0.00849045,0.146579,20.8583,74.3955,-0.38799,0.0,0.0
904,225.75,55.6421,60.4023,141.509,100.418,105.183,0.00878063,0.136066,20.8702,74.3755,-0.421873,0.0,0.0
908,226.75,55.2273,60.1364,145.192,100.407,104.685,0.00907903,0.126137,20.8808,74.3255,-0.379697,0.0,0.0
912,227.75,55.404,60.0684,149.42,100.435,104.451,0.00933893,0.117339,20.891,74.2954,-0.356819,0.0,0.0
916,228.75,53.6473,59.309,144.629,100.447,104.782,0.0095806,0.110055,20.8992,74.3054,-0.384528,0.0,0.0
920,229.75,54.1957,58.3454,144.084,100.46,105.5,0.00977214,0.10368,20.9065,74.3255,-0.445461,0.0,0.0
924,230.75,54.0519,58.8991,143.391,100.47,105.156,0.00997224,0.09772,20.913,74.3054,-0.414794,0.0,0.0
928,231.75,53.5262,57.89,144.873,100.473,104.905,0.0101944,0.0927277,20.9188,74.2954,-0.392848,0.0,0.0
932,232.75,52.7003,58.0018,143.565,100.483,104.507,0.0104148,0.0885886,20.9233,74.2654,-0.35731,0.0,0.0
936,233.75,52.5742,58.1889,145.733,100.503,105.23,0.0106549,0.0849425,20.9272,74.2754,-0.418256,0.0,0.0
940,234.75,52.0534,56.8257,142.46,100.506,105.049,0.0108447,0.081711,20.9309,74.2554,-0.402302,0.0,0.0
944,235.75,51.6515,56.1688,143.875,100.517,104.911,0.0109826,0.078996,20.9333,74.2554,-0.389339,0.0,0.0
948,236.75,51.3994,56.9606,148.114,100.509,104.571,0.0110861,0.0766945,20.9365,74.2354,-0.360562,0.0,0.0
952,237.75,51.3237,55.8468,144.075,100.536,104.819,0.011169,0.0747246,20.9385,74.2354,-0.379632,0.0,0.0
956,238.75,51.3974,56.0488,145.451,100.534,104.831,0.0112317,0.0732861,20.9399,74.2354,-0.380905,0.0,0.0
960,239.75,51.3309,55.8274,144.273,100.538,104.989,0.0112968,0.0722262,20.9412,74.2254,-0.394182,0.0,0.0
964,240.75,50.3572,55.1833,143.144,100.555,104.574,0.011383,0.0713441,20.9425,74.2154,-0.356644,0.0,0.0
968,241.75,49.4954,55.3337,146.401,100.564,105.261,0.011474,0.0705683,20.9434,74.2154,-0.41545,0.0,0.0
972,242.75,48.9819,54.8783,143.95,100.573,104.819,0.011577,0.0699345,20.9442,74.2154,-0.376308,0.0,0.0
976,243.75,48.724,54.4528,142.217,100.578,104.567,0.0116635,0.0695207,20.9447,74.2254,-0.353883,0.0,0.0
980,244.75,49.2851,54.5267,146.471,100.579,105.269,0.0117835,0.0691985,20.9442,74.2154,-0.414741,0.0,0.0
984,245.75,49.2985,53.5191,148.23,100.603,105.351,0.0118787,0.0689617,20.9436,74.2154,-0.419692,0.0,0.0
988,246.75,48.0081,53.4956,147.313,100.599,104.913,0.0119398,0.0687644,20.9432,74.1953,-0.382092,0.0,0.0
992,247.75,48.3117,53.8291,143.962,100.598,104.984,0.0119867,0.0685788,20.943,74.1853,-0.388408,0.0,0.0
996,248.75,48.1873,53.0696,144.035,100.603,105.109,0.0120497,0.0684031,20.9428,74.1853,-0.398745,0.0,0.0
1000,249.75,46.0321,50.7888,143.21,100.61,104.824,0.0121432,0.0683132,20.9427,74.2254,-0.373419,0.0,0.0
1004,250.75,46.1103,50.7541,146.358,100.612,105.082,0.012242,0.0682741,20.9427,74.2454,-0.395574,0.0,0.0
1008,251.75,45.1504,50.7155,146.483,100.623,104.636,0.0123451,0.068194,20.9426,74.2454,-0.355874,0.0,0.0
1012,252.75,44.9822,50.2933,141.669,100.617,104.62,0.0124328,0.0682052,20.9426,74.2154,-0.355042,0.0,0.0
1016,253.75,45.0824,50.2749,148.134,100.625,104.656,0.0125404,0.068304,20.9426,74.1953,-0.357413,0.0,0.0
1020,254.75,44.8448,49.8255,143.964,100.621,104.879,0.0126622,0.0684455,20.9425,74.2053,-0.377211,0.0,0.0
1024,255.75,44.3242,50.2143,147.611,100.627,104.656,0.0128066,0.0685298,20.9425,74.1753,-0.357196,0.0,0.0
1028,256.75,45.0641,49.4638,151.732,100.631,104.807,0.0129445,0.0685663,20.9423,74.1653,-0.370022,0.0,0.0
1032,257.75,44.6181,49.3586,147.564,100.633,105.036,0.0130918,0.0685723,20.9416,74.1653,-0.389754,0.0,0.0
1036,258.75,44.4713,49.2409,146.632,100.638,104.907,0.013211,0.068703,20.9411,74.1553,-0.378084,0.0,0.0
1040,259.75,44.6906,49.0888,141.541,100.641,105.231,0.0132956,0.0689662,20.9408,74.1653,-0.405834,0.0,0.0
1044,260.75,44.0224,48.6124,144.293,100.645,104.738,0.0133393,0.0691989,20.9406,74.1353,-0.362734,0.0,0.0
1048,261.75,43.9521,48.3878,142.045,100.637,105.522,0.0133538,0.0692677,20.9405,74.1353,-0.431393,0.0,0.0
1052,262.75,43.8326,47.9955,146.969,100.645,104.689,0.0133727,0.069258,20.9404,74.1453,-0.358502,0.0,0.0
1056,263.75,43.767,48.1885,148.589,100.642,104.716,0.0134135,0.0691869,20.941,74.1453,-0.361106,0.0,0.0
1060,264.75,43.4793,47.7486,147.335,100.639,104.576,0.0134645,0.0690989,20.9415,74.1253,-0.349177,0.0,0.0
1064,265.75,43.1607,47.9676,146.907,100.643,104.844,0.0135266,0.0690305,20.9418,74.1253,-0.372217,0.0,0.0
1068,266.75,43.1291,47.4345,145.831,100.647,105.224,0.0135854,0.0690405,20.9421,74.1153,-0.404709,0.0,0.0
1072,267.75,42.998,47.4602,143.339,100.645,104.88,0.0136605,0.0691369,20.9424,74.1053,-0.375126,0.0,0.0
1076,268.75,42.7216,47.3095,147.489,100.64,105.106,0.0137617,0.0692763,20.9429,74.1053,-0.395152,0.0,0.0
1080,269.75,42.9125,47.1662,143.294,100.634,104.892,0.0138619,0.0693603,20.9432,74.0953,-0.377078,0.0,0.0
1084,270.75,42.7379,47.0975,144.929,100.628,104.857,0.0139507,0.0693975,20.9432,74.0953,-0.374572,0.0,0.0
1088,271.75,42.4753,47.0359,145.335,100.642,105.028,0.0140244,0.0693619,20.9426,74.0752,-0.388146,0.0,0.0
1092,272.75,42.3222,46.8894,147.76,100.635,104.713,0.0140902,0.0694823,20.9422,74.0752,-0.361521,0.0,0.0
1096,273.75,42.2788,46.1034,142.895,100.638,104.848,0.0141349,0.0697311,20.9417,74.0652,-0.373002,0.0,0.0
1100,274.75,42.4998,46.3508,144.667,100.635,104.616,0.0141624,0.069869,20.9413,74.0652,-0.353025,0.0,0.0
1104,275.75,42.022,46.0838,144.006,100.655,104.864,0.0141917,0.0699178,20.9411,74.0452,-0.372814,0.0,0.0
1108,276.75,42.357,46.3527,148.562,100.635,104.934,0.0142323,0.0699948,20.941,74.0352,-0.38068,0.0,0.0
1112,277.75,41.8395,45.7439,144.343,100.627,104.725,0.0142797,0.0701275,20.9409,74.0352,-0.363225,0.0,0.0
1116,278.75,41.7846,45.3175,146.934,100.634,105.149,0.0143269,0.0703046,20.9408,74.0352,-0.399397,0.0,0.0
1120,279.75,41.6626,45.6911,143.992,100.624,104.938,0.0143707,0.0703193,20.9407,74.0152,-0.381964,0.0,0.0
1124,280.75,41.7724,45.063,146.251,100.631,105.029,0.014413,0.0702782,20.9407,74.0152,-0.389199,0.0,0.0
1128,281.75,41.7974,45.0984,145.075,100.641,105.072,0.0144677,0.0702259,20.9407,73.9852,-0.392117,0.0,0.0
1132,282.75,41.7946,45.1604,148.544,100.619,104.379,0.0145274,0.070293,20.9407,73.9952,-0.333846,0.0,0.0
1136,283.75,41.5109,45.0147,149.638,100.624,104.951,0.0145784,0.070437,20.9407,73.9852,-0.383136,0.0,0.0
1140,284.75,41.1383,44.9896,149.117,100.62,105.113,0.0146285,0.0707183,20.9407,73.9752,-0.397543,0.0,0.0
1144,285.75,41.1612,44.7263,144.358,100.621,105.076,0.0146732,0.0710019,20.94,73.9551,-0.394198,0.0,0.0
1148,286.75,41.014,44.4003,144.973,100.617,105.132,0.0146951,0.0712475,20.9395,73.9551,-0.399505,0.0,0.0
1152,287.75,41.0871,44.5546,145.949,100.617,104.941,0.0146956,0.07142,20.9391,73.9551,-0.382962,0.0,0.0
1156,288.75,40.6917,44.2448,145.112,100.609,105.317,0.0146982,0.0715332,20.9388,73.9551,-0.416233,0.0,0.0
1160,289.75,40.9921,44.0681,146.636,100.604,104.685,0.0147095,0.0716074,20.9387,73.9351,-0.361797,0.0,0.0
1164,290.75,40.5917,44.772,144.729,100.601,104.642,0.01476,0.0717069,20.939,73.9351,-0.35837,0.0,0.0
1168,291.75,41.0886,44.4115,144.794,100.597,105.135,0.0148215,0.0717122,20.9397,73.9251,-0.401545,0.0,0.0
1172,292.75,40.9505,44.0343,150.649,100.588,104.934,0.014859,0.0717364,20.9401,73.9051,-0.384977,0.0,0.0
1176,293.75,41.0855,43.9261,145.77,100.584,104.789,0.0148763,0.071857,20.9404,73.9051,-0.37268,0.0,0.0
1180,294.75,40.5693,44.0581,144.664,100.588,104.755,0.0148882,0.0719722,20.9405,73.9051,-0.369382,0.0,0.0
1184,295.75,40.6688,43.5497,148.766,100.581,104.846,0.0149078,0.0720477,20.9406,73.8951,-0.377895,0.0,0.0
1188,296.75,40.8672,43.5908,146.47,100.582,105.24,0.0149636,0.0720465,20.9407,73.8851,-0.411961,0.0,0.0
1192,297.75,40.3427,43.5246,143.63,100.575,104.754,0.0150263,0.0721658,20.9402,73.855,-0.370535,0.0,0.0
1196,298.75,40.7972,43.6084,146.165,100.575,105.557,0.0150579,0.0724306,20.9396,73.845,-0.439983,0.0,0.0
1200,299.75,40.4091,43.5892,145.393,100.564,104.925,0.0150501,0.0727146,20.9392,73.835,-0.386325,0.0,0.0
1204,300.75,40.0383,43.4473,145.341,100.565,105.063,0.0150141,0.0728427,20.9396,73.825,-0.398234,0.0,0.0
1208,301.75,40.0225,42.8628,148.549,100.55,105.475,0.0149885,0.0728447,20.94,73.815,-0.435188,0.0,0.0
1212,302.75,40.3193,43.3428,143.792,100.548,104.864,0.0149395,0.0728233,20.9403,73.805,-0.382532,0.0,0.0
1216,303.75,40.3136,42.7458,145.087,100.544,104.932,0.0148821,0.0728314,20.9405,73.795,-0.38872,0.0,0.0
1220,304.75,39.859,43.0333,148.25,100.529,104.632,0.0147924,0.0728781,20.9409,73.775,-0.364083,0.0,0.0
1224,305.75,40.2015,43.2887,146.963,100.539,105.115,0.0146988,0.0728814,20.9412,73.7349,-0.404993,0.0,0.0
1228,306.75,39.8955,42.8976,148.123,100.536,104.805,0.0146222,0.0728598,20.9414,73.7249,-0.378457,0.0,0.0
1232,307.75,40.0176,43.0616,146.982,100.528,105.24,0.014579,0.0729195,20.9415,73.7449,-0.416872,0.0,0.0
1236,308.75,39.83,42.3115,146.915,100.528,105.236,0.0145796,0.0730268,20.9416,73.7149,-0.416522,0.0,0.0
1240,309.75,39.8636,43.0621,142.101,100.516,104.979,0.0146243,0.0730571,20.9414,73.7049,-0.39535,0.0,0.0
1244,310.75,39.7279,42.2716,143.226,100.526,104.708,0.0146866,0.0730885,20.9407,73.6849,-0.370913,0.0,0.0
1248,311.75,39.9099,42.0305,144.462,100.499,104.599,0.0147822,0.073163,20.9403,73.6749,-0.363898,0.0,0.0
1252,312.75,40.1889,42.0841,145.064,100.505,104.235,0.0148837,0.0733644,20.94,73.6649,-0.331643,0.0,0.0
1256,313.75,39.5479,42.1253,144.715,100.504,104.753,0.0149582,0.0735765,20.9396,73.6849,-0.37685,0.0,0.0
1260,314.75,39.346,42.1941,145.591,100.485,105.505,0.0149897,0.0737373,20.939,73.6749,-0.443649,0.0,0.0
1264,315.75,40.002,41.9713,146.676,100.501,104.811,0.0149911,0.0738132,20.9384,73.6749,-0.382109,0.0,0.0
1268,316.75,39.8495,41.9385,143.202,100.473,104.654,0.0148802,0.0737909,20.9381,73.6549,-0.37106,0.0,0.0
1272,317.75,39.5411,42.1593,144.95,100.482,104.773,0.0147244,0.073825,20.9378,73.6949,-0.380599,0.0,0.0
1276,318.75,39.1133,42.0013,144.671,100.473,104.812,0.0145829,0.0739875,20.9377,73.6449,-0.384794,0.0,0.0
1280,319.75,39.313,41.3833,145.456,100.471,104.841,0.0144982,0.0741178,20.9376,73.6449,-0.387479,0.0,0.0
1284,320.75,39.1631,41.7823,143.612,100.456,104.656,0.0145,0.0741993,20.9375,73.6449,-0.372738,0.0,0.0
1288,321.75,39.7721,41.5487,147.578,100.445,104.937,0.0145659,0.0743078,20.9374,73.6348,-0.398077,0.0,0.0
1292,322.75,39.8159,41.5154,146.989,100.44,105.188,0.0146164,0.0744616,20.9374,73.6449,-0.42035,0.0,0.0
1296,323.75,39.4975,41.6809,142.879,100.439,104.938,0.0146137,0.0745298,20.9374,73.6449,-0.398772,0.0,0.0
1300,324.75,39.5405,41.1331,145.376,100.424,104.508,0.0145442,0.0745384,20.9374,73.6449,-0.362738,0.0,0.0
1304,325.75,39.3726,41.4701,142.709,100.425,104.576,0.0144565,0.0745441,20.9374,73.6449,-0.368663,0.0,0.0
1308,326.75,39.3406,41.9155,146.506,100.433,104.751,0.0143752,0.074688,20.9374,73.6449,-0.383095,0.0,0.0
1312,327.75,38.9647,40.9043,148.258,100.401,104.798,0.0143385,0.0748202,20.9374,73.6348,-0.390132,0.0,0.0
1316,328.75,39.2963,41.2867,144.197,100.395,105.347,0.0143369,0.0749068,20.9374,73.6248,-0.438178,0.0,0.0
1320,329.75,39.4137,41.5398,145.38,100.386,104.832,0.0143562,0.0750059,20.9374,73.6248,-0.394367,0.0,0.0
1324,330.75,39.365,41.1936,145.486,100.376,104.708,0.0143793,0.075119,20.9374,73.6148,-0.384514,0.0,0.0
1328,331.75,39.36,40.9543,145.199,100.375,104.844,0.0143817,0.0752046,20.9374,73.5848,-0.396434,0.0,0.0
1332,332.75,39.2342,41.1915,146.031,100.356,104.775,0.014336,0.0752099,20.9374,73.5948,-0.392156,0.0,0.0
1336,333.75,38.7935,41.3303,143.929,100.347,104.79,0.0142427,0.0750932,20.9374,73.5748,-0.394279,0.0,0.0
1340,334.75,39.2189,40.8966,142.371,100.341,104.565,0.0141283,0.0750044,20.9374,73.5648,-0.375285,0.0,0.0
1344,335.75,39.2893,41.2525,145.634,100.33,104.602,0.0140298,0.0750516,20.9374,73.5548,-0.379437,0.0,0.0
1348,336.75,39.1041,40.8681,146.822,100.315,104.72,0.0139652,0.0751496,20.9374,73.5448,-0.391073,0.0,0.0
1352,337.75,39.3815,40.5495,144.972,100.31,104.832,0.0139384,0.075296,20.9372,73.5348,-0.401319,0.0,0.0
1356,338.75,39.3259,40.9505,146.423,100.299,105.197,0.0139242,0.0754499,20.9371,73.5247,-0.433944,0.0,0.0
1360,339.75,39.1043,41.2099,146.27,100.299,104.309,0.0139006,0.0756511,20.937,73.5247,-0.356685,0.0,0.0
1364,340.75,38.8204,40.6786,147.334,100.283,104.678,0.0138679,0.0757678,20.937,73.5147,-0.390292,0.0,0.0
1368,341.75,39.24,40.8133,149.27,100.268,104.789,0.0138209,0.0758103,20.937,73.5047,-0.40137,0.0,0.0
1372,342.75,39.0891,40.9499,144.446,100.259,104.18,0.0137725,0.0758456,20.937,73.4947,-0.349178,0.0,0.0
1376,343.75,38.6978,40.9386,144.007,100.244,104.061,0.013719,0.075878,20.9369,73.4847,-0.340092,0.0,0.0
1380,344.75,38.7987,40.551,148.11,100.237,104.709,0.0136546,0.0758974,20.9369,73.4747,-0.397233,0.0,0.0
1384,345.75,39.0891,40.2529,153.36,100.227,104.57,0.0135639,0.0759462,20.9369,73.4747,-0.386005,0.0,0.0
1388,346.75,39.4781,40.5295,146.889,100.219,104.575,0.013461,0.0759019,20.9366,73.4647,-0.387194,0.0,0.0
1392,347.75,38.8849,40.737,147.148,100.208,104.184,0.013365,0.0758729,20.9364,73.4547,-0.354096,0.0,0.0
1396,348.75,38.9686,41.0291,147.35,100.198,104.394,0.0132737,0.0758521,20.9363,73.4447,-0.373353,0.0,0.0
1400,349.75,38.6964,40.5593,146.283,100.196,105.006,0.0132082,0.0758522,20.9362,73.4547,-0.426685,0.0,0.0
1404,350.75,38.7412,40.3591,145.321,100.173,104.598,0.0131794,0.0759057,20.9362,73.4447,-0.39333,0.0,0.0
1408,351.75,39.1707,40.605,144.296,100.161,104.553,0.0131849,0.0760311,20.9361,73.4447,-0.390532,0.0,0.0
1412,352.75,38.6434,39.9257,146.692,100.147,104.368,0.0131966,0.076159,20.9361,73.4146,-0.375721,0.0,0.0
1416,353.75,38.9731,40.0811,147.712,100.122,104.648,0.0132003,0.0763445,20.9361,73.4146,-0.402321,0.0,0.0
1420,354.75,38.7635,40.1969,144.67,100.112,104.208,0.0132044,0.0764062,20.9361,73.3946,-0.364925,0.0,0.0
1424,355.75,38.443,40.0553,144.484,100.1,104.368,0.0132155,0.0763704,20.9361,73.3846,-0.379924,0.0,0.0
1428,356.75,38.5025,39.9301,143.42,100.09,104.809,0.013244,0.0763707,20.9361,73.3846,-0.419266,0.0,0.0
1432,357.75,38.6989,40.4257,149.497,100.068,104.461,,0.0764219,,73.3546,-0.390956,0.0,0.0
1436,358.75,38.7671,39.5347,145.466,100.044,104.593,,0.0765083,,73.3446,-0.404657,0.0,0.0
1440,359.75,38.7528,40.1439,141.746,100.035,104.544,,0.0766658,,73.3546,-0.401261,0.0,0.0
1444,360.75,38.7491,40.7209,143.494,100.003,104.199,,,,73.3346,-0.374089,0.0,0.0
1448,361.75,38.7821,39.7797,149.478,99.9942,104.185,,,,73.3446,-0.373594,0.0,0.0
1452,362.75,38.5289,40.3559,144.441,99.9631,104.451,,,,73.3346,-0.399683,0.0,0.0
1456,363.75,38.5871,40.2446,147.104,99.9451,103.858,,,,73.3346,-0.349462,0.0,0.0
1460,364.75,38.6217,40.0023,145.374,99.9295,104.044,,,,73.3346,-0.367162,0.0,0.0
1464,365.75,38.4208,39.9999,142.467,99.894,103.584,,,,73.3146,-0.330096,0.0,0.0
1468,366.75,38.6521,39.7452,149.455,99.8776,104.043,,,,73.2845,-0.37185,0.0,0.0
1472,367.75,38.1581,39.9644,147.992,99.8505,104.082,,,,73.2945,-0.377711,0.0,0.0
1473,368,38.4992,39.3411,147.011,99.8349,104.131,,,,73.2345,-0.383381,0.0,0.0