File: 01_Data/Luan_Panel/Cone/Luan_Panel_Cone_HF50Scan_220916_R3.csv
Names,Time,Stack TC,Smoke TC,Exh Press,Smoke Comp,Smoke Meas,CO Meter,CO2 Meter,O2 Meter,Sample Mass,Ext Coeff,Start Test,Flame Verif
Chan Gain,,500,500,1,1,1,1,1,1,1,1,1.0,1.0
Offset,,0,0,0.146632,0,0,0,0,0,0,0,0.0,0.0
Gain,,1,1,25.011,13.0826,14.7555,1,1,1,1.00088,1.03743,1.0,1.0
Units,sec,C,C,Pa,%,%,%,%,%,g,/m,,
Baseline,,51.0701,52.2393,141.557,99.9786,105.379,0.000420905,0.0454518,20.9871,-449.72,-0.478654,,
3,0.5,50.757,51.9914,140.335,99.256,104.437,0.00022366,0.0486442,20.9798,95.3039,-0.463026,0.0,0.0
6,1.25,49.1008,50.1417,140.056,99.2784,104.467,0.000185543,0.0487784,20.9802,95.2239,-0.463605,0.0,0.0
9,2,49.3381,50.3215,142.276,99.2919,104.98,0.000154091,0.0488136,20.9806,95.1838,-0.506969,0.0,0.0
12,2.75,49.3108,50.2702,137.908,99.3494,104.781,0.000134101,0.0487204,20.9809,95.1938,-0.484392,0.0,0.0
15,3.5,49.4211,50.642,139.437,99.3866,104.026,0.000127221,0.0485691,20.9818,95.1738,-0.415208,0.0,0.0
18,4.25,49.1419,50.7357,143.097,99.4137,104.585,0.000135708,0.0484233,20.9824,95.1038,-0.461439,0.0,0.0
21,5,49.2363,50.522,142.196,99.4464,104.674,0.000164984,0.0482773,20.9829,95.09375,-0.466236,0.0,0.0
24,5.75,49.3306,51.0113,138.851,99.4928,104.432,0.000205504,0.0481848,20.9832,95.1038,-0.440952,0.0,0.0
27,6.5,49.9418,50.9367,140.388,99.5343,104.736,0.000249715,0.0481233,20.9835,95.09375,-0.463564,0.0,0.0
30,7.25,49.7377,50.5555,135.201,99.5574,104.843,0.000288201,0.0479794,20.9836,95.0337,-0.470794,0.0,0.0
33,8,49.5015,51.1234,143.835,99.5986,104.25,0.000327203,0.0479037,20.9838,94.9937,-0.415413,0.0,0.0
36,8.75,49.3483,51.1537,138.527,99.6349,104.511,0.000374354,0.0478986,20.9849,95.0137,-0.434825,0.0,0.0
39,9.5,49.1619,50.5859,141.456,99.6724,103.132,0.000417455,0.0481128,20.9853,94.9736,-0.310538,0.0,0.0
42,10.25,49.9986,50.5593,142.26,99.7016,103.172,0.000454997,0.048269,20.9852,94.9236,-0.311374,0.0,0.0
45,11,49.5111,51.1058,140.495,99.7279,102.786,0.000484973,0.048938,20.9847,94.8535,-0.274826,0.0,0.0
48,11.75,49.9267,51.2355,141.805,99.7623,101.859,0.0005546,0.0507485,20.9807,94.9036,-0.189312,0.0,0.0
51,12.5,49.7778,51.2085,139.504,99.7918,102.443,0.000625725,0.0542815,20.9714,94.8335,-0.238648,0.0,0.0
54,13.25,50.2788,51.2659,134.078,99.8162,105.258,0.000754559,0.0596771,20.9502,94.7434,-0.483103,0.0,1.0
57,14,49.6667,50.8122,127.568,99.8369,104.649,0.000902534,0.0696891,20.9199,94.6333,-0.428422,0.0,1.0
60,14.75,50.9555,50.9811,130.962,99.8609,104.149,0.00103345,0.0795792,20.8827,94.5232,-0.38259,0.0,1.0
63,15.5,50.6513,51.2311,131.565,99.8888,103.83,0.00120435,0.0960465,20.8294,94.4532,-0.352144,0.0,1.0
66,16.25,51.917,51.7925,122.949,99.9104,103.015,0.00138931,0.116019,20.7713,94.3331,-0.278502,0.0,1.0
69,17,52.5062,52.1792,121.2,99.92,102.981,0.00158432,0.137457,20.7151,94.1429,-0.274565,0.0,1.0
72,17.75,52.8073,51.9484,122.723,99.9315,102.593,0.00178537,0.163075,20.6579,94.0528,-0.239224,0.0,1.0
75,18.5,52.8076,52.2249,123.906,99.9587,102.167,0.00199249,0.186071,20.6106,93.9627,-0.198887,0.0,1.0
78,19.25,53.9094,52.9171,117.2,99.9818,101.318,0.00224706,0.210224,20.5667,93.7826,-0.120817,0.0,1.0
81,20,54.6968,53.7366,122.794,99.9886,100.616,0.00256537,0.236912,20.526,93.6225,-0.0568836,0.0,0.0
84,20.75,55.5743,54.4145,114.956,99.9974,99.6992,0.00288699,0.256368,20.4888,93.4823,0.0271769,0.0,0.0
87,21.5,56.894,55.1053,114.253,100.019,99.1463,0.00315963,0.280335,20.4555,93.4123,0.0797165,0.0,0.0
90,22.25,58.3295,56.0206,115.958,100.036,99.1638,0.00348644,0.304081,20.4291,93.2421,0.0797035,0.0,0.0
93,23,59.4302,56.6952,126.978,100.033,98.8504,0.00375361,0.326113,20.4063,93.102,0.10822,0.0,0.0
96,23.75,60.2456,57.3694,117.668,100.037,97.975,0.00399785,0.345676,20.3896,92.9318,0.189531,0.0,0.0
99,24.5,61.0193,58.3521,119.24,100.051,98.7865,0.004233,0.363226,20.3775,92.8718,0.115779,0.0,0.0
102,25.25,61.9277,59.6928,118.686,100.055,98.3267,0.00440443,0.377421,20.3687,92.7317,0.158595,0.0,0.0
105,26,63.0004,60.0014,128.414,100.052,98.0534,0.00460085,0.391316,20.3657,92.5015,0.183601,0.0,0.0
108,26.75,63.642,60.7322,122.353,100.055,98.4244,0.00476284,0.402759,20.3665,92.3213,0.149555,0.0,0.0
111,27.5,64.6308,61.2462,122.136,100.058,97.8575,0.00488763,0.411661,20.3694,92.2913,0.202343,0.0,0.0
114,28.25,64.9263,62.2615,120.62,100.068,97.9228,0.00497635,0.41968,20.3753,92.1512,0.197217,0.0,0.0
117,29,65.5547,62.7487,119.418,100.051,97.9138,0.00502222,0.425526,20.3825,91.971,0.196529,0.0,0.0
120,29.75,66.3178,63.647,123.328,100.057,99.3813,0.00504237,0.430241,20.393,91.8309,0.0616903,0.0,0.0
123,30.5,66.891,63.9173,122.53,100.043,99.7335,0.00504803,0.433376,20.4029,91.8509,0.0281579,0.0,0.0
126,31.25,67.3608,64.8477,124.251,100.047,99.9077,0.00505744,0.435318,20.414,91.7708,0.0127065,0.0,0.0
129,32,67.5319,65.0057,124.793,100.047,99.6772,0.00507332,0.436148,20.4291,91.6207,0.0337313,0.0,0.0
132,32.75,68.0924,65.8383,127.694,100.025,99.4547,0.00508489,0.435351,20.4401,91.4706,0.0520652,0.0,0.0
135,33.5,68.3645,65.942,128.791,100.026,100.815,0.00508797,0.43477,20.4529,91.3504,-0.0714529,0.0,0.0
138,34.25,68.6266,66.6562,123.516,100.021,100.503,0.00507894,0.432617,20.4666,91.3204,-0.0437939,0.0,0.0
141,35,69.256,67.2094,127.576,100.005,101.023,0.00506755,0.43031,20.4806,91.2203,-0.092142,0.0,0.0
144,35.75,69.263,67.2933,128.375,99.987,100.57,0.00502174,0.426103,20.496,91.0802,-0.0529142,0.0,0.0
147,36.5,69.4306,67.578,126.566,99.9779,101.528,0.0049508,0.422028,20.512,91.0202,-0.140049,0.0,0.0
150,37.25,69.4089,67.8581,127.387,99.981,101.088,0.00488309,0.417335,20.528,90.9201,-0.100158,0.0,0.0
153,38,69.824,67.861,128.42,99.9747,101.342,0.00479272,0.412543,20.5441,90.82,-0.123655,0.0,0.0
156,38.75,69.9026,68.4588,126.176,99.9507,102.538,0.0046823,0.408464,20.5574,90.6298,-0.232565,0.0,0.0
159,39.5,70.1926,68.6263,129.307,99.9347,101.732,0.00460181,0.403108,20.5698,90.5798,-0.1622,0.0,0.0
162,40.25,70.1727,69.2553,128.752,99.9451,102.465,0.00447728,0.397812,20.582,90.5397,-0.226597,0.0,0.0
165,41,70.2202,69.2525,127.332,99.9347,102.16,0.00435783,0.392746,20.5926,90.4497,-0.200387,0.0,0.0
168,41.75,70.4451,69.0845,127.975,99.9188,102.508,0.00425852,0.388005,20.6011,90.2795,-0.232796,0.0,0.0
171,42.5,70.6998,69.4679,129.216,99.9044,103.974,0.00415593,0.383591,20.608,90.1894,-0.363346,0.0,0.0
174,43.25,70.6335,69.5139,127.581,99.9064,103.119,0.00406121,0.379964,20.6132,90.1894,-0.288009,0.0,0.0
177,44,70.7122,70.2028,127.098,99.912,102.829,0.00397647,0.376172,20.6174,90.0693,-0.261873,0.0,0.0
180,44.75,70.6439,70.124,127.379,99.8972,103.711,0.00390237,0.372906,20.6205,89.9292,-0.340915,0.0,0.0
183,45.5,70.8858,69.9791,125.676,99.8752,102.982,0.00381819,0.370092,20.6227,89.8091,-0.278758,0.0,0.0
186,46.25,70.936,70.5241,129.807,99.8629,103.089,0.00375683,0.367665,20.6243,89.8091,-0.289312,0.0,0.0
189,47,70.9006,70.7839,124.718,99.8549,103.155,0.00365005,0.365429,20.6255,89.729,-0.295881,0.0,0.0
192,47.75,71.0075,70.4893,127.021,99.8405,104.062,0.00353621,0.363434,20.6264,89.5589,-0.376888,0.0,0.0
195,48.5,71.0311,70.8377,131.001,99.8237,103.645,0.00343787,0.361694,20.6264,89.4187,-0.341839,0.0,0.0
198,49.25,71.1505,71.0295,133.308,99.8241,103.5,0.00331488,0.36026,20.6245,89.3687,-0.329062,0.0,0.0
201,50,71.381,71.0991,128.823,99.8074,103.549,0.00320539,0.359215,20.6225,89.2786,-0.334905,0.0,0.0
204,50.75,71.5315,71.4474,130.703,99.801,102.645,0.00311842,0.35869,20.6198,89.1585,-0.255714,0.0,0.0
207,51.5,71.2398,71.4686,126.931,99.7706,103.089,0.00305725,0.358574,20.6153,89.0184,-0.29776,0.0,0.0
210,52.25,71.9885,71.6255,126.637,99.7635,103.161,0.00303741,0.358804,20.6112,88.9684,-0.304774,0.0,0.0
213,53,71.855,72.2799,128.969,99.7595,103.544,0.00302295,0.359317,20.6078,88.9183,-0.338879,0.0,0.0
216,53.75,71.9435,72.0011,124.463,99.7455,103.463,0.00306193,0.360125,20.6054,88.7682,-0.332988,0.0,0.0
219,54.5,72.0238,72.1788,124.289,99.7483,103.269,0.00309035,0.361066,20.6018,88.598,-0.315686,0.0,0.0
222,55.25,72.1173,72.607,123.009,99.7211,103.124,0.00313093,0.362038,20.5985,88.4879,-0.305377,0.0,0.0
225,56,72.9828,72.5773,125.873,99.7283,103.297,0.00316897,0.362981,20.5963,88.4879,-0.319928,0.0,0.0
228,56.75,72.7387,73.0277,125.976,99.7084,103.257,0.00321619,0.363768,20.5942,88.3878,-0.318218,0.0,0.0
231,57.5,72.4197,73.0184,126.364,99.694,103.558,0.00326676,0.364359,20.5925,88.1576,-0.346081,0.0,0.0
234,58.25,72.7273,73.2581,124.863,99.698,103.867,0.00331051,0.36482,20.5912,88.0475,-0.372783,0.0,0.0
237,59,73.0518,73.9097,123.239,99.688,103.247,0.00337786,0.365123,20.5903,88.0676,-0.319243,0.0,0.0
240,59.75,73.3024,73.525,123.854,99.6768,103.397,0.00345805,0.365312,20.5896,87.9374,-0.333471,0.0,0.0
243,60.5,73.2976,73.669,129.429,99.6581,103.679,0.00352977,0.365419,20.5892,87.7673,-0.359921,0.0,0.0
246,61.25,73.3371,74.2302,125.8,99.6513,103.711,0.00363355,0.365565,20.5884,87.6672,-0.363425,0.0,0.0
249,62,73.2108,74.2204,128.635,99.6525,103.416,0.00373786,0.36584,20.5876,87.6372,-0.337399,0.0,0.0
252,62.75,73.5379,74.3603,122.264,99.6377,103.748,0.00383596,0.366282,20.5858,87.5271,-0.367905,0.0,0.0
255,63.5,73.6216,74.6767,122.779,99.6241,103.629,0.00392431,0.367023,20.5839,87.3469,-0.358672,0.0,0.0
258,64.25,74.2308,75.1927,130.647,99.6153,103.343,0.00399761,0.367743,20.5817,87.2268,-0.334289,0.0,0.0
261,65,74.3564,74.9708,126.133,99.6117,103.915,0.00404708,0.369009,20.579,87.2168,-0.384917,0.0,0.0
264,65.75,74.6544,75.7752,123.235,99.6221,103.788,0.00407634,0.370303,20.5764,87.0967,-0.372802,0.0,0.0
267,66.5,74.2532,74.978,125.809,99.5934,103.997,0.00406033,0.371608,20.5739,86.9866,-0.39373,0.0,0.0
270,67.25,74.2961,76.012,123.628,99.5738,104.123,0.00401276,0.372908,20.5718,86.8064,-0.406544,0.0,0.0
273,68,74.5016,75.8713,129.329,99.5654,103.291,0.00395136,0.374742,20.569,86.7764,-0.334329,0.0,0.0
276,68.75,74.8021,75.9891,125.586,99.5642,104.331,0.00384809,0.376824,20.5664,86.6563,-0.425624,0.0,0.0
279,69.5,75.0699,76.2891,125.971,99.5582,103.967,0.0037479,0.378658,20.562,86.4862,-0.3943,0.0,0.0
282,70.25,74.6427,76.7056,126.524,99.5427,103.766,0.00365586,0.382383,20.5563,86.336,-0.378128,0.0,0.0
285,71,75.3862,76.7862,125.97,99.5423,103.331,0.00358006,0.383734,20.5495,86.266,-0.339935,0.0,0.0
288,71.75,75.6451,77.0759,122.768,99.5415,103.065,0.0035124,0.387239,20.5422,86.2059,-0.31654,0.0,0.0
291,72.5,75.8438,77.0391,128.004,99.5307,103.447,0.00345414,0.39089,20.535,86.0758,-0.35118,0.0,0.0
294,73.25,75.6464,77.0125,125.653,99.5155,103.126,0.00340274,0.394472,20.5291,85.9057,-0.324319,0.0,0.0
297,74,76.6201,77.6119,126.468,99.5235,103.396,0.0033633,0.397856,20.5248,85.8556,-0.34736,0.0,0.0
300,74.75,76.5936,77.8473,128.406,99.5203,103.158,0.0033312,0.401552,20.521,85.7755,-0.326662,0.0,0.0
303,75.5,76.1266,78.7823,128.593,99.5203,102.719,0.00331531,0.405025,20.5174,85.6154,-0.287887,0.0,0.0
306,76.25,76.8704,78.546,122.142,99.5059,102.209,0.00331412,0.407888,20.5131,85.4152,-0.243889,0.0,0.0
309,77,76.8708,78.4626,124.279,99.5059,101.976,0.00332554,0.411163,20.5101,85.3752,-0.223097,0.0,0.0
312,77.75,77.3681,79.0155,125.806,99.5127,102.097,0.00333387,0.414046,20.5081,85.2851,-0.23328,0.0,0.0
315,78.5,77.1326,78.8168,125.469,99.5071,101.966,0.00340731,0.416995,20.5048,85.155,-0.222144,0.0,0.0
318,79.25,77.4929,79.4959,125.154,99.5063,102.088,0.00349568,0.419842,20.5017,84.9949,-0.233101,0.0,0.0
321,80,77.7116,79.0779,123.27,99.4992,101.898,0.00359133,0.421917,20.4994,84.8747,-0.216803,0.0,0.0
324,80.75,78.4858,79.9487,123.575,99.5067,101.691,0.00368909,0.424477,20.4978,84.8647,-0.197632,0.0,0.0
327,81.5,78.6922,80.0359,120.417,99.5139,101.624,0.0037774,0.426343,20.4966,84.7346,-0.190928,0.0,0.0
330,82.25,78.3146,80.3979,128.265,99.5007,101.026,0.00387095,0.428103,20.4963,84.5645,-0.138425,0.0,0.0
333,83,78.8837,79.7614,122.873,99.4995,101.255,0.00394448,0.429439,20.4966,84.4043,-0.159117,0.0,0.0
336,83.75,78.8136,80.4336,123.611,99.5159,101.322,0.00398562,0.430435,20.4976,84.3643,-0.163648,0.0,0.0
339,84.5,78.9101,80.7887,123.548,99.5167,101.37,0.00400177,0.431061,20.4996,84.2942,-0.167942,0.0,0.0
342,85.25,79.1059,80.5361,126.905,99.5167,101.504,0.00399895,0.431472,20.501,84.1841,-0.1799,0.0,0.0
345,86,78.766,81.1281,127.458,99.5111,101.092,0.00398195,0.431692,20.5025,84.034,-0.143476,0.0,0.0
348,86.75,78.9675,81.2207,126.515,99.5159,100.957,0.00396122,0.431828,20.5044,83.974,-0.130869,0.0,0.0
351,87.5,79.0991,81.4756,122.082,99.5247,99.9257,0.00394275,0.431787,20.5058,83.9039,-0.0365957,0.0,0.0
354,88.25,78.8706,81.7071,119.719,99.5231,100.08,0.00393177,0.431651,20.5068,83.8038,-0.050797,0.0,0.0
357,89,80.0176,81.2975,122.359,99.5283,100.121,0.00392483,0.431473,20.5075,83.6236,-0.0540474,0.0,0.0
360,89.75,79.4418,81.821,124.699,99.5179,100.293,0.00394109,0.431219,20.508,83.5536,-0.0706187,0.0,0.0
363,90.5,79.2589,81.7806,124.973,99.5263,100.763,0.00397164,0.431079,20.5084,83.4935,-0.112409,0.0,0.0
366,91.25,79.0481,82.2267,125.196,99.5327,100.698,0.00401107,0.431057,20.5087,83.3934,-0.105927,0.0,0.0
369,92,79.1962,82.614,124.677,99.5279,100.61,0.00405552,0.431197,20.5089,83.2133,-0.0984252,0.0,0.0
372,92.75,80.1727,82.6203,125.947,99.5343,100.391,0.00411106,0.431386,20.5091,83.1432,-0.0779833,0.0,0.0
375,93.5,79.7713,82.5203,127.585,99.5459,99.9604,0.00416403,0.431554,20.5089,83.0932,-0.0378179,0.0,0.0
378,94.25,80.204,81.9495,124.002,99.5558,100.515,0.00420796,0.43166,20.5085,83.0031,-0.0872721,0.0,0.0
381,95,80.5068,82.4239,126.483,99.5479,100.671,0.00425996,0.431739,20.5081,82.8029,-0.102138,0.0,0.0
384,95.75,79.9768,82.6772,122.289,99.5511,99.4268,0.00430639,0.431812,20.5079,82.6828,0.0113664,0.0,0.0
387,96.5,80.2903,82.939,124.49,99.5746,100.142,0.00436161,0.432015,20.5072,82.7128,-0.0516965,0.0,0.0
390,97.25,80.2834,83.1788,125.157,99.5902,99.683,0.00440062,0.432373,20.5059,82.6228,-0.0084798,0.0,0.0
393,98,80.928,82.6731,122.929,99.5834,99.8694,0.00442655,0.432724,20.5037,82.4526,-0.0261034,0.0,0.0
396,98.75,79.8698,83.629,121.91,99.5866,100.095,0.00444209,0.43326,20.5022,82.2925,-0.0463865,0.0,0.0
399,99.5,80.3128,83.2772,126.869,99.6046,99.9928,0.00444749,0.433919,20.501,82.3025,-0.0354053,0.0,0.0
402,100.25,80.4161,83.4141,125.895,99.6034,100.399,0.00444132,0.434652,20.4997,82.2024,-0.0724058,0.0,0.0
405,101,80.5926,83.1294,127.579,99.6109,100.726,0.00442368,0.43559,20.498,82.0623,-0.101338,0.0,0.0
408,101.75,80.6501,83.366,127.746,99.6014,100.567,0.00438834,0.436688,20.4955,81.9221,-0.0878406,0.0,0.0
411,102.5,80.9406,83.7576,125.637,99.6277,101.144,0.00436324,0.4379,20.4932,81.8621,-0.137441,0.0,0.0
414,103.25,80.6161,84.0031,121.462,99.6281,100.461,0.00434607,0.438783,20.4907,81.752,-0.0757755,0.0,0.0
417,104,81.0259,83.4905,125.181,99.6305,100.065,0.0043745,0.440308,20.4885,81.6819,-0.0395894,0.0,0.0
420,104.75,81.0155,83.7781,125.202,99.6425,100.712,0.00441772,0.441577,20.4867,81.5018,-0.0971137,0.0,0.0
423,105.5,81.2808,84.1959,126.66,99.6473,101.025,0.00446013,0.442773,20.4854,81.4217,-0.124993,0.0,0.0
426,106.25,81.2007,84.361,121.662,99.6692,100.543,0.00449329,0.444016,20.4838,81.3316,-0.0794004,0.0,0.0
429,107,81.5387,84.2525,124.319,99.6764,100.052,0.00449252,0.44522,20.4826,81.2415,-0.0342504,0.0,0.0
432,107.75,81.6509,84.4276,124.494,99.676,100.502,0.00447447,0.446337,20.4815,81.0914,-0.0750705,0.0,0.0
435,108.5,81.3762,85.1807,127.67,99.6968,100.494,0.00445386,0.447657,20.4804,80.9913,-0.0724414,0.0,0.0
438,109.25,81.5191,85.162,120.76,99.7263,100.264,0.00441886,0.448844,20.4795,80.9613,-0.048965,0.0,0.0
441,110,82.0606,84.5436,123.309,99.7207,100.71,0.00438484,0.450092,20.4789,80.8412,-0.0898481,0.0,0.0
444,110.75,81.1681,85.419,126.024,99.7147,100.129,0.0043191,0.451256,20.4784,80.661,-0.0377117,0.0,0.0
447,111.5,82.039,85.1898,127.119,99.7275,100.06,0.00424376,0.452193,20.4783,80.5509,-0.0303224,0.0,0.0
450,112.25,81.8599,85.4042,126.269,99.7587,100.204,0.00418853,0.452914,20.4785,80.5509,-0.0404959,0.0,0.0
453,113,81.8039,85.0327,119.787,99.7599,100.997,0.00411379,0.453262,20.4794,80.4308,-0.112161,0.0,0.0
456,113.75,81.8876,85.4744,123.758,99.7726,100.682,0.00406285,0.453346,20.4814,80.2607,-0.0825488,0.0,0.0
459,114.5,81.8781,85.5442,127.491,99.7714,100.956,0.00403692,0.453248,20.4841,80.1406,-0.107452,0.0,0.0
462,115.25,82.1482,85.8302,124.685,99.8022,100.241,0.00402281,0.452949,20.4872,80.1806,-0.0399206,0.0,0.0
465,116,82.3671,85.748,124.52,99.809,100.808,0.00401127,0.452361,20.4902,80.0905,-0.0906249,0.0,0.0
468,116.75,81.9733,86.0311,125.083,99.8189,100.558,0.00400233,0.451518,20.4935,79.9404,-0.0670853,0.0,0.0
471,117.5,82.0735,86.0784,126.168,99.817,100.461,0.00395673,0.45002,20.4973,79.8403,-0.058542,0.0,0.0
474,118.25,81.9287,86.3783,127.818,99.8369,100.356,0.00388988,0.448417,20.5017,79.8203,-0.0471727,0.0,0.0
477,119,82.025,86.2383,127.252,99.8581,99.9136,0.00380851,0.446375,20.507,79.6802,-0.00505622,0.0,0.0
480,119.75,82.1456,86.2384,129.913,99.8581,99.9365,0.00371785,0.444257,20.5133,79.5701,-0.00714756,0.0,0.0
483,120.5,81.9897,86.3351,124.322,99.8597,99.982,0.0036294,0.441039,20.5205,79.48,-0.0111427,0.0,0.0
486,121.25,82.1355,86.3369,127.227,99.872,99.8654,0.00354793,0.437669,20.5283,79.48,0.000606405,0.0,0.0
489,122,81.9763,86.3745,127.404,99.884,99.8559,0.00348537,0.433922,20.5363,79.44,0.00255986,0.0,0.0
492,122.75,82.2017,85.9995,129.97,99.8928,100.348,0.00342734,0.429202,20.5421,79.2898,-0.0413841,0.0,0.0
495,123.5,82.2827,85.5933,124.648,99.896,100.304,0.00337975,0.425147,20.5495,79.2198,-0.0370499,0.0,0.0
498,124.25,82.1102,86.3997,127.891,99.9152,101.223,0.00333884,0.41907,20.5561,79.2098,-0.118309,0.0,0.0
501,125,81.9403,85.8264,133.278,99.9279,101.879,0.00330638,0.413345,20.5667,79.1697,-0.17598,0.0,0.0
504,125.75,81.8262,85.6611,131.41,99.9439,102.433,0.00328094,0.406957,20.5807,79.1297,-0.223826,0.0,0.0
507,126.5,81.1832,86.2294,132.151,99.9315,102.133,0.00326364,0.4023,20.5978,79.0196,-0.19827,0.0,0.0
510,127.25,80.9938,85.4591,129.7,99.9419,102.3,0.00325875,0.393028,20.6134,78.9996,-0.212239,0.0,0.0
513,128,80.9117,86.0552,129.709,99.9619,102.776,0.00326747,0.383451,20.6353,78.9896,-0.252624,0.0,0.0
516,128.75,80.3954,85.6952,132.197,99.9775,102.877,0.0033252,0.373722,20.6561,78.9295,-0.260134,0.0,0.0
519,129.5,80.0608,85.0733,131.415,99.9731,103.448,0.0033673,0.363986,20.6733,78.8294,-0.310982,0.0,0.0
522,130.25,80.0711,85.4403,132.269,99.9799,104.054,0.0035382,0.352509,20.6916,78.8094,-0.363487,0.0,0.0
525,131,79.6903,84.9353,132.367,99.987,104.396,0.00377886,0.342148,20.7105,78.8795,-0.392715,0.0,0.0
528,131.75,79.1998,85.0254,135.748,99.9906,104.834,0.0040611,0.331184,20.7299,78.8394,-0.430424,0.0,0.0
531,132.5,78.5374,84.4317,138.248,99.9918,105.105,0.00436486,0.318285,20.7496,78.7093,-0.453815,0.0,0.0
534,133.25,78.5647,84.4428,135.362,99.999,105.056,0.0046993,0.30692,20.7692,78.7093,-0.448989,0.0,0.0
537,134,78.0657,84.3734,137.47,100.005,104.594,0.00504362,0.29528,20.7874,78.7794,-0.408259,0.0,0.0
540,134.75,77.6168,83.6319,135.488,100.011,105.287,0.00542864,0.282517,20.8034,78.7994,-0.467773,0.0,0.0
543,135.5,76.9069,82.9998,135.86,100.003,105.999,0.00578543,0.271963,20.8175,78.7193,-0.5299,0.0,0.0
546,136.25,76.548,82.8282,133.118,100.015,104.778,0.00611079,0.262135,20.8279,78.6693,-0.423322,0.0,0.0
549,137,76.2734,82.8509,137.023,100.02,105.217,0.0064596,0.251962,20.8379,78.7694,-0.460978,0.0,0.0
552,137.75,75.8419,82.2017,139.934,100.022,105.591,0.00682608,0.242753,20.8459,78.7494,-0.493026,0.0,0.0
555,138.5,74.8079,81.8211,134.401,100.017,105.731,0.00713808,0.235276,20.8529,78.6993,-0.505596,0.0,0.0
558,139.25,74.5067,81.3784,139.278,100.02,105.294,0.0074422,0.227091,20.8593,78.6192,-0.467633,0.0,0.0
561,140,74.629,81.1668,141.434,100.029,105.543,0.00774203,0.219249,20.8657,78.6893,-0.488294,0.0,0.0
564,140.75,73.8681,81.0722,136.855,100.027,105.786,0.0080129,0.212732,20.8713,78.6693,-0.509457,0.0,0.0
567,141.5,73.5052,80.6474,139.891,100.028,105.947,0.00827167,0.205768,20.8758,78.6292,-0.523165,0.0,0.0
570,142.25,73.1771,80.3189,139.721,100.021,105.558,0.008527,0.199592,20.8797,78.5792,-0.490377,0.0,0.0
573,143,72.7748,79.9678,135.726,100.025,105.271,0.0087765,0.194122,20.8826,78.5992,-0.465214,0.0,0.0
576,143.75,72.1737,79.5276,135.434,100.027,105.576,0.00906674,0.189281,20.8846,78.6292,-0.491273,0.0,0.0
579,144.5,72.021,79.1695,138.442,100.022,105.688,0.00945058,0.184719,20.8866,78.5792,-0.501405,0.0,0.0
582,145.25,71.6416,79.1414,137.236,100.017,105.407,0.00978805,0.180441,20.8882,78.5392,-0.477651,0.0,0.0
585,146,71.2689,78.6834,135.744,100.012,104.996,0.0101326,0.176447,20.8894,78.5592,-0.442523,0.0,0.0
588,146.75,70.6768,77.6639,136.875,100.025,105.474,0.0104873,0.172524,20.8902,78.5592,-0.482715,0.0,0.0
591,147.5,70.548,77.465,137.564,100.015,105.302,0.0109228,0.169231,20.8909,78.5692,-0.468808,0.0,0.0
594,148.25,70.1154,78.002,141.973,100.006,104.98,0.0114219,0.165641,20.8919,78.4991,-0.441777,0.0,0.0
597,149,69.5891,76.9351,137.574,99.9994,106.094,0.0118481,0.163024,20.8934,78.4791,-0.538421,0.0,0.0
600,149.75,69.6163,76.4248,133.244,100.014,106.216,0.0121407,0.159638,20.8946,78.5492,-0.547461,0.0,0.0
603,150.5,68.1704,75.555,137.068,100.001,104.842,0.0125269,0.156825,20.896,78.5392,-0.430221,0.0,0.0
606,151.25,67.2873,74.5645,136.4,99.9787,105.347,0.0128908,0.154185,20.8977,78.409,-0.476005,0.0,0.0
609,152,66.7486,74.4727,137.764,99.9826,105.757,0.0131952,0.151327,20.8989,78.4191,-0.510971,0.0,0.0
612,152.75,66.5106,73.819,143.877,99.9854,105.552,0.0134353,0.149546,20.8998,78.5492,-0.493069,0.0,0.0
615,153.5,66.4611,74.1203,138.851,99.9842,105.518,0.0136127,0.147076,20.9004,78.5392,-0.490267,0.0,0.0
618,154.25,66.0134,73.3887,141.488,99.9599,105.251,0.013714,0.144971,20.9013,78.4291,-0.469425,0.0,0.0
621,155,65.4887,73.0815,139.153,99.9591,105.228,0.0137473,0.142915,20.9021,78.409,-0.467511,0.0,0.0
624,155.75,65.6101,72.9563,137.152,99.9503,105.479,0.0137248,0.140838,20.9028,78.4791,-0.489976,0.0,0.0
627,156.5,65.493,72.6363,138.796,99.9479,105.993,0.0136578,0.138934,20.9038,78.4591,-0.534415,0.0,0.0
630,157.25,65.0164,72.2224,135.794,99.9403,105.17,0.0135333,0.13738,20.9046,78.359,-0.464116,0.0,0.0
633,158,64.7784,71.7657,134.957,99.9228,105.298,0.0134103,0.135753,20.9052,78.359,-0.476815,0.0,0.0
636,158.75,64.4728,71.0721,144.224,99.9423,104.786,0.0132427,0.13425,20.9056,78.4291,-0.430716,0.0,0.0
639,159.5,64.3334,71.0086,137.677,99.9176,105.024,0.0130645,0.132867,20.9059,78.4191,-0.453556,0.0,0.0
642,160.25,63.4656,71.0387,148.018,99.9016,104.876,0.0128897,0.1316,20.9061,78.339,-0.442203,0.0,0.0
645,161,63.6976,70.7104,138.109,99.8912,105.642,0.012726,0.130374,20.9063,78.299,-0.509411,0.0,0.0
648,161.75,63.4967,70.5165,138.47,99.888,105.467,0.0125363,0.129351,20.9064,78.369,-0.49456,0.0,0.0
651,162.5,63.0978,69.9288,137.502,99.8812,104.86,0.0123558,0.128277,20.9065,78.369,-0.442691,0.0,0.0
654,163.25,62.6943,70.2993,138.889,99.8701,104.801,0.0121519,0.127308,20.9065,78.329,-0.438549,0.0,0.0
657,164,62.4959,70.0488,136.816,99.8497,105.106,0.0119297,0.126415,20.9068,78.2589,-0.466838,0.0,0.0
660,164.75,62.4382,69.4703,136.782,99.8533,104.292,0.0117362,0.125584,20.9074,78.299,-0.395824,0.0,0.0
663,165.5,62.08,69.1831,139.751,99.8473,104.886,0.0115547,0.124588,20.9079,78.349,-0.44801,0.0,0.0
666,166.25,62.4563,69.066,141.663,99.8361,105.613,0.0113978,0.123749,20.9082,78.329,-0.511871,0.0,0.0
669,167,61.9844,69.0203,137.669,99.8313,104.636,0.0112575,0.122944,20.9084,78.2289,-0.427795,0.0,0.0
672,167.75,61.4196,68.1346,138.158,99.8134,105.088,0.0111284,0.122185,20.9086,78.2489,-0.468629,0.0,0.0
675,168.5,61.2784,68.1819,141.561,99.817,104.553,0.0109976,0.121483,20.9087,78.2789,-0.421818,0.0,0.0
678,169.25,61.2552,68.3583,138.037,99.817,104.619,0.0109023,0.120842,20.9088,78.2789,-0.427618,0.0,0.0
681,170,61.2811,68.2806,134.512,99.789,105.014,0.0108108,0.120149,20.9089,78.1889,-0.464453,0.0,0.0
684,170.75,60.2505,67.7858,141.036,99.7866,104.586,0.0107349,0.119559,20.9091,78.2089,-0.427524,0.0,0.0
687,171.5,60.6597,67.7909,141.415,99.7762,105.231,0.0106538,0.119092,20.9093,78.2689,-0.484368,0.0,0.0
690,172.25,60.5695,67.5622,137.281,99.7874,104.533,0.0105837,0.118676,20.9094,78.2689,-0.422788,0.0,0.0
693,173,60.7063,66.8956,138.584,99.7718,104.839,0.0104831,0.118244,20.909,78.1388,-0.450865,0.0,0.0
696,173.75,60.4133,67.123,135.298,99.7499,104.871,0.0103699,0.1178,20.9086,78.1388,-0.455565,0.0,0.0
699,174.5,60.3531,66.8575,136.21,99.7595,104.739,0.0102508,0.117422,20.9082,78.2189,-0.443312,0.0,0.0
702,175.25,59.8766,66.6702,139.944,99.7519,105.207,0.0101306,0.117023,20.908,78.2189,-0.484565,0.0,0.0
705,176,59.7143,66.4391,139.644,99.7347,104.992,0.00998437,0.116672,20.9078,78.1488,-0.467455,0.0,0.0
708,176.75,59.7126,66.1846,136.602,99.7183,104.601,0.00982301,0.116314,20.9077,78.1088,-0.435046,0.0,0.0
711,177.5,59.3576,66.1995,138.641,99.7231,105.056,0.00970537,0.11593,20.9076,78.1788,-0.474091,0.0,0.0
714,178.25,59.4973,66.2191,138.868,99.7175,105.022,0.00957399,0.115607,20.9075,78.1989,-0.471636,0.0,0.0
717,179,59.4603,65.9586,138.38,99.706,105.069,0.0094735,0.115346,20.9075,78.1688,-0.47675,0.0,0.0
720,179.75,59.1629,65.491,137.371,99.7159,105.355,0.00939219,0.115143,20.9075,78.0988,-0.500611,0.0,0.0
723,180.5,58.995,65.1449,138.802,99.7,104.667,0.00932652,0.114909,20.9074,78.1088,-0.442479,0.0,0.0
726,181.25,59.2086,65.3441,136.838,99.7115,105.194,0.00927525,0.114702,20.9074,78.1588,-0.487076,0.0,0.0
729,182,58.8545,65.2315,141.736,99.6944,105.428,0.00923403,0.114469,20.9074,78.1488,-0.508838,0.0,0.0
732,182.75,58.9802,65.1198,136.792,99.6804,104.557,0.00919939,0.114247,20.9074,78.0687,-0.434667,0.0,0.0
735,183.5,58.5233,64.8991,138.205,99.686,105.284,0.00915879,0.113995,20.9074,78.0988,-0.497196,0.0,0.0
738,184.25,58.5683,64.5337,135.398,99.69,105.402,0.00912266,0.113648,20.9074,78.1188,-0.507023,0.0,0.0
741,185,58.4331,64.1148,135.021,99.6836,105.067,0.00907078,0.11331,20.9074,78.1088,-0.478635,0.0,0.0
744,185.75,58.1163,64.2157,138.049,99.6664,105.301,0.00901131,0.112996,20.9074,77.9887,-0.500422,0.0,0.0
747,186.5,58.323,63.713,140.1,99.6808,104.841,0.00894958,0.112716,20.908,77.9987,-0.459289,0.0,0.0
750,187.25,57.9932,63.6913,141.005,99.674,105.661,0.00887365,0.11247,20.9084,78.0788,-0.530848,0.0,0.0
753,188,57.9627,63.7454,140.484,99.6569,104.92,0.00879661,0.112271,20.9088,78.0587,-0.468353,0.0,0.0
756,188.75,58.0364,63.7093,140.647,99.6628,104.838,0.00872518,0.112025,20.909,77.9687,-0.460656,0.0,0.0
759,189.5,57.8493,63.2369,142.417,99.662,104.929,0.00866277,0.111788,20.9092,77.9286,-0.4687,0.0,0.0
762,190.25,57.7321,63.267,138.591,99.6676,104.766,0.00860709,0.111576,20.9093,77.9887,-0.453963,0.0,0.0
765,191,57.5927,63.2201,142.727,99.6604,104.977,0.00856215,0.111396,20.9094,77.9787,-0.472945,0.0,0.0
768,191.75,57.5298,63.0046,139.257,99.6584,104.933,0.00852939,0.111244,20.9095,77.9086,-0.46934,0.0,0.0
771,192.5,57.1571,62.6411,141.662,99.6445,105.133,0.00848004,0.111134,20.9095,77.9186,-0.487939,0.0,0.0
774,193.25,57.8012,63.1386,136.578,99.6584,105.448,0.00842382,0.111053,20.91,77.9787,-0.513868,0.0,0.0
777,194,57.3047,62.2539,139.87,99.6485,105.138,0.0083668,0.11098,20.9105,77.9587,-0.488042,0.0,0.0
780,194.75,57.3824,62.7037,140.287,99.6461,105.487,0.00830233,0.110921,20.9109,77.8686,-0.518379,0.0,0.0
783,195.5,56.793,62.2653,139.131,99.6365,105.39,0.0082362,0.110878,20.9112,77.8486,-0.510897,0.0,0.0
786,196.25,56.9155,62.1587,139.629,99.6477,104.799,0.00817197,0.110724,20.9114,77.9186,-0.458718,0.0,0.0
789,197,56.5537,62.4544,137.58,99.6561,105.37,0.00811789,0.110555,20.9116,77.9386,-0.5074,0.0,0.0
792,197.75,56.2647,61.8699,140.937,99.6545,104.751,0.0080778,0.110407,20.9117,77.8385,-0.453914,0.0,0.0
795,198.5,56.7377,62.0529,144.865,99.6449,104.662,0.00804743,0.110178,20.9118,77.8285,-0.447001,0.0,0.0
798,199.25,56.4428,61.7459,140.429,99.6541,104.377,0.0080075,0.109996,20.9118,77.9286,-0.421344,0.0,0.0
801,200,56.2818,61.3363,138.888,99.6672,105.153,0.0079561,0.109872,20.9119,77.9086,-0.487575,0.0,0.0
804,200.75,55.8607,61.2972,142.884,99.6565,104.481,0.00789348,0.109808,20.9119,77.8686,-0.430229,0.0,0.0
807,201.5,55.8521,61.1238,142.554,99.6569,104.954,0.00781484,0.109747,20.9119,77.8185,-0.471282,0.0,0.0
810,202.25,55.9777,61.8056,141.516,99.6644,104.864,0.00773343,0.109696,20.9119,77.8986,-0.462778,0.0,0.0
813,203,55.7383,61.49,140.157,99.6788,105.023,0.00765697,0.10972,20.9117,77.9086,-0.475249,0.0,0.0
816,203.75,55.9371,61.0672,140.693,99.678,104.962,0.00759942,0.109695,20.9112,77.8986,-0.470052,0.0,0.0
819,204.5,56.2584,60.6803,136.321,99.6656,104.259,0.00756747,0.109658,20.9108,77.8185,-0.410034,0.0,0.0
822,205.25,56.019,60.785,140.087,99.672,104.446,0.0075613,0.109591,20.9105,77.8486,-0.425787,0.0,0.0
825,206,55.8078,60.3011,138.163,99.6848,105.13,0.00757016,0.109527,20.9102,77.8886,-0.484023,0.0,0.0
828,206.75,56.1225,60.9668,140.543,99.688,104.931,0.00759946,0.109475,20.9101,77.8886,-0.466448,0.0,0.0
831,207.5,56.1249,60.7582,140.722,99.674,105.191,0.00763712,0.109417,20.91,77.7785,-0.490268,0.0,0.0
834,208.25,55.7245,60.5556,136.218,99.6792,104.736,0.00766457,0.109367,20.9099,77.7785,-0.450362,0.0,0.0
837,209,55.7237,60.6143,137.565,99.6992,104.879,0.00767456,0.109317,20.9103,77.8586,-0.460934,0.0,0.0
840,209.75,55.8055,60.0908,135.029,99.7084,105.187,0.0076647,0.109224,20.9107,77.8686,-0.486743,0.0,0.0
843,210.5,55.6539,59.6676,141.804,99.6916,105.57,0.00760867,0.109109,20.9111,77.7485,-0.521406,0.0,0.0
846,211.25,55.9512,60.0815,139.225,99.688,104.86,0.00752854,0.108987,20.9113,77.7184,-0.460274,0.0,0.0
849,212,55.7436,59.8747,143.197,99.7096,104.914,0.00745338,0.108837,20.9115,77.8185,-0.463034,0.0,0.0
852,212.75,55.2765,60.0366,140.576,99.7064,104.831,0.00737593,0.108685,20.9116,77.8285,-0.456097,0.0,0.0
855,213.5,55.9956,59.9965,140.222,99.712,104.788,0.00728074,0.108571,20.9117,77.7385,-0.451873,0.0,0.0
858,214.25,55.0815,59.7189,137.152,99.7072,105.091,0.00720051,0.108514,20.9118,77.7084,-0.478552,0.0,0.0
861,215,55.1756,60.1606,137.915,99.7163,104.93,0.00714203,0.108457,20.9118,77.7885,-0.463821,0.0,0.0
864,215.75,55.3209,59.4267,138.261,99.7179,105.138,0.00710446,0.10841,20.9119,77.7785,-0.481661,0.0,0.0
867,216.5,55.5267,59.5724,138.92,99.7132,104.677,0.0070739,0.108396,20.9121,77.7385,-0.442098,0.0,0.0
870,217.25,55.3864,59.266,143.384,99.7179,105.584,0.00704251,0.108379,20.9123,77.6784,-0.520205,0.0,0.0
873,218,55.3104,59.3969,136.764,99.7199,105.186,0.00700952,0.108353,20.9125,77.7385,-0.485648,0.0,0.0
876,218.75,54.8326,59.266,140.44,99.7211,104.783,0.00697849,0.108334,20.9126,77.7385,-0.450605,0.0,0.0
879,219.5,55.1228,59.0002,143.576,99.7251,104.981,0.00695131,0.108259,20.9127,77.7385,-0.467431,0.0,0.0
882,220.25,55.0815,59.0037,137.805,99.7187,105.148,0.00693483,0.108205,20.9127,77.6484,-0.482445,0.0,0.0
885,221,55.1146,58.7137,139.664,99.7267,104.564,0.00692851,0.108165,20.9128,77.6684,-0.431029,0.0,0.0
888,221.75,55.1627,58.9984,139.946,99.7275,105.005,0.00693652,0.108055,20.9128,77.7184,-0.46928,0.0,0.0
891,222.5,54.8707,58.7847,141.127,99.7367,104.803,0.00694624,0.107932,20.9128,77.6984,-0.450865,0.0,0.0
894,223.25,55.0165,58.8229,140.46,99.7279,104.892,0.00695497,0.107824,20.9129,77.6083,-0.459444,0.0,0.0
897,224,54.5286,58.9035,141.509,99.7359,104.76,0.00696675,0.107802,20.913,77.6184,-0.447261,0.0,0.0
900,224.75,54.8017,58.5285,139.121,99.7487,105.286,0.00697914,0.107848,20.9132,77.6884,-0.491631,0.0,0.0
903,225.5,54.6282,58.7812,138.964,99.7515,105.493,0.00698978,0.107946,20.9133,77.6784,-0.509262,0.0,0.0
906,226.25,54.593,58.3175,136.774,99.7547,104.677,0.0070192,0.107933,20.9135,77.5683,-0.438349,0.0,0.0
909,227,54.7012,58.2988,136.253,99.7627,105.046,0.00704065,0.10785,20.9135,77.5583,-0.469587,0.0,0.0
912,227.75,53.9752,58.3509,137.83,99.7635,105.283,0.00709059,0.107725,20.9138,77.6384,-0.490089,0.0,0.0
915,228.5,55.0042,58.7168,142.265,99.7742,105.218,0.007127,0.107635,20.9144,77.6284,-0.483422,0.0,0.0
918,229.25,54.5016,57.8763,142.085,99.767,105.03,0.00714954,0.107538,20.9149,77.5483,-0.467861,0.0,0.0
921,230,54.5339,58.0872,138.212,99.7587,105.176,0.00715248,0.107417,20.9148,77.5483,-0.481219,0.0,0.0
924,230.75,54.5703,57.638,137.767,99.779,105.034,0.00714322,0.107371,20.9145,77.6284,-0.46712,0.0,0.0
927,231.5,54.3664,57.7639,140.577,99.771,104.975,0.00712382,0.107356,20.9143,77.6284,-0.462735,0.0,0.0
930,232.25,54.1438,57.8294,139.207,99.7678,104.974,0.00710295,0.107345,20.9142,77.5283,-0.462909,0.0,0.0
933,233,54.2704,57.6964,140.463,99.7503,104.9,0.00708545,0.107296,20.9141,77.5083,-0.458068,0.0,0.0
936,233.75,54.116,57.8137,135.817,99.7674,105.076,0.00708132,0.107204,20.914,77.5883,-0.471802,0.0,0.0
939,234.5,54.7608,57.9606,138.134,99.7635,105.152,0.00709304,0.107082,20.9138,77.6083,-0.478756,0.0,0.0
942,235.25,53.8666,58.0342,137.327,99.7587,104.237,0.00712506,0.106942,20.9136,77.5283,-0.399657,0.0,0.0
945,236,53.9417,57.9556,139.953,99.7447,104.809,0.0071564,0.106854,20.9134,77.4882,-0.450723,0.0,0.0
948,236.75,53.9915,57.4973,136.616,99.7631,105.602,0.00719293,0.106815,20.9135,77.5383,-0.517602,0.0,0.0
951,237.5,53.9187,57.3399,137.289,99.7663,104.555,0.00722678,0.106715,20.914,77.5583,-0.426677,0.0,0.0
954,238.25,54.3894,57.3355,140.135,99.7547,104.289,0.00725147,0.106612,20.9143,77.5183,-0.404541,0.0,0.0
957,239,53.9306,57.5961,138.158,99.7455,104.76,0.00727073,0.106435,20.9146,77.4582,-0.446347,0.0,0.0
960,239.75,53.8977,56.9703,139.805,99.7539,105.244,0.00728464,0.10632,20.9146,77.5183,-0.487538,0.0,0.0
963,240.5,54.106,57.0902,142.043,99.7535,105.516,0.00729364,0.106227,20.9146,77.5183,-0.5111,0.0,0.0
966,241.25,53.7486,57.0541,139.28,99.7503,105.64,0.00729087,0.106134,20.9146,77.4882,-0.522026,0.0,0.0
969,242,53.7249,56.7876,137.071,99.7295,105.197,0.00726556,0.106037,20.9146,77.4182,-0.485748,0.0,0.0
972,242.75,54.09,57.2499,137.048,99.7319,105.299,0.00723457,0.105914,20.9146,77.4482,-0.49429,0.0,0.0
975,243.5,53.86,56.9164,138.796,99.7379,105.177,0.007193,0.105825,20.9146,77.4882,-0.483191,0.0,0.0
978,244.25,53.6023,56.8293,136.165,99.7375,105.253,0.0071546,0.10576,20.9146,77.4682,-0.489848,0.0,0.0
981,245,54.0625,56.555,136.139,99.7303,105.638,0.00709244,0.105651,20.9146,77.3882,-0.523731,0.0,0.0
984,245.75,53.7173,56.5251,138.501,99.7231,104.979,0.00702184,0.105544,20.9149,77.3882,-0.467379,0.0,0.0
987,246.5,53.85,57.1419,136.752,99.7239,104.905,0.00695959,0.105453,20.915,77.4682,-0.460902,0.0,0.0
990,247.25,53.682,57.2902,136.359,99.7299,104.483,0.00686737,0.105308,20.9151,77.4482,-0.423719,0.0,0.0
993,248,53.8747,56.5807,140.115,99.7096,104.756,0.00680014,0.105245,20.9148,77.3681,-0.449275,0.0,0.0
996,248.75,54.0379,57.0699,141.909,99.7159,105.007,0.00674393,0.105217,20.9143,77.3481,-0.470534,0.0,0.0
999,249.5,53.4759,56.5111,138.373,99.7092,104.457,0.00671179,0.105277,20.914,77.4282,-0.423339,0.0,0.0
1002,250.25,53.9226,56.5213,140.037,99.7127,105.02,0.00669545,0.105322,20.9142,77.4082,-0.471956,0.0,0.0
1005,251,53.5208,56.2083,140.188,99.6972,104.736,0.00668922,0.105334,20.9145,77.3481,-0.448722,0.0,0.0
1008,251.75,53.5253,56.514,141.538,99.6876,104.734,0.00668468,0.105335,20.9148,77.2981,-0.449401,0.0,0.0
1011,252.5,53.7626,56.366,136.169,99.6948,105.002,0.00667632,0.105323,20.915,77.3781,-0.471995,0.0,0.0
1014,253.25,54.1096,56.2799,139.354,99.6984,104.781,0.00666554,0.105274,20.9151,77.3982,-0.452485,0.0,0.0
1017,254,53.4872,56.552,137.397,99.6852,105.224,0.00665661,0.105238,20.9152,77.3381,-0.492129,0.0,0.0
1020,254.75,53.9928,56.4153,138.525,99.6652,105.221,0.00665538,0.105155,20.9152,77.2881,-0.493641,0.0,0.0
1023,255.5,53.0921,56.5546,141.891,99.6728,104.837,0.0066635,0.10504,20.9152,77.3581,-0.459706,0.0,0.0
1026,256.25,53.6575,56.3089,139.063,99.6668,104.948,0.00669104,0.104905,20.915,77.3581,-0.469902,0.0,0.0
1029,257,53.4639,56.3216,137.937,99.6557,104.499,0.00672176,0.104792,20.9154,77.3381,-0.431871,0.0,0.0
1032,257.75,53.6284,56.0577,140.017,99.6485,104.834,0.00676236,0.104684,20.9158,77.268,-0.461617,0.0,0.0
1035,258.5,53.6389,56.0204,141.859,99.6437,105.16,0.00680819,0.104589,20.9161,77.258,-0.490389,0.0,0.0
1038,259.25,53.5178,56.271,140.536,99.6557,104.473,,0.104514,,77.3281,-0.429596,0.0,0.0
1041,260,53.5803,56.1096,139.823,99.6501,105.321,,0.104438,,77.3381,-0.503707,0.0,0.0
1044,260.75,53.065,55.9923,138.88,99.6257,105.347,,0.104398,,77.248,-0.508148,0.0,0.0
1047,261.5,53.3247,55.8338,140.115,99.6277,104.153,,0.104352,,77.238,-0.404257,0.0,0.0
1050,262.25,53.711,55.9685,137.696,99.6333,104.999,,,,77.3181,-0.477376,0.0,0.0
1053,263,53.2269,55.8003,138.863,99.6265,105.254,,,,77.3181,-0.50002,0.0,0.0
1056,263.75,53.3489,56.0488,137.313,99.6049,104.218,,,,77.218,-0.412039,0.0,0.0
1059,264.5,53.3488,56.3484,139.128,99.6077,104.891,,,,77.228,-0.470338,0.0,0.0
1062,265.25,53.591,55.8174,139.521,99.6117,105.01,,,,77.3581,-0.480243,0.0,0.0
1065,266,53.5462,56.3246,137.443,99.5966,104.649,,,,77.3281,-0.450317,0.0,0.0
1068,266.75,53.1469,55.9338,140.221,99.5942,105.101,,,,77.208,-0.489766,0.0,0.0
1071,267.5,52.8681,55.7422,138.631,99.583,104.593,,,,77.208,-0.446661,0.0,0.0
1074,268.25,53.3991,55.9348,133.319,99.5918,105.374,,,,77.2881,-0.513583,0.0,0.0
1077,269,53.4331,56.2759,140.634,99.5974,105.068,,,,77.2981,-0.486628,0.0,0.0
1079,269.5,53.1624,55.3629,140.787,99.5766,104.471,,,,77.208,-0.436621,0.0,0.0