File: 01_Data/Luan_Panel/Cone/Luan_Panel_Cone_HF25Scan_220915_R2.csv
Names,Time,Stack TC,Smoke TC,Exh Press,Smoke Comp,Smoke Meas,CO Meter,CO2 Meter,O2 Meter,Sample Mass,Ext Coeff,Start Test,Flame Verif
Chan Gain,,500,500,1,1,1,1,1,1,1,1,1.0,1.0
Offset,,0,0,0.146632,0,0,0,0,0,0,0,0.0,0.0
Gain,,1,1,25.011,13.0826,14.7555,1,1,1,1.00088,1.03743,1.0,1.0
Units,sec,C,C,Pa,%,%,%,%,%,g,/m,,
Baseline,,39.4043,39.9612,147.357,100.358,104.806,0.000375395,0.0456617,20.9847,-449.3,-0.394632,,
3,0.5,38.301,39.178,147.046,99.6049,103.966,0.000597566,0.0603132,20.9694,94.193,-0.389954,0.0,0.0
6,1.25,36.8043,37.4656,147.843,99.6089,104.181,0.000580101,0.0596233,20.9708,94.0929,-0.40841,0.0,0.0
9,2,36.7017,37.3372,149.53,99.6117,103.89,0.000561249,0.0584247,20.9727,94.1429,-0.382669,0.0,0.0
12,2.75,36.8871,37.919,146.129,99.6109,103.792,0.000539746,0.0571471,20.9748,94.0929,-0.374218,0.0,0.0
15,3.5,37.0017,38.1125,147.398,99.6241,104.245,0.000515261,0.0558825,20.9764,94.1329,-0.412607,0.0,0.0
18,4.25,36.8496,37.8133,148.855,99.6289,103.309,0.000497411,0.0546851,20.9775,94.1329,-0.330074,0.0,0.0
21,5,36.9172,37.6772,144.738,99.6373,103.986,0.000454743,0.0533163,20.9788,94.1129,-0.388773,0.0,0.0
24,5.75,37.0738,37.5966,150.356,99.6493,104.148,0.000411413,0.0520684,20.9802,94.0728,-0.401815,0.0,0.0
27,6.5,37.2085,37.8072,147.275,99.6481,103.882,0.000374615,0.0509424,20.9815,94.0929,-0.37868,0.0,0.0
30,7.25,36.8025,37.5565,149.151,99.6696,103.659,0.000342559,0.049934,20.9825,94.0929,-0.357164,0.0,0.0
33,8,37.2762,37.925,147.83,99.6776,103.93,0.000328969,0.0491111,20.9835,94.1029,-0.380163,0.0,0.0
36,8.75,37.6293,37.6703,144.37,99.6896,103.714,0.00033224,0.0483613,20.9846,94.0728,-0.360124,0.0,0.0
39,9.5,37.5758,37.8219,151.056,99.71,104.059,0.000350031,0.0477355,20.9854,94.0829,-0.38852,0.0,0.0
42,10.25,37.2098,38.0972,145.801,99.7135,103.823,0.000380449,0.0472427,20.986,94.0728,-0.367534,0.0,0.0
45,11,37.1422,37.9856,148.331,99.7303,103.94,0.000400048,0.0468211,20.9864,94.0628,-0.37622,0.0,0.0
48,11.75,36.9837,37.8652,148.82,99.7395,103.877,0.000409931,0.0464147,20.9867,94.0428,-0.3699,0.0,0.0
51,12.5,37.3486,38.0172,149.886,99.7463,103.723,0.000406128,0.0460352,20.9869,94.0528,-0.35578,0.0,0.0
54,13.25,37.786,38.2205,147.113,99.7714,103.263,0.000393514,0.045723,20.9871,94.0528,-0.313057,0.0,0.0
57,14,37.339,37.9165,147.36,99.7758,103.821,0.000375515,0.0454163,20.9872,94.0428,-0.361692,0.0,0.0
60,14.75,36.9963,37.39,150.291,99.7874,104.061,0.000364137,0.0451854,20.9877,94.0428,-0.381611,0.0,0.0
63,15.5,36.6159,37.642,147.65,99.7974,104.262,0.00036295,0.0450045,20.9883,94.0428,-0.398286,0.0,0.0
66,16.25,37.2951,38.0503,145.203,99.8329,103.994,0.000383254,0.0448529,20.9887,94.0528,-0.371592,0.0,0.0
69,17,37.0878,37.8325,144.685,99.8377,104.11,0.000413469,0.0447424,20.9891,94.0428,-0.381356,0.0,0.0
72,17.75,37.0794,37.7876,144.129,99.8409,104.299,0.000435497,0.0446618,20.9895,94.0328,-0.397502,0.0,0.0
75,18.5,37.4026,37.8312,145.836,99.8589,103.688,0.000451555,0.0445452,20.9898,94.0028,-0.342392,0.0,0.0
78,19.25,37.0853,37.4897,146.189,99.8617,104.09,0.00045628,0.044474,20.99,94.0228,-0.377401,0.0,0.0
81,20,37.2698,38.0098,149.591,99.8892,103.625,0.000424259,0.0444281,20.9901,94.0128,-0.334092,0.0,0.0
84,20.75,37.4014,38.1019,150.107,99.8828,103.456,0.000360081,0.0443946,20.9902,93.9928,-0.319833,0.0,0.0
87,21.5,37.3156,38.0237,147.487,99.8908,103.923,0.000269321,0.0443702,20.9901,93.9427,-0.360088,0.0,0.0
90,22.25,37.3732,37.703,145.365,99.9096,104.129,0.000159636,0.0443246,20.9895,93.9828,-0.376461,0.0,0.0
93,23,36.956,37.599,146.617,99.922,104.152,7.60138e-05,0.0442796,20.9892,93.9728,-0.377301,0.0,0.0
96,23.75,37.3134,37.868,148.372,99.9259,104.269,2.6982e-05,0.0443655,20.9889,93.9728,-0.3872,0.0,0.0
99,24.5,37.3514,38.0808,144.087,99.924,104.483,1.43056e-05,0.0444836,20.9887,93.9227,-0.405992,0.0,0.0
102,25.25,37.6385,38.5302,146.04,99.9447,104.296,7.10264e-05,0.0446299,20.9886,93.9427,-0.38785,0.0,0.0
105,26,37.3237,38.0241,150.953,99.9595,103.969,0.000140496,0.044799,20.9885,93.9427,-0.357895,0.0,0.0
108,26.75,37.4791,38.1613,145.576,99.9595,103.702,0.000260865,0.0450015,20.9884,93.9327,-0.334452,0.0,0.0
111,27.5,37.3605,38.468,149.691,99.9603,103.594,0.000366981,0.0452462,20.9881,93.9027,-0.32497,0.0,0.0
114,28.25,37.4836,38.0564,146.578,99.985,104.021,0.000452171,0.0454661,20.9879,93.9327,-0.3601,0.0,0.0
117,29,37.2435,37.9197,148.102,99.9954,104.133,0.000493314,0.0456808,20.9877,93.9227,-0.368999,0.0,0.0
120,29.75,37.5238,38.2196,145.148,99.9934,104.446,0.000504947,0.0458753,20.9876,93.9127,-0.396489,0.0,0.0
123,30.5,37.7356,38.3524,144.439,100.012,103.765,0.00049916,0.046042,20.9875,93.8526,-0.335302,0.0,0.0
126,31.25,37.3361,37.6871,147.385,99.9922,104.181,0.000483929,0.0461913,20.9875,93.8827,-0.37346,0.0,0.0
129,32,37.5782,37.7621,145.573,100.013,104.159,0.00047025,0.0463485,20.9874,93.8727,-0.369682,0.0,0.0
132,32.75,37.1904,38.2858,148.316,100.03,103.535,0.000455874,0.0465256,20.9874,93.8627,-0.313464,0.0,0.0
135,33.5,37.4631,38.364,146.449,100.032,103.955,0.000438417,0.0466943,20.9874,93.8126,-0.350096,0.0,0.0
138,34.25,37.7968,38.1857,147.36,100.032,103.973,0.000412239,0.046859,20.9874,93.8026,-0.351637,0.0,0.0
141,35,37.0901,37.8804,144.823,100.059,103.761,0.000380086,0.0469968,20.9874,93.8326,-0.330617,0.0,0.0
144,35.75,37.3269,37.7236,147.291,100.057,104.241,0.000361461,0.0470972,20.9871,93.8226,-0.372767,0.0,0.0
147,36.5,37.5949,37.4794,148.279,100.075,104.528,0.00033872,0.0471844,20.9866,93.7626,-0.396181,0.0,0.0
150,37.25,37.2888,38.1853,147.33,100.063,103.452,0.000324222,0.0472684,20.9861,93.7626,-0.303165,0.0,0.0
153,38,37.5403,38.4031,146.815,100.07,103.592,0.000318101,0.0473547,20.9858,93.7826,-0.314706,0.0,0.0
156,38.75,37.5619,38.4536,146.935,100.085,103.874,0.000316213,0.0473849,20.9858,93.7926,-0.338093,0.0,0.0
159,39.5,37.6609,37.9708,148.197,100.089,103.883,0.000319237,0.0474198,20.9859,93.7526,-0.338634,0.0,0.0
162,40.25,37.6627,37.9179,147.17,100.086,103.593,0.000321442,0.0474071,20.9859,93.7225,-0.313409,0.0,0.0
165,41,37.5937,38.0495,145.009,100.11,103.519,0.00030387,0.0474673,20.9859,93.7426,-0.304742,0.0,0.0
168,41.75,37.431,38.4079,145.902,100.096,103.919,0.00028495,0.0475408,20.9859,93.7326,-0.341099,0.0,0.0
171,42.5,37.5282,38.1723,146.209,100.104,103.398,0.000267266,0.0475944,20.9859,93.7125,-0.294595,0.0,0.0
174,43.25,37.7095,38.4356,147.466,100.11,103.741,0.000252175,0.0476334,20.9859,93.6625,-0.324233,0.0,0.0
177,44,37.7922,38.3026,147.418,100.12,102.963,0.000244659,0.0476692,20.9859,93.7025,-0.25489,0.0,0.0
180,44.75,37.6683,38.0238,144.022,100.117,103.456,0.000242846,0.0477078,20.9859,93.6925,-0.298581,0.0,0.0
183,45.5,37.4982,38.1181,146.334,100.125,103.356,0.000243088,0.0477161,20.9859,93.6725,-0.289018,0.0,0.0
186,46.25,37.8651,38.014,146.046,100.121,102.857,0.000262822,0.0477083,20.9859,93.6024,-0.245344,0.0,0.0
189,47,36.9123,37.7847,143.839,100.124,102.798,0.000285547,0.0476893,20.9859,93.6124,-0.239872,0.0,0.0
192,47.75,37.9662,38.4704,148.403,100.143,102.672,0.000330025,0.047663,20.9859,93.6124,-0.226959,0.0,0.0
195,48.5,38.0346,38.1106,150.777,100.136,103.219,0.000378358,0.0476578,20.9859,93.6024,-0.275904,0.0,0.0
198,49.25,37.3529,38.3648,147.795,100.131,103.189,0.00042875,0.0476598,20.9859,93.5324,-0.273715,0.0,0.0
201,50,37.6826,38.4482,145.199,100.148,103.157,0.00047981,0.0477447,20.9859,93.5624,-0.269448,0.0,0.0
204,50.75,38.3327,38.6698,147.998,100.15,102.825,0.000528054,0.0478567,20.9861,93.5424,-0.239903,0.0,0.0
207,51.5,38.1,38.8046,145.161,100.15,102.95,0.000571147,0.0479634,20.9867,93.5224,-0.250899,0.0,0.0
210,52.25,37.9859,38.7103,148.956,100.141,102.594,0.000608074,0.0480133,20.9871,93.4723,-0.220196,0.0,0.0
213,53,37.3886,38.5811,146.363,100.146,103.168,0.000644668,0.0480525,20.9874,93.4723,-0.270546,0.0,0.0
216,53.75,37.8987,38.6945,144.703,100.168,103.076,0.000687888,0.0481061,20.9876,93.4723,-0.260444,0.0,0.0
219,54.5,38.0725,38.8894,145.379,100.159,102.963,0.000745625,0.048165,20.9878,93.4523,-0.251254,0.0,0.0
222,55.25,37.8931,38.5994,149.407,100.16,102.715,0.000792233,0.0482226,20.9879,93.4123,-0.229229,0.0,0.0
225,56,37.9774,38.5212,144.511,100.157,102.981,0.000833938,0.0482895,20.988,93.3622,-0.253067,0.0,0.0
228,56.75,37.7604,38.3331,144.447,100.161,102.465,0.000860842,0.04838,20.988,93.3922,-0.206948,0.0,0.0
231,57.5,37.8164,38.714,145.614,100.176,102.341,0.000875291,0.0484638,20.9881,93.3822,-0.194605,0.0,0.0
234,58.25,37.9434,38.7194,144.058,100.176,102.822,0.000876995,0.0485843,20.9881,93.3522,-0.237194,0.0,0.0
237,59,38.0857,38.3408,145.811,100.157,102.333,0.000876488,0.0487277,20.9881,93.3122,-0.195626,0.0,0.0
240,59.75,37.5652,39.3267,149.539,100.17,102.229,0.000876119,0.0488414,20.9879,93.3422,-0.185096,0.0,0.0
243,60.5,37.8243,38.6004,144.326,100.172,102.291,0.000888093,0.0488992,20.9874,93.3022,-0.190486,0.0,0.0
246,61.25,37.7317,38.5656,148.784,100.172,102.238,0.000898113,0.0489831,20.987,93.2822,-0.185797,0.0,0.0
249,62,38.0245,38.72,148.471,100.183,101.922,0.000907625,0.049062,20.9867,93.2221,-0.156637,0.0,0.0
252,62.75,37.4395,38.8399,145.419,100.18,102.058,0.000916496,0.0491612,20.9865,93.2521,-0.168985,0.0,0.0
255,63.5,38.22,38.5707,141.092,100.188,102.262,0.000926276,0.0492879,20.9867,93.2321,-0.186471,0.0,0.0
258,64.25,38.5202,39.0348,149.01,100.18,101.973,0.000942154,0.0494428,20.987,93.1921,-0.161393,0.0,0.0
261,65,37.8967,38.404,146.927,100.173,101.205,0.000967226,0.0496747,20.9872,93.132,-0.0933054,0.0,0.0
264,65.75,38.7263,38.8629,144.168,100.177,102.432,0.00100354,0.0498437,20.9874,93.152,-0.202541,0.0,0.0
267,66.5,37.878,38.8711,148.33,100.184,101.988,0.001051,0.0500265,20.9875,93.142,-0.162393,0.0,0.0
270,67.25,37.9503,38.9797,144.333,100.191,101.862,0.00112369,0.0501743,20.9876,93.112,-0.150527,0.0,0.0
273,68,38.4121,38.9374,146.013,100.191,101.314,0.00117223,0.0503072,20.9877,93.0419,-0.101472,0.0,0.0
276,68.75,38.0394,38.2004,144.991,100.185,101.661,0.00125284,0.0504833,20.9877,93.0219,-0.133067,0.0,0.0
279,69.5,38.3145,38.89,148.311,100.192,101.932,0.00133309,0.050723,20.9871,93.0419,-0.156724,0.0,0.0
282,70.25,37.936,38.9017,141.327,100.18,101.296,0.00141041,0.0509452,20.9865,93.0219,-0.100793,0.0,0.0
285,71,38.3891,39.0146,147.211,100.174,101.392,0.00150249,0.0513993,20.986,92.9819,-0.109985,0.0,0.0
288,71.75,38.4972,38.5989,145.828,100.176,101.767,0.00160041,0.0517188,20.9831,92.9218,-0.143449,0.0,0.0
291,72.5,38.4572,38.9915,147.676,100.179,101.539,0.00169842,0.0541738,20.9758,92.9318,-0.122721,0.0,0.0
294,73.25,38.0574,38.7256,145.463,100.179,102.972,0.00180858,0.062558,20.9682,92.8918,-0.250244,0.0,1.0
297,74,38.1961,38.937,142.192,100.181,105.046,0.00190383,0.0765561,20.944,92.8017,-0.4315,0.0,1.0
300,74.75,38.4054,38.8214,142.153,100.172,104.634,0.00199882,0.0954382,20.9198,92.6416,-0.396533,0.0,1.0
303,75.5,38.3778,39.2051,137.38,100.184,104.468,0.00208413,0.122557,20.8912,92.6516,-0.38102,0.0,1.0
306,76.25,38.3651,39.3016,139.707,100.169,104.592,0.00217293,0.147406,20.8572,92.5815,-0.393219,0.0,1.0
309,77,39.3351,39.7341,132.18,100.179,103.744,0.00225912,0.174206,20.8228,92.5215,-0.318233,0.0,1.0
312,77.75,39.8731,39.5682,137.066,100.176,104.325,0.00231878,0.201222,20.8024,92.3814,-0.369303,0.0,1.0
315,78.5,39.2947,38.8475,134.633,100.186,103.887,0.00240271,0.226501,20.7681,92.3613,-0.330093,0.0,1.0
318,79.25,39.8802,39.0363,132.29,100.179,103.548,0.00248957,0.249027,20.7388,92.2613,-0.301038,0.0,1.0
321,80,40.0492,39.7538,130.555,100.177,103.179,0.00257408,0.270419,20.7155,92.1411,-0.268674,0.0,0.0
324,80.75,40.8352,39.7951,134.753,100.169,103.669,0.0026357,0.282594,20.6944,92.001,-0.312508,0.0,0.0
327,81.5,41.2772,39.8725,135.141,100.174,104.054,0.00267531,0.298253,20.6779,91.961,-0.345767,0.0,0.0
330,82.25,42.3371,40.3465,127.291,100.169,103.2,0.00269428,0.311022,20.6639,91.8709,-0.271262,0.0,0.0
333,83,42.6269,40.711,129.865,100.165,103.396,0.00270102,0.321022,20.6567,91.7808,-0.288921,0.0,0.0
336,83.75,42.844,41.2265,132.599,100.162,102.945,0.00270174,0.328505,20.6484,91.6107,-0.249449,0.0,0.0
339,84.5,43.8222,41.8465,132.874,100.156,103.267,0.00270598,0.333786,20.6424,91.5406,-0.278337,0.0,0.0
342,85.25,44.053,42.3391,130.414,100.151,103.978,0.00271065,0.337339,20.638,91.4806,-0.341253,0.0,0.0
345,86,44.4947,43.452,138.316,100.171,103.438,0.00272768,0.338165,20.6366,91.4105,-0.292023,0.0,0.0
348,86.75,45.2076,43.1393,134.743,100.149,102.872,0.00274525,0.338342,20.6383,91.3204,-0.244119,0.0,0.0
351,87.5,45.5647,43.7477,138.911,100.142,104.38,0.00275694,0.337141,20.6407,91.2504,-0.377174,0.0,0.0
354,88.25,46.4411,43.9875,136.271,100.156,103.481,0.00276286,0.333983,20.645,91.1803,-0.297243,0.0,0.0
357,89,46.3023,44.3976,133.217,100.134,103.514,0.00276271,0.331681,20.6494,91.1202,-0.302165,0.0,0.0
360,89.75,47.1515,44.689,132.827,100.132,104.329,0.00276137,0.326466,20.6551,91.0302,-0.373607,0.0,0.0
363,90.5,47.1802,45.1233,138.041,100.096,104.215,0.00276117,0.322088,20.6623,90.89,-0.366931,0.0,0.0
366,91.25,47.0624,45.3203,135.245,100.102,103.704,0.00276325,0.31791,20.6678,90.84,-0.321759,0.0,0.0
369,92,47.2886,46.2036,140.163,100.096,103.281,0.00278582,0.314303,20.6722,90.7599,-0.285011,0.0,0.0
372,92.75,47.7932,46.0071,137.015,100.08,104.011,0.00283409,0.311433,20.6758,90.7099,-0.350589,0.0,0.0
375,93.5,48.0691,46.2142,137.721,100.06,103.539,0.00290833,0.309067,20.6791,90.5497,-0.311017,0.0,0.0
378,94.25,48.1579,46.4929,137.421,100.069,103.563,0.00302972,0.306829,20.6823,90.4897,-0.31232,0.0,0.0
381,95,48.5387,46.9284,134.902,100.049,103.333,0.00311822,0.304979,20.6851,90.3996,-0.293897,0.0,0.0
384,95.75,48.4579,47.2928,139.225,100.036,103.863,0.00324123,0.303083,20.6873,90.3296,-0.341612,0.0,0.0
387,96.5,49.215,47.1229,135.693,100.017,102.937,0.00335329,0.301446,20.6889,90.2094,-0.261909,0.0,0.0
390,97.25,48.8837,47.9837,134.385,100.021,103.147,0.00345697,0.300143,20.6901,90.1894,-0.280081,0.0,0.0
393,98,49.8328,47.9059,132.256,100.001,103.064,0.00355383,0.298806,20.6914,90.0993,-0.274509,0.0,0.0
396,98.75,49.694,48.0508,135.062,99.9894,102.907,0.00364931,0.297513,20.6931,90.0093,-0.261752,0.0,0.0
399,99.5,49.6578,48.2686,140.793,99.9655,103.154,0.00372809,0.296025,20.6956,89.8892,-0.285768,0.0,0.0
402,100.25,49.7822,48.6215,138.714,99.9511,103.525,0.00380122,0.293717,20.6984,89.8491,-0.319752,0.0,0.0
405,101,50.2481,48.3579,134.062,99.9427,103.59,0.00386165,0.290957,20.7007,89.7991,-0.326213,0.0,0.0
408,101.75,50.5194,48.4208,137.961,99.922,103.425,0.00390569,0.287879,20.7037,89.709,-0.313535,0.0,0.0
411,102.5,50.6514,48.798,136.403,99.9032,104.055,0.00391912,0.284599,20.7065,89.6189,-0.370507,0.0,0.0
414,103.25,50.0958,49.5046,136.021,99.8717,103.774,0.00389852,0.280661,20.711,89.5489,-0.348773,0.0,0.0
417,104,50.6421,49.8171,136.797,99.876,103.121,0.00386281,0.27779,20.7152,89.4688,-0.290933,0.0,0.0
420,104.75,50.6599,49.6608,141.042,99.8421,103.959,0.00381774,0.274156,20.7186,89.4288,-0.367681,0.0,0.0
423,105.5,50.6396,49.7125,141.558,99.8237,104.721,0.00375118,0.271154,20.7211,89.3287,-0.435886,0.0,0.0
426,106.25,51.1624,49.7916,137.367,99.8022,104.427,0.00368499,0.268361,20.7241,89.2286,-0.412224,0.0,0.0
429,107,51.436,49.8255,136.678,99.791,104.217,0.00360654,0.265859,20.7264,89.1885,-0.394899,0.0,0.0
432,107.75,50.4343,50.4718,132.447,99.7706,104.591,0.00351038,0.263583,20.728,89.1285,-0.429373,0.0,0.0
435,108.5,51.0575,50.1713,141.685,99.7515,104.186,0.00344028,0.261494,20.7292,89.0584,-0.39579,0.0,0.0
438,109.25,51.0295,50.4807,138.293,99.7315,104.631,0.00338526,0.259566,20.7301,88.9483,-0.436429,0.0,0.0
441,110,50.9839,50.4142,134.041,99.7351,104.321,0.00333845,0.257408,20.731,88.9383,-0.409076,0.0,0.0
444,110.75,51.2976,50.779,140.521,99.7507,104.827,0.0033238,0.255631,20.7322,88.8583,-0.45174,0.0,0.0
447,111.5,51.2796,50.7505,138.928,99.7646,104.708,0.00333423,0.253987,20.733,88.7982,-0.44014,0.0,0.0
450,112.25,51.365,50.8854,139.471,99.7523,104.881,0.00335084,0.252789,20.7339,88.6881,-0.456284,0.0,0.0
453,113,51.6408,50.8915,136.309,99.7706,104.863,0.00339307,0.251807,20.7349,88.6681,-0.453046,0.0,0.0
456,113.75,51.3982,51.4971,137.694,99.777,104.712,0.00342059,0.251037,20.7356,88.618,-0.439323,0.0,0.0
459,114.5,51.6957,51.1398,136.036,99.7838,105.197,0.00342656,0.250461,20.7362,88.558,-0.480756,0.0,0.0
462,115.25,51.5846,51.4378,137.687,99.7886,104.976,0.00341637,0.249949,20.7366,88.4379,-0.461172,0.0,0.0
465,116,51.6665,51.4613,137.751,99.8086,104.669,0.00339195,0.249447,20.7369,88.3979,-0.43269,0.0,0.0
468,116.75,52.0346,52.0586,137.53,99.8142,104.6,0.0033451,0.248927,20.7371,88.3378,-0.426228,0.0,0.0
471,117.5,52.0538,52.0014,137.758,99.8389,104.638,0.00326493,0.248615,20.7372,88.2677,-0.427261,0.0,0.0
474,118.25,52.2113,51.7201,136.181,99.8301,104.788,0.00317303,0.248664,20.7373,88.1376,-0.441093,0.0,0.0
477,119,52.0613,51.8756,134.529,99.8413,104.825,0.00309176,0.249173,20.737,88.1276,-0.443281,0.0,0.0
480,119.75,52.0832,51.8316,136.318,99.8545,104.912,0.00300425,0.24987,20.7365,88.0475,-0.449621,0.0,0.0
483,120.5,52.0822,52.3322,132.64,99.8641,104.438,0.00292801,0.250614,20.7362,87.9875,-0.407524,0.0,0.0
486,121.25,52.1187,52.3178,131.88,99.8736,104.405,0.00286583,0.251325,20.736,87.8674,-0.403826,0.0,0.0
489,122,52.3468,52.7031,135.482,99.8804,105.237,0.00281827,0.251997,20.7358,87.8374,-0.475376,0.0,0.0
492,122.75,52.3921,52.8291,134.797,99.9028,104.738,0.00278359,0.252271,20.7354,87.7673,-0.43013,0.0,0.0
495,123.5,52.9325,52.6137,134.086,99.9048,104.996,0.00279717,0.252377,20.7354,87.7072,-0.4523,0.0,0.0
498,124.25,52.7827,52.7063,136.802,99.9244,105.441,0.00284425,0.252032,20.7358,87.6272,-0.489075,0.0,0.0
501,125,52.8602,52.8527,137.919,99.9303,104.936,0.00291009,0.251715,20.7367,87.5071,-0.444819,0.0,0.0
504,125.75,52.8679,52.8934,139.447,99.9431,104.776,0.00298487,0.251373,20.7373,87.4971,-0.429743,0.0,0.0
507,126.5,52.8935,53.3378,130.783,99.9519,105.044,0.00306595,0.251107,20.7378,87.437,-0.452224,0.0,0.0
510,127.25,52.8548,53.3261,135.797,99.9603,105.382,0.00312754,0.250828,20.7382,87.3669,-0.480633,0.0,0.0
513,128,52.984,53.1815,137.221,99.9838,104.936,0.00317349,0.250527,20.7393,87.2568,-0.43991,0.0,0.0
516,128.75,53.2039,53.4821,137.113,100.002,105.247,0.00318575,0.250107,20.7405,87.2468,-0.465144,0.0,0.0
519,129.5,53.0037,53.5571,136.668,100.009,105.117,0.00319468,0.249674,20.7414,87.1768,-0.453342,0.0,0.0
522,130.25,52.9526,53.6018,138.598,100.029,105.011,0.00313574,0.249288,20.742,87.1167,-0.442324,0.0,0.0
525,131,52.9683,53.7326,138.375,100.038,105.21,0.00306868,0.249302,20.7425,86.9766,-0.458681,0.0,0.0
528,131.75,53.122,53.9804,134.443,100.08,105.373,0.00297859,0.249437,20.7428,86.9866,-0.468994,0.0,0.0
531,132.5,53.0724,54.037,137.03,100.083,105.364,0.00291292,0.250043,20.7423,86.9065,-0.467965,0.0,0.0
534,133.25,53.0772,54.2002,138.167,100.098,104.816,0.00279446,0.250485,20.7417,86.8365,-0.419168,0.0,0.0
537,134,53.3752,53.9239,135.853,100.119,105.344,0.00269704,0.251183,20.7417,86.6964,-0.462947,0.0,0.0
540,134.75,53.6761,54.268,138.171,100.136,105.07,0.00260711,0.251881,20.7416,86.7064,-0.437744,0.0,0.0
543,135.5,53.3899,54.2959,137.619,100.153,105.855,0.00252393,0.252469,20.7412,86.6463,-0.503947,0.0,0.0
546,136.25,53.5328,54.2011,134.015,100.172,105.185,0.00245341,0.253209,20.74,86.5863,-0.444383,0.0,0.0
549,137,53.6355,54.3784,137.644,100.199,105.81,0.00239779,0.25428,20.7379,86.4661,-0.495829,0.0,0.0
552,137.75,53.8658,54.625,139.951,100.211,105.491,0.00234119,0.255964,20.7358,86.4461,-0.467241,0.0,0.0
555,138.5,53.5387,54.7673,135.513,100.233,105.753,0.00228724,0.257963,20.7336,86.3861,-0.48783,0.0,0.0
558,139.25,54.1106,54.7248,136.469,100.245,105.418,0.00223791,0.260082,20.7312,86.316,-0.457904,0.0,0.0
561,140,53.8625,54.6724,137.403,100.265,105.554,0.00219667,0.262117,20.729,86.2259,-0.467787,0.0,0.0
564,140.75,54.1254,54.5946,135.439,100.278,105.416,0.00216414,0.263766,20.7274,86.1659,-0.454704,0.0,0.0
567,141.5,54.313,54.7627,138.23,100.305,105.515,0.00213613,0.26525,20.7254,86.1058,-0.46086,0.0,0.0
570,142.25,54.1987,55.0607,135.37,100.318,105.571,0.00211015,0.267048,20.7231,86.0558,-0.464517,0.0,0.0
573,143,54.3394,55.267,132.688,100.339,105.156,0.00208418,0.268956,20.7206,85.9657,-0.426741,0.0,0.0
576,143.75,54.2693,55.2089,134.952,100.349,105.702,0.00206525,0.270602,20.7186,85.8656,-0.472906,0.0,0.0
579,144.5,54.0604,55.5541,134.582,100.373,105.111,0.00205021,0.273196,20.7167,85.8056,-0.419766,0.0,0.0
582,145.25,54.6862,55.5806,138.307,100.397,105.278,0.00204457,0.276179,20.7122,85.7655,-0.431932,0.0,0.0
585,146,54.6935,55.6537,134.243,100.408,105.294,0.00204869,0.278819,20.7099,85.6955,-0.432432,0.0,0.0
588,146.75,54.7899,55.5783,133.838,100.42,105.361,0.00207072,0.281377,20.7073,85.5654,-0.437068,0.0,0.0
591,147.5,54.3716,55.8664,135.267,100.451,105.526,0.00210371,0.283392,20.7042,85.5253,-0.448582,0.0,0.0
594,148.25,54.7412,55.9788,134.797,100.459,105.172,0.00212004,0.285119,20.7027,85.4753,-0.417173,0.0,0.0
597,149,54.9543,55.6097,133.512,100.471,105.3,0.00215984,0.286244,20.7003,85.3952,-0.427222,0.0,0.0
600,149.75,55.056,56.2859,135.678,100.475,105.895,0.00218637,0.287856,20.6994,85.2651,-0.478163,0.0,0.0
603,150.5,55.1264,56.5069,137.668,100.501,105.518,0.00222955,0.290558,20.6976,85.2551,-0.44329,0.0,0.0
606,151.25,55.5159,56.259,136.815,100.512,105.159,0.00228697,0.291782,20.6952,85.175,-0.411306,0.0,0.0
609,152,55.3328,56.3058,135.727,100.526,104.581,0.00233991,0.294084,20.6934,85.1049,-0.359831,0.0,0.0
612,152.75,55.4543,56.4152,132.8,100.528,104.973,0.00241907,0.294969,20.6921,84.9648,-0.393756,0.0,0.0
615,153.5,55.6342,56.689,133.979,100.546,104.857,0.00249659,0.295863,20.6912,84.9648,-0.381976,0.0,0.0
618,154.25,55.4271,56.8176,139.148,100.56,104.496,0.00256675,0.296461,20.6905,84.8948,-0.349466,0.0,0.0
621,155,55.5689,57.0606,136.546,100.574,104.751,0.00262682,0.296465,20.69,84.8047,-0.370258,0.0,0.0
624,155.75,55.6409,56.6733,137.477,100.575,104.359,0.0026706,0.296133,20.6892,84.6846,-0.336085,0.0,0.0
627,156.5,56.0168,57.2828,135.748,100.586,104.522,0.00269546,0.295616,20.6884,84.6345,-0.349313,0.0,0.0
630,157.25,56.0652,57.0435,133.947,100.601,105.467,0.00270055,0.29521,20.6886,84.6045,-0.429867,0.0,0.0
633,158,55.8151,57.363,138.709,100.596,104.943,0.00268198,0.294867,20.6888,84.5445,-0.384996,0.0,0.0
636,158.75,56.2169,57.4366,131.997,100.595,104.98,0.00261898,0.294596,20.6889,84.4444,-0.388345,0.0,0.0
639,159.5,55.9637,57.4056,139.741,100.593,104.418,0.00253831,0.294256,20.6886,84.3443,-0.33968,0.0,0.0
642,160.25,56.0087,57.233,131.224,100.606,105.066,0.00245616,0.293765,20.6881,84.3142,-0.394712,0.0,0.0
645,161,55.9746,57.5343,137.618,100.613,105.706,0.00238042,0.293406,20.688,84.2442,-0.449429,0.0,0.0
648,161.75,56.395,57.6785,133.268,100.607,104.676,0.00232521,0.293145,20.6884,84.1741,-0.360804,0.0,0.0
651,162.5,56.1615,57.8699,132.052,100.605,105.179,0.00228496,0.292955,20.689,84.044,-0.40453,0.0,0.0
654,163.25,55.97,58.0065,136.525,100.615,104.87,0.00224496,0.292338,20.6899,84.054,-0.376932,0.0,0.0
657,164,56.3173,58.0135,138.194,100.617,105.105,0.00220347,0.291385,20.6907,83.984,-0.397126,0.0,0.0
660,164.75,56.3725,57.8259,136.884,100.613,104.916,0.00216796,0.290175,20.6913,83.9039,-0.381103,0.0,0.0
663,165.5,56.5339,58.361,132.9,100.604,105.167,0.00213104,0.288567,20.6918,83.7638,-0.4037,0.0,0.0
666,166.25,56.563,58.4986,136.773,100.609,104.932,0.00208525,0.286968,20.6924,83.7738,-0.382832,0.0,0.0
669,167,56.5952,58.44,136.653,100.603,105.003,0.00206066,0.285619,20.6934,83.7137,-0.389541,0.0,0.0
672,167.75,56.5476,58.3686,139.484,100.599,105.283,0.00205384,0.284147,20.6945,83.6537,-0.41414,0.0,0.0
675,168.5,56.6388,58.5431,137.868,100.591,105.372,0.00205945,0.282865,20.696,83.5236,-0.422604,0.0,0.0
678,169.25,56.9369,58.671,135.113,100.596,104.569,0.00207353,0.28157,20.6973,83.5236,-0.352489,0.0,0.0
681,170,57.0598,58.5078,135.151,100.581,105.348,0.00207851,0.280326,20.6986,83.4735,-0.421446,0.0,0.0
684,170.75,56.4948,58.6316,139.205,100.574,105.169,0.00206857,0.279292,20.7008,83.4035,-0.406562,0.0,0.0
687,171.5,56.7428,58.8345,139.499,100.565,105.115,0.00205554,0.278201,20.7025,83.2833,-0.402644,0.0,0.0
690,172.25,56.7299,58.445,140.19,100.548,105.482,0.00202755,0.277139,20.7037,83.2633,-0.436029,0.0,0.0
693,173,57.1667,58.5626,138.178,100.545,105.59,0.00199925,0.276209,20.705,83.1933,-0.445523,0.0,0.0
696,173.75,56.8395,58.9831,139.776,100.534,105.635,0.00198047,0.27546,20.7062,83.1632,-0.450342,0.0,0.0
699,174.5,56.6519,58.7601,135.361,100.522,104.977,0.00197664,0.274725,20.7072,83.0631,-0.39461,0.0,0.0
702,175.25,56.8861,58.6337,134.513,100.5,105.158,0.0019826,0.27411,20.7086,83.0131,-0.412279,0.0,0.0
705,176,56.7112,59.0723,135.504,100.5,105.508,0.00199471,0.272969,20.7098,82.953,-0.442544,0.0,0.0
708,176.75,56.6729,58.8734,141.102,100.488,105.185,0.00200002,0.272342,20.7111,82.883,-0.415663,0.0,0.0
711,177.5,56.7421,59.2504,139.251,100.465,105.301,0.002,0.272212,20.7121,82.8329,-0.427768,0.0,0.0
714,178.25,56.9604,59.1246,132.276,100.443,104.713,0.00199332,0.272527,20.7127,82.7128,-0.378904,0.0,0.0
717,179,56.9101,59.2277,137.549,100.43,104.876,0.00198846,0.272866,20.7132,82.6628,-0.394253,0.0,0.0
720,179.75,56.6395,58.6674,136.381,100.409,105.792,0.00196395,0.273078,20.7136,82.6228,-0.475229,0.0,0.0
723,180.5,57.0544,59.0027,139.587,100.397,105.304,0.00193715,0.273091,20.7141,82.5727,-0.434262,0.0,0.0
726,181.25,57.2184,59.0429,134.509,100.369,105.831,0.00191234,0.272927,20.7148,82.4826,-0.482252,0.0,0.0
729,182,57.0455,59.2512,135.402,100.365,104.847,0.00190128,0.272735,20.7157,82.4726,-0.397612,0.0,0.0
732,182.75,56.797,59.0449,140.647,100.353,105.197,0.00189712,0.272594,20.7164,82.3825,-0.428978,0.0,0.0
735,183.5,56.998,59.3154,136.251,100.328,104.567,0.00190074,0.272424,20.7169,82.3025,-0.376603,0.0,0.0
738,184.25,57.225,59.408,136.148,100.303,105.26,0.00190857,0.272332,20.7172,82.1924,-0.438998,0.0,0.0
741,185,57.1269,59.078,137.366,100.299,105.427,0.00191551,0.272386,20.7173,82.1524,-0.453714,0.0,0.0
744,185.75,56.9381,59.4862,134.562,100.28,104.362,0.00192109,0.272609,20.7173,82.0723,-0.363059,0.0,0.0
747,186.5,57.1277,59.5385,137.216,100.255,105.185,0.00192906,0.27329,20.7173,81.9722,-0.436878,0.0,0.0
750,187.25,57.0156,59.3404,141.888,100.247,104.137,0.00194152,0.274348,20.7154,81.8421,-0.346491,0.0,0.0
753,188,56.9839,59.3817,133.568,100.231,104.781,0.00194533,0.275698,20.7141,81.8421,-0.404,0.0,0.0
756,188.75,57.0788,59.8125,134.563,100.211,104.911,0.00193332,0.277584,20.7124,81.772,-0.417111,0.0,0.0
759,189.5,56.9617,59.483,130.488,100.202,105.129,0.00191825,0.279343,20.71,81.742,-0.436789,0.0,0.0
762,190.25,57.1379,59.4818,132.096,100.191,104.985,0.00189672,0.281752,20.7064,81.6619,-0.425361,0.0,0.0
765,191,57.2865,59.2879,138.201,100.174,104.321,0.00189685,0.283988,20.7026,81.6819,-0.369167,0.0,0.0
768,191.75,57.3333,59.3466,136.162,100.164,105.036,0.0019216,0.287413,20.6974,81.5919,-0.432276,0.0,0.0
771,192.5,57.3138,59.5443,139.035,100.132,105.033,0.00195016,0.291174,20.6928,81.5218,-0.43487,0.0,0.0
774,193.25,57.0308,59.7706,135.338,100.103,104.398,0.00198852,0.295081,20.6885,81.3917,-0.382264,0.0,0.0
777,194,57.199,59.6782,135.265,100.081,104.764,0.00204647,0.298999,20.6838,81.3617,-0.416157,0.0,0.0
780,194.75,57.3275,59.5877,135.452,100.077,104.422,0.00209961,0.303283,20.6808,81.3116,-0.38678,0.0,0.0
783,195.5,57.5269,59.8939,139.431,100.064,104.313,0.00217142,0.306985,20.6763,81.2315,-0.378516,0.0,0.0
786,196.25,57.4243,59.6101,136.54,100.037,104.728,0.00224156,0.310675,20.6714,81.1214,-0.416982,0.0,0.0
789,197,57.7074,60.3074,131.359,100.024,104.429,0.00230753,0.314717,20.6669,81.0614,-0.392237,0.0,0.0
792,197.75,57.8658,60.2915,135.063,100.025,104.521,0.0023639,0.317187,20.6621,81.0314,-0.400127,0.0,0.0
795,198.5,58.0042,60.1724,132.321,100.029,103.476,0.00240833,0.321019,20.6567,80.9613,-0.308314,0.0,0.0
798,199.25,58.1612,60.4169,136.213,99.9886,103.368,0.00243543,0.324336,20.6519,80.8712,-0.30251,0.0,0.0
801,200,58.3807,60.3847,133.303,99.9743,102.924,0.00245518,0.326978,20.648,80.7211,-0.264646,0.0,0.0
804,200.75,58.667,60.6111,132.012,99.9719,103.548,0.00246077,0.329464,20.6452,80.6811,-0.31988,0.0,0.0
807,201.5,58.369,60.4564,133.73,99.9651,103.162,0.00247844,0.331441,20.6431,80.651,-0.28644,0.0,0.0
810,202.25,58.6062,60.9473,132.834,99.9535,103.011,0.00249712,0.332952,20.6412,80.571,-0.274177,0.0,0.0
813,203,58.6191,60.7417,133.482,99.9387,103.313,0.00256397,0.334264,20.6398,80.4108,-0.302216,0.0,0.0
816,203.75,59.1938,61.5011,133.3,99.9411,103.43,0.00266213,0.334944,20.6392,80.4208,-0.312225,0.0,0.0
819,204.5,58.8207,61.3336,131.84,99.9279,103.941,0.00277943,0.334968,20.6387,80.3708,-0.358283,0.0,0.0
822,205.25,59.0024,61.114,133.724,99.9204,104.076,0.00294186,0.334985,20.6397,80.3207,-0.370834,0.0,0.0
825,206,58.9269,61.4709,134.586,99.9152,104.245,0.00314612,0.332272,20.641,80.2106,-0.386099,0.0,0.0
828,206.75,59.2222,61.5236,135.784,99.9136,104.062,0.00338576,0.328478,20.6467,80.2006,-0.37023,0.0,0.0
831,207.5,58.8874,61.6201,132.115,99.9024,103.93,0.00366041,0.323606,20.6509,80.1606,-0.359665,0.0,0.0
834,208.25,58.9199,61.5174,137.123,99.9008,104.045,0.00403155,0.317778,20.6583,80.0705,-0.369859,0.0,0.0
837,209,59.2403,61.6961,136.854,99.8816,103.419,0.00446852,0.309413,20.6667,79.9604,-0.316693,0.0,0.0
840,209.75,58.8895,61.7737,137.213,99.884,103.328,0.00482613,0.301406,20.6742,79.9704,-0.308507,0.0,0.0
843,210.5,59.1613,61.4894,141.321,99.878,103.398,0.00515361,0.292307,20.6846,79.9204,-0.315198,0.0,0.0
846,211.25,59.2281,61.6318,139.633,99.8816,103.167,0.00545703,0.283561,20.6971,79.8503,-0.294516,0.0,0.0
849,212,58.555,61.5395,142.161,99.882,103.353,0.00570722,0.273574,20.7102,79.8303,-0.31087,0.0,0.0
852,212.75,58.6513,61.3102,138.839,99.8744,103.64,0.00591459,0.262716,20.7234,79.8103,-0.336822,0.0,0.0
855,213.5,58.4738,61.3113,140.379,99.8948,103.753,0.00608733,0.252087,20.7374,79.7502,-0.344846,0.0,0.0
858,214.25,58.1002,61.4349,139.286,99.884,103.86,0.00623653,0.241963,20.7476,79.7102,-0.355263,0.0,0.0
861,215,57.9476,61.608,138.461,99.8808,103.317,0.00638508,0.2325,20.7587,79.6702,-0.307806,0.0,0.0
864,215.75,57.8673,60.8551,137.812,99.8701,103.948,0.00657815,0.223096,20.7699,79.6101,-0.364227,0.0,0.0
867,216.5,57.6947,60.9683,137.866,99.894,103.61,0.00679237,0.213887,20.781,79.6401,-0.332351,0.0,0.0
870,217.25,57.5768,60.6039,141.92,99.888,104.069,0.00702328,0.204976,20.7919,79.6201,-0.373188,0.0,0.0
873,218,57.0392,60.6548,139.665,99.8864,103.711,0.00719337,0.19681,20.7992,79.5801,-0.341897,0.0,0.0
876,218.75,56.7931,60.5135,146.944,99.8968,103.831,0.00744412,0.188001,20.8113,79.5701,-0.351495,0.0,0.0
879,219.5,56.837,60.257,142.281,99.8968,104.043,0.00775995,0.179031,20.822,79.5801,-0.370104,0.0,0.0
882,220.25,56.4574,60.173,141.924,99.8884,104.163,0.00805906,0.170859,20.8324,79.54,-0.381299,0.0,0.0
885,221,56.006,59.6412,142.201,99.892,104.132,0.00833094,0.166194,20.8399,79.53,-0.378257,0.0,0.0
888,221.75,55.6081,59.5586,138.237,99.8928,104.645,0.00862118,0.158199,20.8485,79.46,-0.422976,0.0,0.0
891,222.5,55.4932,59.4246,145.048,99.9064,104.051,0.00892412,0.151013,20.8566,79.51,-0.369941,0.0,0.0
894,223.25,55.0329,59.6058,141.659,99.914,104.284,0.00916724,0.145196,20.8632,79.49,-0.389588,0.0,0.0
897,224,55.0768,59.0855,149.086,99.916,104.722,0.00938258,0.138577,20.8705,79.44,-0.427521,0.0,0.0
900,224.75,54.9011,58.7958,143.07,99.9228,104.245,0.00957069,0.132953,20.8758,79.3899,-0.385369,0.0,0.0
903,225.5,54.5524,58.493,146.93,99.9323,104.967,0.00970782,0.127487,20.8814,79.44,-0.447294,0.0,0.0
906,226.25,54.4149,58.5511,143.153,99.9263,104.703,0.00982677,0.121793,20.8868,79.4099,-0.424932,0.0,0.0
909,227,54.1631,58.4432,143.635,99.9291,104.275,0.00994595,0.116519,20.8916,79.4099,-0.38742,0.0,0.0
912,227.75,53.314,58.2036,146.855,99.9224,104.561,0.0100787,0.112195,20.8972,79.3199,-0.412959,0.0,0.0
915,228.5,53.6302,57.5546,142.069,99.9543,104.932,0.0101754,0.109043,20.9013,79.3299,-0.442287,0.0,0.0
918,229.25,52.9436,57.6351,145.606,99.9463,105.421,0.0103396,0.104844,20.9047,79.3699,-0.485288,0.0,0.0
921,230,53.0969,57.293,145.852,99.9483,104.861,0.010498,0.101175,20.9083,79.3999,-0.436699,0.0,0.0
924,230.75,52.3064,57.2676,146.519,99.9531,104.837,0.0106456,0.0982424,20.9125,79.2898,-0.434113,0.0,0.0
927,231.5,52.246,56.7601,146.115,99.9539,104.381,0.0107799,0.0951977,20.9162,79.3399,-0.394358,0.0,0.0
930,232.25,52.3748,56.323,144.391,99.9651,104.556,0.0108962,0.0926515,20.9194,79.3699,-0.408598,0.0,0.0
933,233,51.5117,56.7449,146.108,99.9615,104.698,0.0109822,0.0902367,20.9229,79.3599,-0.421263,0.0,0.0
936,233.75,51.5244,56.1205,144.105,99.9715,104.635,0.0110455,0.0879975,20.9263,79.2798,-0.414951,0.0,0.0
939,234.5,51.4731,56.0292,146.709,99.9663,105.053,0.0110935,0.0859757,20.9287,79.3199,-0.451696,0.0,0.0
942,235.25,50.9778,55.8659,144.132,99.9878,104.993,0.0111353,0.0841852,20.9305,79.3399,-0.444466,0.0,0.0
945,236,50.8676,55.6008,143.307,99.9914,104.874,0.0111774,0.0823183,20.9325,79.3299,-0.433829,0.0,0.0
948,236.75,50.0868,55.7134,145.305,99.9946,105.003,0.0112486,0.0806904,20.9341,79.2698,-0.444745,0.0,0.0
951,237.5,50.0204,55.2562,143.835,99.9902,104.724,0.011321,0.0793899,20.9357,79.2698,-0.420956,0.0,0.0
954,238.25,49.7338,54.9545,146.512,100.021,104.566,0.0114086,0.0781213,20.9368,79.3399,-0.40445,0.0,0.0
957,239,49.6665,54.962,146.77,100.025,104.679,0.0115021,0.0770983,20.9377,79.3199,-0.413878,0.0,0.0
960,239.75,49.4414,54.7622,143.261,100.034,104.702,0.0115844,0.0763106,20.9388,79.3098,-0.415078,0.0,0.0
963,240.5,48.034,53.0743,145.482,100.027,105.337,0.0116533,0.0755162,20.9403,79.2498,-0.47079,0.0,0.0
966,241.25,47.5706,52.2668,146.754,100.05,105.011,0.0117081,0.0747547,20.9415,79.2898,-0.440397,0.0,0.0
969,242,47.8287,51.8376,142.443,100.058,104.811,0.0117454,0.0741218,20.9423,79.3098,-0.422366,0.0,0.0
972,242.75,47.3551,52.4067,148.292,100.069,104.903,0.0117679,0.0735004,20.9429,79.2598,-0.429285,0.0,0.0
975,243.5,47.4061,52.2079,142.89,100.069,105.051,0.011799,0.0730194,20.9434,79.1997,-0.442128,0.0,0.0
978,244.25,46.924,51.7608,146.495,100.115,105.103,0.0118633,0.0726567,20.9437,79.2398,-0.442438,0.0,0.0
981,245,46.9344,51.4569,144.92,100.127,104.559,0.0119551,0.0722724,20.9439,79.2298,-0.394205,0.0,0.0
984,245.75,46.3867,51.5238,146.579,100.128,104.706,0.0120687,0.0719775,20.9441,79.2398,-0.406826,0.0,0.0
987,246.5,46.2643,51.3392,147.899,100.14,104.788,0.0122127,0.0717372,20.9447,79.1397,-0.412859,0.0,0.0
990,247.25,46.3056,51.1616,143.513,100.173,104.912,0.0123334,0.0715621,20.9453,79.2498,-0.420595,0.0,0.0
993,248,45.8618,50.8444,147.908,100.169,104.622,0.0124483,0.0714624,20.9457,79.2298,-0.395844,0.0,0.0
996,248.75,45.5086,50.4672,144.041,100.187,104.257,0.0125321,0.0713457,20.946,79.2698,-0.362355,0.0,0.0
999,249.5,45.5349,50.2568,148.21,100.197,104.996,0.0126049,0.0711998,20.9462,79.1597,-0.425718,0.0,0.0
1002,250.25,45.5967,50.1251,141.717,100.211,103.941,0.0126616,0.0710303,20.9463,79.2298,-0.332616,0.0,0.0
1005,251,45.7787,50.158,144.559,100.231,104.503,0.0127005,0.0709068,20.9458,79.2098,-0.379802,0.0,0.0
1008,251.75,45.5591,50.3094,144.69,100.24,104.789,0.0127237,0.0708448,20.9454,79.2298,-0.403907,0.0,0.0
1011,252.5,44.9139,49.7286,145.731,100.25,104.274,0.0127398,0.0708116,20.9451,79.1697,-0.358153,0.0,0.0
1014,253.25,44.8895,49.983,149.537,100.269,104.545,0.0127628,0.0708854,20.9449,79.1997,-0.380116,0.0,0.0
1017,254,44.2328,49.5077,146.412,100.296,104.61,0.0127947,0.0709737,20.9448,79.1797,-0.383256,0.0,0.0
1020,254.75,44.652,49.0944,141.582,100.314,104.81,0.012857,0.0710255,20.9447,79.1697,-0.399005,0.0,0.0
1023,255.5,44.5045,48.9385,146.82,100.329,104.997,0.0129025,0.0710432,20.9446,79.1497,-0.413916,0.0,0.0
1026,256.25,43.9425,49.06,148.911,100.321,104.887,0.0130099,0.0710562,20.9445,79.1897,-0.405037,0.0,0.0
1029,257,44.024,49.3194,146.785,100.346,104.512,0.0131196,0.0710951,20.9445,79.2398,-0.370113,0.0,0.0
1032,257.75,43.959,48.3713,148.192,100.356,104.647,0.0132129,0.071174,20.9444,79.2198,-0.381035,0.0,0.0
1035,258.5,43.7882,48.6754,149.611,100.382,104.74,0.0133198,0.0712714,20.9444,79.1897,-0.386788,0.0,0.0
1038,259.25,43.9376,48.2029,144.821,100.385,104.722,0.0134043,0.0713573,20.9443,79.1197,-0.384969,0.0,0.0
1041,260,43.9762,48.3089,148.284,100.409,104.966,0.0134673,0.0714451,20.9441,79.1697,-0.403944,0.0,0.0
1044,260.75,43.6144,48.1363,146.211,100.42,105.344,0.0135109,0.0714891,20.9439,79.1597,-0.435664,0.0,0.0
1047,261.5,43.6317,48.1669,149.52,100.445,104.824,0.013531,0.0715353,20.9438,79.1497,-0.388306,0.0,0.0
1050,262.25,43.1596,47.5363,147.167,100.43,104.406,0.0135405,0.0715932,20.9437,79.0896,-0.353369,0.0,0.0
1053,263,43.2412,47.3726,147.369,100.462,104.607,0.0135363,0.0716355,20.9437,79.1497,-0.367924,0.0,0.0
1056,263.75,42.9298,47.438,142.515,100.473,105.073,0.0135464,0.0716736,20.9436,79.1397,-0.407331,0.0,0.0
1059,264.5,43.4309,47.5933,144.877,100.49,104.215,0.0135592,0.0717141,20.9436,79.1497,-0.331212,0.0,0.0
1062,265.25,42.9006,47.2663,144.988,100.494,104.961,0.0136096,0.0717295,20.9436,79.0596,-0.395849,0.0,0.0
1065,266,43.0478,46.98,147.189,100.513,105.227,0.0136725,0.0717348,20.9435,79.1397,-0.417083,0.0,0.0
1068,266.75,42.962,47.0991,146.467,100.519,104.773,0.013737,0.0716987,20.9435,79.0997,-0.377201,0.0,0.0
1071,267.5,42.7234,46.8132,146.62,100.528,104.182,0.013797,0.0717004,20.9435,79.1097,-0.324942,0.0,0.0
1074,268.25,42.2494,47.1288,148.076,100.526,104.788,0.0138445,0.0717505,20.9435,79.0196,-0.377877,0.0,0.0
1077,269,42.3725,46.7389,147.448,100.55,104.28,0.0138791,0.0718501,20.9433,79.0496,-0.33145,0.0,0.0
1080,269.75,42.3154,46.6563,143.426,100.551,104.941,0.0139084,0.0719427,20.9427,79.0896,-0.388884,0.0,0.0
1083,270.5,42.5055,46.5015,145.083,100.559,104.55,0.0139314,0.0720523,20.9424,79.0696,-0.354206,0.0,0.0
1086,271.25,42.62,46.0803,142.939,100.556,104.59,0.0139639,0.0721501,20.9423,78.9896,-0.358019,0.0,0.0
1089,272,42.9744,46.5809,149.338,100.565,105.154,0.0139943,0.0723056,20.942,79.0196,-0.40611,0.0,0.0
1092,272.75,42.3621,46.425,143.147,100.556,105.155,0.0140426,0.072485,20.9417,79.0296,-0.406908,0.0,0.0
1095,273.5,42.4163,46.5014,145.791,100.562,105.219,0.0140888,0.0726673,20.9414,78.9395,-0.411937,0.0,0.0
1098,274.25,42.0096,46.0361,147.024,100.551,104.862,0.0141414,0.0728002,20.9412,78.8895,-0.38205,0.0,0.0
1101,275,41.7582,45.7767,147.225,100.544,104.884,0.0142059,0.0728409,20.9411,78.8595,-0.38458,0.0,0.0
1104,275.75,41.5898,45.7172,142.972,100.565,104.743,0.0142885,0.0728762,20.941,78.9996,-0.370425,0.0,0.0
1107,276.5,42.0877,45.9951,142.189,100.549,104.859,0.0143486,0.0729525,20.9409,78.9996,-0.381958,0.0,0.0
1110,277.25,42.0944,45.7039,145.791,100.541,105.059,0.0144337,0.0731482,20.9409,78.9796,-0.400015,0.0,0.0
1113,278,41.5516,45.4007,146.18,100.521,104.916,0.0145154,0.0734172,20.9409,78.9495,-0.389449,0.0,0.0
1116,278.75,41.484,45.2446,148.456,100.511,105.562,0.0145833,0.0736671,20.9408,79.0096,-0.446153,0.0,0.0
1119,279.5,41.9022,45.0985,147.812,100.514,105.031,0.0146404,0.0739093,20.9408,79.0096,-0.400091,0.0,0.0
1122,280.25,40.9171,44.8469,147.647,100.489,104.707,0.0146714,0.074086,20.9408,78.9996,-0.374162,0.0,0.0
1125,281,41.2668,44.673,144.987,100.471,104.469,0.0146778,0.0742147,20.9408,78.9595,-0.355133,0.0,0.0
1128,281.75,41.4614,44.9767,146.689,100.457,104.801,0.0146624,0.0742885,20.9408,78.9996,-0.385302,0.0,0.0
1131,282.5,41.1831,44.9072,147.591,100.467,104.904,0.0146381,0.0743054,20.9408,79.0196,-0.393309,0.0,0.0
1134,283.25,41.3606,44.7151,147.045,100.423,104.931,0.0146148,0.0742546,20.9408,79.0196,-0.399559,0.0,0.0
1137,284,40.8972,44.8919,149.073,100.404,104.186,0.0146069,0.0741574,20.9408,78.9095,-0.336468,0.0,0.0
1140,284.75,41.4079,44.654,144.268,100.405,105.275,0.0146107,0.0741007,20.9408,78.9695,-0.431014,0.0,0.0
1143,285.5,40.8889,44.2812,144.567,100.365,104.915,0.0146228,0.0740653,20.9403,78.9295,-0.403475,0.0,0.0
1146,286.25,41.087,44.7467,147.131,100.334,104.825,0.0146392,0.0741237,20.9398,78.8995,-0.398524,0.0,0.0
1149,287,40.813,44.2989,144.018,100.319,104.357,0.0146498,0.0742022,20.9394,78.8895,-0.359116,0.0,0.0
1152,287.75,41.3692,44.1996,144.58,100.276,105.011,0.014657,0.0743996,20.9392,78.8895,-0.419832,0.0,0.0
1155,288.5,40.6932,44.0935,148.372,100.253,104.621,0.0146566,0.0745434,20.939,78.8494,-0.388037,0.0,0.0
1158,289.25,40.6045,43.9734,145.46,100.219,104.641,0.0146657,0.0746188,20.9388,78.8394,-0.392881,0.0,0.0
1161,290,40.7763,44.1025,144.996,100.197,104.584,0.0146723,0.0746232,20.9387,78.8695,-0.389972,0.0,0.0
1164,290.75,40.734,43.9775,142.377,100.144,104.302,0.0147177,0.0746063,20.9387,78.8194,-0.370199,0.0,0.0
1167,291.5,40.7447,43.8645,146.988,100.13,104.325,0.0147847,0.0747626,20.9384,78.8695,-0.373475,0.0,0.0
1170,292.25,40.7206,44.0199,145.992,100.098,104.451,0.014862,0.0749483,20.9382,78.8795,-0.38733,0.0,0.0
1173,293,40.3897,43.7607,147.002,100.063,104.571,0.0149354,0.0752239,20.938,78.8795,-0.400992,0.0,0.0
1176,293.75,40.7144,43.9428,148.072,100.023,103.874,0.0149962,0.0754538,20.9379,78.8094,-0.343721,0.0,0.0
1179,294.5,40.7084,43.4771,141.653,99.9978,104.127,0.0150366,0.0756709,20.9378,78.8595,-0.36823,0.0,0.0
1182,295.25,40.3047,43.5299,143.053,99.9799,104.817,0.0150609,0.0758713,20.9387,78.8695,-0.429997,0.0,0.0
1185,296,40.9933,43.0933,149.181,99.9347,103.952,0.0150727,0.0760058,20.9393,78.8795,-0.35869,0.0,0.0
1188,296.75,40.366,42.7283,144.7,99.896,104.55,0.0150494,0.0760533,20.9398,78.7894,-0.414379,0.0,0.0
1191,297.5,40.526,43.2651,144.801,99.8904,103.785,0.0150325,0.0760066,20.9401,78.8494,-0.34809,0.0,0.0
1194,298.25,40.3057,43.1449,146.343,99.8589,104.094,0.014962,0.0758335,20.9404,78.8394,-0.37801,0.0,0.0
1197,299,40.3597,43.164,144.767,99.8317,104.759,0.0148896,0.0756792,20.9406,78.8394,-0.438444,0.0,0.0
1200,299.75,40.3363,43.3186,144.169,99.8098,104.394,0.014819,0.0755769,20.9407,78.7694,-0.408667,0.0,0.0
1203,300.5,39.8564,43.0844,145.59,99.7882,104.02,0.0147522,0.0755403,20.9408,78.8194,-0.377954,0.0,0.0
1206,301.25,40.1957,42.8934,143.104,99.7682,103.523,0.0146867,0.0755979,20.9409,78.8294,-0.336178,0.0,0.0
1209,302,40.1979,42.8639,147.885,99.7535,104.53,0.0146219,0.0756757,20.9405,78.8094,-0.425609,0.0,0.0
1212,302.75,40.3883,42.5711,144.648,99.7271,103.993,0.0145674,0.0757325,20.9403,78.7393,-0.381163,0.0,0.0
1215,303.5,40.024,42.8308,147.679,99.7163,104.215,0.0145071,0.075747,20.9401,78.7794,-0.401592,0.0,0.0
1218,304.25,39.8902,42.7923,146.999,99.7008,103.754,0.0144632,0.0757387,20.94,78.7794,-0.362658,0.0,0.0
1221,305,40.3092,42.8603,148.475,99.6896,104.648,0.0144087,0.0757199,20.9399,78.7794,-0.441743,0.0,0.0
1224,305.75,40.0818,42.9502,145.725,99.6872,104.358,0.0143637,0.0758465,20.9398,78.6893,-0.416709,0.0,0.0
1227,306.5,39.8536,42.9851,143.797,99.7271,104.079,0.0143287,0.0759314,20.9397,78.7293,-0.388726,0.0,0.0
1230,307.25,40.1855,43.0175,144.172,99.7794,104.003,0.0142957,0.0759807,20.9397,78.7494,-0.377297,0.0,0.0
1233,308,39.987,42.9327,148.027,99.8221,103.842,0.0142743,0.0760018,20.9397,78.7393,-0.359245,0.0,0.0
1236,308.75,40.0948,42.7626,146.558,99.8457,103.887,0.0142598,0.0759919,20.9397,78.6993,-0.361045,0.0,0.0
1239,309.5,39.7146,42.6308,145.509,99.8669,103.994,0.0142492,0.076069,20.9396,78.7093,-0.368499,0.0,0.0
1242,310.25,40.0786,42.1337,148.484,99.9192,104.382,0.0142337,0.0762573,20.9396,78.7393,-0.397678,0.0,0.0
1245,311,39.9508,42.3488,148.201,99.9295,104.351,0.014219,0.0765589,20.9396,78.7193,-0.394022,0.0,0.0
1248,311.75,40.139,42.3555,144.5,99.9539,104.453,0.0141885,0.0767989,20.9396,78.6993,-0.400637,0.0,0.0
1251,312.5,39.4645,42.6017,142.316,99.9719,104.37,0.014151,0.0769516,20.9395,78.6593,-0.39178,0.0,0.0
1254,313.25,39.8649,42.0381,143.739,99.9986,104.824,0.0141119,0.077025,20.9393,78.7093,-0.428837,0.0,0.0
1257,314,39.6096,42.2393,146.725,100.027,104.604,0.0140716,0.0771066,20.9391,78.6793,-0.407163,0.0,0.0
1260,314.75,39.5572,41.8384,146.256,100.056,104.875,0.0140372,0.0771781,20.939,78.6693,-0.428061,0.0,0.0
1263,315.5,39.6625,41.9146,141.814,100.051,104.645,0.0140009,0.0772286,20.9389,78.6292,-0.408581,0.0,0.0
1266,316.25,40.0362,41.9645,149.062,100.069,104.873,0.0139577,0.0772727,20.9389,78.6893,-0.426668,0.0,0.0
1269,317,39.6667,41.6214,149.431,100.088,104.335,0.0139262,0.0773176,20.9389,78.6593,-0.378183,0.0,0.0
1272,317.75,39.6313,41.9771,147.85,100.088,104.395,0.0138622,0.0775107,20.9388,78.6593,-0.383445,0.0,0.0
1275,318.5,39.4524,41.7141,144.292,100.096,104.686,0.0138155,0.0776936,20.9388,78.6092,-0.408081,0.0,0.0
1278,319.25,39.3903,41.7141,146.568,100.104,104.354,0.0137331,0.0778228,20.9388,78.6593,-0.378308,0.0,0.0
1281,320,39.5448,41.3577,146.244,100.11,104.544,0.0136654,0.077879,20.9388,78.6493,-0.394435,0.0,0.0
1284,320.75,39.4545,41.6376,145.276,100.118,104.001,0.0136032,0.0779199,20.9388,78.6693,-0.346274,0.0,0.0
1287,321.5,39.1704,41.3571,142.386,100.123,104.501,0.0135578,0.0778094,20.9388,78.5892,-0.389435,0.0,0.0
1290,322.25,39.2862,41.8563,144.269,100.141,104.407,0.0135351,0.0777289,20.9388,78.6393,-0.379602,0.0,0.0
1293,323,39.5402,41.6627,148.43,100.139,105.016,0.0135363,0.0776702,20.939,78.6292,-0.432731,0.0,0.0
1296,323.75,39.6144,41.8032,147.939,100.134,104.957,0.0135557,0.0776695,20.9392,78.6192,-0.428089,0.0,0.0
1299,324.5,39.5461,41.4904,149.606,100.141,104.846,0.0135665,0.0776871,20.9393,78.5592,-0.417826,0.0,0.0
1302,325.25,39.307,41.3348,144.422,100.133,104.917,0.0135685,0.0778017,20.9394,78.5992,-0.424725,0.0,0.0
1305,326,39.5755,41.4035,148.351,100.137,104.859,0.0135568,0.0779557,20.9394,78.6092,-0.419325,0.0,0.0
1308,326.75,39.3875,41.0782,146.607,100.148,104.568,0.013526,0.0780978,20.9395,78.6092,-0.393062,0.0,0.0
1311,327.5,39.355,41.1214,144.861,100.14,105.174,0.0134868,0.0780009,20.9395,78.5892,-0.446309,0.0,0.0
1314,328.25,39.1779,40.9128,145.588,100.149,104.724,0.0134648,0.0779673,20.9395,78.5392,-0.406503,0.0,0.0
1317,329,39.1425,41.1887,141.679,100.14,104.549,0.0134625,0.078006,20.9396,78.5892,-0.392069,0.0,0.0
1320,329.75,39.6786,41.2162,147.666,100.135,104.398,0.0134796,0.0781046,20.9396,78.5692,-0.379401,0.0,0.0
1323,330.5,39.3653,41.2117,149.887,100.135,104.283,0.0135182,0.0781916,20.9396,78.5492,-0.369386,0.0,0.0
1326,331.25,39.1493,40.8297,145.471,100.118,104.487,0.0135444,0.0782297,20.9396,78.4991,-0.388654,0.0,0.0
1329,332,39.1844,41.1157,146.199,100.144,104.704,0.0135635,0.0781974,20.9396,78.5392,-0.40518,0.0,0.0
1332,332.75,39.435,40.8747,146.118,100.136,104.507,0.013524,0.0782019,20.9396,78.5392,-0.388859,0.0,0.0
1335,333.5,38.9674,40.6693,145.182,100.141,105.226,0.0134449,0.0782468,20.9396,78.4991,-0.450718,0.0,0.0
1338,334.25,38.9804,41.0466,148.928,100.123,104.608,0.0133403,0.0783301,20.9396,78.4391,-0.398763,0.0,0.0
1341,335,39.0296,40.9581,147.635,100.129,104.415,0.013208,0.0783768,20.9398,78.4891,-0.381473,0.0,0.0
1344,335.75,39.0702,40.8218,145.73,100.134,104.607,0.0130761,0.0784048,20.9404,78.4691,-0.397701,0.0,0.0
1347,336.5,38.9409,40.3602,141.503,100.128,104.871,0.0129601,0.0783651,20.9408,78.4791,-0.421179,0.0,0.0
1350,337.25,39.4146,40.5733,144.518,100.116,104.231,0.0128718,0.0783288,20.9411,78.409,-0.366565,0.0,0.0
1353,338,39.1389,40.4672,143.207,100.13,104.51,0.0128152,0.0782896,20.9413,78.4791,-0.389601,0.0,0.0
1356,338.75,38.684,40.9805,146.16,100.127,104.57,0.0127773,0.0783012,20.9415,78.4491,-0.395105,0.0,0.0
1359,339.5,38.7504,40.0383,141.825,100.129,104.283,0.0127552,0.0783096,20.9416,78.4491,-0.369927,0.0,0.0
1362,340.25,38.9763,40.9336,145.867,100.12,104.356,0.0127391,0.0783231,20.9417,78.379,-0.377128,0.0,0.0
1365,341,39.455,40.6469,144.802,100.113,104.841,0.0126936,0.0783457,20.9414,78.4291,-0.419936,0.0,0.0
1368,341.75,38.5711,40.4536,146.629,100.134,105.097,0.012646,0.0784043,20.9407,78.399,-0.440263,0.0,0.0
1371,342.5,38.4321,40.5054,148.416,100.141,105.047,0.0125428,0.078465,20.9402,78.399,-0.43532,0.0,0.0
1374,343.25,38.229,40.5915,147.97,100.113,104.73,0.0124156,0.0784871,20.9398,78.389,-0.41024,0.0,0.0
1377,344,38.8048,40.6567,144.459,100.111,104.438,0.012279,0.0784652,20.9395,78.369,-0.385032,0.0,0.0
1380,344.75,38.6809,40.2578,152.473,100.128,104.767,0.0121421,0.0782888,20.9393,78.379,-0.412145,0.0,0.0
1383,345.5,38.8546,39.9518,152.225,100.123,104.508,0.012019,0.0781676,20.9391,78.389,-0.390101,0.0,0.0
1386,346.25,38.2664,40.0481,147.932,100.12,104.918,0.0119194,0.0780919,20.939,78.379,-0.425964,0.0,0.0
1389,347,38.3322,40.2318,148.069,100.113,104.655,0.0118596,0.0782573,20.939,78.339,-0.403743,0.0,0.0
1392,347.75,38.7674,39.9722,145.694,100.128,104.597,0.0118553,0.0784668,20.9389,78.349,-0.397384,0.0,0.0
1395,348.5,38.0069,40.1854,146.472,100.128,104.839,,0.0787714,,78.4591,-0.418364,0.0,0.0
1398,349.25,38.8805,39.5496,142.852,100.122,104.411,,0.079106,,78.349,-0.381772,0.0,0.0
1401,350,38.1355,39.9477,145.697,100.11,105.06,,0.0793979,,78.2589,-0.439242,0.0,0.0
1404,350.75,38.2392,40.6077,142.845,100.143,104.51,,0.0797311,,78.359,-0.38848,0.0,0.0
1407,351.5,38.64,39.9281,146.058,100.143,104.242,,,,78.329,-0.365081,0.0,0.0
1410,352.25,38.7003,39.9444,146.919,100.133,105.057,,,,78.339,-0.436903,0.0,0.0
1413,353,38.4221,40.2338,143.871,100.125,104.579,,,,78.2889,-0.396071,0.0,0.0
1416,353.75,38.2212,40.2949,146.489,100.124,105.054,,,,78.339,-0.437426,0.0,0.0
1419,354.5,38.2748,40.1322,142.375,100.123,105.117,,,,78.329,-0.442922,0.0,0.0
1422,355.25,38.3374,39.8952,145.439,100.129,104.622,,,,78.329,-0.399508,0.0,0.0
1425,356,38.6299,39.7032,146.563,100.122,104.818,,,,78.2289,-0.417071,0.0,0.0
1428,356.75,38.7103,39.894,147.947,100.133,105.153,,,,78.2889,-0.445169,0.0,0.0
1431,357.5,38.1056,39.5396,145.773,100.137,104.192,,,,78.299,-0.361261,0.0,0.0
1434,358.25,38.2221,39.6998,145.935,100.132,104.766,,,,78.2789,-0.411665,0.0,0.0
1437,359,38.3721,39.6212,147.194,100.132,104.531,,,,78.2089,-0.391226,0.0,0.0
1438,359.25,38.6017,39.4888,145.789,100.13,104.616,,,,78.2889,-0.398811,0.0,0.0