File: 01_Data/Luan_Panel/Cone/Luan_Panel_Cone_HF50Scan_220916_R2.csv
Names,Time,Stack TC,Smoke TC,Exh Press,Smoke Comp,Smoke Meas,CO Meter,CO2 Meter,O2 Meter,Sample Mass,Ext Coeff,Start Test,Flame Verif
Chan Gain,,500,500,1,1,1,1,1,1,1,1,1.0,1.0
Offset,,0,0,0.146632,0,0,0,0,0,0,0,0.0,0.0
Gain,,1,1,25.011,13.0826,14.7555,1,1,1,1.00088,1.03743,1.0,1.0
Units,sec,C,C,Pa,%,%,%,%,%,g,/m,,
Baseline,,47.1365,48.3524,143.147,100.054,105.124,0.000364682,0.0447236,20.9863,-449.541,-0.449758,,
3,0.5,47.4958,48.5452,140.897,100.552,105.814,2.9388e-05,0.0495538,20.9771,90.2395,-0.464218,0.0,0.0
6,1.25,46.3882,47.4027,142.826,100.565,105.467,6.13371e-05,0.0500509,20.9768,90.1294,-0.433115,0.0,0.0
9,2,45.3359,47.4049,144.956,100.566,105.421,0.000101733,0.050237,20.977,90.1394,-0.429046,0.0,0.0
12,2.75,46.1838,47.2135,142.264,100.563,106.067,0.000148766,0.0503925,20.978,90.0393,-0.484942,0.0,0.0
15,3.5,46.2283,47.5759,139.966,100.566,105.574,0.000200656,0.0505059,20.9787,90.0793,-0.442249,0.0,0.0
18,4.25,46.2092,47.6788,138.995,100.572,105.263,0.000256829,0.0505885,20.9796,90.0493,-0.414846,0.0,0.0
21,5,45.9975,47.5894,143.355,100.57,105.562,0.000305601,0.0505694,20.9805,90.0393,-0.440879,0.0,0.0
24,5.75,45.6995,47.554,138.831,100.562,105.68,0.000367334,0.0505277,20.9816,89.9592,-0.451803,0.0,0.0
27,6.5,46.3486,47.7894,145.678,100.565,105.566,0.000408667,0.0504708,20.9826,89.9592,-0.441662,0.0,0.0
30,7.25,46.2962,47.7055,141.673,100.572,105.375,0.000437233,0.0504043,20.9833,89.9592,-0.424611,0.0,0.0
33,8,46.209,47.1226,140.492,100.592,105.406,0.000449329,0.0503002,20.9838,89.9392,-0.425412,0.0,0.0
36,8.75,46.4452,47.8316,144.315,100.573,104.192,0.000463043,0.0502006,20.9842,89.8691,-0.321689,0.0,0.0
39,9.5,46.7347,47.7112,146.208,100.553,104.768,0.000484791,0.0501478,20.9844,89.8491,-0.37366,0.0,0.0
42,10.25,46.7019,47.9886,145.181,100.567,105.239,0.00051717,0.0501788,20.9838,89.8691,-0.413256,0.0,0.0
45,11,46.6473,47.6841,140.453,100.552,104.22,0.000571398,0.0502311,20.9829,89.8291,-0.326117,0.0,0.0
48,11.75,46.6023,47.746,142.75,100.554,103.466,0.000623986,0.0504279,20.9823,89.759,-0.259876,0.0,0.0
51,12.5,46.6274,47.9699,143.578,100.538,102.702,0.0007126,0.0509052,20.9804,89.729,-0.193749,0.0,0.0
54,13.25,46.5691,48.0397,140.262,100.547,101.708,0.000827073,0.052173,20.9767,89.749,-0.1045,0.0,0.0
57,14,46.8491,47.8089,140.74,100.538,105.15,0.000959155,0.0544269,20.9685,89.689,-0.408105,0.0,1.0
60,14.75,46.7486,47.963,129.004,100.528,105.112,0.00105544,0.0598398,20.953,89.5889,-0.40581,0.0,1.0
63,15.5,47.184,48.0817,132.35,100.519,105.065,0.00126606,0.065393,20.9214,89.5589,-0.402546,0.0,1.0
66,16.25,47.2059,48.5446,127.069,100.53,104.368,0.00150051,0.0777489,20.8751,89.3787,-0.340995,0.0,1.0
69,17,48.0509,48.7703,126.669,100.515,103.751,0.00169613,0.0867563,20.8234,89.2886,-0.288339,0.0,1.0
72,17.75,48.6748,49.2239,127.201,100.505,103.881,0.0019018,0.101653,20.7719,89.1585,-0.300613,0.0,1.0
75,18.5,49.519,49.322,129.66,100.473,104.373,0.00208734,0.118972,20.72,89.0484,-0.346521,0.0,1.0
78,19.25,49.2462,48.298,126.616,100.488,103.082,0.00222259,0.136569,20.6759,88.9283,-0.231881,0.0,1.0
81,20,50.0895,49.0175,125.433,100.483,102.908,0.00239183,0.157199,20.6319,88.8482,-0.21699,0.0,1.0
84,20.75,50.5285,49.8967,123.427,100.472,102.416,0.00253868,0.177008,20.5998,88.6781,-0.174378,0.0,0.0
87,21.5,52.1624,50.6231,121.199,100.452,102.413,0.0026859,0.193482,20.569,88.538,-0.175942,0.0,0.0
90,22.25,52.3258,50.9366,117.199,100.457,102.152,0.0028658,0.213812,20.5421,88.3979,-0.152271,0.0,0.0
93,23,53.3919,51.4481,122.273,100.455,101.553,0.00302311,0.23127,20.5206,88.3278,-0.0989801,0.0,0.0
96,23.75,54.6021,52.7758,118.782,100.431,101.33,0.00318254,0.248506,20.4987,88.1777,-0.0811181,0.0,0.0
99,24.5,55.5961,53.7444,126.872,100.417,101.285,0.00336443,0.265379,20.481,88.0075,-0.0782629,0.0,0.0
102,25.25,56.2676,54.1122,125.979,100.412,100.747,0.00352941,0.279515,20.4674,87.8574,-0.0302963,0.0,0.0
105,26,57.1414,54.9413,121.753,100.411,100.295,0.00366349,0.29463,20.4574,87.8173,0.0105245,0.0,0.0
108,26.75,57.7525,55.9179,125.126,100.41,100.879,0.00381282,0.308383,20.4501,87.6472,-0.0424641,0.0,0.0
111,27.5,58.8935,56.1581,123.19,100.374,100.426,0.00395037,0.320729,20.4453,87.477,-0.00472788,0.0,0.0
114,28.25,59.588,56.3531,122.997,100.371,100.923,0.00408195,0.331703,20.4426,87.3469,-0.0499151,0.0,0.0
117,29,60.4876,57.6994,118.623,100.374,100.301,0.00421047,0.341595,20.4419,87.2769,0.00662271,0.0,0.0
120,29.75,61.0832,58.07,119.821,100.346,99.7303,0.00436044,0.349612,20.4431,87.1568,0.0560413,0.0,0.0
123,30.5,60.95,59.1993,125.122,100.328,99.8514,0.00451683,0.357811,20.446,86.9866,0.0432926,0.0,0.0
126,31.25,62.4353,58.7212,125.718,100.318,100.992,0.00467027,0.36472,20.4507,86.8565,-0.0609771,0.0,0.0
129,32,62.9021,60.054,124.016,100.317,99.5515,0.00478465,0.370555,20.4571,86.8064,0.0696895,0.0,0.0
132,32.75,63.06,60.8278,120.531,100.32,100.394,0.00484385,0.375496,20.4626,86.6763,-0.0066373,0.0,0.0
135,33.5,63.2864,61.1735,127.256,100.282,100.398,0.00489248,0.37968,20.4703,86.4962,-0.0105225,0.0,0.0
138,34.25,63.8496,61.4806,128.191,100.28,100.941,0.00488094,0.382776,20.4783,86.356,-0.0597546,0.0,0.0
141,35,64.5247,61.6015,124.322,100.268,100.576,0.00485,0.385109,20.4876,86.336,-0.0278943,0.0,0.0
144,35.75,64.6482,62.2168,122.726,100.268,101.223,0.00480425,0.386167,20.499,86.2259,-0.0862563,0.0,0.0
147,36.5,64.8035,62.9128,125.969,100.252,101.315,0.00476841,0.387217,20.5085,86.0658,-0.0960058,0.0,0.0
150,37.25,65.416,63.1196,130.393,100.225,101.233,0.00474121,0.387591,20.5186,85.9557,-0.0911426,0.0,0.0
153,38,65.1706,63.589,128.94,100.226,102.43,0.00473889,0.387412,20.5286,85.8956,-0.197961,0.0,0.0
156,38.75,65.786,63.5837,127.595,100.22,101.893,0.00474466,0.386444,20.5382,85.8256,-0.150648,0.0,0.0
159,39.5,65.9489,64.2762,125.944,100.196,102.025,0.00477207,0.385144,20.5483,85.6955,-0.16468,0.0,0.0
162,40.25,66.4449,64.4675,125.256,100.175,101.923,0.00479205,0.384197,20.5569,85.5453,-0.157403,0.0,0.0
165,41,66.2655,64.5873,128.541,100.17,102.893,0.00480126,0.381748,20.5659,85.4953,-0.244068,0.0,0.0
168,41.75,66.5345,64.9826,131.24,100.17,102.573,0.00479349,0.37914,20.5735,85.4352,-0.215707,0.0,0.0
171,42.5,66.6344,65.256,127.882,100.164,102.33,0.00476306,0.376887,20.5834,85.3251,-0.194732,0.0,0.0
174,43.25,66.9039,65.2162,130.106,100.132,102.292,0.00472126,0.373452,20.5937,85.175,-0.194227,0.0,0.0
177,44,66.5936,65.6372,127.607,100.12,102.345,0.00469954,0.370482,20.6035,85.0649,-0.200081,0.0,0.0
180,44.75,67.0536,66.0916,130.994,100.112,102.143,0.004696,0.367521,20.6121,85.0149,-0.18285,0.0,0.0
183,45.5,66.901,65.8945,130.02,100.096,102.522,0.00470804,0.364664,20.6191,84.9348,-0.217908,0.0,0.0
186,46.25,66.9507,66.2211,129.496,100.077,102.849,0.00472574,0.361986,20.625,84.7747,-0.248583,0.0,0.0
189,47,67.0624,66.62,127.69,100.064,101.926,0.00473479,0.359525,20.6297,84.6646,-0.167733,0.0,0.0
192,47.75,67.2906,66.4576,135.134,100.049,102.862,0.00471648,0.357301,20.6321,84.6445,-0.252393,0.0,0.0
195,48.5,67.0588,67.1579,131.815,100.027,102.582,0.00466589,0.355304,20.6349,84.5645,-0.229464,0.0,0.0
198,49.25,67.2447,66.897,129.842,100.01,101.623,0.00458628,0.35352,20.637,84.4043,-0.145614,0.0,0.0
201,50,67.4625,67.3353,130.51,99.9934,102.542,0.00444462,0.352443,20.6382,84.3042,-0.229036,0.0,0.0
204,50.75,67.2953,67.1118,128.995,99.9687,103.287,0.00432102,0.350987,20.6387,84.2542,-0.297189,0.0,0.0
207,51.5,67.4347,67.3608,127.085,99.9591,102.907,0.00419616,0.349901,20.636,84.1741,-0.264514,0.0,0.0
210,52.25,67.6888,67.6947,129.955,99.9287,103.174,0.00409625,0.349325,20.633,84.014,-0.290821,0.0,0.0
213,53,67.6041,67.6692,128.991,99.9072,102.094,0.00402932,0.348996,20.6293,83.8839,-0.197078,0.0,0.0
216,53.75,68.1631,67.9679,120.819,99.9092,102.263,0.00399061,0.349654,20.6223,83.8639,-0.211895,0.0,0.0
219,54.5,68.3176,68.3945,132.197,99.8952,102.807,0.00400601,0.350797,20.6157,83.7538,-0.261487,0.0,0.0
222,55.25,68.3352,68.2288,129.937,99.8661,102.121,0.00403583,0.351913,20.6086,83.6337,-0.203232,0.0,0.0
225,56,68.49,68.524,130.989,99.8393,101.677,0.0041145,0.354032,20.6008,83.4635,-0.166018,0.0,0.0
228,56.75,68.9937,68.8326,125.795,99.8361,101.783,0.00419933,0.356078,20.5913,83.3734,-0.175735,0.0,0.0
231,57.5,69.1193,69.0055,125.093,99.8186,102.322,0.00427879,0.358425,20.5821,83.3034,-0.225442,0.0,0.0
234,58.25,69.1822,69.4969,123.803,99.8058,101.86,0.00434684,0.361142,20.5735,83.1933,-0.185424,0.0,0.0
237,59,69.4586,69.7762,125.242,99.777,101.49,0.00438397,0.363922,20.5659,83.0231,-0.154874,0.0,0.0
240,59.75,69.3527,69.9435,127.51,99.7619,102.118,0.00439481,0.366584,20.5598,82.913,-0.212412,0.0,0.0
243,60.5,70.1753,69.9996,126.108,99.7459,101.496,0.00439579,0.369438,20.5549,82.843,-0.158281,0.0,0.0
246,61.25,69.8629,70.2262,127.99,99.7371,101.445,0.0043965,0.372024,20.5511,82.7629,-0.154478,0.0,0.0
249,62,70.4498,70.6299,122.339,99.6936,101.97,0.00434184,0.374295,20.5485,82.5827,-0.205429,0.0,0.0
252,62.75,70.6878,71.0361,126.771,99.676,101.25,0.00429451,0.376239,20.5466,82.4726,-0.142587,0.0,0.0
255,63.5,70.8902,71.4273,127.754,99.6724,101.64,0.00425681,0.377657,20.5453,82.4426,-0.177856,0.0,0.0
258,64.25,70.9482,71.3186,128.451,99.6521,101.429,0.00420621,0.379318,20.5449,82.3225,-0.160827,0.0,0.0
261,65,71.1998,71.8077,123.174,99.6281,102.029,0.00411779,0.380564,20.546,82.1724,-0.216672,0.0,0.0
264,65.75,71.0768,71.7363,127.749,99.6081,102.497,0.00403106,0.381534,20.5478,82.0222,-0.26013,0.0,0.0
267,66.5,71.5196,71.8811,129.077,99.6002,102.793,0.00391273,0.382275,20.5498,81.9922,-0.287169,0.0,0.0
270,67.25,71.9064,72.4373,130.051,99.5814,102.464,0.00379738,0.382803,20.5522,81.8821,-0.259695,0.0,0.0
273,68,71.9375,72.6527,126.467,99.5626,102.292,0.00370347,0.383142,20.5544,81.702,-0.24612,0.0,0.0
276,68.75,71.8545,73.0327,126.743,99.5379,103.191,0.00361824,0.383244,20.5565,81.6219,-0.328034,0.0,0.0
279,69.5,72.4569,72.9464,129.471,99.5263,102.568,0.00354493,0.383217,20.5584,81.5618,-0.273966,0.0,0.0
282,70.25,72.4311,72.9811,125.044,99.5143,103.304,0.00350412,0.383154,20.5596,81.4617,-0.340151,0.0,0.0
285,71,72.4531,73.0871,127.103,99.4928,103.031,0.00343749,0.383011,20.5609,81.3516,-0.317972,0.0,0.0
288,71.75,72.442,73.9072,126.24,99.4552,102.637,0.00338183,0.382907,20.562,81.1915,-0.286617,0.0,0.0
291,72.5,72.6923,73.6091,123.699,99.4544,103.098,0.00334057,0.382831,20.5627,81.1915,-0.327442,0.0,0.0
294,73.25,72.6458,73.7749,126.661,99.4381,102.921,0.00330932,0.382945,20.5626,81.0814,-0.313266,0.0,0.0
297,74,72.7519,73.6451,128.07,99.4157,103.084,0.00327909,0.383165,20.5622,80.9613,-0.329754,0.0,0.0
300,74.75,72.7527,73.7167,124.898,99.383,102.746,0.00325388,0.383479,20.5614,80.7811,-0.302809,0.0,0.0
303,75.5,73.3293,74.3916,125.828,99.373,102.554,0.00320945,0.383976,20.5606,80.6911,-0.286716,0.0,0.0
306,76.25,73.2415,74.787,128.663,99.3686,103.159,0.00313868,0.384604,20.5594,80.651,-0.340664,0.0,0.0
309,77,73.2261,75.0308,124.478,99.345,102.171,0.00307547,0.385322,20.5581,80.5609,-0.255248,0.0,0.0
312,77.75,73.0039,75.2049,128.265,99.3247,103.482,0.00300465,0.38622,20.5567,80.3808,-0.373126,0.0,0.0
315,78.5,73.2095,75.1025,126.678,99.3127,102.968,0.0029555,0.387033,20.5544,80.2707,-0.328967,0.0,0.0
318,79.25,73.7546,75.4102,124.645,99.2935,102.719,0.00293116,0.388597,20.5507,80.2507,-0.308648,0.0,0.0
321,80,73.8222,75.3599,129.997,99.2736,102.322,0.00293125,0.390267,20.5461,80.1105,-0.275263,0.0,0.0
324,80.75,74.0863,75.8314,127.822,99.2484,102.555,0.00296669,0.392015,20.5419,79.9504,-0.29829,0.0,0.0
327,81.5,74.587,75.3292,125.395,99.2293,102.673,0.00299252,0.393813,20.5385,79.8403,-0.310511,0.0,0.0
330,82.25,73.8009,75.8274,128.166,99.2145,102.538,0.0030609,0.396174,20.5338,79.8103,-0.299844,0.0,0.0
333,83,74.6881,76.1663,125.902,99.2069,102.158,0.00314192,0.398357,20.5295,79.6702,-0.266747,0.0,0.0
336,83.75,74.5943,76.6553,127.136,99.1977,102.704,0.00321428,0.400738,20.5251,79.51,-0.316078,0.0,0.0
339,84.5,74.7894,76.8488,124.444,99.163,102.252,0.00328927,0.40385,20.52,79.3899,-0.279197,0.0,0.0
342,85.25,75.0512,76.7999,121.755,99.1486,102.249,0.00338198,0.406119,20.5139,79.3399,-0.280195,0.0,0.0
345,86,75.0393,77.0042,126.253,99.1446,102.048,0.00348328,0.40946,20.5081,79.2298,-0.262629,0.0,0.0
348,86.75,75.8781,77.5717,124.547,99.1223,102.03,0.00356303,0.411896,20.5034,79.1197,-0.263155,0.0,0.0
351,87.5,75.3917,77.0136,121.837,99.0987,101.788,0.00363124,0.415581,20.4968,78.9495,-0.243685,0.0,0.0
354,88.25,75.4441,77.7206,121.433,99.0879,100.987,0.00368808,0.418755,20.4906,78.8895,-0.17273,0.0,0.0
357,89,76.1447,77.7529,127.979,99.0688,101,0.00372951,0.421902,20.4856,78.8194,-0.175667,0.0,0.0
360,89.75,76.4034,78.5186,122.08,99.06,99.6988,0.00377037,0.425144,20.482,78.7093,-0.0584967,0.0,0.0
363,90.5,76.1916,78.1159,121.62,99.0296,100.336,0.00381137,0.42807,20.4793,78.5191,-0.119219,0.0,0.0
366,91.25,76.5479,78.7057,127.743,99.0133,100.376,0.00384997,0.430442,20.4773,78.4391,-0.124399,0.0,0.0
369,92,76.8298,78.5315,126.625,99.0081,98.9657,0.00388483,0.432798,20.4759,78.329,0.00389591,0.0,0.0
372,92.75,76.8407,78.5484,124.003,98.9925,99.5668,0.00390847,0.434739,20.4749,78.2389,-0.0526463,0.0,0.0
375,93.5,77.1003,79.0063,126.574,98.9638,99.86,0.00391912,0.436533,20.4741,78.0487,-0.0820431,0.0,0.0
378,94.25,77.0814,79.0403,125.735,98.9518,99.2584,0.0039156,0.438176,20.4736,77.9587,-0.0281544,0.0,0.0
381,95,77.0735,79.5145,125.296,98.9594,98.8617,0.00390771,0.439619,20.4733,77.9186,0.00898888,0.0,0.0
384,95.75,77.2216,79.8595,122.265,98.9446,98.9968,0.00390196,0.440846,20.4734,77.8185,-0.0047968,0.0,0.0
387,96.5,77.3844,79.7311,122.871,98.9234,99.0548,0.00390773,0.441773,20.4737,77.6184,-0.0120812,0.0,0.0
390,97.25,77.5434,80.1823,125.317,98.9091,99.729,0.0039175,0.44249,20.4743,77.5083,-0.0751247,0.0,0.0
393,98,77.6593,79.8397,125.727,98.8991,99.5677,0.00392686,0.44306,20.4753,77.4682,-0.0613206,0.0,0.0
396,98.75,77.556,80.048,121.196,98.9023,98.9571,0.00393724,0.443494,20.4765,77.3681,-0.00504645,0.0,0.0
399,99.5,77.7902,80.4466,129.4,98.8811,100.058,0.00394743,0.443843,20.4776,77.208,-0.107643,0.0,0.0
402,100.25,77.8204,80.8176,124.752,98.8687,99.8595,0.00395934,0.444122,20.4784,77.0479,-0.0907432,0.0,0.0
405,101,77.8873,80.714,126.671,98.8607,98.6,0.00397692,0.444335,20.4789,77.0178,0.02403,0.0,0.0
408,101.75,78.0883,80.9986,124.967,98.8631,100.081,0.00399222,0.444506,20.4796,76.9578,-0.111385,0.0,0.0
411,102.5,78.2141,80.6526,124.081,98.8695,99.5281,0.00400444,0.444631,20.4805,76.8277,-0.0604174,0.0,0.0
414,103.25,78.2412,81.1073,123.313,98.8444,99.1773,0.0040096,0.444775,20.4811,76.6875,-0.0306021,0.0,0.0
417,104,78.3796,81.3498,125.611,98.8492,99.8136,0.00401047,0.44494,20.4815,76.6475,-0.0883576,0.0,0.0
420,104.75,78.5546,81.4849,122.52,98.8512,99.1346,0.00400885,0.445123,20.4819,76.5975,-0.0260512,0.0,0.0
423,105.5,78.7118,81.4466,127.127,98.8432,99.7812,0.00401889,0.445275,20.4824,76.4373,-0.085953,0.0,0.0
426,106.25,78.7571,81.8092,128.599,98.8232,99.9856,0.00403821,0.445393,20.4831,76.2972,-0.106418,0.0,0.0
429,107,78.8471,81.8212,126.753,98.846,99.6587,0.00405674,0.445337,20.4835,76.2171,-0.0745182,0.0,0.0
432,107.75,78.955,82.0229,126.253,98.8412,99.8541,0.00407814,0.445172,20.4852,76.1871,-0.0927875,0.0,0.0
435,108.5,78.7298,82.058,125.553,98.842,99.1931,0.00412933,0.44494,20.4882,76.047,-0.0322688,0.0,0.0
438,109.25,79.1822,81.9254,126.794,98.8408,98.3735,0.00418037,0.444559,20.4914,75.8868,0.043122,0.0,0.0
441,110,79.1902,82.393,130.178,98.8536,100.018,0.00422344,0.444301,20.4941,75.7767,-0.106574,0.0,0.0
444,110.75,79.5362,82.1307,125.807,98.8671,100.046,0.00425109,0.443791,20.4961,75.7667,-0.107824,0.0,0.0
447,111.5,79.0176,82.6259,133.913,98.8691,99.561,0.00425717,0.443329,20.4975,75.6566,-0.0634593,0.0,0.0
450,112.25,79.0823,82.4174,124.245,98.8576,100.548,0.00424027,0.442741,20.5005,75.4765,-0.154262,0.0,0.0
453,113,79.0203,82.5934,125.765,98.8799,100.449,0.00416571,0.442146,20.5035,75.4064,-0.143273,0.0,0.0
456,113.75,79.2512,82.5274,124.344,98.9091,100.807,0.00405783,0.441427,20.506,75.3864,-0.172967,0.0,0.0
459,114.5,79.4487,82.6747,124.553,98.9103,100.182,0.00395636,0.440638,20.5085,75.2963,-0.116298,0.0,0.0
462,115.25,79.1147,82.7244,123.964,98.9198,100.935,0.00377425,0.439813,20.5112,75.1362,-0.183553,0.0,0.0
465,116,79.0709,82.7408,130.885,98.9234,101.156,0.00360303,0.438788,20.5136,75.0461,-0.203054,0.0,0.0
468,116.75,79.3336,82.6522,125.379,98.955,100.304,0.00346181,0.437726,20.5172,75.0361,-0.123182,0.0,0.0
471,117.5,79.3659,82.9973,127.848,98.9833,101.291,0.0033415,0.436638,20.5205,74.936,-0.209691,0.0,0.0
474,118.25,79.4244,83.0307,129.491,98.9805,101.26,0.00325031,0.435308,20.524,74.7758,-0.207238,0.0,0.0
477,119,79.3983,83.1574,127.171,98.9993,101.129,0.00319053,0.433566,20.5285,74.7058,-0.193728,0.0,0.0
480,119.75,79.2679,83.1284,126.227,99.0288,101.758,0.00316059,0.431873,20.5336,74.6958,-0.247365,0.0,0.0
483,120.5,79.2443,83.4014,126.914,99.0496,101.092,0.00315326,0.429917,20.5387,74.6157,-0.185742,0.0,0.0
486,121.25,79.1316,83.3505,125.324,99.0612,100.842,0.00315685,0.427621,20.5436,74.4856,-0.162152,0.0,0.0
489,122,79.3604,83.0475,128.611,99.0831,101.374,0.00316839,0.42512,20.5503,74.3755,-0.208042,0.0,0.0
492,122.75,78.9357,83.3618,124.313,99.0907,101.286,0.00318389,0.422517,20.5578,74.3755,-0.199419,0.0,0.0
495,123.5,79.3659,83.1911,131.871,99.1274,101.674,0.00319519,0.419387,20.5644,74.2954,-0.230854,0.0,0.0
498,124.25,78.7469,82.9326,125.138,99.1486,101.576,0.00321759,0.416036,20.5709,74.1953,-0.220081,0.0,0.0
501,125,78.6617,83.3613,128.305,99.1586,101.834,0.00323523,0.412561,20.5764,74.0852,-0.242252,0.0,0.0
504,125.75,78.556,83.2132,129.506,99.1989,101.077,0.00325032,0.409039,20.5836,74.0852,-0.170654,0.0,0.0
507,126.5,78.6106,83.3515,128.335,99.2281,101.69,0.00325424,0.4044,20.5904,74.0352,-0.222993,0.0,0.0
510,127.25,78.2597,83.0597,132.795,99.2588,101.597,0.00325122,0.401019,20.5982,73.9551,-0.211909,0.0,0.0
513,128,78.2218,83.1732,130.974,99.262,101.988,0.00323896,0.395625,20.6094,73.845,-0.24656,0.0,0.0
516,128.75,78.2957,83.1677,134.549,99.2959,102.329,0.00323002,0.390107,20.6216,73.815,-0.273814,0.0,0.0
519,129.5,78.1298,82.8009,129.868,99.3263,102.054,0.00322475,0.385409,20.6321,73.805,-0.246533,0.0,0.0
522,130.25,77.6075,82.5541,133.625,99.353,103.398,0.00322144,0.378926,20.6442,73.775,-0.3632,0.0,0.0
525,131,77.5343,82.8143,130.668,99.3726,102.777,0.00321902,0.372255,20.6548,73.6449,-0.30651,0.0,0.0
528,131.75,77.5332,82.5151,131.725,99.3949,103.052,0.00319071,0.365424,20.6661,73.6348,-0.328793,0.0,0.0
531,132.5,77.1106,82.2724,136.455,99.4345,103.433,0.00316511,0.358499,20.678,73.6549,-0.358793,0.0,0.0
534,133.25,76.6313,82.0878,139.885,99.4608,103.991,0.00315936,0.35345,20.6907,73.6148,-0.405298,0.0,0.0
537,134,76.4158,81.8727,137.225,99.4728,104.371,0.00318085,0.344066,20.7074,73.5147,-0.43744,0.0,0.0
540,134.75,76.1058,81.5795,141.511,99.4832,104.561,0.00328688,0.335646,20.7266,73.4947,-0.453005,0.0,0.0
543,135.5,75.2042,81.1647,133.381,99.5215,104.698,0.00341988,0.326809,20.7436,73.5448,-0.461484,0.0,0.0
546,136.25,75.7331,81.0636,135.962,99.5335,105.395,0.0036121,0.317639,20.7628,73.5247,-0.520738,0.0,0.0
549,137,74.922,80.839,141.052,99.5642,104.819,0.00393215,0.308549,20.7795,73.4647,-0.468062,0.0,0.0
552,137.75,74.6346,80.6611,138.064,99.5642,105.269,0.00416547,0.299802,20.7927,73.4247,-0.507074,0.0,0.0
555,138.5,73.9511,79.9999,140.195,99.6002,104.782,0.0046057,0.289669,20.8055,73.4947,-0.461534,0.0,0.0
558,139.25,73.7059,80.136,140.672,99.6277,105.336,0.00504501,0.280104,20.8172,73.4947,-0.507033,0.0,0.0
561,140,72.9148,79.6367,135.227,99.6397,105.168,0.00562282,0.272204,20.8317,73.4447,-0.491377,0.0,0.0
564,140.75,72.8905,79.1421,138.25,99.6509,105.8,0.00588031,0.263914,20.8385,73.3746,-0.544938,0.0,0.0
567,141.5,71.863,79.3702,139.434,99.6888,104.93,0.0063187,0.255593,20.8477,73.4146,-0.466296,0.0,0.0
570,142.25,72.032,78.9138,140.714,99.7167,105.048,0.00672462,0.247475,20.8555,73.4146,-0.473972,0.0,0.0
573,143,71.5914,78.0836,134.865,99.7283,105.106,0.00709014,0.237186,20.8619,73.3646,-0.477985,0.0,0.0
576,143.75,70.9245,77.685,135.938,99.7467,105.227,0.0074127,0.232034,20.8678,73.2845,-0.486751,0.0,0.0
579,144.5,70.4742,77.0259,138.873,99.7686,105.502,0.0076854,0.2254,20.8721,73.3246,-0.508473,0.0,0.0
582,145.25,70.1883,77.1293,139.738,99.8042,104.929,0.00794842,0.219398,20.8759,73.3446,-0.455652,0.0,0.0
585,146,69.887,77.1544,138.525,99.8086,104.782,0.00821037,0.213717,20.8791,73.3146,-0.44255,0.0,0.0
588,146.75,69.4783,76.4793,142.89,99.8197,104.769,0.00846833,0.20902,20.8822,73.2445,-0.440397,0.0,0.0
591,147.5,68.9757,76.4306,138.685,99.8397,104.952,0.00871976,0.203636,20.8851,73.2645,-0.454443,0.0,0.0
594,148.25,68.8406,75.9839,141.283,99.8573,105.21,0.00896582,0.199037,20.8879,73.3646,-0.475148,0.0,0.0
597,149,68.3372,75.459,143.942,99.8673,105.162,0.00918952,0.194534,20.8904,73.3546,-0.470149,0.0,0.0
600,149.75,68.1927,75.0294,137.952,99.8705,105.322,0.0093826,0.189837,20.8925,73.2645,-0.48368,0.0,0.0
603,150.5,67.4774,75.0359,140.764,99.8972,104.938,0.00955631,0.185876,20.8948,73.2545,-0.447994,0.0,0.0
606,151.25,67.5079,74.6464,142.856,99.91,105.075,0.00970188,0.182072,20.8964,73.3446,-0.458694,0.0,0.0
609,152,67.401,74.4249,146.362,99.92,105.41,0.00984036,0.178163,20.8982,73.2645,-0.486715,0.0,0.0
612,152.75,66.9991,74.0926,138.06,99.9136,105.124,0.00998504,0.174608,20.8995,73.1845,-0.462616,0.0,0.0
615,153.5,66.6116,73.804,137.957,99.9307,105.099,0.0101425,0.171716,20.9007,73.1744,-0.45887,0.0,0.0
618,154.25,65.9979,74.0728,144.919,99.9503,104.947,0.010255,0.168686,20.9009,73.2845,-0.44394,0.0,0.0
621,155,66.0312,73.1923,143.171,99.9531,104.731,0.0103944,0.166085,20.9009,73.2745,-0.424923,0.0,0.0
624,155.75,65.2813,72.6745,139.389,99.9559,104.912,0.0105122,0.163517,20.9013,73.1845,-0.440384,0.0,0.0
627,156.5,65.5969,72.4253,139.246,99.9579,105.327,0.0106007,0.160634,20.9018,73.1744,-0.476106,0.0,0.0
630,157.25,65.0203,72.5458,141.194,99.9799,104.889,0.0106662,0.158905,20.9022,73.2745,-0.43625,0.0,0.0
633,158,64.7581,72.1272,139.018,99.997,105.053,0.0107047,0.156159,20.9023,73.2445,-0.448898,0.0,0.0
636,158.75,64.4125,71.916,141.11,99.985,105.075,0.0107328,0.153898,20.9023,73.1644,-0.451899,0.0,0.0
639,159.5,64.3164,71.6124,140.726,99.995,105.322,0.0107349,0.151804,20.9027,73.1144,-0.472337,0.0,0.0
642,160.25,63.9016,71.1257,140.518,100.011,104.934,0.0107339,0.14984,20.9033,73.1945,-0.43728,0.0,0.0
645,161,63.6178,70.8684,140.773,100.019,105.316,0.0107334,0.148222,20.9036,73.2045,-0.469613,0.0,0.0
648,161.75,63.5085,70.953,140.136,100.011,105.491,0.0107354,0.146297,20.9039,73.1244,-0.485502,0.0,0.0
651,162.5,63.2634,70.5737,139.206,100.005,105.52,0.0107407,0.144894,20.9041,73.1144,-0.488494,0.0,0.0
654,163.25,62.9168,70.4826,137.005,100.015,104.949,0.0107475,0.143189,20.9042,73.1845,-0.438247,0.0,0.0
657,164,63.0357,70.2658,137.506,100.026,105.641,0.0107548,0.141555,20.9043,73.1845,-0.49697,0.0,0.0
660,164.75,62.8552,69.7835,137.541,100.033,105.283,0.0107767,0.14003,20.9044,73.1244,-0.465539,0.0,0.0
663,165.5,62.3787,69.5693,138.069,100.014,105.471,0.0107927,0.138633,20.9045,73.0844,-0.483462,0.0,0.0
666,166.25,62.4461,69.6052,139.518,100.02,105.104,0.0108613,0.137201,20.905,73.1244,-0.451197,0.0,0.0
669,167,62.2702,68.9058,140.827,100.026,104.983,0.0109386,0.135884,20.9055,73.1444,-0.440194,0.0,0.0
672,167.75,62.1647,69.0343,139.138,100.027,104.848,0.0110415,0.134807,20.9059,73.1144,-0.428407,0.0,0.0
675,168.5,61.6459,68.7057,137.023,100.017,105.521,0.0112013,0.133486,20.9068,73.0243,-0.487482,0.0,0.0
678,169.25,61.6055,68.7559,134.837,100.013,105.219,0.0113541,0.132349,20.9077,73.0443,-0.461827,0.0,0.0
681,170,59.969,66.8518,140.873,100.015,105.206,0.0114891,0.131223,20.9083,73.0844,-0.460513,0.0,0.0
684,170.75,59.7925,66.4138,136.554,100.017,105.591,0.0116015,0.130143,20.9088,73.0543,-0.493539,0.0,0.0
687,171.5,59.775,66.2469,142.023,100,104.709,0.011665,0.129103,20.9091,72.9843,-0.418756,0.0,0.0
690,172.25,59.1614,66.4114,140.385,100.001,105.312,0.0117113,0.128098,20.9094,72.9843,-0.470897,0.0,0.0
693,173,59.3593,66.033,136.353,100.019,105.369,0.011673,0.127165,20.91,73.0643,-0.474205,0.0,0.0
696,173.75,58.232,66.0522,139.715,100.005,105.256,0.0116115,0.1263,20.9107,73.0643,-0.465744,0.0,0.0
699,174.5,58.4088,65.2026,140.651,99.9982,104.721,0.0115435,0.125501,20.9111,72.9743,-0.419916,0.0,0.0
702,175.25,58.6148,64.629,138.067,100.002,105.206,0.0114788,0.124571,20.9115,72.9542,-0.461714,0.0,0.0
705,176,58.2643,65.2056,137.936,99.9974,105.609,0.0114076,0.123795,20.9117,73.0443,-0.496831,0.0,0.0
708,176.75,58.0609,64.7381,136.455,100,105.502,0.0113558,0.123061,20.9119,73.0143,-0.487415,0.0,0.0
711,177.5,57.5183,64.7684,141.172,99.9934,105.192,0.0112818,0.122383,20.912,72.9342,-0.46127,0.0,0.0
714,178.25,57.9908,64.276,139.783,99.9874,104.973,0.0112124,0.121774,20.9121,72.9142,-0.442823,0.0,0.0
717,179,57.6862,64.3107,140.322,99.9894,105.405,0.011136,0.12124,20.9116,73.0043,-0.480002,0.0,0.0
720,179.75,57.4787,63.9679,141.317,99.9942,105.257,0.0110803,0.120707,20.911,72.9943,-0.466767,0.0,0.0
723,180.5,57.4551,63.8067,139.874,99.9842,105.251,0.0109736,0.120074,20.9105,72.9643,-0.467168,0.0,0.0
726,181.25,57.7293,63.7298,138.907,99.9739,105.104,0.0108417,0.119425,20.9104,72.8742,-0.455372,0.0,0.0
729,182,56.8822,63.3301,140.277,99.9739,104.99,0.0107225,0.118871,20.9107,72.9342,-0.445542,0.0,0.0
732,182.75,57.3598,63.3652,140.83,99.9687,105.615,0.0105403,0.118345,20.9109,72.9542,-0.500029,0.0,0.0
735,183.5,57.2223,63.2682,141.691,99.9643,105.781,0.0103434,0.117924,20.9106,72.9142,-0.514657,0.0,0.0
738,184.25,56.5615,62.9665,138.683,99.9443,105.144,0.0101768,0.117553,20.9103,72.8341,-0.461571,0.0,0.0
741,185,57.0441,62.8968,143.924,99.9359,105.238,0.0100455,0.117168,20.91,72.8742,-0.470476,0.0,0.0
744,185.75,56.3949,62.6748,142.998,99.9531,104.732,0.00993697,0.116738,20.9098,72.8842,-0.42504,0.0,0.0
747,186.5,56.3019,62.084,138.489,99.9643,105.475,0.00984708,0.116382,20.9096,72.8842,-0.488354,0.0,0.0
750,187.25,56.5461,62.5822,138.505,99.9319,105.687,0.00976309,0.11598,20.9095,72.8141,-0.50958,0.0,0.0
753,188,56.6923,61.9417,144.217,99.9411,105.711,0.0096801,0.115643,20.9094,72.8241,-0.510799,0.0,0.0
756,188.75,56.113,61.58,141.313,99.9571,105.677,0.00961032,0.11538,20.9094,72.8942,-0.506359,0.0,0.0
759,189.5,56.2288,62.0634,138.153,99.9487,104.689,0.00951929,0.115045,20.9093,72.8842,-0.421644,0.0,0.0
762,190.25,55.5886,61.4793,136.984,99.9319,104.921,0.00942736,0.114687,20.9093,72.7941,-0.443346,0.0,0.0
765,191,55.6763,61.644,137.074,99.9391,104.511,0.00933531,0.114377,20.9093,72.7941,-0.40708,0.0,0.0
768,191.75,55.5484,61.3179,139.638,99.9335,104.751,0.00924406,0.114028,20.9093,72.8742,-0.428425,0.0,0.0
771,192.5,56.0045,60.7105,140.026,99.9415,104.612,0.00913928,0.113767,20.9093,72.8141,-0.415602,0.0,0.0
774,193.25,55.3861,60.8431,143.245,99.9287,105.21,0.00906289,0.113564,20.9093,72.7241,-0.468638,0.0,0.0
777,194,55.3646,60.7015,133.119,99.922,105.761,0.00894897,0.113354,20.9099,72.704,-0.516844,0.0,0.0
780,194.75,55.5524,60.3699,141.094,99.922,104.338,0.0088441,0.113116,20.9099,72.7741,-0.393535,0.0,0.0
783,195.5,55.5093,60.2022,136.358,99.9268,105.257,0.00876638,0.112905,20.9097,72.7341,-0.472909,0.0,0.0
786,196.25,55.3803,60.1973,139.137,99.9196,105.181,0.0087132,0.112609,20.9096,72.674,-0.46702,0.0,0.0
789,197,55.0415,60.5908,141.691,99.9124,105.094,0.00868131,0.112356,20.9101,72.684,-0.460152,0.0,0.0
792,197.75,54.8476,60.2952,138.921,99.9399,105.217,0.00865807,0.112107,20.9105,72.8141,-0.468243,0.0,0.0
795,198.5,54.0968,59.8511,143.989,99.9275,104.947,0.00863111,0.111885,20.9108,72.7641,-0.446012,0.0,0.0
798,199.25,54.6411,59.4567,136.968,99.922,105.508,0.00859432,0.111709,20.911,72.694,-0.495043,0.0,0.0
801,200,54.3161,59.6533,139.413,99.918,105.26,0.0085675,0.111552,20.9111,72.654,-0.47402,0.0,0.0
804,200.75,54.3891,59.2101,139.261,99.9251,105.392,0.0085198,0.111398,20.9112,72.7241,-0.484765,0.0,0.0
807,201.5,54.2264,59.8463,143.145,99.9335,105.684,0.00843689,0.111185,20.9117,72.684,-0.509124,0.0,0.0
810,202.25,54.607,59.5461,138.299,99.9299,105.913,0.00835467,0.111029,20.9121,72.654,-0.529205,0.0,0.0
813,203,54.7386,59.3546,141.049,99.9176,105.672,0.00828328,0.110875,20.9123,72.624,-0.509609,0.0,0.0
816,203.75,54.1998,59.548,140.501,99.9268,105.753,0.00822636,0.110744,20.9125,72.644,-0.515711,0.0,0.0
819,204.5,54.3154,59.2276,139.283,99.9427,105.421,0.00817217,0.110606,20.9122,72.704,-0.485654,0.0,0.0
822,205.25,54.0567,59.3298,137.824,99.9355,105.268,0.0081109,0.110487,20.9118,72.664,-0.473043,0.0,0.0
825,206,54.4658,59.1275,139.735,99.9327,105.16,0.00805421,0.11038,20.9115,72.5539,-0.464028,0.0,0.0
828,206.75,54.2762,58.662,140.05,99.9451,104.891,0.00799229,0.110273,20.9113,72.5739,-0.43953,0.0,0.0
831,207.5,53.7159,59.0826,140.383,99.9487,105.328,0.00793445,0.110169,20.9112,72.614,-0.477097,0.0,0.0
834,208.25,53.982,58.8465,141.811,99.9435,105.016,0.0078659,0.110066,20.911,72.5939,-0.45049,0.0,0.0
837,209,53.6416,58.3246,138.191,99.9459,105.128,0.00780793,0.109911,20.911,72.5339,-0.460022,0.0,0.0
840,209.75,53.428,57.9272,138.602,99.9435,104.847,0.00776051,0.109797,20.9109,72.4738,-0.435885,0.0,0.0
843,210.5,53.6341,57.9078,139.154,99.9519,105.63,0.00772374,0.109714,20.9109,72.614,-0.502836,0.0,0.0
846,211.25,53.5462,58.4438,140.937,99.9467,105.233,0.00767342,0.109625,20.9111,72.624,-0.469067,0.0,0.0
849,212,53.9943,58.5091,140.375,99.9443,105.311,0.00761517,0.109548,20.9114,72.5539,-0.47598,0.0,0.0
852,212.75,53.8285,57.7949,140.603,99.9539,104.812,0.00756352,0.109348,20.9116,72.5139,-0.431851,0.0,0.0
855,213.5,53.5667,57.9791,139.498,99.9555,105.133,0.00749876,0.109188,20.9118,72.5739,-0.459618,0.0,0.0
858,214.25,53.2782,58.22,141.488,99.9575,105.225,0.00744421,0.109065,20.9119,72.5939,-0.467345,0.0,0.0
861,215,53.5397,57.9253,139.516,99.9599,105.473,0.0073919,0.108914,20.912,72.5239,-0.488521,0.0,0.0
864,215.75,53.6385,57.7871,141.917,99.9423,105.712,0.00735738,0.108747,20.912,72.4138,-0.510728,0.0,0.0
867,216.5,52.979,57.6109,138.18,99.9567,104.809,0.00733095,0.108601,20.9121,72.4938,-0.431363,0.0,0.0
870,217.25,53.047,57.3631,139.412,99.9619,104.865,0.00731047,0.108515,20.9121,72.5239,-0.435737,0.0,0.0
873,218,52.9116,57.0897,138.995,99.9623,105.697,0.0072944,0.108445,20.9121,72.4938,-0.50763,0.0,0.0
876,218.75,53.2183,57.3238,137.948,99.9511,105.375,0.00727509,0.108381,20.9121,72.4638,-0.480925,0.0,0.0
879,219.5,53.3258,57.1971,139.133,99.9695,105.401,0.00725578,0.108355,20.9121,72.5039,-0.481469,0.0,0.0
882,220.25,53.4236,57.2095,137.009,99.9695,105.171,0.00723828,0.108293,20.9122,72.5439,-0.46158,0.0,0.0
885,221,52.9847,57.0627,141.107,99.9559,104.884,0.00722885,0.108229,20.9122,72.5139,-0.437962,0.0,0.0
888,221.75,52.9136,56.8369,141.114,99.9603,104.479,0.00722768,0.108183,20.9122,72.4138,-0.402331,0.0,0.0
891,222.5,52.6044,56.6958,146.421,99.9575,105.346,0.00723696,0.108129,20.9122,72.4338,-0.477776,0.0,0.0
894,223.25,52.8691,57.0489,137.744,99.9782,105.095,0.00724804,0.108075,20.9122,72.4738,-0.454194,0.0,0.0
897,224,53.3182,56.9751,147.894,99.9755,105.073,0.00726499,0.108009,20.9124,72.4438,-0.452576,0.0,0.0
900,224.75,53.1356,56.7485,142.065,99.9603,105.384,0.00727712,0.107917,20.9129,72.3737,-0.480867,0.0,0.0
903,225.5,52.5261,56.5224,139.301,99.9647,104.599,0.00727179,0.107772,20.9139,72.3837,-0.412397,0.0,0.0
906,226.25,52.8081,57.0685,139.566,99.9703,105.275,0.00725537,0.107622,20.9147,72.4538,-0.470543,0.0,0.0
909,227,52.5634,56.8068,139.057,99.9838,105.942,0.00723305,0.107435,20.915,72.4338,-0.526773,0.0,0.0
912,227.75,51.5763,56.4304,139.274,99.9755,105.195,0.00720726,0.107259,20.9155,72.3437,-0.463139,0.0,0.0
915,228.5,52.3565,56.6261,139.764,99.9723,105.379,0.00717707,0.107116,20.9158,72.3437,-0.47931,0.0,0.0
918,229.25,52.2631,55.8877,143.959,99.989,105.168,0.00715553,0.106998,20.916,72.4238,-0.459526,0.0,0.0
921,230,52.4127,56.4199,140.347,99.9775,105.663,0.00714895,0.106929,20.9162,72.4438,-0.50338,0.0,0.0
924,230.75,51.9695,55.7618,139.35,99.9814,104.808,0.00717485,0.106877,20.9163,72.4238,-0.42903,0.0,0.0
927,231.5,52.1081,55.5169,144.625,99.9767,105.447,0.00720513,0.106852,20.9164,72.3637,-0.48478,0.0,0.0
930,232.25,51.9289,56.0215,140.747,99.9826,105.029,0.00723206,0.106833,20.9165,72.4338,-0.44806,0.0,0.0
933,233,52.4037,55.8251,139.773,99.9926,105.531,0.00724447,0.106834,20.9165,72.4238,-0.490591,0.0,0.0
936,233.75,52.3892,55.9627,141.091,99.981,105.045,0.00723452,0.106841,20.9166,72.3237,-0.449648,0.0,0.0
939,234.5,52.1205,55.2608,139.918,99.9866,105.655,0.00721917,0.106846,20.9166,72.2636,-0.501808,0.0,0.0
942,235.25,52.2072,55.4487,138.453,99.9878,105.915,0.00717001,0.106834,20.9166,72.3337,-0.524089,0.0,0.0
945,236,52.1407,55.3064,137.443,99.995,105.367,0.00710867,0.1068,20.9166,72.2937,-0.476188,0.0,0.0
948,236.75,52.0595,55.7489,137.853,99.9894,105.616,0.00704802,0.106653,20.9166,72.2436,-0.498217,0.0,0.0
951,237.5,52.5584,55.3574,139.072,99.9739,105.599,0.0070076,0.106489,20.9166,72.2036,-0.49816,0.0,0.0
954,238.25,51.9439,55.4891,142.449,99.9918,105.814,0.00698574,0.106346,20.9166,72.3037,-0.515056,0.0,0.0
957,239,52.36,55.355,140.99,99.9994,105.743,0.00698005,0.106212,20.9166,72.3737,-0.508244,0.0,0.0
960,239.75,51.9004,55.6469,142.114,99.9994,105.34,0.00698312,0.106103,20.9162,72.3237,-0.473455,0.0,0.0
963,240.5,52.2618,55.5136,140.911,99.9946,105.957,0.00699168,0.106023,20.9157,72.2636,-0.52703,0.0,0.0
966,241.25,51.8065,55.658,140.627,99.989,105.381,0.00700062,0.106047,20.9147,72.3037,-0.477939,0.0,0.0
969,242,51.9155,55.2519,137.798,100.012,105.379,0.00701512,0.106135,20.914,72.3437,-0.475676,0.0,0.0
972,242.75,52.1119,55.4954,140.809,100.007,104.839,0.00703937,0.106244,20.9135,72.3137,-0.429477,0.0,0.0
975,243.5,51.9934,55.2804,139.939,99.9886,104.727,0.00706787,0.10635,20.9131,72.2436,-0.421336,0.0,0.0
978,244.25,51.8197,55.1654,142.389,99.9914,104.867,0.00708999,0.106434,20.9128,72.2236,-0.433282,0.0,0.0
981,245,52.127,54.9556,141.524,100.001,105.741,0.00710839,0.106509,20.9126,72.2937,-0.507905,0.0,0.0
984,245.75,51.8267,55.147,140.711,100.008,105.172,0.00710555,0.10657,20.9124,72.2737,-0.458173,0.0,0.0
987,246.5,51.9204,54.9106,140.633,99.9938,105.507,0.00710348,0.106628,20.913,72.1736,-0.488385,0.0,0.0
990,247.25,51.4972,54.4766,136.94,99.9898,105.698,0.00706949,0.10667,20.9131,72.1535,-0.505201,0.0,0.0
993,248,51.6389,54.8732,140.119,99.9982,105.374,0.00703806,0.106601,20.9131,72.2136,-0.476559,0.0,0.0
996,248.75,51.6724,54.6873,141.35,99.999,105.581,0.00700376,0.106508,20.9131,72.2136,-0.494319,0.0,0.0
999,249.5,51.7768,54.6868,140.333,99.9998,105.631,0.00696106,0.106327,20.9131,72.1936,-0.498553,0.0,0.0
1002,250.25,51.7686,54.3651,138.782,99.9906,105.146,0.00691639,0.106146,20.9131,72.1435,-0.457472,0.0,0.0
1005,251,51.6268,54.4266,138.916,99.9994,104.981,0.0068736,0.105933,20.913,72.2136,-0.442397,0.0,0.0
1008,251.75,51.3787,54.7107,140.85,99.9902,105.063,0.00682977,0.105815,20.913,72.2336,-0.450334,0.0,0.0
1011,252.5,50.8679,54.5733,137.658,99.9806,104.652,0.00678313,0.105793,20.913,72.1836,-0.415526,0.0,0.0
1014,253.25,51.95,54.6506,141.124,99.9755,104.928,0.00673322,0.105818,20.913,72.0835,-0.43997,0.0,0.0
1017,254,51.3996,53.7879,137.788,99.9779,104.731,0.00667664,0.105836,20.913,72.1235,-0.422708,0.0,0.0
1020,254.75,51.7105,53.9055,140.202,99.9842,105.232,0.00662299,0.105849,20.913,72.1836,-0.465495,0.0,0.0
1023,255.5,51.5217,54.1457,138.655,99.9715,105.311,0.00658227,0.105899,20.913,72.1335,-0.473508,0.0,0.0
1026,256.25,51.6504,54.1457,141.275,99.9767,104.724,0.00655764,0.105928,20.913,72.0935,-0.422152,0.0,0.0
1029,257,51.0018,54.1783,138.284,99.9535,105.114,0.00654448,0.105936,20.913,72.1035,-0.458084,0.0,0.0
1032,257.75,51.6444,54.0202,137.877,99.9619,104.536,0.00653944,0.105882,20.9137,72.1535,-0.407164,0.0,0.0
1035,258.5,50.7659,54.2401,139.465,99.9483,105.453,0.00654116,0.105819,20.9141,72.1135,-0.487904,0.0,0.0
1038,259.25,51.6054,53.675,144.251,99.9347,105.191,0.00654747,0.105735,20.9145,72.0434,-0.466457,0.0,0.0
1041,260,51.6475,53.8396,141.634,99.9287,105.029,0.0065602,0.105593,20.9147,72.0334,-0.452967,0.0,0.0
1044,260.75,52.0421,53.9213,142.681,99.9287,105.107,0.0065797,0.105432,20.9149,72.1135,-0.459792,0.0,0.0
1047,261.5,51.2816,53.8599,141.417,99.9116,105.501,0.0066116,0.105291,20.915,72.1135,-0.495368,0.0,0.0
1050,262.25,51.4837,53.6537,137.603,99.91,105.316,0.0066424,0.105167,20.9151,71.9934,-0.479535,0.0,0.0
1053,263,51.0373,54.024,133.74,99.8892,105.824,0.00667243,0.105077,20.9152,72.0234,-0.525211,0.0,0.0
1056,263.75,50.927,53.8198,140.659,99.8888,105.369,0.00669755,0.105026,20.9152,72.0835,-0.486014,0.0,0.0
1059,264.5,51.4249,53.9461,136.397,99.8732,105.214,0.00669785,0.105015,20.9153,72.0835,-0.474044,0.0,0.0
1062,265.25,51.377,53.4352,141.163,99.8577,105.652,0.00668165,0.105021,20.9153,72.0034,-0.51332,0.0,0.0
1065,266,51.2389,53.8935,141.637,99.8345,104.666,0.00665354,0.105032,20.9153,72.0134,-0.430089,0.0,0.0
1068,266.75,51.4919,53.6887,140.534,99.8329,104.799,0.00661714,0.104982,20.9153,72.1035,-0.441777,0.0,0.0
1071,267.5,51.0974,53.6747,140.737,99.8265,105.035,0.0065852,0.104945,20.9153,72.0635,-0.462826,0.0,0.0
1074,268.25,51.1035,54.0886,138.919,99.7974,105.039,0.00657455,0.104956,20.9153,71.9734,-0.465873,0.0,0.0
1077,269,51.5799,53.4628,140.55,99.7834,104.575,0.00657216,0.105004,20.9153,71.9634,-0.426836,0.0,0.0
1080,269.75,51.0055,53.8594,143.362,99.7726,104.829,0.00658969,0.104997,20.9153,72.0635,-0.449894,0.0,0.0
1083,270.5,51.1779,53.9641,140.188,99.7706,105.174,0.00663543,0.104936,20.9155,72.0134,-0.479971,0.0,0.0
1086,271.25,51.4742,53.8101,139.817,99.7507,105.174,0.00667959,0.104827,20.9156,71.9634,-0.481753,0.0,0.0
1089,272,50.732,53.9183,139.263,99.7068,104.902,0.00670421,0.104748,20.9157,71.9534,-0.462235,0.0,0.0
1092,272.75,50.777,53.8975,136.41,99.6844,104.843,0.00671892,0.10463,20.9158,72.0334,-0.459117,0.0,0.0
1095,273.5,51.0962,53.4523,140.885,99.6716,104.631,0.00669912,0.104543,20.9159,72.0134,-0.441895,0.0,0.0
1098,274.25,51.3328,53.8857,140.72,99.6485,104.984,0.00667938,0.10448,20.9159,71.9534,-0.474624,0.0,0.0
1101,275,50.6675,53.715,140.887,99.6117,105.039,0.00665589,0.104434,20.9162,71.9133,-0.482779,0.0,0.0
1104,275.75,51.1511,53.1573,138.12,99.5914,104.936,0.00665498,0.104431,20.9163,71.9534,-0.47574,0.0,0.0
1107,276.5,51.3612,53.5809,139.529,99.5882,104.838,0.00665431,0.104433,20.9165,71.9734,-0.467515,0.0,0.0
1110,277.25,51.0537,53.4876,139.827,99.5662,104.798,0.00670248,0.104422,20.9166,71.9634,-0.466042,0.0,0.0
1113,278,51.3204,53.2741,141.288,99.5331,105.052,,0.104343,,71.8733,-0.491099,0.0,0.0
1116,278.75,50.9996,53.6742,142.259,99.5083,104.695,,0.104255,,71.8833,-0.462376,0.0,0.0
1119,279.5,50.9567,53.3625,140.208,99.5067,105.116,,0.10415,,71.9133,-0.499046,0.0,0.0
1122,280.25,50.9632,53.2643,141.341,99.4848,104.964,,0.104089,,71.9033,-0.487867,0.0,0.0
1125,281,50.6146,52.9478,140.17,99.4504,104.507,,,,71.8032,-0.451296,0.0,0.0
1128,281.75,51.0378,53.0906,138.309,99.4321,104.514,,,,71.8233,-0.453604,0.0,0.0
1131,282.5,50.9695,53.4349,138.866,99.4185,104.85,,,,71.8733,-0.48405,0.0,0.0
1134,283.25,50.4446,53.5913,138.243,99.3898,104.756,,,,71.8733,-0.478548,0.0,0.0
1137,284,50.7824,53.4665,141.71,99.3714,104.547,,,,71.7732,-0.462022,0.0,0.0
1140,284.75,50.5367,53.175,142.209,99.3534,104.81,,,,71.7932,-0.486569,0.0,0.0
1143,285.5,50.7573,53.0066,140.484,99.3382,104.564,,,,71.8433,-0.466586,0.0,0.0
1146,286.25,51.0975,53.2174,135.746,99.3323,104.688,,,,71.8333,-0.477866,0.0,0.0
1149,287,50.9999,52.8839,142.986,99.2991,104.481,,,,71.7432,-0.462918,0.0,0.0
1152,287.75,50.4396,52.4397,138.896,99.2935,104.336,,,,71.7332,-0.450832,0.0,0.0
1155,288.5,50.856,52.6057,139.721,99.2704,105.028,,,,71.8233,-0.513082,0.0,0.0
1156,288.75,50.8232,52.9513,142.735,99.2684,104.263,,,,71.7432,-0.446693,0.0,0.0