File: 01_Data/Luan_Panel/Cone/Luan_Panel_Cone_HF25Scan_220915_R3.csv
Names,Time,Stack TC,Smoke TC,Exh Press,Smoke Comp,Smoke Meas,CO Meter,CO2 Meter,O2 Meter,Sample Mass,Ext Coeff,Start Test,Flame Verif
Chan Gain,,500,500,1,1,1,1,1,1,1,1,1.0,1.0
Offset,,0,0,0.146632,0,0,0,0,0,0,0,0.0,0.0
Gain,,1,1,25.011,13.0826,14.7555,1,1,1,1.00088,1.03743,1.0,1.0
Units,sec,C,C,Pa,%,%,%,%,%,g,/m,,
Baseline,,39.541,40.0237,147.197,100.036,104.347,0.000497903,0.0452104,20.9867,-449.335,-0.383883,,
3,0.5,38.8041,39.3146,146.606,99.7702,104.121,0.00058732,0.0557477,20.974,86.6463,-0.388413,0.0,0.0
6,1.25,37.4497,38.5556,142.859,99.7387,104.119,0.000537805,0.0546184,20.9749,86.6163,-0.391172,0.0,0.0
9,2,37.7277,37.8933,145.876,99.7008,104.34,0.000488256,0.0534081,20.9762,86.6263,-0.413898,0.0,0.0
12,2.75,37.8292,38.1254,150.287,99.672,103.899,0.000441253,0.052149,20.9771,86.6163,-0.377952,0.0,0.0
15,3.5,37.4988,38.5773,149.183,99.6269,103.584,0.000398185,0.0511617,20.9778,86.5963,-0.354422,0.0,0.0
18,4.25,38.076,38.3236,145.112,99.6105,104.135,0.000362929,0.0503831,20.9782,86.6063,-0.404211,0.0,0.0
21,5,37.4141,38.406,147.965,99.5742,104.036,0.000330628,0.0497655,20.9786,86.6063,-0.398909,0.0,0.0
24,5.75,37.9504,37.6328,149.615,99.5419,103.769,0.00030708,0.0493152,20.9789,86.5963,-0.378438,0.0,0.0
27,6.5,37.8126,38.654,144.261,99.5115,103.964,0.00031258,0.048987,20.9795,86.5362,-0.398334,0.0,0.0
30,7.25,37.6834,38.4687,147.092,99.4876,103.661,0.000323668,0.0487477,20.9801,86.5863,-0.37396,0.0,0.0
33,8,37.6841,38.3327,145.717,99.464,103.587,0.000343858,0.0485733,20.9806,86.5662,-0.36959,0.0,0.0
36,8.75,37.5099,38.0537,151.424,99.4305,103.892,0.000376024,0.0482794,20.9814,86.5562,-0.399441,0.0,0.0
39,9.5,37.3816,38.4192,149.034,99.3898,103.309,0.000410486,0.0479065,20.9821,86.5062,-0.351945,0.0,0.0
42,10.25,37.9391,37.8708,148.576,99.373,103.571,0.00043966,0.0474846,20.9827,86.5362,-0.376537,0.0,0.0
45,11,38.2075,38.4155,146.379,99.3339,103.614,0.000459827,0.0469966,20.9837,86.5262,-0.383879,0.0,0.0
48,11.75,37.8101,38.0046,147.254,99.2999,104.028,0.000474529,0.0465201,20.9845,86.5362,-0.423263,0.0,0.0
51,12.5,37.9046,38.3466,150.138,99.2772,103.924,0.00044337,0.0460978,20.985,86.4862,-0.416283,0.0,0.0
54,13.25,37.7249,38.4114,144.235,99.256,103.874,0.000394498,0.0457067,20.9854,86.5162,-0.413846,0.0,0.0
57,14,37.516,38.1237,146.883,99.2328,103.952,0.000350317,0.045386,20.9857,86.5162,-0.422831,0.0,0.0
60,14.75,38.0294,38.4865,147.635,99.2073,103.502,0.000314463,0.0451325,20.9859,86.4862,-0.385708,0.0,0.0
63,15.5,37.9462,38.2044,148.111,99.1774,103.142,0.000288325,0.0449623,20.9861,86.4561,-0.356726,0.0,0.0
66,16.25,37.5291,38.4724,145.671,99.1538,103.429,0.000283214,0.0448632,20.9862,86.4862,-0.38412,0.0,0.0
69,17,38.0179,38.5237,147.465,99.1426,102.674,0.000281933,0.0447909,20.9863,86.4962,-0.3185,0.0,0.0
72,17.75,37.8627,38.3305,150.168,99.1199,103.031,0.000282041,0.0446689,20.9869,86.4862,-0.352184,0.0,0.0
75,18.5,37.7008,38.4982,147.658,99.0979,103.497,0.000284666,0.0445211,20.9872,86.4261,-0.395233,0.0,0.0
78,19.25,37.9684,38.6624,144.191,99.0827,103.434,0.000290933,0.0443635,20.987,86.4261,-0.391081,0.0,0.0
81,20,37.6396,38.6178,145.095,99.0704,103.054,0.000295502,0.044209,20.987,86.4561,-0.358718,0.0,0.0
84,20.75,38.0165,38.4296,146.9,99.05,103.099,0.00029626,0.0440958,20.9873,86.4361,-0.364604,0.0,0.0
87,21.5,38.5543,38.1838,147.066,99.0264,103.013,0.000292411,0.0440124,20.9874,86.4361,-0.359135,0.0,0.0
90,22.25,37.8702,38.6113,148.741,99.0037,103.38,0.000277402,0.0439793,20.9876,86.3961,-0.393629,0.0,0.0
93,23,37.6461,38.2644,143.752,98.9961,102.92,0.000248136,0.043967,20.9877,86.4361,-0.353725,0.0,0.0
96,23.75,38.1686,38.2582,146.35,98.9861,103.34,0.000210633,0.0439185,20.9877,86.4161,-0.391755,0.0,0.0
99,24.5,37.9002,37.9989,144.318,98.9673,102.912,0.000169007,0.043897,20.9878,86.3761,-0.355651,0.0,0.0
102,25.25,37.0008,38.5186,143.349,98.9426,102.665,0.000133777,0.0438945,20.9878,86.346,-0.33612,0.0,0.0
105,26,37.9699,38.4407,146.617,98.945,103.411,0.000110511,0.0439052,20.9879,86.3961,-0.40176,0.0,0.0
108,26.75,38.1146,38.0888,148.796,98.9298,102.963,0.000101242,0.0439328,20.9879,86.3761,-0.363641,0.0,0.0
111,27.5,38.0698,38.6757,148.188,98.919,102.306,0.00010914,0.0439675,20.9879,86.356,-0.306419,0.0,0.0
114,28.25,38.1759,38.3672,148.046,98.9047,103.281,0.000121145,0.0440178,20.9879,86.306,-0.39401,0.0,0.0
117,29,38.0938,38.3793,144.965,98.9043,103.14,0.000140185,0.0441654,20.9881,86.336,-0.381659,0.0,0.0
120,29.75,37.9825,38.9407,147.657,98.9007,103.29,0.00017166,0.044335,20.9884,86.336,-0.395171,0.0,0.0
123,30.5,38.327,37.9777,144.2,98.8843,103.271,0.000206808,0.0444836,20.9887,86.336,-0.39505,0.0,0.0
126,31.25,37.9284,38.5966,145.041,98.8763,102.819,0.000232431,0.0445919,20.9889,86.266,-0.355818,0.0,0.0
129,32,37.9839,38.113,142.468,98.8763,102.845,0.00025111,0.0446906,20.989,86.316,-0.35809,0.0,0.0
132,32.75,37.8482,38.5194,148.134,98.8675,102.749,0.000245173,0.044721,20.9892,86.306,-0.350407,0.0,0.0
135,33.5,37.5312,38.7159,148.591,98.8604,103.249,0.000223509,0.0447254,20.9892,86.306,-0.395271,0.0,0.0
138,34.25,37.8158,38.1727,148.641,98.8584,102.965,0.000192326,0.0447484,20.9893,86.2459,-0.370377,0.0,0.0
141,35,37.9159,38.4885,145.435,98.8548,102.955,0.000145214,0.0448068,20.9893,86.2459,-0.369872,0.0,0.0
144,35.75,38.2501,38.8058,143.438,98.852,102.852,9.86641e-05,0.0448671,20.9894,86.276,-0.360969,0.0,0.0
147,36.5,37.5232,38.4438,146.113,98.8508,103.374,6.33801e-05,0.0448715,20.9894,86.256,-0.40714,0.0,0.0
150,37.25,37.9591,38.8626,143.108,98.8416,102.387,4.42486e-05,0.0448885,20.9894,86.1859,-0.320714,0.0,0.0
153,38,38.3914,38.8666,144.359,98.8372,102.475,4.49503e-05,0.0449288,20.9894,86.1959,-0.32896,0.0,0.0
156,38.75,37.8318,38.4318,149.38,98.844,102.365,4.96873e-05,0.0449956,20.9894,86.256,-0.318533,0.0,0.0
159,39.5,37.8393,38.8219,147.608,98.8607,102.578,5.64321e-05,0.0451037,20.9894,86.1859,-0.335945,0.0,0.0
162,40.25,38.1757,38.402,146.944,98.852,102.288,6.18912e-05,0.0451971,20.99,86.1559,-0.310989,0.0,0.0
165,41,38.182,38.9608,148.133,98.856,102.672,2.75685e-05,0.0452902,20.9907,86.1158,-0.344651,0.0,0.0
168,41.75,38.3778,38.8773,148.165,98.8587,102.398,-1.20989e-05,0.0453603,20.9912,86.1759,-0.320135,0.0,0.0
171,42.5,38.2856,38.6652,148.111,98.8659,102.322,-4.08363e-05,0.04547,20.9916,86.1559,-0.312667,0.0,0.0
174,43.25,38.2204,38.676,144.835,98.8731,102.791,-5.08007e-05,0.0455778,20.9912,86.1258,-0.353681,0.0,0.0
177,44,38.309,38.7098,150.548,98.8568,102.571,-9.3145e-06,0.0456682,20.991,86.0758,-0.335632,0.0,0.0
180,44.75,38.1671,38.7137,145.517,98.8755,102.546,6.24727e-05,0.0457341,20.9908,86.0958,-0.331668,0.0,0.0
183,45.5,38.1891,38.0782,148.781,98.8883,102.025,0.000132516,0.0457682,20.9907,86.0758,-0.284179,0.0,0.0
186,46.25,38.2153,38.7482,151.094,98.8855,101.92,0.000223946,0.0457799,20.9906,86.0658,-0.275032,0.0,0.0
189,47,37.8898,38.8389,147.209,98.8775,101.899,0.000311674,0.0458125,20.9905,86.0057,-0.273917,0.0,0.0
192,47.75,38.0856,38.8221,146.131,98.8975,101.938,0.000382237,0.0458987,20.9904,86.0458,-0.275539,0.0,0.0
195,48.5,38.2553,38.7351,147.08,98.9059,102.632,0.000445901,0.0460032,20.9902,86.0158,-0.336585,0.0,0.0
198,49.25,38.3369,38.469,150.705,98.919,102.297,0.000504562,0.0460971,20.9896,86.0057,-0.305538,0.0,0.0
201,50,38.2229,38.6663,142.825,98.9083,101.913,0.000568271,0.046235,20.9891,85.9457,-0.272375,0.0,0.0
204,50.75,38.0955,38.9701,144.928,98.9274,102.189,0.00064793,0.0463724,20.9888,85.9857,-0.295188,0.0,0.0
207,51.5,37.9823,38.4956,145.54,98.937,102.269,0.000706001,0.0464851,20.9886,85.9657,-0.301441,0.0,0.0
210,52.25,38.2365,38.8499,145.724,98.9482,102.276,0.000783909,0.0465673,20.9884,85.9357,-0.301014,0.0,0.0
213,53,38.2722,38.3558,146.146,98.9606,101.824,0.000855869,0.0466966,20.9882,85.8756,-0.259599,0.0,0.0
216,53.75,38.2997,38.7613,149.414,98.9546,101.701,0.000900965,0.0468205,20.9881,85.9057,-0.249157,0.0,0.0
219,54.5,38.7293,38.9661,145.882,98.9869,101.567,0.000922954,0.0469254,20.988,85.8856,-0.234168,0.0,0.0
222,55.25,38.2364,39.0638,143.557,98.9913,101.378,0.000925734,0.0470269,20.988,85.8756,-0.216843,0.0,0.0
225,56,38.5595,38.0492,146.381,98.9969,101.361,0.000903276,0.0471564,20.9879,85.8156,-0.214793,0.0,0.0
228,56.75,38.7559,38.8288,149.158,99.0097,101.786,0.000869744,0.0472745,20.9879,85.8156,-0.251704,0.0,0.0
231,57.5,38.1328,38.6369,148.098,99.044,101.713,0.000837984,0.0474201,20.9879,85.8156,-0.242023,0.0,0.0
234,58.25,38.1059,38.7376,146.443,99.04,101.656,0.000804346,0.0475678,20.9878,85.7956,-0.237273,0.0,0.0
237,59,38.0303,39.0112,147.031,99.0512,101.022,0.000776599,0.0477299,20.9878,85.7655,-0.179268,0.0,0.0
240,59.75,38.6771,38.3886,147.237,99.0544,101.221,0.00075086,0.0479106,20.9878,85.7055,-0.196928,0.0,0.0
243,60.5,37.9334,38.7352,147.079,99.0759,101.356,0.000730133,0.0480284,20.9877,85.7355,-0.207085,0.0,0.0
246,61.25,38.3606,38.9587,144.187,99.0887,100.813,0.000711668,0.0481376,20.9875,85.7255,-0.15702,0.0,0.0
249,62,38.6864,39.0476,145.783,99.0939,101.911,0.000708689,0.0482672,20.9873,85.6754,-0.255069,0.0,0.0
252,62.75,38.9624,38.8516,147.735,99.1051,101.473,0.000724898,0.0483977,20.9872,85.6354,-0.214873,0.0,0.0
255,63.5,38.3581,38.4325,144.787,99.131,101.426,0.000755519,0.0485545,20.9871,85.6554,-0.208289,0.0,0.0
258,64.25,37.9929,38.6854,146.673,99.1406,101.224,0.000796599,0.0486965,20.9871,85.6354,-0.18921,0.0,0.0
261,65,37.7594,39.1806,142.743,99.161,101.232,0.00084929,0.0488119,20.987,85.6154,-0.188111,0.0,0.0
264,65.75,38.2964,38.9933,147.235,99.1674,100.355,0.000899973,0.0490547,20.987,85.5253,-0.108326,0.0,0.0
267,66.5,38.2877,38.8662,143.569,99.1742,101.16,0.000942151,0.0492455,20.987,85.5554,-0.180382,0.0,0.0
270,67.25,38.308,39.2477,146.825,99.1897,100.632,0.000986402,0.0494052,20.987,85.5453,-0.131393,0.0,0.0
273,68,38.2419,39.1634,147.066,99.2129,100.837,0.00103023,0.0495759,20.987,85.5153,-0.147737,0.0,0.0
276,68.75,38.5176,38.7287,141.037,99.2149,101.134,0.00105961,0.0497504,20.9869,85.4553,-0.174337,0.0,0.0
279,69.5,38.0335,39.0857,146.039,99.2313,101.042,0.00110583,0.0499471,20.9867,85.4553,-0.164606,0.0,0.0
282,70.25,38.6325,38.7388,144.702,99.2584,100.841,0.00115062,0.0501202,20.9861,85.4553,-0.14393,0.0,0.0
285,71,38.6868,38.9266,146.493,99.2752,100.237,0.00119326,0.0502662,20.986,85.4453,-0.0877344,0.0,0.0
288,71.75,38.3094,39.1185,146.818,99.266,100.761,0.00122559,0.0503627,20.9858,85.3652,-0.135998,0.0,0.0
291,72.5,38.5935,38.932,141.137,99.2919,100.384,0.00125096,0.0505025,20.9857,85.3552,-0.0995148,0.0,0.0
294,73.25,38.376,39.2943,144.471,99.3167,100.488,0.00127168,0.050661,20.9857,85.3752,-0.106671,0.0,0.0
297,74,38.4078,38.9574,142.733,99.3235,100.137,0.00129001,0.0508982,20.9856,85.3552,-0.0742267,0.0,0.0
300,74.75,38.5301,38.7745,145.301,99.3355,100.291,0.00130326,0.0511126,20.9856,85.2751,-0.0871555,0.0,0.0
303,75.5,38.3783,39.8019,146.521,99.3554,100.067,0.00132569,0.0513879,20.9856,85.2451,-0.0649146,0.0,0.0
306,76.25,38.4704,39.0898,147.128,99.383,99.833,0.00135421,0.0516253,20.9856,85.2851,-0.0411132,0.0,0.0
309,77,39.2491,39.2354,146.18,99.3969,99.7524,0.00140576,0.0518609,20.9856,85.2551,-0.0324827,0.0,0.0
312,77.75,38.2179,38.7722,143.366,99.4117,100.463,0.00148043,0.0519813,20.9857,85.195,-0.0957263,0.0,0.0
315,78.5,38.3637,39.54,147.276,99.4365,100.168,0.00157587,0.0531731,20.9851,85.135,-0.0666629,0.0,0.0
318,79.25,38.713,39.2276,147.07,99.462,100.017,0.00172637,0.056415,20.9768,85.125,-0.0506088,0.0,0.0
321,80,38.7897,39.3558,143.736,99.462,101.736,0.00188301,0.0628361,20.9614,85.1049,-0.205751,0.0,0.0
324,80.75,39.2538,39.313,143.646,99.4824,104.442,0.0020172,0.0802392,20.9399,85.0449,-0.442765,0.0,1.0
327,81.5,39.014,39.5815,138.563,99.5015,104.312,0.0021311,0.103446,20.9175,84.9248,-0.429626,0.0,1.0
330,82.25,39.1046,39.232,138.881,99.5495,102.833,0.00222099,0.129764,20.8898,84.8848,-0.295311,0.0,1.0
333,83,39.4036,39.3323,136.226,99.559,102.829,0.00228827,0.157358,20.8595,84.7747,-0.294076,0.0,1.0
336,83.75,39.5857,39.7616,135.246,99.5766,102.914,0.0023534,0.183241,20.8272,84.6946,-0.299999,0.0,1.0
339,84.5,40.4805,40.194,128.914,99.5786,102.683,0.00242467,0.211972,20.7933,84.5645,-0.279368,0.0,1.0
342,85.25,39.8741,39.8423,128.965,99.6026,102.843,0.00250558,0.243456,20.7543,84.4944,-0.291335,0.0,1.0
345,86,40.4097,39.7389,131.573,99.6309,101.794,0.0026264,0.268927,20.7184,84.4043,-0.195507,0.0,0.0
348,86.75,40.7739,39.614,134.765,99.6473,102.821,0.002743,0.291804,20.69,84.2942,-0.285336,0.0,0.0
351,87.5,41.2823,40.2138,130.547,99.6716,102.091,0.00284015,0.311665,20.6683,84.1541,-0.218279,0.0,0.0
354,88.25,42.1217,40.6002,131.375,99.6716,102.275,0.00293929,0.326965,20.6526,84.1141,-0.234681,0.0,0.0
357,89,42.7529,40.9885,130.825,99.7008,101.607,0.00302522,0.338344,20.6411,84.014,-0.172325,0.0,0.0
360,89.75,43.3142,41.5567,127.888,99.7227,103.073,0.00310414,0.346429,20.6327,83.9139,-0.300739,0.0,0.0
363,90.5,44.0642,42.0751,135.18,99.7251,102.262,0.00317956,0.351536,20.6266,83.8038,-0.228635,0.0,0.0
366,91.25,44.5114,42.2648,135.95,99.7427,102.709,0.00326685,0.354923,20.6228,83.7237,-0.266658,0.0,0.0
369,92,45.1956,42.9519,138.941,99.7623,102.375,0.00335735,0.356084,20.6213,83.6537,-0.235301,0.0,0.0
372,92.75,45.5726,43.2106,134.54,99.7822,102.726,0.00344571,0.356165,20.622,83.5736,-0.264568,0.0,0.0
375,93.5,46.3599,44.1263,129.732,99.783,102.187,0.00351634,0.355208,20.6243,83.4935,-0.216659,0.0,0.0
378,94.25,46.3815,44.5055,133.463,99.797,102.81,0.00357049,0.353333,20.6267,83.3434,-0.270718,0.0,0.0
381,95,46.8559,44.8676,133.905,99.8177,102.818,0.00357093,0.350905,20.6289,83.2934,-0.269462,0.0,0.0
384,95.75,47.3845,44.9722,134.014,99.8297,102.672,0.00354142,0.34874,20.6309,83.1833,-0.255488,0.0,0.0
387,96.5,47.5324,45.3932,125.973,99.8417,102.933,0.00350066,0.346993,20.6328,83.0832,-0.277516,0.0,0.0
390,97.25,48.0482,45.8875,137.833,99.8561,102.434,0.00345976,0.344963,20.6344,82.913,-0.231988,0.0,0.0
393,98,48.128,46.1752,130.471,99.8705,103.183,0.00342994,0.342695,20.6359,82.903,-0.296964,0.0,0.0
396,98.75,48.8959,46.7399,137.991,99.8896,102.992,0.00342593,0.340244,20.639,82.863,-0.278324,0.0,0.0
399,99.5,48.7038,46.9402,129.905,99.8908,103.516,0.00342673,0.337269,20.6431,82.7729,-0.324451,0.0,0.0
402,100.25,49.2506,47.3226,134.285,99.9016,103.043,0.0034202,0.3351,20.6463,82.6628,-0.281767,0.0,0.0
405,101,49.6512,47.5254,136.194,99.9363,103.652,0.00341174,0.332817,20.6487,82.6027,-0.332252,0.0,0.0
408,101.75,49.5167,47.9846,134.501,99.9407,103.419,0.00338923,0.330914,20.6505,82.5227,-0.311351,0.0,0.0
411,102.5,50.1565,47.907,134.955,99.9419,103.043,0.00334488,0.32963,20.6518,82.4326,-0.278095,0.0,0.0
414,103.25,50.3117,48.1497,133.115,99.9455,103.318,0.00330016,0.328787,20.6529,82.2024,-0.301995,0.0,0.0
417,104,50.629,48.7215,130.842,99.9523,103.042,0.00327344,0.32806,20.6542,82.2124,-0.27703,0.0,0.0
420,104.75,50.3883,48.7719,133.967,99.9711,103.371,0.00326401,0.32734,20.6551,82.2124,-0.304347,0.0,0.0
423,105.5,51.4374,49.4878,140.953,99.9703,102.717,0.00327662,0.32636,20.6562,82.0823,-0.246636,0.0,0.0
426,106.25,51.0275,49.6101,131.299,99.9747,103.093,0.00329574,0.325451,20.6576,81.9322,-0.279528,0.0,0.0
429,107,51.7936,49.8972,131.962,99.9902,103.31,0.00331457,0.323492,20.6595,81.9021,-0.29721,0.0,0.0
432,107.75,51.9793,50.0773,135.706,99.9934,104.253,0.00332942,0.321094,20.6627,81.8321,-0.379603,0.0,0.0
435,108.5,51.9752,50.2232,135.318,100.002,104.591,0.00333031,0.318559,20.6655,81.732,-0.408276,0.0,0.0
438,109.25,51.9835,50.4025,135.098,99.997,103.693,0.00332672,0.316072,20.6683,81.6819,-0.330325,0.0,0.0
441,110,52.3191,50.7506,132.68,100.005,103.935,0.00331347,0.313318,20.6708,81.5518,-0.350796,0.0,0.0
444,110.75,52.6579,50.7737,133.418,100.007,103.941,0.00329513,0.310745,20.6728,81.5018,-0.351051,0.0,0.0
447,111.5,52.3593,50.9498,138.489,100.015,104.163,0.00327414,0.307903,20.6756,81.4317,-0.369813,0.0,0.0
450,112.25,52.4752,51.442,133.875,100.012,104.363,0.00325213,0.304776,20.6794,81.3516,-0.387596,0.0,0.0
453,113,52.6532,51.4045,134.142,100.012,103.758,0.00323431,0.301838,20.6827,81.1715,-0.33467,0.0,0.0
456,113.75,53.0586,51.7924,133.213,100.02,103.882,0.00322851,0.299337,20.6852,81.1615,-0.344722,0.0,0.0
459,114.5,52.8733,51.3762,138.706,100.024,103.812,0.00323657,0.297275,20.6871,81.0814,-0.338282,0.0,0.0
462,115.25,53.0194,51.9404,132.686,100.022,103.82,0.00324964,0.295478,20.6884,81.0013,-0.339171,0.0,0.0
465,116,52.9969,51.6527,135.459,100.008,103.964,0.00327145,0.293839,20.6907,80.8512,-0.352988,0.0,0.0
468,116.75,53.2036,52.1666,131.16,100.033,104.707,0.00327496,0.291828,20.6927,80.8712,-0.415657,0.0,0.0
471,117.5,53.5323,52.4957,139.36,100.028,104.247,0.00326386,0.290363,20.6944,80.7912,-0.375968,0.0,0.0
474,118.25,53.4089,52.8884,136.735,100.029,103.715,0.00324146,0.288571,20.6957,80.7211,-0.329239,0.0,0.0
477,119,53.8325,53.2614,141.017,100.022,104.305,0.00321061,0.287598,20.6966,80.571,-0.381582,0.0,0.0
480,119.75,53.6014,52.909,135.929,100.03,104.28,0.00318067,0.28703,20.6972,80.571,-0.378619,0.0,0.0
483,120.5,53.5052,53.3138,132.984,100.025,104.522,0.00315568,0.287137,20.6977,80.4909,-0.400245,0.0,0.0
486,121.25,53.8122,53.2097,137.495,100.028,104.609,0.0031325,0.287294,20.6977,80.4108,-0.407557,0.0,0.0
489,122,54.127,53.3272,133.463,100.037,104.73,0.00311349,0.287467,20.6969,80.2807,-0.417178,0.0,0.0
492,122.75,54.1381,53.5866,136.759,100.026,104.127,0.00308097,0.287636,20.6962,80.2006,-0.365611,0.0,0.0
495,123.5,54.4609,53.3892,136.647,100.027,104.234,0.00303887,0.288002,20.6953,80.1206,-0.3749,0.0,0.0
498,124.25,54.5082,53.9957,138.332,100.028,104.794,0.00299033,0.288683,20.6937,80.0805,-0.423528,0.0,0.0
501,125,54.6835,54.2443,136.206,100.029,105.046,0.00293866,0.289455,20.6926,80.0005,-0.445367,0.0,0.0
504,125.75,54.7676,54.1999,135.27,100.028,104.831,0.0028601,0.290489,20.6918,79.9304,-0.42681,0.0,0.0
507,126.5,54.7749,54.6659,134.983,100.045,104.583,0.00278056,0.291163,20.6912,79.8303,-0.403684,0.0,0.0
510,127.25,54.844,54.3555,134.361,100.042,104.439,0.00270493,0.291595,20.6907,79.7602,-0.391427,0.0,0.0
513,128,55.0333,54.5897,134.648,100.025,104.903,0.0026485,0.291867,20.6904,79.6902,-0.433392,0.0,0.0
516,128.75,55.0286,54.933,133.079,100.019,104.996,0.00260514,0.292272,20.6902,79.5801,-0.44198,0.0,0.0
519,129.5,55.0552,54.8312,136.363,100.023,104.494,0.0025896,0.292782,20.69,79.5601,-0.397922,0.0,0.0
522,130.25,55.2473,54.8755,136.175,100.034,104.626,0.00259034,0.293369,20.6899,79.48,-0.408425,0.0,0.0
525,131,54.8393,55.2589,131.424,100.023,104.784,0.00259978,0.294047,20.6898,79.4099,-0.423141,0.0,0.0
528,131.75,55.1381,55.3218,136.335,100.017,104.902,0.00260843,0.294491,20.6898,79.2698,-0.433889,0.0,0.0
531,132.5,55.3719,54.9225,136.513,100.029,104.593,0.00260761,0.294728,20.6897,79.2398,-0.406034,0.0,0.0
534,133.25,55.3972,55.0151,131.43,100.012,105.029,0.00259482,0.2942,20.6903,79.1897,-0.445449,0.0,0.0
537,134,55.287,55.8779,136.38,100.014,105.041,0.00254493,0.293282,20.6918,79.1197,-0.446318,0.0,0.0
540,134.75,55.4109,55.7482,135.404,100.025,104.594,0.00247397,0.292212,20.6933,78.9796,-0.406404,0.0,0.0
543,135.5,55.4288,55.9988,133.953,100.021,104.853,0.00240749,0.291307,20.6944,78.9595,-0.429418,0.0,0.0
546,136.25,55.8177,55.7625,135.714,100.022,105.198,0.00234149,0.290519,20.6952,78.9195,-0.45916,0.0,0.0
549,137,56.3993,55.6146,134.081,100.013,104.6,0.00226338,0.289707,20.6958,78.8194,-0.408118,0.0,0.0
552,137.75,55.5436,56.7398,135.788,100.007,105.265,0.00221348,0.28893,20.6962,78.6793,-0.466304,0.0,0.0
555,138.5,55.679,56.3682,132.612,100.017,105.233,0.00218697,0.288455,20.6965,78.6893,-0.462707,0.0,0.0
558,139.25,56.2493,56.7071,135.467,100.017,105.091,0.00217251,0.288266,20.6967,78.6393,-0.450321,0.0,0.0
561,140,55.589,56.666,138.029,100.019,104.809,0.00216308,0.288716,20.6963,78.5392,-0.425769,0.0,0.0
564,140.75,56.3861,55.9028,132.386,100.018,104.637,0.00214564,0.289428,20.6955,78.369,-0.410854,0.0,0.0
567,141.5,55.9268,56.589,134.952,100.02,105.433,0.00213046,0.290177,20.6947,78.369,-0.479614,0.0,0.0
570,142.25,56.1684,56.9392,139.347,100.014,104.626,0.00211834,0.291086,20.6942,78.339,-0.410281,0.0,0.0
573,143,56.3656,56.9203,131.851,100.016,105.273,0.00211444,0.292036,20.6938,78.2589,-0.466206,0.0,0.0
576,143.75,56.6733,56.8478,137.061,100.018,104.508,0.0021137,0.292985,20.6933,78.1388,-0.399647,0.0,0.0
579,144.5,56.7721,56.9301,134.135,100.003,104.985,0.00211193,0.293907,20.6926,78.0187,-0.442421,0.0,0.0
582,145.25,56.9214,57.4057,138.08,100.006,105.301,0.00211011,0.295154,20.6922,77.9887,-0.469527,0.0,0.0
585,146,56.6276,57.4458,137.796,100.02,105.282,0.00208767,0.296308,20.6914,77.9086,-0.466546,0.0,0.0
588,146.75,56.5609,57.7338,133.596,100.009,104.65,0.00206267,0.29715,20.6902,77.7585,-0.412828,0.0,0.0
591,147.5,56.5957,57.6941,135.009,100.03,105.194,0.00204012,0.298586,20.6886,77.5983,-0.45812,0.0,0.0
594,148.25,57.2459,57.7867,136.5,100.022,105.012,0.00202257,0.2996,20.6868,77.6784,-0.443019,0.0,0.0
597,149,57.0653,57.7774,135.308,100.015,105.313,0.00201682,0.300326,20.6854,77.5683,-0.469779,0.0,0.0
600,149.75,57.22,57.8249,137.85,100.01,104.907,0.00201262,0.301428,20.6845,77.4983,-0.434973,0.0,0.0
603,150.5,57.1609,58.0399,134.372,100.001,104.904,0.002043,0.302584,20.6833,77.3581,-0.435577,0.0,0.0
606,151.25,56.7503,58.1776,136.296,100.017,104.562,0.00209601,0.30378,20.6821,77.3481,-0.40446,0.0,0.0
609,152,57.1895,58.0402,132.866,100.009,104.787,0.00216407,0.305,20.6808,77.258,-0.424725,0.0,0.0
612,152.75,57.3321,58.1037,138.838,100.004,105.259,0.00224149,0.306614,20.6779,77.198,-0.466014,0.0,0.0
615,153.5,57.494,58.4575,135.099,99.9986,104.712,0.00231524,0.308431,20.6759,77.0479,-0.419175,0.0,0.0
618,154.25,57.4895,58.4441,134.456,100.011,104.304,0.00237639,0.310323,20.6744,77.0178,-0.382445,0.0,0.0
621,155,57.1889,58.315,134.709,100.006,104.148,0.00242096,0.311726,20.6733,76.9978,-0.369277,0.0,0.0
624,155.75,57.6069,58.8249,131.95,100.008,104.463,0.00243229,0.312561,20.6725,76.9177,-0.396557,0.0,0.0
627,156.5,57.481,58.97,134.659,99.9938,104.763,0.00244055,0.312849,20.6719,76.7476,-0.423993,0.0,0.0
630,157.25,57.6854,58.8245,134.717,99.9954,104.108,0.00242186,0.312807,20.6715,76.7276,-0.366796,0.0,0.0
633,158,57.7373,59.348,133.619,100.001,105.011,0.00239769,0.312818,20.6707,76.6475,-0.444864,0.0,0.0
636,158.75,57.909,59.0731,134.112,99.9982,104.412,0.00236245,0.312899,20.67,76.4974,-0.393032,0.0,0.0
639,159.5,57.7714,59.3522,134.543,99.9866,104.326,0.00232267,0.313119,20.6695,76.4373,-0.386626,0.0,0.0
642,160.25,58.1065,59.2258,137.031,99.9874,104.226,0.0022875,0.313349,20.6691,76.4573,-0.377829,0.0,0.0
645,161,57.6289,59.4807,132.793,99.9962,103.588,0.00225923,0.313309,20.6688,76.3773,-0.321185,0.0,0.0
648,161.75,58.1274,59.327,136.391,99.9926,104.125,0.00225095,0.31286,20.669,76.3372,-0.368506,0.0,0.0
651,162.5,58.1024,59.4181,133.37,99.985,104.327,0.00226957,0.311914,20.67,76.2471,-0.386889,0.0,0.0
654,163.25,58.2073,59.624,135.43,99.9767,104.069,0.00228315,0.31047,20.6712,76.1971,-0.365078,0.0,0.0
657,164,58.7568,59.6018,134.139,99.985,104.918,0.00233359,0.308182,20.6722,76.097,-0.438277,0.0,0.0
660,164.75,58.1725,59.7914,134.767,99.983,104.108,0.00237166,0.306306,20.6734,76.037,-0.367882,0.0,0.0
663,165.5,58.4408,59.9434,137.743,99.9727,104.584,0.00240164,0.304849,20.6744,75.9369,-0.410337,0.0,0.0
666,166.25,58.3782,59.8422,138.021,99.9619,105.183,0.00241309,0.303787,20.6756,75.8768,-0.463283,0.0,0.0
669,167,58.4823,59.9715,132.869,99.9779,104.754,0.00240364,0.303013,20.6765,75.8068,-0.424703,0.0,0.0
672,167.75,58.5376,59.9301,129.105,99.9703,104.615,0.00239427,0.301058,20.677,75.7167,-0.413298,0.0,0.0
675,168.5,58.3215,59.9462,133.676,99.9639,104.327,0.0023916,0.298931,20.6791,75.6967,-0.388776,0.0,0.0
678,169.25,58.3705,59.9401,137.022,99.9567,104.449,0.00239854,0.297082,20.6814,75.5666,-0.400069,0.0,0.0
681,170,58.6897,59.9393,131.499,99.9599,103.599,0.00242653,0.295524,20.683,75.5766,-0.325442,0.0,0.0
684,170.75,58.3331,60.4632,135.083,99.9543,104.563,0.00244693,0.294031,20.6855,75.4965,-0.410207,0.0,0.0
687,171.5,58.9329,60.1673,135.12,99.9515,104.394,0.0024918,0.292195,20.6873,75.4264,-0.395754,0.0,0.0
690,172.25,58.5585,60.3954,136.106,99.9419,104.623,0.00253688,0.290618,20.6886,75.2963,-0.416584,0.0,0.0
693,173,58.3151,60.142,136.16,99.9511,104.398,0.00258284,0.289301,20.6901,75.2963,-0.396143,0.0,0.0
696,173.75,58.5744,60.4276,137.048,99.9563,104.747,0.00262972,0.288227,20.6918,75.2062,-0.426001,0.0,0.0
699,174.5,58.4308,60.586,131.771,99.9339,104.309,0.00267448,0.286858,20.6937,75.1562,-0.389969,0.0,0.0
702,175.25,58.5765,60.4179,135.915,99.9256,104.586,0.00270451,0.285344,20.6956,75.0661,-0.414823,0.0,0.0
705,176,58.4317,60.5423,137.255,99.9351,103.768,0.00272195,0.283785,20.6971,75.0461,-0.342516,0.0,0.0
708,176.75,58.627,60.4089,136.361,99.9248,104.206,0.00272475,0.28268,20.6983,74.986,-0.381805,0.0,0.0
711,177.5,58.7929,60.683,133.34,99.914,104.612,0.00272257,0.281889,20.6991,74.906,-0.41815,0.0,0.0
714,178.25,58.3437,60.5823,133.819,99.908,104.24,0.00269252,0.282258,20.6997,74.7658,-0.386281,0.0,0.0
717,179,58.6018,60.5442,138.552,99.9004,104.506,0.00264937,0.282828,20.7001,74.7859,-0.410176,0.0,0.0
720,179.75,58.0649,60.9088,139.889,99.9012,104.61,0.00260233,0.283372,20.7002,74.7558,-0.419157,0.0,0.0
723,180.5,58.4112,60.8042,137.516,99.8936,104.052,0.00255217,0.283896,20.6999,74.6958,-0.371144,0.0,0.0
726,181.25,58.3693,60.5246,133.711,99.8816,104.496,0.0025156,0.284331,20.6996,74.5657,-0.410984,0.0,0.0
729,182,58.6562,60.8242,131.774,99.882,104.891,0.00248894,0.285486,20.699,74.4956,-0.445275,0.0,0.0
732,182.75,58.1494,60.7762,126.66,99.8728,103.693,0.00248361,0.286789,20.6978,74.4255,-0.341592,0.0,0.0
735,183.5,58.4385,60.8478,133.672,99.8637,104.342,0.00249333,0.287943,20.6968,74.3455,-0.3992,0.0,0.0
738,184.25,58.4467,60.7251,133.218,99.8549,104.08,0.00250621,0.288799,20.6962,74.2954,-0.377114,0.0,0.0
741,185,58.1077,60.7598,136.214,99.8417,104.176,0.00252619,0.289809,20.6957,74.2053,-0.386737,0.0,0.0
744,185.75,58.1284,60.8519,138.828,99.8373,103.115,0.00253421,0.29088,20.6953,74.1453,-0.293945,0.0,0.0
747,186.5,58.5859,60.9414,138.343,99.8205,103.981,0.00252888,0.291803,20.6948,74.0652,-0.371616,0.0,0.0
750,187.25,58.5507,61.2033,134.166,99.8154,103.645,0.00251088,0.293,20.6938,74.0052,-0.342603,0.0,0.0
753,188,58.583,60.79,135.649,99.8046,103.806,0.00250167,0.293872,20.6924,73.8651,-0.35773,0.0,0.0
756,188.75,58.504,60.8938,133.108,99.7826,104.34,0.00250868,0.295896,20.6909,73.845,-0.406471,0.0,0.0
759,189.5,58.3728,60.5044,133.717,99.7706,104.013,0.00251379,0.298077,20.6888,73.755,-0.378926,0.0,0.0
762,190.25,58.7534,60.9036,134.507,99.7635,103.98,0.00256693,0.30023,20.6873,73.6949,-0.376744,0.0,0.0
765,191,58.2801,61.1575,135.953,99.7339,103.742,0.00263039,0.301645,20.6866,73.5348,-0.358529,0.0,0.0
768,191.75,58.5362,61.2304,134.053,99.7267,103.409,0.00267665,0.303585,20.6852,73.5748,-0.329946,0.0,0.0
771,192.5,58.7966,61.1502,136.041,99.7171,103.6,0.00272981,0.30513,20.6839,73.4247,-0.347608,0.0,0.0
774,193.25,58.5856,61.1031,141.462,99.708,103.398,0.00278344,0.307046,20.6816,73.4146,-0.330748,0.0,0.0
777,194,58.627,61.0434,135.59,99.6892,103.277,0.00283344,0.30878,20.6791,73.2945,-0.321793,0.0,0.0
780,194.75,58.5616,61.2158,139.299,99.678,103.409,0.00287769,0.311036,20.6767,73.2145,-0.334392,0.0,0.0
783,195.5,59.0082,61.204,132.988,99.6704,103.111,0.00289935,0.312851,20.6745,73.0343,-0.308853,0.0,0.0
786,196.25,58.9944,61.4027,134.413,99.6529,103.19,0.00291514,0.314465,20.672,73.1744,-0.317369,0.0,0.0
789,197,59.066,61.2365,132.065,99.6277,103.237,0.00287372,0.316777,20.669,72.9643,-0.323835,0.0,0.0
792,197.75,58.8291,61.3164,134.285,99.5982,102.915,0.00280764,0.319683,20.6654,72.9442,-0.298108,0.0,0.0
795,198.5,59.047,61.3066,133.221,99.587,102.626,0.00274417,0.322323,20.661,72.9142,-0.273571,0.0,0.0
798,199.25,59.1197,61.4698,137.921,99.5734,103.335,0.00266698,0.32581,20.6571,72.8141,-0.337446,0.0,0.0
801,200,59.265,61.5346,133.801,99.563,102.81,0.00261055,0.328781,20.6542,72.714,-0.292077,0.0,0.0
804,200.75,59.0308,61.6587,138.232,99.5279,102.884,0.00259167,0.33113,20.6508,72.634,-0.301784,0.0,0.0
807,201.5,59.1682,61.4573,133.935,99.5235,103.25,0.00263439,0.333714,20.6471,72.5439,-0.334509,0.0,0.0
810,202.25,59.557,61.6702,133.05,99.5167,102.517,0.00271384,0.336463,20.6431,72.5039,-0.270327,0.0,0.0
813,203,59.404,61.9272,137.68,99.4792,102.783,0.00284696,0.339314,20.6397,72.4838,-0.297312,0.0,0.0
816,203.75,59.3924,62.0997,136.636,99.454,102.732,0.00299147,0.341463,20.6367,72.3637,-0.295107,0.0,0.0
819,204.5,59.3382,61.9685,137.723,99.4473,102.758,0.00313818,0.342963,20.6343,72.3037,-0.298001,0.0,0.0
822,205.25,59.7001,62.0579,132.679,99.4261,103.375,0.00327067,0.343976,20.6326,72.2436,-0.354449,0.0,0.0
825,206,59.6132,62.3318,132.775,99.4065,103.548,0.00341092,0.344626,20.6314,72.1535,-0.371488,0.0,0.0
828,206.75,59.605,62.2435,133.669,99.3726,102.818,0.00353059,0.344582,20.6305,72.0434,-0.310178,0.0,0.0
831,207.5,59.7991,62.0291,131.246,99.3622,102.428,0.00362527,0.343917,20.6311,72.0334,-0.276508,0.0,0.0
834,208.25,59.84,62.0983,132.992,99.3375,102.442,0.00370494,0.342351,20.6322,71.9634,-0.280095,0.0,0.0
837,209,59.6013,62.2472,136.462,99.3195,102.665,0.00378794,0.339622,20.6354,71.9233,-0.301521,0.0,0.0
840,209.75,59.8906,62.4024,138.225,99.2983,103.071,0.00385907,0.336955,20.64,71.7932,-0.339353,0.0,0.0
843,210.5,59.7725,62.5635,134.69,99.2628,102.755,0.00398031,0.331786,20.6458,71.7732,-0.314617,0.0,0.0
846,211.25,59.9424,62.3977,134.834,99.2516,103.112,0.00412614,0.326247,20.6529,71.7232,-0.347252,0.0,0.0
849,212,59.3771,62.5223,135.862,99.2285,102.53,0.00421785,0.319181,20.6565,71.6931,-0.297843,0.0,0.0
852,212.75,59.5997,62.1047,135.933,99.2101,103.2,0.00432381,0.309444,20.6663,71.583,-0.358846,0.0,0.0
855,213.5,59.2923,62.215,140.736,99.1857,103.175,0.00454923,0.299167,20.6734,71.563,-0.358857,0.0,0.0
858,214.25,59.4247,62.5919,134.69,99.1678,103.295,0.00477126,0.29032,20.6833,71.553,-0.371064,0.0,0.0
861,215,59.2872,62.1816,139.899,99.1526,103.286,0.0049888,0.28131,20.6944,71.503,-0.371662,0.0,0.0
864,215.75,58.6333,61.9035,137.974,99.1382,102.693,0.00520052,0.270901,20.707,71.4329,-0.320579,0.0,0.0
867,216.5,58.5908,61.9606,141.513,99.1059,103.733,0.00542844,0.25999,20.7209,71.4129,-0.415263,0.0,0.0
870,217.25,58.2655,61.9479,144.619,99.0891,102.773,0.00562643,0.246354,20.738,71.3929,-0.332148,0.0,0.0
873,218,57.7887,61.5213,139.207,99.0672,103.329,0.0058252,0.231895,20.7554,71.3929,-0.383276,0.0,0.0
876,218.75,57.7974,61.5764,137.232,99.0668,103.126,0.00604569,0.218337,20.7711,71.3729,-0.365488,0.0,0.0
879,219.5,57.7831,61.1893,139.502,99.03,103.562,0.00620643,0.205739,20.7861,71.3328,-0.407208,0.0,0.0
882,220.25,57.7583,61.0145,140.885,99.0416,104.251,0.00647149,0.194115,20.7986,71.3528,-0.466485,0.0,0.0
885,221,57.1698,60.9344,140.528,99.0077,103.797,0.00675473,0.182485,20.8126,71.3128,-0.429933,0.0,0.0
888,221.75,56.7058,60.7631,142.659,98.9893,103.897,0.00705778,0.172663,20.8264,71.2828,-0.440382,0.0,0.0
891,222.5,56.4494,60.6708,143.806,98.9582,104.101,0.00737821,0.160837,20.8398,71.1927,-0.461055,0.0,0.0
894,223.25,56.2534,60.1904,146.607,98.9482,103.748,0.00777362,0.150811,20.8526,71.2427,-0.431059,0.0,0.0
897,224,56.0273,60.0661,142.559,98.9398,103.9,0.00811905,0.141098,20.8658,71.2427,-0.44517,0.0,0.0
900,224.75,55.7935,59.9878,142.759,98.9154,103.162,0.00852398,0.131332,20.8776,71.2327,-0.382537,0.0,0.0
903,225.5,55.182,59.5882,143.134,98.9071,102.949,0.00891377,0.122607,20.8871,71.1527,-0.364461,0.0,0.0
906,226.25,55.1038,59.2188,145.411,98.8987,103.302,0.00927644,0.114817,20.8965,71.2227,-0.396426,0.0,0.0
909,227,54.6088,58.9101,145.099,98.8827,102.592,0.00967507,0.107865,20.9041,71.2127,-0.335121,0.0,0.0
912,227.75,54.3383,58.974,146.409,98.8699,102.911,0.0100663,0.101287,20.9108,71.2127,-0.364534,0.0,0.0
915,228.5,53.8075,58.6137,140.263,98.8452,103.472,0.0104257,0.0960769,20.9169,71.1927,-0.416293,0.0,0.0
918,229.25,53.7539,58.4531,142.818,98.8492,103.103,0.0107412,0.091569,20.9216,71.2528,-0.383431,0.0,0.0
921,230,53.1959,57.7528,149.813,98.8384,102.926,0.0110248,0.0877907,20.9255,71.2127,-0.368791,0.0,0.0
924,230.75,51.4679,56.794,141.027,98.8304,103.05,0.0112396,0.0848265,20.9295,71.1927,-0.380468,0.0,0.0
927,231.5,51.0335,56.0001,144.771,98.8132,103.076,0.0114103,0.0822248,20.9324,71.1226,-0.384395,0.0,0.0
930,232.25,50.3767,55.783,146.199,98.8148,103.151,0.0115494,0.0802173,20.9346,71.1927,-0.390806,0.0,0.0
933,233,50.4158,55.1467,143.458,98.8104,102.857,0.0116611,0.0784609,20.9368,71.1727,-0.365231,0.0,0.0
936,233.75,50.1624,55.6502,142.304,98.8144,102.807,0.0117601,0.0770037,20.9384,71.1527,-0.36048,0.0,0.0
939,234.5,50.3366,54.6665,146.937,98.8001,103.03,0.0118581,0.0759214,20.9395,71.0826,-0.381513,0.0,0.0
942,235.25,49.2075,54.3539,143.6,98.8009,103.86,0.0119295,0.0751103,20.9404,71.1126,-0.454487,0.0,0.0
945,236,49.3806,54.2037,146.587,98.8033,103.354,0.012026,0.0744811,20.941,71.1126,-0.409811,0.0,0.0
948,236.75,48.8481,54.3169,140.068,98.7937,103.304,0.0121132,0.0738961,20.9419,71.1026,-0.406291,0.0,0.0
951,237.5,48.8999,54.1313,147.082,98.7885,103.034,0.012184,0.073379,20.9425,71.0726,-0.382937,0.0,0.0
954,238.25,48.5429,53.4609,145.627,98.7873,103.756,0.0122412,0.0729389,20.943,71.1126,-0.44658,0.0,0.0
957,239,48.638,53.2106,145.471,98.7953,103.372,0.0122776,0.0725443,20.944,71.1126,-0.412132,0.0,0.0
960,239.75,48.1517,53.5673,150.615,98.8005,102.954,0.012302,0.0721304,20.9447,71.1226,-0.374712,0.0,0.0
963,240.5,47.558,52.9527,149.217,98.8001,103.307,0.0123211,0.0717888,20.9452,71.0826,-0.405941,0.0,0.0
966,241.25,47.2351,52.6464,144.595,98.7893,103.061,0.0123355,0.0715544,20.9456,71.0826,-0.38521,0.0,0.0
969,242,47.4759,52.6768,145.364,98.8021,103.287,0.0123516,0.0714088,20.9456,71.0826,-0.403972,0.0,0.0
972,242.75,47.6396,52.3554,143.398,98.8037,103.372,0.0123485,0.0713447,20.9453,71.0926,-0.41132,0.0,0.0
975,243.5,47.3072,52.4014,147.502,98.7957,102.915,0.0123268,0.071316,20.945,71.0826,-0.371769,0.0,0.0
978,244.25,46.905,52.0951,145.226,98.7909,102.715,0.0123027,0.0713949,20.9448,71.0326,-0.354474,0.0,0.0
981,245,46.5165,51.719,146.563,98.8033,102.824,0.0122758,0.0714806,20.9447,71.0826,-0.362984,0.0,0.0
984,245.75,46.3753,51.5215,146.053,98.8049,103.284,0.0122796,0.0715623,20.9446,71.0726,-0.403437,0.0,0.0
987,246.5,46.3165,51.3973,144.736,98.8041,102.918,0.0122923,0.0716345,20.9445,71.0726,-0.371196,0.0,0.0
990,247.25,46.2522,51.4425,145.506,98.8029,102.977,0.0123757,0.0717672,20.9444,71.0025,-0.376601,0.0,0.0
993,248,45.9184,51.1297,142.304,98.8037,103.534,0.0124536,0.0718779,20.9444,71.0626,-0.425619,0.0,0.0
996,248.75,46.0026,51.0563,142.301,98.8228,102.903,0.0125397,0.0719646,20.9444,71.0626,-0.368153,0.0,0.0
999,249.5,45.7063,50.4381,144.296,98.7981,102.822,0.0126525,0.0720078,20.9444,71.0826,-0.363303,0.0,0.0
1002,250.25,45.1991,50.4544,150.777,98.7953,102.958,0.0127533,0.0720098,20.9443,70.9825,-0.375548,0.0,0.0
1005,251,45.6022,50.4499,142.219,98.8033,102.902,0.0128584,0.0719608,20.9446,71.0626,-0.369916,0.0,0.0
1008,251.75,45.3887,50.363,146.978,98.8088,103.165,0.0129624,0.0718689,20.9451,71.0626,-0.392588,0.0,0.0
1011,252.5,45.5078,49.5872,152.07,98.8056,103.317,0.0130643,0.0717781,20.9455,71.0426,-0.40626,0.0,0.0
1014,253.25,45.0154,49.5343,147.856,98.8033,103.606,0.0131446,0.0716518,20.9458,70.9525,-0.431948,0.0,0.0
1017,254,44.8926,49.6024,147.211,98.7973,102.953,0.0131967,0.0715879,20.946,71.0225,-0.374926,0.0,0.0
1020,254.75,44.345,49.4099,144.864,98.8084,103.335,0.0132222,0.0715827,20.9462,71.0326,-0.407628,0.0,0.0
1023,255.5,44.4164,49.1812,146.589,98.8108,103.119,0.0132245,0.0716294,20.9463,71.0225,-0.388352,0.0,0.0
1026,256.25,44.4117,49.3952,149.594,98.8009,102.928,0.0131759,0.0716354,20.9464,70.9425,-0.372406,0.0,0.0
1029,257,44.409,49.1438,149.188,98.8021,102.928,0.0131144,0.0716278,20.9464,70.9625,-0.372297,0.0,0.0
1032,257.75,44.4022,49.2435,145.835,98.8116,103.231,0.0130585,0.0715623,20.9465,70.9825,-0.398129,0.0,0.0
1035,258.5,43.8052,48.7825,141.959,98.8068,103.372,0.0130198,0.0714304,20.9465,70.9925,-0.411065,0.0,0.0
1038,259.25,43.7825,48.7602,145.006,98.8132,103.552,0.0129951,0.0712542,20.9466,70.9124,-0.426241,0.0,0.0
1041,260,43.6356,48.1803,147.06,98.8045,103.099,0.013031,0.07105,20.9467,70.8824,-0.387152,0.0,0.0
1044,260.75,43.1455,47.9248,142.7,98.7973,103.112,0.0130571,0.0709412,20.9467,70.9024,-0.388966,0.0,0.0
1047,261.5,43.0238,47.939,143.887,98.8088,103.24,0.0131897,0.0708618,20.9468,70.9024,-0.39918,0.0,0.0
1050,262.25,43.1023,47.9137,142.978,98.8073,103.593,0.0133713,0.07086,20.9468,70.8224,-0.430432,0.0,0.0
1053,263,42.947,47.8461,149.101,98.8025,103.704,0.013566,0.0708826,20.9468,70.7823,-0.44064,0.0,0.0
1056,263.75,42.9015,47.6913,146.607,98.8056,103.194,0.0137696,0.0710533,20.9469,70.8924,-0.395465,0.0,0.0
1059,264.5,42.6412,47.4786,145.951,98.8192,103.075,0.0139469,0.0712435,20.9462,70.9024,-0.383724,0.0,0.0
1062,265.25,42.672,47.5423,145.025,98.8041,102.906,0.0141098,0.0718002,20.9458,70.8924,-0.370201,0.0,0.0
1065,266,42.8101,46.9454,145.975,98.7993,103.443,0.0142652,0.0720581,20.9455,70.8224,-0.418025,0.0,0.0
1068,266.75,42.7396,47.105,143.555,98.8104,102.842,0.0144347,0.0723561,20.9452,70.8724,-0.363916,0.0,0.0
1071,267.5,42.4362,46.7233,143.571,98.8144,103.176,0.0145582,0.0725733,20.9451,70.8624,-0.393106,0.0,0.0
1074,268.25,42.1801,46.6937,145.338,98.8049,103.242,0.0147027,0.0726916,20.9449,70.8424,-0.399786,0.0,0.0
1077,269,42.4805,46.5359,142.712,98.7981,103.204,0.0148185,0.0727919,20.9448,70.7723,-0.397076,0.0,0.0
1080,269.75,42.2176,46.8948,144.386,98.8232,102.877,0.0149074,0.072871,20.9443,70.8224,-0.365887,0.0,0.0
1083,270.5,42.3153,46.6854,146.337,98.8076,103.451,0.0149853,0.0730688,20.9438,70.8424,-0.417887,0.0,0.0
1086,271.25,42.3506,46.1855,146.717,98.818,103.274,0.0150498,0.0732831,20.9434,70.8324,-0.40135,0.0,0.0
1089,272,41.8299,46.1945,151.843,98.8116,102.873,0.0151091,0.0734693,20.9431,70.7723,-0.366515,0.0,0.0
1092,272.75,41.7565,45.6477,149.289,98.8061,103.083,0.0151512,0.073605,20.9429,70.8224,-0.385653,0.0,0.0
1095,273.5,42.3018,45.8752,150.817,98.8216,103.205,0.015165,0.0737113,20.9427,70.8324,-0.394986,0.0,0.0
1098,274.25,41.6784,45.3051,147.953,98.822,103.242,0.015175,0.0738014,20.9426,70.8124,-0.398205,0.0,0.0
1101,275,41.8994,45.8803,147.173,98.8116,103.462,0.0151579,0.0738872,20.9425,70.7623,-0.41855,0.0,0.0
1104,275.75,41.098,45.7619,141.879,98.8152,103.02,0.0151464,0.0739496,20.9425,70.7823,-0.379201,0.0,0.0
1107,276.5,41.6984,45.3446,145.45,98.8236,103.3,0.0151296,0.0739952,20.9424,70.7823,-0.403177,0.0,0.0
1110,277.25,41.436,45.766,146.048,98.8284,103.108,0.0151079,0.0742086,20.9424,70.7623,-0.385781,0.0,0.0
1113,278,41.64,45.6564,145.201,98.8296,103.042,0.0150842,0.074342,20.9424,70.7223,-0.379826,0.0,0.0
1116,278.75,41.2186,45.1688,144.856,98.8208,103.513,0.0150629,0.0743837,20.9423,70.6722,-0.422178,0.0,0.0
1119,279.5,41.6633,44.8836,146.153,98.856,103.212,0.0150462,0.0743896,20.9423,70.7623,-0.392381,0.0,0.0
1122,280.25,41.5843,44.4044,149.196,98.8424,102.991,0.0150393,0.0743982,20.9423,70.7723,-0.374194,0.0,0.0
1125,281,40.9638,44.7736,146.599,98.8404,102.971,0.0150373,0.0744423,20.9423,70.7823,-0.372588,0.0,0.0
1128,281.75,40.4692,44.4147,147.393,98.8412,103.448,0.015035,0.0745746,20.9423,70.7323,-0.414522,0.0,0.0
1131,282.5,41.004,44.502,146.019,98.8444,103.036,0.0150492,0.0746851,20.9423,70.7823,-0.377909,0.0,0.0
1134,283.25,40.7797,45.1353,145.97,98.8484,103.131,0.0150683,0.0747716,20.9424,70.7623,-0.385969,0.0,0.0
1137,284,41.023,44.5497,144.316,98.8604,103.632,0.0150857,0.0748299,20.9424,70.7623,-0.428984,0.0,0.0
1140,284.75,40.2472,44.15,141.915,98.858,103.307,0.0150966,0.0748972,20.9425,70.6923,-0.40061,0.0,0.0
1143,285.5,40.4198,44.096,141.845,98.8839,103.429,0.0150993,0.0749463,20.9419,70.7423,-0.408925,0.0,0.0
1146,286.25,40.5767,43.9886,146.096,98.8867,103.464,0.0150969,0.0752425,20.9415,70.7523,-0.411798,0.0,0.0
1149,287,40.4114,44.5967,146.683,98.8827,103.624,0.0150916,0.0755185,20.9412,70.7323,-0.426175,0.0,0.0
1152,287.75,40.7083,44.2043,148.072,98.8851,103.854,0.0150798,0.0757271,20.941,70.6722,-0.44618,0.0,0.0
1155,288.5,40.512,43.8821,145.267,98.8935,102.879,0.0150679,0.0758919,20.9408,70.7023,-0.359578,0.0,0.0
1158,289.25,40.4363,43.766,142.998,98.8991,103.026,0.015033,0.0761522,20.9407,70.7123,-0.372039,0.0,0.0
1161,290,40.7494,43.6727,144.219,98.9039,103.526,0.0149891,0.0763139,20.9406,70.6923,-0.415642,0.0,0.0
1164,290.75,39.7509,44.0413,147.586,98.9059,103.26,0.0149493,0.0764198,20.9405,70.6322,-0.392035,0.0,0.0
1167,291.5,40.325,44.0032,144.865,98.9138,103.252,0.0148622,0.076457,20.9405,70.6622,-0.390626,0.0,0.0
1170,292.25,39.6247,43.2069,146.56,98.9186,103.247,0.0147814,0.0764544,20.9404,70.6722,-0.389708,0.0,0.0
1173,293,40.5653,42.9855,146.625,98.9258,103.483,0.0146931,0.076402,20.9404,70.6722,-0.409822,0.0,0.0
1176,293.75,40.2402,42.6491,148.645,98.9274,103.8,0.0146155,0.0763779,20.9404,70.6622,-0.437549,0.0,0.0
1179,294.5,40.0458,43.5318,148.604,98.9334,103.81,0.0145735,0.0764254,20.9404,70.6222,-0.437828,0.0,0.0
1182,295.25,40.1472,43.4324,146.055,98.9414,103.537,0.0145489,0.0765612,20.9404,70.6422,-0.41314,0.0,0.0
1185,296,39.8423,42.922,143.294,98.9494,103.206,0.0145717,0.0767446,20.9404,70.6422,-0.383308,0.0,0.0
1188,296.75,40.1847,43.3914,143.6,98.9426,103.291,0.0146223,0.0769216,20.9404,70.6422,-0.391393,0.0,0.0
1191,297.5,39.9162,42.6216,142.363,98.9394,103.334,0.0146875,0.0770633,20.9403,70.5822,-0.395456,0.0,0.0
1194,298.25,40.056,42.7958,145.679,98.9598,103.085,0.0147519,0.0771465,20.9403,70.6422,-0.371626,0.0,0.0
1197,299,39.9852,42.977,141.561,98.9713,103.476,0.0147883,0.0772072,20.9403,70.6322,-0.405081,0.0,0.0
1200,299.75,39.9529,42.539,145.143,98.9661,103.315,0.0148104,0.0771512,20.9403,70.5922,-0.391331,0.0,0.0
1203,300.5,39.9778,42.8958,146.097,98.9642,103.469,0.0147947,0.0770682,20.9403,70.5221,-0.405068,0.0,0.0
1206,301.25,39.4847,42.8248,145.84,98.9789,103.458,0.01477,0.076938,20.9403,70.5822,-0.40276,0.0,0.0
1209,302,40.1601,42.8422,142.92,98.9801,102.914,0.0147297,0.0767545,20.9403,70.5822,-0.354715,0.0,0.0
1212,302.75,40.015,42.8469,141.237,98.9941,103.089,0.0146878,0.0766408,20.9403,70.5922,-0.368868,0.0,0.0
1215,303.5,39.9992,42.6697,146.754,98.9765,103.584,0.014636,0.0765801,20.9403,70.5321,-0.414103,0.0,0.0
1218,304.25,39.5239,42.5984,143.719,98.9973,103.353,0.0145786,0.0765738,20.9403,70.5822,-0.391838,0.0,0.0
1221,305,39.067,42.3298,148.788,99.0005,103.362,0.0145284,0.0765552,20.9403,70.5621,-0.392337,0.0,0.0
1224,305.75,39.5263,42.3351,146.395,99.0053,103.801,0.0144525,0.0765356,20.9405,70.5421,-0.430469,0.0,0.0
1227,306.5,39.7323,42.1663,147.2,99.0173,103.637,0.0144082,0.0764651,20.9407,70.4721,-0.414947,0.0,0.0
1230,307.25,39.9935,42.0965,146.067,99.0185,103.141,0.014341,0.0763898,20.941,70.5021,-0.371198,0.0,0.0
1233,308,39.0086,42.4874,144.61,99.0352,103.297,0.0142766,0.0763349,20.9411,70.5121,-0.383394,0.0,0.0
1236,308.75,39.7922,41.7145,144.929,99.0264,103.266,0.0142148,0.0763022,20.9413,70.5121,-0.381464,0.0,0.0
1239,309.5,39.5333,41.9572,144.431,99.0316,103.526,0.0141698,0.0762944,20.9414,70.4721,-0.403934,0.0,0.0
1242,310.25,39.4843,41.9009,146.26,99.036,103.394,0.0141649,0.0762252,20.9414,70.452,-0.391846,0.0,0.0
1245,311,39.4022,41.6679,147.498,99.0472,103.187,0.0141915,0.0761889,20.9415,70.5121,-0.372609,0.0,0.0
1248,311.75,39.2177,42.0394,144.989,99.0552,103.577,0.0142237,0.0761684,20.9415,70.5121,-0.406242,0.0,0.0
1251,312.5,39.4033,42.0902,148.132,99.054,103.261,0.0142921,0.0762736,20.9416,70.4921,-0.378535,0.0,0.0
1254,313.25,39.4952,41.2563,147.15,99.0592,103.307,0.0143447,0.0764096,20.9416,70.4921,-0.382106,0.0,0.0
1257,314,39.0086,41.8777,146.69,99.0815,103.606,0.0143878,0.0766098,20.9416,70.5021,-0.406353,0.0,0.0
1260,314.75,39.1971,41.788,144.005,99.0879,103.793,0.0144023,0.0768961,20.9414,70.5221,-0.422165,0.0,0.0
1263,315.5,39.3984,41.9526,147.422,99.0879,103.457,0.014398,0.07709,20.9408,70.5021,-0.392665,0.0,0.0
1266,316.25,39.5232,41.3493,145.275,99.0887,103.631,0.0143948,0.0772061,20.9409,70.422,-0.407868,0.0,0.0
1269,317,39.0979,41.251,146.328,99.1083,103.478,0.0143533,0.0772486,20.9411,70.4921,-0.392657,0.0,0.0
1272,317.75,39.2318,41.374,145.57,99.1223,103.285,0.0143202,0.0773037,20.9412,70.4721,-0.374368,0.0,0.0
1275,318.5,38.7823,41.569,151.461,99.1239,103.462,0.0142914,0.0773619,20.9413,70.4821,-0.389801,0.0,0.0
1278,319.25,39.2128,41.1164,147.676,99.1326,104.06,0.014291,0.0774845,20.9414,70.402,-0.441403,0.0,0.0
1281,320,39.137,41.6616,143.12,99.1386,103.934,0.0143116,0.0775739,20.9415,70.4621,-0.42986,0.0,0.0
1284,320.75,39.382,40.8231,147.785,99.1466,103.488,0.0143397,0.077639,20.9415,70.452,-0.390008,0.0,0.0
1287,321.5,38.8644,41.601,144.864,99.1494,103.476,0.0143673,0.0777467,20.9416,70.432,-0.388684,0.0,0.0
1290,322.25,38.9474,41.1054,146.668,99.1602,103.241,0.0143769,0.077783,20.9416,70.382,-0.367037,0.0,0.0
1293,323,39.3409,41.3214,143.715,99.1809,103.411,0.0143795,0.0777915,20.9416,70.452,-0.380084,0.0,0.0
1296,323.75,39.2544,41.0809,147.212,99.1754,103.833,0.0143198,0.0776974,20.9416,70.442,-0.417613,0.0,0.0
1299,324.5,38.9368,41.0948,148.16,99.1754,103.154,0.0142121,0.077671,20.9416,70.442,-0.357981,0.0,0.0
1302,325.25,38.8854,41.1266,146.383,99.1857,103.95,0.0140689,0.0776697,20.9416,70.432,-0.426916,0.0,0.0
1305,326,38.7524,40.8412,146.238,99.1901,103.239,0.013941,0.0775886,20.9416,70.402,-0.364051,0.0,0.0
1308,326.75,38.9883,40.9906,144.762,99.2077,103.458,0.0138426,0.0775295,20.9416,70.1818,-0.38179,0.0,0.0
1311,327.5,39.2996,41.176,144.938,99.2093,103.828,0.013779,0.0772659,20.9416,70.402,-0.414065,0.0,0.0
1314,328.25,39.1719,41.3007,144.854,99.2129,103.456,0.0137396,0.0773408,20.9416,70.352,-0.381076,0.0,0.0
1317,329,39.2753,40.9115,143.882,99.2185,103.437,0.0137226,0.0776572,20.9413,70.3319,-0.37894,0.0,0.0
1320,329.75,39.0382,41.0056,149.864,99.2305,103.961,0.0137046,0.0781411,20.9404,70.352,-0.423799,0.0,0.0
1323,330.5,38.6944,40.8953,145.87,99.2313,103.539,0.0136915,0.078554,20.9398,70.362,-0.386677,0.0,0.0
1326,331.25,38.5794,40.8409,145.316,99.2277,103.641,0.0136559,0.078855,20.9393,70.362,-0.395987,0.0,0.0
1329,332,38.756,40.6831,146.115,99.2293,103.439,0.0136155,0.0790544,20.939,70.3219,-0.378149,0.0,0.0
1332,332.75,38.7591,41.07,143.742,99.2492,103.956,0.0135636,0.0792294,20.9386,70.362,-0.421645,0.0,0.0
1335,333.5,38.7227,40.464,144.22,99.2588,103.601,0.0135355,0.0794076,20.9385,70.3419,-0.389612,0.0,0.0
1338,334.25,38.9283,41.0017,144.449,99.2712,103.452,0.0134926,0.0795597,20.9384,70.362,-0.375414,0.0,0.0
1341,335,39.0308,40.5782,146.534,99.2768,103.344,0.0134514,0.0797086,20.9383,70.2719,-0.365391,0.0,0.0
1344,335.75,38.6733,40.5537,146.806,99.2836,103.693,0.0134119,0.0797954,20.9382,70.3219,-0.395447,0.0,0.0
1347,336.5,38.52,40.9629,145.549,99.2824,103.215,0.0133609,0.0797705,20.9382,70.2919,-0.353491,0.0,0.0
1350,337.25,38.7655,40.7863,145.502,99.3019,103.617,0.0133237,0.0797419,20.9377,70.2919,-0.387083,0.0,0.0
1353,338,38.6506,40.7412,147.495,99.2899,103.516,0.0132501,0.0796809,20.9372,70.2218,-0.379278,0.0,0.0
1356,338.75,38.0547,40.4638,144.68,99.3031,103.712,0.0131834,0.0797208,20.9368,70.2819,-0.395353,0.0,0.0
1359,339.5,38.8351,40.7772,146.981,99.3075,103.8,,0.0797859,,70.2719,-0.402652,0.0,0.0
1362,340.25,39.001,40.8778,145.653,99.3171,103.886,,0.0798333,,70.2919,-0.409312,0.0,0.0
1365,341,38.7208,40.4106,149.724,99.3143,103.605,,0.0798161,,70.2218,-0.38488,0.0,0.0
1368,341.75,38.6371,39.7358,145.674,99.3131,103.836,,0.0797149,,70.2719,-0.405258,0.0,0.0
1371,342.5,38.2264,40.0138,145.871,99.3319,103.927,,,,70.2719,-0.411547,0.0,0.0
1374,343.25,37.9956,40.3307,145.947,99.3454,103.996,,,,70.2719,-0.416335,0.0,0.0
1377,344,38.5755,40.1084,146.537,99.3315,103.927,,,,70.1918,-0.411584,0.0,0.0
1380,344.75,38.6893,40.0692,150.204,99.341,103.982,,,,70.2218,-0.415475,0.0,0.0
1383,345.5,38.4793,39.9533,145.951,99.3474,103.317,,,,70.2519,-0.356535,0.0,0.0
1386,346.25,38.8597,39.9869,142.863,99.353,103.822,,,,70.2318,-0.400417,0.0,0.0
1389,347,39.0293,40.3303,150.402,99.351,103.838,,,,70.1818,-0.40202,0.0,0.0
1392,347.75,38.3078,40.0286,144.684,99.3458,104.148,,,,70.1518,-0.429567,0.0,0.0
1395,348.5,38.9597,40.5812,146.512,99.3822,103.556,,,,70.2118,-0.37439,0.0,0.0
1398,349.25,39.1357,40.438,142.085,99.3826,103.877,,,,70.2018,-0.402486,0.0,0.0
1400,349.75,38.538,40.4217,147.306,99.3658,103.581,,,,70.1418,-0.378067,0.0,0.0