File: 01_Data/Luan_Panel/Cone/Luan_Panel_Cone_HF50Scan_220915_R1.csv
Names,Time,Stack TC,Smoke TC,Exh Press,Smoke Comp,Smoke Meas,CO Meter,CO2 Meter,O2 Meter,Sample Mass,Ext Coeff,Start Test,Flame Verif
Chan Gain,,500,500,1,1,1,1,1,1,1,1,1.0,1.0
Offset,,0,0,0.139139,0,0,0,0,0,0,0,0.0,0.0
Gain,,1,1,25.011,13.0826,14.7555,1,1,1,1.00088,1.03743,1.0,1.0
Units,sec,C,C,Pa,%,%,%,%,%,g,/m,,
Baseline,,52.4588,53.5895,140.467,99.0032,103.765,-0.000548548,0.0496792,20.9926,-447.109,-0.427441,,
2,0.25,50.4758,51.9706,139.502,98.6272,103.5,-0.000561408,0.0538163,20.9844,65.1073,-0.438879,0.0,0.0
4,0.75,50.3868,51.6669,142.07,98.6539,103.718,-0.000558437,0.0539635,20.9842,65.1674,-0.455515,0.0,0.0
6,1.25,49.9335,51.5325,139.515,98.6344,103.734,-0.000551917,0.0540679,20.9837,65.2675,-0.458781,0.0,0.0
8,1.75,50.0694,51.5931,141.566,98.6356,103.675,-0.000537492,0.0541392,20.9834,65.1574,-0.453455,0.0,0.0
10,2.25,50.2598,51.19,140.879,98.6268,103.127,-0.000517579,0.0541969,20.9835,65.0973,-0.406074,0.0,0.0
12,2.75,50.6203,51.2364,140.211,98.6324,103.006,-0.000489695,0.0542436,20.9836,65.1474,-0.394864,0.0,0.0
14,3.25,50.1641,51.5691,136.989,98.6212,102.959,-0.000456529,0.0542955,20.9837,65.1274,-0.391676,0.0,0.0
16,3.75,50.6493,51.6993,139.065,98.63,103.127,-0.000423787,0.0543376,20.9838,65.0973,-0.405739,0.0,0.0
18,4.25,50.4774,51.3864,140.375,98.6252,103.281,-0.000391976,0.0543717,20.9839,65.1173,-0.419801,0.0,0.0
20,4.75,50.4623,51.8819,140.39,98.638,102.928,-0.000366862,0.0543993,20.9839,65.1173,-0.387462,0.0,0.0
22,5.25,50.7366,51.5358,137.021,98.6208,103.052,-0.000347108,0.0544217,20.9844,65.0773,-0.399949,0.0,0.0
24,5.75,50.2933,51.59,141.032,98.636,103.472,-0.000331107,0.0544679,20.9848,65.0573,-0.435574,0.0,0.0
26,6.25,50.721,51.8686,139.905,98.626,102.701,-0.000336759,0.0545054,20.9851,65.0573,-0.36844,0.0,0.0
28,6.75,50.5413,52.162,138.948,98.6284,102.353,-0.000341336,0.0544935,20.9854,65.0373,-0.337323,0.0,0.0
30,7.25,50.6589,51.6009,136.27,98.614,102.283,-0.000345044,0.0544839,20.9856,65.0273,-0.332401,0.0,0.0
32,7.75,50.3789,51.5043,141.01,98.6436,102.258,-0.000362997,0.0545043,20.9857,65.0173,-0.327512,0.0,0.0
34,8.25,50.5634,51.3898,138.182,98.6208,101.93,-0.000377539,0.0545208,20.9856,65.0173,-0.300391,0.0,0.0
36,8.75,50.4991,51.7941,140.966,98.6288,101.917,-0.000368224,0.0546327,20.9856,64.9972,-0.298407,0.0,0.0
38,9.25,50.8554,51.3752,137.646,98.6148,101.555,-0.000360679,0.0547234,20.9856,64.9672,-0.267392,0.0,0.0
40,9.75,50.9012,51.6763,141.145,98.6284,100.771,-0.000308659,0.0548778,20.9852,64.9772,-0.195534,0.0,0.0
42,10.25,50.7033,51.7548,142.211,98.6072,99.7051,-0.000266522,0.0550758,20.9844,64.9572,-0.10076,0.0,0.0
44,10.75,50.7553,51.7452,138.292,98.6208,100.139,-0.00017405,0.0552362,20.9837,64.9172,-0.139001,0.0,0.0
46,11.25,50.7873,51.4272,142.437,98.6152,99.0747,-9.91472e-05,0.0556703,20.9797,64.8971,-0.0423001,0.0,0.0
48,11.75,50.8593,51.9632,143.084,98.6328,97.7994,1.37356e-07,0.0562956,20.9764,64.8471,0.0772169,0.0,0.0
50,12.25,50.8641,52.1705,138.587,98.6204,96.9416,0.00011531,0.0579629,20.9572,64.8171,0.156248,0.0,1.0
52,12.75,51.0993,51.6474,135.918,98.6304,99.1418,0.000234822,0.0603581,20.9416,64.8171,-0.0470609,0.0,1.0
54,13.25,51.1624,52.1608,130.453,98.624,102.575,0.000355226,0.0673715,20.9044,64.727,-0.357484,0.0,1.0
56,13.75,51.3937,52.1518,128.295,98.6288,102.901,0.000452754,0.0730523,20.8743,64.6569,-0.38588,0.0,1.0
58,14.25,51.8825,52.3132,124.069,98.6112,102.066,0.00056918,0.0825481,20.85,64.5468,-0.313367,0.0,1.0
60,14.75,52.5149,52.6514,121.864,98.6236,101.622,0.00069717,0.0946448,20.7996,64.4067,-0.272551,0.0,1.0
62,15.25,53.2555,52.9541,113.529,98.6096,101.389,0.00083505,0.109573,20.7588,64.3066,-0.252928,0.0,1.0
64,15.75,53.7961,53.4649,114.649,98.6188,100.354,0.000977521,0.126283,20.7056,64.1865,-0.158766,0.0,1.0
66,16.25,54.906,53.7677,117.242,98.6224,100.77,0.00109292,0.139817,20.6625,64.0764,-0.196005,0.0,1.0
68,16.75,54.642,53.1065,116.608,98.624,100.23,0.00127783,0.162309,20.6123,63.9763,-0.146969,0.0,1.0
70,17.25,55.2486,53.1048,117.462,98.6136,99.7447,0.00142761,0.180528,20.5716,63.8863,-0.103787,0.0,1.0
72,17.75,56.1566,54.2301,111.057,98.6232,99.1138,0.00154037,0.201211,20.5471,63.7762,-0.0451615,0.0,1.0
74,18.25,56.6914,55.0095,118.497,98.6196,99.5727,0.00173319,0.223299,20.5053,63.6761,-0.0875263,0.0,1.0
76,18.75,57.9579,55.4669,116.852,98.632,98.1124,0.00194768,0.245305,20.4714,63.546,0.048069,0.0,1.0
78,19.25,58.8025,56.0804,114.412,98.6184,97.7999,0.00217391,0.266833,20.4347,63.4559,0.0758486,0.0,1.0
80,19.75,59.8774,57.2548,113.984,98.6244,96.7925,0.00240699,0.284271,20.4018,63.3458,0.17062,0.0,0.0
82,20.25,60.7815,57.3842,112.223,98.6072,97.1235,0.00264063,0.308326,20.3722,63.2657,0.137971,0.0,0.0
84,20.75,62.1437,58.7173,110.181,98.6348,95.982,0.00282989,0.318582,20.3483,63.0956,0.248105,0.0,0.0
86,21.25,62.5971,58.8385,110.893,98.6112,96.1734,0.00309459,0.339658,20.3289,62.9855,0.227804,0.0,0.0
88,21.75,63.418,59.3208,115.138,98.6296,95.778,0.003309,0.359916,20.3132,62.9054,0.266987,0.0,0.0
90,22.25,64.3784,60.2725,116.197,98.6136,95.7902,0.00350938,0.378802,20.3005,62.7653,0.264358,0.0,0.0
92,22.75,65.278,61.3015,116.847,98.6272,97.0951,0.00369573,0.39633,20.2902,62.6852,0.142472,0.0,0.0
94,23.25,66.388,61.99,114.166,98.614,96.3661,0.00384667,0.410527,20.2818,62.5751,0.209843,0.0,0.0
96,23.75,67.0343,62.5241,115.52,98.6216,96.453,0.00399166,0.425454,20.275,62.505,0.20234,0.0,0.0
98,24.25,67.4174,62.846,126.239,98.614,97.0965,0.00412956,0.437544,20.2763,62.415,0.14113,0.0,0.0
100,24.75,67.7616,63.9171,117.046,98.6448,96.0468,0.00425264,0.448121,20.2773,62.3049,0.242879,0.0,0.0
102,25.25,67.8655,63.6177,121.873,98.6068,96.3828,0.00436257,0.457394,20.2882,62.2048,0.207607,0.0,0.0
104,25.75,68.6437,64.646,115.158,98.6324,97.2915,0.00445897,0.464904,20.297,62.1147,0.124567,0.0,0.0
106,26.25,69.64,65.3176,124.062,98.6184,97.0618,0.00454369,0.470494,20.3102,62.0346,0.144785,0.0,0.0
108,26.75,69.485,65.3178,123.954,98.6464,97.3946,0.00461231,0.474577,20.3262,61.9946,0.116217,0.0,0.0
110,27.25,69.6474,65.7118,122.882,98.6168,97.6008,0.00466662,0.477885,20.3452,61.8545,0.0942407,0.0,0.0
112,27.75,70.3469,66.1658,120.941,98.632,98.3672,0.00471061,0.478934,20.3659,61.8044,0.0244595,0.0,0.0
114,28.25,70.7853,67.2361,121.875,98.6184,98.1065,0.00474624,0.479783,20.3827,61.7244,0.0473589,0.0,0.0
116,28.75,70.7526,67.0168,120.555,98.624,98.311,0.0047484,0.478288,20.3998,61.6343,0.0289311,0.0,0.0
118,29.25,71.0107,67.3052,126.703,98.614,98.868,0.00475015,0.477076,20.4168,61.5642,-0.0234057,0.0,0.0
120,29.75,71.3484,67.7368,123.948,98.6244,98.3934,0.00471726,0.473784,20.4339,61.5342,0.021343,0.0,0.0
122,30.25,71.395,68.1416,127.764,98.6196,98.745,0.00469061,0.471118,20.451,61.4441,-0.0115679,0.0,0.0
124,30.75,71.506,68.6372,122.668,98.6292,99.5849,0.0046208,0.467273,20.468,61.3841,-0.0877535,0.0,0.0
126,31.25,71.7458,68.4531,126.586,98.6184,98.6289,0.00456425,0.462643,20.4847,61.304,-0.000965016,0.0,0.0
128,31.75,71.5115,68.8616,125.987,98.6491,100.303,0.00447788,0.458893,20.5019,61.2339,-0.151309,0.0,0.0
130,32.25,71.8257,69.1083,124.753,98.6208,100.933,0.00440791,0.452867,20.5191,61.1839,-0.210862,0.0,0.0
132,32.75,71.8359,69.0963,128.296,98.6296,99.7118,0.00433058,0.447986,20.5331,61.1038,-0.099313,0.0,0.0
134,33.25,71.8399,69.4535,125.752,98.624,100.893,0.00424935,0.442714,20.5492,61.0337,-0.207034,0.0,0.0
136,33.75,71.8887,69.4078,123.976,98.6264,101.136,0.00416623,0.437257,20.5644,60.9737,-0.228638,0.0,0.0
138,34.25,71.8285,69.5854,128.169,98.6248,100.803,0.00408332,0.43154,20.5785,60.9237,-0.198834,0.0,0.0
140,34.75,71.6864,69.8836,128.477,98.6252,100.92,0.00401617,0.425742,20.59,60.8736,-0.209279,0.0,0.0
142,35.25,71.9306,69.8783,131.332,98.6192,101.26,0.0039188,0.419687,20.5992,60.8035,-0.240478,0.0,0.0
144,35.75,72.0562,69.6112,130.036,98.6176,101.225,0.00383993,0.41356,20.6103,60.7535,-0.237508,0.0,0.0
146,36.25,71.8777,70.072,127.796,98.624,101.391,0.00374321,0.407555,20.6203,60.6935,-0.251764,0.0,0.0
148,36.75,71.3278,70.1259,131.94,98.6196,101.803,0.00366487,0.401754,20.6295,60.6434,-0.289117,0.0,0.0
150,37.25,71.7974,70.2103,131.817,98.6228,102.082,0.00356861,0.397055,20.637,60.5733,-0.313704,0.0,0.0
152,37.75,72.0366,70.5177,128.512,98.6252,102.186,0.00349064,0.39108,20.6448,60.5433,-0.322791,0.0,0.0
154,38.25,71.9526,70.7924,127.501,98.6264,102.273,0.00340295,0.386241,20.6511,60.4532,-0.330377,0.0,0.0
156,38.75,71.7006,70.5668,130.863,98.6112,101.578,0.00330983,0.381215,20.6584,60.4032,-0.269741,0.0,0.0
158,39.25,71.7023,70.8255,133.745,98.6284,101.692,0.00321584,0.376149,20.6643,60.3431,-0.278398,0.0,0.0
160,39.75,71.0201,69.8179,132.127,98.6112,101.785,0.00312302,0.371394,20.6691,60.2931,-0.288279,0.0,0.0
162,40.25,71.4673,70.6465,131.388,98.6312,101.15,0.00303327,0.366957,20.6729,60.2431,-0.229493,0.0,0.0
164,40.75,71.3359,70.3747,131.076,98.6216,101.683,0.00294746,0.363363,20.6761,60.183,-0.278179,0.0,0.0
166,41.25,71.5418,70.5969,124.193,98.622,101.43,0.00287796,0.359353,20.6786,60.143,-0.255464,0.0,0.0
168,41.75,71.261,70.4667,129.309,98.6212,101.355,0.00281108,0.356106,20.6807,60.0729,-0.248869,0.0,0.0
170,42.25,71.5244,70.714,124.957,98.636,101.848,0.00274737,0.352695,20.6815,60.0329,-0.29159,0.0,0.0
172,42.75,71.3535,70.636,130.531,98.6216,101.966,0.00269908,0.349933,20.6821,59.9528,-0.303492,0.0,0.0
174,43.25,71.6953,70.8259,124.099,98.6236,102.339,0.00266294,0.347232,20.6822,59.8927,-0.336523,0.0,0.0
176,43.75,70.9848,70.976,131.888,98.6308,102.073,0.0026436,0.345044,20.6823,59.8627,-0.312205,0.0,0.0
178,44.25,71.6209,71.088,128.248,98.6292,101.544,0.00263686,0.342991,20.6806,59.7526,-0.265017,0.0,0.0
180,44.75,71.5433,71.0178,126.417,98.6144,101.858,0.00264597,0.341328,20.6792,59.7126,-0.294504,0.0,0.0
182,45.25,71.8926,71.3466,126.115,98.6248,101.437,0.00266645,0.339981,20.6781,59.6325,-0.255812,0.0,0.0
184,45.75,71.8689,71.6254,127.55,98.6192,101.119,0.00268305,0.339072,20.6746,59.5424,-0.227802,0.0,0.0
186,46.25,71.7909,71.1725,125.831,98.6268,100.809,0.00272035,0.338335,20.6717,59.5124,-0.199178,0.0,0.0
188,46.75,71.7697,71.6044,127.769,98.6144,101.359,0.00277204,0.338103,20.6669,59.4423,-0.249819,0.0,0.0
190,47.25,71.5631,71.4376,126.844,98.6364,101.614,0.00283182,0.337914,20.663,59.3623,-0.270647,0.0,0.0
192,47.75,72.1971,71.8932,125.517,98.6196,101.419,0.00289636,0.338142,20.6585,59.3022,-0.254756,0.0,0.0
194,48.25,71.7925,71.6568,126.792,98.6324,101.576,0.00294865,0.338327,20.6549,59.2422,-0.267628,0.0,0.0
196,48.75,72.2043,71.9136,127.094,98.6252,101.536,0.00299099,0.338477,20.6506,59.1621,-0.264739,0.0,0.0
198,49.25,72.1548,71.7505,127.506,98.6332,101.756,0.00308967,0.339412,20.6472,59.1121,-0.283676,0.0,0.0
200,49.75,72.3972,72.257,128.756,98.6256,101.762,0.0031696,0.340169,20.6428,59.062,-0.2849,0.0,0.0
202,50.25,72.1741,72.2273,132.517,98.644,101.169,0.00325762,0.341398,20.6378,58.992,-0.229975,0.0,0.0
204,50.75,72.3616,72.5106,126.407,98.6244,101.525,0.00334988,0.342394,20.633,58.9219,-0.263764,0.0,0.0
206,51.25,72.6966,72.7379,129.334,98.6356,102.114,0.00350963,0.343745,20.6266,58.8418,-0.315375,0.0,0.0
208,51.75,72.6558,72.8476,129.749,98.6288,101.129,0.00356096,0.345329,20.624,58.7818,-0.227851,0.0,0.0
210,52.25,72.627,72.8099,124.346,98.6316,101.458,0.00367876,0.346612,20.6195,58.7317,-0.257085,0.0,0.0
212,52.75,72.9079,72.9698,120.396,98.6272,101.54,0.0038012,0.348707,20.6158,58.6617,-0.264878,0.0,0.0
214,53.25,73.2435,73.0194,126.296,98.6543,102.193,0.00390038,0.350404,20.6107,58.5716,-0.320705,0.0,0.0
216,53.75,73.4887,73.4135,123.649,98.6408,101.89,0.00405435,0.352687,20.6065,58.4915,-0.294969,0.0,0.0
218,54.25,73.5452,73.3845,125.143,98.6356,102.085,0.00417907,0.355794,20.6009,58.4114,-0.312846,0.0,0.0
220,54.75,73.9187,73.6784,124.086,98.6444,101.607,0.00432842,0.356926,20.5964,58.3214,-0.269305,0.0,0.0
222,55.25,73.6473,73.8772,123.548,98.6452,102.016,0.00444939,0.358863,20.5921,58.2513,-0.305818,0.0,0.0
224,55.75,73.8054,73.8629,126.263,98.634,101.608,0.00458291,0.361515,20.5879,58.1812,-0.270344,0.0,0.0
226,56.25,74.3221,74.3295,123.718,98.6436,101.737,0.00472303,0.363663,20.582,58.1112,-0.280987,0.0,0.0
228,56.75,74.2033,74.417,121.967,98.6368,102.072,0.00483653,0.366218,20.5771,58.0311,-0.311571,0.0,0.0
230,57.25,74.6473,74.3143,127.568,98.6571,101.58,0.00497056,0.36902,20.571,57.931,-0.265666,0.0,0.0
232,57.75,74.6068,74.6113,124.295,98.6384,101.677,0.00507912,0.371289,20.566,57.861,-0.276107,0.0,0.0
234,58.25,74.8946,74.9226,123.643,98.6571,102.013,0.0051811,0.374684,20.5602,57.7709,-0.304392,0.0,0.0
236,58.75,75.1042,75.0748,123.222,98.6384,101.642,0.0052637,0.377433,20.5538,57.7208,-0.273003,0.0,0.0
238,59.25,74.9234,75.1017,127.806,98.6479,101.457,0.00532294,0.37966,20.5468,57.6207,-0.255534,0.0,0.0
240,59.75,75.2536,75.3596,122.129,98.6412,101.488,0.00537093,0.383874,20.5394,57.5207,-0.258946,0.0,0.0
242,60.25,75.6013,75.6366,122.1,98.6643,101.058,0.00539436,0.387288,20.5321,57.4606,-0.218127,0.0,0.0
244,60.75,75.7919,75.9436,121.223,98.6392,101.192,0.00539943,0.39184,20.5249,57.3805,-0.232564,0.0,0.0
246,61.25,75.7906,75.8922,121.66,98.6599,101.306,0.00535383,0.395527,20.5172,57.2905,-0.240888,0.0,0.0
248,61.75,76.3058,76.2764,121.874,98.6483,101.498,0.0053169,0.399644,20.5093,57.2204,-0.259172,0.0,0.0
250,62.25,76.3538,76.2876,120.308,98.6539,101.209,0.0052361,0.403997,20.503,57.1403,-0.232659,0.0,0.0
252,62.75,76.5778,76.828,122.176,98.6579,100.527,0.00512485,0.408598,20.4939,57.0602,-0.170782,0.0,0.0
254,63.25,76.8851,76.7541,120.705,98.6603,100.614,0.00503474,0.413291,20.4865,56.9301,-0.178466,0.0,0.0
256,63.75,76.9231,77.11,121.682,98.6551,101.311,0.00488305,0.418269,20.4789,56.8601,-0.241735,0.0,0.0
258,64.25,77.1684,77.5348,119.552,98.6603,100.846,0.00476019,0.423359,20.4713,56.74,-0.199417,0.0,0.0
260,64.75,77.7208,77.6252,117.239,98.6539,100.804,0.00460872,0.428837,20.4636,56.6499,-0.196186,0.0,0.0
262,65.25,77.8995,77.7097,118.794,98.6675,100.829,0.00448603,0.434495,20.4558,56.5998,-0.19725,0.0,0.0
264,65.75,78.1481,78.0289,118.605,98.6639,100.93,0.00434742,0.439078,20.4484,56.4697,-0.206681,0.0,0.0
266,66.25,78.2019,78.2034,119.352,98.6715,100.569,0.00423515,0.445081,20.4413,56.4297,-0.173361,0.0,0.0
268,66.75,78.8742,78.508,127.874,98.6599,100.411,0.00412144,0.449943,20.4356,56.3196,-0.160074,0.0,0.0
270,67.25,79.2058,79.1191,122.102,98.6755,99.8168,0.00402934,0.455001,20.4294,56.2395,-0.104648,0.0,0.0
272,67.75,79.0144,79.0762,121.754,98.6771,99.7186,0.00395474,0.460106,20.4229,56.1595,-0.095547,0.0,0.0
274,68.25,79.2544,79.275,116.331,98.6747,99.3543,0.00390164,0.465242,20.4176,56.0494,-0.062462,0.0,0.0
276,68.75,79.5957,79.4252,118.57,98.6739,99.8109,0.00386521,0.470305,20.4114,55.9493,-0.104262,0.0,0.0
278,69.25,80.3292,80.2836,120.319,98.6863,99.0427,0.0038357,0.475288,20.4064,55.8692,-0.0328066,0.0,0.0
280,69.75,80.1821,79.8998,122.715,98.6663,98.8,0.0038118,0.480119,20.4014,55.7891,-0.0123202,0.0,0.0
282,70.25,79.9279,80.269,124.732,98.6755,97.6229,0.00387853,0.484032,20.3974,55.689,0.0975985,0.0,0.0
284,70.75,80.0012,80.2849,121.841,98.6763,98.4753,0.00393258,0.488323,20.3942,55.599,0.0185546,0.0,0.0
286,71.25,80.9289,80.3426,121.743,98.6807,97.228,0.00403725,0.49281,20.3915,55.5189,0.134965,0.0,0.0
288,71.75,81.015,80.9856,116.705,98.6771,96.747,0.00412203,0.496444,20.3894,55.4188,0.179759,0.0,0.0
290,72.25,81.065,81.5293,128.234,98.6823,96.4161,0.00423389,0.499937,20.3877,55.3487,0.211422,0.0,0.0
292,72.75,81.1171,81.3184,120.484,98.6859,96.453,0.0043245,0.503262,20.3874,55.2587,0.208269,0.0,0.0
294,73.25,81.0322,81.8035,119.606,98.6971,97.3509,0.00440679,0.505954,20.3882,55.1786,0.124975,0.0,0.0
296,73.75,81.6454,81.5411,123.363,98.6859,97.9376,0.00447344,0.508191,20.3908,55.0885,0.069261,0.0,0.0
298,74.25,81.4904,81.9958,122.241,98.6887,96.4395,0.00449185,0.510003,20.3945,55.0084,0.209802,0.0,0.0
300,74.75,81.4368,81.9965,128.452,98.6839,96.6426,0.00450677,0.511098,20.3991,54.9284,0.190217,0.0,0.0
302,75.25,81.4452,82.5615,121.519,98.6859,97.9746,0.00446554,0.511984,20.4043,54.8583,0.0658303,0.0,0.0
304,75.75,82.0366,82.4346,117.133,98.6939,97.9381,0.00444797,0.512031,20.4065,54.7882,0.0699554,0.0,0.0
306,76.25,82.0679,82.3646,120.845,98.6927,97.8733,0.00441792,0.511668,20.4124,54.6882,0.0758722,0.0,0.0
308,76.75,81.8319,82.6339,123.304,98.7082,97.5905,0.00435356,0.511012,20.4173,54.5881,0.10364,0.0,0.0
310,77.25,82.4605,82.5824,120.38,98.6971,97.6418,0.00426543,0.510482,20.4238,54.5681,0.0978239,0.0,0.0
312,77.75,82.1835,82.8929,123.975,98.7146,96.7763,0.0041734,0.508958,20.4291,54.488,0.180466,0.0,0.0
314,78.25,81.7329,83.0195,128.317,98.7062,96.8839,0.00408028,0.507724,20.4352,54.3979,0.169578,0.0,0.0
316,78.75,82.1276,82.6843,126.297,98.7078,98.206,0.00398888,0.507198,20.4401,54.3078,0.0463822,0.0,0.0
318,79.25,81.9155,83.6293,123.754,98.7054,97.6913,0.00394236,0.505191,20.4422,54.2578,0.0939809,0.0,0.0
320,79.75,81.97,83.0774,121.438,98.7218,97.7337,0.0038628,0.503565,20.447,54.1677,0.0915476,0.0,0.0
322,80.25,82.1437,83.3391,124.224,98.7206,98.2979,0.00378241,0.50158,20.4517,54.1277,0.0390517,0.0,0.0
324,80.75,82.1024,83.5313,125.114,98.7314,97.9993,0.00370293,0.499371,20.4561,54.0476,0.0677267,0.0,0.0
326,81.25,82.4707,83.2652,120.077,98.725,98.5942,0.00361458,0.497206,20.4596,53.9976,0.0120673,0.0,0.0
328,81.75,82.3855,83.5442,123.363,98.737,98.0155,0.00354301,0.495114,20.4625,53.8774,0.0667371,0.0,0.0
330,82.25,82.1227,83.8775,117.166,98.7274,97.4855,0.00346487,0.494222,20.4648,53.8674,0.115196,0.0,0.0
332,82.75,82.2834,83.865,125.004,98.7418,98.3546,0.00340157,0.492457,20.4667,53.7573,0.03575,0.0,0.0
334,83.25,82.5463,83.4861,124.577,98.747,97.9417,0.00335029,0.49081,20.4683,53.6773,0.0745155,0.0,0.0
336,83.75,81.8965,84.0655,126.193,98.7506,98.2812,0.0033012,0.489322,20.4695,53.5972,0.0433542,0.0,0.0
338,84.25,81.8865,84.1377,122.801,98.7442,98.3186,0.00326143,0.487978,20.4705,53.5271,0.0393055,0.0,0.0
340,84.75,82.4252,83.9831,122.08,98.7597,98.465,0.00323048,0.486804,20.4711,53.4571,0.027204,0.0,0.0
342,85.25,82.3544,84.4115,127.087,98.7526,98.034,0.00320541,0.485775,20.4713,53.387,0.0664581,0.0,0.0
344,85.75,82.6021,84.3479,119.543,98.7633,97.2518,0.00318888,0.484922,20.4713,53.327,0.140349,0.0,0.0
346,86.25,82.2789,84.3272,129.994,98.7613,98.5856,0.0031755,0.484214,20.4711,53.2569,0.016205,0.0,0.0
348,86.75,82.5087,84.4542,127.516,98.7881,97.1721,0.00317348,0.48364,20.4707,53.1968,0.150092,0.0,0.0
350,87.25,82.6751,84.6146,123.082,98.7717,97.6418,0.00317185,0.483267,20.4702,53.1068,0.104704,0.0,0.0
352,87.75,82.5357,84.4987,121.885,98.7877,97.4414,0.00317584,0.482964,20.4697,53.0267,0.124871,0.0,0.0
354,88.25,83.0018,84.2484,123.49,98.7873,98.4163,0.00318385,0.482738,20.4694,52.9566,0.0342371,0.0,0.0
356,88.75,82.5275,84.7592,117.626,98.8056,97.8318,0.00319831,0.482573,20.4691,52.8766,0.0901373,0.0,0.0
358,89.25,82.9364,84.6365,126.683,98.8001,98.0863,0.00321719,0.482419,20.4688,52.7965,0.0659864,0.0,0.0
360,89.75,82.6434,84.9441,118.839,98.8236,97.9989,0.00323248,0.482278,20.4687,52.7164,0.0762649,0.0,0.0
362,90.25,82.3502,85.2571,121.809,98.8176,97.2275,0.00324487,0.482183,20.4685,52.6564,0.147626,0.0,0.0
364,90.75,82.9054,85.0224,126.649,98.8392,97.9291,0.00325491,0.482123,20.4684,52.5863,0.0841825,0.0,0.0
366,91.25,82.6957,85.2561,124.418,98.8448,97.8426,0.00330217,0.482084,20.4681,52.5062,0.0927354,0.0,0.0
368,91.75,83.0405,85.0298,126.239,98.856,99.0463,0.00334046,0.482061,20.4676,52.4562,-0.017505,0.0,0.0
370,92.25,82.8665,85.1846,124.634,98.858,98.6149,0.00337021,0.482042,20.4674,52.3561,0.0224015,0.0,0.0
372,92.75,82.9963,85.1485,121.827,98.8815,97.871,0.00339431,0.482027,20.4675,52.276,0.0934773,0.0,0.0
374,93.25,82.8567,85.3671,123.953,98.8723,98.7941,0.00339236,0.481614,20.4676,52.206,0.00720157,0.0,0.0
376,93.75,83.0729,85.0871,124.925,98.8987,98.0295,0.00339078,0.481279,20.4676,52.1159,0.0803305,0.0,0.0
378,94.25,82.8031,85.8051,125.518,98.9003,98.4785,0.00335921,0.481008,20.4677,52.0859,0.0388961,0.0,0.0
380,94.75,83.073,85.5891,126.445,98.9142,98.5834,0.00333364,0.480673,20.4677,51.9958,0.0304914,0.0,0.0
382,95.25,83.094,85.4091,122.316,98.9206,98.3443,0.00329236,0.480298,20.4677,51.9457,0.0531783,0.0,0.0
384,95.75,83.04,85.6383,123.888,98.945,98.1119,0.00324041,0.480052,20.4673,51.8857,0.0769448,0.0,0.0
386,96.25,82.9491,85.9114,118.46,98.9362,98.3902,0.00318971,0.479905,20.467,51.8256,0.0503619,0.0,0.0
388,96.75,82.9954,85.9092,123.606,98.9578,97.6544,0.00314088,0.479843,20.4667,51.7456,0.120655,0.0,0.0
390,97.25,83.1821,85.8992,130.638,98.9634,97.7125,0.00310133,0.479844,20.4665,51.6855,0.115757,0.0,0.0
392,97.75,83.2458,85.822,120.092,98.9805,98.8247,0.00307327,0.479855,20.4663,51.6255,0.0143335,0.0,0.0
394,98.25,82.8503,86.1854,126.442,98.9805,97.6031,0.00305412,0.479873,20.4662,51.5754,0.127532,0.0,0.0
396,98.75,83.4734,86.1273,124.534,98.9989,97.6918,0.00304458,0.479887,20.4661,51.4853,0.120954,0.0,0.0
398,99.25,83.4214,85.9916,124.169,99.0069,98.3456,0.00304223,0.479735,20.4673,51.4053,0.0609834,0.0,0.0
400,99.75,83.1679,86.268,125.121,99.0181,98.5658,0.00304364,0.479611,20.4683,51.3352,0.0416578,0.0,0.0
402,100.25,83.563,86.3591,124.418,99.0272,98.9535,0.00304776,0.479056,20.4713,51.2952,0.00677556,0.0,0.0
404,100.75,83.5259,86.0887,123.734,99.048,98.7221,0.00305237,0.478606,20.4737,51.2051,0.0299941,0.0,0.0
406,101.25,83.3436,86.3173,125.639,99.0412,98.5064,0.00305609,0.478242,20.4769,51.1551,0.0492754,0.0,0.0
408,101.75,83.4006,86.4683,120.686,99.0684,98.7126,0.00305049,0.477293,20.4796,51.115,0.0327368,0.0,0.0
410,102.25,83.4102,86.246,125.246,99.0644,98.6388,0.00303819,0.476172,20.4835,51.0349,0.0391802,0.0,0.0
412,102.75,83.5455,86.3827,118.105,99.0799,99.3602,0.00302823,0.474946,20.4867,50.9649,-0.0257009,0.0,0.0
414,103.25,83.5534,86.5593,123.94,99.0835,99.4727,0.00300001,0.473525,20.4914,50.9248,-0.0356748,0.0,0.0
416,103.75,83.1686,86.8175,127.867,99.0935,99.4421,0.00297715,0.471988,20.4952,50.8548,-0.0319574,0.0,0.0
418,104.25,82.762,86.7839,125.404,99.0883,99.7722,0.00294008,0.470744,20.4984,50.7947,-0.0625903,0.0,0.0
420,104.75,83.3227,86.5459,123.792,99.1151,99.584,0.00289336,0.468727,20.5026,50.7547,-0.0429491,0.0,0.0
422,105.25,83.18,86.9242,122.718,99.1266,99.516,0.00285552,0.467093,20.5061,50.6746,-0.035671,0.0,0.0
424,105.75,83.0347,86.7556,123.964,99.135,99.6668,0.00279217,0.464639,20.5105,50.6546,-0.0486853,0.0,0.0
426,106.25,83.2312,86.5265,124.84,99.145,99.7159,0.00274086,0.462651,20.5155,50.5845,-0.0522491,0.0,0.0
428,106.75,82.9183,86.5527,122.808,99.1514,99.6074,0.00267416,0.460307,20.5205,50.5345,-0.041753,0.0,0.0
430,107.25,83.1769,86.6556,125.952,99.1622,98.3668,0.00262014,0.457749,20.5254,50.4744,0.0732899,0.0,0.0
432,107.75,83.0863,86.5416,126.193,99.177,99.2633,0.0025701,0.455676,20.531,50.4344,-0.00792278,0.0,0.0
434,108.25,83.0915,86.5027,127.922,99.1782,99.3084,0.00252957,0.45238,20.5369,50.3443,-0.01194,0.0,0.0
436,108.75,82.8014,86.882,127.371,99.1921,98.777,0.00250679,0.44971,20.5438,50.3043,0.0381648,0.0,0.0
438,109.25,82.7139,86.705,123.041,99.2073,98.6748,0.00248834,0.445869,20.5513,50.2643,0.0489787,0.0,0.0
440,109.75,83.2468,86.3483,125.724,99.2177,99.7411,0.00249601,0.442757,20.5589,50.2342,-0.0478831,0.0,0.0
442,110.25,82.3794,86.861,127.74,99.2249,98.9688,0.00250223,0.438428,20.5666,50.1642,0.0235117,0.0,0.0
444,110.75,82.5721,86.5443,128.677,99.246,99.7407,0.0025344,0.434922,20.5728,50.1342,-0.0452427,0.0,0.0
446,111.25,82.1389,86.54,129.025,99.2604,100.203,0.0025849,0.430284,20.5804,50.0841,-0.0860214,0.0,0.0
448,111.75,81.6165,86.7313,128.631,99.2624,98.8243,0.0026258,0.426527,20.5866,50.0341,0.0402539,0.0,0.0
450,112.25,82.0874,86.1936,125.09,99.2875,99.8424,0.00272192,0.421733,20.5917,49.974,-0.0507168,0.0,0.0
452,112.75,81.6622,86.2823,127.845,99.2911,100.472,0.00279978,0.41785,20.5969,49.934,-0.107586,0.0,0.0
454,113.25,81.7292,86.2407,131.745,99.3111,100.645,0.00286285,0.413572,20.6021,49.9039,-0.121405,0.0,0.0
456,113.75,81.5012,85.9954,132.107,99.3151,100.98,0.00307441,0.409087,20.6075,49.8639,-0.151322,0.0,0.0
458,114.25,81.5938,86.1099,128.039,99.3351,100.571,0.00324577,0.404347,20.6128,49.8439,-0.112571,0.0,0.0
460,114.75,81.6277,85.5465,129.653,99.3402,102.031,0.0035076,0.399513,20.6185,49.7938,-0.243204,0.0,0.0
462,115.25,81.0168,85.6142,129.238,99.3658,101.049,0.00371968,0.395597,20.6244,49.7738,-0.152844,0.0,0.0
464,115.75,81.1378,85.3037,130.191,99.3634,102.343,0.00402382,0.392425,20.6291,49.7838,-0.268834,0.0,0.0
466,116.25,80.5216,85.7435,131.677,99.3878,103.498,0.00427017,0.387332,20.6417,49.7738,-0.368813,0.0,0.0
468,116.75,80.5287,85.1165,130.679,99.3913,103.467,0.00456049,0.380936,20.652,49.7638,-0.365712,0.0,0.0
470,117.25,80.0736,85.3622,134.613,99.4165,104.215,0.00487736,0.374012,20.669,49.7538,-0.428958,0.0,0.0
472,117.75,79.9654,85.3789,131.362,99.4157,104.38,0.00513402,0.366836,20.6828,49.7338,-0.44345,0.0,0.0
474,118.25,79.5803,85.0811,134.531,99.4381,104.534,0.00557953,0.359472,20.6958,49.7138,-0.454781,0.0,0.0
476,118.75,79.2779,84.4474,130.601,99.4437,105.038,0.0059404,0.352112,20.708,49.7038,-0.498031,0.0,0.0
478,119.25,78.8184,84.6257,138.359,99.4576,104.692,0.00632104,0.344386,20.7179,49.6838,-0.46674,0.0,0.0
480,119.75,79.1697,84.1559,133.659,99.4696,104.723,0.00670887,0.336539,20.7285,49.6838,-0.468384,0.0,0.0
482,120.25,77.851,84.5,132.42,99.486,104.781,0.00711926,0.330183,20.7371,49.6637,-0.471933,0.0,0.0
484,120.75,78.0263,83.6883,136.487,99.4864,104.897,0.00753829,0.321769,20.7467,49.6337,-0.481903,0.0,0.0
486,121.25,77.6526,83.5768,134.217,99.4976,104.536,0.00795241,0.314954,20.7545,49.6337,-0.449535,0.0,0.0
488,121.75,77.3384,83.598,134.634,99.4924,103.974,0.00835508,0.307983,20.763,49.6237,-0.400955,0.0,0.0
490,122.25,76.9888,83.1228,133.446,99.5183,104.53,0.00868125,0.301033,20.7698,49.6237,-0.447087,0.0,0.0
492,122.75,76.3287,83.2719,133.705,99.5087,104.536,0.00906957,0.29433,20.7772,49.6037,-0.448512,0.0,0.0
494,123.25,76.4504,82.4961,132.684,99.5307,104.383,0.00938411,0.287937,20.7831,49.5937,-0.433206,0.0,0.0
496,123.75,76.1476,82.3849,132.991,99.5267,104.717,0.00972141,0.281841,20.7883,49.5937,-0.462654,0.0,0.0
498,124.25,75.7674,82.3392,136.391,99.5507,104.63,0.00999463,0.276078,20.793,49.5837,-0.452869,0.0,0.0
500,124.75,75.7147,82.1646,137.061,99.5435,104.454,0.0102505,0.270622,20.7968,49.5937,-0.438159,0.0,0.0
502,125.25,75.1994,81.5434,132.748,99.5642,104.302,0.0104888,0.265493,20.8008,49.5837,-0.423071,0.0,0.0
504,125.75,75.5512,81.392,136.372,99.5682,104.478,0.0107088,0.261339,20.804,49.5837,-0.438055,0.0,0.0
506,126.25,74.884,81.1598,131.801,99.5958,104.551,0.0109113,0.256374,20.8072,49.5737,-0.441849,0.0,0.0
508,126.75,73.8991,80.177,141.717,99.5866,104.556,0.0110753,0.252353,20.8105,49.5336,-0.443159,0.0,0.0
510,127.25,73.1676,79.3031,134.367,99.599,104.745,0.0112951,0.248389,20.8132,49.5136,-0.458475,0.0,0.0
512,127.75,72.6517,79.3014,134.476,99.6058,104.832,0.011473,0.244541,20.8153,49.5236,-0.465402,0.0,0.0
514,128.25,72.2897,79.1624,135.603,99.6093,104.192,0.0117056,0.241424,20.8171,49.5036,-0.409317,0.0,0.0
516,128.75,72.1058,78.7233,133.925,99.6129,104.108,0.011894,0.237792,20.8185,49.4936,-0.401671,0.0,0.0
518,129.25,71.8953,78.5928,134.281,99.6273,105.11,0.0121002,0.234849,20.8196,49.4736,-0.487519,0.0,0.0
520,129.75,71.2965,78.5766,134.345,99.6441,104.556,0.0123154,0.232014,20.8205,49.4836,-0.437906,0.0,0.0
522,130.25,71.1623,78.2458,138.955,99.6505,104.316,0.0125435,0.229311,20.8213,49.4636,-0.41637,0.0,0.0
524,130.75,70.4783,77.8391,135.599,99.6433,104.595,0.0127766,0.226847,20.8219,49.4435,-0.441388,0.0,0.0
526,131.25,70.8496,77.8195,136.935,99.6768,104.892,0.0129655,0.224605,20.8224,49.4536,-0.464109,0.0,0.0
528,131.75,70.4649,77.2361,135.838,99.6581,104.982,0.0131772,0.222508,20.8228,49.4235,-0.473632,0.0,0.0
530,132.25,70.3666,77.6836,136.019,99.6824,104.456,0.0134015,0.220555,20.8231,49.4135,-0.425702,0.0,0.0
532,132.75,70.4475,77.5701,137.41,99.6796,104.205,0.0136261,0.218685,20.8234,49.4135,-0.404079,0.0,0.0
534,133.25,69.9243,76.8017,132.748,99.702,104.584,0.0138466,0.21691,20.8236,49.4035,-0.435011,0.0,0.0
536,133.75,69.9494,76.6929,137.136,99.6988,104.142,0.0140519,0.215472,20.8238,49.3935,-0.396784,0.0,0.0
538,134.25,69.4497,76.6613,134.336,99.7056,104.871,0.0142422,0.213714,20.8249,49.3935,-0.459688,0.0,0.0
540,134.75,69.6328,76.3951,134.115,99.7032,104.858,0.0143963,0.21229,20.8259,49.3735,-0.458733,0.0,0.0
542,135.25,69.036,75.9137,135.854,99.7159,104.771,0.0145425,0.210801,20.8267,49.2834,-0.449983,0.0,0.0
544,135.75,68.9966,76.5468,133.821,99.7139,104.792,0.014661,0.209292,20.828,49.3735,-0.452003,0.0,0.0
546,136.25,68.2166,76.001,134.851,99.7311,104.949,0.0147569,0.20807,20.8297,49.3435,-0.464113,0.0,0.0
548,136.75,68.3415,75.7455,132.991,99.7183,105.086,0.0148373,0.206506,20.8312,49.3435,-0.477141,0.0,0.0
550,137.25,68.5751,75.3854,139.642,99.7451,105.083,0.0149024,0.205238,20.8325,49.3234,-0.474466,0.0,0.0
552,137.75,68.5036,74.8947,137.683,99.7539,104.702,0.0149779,0.203728,20.8336,49.3034,-0.440536,0.0,0.0
554,138.25,67.9074,75.2516,133.6,99.7543,104.691,0.015039,0.202504,20.8345,49.3234,-0.439599,0.0,0.0
556,138.75,67.8896,74.6834,136.136,99.7579,105.141,0.0150885,0.201513,20.8352,49.3134,-0.478251,0.0,0.0
558,139.25,67.4863,75.2223,130.84,99.7639,104.386,0.0151834,0.2,20.8361,49.3134,-0.412147,0.0,0.0
560,139.75,67.6187,74.677,135.733,99.7543,104.837,0.0152239,0.198774,20.8365,49.2934,-0.452272,0.0,0.0
562,140.25,67.2276,74.6851,134.047,99.7854,105.119,0.0153171,0.197575,20.8373,49.3034,-0.473868,0.0,0.0
564,140.75,66.8584,74.4792,134.271,99.7611,104.328,0.0154142,0.196418,20.8379,49.2834,-0.407376,0.0,0.0
566,141.25,66.7953,73.9509,132.32,99.785,104.583,0.0155161,0.195481,20.8384,49.2834,-0.427396,0.0,0.0
568,141.75,66.8148,74.1134,139.684,99.7954,104.849,0.0156196,0.194405,20.8388,49.2434,-0.449538,0.0,0.0
570,142.25,66.6509,73.9282,137.181,99.791,104.491,0.0157197,0.193534,20.8392,49.2334,-0.418814,0.0,0.0
572,142.75,66.4949,73.5195,136.489,99.7878,104.649,0.0158154,0.192988,20.8395,49.2434,-0.432899,0.0,0.0
574,143.25,65.8818,73.3657,136.985,99.797,104.922,0.0158929,0.192055,20.8397,49.2434,-0.455722,0.0,0.0
576,143.75,65.9474,73.0284,142.529,99.8038,104.3,0.0159879,0.191212,20.8399,49.2334,-0.401044,0.0,0.0
578,144.25,65.7547,72.9619,134.228,99.807,104.67,0.0160648,0.190451,20.84,49.2334,-0.432953,0.0,0.0
580,144.75,65.6273,72.7699,137.006,99.815,104.592,0.0161472,0.189779,20.8398,49.2133,-0.42541,0.0,0.0
582,145.25,65.4306,72.6094,136.322,99.8122,104.63,0.0162139,0.189185,20.8393,49.2033,-0.428994,0.0,0.0
584,145.75,65.3669,72.9813,136.539,99.815,104.444,0.016268,0.188633,20.839,49.2033,-0.41251,0.0,0.0
586,146.25,65.7,72.6111,137.639,99.8182,104.771,0.0163158,0.188121,20.8387,49.1833,-0.440699,0.0,0.0
588,146.75,65.0978,72.3374,137.56,99.8182,105.1,0.0163545,0.187707,20.8385,49.1633,-0.469206,0.0,0.0
590,147.25,65.1877,72.2262,135.135,99.8182,104.107,0.0163805,0.187219,20.8383,49.1733,-0.382823,0.0,0.0
592,147.75,64.9093,71.8504,135.728,99.8377,104.63,0.0164016,0.186824,20.8386,49.1633,-0.426626,0.0,0.0
594,148.25,64.592,71.6905,135.675,99.8281,104.78,0.0164165,0.186402,20.8388,49.1333,-0.440571,0.0,0.0
596,148.75,64.9072,71.3628,133.47,99.8361,105.027,0.0164267,0.185967,20.839,49.1233,-0.461289,0.0,0.0
598,149.25,64.1591,71.7875,134.358,99.8341,105.171,0.0164342,0.185615,20.8391,49.1233,-0.473948,0.0,0.0
600,149.75,64.6227,71.385,137.877,99.8345,105.397,0.0164397,0.18497,20.8401,49.1333,-0.493412,0.0,0.0
602,150.25,64.2008,71.0223,136.631,99.8325,105.145,0.0164448,0.184447,20.8409,49.1032,-0.471794,0.0,0.0
604,150.75,63.9686,71.359,138.033,99.8341,105.181,0.0164496,0.18385,20.8416,49.1032,-0.474805,0.0,0.0
606,151.25,64.0364,71.204,132.92,99.8369,104.325,0.0164585,0.183211,20.8421,49.0932,-0.400145,0.0,0.0
608,151.75,64.0764,70.7083,139.592,99.8297,104.96,0.0164701,0.182622,20.8425,49.0932,-0.456017,0.0,0.0
610,152.25,63.5534,70.3306,139.846,99.8277,105.085,0.0164795,0.182081,20.8429,49.0732,-0.467046,0.0,0.0
612,152.75,63.636,70.528,135.855,99.8573,105.054,0.0165033,0.181572,20.8434,49.0632,-0.461663,0.0,0.0
614,153.25,63.4862,70.2297,137.635,99.8353,105.388,0.0165225,0.181096,20.844,49.0532,-0.4926,0.0,0.0
616,153.75,63.2993,70.3492,135.413,99.8469,104.857,0.0165307,0.180608,20.8443,49.0432,-0.445507,0.0,0.0
618,154.25,63.3968,70.3593,132.643,99.8353,104.935,0.0165447,0.18012,20.8447,49.0332,-0.45336,0.0,0.0
620,154.75,63.3148,70.2984,136.869,99.8417,105.01,0.0165561,0.179725,20.8451,49.0332,-0.459297,0.0,0.0
622,155.25,63.0054,69.8237,135.667,99.8317,105.21,0.0165626,0.179151,20.8454,49.0232,-0.477555,0.0,0.0
624,155.75,63.245,69.9399,135.24,99.8453,104.948,0.0165679,0.178686,20.8456,49.0132,-0.453544,0.0,0.0
626,156.25,62.8012,70.1625,136.508,99.8405,105.193,0.0165681,0.178216,20.8458,49.0032,-0.475275,0.0,0.0
628,156.75,63.0965,69.6314,138.289,99.8381,104.217,0.0165683,0.17797,20.846,48.9831,-0.390604,0.0,0.0
630,157.25,62.8491,69.692,132.63,99.8289,104.952,0.0165712,0.17755,20.8461,48.9831,-0.455465,0.0,0.0
632,157.75,62.4123,69.4199,132.241,99.8301,104.816,0.0165735,0.177132,20.8462,48.9731,-0.443556,0.0,0.0
634,158.25,62.5205,69.424,134.211,99.8373,104.816,0.0165697,0.176722,20.8463,48.9531,-0.442823,0.0,0.0
636,158.75,62.4053,69.1146,135.898,99.8365,105.179,0.0165615,0.176304,20.8464,48.9531,-0.474392,0.0,0.0
638,159.25,62.2562,68.8819,135.657,99.8349,104.765,0.0165549,0.175887,20.8464,48.9431,-0.438661,0.0,0.0
640,159.75,62.686,69.0351,133.723,99.8425,104.746,0.0165495,0.1754,20.8467,48.9431,-0.436327,0.0,0.0
642,160.25,62.7164,69.0581,135.838,99.8201,104.848,0.0165042,0.175006,20.8471,48.9031,-0.447203,0.0,0.0
644,160.75,61.945,68.711,135.383,99.8253,104.627,0.0164306,0.174448,20.8475,48.9031,-0.427558,0.0,0.0
646,161.25,62.2563,68.6872,134.206,99.8138,105.026,0.0163519,0.173996,20.8484,48.9231,-0.46321,0.0,0.0
648,161.75,62.0261,68.2378,133.554,99.8217,104.702,0.016271,0.17363,20.8491,48.9031,-0.434385,0.0,0.0
650,162.25,61.6492,68.164,138.569,99.8094,104.993,0.0161948,0.173096,20.8497,48.9031,-0.460723,0.0,0.0
652,162.75,61.9977,68.406,135.494,99.8241,105.296,0.0161237,0.172662,20.8501,48.883,-0.485684,0.0,0.0
654,163.25,61.5336,68.179,136.942,99.8122,104.59,0.0160597,0.172311,20.8505,48.883,-0.425468,0.0,0.0
656,163.75,61.6284,67.938,137.115,99.8197,104.726,0.0160294,0.171894,20.8507,48.883,-0.436602,0.0,0.0
658,164.25,61.933,67.9442,132.576,99.7982,104.812,0.0159776,0.171436,20.851,48.883,-0.446038,0.0,0.0
660,164.75,61.1257,67.6047,135.875,99.8114,104.648,0.0159391,0.171073,20.8512,48.873,-0.430633,0.0,0.0
662,165.25,61.7936,68.0508,137.454,99.8082,104.951,0.0159112,0.170786,20.8514,48.873,-0.457202,0.0,0.0
664,165.75,61.3711,67.4318,138.691,99.8058,105.32,0.0158963,0.170553,20.8515,48.853,-0.489382,0.0,0.0
666,166.25,61.3279,67.3743,136.676,99.7866,105.332,0.0158912,0.170365,20.8516,48.853,-0.49214,0.0,0.0
668,166.75,61.2271,67.4277,133.945,99.799,104.609,0.0158854,0.170284,20.8518,48.843,-0.428394,0.0,0.0
670,167.25,61.3232,67.4716,135.359,99.7834,104.833,0.0158937,0.170058,20.8518,48.833,-0.449262,0.0,0.0
672,167.75,61.5109,66.9265,135.183,99.7934,104.671,0.0159079,0.169874,20.8519,48.823,-0.434308,0.0,0.0
674,168.25,61.3228,66.9242,137.569,99.7858,104.888,0.0159243,0.169694,20.8519,48.793,-0.453812,0.0,0.0
676,168.75,60.8343,66.8444,135.009,99.7842,104.942,0.0159421,0.16952,20.852,48.803,-0.458604,0.0,0.0
678,169.25,61.1954,67.2438,135.176,99.7682,104.64,0.0159565,0.169379,20.852,48.783,-0.433822,0.0,0.0
680,169.75,60.5783,67.1101,135.335,99.7906,104.666,0.0159668,0.169047,20.852,48.773,-0.434054,0.0,0.0
682,170.25,60.7413,66.9782,133.552,99.7631,104.733,0.0159751,0.168957,20.8523,48.773,-0.442437,0.0,0.0
684,170.75,60.6572,66.8663,136.038,99.7742,104.567,0.0159618,0.168626,20.8527,48.773,-0.426929,0.0,0.0
686,171.25,60.404,66.3155,143.621,99.7499,104.667,0.015951,0.168357,20.8532,48.7629,-0.437886,0.0,0.0
688,171.75,60.6521,66.5091,135.383,99.7722,104.672,0.0159232,0.16807,20.8539,48.7529,-0.436315,0.0,0.0
690,172.25,60.4307,66.3567,138.497,99.7646,104.868,0.0158835,0.167773,20.8547,48.7529,-0.453984,0.0,0.0
692,172.75,60.3466,66.4371,134.754,99.7495,105,0.0158152,0.167533,20.8555,48.7129,-0.466848,0.0,0.0
694,173.25,60.4098,66.8005,134.348,99.7347,104.77,0.0157861,0.16719,20.8559,48.7229,-0.448192,0.0,0.0
696,173.75,60.3037,65.6396,137.287,99.7335,105.473,0.0157364,0.166912,20.8565,48.7329,-0.509153,0.0,0.0
698,174.25,59.9699,66.5359,134.592,99.7203,104.748,0.0156773,0.16642,20.857,48.7229,-0.447587,0.0,0.0
700,174.75,59.9913,65.949,133.581,99.7183,104.279,0.0156295,0.166021,20.8574,48.7129,-0.406992,0.0,0.0
702,175.25,60.4456,65.5459,139.875,99.7104,104.625,0.0155943,0.165579,20.8577,48.7029,-0.437851,0.0,0.0
704,175.75,60.2867,65.8504,134.194,99.71,104.924,0.0155689,0.165222,20.8579,48.7029,-0.463857,0.0,0.0
706,176.25,59.5783,65.7183,136.257,99.6964,104.196,0.0155505,0.165069,20.8577,48.6929,-0.401723,0.0,0.0
708,176.75,60.0283,65.6423,136.084,99.702,104.884,0.0155375,0.164749,20.8575,48.6929,-0.461109,0.0,0.0
710,177.25,59.5315,65.4452,136.72,99.6836,105.102,0.015522,0.16449,20.8574,48.6528,-0.481638,0.0,0.0
712,177.75,59.9794,65.986,134.795,99.6888,104.632,0.015505,0.164191,20.8573,48.6328,-0.440406,0.0,0.0
714,178.25,60.2306,65.5464,142.041,99.6664,105.005,0.0154913,0.163948,20.8572,48.6328,-0.474818,0.0,0.0
716,178.75,59.6612,65.3065,133.61,99.6792,104.902,0.0154614,0.163744,20.8571,48.6228,-0.464788,0.0,0.0
718,179.25,60.1506,65.1218,137.89,99.6477,104.76,0.0154372,0.163572,20.8575,48.5928,-0.455315,0.0,0.0
720,179.75,59.793,64.7905,137.331,99.6604,104.825,0.0153949,0.163386,20.8578,48.5828,-0.459741,0.0,0.0
722,180.25,59.5918,65.1158,136.763,99.6353,104.56,0.0153606,0.163193,20.858,48.5828,-0.439023,0.0,0.0
724,180.75,59.4815,64.4328,138.068,99.6273,104.724,0.0153328,0.162974,20.8582,48.5728,-0.454007,0.0,0.0
726,181.25,59.4864,65.0243,135.209,99.6197,104.529,0.015301,0.16274,20.8584,48.5728,-0.43774,0.0,0.0
728,181.75,59.4307,64.9231,138.109,99.6061,104.169,0.0152752,0.162512,20.8585,48.5728,-0.407603,0.0,0.0
730,182.25,59.6112,64.3993,137.1,99.6018,104.889,0.0152564,0.162293,20.8586,48.5628,-0.470651,0.0,0.0
732,182.75,59.3465,64.5385,140.113,99.5898,104.475,0.0152431,0.162115,20.8587,48.5528,-0.43577,0.0,0.0
734,183.25,59.2759,64.8577,134.374,99.5798,104.673,0.0152323,0.161947,20.859,48.5428,-0.453964,0.0,0.0
736,183.75,58.5208,64.4347,136.863,99.5642,104.865,0.0152306,0.16179,20.8594,48.5327,-0.472011,0.0,0.0
738,184.25,59.2365,64.3696,133.745,99.5511,105.1,0.0152356,0.161663,20.8598,48.5227,-0.49359,0.0,0.0
740,184.75,59.2166,64.5083,138.582,99.5343,104.639,0.0152417,0.161457,20.8601,48.5127,-0.455109,0.0,0.0
742,185.25,58.6984,64.4071,139.52,99.5311,104.951,0.0152486,0.161289,20.8603,48.5127,-0.4825,0.0,0.0
744,185.75,59.2759,64.6753,139.294,99.5215,104.507,0.0152541,0.161065,20.861,48.5127,-0.444835,0.0,0.0
746,186.25,59.384,63.9922,137.482,99.5059,104.153,0.0152681,0.160883,20.8615,48.4927,-0.415347,0.0,0.0
748,186.75,59.0776,64.3493,136.23,99.4944,104.627,0.0152794,0.160736,20.8619,48.4827,-0.457742,0.0,0.0
750,187.25,59.0102,64.1842,136.077,99.4792,104.458,0.0153006,0.160547,20.8622,48.4927,-0.44443,0.0,0.0
752,187.75,58.6702,64.207,138.05,99.4608,104.277,0.0153178,0.16033,20.8626,48.4727,-0.430366,0.0,0.0
754,188.25,59.3687,63.7827,138.473,99.452,104.436,0.0153317,0.1601,20.8629,48.4627,-0.445031,0.0,0.0
756,188.75,58.7803,63.6231,132.672,99.4325,104.971,0.0153604,0.159865,20.8632,48.4527,-0.493279,0.0,0.0
758,189.25,58.8526,63.4936,135.889,99.4233,104.033,0.0153864,0.159629,20.8635,48.4527,-0.412436,0.0,0.0
760,189.75,58.5842,63.8044,143.398,99.4033,104.199,0.01541,0.159396,20.8637,48.4427,-0.428787,0.0,0.0
762,190.25,58.5254,63.6465,138.602,99.3937,104.798,0.0154292,0.159207,20.8638,48.4427,-0.48182,0.0,0.0
764,190.75,58.3474,63.576,139.994,99.3658,104.449,0.0154326,0.159069,20.864,48.4327,-0.454064,0.0,0.0
766,191.25,58.7704,63.5229,132.626,99.3586,104.357,0.0154354,0.158957,20.8641,48.4226,-0.446675,0.0,0.0
768,191.75,58.4435,63.3723,138.912,99.343,104.7,0.0154194,0.158844,20.8641,48.4126,-0.477935,0.0,0.0
770,192.25,58.7228,63.1864,137.703,99.341,104.276,0.01539,0.15873,20.8642,48.4026,-0.441214,0.0,0.0
772,192.75,58.1525,63.2441,139.066,99.3183,104.14,0.0153499,0.158639,20.8643,48.3826,-0.431383,0.0,0.0
774,193.25,58.7528,62.9241,135.441,99.2919,104.268,0.0153029,0.15852,20.8643,48.3726,-0.445044,0.0,0.0
776,193.75,58.2686,63.0068,141.117,99.2716,104.678,0.0152564,0.158424,20.8644,48.3726,-0.482605,0.0,0.0
778,194.25,58.4821,62.7508,135.225,99.2732,104.254,0.0152112,0.158302,20.8644,48.3726,-0.445546,0.0,0.0
780,194.75,58.6916,63.1391,135.162,99.2564,104.718,0.0151745,0.158203,20.8648,48.3726,-0.487479,0.0,0.0
782,195.25,58.2361,63.096,137.954,99.2484,104.445,0.0151491,0.158068,20.8652,48.3526,-0.464388,0.0,0.0
784,195.75,58.489,63.2841,135.338,99.2253,104.27,0.0151322,0.15791,20.8655,48.3626,-0.451315,0.0,0.0
786,196.25,58.0909,62.9885,140.149,99.2169,104.303,0.0151228,0.15772,20.8658,48.3626,-0.454952,0.0,0.0
788,196.75,58.0062,62.7054,137.255,99.1997,104.3,0.015119,0.157509,20.866,48.3426,-0.456213,0.0,0.0
790,197.25,58.109,62.8922,134.426,99.2037,104.319,0.0151152,0.157339,20.8661,48.3326,-0.457575,0.0,0.0
792,197.75,58.2605,62.7436,138.727,99.2049,103.82,0.0151114,0.157054,20.8663,48.3125,-0.413836,0.0,0.0
794,198.25,58.161,62.6014,138.472,99.1881,104.361,0.0151098,0.156822,20.8664,48.3125,-0.462617,0.0,0.0
796,198.75,57.9397,63.0322,134.473,99.1658,103.978,0.0151098,0.156635,20.8664,48.2925,-0.43127,0.0,0.0
798,199.25,58.1406,62.2577,137.995,99.175,104.283,0.0151154,0.156483,20.8665,48.3025,-0.457031,0.0,0.0
800,199.75,57.8757,62.7697,136.534,99.1498,104.499,0.015125,0.156337,20.8666,48.2925,-0.478182,0.0,0.0
802,200.25,57.7106,62.6097,135.311,99.1602,104.569,0.0151328,0.156197,20.8668,48.2825,-0.483344,0.0,0.0
804,200.75,57.9641,62.3104,138.173,99.1382,104.064,0.0151551,0.156092,20.8673,48.2725,-0.441244,0.0,0.0
806,201.25,57.9841,62.3911,137.698,99.1374,104.103,0.0151732,0.156014,20.8676,48.2725,-0.444782,0.0,0.0
808,201.75,58.1176,62.383,138.245,99.1278,103.99,0.0151871,0.15592,20.8679,48.2625,-0.435737,0.0,0.0
810,202.25,57.9635,62.231,135.18,99.1346,104.191,0.0151978,0.155815,20.8681,48.2525,-0.452751,0.0,0.0
812,202.75,58.0863,62.4795,136.408,99.1274,104.5625,0.0152022,0.155676,20.8683,48.2425,-0.485761,0.0,0.0
814,203.25,57.9852,61.9455,137.444,99.1191,104.599,0.015202,0.155515,20.8685,48.2325,-0.489744,0.0,0.0
816,203.75,57.6115,62.5303,141.423,99.1286,104.546,0.0151927,0.155384,20.869,48.2325,-0.48424,0.0,0.0
818,204.25,57.3936,61.7671,133.494,99.1518,104.18,0.0151769,0.1552,20.8695,48.2425,-0.450152,0.0,0.0
820,204.75,58.2513,62.374,137.889,99.1574,104.339,0.015148,0.154981,20.8699,48.2125,-0.463553,0.0,0.0
822,205.25,57.6844,61.953,137.974,99.1965,103.599,0.01511,0.154719,20.8701,48.1924,-0.395205,0.0,0.0
824,205.75,58.0187,61.3436,138.001,99.2017,104.227,0.0150792,0.154429,20.8704,48.2024,-0.449702,0.0,0.0
826,206.25,57.9903,61.7264,136.341,99.2432,104.065,0.0150543,0.154117,20.8706,48.1824,-0.431728,0.0,0.0
828,206.75,57.9092,62.1637,136.118,99.2512,104.478,0.0149674,0.153794,20.8707,48.1924,-0.467036,0.0,0.0
830,207.25,57.9143,61.4206,137.313,99.2812,103.629,0.014897,0.153494,20.8708,48.1924,-0.390053,0.0,0.0
832,207.75,57.5826,61.5368,139.11,99.2848,103.886,0.0147933,0.153216,20.8707,48.1624,-0.412276,0.0,0.0
834,208.25,57.9032,61.8118,140.607,99.3211,103.999,0.0147093,0.152968,20.8707,48.1524,-0.418842,0.0,0.0
836,208.75,57.1675,61.7645,141.311,99.3279,104.281,0.0146412,0.152746,20.871,48.1524,-0.442852,0.0,0.0
838,209.25,57.8032,61.2505,134.866,99.3698,104.566,0.0145608,0.152566,20.8712,48.1524,-0.463853,0.0,0.0
840,209.75,57.3966,61.595,140.12,99.3614,104.761,0.0144957,0.15242,20.8713,48.1424,-0.481535,0.0,0.0
842,210.25,57.4839,61.1206,134.49,99.3981,104.469,0.0144403,0.152243,20.8714,48.1224,-0.452828,0.0,0.0
844,210.75,57.5309,61.6234,138.711,99.4065,104.836,0.0143954,0.152099,20.8716,48.1224,-0.483974,0.0,0.0
846,211.25,57.4386,61.2387,135.275,99.4317,104.796,0.0143625,0.151952,20.8716,48.1124,-0.478191,0.0,0.0
848,211.75,57.3814,61.3407,136.04,99.4381,104.547,0.0143391,0.151803,20.8717,48.0924,-0.455957,0.0,0.0
850,212.25,57.3908,61.3604,139.9,99.4712,104.42,0.01432,0.151683,20.8718,48.1024,-0.441866,0.0,0.0
852,212.75,57.2122,60.7649,137.967,99.4864,104.308,0.0143047,0.151526,20.8718,48.0924,-0.4307,0.0,0.0
854,213.25,57.6542,61.2086,137.746,99.5247,104.436,0.0142922,0.1514,20.8718,48.0924,-0.438345,0.0,0.0
856,213.75,57.6214,60.9769,137.565,99.5391,104.628,0.0142714,0.151235,20.8719,48.0924,-0.45377,0.0,0.0
858,214.25,57.5148,61.3297,136.216,99.5746,104.472,0.0142546,0.151046,20.8719,48.0723,-0.43696,0.0,0.0
860,214.75,57.2818,61.4093,137.478,99.5886,104.643,0.0142277,0.150847,20.8719,48.0623,-0.450538,0.0,0.0
862,215.25,57.436,61.2866,137.427,99.6273,105.116,0.0142059,0.150643,20.8719,48.0623,-0.488064,0.0,0.0
864,215.75,57.2315,60.6342,134.309,99.6341,104.783,0.0141666,0.150463,20.872,48.0623,-0.458551,0.0,0.0
866,216.25,57.2663,60.9987,134.984,99.6572,104.481,0.0141152,0.150303,20.872,48.0623,-0.430196,0.0,0.0
868,216.75,56.8463,60.5814,138.217,99.6832,104.914,0.0140512,0.150173,20.872,48.0523,-0.465439,0.0,0.0
870,217.25,57.2667,60.8666,132.669,99.69,104.962,0.0139793,0.150024,20.872,48.0423,-0.468959,0.0,0.0
872,217.75,56.9153,60.9842,139.257,99.7159,104.803,0.0139486,0.149903,20.872,48.0323,-0.452838,0.0,0.0
874,218.25,56.865,60.9654,135.612,99.7391,105.003,0.0138662,0.149687,20.8724,48.0023,-0.46803,0.0,0.0
876,218.75,56.6989,60.84,139.61,99.7591,104.97,0.0137724,0.149513,20.8728,48.0223,-0.46332,0.0,0.0
878,219.25,57.1477,60.6559,140.86,99.7639,104.54,0.013672,0.14924,20.8735,48.0223,-0.425603,0.0,0.0
880,219.75,57.1554,60.1792,138.238,99.7774,104.848,0.0135688,0.1489,20.8741,47.9923,-0.451059,0.0,0.0
882,220.25,56.962,60.4977,138.191,99.7858,104.998,0.0134608,0.148625,20.8755,47.9823,-0.463378,0.0,0.0
884,220.75,56.7775,60.5961,140.129,99.7934,104.814,0.0133514,0.148407,20.8765,47.9722,-0.44671,0.0,0.0
886,221.25,56.8022,60.4141,135.854,99.8102,104.886,0.0132627,0.148035,20.8774,47.9823,-0.451435,0.0,0.0
888,221.75,56.7009,60.8077,137.495,99.8221,104.955,0.01315,0.147679,20.8782,47.9622,-0.456318,0.0,0.0
890,222.25,57.0182,60.154,137.531,99.8253,105.194,0.0130587,0.147342,20.8787,47.9622,-0.476697,0.0,0.0
892,222.75,56.8879,60.5025,135.89,99.8309,104.746,0.0129812,0.147038,20.8792,47.9622,-0.437344,0.0,0.0
894,223.25,56.6249,60.2609,138.129,99.8413,104.784,0.0129153,0.146764,20.8796,47.9522,-0.439683,0.0,0.0
896,223.75,56.7737,60.0616,137.278,99.8525,105.201,0.0128655,0.146534,20.8795,47.9422,-0.474807,0.0,0.0
898,224.25,56.5647,60.3109,134.352,99.8705,104.847,0.0128282,0.146341,20.8794,47.9422,-0.44254,0.0,0.0
900,224.75,56.1638,59.9302,135.233,99.8657,105.342,0.012798,0.146185,20.8793,47.9322,-0.485868,0.0,0.0
902,225.25,57.002,59.91,135.664,99.874,104.839,0.0127736,0.146088,20.8792,47.9322,-0.441469,0.0,0.0
904,225.75,56.5854,60.3552,137.592,99.886,105.147,0.0127461,0.146009,20.8792,47.9322,-0.467153,0.0,0.0
906,226.25,56.9033,59.8309,137.801,99.8892,105.018,0.012717,0.145915,20.8791,47.9222,-0.45563,0.0,0.0
908,226.75,56.8052,59.9843,136.803,99.882,104.94,0.0127046,0.14581,20.8793,47.9022,-0.449571,0.0,0.0
910,227.25,56.6398,60.0171,136.41,99.878,105.184,0.0126715,0.145656,20.8797,47.9022,-0.471037,0.0,0.0
912,227.75,56.6783,60.0108,138.034,99.8796,105.373,0.0126447,0.145468,20.88,47.8822,-0.4872,0.0,0.0
914,228.25,56.6903,60.1268,135.805,99.8756,104.997,0.012619,0.145216,20.8802,47.8722,-0.455112,0.0,0.0
916,228.75,56.8278,59.6783,138.192,99.874,104.864,0.0125982,0.144921,20.8804,47.8722,-0.443697,0.0,0.0
918,229.25,56.5346,60.211,132.797,99.8708,104.699,0.0125813,0.144652,20.8806,47.8521,-0.429635,0.0,0.0
920,229.75,56.5549,59.4508,138.316,99.8784,104.806,0.0125677,0.144522,20.8807,47.8321,-0.438215,0.0,0.0
922,230.25,56.6743,59.7378,137.319,99.8645,104.997,0.01257,0.144285,20.8808,47.8121,-0.456091,0.0,0.0
924,230.75,56.2871,60.0549,137.953,99.8673,105.045,0.0125718,0.144079,20.8819,47.8121,-0.460011,0.0,0.0
926,231.25,56.5338,59.4892,138.413,99.8477,105.286,0.0125809,0.143912,20.8828,47.8121,-0.482641,0.0,0.0
928,231.75,56.542,59.3992,138.904,99.8497,104.56,0.0125952,0.143685,20.8836,47.8021,-0.419461,0.0,0.0
930,232.25,56.6341,59.9446,137.481,99.8405,105.483,0.0126067,0.143419,20.8841,47.8121,-0.500289,0.0,0.0
932,232.75,56.1195,59.6693,135.675,99.8485,104.587,0.0126346,0.143203,20.8844,47.8121,-0.421961,0.0,0.0
934,233.25,56.9625,59.5244,142.064,99.8253,104.691,0.0126572,0.143028,20.8844,47.8021,-0.433118,0.0,0.0
936,233.75,56.5102,59.2502,134.862,99.8225,104.703,0.0126953,0.142817,20.8844,47.7921,-0.434391,0.0,0.0
938,234.25,56.2989,59.7875,137.417,99.8022,104.861,0.0127261,0.142584,20.8844,47.7921,-0.449974,0.0,0.0
940,234.75,56.1439,59.6984,132.713,99.8098,105.075,0.012767,0.142395,20.8842,47.7721,-0.467826,0.0,0.0
942,235.25,56.2229,59.5868,140.547,99.7706,104.448,0.0128077,0.142271,20.8838,47.7621,-0.416905,0.0,0.0
944,235.75,56.2789,59.6621,136.389,99.767,104.403,,0.14217,,47.732,-0.413348,0.0,0.0
946,236.25,56.2672,59.4748,140.059,99.7459,104.892,,0.142133,,47.7621,-0.457805,0.0,0.0
948,236.75,56.5989,59.1231,134.878,99.7499,104.136,,0.142103,,47.742,-0.391609,0.0,0.0
950,237.25,56.086,59.2748,137.95,99.7155,104.591,,0.142152,,47.732,-0.4344,0.0,0.0
952,237.75,56.1676,59.4441,137.011,99.708,104.591,,0.142191,,47.732,-0.435092,0.0,0.0
954,238.25,56.6459,59.2487,133.459,99.6848,104.537,,0.142238,,47.712,-0.432504,0.0,0.0
956,238.75,56.5147,59.4213,134.736,99.688,104.669,,,,47.712,-0.44369,0.0,0.0
958,239.25,56.2827,58.8894,135.647,99.6525,104.807,,,,47.732,-0.458946,0.0,0.0
960,239.75,56.8568,59.4057,136.238,99.6445,105.087,,,,47.732,-0.483962,0.0,0.0
962,240.25,56.6191,58.9737,134.525,99.6133,104.521,,,,47.722,-0.437657,0.0,0.0
964,240.75,56.2577,58.6473,133.964,99.6066,104.361,,,,47.702,-0.424348,0.0,0.0
966,241.25,56.5823,59.6182,137.638,99.5666,104.775,,,,47.722,-0.464012,0.0,0.0
968,241.75,56.4799,59.531,135.928,99.5558,104.267,,,,47.712,-0.420771,0.0,0.0
970,242.25,56.254,59.5391,137.651,99.5215,104.297,,,,47.692,-0.426504,0.0,0.0
972,242.75,56.2821,59.295,137.836,99.5175,105.414,,,,47.682,-0.523792,0.0,0.0
974,243.25,55.8021,59.5422,136.186,99.4636,104.051,,,,47.672,-0.410361,0.0,0.0
976,243.75,56.4654,59.4332,133.311,99.4624,105.042,,,,47.672,-0.496665,0.0,0.0
978,244.25,56.2722,59.1156,136.502,99.4433,104.458,,,,47.642,-0.447679,0.0,0.0
980,244.75,56.2229,59.2106,136.483,99.4688,104.766,,,,47.652,-0.472214,0.0,0.0
982,245.25,56.0983,58.951,137.355,99.4624,104.585,,,,47.642,-0.456982,0.0,0.0
984,245.75,56.0228,58.9576,136.194,99.4824,104.544,,,,47.6319,-0.451589,0.0,0.0
986,246.25,56.0395,59.0798,137.167,99.4876,104.457,,,,47.6219,-0.443585,0.0,0.0
987,246.5,56.4457,58.7396,135.802,99.492,104.71,,,,47.662,-0.465165,0.0,0.0