File: 01_Data/Luan_Panel/Cone/Luan_Panel_Cone_HF75Scan_220916_R3.csv
Names,Time,Stack TC,Smoke TC,Exh Press,Smoke Comp,Smoke Meas,CO Meter,CO2 Meter,O2 Meter,Sample Mass,Ext Coeff,Start Test,Flame Verif
Chan Gain,,500,500,1,1,1,1,1,1,1,1,1.0,1.0
Offset,,0,0,0.146632,0,0,0,0,0,0,0,0.0,0.0
Gain,,1,1,25.011,13.0826,14.7555,1,1,1,1.00088,1.03743,1.0,1.0
Units,sec,C,C,Pa,%,%,%,%,%,g,/m,,
Baseline,,64.4984,66.2833,136.191,99.7797,105.727,0.000193286,0.0432768,20.9879,-450.981,-0.526793,,
3,0.5,62.8601,64.8981,136.569,99.7654,105.686,8.5578e-05,0.0456613,20.9812,83.6937,-0.524676,0.0,0.0
6,1.25,61.9317,63.2701,141.085,99.7635,106.074,8.6622e-05,0.0455707,20.981,83.7337,-0.558182,0.0,0.0
9,2,62.0629,63.3044,132.36,99.7563,104.814,0.000101319,0.0454848,20.981,83.7538,-0.450058,0.0,0.0
12,2.75,61.6412,63.5007,139.425,99.7423,105.158,0.000124306,0.045441,20.9809,83.6337,-0.481153,0.0,0.0
15,3.5,61.8595,63.4584,138.727,99.7419,105.002,0.00016205,0.0455288,20.9802,83.6637,-0.467735,0.0,0.0
18,4.25,61.8385,63.6234,138.973,99.7547,103.664,0.000257601,0.0457902,20.9796,83.6937,-0.349798,0.0,0.0
21,5,61.4954,63.3254,135.723,99.7491,103.531,0.000403218,0.0463182,20.9773,83.6837,-0.338638,0.0,0.0
24,5.75,61.8597,63.6861,135.475,99.7495,101.528,0.000589582,0.0492634,20.9724,83.5436,-0.160859,0.0,0.0
27,6.5,61.9435,64.0093,135.349,99.7431,97.545,0.000807225,0.060324,20.9333,83.4235,0.202793,0.0,0.0
30,7.25,61.599,63.6074,124.633,99.7423,102.714,0.00110632,0.0721872,20.9047,83.3734,-0.267213,0.0,0.0
33,8,62.1523,62.9132,118.215,99.7423,102.635,0.00138424,0.103677,20.8313,83.1632,-0.260188,0.0,1.0
36,8.75,62.8017,64.2848,118.799,99.7287,102.005,0.00179498,0.144535,20.745,82.9931,-0.205397,0.0,1.0
39,9.5,63.5279,64.5257,110.525,99.7343,101.025,0.00223719,0.193462,20.668,82.843,-0.117048,0.0,1.0
42,10.25,65.0122,64.929,106.112,99.7383,100.182,0.00262043,0.248811,20.5843,82.6628,-0.0403897,0.0,1.0
45,11,66.3814,65.4297,104.75,99.7311,98.1137,0.00293516,0.302571,20.5333,82.4526,0.148795,0.0,1.0
48,11.75,67.8249,66.8252,108.291,99.7179,97.2879,0.00345136,0.372944,20.4188,82.2625,0.224517,0.0,1.0
51,12.5,68.1374,67.0809,108.538,99.7147,95.9698,0.00402259,0.438351,20.316,82.0322,0.348357,0.0,1.0
54,13.25,70.5481,68.0137,104.458,99.7191,95.0877,0.00450058,0.486032,20.2328,81.9522,0.432794,0.0,0.0
57,14,71.4226,69.7448,108.39,99.712,94.1461,0.00495433,0.527313,20.1722,81.742,0.5227,0.0,0.0
60,14.75,73.6951,70.6384,110.954,99.7151,95.8028,0.00533557,0.577953,20.128,81.4617,0.364248,0.0,0.0
63,15.5,75.6505,72.1499,106.551,99.7,92.9204,0.00569978,0.619908,20.0958,81.2816,0.640865,0.0,0.0
66,16.25,77.1229,73.5011,109.759,99.6928,93.8885,0.00606085,0.651888,20.0723,81.2015,0.545882,0.0,0.0
69,17,77.8593,75.3639,112.112,99.6972,94.2726,0.00636712,0.675202,20.061,80.9713,0.509129,0.0,0.0
72,17.75,79.6371,76.176,116.471,99.678,94.3136,0.00660873,0.688597,20.0625,80.7811,0.503425,0.0,0.0
75,18.5,80.7966,77.0016,108.713,99.6608,95.4695,0.00683187,0.6959,20.0777,80.611,0.391,0.0,0.0
78,19.25,81.3318,78.7432,110.415,99.684,95.1084,0.006992,0.694771,20.1001,80.5009,0.427605,0.0,0.0
81,20,82.3383,79.5375,106.221,99.6804,100.126,0.00709231,0.690114,20.1255,80.3508,-0.0405994,0.0,0.0
84,20.75,83.3527,80.4381,114.456,99.6417,100.163,0.00713921,0.682556,20.1546,80.1005,-0.0474502,0.0,0.0
87,21.5,83.8024,80.8648,112.145,99.6481,98.0421,0.00713543,0.675273,20.1759,79.9704,0.147858,0.0,0.0
90,22.25,83.9672,81.2533,120.695,99.6784,98.7991,0.00706775,0.663051,20.2051,79.8403,0.0806359,0.0,0.0
93,23,84.8239,82.1474,121.768,99.6481,99.5416,0.00693553,0.65012,20.2335,79.7302,0.00972582,0.0,0.0
96,23.75,85.8189,83.2887,123.438,99.6521,99.3584,0.00680457,0.636593,20.2571,79.5501,0.0268611,0.0,0.0
99,24.5,86.262,83.5925,116.577,99.6293,98.822,0.00665001,0.622653,20.2819,79.3799,0.0740367,0.0,0.0
102,25.25,86.5971,84.0189,118.087,99.6153,98.9004,0.00645291,0.610444,20.3063,79.2898,0.0655491,0.0,0.0
105,26,86.8905,84.9058,115.326,99.6177,98.5991,0.00626396,0.598042,20.3278,79.1997,0.0935289,0.0,0.0
108,26.75,87.5118,85.153,119.372,99.6022,98.7905,0.0060884,0.585984,20.345,79.0196,0.0744606,0.0,0.0
111,27.5,87.7324,85.7819,117.635,99.595,98.8328,0.00592876,0.575561,20.3595,78.8595,0.0699059,0.0,0.0
114,28.25,87.7658,86.0384,115.759,99.5878,100.563,0.00578729,0.567267,20.37,78.6893,-0.0886737,0.0,0.0
117,29,87.7467,86.4098,116.755,99.6201,99.4556,0.00564124,0.559339,20.3796,78.6593,0.0150397,0.0,0.0
120,29.75,88.0817,86.855,121.7,99.6193,99.0548,0.00551472,0.551928,20.3879,78.4591,0.0517114,0.0,0.0
123,30.5,87.9832,87.2348,121.587,99.6365,99.9185,0.00541524,0.545945,20.3949,78.339,-0.0257232,0.0,0.0
126,31.25,88.6307,87.6668,118.669,99.6265,100.002,0.00534499,0.54059,20.4008,78.2089,-0.0342597,0.0,0.0
129,32,88.7565,87.9671,115.161,99.6644,98.9972,0.00531344,0.536031,20.4069,78.1388,0.0611289,0.0,0.0
132,32.75,89.4017,88.5053,116.967,99.6628,98.822,0.00530298,0.531585,20.4121,77.9687,0.0770997,0.0,0.0
135,33.5,89.8701,88.7463,119.353,99.666,99.6727,0.0053007,0.526124,20.419,77.8486,-0.000604818,0.0,0.0
138,34.25,90.218,89.3027,117.603,99.6836,98.9814,0.00529574,0.519752,20.4253,77.6984,0.0643277,0.0,0.0
141,35,90.4579,89.6145,120.193,99.7012,99.4115,0.00528648,0.512974,20.4341,77.6484,0.0264793,0.0,0.0
144,35.75,90.5623,89.9492,117.48,99.7147,100.2,0.00526851,0.506127,20.4406,77.5283,-0.0441345,0.0,0.0
147,36.5,90.2487,89.8864,118.776,99.7044,100.027,0.00523623,0.501135,20.449,77.3681,-0.0294054,0.0,0.0
150,37.25,90.674,90.0359,122.187,99.7295,100.981,0.00518946,0.492676,20.4583,77.228,-0.113468,0.0,0.0
153,38,90.7142,90.6731,120.495,99.7411,100.782,0.00513282,0.48651,20.4675,77.1279,-0.0944574,0.0,0.0
156,38.75,90.8304,91.0783,124.622,99.7778,102.084,0.00506677,0.478621,20.4761,77.0679,-0.207945,0.0,0.0
159,39.5,91.0139,91.0755,117.409,99.7914,101.807,0.00499271,0.472075,20.4825,76.9077,-0.181986,0.0,0.0
162,40.25,90.8379,90.9596,120.955,99.7946,102.369,0.00489371,0.465944,20.4871,76.8377,-0.23179,0.0,0.0
165,41,91.0736,91.672,117.154,99.8134,102.592,0.00477539,0.460364,20.4904,76.6875,-0.249873,0.0,0.0
168,41.75,90.928,92.4767,121.312,99.8549,102.918,0.00464306,0.455943,20.4916,76.6475,-0.275001,0.0,0.0
171,42.5,91.3342,92.1878,117.65,99.8321,102.911,0.00445809,0.452542,20.492,76.4073,-0.276438,0.0,0.0
174,43.25,91.4874,92.2001,122.369,99.8417,103.248,0.00424756,0.450015,20.4916,76.3272,-0.305262,0.0,0.0
177,44,91.8001,90.8439,122,99.8585,103.664,0.00402915,0.4485,20.4899,76.1571,-0.340333,0.0,0.0
180,44.75,91.794,91.3643,115.323,99.8713,103.243,0.00379023,0.447721,20.487,76.117,-0.302172,0.0,0.0
183,45.5,92.1343,93.0816,119.259,99.8665,103.182,0.00359061,0.44771,20.4841,75.9169,-0.297248,0.0,0.0
186,46.25,92.1558,92.8245,117.104,99.88,103.108,0.00340157,0.448997,20.4777,75.7467,-0.289417,0.0,0.0
189,47,91.9219,93.3459,117.345,99.88,103.548,0.00325669,0.45211,20.4699,75.6466,-0.328164,0.0,0.0
192,47.75,92.1516,93.6797,116.944,99.8984,102.922,0.00316673,0.45507,20.4613,75.6466,-0.271354,0.0,0.0
195,48.5,92.8172,94.31,113.661,99.9112,103.313,0.00312792,0.460275,20.4522,75.4565,-0.304725,0.0,0.0
198,49.25,93.1376,93.9896,119.319,99.9084,103.135,0.00317037,0.465394,20.4433,75.3163,-0.289219,0.0,0.0
201,50,93.5217,94.579,113.588,99.9168,102.923,0.00323147,0.471389,20.4329,75.1662,-0.269761,0.0,0.0
204,50.75,93.7112,94.7479,115.719,99.9347,101.935,0.00337179,0.480297,20.4187,75.1462,-0.180309,0.0,0.0
207,51.5,93.6787,95.0982,117.603,99.9443,101.559,0.00352638,0.490584,20.4033,75.0761,-0.145806,0.0,0.0
210,52.25,93.9079,95.276,115.405,99.9387,100.995,0.00369289,0.499701,20.3881,74.8259,-0.0956556,0.0,0.0
213,53,94.7914,95.573,114.478,99.9435,100.488,0.00386816,0.510305,20.3695,74.6457,-0.049458,0.0,0.0
216,53.75,95.5155,95.9144,117.917,99.9643,100.118,0.00408503,0.521451,20.3538,74.5457,-0.0139846,0.0,0.0
219,54.5,95.2639,95.6731,110.556,99.9799,98.6446,0.00429122,0.532535,20.3389,74.3555,0.122353,0.0,0.0
222,55.25,95.7561,96.7767,112.854,99.9771,98.6045,0.00452379,0.543677,20.3267,74.2354,0.125796,0.0,0.0
225,56,95.6096,97.3884,117.858,99.9603,98.9112,0.00476669,0.553362,20.3179,74.0852,0.0960121,0.0,0.0
228,56.75,96.4048,97.4401,112.531,99.9886,97.169,0.00506921,0.561089,20.3114,73.9651,0.260314,0.0,0.0
231,57.5,96.5887,97.9599,117.287,99.987,97.8341,0.00533415,0.567135,20.3067,73.825,0.198092,0.0,0.0
234,58.25,96.3113,98.5242,117.169,99.9918,96.8132,0.00560324,0.571136,20.3036,73.6248,0.293982,0.0,0.0
237,59,96.8577,98.6292,118.874,99.9826,96.9803,0.00583539,0.573357,20.304,73.4847,0.277457,0.0,0.0
240,59.75,97.4508,98.6445,116.884,99.9886,97.6711,0.00601598,0.574976,20.3077,73.3946,0.213412,0.0,0.0
243,60.5,97.6822,98.7146,116.113,99.9966,96.5588,0.00615247,0.573905,20.3144,73.2545,0.318364,0.0,0.0
246,61.25,97.5113,99.6569,116.903,99.995,97.1492,0.00625197,0.57139,20.3227,73.1444,0.26275,0.0,0.0
249,62,97.6329,99.7771,115.876,99.9886,95.7271,0.00630432,0.568232,20.3324,72.9743,0.396363,0.0,0.0
252,62.75,97.8722,100.144,120.114,99.9862,96.4098,0.00633388,0.563246,20.343,72.8642,0.331478,0.0,0.0
255,63.5,97.6322,100.165,117.876,99.9922,96.6057,0.00628485,0.557497,20.3528,72.7541,0.313552,0.0,0.0
258,64.25,97.7027,100.592,118.018,100,96.4746,0.00619387,0.551183,20.3656,72.5739,0.326631,0.0,0.0
261,65,98.4119,99.9563,125.181,99.9719,97.0789,0.0060845,0.544489,20.3784,72.4438,0.267226,0.0,0.0
264,65.75,97.8798,100.69,121.401,99.9723,97.4878,0.00596175,0.537842,20.3887,72.3837,0.229014,0.0,0.0
267,66.5,97.738,100.704,120.548,99.9763,96.2369,0.0058484,0.532243,20.3972,72.3837,0.346907,0.0,0.0
270,67.25,97.5597,100.927,123.518,99.9639,97.1321,0.00575559,0.526552,20.4046,72.1636,0.261519,0.0,0.0
273,68,98.0265,100.398,117.293,99.9503,97.6094,0.00565929,0.521278,20.4122,72.0635,0.215673,0.0,0.0
276,68.75,97.7256,100.87,120.473,99.9407,97.454,0.00557152,0.516182,20.4199,71.9734,0.229296,0.0,0.0
279,69.5,97.6468,100.966,122.995,99.9347,97.2397,0.00550005,0.511145,20.4274,71.9434,0.248788,0.0,0.0
282,70.25,97.7005,100.983,120.147,99.9299,98.7248,0.00541754,0.505795,20.4346,71.7332,0.110417,0.0,0.0
285,71,97.5565,101.119,123.254,99.9156,98.7414,0.00534617,0.500501,20.4407,71.6531,0.107572,0.0,0.0
288,71.75,97.3159,101.009,117.699,99.9012,97.9394,0.00527497,0.495481,20.4469,71.533,0.180479,0.0,0.0
291,72.5,97.4632,101.357,121.753,99.9144,98.2204,0.00520678,0.490719,20.4515,71.4129,0.155608,0.0,0.0
294,73.25,97.4297,101.368,125.228,99.886,98.7288,0.0051376,0.486778,20.4549,71.3528,0.106043,0.0,0.0
297,74,97.4886,101.039,122.95,99.8732,98.0592,0.00507656,0.482928,20.4573,71.2227,0.166811,0.0,0.0
300,74.75,96.9943,101.242,120.949,99.8569,98.6933,0.00502305,0.480026,20.4584,71.1326,0.106669,0.0,0.0
303,75.5,97.5213,101.006,121.922,99.8509,99.1652,0.00497155,0.477749,20.4593,71.1126,0.0627117,0.0,0.0
306,76.25,97.2439,101.339,117.683,99.8465,98.6978,0.004934,0.475936,20.4599,71.0125,0.105306,0.0,0.0
309,77,97.5021,101.211,117.393,99.8245,98.9202,0.00488878,0.474272,20.4603,70.8524,0.0828173,0.0,0.0
312,77.75,96.6583,101.636,118.082,99.801,100.055,0.00483331,0.472357,20.4611,70.7323,-0.0230897,0.0,0.0
315,78.5,97.3089,101.341,119.332,99.7866,99.9667,0.00478327,0.470725,20.4625,70.6823,-0.01641,0.0,0.0
318,79.25,97.052,101.505,120.221,99.781,99.7371,0.00467907,0.468743,20.4635,70.6122,0.00401085,0.0,0.0
321,80,96.7476,102.022,120.307,99.7563,99.6204,0.00460311,0.467298,20.4648,70.4721,0.0123999,0.0,0.0
324,80.75,97.4642,101.125,116.396,99.7383,100.508,0.00447788,0.465353,20.4665,70.352,-0.0699971,0.0,0.0
327,81.5,97.1847,101.673,117.818,99.7375,100.811,0.0043568,0.463489,20.4688,70.2719,-0.0974685,0.0,0.0
330,82.25,97.4499,101.687,122.094,99.7323,100.81,0.00424543,0.46194,20.4714,70.1718,-0.0978199,0.0,0.0
333,83,97.1445,101.506,118.379,99.6972,100.551,0.00416798,0.460287,20.4741,70.0817,-0.0775818,0.0,0.0
336,83.75,97.0974,101.402,119.421,99.6968,100.159,0.00411311,0.458185,20.4769,69.9716,-0.042093,0.0,0.0
339,84.5,96.8695,101.9,118.156,99.6884,99.8537,0.00408733,0.455692,20.4811,69.8916,-0.0150766,0.0,0.0
342,85.25,97.0519,102.078,126.131,99.6736,100.903,0.00406591,0.453484,20.4851,69.8115,-0.111547,0.0,0.0
345,86,97.0897,102.195,122.8,99.6628,99.6601,0.00404581,0.451205,20.4887,69.7714,0.000253849,0.0,0.0
348,86.75,96.9713,101.662,123.251,99.6277,99.5074,0.00401517,0.449279,20.4912,69.6213,0.0109958,0.0,0.0
351,87.5,97.0366,102.018,120.978,99.6117,99.1868,0.00398365,0.447762,20.4931,69.4812,0.0389059,0.0,0.0
354,88.25,96.6775,102.288,125.299,99.5986,99.5367,0.00394498,0.446631,20.4945,69.4211,0.00565677,0.0,0.0
357,89,96.2981,101.961,120.974,99.577,97.649,0.00389016,0.445912,20.4946,69.3411,0.177927,0.0,0.0
360,89.75,96.7068,101.851,124.266,99.5275,96.9204,0.00383153,0.445582,20.4944,69.231,0.241556,0.0,0.0
363,90.5,96.7097,102.093,121.433,99.5019,96.3886,0.00378084,0.445596,20.4941,69.1509,0.289291,0.0,0.0
366,91.25,96.8143,101.74,125.293,99.4664,96.0513,0.00372398,0.445429,20.494,69.1109,0.31794,0.0,0.0
369,92,96.3939,102.072,124.487,99.4429,97.0578,0.00366228,0.444546,20.4939,69.0108,0.220928,0.0,0.0
372,92.75,96.2518,101.904,123.568,99.4073,97.6233,0.00359716,0.442729,20.4964,68.8807,0.164799,0.0,0.0
375,93.5,96.7725,101.74,122.06,99.3634,97.9494,0.00351603,0.438102,20.5056,68.8106,0.130437,0.0,0.0
378,94.25,96.3864,101.512,127.275,99.3339,98.8918,0.00344324,0.43332,20.5148,68.7606,0.0405854,0.0,0.0
381,95,96.0647,102.115,126.089,99.3143,99.185,0.00338434,0.422373,20.5366,68.7906,0.0118572,0.0,0.0
384,95.75,96.06,101.903,129.25,99.3191,100.071,0.00333964,0.411346,20.5625,68.6805,-0.068652,0.0,0.0
387,96.5,95.9247,101.747,131.012,99.3179,101.204,0.00332071,0.3981,20.5892,68.6605,-0.171212,0.0,0.0
390,97.25,95.6307,101.635,127.469,99.3438,100.589,0.00331273,0.381339,20.6146,68.6505,-0.113314,0.0,0.0
393,98,95.2257,101.371,130.193,99.3814,101.817,0.00335297,0.364453,20.6368,68.6204,-0.22038,0.0,0.0
396,98.75,94.7569,101.164,127.308,99.3834,101.967,0.00340064,0.34797,20.6593,68.5904,-0.23355,0.0,0.0
399,99.5,94.4995,100.889,129.775,99.3977,102.775,0.00346671,0.332222,20.6832,68.5604,-0.304048,0.0,0.0
402,100.25,94.0821,100.41,131.67,99.4257,103.543,0.00356991,0.316278,20.7054,68.4903,-0.369299,0.0,0.0
405,101,93.0736,100.504,129.56,99.4576,103.769,0.00369249,0.302752,20.7303,68.5504,-0.386143,0.0,0.0
408,101.75,93.0513,99.7119,126.637,99.4856,104.373,0.00386067,0.285788,20.7512,68.4803,-0.436428,0.0,0.0
411,102.5,92.6738,99.4884,131.058,99.4924,104.559,0.00400828,0.270101,20.7687,68.4403,-0.452009,0.0,0.0
414,103.25,91.9474,99.3104,129.83,99.5255,104.96,0.00418501,0.255752,20.7855,68.4203,-0.483831,0.0,0.0
417,104,91.5208,99.1478,136.196,99.5718,105.185,0.00443206,0.24273,20.8004,68.4203,-0.499097,0.0,0.0
420,104.75,91.1942,98.4531,132.045,99.5754,104.865,0.00468351,0.229873,20.8112,68.4102,-0.471028,0.0,0.0
423,105.5,90.3857,98.1022,132.119,99.6014,105.167,0.00498884,0.220501,20.8223,68.3602,-0.494839,0.0,0.0
426,106.25,89.7272,97.9762,133.924,99.6225,105.264,0.0053551,0.210558,20.8321,68.3402,-0.501241,0.0,0.0
429,107,89.5577,97.4006,131.023,99.6664,105.154,0.00570921,0.201097,20.8409,68.4002,-0.487726,0.0,0.0
432,107.75,89.2328,96.8324,131.988,99.6792,104.917,0.00603644,0.192684,20.8489,68.4002,-0.466038,0.0,0.0
435,108.5,88.4774,96.4924,132.189,99.6992,105.848,0.00632963,0.185109,20.856,68.3302,-0.544633,0.0,0.0
438,109.25,88.3023,96.354,129.445,99.7343,105.142,0.00660045,0.178464,20.8621,68.2801,-0.480557,0.0,0.0
441,110,87.9361,95.815,132.676,99.7698,105.405,0.00687676,0.17275,20.8672,68.3302,-0.500048,0.0,0.0
444,110.75,87.0405,95.1606,133.445,99.807,105.207,0.00710145,0.167458,20.8714,68.3202,-0.479501,0.0,0.0
447,111.5,87.1003,94.9227,134.351,99.8134,105.435,0.00736566,0.16321,20.8748,68.3001,-0.498645,0.0,0.0
450,112.25,86.3878,94.5847,131.649,99.8425,105.641,0.00763796,0.159446,20.8776,68.2601,-0.513733,0.0,0.0
453,113,86.1363,94.2397,129.561,99.8756,105.498,0.00789953,0.155767,20.8796,68.3102,-0.49837,0.0,0.0
456,113.75,85.6913,93.6192,136.117,99.902,105.45,0.00816296,0.152688,20.8811,68.2901,-0.491811,0.0,0.0
459,114.5,85.4988,93.0852,133.455,99.9156,106.009,0.00841764,0.149764,20.8822,68.2301,-0.538713,0.0,0.0
462,115.25,85.1242,93.3227,131.81,99.9371,105.482,0.00865738,0.146929,20.8837,68.2101,-0.491409,0.0,0.0
465,116,84.3955,93.1493,129.408,99.9607,105.556,0.00890337,0.144429,20.8851,68.2101,-0.495633,0.0,0.0
468,116.75,84.548,91.9685,134.15,99.9878,105.4,0.00912627,0.14242,20.8866,68.2201,-0.47972,0.0,0.0
471,117.5,83.5309,91.8739,134.442,99.999,105.81,0.00930735,0.140317,20.8881,68.16,-0.514053,0.0,0.0
474,118.25,83.0979,91.6557,133.721,100.006,105.581,0.00950482,0.138451,20.8892,68.13,-0.493662,0.0,0.0
477,119,83.3577,91.7157,132.14,100.029,105.534,0.00970843,0.136775,20.89,68.11,-0.487556,0.0,0.0
480,119.75,82.6682,91.0068,133.08,100.055,105.644,0.00991117,0.135254,20.8906,68.2001,-0.494626,0.0,0.0
483,120.5,82.262,90.8185,135.707,100.065,105.275,0.0101053,0.133771,20.8911,68.16,-0.461934,0.0,0.0
486,121.25,82.0485,90.4661,130.815,100.072,106.136,0.0102924,0.13253,20.892,68.16,-0.535328,0.0,0.0
489,122,81.626,90.1002,133.373,100.099,105.455,0.0104728,0.131009,20.8931,68.14,-0.474329,0.0,0.0
492,122.75,81.7389,90.1894,133.524,100.105,105.538,0.0106614,0.129703,20.8942,68.17,-0.480969,0.0,0.0
495,123.5,81.6392,89.4092,132.231,100.102,105.885,0.0108247,0.128412,20.8953,68.15,-0.511074,0.0,0.0
498,124.25,81.0852,89.1835,130.254,100.106,105.914,0.0109548,0.127123,20.8961,68.0799,-0.513298,0.0,0.0
501,125,80.801,88.9939,140.774,100.104,105.594,0.0110509,0.126026,20.8966,68.09,-0.485818,0.0,0.0
504,125.75,80.4529,88.7624,131.839,100.122,105.935,0.0111215,0.125068,20.8971,68.15,-0.513627,0.0,0.0
507,126.5,80.0437,88.2499,135.195,100.115,105.573,0.0111669,0.124214,20.8974,68.11,-0.483128,0.0,0.0
510,127.25,79.3816,87.9782,129.835,100.117,105.923,0.0111895,0.123471,20.8974,68.0399,-0.513056,0.0,0.0
513,128,79.1935,87.5736,132.191,100.121,105.697,0.0112115,0.122722,20.8974,68.0299,-0.493176,0.0,0.0
516,128.75,79.1555,87.5577,129.444,100.123,106.139,0.0112456,0.122177,20.8975,68.0599,-0.530949,0.0,0.0
519,129.5,78.9771,87.3005,133.942,100.121,105.704,0.0112782,0.12137,20.8975,68.0299,-0.493758,0.0,0.0
522,130.25,78.8902,86.8043,133.289,100.109,105.958,0.011337,0.120553,20.8987,68.0199,-0.516799,0.0,0.0
525,131,78.4216,86.5851,133.227,100.108,105.777,0.0114039,0.119723,20.9001,68.0499,-0.50127,0.0,0.0
528,131.75,77.9535,86.2196,134.006,100.104,105.541,0.0114526,0.118887,20.9013,68.0699,-0.481311,0.0,0.0
531,132.5,78.2459,86.1794,136.312,100.112,105.802,0.0115047,0.117971,20.9021,68.0599,-0.503078,0.0,0.0
534,133.25,77.5744,85.9429,134.204,100.1,105.251,0.0115699,0.117198,20.9028,67.9899,-0.456676,0.0,0.0
537,134,77.2985,85.731,130.015,100.093,106.264,0.0116113,0.116454,20.9031,67.9799,-0.544473,0.0,0.0
540,134.75,77.2473,85.5375,134.657,100.111,106.222,0.0117033,0.115768,20.9034,67.9899,-0.539253,0.0,0.0
543,135.5,77.2271,85.3147,135.735,100.093,105.736,0.0118095,0.115208,20.9037,68.0199,-0.499164,0.0,0.0
546,136.25,76.5131,85.1331,133.151,100.079,105.651,0.011922,0.114534,20.9039,67.9498,-0.493068,0.0,0.0
549,137,76.6739,84.4989,130.938,100.068,105.956,0.0120411,0.11419,20.904,67.9198,-0.52027,0.0,0.0
552,137.75,76.1336,84.454,135.22,100.073,105.926,0.0121593,0.113792,20.9039,67.9298,-0.517245,0.0,0.0
555,138.5,76.7104,83.7937,132.484,100.073,105.739,0.0122455,0.113625,20.9034,67.9599,-0.501211,0.0,0.0
558,139.25,75.9736,84.1449,130.024,100.055,105.846,0.0123292,0.113574,20.9031,67.9098,-0.512102,0.0,0.0
561,140,75.9721,83.9524,131.461,100.053,106.186,0.0124052,0.113575,20.9028,67.8998,-0.541355,0.0,0.0
564,140.75,75.9311,83.7807,134.354,100.051,105.535,0.0124711,0.113588,20.902,67.8798,-0.485634,0.0,0.0
567,141.5,75.2678,83.6942,131.061,100.046,106.314,0.0125205,0.113584,20.9014,67.9098,-0.552963,0.0,0.0
570,142.25,75.7806,83.2033,133.804,100.033,105.911,0.0125591,0.113575,20.901,67.9098,-0.519599,0.0,0.0
573,143,75.5325,83.0943,132.411,100.031,105.54,0.0125907,0.113364,20.9007,67.8498,-0.487844,0.0,0.0
576,143.75,75.4811,82.5625,135.608,100.016,105.076,0.0126509,0.11312,20.9004,67.8297,-0.44914,0.0,0.0
579,144.5,75.2703,82.7858,135.613,100.021,105.604,0.0127351,0.112788,20.9003,67.8898,-0.494298,0.0,0.0
582,145.25,74.806,82.5654,136.554,100.02,105.622,0.0128137,0.112445,20.9008,67.8798,-0.49596,0.0,0.0
585,146,75.2501,82.0088,136.62,99.9974,105.412,0.0129127,0.112165,20.9011,67.7997,-0.479858,0.0,0.0
588,146.75,74.579,82.0204,134.553,100.005,105.537,0.0130027,0.111957,20.9014,67.7897,-0.490045,0.0,0.0
591,147.5,73.4842,80.9082,135.864,100.002,106.124,0.0130683,0.111818,20.902,67.8197,-0.540713,0.0,0.0
594,148.25,72.6585,80.1059,133.041,99.9954,105.992,0.0131056,0.111664,20.9027,67.7797,-0.530013,0.0,0.0
597,149,72.8345,79.7182,133.861,99.9775,105.871,0.0131284,0.111462,20.9032,67.7096,-0.521241,0.0,0.0
600,149.75,72.3269,80.1107,132.989,99.9715,106.063,0.0131307,0.111215,20.9035,67.7497,-0.53826,0.0,0.0
603,150.5,72.5764,80.0284,135.194,99.9739,105.764,0.0131263,0.110984,20.9036,67.7497,-0.512352,0.0,0.0
606,151.25,72.2695,79.7108,135.208,99.9751,105.932,0.0131305,0.110804,20.9038,67.7296,-0.526683,0.0,0.0
609,152,72.1725,79.2157,136.352,99.9535,106.159,0.013127,0.110672,20.9038,67.7096,-0.548122,0.0,0.0
612,152.75,71.627,78.6867,135.634,99.9623,105.858,0.0131217,0.110657,20.9039,67.6696,-0.5215,0.0,0.0
615,153.5,71.5598,78.7508,136.685,99.9587,105.913,0.0130723,0.110575,20.904,67.7296,-0.52651,0.0,0.0
618,154.25,71.901,78.8056,132.442,99.9655,105.467,0.01297,0.110463,20.9042,67.7697,-0.487507,0.0,0.0
621,155,72.0995,78.3193,134.095,99.9407,105.828,0.0128754,0.110342,20.9048,67.6996,-0.520908,0.0,0.0
624,155.75,71.54,78.2855,134.249,99.9331,106.058,0.0127416,0.110154,20.9057,67.6596,-0.541325,0.0,0.0
627,156.5,71.1261,78.3318,133.294,99.9263,105.551,0.012635,0.109974,20.9065,67.6496,-0.498371,0.0,0.0
630,157.25,71.1289,77.8963,137.954,99.9279,105.673,0.0125582,0.109742,20.9071,67.7296,-0.508741,0.0,0.0
633,158,70.5456,77.3812,133.832,99.9315,105.818,0.0125104,0.109501,20.9075,67.6696,-0.520892,0.0,0.0
636,158.75,70.9996,77.2907,139.857,99.9184,105.845,0.0124848,0.109295,20.9078,67.6195,-0.524415,0.0,0.0
639,159.5,70.783,77.3646,138.025,99.9076,105.669,0.0124661,0.109023,20.9081,67.6296,-0.510246,0.0,0.0
642,160.25,70.7106,77.5648,132.263,99.922,106.078,0.012434,0.108782,20.9082,67.6696,-0.544043,0.0,0.0
645,161,70.569,77.3015,132.321,99.9088,105.996,0.0123833,0.108572,20.9084,67.6195,-0.538209,0.0,0.0
648,161.75,70.4699,77.0365,133.675,99.8992,105.228,0.0123348,0.108394,20.9085,67.6195,-0.472887,0.0,0.0
651,162.5,70.5818,76.7066,135.87,99.8904,106.035,0.0122459,0.10825,20.9087,67.6095,-0.543207,0.0,0.0
654,163.25,70.3862,76.8384,131.765,99.898,104.988,0.0121386,0.108109,20.9089,67.6496,-0.452255,0.0,0.0
657,164,70.0994,76.6511,137.64,99.89,106.024,0.01205,0.107955,20.9091,67.6195,-0.542354,0.0,0.0
660,164.75,69.9254,76.6485,132.878,99.8828,105.337,0.011981,0.107815,20.9092,67.5895,-0.483837,0.0,0.0
663,165.5,70.0834,76.4851,132.612,99.8908,105.811,0.0119436,0.107695,20.9093,67.5795,-0.523982,0.0,0.0
666,166.25,70.0394,76.1188,134.919,99.8928,105.937,0.0119163,0.107594,20.9094,67.6195,-0.534637,0.0,0.0
669,167,69.9207,75.6721,133.969,99.8956,105.306,0.0119224,0.107459,20.9094,67.6195,-0.479988,0.0,0.0
672,167.75,69.6591,76.0033,132.198,99.8856,106.039,0.0119345,0.107347,20.9095,67.5595,-0.543991,0.0,0.0
675,168.5,69.6969,76.0971,133.803,99.8892,105.509,0.0119481,0.107259,20.9095,67.5395,-0.498064,0.0,0.0
678,169.25,69.9306,75.5612,136.439,99.8924,105.695,0.0119603,0.107195,20.9095,67.5595,-0.513877,0.0,0.0
681,170,69.6947,76.1155,131.935,99.8912,105.826,0.011971,0.107148,20.9095,67.6195,-0.525224,0.0,0.0
684,170.75,69.7482,75.7255,133.043,99.8956,105.475,0.0119801,0.107012,20.9095,67.5495,-0.494607,0.0,0.0
687,171.5,69.5796,75.5575,134.44,99.8808,105.579,0.0119873,0.106871,20.9095,67.5295,-0.504885,0.0,0.0
690,172.25,69.4935,75.0476,135.868,99.8908,105.979,0.0119905,0.106719,20.9095,67.5295,-0.538377,0.0,0.0
693,173,69.7727,75.358,135.733,99.9072,105.66,0.0119892,0.106535,20.9093,67.5595,-0.509469,0.0,0.0
696,173.75,69.2379,75.5263,132.241,99.8852,105.864,0.0119835,0.106362,20.9091,67.5195,-0.529021,0.0,0.0
699,174.5,69.0734,75.0222,137.072,99.88,105.83,0.0119712,0.106236,20.9088,67.5095,-0.52659,0.0,0.0
702,175.25,69.2822,74.6748,134.314,99.8944,105.477,0.0119363,0.106266,20.9085,67.4894,-0.494873,0.0,0.0
705,176,69.3061,74.6572,135.175,99.9076,105.835,0.0118876,0.106265,20.9083,67.5395,-0.524506,0.0,0.0
708,176.75,69.1285,74.7015,134.212,99.8872,105.946,0.0118421,0.106225,20.9082,67.4594,-0.535881,0.0,0.0
711,177.5,68.7774,75.0956,133.037,99.884,105.855,0.0117795,0.106167,20.9081,67.4494,-0.528356,0.0,0.0
714,178.25,68.4855,74.3185,134.53,99.8832,105.287,0.0117299,0.106112,20.908,67.4494,-0.479442,0.0,0.0
717,179,69.1756,74.3167,139.122,99.9084,105.564,0.0116996,0.106073,20.908,67.5095,-0.501095,0.0,0.0
720,179.75,68.6624,74.6598,132.847,99.892,105.741,0.0116903,0.105987,20.9086,67.4794,-0.517829,0.0,0.0
723,180.5,68.1285,73.7623,133.819,99.8876,105.615,0.0117224,0.105922,20.909,67.4494,-0.50741,0.0,0.0
726,181.25,68.6347,73.8157,132.733,99.8984,105.525,0.0117746,0.105914,20.9093,67.4494,-0.498626,0.0,0.0
729,182,68.9352,73.8146,134.179,99.9016,105.717,0.0118337,0.105948,20.9095,67.4894,-0.514863,0.0,0.0
732,182.75,68.4581,73.6854,132.296,99.8904,105.714,0.0118871,0.105943,20.9097,67.4894,-0.515649,0.0,0.0
735,183.5,68.5816,73.1789,136.431,99.8928,105.777,0.0119305,0.105888,20.9098,67.4194,-0.520894,0.0,0.0
738,184.25,68.5779,73.5379,133.858,99.8744,106.123,0.0119676,0.10572,20.9099,67.3894,-0.552272,0.0,0.0
741,185,68.0242,73.5419,133.944,99.8932,105.889,0.0119892,0.105506,20.91,67.4294,-0.530422,0.0,0.0
744,185.75,68.4245,73.3762,133.001,99.8788,105.991,0.0119958,0.105285,20.91,67.4294,-0.540551,0.0,0.0
747,186.5,68.2769,73.7981,133.417,99.8705,105.496,0.0119968,0.105139,20.91,67.3593,-0.498686,0.0,0.0
750,187.25,68.3002,73.3038,135.727,99.8748,105.405,0.0119961,0.105052,20.9101,67.3693,-0.490397,0.0,0.0
753,188,68.3834,72.7733,133.673,99.8693,105.722,0.0119995,0.104995,20.9101,67.4094,-0.518236,0.0,0.0
756,188.75,68.3609,72.8894,132.399,99.8856,105.969,0.0120124,0.104954,20.9101,67.4094,-0.538038,0.0,0.0
759,189.5,68.5876,72.9387,133.789,99.8605,105.44,0.0120285,0.104923,20.9101,67.3193,-0.494739,0.0,0.0
762,190.25,68.3249,73.097,134.124,99.8577,105.453,0.0120684,0.104901,20.9101,67.3293,-0.49616,0.0,0.0
765,191,67.8112,73.2102,129.661,99.8701,105.385,0.0121126,0.104842,20.9101,67.3493,-0.489162,0.0,0.0
768,191.75,68.0354,72.7625,134.827,99.8728,105.82,0.0121429,0.104751,20.9101,67.3493,-0.526354,0.0,0.0
771,192.5,67.8463,72.8469,135.174,99.8661,105.93,0.0121495,0.104669,20.9101,67.2893,-0.536417,0.0,0.0
774,193.25,68.0007,72.8002,133.082,99.8529,105.568,0.0121477,0.104559,20.9101,67.2793,-0.506462,0.0,0.0
777,194,67.6422,71.9942,135.207,99.8637,105.413,0.0121388,0.104459,20.9101,67.2993,-0.492116,0.0,0.0
780,194.75,67.6304,72.5137,133.913,99.8593,105.888,0.0121195,0.10436,20.9101,67.3393,-0.533437,0.0,0.0
783,195.5,68.0439,72.6618,137.718,99.8513,105.684,0.0121116,0.104308,20.9101,67.2592,-0.516617,0.0,0.0
786,196.25,67.3894,72.4696,135.013,99.8449,105.534,0.0121165,0.104277,20.9104,67.2492,-0.504316,0.0,0.0
789,197,67.6112,71.9929,132.896,99.8401,105.729,0.0121256,0.104268,20.9105,67.2592,-0.521512,0.0,0.0
792,197.75,67.455,72.0111,131.19,99.8653,104.844,0.0121315,0.104261,20.9107,67.3093,-0.442739,0.0,0.0
795,198.5,67.6194,71.9907,131.489,99.8437,105.612,0.0121347,0.104319,20.9108,67.2292,-0.511141,0.0,0.0
798,199.25,67.4478,71.6174,134.701,99.8297,105.443,0.0121278,0.104353,20.9108,67.2192,-0.497852,0.0,0.0
801,200,67.504,71.6128,132.634,99.8337,105.561,0.012111,0.104336,20.9109,67.2192,-0.507626,0.0,0.0
804,200.75,67.4646,71.7787,134.756,99.8409,105.575,0.0120939,0.104272,20.9109,67.2592,-0.508174,0.0,0.0
807,201.5,67.1018,71.9101,133.46,99.8409,105.65,0.0120671,0.10414,20.9109,67.2092,-0.514615,0.0,0.0
810,202.25,67.3845,71.3829,135.91,99.8301,106.076,0.0120415,0.10403,20.9109,67.1792,-0.552294,0.0,0.0
813,203,67.2736,71.8288,133.222,99.8217,105.915,0.0120228,0.103988,20.911,67.1792,-0.539218,0.0,0.0
816,203.75,67.1133,71.303,135.069,99.8205,105.804,0.012017,0.103914,20.911,67.2192,-0.529766,0.0,0.0
819,204.5,67.13,71.2177,132.987,99.8281,105.857,0.0120249,0.103843,20.911,67.1992,-0.533643,0.0,0.0
822,205.25,67.516,71.0757,130.316,99.8086,105.836,0.0120457,0.103776,20.911,67.1391,-0.533646,0.0,0.0
825,206,67.3851,71.3836,132.873,99.8018,105.545,0.012072,0.103737,20.9108,67.1391,-0.509179,0.0,0.0
828,206.75,67.1677,71.3792,137.281,99.8134,105.749,0.012086,0.103734,20.9106,67.1792,-0.525656,0.0,0.0
831,207.5,66.9767,71.0058,132.292,99.8237,105.471,0.0120939,0.10376,20.9105,67.1892,-0.500807,0.0,0.0
834,208.25,67.2195,71.0278,131.745,99.8058,105.772,0.0120777,0.103805,20.9104,67.1291,-0.528401,0.0,0.0
837,209,67.4049,71.5008,136.058,99.803,105.206,0.0120497,0.103878,20.9103,67.1091,-0.479787,0.0,0.0
840,209.75,67.2083,71.5484,133.981,99.8062,105.573,0.0120176,0.103957,20.9103,67.0991,-0.511146,0.0,0.0
843,210.5,66.4299,70.9212,136.307,99.8078,105.675,0.0120015,0.104028,20.9102,67.1391,-0.519808,0.0,0.0
846,211.25,67.0766,70.6668,133.553,99.809,105.678,0.0119994,0.104086,20.9102,67.0691,-0.51997,0.0,0.0
849,212,66.6505,71.2844,130.172,99.7922,105.16,0.0120142,0.1041,20.9108,67.0691,-0.476757,0.0,0.0
852,212.75,67.0633,70.8737,133.899,99.7906,105.846,0.0120453,0.104061,20.9113,67.0591,-0.536098,0.0,0.0
855,213.5,66.6092,70.623,132.822,99.7878,106.017,0.0120706,0.103968,20.9116,67.0991,-0.551052,0.0,0.0
858,214.25,66.4881,70.6765,132.807,99.7746,106.185,0.0120901,0.103799,20.9118,67.0591,-0.56666,0.0,0.0
861,215,66.8879,70.6794,130.085,99.7651,105.674,0.0120979,0.103605,20.912,67.0591,-0.523665,0.0,0.0
864,215.75,66.8565,70.6555,133.598,99.7746,105.155,0.0120987,0.103395,20.9121,67.049,-0.47793,0.0,0.0
867,216.5,66.7275,70.6462,137.255,99.7718,105.912,0.0120959,0.103179,20.9122,67.0991,-0.543498,0.0,0.0
870,217.25,66.252,70.738,132.541,99.7842,105.137,0.0120864,0.103021,20.9123,67.049,-0.475536,0.0,0.0
873,218,66.7022,70.7749,130.085,99.7603,105.709,0.0120794,0.102905,20.9123,67.039,-0.527088,0.0,0.0
876,218.75,66.9684,70.3625,134.28,99.7646,105.648,0.0120707,0.102903,20.9125,66.989,-0.521414,0.0,0.0
879,219.5,66.7247,69.9435,131.936,99.7702,105.737,0.0120677,0.102886,20.9129,67.0691,-0.528619,0.0,0.0
882,220.25,66.6902,70.376,130.236,99.7666,105.659,0.0120714,0.102868,20.9132,67.019,-0.522162,0.0,0.0
885,221,66.4924,70.6292,133.956,99.7615,105.534,0.0120741,0.10284,20.9134,66.999,-0.511924,0.0,0.0
888,221.75,66.6067,70.3768,132.39,99.7627,105.688,0.012076,0.102794,20.9136,66.969,-0.525047,0.0,0.0
891,222.5,66.5057,70.1195,130.413,99.7535,105.581,0.0120619,0.102761,20.9137,67.029,-0.516652,0.0,0.0
894,223.25,66.3525,70.0421,134.537,99.7551,105.582,0.0120294,0.102736,20.9137,67.009,-0.516584,0.0,0.0
897,224,66.2682,70.0127,133.051,99.7427,105.382,0.0119991,0.102719,20.9138,66.959,-0.500464,0.0,0.0
900,224.75,66.4934,69.423,134.743,99.7391,105.345,0.0119585,0.10272,20.9138,66.969,-0.497642,0.0,0.0
903,225.5,66.2818,69.8755,134.029,99.7467,105.841,0.0119365,0.102727,20.9139,67.009,-0.539716,0.0,0.0
906,226.25,66.7909,69.844,132.808,99.7411,105.554,0.0119333,0.102752,20.9139,67.009,-0.515452,0.0,0.0
909,227,66.3272,69.8897,133,99.7407,105.795,0.0119606,0.102742,20.9141,66.9389,-0.536235,0.0,0.0
912,227.75,66.6116,70.0374,133.645,99.7355,105.717,0.0119935,0.102723,20.9143,66.9389,-0.530005,0.0,0.0
915,228.5,66.5005,69.8409,134.521,99.7383,105.663,0.012023,0.102729,20.9144,66.969,-0.525175,0.0,0.0
918,229.25,66.8282,70.1147,134.79,99.7471,105.476,0.01205,0.10282,20.9145,66.979,-0.508226,0.0,0.0
921,230,66.4344,69.5754,137.2,99.7223,105.597,0.0120683,0.102931,20.9146,66.9089,-0.520891,0.0,0.0
924,230.75,66.2911,69.6305,130.314,99.7132,105.763,0.0120794,0.103024,20.9147,66.9089,-0.535998,0.0,0.0
927,231.5,65.9999,69.9873,133.965,99.7319,105.572,0.0120726,0.10305,20.9147,66.9089,-0.517881,0.0,0.0
930,232.25,66.2068,69.4327,130.629,99.7247,105.588,0.0120574,0.10305,20.9147,66.949,-0.519935,0.0,0.0
933,233,66.5868,69.4452,134.192,99.7155,105.852,0.0120363,0.10301,20.9148,66.8689,-0.543487,0.0,0.0
936,233.75,66.3331,69.7374,133.938,99.7139,105.828,0.0120117,0.102966,20.9148,66.8489,-0.541581,0.0,0.0
939,234.5,66.7932,69.1206,134.569,99.71,104.998,0.0119963,0.102908,20.9148,66.8288,-0.47026,0.0,0.0
942,235.25,66.6968,69.957,131.785,99.7155,105.63,0.0119862,0.102825,20.9148,66.8989,-0.524381,0.0,0.0
945,236,66.3902,69.6689,138.388,99.7295,105.9,0.0120008,0.102765,20.9146,66.8389,-0.546315,0.0,0.0
948,236.75,66.7314,69.322,131.402,99.7175,105.654,0.0120325,0.102698,20.914,66.8188,-0.526255,0.0,0.0
951,237.5,66.4423,69.6883,134.077,99.7147,105.283,0.0120755,0.102612,20.9136,66.8188,-0.494494,0.0,0.0
954,238.25,66.0482,69.6085,133.697,99.7375,105.025,0.0121198,0.102591,20.9133,66.8789,-0.470087,0.0,0.0
957,239,66.1408,69.2707,134.904,99.7447,105.659,0.0121576,0.102594,20.9131,66.8489,-0.524243,0.0,0.0
960,239.75,66.5072,69.9851,131.486,99.7359,105.846,0.0121852,0.102653,20.9129,66.8188,-0.541087,0.0,0.0
963,240.5,66.9531,69.7813,134.185,99.7646,105.31,0.0122014,0.102736,20.9128,66.7988,-0.492276,0.0,0.0
966,241.25,66.5991,69.4176,130.696,99.7387,105.437,0.0122115,0.102821,20.9127,66.8689,-0.50561,0.0,0.0
969,242,66.5326,69.5139,133.205,99.7786,105.541,0.0122462,0.102843,20.9127,66.8389,-0.510903,0.0,0.0
972,242.75,66.1086,69.7056,131.171,99.7523,105.745,0.0122831,0.102829,20.9126,66.7888,-0.530879,0.0,0.0
975,243.5,66.2058,69.3592,136.349,99.7651,105.354,0.0123528,0.102768,20.9127,66.7588,-0.496013,0.0,0.0
978,244.25,66.6194,69.5754,131.544,99.775,105.693,0.012435,0.102723,20.9132,66.7988,-0.524344,0.0,0.0
981,245,66.3217,69.2916,134.441,99.7946,105.369,0.0125171,0.10265,20.9136,66.8088,-0.49468,0.0,0.0
984,245.75,66.5025,69.41,133.478,99.7846,105.499,0.0125844,0.102554,20.9139,66.7388,-0.506745,0.0,0.0
987,246.5,66.5002,69.2125,132.604,99.8205,105.72,0.0126334,0.102465,20.9141,66.7188,-0.522559,0.0,0.0
990,247.25,66.3669,69.4017,132.896,99.8186,105.855,0.0126412,0.10232,20.9142,66.7388,-0.534324,0.0,0.0
993,248,66.1094,68.892,131.012,99.8369,105.735,0.0126024,0.102192,20.9142,66.7888,-0.522346,0.0,0.0
996,248.75,66.6519,69.1408,135.607,99.8389,105.524,0.0125442,0.10206,20.9138,66.7288,-0.503969,0.0,0.0
999,249.5,66.5471,69.2549,131.238,99.8641,105.995,0.0124891,0.102002,20.9132,66.7188,-0.542245,0.0,0.0
1002,250.25,65.9146,69.3333,132.923,99.872,106.028,0.0124255,0.102003,20.9127,66.7087,-0.544301,0.0,0.0
1005,251,65.9609,69.1844,134.408,99.892,105.571,0.0123692,0.102022,20.9124,66.7688,-0.503168,0.0,0.0
1008,251.75,66.4289,69.0837,132.094,99.8964,105.793,0.0123189,0.101995,20.9121,66.7188,-0.521885,0.0,0.0
1011,252.5,65.8549,69.12,130.885,99.902,105.611,0.0122804,0.101975,20.9124,66.6787,-0.505752,0.0,0.0
1014,253.25,66.4715,68.9769,135.78,99.9228,105.964,0.0122524,0.101961,20.9127,66.6587,-0.53423,0.0,0.0
1017,254,66.6547,69.2042,134.704,99.9507,106.049,0.0122285,0.101894,20.913,66.7388,-0.538954,0.0,0.0
1020,254.75,66.4729,69.3938,132.163,99.9539,106.068,0.0122052,0.101798,20.9132,66.6787,-0.540324,0.0,0.0
1023,255.5,66.0503,69.3904,132.916,99.9495,105.483,0.0121716,0.10169,20.9134,66.6587,-0.490399,0.0,0.0
1026,256.25,66.4289,69.097,132.633,99.9671,105.831,,0.10157,,66.6287,-0.518703,0.0,0.0
1029,257,65.9251,68.8943,136.602,99.995,106.188,,0.101469,,66.6987,-0.546813,0.0,0.0
1032,257.75,66.2167,69.1025,134.058,100.006,106.079,,0.101361,,66.6987,-0.536488,0.0,0.0
1035,258.5,66.0589,68.8992,135.795,100.013,105.674,,0.10127,,66.6287,-0.501002,0.0,0.0
1038,259.25,66.6048,69.0701,131.937,100.035,105.687,,,,66.6087,-0.500168,0.0,0.0
1041,260,66.3361,69.1108,138.61,100.047,106.166,,,,66.6787,-0.540238,0.0,0.0
1044,260.75,65.9444,69.1176,136.394,100.068,106.103,,,,66.6687,-0.532944,0.0,0.0
1047,261.5,66.1252,68.8219,134.348,100.067,105.777,,,,66.5786,-0.504936,0.0,0.0
1050,262.25,65.9893,68.639,134.936,100.073,106.186,,,,66.5886,-0.539539,0.0,0.0
1053,263,66.0908,69.3036,134.791,100.1,105.387,,,,66.6287,-0.468425,0.0,0.0
1056,263.75,66.37,69.5186,135.836,100.102,106.377,,,,66.6187,-0.553311,0.0,0.0
1059,264.5,66.055,68.8333,131.924,100.111,105.972,,,,66.5486,-0.517816,0.0,0.0
1062,265.25,66.171,68.1148,136.362,100.111,106.002,,,,66.5486,-0.520332,0.0,0.0
1065,266,66.208,68.7744,140.146,100.114,106.254,,,,66.5686,-0.541662,0.0,0.0
1067,266.5,65.6002,69.2548,132.673,100.145,106.02,,,,66.5486,-0.518791,0.0,0.0