File: 01_Data/Luan_Panel/Cone/Luan_Panel_Cone_HF75Scan_220916_R1.csv
Names,Time,Stack TC,Smoke TC,Exh Press,Smoke Comp,Smoke Meas,CO Meter,CO2 Meter,O2 Meter,Sample Mass,Ext Coeff,Start Test,Flame Verif
Chan Gain,,500,500,1,1,1,1,1,1,1,1,1.0,1.0
Offset,,0,0,0.146632,0,0,0,0,0,0,0,0.0,0.0
Gain,,1,1,25.011,13.0826,14.7555,1,1,1,1.00088,1.03743,1.0,1.0
Units,sec,C,C,Pa,%,%,%,%,%,g,/m,,
Baseline,,60.0262,61.9831,137.451,100.009,105.927,0.000336916,0.0436467,20.9861,-450.653,-0.523177,,
3,0.5,59.9359,62.2482,137.35,99.8828,105.94,0.000257698,0.044229,20.9853,87.0867,-0.535818,0.0,0.0
6,1.25,58.0712,60.7261,137.542,99.8728,105.517,0.000184472,0.044346,20.9847,87.0367,-0.500294,0.0,0.0
9,2,58.5081,60.6044,145.238,99.8565,105.908,0.000141585,0.044455,20.9843,86.9766,-0.535472,0.0,0.0
12,2.75,58.8313,60.9047,134.895,99.8804,105.685,0.000134492,0.0446334,20.9833,86.9966,-0.514039,0.0,0.0
15,3.5,58.8748,60.7141,134.053,99.8824,105.116,0.000213003,0.0449826,20.9822,87.0066,-0.464791,0.0,0.0
18,4.25,58.7535,60.8449,136.755,99.8812,104.572,0.000344933,0.0456121,20.9812,86.9566,-0.417606,0.0,0.0
21,5,58.4911,61.413,135.953,99.8637,104.25,0.000472955,0.048611,20.9743,86.9065,-0.391223,0.0,0.0
24,5.75,59.0228,60.9929,142.526,99.874,101.902,0.000681692,0.0561237,20.958,86.8565,-0.182941,0.0,0.0
27,6.5,58.5864,60.997,130.076,99.8832,104.362,0.000883062,0.0690705,20.9313,86.8064,-0.399144,0.0,1.0
30,7.25,58.8552,60.6633,121.327,99.8693,103.652,0.00113084,0.0873997,20.897,86.5963,-0.338283,0.0,1.0
33,8,59.3847,61.6566,115.414,99.8625,102.9,0.00141431,0.112269,20.8468,86.346,-0.272637,0.0,1.0
36,8.75,60.2877,61.7391,111.108,99.872,101.826,0.00172323,0.150075,20.7577,86.296,-0.176285,0.0,1.0
39,9.5,61.6062,61.9457,110.208,99.88,101.583,0.00207605,0.194903,20.675,86.2159,-0.15388,0.0,1.0
42,10.25,62.8927,63.0445,110.529,99.8756,100.657,0.002459,0.234943,20.5843,85.9657,-0.0709193,0.0,1.0
45,11,63.7445,63.4679,107.448,99.8681,99.7605,0.00286016,0.290029,20.4751,85.7555,0.00980818,0.0,1.0
48,11.75,64.6988,63.6521,107.739,99.872,97.9705,0.00331275,0.338269,20.377,85.5453,0.174937,0.0,1.0
51,12.5,66.0136,64.419,111.331,99.8816,97.5972,0.00373527,0.387257,20.2913,85.4553,0.210552,0.0,0.0
54,13.25,68.0526,65.7253,114.778,99.8728,96.616,0.00408276,0.439419,20.2177,85.175,0.301705,0.0,0.0
57,14,69.1582,67.0387,110.393,99.8725,94.7527,0.00445148,0.482277,20.164,84.9748,0.478894,0.0,0.0
60,14.75,71.2251,68.7549,107.473,99.8645,94.9224,0.00480059,0.524714,20.1249,84.8247,0.461876,0.0,0.0
63,15.5,72.3521,69.9383,106.437,99.8764,94.1767,0.00510828,0.560662,20.0964,84.7046,0.534741,0.0,0.0
66,16.25,74.0553,71.1995,107.865,99.8804,93.8849,0.00541521,0.590132,20.0788,84.5044,0.563345,0.0,0.0
69,17,75.3832,72.3628,105.447,99.8728,94.378,0.005673,0.613006,20.0715,84.2842,0.514985,0.0,0.0
72,17.75,76.7491,73.4861,107.935,99.8752,94.1916,0.00589058,0.630325,20.0804,84.1241,0.533196,0.0,0.0
75,18.5,78.149,74.4564,113.096,99.878,94.6928,0.00605566,0.641537,20.0952,84.034,0.485157,0.0,0.0
78,19.25,79.04,75.7732,112.119,99.8812,95.0481,0.0061634,0.647684,20.1166,83.8939,0.451367,0.0,0.0
81,20,79.5526,76.5075,116.01,99.8748,95.3462,0.00624194,0.649729,20.1366,83.6337,0.422289,0.0,0.0
84,20.75,80.1232,77.8665,119.105,99.8756,95.2138,0.00624165,0.645906,20.1617,83.5236,0.435005,0.0,0.0
87,21.5,81.1872,78.5916,114.541,99.89,95.9234,0.00621889,0.639044,20.1845,83.4135,0.368738,0.0,0.0
90,22.25,82.0028,79.1771,116.648,99.8948,96.9173,0.00616376,0.632304,20.2149,83.3034,0.275376,0.0,0.0
93,23,82.2727,80.0503,120.05,99.8912,96.272,0.00609665,0.619051,20.2462,83.1332,0.335841,0.0,0.0
96,23.75,82.4652,80.5237,123.288,99.8772,97.8503,0.00603891,0.60939,20.2785,83.0131,0.186586,0.0,0.0
99,24.5,83.3708,80.9081,121.814,99.8872,97.5661,0.0059891,0.594143,20.3115,82.883,0.213959,0.0,0.0
102,25.25,83.4693,81.6945,122.45,99.8932,98.7914,0.00594599,0.580865,20.3481,82.8229,0.100932,0.0,0.0
105,26,83.4661,82.0353,122.459,99.876,99.3674,0.00588228,0.56549,20.3809,82.6128,0.0464685,0.0,0.0
108,26.75,83.7038,82.6227,118.315,99.882,99.1544,0.00583584,0.550868,20.4074,82.5027,0.0665411,0.0,0.0
111,27.5,83.9157,82.7774,120.85,99.8812,100.497,0.00574644,0.535154,20.4268,82.3525,-0.0559465,0.0,0.0
114,28.25,84.5505,83.0246,127.682,99.8836,100.929,0.00568126,0.520597,20.4484,82.3725,-0.0947484,0.0,0.0
117,29,84.3002,83.4073,122.439,99.8848,101.452,0.00558005,0.508661,20.4676,82.1624,-0.141697,0.0,0.0
120,29.75,84.5162,83.7497,123.233,99.8725,100.512,0.00548973,0.495201,20.4832,82.0723,-0.0580507,0.0,0.0
123,30.5,83.9853,84.4508,122.874,99.8717,100.254,0.00539561,0.485389,20.4983,81.9722,-0.0347736,0.0,0.0
126,31.25,84.3259,84.3538,122.324,99.892,101.688,0.00528411,0.474727,20.5109,81.9221,-0.162143,0.0,0.0
129,32,85.0214,84.3577,124.995,99.872,101.704,0.00517977,0.465459,20.5208,81.752,-0.165453,0.0,0.0
132,32.75,84.7596,84.3616,123.141,99.8653,102.093,0.00506428,0.456394,20.5279,81.6019,-0.200776,0.0,0.0
135,33.5,85.0835,84.5828,123.948,99.8665,101.807,0.00492124,0.449365,20.5332,81.4918,-0.175103,0.0,0.0
138,34.25,84.4945,84.9452,121.556,99.874,102.475,0.00481697,0.444063,20.537,81.4517,-0.233951,0.0,0.0
141,35,85.1874,84.6589,120.339,99.8545,101.653,0.00467328,0.440652,20.5363,81.3016,-0.162418,0.0,0.0
144,35.75,85.8553,84.9158,119.002,99.8589,101.597,0.00454482,0.438969,20.5313,81.1415,-0.157019,0.0,0.0
147,36.5,85.4032,85.6923,121.797,99.8693,101.86,0.00442663,0.438784,20.5225,80.9913,-0.179597,0.0,0.0
150,37.25,85.4996,85.6978,118.58,99.8585,100.952,0.00431579,0.440467,20.5121,80.9513,-0.0990706,0.0,0.0
153,38,85.7022,85.664,119.644,99.8533,101.747,0.00420758,0.443515,20.4999,80.8212,-0.170989,0.0,0.0
156,38.75,85.8488,85.9104,117.699,99.8329,101.836,0.00408714,0.447527,20.4838,80.611,-0.180816,0.0,0.0
159,39.5,85.9584,86.3297,119.534,99.8305,102.208,0.0039866,0.452276,20.4685,80.4308,-0.214212,0.0,0.0
162,40.25,86.4696,86.7719,119.489,99.8253,102.022,0.00387482,0.457454,20.4555,80.3908,-0.198111,0.0,0.0
165,41,86.5522,87.0952,116.632,99.8309,102.334,0.00377692,0.462832,20.4429,80.2907,-0.225355,0.0,0.0
168,41.75,87.1514,87.8014,119.851,99.817,102.385,0.00367896,0.469154,20.4316,80.0905,-0.231192,0.0,0.0
171,42.5,87.3415,87.9886,118.126,99.8014,102.318,0.00360886,0.475074,20.4226,79.9304,-0.226607,0.0,0.0
174,43.25,87.905,88.3627,116.261,99.7946,101.438,0.00356,0.479948,20.4135,79.8603,-0.148669,0.0,0.0
177,44,87.9213,88.6974,113.986,99.8014,102.15,0.00354387,0.485151,20.4051,79.7102,-0.211696,0.0,0.0
180,44.75,88.2913,89.2903,117.55,99.8058,101.567,0.00354062,0.489648,20.3975,79.5601,-0.159156,0.0,0.0
183,45.5,88.7826,89.7552,111.701,99.7734,102.011,0.0035528,0.495,20.3909,79.3799,-0.2018,0.0,0.0
186,46.25,89.0957,90.1504,118.331,99.7802,102.289,0.00359183,0.500214,20.3838,79.2498,-0.225973,0.0,0.0
189,47,89.8181,90.3197,113.97,99.7798,102.427,0.00365141,0.504574,20.3746,79.1497,-0.23826,0.0,0.0
192,47.75,90.1375,90.6714,113.727,99.769,101.575,0.0037081,0.510165,20.3667,78.9495,-0.163272,0.0,0.0
195,48.5,90.4855,91.1044,117.694,99.7535,102.155,0.00380275,0.516149,20.3586,78.7894,-0.216507,0.0,0.0
198,49.25,90.7023,91.421,113.595,99.7599,101.555,0.00388795,0.522445,20.35,78.6693,-0.162334,0.0,0.0
201,50,91.2781,92.1228,119.569,99.7583,101.994,0.00395697,0.528949,20.3406,78.5792,-0.201737,0.0,0.0
204,50.75,91.7099,92.8347,115.077,99.7455,101.26,0.00403575,0.537429,20.3337,78.4291,-0.137177,0.0,0.0
207,51.5,91.8769,93.0163,115.67,99.7263,100.931,0.00409319,0.545184,20.3237,78.2589,-0.109294,0.0,0.0
210,52.25,92.4674,93.5834,114.8,99.7367,100.919,0.00420985,0.55353,20.3138,78.1088,-0.107251,0.0,0.0
213,53,93.3494,93.6647,114.306,99.7319,99.6583,0.00433308,0.562052,20.3022,77.9587,0.00672352,0.0,0.0
216,53.75,93.347,94.5025,114.143,99.7267,99.2404,0.00448819,0.569304,20.2906,77.8385,0.0444889,0.0,0.0
219,54.5,94.1286,94.7386,115.538,99.7016,98.4924,0.0046942,0.575792,20.2822,77.6384,0.111041,0.0,0.0
222,55.25,93.932,95.9688,109.103,99.7048,98.7284,0.00484438,0.582575,20.276,77.4882,0.0895562,0.0,0.0
225,56,94.3674,95.8631,113.708,99.7044,97.7602,0.00506129,0.588695,20.2715,77.3781,0.179199,0.0,0.0
228,56.75,94.8077,96.2697,114.936,99.7032,96.4386,0.00527096,0.593254,20.2689,77.228,0.302958,0.0,0.0
231,57.5,94.7067,96.5573,119.524,99.6864,97.3486,0.00546899,0.59662,20.2682,77.0378,0.215954,0.0,0.0
234,58.25,95.5146,96.8006,115.515,99.6688,96.548,0.005653,0.598191,20.2721,76.8877,0.289503,0.0,0.0
237,59,95.1993,96.7215,116.983,99.6584,96.8848,0.00584108,0.59896,20.2806,76.7776,0.256863,0.0,0.0
240,59.75,96.1639,97.5908,119.159,99.6744,96.6498,0.00600846,0.596931,20.2916,76.6875,0.280427,0.0,0.0
243,60.5,96.1556,97.6308,113.653,99.6529,96.5192,0.00614339,0.593667,20.3035,76.4874,0.290762,0.0,0.0
246,61.25,96.2525,98.1707,121.365,99.6401,97.2424,0.00628136,0.58944,20.3201,76.3973,0.221664,0.0,0.0
249,62,96.6973,98.793,117.306,99.6237,95.9964,0.00638195,0.584503,20.327,76.2872,0.337527,0.0,0.0
252,62.75,96.4655,98.9264,122.352,99.6333,96.7502,0.00648771,0.577846,20.3406,76.2171,0.267222,0.0,0.0
255,63.5,96.348,98.3777,115.758,99.5934,96.5714,0.00655882,0.570959,20.3523,76.057,0.280406,0.0,0.0
258,64.25,96.1878,99.0035,119.059,99.5954,98.1614,0.0065858,0.565072,20.364,75.9269,0.131974,0.0,0.0
261,65,96.5499,99.1457,121.024,99.5894,96.603,0.00658047,0.556775,20.3776,75.8268,0.27707,0.0,0.0
264,65.75,96.2291,98.8777,121.119,99.5942,96.7502,0.0065298,0.550727,20.3901,75.7367,0.263647,0.0,0.0
267,66.5,96.256,99.2992,118.215,99.5838,97.5846,0.00646259,0.542987,20.4014,75.6466,0.184551,0.0,0.0
270,67.25,96.2263,99.3149,120.858,99.5706,97.8976,0.0063828,0.536009,20.4117,75.4965,0.154209,0.0,0.0
273,68,96.2331,99.7442,122.246,99.5594,98.1844,0.00629403,0.529691,20.4211,75.3664,0.126562,0.0,0.0
276,68.75,96.4602,100.184,120.543,99.5518,97.2568,0.00619687,0.523954,20.4284,75.3063,0.212254,0.0,0.0
279,69.5,96.398,99.6187,118.857,99.5355,97.9259,0.00604609,0.518066,20.4345,75.1862,0.14836,0.0,0.0
282,70.25,96.0829,99.6907,123.935,99.5179,98.3501,0.00589433,0.512441,20.4408,75.0461,0.107418,0.0,0.0
285,71,95.8285,99.2895,118.341,99.5091,97.5202,0.00574104,0.507792,20.4456,74.956,0.183733,0.0,0.0
288,71.75,96.0802,99.8757,117.574,99.5007,98.2366,0.00558868,0.503466,20.4495,74.8759,0.116355,0.0,0.0
291,72.5,95.9936,99.7495,120.168,99.4904,98.4924,0.00543925,0.499493,20.4524,74.7959,0.091742,0.0,0.0
294,73.25,96.0153,99.8299,119.16,99.4512,98.0376,0.00530352,0.495894,20.4545,74.6157,0.130282,0.0,0.0
297,74,96.1197,99.9754,119.357,99.4676,98.6626,0.00520457,0.492666,20.4566,74.5557,0.0739463,0.0,0.0
300,74.75,96.1635,99.9561,115.659,99.4464,98.6739,0.00512368,0.489479,20.4579,74.4556,0.0709726,0.0,0.0
303,75.5,96.0428,100.167,121.539,99.4317,99.2417,0.00506097,0.486241,20.4583,74.3555,0.0174015,0.0,0.0
306,76.25,96.1677,100.084,120.988,99.4209,98.5257,0.00504019,0.483642,20.459,74.2554,0.0823077,0.0,0.0
309,77,96.0997,100.064,124.332,99.3977,99.7204,0.00501881,0.481292,20.4604,74.0953,-0.0294925,0.0,0.0
312,77.75,95.9387,100.478,121.026,99.3937,98.3934,0.00500774,0.4788,20.4614,74.0752,0.0920577,0.0,0.0
315,78.5,95.6108,99.88,121.636,99.3766,99.1575,0.00498965,0.476463,20.4623,73.9651,0.0200821,0.0,0.0
318,79.25,95.8344,100.39,121.361,99.3578,98.6185,0.00496297,0.475112,20.4634,73.825,0.0679679,0.0,0.0
321,80,95.8922,100.519,126.347,99.347,100.049,0.00492775,0.473168,20.4642,73.7449,-0.0640853,0.0,0.0
324,80.75,96.0377,100.737,122.175,99.3502,98.8211,0.00487709,0.471571,20.4657,73.6649,0.0485924,0.0,0.0
327,81.5,95.8044,100.735,121.151,99.3399,99.1557,0.00482436,0.4701,20.4671,73.5448,0.016884,0.0,0.0
330,82.25,95.7165,100.734,123.114,99.3227,99.5713,0.00475892,0.468211,20.47,73.4247,-0.0227542,0.0,0.0
333,83,95.5839,100.604,114.285,99.3323,100.067,0.00467835,0.466459,20.4722,73.3446,-0.0670361,0.0,0.0
336,83.75,95.8897,100.826,121.385,99.3255,99.9185,0.00456342,0.465021,20.4737,73.2745,-0.054174,0.0,0.0
339,84.5,95.4427,100.456,119.709,99.3147,99.4205,0.0044173,0.463871,20.4751,73.1945,-0.00968898,0.0,0.0
342,85.25,96.093,100.475,117.803,99.3327,99.4678,0.00426193,0.46293,20.4765,73.1044,-0.0123696,0.0,0.0
345,86,95.4801,100.673,119.556,99.3367,99.8969,0.00411056,0.462067,20.4775,73.0243,-0.0511816,0.0,0.0
348,86.75,95.7702,100.883,119.963,99.3702,99.1823,0.00395764,0.460997,20.48,72.9342,0.0172251,0.0,0.0
351,87.5,95.702,101.001,121.598,99.4141,99.1197,0.00382628,0.459463,20.4837,72.8842,0.0269909,0.0,0.0
354,88.25,95.4903,100.785,122.697,99.4445,99.0706,0.0037155,0.45718,20.4884,72.7541,0.0342749,0.0,0.0
357,89,95.4219,100.725,122.98,99.4644,99.1985,0.00362356,0.454471,20.4937,72.634,0.0243622,0.0,0.0
360,89.75,95.3152,100.853,125.44,99.494,99.3593,0.00355653,0.451308,20.4975,72.5539,0.0123295,0.0,0.0
363,90.5,95.4971,101.103,124.393,99.5423,99.1719,0.00350767,0.447734,20.5041,72.4938,0.0339204,0.0,0.0
366,91.25,95.0324,100.833,121.133,99.5491,99.6844,0.00348268,0.44334,20.5124,72.4238,-0.0123615,0.0,0.0
369,92,95.08,100.945,122.323,99.5459,98.519,0.00346904,0.438139,20.5199,72.3537,0.0943621,0.0,0.0
372,92.75,94.963,100.871,124.39,99.5622,98.9688,0.00346693,0.432234,20.5304,72.2536,0.0544002,0.0,0.0
375,93.5,95.1849,101.104,124.783,99.5826,99.0909,0.00346007,0.424914,20.5437,72.1836,0.045047,0.0,0.0
378,94.25,94.8853,101.209,127,99.5994,99.9852,0.00345376,0.418293,20.5559,72.1335,-0.0351831,0.0,0.0
381,95,94.3404,100.484,125.989,99.6081,99.6128,0.00344693,0.409163,20.5729,72.0535,-0.000422555,0.0,0.0
384,95.75,94.1,100.529,127.791,99.6317,101.436,0.00344903,0.398669,20.5914,72.0034,-0.163334,0.0,0.0
387,96.5,93.9396,100.172,126.602,99.6541,101.326,0.00345122,0.389382,20.6075,71.9734,-0.151388,0.0,0.0
390,97.25,93.6088,100.067,133.216,99.6764,102.408,0.00345394,0.376907,20.6227,71.9534,-0.246056,0.0,0.0
393,98,93.2399,99.8993,127.203,99.6776,103.261,0.00345853,0.363463,20.6397,71.9033,-0.321421,0.0,0.0
396,98.75,92.7984,99.6088,128.983,99.7024,103.542,0.00346636,0.351807,20.6631,71.8733,-0.343891,0.0,0.0
399,99.5,92.4787,99.4004,128.643,99.7143,104.202,0.00351108,0.336382,20.6863,71.8433,-0.400594,0.0,0.0
402,100.25,92.3511,99.0586,132.733,99.7419,104.678,0.00359222,0.325136,20.7102,71.8733,-0.439553,0.0,0.0
405,101,91.3897,98.8657,134.184,99.7551,104.964,0.00364819,0.307517,20.7277,71.8333,-0.463177,0.0,0.0
408,101.75,90.9673,98.6251,132.16,99.7686,104.96,0.00379642,0.291326,20.7531,71.7532,-0.461587,0.0,0.0
411,102.5,90.5131,98.1709,137.451,99.7986,105.26,0.00394851,0.278095,20.7739,71.7732,-0.4849,0.0,0.0
414,103.25,90.144,97.8605,130.793,99.8197,105.192,0.00413469,0.264295,20.7922,71.7932,-0.477051,0.0,0.0
417,104,89.4045,97.2795,132.437,99.8385,105.374,0.00433764,0.254719,20.8064,71.7632,-0.491065,0.0,0.0
420,104.75,88.922,97.0098,131.748,99.8373,105.047,0.00460055,0.242561,20.8184,71.8032,-0.462936,0.0,0.0
423,105.5,88.3986,96.4382,131.37,99.8561,105.558,0.00488389,0.231825,20.8281,71.7532,-0.505356,0.0,0.0
426,106.25,88.4241,96.3493,131.647,99.8728,105.23,0.00516795,0.222652,20.8367,71.7932,-0.475482,0.0,0.0
429,107,87.6494,95.8346,133.418,99.8884,105.016,0.00544074,0.213661,20.8454,71.7532,-0.455587,0.0,0.0
432,107.75,87.135,95.4437,132.325,99.8796,105.783,0.00573492,0.206066,20.8531,71.7332,-0.522599,0.0,0.0
435,108.5,86.4234,95.0537,137.488,99.9,104.832,0.00603946,0.198751,20.8598,71.7732,-0.438558,0.0,0.0
438,109.25,86.3727,94.6497,134.861,99.9164,106.058,0.00631839,0.191731,20.865,71.8032,-0.542852,0.0,0.0
441,110,85.643,94.28,131.284,99.9287,106.124,0.00654601,0.18564,20.8692,71.7932,-0.547403,0.0,0.0
444,110.75,85.1163,93.8053,134.845,99.9244,105.054,0.00678798,0.18036,20.8725,71.7332,-0.455551,0.0,0.0
447,111.5,84.7738,93.5145,135.381,99.9375,105.534,0.00703354,0.175783,20.8753,71.7031,-0.495839,0.0,0.0
450,112.25,85.2123,93.4686,134.683,99.9399,104.998,0.00727541,0.17138,20.878,71.7132,-0.449295,0.0,0.0
453,113,83.8994,92.804,138.936,99.9475,105.657,0.00753951,0.167205,20.8802,71.7031,-0.505563,0.0,0.0
456,113.75,83.606,92.2486,137.477,99.9395,106.036,0.00780571,0.163749,20.8822,71.6631,-0.538889,0.0,0.0
459,114.5,83.1533,91.6368,133.818,99.9439,105.65,0.00806172,0.160065,20.8842,71.6231,-0.505309,0.0,0.0
462,115.25,82.8166,91.3182,135.358,99.9679,105.626,0.00835219,0.156782,20.8857,71.6431,-0.500994,0.0,0.0
465,116,82.2053,91.522,137.767,99.9575,105.478,0.00860839,0.154135,20.8868,71.6131,-0.489167,0.0,0.0
468,116.75,83.1016,90.7536,131.896,99.9635,105.533,0.00887118,0.151396,20.8876,71.573,-0.493398,0.0,0.0
471,117.5,81.5496,90.3395,134.888,99.9635,105.795,0.00910528,0.149051,20.8882,71.6031,-0.51597,0.0,0.0
474,118.25,80.7151,89.9981,133.864,99.9775,105.705,0.00934865,0.147193,20.8886,71.593,-0.506986,0.0,0.0
477,119,81.019,89.414,136.749,99.9715,105.658,0.00957553,0.145281,20.889,71.6131,-0.503421,0.0,0.0
480,119.75,79.3411,89.3421,133.624,99.989,105.804,0.00975892,0.14368,20.8892,71.563,-0.514458,0.0,0.0
483,120.5,80.2031,88.9593,138.087,99.9902,105.558,0.00990028,0.142162,20.8893,71.563,-0.493099,0.0,0.0
486,121.25,80.0523,88.5023,137.051,99.9858,105.723,0.0100142,0.140635,20.8895,71.563,-0.507774,0.0,0.0
489,122,79.2954,88.3723,132.518,99.9966,105.817,0.0101157,0.139169,20.8899,71.6031,-0.514813,0.0,0.0
492,122.75,79.2005,87.7304,137.709,99.9878,105.174,0.0102099,0.1378,20.8902,71.553,-0.460221,0.0,0.0
495,123.5,77.1873,87.9196,133.92,99.9898,105.803,0.0102927,0.136803,20.8905,71.513,-0.514269,0.0,0.0
498,124.25,78.5681,87.6059,133.435,99.9866,105.338,0.0103591,0.135375,20.8913,71.523,-0.474462,0.0,0.0
501,125,78.0969,87.3766,134.164,99.9966,105.247,0.0104307,0.134075,20.8918,71.543,-0.465653,0.0,0.0
504,125.75,77.8655,86.6779,136.165,100,106.118,0.0104928,0.132873,20.8923,71.503,-0.540357,0.0,0.0
507,126.5,78.9116,86.3196,134.217,99.9858,105.445,0.010595,0.13175,20.8926,71.503,-0.483749,0.0,0.0
510,127.25,77.8149,85.9038,133.924,99.9814,106.18,0.0107108,0.130711,20.893,71.4829,-0.547392,0.0,0.0
513,128,77.5592,85.4213,135.769,99.9882,105.822,0.0108285,0.129579,20.8937,71.513,-0.516002,0.0,0.0
516,128.75,77.2619,85.759,130.64,99.9954,105.553,0.0109409,0.128436,20.8943,71.4729,-0.492239,0.0,0.0
519,129.5,76.7143,85.251,136.993,99.987,105.881,0.0110524,0.127469,20.8947,71.4629,-0.52122,0.0,0.0
522,130.25,76.8033,85.2592,135.982,99.9806,105.881,0.0111583,0.126477,20.8952,71.4429,-0.521764,0.0,0.0
525,131,76.3433,84.9138,133.342,99.9914,105.781,0.0112459,0.125528,20.8959,71.4729,-0.512264,0.0,0.0
528,131.75,76.0173,84.4933,138.445,99.9922,105.727,0.0113563,0.124745,20.8965,71.4329,-0.507503,0.0,0.0
531,132.5,75.896,84.3327,133.228,99.9767,105.818,0.011471,0.12402,20.8968,71.4129,-0.516784,0.0,0.0
534,133.25,74.4742,84.1686,134.268,99.9735,105.755,0.0115468,0.123348,20.8971,71.3829,-0.511613,0.0,0.0
537,134,75.2755,83.8846,138.029,99.9731,105.917,0.0116628,0.1227,20.8974,71.3829,-0.525588,0.0,0.0
540,134.75,75.1151,83.4355,133.525,99.9691,105.645,0.0117664,0.122161,20.8975,71.4129,-0.502553,0.0,0.0
543,135.5,74.9734,83.5514,134.783,99.9671,105.725,0.0118536,0.121698,20.8977,71.3528,-0.509637,0.0,0.0
546,136.25,74.7721,83.1731,136.5,99.9679,105.899,0.0119319,0.121089,20.8978,71.3428,-0.524513,0.0,0.0
549,137,74.4987,82.9579,133.518,99.9775,105.652,0.0119938,0.120516,20.8978,71.3428,-0.502411,0.0,0.0
552,137.75,73.8942,82.4204,135.433,99.9802,105.492,0.0120471,0.119771,20.8979,71.3528,-0.488377,0.0,0.0
555,138.5,74.1261,82.2663,131.806,99.9751,105.2,0.0121093,0.119175,20.8979,71.3028,-0.463603,0.0,0.0
558,139.25,73.7675,81.0169,129.187,99.9763,105.499,0.0121783,0.11865,20.8979,71.2928,-0.489284,0.0,0.0
561,140,73.7567,82.2276,133.952,99.9599,105.511,0.012252,0.118186,20.8986,71.2628,-0.491823,0.0,0.0
564,140.75,73.637,81.3397,138.836,99.9806,105.633,0.0123353,0.117818,20.899,71.3328,-0.500452,0.0,0.0
567,141.5,73.2483,81.6814,132.643,99.9771,105.738,0.01238,0.117498,20.8993,71.3228,-0.509814,0.0,0.0
570,142.25,73.2492,81.3341,134.153,99.9715,105.916,0.0124315,0.117164,20.8996,71.2828,-0.525656,0.0,0.0
573,143,73.1614,80.9039,136.806,99.9727,105.131,0.0124643,0.116795,20.9,71.2628,-0.45786,0.0,0.0
576,143.75,72.8368,80.923,133.719,99.9958,105.595,0.0124883,0.116302,20.9007,71.3328,-0.49585,0.0,0.0
579,144.5,72.8922,80.7344,137.987,99.9763,105.582,0.0124909,0.115951,20.9014,71.2928,-0.496506,0.0,0.0
582,145.25,72.6868,81.0796,131.79,99.9611,105.26,0.0124928,0.11543,20.902,71.2227,-0.470055,0.0,0.0
585,146,72.5096,80.2886,130.181,99.9743,105.14,0.012535,0.115002,20.9024,71.2027,-0.458494,0.0,0.0
588,146.75,72.282,79.897,136.19,99.9755,106.108,0.0125753,0.114568,20.9028,71.2227,-0.541798,0.0,0.0
591,147.5,72.1698,79.9368,133.637,99.9834,105.632,0.0126211,0.114251,20.903,71.2528,-0.500081,0.0,0.0
594,148.25,71.9712,79.0153,134.316,99.981,105.409,0.0126285,0.113963,20.9032,71.2127,-0.481075,0.0,0.0
597,149,72.0635,79.556,134.137,99.9735,105.263,0.0126014,0.113729,20.9033,71.2227,-0.469201,0.0,0.0
600,149.75,71.4736,79.4582,133.954,99.9731,105.472,0.0125549,0.113415,20.9034,71.2427,-0.487282,0.0,0.0
603,150.5,71.7069,78.908,135.059,99.9842,104.949,0.0124987,0.11303,20.9034,71.1927,-0.441045,0.0,0.0
606,151.25,71.7864,80.0035,130.96,99.9607,105.473,0.0124318,0.112681,20.9039,71.1627,-0.488448,0.0,0.0
609,152,71.7721,79.0538,136.258,99.9675,105.577,0.0123831,0.112346,20.9045,71.1427,-0.496839,0.0,0.0
612,152.75,71.1198,78.8001,133.45,99.9723,105.79,0.0123383,0.112041,20.9049,71.1927,-0.514706,0.0,0.0
615,153.5,71.2595,78.4491,136.307,99.9826,105.234,0.012316,0.111804,20.9052,71.1927,-0.465834,0.0,0.0
618,154.25,71.8959,78.1532,133.621,99.9699,105.572,0.0123145,0.111625,20.9054,71.1627,-0.496195,0.0,0.0
621,155,70.5576,78.1973,131.964,99.9595,106.134,0.0123308,0.111393,20.9055,71.1326,-0.545415,0.0,0.0
624,155.75,70.2369,77.9941,133.237,99.9854,105.255,0.0123743,0.111186,20.9056,71.0826,-0.46741,0.0,0.0
627,156.5,70.6682,77.5377,133.147,99.9703,105.15,0.0124169,0.110971,20.9057,71.1527,-0.459715,0.0,0.0
630,157.25,71.3349,77.5425,132.837,99.9327,105.568,0.0124667,0.110712,20.9058,71.1326,-0.499265,0.0,0.0
633,158,70.6613,77.4543,133.121,99.9611,105.722,0.0125017,0.110516,20.9058,71.1026,-0.50995,0.0,0.0
636,158.75,70.2888,77.2864,131.965,99.9487,105.479,0.0125266,0.110361,20.9058,71.1126,-0.490122,0.0,0.0
639,159.5,70.3069,77.1498,132.239,99.9491,105.455,0.0125162,0.110247,20.9059,71.1627,-0.487987,0.0,0.0
642,160.25,70.193,76.8553,133.318,99.9471,105.744,0.0124889,0.110127,20.9059,71.1126,-0.513044,0.0,0.0
645,161,69.7527,76.9512,132.457,99.9291,106.056,0.0124562,0.109975,20.9059,71.0726,-0.541495,0.0,0.0
648,161.75,69.7129,76.9912,134.344,99.9248,105.484,0.0124156,0.109797,20.9059,71.0726,-0.492691,0.0,0.0
651,162.5,70.0811,76.2548,135.868,99.9467,105.99,0.012377,0.109551,20.9059,71.1126,-0.534253,0.0,0.0
654,163.25,69.9057,76.4453,134.601,99.92,105.915,0.0123409,0.109372,20.9059,71.0426,-0.530269,0.0,0.0
657,164,69.8166,76.3491,133.305,99.8964,104.971,0.0123075,0.109272,20.9059,71.0426,-0.450957,0.0,0.0
660,164.75,69.7854,76.2769,133.276,99.8816,105.559,0.0122869,0.10925,20.9059,71.0225,-0.503066,0.0,0.0
663,165.5,69.2054,75.8552,130.429,99.8772,105.691,0.0122719,0.109112,20.9059,71.0826,-0.514872,0.0,0.0
666,166.25,69.1873,76.2807,139.624,99.8732,105.819,0.0122634,0.10894,20.9059,71.0225,-0.526279,0.0,0.0
669,167,69.1135,75.5368,133.047,99.8481,105.595,0.0122583,0.108784,20.9064,71.0025,-0.509266,0.0,0.0
672,167.75,68.8608,75.2129,140.637,99.8417,105.223,0.0122519,0.108671,20.9069,71.0025,-0.477736,0.0,0.0
675,168.5,68.2706,74.2234,137.326,99.8245,106.029,0.0122425,0.108531,20.9068,71.0225,-0.548747,0.0,0.0
678,169.25,67.7441,73.9063,133.578,99.8022,105.59,0.0122468,0.108405,20.9067,71.0225,-0.512986,0.0,0.0
681,170,67.6499,73.3023,137.884,99.7866,105.455,0.0122603,0.108297,20.9065,70.9925,-0.502832,0.0,0.0
684,170.75,67.8627,73.4305,132.915,99.777,104.471,0.0122823,0.108192,20.9059,70.9725,-0.418323,0.0,0.0
687,171.5,67.1528,73.2331,138.52,99.7551,104.946,0.0123017,0.108101,20.9054,70.9925,-0.461616,0.0,0.0
690,172.25,66.7788,73.2512,136.632,99.7487,105.175,0.0123233,0.108013,20.9051,70.9525,-0.482091,0.0,0.0
693,173,66.9638,72.76,133.429,99.7243,105.168,0.0123342,0.107924,20.9049,70.9425,-0.483689,0.0,0.0
696,173.75,66.7351,72.7001,134.821,99.7108,104.79,0.012334,0.107838,20.9047,70.9325,-0.452138,0.0,0.0
699,174.5,66.6819,72.7416,136.956,99.6984,105.26,0.0123153,0.107776,20.9046,70.8724,-0.493964,0.0,0.0
702,175.25,66.7696,72.3497,133.686,99.68,105.161,0.0122949,0.107746,20.9045,70.9725,-0.487111,0.0,0.0
705,176,67.0265,71.9849,135.921,99.668,105.074,0.0122683,0.107749,20.9045,70.9325,-0.48068,0.0,0.0
708,176.75,66.8545,72.8655,135.098,99.6561,105.102,0.0122156,0.107737,20.9044,70.9425,-0.48423,0.0,0.0
711,177.5,66.868,72.6664,135.29,99.6481,105.417,0.012169,0.107702,20.9044,70.9425,-0.512134,0.0,0.0
714,178.25,66.5893,72.0967,135.894,99.6321,105.236,0.0121354,0.107575,20.9048,71.0225,-0.497952,0.0,0.0
717,179,66.3463,72.2262,133.148,99.6205,105.591,0.0120823,0.107425,20.9053,70.9024,-0.529642,0.0,0.0
720,179.75,66.4589,71.6995,133.737,99.6081,105.242,0.0120375,0.107292,20.9056,70.8924,-0.500724,0.0,0.0
723,180.5,66.4518,72.3551,134.724,99.6129,105.454,0.0119997,0.107073,20.9059,70.8424,-0.51853,0.0,0.0
726,181.25,66.2219,71.5462,140.254,99.6061,105.032,0.0119733,0.106961,20.9061,70.9024,-0.482666,0.0,0.0
729,182,66.3682,71.6049,130.642,99.5718,105.201,0.0119599,0.106872,20.9062,70.8724,-0.500422,0.0,0.0
732,182.75,65.9922,71.521,133.509,99.5554,105.347,0.0119557,0.106808,20.9063,70.8524,-0.514609,0.0,0.0
735,183.5,66.2798,71.226,133.916,99.5275,105.206,0.0119526,0.10676,20.9064,70.8124,-0.504902,0.0,0.0
738,184.25,66.0976,71.2571,136.174,99.5131,105.727,0.0119476,0.106755,20.9064,70.8424,-0.551211,0.0,0.0
741,185,65.9748,71.3133,136.131,99.498,104.84,0.0119393,0.10677,20.9065,70.8524,-0.47592,0.0,0.0
744,185.75,66.1218,70.8309,133.166,99.4664,104.446,0.0119312,0.106771,20.9065,70.8324,-0.44454,0.0,0.0
747,186.5,65.77,71.0856,135.027,99.4433,105.432,0.0119218,0.106734,20.9065,70.8024,-0.532179,0.0,0.0
750,187.25,65.8948,70.5605,134.796,99.4237,105.057,0.0119357,0.106666,20.9065,70.8424,-0.501535,0.0,0.0
753,188,65.0823,70.8388,135.525,99.4017,105.174,0.011967,0.106617,20.9066,70.8324,-0.513643,0.0,0.0
756,188.75,65.4697,70.6948,131.628,99.3618,105.081,0.0120109,0.106591,20.9068,70.7523,-0.509307,0.0,0.0
759,189.5,65.4357,70.4173,134.942,99.3195,104.67,0.0120663,0.106477,20.907,70.7223,-0.477509,0.0,0.0
762,190.25,65.1911,70.4231,133.434,99.2967,104.476,0.0121166,0.106357,20.9071,70.7423,-0.462706,0.0,0.0
765,191,65.4991,70.6031,134.653,99.26,104.504,0.012187,0.106271,20.9073,70.7723,-0.468504,0.0,0.0
768,191.75,65.2595,70.1339,138.211,99.25,104.293,0.0122331,0.106201,20.9075,70.7123,-0.45105,0.0,0.0
771,192.5,65.3873,69.9895,134.137,99.2584,105.018,0.0123253,0.106137,20.9072,70.7123,-0.513322,0.0,0.0
774,193.25,65.2896,70.0089,134.42,99.272,104.634,0.0124463,0.106128,20.9069,70.7423,-0.478731,0.0,0.0
777,194,65.6313,70.2298,131.92,99.2919,104.812,0.0125344,0.106186,20.9066,70.7723,-0.49232,0.0,0.0
780,194.75,65.2946,70.0626,134.029,99.3071,104.485,0.0126414,0.106229,20.9064,70.6622,-0.462578,0.0,0.0
783,195.5,65.2441,69.9975,134.633,99.3199,105.213,0.0127116,0.10625,20.9063,70.6622,-0.524567,0.0,0.0
786,196.25,65.3923,69.8867,133.735,99.3315,104.988,0.0127457,0.106213,20.9062,70.6823,-0.50405,0.0,0.0
789,197,65.1025,69.6746,136.079,99.3802,105.091,0.0127472,0.106215,20.9061,70.7423,-0.508445,0.0,0.0
792,197.75,65.4034,69.5654,136.147,99.3842,104.769,0.0127171,0.106229,20.9061,70.7123,-0.480156,0.0,0.0
795,198.5,64.7534,69.436,133.83,99.4041,104.875,0.0126777,0.106239,20.906,70.6823,-0.487593,0.0,0.0
798,199.25,64.654,69.1847,136.887,99.4221,104.912,0.012642,0.106203,20.906,70.6522,-0.489152,0.0,0.0
801,200,65.0537,69.7736,132.433,99.4524,105.171,0.0126196,0.106137,20.906,70.6722,-0.508807,0.0,0.0
804,200.75,65.2566,69.2387,133.614,99.4812,105.178,0.0126033,0.10605,20.906,70.6422,-0.506722,0.0,0.0
807,201.5,65.01,69.3784,130.45,99.49,104.627,0.012597,0.105986,20.9064,70.5421,-0.458143,0.0,0.0
810,202.25,64.7706,69.0615,135.546,99.5235,105.154,0.0125976,0.105918,20.9069,70.5621,-0.500787,0.0,0.0
813,203,65.1061,69.2807,135.631,99.5507,105.256,0.0126003,0.105829,20.9073,70.6622,-0.507146,0.0,0.0
816,203.75,64.6897,69.4285,133.437,99.567,105.504,0.0126059,0.10575,20.9075,70.7823,-0.527076,0.0,0.0
819,204.5,65.0989,69.2852,133.945,99.587,105.556,0.0125989,0.105687,20.9077,70.6022,-0.529718,0.0,0.0
822,205.25,64.5751,68.8813,136.984,99.6137,105.243,0.0125678,0.10562,20.9081,70.6122,-0.500292,0.0,0.0
825,206,65.1688,68.8821,133.073,99.6321,105.306,0.0125341,0.105515,20.9088,70.6522,-0.504024,0.0,0.0
828,206.75,64.6717,68.8963,132.504,99.6557,105.462,0.0124502,0.105384,20.9092,70.6522,-0.515328,0.0,0.0
831,207.5,65.0646,68.6585,134.421,99.6668,105.649,0.0123659,0.105237,20.9096,70.5822,-0.530418,0.0,0.0
834,208.25,64.3933,68.5981,141.106,99.6904,105.597,0.0122647,0.105049,20.9099,70.5822,-0.523805,0.0,0.0
837,209,65.1083,69.0168,133.124,99.7028,105.387,0.0121832,0.104883,20.91,70.5822,-0.504535,0.0,0.0
840,209.75,64.4158,68.8821,131.546,99.7383,105.727,0.0121204,0.10475,20.9102,70.5822,-0.53068,0.0,0.0
843,210.5,64.7784,68.7306,135.194,99.7511,105.473,0.0121024,0.104612,20.9098,70.5321,-0.507628,0.0,0.0
846,211.25,64.8143,68.7119,134.747,99.7782,105.429,0.0121023,0.104535,20.9094,70.5321,-0.501304,0.0,0.0
849,212,64.3758,68.486,140.06,99.7914,105.787,0.012109,0.104516,20.9091,70.5021,-0.53099,0.0,0.0
852,212.75,64.4995,68.5665,134.169,99.8182,105.763,0.0121163,0.104603,20.9089,70.5521,-0.526498,0.0,0.0
855,213.5,64.1856,68.0864,133.097,99.8405,105.457,0.0121168,0.104708,20.9087,70.5121,-0.498036,0.0,0.0
858,214.25,64.4427,68.152,135.511,99.8481,105.31,0.012109,0.104785,20.9088,70.4821,-0.484668,0.0,0.0
861,215,64.4092,68.1555,135.701,99.8697,105.757,0.0120979,0.104841,20.9089,70.5121,-0.521261,0.0,0.0
864,215.75,64.384,68.305,137.829,99.9204,105.713,0.0120805,0.104882,20.909,70.5621,-0.512844,0.0,0.0
867,216.5,64.2741,67.867,134.496,99.9248,105.601,0.0120751,0.10484,20.9093,70.4821,-0.502787,0.0,0.0
870,217.25,64.3489,68.3468,133.435,99.9188,106.138,0.0120733,0.10478,20.9099,70.4621,-0.549509,0.0,0.0
873,218,64.0057,68.4024,134.71,99.9395,105.73,0.0120754,0.104736,20.9103,70.432,-0.512533,0.0,0.0
876,218.75,64.4907,67.7917,134.536,99.9707,106.021,0.0120789,0.104689,20.9106,70.4721,-0.534778,0.0,0.0
879,219.5,64.0603,67.8372,135.68,99.9818,105.663,0.0120862,0.104629,20.9109,70.4621,-0.502942,0.0,0.0
882,220.25,64.4284,68.2132,133.038,99.9683,105.842,0.0120996,0.104605,20.9104,70.432,-0.519561,0.0,0.0
885,221,64.4881,68.0893,133.394,99.9906,105.774,0.0121211,0.104674,20.9101,70.432,-0.511678,0.0,0.0
888,221.75,64.4337,67.6224,137.116,99.999,104.93,0.0121418,0.10476,20.9098,70.4821,-0.438061,0.0,0.0
891,222.5,64.1682,67.7511,136.429,100.016,105.427,0.0121624,0.104944,20.9097,70.442,-0.47947,0.0,0.0
894,223.25,64.2737,67.7351,134.948,100.001,105.742,0.0121735,0.105051,20.9095,70.402,-0.508021,0.0,0.0
897,224,64.2263,67.9126,134.564,100.006,105.517,0.0121813,0.105116,20.9094,70.372,-0.488112,0.0,0.0
900,224.75,64.2558,67.6151,131.531,100.024,105.6,0.0121894,0.105106,20.9094,70.392,-0.493621,0.0,0.0
903,225.5,63.9194,67.4304,134.559,100.019,106.11,0.0122082,0.105075,20.9093,70.402,-0.537957,0.0,0.0
906,226.25,64.0818,67.3201,131.29,100.025,105.709,0.0122349,0.105073,20.9093,70.3419,-0.502934,0.0,0.0
909,227,64.4857,67.3784,133.329,100.021,105.897,0.0122687,0.105057,20.9093,70.3419,-0.519525,0.0,0.0
912,227.75,64.2697,67.4825,133.466,100.022,105.91,0.0123086,0.104987,20.9099,70.3319,-0.520576,0.0,0.0
915,228.5,63.6406,67.6732,135.169,100.017,105.722,0.0123514,0.104831,20.9103,70.362,-0.504787,0.0,0.0
918,229.25,64.14,67.4966,137.305,100.013,105.287,0.0124059,0.104692,20.9106,70.3419,-0.467628,0.0,0.0
921,230,64.3575,67.4592,133.66,100.001,105.522,0.0124613,0.10457,20.9109,70.3219,-0.488976,0.0,0.0
924,230.75,63.6603,67.3866,135.155,100.001,105.789,0.0125131,0.104481,20.911,70.372,-0.512015,0.0,0.0
927,231.5,64.5271,66.9818,131.503,99.9874,105.794,0.0125591,0.104417,20.9112,70.362,-0.513673,0.0,0.0
930,232.25,63.7917,67.4111,131.203,99.9735,105.886,0.0126053,0.104441,20.9108,70.3119,-0.522883,0.0,0.0
933,233,64.0754,66.9039,135.787,99.9527,105.724,0.0126212,0.104488,20.9105,70.2819,-0.51083,0.0,0.0
936,233.75,64.5003,67.1429,134.646,99.9507,105.387,0.0126338,0.104625,20.9102,70.2819,-0.482011,0.0,0.0
939,234.5,63.9534,66.945,133.615,99.9479,105.595,0.0126359,0.104747,20.9099,70.352,-0.500173,0.0,0.0
942,235.25,63.9436,66.7605,132.47,99.914,105.497,0.0126265,0.104886,20.9097,70.3219,-0.494839,0.0,0.0
945,236,63.9499,67.0893,133.549,99.8908,105.881,0.0126009,0.104906,20.9096,70.2619,-0.529944,0.0,0.0
948,236.75,64.0421,66.7255,138.203,99.872,105.608,0.0125789,0.104872,20.9095,70.2819,-0.508208,0.0,0.0
951,237.5,63.7751,67.2406,134.681,99.8685,105.743,0.012557,0.104823,20.9092,70.2919,-0.520169,0.0,0.0
954,238.25,63.2592,66.7542,137.245,99.8405,105.406,0.0125527,0.104585,20.909,70.2919,-0.493644,0.0,0.0
957,239,63.9306,66.9503,134.402,99.8194,105.431,0.0125607,0.104411,20.9089,70.2419,-0.497749,0.0,0.0
960,239.75,63.5131,67.1539,141.086,99.7862,105.03,0.0125771,0.104199,20.9094,70.2819,-0.466113,0.0,0.0
963,240.5,64.1679,66.9014,136.203,99.7762,105.237,0.012602,0.104008,20.9098,70.3119,-0.484875,0.0,0.0
966,241.25,63.6059,66.9372,136.863,99.7355,105.813,0.0126162,0.103869,20.9101,70.3019,-0.538297,0.0,0.0
969,242,63.7114,66.5258,133.475,99.7127,105.346,0.012625,0.103808,20.9097,70.2519,-0.500163,0.0,0.0
972,242.75,63.637,66.5997,134.616,99.688,105.017,0.0126197,0.103806,20.9094,70.2118,-0.473903,0.0,0.0
975,243.5,64.0443,66.6478,136.778,99.662,105.056,0.012596,0.103823,20.9091,70.2519,-0.479706,0.0,0.0
978,244.25,63.6409,67.2666,136.407,99.6545,105.072,0.0125657,0.103876,20.909,70.2519,-0.481725,0.0,0.0
981,245,63.1639,65.9602,134.339,99.6066,104.774,0.012545,0.103929,20.9088,70.2118,-0.460245,0.0,0.0
984,245.75,63.4384,66.5155,140.411,99.585,104.821,0.0125324,0.103994,20.9088,70.1818,-0.46636,0.0,0.0
987,246.5,63.1237,66.354,133.676,99.569,105.415,0.0125268,0.104055,20.9087,70.1818,-0.51924,0.0,0.0
990,247.25,63.3243,66.5971,134.168,99.5511,104.51,0.0125338,0.104106,20.9087,70.2118,-0.442368,0.0,0.0
993,248,63.3882,66.3172,135.217,99.5107,105.434,0.012548,0.104143,20.9086,70.1518,-0.526162,0.0,0.0
996,248.75,63.3517,66.2573,132.134,99.4944,104.912,0.0125623,0.104048,20.9086,70.1418,-0.48254,0.0,0.0
999,249.5,63.4455,66.5048,137.852,99.478,104.49,0.0125674,0.103987,20.9086,70.1618,-0.447325,0.0,0.0
1002,250.25,63.5038,66.4712,134.762,99.4708,104.847,0.012569,0.103955,20.9086,70.1418,-0.47903,0.0,0.0
1005,251,63.6566,66.3276,133.267,99.4648,105.128,0.0125275,0.10385,20.9086,70.1017,-0.503933,0.0,0.0
1008,251.75,63.5196,66.4395,135.589,99.4217,104.602,0.0124595,0.103751,20.9086,70.0917,-0.462197,0.0,0.0
1011,252.5,63.6847,66.3467,136.526,99.4105,104.998,0.0123939,0.103641,20.9089,70.0817,-0.497669,0.0,0.0
1014,253.25,63.4199,65.9817,137.035,99.4033,104.931,0.0123146,0.103479,20.9092,70.1418,-0.492471,0.0,0.0
1017,254,63.4648,66.5507,134.592,99.3714,104.991,0.0122658,0.103346,20.9094,70.1017,-0.500627,0.0,0.0
1020,254.75,63.4184,66.4067,135.338,99.3546,104.518,0.0122383,0.103222,20.9096,70.0717,-0.461088,0.0,0.0
1023,255.5,63.1349,66.5133,134.793,99.3243,105.187,0.0122252,0.103117,20.9097,70.0517,-0.521866,0.0,0.0
1026,256.25,63.3738,66.1194,136.184,99.3295,104.907,0.0122102,0.103035,20.9098,70.0917,-0.497204,0.0,0.0
1029,257,63.2977,66.4403,132.675,99.3163,105.12,0.0121899,0.102995,20.9092,70.0617,-0.51683,0.0,0.0
1032,257.75,63.355,66.1581,130.103,99.274,105.108,0.0121529,0.102966,20.9088,69.9916,-0.519656,0.0,0.0
1035,258.5,63.3996,66.3672,134.776,99.2684,104.233,0.0121182,0.102968,20.9085,69.9716,-0.444099,0.0,0.0
1038,259.25,63.3975,66.3682,136.034,99.2564,104.795,0.0120895,0.103007,20.9087,70.0617,-0.494169,0.0,0.0
1041,260,63.6141,66.3725,138.12,99.2616,105.028,0.0120933,0.102993,20.9093,70.0417,-0.513888,0.0,0.0
1044,260.75,63.7403,66.1327,133.271,99.2185,104.5625,0.0121065,0.10295,20.9102,69.9916,-0.477408,0.0,0.0
1047,261.5,63.1951,66.1854,136.024,99.2113,104.739,0.0121867,0.102893,20.9104,69.9916,-0.493417,0.0,0.0
1050,262.25,63.4188,66.0666,137.49,99.2181,104.578,0.0122656,0.102851,20.9103,69.9916,-0.478777,0.0,0.0
1053,263,63.5881,66.2429,135.955,99.2025,104.484,0.0123582,0.102962,20.9111,70.0217,-0.472012,0.0,0.0
1056,263.75,63.7359,65.8868,131.11,99.1837,105.114,0.0124258,0.103058,20.9117,69.9816,-0.528477,0.0,0.0
1059,264.5,63.8495,66.1351,133.793,99.1646,104.091,0.0124647,0.103134,20.9122,69.9616,-0.441227,0.0,0.0
1062,265.25,63.6745,65.91,134.214,99.1762,104.3,0.0124756,0.103049,20.9125,69.9916,-0.458374,0.0,0.0
1065,266,63.5221,66.2511,134.188,99.169,104.517,0.0124502,0.102972,20.9132,70.0417,-0.47803,0.0,0.0
1068,266.75,63.7419,66.5326,132.758,99.149,104.693,0.0124161,0.10289,20.9138,69.9816,-0.49514,0.0,0.0
1071,267.5,63.407,65.9526,137.539,99.1382,104.517,0.0123825,0.102802,20.9143,69.9716,-0.480812,0.0,0.0
1074,268.25,63.3926,65.7367,136.173,99.1302,104.361,0.0123545,0.102681,20.9147,69.9716,-0.467969,0.0,0.0
1077,269,63.4875,66.5393,136.331,99.1338,104.533,0.0123471,0.102516,20.915,70.0217,-0.482588,0.0,0.0
1080,269.75,63.6769,66.0338,132.895,99.1251,104.586,0.0123417,0.102355,20.9151,69.9516,-0.488019,0.0,0.0
1083,270.5,63.8415,65.8649,132.114,99.1019,104.22,0.0123636,0.102295,20.9153,69.9416,-0.458273,0.0,0.0
1086,271.25,62.9879,65.9816,136.207,99.1027,104.589,0.0123823,0.102275,20.9154,69.9216,-0.490307,0.0,0.0
1089,272,63.6276,66.152,137.861,99.1031,104.897,0.0123969,0.102261,20.9155,69.9516,-0.51703,0.0,0.0
1092,272.75,63.7755,66.5497,136.311,99.0871,104.724,0.0123854,0.102331,20.9155,69.9316,-0.503523,0.0,0.0
1095,273.5,63.1094,66.3901,133.72,99.0708,105.071,0.0123586,0.102338,20.9156,69.9016,-0.535107,0.0,0.0
1098,274.25,63.4696,66.1556,131.931,99.0672,104.99,0.0123075,0.102266,20.9156,69.9016,-0.528414,0.0,0.0
1101,275,63.7036,66.0382,133.236,99.0712,104.038,0.0122295,0.102171,20.9152,69.9116,-0.445198,0.0,0.0
1104,275.75,63.4029,66.1351,134.944,99.0696,104.36,0.0121662,0.102083,20.9147,69.9216,-0.473464,0.0,0.0
1107,276.5,63.3732,66.2165,132.584,99.0332,104.23,0.0121173,0.10206,20.9143,69.8415,-0.465446,0.0,0.0
1110,277.25,63.2902,65.7604,132.94,99.0364,104.067,,0.102014,,69.8315,-0.450869,0.0,0.0
1113,278,63.6081,66.0866,134.443,99.0472,104.843,,0.101924,,69.9216,-0.517475,0.0,0.0
1116,278.75,63.1939,66.2034,136.719,99.054,104.785,,0.101782,,69.8715,-0.511887,0.0,0.0
1119,279.5,63.3305,65.6318,134.151,99.0372,104.51,,0.101692,,69.7915,-0.489501,0.0,0.0
1122,280.25,63.8648,66.4568,131.768,99.0288,104.814,,,,69.8115,-0.516661,0.0,0.0
1125,281,63.3953,65.9141,134.986,99.0324,104.602,,,,69.8215,-0.497898,0.0,0.0
1128,281.75,63.8373,66.2087,140.704,99.0368,104.795,,,,69.8615,-0.514324,0.0,0.0
1131,282.5,63.4347,65.8602,134.815,99.0117,104.983,,,,69.7714,-0.532927,0.0,0.0
1134,283.25,63.7264,65.5381,133.896,99.0232,104.842,,,,69.7714,-0.519598,0.0,0.0
1137,284,63.2554,66.1582,134.369,99.0085,104.257,,,,69.7514,-0.470041,0.0,0.0
1140,284.75,63.4976,65.1703,134.161,99.0149,104.879,,,,69.7915,-0.523573,0.0,0.0
1143,285.5,63.365,66.1091,135.31,99.0129,104.977,,,,69.7614,-0.53231,0.0,0.0
1146,286.25,63.3036,66.0079,133.652,98.9945,104.245,,,,69.7414,-0.470342,0.0,0.0
1149,287,63.0225,66.0725,135.462,99.0093,104.958,,,,69.7314,-0.531001,0.0,0.0
1151,287.5,63.1348,65.9489,133.328,99.0141,105.012,,,,69.7314,-0.535244,0.0,0.0