File: 01_Data/Luan_Panel/Cone/Luan_Panel_Cone_HF50Scan_220916_R4.csv
Names,Time,Stack TC,Smoke TC,Exh Press,Smoke Comp,Smoke Meas,CO Meter,CO2 Meter,O2 Meter,Sample Mass,Ext Coeff,Start Test,Flame Verif
Chan Gain,,500,500,1,1,1,1,1,1,1,1,1.0,1.0
Offset,,0,0,0.146632,0,0,0,0,0,0,0,0.0,0.0
Gain,,1,1,25.011,13.0826,14.7555,1,1,1,1.00088,1.03743,1.0,1.0
Units,sec,C,C,Pa,%,%,%,%,%,g,/m,,
Baseline,,54.3749,55.8473,140.181,99.5192,105.229,0.000572997,0.0457717,20.981,-450.204,-0.507645,,
3,0.5,52.1349,54.5019,144.452,99.874,105.449,0.000604686,0.0490841,20.9767,85.9557,-0.49428,0.0,0.0
6,1.25,51.2329,53.1505,139.311,99.8864,105.772,0.000615458,0.0495535,20.9761,85.9357,-0.521051,0.0,0.0
9,2,50.8685,52.8032,140.864,99.89,105.425,0.000608935,0.0499236,20.9757,85.9057,-0.490804,0.0,0.0
12,2.75,51.5139,52.5667,137.406,99.8928,104.89,0.00058949,0.0502052,20.9753,85.8256,-0.444215,0.0,0.0
15,3.5,50.9338,52.397,142.169,99.8968,105.135,0.000569053,0.0504105,20.9749,85.8156,-0.46508,0.0,0.0
18,4.25,51.1892,52.505,138.948,99.9112,104.802,0.000550483,0.0505388,20.9745,85.8056,-0.43488,0.0,0.0
21,5,50.6665,53.0922,143.981,99.9132,105.147,0.00054311,0.0506177,20.9743,85.7855,-0.464679,0.0,0.0
24,5.75,51.0966,52.4004,142.294,99.9096,105.097,0.000550953,0.0506502,20.9741,85.7355,-0.460602,0.0,0.0
27,6.5,51.0257,53.1896,136.955,99.9244,105.38,0.000575882,0.0506373,20.9749,85.6955,-0.483788,0.0,0.0
30,7.25,51.315,53.1198,137.232,99.9335,105.042,0.000598954,0.0505653,20.9758,85.6855,-0.453701,0.0,0.0
33,8,50.9248,52.9823,138.416,99.9487,105.55,0.000617862,0.0505724,20.9765,85.6654,-0.49618,0.0,0.0
36,8.75,51.0231,53.145,139.441,99.9447,104.938,0.000628153,0.0506214,20.977,85.5854,-0.443667,0.0,0.0
39,9.5,51.7843,53.0903,139.028,99.9479,104.746,0.000638104,0.0507322,20.9773,85.5554,-0.426686,0.0,0.0
42,10.25,51.2743,53.1602,140.045,99.9615,104.629,0.000646402,0.0509916,20.9776,85.5854,-0.415312,0.0,0.0
45,11,51.4398,53.3988,139.675,99.9802,103.937,0.000661026,0.0513337,20.9776,85.5754,-0.353166,0.0,0.0
48,11.75,51.5081,52.8295,143.23,99.9886,103.578,0.000675343,0.0517216,20.9771,85.5053,-0.320966,0.0,0.0
51,12.5,51.6805,52.9071,138.145,99.983,102.565,0.000732981,0.0521296,20.9768,85.4453,-0.231979,0.0,0.0
54,13.25,51.2991,52.7679,137.714,100.004,102.329,0.000805357,0.0527891,20.9766,85.4753,-0.209172,0.0,0.0
57,14,51.6875,52.9711,141.085,100.011,102.029,0.000910029,0.0534242,20.9758,85.4453,-0.181842,0.0,0.0
60,14.75,51.6237,53.4279,142.162,100.02,100.603,0.001074,0.0571997,20.9643,85.3852,-0.0528689,0.0,0.0
63,15.5,51.8563,52.8741,132.393,100.019,104.598,0.00125756,0.0647034,20.939,85.2751,-0.407377,0.0,0.0
66,16.25,51.4628,53.2838,133.927,100.03,105.054,0.00144659,0.0758837,20.8997,85.215,-0.445922,0.0,1.0
69,17,51.7658,53.1694,124.519,100.043,104.355,0.00163212,0.0928963,20.8611,85.155,-0.38402,0.0,1.0
72,17.75,52.2796,52.9625,123.234,100.047,104.125,0.00176737,0.109077,20.8161,85.0349,-0.363529,0.0,1.0
75,18.5,53.7109,53.9358,127.998,100.048,103.893,0.00196484,0.131692,20.7764,84.8347,-0.343241,0.0,1.0
78,19.25,54.0917,54.303,128.781,100.065,103.62,0.00217506,0.155599,20.736,84.7346,-0.317706,0.0,1.0
81,20,54.9003,54.8194,118.257,100.07,102.927,0.00236954,0.176192,20.6903,84.6546,-0.256243,0.0,1.0
84,20.75,54.9399,54.8531,117.161,100.088,102.075,0.00258737,0.198079,20.6443,84.5244,-0.178896,0.0,1.0
87,21.5,55.2869,54.6303,122.215,100.078,101.815,0.00280577,0.225792,20.6053,84.3643,-0.156606,0.0,1.0
90,22.25,55.9903,55.1413,122.2,100.091,101.163,0.0029904,0.256238,20.5575,84.2142,-0.0969372,0.0,1.0
93,23,56.4867,56.0176,117.855,100.12,101.117,0.00322259,0.281269,20.5179,84.1741,-0.0901593,0.0,1.0
96,23.75,58.1287,56.5751,119.618,100.111,99.9712,0.00344543,0.30691,20.4851,84.024,0.0126979,0.0,0.0
99,24.5,59.0468,57.3482,118.779,100.104,100.159,0.00363072,0.329948,20.458,83.8238,-0.00499652,0.0,0.0
102,25.25,59.6529,57.8508,115.161,100.118,99.4313,0.00382819,0.35133,20.4374,83.6537,0.062632,0.0,0.0
105,26,61.1535,59.0142,116.979,100.136,99.5484,0.00401585,0.370374,20.4207,83.5836,0.0535558,0.0,0.0
108,26.75,61.7874,59.7979,124.301,100.143,99.5614,0.0041819,0.386828,20.4086,83.4335,0.0529788,0.0,0.0
111,27.5,62.8346,60.5031,121.384,100.131,100.079,0.00433421,0.40034,20.3998,83.2433,0.00475687,0.0,0.0
114,28.25,63.7054,61.4469,124.307,100.138,99.6461,0.00447241,0.412787,20.3933,83.0932,0.0448451,0.0,0.0
117,29,64.0989,61.7846,122.464,100.151,99.8573,0.00459681,0.423807,20.3924,83.0631,0.0267032,0.0,0.0
120,29.75,65.5303,62.9052,128.545,100.156,100.398,0.00473573,0.432074,20.3956,82.903,-0.0219788,0.0,0.0
123,30.5,65.9867,63.1368,124.861,100.163,99.9136,0.00485218,0.438501,20.3997,82.7429,0.0226991,0.0,0.0
126,31.25,66.5179,64.0878,121.237,100.16,99.2494,0.00496302,0.44311,20.407,82.5827,0.0830699,0.0,0.0
129,32,67.0391,65.0727,123.995,100.171,99.7974,0.00507519,0.445991,20.4142,82.5527,0.0340123,0.0,0.0
132,32.75,67.3104,65.8099,120.907,100.195,99.1827,0.00517033,0.447886,20.4226,82.4526,0.0923756,0.0,0.0
135,33.5,68.5338,65.8286,122.029,100.187,99.3007,0.00525949,0.4477,20.4335,82.2925,0.0808681,0.0,0.0
138,34.25,68.2503,66.2308,126.579,100.193,99.4227,0.00532317,0.446867,20.4435,82.1624,0.0701987,0.0,0.0
141,35,68.4143,66.7417,126.69,100.203,100.456,0.00536733,0.445069,20.4561,82.1223,-0.0229587,0.0,0.0
144,35.75,68.9344,67.2165,123.24,100.226,99.9501,0.00537087,0.442689,20.4709,82.0122,0.0250708,0.0,0.0
147,36.5,69.6842,67.9746,126.92,100.221,100.495,0.00534336,0.439125,20.4869,81.8421,-0.0248393,0.0,0.0
150,37.25,69.2385,67.9309,127.552,100.215,100.57,0.00529133,0.433893,20.5033,81.732,-0.0321898,0.0,0.0
153,38,69.8355,68.2222,128.239,100.239,101.515,0.0052207,0.428227,20.5203,81.6919,-0.115067,0.0,0.0
156,38.75,70.1413,69.4481,131.397,100.25,101.353,0.00514351,0.423307,20.5326,81.5818,-0.0995439,0.0,0.0
159,39.5,70.5276,69.1576,128.193,100.248,101.953,0.0050433,0.417561,20.546,81.4317,-0.153538,0.0,0.0
162,40.25,70.5051,69.5105,127.853,100.247,101.206,0.00492387,0.411662,20.5558,81.3016,-0.0866791,0.0,0.0
165,41,71.0781,69.4543,128.565,100.253,102.168,0.00483681,0.405836,20.5667,81.2215,-0.172219,0.0,0.0
168,41.75,70.861,69.506,127.934,100.276,101.293,0.00473592,0.400227,20.5758,81.1415,-0.0918494,0.0,0.0
171,42.5,71.0786,70.0799,127.476,100.274,101.438,0.00466112,0.394852,20.583,81.0614,-0.104972,0.0,0.0
174,43.25,71.0565,70.3549,133.252,100.264,102.275,0.00460605,0.390386,20.5907,80.9012,-0.180705,0.0,0.0
177,44,71.6739,71.3092,129.941,100.273,102.025,0.00457482,0.3865,20.5972,80.8312,-0.157648,0.0,0.0
180,44.75,71.1734,71.0346,124.44,100.284,101.474,0.00455929,0.382185,20.6024,80.7811,-0.10741,0.0,0.0
183,45.5,71.8986,70.6184,127.571,100.283,102.315,0.00456033,0.378345,20.6086,80.6911,-0.182491,0.0,0.0
186,46.25,71.843,71.4444,126.684,100.272,102.777,0.00456484,0.374792,20.6131,80.4909,-0.224622,0.0,0.0
189,47,71.9913,71.4481,126.964,100.278,102.349,0.00456776,0.371608,20.6165,80.3908,-0.186009,0.0,0.0
192,47.75,72.1284,72.3041,130.492,100.298,102.7,0.00456651,0.368821,20.6189,80.3808,-0.215331,0.0,0.0
195,48.5,72.0894,71.7204,127.708,100.301,103.002,0.00455685,0.366641,20.6202,80.2907,-0.241775,0.0,0.0
198,49.25,72.1857,72.1208,127.795,100.302,103.172,0.00454476,0.364796,20.621,80.0805,-0.25677,0.0,0.0
201,50,72.4366,72.4277,125.003,100.302,102.915,0.00453701,0.363584,20.6196,79.9704,-0.233985,0.0,0.0
204,50.75,71.9455,72.8825,127.091,100.307,103.176,0.00453518,0.363048,20.6154,79.9604,-0.256576,0.0,0.0
207,51.5,72.3398,72.4814,125.141,100.325,102.768,0.00453582,0.363152,20.6113,79.8803,-0.219007,0.0,0.0
210,52.25,72.7907,73.0681,125.118,100.309,102.574,0.00453966,0.364518,20.6045,79.7202,-0.203137,0.0,0.0
213,53,73.1748,73.1969,125.747,100.316,102.336,0.00454621,0.365817,20.5979,79.5901,-0.181367,0.0,0.0
216,53.75,72.8662,73.381,120.969,100.343,101.215,0.00455258,0.368089,20.5903,79.54,-0.0787586,0.0,0.0
219,54.5,73.6773,73.3662,125.294,100.331,101.934,0.00456792,0.371116,20.5831,79.46,-0.144274,0.0,0.0
222,55.25,73.4509,73.8549,128.923,100.328,102.084,0.00459411,0.373848,20.5764,79.3098,-0.157868,0.0,0.0
225,56,73.9066,73.9862,124.971,100.317,103.136,0.00462683,0.376739,20.5703,79.1497,-0.252215,0.0,0.0
228,56.75,74.0197,74.8966,122.65,100.324,101.556,0.00466307,0.379882,20.5633,79.0696,-0.111062,0.0,0.0
231,57.5,74.183,74.5382,123.084,100.334,102.066,0.00471091,0.382928,20.5574,79.0096,-0.155832,0.0,0.0
234,58.25,74.2537,74.5779,126.669,100.326,101.07,0.00475079,0.385686,20.5525,78.8995,-0.0671569,0.0,0.0
237,59,74.8364,75.0059,124.167,100.317,101.314,0.00478199,0.388071,20.5485,78.7193,-0.0900152,0.0,0.0
240,59.75,75.1016,75.2577,120.808,100.32,102.069,0.00479097,0.390069,20.5456,78.6192,-0.157305,0.0,0.0
243,60.5,75.4853,75.2068,126.31,100.323,101.958,0.00476789,0.391695,20.5435,78.5792,-0.147132,0.0,0.0
246,61.25,75.3214,75.971,127.82,100.322,102.033,0.00474093,0.393099,20.5419,78.4591,-0.15387,0.0,0.0
249,62,75.4537,76.1563,121.71,100.311,102.318,0.00468384,0.394191,20.5408,78.2689,-0.180312,0.0,0.0
252,62.75,75.5426,76.1921,126.316,100.32,102.582,0.00464808,0.395017,20.5402,78.1788,-0.202918,0.0,0.0
255,63.5,76.6547,76.7312,122.583,100.332,102.411,0.00459833,0.39574,20.5396,78.1488,-0.186639,0.0,0.0
258,64.25,76.1254,76.9278,125.109,100.324,103.178,0.00454564,0.39637,20.5391,78.0187,-0.25529,0.0,0.0
261,65,76.4392,76.7337,121.921,100.322,102.805,0.00447913,0.396964,20.5393,77.8686,-0.222566,0.0,0.0
264,65.75,76.6081,77.3736,123.835,100.307,102.35,0.00438824,0.397375,20.5397,77.7084,-0.183477,0.0,0.0
267,66.5,76.7316,77.9591,126.413,100.326,102.992,0.0043039,0.39785,20.54,77.7184,-0.238619,0.0,0.0
270,67.25,76.88,77.6718,121.644,100.311,102.883,0.00421126,0.398758,20.5402,77.6184,-0.230437,0.0,0.0
273,68,76.8985,78.2319,126.498,100.303,103.583,0.00412652,0.399691,20.5403,77.4482,-0.292813,0.0,0.0
276,68.75,77.7201,78.1454,123.742,100.288,103.282,0.00405801,0.400835,20.5385,77.3081,-0.267723,0.0,0.0
279,69.5,77.3776,78.7328,124.652,100.293,103.508,0.00400097,0.402253,20.5364,77.2981,-0.287144,0.0,0.0
282,70.25,77.6898,78.555,121.188,100.293,103.492,0.00393946,0.403536,20.5335,77.168,-0.285683,0.0,0.0
285,71,78.1617,78.962,119.197,100.288,103.494,0.00387304,0.405726,20.5298,76.9978,-0.286391,0.0,0.0
288,71.75,78.1211,79.1655,118.102,100.278,103.273,0.00380223,0.407759,20.5263,76.8577,-0.267872,0.0,0.0
291,72.5,78.0968,79.9485,123.999,100.272,103.946,0.00372755,0.409988,20.5224,76.7976,-0.327545,0.0,0.0
294,73.25,78.0583,79.6146,124.06,100.269,104.046,0.00367311,0.412627,20.5193,76.7176,-0.33647,0.0,0.0
297,74,78.3624,80.1949,125.702,100.256,104.138,0.0036281,0.415264,20.5156,76.5874,-0.345772,0.0,0.0
300,74.75,78.5198,80.4094,126.041,100.258,104.313,0.00359526,0.417903,20.5124,76.4173,-0.36085,0.0,0.0
303,75.5,79.189,80.5579,124.923,100.249,103.79,0.00357125,0.420533,20.5082,76.3673,-0.315883,0.0,0.0
306,76.25,79.1796,80.8895,119.107,100.26,103.876,0.0035637,0.423722,20.5041,76.2572,-0.322479,0.0,0.0
309,77,79.1863,81.0372,125.19,100.253,103.851,0.00357422,0.426046,20.4998,76.1671,-0.32081,0.0,0.0
312,77.75,79.6519,80.994,123.446,100.235,103.908,0.00360203,0.429243,20.495,75.9769,-0.327564,0.0,0.0
315,78.5,79.8337,81.6078,125.894,100.227,103.745,0.00367201,0.432574,20.4903,75.9269,-0.314001,0.0,0.0
318,79.25,79.7051,81.4822,122.813,100.233,103.685,0.00375916,0.435429,20.4862,75.8168,-0.308166,0.0,0.0
321,80,80.2978,81.5339,119.568,100.228,102.77,0.00383809,0.438947,20.482,75.7067,-0.227935,0.0,0.0
324,80.75,80.3334,82.1526,120.765,100.217,103.243,0.00393554,0.442291,20.478,75.4865,-0.270757,0.0,0.0
327,81.5,80.3881,82.4159,125.214,100.205,102.167,0.00402754,0.445568,20.4735,75.4264,-0.176412,0.0,0.0
330,82.25,80.585,83.0578,123.767,100.202,102.941,0.00410134,0.44882,20.469,75.3664,-0.245391,0.0,0.0
333,83,81.0364,82.519,122.668,100.207,101.701,0.0041498,0.452334,20.4635,75.2463,-0.134659,0.0,0.0
336,83.75,81.492,82.9817,126.924,100.204,102.071,0.00417764,0.455383,20.4579,75.0461,-0.16805,0.0,0.0
339,84.5,81.4508,83.312,122.474,100.182,101.107,0.00419475,0.459472,20.4526,74.966,-0.0836447,0.0,0.0
342,85.25,81.6825,83.3556,120.311,100.179,101.185,0.00420721,0.463245,20.4488,74.896,-0.0909438,0.0,0.0
345,86,81.5996,83.54,121.198,100.184,101.185,0.0042326,0.466494,20.446,74.7859,-0.090431,0.0,0.0
348,86.75,81.7986,83.8858,123.032,100.166,100.82,0.00425804,0.469139,20.4439,74.5857,-0.0591594,0.0,0.0
351,87.5,82.3952,84.2442,122.706,100.158,100.263,0.0042766,0.470964,20.4424,74.4656,-0.00950328,0.0,0.0
354,88.25,82.7329,84.382,123.753,100.165,100.317,0.00432134,0.472116,20.4421,74.4155,-0.0137173,0.0,0.0
357,89,82.6392,84.9769,119.737,100.157,100.27,0.00437121,0.47265,20.4432,74.3154,-0.0102304,0.0,0.0
360,89.75,82.6921,85.1707,129.094,100.142,100.399,0.00441431,0.47304,20.4453,74.2154,-0.0233665,0.0,0.0
363,90.5,83.0384,84.9604,126.786,100.137,99.307,0.00445821,0.472622,20.449,74.0352,0.0757195,0.0,0.0
366,91.25,82.9763,85.4576,122.259,100.116,99.2958,0.00449771,0.472018,20.4533,73.9651,0.0749007,0.0,0.0
369,92,83.1718,85.5649,122.749,100.123,100.109,0.00453431,0.470835,20.4576,73.8851,0.00128761,0.0,0.0
372,92.75,83.1466,85.7482,122.487,100.101,99.8388,0.00456887,0.469879,20.4608,73.815,0.0238504,0.0,0.0
375,93.5,83.0966,86.0607,122.063,100.088,99.4372,0.00459906,0.46902,20.4633,73.6148,0.0593734,0.0,0.0
378,94.25,83.405,85.6454,123.056,100.082,99.4921,0.00462321,0.468241,20.4655,73.4947,0.0538038,0.0,0.0
381,95,83.2534,86.0941,123.017,100.082,99.9789,0.00463189,0.467386,20.4676,73.5047,0.0093877,0.0,0.0
384,95.75,83.6194,86.338,127.382,100.07,98.6523,0.00463358,0.466499,20.4693,73.3746,0.12982,0.0,0.0
387,96.5,83.6343,86.2004,124.599,100.044,99.6173,0.00462687,0.465612,20.4712,73.1845,0.0388735,0.0,0.0
390,97.25,83.8635,86.243,124.808,100.035,99.0076,0.00462198,0.464714,20.4724,73.0944,0.0939809,0.0,0.0
393,98,83.8935,86.361,128.632,100.033,99.3007,0.00461591,0.463953,20.4732,73.0643,0.0668588,0.0,0.0
396,98.75,83.9579,86.8054,124.502,100.026,99.0022,0.00460385,0.46294,20.4738,72.9142,0.0936073,0.0,0.0
399,99.5,83.6691,86.9718,121.923,99.9954,99.5547,0.00458381,0.462056,20.4742,72.7541,0.0401977,0.0,0.0
402,100.25,84.1283,86.967,126.321,99.9866,98.687,0.00454172,0.461349,20.4749,72.664,0.119066,0.0,0.0
405,101,83.9357,87.0943,121.091,99.991,99.5313,0.00449932,0.460859,20.4757,72.644,0.0419397,0.0,0.0
408,101.75,84.1473,86.9023,121.392,99.9918,99.8496,0.00440612,0.460502,20.4762,72.5539,0.0129503,0.0,0.0
411,102.5,84.1113,87.0644,120.633,99.9655,100.123,0.00433319,0.460213,20.4766,72.3337,-0.0142844,0.0,0.0
414,103.25,84.3687,87.3232,125.196,99.9563,99.9032,0.0042779,0.459955,20.4769,72.2436,0.00483276,0.0,0.0
417,104,84.524,87.4284,125.76,99.9435,100.806,0.00425182,0.459552,20.4775,72.2336,-0.0782032,0.0,0.0
420,104.75,84.4974,87.6498,124.512,99.9335,99.9586,0.00424528,0.459168,20.4786,72.1235,-0.00228279,0.0,0.0
423,105.5,84.1501,88.0525,123.874,99.9204,99.6952,0.00424715,0.458455,20.4802,71.9534,0.0205313,0.0,0.0
426,106.25,84.4349,87.4847,122.68,99.8932,100.237,0.00425076,0.457652,20.4823,71.8333,-0.0312558,0.0,0.0
429,107,84.5919,88.1154,122.981,99.896,100.714,0.00424715,0.456869,20.4841,71.8333,-0.0741922,0.0,0.0
432,107.75,84.6824,88.1575,126.189,99.8788,100.553,0.00424186,0.456171,20.4855,71.7532,-0.061219,0.0,0.0
435,108.5,84.5074,87.8447,126.078,99.8669,100.848,0.00421555,0.455502,20.4867,71.6231,-0.0889245,0.0,0.0
438,109.25,84.593,88.3043,126.385,99.8385,99.7776,0.00418024,0.454778,20.488,71.4629,0.00555594,0.0,0.0
441,110,84.7643,87.9415,125.176,99.8261,100.205,0.00414329,0.453962,20.4894,71.4729,-0.0344649,0.0,0.0
444,110.75,84.3852,88.4531,130.239,99.8325,101.143,0.00411634,0.453116,20.4912,71.3428,-0.118711,0.0,0.0
447,111.5,84.2426,88.2637,125.955,99.8118,101.186,0.00408426,0.452068,20.4938,71.2628,-0.124412,0.0,0.0
450,112.25,84.393,87.9797,125.023,99.7762,100.983,0.00404592,0.450547,20.4964,71.0826,-0.109409,0.0,0.0
453,113,84.797,88.4436,124.028,99.7619,101.041,0.00398047,0.449438,20.4995,71.0526,-0.115954,0.0,0.0
456,113.75,84.2456,88.9239,125.346,99.7623,101.171,0.00391949,0.447747,20.503,70.9725,-0.127631,0.0,0.0
459,114.5,84.3934,88.5376,124.037,99.7411,101.344,0.00380053,0.445785,20.5073,70.8824,-0.145061,0.0,0.0
462,115.25,84.6727,88.535,126.108,99.7251,101.254,0.0037138,0.443754,20.5112,70.7123,-0.138468,0.0,0.0
465,116,84.4631,88.7026,125.003,99.7108,101.011,0.00357973,0.441196,20.5158,70.6923,-0.117859,0.0,0.0
468,116.75,84.4871,88.6313,123.556,99.6996,101.031,0.00347549,0.43849,20.5199,70.6622,-0.120704,0.0,0.0
471,117.5,84.4184,88.7019,127.118,99.6888,101.137,0.00338838,0.43616,20.5241,70.5722,-0.131215,0.0,0.0
474,118.25,84.4213,88.809,130.74,99.6652,101.899,0.0033302,0.432793,20.5291,70.422,-0.201666,0.0,0.0
477,119,84.6244,88.6291,126.468,99.6497,100.76,0.00329398,0.429645,20.5349,70.352,-0.100851,0.0,0.0
480,119.75,83.88,88.8916,129.074,99.6465,101.698,0.00327023,0.426161,20.5416,70.3219,-0.185425,0.0,0.0
483,120.5,84.0043,88.523,123.286,99.6273,101.32,0.00325291,0.422293,20.5489,70.2419,-0.153305,0.0,0.0
486,121.25,84.1656,88.8235,128.493,99.6121,101.373,0.00322612,0.418908,20.5573,70.1318,-0.159463,0.0,0.0
489,122,83.9689,88.5858,124.527,99.5886,101.028,0.0032066,0.414501,20.5647,70.0417,-0.130557,0.0,0.0
492,122.75,83.4772,88.4951,127.114,99.587,101.763,0.00315168,0.409335,20.5719,70.0317,-0.196742,0.0,0.0
495,123.5,83.8805,88.3523,125.572,99.5698,101.649,0.00308066,0.404002,20.5795,69.9616,-0.188036,0.0,0.0
498,124.25,83.671,88.2824,127.921,99.5503,101.822,0.00300199,0.399447,20.5878,69.8916,-0.205292,0.0,0.0
501,125,83.4179,88.5267,129.073,99.5275,101.616,0.00292124,0.392917,20.5982,69.8015,-0.189001,0.0,0.0
504,125.75,83.3009,88.7341,128,99.5179,102.048,0.00284295,0.386544,20.6124,69.8215,-0.22851,0.0,0.0
507,126.5,83.4352,88.4327,131.237,99.5047,102.683,0.00278464,0.379139,20.6255,69.7815,-0.28616,0.0,0.0
510,127.25,83.065,88.1186,130.862,99.4816,102.776,0.00274161,0.369581,20.6432,69.6814,-0.296495,0.0,0.0
513,128,83.0975,88.0675,129.737,99.47,103.901,0.00274192,0.360776,20.6609,69.6413,-0.396574,0.0,0.0
516,128.75,82.2011,87.9291,131.409,99.4456,103.145,0.00274215,0.351216,20.679,69.6213,-0.332379,0.0,0.0
519,129.5,82.3847,87.6386,132.152,99.4476,104.17,0.00287628,0.339515,20.6976,69.6213,-0.422174,0.0,0.0
522,130.25,81.782,87.113,131.519,99.4401,104.307,0.00303117,0.326989,20.7168,69.6013,-0.434819,0.0,0.0
525,131,81.61,87.1687,137.526,99.4033,104.789,0.00330739,0.316153,20.7356,69.4712,-0.480122,0.0,0.0
528,131.75,81.4741,86.8833,134.108,99.3961,105.025,0.00361984,0.303846,20.7532,69.4912,-0.501248,0.0,0.0
531,132.5,80.5837,86.226,131.313,99.3969,104.739,0.00389499,0.292995,20.7681,69.5312,-0.476403,0.0,0.0
534,133.25,80.4046,86.6006,133.516,99.375,105.106,0.00426723,0.279837,20.7825,69.5012,-0.510284,0.0,0.0
537,134,79.7843,86.1518,140.128,99.3694,104.618,0.00472118,0.267496,20.7967,69.4011,-0.468435,0.0,0.0
540,134.75,79.1726,85.7128,132.596,99.355,105.15,0.00514921,0.256054,20.8097,69.4111,-0.515894,0.0,0.0
543,135.5,78.7171,85.4402,133.852,99.3522,105.21,0.00554749,0.245535,20.8203,69.4712,-0.521292,0.0,0.0
546,136.25,78.2854,84.9964,133.677,99.3387,105.061,0.00589773,0.236285,20.8311,69.4512,-0.509634,0.0,0.0
549,137,77.9599,84.5352,136.999,99.3127,105.167,0.00625549,0.226841,20.8408,69.3911,-0.521251,0.0,0.0
552,137.75,77.378,84.4612,140.634,99.2812,104.437,0.00659869,0.21767,20.849,69.3711,-0.46072,0.0,0.0
555,138.5,77.0886,83.7027,136.786,99.2812,105.075,0.00688402,0.210059,20.8558,69.4412,-0.516151,0.0,0.0
558,139.25,76.9196,83.3153,143.41,99.2652,104.693,0.00721343,0.202929,20.8616,69.4011,-0.484443,0.0,0.0
561,140,76.3667,83.0972,136.652,99.2528,105.245,0.0075236,0.196749,20.8663,69.301,-0.533479,0.0,0.0
564,140.75,75.5494,83.1355,141.575,99.2205,105.011,0.00781042,0.190564,20.8696,69.291,-0.516137,0.0,0.0
567,141.5,75.3292,82.4737,136.044,99.2085,104.765,0.00807231,0.18492,20.8733,69.3811,-0.495903,0.0,0.0
570,142.25,75.2942,82.01,140.234,99.1993,104.791,0.0083288,0.17971,20.8769,69.3811,-0.499014,0.0,0.0
573,143,74.3217,81.9203,137.034,99.1929,104.619,0.00851577,0.174868,20.8799,69.261,-0.484689,0.0,0.0
576,143.75,74.0834,81.6124,138.676,99.1738,104.629,0.00872684,0.170042,20.8825,69.261,-0.487309,0.0,0.0
579,144.5,73.6754,81.2293,139.624,99.1586,104.065,0.00890631,0.16575,20.8846,69.301,-0.439493,0.0,0.0
582,145.25,73.2052,80.7578,135.78,99.1382,104.894,0.00906085,0.162291,20.8861,69.3211,-0.513609,0.0,0.0
585,146,72.7243,80.5049,134.802,99.1187,104.88,0.00919542,0.158895,20.8879,69.221,-0.514154,0.0,0.0
588,146.75,72.5157,80.1369,139.57,99.0955,104.784,0.00933373,0.155648,20.8896,69.221,-0.507956,0.0,0.0
591,147.5,72.658,79.9125,136.438,99.0835,104.492,0.00946405,0.152601,20.8912,69.271,-0.483638,0.0,0.0
594,148.25,72.0701,79.3165,138.885,99.0815,104.643,0.00959257,0.149655,20.8928,69.281,-0.49699,0.0,0.0
597,149,71.6438,79.0903,139.634,99.0572,104.463,0.00972207,0.146971,20.894,69.281,-0.483549,0.0,0.0
600,149.75,71.4811,78.7987,137.255,99.0484,104.446,0.00981648,0.144557,20.8948,69.1809,-0.482866,0.0,0.0
603,150.5,70.6691,78.4858,135.899,99.0256,104.784,0.00999347,0.142407,20.8955,69.251,-0.514374,0.0,0.0
606,151.25,70.6733,78.5561,136.292,99.0177,104.745,0.0101791,0.140348,20.8965,69.251,-0.511744,0.0,0.0
609,152,70.3498,77.7527,136.645,99.0029,104.88,0.0103678,0.138637,20.8973,69.211,-0.524752,0.0,0.0
612,152.75,69.7666,77.2397,137.359,98.9749,104.715,0.0105553,0.13669,20.8979,69.1509,-0.51301,0.0,0.0
615,153.5,69.9192,77.3018,136.124,98.9697,104.497,0.0107656,0.135043,20.8983,69.1609,-0.494527,0.0,0.0
618,154.25,69.5827,77.3907,139.641,98.9546,104.576,0.0109189,0.133453,20.8989,69.241,-0.50286,0.0,0.0
621,155,69.4593,76.9513,139.886,98.9382,104.696,0.0111119,0.131863,20.8996,69.221,-0.514744,0.0,0.0
624,155.75,69.2289,76.3405,139.521,98.9302,104.913,0.0112675,0.130473,20.9007,69.1209,-0.534325,0.0,0.0
627,156.5,68.4823,75.8519,136.575,98.9354,104.87,0.0114066,0.129233,20.9015,69.1209,-0.530136,0.0,0.0
630,157.25,68.4336,76.2379,138.715,98.917,104.351,0.0114933,0.128109,20.9021,69.2009,-0.486659,0.0,0.0
633,158,68.3998,75.7684,136.368,98.8983,104.539,0.0116137,0.127056,20.9024,69.2009,-0.504747,0.0,0.0
636,158.75,68.2479,75.2827,138.465,98.8851,105.025,0.0117041,0.125887,20.9028,69.1009,-0.548196,0.0,0.0
639,159.5,66.611,74.4635,136.932,98.8799,104.319,0.0117712,0.124719,20.9036,69.0908,-0.487288,0.0,0.0
642,160.25,65.9117,73.376,139.831,98.8963,103.85,0.011785,0.123732,20.9044,69.1709,-0.444756,0.0,0.0
645,161,66.1182,73.0909,138.145,98.8855,104.45,0.0117485,0.122884,20.905,69.1709,-0.498236,0.0,0.0
648,161.75,65.6755,72.3375,141.702,98.8775,104.519,0.0116734,0.121904,20.906,69.0508,-0.504972,0.0,0.0
651,162.5,65.1811,72.8126,136.355,98.8739,104.422,0.0115698,0.120885,20.9068,69.0208,-0.496869,0.0,0.0
654,163.25,65.272,72.1377,136.565,98.8891,104.766,0.011439,0.119956,20.9075,69.0908,-0.525366,0.0,0.0
657,164,65.0705,71.9843,138.09,98.8987,104.905,0.0113437,0.119199,20.9079,69.1009,-0.536563,0.0,0.0
660,164.75,64.6937,72.18,139.263,98.9142,104.474,0.0112392,0.118382,20.9083,69.0308,-0.497631,0.0,0.0
663,165.5,64.6193,71.171,140.633,98.9075,104.545,0.0111502,0.117687,20.9085,68.9908,-0.50449,0.0,0.0
666,166.25,64.177,71.1541,145.158,98.925,104.365,0.0110737,0.117091,20.9087,69.0408,-0.487181,0.0,0.0
669,167,64.0849,71.418,135.762,98.9614,104.734,0.0110042,0.11658,20.9088,69.0508,-0.515902,0.0,0.0
672,167.75,63.7009,70.7067,136.92,98.9666,104.813,0.0109384,0.116122,20.9089,69.0308,-0.522347,0.0,0.0
675,168.5,64.0184,70.3482,138.301,98.9721,104.677,0.0108702,0.115691,20.909,68.9607,-0.510018,0.0,0.0
678,169.25,63.694,70.3912,138.756,98.9941,104.81,0.0108069,0.115274,20.909,69.0108,-0.519502,0.0,0.0
681,170,63.1451,69.8641,138.956,99.028,104.891,0.0107376,0.114827,20.9091,69.0408,-0.523456,0.0,0.0
684,170.75,63.3878,70.1855,141.872,99.0456,104.937,0.0106626,0.114415,20.9089,69.0308,-0.525826,0.0,0.0
687,171.5,62.5165,69.9458,139.617,99.0692,104.613,0.010595,0.114011,20.9088,68.9507,-0.495502,0.0,0.0
690,172.25,62.985,69.6782,136.587,99.1039,105.015,0.0104675,0.113598,20.9086,68.9607,-0.527187,0.0,0.0
693,173,62.5254,69.7186,138.286,99.1378,104.738,0.0103348,0.11326,20.9085,68.9908,-0.500041,0.0,0.0
696,173.75,62.5435,69.3851,137.761,99.175,104.604,0.0102035,0.11295,20.9085,68.9807,-0.485006,0.0,0.0
699,174.5,62.3362,69.0472,136.894,99.1849,104.59,0.0100777,0.112748,20.9084,68.8907,-0.482914,0.0,0.0
702,175.25,61.8312,68.8994,138.677,99.2352,104.632,0.00994769,0.112478,20.9084,68.8807,-0.481904,0.0,0.0
705,176,62.0455,68.777,137.736,99.2704,105.454,0.00983671,0.112216,20.9084,68.9607,-0.549917,0.0,0.0
708,176.75,61.9591,68.1502,139.308,99.2991,104.965,0.00972814,0.111944,20.9084,68.9607,-0.504983,0.0,0.0
711,177.5,62.0425,68.1181,137.605,99.3235,104.835,0.00964899,0.111689,20.9083,68.8606,-0.491501,0.0,0.0
714,178.25,61.0509,68.1082,137.896,99.351,105.392,0.00950189,0.111433,20.9083,68.8306,-0.537124,0.0,0.0
717,179,61.476,68.0478,136.634,99.4009,104.981,0.00938059,0.111169,20.9083,68.9307,-0.497024,0.0,0.0
720,179.75,61.4934,67.8432,140,99.4369,104.971,0.00928618,0.110906,20.9083,68.9307,-0.492915,0.0,0.0
723,180.5,61.217,67.6893,135.59,99.5011,105.41,0.00921488,0.110684,20.9083,68.8506,-0.524978,0.0,0.0
726,181.25,61.3328,67.3076,137.738,99.5007,105.003,0.00916185,0.110544,20.9085,68.8206,-0.489842,0.0,0.0
729,182,60.6323,67.5631,136.978,99.5511,105.568,0.00911226,0.110481,20.9089,68.9007,-0.534011,0.0,0.0
732,182.75,61.1864,67.273,140.598,99.5806,105.505,0.00905568,0.11035,20.9096,68.8807,-0.525875,0.0,0.0
735,183.5,61.0808,66.9608,139.872,99.6213,105.751,0.00899026,0.110219,20.9101,68.8707,-0.543375,0.0,0.0
738,184.25,60.4985,66.7747,138.773,99.6297,105.618,0.00891616,0.110002,20.9105,68.7906,-0.53117,0.0,0.0
741,185,60.6123,66.8197,140.978,99.6792,105.751,0.00883865,0.109715,20.9107,68.8807,-0.538089,0.0,0.0
744,185.75,60.2109,66.6765,137.4,99.7223,105.845,0.00874199,0.109398,20.9109,68.8606,-0.542288,0.0,0.0
747,186.5,59.9713,66.3136,138.537,99.7439,105.784,0.00861883,0.109078,20.9109,68.8506,-0.535053,0.0,0.0
750,187.25,60.2508,66.0663,139.473,99.7635,105.227,0.00848579,0.108859,20.9104,68.7706,-0.485222,0.0,0.0
753,188,59.9548,66.1269,137.023,99.7878,105.469,0.00837036,0.108725,20.9101,68.7806,-0.503889,0.0,0.0
756,188.75,60.0246,65.65,136.401,99.8293,105.682,0.00821914,0.108671,20.9098,68.8406,-0.518425,0.0,0.0
759,189.5,59.9357,65.6472,139.752,99.8577,105.652,0.00807717,0.108656,20.9096,68.8106,-0.51332,0.0,0.0
762,190.25,59.5715,65.3411,136.088,99.8609,105.827,0.00795475,0.108659,20.9095,68.7305,-0.528066,0.0,0.0
765,191,59.7734,65.2961,137.993,99.8912,105.621,0.00785629,0.10862,20.9094,68.7305,-0.507549,0.0,0.0
768,191.75,59.7239,65.1312,134.265,99.924,105.953,0.00778452,0.108549,20.9091,68.8006,-0.533155,0.0,0.0
771,192.5,59.3006,65.1068,139.371,99.9507,106.003,0.0077847,0.108479,20.9089,68.7706,-0.53505,0.0,0.0
774,193.25,59.4833,64.7199,136.197,99.9579,105.916,0.00782168,0.108387,20.9087,68.6905,-0.526892,0.0,0.0
777,194,59.325,64.9148,141.035,99.9723,105.503,0.00788041,0.108282,20.9086,68.7205,-0.489998,0.0,0.0
780,194.75,59.5067,64.9891,134.344,100.013,105.968,0.00795069,0.10814,20.9085,68.7706,-0.526362,0.0,0.0
783,195.5,58.9702,64.5275,140.375,100.007,106.022,0.00802188,0.107966,20.9085,68.7405,-0.531512,0.0,0.0
786,196.25,59.0008,64.4675,140.385,100.025,105.929,0.00807124,0.107808,20.9091,68.6404,-0.52191,0.0,0.0
789,197,58.9235,64.6529,137.005,100.031,105.804,0.00809409,0.107672,20.9095,68.6404,-0.510566,0.0,0.0
792,197.75,59.0241,64.7295,140.467,100.045,105.537,0.00809013,0.107635,20.9098,68.7205,-0.486376,0.0,0.0
795,198.5,58.5332,64.5206,138.683,100.056,105.985,0.00807052,0.107615,20.91,68.7005,-0.523911,0.0,0.0
798,199.25,58.6074,63.9079,139.025,100.06,105.571,0.00802762,0.107613,20.9102,68.6304,-0.487868,0.0,0.0
801,200,58.5528,63.6833,137.123,100.08,105.783,0.00797098,0.107531,20.9103,68.6304,-0.504281,0.0,0.0
804,200.75,58.3513,63.6133,137.983,100.08,105.756,0.00792969,0.107425,20.9104,68.7105,-0.50203,0.0,0.0
807,201.5,58.8316,63.7759,138.715,100.082,105.999,0.00787073,0.107272,20.9104,68.7205,-0.522675,0.0,0.0
810,202.25,57.6788,62.9111,136.991,100.084,105.63,0.00782507,0.107119,20.9104,68.6605,-0.490776,0.0,0.0
813,203,58.461,63.5549,137.016,100.067,105.96,0.00778722,0.107001,20.9103,68.6004,-0.52069,0.0,0.0
816,203.75,58.4112,63.6314,133.477,100.086,105.997,0.00776143,0.106903,20.9102,68.6505,-0.522155,0.0,0.0
819,204.5,57.892,63.1841,137.206,100.082,105.94,0.00774664,0.106832,20.9106,68.6805,-0.517642,0.0,0.0
822,205.25,58.0487,62.6992,142.043,100.075,106.035,0.00774272,0.106679,20.911,68.6304,-0.526457,0.0,0.0
825,206,58.7164,62.6626,136.836,100.073,105.518,0.00775763,0.106567,20.9114,68.5504,-0.482167,0.0,0.0
828,206.75,57.9069,62.4527,137.147,100.066,105.969,0.0077801,0.1065,20.9116,68.5804,-0.521576,0.0,0.0
831,207.5,58.1732,62.605,135.353,100.068,105.96,0.00780334,0.106477,20.9118,68.6304,-0.520618,0.0,0.0
834,208.25,58.0089,62.5586,141.233,100.068,105.813,0.00781665,0.106489,20.9119,68.6304,-0.508004,0.0,0.0
837,209,57.7594,62.3576,139.608,100.044,106.24,0.00781366,0.10651,20.912,68.5203,-0.546895,0.0,0.0
840,209.75,57.921,62.4087,139.738,100.042,105.718,0.00778976,0.106423,20.9121,68.5303,-0.502225,0.0,0.0
843,210.5,57.5164,62.4301,137.716,100.057,105.548,0.00772709,0.106289,20.9121,68.5804,-0.486181,0.0,0.0
846,211.25,57.963,62.2383,135.747,100.049,105.667,0.00763829,0.106123,20.9122,68.5804,-0.497149,0.0,0.0
849,212,57.6756,62.3023,136.938,100.017,105.872,0.00755518,0.105938,20.9122,68.4803,-0.517758,0.0,0.0
852,212.75,57.6278,62.3555,138.543,100.003,105.976,0.0074946,0.105704,20.9122,68.5103,-0.527891,0.0,0.0
855,213.5,57.4307,62.0123,137.003,100.007,105.564,0.00736916,0.105476,20.9122,68.6004,-0.492153,0.0,0.0
858,214.25,57.6556,61.773,137.272,99.9886,105.927,0.00725242,0.105284,20.9122,68.5704,-0.525061,0.0,0.0
861,215,57.0661,61.4737,141.911,99.9854,106.105,0.00715654,0.105172,20.9122,68.5003,-0.54062,0.0,0.0
864,215.75,57.6898,62.0195,136.981,99.9675,105.722,0.00709396,0.105103,20.9122,68.4703,-0.50933,0.0,0.0
867,216.5,57.431,61.4453,139.961,99.9571,105.258,0.00706086,0.105024,20.9123,68.5504,-0.470263,0.0,0.0
870,217.25,57.0507,61.6218,137.577,99.9615,106.115,0.00706018,0.104909,20.9123,68.5504,-0.543612,0.0,0.0
873,218,57.0156,61.165,138.561,99.9339,106.292,0.00707488,0.104749,20.9123,68.4803,-0.561322,0.0,0.0
876,218.75,57.1927,61.5152,137.438,99.922,105.922,0.00709207,0.104612,20.9123,68.4303,-0.530628,0.0,0.0
879,219.5,57.1918,61.0761,138.731,99.902,105.581,0.00710334,0.104526,20.9123,68.5003,-0.503152,0.0,0.0
882,220.25,56.8965,61.183,138.377,99.9032,105.33,0.00710301,0.104484,20.9123,68.5203,-0.481359,0.0,0.0
885,221,56.8681,60.361,137.784,99.8928,105.912,0.00708911,0.10448,20.9123,68.5103,-0.53247,0.0,0.0
888,221.75,56.8129,61.0284,137.947,99.8613,105.856,0.00706119,0.104476,20.9123,68.4203,-0.530546,0.0,0.0
891,222.5,57.5524,61.1192,137.78,99.8513,105.421,0.00703325,0.104474,20.9121,68.4303,-0.493983,0.0,0.0
894,223.25,56.8308,60.7609,137.032,99.8541,105.643,0.00700927,0.104432,20.9119,68.4803,-0.512872,0.0,0.0
897,224,57.2846,60.8076,139.346,99.8505,106.128,0.00699179,0.1044,20.9118,68.4603,-0.554841,0.0,0.0
900,224.75,57.0435,60.7827,140.418,99.8269,105.811,0.00698085,0.104376,20.9117,68.3702,-0.529764,0.0,0.0
903,225.5,56.5083,60.4915,135.236,99.8194,105.335,0.00697035,0.104439,20.9117,68.3702,-0.489466,0.0,0.0
906,226.25,56.7191,60.6065,138.274,99.8425,105.201,0.00696161,0.104486,20.9116,68.4403,-0.475794,0.0,0.0
909,227,56.8089,60.2724,135.022,99.8018,105.726,0.00694892,0.104519,20.9116,68.4303,-0.524735,0.0,0.0
912,227.75,56.8941,60.6308,140.018,99.7734,105.454,0.00693698,0.104507,20.9116,68.3102,-0.503879,0.0,0.0
915,228.5,56.7966,60.5827,136.966,99.7475,105.37,0.00692827,0.104433,20.9116,68.3402,-0.499015,0.0,0.0
918,229.25,56.7616,60.4318,139.036,99.7515,105.487,0.00692824,0.104309,20.9116,68.4203,-0.508797,0.0,0.0
921,230,56.5959,60.3707,135.434,99.7323,105.348,0.00693624,0.104187,20.9116,68.3902,-0.498493,0.0,0.0
924,230.75,56.6217,59.818,139.416,99.7171,105.632,0.00695717,0.104099,20.9116,68.3001,-0.524429,0.0,0.0
927,231.5,56.4458,59.7854,136.784,99.7,105.513,0.00698268,0.10405,20.9116,68.2901,-0.515671,0.0,0.0
930,232.25,56.5148,60.1724,138.674,99.6816,105.866,0.0070114,0.104039,20.9116,68.3802,-0.547746,0.0,0.0
933,233,56.8629,59.9589,136.425,99.6541,105.325,0.00703665,0.104052,20.9116,68.3702,-0.503653,0.0,0.0
936,233.75,56.5048,59.795,138.471,99.6337,105.876,0.00705373,0.104118,20.9116,68.2801,-0.55305,0.0,0.0
939,234.5,55.8828,59.8458,137.827,99.6105,105.322,0.0070639,0.104198,20.9116,68.2601,-0.507356,0.0,0.0
942,235.25,56.3387,59.5564,140.76,99.5914,105.408,0.00706409,0.104269,20.9116,68.3602,-0.516535,0.0,0.0
945,236,56.3898,59.8871,134.581,99.569,105.691,0.00706803,0.104278,20.9116,68.3402,-0.543038,0.0,0.0
948,236.75,56.2649,59.8817,138.393,99.5511,105.566,0.00707785,0.104267,20.9116,68.2801,-0.533894,0.0,0.0
951,237.5,56.2428,59.5903,137.457,99.5287,105.445,0.00709412,0.104259,20.9116,68.2401,-0.525491,0.0,0.0
954,238.25,56.27,59.2872,137.216,99.5163,105.034,0.00711501,0.104252,20.9116,68.3001,-0.49111,0.0,0.0
957,239,56.0708,59.773,138.339,99.4888,105.721,0.00712898,0.104187,20.9116,68.3102,-0.552934,0.0,0.0
960,239.75,56.156,60.0765,136.314,99.4768,105.383,0.00713861,0.104119,20.9116,68.2601,-0.524912,0.0,0.0
963,240.5,55.9785,59.5038,138.535,99.4409,105.031,0.00712939,0.104055,20.9116,68.2101,-0.497741,0.0,0.0
966,241.25,56.233,59.4987,140.305,99.4245,105.194,0.00711602,0.104003,20.9116,68.2701,-0.513352,0.0,0.0
969,242,56.5382,59.3063,137.232,99.4145,105.605,0.00708231,0.103965,20.9116,68.2801,-0.549723,0.0,0.0
972,242.75,55.9129,59.7019,136.334,99.3906,105,0.00704488,0.103979,20.9116,68.2601,-0.499614,0.0,0.0
975,243.5,56.5714,59.0179,142.12,99.3598,104.925,0.00699298,0.104008,20.9116,68.19,-0.495988,0.0,0.0
978,244.25,55.8619,59.3416,143.259,99.3466,105.098,0.00694036,0.10398,20.9118,68.2201,-0.512179,0.0,0.0
981,245,56.2541,58.996,138.179,99.3442,105.188,0.00689568,0.103897,20.912,68.2701,-0.520193,0.0,0.0
984,245.75,55.6731,58.8094,139.485,99.3339,105.052,0.00686547,0.103847,20.9121,68.2601,-0.509293,0.0,0.0
987,246.5,55.9305,59.139,137.406,99.3159,105.043,0.0068456,0.103772,20.9122,68.17,-0.510159,0.0,0.0
990,247.25,55.7575,58.8921,141.69,99.3123,105.766,0.00683111,0.103724,20.9123,68.17,-0.572927,0.0,0.0
993,248,56.1456,58.7568,140.682,99.3151,104.567,0.00683137,0.103702,20.9124,68.2401,-0.468982,0.0,0.0
996,248.75,56.1639,58.8956,139.901,99.3406,105.546,0.00682757,0.103646,20.9126,68.2201,-0.551402,0.0,0.0
999,249.5,55.9404,58.7366,135.277,99.3662,105.5,0.00681797,0.103605,20.912,68.13,-0.545062,0.0,0.0
1002,250.25,55.9422,58.9438,135.108,99.4057,104.979,0.00679655,0.103489,20.9116,68.12,-0.49639,0.0,0.0
1005,251,56.0553,58.275,135.097,99.4381,105.295,0.00677373,0.103369,20.9118,68.2001,-0.520831,0.0,0.0
1008,251.75,56.1,58.7901,141.12,99.4668,105.082,0.00675976,0.103342,20.9121,68.19,-0.499774,0.0,0.0
1011,252.5,55.4215,58.7253,140.967,99.5055,105.519,0.00675412,0.103365,20.9123,68.13,-0.534019,0.0,0.0
1014,253.25,55.5462,58.4536,137.974,99.5031,105.616,0.0067482,0.103385,20.9125,68.1,-0.542544,0.0,0.0
1017,254,56.0704,58.7561,139.802,99.5439,105.316,0.00674389,0.103374,20.9126,68.16,-0.512982,0.0,0.0
1020,254.75,56.3356,58.4743,138.792,99.5834,105.715,0.00672814,0.103346,20.9127,68.17,-0.543779,0.0,0.0
1023,255.5,55.5273,58.5211,140.852,99.5898,105.065,0.00671539,0.103265,20.9127,68.15,-0.487047,0.0,0.0
1026,256.25,55.5594,58.0781,139.549,99.6058,105.36,0.00670822,0.103104,20.9128,68.0599,-0.511061,0.0,0.0
1029,257,55.4917,58.3858,138.525,99.6253,105.269,0.00670754,0.102986,20.9128,68.1,-0.501453,0.0,0.0
1032,257.75,55.5389,58.8572,140.138,99.6652,105.101,0.00670884,0.102901,20.9129,68.15,-0.483275,0.0,0.0
1035,258.5,55.962,58.4589,136.994,99.6728,105.563,0.00670647,0.102879,20.9129,68.12,-0.52246,0.0,0.0
1038,259.25,55.3106,58.5045,136.819,99.6808,105.056,0.00669905,0.102863,20.9129,68.0299,-0.477915,0.0,0.0
1041,260,55.5148,58.3374,139.697,99.7227,105.867,0.00666483,0.102844,20.9129,68.0499,-0.54407,0.0,0.0
1044,260.75,55.5875,58.5409,137.862,99.7303,106.009,0.00663989,0.102817,20.9129,68.11,-0.55564,0.0,0.0
1047,261.5,55.3696,58.1121,140.288,99.769,105.824,0.0066019,0.102818,20.9129,68.1,-0.536167,0.0,0.0
1050,262.25,55.3505,58.108,138.051,99.795,105.815,0.00658178,0.102819,20.9129,67.9999,-0.533025,0.0,0.0
1053,263,55.5018,58.521,137.125,99.8086,105.436,0.00658226,0.102819,20.9129,68.0099,-0.499121,0.0,0.0
1056,263.75,55.5706,58.2397,138.196,99.8437,105.245,0.00660299,0.102819,20.9129,68.0599,-0.479462,0.0,0.0
1059,264.5,55.7956,58.5207,142.691,99.8725,105.342,0.00665234,0.102827,20.9127,68.0599,-0.485171,0.0,0.0
1062,265.25,55.4123,57.7079,135.124,99.8944,105.891,0.00670029,0.102846,20.9126,67.9799,-0.530545,0.0,0.0
1065,266,55.867,58.4028,133.95,99.902,105.714,0.00675572,0.102879,20.9124,67.9799,-0.514594,0.0,0.0
1068,266.75,55.8836,58.2332,136.926,99.9335,105.829,0.00680695,0.102888,20.9123,68.0699,-0.521601,0.0,0.0
1071,267.5,55.7588,58.064,139.608,99.9563,106.068,0.0068443,0.102853,20.9123,68.0499,-0.540106,0.0,0.0
1074,268.25,55.2565,58.1527,137.838,99.9479,105.689,,0.102802,,67.9599,-0.50828,0.0,0.0
1077,269,55.1865,57.8475,137.556,99.9771,105.953,,0.102712,,67.9498,-0.528281,0.0,0.0
1080,269.75,55.086,58.0215,137.032,99.9978,105.477,,0.102557,,67.9999,-0.485419,0.0,0.0
1083,270.5,55.1977,57.8048,135.109,100.009,105.791,,0.102383,,67.9899,-0.511481,0.0,0.0
1086,271.25,55.1928,57.9596,136.758,99.999,105.863,,,,67.8998,-0.518582,0.0,0.0
1089,272,55.5846,57.6876,135.739,100.005,105.897,,,,67.9198,-0.520941,0.0,0.0
1092,272.75,55.0558,57.6501,142.038,100.012,106.058,,,,68.0099,-0.534166,0.0,0.0
1095,273.5,55.937,57.5849,139.035,100.015,105.989,,,,67.9899,-0.527925,0.0,0.0
1098,274.25,55.5381,58.2519,142.521,100.024,105.632,,,,67.9298,-0.496412,0.0,0.0
1101,275,55.3572,57.8688,139.547,100.007,105.671,,,,67.9098,-0.501348,0.0,0.0
1104,275.75,55.0757,58.0901,141.337,100.019,105.609,,,,67.9599,-0.494833,0.0,0.0
1107,276.5,55.7174,57.1599,136.224,100.019,105.814,,,,67.9599,-0.512548,0.0,0.0
1110,277.25,55.5778,57.788,138.067,100.008,105.857,,,,67.9098,-0.517243,0.0,0.0
1113,278,55.6728,57.5148,142.509,100.002,105.928,,,,67.8598,-0.523904,0.0,0.0
1115,278.5,55.3759,57.4257,136.974,100.02,105.927,,,,67.9599,-0.522191,0.0,0.0