File: 01_Data/Luan_Panel/Cone/Luan_Panel_Cone_HF75Scan_220916_R2.csv
Names,Time,Stack TC,Smoke TC,Exh Press,Smoke Comp,Smoke Meas,CO Meter,CO2 Meter,O2 Meter,Sample Mass,Ext Coeff,Start Test,Flame Verif
Chan Gain,,500,500,1,1,1,1,1,1,1,1,1.0,1.0
Offset,,0,0,0.146632,0,0,0,0,0,0,0,0.0,0.0
Gain,,1,1,25.011,13.0826,14.7555,1,1,1,1.00088,1.03743,1.0,1.0
Units,sec,C,C,Pa,%,%,%,%,%,g,/m,,
Baseline,,62.9641,64.8126,136.773,99.6629,105.548,6.80648e-05,0.0433877,20.9877,-450.864,-0.522129,,
3,0.5,62.5965,64.3878,135.75,100.42,106.221,0.000354985,0.0461414,20.9825,93.8426,-0.511015,0.0,0.0
6,1.25,60.8101,63.1185,133.865,100.415,105.946,0.000366688,0.0464141,20.9821,93.8627,-0.487958,0.0,0.0
9,2,61.272,63.2269,134.67,100.431,106.116,0.000382559,0.046491,20.9818,93.8627,-0.501122,0.0,0.0
12,2.75,61.0453,62.9886,137.861,100.417,106.045,0.000402409,0.0465518,20.9816,93.9427,-0.496209,0.0,0.0
15,3.5,61.242,63.0571,136.305,100.425,105.161,0.000425689,0.0466099,20.9815,93.8426,-0.419423,0.0,0.0
18,4.25,60.9357,63.1604,136.723,100.414,105.149,0.000479325,0.0468776,20.9805,93.8727,-0.419273,0.0,0.0
21,5,61.2043,63.4122,138.501,100.425,104.626,0.000548741,0.0474478,20.9794,93.8627,-0.372973,0.0,0.0
24,5.75,60.5504,63.2683,137.275,100.425,103.11,0.000651184,0.0513605,20.9686,93.8226,-0.240173,0.0,0.0
27,6.5,61.5168,63.0785,133.39,100.409,103.712,0.000795842,0.0616481,20.9495,93.6225,-0.294529,0.0,0.0
30,7.25,61.2549,62.8899,131.316,100.41,104.417,0.000981674,0.0723174,20.9162,93.5324,-0.356044,0.0,1.0
33,8,61.2835,63.2473,126.302,100.416,102.988,0.00120358,0.0997058,20.855,93.3722,-0.230152,0.0,1.0
36,8.75,61.6164,63.1423,119.17,100.424,103.201,0.00150613,0.128714,20.7755,93.3022,-0.248269,0.0,1.0
39,9.5,62.9823,63.7826,117,100.409,101.382,0.00183432,0.165324,20.6875,93.072,-0.0877579,0.0,1.0
42,10.25,64.1101,63.9659,113.411,100.412,101.934,0.00218414,0.214789,20.5973,92.8718,-0.136889,0.0,1.0
45,11,65.2637,64.7452,111.942,100.419,101.049,0.00254973,0.259193,20.5028,92.7717,-0.0569295,0.0,1.0
48,11.75,66.7211,65.9598,111.537,100.423,100.851,0.00292056,0.30583,20.4339,92.6015,-0.0387112,0.0,1.0
51,12.5,66.518,65.6121,109.492,100.416,98.8513,0.00336927,0.357382,20.3837,92.3914,0.142938,0.0,1.0
54,13.25,68.06,66.8469,110.134,100.42,97.8791,0.00369637,0.410971,20.3245,92.1612,0.233245,0.0,1.0
57,14,69.5866,67.439,111.815,100.427,96.2945,0.00418318,0.456379,20.2692,92.031,0.382395,0.0,1.0
60,14.75,71.1623,69.4712,105.041,100.43,95.6375,0.00464116,0.500326,20.2201,91.8609,0.444985,0.0,0.0
63,15.5,72.7783,70.0692,105.883,100.424,95.4164,0.00506741,0.532363,20.1784,91.6307,0.465506,0.0,0.0
66,16.25,73.729,71.8251,113.614,100.431,95.5794,0.00546097,0.56135,20.148,91.4105,0.450623,0.0,0.0
69,17,75.1879,72.8074,107.895,100.419,93.7728,0.00583975,0.592112,20.1259,91.2904,0.62316,0.0,0.0
72,17.75,76.6996,73.9745,111.262,100.439,93.9574,0.00612985,0.617531,20.1097,91.1303,0.607105,0.0,0.0
75,18.5,77.7306,75.1719,114.133,100.431,93.9826,0.00636524,0.636916,20.1054,90.9301,0.603939,0.0,0.0
78,19.25,78.7304,76.3365,112.56,100.436,95.0399,0.00653684,0.650645,20.1023,90.7699,0.502531,0.0,0.0
81,20,80.4368,77.4957,111.617,100.423,94.8616,0.0066493,0.659966,20.1101,90.6198,0.518499,0.0,0.0
84,20.75,81.2603,78.1024,114.739,100.44,96.3206,0.00670785,0.66453,20.1192,90.5097,0.381085,0.0,0.0
87,21.5,82.4495,78.8811,118.307,100.429,96.5354,0.00673656,0.667857,20.1317,90.3095,0.3598,0.0,0.0
90,22.25,82.8152,79.8989,115.238,100.425,95.9932,0.0067336,0.6651,20.1492,90.1594,0.410764,0.0,0.0
93,23,83.5176,80.5006,112.141,100.426,96.9335,0.00667968,0.661137,20.1703,90.0293,0.322135,0.0,0.0
96,23.75,83.8567,81.2429,111.84,100.439,97.1992,0.00658713,0.654908,20.194,89.9292,0.298385,0.0,0.0
99,24.5,84.8084,82.1453,115.159,100.433,97.1766,0.00646633,0.645449,20.2226,89.759,0.299951,0.0,0.0
102,25.25,84.9329,82.9105,115.803,100.42,96.7907,0.00630466,0.636131,20.248,89.6189,0.334968,0.0,0.0
105,26,85.3579,83.2432,118.963,100.417,98.0475,0.0061868,0.625196,20.2744,89.5188,0.217274,0.0,0.0
108,26.75,86.2566,83.8209,118.625,100.417,98.8414,0.00604349,0.611419,20.3007,89.3887,0.143887,0.0,0.0
111,27.5,86.627,84.4705,119.437,100.426,99.2413,0.00590134,0.599013,20.3265,89.2586,0.107978,0.0,0.0
114,28.25,86.6645,85.0572,116.056,100.414,99.044,0.00578165,0.585929,20.3516,89.0784,0.124995,0.0,0.0
117,29,86.7467,85.2098,119.656,100.417,101.481,0.00559244,0.57268,20.3739,88.9784,-0.0958863,0.0,0.0
120,29.75,86.9951,85.7138,117.644,100.421,101.845,0.0053944,0.561439,20.3937,88.8583,-0.12813,0.0,0.0
123,30.5,87.2892,85.9155,119.485,100.433,101.374,0.00522442,0.54934,20.4112,88.7782,-0.0848962,0.0,0.0
126,31.25,87.5885,86.4644,118.658,100.413,100.338,0.00502561,0.538138,20.429,88.598,0.00678315,0.0,0.0
129,32,87.8063,86.4562,117.305,100.421,101.18,0.0048532,0.528957,20.4434,88.4479,-0.0684695,0.0,0.0
132,32.75,87.8461,86.9407,122.21,100.401,101.581,0.00471581,0.518557,20.4563,88.3878,-0.106294,0.0,0.0
135,33.5,87.7572,87.2671,120.836,100.411,101.567,0.00460067,0.509414,20.4656,88.3178,-0.104171,0.0,0.0
138,34.25,87.9536,87.5384,119.144,100.394,101.09,0.00450772,0.50153,20.4724,88.1276,-0.0628667,0.0,0.0
141,35,87.868,87.8035,124.926,100.392,102.25,0.00443547,0.494839,20.4774,87.9775,-0.166876,0.0,0.0
144,35.75,87.9281,87.9061,118.276,100.4,101.928,0.0043828,0.489636,20.481,87.8874,-0.137452,0.0,0.0
147,36.5,88.5269,88.1792,125.555,100.407,101.788,0.00434441,0.485705,20.4824,87.8273,-0.124249,0.0,0.0
150,37.25,88.5907,88.0772,117.614,100.401,100.473,0.00432765,0.483535,20.4799,87.6071,-0.00658248,0.0,0.0
153,38,88.5582,88.7797,119.227,100.4,101.464,0.00433007,0.48282,20.4766,87.457,-0.0959439,0.0,0.0
156,38.75,88.4612,88.8646,117.109,100.397,100.8,0.00434869,0.48267,20.4698,87.3669,-0.0364291,0.0,0.0
159,39.5,88.8513,89.2063,126.079,100.411,101.576,0.00441037,0.483238,20.4627,87.2969,-0.104905,0.0,0.0
162,40.25,89.1663,89.9746,119.161,100.395,100.675,0.00445534,0.484813,20.4566,87.0967,-0.025306,0.0,0.0
165,41,89.4319,89.4832,117.18,100.391,101.331,0.00454876,0.486662,20.4508,86.9666,-0.0847823,0.0,0.0
168,41.75,89.5356,89.9786,121.019,100.39,101.717,0.00463188,0.488102,20.4458,86.8064,-0.119522,0.0,0.0
171,42.5,90.0032,90.3215,116.146,100.405,102.061,0.00469229,0.48919,20.4417,86.7264,-0.148794,0.0,0.0
174,43.25,89.9897,90.748,122.227,100.399,101.866,0.00472507,0.490035,20.4375,86.5662,-0.132048,0.0,0.0
177,44,90.6015,90.9476,117.564,100.4,102.402,0.00471269,0.490795,20.4342,86.4261,-0.179648,0.0,0.0
180,44.75,90.5191,91.2803,115.897,100.388,102.058,0.00466848,0.491596,20.4314,86.256,-0.150186,0.0,0.0
183,45.5,90.9135,91.5442,117.38,100.387,102.568,0.00460252,0.492857,20.4281,86.2059,-0.195634,0.0,0.0
186,46.25,90.9213,91.5167,117.304,100.398,102.516,0.00449924,0.494258,20.424,86.0858,-0.189989,0.0,0.0
189,47,90.6662,91.3922,116.02,100.382,102.79,0.00440689,0.496104,20.4202,85.8156,-0.215704,0.0,0.0
192,47.75,91.5679,92.7528,118.501,100.409,101.464,0.00431038,0.498655,20.4157,85.6554,-0.0951874,0.0,0.0
195,48.5,91.4792,92.9193,121.758,100.395,102.233,0.0042313,0.501491,20.4112,85.6154,-0.165064,0.0,0.0
198,49.25,92.3794,93.0481,112.199,100.389,102.278,0.00416994,0.503975,20.4071,85.4653,-0.169651,0.0,0.0
201,50,92.2387,93.6201,117.17,100.386,102.673,0.00412698,0.508057,20.4015,85.2651,-0.20497,0.0,0.0
204,50.75,92.8531,93.8869,120.17,100.372,102.367,0.00410314,0.51224,20.3943,85.125,-0.179132,0.0,0.0
207,51.5,92.7349,94.1456,110.546,100.383,101.913,0.00409617,0.517352,20.3854,85.0749,-0.137641,0.0,0.0
210,52.25,93.064,94.4512,117.869,100.385,101.582,0.00410343,0.523595,20.3752,84.9148,-0.107863,0.0,0.0
213,53,93.7273,94.8945,120.815,100.354,101.472,0.00415854,0.529431,20.3638,84.7446,-0.100793,0.0,0.0
216,53.75,93.7841,95.1933,116.152,100.348,100.861,0.00419872,0.53588,20.3538,84.6245,-0.0464448,0.0,0.0
219,54.5,94.2935,95.2319,114.902,100.349,100.661,0.0043599,0.543953,20.3422,84.5745,-0.0282437,0.0,0.0
222,55.25,94.5711,95.822,117.008,100.348,100.624,0.00453625,0.551874,20.3307,84.3743,-0.0250133,0.0,0.0
225,56,95.0201,96.265,109.729,100.342,99.0949,0.00471168,0.558517,20.3203,84.1541,0.113807,0.0,0.0
228,56.75,95.2269,96.6054,115.817,100.32,99.316,0.0048768,0.565841,20.3115,84.064,0.0915691,0.0,0.0
231,57.5,95.732,97.0444,116.36,100.326,98.5672,0.0050455,0.571896,20.3042,83.8739,0.160954,0.0,0.0
234,58.25,95.9674,97.5189,119.239,100.323,98.7626,0.00520241,0.577535,20.2985,83.8238,0.142675,0.0,0.0
237,59,96.063,97.5236,114.317,100.316,97.6107,0.00533125,0.582814,20.2943,83.6637,0.24882,0.0,0.0
240,59.75,96.5763,97.993,115.984,100.304,97.7931,0.00545894,0.587151,20.2913,83.4535,0.230746,0.0,0.0
243,60.5,96.6944,98.2753,118.348,100.294,97.9984,0.00560976,0.590521,20.2886,83.2934,0.210717,0.0,0.0
246,61.25,97.2044,99.2151,114.539,100.305,97.8494,0.00574688,0.592866,20.2867,83.2233,0.225582,0.0,0.0
249,62,97.666,99.1575,116.899,100.296,97.7999,0.00589333,0.594576,20.2871,83.0832,0.229356,0.0,0.0
252,62.75,97.4659,99.2888,114.317,100.278,97.8485,0.00599214,0.593957,20.2885,82.873,0.223203,0.0,0.0
255,63.5,97.7637,99.663,113.81,100.279,96.6687,0.00610962,0.592484,20.2944,82.7729,0.333704,0.0,0.0
258,64.25,97.7266,99.9794,118.777,100.286,96.3256,0.00620094,0.589664,20.3034,82.6928,0.366643,0.0,0.0
261,65,97.8382,100.022,118.017,100.281,96.1819,0.00627291,0.585911,20.313,82.5227,0.37979,0.0,0.0
264,65.75,98.1682,100.612,119.304,100.258,97.527,0.00632916,0.583485,20.3225,82.3926,0.251342,0.0,0.0
267,66.5,98.2757,100.489,115.365,100.255,96.0594,0.00637178,0.57893,20.3314,82.2424,0.38903,0.0,0.0
270,67.25,98.8002,100.932,119.318,100.245,96.9393,0.00640285,0.574745,20.341,82.2124,0.30511,0.0,0.0
273,68,98.8443,100.904,123.687,100.246,96.7835,0.00642616,0.570216,20.348,82.0823,0.319892,0.0,0.0
276,68.75,98.6015,101.235,118.555,100.224,96.9848,0.00644429,0.5648,20.3562,81.9121,0.298956,0.0,0.0
279,69.5,98.5665,101.399,117.438,100.205,96.4093,0.00645751,0.559586,20.3644,81.762,0.351376,0.0,0.0
282,70.25,98.2016,101.33,121.115,100.189,98.3236,0.00646914,0.554719,20.3713,81.6719,0.17108,0.0,0.0
285,71,98.5007,101.932,123.643,100.19,97.0609,0.00648102,0.550272,20.3776,81.5818,0.288773,0.0,0.0
288,71.75,98.7315,101.767,122.279,100.166,96.6858,0.00649221,0.54643,20.3822,81.4617,0.321834,0.0,0.0
291,72.5,98.4579,102.046,117.756,100.152,96.9708,0.00650775,0.543372,20.3855,81.3316,0.293702,0.0,0.0
294,73.25,98.8747,102.322,116.474,100.15,96.5975,0.00652177,0.540501,20.388,81.2315,0.328693,0.0,0.0
297,74,98.0984,102.226,117.772,100.136,96.4818,0.006541,0.537903,20.3902,81.1415,0.33826,0.0,0.0
300,74.75,98.8044,102.566,115.349,100.114,97.4626,0.00655501,0.535794,20.392,81.0113,0.244262,0.0,0.0
303,75.5,98.9083,102.535,120.517,100.086,96.5845,0.00658144,0.53367,20.3933,80.8512,0.324081,0.0,0.0
306,76.25,98.6884,102.007,120.968,100.077,97.0704,0.00659944,0.531934,20.3943,80.7711,0.277581,0.0,0.0
309,77,98.7826,102.999,115.029,100.064,97.5234,0.00660338,0.53059,20.395,80.6911,0.234013,0.0,0.0
312,77.75,99.1639,102.873,120.66,100.046,96.4332,0.00659149,0.52945,20.3942,80.571,0.334716,0.0,0.0
315,78.5,98.7013,103.047,119.634,100.033,96.1319,0.00653423,0.52856,20.3937,80.4108,0.361992,0.0,0.0
318,79.25,99.4332,102.84,116.832,100.014,97.1667,0.00644963,0.527811,20.3933,80.2807,0.262813,0.0,0.0
321,80,98.8504,103.478,119.172,100.015,97.6215,0.00634584,0.527041,20.393,80.1706,0.22039,0.0,0.0
324,80.75,98.8017,103.489,122.457,100.009,97.9016,0.00622938,0.526266,20.3934,80.0505,0.193772,0.0,0.0
327,81.5,99.0348,103.22,119.395,99.9846,96.9781,0.00614448,0.525501,20.3937,79.9504,0.277849,0.0,0.0
330,82.25,99.3016,103.248,116.41,99.9647,97.4558,0.0060001,0.524518,20.3939,79.8103,0.231309,0.0,0.0
333,83,99.0081,103.132,116.411,99.9623,97.6634,0.00589484,0.523337,20.3941,79.7202,0.211727,0.0,0.0
336,83.75,99.5022,103.973,117.26,99.9579,97.7557,0.005793,0.522277,20.3948,79.6401,0.202729,0.0,0.0
339,84.5,99.2651,103.877,125.028,99.9128,99.3575,0.00570474,0.520289,20.3965,79.49,0.0507211,0.0,0.0
342,85.25,98.6742,104.069,121.401,99.8988,98.3537,0.00563475,0.518839,20.4001,79.3999,0.141848,0.0,0.0
345,86,99.7119,103.983,118.979,99.886,97.7539,0.00557656,0.517364,20.4041,79.2998,0.196352,0.0,0.0
348,86.75,98.9882,104.432,118.109,99.8641,97.3059,0.00553917,0.515573,20.4081,79.2498,0.236159,0.0,0.0
351,87.5,98.9804,104.119,117.866,99.8393,98.3776,0.00552462,0.514004,20.4117,79.0796,0.13422,0.0,0.0
354,88.25,99.5356,103.497,123.492,99.8162,97.953,0.0055321,0.512676,20.4144,78.9395,0.171475,0.0,0.0
357,89,99.2889,103.922,122.287,99.807,99.0094,0.0055693,0.511344,20.4163,78.8294,0.0730165,0.0,0.0
360,89.75,99.2257,104.114,119.908,99.7954,98.5172,0.00565072,0.51029,20.4184,78.7594,0.117312,0.0,0.0
363,90.5,99.4628,103.9,118.571,99.7555,97.5774,0.0057819,0.509338,20.4199,78.6693,0.200897,0.0,0.0
366,91.25,99.3916,104.002,119.258,99.7371,96.8569,0.0058939,0.50844,20.4212,78.5091,0.266666,0.0,0.0
369,92,98.9849,103.906,119.577,99.7132,98.0268,0.00598253,0.507438,20.4226,78.379,0.15522,0.0,0.0
372,92.75,99.6178,104.78,120.069,99.7052,98.0403,0.00600582,0.506083,20.4253,78.299,0.153237,0.0,0.0
375,93.5,98.6452,104.645,118.923,99.7,97.2653,0.00595612,0.504443,20.4285,78.2389,0.224984,0.0,0.0
378,94.25,98.7056,104.372,119.506,99.6549,97.6877,0.00583993,0.502588,20.4316,78.0988,0.181432,0.0,0.0
381,95,98.8466,104.466,121.895,99.6437,96.2423,0.0056671,0.500085,20.437,77.9787,0.316073,0.0,0.0
384,95.75,98.6689,104.451,120.509,99.6381,97.2334,0.00546471,0.497769,20.441,77.9386,0.222325,0.0,0.0
387,96.5,98.5914,104.052,119.197,99.6177,97.3518,0.00518653,0.493232,20.4495,77.7985,0.209388,0.0,0.0
390,97.25,98.5912,104.285,125.157,99.5854,97.3014,0.00488585,0.487832,20.4577,77.7685,0.211148,0.0,0.0
393,98,98.6548,104.252,118.347,99.579,98.0939,0.00461434,0.483004,20.4696,77.6984,0.136742,0.0,0.0
396,98.75,98.4339,104.341,121.723,99.5642,97.0343,0.00437249,0.474822,20.4822,77.6083,0.234223,0.0,0.0
399,99.5,98.2898,104.069,120.907,99.5738,98.6356,0.00415923,0.466594,20.5027,77.5983,0.0861492,0.0,0.0
402,100.25,97.9357,104.074,123.4,99.5994,99.719,0.00394704,0.456726,20.5229,77.5183,-0.0109287,0.0,0.0
405,101,97.9735,104.253,118.529,99.6237,99.1764,0.00376379,0.444699,20.5426,77.3781,0.0409505,0.0,0.0
408,101.75,97.614,104.003,128.22,99.6489,100.348,0.00361803,0.432479,20.5617,77.3982,-0.0636341,0.0,0.0
411,102.5,97.1861,103.802,125.147,99.6912,100.672,0.00349191,0.420253,20.5809,77.3481,-0.0890845,0.0,0.0
414,103.25,96.8347,103.415,127.298,99.7012,100.842,0.00339804,0.406016,20.5971,77.268,-0.103507,0.0,0.0
417,104,96.6091,103.345,126.43,99.7299,101.963,0.00334078,0.391935,20.6183,77.208,-0.201551,0.0,0.0
420,104.75,96.3499,102.92,128.181,99.7555,102.636,0.00332386,0.375854,20.6338,77.178,-0.259066,0.0,0.0
423,105.5,95.734,103.243,126.606,99.7938,103.518,0.00332211,0.361651,20.6557,77.1579,-0.333412,0.0,0.0
426,106.25,96.0401,102.454,128.835,99.7946,104.213,0.00336681,0.341448,20.6768,77.1379,-0.394218,0.0,0.0
429,107,94.7642,101.876,128.873,99.8094,104.76,0.00343863,0.324284,20.701,77.1479,-0.440561,0.0,0.0
432,107.75,93.9533,101.613,134.559,99.8365,105.357,0.00352458,0.307608,20.728,77.1179,-0.489808,0.0,0.0
435,108.5,94.2455,102.127,130.516,99.8609,105.179,0.00363207,0.292464,20.7502,77.1079,-0.472211,0.0,0.0
438,109.25,93.6064,100.791,134.733,99.8657,104.793,0.00372954,0.276318,20.7708,77.0378,-0.438285,0.0,0.0
441,110,92.6294,100.907,131.011,99.8748,105.431,0.00391091,0.26097,20.7893,77.0679,-0.492691,0.0,0.0
444,110.75,92.0218,99.9892,131.939,99.894,105.478,0.00410685,0.247066,20.8043,77.0378,-0.494948,0.0,0.0
447,111.5,91.7129,99.8856,132.443,99.9104,105.574,0.00427687,0.234895,20.8189,77.0679,-0.501805,0.0,0.0
450,112.25,91.257,99.2683,131.422,99.9124,105.702,0.00451511,0.223822,20.83,77.0679,-0.512602,0.0,0.0
453,113,90.391,98.9449,129.974,99.91,105.396,0.00477412,0.214812,20.8383,77.0378,-0.486419,0.0,0.0
456,113.75,90.7624,98.7062,129.821,99.9204,104.958,0.00504565,0.20557,20.8463,77.0679,-0.447642,0.0,0.0
459,114.5,89.7624,98.0319,134.201,99.9343,105.441,0.00532284,0.197531,20.8539,77.0779,-0.488128,0.0,0.0
462,115.25,88.9613,97.2091,131.346,99.9399,105.541,0.00560219,0.190541,20.8599,77.0479,-0.496203,0.0,0.0
465,116,88.2288,97.5518,135.956,99.9331,105.248,0.00580583,0.184463,20.8645,76.9678,-0.471587,0.0,0.0
468,116.75,87.8415,97.194,130.846,99.9507,105.519,0.00603528,0.178872,20.8683,76.9978,-0.493358,0.0,0.0
471,117.5,88.003,96.8246,135.639,99.9527,105.776,0.00623161,0.173892,20.8715,76.9878,-0.515324,0.0,0.0
474,118.25,86.8067,95.7948,133.694,99.9671,105.538,0.00639644,0.169563,20.8742,76.9678,-0.493499,0.0,0.0
477,119,86.3004,95.8242,133.805,99.9547,105.905,0.00653252,0.165197,20.8768,76.9077,-0.526216,0.0,0.0
480,119.75,86.4908,95.5188,135.414,99.9611,105.428,0.00667322,0.162015,20.8791,76.9378,-0.484603,0.0,0.0
483,120.5,85.939,94.5937,134.12,99.9687,105.651,0.00682518,0.158448,20.8812,76.9478,-0.503094,0.0,0.0
486,121.25,85.6344,94.4683,134.291,99.9687,105.637,0.00699237,0.155236,20.8831,76.9177,-0.50193,0.0,0.0
489,122,85.0246,94.4458,133.197,99.9655,105.165,0.00717475,0.152321,20.8852,76.9177,-0.461475,0.0,0.0
492,122.75,84.5354,93.7564,131.07,99.9655,105.366,0.00737126,0.14966,20.8867,76.8777,-0.478799,0.0,0.0
495,123.5,84.0545,93.4258,132.324,99.9615,105.709,0.0075479,0.147058,20.8874,76.8577,-0.508712,0.0,0.0
498,124.25,83.94,92.6486,131.163,99.9763,105.671,0.00780901,0.144727,20.8883,76.8877,-0.504149,0.0,0.0
501,125,83.605,92.4915,132.618,99.9587,106.074,0.00813456,0.142667,20.8889,76.8076,-0.54039,0.0,0.0
504,125.75,82.8994,91.9294,132.282,99.9531,105.534,0.0084363,0.140866,20.8894,76.8176,-0.494421,0.0,0.0
507,126.5,82.8392,92.038,136.129,99.9659,105.724,0.00873476,0.139945,20.8897,76.8176,-0.50963,0.0,0.0
510,127.25,82.2006,91.4168,134.559,99.9599,105.102,0.00896988,0.138469,20.89,76.8377,-0.45645,0.0,0.0
513,128,81.9478,91.1674,129.056,99.9403,105.395,0.00917126,0.137191,20.8902,76.7776,-0.483578,0.0,0.0
516,128.75,81.8294,90.9319,135.577,99.9379,105.812,0.009312,0.136059,20.8903,76.7976,-0.519768,0.0,0.0
519,129.5,81.3582,90.2945,134.3,99.9315,105.386,0.00940422,0.135039,20.8902,76.8076,-0.483639,0.0,0.0
522,130.25,81.1657,90.123,130.055,99.9315,104.733,0.00947279,0.133905,20.8902,76.7976,-0.427042,0.0,0.0
525,131,81.0507,90.0816,132.477,99.9192,105.637,0.00952509,0.133078,20.8901,76.7976,-0.506438,0.0,0.0
528,131.75,80.429,89.4408,130.771,99.9056,106.068,0.00960894,0.131735,20.8905,76.7776,-0.544723,0.0,0.0
531,132.5,80.372,89.1258,135.558,99.8944,105.162,0.00972911,0.130756,20.8913,76.7376,-0.467636,0.0,0.0
534,133.25,79.9013,89.2122,131.728,99.898,105.209,0.00987572,0.129549,20.8922,76.7476,-0.47136,0.0,0.0
537,134,79.4799,88.4428,136.629,99.8736,105.074,0.0100405,0.128354,20.8928,76.7276,-0.461964,0.0,0.0
540,134.75,79.3759,88.3288,133.118,99.8613,105.736,0.0102353,0.127347,20.8935,76.6975,-0.520165,0.0,0.0
543,135.5,79.6299,88.1185,133.149,99.8513,105.564,0.010437,0.126224,20.8945,76.6875,-0.506258,0.0,0.0
546,136.25,79.2612,87.7566,132.568,99.8401,105.677,0.0106316,0.125016,20.8951,76.7076,-0.517053,0.0,0.0
549,137,78.4983,87.4434,131.078,99.8273,105.226,0.0108226,0.123984,20.8959,76.7076,-0.479319,0.0,0.0
552,137.75,78.2976,87.2638,132.458,99.8058,105.534,0.0109827,0.122974,20.8968,76.6375,-0.507883,0.0,0.0
555,138.5,78.2798,86.7045,132.737,99.791,105.349,0.0111917,0.121808,20.8974,76.6475,-0.493218,0.0,0.0
558,139.25,78.0349,86.2856,138.014,99.7746,105.817,0.0113946,0.120913,20.8979,76.6875,-0.535114,0.0,0.0
561,140,77.3088,86.4717,132.779,99.7595,105.411,0.0115852,0.120183,20.8983,76.6675,-0.5015,0.0,0.0
564,140.75,77.2419,85.8207,134.681,99.7475,105.014,0.0117603,0.119679,20.8985,76.6375,-0.46824,0.0,0.0
567,141.5,76.8082,86.052,132.694,99.7375,105.389,0.0119325,0.119302,20.8983,76.6375,-0.501559,0.0,0.0
570,142.25,76.5068,85.3568,131.048,99.7283,105.326,0.0120865,0.118988,20.8979,76.6575,-0.496991,0.0,0.0
573,143,76.5362,85.3434,129.378,99.7084,105.771,0.012211,0.118637,20.8977,76.6675,-0.537171,0.0,0.0
576,143.75,76.595,84.991,137.006,99.7004,105.052,0.0123694,0.118351,20.8975,76.6275,-0.475817,0.0,0.0
579,144.5,76.4215,84.796,138.464,99.6912,105.695,0.0125137,0.11809,20.8973,76.6175,-0.53215,0.0,0.0
582,145.25,76.3403,84.3802,132.289,99.664,105.169,0.0127322,0.117941,20.8968,76.5975,-0.489231,0.0,0.0
585,146,75.7931,84.4045,133.901,99.6732,105.386,0.012966,0.117861,20.8962,76.6475,-0.507193,0.0,0.0
588,146.75,76.2831,84.0237,132.403,99.6572,105.386,0.0131984,0.117815,20.8958,76.5975,-0.508613,0.0,0.0
591,147.5,75.5637,83.471,127.649,99.6429,105.586,0.0134196,0.117839,20.8955,76.5874,-0.527212,0.0,0.0
594,148.25,75.541,83.7833,135.591,99.6401,105.116,0.0136238,0.117858,20.8952,76.5874,-0.486898,0.0,0.0
597,149,75.215,83.2395,133.105,99.6425,105.414,0.0137768,0.117834,20.8951,76.6175,-0.512372,0.0,0.0
600,149.75,75.3383,83.3698,134.837,99.6293,104.931,0.0138954,0.117591,20.8949,76.5474,-0.471846,0.0,0.0
603,150.5,75.2714,82.9828,133.376,99.6173,104.426,0.0139819,0.117242,20.8949,76.5674,-0.429017,0.0,0.0
606,151.25,75.0415,82.9138,133.147,99.6058,105.156,0.0140636,0.116915,20.8948,76.5374,-0.493464,0.0,0.0
609,152,74.656,82.7912,132.144,99.6109,105.036,0.0141232,0.11659,20.8954,76.5574,-0.482618,0.0,0.0
612,152.75,74.4331,82.5838,136.814,99.593,104.905,0.0141909,0.116317,20.8959,76.5374,-0.4729,0.0,0.0
615,153.5,74.3929,81.981,134.79,99.5674,105.218,0.0142363,0.115893,20.8966,76.4673,-0.502343,0.0,0.0
618,154.25,73.9601,81.6849,134.43,99.573,105.207,0.0142609,0.115584,20.8975,76.4573,-0.500858,0.0,0.0
621,155,72.7015,80.3748,135.658,99.5766,105.234,0.014267,0.115088,20.8981,76.4473,-0.502905,0.0,0.0
624,155.75,72.7755,80.1157,135.523,99.575,105.459,0.0142479,0.114587,20.8991,76.4373,-0.522424,0.0,0.0
627,156.5,72.3484,79.4799,130.73,99.5399,105.041,0.0142149,0.114184,20.8999,76.4373,-0.489542,0.0,0.0
630,157.25,72.0868,79.4452,133.269,99.5447,105.065,0.0141756,0.113828,20.9005,76.4273,-0.491211,0.0,0.0
633,158,71.6656,79.5946,132.427,99.5483,105.275,0.0141441,0.113484,20.901,76.3973,-0.509001,0.0,0.0
636,158.75,71.87,78.9648,132.772,99.5419,105.352,0.0141165,0.113196,20.9013,76.4173,-0.516238,0.0,0.0
639,159.5,71.8732,79.4106,135.579,99.5343,105.26,0.0140927,0.112762,20.9015,76.3572,-0.508993,0.0,0.0
642,160.25,71.3863,78.8768,133.636,99.5311,105.389,0.0140529,0.112438,20.9017,76.3472,-0.520452,0.0,0.0
645,161,71.6876,78.3816,133.705,99.5195,105.455,0.0139623,0.112189,20.9018,76.3773,-0.527147,0.0,0.0
648,161.75,71.3624,78.2517,133.364,99.5311,105.387,0.0138428,0.111908,20.9026,76.3572,-0.520296,0.0,0.0
651,162.5,71.2222,78.0105,139.562,99.5127,104.933,0.0136976,0.111734,20.9029,76.3272,-0.482617,0.0,0.0
654,163.25,70.9095,78.0797,136.146,99.4992,105.153,0.0135691,0.111391,20.9034,76.3372,-0.502936,0.0,0.0
657,164,70.8796,77.7323,134.071,99.5047,105.15,0.0134626,0.111042,20.9037,76.3072,-0.502191,0.0,0.0
660,164.75,70.4404,77.5182,133.085,99.5087,104.929,0.0133946,0.110723,20.9039,76.3572,-0.482709,0.0,0.0
663,165.5,71.1653,77.0767,134.537,99.4868,104.773,0.0133614,0.110573,20.9041,76.2872,-0.471117,0.0,0.0
666,166.25,70.5602,77.4552,132.189,99.49,105.334,0.013358,0.110449,20.9042,76.2772,-0.519429,0.0,0.0
669,167,70.0881,77.11,132.487,99.4932,105.315,0.01337,0.110337,20.9043,76.2672,-0.517463,0.0,0.0
672,167.75,70.0942,77.2618,131.479,99.4836,105.469,0.0133881,0.11023,20.9043,76.2972,-0.531715,0.0,0.0
675,168.5,70.046,76.7619,133.485,99.4776,105.377,0.0133995,0.110167,20.9044,76.2872,-0.524256,0.0,0.0
678,169.25,69.9048,76.5683,133.353,99.4616,104.924,0.0133973,0.110147,20.9044,76.2471,-0.48651,0.0,0.0
681,170,70.4092,76.5129,134.396,99.46,105.13,0.0133913,0.110071,20.9044,76.2572,-0.504567,0.0,0.0
684,170.75,69.6371,75.851,133.131,99.4812,105.034,0.0133664,0.109958,20.9049,76.3172,-0.494246,0.0,0.0
687,171.5,70.1023,76.6252,129.921,99.4688,105.412,0.0133483,0.109837,20.9054,76.2972,-0.528092,0.0,0.0
690,172.25,69.8989,76.1547,131.486,99.456,105.14,0.0132961,0.109723,20.9058,76.2572,-0.505789,0.0,0.0
693,173,69.8391,76.4704,134.334,99.4536,105.235,0.0132584,0.10954,20.906,76.2271,-0.514229,0.0,0.0
696,173.75,69.809,75.7941,133.92,99.4684,105.116,0.0132007,0.109364,20.9062,76.2672,-0.502591,0.0,0.0
699,174.5,69.4158,75.9706,133.629,99.4864,105.06,0.0131383,0.109134,20.9064,76.2572,-0.496034,0.0,0.0
702,175.25,69.0277,75.575,133.889,99.4588,105.411,0.0130928,0.108922,20.9065,76.2071,-0.528927,0.0,0.0
705,176,69.8706,75.259,134.84,99.4556,104.852,0.0130503,0.108759,20.9067,76.1971,-0.480847,0.0,0.0
708,176.75,68.7862,75.3285,131.505,99.4636,104.884,0.0130024,0.108542,20.9069,76.2572,-0.48293,0.0,0.0
711,177.5,69.3989,75.3102,135.187,99.4624,104.814,0.0129603,0.108373,20.9071,76.2371,-0.476942,0.0,0.0
714,178.25,69.1577,75.0595,134.979,99.4528,104.676,0.0128777,0.108249,20.9072,76.1671,-0.465769,0.0,0.0
717,179,69.3218,74.4186,134.713,99.4576,105.445,0.0127921,0.108106,20.9072,76.1571,-0.531991,0.0,0.0
720,179.75,69.0819,74.6642,133.318,99.4664,105.17,0.0126865,0.107912,20.9073,76.1571,-0.507451,0.0,0.0
723,180.5,68.8751,74.8765,132.495,99.4552,105.026,0.0125939,0.107628,20.9076,76.1771,-0.495957,0.0,0.0
726,181.25,68.9467,74.8758,135.81,99.448,105.461,0.0125231,0.10736,20.9082,76.137,-0.534228,0.0,0.0
729,182,68.6072,74.3105,134.354,99.4361,104.982,0.0124774,0.107043,20.9086,76.107,-0.493925,0.0,0.0
732,182.75,68.6967,74.5043,136.316,99.4277,104.79,0.0124626,0.10682,20.9089,76.117,-0.478049,0.0,0.0
735,183.5,68.5588,74.5099,135.567,99.4357,104.639,0.0124532,0.10667,20.9091,76.1671,-0.46413,0.0,0.0
738,184.25,68.5174,74.0825,135.572,99.4377,104.874,0.0124486,0.106631,20.9093,76.107,-0.484367,0.0,0.0
741,185,68.7804,74.1486,135.569,99.4265,105.18,0.0124268,0.106649,20.9094,76.097,-0.511961,0.0,0.0
744,185.75,68.4066,74.1003,133.434,99.4265,104.671,0.0123959,0.106687,20.9095,76.107,-0.467751,0.0,0.0
747,186.5,68.8365,73.7491,133.937,99.4269,105.268,0.0123476,0.106715,20.9096,76.1471,-0.51948,0.0,0.0
750,187.25,68.6164,74.0706,132.057,99.4309,105.136,0.0123034,0.106721,20.9096,76.097,-0.507701,0.0,0.0
753,188,68.1487,73.9199,135.907,99.4209,105.463,0.0122686,0.10672,20.9097,76.057,-0.536868,0.0,0.0
756,188.75,68.0896,73.5897,132.816,99.4145,105.022,0.0122456,0.106576,20.9097,76.057,-0.499332,0.0,0.0
759,189.5,68.0713,73.6232,134.157,99.4209,105.033,0.0122158,0.106464,20.9097,76.107,-0.499724,0.0,0.0
762,190.25,67.8891,73.4608,134.131,99.4237,105.481,0.0121786,0.10637,20.9097,76.057,-0.538205,0.0,0.0
765,191,67.5157,73.5663,131.135,99.4009,105.164,0.0121448,0.10626,20.9097,76.037,-0.512859,0.0,0.0
768,191.75,68.0831,72.7989,136.114,99.3989,105.012,0.0121054,0.10615,20.9097,76.027,-0.4999,0.0,0.0
771,192.5,67.8236,72.7348,135.809,99.4069,105.04,0.0120808,0.106012,20.9098,76.087,-0.501588,0.0,0.0
774,193.25,67.7406,72.8969,133.237,99.4325,105.184,0.0120698,0.105898,20.9098,76.067,-0.511725,0.0,0.0
777,194,67.5969,72.3687,132.247,99.4001,105.399,0.0120748,0.105786,20.9102,76.027,-0.533249,0.0,0.0
780,194.75,67.8678,72.9206,133.647,99.3913,104.971,0.0120784,0.105693,20.9107,75.9969,-0.497043,0.0,0.0
783,195.5,67.5173,72.8145,131.928,99.4057,105.268,0.012081,0.105482,20.9111,76.037,-0.521417,0.0,0.0
786,196.25,67.5739,72.8533,138.96,99.4045,105.178,0.0120774,0.105329,20.9113,76.037,-0.513737,0.0,0.0
789,197,67.5045,71.9108,131.825,99.3965,105.002,0.0120786,0.105217,20.9115,75.9769,-0.49926,0.0,0.0
792,197.75,67.3553,72.0305,132.712,99.391,105.293,0.0120812,0.105116,20.9115,75.9669,-0.524949,0.0,0.0
795,198.5,67.6066,72.5157,138.415,99.3965,104.775,0.0120919,0.105098,20.911,75.9569,-0.479569,0.0,0.0
798,199.25,67.8796,72.543,135.802,99.4249,105.509,0.0121149,0.105162,20.9107,75.9769,-0.540504,0.0,0.0
801,200,67.5487,72.2854,131.55,99.3981,104.893,0.0121338,0.105299,20.9104,75.9369,-0.489665,0.0,0.0
804,200.75,67.142,72.4361,133.704,99.3957,104.988,0.012151,0.105398,20.9096,75.9269,-0.498163,0.0,0.0
807,201.5,67.1491,71.8988,132.258,99.4025,104.922,0.0121584,0.105552,20.909,75.9169,-0.491763,0.0,0.0
810,202.25,67.205,71.9973,134.214,99.4061,104.936,0.0121636,0.105634,20.9086,75.9569,-0.492683,0.0,0.0
813,203,66.9879,72.1041,132.305,99.4013,104.979,0.0121709,0.105643,20.9083,75.9169,-0.496792,0.0,0.0
816,203.75,67.5603,71.9531,135.584,99.3985,105.496,0.0121984,0.105642,20.9081,75.8968,-0.54179,0.0,0.0
819,204.5,67.1581,71.6155,131.401,99.3886,105.134,0.0122483,0.105628,20.9079,75.8868,-0.511459,0.0,0.0
822,205.25,67.1799,71.8366,135.598,99.3973,105.119,0.0122974,0.105638,20.9078,75.9169,-0.50929,0.0,0.0
825,206,67.3817,71.7382,130.166,99.4009,105.248,0.012387,0.105676,20.9077,75.8968,-0.520142,0.0,0.0
828,206.75,66.6319,71.302,133.329,99.3902,104.952,0.0124523,0.105754,20.9076,75.8568,-0.495552,0.0,0.0
831,207.5,66.9268,71.8218,133.704,99.3918,105.032,0.0125481,0.105771,20.9076,75.8368,-0.502275,0.0,0.0
834,208.25,67.1575,71.5648,132.146,99.4065,105.096,0.0126219,0.105783,20.9076,75.8868,-0.5065,0.0,0.0
837,209,67.037,71.3162,134.41,99.3957,104.824,0.0126705,0.105792,20.9075,75.8468,-0.483866,0.0,0.0
840,209.75,66.8148,71.5257,131.531,99.3997,105.331,0.0126942,0.105758,20.9081,75.8368,-0.527413,0.0,0.0
843,210.5,66.9695,71.5101,132.735,99.3993,105.308,0.0126874,0.105733,20.9086,75.8168,-0.525465,0.0,0.0
846,211.25,66.8102,71.1343,129.849,99.4137,105.046,0.0126707,0.105715,20.9089,75.8668,-0.501512,0.0,0.0
849,212,67.3006,70.8321,132.585,99.4217,104.885,0.0126535,0.105602,20.9091,75.8468,-0.486806,0.0,0.0
852,212.75,67.0976,70.6398,130.716,99.4225,104.921,0.0126448,0.105447,20.9093,75.7767,-0.489857,0.0,0.0
855,213.5,67.3769,70.7709,134.451,99.4277,104.847,0.0126383,0.105283,20.9094,75.7767,-0.482975,0.0,0.0
858,214.25,66.8864,70.9903,133.238,99.4449,104.873,0.0126708,0.105103,20.9095,75.8268,-0.483631,0.0,0.0
861,215,66.4135,70.69,139.757,99.4476,104.965,0.0127165,0.104957,20.9096,75.8268,-0.491343,0.0,0.0
864,215.75,66.851,70.8694,131.913,99.4421,104.488,0.0127593,0.104844,20.9096,75.7667,-0.450456,0.0,0.0
867,216.5,66.8885,70.539,132.151,99.4532,105.37,0.0128072,0.104864,20.9097,75.7467,-0.5259,0.0,0.0
870,217.25,66.5796,70.5928,135.793,99.468,105.211,0.0128421,0.104878,20.9095,75.7867,-0.510849,0.0,0.0
873,218,66.592,70.9552,132.908,99.478,104.988,0.01286,0.10499,20.9091,75.7968,-0.490597,0.0,0.0
876,218.75,66.6918,70.3414,134.722,99.4808,105.293,0.0128732,0.1051,20.9086,75.7267,-0.516728,0.0,0.0
879,219.5,65.7608,70.1397,132.505,99.46,104.845,0.0128803,0.1052,20.9086,75.6967,-0.47982,0.0,0.0
882,220.25,66.8921,70.0995,132.622,99.482,105.276,0.0128844,0.105286,20.9089,75.7267,-0.515179,0.0,0.0
885,221,66.2051,70.6004,135.033,99.5011,105.364,0.0128861,0.105401,20.9091,75.7367,-0.521012,0.0,0.0
888,221.75,66.4495,70.2356,136.831,99.5075,104.975,0.0128868,0.105534,20.9095,75.6867,-0.486762,0.0,0.0
891,222.5,66.0802,69.9692,132.147,99.5127,105.033,0.012888,0.105632,20.9098,75.6666,-0.491283,0.0,0.0
894,223.25,66.6606,70.483,134.575,99.5527,105.358,0.01289,0.105619,20.9099,75.6867,-0.515758,0.0,0.0
897,224,66.3994,70.3437,132.706,99.5495,105.239,0.0128934,0.105572,20.9101,75.7167,-0.505815,0.0,0.0
900,224.75,66.6009,69.9124,134.817,99.5598,105.206,0.0128919,0.105539,20.9099,75.6766,-0.502023,0.0,0.0
903,225.5,66.1349,70.2159,131.019,99.555,105.131,0.0128837,0.105575,20.9094,75.6566,-0.495954,0.0,0.0
906,226.25,66.6113,69.8402,134.205,99.573,105.36,0.0128683,0.105573,20.9091,75.6466,-0.514092,0.0,0.0
909,227,66.6934,70.2928,136.726,99.5934,105.291,0.0128337,0.105552,20.9088,75.6967,-0.506278,0.0,0.0
912,227.75,66.4426,70.2508,134.233,99.6038,105.759,0.0127985,0.105524,20.9086,75.6466,-0.545716,0.0,0.0
915,228.5,66.2271,69.8233,133.635,99.6085,105.219,0.0127403,0.105422,20.9085,75.6366,-0.498702,0.0,0.0
918,229.25,66.2791,69.6033,130.293,99.6113,105.383,0.0126841,0.105303,20.9084,75.6366,-0.512612,0.0,0.0
921,230,66.6383,69.8833,137.081,99.6325,105.351,0.0126281,0.105139,20.9083,75.6867,-0.507917,0.0,0.0
924,230.75,66.1466,69.8109,130.648,99.6425,105.559,0.0125925,0.104977,20.9081,75.6366,-0.52492,0.0,0.0
927,231.5,65.957,69.4575,134.61,99.6409,105.18,0.0125856,0.104841,20.9079,75.6066,-0.492359,0.0,0.0
930,232.25,66.3034,69.9023,132.009,99.6485,105.35,0.0125878,0.104782,20.9077,75.5866,-0.506303,0.0,0.0
933,233,66.588,69.2523,133.862,99.6704,105.49,0.0126154,0.104746,20.9076,75.6366,-0.516387,0.0,0.0
936,233.75,66.1844,69.9935,132.888,99.6804,105.518,0.0126498,0.104731,20.9075,75.6066,-0.517884,0.0,0.0
939,234.5,66.1855,69.2483,134.005,99.6804,105.297,0.012681,0.104721,20.9074,75.5565,-0.498873,0.0,0.0
942,235.25,65.7245,69.647,136.792,99.69,104.966,0.0126946,0.104713,20.9074,75.5365,-0.469311,0.0,0.0
945,236,66.3561,69.4304,133.789,99.6944,105.12,0.0126988,0.104707,20.9074,75.5565,-0.482213,0.0,0.0
948,236.75,66.1049,70.0678,138.362,99.7243,104.56,0.0126741,0.104784,20.9073,75.5966,-0.430934,0.0,0.0
951,237.5,66.7936,69.5611,134.678,99.7307,105.434,0.01263,0.104812,20.9073,75.5565,-0.506105,0.0,0.0
954,238.25,66.3108,69.3408,137.558,99.7391,105.167,0.0125752,0.10482,20.9073,75.5465,-0.482263,0.0,0.0
957,239,65.9531,69.8307,135.533,99.7627,105.23,0.0125154,0.104739,20.9073,75.5465,-0.485567,0.0,0.0
960,239.75,66.4469,69.3333,131.393,99.775,105.598,0.0124477,0.104637,20.9075,75.5866,-0.516199,0.0,0.0
963,240.5,66.1063,69.2594,136.594,99.789,105.196,0.0123922,0.104551,20.9081,75.5265,-0.480204,0.0,0.0
966,241.25,65.8683,69.5304,133.83,99.799,105.154,0.0123412,0.104528,20.9085,75.5165,-0.475671,0.0,0.0
969,242,65.9306,69.3413,133.305,99.8166,105.646,0.0123197,0.104512,20.9088,75.4965,-0.516525,0.0,0.0
972,242.75,65.9585,69.5125,132.992,99.8393,105.45,0.0123215,0.1045,20.909,75.5465,-0.497601,0.0,0.0
975,243.5,66.6766,69.3955,136.958,99.8497,105.891,0.0123415,0.10445,20.9091,75.5065,-0.534581,0.0,0.0
978,244.25,65.7371,69.3715,136.104,99.8501,105.594,0.0123691,0.104414,20.9092,75.4665,-0.509006,0.0,0.0
981,245,66.127,69.1633,138.696,99.8661,105.602,0.0123948,0.104388,20.9093,75.4765,-0.50825,0.0,0.0
984,245.75,65.5501,69.7775,131.759,99.8884,105.475,0.0124128,0.104328,20.9094,75.5065,-0.495224,0.0,0.0
987,246.5,66.3801,68.696,133.932,99.8916,105.5,0.0124248,0.104262,20.9095,75.4665,-0.497069,0.0,0.0
990,247.25,65.8843,68.8901,134.204,99.9036,105.348,0.0124261,0.104176,20.9096,75.4565,-0.482918,0.0,0.0
993,248,66.1234,69.2011,132.94,99.91,105.258,0.0124231,0.104113,20.9096,75.4464,-0.474553,0.0,0.0
996,248.75,65.837,69.1621,134.912,99.9291,106.079,0.0124193,0.104026,20.9097,75.4765,-0.543466,0.0,0.0
999,249.5,66.0286,69.0503,135.48,99.9335,105.641,0.0124023,0.103963,20.9097,75.4565,-0.505401,0.0,0.0
1002,250.25,65.7842,69.117,134.08,99.9411,105.555,0.0123838,0.103917,20.9097,75.4264,-0.497298,0.0,0.0
1005,251,65.8427,69.2476,131.504,99.9503,105.942,0.0123443,0.103863,20.9097,75.3964,-0.529826,0.0,0.0
1008,251.75,66.028,69.4297,135.977,99.9635,105.404,0.0122974,0.103824,20.9097,75.4464,-0.482247,0.0,0.0
1011,252.5,65.2652,69.1579,134.64,99.9806,105.893,0.012248,0.103795,20.9097,75.4565,-0.522848,0.0,0.0
1014,253.25,66.0537,69.133,131.151,99.9719,105.67,0.0121991,0.103775,20.9104,75.3864,-0.504471,0.0,0.0
1017,254,65.8359,68.8063,132.369,99.983,105.277,0.0121579,0.103722,20.9108,75.3664,-0.469536,0.0,0.0
1020,254.75,65.8288,68.7519,135.975,99.9878,105.843,0.0121361,0.10362,20.9112,75.3764,-0.517896,0.0,0.0
1023,255.5,66.0836,68.9899,137.523,99.9922,105.089,0.0121342,0.103565,20.9114,75.4164,-0.452415,0.0,0.0
1026,256.25,66.054,68.9413,135.623,99.9846,105.776,0.0121743,0.10354,20.9116,75.3363,-0.512378,0.0,0.0
1029,257,65.7306,68.6893,133.116,99.995,105.708,0.012237,0.103527,20.9117,75.3464,-0.505581,0.0,0.0
1032,257.75,65.6729,68.262,132.373,100.003,105.713,0.0123096,0.103457,20.9118,75.3464,-0.505245,0.0,0.0
1035,258.5,65.4409,68.6351,132.123,100.014,105.669,0.0123977,0.103459,20.9117,75.3964,-0.500503,0.0,0.0
1038,259.25,65.6104,68.6846,133.812,100.011,105.592,0.0124724,0.10355,20.9111,75.3363,-0.49416,0.0,0.0
1041,260,65.2232,68.5541,134.677,100.008,105.53,0.0125339,0.103717,20.9108,75.3263,-0.489132,0.0,0.0
1044,260.75,65.6921,68.5666,130.654,100.013,105.676,0.0125835,0.103839,20.9105,75.3263,-0.501268,0.0,0.0
1047,261.5,65.3757,68.3632,134.5,100.021,105.663,0.0126249,0.103928,20.9103,75.3464,-0.499379,0.0,0.0
1050,262.25,65.5543,68.3209,133.067,100.015,105.6,0.0126572,0.103993,20.9102,75.3063,-0.49442,0.0,0.0
1053,263,65.5069,68.5104,132.147,100.01,105.372,,0.104012,,75.2563,-0.475271,0.0,0.0
1056,263.75,65.609,68.1523,131.611,100.006,105.988,,0.103976,,75.2563,-0.528681,0.0,0.0
1059,264.5,65.8327,68.4659,133.966,100.016,105.688,,0.103886,,75.3163,-0.502025,0.0,0.0
1062,265.25,65.5903,68.2667,130.401,100.007,105.748,,0.103835,,75.2663,-0.507905,0.0,0.0
1065,266,65.3497,68.4215,135.305,99.9862,105.313,,,,75.2262,-0.472358,0.0,0.0
1068,266.75,65.6534,68.2869,131.401,99.9886,105.417,,,,75.2262,-0.481124,0.0,0.0
1071,267.5,65.1554,68.5115,134.545,99.9882,105.197,,,,75.2863,-0.462093,0.0,0.0
1074,268.25,65.3833,68.5837,138.696,99.9802,105.897,,,,75.2863,-0.523232,0.0,0.0
1077,269,65.6295,68.4241,134.28,99.9854,105.772,,,,75.2363,-0.511996,0.0,0.0
1080,269.75,65.7778,68.1876,132.837,99.9583,105.859,,,,75.2262,-0.521941,0.0,0.0
1083,270.5,65.1142,67.9217,135.311,99.9499,105.6,,,,75.2563,-0.500457,0.0,0.0
1086,271.25,65.5269,68.0644,132.586,99.9363,105.657,,,,75.2663,-0.506542,0.0,0.0
1089,272,65.8354,68.6192,132.941,99.9168,106.045,,,,75.1862,-0.541734,0.0,0.0
1092,272.75,65.1904,68.1428,128.66,99.898,105.635,,,,75.1962,-0.508171,0.0,0.0
1095,273.5,66.1049,68.2377,131.938,99.8936,105.63,,,,75.2162,-0.508145,0.0,0.0
1096,273.75,65.0421,68.113,135.381,99.8693,105.886,,,,75.1862,-0.532412,0.0,0.0