File: 01_Data/Nylon_Carpet_High_Pile/Cone/Nylon_Carpet_High_Pile_Cone_HF25Scan_220317_R3.csv
Names,Time,Stack TC,Smoke TC,Exh Press,Smoke Comp,Smoke Meas,CO Meter,CO2 Meter,O2 Meter,Sample Mass,Ext Coeff,Start Test,Flame Verif
Chan Gain,,500,500,1,1,1,1,1,1,1,1,1.0,1.0
Offset,,0,0,0.13495,0,0,0,0,0,0,0,0.0,0.0
Gain,,1,1,25.011,13.0212,13.19,1,1,1,1.0009,1.01015,1.0,1.0
Units,sec,C,C,Pa,%,%,%,%,%,g,/m,,
Baseline,,25.9368,26.4282,137.35,97.8617,92.6591,0.000555526,0.0448523,21.0189,-489.133,0.484128,,
7,1.5,24.6577,25.623,134.409,99.2113,94.1389,0.000496765,0.0483144,21.0122,24.0616,0.465029,0.0,0.0
14,3.25,25.0533,25.2981,137.864,99.2026,93.7581,0.000384799,0.0474347,21.0135,24.0917,0.500163,0.0,0.0
21,5,25.0897,25.0519,132.427,99.1775,94.3619,0.000398725,0.0466643,21.0141,24.0917,0.441047,0.0,0.0
28,6.75,24.8289,25.5857,142.736,99.1775,93.8479,0.000566343,0.0464275,21.0144,24.0816,0.489447,0.0,0.0
35,8.5,25.1841,25.6493,136.088,99.1497,94.1132,0.000777077,0.0463437,21.0145,24.0716,0.461951,0.0,0.0
42,10.25,25.1816,25.0864,136.538,99.1346,93.6072,0.000961227,0.0462197,21.0146,24.0716,0.508369,0.0,0.0
49,12,25.0971,25.1062,133.904,99.0993,93.6027,0.000897861,0.0459919,21.0162,24.0816,0.505626,0.0,0.0
56,13.75,25.0996,25.447,134.181,99.0722,94.0021,0.000685237,0.0457724,21.0178,24.0616,0.46549,0.0,0.0
63,15.5,24.9995,25.282,137.383,99.0432,94.128,0.00047896,0.045545,21.0186,24.0116,0.451027,0.0,0.0
70,17.25,25.1388,25.4258,141.295,99.0122,93.1479,0.000483693,0.0453544,21.019,23.9916,0.541006,0.0,0.0
77,19,24.9557,25.9554,137.316,98.9642,93.7605,0.000553709,0.0452387,21.0192,24.0116,0.478613,0.0,0.0
84,20.75,25.4251,25.6048,139.415,98.9216,93.5158,0.000593731,0.0451913,21.0193,24.0016,0.497965,0.0,0.0
91,22.5,25.0887,25.7034,137.993,98.8902,93.6341,0.000596081,0.0451415,21.0204,24.0016,0.483945,0.0,0.0
98,24.25,24.9851,26.1283,138.958,98.8489,93.5412,0.000606562,0.0449822,21.0208,23.9715,0.489045,0.0,0.0
105,26,25.0087,25.699,139.009,98.806,93.9529,0.000721663,0.0448053,21.0208,23.9715,0.446275,0.0,0.0
112,27.75,24.8378,25.7651,138.411,98.7508,94.1353,0.000800994,0.0448191,21.0208,23.9515,0.424139,0.0,0.0
119,29.5,25.241,25.7847,139.937,98.7154,93.5693,0.00076702,0.0447438,21.0208,23.9415,0.4744,0.0,0.0
126,31.25,25.1451,25.633,133.654,98.6848,94.0153,0.000595245,0.0445868,21.0208,23.9415,0.429517,0.0,0.0
133,33,25.0517,25.6468,135.719,98.6419,93.478,0.000484989,0.0444905,21.0208,23.9315,0.476455,0.0,0.0
140,34.75,25.1064,25.7453,138.737,98.599,93.1801,0.00050553,0.0444207,21.0212,23.9215,0.50088,0.0,0.0
147,36.5,25.3092,26.0038,137.71,98.5664,93.0155,0.000617328,0.0444568,21.0217,23.9115,0.513622,0.0,0.0
154,38.25,24.7368,25.8637,137.978,98.5437,93.3504,0.000662488,0.0444245,21.0219,23.9115,0.479738,0.0,0.0
161,40,24.8838,25.4473,141.546,98.5044,92.9253,0.000624011,0.0444497,21.022,23.8815,0.51664,0.0,0.0
168,41.75,25.3066,25.4546,138.94,98.475,93.6591,0.000602043,0.0444286,21.0221,23.8715,0.444296,0.0,0.0
175,43.5,25.3388,25.7587,136.772,98.4396,93.102,0.000673577,0.0443794,21.0221,23.8615,0.493977,0.0,0.0
182,45.25,25.1589,25.4066,137.439,98.4174,93.0497,0.000822881,0.0443322,21.0221,23.8414,0.496956,0.0,0.0
189,47,25.4159,25.9731,135.847,98.4054,93.0915,0.000908621,0.0442689,21.0221,23.8414,0.491897,0.0,0.0
196,48.75,24.9334,25.6766,135.714,98.438,93.29,0.000852291,0.0442306,21.0221,23.8915,0.475961,0.0,0.0
203,50.5,25.5075,25.8201,140.004,98.5028,93.7766,0.00076679,0.0442028,21.0221,23.8314,0.435686,0.0,0.0
210,52.25,25.0467,25.6463,139.204,98.5648,93.5404,0.000692826,0.0441498,21.0221,23.8314,0.463616,0.0,0.0
217,54,24.9118,25.2184,136.823,98.6359,93.8322,0.000605277,0.0441103,21.0221,23.7914,0.442406,0.0,0.0
224,55.75,25.7024,25.9258,136.667,98.7007,93.2421,0.000543741,0.0440621,21.0218,23.7914,0.504126,0.0,0.0
231,57.5,25.5327,25.7969,136.444,98.748,93.4063,0.000573972,0.0439918,21.0215,23.7814,0.492776,0.0,0.0
238,59.25,25.2457,26.2573,137.186,98.775,93.5887,0.000700883,0.0440461,21.0211,23.7313,0.477919,0.0,0.0
245,61,25.1174,25.714,138.109,98.8235,93.4872,0.000701046,0.0439789,21.021,23.7013,0.491876,0.0,0.0
252,62.75,25.3204,25.6964,138.669,98.8561,93.3793,0.000637302,0.0438952,21.0209,23.7213,0.505029,0.0,0.0
259,64.5,25.1416,25.9088,137.393,98.8751,93.8483,0.000568097,0.0438581,21.0209,23.6913,0.46235,0.0,0.0
266,66.25,25.2751,26.0316,138.376,98.8855,93.4027,0.000489901,0.0440195,21.0211,23.7013,0.505449,0.0,0.0
273,68,25.5927,26.3037,140.153,98.9165,94.537,0.000496551,0.0440581,21.0214,23.7013,0.401262,0.0,0.0
280,69.75,25.0844,25.9876,134.762,98.9196,93.3878,0.000561839,0.0440045,21.0216,23.6613,0.509923,0.0,0.0
287,71.5,25.6695,26.213,138.821,98.93,94.3885,0.000566091,0.0439856,21.0216,23.6513,0.416406,0.0,0.0
294,73.25,25.3751,26.1482,137.929,98.9097,94.0165,0.000444376,0.0439944,21.0217,23.6813,0.449575,0.0,0.0
301,75,25.8171,26.1161,133.004,98.9089,93.4397,0.000334119,0.0440181,21.0217,23.6413,0.504037,0.0,0.0
308,76.75,25.3234,25.9697,136.999,98.9121,93.9538,0.000265883,0.0439467,21.0212,23.6813,0.45571,0.0,0.0
315,78.5,25.216,26.0602,140.67,98.895,93.9075,0.000224534,0.043914,21.021,23.6813,0.458546,0.0,0.0
322,80.25,25.6677,26.2685,140.107,98.8648,94.3772,0.000222183,0.0439175,21.0201,23.6312,0.411625,0.0,0.0
329,82,25.6792,26.4762,136.1,98.8287,93.8636,0.000342441,0.0438233,21.0187,23.6613,0.456738,0.0,0.0
336,83.75,25.5896,26.5753,139.011,98.8056,93.4981,0.00052461,0.0437948,21.0183,23.6312,0.489243,0.0,0.0
343,85.5,25.7504,26.1203,138.019,98.7814,94.1276,0.000629276,0.0437146,21.0191,23.6112,0.427605,0.0,0.0
350,87.25,25.3025,26.1737,134.21,98.7365,93.8668,0.000637878,0.0438058,21.0198,23.6112,0.448164,0.0,0.0
357,89,25.323,26.1821,137.329,98.6955,93.7485,0.00059214,0.0439637,21.0196,23.6212,0.45567,0.0,0.0
364,90.75,25.1483,25.7282,136.203,98.6395,93.3395,0.000571512,0.0440357,21.019,23.5912,0.489378,0.0,0.0
371,92.5,25.2204,26.2939,139.499,98.599,93.9731,0.000592285,0.044111,21.0186,23.6012,0.425791,0.0,0.0
378,94.25,25.5329,25.6552,136.231,98.5354,93.8889,0.000651888,0.0442177,21.0185,23.5712,0.428011,0.0,0.0
385,96,25.4647,26.0098,137.712,98.4825,93.775,0.000700886,0.0444161,21.0184,23.6012,0.434016,0.0,0.0
392,97.75,25.7354,26.5535,137.844,98.4062,93.3053,0.000723118,0.0445176,21.0188,23.5912,0.471647,0.0,0.0
399,99.5,25.7306,26.3692,137.663,98.3466,93.6321,0.000728335,0.0446489,21.019,23.6212,0.435291,0.0,0.0
406,101.25,25.4567,26.2146,138.925,98.2485,93.2509,0.000772068,0.0446429,21.0191,23.5912,0.462592,0.0,0.0
413,103,25.5702,26.5288,137.193,98.1634,92.5993,0.00081646,0.0445221,21.0192,23.5812,0.517062,0.0,0.0
420,104.75,25.2861,26.761,142.253,98.0705,92.98,0.000780632,0.0444591,21.0194,23.6012,0.472301,0.0,0.0
427,106.5,25.4193,26.4051,133.52,98.0597,93.0247,0.000729443,0.0443887,21.0196,23.5812,0.467075,0.0,0.0
434,108.25,25.7343,26.1782,138.589,98.0589,92.3779,0.000697051,0.0442677,21.0194,23.6112,0.528834,0.0,0.0
441,110,25.4552,26.5663,138.661,98.0701,92.7192,0.000685963,0.0442313,21.0192,23.6012,0.497158,0.0,0.0
448,111.75,25.3962,25.9731,140.769,98.0772,93.2195,0.000681071,0.0441519,21.0191,23.5512,0.450115,0.0,0.0
455,113.5,25.7691,26.1088,135.771,98.0808,92.9559,0.000646015,0.0439605,21.019,23.6012,0.475536,0.0,0.0
462,115.25,25.8809,25.9187,136.801,98.1106,93.1213,0.000559775,0.0438597,21.019,23.5712,0.462473,0.0,0.0
469,117,25.5592,26.3684,139.824,98.1336,93.2397,0.000494072,0.0438222,21.019,23.5812,0.453299,0.0,0.0
476,118.75,25.5975,25.892,134.984,98.1543,92.8661,0.000469707,0.0438375,21.0185,23.6112,0.490736,0.0,0.0
483,120.5,25.1118,26.3876,139.137,98.1706,93.2163,0.000502173,0.0438787,21.0183,23.6112,0.458854,0.0,0.0
490,122.25,25.2912,26.5217,141.329,98.2072,93.2465,0.000645247,0.0439414,21.0182,23.5712,0.459284,0.0,0.0
497,124,25.5844,26.3045,137.119,98.2374,93.2912,0.000784896,0.0439468,21.0181,23.5812,0.457764,0.0,0.0
504,125.75,25.3411,26.001,137.438,98.2687,93.2022,0.000839183,0.0439187,21.0181,23.5812,0.469048,0.0,0.0
511,127.5,25.4231,25.9229,135.852,98.2751,93.3806,0.000835792,0.0439902,21.0184,23.6112,0.452685,0.0,0.0
518,129.25,25.9943,26.3988,138.55,98.2842,92.6963,0.000797097,0.0440457,21.0188,23.5812,0.518682,0.0,0.0
525,131,25.3847,26.4128,134.953,98.3184,92.4318,0.000757607,0.0440765,21.019,23.5912,0.547078,0.0,0.0
532,132.75,25.3701,26.2563,136.641,98.3375,93.2852,0.000747792,0.044044,21.0191,23.6312,0.467365,0.0,0.0
539,134.5,25.7797,26.4906,134.012,98.3514,92.7325,0.000758695,0.0440943,21.0191,23.6012,0.521272,0.0,0.0
546,136.25,25.5102,26.6106,133.702,98.3657,92.6041,0.000786823,0.0441939,21.0191,23.6112,0.534838,0.0,0.0
553,138,25.4689,26.5709,138.321,98.3971,93.1716,0.000794616,0.0442415,21.0191,23.5812,0.483524,0.0,0.0
560,139.75,25.2683,26.7899,137.225,98.438,93.4417,0.000751343,0.0442269,21.0191,23.5612,0.461559,0.0,0.0
567,141.5,25.515,27.1133,135.479,98.4539,93.0151,0.000728291,0.044147,21.0191,23.6012,0.503544,0.0,0.0
574,143.25,25.912,26.075,134.294,98.4722,92.53,0.000738849,0.0440596,21.0191,23.6012,0.551517,0.0,0.0
581,145,25.4498,26.5684,138.908,98.4877,93.0159,0.00076878,0.0441145,21.0191,23.5412,0.506506,0.0,0.0
588,146.75,25.9113,26.6222,134.91,98.5072,92.7989,0.000792995,0.04409,21.0191,23.5512,0.528951,0.0,0.0
595,148.5,25.8442,26.9488,138.102,98.5294,92.6898,0.000819019,0.044063,21.0191,23.5412,0.541374,0.0,0.0
602,150.25,25.8781,26.8424,135.554,98.533,93.1729,0.000849439,0.0440049,21.0191,23.5512,0.495639,0.0,0.0
609,152,25.5533,26.2597,137.349,98.539,93.0255,0.000877012,0.0440539,21.0195,23.5312,0.510198,0.0,0.0
616,153.75,25.7447,26.5598,137.926,98.5632,93.3182,0.000882781,0.0440946,21.0197,23.5312,0.484545,0.0,0.0
623,155.5,25.5876,26.6714,139.408,98.5632,92.9986,0.000875362,0.0441086,21.0197,23.5612,0.514946,0.0,0.0
630,157.25,25.6427,26.8154,137.669,98.5715,92.4411,0.00089482,0.0441042,21.0198,23.5312,0.568975,0.0,0.0
637,159,26.1921,26.6221,138.444,98.5572,92.5554,0.000929773,0.0441259,21.0198,23.5211,0.556738,0.0,0.0
644,160.75,25.6041,26.2441,137.657,98.5696,92.7546,0.000979434,0.0441736,21.0195,23.5211,0.53879,0.0,0.0
651,162.5,25.2769,26.2961,135.297,98.5831,92.5344,0.00102398,0.0443025,21.0192,23.5312,0.561063,0.0,0.0
658,164.25,25.6184,26.4516,137.275,98.5676,92.4278,0.00101131,0.0444428,21.0191,23.5011,0.56989,0.0,0.0
665,166,25.223,26.5893,137.37,98.5485,92.1971,0.000911413,0.0443419,21.019,23.5011,0.590316,0.0,0.0
672,167.75,25.7467,26.423,138.178,98.5485,92.7868,0.000844367,0.0441629,21.019,23.5011,0.53382,0.0,0.0
679,169.5,25.6894,27.0235,135.759,98.5517,93.0408,0.000838378,0.0441181,21.019,23.4711,0.509884,0.0,0.0
686,171.25,25.7356,26.8449,139.525,98.5258,93.1555,0.000811006,0.0441386,21.0194,23.5111,0.496641,0.0,0.0
693,173,25.812,26.8096,135.947,98.5064,92.6186,0.000743034,0.0441829,21.0197,23.4911,0.546115,0.0,0.0
700,174.75,25.5038,26.5227,134.363,98.4877,92.1907,0.000675477,0.0442755,21.0201,23.4911,0.585466,0.0,0.0
707,176.5,26.0967,26.5977,133.858,98.479,92.9639,0.000710676,0.0442905,21.0203,23.5011,0.510667,0.0,0.0
714,178.25,25.7277,26.576,137.705,98.4591,92.3259,0.000857936,0.0443076,21.0204,23.4811,0.569901,0.0,0.0
721,180,25.9139,26.5388,137.494,98.4265,92.4986,0.000968018,0.0442907,21.0204,23.4811,0.55041,0.0,0.0
728,181.75,25.8788,27.1281,137.116,98.4118,92.4189,0.00100971,0.044277,21.0204,23.4911,0.556726,0.0,0.0
735,183.5,26.0835,26.8184,135.687,98.3752,93.261,0.00100997,0.0443095,21.0205,23.5211,0.473061,0.0,0.0
742,185.25,25.5274,26.3729,138.758,98.3737,92.8951,0.00100847,0.044242,21.0205,23.5011,0.507751,0.0,0.0
749,187,26.3126,26.3926,138.953,98.3458,92.3787,0.000985613,0.0441481,21.0205,23.4311,0.554644,0.0,0.0
756,188.75,26.0087,26.0676,141.175,98.3331,92.9998,0.000973883,0.0441825,21.0205,23.4511,0.494122,0.0,0.0
763,190.5,25.6309,26.6015,137.619,98.3029,92.3561,0.000992972,0.0443162,21.0205,23.4511,0.552939,0.0,0.0
770,192.25,26.2251,26.8271,138.392,98.3101,92.4036,0.00094972,0.0444637,21.0205,23.4211,0.549027,0.0,0.0
777,194,25.9801,26.3016,142.297,98.2755,91.9705,0.000790225,0.0443881,21.0205,23.4411,0.587542,0.0,0.0
784,195.75,25.9386,26.8077,133.208,98.2489,92.5489,0.000631185,0.0442252,21.0205,23.4411,0.529586,0.0,0.0
791,197.5,25.4449,26.5167,135.539,98.2179,91.8562,0.000528624,0.0441643,21.0205,23.4311,0.593366,0.0,0.0
798,199.25,25.9422,26.1973,135.4,98.1992,92.4608,0.000536245,0.0441755,21.0205,23.4411,0.533549,0.0,0.0
805,201,25.5632,26.5127,137.934,98.1881,92.625,0.000608123,0.044176,21.0205,23.4311,0.516821,0.0,0.0
812,202.75,25.7279,26.8734,137.467,98.1694,91.8727,0.000733493,0.0442094,21.0211,23.411,0.587399,0.0,0.0
819,204.5,25.4601,26.7356,135.535,98.14,92.4229,0.000858338,0.0442963,21.0216,23.4211,0.531833,0.0,0.0
826,206.25,25.6367,26.396,133.985,98.1197,91.7608,0.000901815,0.0444428,21.0208,23.401,0.593715,0.0,0.0
833,208,25.8716,27.3261,139.077,98.0879,92.239,0.000867691,0.0444524,21.0202,23.4311,0.544786,0.0,0.0
840,209.75,25.8219,26.4257,136.265,98.0685,91.9029,0.000809253,0.0445264,21.0199,23.411,0.575373,0.0,0.0
847,211.5,25.8439,27.0798,135.16,98.0442,92.33,0.000779735,0.0444723,21.0197,23.401,0.5321,0.0,0.0
854,213.25,25.4479,26.5892,139.479,98.0172,92.2547,0.00072637,0.0442867,21.0201,23.411,0.536886,0.0,0.0
861,215,25.3297,26.7079,132.167,97.9834,91.9423,0.000640917,0.0443834,21.0203,23.391,0.563884,0.0,0.0
868,216.75,25.8817,27.1311,137.314,97.9592,92.0148,0.000613649,0.0444733,21.0204,23.391,0.554712,0.0,0.0
875,218.5,26.0505,27.1308,135.372,97.9322,92.1158,0.000615858,0.0444324,21.0204,23.381,0.542542,0.0,0.0
882,220.25,25.8173,26.7485,134.41,97.904,92.2245,0.000568334,0.0443362,21.0204,23.371,0.52954,0.0,0.0
889,222,25.7657,26.8085,135.368,97.8988,91.7161,0.000441982,0.0442297,21.0205,23.371,0.578055,0.0,0.0
896,223.75,25.3851,26.4826,138.902,97.8908,91.2138,0.000331616,0.0441978,21.0205,23.401,0.626003,0.0,0.0
903,225.5,26.4634,26.8104,135.361,97.8591,91.9419,0.000312406,0.0442342,21.0205,23.361,0.552667,0.0,0.0
910,227.25,25.6562,26.3067,139.253,97.8312,92.4004,0.000391628,0.0442462,21.0205,23.341,0.506072,0.0,0.0
917,229,25.8453,26.5637,135.638,97.8157,91.6658,0.000504191,0.0442812,21.0205,23.401,0.575398,0.0,0.0
924,230.75,25.5573,26.7769,137.409,97.7998,92.3175,0.000578268,0.0442479,21.0205,23.401,0.511183,0.0,0.0
931,232.5,25.7741,26.654,135.987,97.7724,91.6622,0.000657209,0.0442854,21.0205,23.341,0.571823,0.0,0.0
938,234.25,25.9606,26.7952,138.676,97.7577,90.9388,0.000772433,0.0444338,21.0205,23.341,0.640693,0.0,0.0
945,236,26.0037,27.3133,132.458,97.7243,91.7072,0.00092269,0.0445449,21.0205,23.331,0.563108,0.0,0.0
952,237.75,25.9059,26.9623,139.076,97.71,92.241,0.00102549,0.0446274,21.0205,23.351,0.510387,0.0,0.0
959,239.5,25.9107,26.5777,139.632,97.7013,92.1384,0.000982487,0.0445987,21.0205,23.341,0.51946,0.0,0.0
966,241.25,25.8263,26.9657,140.916,97.6703,91.7455,0.000841474,0.0445491,21.0205,23.321,0.554511,0.0,0.0
973,243,25.7185,26.5502,137.127,97.6461,91.7628,0.000672286,0.0445074,21.0211,23.351,0.550641,0.0,0.0
980,244.75,25.783,27.218,138.779,97.6373,91.95,0.000614327,0.0445055,21.0214,23.311,0.531791,0.0,0.0
987,246.5,26.1039,26.6729,139.132,97.596,91.8344,0.000713092,0.0444238,21.0216,23.321,0.53918,0.0,0.0
994,248.25,25.8709,26.9574,133.623,97.5817,91.3333,0.000821909,0.044378,21.0217,23.341,0.586368,0.0,0.0
1001,250,25.6628,26.6138,138.341,97.5495,91.671,0.000785294,0.0445083,21.0217,23.321,0.55074,0.0,0.0
1008,251.75,25.8251,26.8528,138.173,97.5018,92.1508,0.000713462,0.0444821,21.0218,23.331,0.50015,0.0,0.0
1015,253.5,25.7894,26.8051,136.898,97.4911,92.6548,0.000654134,0.0444395,21.0218,23.311,0.450847,0.0,0.0
1022,255.25,25.6367,26.8788,132.83,97.4672,91.8139,0.000603584,0.0444729,21.0218,23.331,0.529463,0.0,0.0
1029,257,25.9986,26.5525,135.751,97.4498,91.7636,0.000599879,0.0445832,21.0218,23.311,0.532731,0.0,0.0
1036,258.75,26.3314,26.5849,134.871,97.4283,91.7334,0.000654213,0.0447204,21.0218,23.3009,0.533696,0.0,0.0
1043,260.5,26.3604,26.7829,136.277,97.4053,91.9504,0.000720902,0.0445954,21.0218,23.2909,0.510666,0.0,0.0
1050,262.25,26.265,26.7252,137.209,97.3997,92.1029,0.000755407,0.044563,21.0218,23.311,0.495472,0.0,0.0
1057,264,25.7999,26.716,134.684,97.3723,92.272,0.00075626,0.0445193,21.0218,23.2909,0.476726,0.0,0.0
1064,265.75,25.5481,27.1388,135.465,97.3524,91.8208,0.000773856,0.0444738,21.0215,23.2609,0.518356,0.0,0.0
1071,267.5,26.0568,26.754,140.391,97.3198,91.8666,0.000856807,0.0444704,21.0208,23.2809,0.510964,0.0,0.0
1078,269.25,26.2067,26.6082,138.177,97.3162,91.7274,0.000950042,0.04462,21.0205,23.2809,0.524081,0.0,0.0
1085,271,26.4107,26.8226,139.471,97.3162,91.1506,0.000964549,0.0447261,21.0204,23.2909,0.579979,0.0,0.0
1092,272.75,25.9722,26.7751,134.889,97.2952,91.8968,0.000846997,0.044754,21.0203,23.2809,0.505808,0.0,0.0
1099,274.5,26.0328,26.8038,136.679,97.2749,91.9109,0.000658036,0.0447454,21.0203,23.2509,0.502604,0.0,0.0
1106,276.25,25.8722,26.9587,133.307,97.2773,91.5362,0.000551727,0.0448051,21.0203,23.2409,0.539025,0.0,0.0
1113,278,25.7285,27.0233,138.238,97.2817,91.3631,0.000515637,0.0446624,21.0203,23.2609,0.556192,0.0,0.0
1120,279.75,25.7073,27.1108,138.858,97.2809,91.7435,0.000554996,0.0446074,21.0203,23.2409,0.519305,0.0,0.0
1127,281.5,26.1463,26.7876,136.882,97.2749,91.6742,0.000657854,0.044564,21.0203,23.2309,0.525452,0.0,0.0
1134,283.25,25.9955,27.0065,140.166,97.2733,92.0393,0.000712278,0.0445234,21.0203,23.2509,0.490088,0.0,0.0
1141,285,25.7723,27.061,135.4,97.2908,91.8071,0.000635516,0.0444738,21.0203,23.2409,0.514069,0.0,0.0
1148,286.75,26.2396,26.7693,138.402,97.3071,92.0071,0.000544998,0.0444695,21.0203,23.2609,0.496265,0.0,0.0
1155,288.5,26.3916,26.8532,133.668,97.3182,91.7704,0.000559122,0.044552,21.0211,23.2609,0.520101,0.0,0.0
1162,290.25,25.5818,27.0894,138.431,97.317,92.1665,0.000643332,0.0447509,21.0211,23.2409,0.481831,0.0,0.0
1169,292,26.1983,27.1277,137.473,97.3488,91.5116,0.000686097,0.0450012,21.021,23.2809,0.547914,0.0,0.0
1176,293.75,25.6626,26.4912,136.938,97.3711,91.855,0.000687541,0.0454732,21.0205,23.2709,0.516756,0.0,0.0
1183,295.5,26.4329,27.1329,135.125,97.3921,91.9069,0.000638361,0.0457305,21.0203,23.2609,0.513663,0.0,0.0
1190,297.25,25.8426,26.5354,137.797,97.414,91.9484,0.000595093,0.045773,21.0202,23.2609,0.511656,0.0,0.0
1197,299,26.0549,26.6178,136.029,97.447,92.2458,0.000565286,0.0457212,21.0202,23.2309,0.486035,0.0,0.0
1204,300.75,25.5181,26.6759,137.706,97.4915,92.3867,0.000591507,0.0455494,21.0213,23.2209,0.476558,0.0,0.0
1211,302.5,26.2327,26.969,139,97.5177,92.1098,0.000679616,0.0454227,21.0219,23.2309,0.505544,0.0,0.0
1218,304.25,25.8865,26.5415,142.133,97.5531,92.1182,0.000759416,0.0453133,21.0222,23.2309,0.507943,0.0,0.0
1225,306,25.6573,26.845,134.803,97.5872,91.9665,0.000775721,0.0451017,21.0223,23.2109,0.525656,0.0,0.0
1232,307.75,25.8581,26.4664,139.633,97.6445,91.9701,0.00072298,0.0449518,21.0224,23.2209,0.530501,0.0,0.0
1239,309.5,25.9866,26.8905,137.432,97.6874,92.5111,0.000643232,0.0449013,21.0215,23.2009,0.482425,0.0,0.0
1246,311.25,25.5997,26.8072,135.523,97.741,92.2221,0.000582622,0.0448305,21.0213,23.2209,0.515016,0.0,0.0
1253,313,25.861,27.124,133.115,97.7689,91.7837,0.000534866,0.0448094,21.0223,23.1808,0.559756,0.0,0.0
1260,314.75,25.5541,26.7843,136.355,97.8193,92.627,0.000515542,0.044705,21.0227,23.1908,0.483286,0.0,0.0
1267,316.5,25.8491,27.0442,137.631,97.8682,92.8166,0.000497428,0.0446214,21.0229,23.2109,0.469594,0.0,0.0
1274,318.25,25.6584,27.1463,136.876,97.9274,92.1053,0.000469198,0.0446138,21.023,23.2009,0.543118,0.0,0.0
1281,320,25.981,26.9408,136.77,97.9783,92.5099,0.000455386,0.0445713,21.0231,23.1508,0.508885,0.0,0.0
1288,321.75,25.7908,27.1429,135.919,98.0212,93.0179,0.000418221,0.044474,21.0231,23.2009,0.464242,0.0,0.0
1295,323.5,26.1953,27.4714,136.514,98.0792,92.6266,0.000377816,0.0443763,21.0231,23.2109,0.506836,0.0,0.0
1302,325.25,26.0379,26.9115,136.092,98.1225,92.4016,0.000387443,0.0443264,21.0231,23.1808,0.532299,0.0,0.0
1309,327,25.6349,26.5271,137.83,98.1964,92.8218,0.000425392,0.0442091,21.0231,23.1908,0.498763,0.0,0.0
1316,328.75,25.7588,26.3911,139.358,98.2409,92.534,0.000463973,0.0441641,21.0231,23.1408,0.530295,0.0,0.0
1323,330.5,26.0971,26.7898,136.076,98.2886,92.9301,0.000472963,0.0440934,21.0231,23.1608,0.496748,0.0,0.0
1330,332.25,25.4595,27.2114,135.769,98.3562,92.3316,0.000491435,0.0441572,21.0231,23.1608,0.560094,0.0,0.0
1337,334,25.9426,26.83,139.114,98.405,92.8858,0.00060107,0.0442594,21.023,23.1408,0.511461,0.0,0.0
1344,335.75,25.5383,27.0083,137.83,98.4484,93.4458,0.00074842,0.0442242,21.0227,23.1408,0.462108,0.0,0.0
1351,337.5,25.747,27.2725,139.855,98.5088,92.6842,0.000837981,0.0442289,21.0226,23.1308,0.540055,0.0,0.0
1358,339.25,26.0947,26.8582,137.253,98.57,93.0903,0.000820772,0.0441292,21.0208,23.1008,0.506813,0.0,0.0
1365,341,26.1007,26.7632,135.795,98.6447,92.9994,0.000789783,0.043995,21.02,23.1008,0.52219,0.0,0.0
1372,342.75,25.5448,27.0586,138.795,98.6812,92.4865,0.000772689,0.0439776,21.0196,23.1108,0.574469,0.0,0.0
1379,344.5,25.7992,26.8737,138.872,98.7218,93.0461,0.000740076,0.043995,21.0194,23.1108,0.524664,0.0,0.0
1386,346.25,26.2338,26.6156,138.565,98.7806,93.5528,0.000722434,0.0440581,21.0193,23.1308,0.481811,0.0,0.0
1393,348,26.1261,27.2531,138.041,98.8422,93.5162,0.000718466,0.0440645,21.0193,23.1108,0.490804,0.0,0.0
1400,349.75,25.7364,27.1097,137.219,98.8879,93.0203,0.000718534,0.0440922,21.0194,23.1108,0.542014,0.0,0.0
1407,351.5,25.8063,26.641,137.061,98.926,93.8531,0.000736178,0.0442134,21.0198,23.1308,0.466451,0.0,0.0
1414,353.25,25.9906,26.6259,142.626,98.9622,93.0316,0.000798484,0.044214,21.02,23.1008,0.547596,0.0,0.0
1421,355,25.6104,26.9401,136.845,99.0095,93.7412,0.000852641,0.0442148,21.0213,23.0807,0.484493,0.0,0.0
1428,356.75,26.0714,27.1321,135.078,99.0428,93.7742,0.000858677,0.0442463,21.0219,23.1108,0.484361,0.0,0.0
1435,358.5,26.1342,27.2054,133.544,99.0822,93.0183,0.000811201,0.0441924,21.0224,23.0707,0.5596,0.0,0.0
1442,360.25,25.8962,26.8394,138.898,99.0985,93.5842,0.000770293,0.0441695,21.022,23.0607,0.507308,0.0,0.0
1449,362,25.6871,27.0017,133.707,99.1299,93.0948,0.000782531,0.0441287,21.0214,23.0908,0.556582,0.0,0.0
1456,363.75,25.2547,26.8398,136.57,99.1473,93.7195,0.000788228,0.0441613,21.0217,23.0807,0.49888,0.0,0.0
1463,365.5,25.4867,26.901,134.849,99.1835,93.8104,0.000756133,0.0441344,21.0224,23.0707,0.493516,0.0,0.0
1470,367.25,25.8993,26.9074,135.673,99.1875,93.5552,0.000688818,0.0442179,21.0228,23.1008,0.518008,0.0,0.0
1477,369,26.0834,26.9224,137.406,99.197,93.2542,0.000605501,0.0442353,21.0229,23.0607,0.547424,0.0,0.0
1484,370.75,26.134,26.6199,136.293,99.2173,93.1894,0.000543789,0.0441664,21.023,23.0407,0.555393,0.0,0.0
1491,372.5,26.3526,27.1958,136.822,99.2197,94.1562,0.00057068,0.0441944,21.0231,23.0607,0.464145,0.0,0.0
1498,374.25,25.7993,26.4831,138.061,99.201,93.6692,0.000594028,0.044273,21.0231,23.0507,0.508433,0.0,0.0
1505,376,25.9166,26.6153,134.953,99.2101,93.1761,0.00056357,0.0441887,21.0225,23.0107,0.556017,0.0,0.0
1512,377.75,25.9807,26.8334,136.394,99.2173,93.8125,0.000566493,0.0442779,21.0216,23.0407,0.496342,0.0,0.0
1519,379.5,26.3181,26.8311,135.889,99.2109,93.3266,0.000606398,0.044433,21.0224,23.0307,0.541784,0.0,0.0
1526,381.25,25.5316,26.8659,137.198,99.2014,93.6555,0.000631049,0.0444193,21.023,23.0407,0.509763,0.0,0.0
1533,383,26.0676,26.9247,138.167,99.168,93.8531,0.000582536,0.0443743,21.0234,23.0407,0.488101,0.0,0.0
1540,384.75,26.1615,27.1211,136.653,99.1664,94.0878,0.000539204,0.0442924,21.0236,22.9907,0.465831,0.0,0.0
1547,386.5,26.1641,27.7599,136.532,99.1303,93.2699,0.00057348,0.0442804,21.0237,23.0107,0.539966,0.0,0.0
1554,388.25,25.6878,26.5904,137.841,99.1219,93.9203,0.00064434,0.0443222,21.0237,22.9807,0.477637,0.0,0.0
1561,390,26.2004,26.8387,138.121,99.0929,93.7762,0.000683244,0.0442678,21.0237,23.0107,0.488649,0.0,0.0
1568,391.75,25.737,27.1193,140.656,99.0623,93.6535,0.000712656,0.0441162,21.0233,22.9707,0.497521,0.0,0.0
1575,393.5,26.0317,26.7847,139.5,99.0492,93.6168,0.000721196,0.0441849,21.0231,22.9907,0.499815,0.0,0.0
1582,395.25,26.1842,26.5494,135.793,99.0142,93.3922,0.00073346,0.0441999,21.023,22.9506,0.517971,0.0,0.0
1589,397,25.8135,26.9167,138.34,98.9765,93.6494,0.000726475,0.044337,21.023,22.9707,0.490221,0.0,0.0
1596,398.75,25.8653,27.2083,139.83,98.9363,93.0891,0.000693754,0.0441571,21.0229,23.0007,0.539803,0.0,0.0
1603,400.5,25.772,27.2734,138.232,98.9359,93.61,0.000632124,0.044024,21.023,22.9907,0.490325,0.0,0.0
1610,402.25,26.1012,26.8723,134.546,98.8771,93.0135,0.000559414,0.0440109,21.0234,22.9907,0.541704,0.0,0.0
1617,404,25.7979,26.5812,138.093,98.8422,93.0179,0.000530939,0.0440204,21.0229,22.9907,0.538148,0.0,0.0
1624,405.75,25.9062,26.9444,136.236,98.8048,92.912,0.000612539,0.0440314,21.0222,22.9506,0.544889,0.0,0.0
1631,407.5,25.9068,26.598,133.686,98.7583,93.6044,0.000695958,0.0439611,21.0218,22.9707,0.474935,0.0,0.0
1638,409.25,25.4205,26.7942,138.802,98.7373,93.3894,0.000708597,0.0439669,21.0216,22.9707,0.493417,0.0,0.0
1645,411,26.0229,26.9463,138.093,98.6951,92.8061,0.000662489,0.0440848,21.0215,22.9707,0.54515,0.0,0.0
1652,412.75,25.7408,26.6283,136.2,98.655,93.1145,0.000621977,0.044118,21.0211,22.9606,0.512156,0.0,0.0
1659,414.5,25.9596,26.8515,137.905,98.6256,94.1534,0.000605169,0.0441439,21.0208,22.9707,0.411196,0.0,0.0
1666,416.25,26.1304,26.8819,140.355,98.6013,93.0469,0.000583383,0.0440831,21.0207,22.9206,0.513773,0.0,0.0
1673,418,25.516,26.8941,136.465,98.5731,92.6443,0.000526172,0.0442271,21.0197,22.9406,0.549654,0.0,0.0
1680,419.75,25.3037,26.8585,137.941,98.5306,93.3729,0.000487523,0.0450802,21.0177,22.9206,0.476419,0.0,0.0
1687,421.5,26.1407,27.1651,137.309,98.5048,91.7765,0.000530733,0.0475584,21.0125,22.9106,0.626905,0.0,0.0
1694,423.25,26.153,27.0885,133.808,98.4666,93.2783,0.000621822,0.0546455,21.0022,22.8906,0.479646,0.0,0.0
1701,425,25.7406,26.9721,131.991,98.4591,92.7152,0.000742769,0.0656773,20.985,22.8405,0.532623,0.0,0.0
1708,426.75,26.7611,26.8411,137.027,98.4273,92.2056,0.000871105,0.0790636,20.9698,22.8906,0.578599,0.0,0.0
1715,428.5,26.3876,26.8101,136.699,98.4023,91.1457,0.00100006,0.0901666,20.9558,22.8505,0.678787,0.0,0.0
1722,430.25,26.7614,27.6299,134.016,98.4527,91.3985,0.0011539,0.101077,20.9382,22.8005,0.658789,0.0,0.0
1729,432,27.3527,27.9827,129.841,98.5445,91.407,0.00126947,0.112351,20.9212,22.7404,0.666227,0.0,0.0
1736,433.75,27.4294,28.314,128.692,98.5958,92.1339,0.00141117,0.123439,20.9074,22.7204,0.600642,0.0,0.0
1743,435.5,27.9328,28.9781,134.967,98.6546,91.7133,0.0015994,0.133439,20.8924,22.6404,0.646474,0.0,0.0
1750,437.25,28.2297,29.1618,131.628,98.7154,90.3701,0.00184026,0.143517,20.8762,22.6103,0.78267,0.0,0.0
1757,439,28.338,29.4203,129.43,98.7619,90.5266,0.00206869,0.152709,20.8596,22.5603,0.771502,0.0,0.0
1764,440.75,28.8534,30.391,132.058,98.8028,89.8045,0.00238007,0.161635,20.8483,22.5503,0.846141,0.0,0.0
1771,442.5,29.1067,30.3808,133.208,98.8326,89.5731,0.00278165,0.168483,20.8381,22.5303,0.871681,0.0,0.0
1778,444.25,29.8303,30.1687,127.99,98.8541,88.6686,0.00322157,0.175372,20.8265,22.4402,0.963534,0.0,0.0
1785,446,29.8134,31.1753,133.964,98.8962,89.6053,0.00360715,0.181782,20.8168,22.3701,0.874194,0.0,0.0
1792,447.75,30.4279,31.2559,129.823,98.9232,87.8808,0.00395019,0.190611,20.8024,22.3101,1.0488,0.0,0.0
1799,449.5,30.772,32.2723,130.204,98.932,89.408,0.00419392,0.200705,20.7896,22.26,0.896925,0.0,1.0
1806,451.25,30.6275,32.3697,133.689,98.9399,88.5329,0.00432198,0.207525,20.7805,22.1699,0.984791,0.0,1.0
1813,453,30.6953,32.0436,125.706,98.9336,89.3255,0.00431238,0.213252,20.772,22.1299,0.905248,0.0,1.0
1820,454.75,31.1193,32.8315,126.073,98.9514,87.6743,0.00423249,0.219662,20.7627,22.0598,1.07218,0.0,0.0
1827,456.5,31.7493,33.2026,129.625,98.9431,88.1227,0.00432926,0.227351,20.7494,21.9497,1.02622,0.0,0.0
1834,458.25,32.0809,33.3165,126.362,98.9304,87.7661,0.00458798,0.235774,20.7362,21.8797,1.06102,0.0,0.0
1841,460,32.5375,33.8819,127.876,98.9125,87.4666,0.00491341,0.243274,20.7255,21.7996,1.0897,0.0,0.0
1848,461.75,32.7521,34.4003,131.149,98.8875,86.9176,0.00517187,0.249646,20.715,21.7095,1.14326,0.0,0.0
1855,463.5,33.3206,34.7764,125.932,98.8672,87.3197,0.00528731,0.256213,20.7044,21.6595,1.10054,0.0,0.0
1862,465.25,33.3536,34.9853,127.842,98.8306,86.3524,0.00531822,0.264421,20.6886,21.5594,1.19597,0.0,0.0
1869,467,34.0529,35.8067,127.215,98.781,86.1721,0.0053089,0.276841,20.669,21.4593,1.21004,0.0,0.0
1876,468.75,34.6584,36.4845,123.822,98.742,85.6359,0.00528739,0.286926,20.656,21.3792,1.26185,0.0,0.0
1883,470.5,35.0855,36.8152,126.237,98.6971,86.1661,0.00527761,0.294936,20.6437,21.2891,1.20313,0.0,0.0
1890,472.25,35.6614,37.6156,126.38,98.6451,86.3484,0.00531406,0.300865,20.6355,21.169,1.17973,0.0,0.0
1897,474,36.001,37.8427,123.431,98.5886,84.5882,0.005475,0.309137,20.6257,21.0789,1.35716,0.0,0.0
1904,475.75,36.8139,38.3813,123.764,98.5167,85.6331,0.00568113,0.317131,20.6125,20.9388,1.2419,0.0,0.0
1911,477.5,36.9917,38.541,125.34,98.4496,83.608,0.00578118,0.324361,20.6002,20.8688,1.44792,0.0,0.0
1918,479.25,37.3155,39.6082,129.558,98.388,84.4143,0.00576616,0.330661,20.5884,20.7787,1.35734,0.0,0.0
1925,481,38.0907,40.2255,124.473,98.3375,84.0395,0.00571707,0.338829,20.5732,20.6586,1.39222,0.0,0.0
1932,482.75,38.9636,40.6918,125.456,98.2437,83.4627,0.0057662,0.348769,20.5574,20.5184,1.44479,0.0,0.0
1939,484.5,39.5944,41.7116,127.275,98.175,83.7171,0.0060521,0.361425,20.5369,20.4184,1.41162,0.0,0.0
1946,486.25,40.0358,42.0614,119.109,98.1185,83.5637,0.00662876,0.375439,20.5133,20.3083,1.42277,0.0,0.0
1953,488,40.614,42.8006,120.494,98.0955,84.5886,0.0071606,0.39166,20.4907,20.1881,1.31268,0.0,0.0
1960,489.75,41.047,43.7705,123.366,98.1058,84.9066,0.00739344,0.402389,20.4764,20.038,1.28037,0.0,0.0
1967,491.5,42.1366,44.6203,124.269,98.0983,82.5546,0.00739955,0.407986,20.4664,19.9079,1.5286,0.0,0.0
1974,493.25,42.373,45.0091,122.577,98.1158,82.1456,0.00740118,0.412156,20.4594,19.8078,1.57419,0.0,0.0
1981,495,43.0145,45.8643,121.883,98.1293,83.0521,0.00750006,0.414377,20.456,19.7077,1.47816,0.0,0.0
1988,496.75,43.4175,46.4487,123.954,98.1356,84.2472,0.00764112,0.416567,20.4537,19.5376,1.35214,0.0,0.0
1995,498.5,43.9676,46.8279,115.271,98.1487,82.2809,0.00769748,0.419079,20.4503,19.4175,1.56259,0.0,0.0
2002,500.25,44.848,47.5205,117.91,98.1599,81.1643,0.00760725,0.429479,20.4328,19.2573,1.68466,0.0,0.0
2009,502,45.2375,48.3814,116.743,98.1746,81.3221,0.00749395,0.43945,20.4179,19.0872,1.66878,0.0,0.0
2016,503.75,45.8559,49.1788,121.475,98.1885,82.1525,0.00750474,0.445017,20.4099,18.957,1.58001,0.0,0.0
2023,505.5,46.482,49.7688,118.218,98.2064,80.9272,0.00771189,0.451909,20.3986,18.8169,1.71478,0.0,0.0
2030,507.25,47.1568,50.5063,118.114,98.2238,81.3901,0.00798028,0.459108,20.3858,18.6968,1.66582,0.0,0.0
2037,509,47.2193,51.2061,115.013,98.2445,78.9089,0.00814894,0.467332,20.3729,18.5467,1.94201,0.0,0.0
2044,510.75,48.6321,51.8071,117.927,98.2751,81.1719,0.00820124,0.476036,20.3589,18.4065,1.69423,0.0,0.0
2051,512.5,49.2769,52.7501,116.745,98.2803,80.8193,0.00822307,0.483529,20.3497,18.2664,1.73327,0.0,0.0
2058,514.25,49.5805,53.1312,120.865,98.3109,80.4341,0.00830203,0.487036,20.3456,18.1263,1.77836,0.0,0.0
2065,516,50.3647,53.6158,117.073,98.3228,80.5118,0.00836049,0.485925,20.3446,17.9962,1.77088,0.0,0.0
2072,517.75,50.4863,54.6455,116.871,98.3411,80.7557,0.00837221,0.485417,20.3451,17.846,1.74572,0.0,0.0
2079,519.5,50.9621,55.5622,118.993,98.3629,80.903,0.00834703,0.483604,20.3464,17.6258,1.73154,0.0,0.0
2086,521.25,52.2134,55.632,120.55,98.3745,78.6352,0.00838153,0.481031,20.3484,17.5057,1.98451,0.0,0.0
2093,523,52.5001,56.3968,119.06,98.3844,77.9167,0.00856239,0.482872,20.3461,17.3156,2.06675,0.0,0.0
2100,524.75,52.5417,57.101,120.364,98.4066,82.1637,0.00876908,0.485723,20.3434,17.1854,1.59846,0.0,0.0
2107,526.5,53.2557,57.5659,114.238,98.4412,80.9256,0.00882524,0.487807,20.339,17.0453,1.73612,0.0,0.0
2114,528.25,53.5745,58.2122,117.622,98.4404,80.1088,0.00874505,0.49218,20.3303,16.8752,1.82593,0.0,0.0
2121,530,54.1239,58.4324,119.004,98.4476,81.2778,0.0086534,0.496786,20.3241,16.715,1.69821,0.0,0.0
2128,531.75,54.5601,59.2015,116.876,98.4817,80.6985,0.00859169,0.500539,20.3195,16.6049,1.76466,0.0,0.0
2135,533.5,55.0961,59.6716,113.646,98.4992,81.7383,0.0084949,0.501519,20.318,16.4748,1.6528,0.0,0.0
2142,535.25,55.9798,59.8462,122.675,98.5088,81.8631,0.00841525,0.497302,20.3264,16.3147,1.64014,0.0,0.0
2149,537,55.907,60.0303,122.058,98.5135,78.8723,0.00841428,0.489129,20.3328,16.1946,1.97036,0.0,0.0
2156,538.75,56.251,60.877,118.527,98.5282,79.0212,0.00841807,0.487428,20.3383,15.9844,1.95496,0.0,0.0
2163,540.5,56.5868,60.8898,120.507,98.5374,81.6731,0.00826559,0.48637,20.3442,15.9043,1.6633,0.0,0.0
2170,542.25,56.5404,61.986,125.527,98.5533,80.6647,0.00803461,0.480309,20.3525,15.7542,1.77481,0.0,0.0
2177,544,56.6453,62.0576,116.238,98.5477,81.1321,0.007696,0.472201,20.3628,15.614,1.72312,0.0,0.0
2184,545.75,56.9714,62.1985,119.3,98.5374,81.1204,0.00743829,0.46526,20.3738,15.5039,1.72347,0.0,0.0
2191,547.5,57.1247,63.0641,120.415,98.5561,81.7278,0.00727924,0.461348,20.3812,15.3938,1.65905,0.0,0.0
2198,549.25,58.3643,62.4723,124.386,98.5624,82.3505,0.00728218,0.457932,20.3855,15.2937,1.59236,0.0,0.0
2205,551,58.0265,63.0811,118.564,98.5592,80.4124,0.0074293,0.456946,20.3875,15.1136,1.80311,0.0,0.0
2212,552.75,57.5848,63.6097,120.415,98.5521,81.9432,0.00756159,0.458923,20.3885,15.0435,1.63537,0.0,0.0
2219,554.5,58.5226,63.6806,120.772,98.5465,80.583,0.0075609,0.454597,20.3959,14.8433,1.78318,0.0,0.0
2226,556.25,58.5198,63.7688,122.558,98.5537,81.5696,0.00754883,0.444342,20.4074,14.7433,1.676,0.0,0.0
2233,558,58.7023,63.7512,115.992,98.5429,80.201,0.0075213,0.439051,20.4157,14.6532,1.82497,0.0,0.0
2240,559.75,58.3912,63.7785,121.02,98.533,81.5072,0.00745317,0.432189,20.4226,14.473,1.68092,0.0,0.0
2247,561.5,58.9711,64.1575,120.95,98.5227,81.2403,0.00743026,0.427693,20.4263,14.3629,1.70905,0.0,0.0
2254,563.25,59.3808,63.7531,117.799,98.5211,81.252,0.00741466,0.431543,20.4226,14.2428,1.70764,0.0,0.0
2261,565,59.0924,64.3976,118.025,98.5147,81.9452,0.00741062,0.434177,20.4191,14.1127,1.63179,0.0,0.0
2268,566.75,58.7146,64.8295,119.962,98.504,79.5107,0.00740512,0.435117,20.4173,13.9726,1.89807,0.0,0.0
2275,568.5,59.1207,64.5096,119.573,98.4937,77.4063,0.00727095,0.438029,20.4161,13.8825,2.13482,0.0,0.0
2282,570.25,59.3502,64.721,114.161,98.4806,82.0003,0.00711774,0.439531,20.4156,13.7624,1.62276,0.0,0.0
2289,572,59.4325,64.9176,119.791,98.471,81.0129,0.00714597,0.434604,20.4213,13.6222,1.72925,0.0,0.0
2296,573.75,59.3137,64.9327,123.551,98.4575,80.5983,0.00743007,0.429633,20.4241,13.5222,1.77349,0.0,0.0
2303,575.5,59.0485,64.638,114.454,98.45,79.7747,0.00765574,0.432923,20.4193,13.362,1.86382,0.0,0.0
2310,577.25,59.7806,64.5824,121.835,98.4349,80.548,0.00758069,0.435364,20.4175,13.2719,1.77699,0.0,0.0
2317,579,59.8678,65.1745,119.47,98.4281,79.1746,0.00736569,0.434301,20.4193,13.1518,1.92877,0.0,0.0
2324,580.75,59.5938,65.3427,116.379,98.409,81.5318,0.0071497,0.43173,20.4226,13.0217,1.6671,0.0,0.0
2331,582.5,59.9034,65.3687,117.979,98.3844,80.321,0.00703733,0.428693,20.4271,12.9016,1.79746,0.0,0.0
2338,584.25,59.8008,65.4423,115.396,98.3633,80.9159,0.00698307,0.427361,20.4288,12.8215,1.73017,0.0,0.0
2345,586,60.1301,65.7256,120.51,98.3689,80.6317,0.00686893,0.427061,20.4289,12.7214,1.76184,0.0,0.0
2352,587.75,59.782,65.7403,115,98.3447,77.4047,0.0067954,0.42743,20.4289,12.5913,2.12159,0.0,0.0
2359,589.5,60.6686,65.6291,119.079,98.3423,82.2809,0.00681224,0.425972,20.4296,12.4412,1.58004,0.0,0.0
2366,591.25,60.2789,66.2689,123.523,98.3129,80.1604,0.00687992,0.424178,20.4311,12.3611,1.80875,0.0,0.0
2373,593,60.6881,65.995,120.638,98.2946,81.3885,0.00685843,0.423752,20.4319,12.231,1.67237,0.0,0.0
2380,594.75,60.078,66.7699,118.841,98.2827,78.3812,0.00675733,0.424669,20.4313,12.0909,2.00491,0.0,0.0
2387,596.5,60.3303,66.4934,119.072,98.2691,77.5492,0.00667577,0.426299,20.4307,12.0208,2.09825,0.0,0.0
2394,598.25,60.321,66.7293,124.969,98.2457,78.8513,0.00662866,0.425461,20.4331,11.8907,1.94859,0.0,0.0
2401,600,60.6994,66.6271,125.05,98.2103,78.7644,0.00660781,0.422524,20.436,11.7305,1.95517,0.0,0.0
2408,601.75,61.2529,66.0643,118.743,98.2167,78.8735,0.00663545,0.419553,20.44,11.6305,1.94348,0.0,0.0
2415,603.5,60.7898,66.4429,120.681,98.2159,79.6222,0.00664725,0.416829,20.4432,11.5504,1.85969,0.0,0.0
2422,605.25,60.5315,66.9438,120.754,98.1793,80.2755,0.00662499,0.415233,20.4468,11.4103,1.78399,0.0,0.0
2429,607,61.0572,65.9863,120.988,98.1591,79.8826,0.00659176,0.41146,20.4543,11.2501,1.82563,0.0,0.0
2436,608.75,60.7042,66.563,118.056,98.1428,79.7244,0.00654118,0.407622,20.46,11.14,1.84172,0.0,0.0
2443,610.5,60.5985,66.3453,119.353,98.1507,80.1499,0.00647272,0.403834,20.4659,11.0499,1.79528,0.0,0.0
2450,612.25,60.9152,66.3272,119.594,98.1364,82.9338,0.00642371,0.398549,20.4731,10.9098,1.49144,0.0,0.0
2457,614,61.006,66.5413,123.335,98.1098,82.5208,0.006355,0.39154,20.4825,10.7797,1.53327,0.0,0.0
2464,615.75,60.7089,66.1611,123.734,98.0883,81.1196,0.00618273,0.38086,20.4995,10.6996,1.68308,0.0,0.0
2471,617.5,60.5739,65.7166,122.244,98.0756,83.1121,0.00593778,0.372476,20.5155,10.6095,1.46692,0.0,0.0
2478,619.25,59.8564,66.1478,123.896,98.0764,85.8485,0.00564312,0.361031,20.5385,10.4994,1.17995,0.0,0.0
2485,621,60.0269,65.8897,123.263,98.0569,82.9366,0.00541466,0.350166,20.5537,10.4494,1.48396,0.0,0.0
2492,622.75,59.8488,65.5989,120.916,98.0232,84.3692,0.00534975,0.34456,20.5609,10.3793,1.32916,0.0,0.0
2499,624.5,59.6329,65.677,123.526,98.0128,84.0077,0.00532121,0.342182,20.5643,10.2892,1.36627,0.0,0.0
2506,626.25,59.2769,65.3217,123.198,98.0013,84.5181,0.00521676,0.339133,20.5716,10.1892,1.31155,0.0,0.0
2513,628,59.0845,65.3822,123.374,97.9787,83.1004,0.00508479,0.331994,20.5827,10.1191,1.4594,0.0,0.0
2520,629.75,59.0648,65.1056,119.644,97.952,82.456,0.00492961,0.324393,20.593,10.029,1.52597,0.0,0.0
2527,631.5,59.0011,64.4768,119.014,97.9294,81.5567,0.00472358,0.31994,20.5985,9.95895,1.62109,0.0,0.0
2534,633.25,58.3642,64.7736,119.043,97.9175,82.3839,0.00450369,0.318866,20.6018,9.85886,1.53059,0.0,0.0
2541,635,58.839,64.1372,121.71,97.9147,84.9802,0.00426864,0.314039,20.605,9.7888,1.2554,0.0,0.0
2548,636.75,57.7485,64.1577,123.445,97.8904,83.9912,0.00401281,0.305552,20.6207,9.69872,1.35694,0.0,0.0
2555,638.5,57.8837,63.2567,125.164,97.8519,83.6382,0.00387132,0.299509,20.6298,9.63867,1.39077,0.0,0.0
2562,640.25,58.0434,63.2581,127.011,97.8499,84.8917,0.00380027,0.294943,20.6381,9.53858,1.25878,0.0,0.0
2569,642,57.2747,62.9222,125.237,97.8368,84.7391,0.00375831,0.290208,20.6475,9.43849,1.27353,0.0,0.0
2576,643.75,57.2499,62.8849,123.6,97.8118,84.4831,0.00367796,0.285063,20.6559,9.37843,1.29807,0.0,0.0
2583,645.5,56.801,62.2841,124.848,97.7772,86.2264,0.0035332,0.277975,20.6679,9.26833,1.11395,0.0,0.0
2590,647.25,57.0529,62.3621,126.537,97.7704,85.8078,0.00340161,0.272396,20.6752,9.2283,1.15646,0.0,0.0
2597,649,56.3326,61.7213,127.884,97.7708,85.4214,0.00326347,0.271056,20.6786,9.18826,1.19649,0.0,0.0
2604,650.75,55.8774,61.1578,128.564,97.747,86.6032,0.00312476,0.269228,20.6834,9.1182,1.07258,0.0,0.0
2611,652.5,55.6967,61.1068,127.171,97.7303,85.4162,0.0029829,0.26404,20.6933,9.03813,1.19336,0.0,0.0
2618,654.25,56.0618,60.9322,128.026,97.7001,87.2038,0.00280932,0.256705,20.7041,8.99809,1.00709,0.0,0.0
2625,656,55.6841,60.4554,125.263,97.6997,86.9985,0.00268768,0.249816,20.7128,8.93804,1.02794,0.0,0.0
2632,657.75,55.1026,60.259,127.742,97.7041,87.3274,0.0026374,0.244325,20.7197,8.88799,0.994903,0.0,0.0
2639,659.5,54.7998,59.7039,125.836,97.6898,88.322,0.00260034,0.2391,20.7262,8.81793,0.893251,0.0,0.0
2646,661.25,54.6715,59.6009,126.678,97.6651,88.4025,0.00256056,0.235245,20.7326,8.80792,0.882944,0.0,0.0
2653,663,54.4747,59.0236,124.715,97.6604,87.8345,0.00250798,0.229468,20.7395,8.69782,0.939624,0.0,0.0
2660,664.75,54.0191,59.0368,127.721,97.6453,87.9722,0.00255107,0.224241,20.7495,8.6778,0.924376,0.0,0.0
2667,666.5,53.6186,58.29,127.731,97.6298,88.9028,0.00264644,0.218943,20.7576,8.60774,0.829724,0.0,0.0
2674,668.25,53.5385,58.2867,127.117,97.6047,89.0393,0.00265567,0.214107,20.766,8.5677,0.813862,0.0,0.0
2681,670,53.3164,57.6045,127.234,97.5972,90.3399,0.0025913,0.206685,20.7782,8.50765,0.684684,0.0,0.0
2688,671.75,52.9023,57.3371,129.697,97.6023,88.9181,0.00250149,0.199881,20.7896,8.48763,0.825711,0.0,0.0
2695,673.5,52.6348,56.5253,128.201,97.5976,89.4229,0.00242473,0.193024,20.8007,8.44759,0.775118,0.0,0.0
2702,675.25,51.8738,56.5856,129.25,97.5841,91.0503,0.00238685,0.186321,20.8092,8.41757,0.614081,0.0,0.0
2709,677,51.4028,56.057,127.476,97.5598,89.0727,0.00238033,0.180288,20.8177,8.39755,0.80646,0.0,0.0
2716,678.75,51.1633,56.2327,132.402,97.5658,90.2151,0.00236655,0.17346,20.8286,8.37753,0.694081,0.0,0.0
2723,680.5,50.9101,55.5825,129.353,97.5511,91.0258,0.0023175,0.164557,20.8421,8.33749,0.613475,0.0,0.0
2730,682.25,49.9733,55.1493,128.626,97.5519,89.3046,0.002243,0.155753,20.8536,8.30747,0.782704,0.0,0.0
2737,684,49.8241,54.5659,130.844,97.5284,90.4659,0.00215153,0.147378,20.865,8.26743,0.666091,0.0,0.0
2744,685.75,49.451,53.4792,131.619,97.5352,90.9545,0.00203208,0.13734,20.8814,8.2374,0.61897,0.0,0.0
2751,687.5,49.0804,53.2845,132.831,97.5336,90.8555,0.00191572,0.127061,20.8997,8.2374,0.628477,0.0,0.0
2758,689.25,48.2577,53.1605,129.875,97.5106,91.2347,0.00179255,0.11793,20.914,8.24741,0.589479,0.0,0.0
2765,691,48.1628,51.7803,134.773,97.5078,90.9751,0.00160677,0.110094,20.9268,8.2274,0.614479,0.0,0.0
2772,692.75,47.8358,51.8188,132.927,97.5046,91.6018,0.00143911,0.103416,20.9379,8.21739,0.553355,0.0,0.0
2779,694.5,46.6224,51.3843,133.433,97.505,92.0502,0.00134101,0.0961079,20.9492,8.24741,0.51012,0.0,0.0
2786,696.25,46.7805,50.3658,135.793,97.4982,91.9794,0.00132513,0.0890452,20.9585,8.21739,0.516329,0.0,0.0
2793,698,45.7998,49.7794,135.374,97.4792,91.8135,0.00136582,0.0834649,20.9656,8.21739,0.530586,0.0,0.0
2800,699.75,45.0896,48.7388,133.888,97.4748,92.0482,0.00131933,0.0780924,20.9733,8.2274,0.50757,0.0,0.0
2807,701.5,44.4094,48.1166,134.874,97.4823,91.7451,0.00117936,0.0724546,20.982,8.17735,0.537481,0.0,0.0
2814,703.25,44.0789,47.0912,138.225,97.4684,91.9914,0.00110678,0.0680384,20.9882,8.2274,0.512456,0.0,0.0
2821,705,43.5946,46.848,134.454,97.4525,92.5236,0.00119916,0.0656382,20.9917,8.20738,0.459901,0.0,0.0
2828,706.75,43.1118,45.8151,133.379,97.4506,91.9013,0.00140488,0.0639653,20.993,8.21739,0.51952,0.0,0.0
2835,708.5,42.6168,45.5939,133.737,97.4422,92.4906,0.00144605,0.0627892,20.9937,8.20738,0.462124,0.0,0.0
2842,710.25,41.7807,45.3738,136.564,97.4402,92.1689,0.00138993,0.0619026,20.9949,8.19737,0.492808,0.0,0.0
2849,712,41.5979,45.058,135.439,97.4335,91.7793,0.00128994,0.0612304,20.9957,8.20738,0.529734,0.0,0.0
2856,713.75,41.3589,44.2514,136.104,97.4203,92.3062,0.00121096,0.0606189,20.9961,8.21739,0.477815,0.0,0.0
2863,715.5,40.9132,43.7014,131.486,97.4287,91.7451,0.0012388,0.0602844,20.9971,8.19737,0.532604,0.0,0.0
2870,717.25,40.1527,42.7777,135.826,97.412,91.9226,0.00125104,0.0598758,20.998,8.19737,0.513957,0.0,0.0
2877,719,40.1664,42.6308,132.699,97.4045,92.0812,0.00116669,0.0594799,20.9989,8.20738,0.497997,0.0,0.0
2884,720.75,39.2566,42.009,135.219,97.3929,92.6133,0.00103967,0.0590901,20.9993,8.19737,0.445888,0.0,0.0
2891,722.5,39.0071,42.4003,134.238,97.381,92.1508,0.00100571,0.0585895,20.9995,8.19737,0.489165,0.0,0.0
2898,724.25,38.6797,40.9694,135.154,97.3782,91.9383,0.00102009,0.0581265,21.0001,8.17735,0.509371,0.0,0.0
2905,726,38.7233,41.4867,133.798,97.3989,92.2486,0.00103232,0.0578489,21.0011,8.15733,0.481391,0.0,0.0
2912,727.75,38.1641,41.0182,134.613,97.3778,92.1891,0.00104659,0.0573218,21.0016,8.15733,0.485198,0.0,0.0
2919,729.5,37.8484,40.7628,139.166,97.3607,92.4644,0.001027,0.0570313,21.0039,8.16734,0.457219,0.0,0.0
2926,731.25,37.7114,40.1185,136.041,97.3576,92.1645,0.000965493,0.0566293,21.0052,8.14732,0.485714,0.0,0.0
2933,733,37.1652,39.6346,138.611,97.3552,92.6737,0.00092481,0.0560177,21.0069,8.14732,0.436677,0.0,0.0
2940,734.75,37.5249,39.2815,135.955,97.3584,92.6657,0.000948578,0.0555402,21.0076,8.14732,0.437736,0.0,0.0
2947,736.5,36.6142,39.572,132.226,97.3611,92.0603,0.00095851,0.0550979,21.0091,8.13732,0.496069,0.0,0.0
2954,738.25,36.3325,38.422,137.401,97.3385,92.049,0.000910432,0.0543714,21.0099,8.10729,0.495092,0.0,0.0
2961,740,36.0431,38.8936,132.443,97.3532,92.4258,0.000798213,0.0536168,21.0103,8.10729,0.460237,0.0,0.0
2968,741.75,36.5339,37.9192,134.355,97.3492,92.5787,0.000780987,0.0529422,21.0113,8.1173,0.445223,0.0,0.0
2975,743.5,35.5448,37.4933,133.046,97.3317,92.1702,0.000848629,0.05232,21.0121,8.12731,0.482822,0.0,0.0
2982,745.25,35.474,38.2141,135.341,97.3266,92.2177,0.00095064,0.0516424,21.0126,8.12731,0.477786,0.0,0.0
2989,747,36.1566,37.1513,133.148,97.3262,91.7274,0.000988161,0.0511308,21.0132,8.1173,0.524986,0.0,0.0
2996,748.75,34.6643,36.7046,134.939,97.3198,92.6331,0.0008875,0.050591,21.0143,8.12731,0.437346,0.0,0.0
3003,750.5,34.8569,36.8224,138.526,97.3266,93.2711,0.000706968,0.0499704,21.0148,8.08727,0.377141,0.0,0.0
3010,752.25,34.9939,36.6544,132.789,97.3139,92.1911,0.000517897,0.0492889,21.0139,8.10729,0.479181,0.0,0.0
3017,754,34.1877,36.6742,132.365,97.3091,91.6936,0.000510578,0.0488346,21.0134,8.12731,0.526696,0.0,0.0
3024,755.75,34.4575,36.3056,134.207,97.3154,92.3159,0.000618289,0.0483654,21.014,8.10729,0.467341,0.0,0.0
3031,757.5,34.4562,35.8694,134.165,97.3266,92.4415,0.000688472,0.0479236,21.0147,8.12731,0.456308,0.0,0.0
3038,759.25,34.2932,36.1759,134.864,97.3158,92.3412,0.000692262,0.0475346,21.015,8.1173,0.464944,0.0,0.0
3045,761,34.3527,35.171,135.332,97.3115,92.4596,0.000593817,0.0471556,21.0152,8.10729,0.453197,0.0,0.0
3052,762.75,33.9866,35.0207,133.468,97.3055,92.6781,0.000481077,0.0467779,21.0153,8.08727,0.431731,0.0,0.0
3059,764.5,33.1817,35.3311,134.55,97.3206,92.1536,0.000437795,0.0465725,21.0159,8.09728,0.483396,0.0,0.0
3066,766.25,33.5001,35.1928,137.827,97.3135,92.0232,0.000470987,0.0463774,21.0168,8.1173,0.495293,0.0,0.0
3073,768,33.2468,34.3624,133.993,97.2976,92.3871,0.000591751,0.0461829,21.0165,8.09728,0.458877,0.0,0.0
3080,769.75,33.2095,34.6439,136.904,97.2976,91.3671,0.000730999,0.0459366,21.0171,8.09728,0.55725,0.0,0.0
3087,771.5,33.2315,34.193,138.923,97.3047,92.5179,0.000730604,0.0457256,21.0174,8.12731,0.446989,0.0,0.0
3094,773.25,33.0218,34.0912,135.671,97.3035,92.3424,0.00064208,0.045579,21.0175,8.05724,0.463706,0.0,0.0
3101,775,32.2382,33.8904,138.657,97.2988,92.5964,0.000563224,0.0453295,21.0178,8.13732,0.438933,0.0,0.0
3108,776.75,32.5084,33.9677,132.903,97.2852,92.5731,0.000531271,0.0451304,21.0181,8.17735,0.439936,0.0,0.0
3115,778.5,32.4252,33.5955,136.199,97.2868,91.8216,0.00053531,0.0449405,21.0193,8.12731,0.51231,0.0,0.0
3122,780.25,32.1309,33.5024,133.277,97.2884,92.4008,0.000587218,0.0448284,21.0195,8.12731,0.456732,0.0,0.0
3129,782,32.2524,33.408,134.121,97.2805,92.398,0.000725278,0.0447516,21.0189,8.07726,0.456278,0.0,0.0
3136,783.75,31.3553,33.0358,135.158,97.2864,92.121,0.000869706,0.0447025,21.0186,8.06725,0.483418,0.0,0.0
3143,785.5,31.6431,33.3088,133.581,97.2773,92.0905,0.000982532,0.0446361,21.0184,8.08727,0.48553,0.0,0.0
3150,787.25,31.595,32.6699,132.649,97.2773,92.1581,0.00105137,0.0446243,21.0184,8.09728,0.479025,0.0,0.0
3157,789,32.2192,33.2339,135.508,97.2713,92.3094,0.00099093,0.0446233,21.0183,8.10729,0.463942,0.0,0.0
3164,790.75,31.8598,32.7775,135.207,97.2705,92.1786,0.000803739,0.0445998,21.0195,8.09728,0.476437,0.0,0.0
3171,792.5,31.7355,32.7852,134.841,97.2622,91.5112,0.000636955,0.0443998,21.0205,8.12731,0.540065,0.0,0.0
3178,794.25,31.4065,32.5345,138.503,97.265,92.336,0.000558986,0.0442956,21.021,8.1173,0.460812,0.0,0.0
3185,796,31.4431,32.8754,139.299,97.2745,92.0973,0.000532488,0.0441999,21.0208,8.10729,0.484618,0.0,0.0
3192,797.75,31.8315,32.5768,135.182,97.2777,92.4849,0.000452341,0.0442568,21.0198,8.13732,0.44769,0.0,0.0
3199,799.5,31.271,32.5371,135.829,97.2749,92.138,0.000380653,0.0443163,21.0203,8.15733,0.480743,0.0,0.0
3206,801.25,31.3121,32.1358,134.63,97.2674,92.2136,0.000414662,0.0443372,21.0203,8.09728,0.472781,0.0,0.0
3213,803,31.3342,32.2868,133.286,97.263,92.0397,0.000550877,0.0442686,21.02,8.09728,0.489108,0.0,0.0
3220,804.75,31.0191,32.221,135.85,97.2602,91.64,0.000663385,0.0443803,21.0199,8.10729,0.52742,0.0,0.0
3227,806.5,30.8698,32.0343,136.398,97.2574,93.0964,0.000725618,0.0446687,21.0198,8.1173,0.387455,0.0,0.0
3234,808.25,31.2091,32.3583,135.357,97.2586,92.6576,,0.0446379,,8.09728,0.429424,0.0,0.0
3241,810,31.4627,31.7118,131.749,97.2602,92.0603,,0.0445759,,8.14732,0.486878,0.0,0.0
3248,811.75,30.9151,31.6956,136.497,97.2546,92.2277,,,,8.12731,0.47027,0.0,0.0
3255,813.5,30.8062,31.7983,132.445,97.2415,92.3308,,,,8.13732,0.459179,0.0,0.0
3262,815.25,31.2378,31.5724,136.77,97.2423,92.2821,,,,8.14732,0.463926,0.0,0.0
3269,817,30.5692,31.7221,138.429,97.2372,92.2092,,,,8.12731,0.470455,0.0,0.0
3276,818.75,30.3813,30.605,138.074,97.2411,92.4471,,,,8.14732,0.447986,0.0,0.0