File: 01_Data/Nylon_Carpet_High_Pile/Cone/Nylon_Carpet_High_Pile_Cone_HF25Scan_220317_R1.csv
Names,Time,Stack TC,Smoke TC,Exh Press,Smoke Comp,Smoke Meas,CO Meter,CO2 Meter,O2 Meter,Sample Mass,Ext Coeff,Start Test,Flame Verif
Chan Gain,,500,500,1,1,1,1,1,1,1,1,1.0,1.0
Offset,,0,0,0.13495,0,0,0,0,0,0,0,0.0,0.0
Gain,,1,1,25.011,13.0212,13.19,1,1,1,1.0009,1.01015,1.0,1.0
Units,sec,C,C,Pa,%,%,%,%,%,g,/m,,
Baseline,,22.9497,23.8761,139.015,97.579,92.8637,0.000797167,0.0445219,21.0246,-489.21,0.438916,,
9,2,21.5064,22.8922,142.052,97.2014,92.5755,0.000298403,0.0481874,21.0211,26.1935,0.432064,0.0,0.0
18,4.25,21.8113,22.753,137.493,97.1998,91.82,0.000418584,0.0478935,21.0212,26.1835,0.504535,0.0,0.0
27,6.5,21.8444,22.7591,140.494,97.2256,92.1412,0.000535447,0.0472961,21.0222,26.1835,0.475944,0.0,0.0
36,8.75,21.9086,22.9243,136.599,97.2602,91.8099,0.000582808,0.0465243,21.0242,26.1435,0.51101,0.0,0.0
45,11,22.0676,22.8668,136.177,97.2916,91.8365,0.000535815,0.0456516,21.0253,26.1335,0.511307,0.0,0.0
54,13.25,22.0765,22.8745,136.469,97.3556,92.2269,0.00056483,0.0450848,21.0257,26.0935,0.479538,0.0,0.0
63,15.5,22.1172,23.1754,142.293,97.4188,92.6314,0.000594194,0.0447704,21.0258,26.1035,0.446504,0.0,0.0
72,17.75,22.6498,23.0297,140.511,97.5018,91.9645,0.000490222,0.0445022,21.0261,26.0935,0.518089,0.0,0.0
81,20,22.4676,23.2471,140.472,97.5944,92.4527,0.000431268,0.0444935,21.0257,26.0935,0.479578,0.0,0.0
90,22.25,22.3759,22.768,138.588,97.6933,91.8268,0.000419282,0.0447831,21.0246,26.0534,0.548752,0.0,0.0
99,24.5,22.5051,23.3557,135.605,97.8145,92.532,0.00035671,0.0451913,21.0242,25.9934,0.491946,0.0,0.0
108,26.75,22.416,23.7779,139.669,97.933,93.0042,0.000268862,0.0452156,21.024,26.0134,0.457568,0.0,0.0
117,29,22.6545,23.2584,138.655,98.0633,92.6258,0.000274293,0.0454312,21.024,26.0034,0.505476,0.0,0.0
126,31.25,22.8123,23.3571,140.062,98.1857,92.7993,0.000350219,0.0461594,21.0239,26.0134,0.499948,0.0,0.0
135,33.5,22.5058,23.9841,138.302,98.3061,92.683,0.000368742,0.046881,21.0226,25.9934,0.521921,0.0,0.0
144,35.75,22.3235,22.8623,138.326,98.388,93.1781,0.000497182,0.0477884,21.022,25.9834,0.482089,0.0,0.0
153,38,22.8268,23.3246,141.774,98.4484,93.4244,0.000661973,0.0482106,21.0218,25.9533,0.464131,0.0,0.0
162,40.25,22.7963,23.7419,140.229,98.5,92.9873,0.000710277,0.0479851,21.0224,25.9433,0.510338,0.0,0.0
171,42.5,22.2591,23.5078,137.103,98.5064,93.5331,0.000648818,0.0476988,21.0231,25.9133,0.459048,0.0,0.0
180,44.75,22.8083,23.465,141.184,98.4722,92.4193,0.000594786,0.047657,21.0235,25.9333,0.562123,0.0,0.0
189,47,22.6517,23.3718,139.318,98.4186,93.1692,0.00058134,0.0480935,21.0237,25.9433,0.485685,0.0,0.0
198,49.25,22.7768,24.0067,139.586,98.345,93.5263,0.000603328,0.047803,21.0237,25.9033,0.445172,0.0,0.0
207,51.5,23.1499,23.6945,139.726,98.2616,92.4415,0.000628672,0.0471605,21.0238,25.8933,0.541029,0.0,0.0
216,53.75,22.767,24.0333,138.538,98.1579,93.4772,0.000667343,0.046931,21.0234,25.8833,0.432948,0.0,0.0
225,56,22.7143,23.9625,143.832,98.111,92.2982,0.000701048,0.0467337,21.0231,25.8633,0.541184,0.0,0.0
234,58.25,22.9913,23.7962,140.975,98.0673,92.4491,0.000628597,0.0463885,21.023,25.8032,0.522756,0.0,0.0
243,60.5,23.3852,24.0477,138.059,98.0991,93.0412,0.000578382,0.0462029,21.0229,25.7932,0.469056,0.0,0.0
252,62.75,22.8473,24.0167,139.862,98.4376,93.2896,0.000559487,0.0462983,21.0231,25.8232,0.475963,0.0,0.0
261,65,22.4261,23.9816,137.713,98.6916,92.7623,0.000673846,0.0465515,21.0234,25.8032,0.54902,0.0,0.0
270,67.25,23.1225,23.8985,135.976,98.8398,93.6382,0.000774794,0.0468136,21.0227,25.7732,0.479041,0.0,0.0
279,69.5,23.0373,23.7271,138.731,98.897,93.3552,0.000622342,0.0469456,21.0218,25.7532,0.510988,0.0,0.0
288,71.75,22.966,24.1761,138.588,98.8799,93.1604,0.00036279,0.0466399,21.0228,25.7231,0.527968,0.0,0.0
297,74,23.0618,23.5065,141.335,98.7575,93.2719,0.000424473,0.0463786,21.0241,25.7231,0.506395,0.0,0.0
306,76.25,23.5191,24.2177,141.094,98.5501,93.447,0.000720534,0.0458375,21.0252,25.7031,0.471144,0.0,0.0
315,78.5,23.2459,23.8117,138.111,98.3892,92.8895,0.000913354,0.0455402,21.0256,25.7632,0.509685,0.0,0.0
324,80.75,22.821,24.0933,138.757,98.5159,92.918,0.000834275,0.0452307,21.0248,25.6931,0.518368,0.0,0.0
333,83,23.874,24.3336,138.637,98.6777,93.2598,0.000735127,0.0452239,21.0241,25.6831,0.500373,0.0,0.0
342,85.25,23.2888,24.5454,135.959,98.8656,92.7731,0.000751575,0.0453994,21.0237,25.6731,0.563594,0.0,0.0
351,87.5,23.3416,24.4002,139.293,99.0281,93.3387,0.000776523,0.045785,21.0232,25.633,0.524296,0.0,0.0
360,89.75,23.7624,23.7805,139.985,99.1434,93.67,0.000710122,0.0462115,21.023,25.6631,0.503208,0.0,0.0
369,92,23.7394,23.7847,141.562,99.172,93.7742,0.000593226,0.0464493,21.0225,25.6431,0.495907,0.0,0.0
378,94.25,23.4066,24.6615,139.925,99.1346,93.4349,0.000495799,0.0467149,21.0213,25.6631,0.524692,0.0,0.0
387,96.5,23.7643,24.6714,137.379,99.0373,93.356,0.000433874,0.0468522,21.0218,25.6731,0.523472,0.0,0.0
396,98.75,23.7617,24.5705,139.208,98.8259,92.9555,0.000417724,0.0468007,21.0225,25.6531,0.542633,0.0,0.0
405,101,23.3579,24.581,135.578,98.5739,93.234,0.000528429,0.0465157,21.0223,25.6431,0.493503,0.0,0.0
414,103.25,23.4579,24.5299,138.029,98.2644,92.5461,0.000827142,0.0466918,21.0213,25.6631,0.531254,0.0,0.0
423,105.5,23.4506,24.27,135.901,97.9445,92.4918,0.00101645,0.0478402,21.0199,25.6431,0.507566,0.0,0.0
432,107.75,23.6494,25.0174,137.631,97.6393,91.7817,0.000942129,0.0489399,21.0183,25.6931,0.5482,0.0,0.0
441,110,23.7529,24.5708,137.585,97.4116,91.3913,0.000803841,0.0496147,21.018,25.6731,0.565288,0.0,0.0
450,112.25,23.5986,24.598,137.292,97.2916,91.4158,0.000723002,0.0498042,21.018,25.6431,0.551986,0.0,0.0
459,114.5,23.8254,24.882,140.029,97.2364,91.2926,0.000665462,0.0494116,21.0193,25.6531,0.5589,0.0,0.0
468,116.75,23.3608,24.7971,135.214,97.2737,91.101,0.000538152,0.0487085,21.0203,25.6631,0.580921,0.0,0.0
477,119,23.4567,24.5907,140.277,97.4215,91.6859,0.000484617,0.0478889,21.0217,25.6731,0.53767,0.0,0.0
486,121.25,23.7131,24.3013,137.076,97.6361,91.3844,0.000528927,0.0470894,21.0222,25.623,0.586351,0.0,0.0
495,123.5,23.9118,24.6011,140.414,97.8543,91.7515,0.00051893,0.0468489,21.021,25.6531,0.570604,0.0,0.0
504,125.75,23.5095,24.2793,141.526,98.078,92.152,0.000522935,0.047198,21.0206,25.6631,0.552245,0.0,0.0
513,128,23.6841,24.493,139.804,98.2755,92.9015,0.000610806,0.0475329,21.0204,25.6431,0.498292,0.0,0.0
522,130.25,23.8487,24.5865,137.717,98.4261,92.4145,0.000849724,0.0474675,21.0203,25.623,0.558438,0.0,0.0
531,132.5,23.5209,24.7606,138.187,98.4945,92.1722,0.000953184,0.0470401,21.0205,25.6431,0.587854,0.0,0.0
540,134.75,23.3015,25.1171,134.197,98.5044,92.1005,0.000817956,0.0467616,21.0208,25.613,0.595639,0.0,0.0
549,137,23.5071,24.946,139.78,98.4372,92.1798,0.000737276,0.046524,21.0209,25.633,0.581968,0.0,0.0
558,139.25,24.1637,24.4373,142.28,98.3244,92.4837,0.000747829,0.0463162,21.0209,25.593,0.542639,0.0,0.0
567,141.5,23.0768,24.5162,139.408,98.1845,91.4963,0.000823782,0.0462756,21.0209,25.593,0.625137,0.0,0.0
576,143.75,23.915,24.757,137.95,98.0732,91.3558,0.000933494,0.0463574,21.0198,25.623,0.628705,0.0,0.0
585,146,23.3315,24.6198,138.769,98.0105,91.5366,0.00101632,0.046712,21.0191,25.603,0.605518,0.0,0.0
594,148.25,23.1211,24.385,141.713,98.2823,91.9649,0.000957572,0.0479772,21.0164,25.583,0.588694,0.0,0.0
603,150.5,23.6525,24.7727,139.398,98.5918,92.3996,0.000814495,0.0497842,21.015,25.583,0.574771,0.0,0.0
612,152.75,24.2582,24.5515,137.612,98.8012,92.0796,0.000802108,0.0501249,21.0144,25.633,0.624315,0.0,0.0
621,155,24.016,25.024,138.145,98.8656,92.0188,0.00084156,0.0498918,21.0141,25.593,0.635936,0.0,0.0
630,157.25,23.8488,25.1652,144.382,98.7929,91.6642,0.000821596,0.0499485,21.0149,25.593,0.663632,0.0,0.0
639,159.5,23.9234,25.1022,137.993,98.6065,91.4263,0.000766123,0.0498272,21.0163,25.593,0.669927,0.0,0.0
648,161.75,24.2639,24.9227,136.383,98.3514,91.6368,0.000656645,0.0490843,21.018,25.573,0.626592,0.0,0.0
657,164,23.7578,25.242,139.118,98.477,91.671,0.000570001,0.0480127,21.0189,25.583,0.634589,0.0,0.0
666,166.25,24.3293,25.1302,138.956,98.6629,91.756,0.000700485,0.0471861,21.0192,25.623,0.643103,0.0,0.0
675,168.5,24.2053,25.0334,139.526,98.8553,92.1239,0.000933908,0.0469383,21.0195,25.593,0.624901,0.0,0.0
684,170.75,23.4463,25.2678,139.356,99.0186,92.1279,0.00106026,0.0469403,21.0189,25.583,0.63914,0.0,0.0
693,173,24.4587,25.2728,138.463,99.1016,91.5664,0.000971836,0.046833,21.0187,25.593,0.700742,0.0,0.0
702,175.25,23.8358,24.9166,139.969,99.1422,92.0607,0.000797996,0.0468884,21.0186,25.543,0.65666,0.0,0.0
711,177.5,23.9012,25.4033,136.912,99.083,92.0699,0.000717285,0.0466974,21.0187,25.563,0.650476,0.0,0.0
720,179.75,24.3324,25.6452,136.915,98.9161,92.0574,0.000753054,0.0464968,21.0191,25.583,0.636739,0.0,0.0
729,182,24.2885,25.1951,137.27,98.6474,91.6799,0.000833296,0.0463796,21.0192,25.553,0.64906,0.0,0.0
738,184.25,24.3891,24.661,136.04,98.3137,91.0717,0.000851776,0.0465305,21.0192,25.553,0.678007,0.0,0.0
747,186.5,24.0123,25.0037,135.627,97.9636,90.4328,0.000808872,0.0465961,21.0192,25.5129,0.70877,0.0,0.0
756,188.75,24.1621,25.2757,142.414,97.6417,90.7686,0.000701873,0.0465549,21.0192,25.553,0.646775,0.0,0.0
765,191,23.931,25.4542,139.039,97.3965,89.974,0.000598097,0.0463216,21.0202,25.543,0.702407,0.0,0.0
774,193.25,24.4085,25.5672,137.294,97.2634,90.2904,0.000591635,0.0460763,21.021,25.543,0.659184,0.0,0.0
783,195.5,24.0504,25.433,134.276,97.2467,90.0843,0.000698071,0.0458402,21.0214,25.553,0.677912,0.0,0.0
792,197.75,24.74,25.3775,136.222,97.3445,89.8572,0.00082875,0.0457013,21.0215,25.533,0.709174,0.0,0.0
801,200,24.512,25.4381,139.614,97.5638,89.9116,0.000793052,0.0454151,21.0215,25.543,0.723761,0.0,0.0
810,202.25,24.424,25.3713,134.265,97.8153,90.779,0.000647661,0.0450998,21.0231,25.533,0.661498,0.0,0.0
819,204.5,24.3047,24.9333,137.191,98.0534,90.7907,0.000622652,0.04487,21.0238,25.5129,0.681895,0.0,0.0
828,206.75,24.4059,25.2354,132.711,98.2739,90.9932,0.000751881,0.04468,21.024,25.5229,0.682065,0.0,0.0
837,209,24.7283,25.8761,140.799,98.4265,91.0922,0.000867525,0.0445697,21.0241,25.533,0.686176,0.0,0.0
846,211.25,23.9391,25.2297,138.572,98.5104,91.1481,0.000926449,0.0444092,21.0242,25.5229,0.688279,0.0,0.0
855,213.5,24.1051,26.0552,137.86,98.4754,90.7074,0.000954493,0.0443825,21.0242,25.4629,0.728086,0.0,0.0
864,215.75,24.7753,25.6377,139.706,98.3788,91.0709,0.00101253,0.0443667,21.0242,25.5029,0.683957,0.0,0.0
873,218,24.4651,25.5286,137.638,98.2115,91.0874,0.00105495,0.0442544,21.0242,25.533,0.66727,0.0,0.0
882,220.25,24.2642,25.3792,136.527,98.0709,90.4779,0.00102573,0.0440831,21.0242,25.5029,0.714054,0.0,0.0
891,222.5,24.2825,25.6225,139.025,97.9524,90.5138,0.00101213,0.0440699,21.0242,25.4929,0.69984,0.0,0.0
900,224.75,24.5256,25.4441,137.645,98.2648,90.5854,0.00107425,0.044007,21.0239,25.4229,0.721038,0.0,0.0
909,227,24.3013,25.9342,138.698,98.6081,90.8072,0.00106572,0.0440712,21.0237,25.4829,0.730274,0.0,0.0
918,229.25,24.2564,25.8788,142.038,98.7913,91.5998,0.000885822,0.044117,21.0236,25.4529,0.669717,0.0,0.0
927,231.5,24.3672,25.446,137.79,98.8354,91.314,0.000808162,0.0441213,21.0236,25.4329,0.701362,0.0,0.0
936,233.75,24.1762,25.8289,137.436,98.7241,91.2037,0.000814347,0.0441238,21.0235,25.4729,0.70209,0.0,0.0
945,236,24.6693,25.9379,141.454,98.4607,90.7802,0.000812353,0.0442535,21.024,25.4329,0.719649,0.0,0.0
954,238.25,24.2484,25.1911,139.932,98.3665,91.2182,0.000851226,0.0442832,21.0251,25.4429,0.668524,0.0,0.0
963,240.5,24.4285,25.4754,137.775,98.5386,90.6297,0.000890891,0.0441724,21.0246,25.4229,0.741363,0.0,0.0
972,242.75,23.8827,25.0538,136.642,98.7166,91.2021,0.0009153,0.0443118,21.024,25.4028,0.701569,0.0,0.0
981,245,24.4845,25.3351,135.823,98.8807,90.6957,0.000929248,0.0443019,21.0237,25.4429,0.765623,0.0,0.0
990,247.25,24.7562,24.7169,138.636,99.0206,91.4219,0.000834196,0.0443083,21.0239,25.4128,0.707486,0.0,0.0
999,249.5,24.2156,25.6237,138.773,99.1124,91.6662,0.000821189,0.0442257,21.0241,25.3628,0.692047,0.0,0.0
1008,251.75,24.3414,25.5923,141.534,99.1462,91.797,0.000878273,0.0442326,21.0241,25.3728,0.682429,0.0,0.0
1017,254,24.7391,25.3056,133.898,99.0889,91.2327,0.000785893,0.0441371,21.0242,25.3928,0.731957,0.0,0.0
1026,256.25,24.6017,25.1667,138.563,99.017,91.5619,0.000798252,0.0441701,21.0242,25.4028,0.693599,0.0,0.0
1035,258.5,24.4652,25.5604,138.464,98.8863,90.8676,0.000862769,0.0441804,21.0242,25.4429,0.749345,0.0,0.0
1044,260.75,24.1473,26.0204,140.052,98.7186,90.8229,0.000850945,0.0442384,21.0242,25.4128,0.738663,0.0,0.0
1053,263,24.1267,25.473,136.955,98.5227,91.2971,0.00074477,0.0443257,21.0242,25.4229,0.674921,0.0,0.0
1062,265.25,24.4061,24.8957,138.102,98.3311,90.8688,0.000540105,0.0442039,21.0242,25.4028,0.699344,0.0,0.0
1071,267.5,24.6569,25.4787,132.364,98.1313,90.1479,0.000459876,0.0441658,21.0242,25.3928,0.751894,0.0,0.0
1080,269.75,24.0431,25.5963,135.98,97.9226,90.399,0.000481912,0.0441183,21.0242,25.4028,0.70838,0.0,0.0
1089,272,24.3067,25.8217,139.179,97.7653,90.0573,0.00069126,0.0439689,21.0242,25.3828,0.727691,0.0,0.0
1098,274.25,24.4133,25.543,139.612,97.6242,89.877,0.000861116,0.0440318,21.0243,25.3728,0.732657,0.0,0.0
1107,276.5,23.902,25.848,143.558,97.9175,90.6007,0.000867589,0.0440761,21.0248,25.3328,0.688168,0.0,0.0
1116,278.75,24.3688,25.0592,136.919,97.8674,90.9674,0.000818676,0.0439551,21.0249,25.3628,0.647844,0.0,0.0
1125,281,24.4797,25.5945,139.124,97.7684,90.3507,0.000747688,0.0439625,21.025,25.3528,0.699153,0.0,0.0
1134,283.25,24.7864,25.1248,134.431,97.6683,90.2553,0.000705543,0.0440239,21.025,25.3828,0.699435,0.0,0.0
1143,285.5,24.6556,25.3505,138.338,97.5654,89.8327,0.000729136,0.0440507,21.0247,25.3428,0.731684,0.0,0.0
1152,287.75,24.481,25.3301,137.625,97.509,90.0219,0.000762329,0.0440709,21.0244,25.3728,0.707917,0.0,0.0
1161,290,24.7247,25.4755,138.096,97.4529,89.9865,0.000711564,0.0441433,21.0243,25.3928,0.706311,0.0,0.0
1170,292.25,24.3693,25.4269,137.506,97.4056,89.9072,0.000578065,0.0442595,21.0242,25.3628,0.709821,0.0,0.0
1179,294.5,24.0057,25.4744,136.583,97.358,89.819,0.000497649,0.0442459,21.0229,25.3628,0.714176,0.0,0.0
1188,296.75,24.1727,25.9974,136.943,97.3401,90.2143,0.000474233,0.04418,21.0223,25.3228,0.673637,0.0,0.0
1197,299,24.6003,25.7482,141.058,97.3262,90.172,0.000492327,0.0442142,21.0225,25.3128,0.676523,0.0,0.0
1206,301.25,24.6273,25.4732,139.579,97.2956,89.6346,0.000594667,0.0442576,21.0227,25.3428,0.726701,0.0,0.0
1215,303.5,24.4905,25.6869,136.638,97.2821,90.2662,0.000733135,0.0441222,21.0222,25.3128,0.663256,0.0,0.0
1224,305.75,24.5259,25.4218,135.95,97.2988,89.9997,0.000846575,0.0440191,21.0222,25.3228,0.690972,0.0,0.0
1233,308,24.481,25.5264,142.102,97.2686,90.1169,0.000996866,0.0440482,21.0238,25.3428,0.676697,0.0,0.0
1242,310.25,24.3645,25.6878,138.096,97.2614,89.8403,0.00113485,0.0440951,21.0246,25.3228,0.703278,0.0,0.0
1251,312.5,24.2801,25.5491,138.646,97.2678,89.8222,0.00116182,0.0440221,21.0248,25.2927,0.705644,0.0,0.0
1260,314.75,24.5096,25.4598,139.086,97.2693,89.9691,0.00111698,0.0440772,21.0238,25.3027,0.691306,0.0,0.0
1269,317,24.233,25.1667,135.768,97.2582,89.8089,0.000951338,0.0439744,21.0257,25.3027,0.706085,0.0,0.0
1278,319.25,24.4807,25.4174,139.84,97.2642,90.3612,0.000721205,0.0439611,21.0258,25.2627,0.652307,0.0,0.0
1287,321.5,24.0085,25.332,139.008,97.2654,90.5117,0.000583807,0.0439273,21.0256,25.3128,0.637665,0.0,0.0
1296,323.75,24.3745,25.1587,140.618,97.2697,90.5025,0.000606676,0.0439146,21.025,25.2927,0.638969,0.0,0.0
1305,326,24.3157,25.3265,141.868,97.2566,89.8669,0.000668162,0.0441431,21.0255,25.2927,0.700223,0.0,0.0
1314,328.25,24.4161,25.5279,133.523,97.2666,90.0005,0.000770585,0.0440386,21.0258,25.2727,0.687961,0.0,0.0
1323,330.5,24.5332,25.0289,139.48,97.267,90.3318,0.000896321,0.0439215,21.0257,25.2927,0.655441,0.0,0.0
1332,332.75,24.2523,25.6874,137.091,97.259,89.8786,0.000846829,0.0440063,21.025,25.2927,0.69929,0.0,0.0
1341,335,24.1861,25.0309,137.219,97.2511,90.0871,0.000666059,0.0440864,21.0248,25.2827,0.678032,0.0,0.0
1350,337.25,23.8835,25.5275,135.358,97.261,90.1805,0.000566569,0.0440514,21.0247,25.2827,0.669757,0.0,0.0
1359,339.5,24.2156,25.3745,134.918,97.269,90.0074,0.000745807,0.0440604,21.0246,25.2627,0.687505,0.0,0.0
1368,341.75,24.6585,25.4214,133.875,97.2666,90.354,0.00095201,0.0440699,21.0245,25.2427,0.653234,0.0,0.0
1377,344,24.3392,24.7141,140.204,97.265,90.1986,0.000846901,0.0440062,21.0245,25.2527,0.66834,0.0,0.0
1386,346.25,24.0162,25.7326,136.552,97.2717,89.9877,0.0007774,0.0440016,21.0245,25.2527,0.6897,0.0,0.0
1395,348.5,24.6102,25.148,136.985,97.2789,90.1865,0.000824226,0.044003,21.0251,25.2427,0.670793,0.0,0.0
1404,350.75,24.1924,25.2154,139.718,97.2785,89.8194,0.00080727,0.0439342,21.0262,25.2327,0.7069,0.0,0.0
1413,353,24.4293,25.5563,137.361,97.2999,90.5427,0.000744612,0.0439234,21.0252,25.2327,0.63778,0.0,0.0
1422,355.25,23.9088,25.2689,138.127,97.3035,90.0432,0.000666991,0.0440125,21.0248,25.2427,0.687128,0.0,0.0
1431,357.5,23.86,25.0963,135.298,97.3019,90.618,0.000573102,0.0457848,21.0208,25.2127,0.630597,0.0,0.0
1440,359.75,24.226,25.3305,143.225,97.3087,90.3258,0.000570344,0.0494831,21.0162,25.2227,0.659834,0.0,0.0
1449,362,24.3831,25.2866,137.299,97.3353,90.4502,0.000599437,0.0530274,21.0128,25.1926,0.650065,0.0,0.0
1458,364.25,24.6579,25.5355,142.162,97.3409,90.5725,0.000567333,0.0552776,21.0114,25.1926,0.638592,0.0,0.0
1467,366.5,24.7986,25.726,136.569,97.3603,90.6965,0.000704079,0.0563159,21.0109,25.1626,0.628243,0.0,0.0
1476,368.75,24.5002,25.8249,135.514,97.377,90.7686,0.000932023,0.0566225,21.0101,25.1826,0.622726,0.0,0.0
1485,371,24.471,25.5164,138.89,97.414,90.5637,0.00107924,0.0575606,21.0076,25.1626,0.646112,0.0,0.0
1494,373.25,24.463,26.1153,138.687,97.4184,90.7553,0.0011656,0.0587191,21.0066,25.1426,0.627782,0.0,0.0
1503,375.5,24.3743,26.0777,141.095,97.451,91.0061,0.00122487,0.0599457,21.0062,25.1426,0.606295,0.0,0.0
1512,377.75,24.5004,25.967,134.77,97.4843,90.2952,0.00119038,0.0607555,21.0046,25.1326,0.678816,0.0,0.0
1521,380,25.4579,25.7342,142.09,97.5241,90.6687,0.00105545,0.0615188,21.004,25.1326,0.645844,0.0,0.0
1530,382.25,25.1497,26.3197,136.196,97.5352,90.6623,0.000919005,0.0619215,21.003,25.1226,0.647485,0.0,0.0
1539,384.5,25.2529,26.7184,137.188,97.5809,90.7569,0.000935566,0.0623432,21.0016,25.1526,0.642395,0.0,0.0
1548,386.75,25.658,26.7369,135.462,97.6361,90.6156,0.00101651,0.0622739,21.0004,25.1226,0.661216,0.0,0.0
1557,389,25.4194,26.4397,136.961,97.6806,90.7915,0.00100888,0.0622102,20.9999,25.0926,0.648069,0.0,0.0
1566,391.25,25.5695,26.5973,136.143,97.7295,90.9388,0.000970951,0.0626387,20.9998,25.0525,0.638135,0.0,0.0
1575,393.5,25.5023,26.8709,134.034,97.7967,90.934,0.000958838,0.0631963,20.9994,25.0625,0.644692,0.0,0.0
1584,395.75,25.8594,26.7527,136.189,97.8432,91.3228,0.000853468,0.063686,20.9981,25.0725,0.611094,0.0,0.0
1593,398,25.759,26.8363,138.81,97.9052,91.4327,0.00075433,0.0637111,20.9976,25.0725,0.606051,0.0,0.0
1602,400.25,25.7263,26.873,137.441,97.9755,90.9433,0.000742576,0.0640712,20.9974,25.0425,0.659977,0.0,0.0
1611,402.5,25.9342,27.0822,137.141,98.0601,91.7527,0.00072121,0.064121,20.9974,25.0325,0.589108,0.0,0.0
1620,404.75,25.9537,27.1333,137.105,98.1193,91.4082,0.000634156,0.0645469,20.9973,25.0325,0.627794,0.0,0.0
1629,407,25.908,26.9761,137.749,98.1678,90.7702,0.000511665,0.064552,20.9977,25.0225,0.694236,0.0,0.0
1638,409.25,26.1774,27.3764,135.048,98.2715,91.4822,0.000556221,0.064259,20.9983,25.0125,0.634351,0.0,0.0
1647,411.5,25.4485,27.0914,129.766,98.3276,90.9207,0.000754361,0.0641555,20.9985,24.9725,0.69396,0.0,0.0
1656,413.75,25.9319,27.0949,135.894,98.3947,91.8187,0.000967163,0.0640711,20.9974,24.9524,0.612917,0.0,0.0
1665,416,25.9224,27.1277,140.336,98.4841,91.3619,0.00098147,0.0646575,20.9967,24.9725,0.665166,0.0,0.0
1674,418.25,26.5992,27.0848,129.924,98.5743,91.5595,0.000953435,0.0661136,20.9946,24.9324,0.65413,0.0,0.0
1683,420.5,26.3252,27.3507,136.599,98.6566,91.3522,0.00102952,0.0691643,20.9917,24.9424,0.681606,0.0,0.0
1692,422.75,25.8625,27.2741,136.419,98.7198,91.9568,0.00111143,0.0713917,20.9903,24.9224,0.628827,0.0,0.0
1701,425,26.3874,27.4837,133.493,98.7957,92.6089,0.000980312,0.0718903,20.9903,24.9024,0.573024,0.0,0.0
1710,427.25,26.3579,27.4904,137.445,98.8747,91.8501,0.000887733,0.0705109,20.9911,24.9024,0.653012,0.0,0.0
1719,429.5,26.5983,27.619,139.669,98.9069,92.7313,0.000926092,0.068654,20.9915,24.8523,0.571297,0.0,0.0
1728,431.75,26.2766,27.367,138.395,98.9769,91.8727,0.000980243,0.0677296,20.9916,24.8824,0.659985,0.0,0.0
1737,434,26.6356,27.709,137.763,99.0393,92.0172,0.000910961,0.0673363,20.9922,24.8624,0.651642,0.0,0.0
1746,436.25,26.4597,27.2062,137.618,99.0738,91.9786,0.000823762,0.0667896,20.9937,24.8423,0.658456,0.0,0.0
1755,438.5,26.5603,27.8056,135.851,99.106,92.4378,0.000794454,0.0662832,20.9944,24.8123,0.617198,0.0,0.0
1764,440.75,26.5811,27.656,136.935,99.1342,91.9806,0.00086371,0.0661385,20.9947,24.8123,0.663663,0.0,0.0
1773,443,26.6464,27.6716,136.649,99.1493,92.7345,0.000953423,0.0665176,20.9948,24.7923,0.592678,0.0,0.0
1782,445.25,26.9598,27.8415,136.013,99.1473,91.948,0.000999878,0.0669265,20.9929,24.8123,0.667976,0.0,0.0
1791,447.5,26.705,27.9817,138.13,99.1322,91.822,0.00105837,0.0673733,20.9921,24.7723,0.678778,0.0,0.0
1800,449.75,26.7429,28.015,138.963,99.1199,92.1899,0.0011613,0.0679112,20.9916,24.7523,0.642243,0.0,0.0
1809,452,26.9762,28.1577,138.234,99.0766,92.3911,0.001216,0.0684667,20.9902,24.8023,0.619046,0.0,0.0
1818,454.25,26.9503,28.0562,131.969,99.013,91.6082,0.00128932,0.069768,20.9889,24.7222,0.688766,0.0,0.0
1827,456.5,26.5796,28.3008,132.573,98.9526,91.5716,0.00129252,0.071392,20.9875,24.7122,0.686902,0.0,0.0
1836,458.75,26.6486,27.7097,135.623,98.8839,91.9468,0.00128654,0.0721938,20.9864,24.7022,0.644516,0.0,0.0
1845,461,26.8715,28.0712,138.782,98.8159,91.6118,0.00128531,0.0729868,20.9858,24.6822,0.670758,0.0,0.0
1854,463.25,27.6306,28.8851,139.27,98.7309,92.2619,0.00119268,0.0731713,20.9863,24.6522,0.600474,0.0,0.0
1863,465.5,27.4088,28.7584,137.641,98.6395,91.7354,0.00104377,0.0728284,20.9869,24.6822,0.642979,0.0,0.0
1872,467.75,26.9356,28.5328,135.721,98.5533,91.3325,0.000944054,0.072578,20.9873,24.6622,0.674235,0.0,0.0
1881,470,27.5082,29.0714,137.051,98.4726,91.194,0.000940285,0.0726489,20.9861,24.6522,0.680423,0.0,0.0
1890,472.25,27.4355,28.91,133.717,98.4082,91.4846,0.00094909,0.0729721,20.9856,24.6221,0.646435,0.0,0.0
1899,474.5,27.1757,28.4653,139.981,98.3494,91.0165,0.00106589,0.0736389,20.9853,24.5821,0.686597,0.0,0.0
1908,476.75,27.6259,29.4162,135.448,98.4102,91.1828,0.00126214,0.0738834,20.9854,24.6021,0.675903,0.0,0.0
1917,479,27.1514,28.2032,136.571,98.537,91.4492,0.00125675,0.0736425,20.9856,24.5721,0.661452,0.0,0.0
1926,481.25,27.0513,28.4104,135.299,98.6697,92.0828,0.00114389,0.072881,20.987,24.5821,0.6122,0.0,0.0
1935,483.5,27.3562,28.6005,133.63,98.7623,91.4706,0.00106126,0.0723439,20.9876,24.5521,0.679623,0.0,0.0
1944,485.75,27.0193,28.5948,134.162,98.8124,91.1208,0.00104567,0.072064,20.9868,24.5321,0.718064,0.0,0.0
1953,488,27.3588,28.6799,137.942,98.8354,91.8807,0.00107613,0.0720607,20.9874,24.502,0.646534,0.0,0.0
1962,490.25,27.1863,28.2817,138.886,98.8386,91.4086,0.0010511,0.0714249,20.9883,24.502,0.692472,0.0,0.0
1971,492.5,27.466,28.6394,139.633,98.8076,92.3863,0.000958262,0.0715159,20.9878,24.482,0.595417,0.0,0.0
1980,494.75,27.4951,28.8266,137.626,98.7237,92.1971,0.000911172,0.0721889,20.987,24.482,0.606059,0.0,0.0
1989,497,27.5221,28.8535,139.616,98.6387,91.6565,0.000825352,0.0728066,20.9854,24.472,0.650531,0.0,0.0
1998,499.25,27.4096,28.7848,136.906,98.4984,91.793,0.000825753,0.0735042,20.9845,24.432,0.624739,0.0,0.0
2007,501.5,27.0174,28.1037,136.807,98.3252,91.609,0.000928542,0.0738772,20.9834,24.432,0.626914,0.0,0.0
2016,503.75,27.4053,28.6104,139.443,98.1209,91.2757,0.000910788,0.0733031,20.9842,24.4119,0.640785,0.0,0.0
2025,506,27.3446,28.9291,137.577,97.96,90.6397,0.000873919,0.0725924,20.9847,24.422,0.688197,0.0,0.0
2034,508.25,27.7024,28.9267,139.364,98.0009,91.452,0.000883625,0.0721528,20.9839,24.3619,0.612842,0.0,0.0
2043,510.5,27.4779,29.0953,134.973,98.0355,90.8394,0.00097375,0.073481,20.9797,24.3819,0.675527,0.0,0.0
2052,512.75,27.4801,29.0433,130.929,98.1011,90.4602,0.00106566,0.0783879,20.9714,24.3319,0.718517,0.0,0.0
2061,515,27.2969,28.7505,134.094,98.1682,90.0033,0.00111816,0.0847915,20.9618,24.3219,0.769446,0.0,0.0
2070,517.25,27.8563,29.3197,136.071,98.2203,89.9321,0.00119138,0.0897137,20.9552,24.2918,0.78116,0.0,0.0
2079,519.5,28.0253,29.3651,135.73,98.2771,90.5661,0.00130208,0.0929147,20.9519,24.2618,0.724039,0.0,0.0
2088,521.75,28.0403,29.7305,138.824,98.3665,90.3205,0.00139559,0.095516,20.9496,24.2318,0.756152,0.0,0.0
2097,524,27.9532,29.7068,127.673,98.4352,90.4771,0.0014888,0.0962165,20.9505,24.2218,0.746995,0.0,0.0
2106,526.25,28.1116,29.5702,134.989,98.4802,90.164,0.00152695,0.0957809,20.9525,24.2018,0.78176,0.0,0.0
2115,528.5,28.447,29.3381,135.401,98.5207,90.7686,0.00156146,0.0952723,20.9535,24.1517,0.726187,0.0,0.0
2124,530.75,27.7983,29.5987,135.015,98.5298,90.5427,0.00158527,0.095209,20.9534,24.1517,0.749081,0.0,0.0
2133,533,28.3961,30.1459,135.49,98.5092,90.1897,0.00165776,0.0959889,20.9524,24.1017,0.781838,0.0,0.0
2142,535.25,28.0159,29.9107,136.133,98.4603,90.2533,0.00176875,0.0959388,20.952,24.0816,0.771194,0.0,0.0
2151,537.5,28.3533,29.7408,133.444,98.4015,90.5021,0.00169074,0.096402,20.9515,24.0316,0.74151,0.0,0.0
2160,539.75,28.4057,29.7299,134.723,98.3144,90.0589,0.00146868,0.0969552,20.9502,24.0316,0.777168,0.0,0.0
2169,542,28.511,29.969,139.092,98.1968,91.1626,0.00131077,0.0975583,20.9498,24.0216,0.658624,0.0,0.0
2178,544.25,28.5421,30.2962,137.905,98.0804,90.6337,0.00122316,0.0977851,20.9507,24.0116,0.699672,0.0,0.0
2187,546.5,28.3056,30.3336,140.029,97.9409,90.6736,0.0011695,0.0968404,20.9526,23.9515,0.683166,0.0,0.0
2196,548.75,29.0018,30.417,132.096,97.8066,90.4892,0.00112249,0.095392,20.9553,23.9215,0.689041,0.0,0.0
2205,551,28.6096,29.9772,139.227,97.66,90.3137,0.00111269,0.0947029,20.9567,23.9115,0.692949,0.0,0.0
2214,553.25,28.6422,30.7162,134.173,97.5535,88.9129,0.00115767,0.0951569,20.9559,23.8715,0.821794,0.0,0.0
2223,555.5,28.5845,30.2572,136.318,97.4251,90.1752,0.00128576,0.0961755,20.9549,23.8615,0.685211,0.0,0.0
2232,557.75,28.944,30.3352,132.294,97.3274,89.2913,0.00136028,0.0969006,20.955,23.8615,0.763604,0.0,0.0
2241,560,28.4899,30.3508,135.87,97.2805,89.3927,0.00132248,0.0969563,20.9549,23.8414,0.749273,0.0,0.0
2250,562.25,29.2912,30.2026,137.68,97.261,90.395,0.00128338,0.0953547,20.9558,23.8214,0.648701,0.0,0.0
2259,564.5,28.7505,30.5989,135.783,97.2674,89.5863,0.00126159,0.0936186,20.9564,23.8014,0.728908,0.0,0.0
2268,566.75,29.0457,30.5586,136.095,97.3099,89.4463,0.0011941,0.0930902,20.9566,23.7514,0.746646,0.0,0.0
2277,569,28.9762,30.5251,135.145,97.4132,89.5561,0.00121323,0.0937006,20.9569,23.7313,0.74517,0.0,0.0
2286,571.25,29.2559,30.8465,141.887,97.5451,89.6866,0.0012694,0.0944114,20.9578,23.7313,0.744268,0.0,0.0
2295,573.5,28.8738,30.5837,135.018,97.7132,89.3493,0.00126059,0.0940125,20.9582,23.6813,0.792913,0.0,0.0
2304,575.75,29.2897,30.7466,135.826,97.89,89.3971,0.0013421,0.0931445,20.9583,23.6713,0.804186,0.0,0.0
2313,578,28.5566,30.0174,137.673,98.1058,90.878,0.00153028,0.0925397,20.9584,23.6212,0.678114,0.0,0.0
2322,580.25,28.8179,30.6737,135.569,98.3133,90.4216,0.00170731,0.0926443,20.9582,23.6312,0.741448,0.0,0.0
2331,582.5,29.0915,30.493,138.947,98.4825,91.1743,0.00182104,0.0934179,20.9567,23.6112,0.683234,0.0,0.0
2340,584.75,29.6222,31.0005,137.039,98.6804,90.6623,0.00185033,0.0941867,20.9536,23.5912,0.750922,0.0,0.0
2349,587,29.721,30.7627,135.893,98.8322,90.9086,0.00179523,0.0975824,20.9477,23.5412,0.740499,0.0,0.0
2358,589.25,29.4851,30.7705,136.854,98.9705,90.2992,0.00172228,0.101698,20.9429,23.5211,0.812489,0.0,0.0
2367,591.5,29.4463,30.8864,132.775,99.0508,90.643,0.00178306,0.103828,20.941,23.4711,0.786004,0.0,0.0
2376,593.75,29.6301,31.0084,131.898,99.1322,89.8762,0.00192722,0.106131,20.938,23.4411,0.868569,0.0,0.0
2385,596,29.6569,30.7692,139.809,99.174,91.5128,0.00197839,0.107684,20.9367,23.4311,0.712389,0.0,0.0
2394,598.25,29.8088,31.4676,134.147,99.1613,90.8636,0.00186271,0.107199,20.9362,23.4211,0.774344,0.0,0.0
2403,600.5,29.7345,31.0871,136.506,99.1263,90.7287,0.0017314,0.107366,20.936,23.371,0.784379,0.0,0.0
2412,602.75,29.8123,31.1528,132.907,99.0647,91.0737,0.00167122,0.107581,20.9346,23.331,0.745244,0.0,0.0
2421,605,29.4478,31.2765,132.721,98.9661,90.6788,0.00157228,0.108384,20.9339,23.311,0.774927,0.0,0.0
2430,607.25,29.466,31.179,133.036,98.8489,90.8559,0.00153103,0.108841,20.9337,23.2809,0.747136,0.0,0.0
2439,609.5,29.6983,31.0104,135.287,98.7269,90.8511,0.00165867,0.108073,20.9336,23.2609,0.736664,0.0,0.0
2448,611.75,30.1007,31.2246,134.359,98.6276,89.9361,0.00177764,0.107581,20.9354,23.2409,0.817433,0.0,0.0
2457,614,29.866,31.1419,138.524,98.4909,89.8758,0.00173047,0.107104,20.936,23.1808,0.811094,0.0,0.0
2466,616.25,30,31.3643,135.219,98.3947,89.7534,0.00175824,0.106115,20.939,23.1608,0.81451,0.0,0.0
2475,618.5,30.0916,31.7681,135.513,98.3971,89.6648,0.00175772,0.106281,20.939,23.1208,0.823473,0.0,0.0
2484,620.75,29.6418,31.451,138.093,98.5946,91.1216,0.00163504,0.107416,20.9372,23.1108,0.698437,0.0,0.0
2493,623,30.1141,31.8281,133.965,98.7261,89.3183,0.00155249,0.109862,20.9334,23.0707,0.887369,0.0,0.0
2502,625.25,30.1794,31.5735,135.577,98.8434,89.631,0.00153516,0.112941,20.9289,23.0107,0.86691,0.0,1.0
2511,627.5,30.2975,31.6854,131.179,98.8755,90.1322,0.00164082,0.118657,20.9182,23.0207,0.82039,0.0,1.0
2520,629.75,29.8365,31.8682,132.371,98.8501,89.1234,0.001924,0.126936,20.9061,22.9606,0.917839,0.0,0.0
2529,632,30.0359,31.6157,135.907,98.7869,89.6628,0.00212161,0.133373,20.8974,22.8606,0.858707,0.0,0.0
2538,634.25,29.697,31.7056,131.273,98.6725,90.1869,0.0020125,0.138569,20.8901,22.8405,0.796793,0.0,0.0
2547,636.5,30.6183,32.2827,131.744,98.5155,88.3993,0.00191867,0.143466,20.8824,22.7805,0.960086,0.0,0.0
2556,638.75,30.502,32.2439,131.375,98.2767,90.1462,0.00196452,0.149387,20.8763,22.7304,0.765175,0.0,0.0
2565,641,30.9269,32.7451,132.164,98.0259,89.2522,0.00206314,0.153435,20.8716,22.6804,0.830854,0.0,0.0
2574,643.25,31.1225,32.9164,129.835,98.0248,89.3428,0.00222378,0.156754,20.866,22.6504,0.821759,0.0,0.0
2583,645.5,31.4036,33.1536,134.674,98.0665,89.0755,0.00232903,0.162007,20.8573,22.5403,0.852078,0.0,0.0
2592,647.75,31.7084,33.4909,133.017,98.1297,89.3951,0.00230045,0.166497,20.8508,22.5102,0.826049,0.0,0.0
2601,650,31.2322,32.955,134.821,98.2242,89.4229,0.00227342,0.168648,20.8475,22.4502,0.831832,0.0,0.0
2610,652.25,31.7859,33.7615,133.362,98.2978,89.1174,0.00225368,0.170098,20.8456,22.3601,0.868787,0.0,0.0
2619,654.5,31.6997,33.3798,133.322,98.3617,89.2349,0.00219522,0.170036,20.8448,22.3501,0.862873,0.0,0.0
2628,656.75,32.4948,34.3463,135,98.4428,89.5312,0.00213969,0.172695,20.8397,22.29,0.840804,0.0,0.0
2637,659,32.5384,34.3659,129.913,98.5072,88.295,0.00226299,0.177937,20.8311,22.21,0.969792,0.0,0.0
2646,661.25,32.9151,34.7974,127.364,98.5096,88.3691,0.00239438,0.184372,20.8229,22.1599,0.962576,0.0,0.0
2655,663.5,32.7457,34.8302,126.59,98.4841,87.6562,0.00246086,0.190426,20.8156,22.0698,1.03206,0.0,0.0
2664,665.75,32.6431,34.5497,133.573,98.4706,87.7033,0.00257081,0.196851,20.8078,21.9798,1.02608,0.0,0.0
2673,668,33.1567,35.9789,129.412,98.3844,88.072,0.00297853,0.204469,20.7934,21.8997,0.981147,0.0,0.0
2682,670.25,33.9701,35.5575,131.166,98.3001,85.7189,0.00351759,0.214147,20.7776,21.7996,1.21353,0.0,0.0
2691,672.5,33.9759,35.961,129.585,98.1956,85.1312,0.00382015,0.222809,20.7637,21.7395,1.26506,0.0,0.0
2700,674.75,34.9714,37.0279,126.553,98.0693,85.9217,0.00393659,0.229642,20.7559,21.6695,1.17175,0.0,0.0
2709,677,34.8716,36.8819,128.557,97.9214,84.7415,0.00412261,0.234124,20.7474,21.5694,1.28094,0.0,0.0
2718,679.25,35.3239,37.4319,127.558,97.7533,84.7069,0.00437476,0.240647,20.7375,21.4593,1.26933,0.0,0.0
2727,681.5,35.8516,37.9869,132.591,97.6147,85.262,0.0045985,0.245482,20.7309,21.3192,1.19888,0.0,0.0
2736,683.75,36.2345,38.2871,126.978,97.4935,85.8312,0.00467104,0.249786,20.7254,21.2391,1.12891,0.0,0.0
2745,686,36.0089,38.2409,129.209,97.3814,86.0799,0.0047405,0.252407,20.7221,21.159,1.09308,0.0,0.0
2754,688.25,36.3691,38.3931,128.972,97.3135,83.8254,0.00482409,0.255624,20.7169,21.0689,1.32207,0.0,0.0
2763,690.5,37.3084,39.5318,132.135,97.2527,85.3586,0.00480611,0.259536,20.7089,20.9288,1.15592,0.0,0.0
2772,692.75,37.3967,39.6989,125.897,97.228,84.8848,0.00466658,0.264748,20.7017,20.8287,1.20299,0.0,0.0
2781,695,37.5347,40.0228,127.465,97.23,83.7956,0.00470568,0.271957,20.6896,20.7487,1.31761,0.0,0.0
2790,697.25,37.8345,40.7804,128.049,97.2968,84.977,0.00490108,0.278593,20.6808,20.6886,1.19964,0.0,0.0
2799,699.5,38.7901,41.1372,125.24,97.3858,84.0749,0.0050506,0.283402,20.6733,20.5084,1.30231,0.0,0.0
2808,701.75,38.7038,41.2475,126.48,97.4935,84.6614,0.0052289,0.287802,20.6668,20.3783,1.2505,0.0,0.0
2817,704,39.2927,41.5318,129.419,97.6556,85.3139,0.00533122,0.293858,20.6577,20.3183,1.1972,0.0,0.0
2826,706.25,39.1331,41.8572,125.965,97.8336,84.7765,0.00529683,0.300222,20.65,20.1881,1.26933,0.0,0.0
2835,708.5,40.3885,43.1692,127.305,98.0327,85.167,0.00528802,0.305149,20.6457,20.078,1.24662,0.0,0.0
2844,710.75,40.7843,43.2641,126.885,98.2302,85.7559,0.005348,0.309688,20.6384,19.9479,1.2034,0.0,0.0
2853,713,40.7808,43.5947,123.927,98.4241,85.8923,0.00547991,0.31748,20.6249,19.8378,1.20678,0.0,0.0
2862,715.25,41.3058,44.1913,127.483,98.6097,85.0986,0.00580711,0.322875,20.6165,19.6477,1.30574,0.0,0.0
2871,717.5,42.1922,45.1735,125.269,98.7663,85.3807,0.0059724,0.329057,20.6077,19.5175,1.29047,0.0,0.0
2880,719.75,42.6673,45.2368,124.31,98.9061,86.0107,0.00577193,0.333077,20.6012,19.4475,1.23787,0.0,0.0
2889,722,42.8913,45.6738,123.603,99.0246,84.8804,0.00550789,0.337012,20.5943,19.3674,1.36569,0.0,0.0
2898,724.25,43.3283,46.3959,125.85,99.0957,85.8992,0.00535872,0.341801,20.5888,19.1472,1.26633,0.0,0.0
2907,726.5,44.1951,47.3361,127.559,99.1481,87.1349,0.00547292,0.341712,20.5925,19.0271,1.14445,0.0,0.0
2916,728.75,43.6408,46.9135,123.921,99.1716,86.5396,0.00565368,0.338654,20.5964,18.887,1.2073,0.0,0.0
2925,731,44.4634,47.6424,129.738,99.1648,85.0382,0.00571231,0.334487,20.6003,18.7969,1.36178,0.0,0.0
2934,733.25,44.7764,48.1144,126.037,99.1275,84.335,0.00560752,0.331546,20.6041,18.6868,1.43202,0.0,0.0
2943,735.5,44.9573,48.4457,123.658,99.0659,83.4889,0.0055386,0.331995,20.604,18.5467,1.51586,0.0,0.0
2952,737.75,45.4098,49.1677,124.822,98.9928,84.6634,0.00557648,0.335252,20.5993,18.3965,1.38552,0.0,0.0
2961,740,45.4087,49.0765,119.499,98.8859,85.4576,0.00558934,0.341585,20.5893,18.2964,1.29322,0.0,0.0
2970,742.25,46.0345,49.7731,121.977,98.7806,84.4517,0.00555694,0.346874,20.5825,18.1463,1.3887,0.0,0.0
2979,744.5,46.2278,49.8063,121.415,98.678,85.2076,0.00568956,0.351145,20.5757,18.0262,1.30053,0.0,0.0
2988,746.75,47.2451,50.4134,126.714,98.5584,84.7677,0.00598078,0.355749,20.5709,17.836,1.33566,0.0,0.0
2997,749,47.4322,51.0712,122.125,98.4535,84.0154,0.00613978,0.354563,20.5688,17.7359,1.40521,0.0,0.0
3006,751.25,48.0527,51.733,127.112,98.3856,84.5165,0.00624678,0.356055,20.5649,17.5658,1.3464,0.0,0.0
3015,753.5,48.1468,51.9864,126.429,98.4281,84.3998,0.0063878,0.359681,20.5591,17.4457,1.36247,0.0,0.0
3024,755.75,48.6858,52.2334,121.212,98.6013,85.0712,0.00644336,0.366995,20.5479,17.3156,1.30785,0.0,0.0
3033,758,48.7209,52.7096,124.013,98.7067,84.5717,0.00645751,0.376974,20.5351,17.1854,1.36949,0.0,0.0
3042,760.25,49.0637,52.7491,125.834,98.8235,84.2931,0.00654812,0.382056,20.5271,16.9953,1.4092,0.0,0.0
3051,762.5,49.2333,53.1564,124.195,98.893,84.6844,0.00662456,0.384225,20.5229,16.8752,1.3744,0.0,0.0
3060,764.75,50.1362,54.2762,125.739,98.9065,83.2184,0.00668059,0.388544,20.5157,16.725,1.53035,0.0,0.0
3069,767,50.4508,54.1374,125.144,98.8759,82.9161,0.00664892,0.39641,20.4974,16.5649,1.55986,0.0,0.0
3078,769.25,51.5079,55.7374,125.15,98.8227,83.4092,0.00649171,0.411148,20.4814,16.4248,1.50254,0.0,0.0
3087,771.5,51.0645,55.1079,122.001,98.7249,82.7933,0.00633022,0.415651,20.4756,16.2446,1.55944,0.0,0.0
3096,773.75,51.7166,55.8723,117.067,98.5715,83.1238,0.00634622,0.417465,20.4708,16.1045,1.51037,0.0,0.0
3105,776,52.5062,56.9204,126.765,98.4198,84.339,0.00642414,0.42306,20.4609,15.9243,1.36811,0.0,0.0
3114,778.25,52.7631,57.111,119.16,98.2449,82.8863,0.00632151,0.432409,20.449,15.7241,1.50631,0.0,0.0
3123,780.5,53.1671,57.7079,122.125,98.0558,83.4112,0.00628619,0.439692,20.4404,15.564,1.43329,0.0,0.0
3132,782.75,53.7428,58.1387,120.08,98.0665,81.2098,0.00635739,0.443293,20.4385,15.4439,1.67127,0.0,0.0
3141,785,54.1509,58.7027,121.366,98.0923,82.8114,0.00628379,0.432724,20.4545,15.3138,1.50054,0.0,0.0
3150,787.25,53.9524,59.0283,120.458,98.1162,81.0572,0.00618123,0.424375,20.4648,15.1536,1.69241,0.0,0.0
3159,789.5,55.166,60.0141,120.191,98.1324,80.8354,0.00633249,0.42228,20.4642,14.9935,1.71817,0.0,0.0
3168,791.75,55.2327,59.8306,119.26,98.1726,80.9497,0.00659729,0.428356,20.4558,14.8433,1.70927,0.0,0.0
3177,794,56.1113,60.8985,117.505,98.2115,82.5168,0.00686071,0.436254,20.4424,14.6231,1.54289,0.0,0.0
3186,796.25,56.1545,61.5104,119.143,98.2401,80.1213,0.00703564,0.449221,20.4216,14.453,1.80651,0.0,0.0
3195,798.5,56.4709,61.5161,118.381,98.2799,80.3065,0.00708315,0.460324,20.4134,14.3029,1.78964,0.0,0.0
3204,800.75,56.9143,61.8763,120.18,98.3307,82.4866,0.00716375,0.455037,20.4158,14.1327,1.55688,0.0,0.0
3213,803,57.2654,62.2267,124.455,98.3482,83.0095,0.00718967,0.450502,20.4237,13.9425,1.50246,0.0,0.0
3222,805.25,57.518,62.8049,120.865,98.3645,84.0943,0.00694131,0.442082,20.4378,13.8024,1.38888,0.0,0.0
3231,807.5,57.6835,63.0553,120.011,98.3868,82.4431,0.00660501,0.435034,20.4463,13.6222,1.5666,0.0,0.0
3240,809.75,58.1207,63.2845,118.514,98.4249,81.2544,0.00647236,0.434371,20.4482,13.4721,1.69872,0.0,0.0
3249,812,58.2172,63.5718,118.779,98.4511,81.6429,0.00651717,0.433002,20.4496,13.302,1.65882,0.0,0.0
3258,814.25,58.2209,63.176,116.651,98.44,82.3123,0.00661611,0.430235,20.4517,13.1318,1.58546,0.0,0.0
3267,816.5,58.3071,63.732,121.3,98.4635,80.5065,0.00657001,0.430276,20.455,12.9516,1.78413,0.0,0.0
3276,818.75,58.5834,63.7655,124.241,98.469,82.3058,0.00650568,0.426838,20.4603,12.8315,1.58877,0.0,0.0
3285,821,58.5276,64.5085,119.392,98.4686,83.0115,0.00643653,0.423092,20.4658,12.6814,1.51309,0.0,0.0
3294,823.25,58.4131,63.6969,118.514,98.4766,82.9193,0.00629976,0.421203,20.4686,12.5513,1.52365,0.0,0.0
3303,825.5,59.143,64.3843,118.411,98.4738,83.2538,0.00614926,0.418951,20.4708,12.3811,1.48773,0.0,0.0
3312,827.75,59.0183,64.2863,123.283,98.4674,84.0375,0.00596621,0.411502,20.4826,12.241,1.40413,0.0,0.0
3321,830,59.0482,64.7022,124.333,98.4623,82.5296,0.00587561,0.404655,20.4937,12.1009,1.5641,0.0,0.0
3330,832.25,59.1261,64.7638,124.441,98.4587,85.1098,0.00574064,0.399301,20.5034,11.9407,1.29099,0.0,0.0
3339,834.5,58.9291,64.3704,122.965,98.4372,82.014,0.00564782,0.392639,20.5123,11.8306,1.61738,0.0,0.0
3348,836.75,59.3513,64.6568,125.537,98.4241,81.7966,0.00565937,0.383706,20.5217,11.6805,1.63972,0.0,0.0
3357,839,58.5489,64.0219,123.438,98.3987,83.5637,0.00551795,0.381643,20.5261,11.5204,1.44804,0.0,0.0
3366,841.25,58.873,64.056,125.018,98.3784,82.2644,0.00536683,0.378944,20.5321,11.3902,1.58508,0.0,0.0
3375,843.5,58.5234,63.8656,121.283,98.3625,81.4263,0.00531672,0.374674,20.5389,11.2801,1.67438,0.0,0.0
3384,845.75,58.9491,64.3713,119.498,98.3288,83.8463,0.00529191,0.367519,20.55,11.16,1.41182,0.0,0.0
3393,848,58.5838,63.992,122.669,98.3129,82.7059,0.00539466,0.359119,20.5601,11.0299,1.53173,0.0,0.0
3402,850.25,58.0576,63.7502,130.428,98.2831,84.2054,0.00543769,0.352059,20.5721,10.8998,1.36984,0.0,0.0
3411,852.5,57.9906,63.6011,121.561,98.2445,83.1044,0.00524469,0.342563,20.5873,10.8197,1.48298,0.0,0.0
3420,854.75,57.5914,62.8694,124.818,98.2143,83.2115,0.00493456,0.334406,20.6,10.6896,1.46885,0.0,0.0
3429,857,57.7816,62.8653,126.371,98.1925,83.2824,0.0047172,0.326761,20.6087,10.5895,1.45933,0.0,0.0
3438,859.25,57.6825,62.383,125.237,98.1734,83.1527,0.00451022,0.321981,20.617,10.4794,1.47141,0.0,0.0
3447,861.5,57.5519,62.708,128.499,98.1277,84.7456,0.00438303,0.31496,20.631,10.3493,1.29916,0.0,0.0
3456,863.75,56.9122,62.2429,127.899,98.1102,83.4712,0.00427143,0.303935,20.6479,10.2792,1.43184,0.0,0.0
3465,866,56.9733,61.9881,126.381,98.0919,84.2617,0.00419533,0.293368,20.6627,10.1691,1.34666,0.0,0.0
3474,868.25,56.0917,61.2832,124.281,98.0681,84.6956,0.00422857,0.281259,20.6789,10.1291,1.299,0.0,0.0
3483,870.5,55.7576,60.6956,126.976,98.078,85.6605,0.00436581,0.271192,20.6906,10.009,1.19952,0.0,0.0
3492,872.75,55.1002,60.163,130.905,98.2767,86.0618,0.0044307,0.266032,20.6981,9.92893,1.17604,0.0,0.0
3501,875,54.9844,59.9299,130.474,98.4639,85.9785,0.00432849,0.261891,20.7042,9.84885,1.20148,0.0,0.0
3510,877.25,54.6866,59.5289,125.598,98.622,86.3396,0.00410691,0.254377,20.7177,9.72875,1.17857,0.0,0.0
3519,879.5,53.9638,58.8151,128,98.7603,87.6441,0.00375039,0.242855,20.7409,9.66869,1.05809,0.0,0.0
3528,881.75,53.9021,58.7619,129.777,98.8541,87.4872,0.00348198,0.231139,20.7553,9.61865,1.08239,0.0,0.0
3537,884,53.3245,57.8206,127.143,98.9053,88.4858,0.00336885,0.224289,20.7638,9.55859,0.986409,0.0,0.0
3546,886.25,52.8386,57.5111,134.762,98.9244,88.7169,0.00321946,0.218777,20.7715,9.51856,0.96501,0.0,0.0
3555,888.5,52.497,57.107,127.914,98.9026,89.9695,0.00290401,0.214614,20.7784,9.41847,0.838813,0.0,0.0
3564,890.75,52.0685,56.4233,126.444,98.8445,89.4865,0.00262907,0.207321,20.7891,9.35841,0.881314,0.0,0.0
3573,893,51.3099,55.8374,130.449,98.7063,88.7797,0.0025478,0.199021,20.8005,9.32839,0.939178,0.0,0.0
3582,895.25,51.187,55.5248,126.698,98.5326,89.057,0.00257247,0.193511,20.8077,9.26833,0.895937,0.0,0.0
3591,897.5,50.7712,54.8758,128.46,98.4202,89.3323,0.00253319,0.185813,20.82,9.20828,0.858467,0.0,0.0
3600,899.75,50.4269,54.5485,131.804,98.4897,89.5525,0.00236995,0.176134,20.8376,9.16824,0.842912,0.0,0.0
3609,902,49.7233,53.7611,127.968,98.6093,89.9534,0.00222549,0.167314,20.8501,9.15823,0.814085,0.0,0.0
3618,904.25,49.399,53.6616,129.248,98.7396,90.8189,0.00205561,0.158465,20.8632,9.09818,0.740948,0.0,0.0
3627,906.5,48.6763,52.9866,130.322,98.874,90.8229,0.00196833,0.147711,20.8808,9.08817,0.7526,0.0,0.0
3636,908.75,48.1034,52.3799,131.263,98.9789,91.004,0.00184061,0.137677,20.8934,9.06815,0.744342,0.0,0.0
3645,911,47.7877,51.7256,131.966,99.1108,91.316,0.00169402,0.127378,20.9083,9.01811,0.725821,0.0,0.0
3654,913.25,46.3843,50.7675,133.752,99.1613,91.8103,0.00171014,0.117287,20.9264,8.97807,0.682496,0.0,0.0
3663,915.5,46.4016,50.346,133.087,99.1966,92.1021,0.00174979,0.106405,20.9388,8.99809,0.657536,0.0,0.0
3672,917.75,45.4916,49.6233,137.676,99.1728,92.3126,0.00171215,0.0967526,20.9481,8.99809,0.635175,0.0,0.0
3681,920,45.0063,48.4724,135.763,99.1247,93.0159,0.00155171,0.0866223,20.9634,8.96806,0.563632,0.0,0.0
3690,922.25,44.0623,47.2939,132.378,99.0003,92.7784,0.00147305,0.0784381,20.9744,8.97807,0.57516,0.0,0.0
3699,924.5,43.4417,46.7864,138.281,98.8199,93.0183,0.00145551,0.0723886,20.9821,8.97807,0.536115,0.0,0.0
3708,926.75,42.4563,45.9576,137.025,98.626,92.3328,0.00138926,0.0678638,20.9885,8.98808,0.584253,0.0,0.0
3717,929,41.9866,45.1599,136.897,98.3903,92.5167,0.00132473,0.0646429,20.9925,8.95805,0.54542,0.0,0.0
3726,931.25,41.1314,44.5963,135.381,98.1245,92.0764,0.00130418,0.062864,20.9952,8.97807,0.563723,0.0,0.0
3735,933.5,40.421,43.493,132.052,97.8598,91.6304,0.00131935,0.061818,20.9978,8.96806,0.582817,0.0,0.0
3744,935.75,39.4756,42.2798,137.642,97.6329,92.0768,0.00135609,0.0611493,20.9997,8.92803,0.519184,0.0,0.0
3753,938,39.8295,42.707,134.441,97.4474,91.2021,0.00143594,0.0606814,20.9996,8.94804,0.586903,0.0,0.0
3762,940.25,39.3629,42.2073,134.662,97.3003,91.2814,0.00149899,0.060299,20.9998,8.95805,0.565822,0.0,0.0
3771,942.5,38.4518,41.3593,135.184,97.2562,91.5676,0.00145185,0.0598388,21.0009,8.94804,0.534066,0.0,0.0
3780,944.75,38.2714,40.9681,135.3,97.2697,90.8197,0.00131332,0.0596327,21.0018,8.94804,0.607968,0.0,0.0
3789,947,37.6731,39.9515,134.345,97.3568,91.0366,0.00126764,0.0592914,21.0029,8.92803,0.59475,0.0,0.0
3798,949.25,37.585,39.6879,136.006,97.5022,91.1976,0.00120273,0.0589797,21.004,8.90801,0.592319,0.0,0.0
3807,951.5,37.3584,39.3828,136.004,97.7092,91.6123,0.001082,0.0587847,21.0044,8.90801,0.570921,0.0,0.0
3816,953.75,36.8413,38.8606,134.571,97.9151,91.7229,0.00107117,0.0585087,21.0045,8.91802,0.578869,0.0,0.0
3825,956,36.9268,38.56,131.931,98.1118,91.8759,0.00109419,0.0584004,21.0046,8.90801,0.581887,0.0,0.0
3834,958.25,35.8352,38.4051,135.757,98.2922,92.4241,0.00114698,0.0583552,21.0046,8.94804,0.545448,0.0,0.0
3843,960.5,35.6329,37.8275,134.443,98.4297,91.9777,0.00115986,0.057849,21.0046,8.91802,0.600736,0.0,0.0
3852,962.75,34.95,37.2578,127.733,98.5223,92.4298,0.00120032,0.0574618,21.0045,8.86797,0.565624,0.0,0.0
3861,965,34.8951,36.7538,136.359,98.5203,92.1742,0.00139286,0.0575386,21.0052,8.91802,0.589984,0.0,0.0
3870,967.25,34.5187,37.0886,136.771,98.473,91.9705,0.00156866,0.0575784,21.0055,8.84795,0.605332,0.0,0.0
3879,969.5,33.8445,36.0146,133.395,98.3649,92.6818,0.00155675,0.0572566,21.0056,8.84795,0.527337,0.0,0.0
3888,971.75,34.2577,35.9576,134.7,98.2382,91.9226,0.00137219,0.0568417,21.0056,8.86797,0.58879,0.0,0.0
3897,974,34.0627,35.6494,137.508,98.1177,91.8361,0.0011895,0.0563241,21.0056,8.87798,0.586269,0.0,0.0
3906,976.25,34.0248,35.2826,133.004,98.0434,91.3808,0.00115911,0.0562678,21.0056,8.90801,0.623591,0.0,0.0
3915,978.5,33.2728,35.2403,135.902,98.231,91.8385,0.0012867,0.0563412,21.0056,8.91802,0.596258,0.0,0.0
3924,980.75,33.3223,34.7276,136.647,98.6021,92.458,0.00130492,0.0562464,21.0056,8.84795,0.570104,0.0,0.0
3933,983,32.8423,34.6297,133.014,98.8255,92.6005,0.00113333,0.0558722,21.0059,8.86797,0.576504,0.0,0.0
3942,985.25,33.1001,34.2797,135.714,98.8998,92.6532,0.00104585,0.055355,21.0065,8.84795,0.578122,0.0,0.0
3951,987.5,33.2298,34.3136,136.619,98.7647,92.1766,0.000992844,0.0550318,21.0062,8.83794,0.611704,0.0,0.0
3960,989.75,32.4581,34.0531,134.82,98.4841,92.0856,0.000857257,0.0548585,21.0061,8.88799,0.595248,0.0,0.0
3969,992,32.5775,34.1664,136.74,98.4555,92.4551,0.00071259,0.0545893,21.0075,8.84795,0.557188,0.0,0.0
3978,994.25,31.544,33.3401,131.6,98.6407,92.8078,0.000645187,0.0542612,21.008,8.85796,0.540107,0.0,0.0
3987,996.5,32.0718,33.5012,133.815,98.8509,92.043,0.000714371,0.053775,21.0082,8.82794,0.632294,0.0,0.0
3996,998.75,31.5689,32.7556,135.432,99.0607,92.8995,0.000810118,0.053251,21.0083,8.82794,0.569001,0.0,0.0
4005,1001,31.5746,32.9058,133.027,99.176,92.3956,0.000867658,0.0526584,21.0083,8.81793,0.627502,0.0,0.0
4014,1003.25,32.1355,33.0422,136.507,99.1704,92.8371,0.000890502,0.0520735,21.0083,8.83794,0.584758,0.0,0.0
4023,1005.5,31.4294,32.8596,135.474,99.0401,92.1303,0.000787453,0.0516361,21.0096,8.87798,0.640828,0.0,0.0
4032,1007.75,31.8107,32.4494,133.626,98.8004,92.049,0.000697877,0.0511939,21.0105,8.83794,0.627187,0.0,0.0
4041,1010,31.2757,32.0556,135.291,98.4718,92.1243,0.000760355,0.0506815,21.0118,8.80792,0.590422,0.0,0.0
4050,1012.25,31.2524,32.5735,139.148,98.0669,91.3096,0.000818523,0.0503197,21.0132,8.84795,0.632621,0.0,0.0
4059,1014.5,31.4981,32.131,134.419,97.7247,91.3116,0.000864097,0.0497828,21.0143,8.82794,0.601458,0.0,0.0
4068,1016.75,31.0054,31.6956,139.035,97.4398,90.8712,0.000804302,0.0494324,21.0147,8.81793,0.618422,0.0,0.0
4077,1019,30.956,32.1905,133.735,97.2805,90.5226,0.000762222,0.0489169,21.0148,8.86797,0.637976,0.0,0.0
4086,1021.25,30.6478,31.6427,136.284,97.2968,91.0753,0.000781574,0.0483609,21.0149,8.82794,0.585526,0.0,0.0
4095,1023.5,30.7953,31.5936,135.414,97.4565,90.482,0.000803551,0.0479648,21.0163,8.81793,0.657977,0.0,0.0
4104,1025.75,30.7821,31.6029,135.351,97.7088,91.1425,0.000749024,0.0476411,21.0169,8.80792,0.616438,0.0,0.0
4113,1028,30.7988,31.0915,135.436,97.9985,91.3297,0.00060512,0.0473786,21.0171,8.81793,0.624491,0.0,0.0
4122,1030.25,30.2897,31.636,138.575,98.2616,92.1106,0.00059393,0.0470772,21.0172,8.82794,0.572803,0.0,0.0
4131,1032.5,30.5794,30.7881,135.029,98.4527,91.4182,0.000717888,0.0468283,21.0172,8.80792,0.656876,0.0,0.0
4140,1034.75,30.4691,30.9555,139.046,98.5398,91.9435,,0.0466707,,8.79791,0.613935,0.0,0.0
4149,1037,29.798,30.7936,137.664,98.506,92.0349,,,,8.81793,0.602096,0.0,0.0
4158,1039.25,29.9831,30.6964,137.836,98.3574,91.7576,,,,8.81793,0.615459,0.0,0.0
4167,1041.5,29.3928,31.0658,140.192,98.2135,91.2798,,,,8.80792,0.648752,0.0,0.0
4176,1043.75,29.8902,30.509,137.201,98.0371,91.2709,,,,8.82794,0.633679,0.0,0.0