File: 01_Data/LDPE/MCC/LDPE_MCC_30K_min_210922_R1.txt
Sample ID:	C:\MCC\MCC Cal\Test\LDPE_MCC_30K_min_210922_R1.txt
Sample Weight (mg):	4.13
Heating Rate (C/s):	0.5
Combustor Temp (C):	900
N2 Flow Rate (cc/min):	80
O2 Flow Rate (cc/min):	20
Calibration File:	C:\MCC\MCC Cal\Coeff1 JN10440_30_210304.txt.txt
T Correction Coefficients:	0	1.024463	0
Time Shift (s):	14
*
Time (s)	Temperature (C)	N2 flow rate (cc/min)	O2 flow rate (cc/min)	Flow Rate (cc/min)	Oxygen (%)	HRR (W/g)	Heating rate (C/s)
0.000	106.790	80.007	19.997	100.182	20.065	-0.275	0.007
2.000	106.793	80.005	19.994	100.181	20.064	-0.251	0.007
4.000	106.808	80.004	19.995	100.180	20.067	-0.454	-0.014
6.000	106.795	80.005	19.996	100.180	20.066	-0.372	-0.016
8.000	106.777	80.004	19.996	100.192	20.063	-0.117	-0.003
10.000	106.827	80.003	19.997	100.210	20.061	-0.021	0.040
12.000	106.840	80.005	19.997	100.217	20.058	0.251	-0.009
14.000	106.820	80.005	19.997	100.217	20.056	0.368	0.014
16.001	106.825	80.004	19.997	100.247	20.051	0.745	0.015
18.001	106.953	80.004	19.996	100.268	20.053	0.624	0.034
20.000	106.974	80.006	19.995	100.274	20.049	0.945	0.033
22.000	107.084	80.005	19.994	100.284	20.048	1.023	0.048
24.001	107.111	80.005	19.997	100.309	20.041	1.488	0.102
26.000	107.246	80.007	19.995	100.326	20.043	1.340	0.077
28.000	107.360	80.006	19.994	100.340	20.040	1.574	0.051
30.000	107.596	80.005	19.994	100.341	20.038	1.741	0.090
32.000	107.789	80.005	19.992	100.342	20.033	2.156	0.068
34.001	108.081	80.004	19.996	100.355	20.035	1.952	0.130
36.000	108.327	80.004	19.999	100.360	20.034	2.057	0.139
38.001	108.569	80.003	19.995	100.347	20.033	2.141	0.123
40.001	108.908	80.003	19.995	100.348	20.031	2.306	0.170
42.001	109.231	80.003	19.996	100.371	20.028	2.510	0.175
44.000	109.600	80.004	19.995	100.377	20.028	2.488	0.130
46.000	109.932	80.004	19.997	100.378	20.023	2.867	0.155
48.000	110.347	80.003	19.995	100.381	20.016	3.401	0.239
50.000	110.762	80.005	19.995	100.395	20.016	3.451	0.221
52.001	111.208	80.004	19.995	100.409	20.014	3.571	0.218
54.000	111.659	80.005	19.994	100.416	20.015	3.480	0.282
56.001	112.138	80.005	19.994	100.420	20.018	3.245	0.232
58.000	112.639	80.005	19.997	100.434	20.018	3.288	0.263
60.001	113.185	80.005	19.995	100.445	20.015	3.473	0.304
62.000	113.669	80.004	19.994	100.453	20.009	3.984	0.284
64.000	114.254	80.004	19.994	100.455	20.012	3.694	0.274
66.000	114.890	80.003	19.996	100.446	20.009	3.939	0.369
68.000	115.545	80.003	19.995	100.442	20.010	3.847	0.270
70.000	116.382	80.004	19.994	100.440	20.010	3.904	0.420
72.001	116.936	80.005	19.996	100.422	20.009	3.927	0.339
74.001	117.609	80.004	19.995	100.459	20.015	3.529	0.354
76.000	118.308	80.004	19.996	100.447	20.015	3.519	0.355
78.001	119.030	80.005	19.995	100.456	20.014	3.558	0.354
80.001	119.767	80.005	19.995	100.455	20.011	3.787	0.370
82.000	120.555	80.005	19.995	100.456	20.014	3.541	0.387
84.000	121.303	80.006	19.996	100.458	20.016	3.379	0.353
86.000	122.105	80.007	19.995	100.458	20.017	3.352	0.376
88.000	123.006	80.005	19.996	100.461	20.015	3.523	0.447
90.000	123.698	80.005	19.995	100.454	20.014	3.585	0.409
92.000	124.538	80.005	19.996	100.439	20.015	3.503	0.375
94.000	125.361	80.004	19.995	100.447	20.015	3.487	0.381
96.000	126.204	80.006	19.995	100.454	20.017	3.373	0.435
98.001	127.071	80.005	19.994	100.459	20.016	3.449	0.405
100.001	127.909	80.004	19.996	100.459	20.016	3.416	0.448
102.000	128.780	80.004	19.997	100.456	20.016	3.438	0.426
104.001	129.649	80.006	19.995	100.440	20.016	3.402	0.439
106.000	130.535	80.005	19.996	100.438	20.018	3.272	0.420
108.000	131.441	80.007	19.996	100.445	20.017	3.377	0.467
110.000	132.353	80.007	19.996	100.445	20.015	3.459	0.474
112.000	133.255	80.006	19.996	100.440	20.013	3.651	0.451
114.000	134.148	80.005	19.995	100.447	20.013	3.614	0.449
116.001	135.018	80.004	19.994	100.455	20.014	3.543	0.415
118.001	135.994	80.003	19.995	100.453	20.014	3.580	0.446
120.000	136.904	80.004	19.996	100.451	20.012	3.684	0.464
122.000	137.891	80.003	19.997	100.438	20.013	3.616	0.522
124.000	138.822	80.002	19.996	100.452	20.015	3.521	0.489
126.000	139.755	80.003	19.997	100.451	20.013	3.644	0.465
128.000	140.700	80.003	19.992	100.435	20.017	3.372	0.494
130.000	141.680	80.003	19.994	100.449	20.013	3.677	0.520
132.000	142.629	80.004	19.996	100.448	20.016	3.436	0.500
134.000	143.635	80.005	19.995	100.445	20.014	3.552	0.529
136.000	144.601	80.004	19.994	100.442	20.015	3.496	0.503
138.000	145.605	80.005	19.995	100.443	20.016	3.403	0.496
140.000	146.586	80.004	19.995	100.432	20.015	3.475	0.500
142.000	147.545	80.003	19.994	100.437	20.018	3.261	0.501
144.000	148.521	80.004	19.996	100.441	20.018	3.294	0.482
146.000	149.526	80.003	19.996	100.446	20.019	3.168	0.522
148.000	150.521	80.004	19.996	100.430	20.019	3.221	0.497
150.000	151.507	80.003	19.994	100.430	20.020	3.131	0.500
152.000	152.500	80.004	19.996	100.426	20.018	3.269	0.466
154.000	153.486	80.003	19.995	100.440	20.019	3.205	0.508
156.000	154.490	80.004	19.996	100.431	20.018	3.283	0.505
158.000	155.479	80.005	19.996	100.427	20.016	3.448	0.493
160.000	156.480	80.005	19.994	100.420	20.017	3.345	0.522
162.000	157.481	80.005	19.995	100.421	20.015	3.528	0.484
164.000	158.507	80.005	19.995	100.421	20.014	3.584	0.518
166.000	159.500	80.006	19.995	100.425	20.018	3.300	0.512
168.000	160.480	80.006	19.995	100.429	20.019	3.221	0.481
170.000	161.453	80.004	19.995	100.423	20.017	3.304	0.498
172.000	162.436	80.006	19.995	100.420	20.017	3.324	0.481
174.000	163.445	80.005	19.997	100.418	20.022	2.953	0.498
176.000	164.472	80.005	19.996	100.425	20.020	3.141	0.548
178.000	165.467	80.006	19.995	100.418	20.020	3.100	0.511
180.000	166.501	80.006	19.996	100.418	20.021	3.056	0.515
182.000	167.490	80.004	19.995	100.419	20.023	2.890	0.482
184.000	168.500	80.007	19.996	100.415	20.024	2.791	0.512
186.000	169.508	80.007	19.995	100.417	20.025	2.702	0.504
188.000	170.521	80.007	19.995	100.416	20.025	2.700	0.536
190.000	171.581	80.007	19.994	100.416	20.028	2.533	0.540
192.000	172.582	80.006	19.995	100.414	20.027	2.609	0.528
194.000	173.550	80.006	19.995	100.410	20.027	2.611	0.453
196.000	174.566	80.005	19.996	100.406	20.026	2.683	0.497
198.000	175.571	80.004	19.996	100.404	20.024	2.805	0.494
200.000	176.565	80.003	19.997	100.399	20.027	2.581	0.507
202.000	177.552	80.004	19.996	100.402	20.025	2.719	0.465
204.000	178.581	80.003	19.997	100.399	20.025	2.723	0.502
206.000	179.528	80.004	19.996	100.400	20.027	2.566	0.489
208.000	180.539	80.004	19.996	100.399	20.031	2.308	0.511
210.000	181.541	80.002	19.996	100.410	20.029	2.453	0.508
212.001	182.483	80.004	19.995	100.416	20.027	2.572	0.459
214.000	183.485	80.003	19.995	100.418	20.025	2.749	0.473
216.000	184.447	80.004	19.995	100.402	20.025	2.757	0.477
218.000	185.460	80.004	19.995	100.399	20.027	2.590	0.491
220.000	186.515	80.004	19.995	100.398	20.026	2.667	0.512
222.000	187.480	80.004	19.995	100.395	20.027	2.552	0.488
224.000	188.446	80.003	19.994	100.404	20.027	2.552	0.487
226.000	189.403	80.004	19.994	100.392	20.032	2.237	0.477
228.000	190.408	80.004	19.994	100.384	20.030	2.317	0.485
230.000	191.344	80.005	19.996	100.391	20.027	2.603	0.470
232.000	192.334	80.002	19.995	100.413	20.026	2.687	0.498
234.000	193.301	80.003	19.995	100.419	20.031	2.281	0.496
236.000	194.266	80.003	19.996	100.419	20.032	2.181	0.504
238.000	195.259	80.004	19.996	100.410	20.029	2.456	0.512
240.000	196.311	80.005	19.996	100.413	20.030	2.357	0.518
242.000	197.243	80.005	19.994	100.411	20.029	2.444	0.475
244.001	198.125	80.005	19.995	100.388	20.031	2.290	0.445
246.000	199.159	80.006	19.995	100.391	20.029	2.440	0.515
248.000	200.163	80.006	19.995	100.397	20.029	2.397	0.513
250.000	201.104	80.007	19.994	100.382	20.028	2.491	0.475
252.000	202.104	80.007	19.996	100.390	20.032	2.230	0.517
254.000	203.099	80.006	19.995	100.389	20.030	2.345	0.489
256.000	204.073	80.007	19.995	100.386	20.029	2.403	0.495
258.000	205.049	80.006	19.996	100.387	20.029	2.398	0.510
260.000	206.071	80.006	19.995	100.386	20.034	2.028	0.510
262.000	207.040	80.005	19.996	100.379	20.031	2.285	0.491
264.000	208.049	80.006	19.996	100.381	20.034	2.036	0.488
266.000	209.042	80.006	19.996	100.379	20.033	2.154	0.518
268.000	210.016	80.006	19.997	100.377	20.033	2.102	0.481
270.000	211.052	80.007	19.995	100.377	20.031	2.256	0.514
272.000	211.988	80.009	19.996	100.378	20.030	2.320	0.489
274.000	212.998	80.008	19.996	100.378	20.031	2.296	0.502
276.000	213.968	80.008	19.996	100.379	20.032	2.186	0.502
278.000	214.937	80.006	19.994	100.380	20.034	2.071	0.462
280.000	215.953	80.005	19.997	100.379	20.032	2.213	0.503
282.000	216.894	80.004	19.995	100.379	20.031	2.273	0.473
284.000	217.858	80.004	19.995	100.379	20.034	2.084	0.467
286.000	218.890	80.004	19.995	100.379	20.036	1.896	0.504
288.001	219.827	80.005	19.995	100.380	20.035	1.991	0.461
290.000	220.835	80.004	19.996	100.380	20.031	2.250	0.490
292.000	221.797	80.003	19.996	100.380	20.035	1.956	0.471
294.000	222.847	80.004	19.996	100.381	20.035	1.999	0.509
296.001	223.752	80.003	19.996	100.380	20.036	1.923	0.476
298.000	224.775	80.002	19.995	100.378	20.033	2.129	0.496
300.000	225.781	80.005	19.997	100.380	20.034	2.065	0.499
302.000	226.730	80.005	19.997	100.376	20.037	1.812	0.471
304.000	227.709	80.004	19.996	100.378	20.039	1.696	0.488
306.000	228.684	80.005	19.997	100.376	20.037	1.851	0.453
308.000	229.697	80.004	19.996	100.372	20.039	1.694	0.512
310.000	230.715	80.004	19.995	100.375	20.039	1.678	0.519
312.000	231.682	80.004	19.995	100.376	20.036	1.876	0.499
314.000	232.676	80.003	19.995	100.375	20.038	1.736	0.476
316.000	233.697	80.004	19.995	100.369	20.037	1.838	0.482
318.001	234.663	80.003	19.995	100.375	20.038	1.742	0.472
320.000	235.686	80.004	19.995	100.378	20.038	1.752	0.519
322.000	236.665	80.005	19.996	100.378	20.038	1.731	0.521
324.000	237.662	80.007	19.997	100.378	20.040	1.628	0.545
326.000	238.661	80.005	19.996	100.377	20.041	1.544	0.509
328.000	239.676	80.007	19.996	100.377	20.034	2.016	0.517
330.000	240.677	80.006	19.995	100.369	20.039	1.694	0.506
332.000	241.624	80.006	19.995	100.373	20.037	1.828	0.489
334.000	242.658	80.006	19.995	100.372	20.034	2.046	0.508
336.000	243.666	80.006	19.996	100.377	20.039	1.647	0.526
338.000	244.620	80.005	19.994	100.377	20.038	1.773	0.483
340.000	245.629	80.006	19.996	100.377	20.041	1.517	0.491
342.000	246.660	80.004	19.995	100.380	20.039	1.682	0.520
344.000	247.698	80.005	19.994	100.380	20.041	1.493	0.519
346.000	248.656	80.006	19.995	100.381	20.041	1.519	0.488
348.000	249.691	80.006	19.994	100.381	20.038	1.713	0.517
350.000	250.723	80.006	19.995	100.380	20.038	1.742	0.515
352.000	251.715	80.006	19.994	100.377	20.037	1.830	0.507
354.000	252.737	80.007	19.995	100.376	20.037	1.814	0.515
356.000	253.734	80.007	19.995	100.376	20.037	1.847	0.485
358.000	254.738	80.006	19.995	100.377	20.039	1.653	0.494
360.000	255.710	80.006	19.996	100.378	20.041	1.548	0.479
362.000	256.750	80.006	19.996	100.379	20.038	1.723	0.495
364.000	257.717	80.005	19.997	100.375	20.041	1.497	0.493
366.000	258.690	80.003	19.995	100.368	20.039	1.647	0.501
368.000	259.713	80.005	19.996	100.377	20.036	1.865	0.506
370.000	260.692	80.005	19.995	100.377	20.037	1.830	0.537
372.000	261.710	80.003	19.996	100.377	20.040	1.620	0.530
374.000	262.663	80.005	19.995	100.376	20.039	1.686	0.495
376.000	263.698	80.003	19.995	100.376	20.037	1.847	0.512
378.000	264.693	80.004	19.996	100.375	20.038	1.717	0.502
380.000	265.709	80.003	19.996	100.374	20.037	1.824	0.481
382.000	266.648	80.003	19.996	100.370	20.035	1.937	0.475
384.000	267.640	80.003	19.996	100.376	20.033	2.104	0.523
386.000	268.643	80.003	19.997	100.374	20.035	1.993	0.510
388.000	269.691	80.003	19.996	100.363	20.036	1.914	0.500
390.000	270.666	80.003	19.996	100.361	20.035	1.984	0.516
392.000	271.681	80.004	19.997	100.356	20.038	1.760	0.478
394.000	272.674	80.001	19.997	100.344	20.036	1.881	0.507
396.000	273.673	80.004	19.996	100.361	20.036	1.933	0.517
398.000	274.630	80.002	19.996	100.358	20.035	1.964	0.504
400.000	275.636	80.003	19.996	100.356	20.036	1.926	0.499
402.000	276.641	80.004	19.996	100.349	20.037	1.815	0.513
404.000	277.617	80.004	19.996	100.344	20.038	1.731	0.501
406.000	278.611	80.005	19.995	100.352	20.036	1.898	0.514
408.000	279.641	80.004	19.996	100.345	20.038	1.727	0.489
410.000	280.622	80.004	19.995	100.349	20.039	1.677	0.449
412.000	281.588	80.006	19.995	100.341	20.037	1.832	0.454
414.000	282.564	80.005	19.995	100.342	20.038	1.708	0.454
416.000	283.618	80.005	19.995	100.352	20.040	1.562	0.538
418.000	284.634	80.005	19.996	100.357	20.040	1.628	0.520
420.000	285.615	80.004	19.995	100.352	20.038	1.745	0.486
422.000	286.636	80.004	19.995	100.346	20.036	1.871	0.528
424.000	287.624	80.004	19.995	100.358	20.038	1.727	0.535
426.000	288.596	80.005	19.995	100.352	20.035	1.945	0.492
428.000	289.612	80.005	19.995	100.357	20.039	1.681	0.512
430.000	290.608	80.005	19.995	100.347	20.037	1.797	0.476
432.000	291.690	80.005	19.994	100.346	20.039	1.704	0.521
434.000	292.653	80.006	19.995	100.343	20.037	1.799	0.492
436.000	293.673	80.006	19.995	100.343	20.036	1.908	0.525
438.000	294.660	80.007	19.996	100.343	20.039	1.638	0.524
440.000	295.688	80.009	19.994	100.344	20.041	1.525	0.532
442.000	296.678	80.008	19.995	100.349	20.039	1.665	0.546
444.000	297.724	80.005	19.995	100.349	20.039	1.696	0.526
446.001	298.724	80.005	19.995	100.343	20.041	1.548	0.474
448.000	299.719	80.004	19.996	100.339	20.042	1.439	0.524
450.000	300.731	80.005	19.996	100.339	20.044	1.274	0.505
452.000	301.759	80.004	19.995	100.342	20.041	1.490	0.520
454.000	302.755	80.005	19.995	100.339	20.040	1.587	0.508
456.000	303.751	80.003	19.996	100.339	20.039	1.669	0.493
458.000	304.766	80.005	19.996	100.339	20.042	1.443	0.497
460.000	305.788	80.004	19.996	100.347	20.043	1.391	0.529
462.000	306.757	80.005	19.996	100.345	20.042	1.434	0.488
464.000	307.785	80.003	19.996	100.353	20.044	1.327	0.541
466.000	308.741	80.004	19.996	100.342	20.044	1.323	0.514
468.000	309.717	80.002	19.994	100.338	20.045	1.233	0.478
470.000	310.722	80.004	19.996	100.340	20.047	1.093	0.520
472.000	311.751	80.005	19.995	100.338	20.044	1.280	0.503
474.000	312.782	80.004	19.995	100.342	20.046	1.113	0.520
476.000	313.760	80.004	19.996	100.342	20.044	1.328	0.501
478.000	314.796	80.001	19.996	100.341	20.045	1.243	0.529
480.000	315.762	80.002	19.997	100.341	20.041	1.496	0.493
482.000	316.741	80.003	19.997	100.341	20.041	1.498	0.470
484.000	317.761	80.002	19.997	100.343	20.041	1.548	0.476
486.000	318.775	80.003	19.997	100.353	20.040	1.603	0.476
488.000	319.760	80.004	19.996	100.351	20.043	1.352	0.503
490.000	320.769	80.004	19.997	100.353	20.041	1.486	0.495
492.000	321.830	80.003	19.996	100.353	20.041	1.480	0.522
494.000	322.845	80.005	19.996	100.360	20.042	1.441	0.515
496.000	323.832	80.006	19.995	100.352	20.042	1.451	0.475
498.000	324.851	80.005	19.995	100.342	20.040	1.601	0.470
500.000	325.904	80.006	19.996	100.341	20.040	1.630	0.516
502.000	326.965	80.006	19.995	100.338	20.040	1.585	0.519
504.000	327.968	80.005	19.995	100.340	20.040	1.620	0.525
506.000	328.987	80.004	19.995	100.338	20.039	1.696	0.543
508.000	330.021	80.003	19.995	100.339	20.038	1.760	0.529
510.001	331.051	80.006	19.995	100.343	20.037	1.819	0.534
512.000	332.035	80.004	19.995	100.339	20.038	1.772	0.524
514.000	333.109	80.006	19.996	100.337	20.040	1.618	0.546
516.000	334.146	80.005	19.996	100.338	20.039	1.659	0.517
518.000	335.175	80.005	19.994	100.337	20.040	1.595	0.535
520.000	336.155	80.006	19.995	100.335	20.041	1.541	0.497
522.000	337.189	80.007	19.995	100.333	20.041	1.535	0.486
524.000	338.205	80.009	19.995	100.336	20.040	1.620	0.463
526.000	339.196	80.006	19.994	100.335	20.040	1.591	0.489
528.000	340.255	80.003	19.994	100.337	20.041	1.513	0.502
530.000	341.266	80.005	19.995	100.329	20.039	1.688	0.509
532.000	342.325	80.005	19.995	100.335	20.038	1.766	0.542
534.000	343.273	80.004	19.995	100.339	20.039	1.688	0.495
536.000	344.307	80.003	19.995	100.335	20.040	1.616	0.508
538.000	345.321	80.003	19.995	100.331	20.037	1.807	0.522
540.000	346.378	80.006	19.995	100.336	20.039	1.700	0.527
542.000	347.333	80.004	19.996	100.342	20.037	1.788	0.506
544.000	348.360	80.004	19.996	100.341	20.038	1.733	0.523
546.000	349.355	80.004	19.995	100.340	20.035	1.976	0.526
548.000	350.321	80.005	19.995	100.336	20.039	1.691	0.443
550.000	351.378	80.006	19.996	100.334	20.036	1.918	0.504
552.000	352.346	80.007	19.995	100.341	20.033	2.093	0.493
554.000	353.375	80.004	19.995	100.338	20.036	1.906	0.520
556.001	354.401	80.003	19.995	100.336	20.035	1.957	0.492
558.000	355.329	80.003	19.995	100.327	20.037	1.819	0.491
560.000	356.398	80.005	19.996	100.327	20.035	1.971	0.510
562.000	357.344	80.006	19.996	100.328	20.036	1.885	0.499
564.000	358.349	80.004	19.996	100.336	20.037	1.794	0.472
566.000	359.339	80.003	19.995	100.343	20.034	2.043	0.491
568.000	360.351	80.002	19.996	100.341	20.035	1.994	0.520
570.000	361.361	80.004	19.997	100.336	20.033	2.095	0.495
572.000	362.373	80.005	19.996	100.333	20.035	1.969	0.498
574.000	363.364	80.005	19.997	100.328	20.029	2.447	0.457
576.000	364.381	80.005	19.997	100.334	20.032	2.198	0.486
578.000	365.408	80.008	19.997	100.332	20.029	2.420	0.515
580.000	366.395	80.007	19.996	100.332	20.025	2.706	0.505
582.000	367.436	80.005	19.996	100.329	20.023	2.851	0.512
584.000	368.410	80.007	19.996	100.333	20.022	2.930	0.505
586.000	369.403	80.005	19.997	100.328	20.022	2.947	0.480
588.000	370.398	80.003	19.996	100.327	20.024	2.794	0.475
590.000	371.438	80.005	19.996	100.322	20.021	3.016	0.489
592.000	372.476	80.006	19.996	100.311	20.023	2.843	0.531
594.000	373.510	80.004	19.996	100.304	20.017	3.329	0.538
596.000	374.504	80.005	19.995	100.317	20.015	3.488	0.503
598.000	375.515	80.007	19.995	100.325	20.014	3.573	0.500
600.000	376.542	80.008	19.996	100.331	20.009	3.980	0.506
602.001	377.572	80.008	19.995	100.308	20.008	4.054	0.539
604.000	378.581	80.005	19.995	100.314	20.004	4.313	0.525
606.000	379.644	80.007	19.996	100.339	20.005	4.208	0.561
608.000	380.633	80.005	19.995	100.344	20.002	4.441	0.473
610.000	381.681	80.004	19.995	100.338	19.997	4.840	0.501
612.000	382.683	80.005	19.995	100.331	19.996	4.947	0.522
614.000	383.721	80.003	19.995	100.330	19.997	4.867	0.554
616.000	384.769	80.004	19.996	100.336	19.995	4.995	0.562
618.000	385.816	80.004	19.995	100.333	19.991	5.300	0.515
620.000	386.807	80.005	19.996	100.326	19.989	5.448	0.520
622.000	387.855	80.005	19.996	100.340	19.990	5.396	0.523
624.000	388.858	80.005	19.996	100.337	19.984	5.855	0.498
626.000	389.909	80.004	19.996	100.325	19.979	6.250	0.508
628.000	390.986	80.005	19.995	100.309	19.975	6.501	0.532
630.000	392.002	80.003	19.995	100.313	19.973	6.674	0.542
632.000	393.069	80.007	19.995	100.306	19.966	7.184	0.542
634.000	394.098	80.003	19.997	100.308	19.966	7.188	0.533
636.000	395.139	80.006	19.996	100.314	19.959	7.744	0.499
638.000	396.173	80.005	19.995	100.307	19.954	8.110	0.525
640.000	397.152	80.004	19.996	100.305	19.951	8.354	0.509
642.000	398.188	80.005	19.996	100.304	19.943	8.953	0.547
644.000	399.174	80.003	19.996	100.304	19.938	9.298	0.502
646.001	400.204	80.003	19.996	100.308	19.933	9.679	0.477
648.000	401.209	80.005	19.996	100.307	19.928	10.072	0.504
650.000	402.234	80.002	19.996	100.303	19.921	10.630	0.519
652.000	403.239	80.007	19.997	100.303	19.912	11.284	0.505
654.000	404.225	80.006	19.996	100.301	19.904	11.886	0.506
656.000	405.212	80.006	19.995	100.297	19.897	12.398	0.442
658.000	406.211	80.006	19.996	100.298	19.889	13.062	0.493
660.000	407.231	80.007	19.995	100.300	19.879	13.819	0.487
662.000	408.221	80.007	19.996	100.301	19.871	14.416	0.492
664.000	409.218	80.005	19.995	100.298	19.863	14.997	0.465
666.000	410.230	80.006	19.995	100.306	19.853	15.777	0.509
668.000	411.239	80.003	19.996	100.317	19.840	16.739	0.493
670.000	412.244	80.006	19.996	100.303	19.832	17.360	0.510
672.000	413.274	80.005	19.997	100.287	19.818	18.407	0.504
674.000	414.281	80.006	19.996	100.279	19.806	19.354	0.508
676.000	415.277	80.003	19.996	100.277	19.796	20.115	0.528
678.000	416.290	80.002	19.996	100.298	19.781	21.251	0.550
680.000	417.327	80.007	19.996	100.303	19.770	22.063	0.505
682.000	418.332	80.007	19.996	100.310	19.757	23.061	0.525
684.000	419.349	80.005	19.995	100.301	19.743	24.081	0.516
686.000	420.337	80.006	19.995	100.300	19.723	25.585	0.492
688.000	421.398	80.006	19.995	100.301	19.707	26.798	0.514
690.000	422.396	80.005	19.996	100.300	19.688	28.255	0.522
692.000	423.406	80.003	19.995	100.298	19.670	29.645	0.506
694.000	424.395	80.006	19.994	100.289	19.648	31.252	0.504
696.000	425.451	80.006	19.996	100.282	19.629	32.723	0.511
698.000	426.492	80.006	19.995	100.277	19.602	34.770	0.518
700.001	427.473	80.004	19.996	100.283	19.582	36.323	0.485
702.000	428.487	80.004	19.995	100.272	19.553	38.468	0.505
704.000	429.505	80.005	19.995	100.270	19.529	40.272	0.520
706.000	430.507	80.004	19.996	100.283	19.497	42.745	0.498
708.000	431.534	80.005	19.995	100.286	19.465	45.130	0.487
710.000	432.570	80.004	19.996	100.288	19.430	47.758	0.526
712.000	433.582	80.005	19.995	100.270	19.392	50.637	0.531
714.000	434.665	80.006	19.995	100.261	19.356	53.420	0.526
716.000	435.654	80.006	19.996	100.259	19.314	56.580	0.469
718.000	436.692	80.005	19.995	100.256	19.268	60.048	0.487
720.000	437.656	80.005	19.995	100.254	19.217	63.942	0.510
722.000	438.672	80.004	19.996	100.259	19.159	68.299	0.509
724.000	439.676	80.005	19.995	100.258	19.100	72.804	0.512
726.000	440.682	80.005	19.995	100.251	19.041	77.248	0.513
728.000	441.682	80.005	19.995	100.242	18.983	81.593	0.505
730.000	442.686	80.003	19.997	100.226	18.912	86.991	0.509
732.000	443.667	80.005	19.994	100.228	18.832	93.006	0.507
734.000	444.681	80.004	19.995	100.238	18.733	100.497	0.506
736.000	445.652	80.004	19.996	100.248	18.641	107.457	0.481
738.000	446.665	80.004	19.995	100.239	18.552	114.194	0.511
740.000	447.655	80.005	19.997	100.197	18.468	120.552	0.490
742.000	448.642	80.006	19.996	100.159	18.371	127.837	0.486
744.000	449.636	80.006	19.996	100.175	18.271	135.447	0.501
746.000	450.646	80.006	19.995	100.191	18.168	143.176	0.500
748.000	451.634	80.007	19.996	100.185	18.055	151.722	0.481
750.000	452.651	80.004	19.996	100.175	17.938	160.536	0.518
752.000	453.653	80.004	19.996	100.145	17.817	169.586	0.526
754.000	454.621	80.005	19.996	100.142	17.683	179.710	0.518
756.000	455.673	80.005	19.996	100.143	17.554	189.463	0.502
758.000	456.637	80.005	19.996	100.129	17.410	200.320	0.488
760.000	457.710	80.006	19.996	100.105	17.262	211.409	0.528
762.000	458.704	80.006	19.996	100.078	17.113	222.615	0.525
764.000	459.692	80.007	19.996	100.051	16.947	235.126	0.477
766.000	460.752	80.008	19.996	100.041	16.780	247.714	0.534
768.000	461.778	80.007	19.997	100.026	16.603	260.991	0.509
770.000	462.779	80.006	19.997	100.012	16.417	274.922	0.529
772.000	463.743	80.006	19.997	99.993	16.220	289.696	0.477
774.000	464.734	80.006	19.996	99.963	16.021	304.669	0.496
776.000	465.742	80.004	19.997	99.947	15.817	319.959	0.526
778.000	466.730	80.006	19.997	99.912	15.609	335.438	0.508
780.000	467.756	80.005	19.996	99.882	15.399	351.159	0.526
782.000	468.761	80.005	19.996	99.842	15.177	367.846	0.479
784.000	469.738	80.006	19.996	99.836	14.953	384.571	0.506
786.000	470.732	80.005	19.996	99.831	14.733	400.973	0.498
788.000	471.695	80.006	19.996	99.780	14.516	417.136	0.475
790.000	472.669	80.005	19.996	99.724	14.312	432.418	0.470
792.000	473.718	80.006	19.995	99.713	14.109	447.909	0.522
794.000	474.734	80.005	19.995	99.688	13.907	462.743	0.520
796.000	475.724	80.005	19.997	99.648	13.710	477.141	0.521
798.000	476.701	80.006	19.994	99.619	13.523	490.962	0.485
800.000	477.747	80.005	19.996	99.582	13.345	504.123	0.519
802.000	478.755	80.005	19.996	99.562	13.180	516.284	0.482
804.000	479.764	80.003	19.996	99.609	13.038	526.805	0.479
806.000	480.758	80.005	19.996	99.472	12.919	535.639	0.494
808.000	481.841	80.004	19.996	99.422	12.840	541.448	0.520
810.000	482.821	80.003	19.996	99.382	12.781	545.930	0.504
812.000	483.854	80.003	19.993	99.340	12.763	547.353	0.521
814.000	484.915	80.003	19.994	99.314	12.788	545.507	0.520
816.000	485.892	80.004	19.994	99.287	12.859	539.733	0.469
818.000	486.950	80.005	19.995	99.266	12.977	531.412	0.497
820.000	487.931	80.005	19.994	99.255	13.143	519.274	0.485
822.000	488.987	80.004	19.996	99.270	13.366	502.745	0.538
824.000	490.061	80.007	19.995	99.284	13.634	482.642	0.549
826.000	491.076	80.005	19.994	99.208	13.959	457.548	0.520
828.000	492.076	80.005	19.994	99.249	14.331	430.213	0.515
830.000	493.149	80.006	19.996	99.335	14.743	399.685	0.502
832.000	494.205	80.006	19.996	99.387	15.195	366.093	0.540
834.000	495.218	80.004	19.995	99.428	15.674	330.306	0.534
836.000	496.257	80.005	19.996	99.318	16.169	293.282	0.543
838.000	497.327	80.005	19.994	99.306	16.664	256.319	0.534
840.000	498.366	80.006	19.996	99.437	17.148	220.023	0.548
842.000	499.389	80.007	19.996	99.540	17.603	185.756	0.534
844.000	500.412	80.007	19.995	99.630	18.026	153.859	0.528
846.000	501.461	80.008	19.996	99.691	18.398	125.760	0.545
848.000	502.487	80.009	19.994	99.821	18.731	100.582	0.514
850.000	503.505	80.008	19.994	99.940	19.011	79.444	0.535
852.000	504.566	80.006	19.995	100.005	19.254	61.105	0.505
854.000	505.572	80.006	19.996	100.059	19.445	46.604	0.511
856.000	506.579	80.007	19.996	100.095	19.601	34.813	0.510
858.000	507.616	80.003	19.997	100.127	19.724	25.539	0.503
860.001	508.627	80.005	19.998	100.143	19.819	18.357	0.503
862.000	509.642	80.005	19.997	100.171	19.888	13.137	0.490
864.000	510.666	80.005	19.997	100.200	19.936	9.444	0.531
866.000	511.685	80.003	19.996	100.220	19.967	7.138	0.528
868.000	512.672	80.004	19.996	100.222	19.987	5.606	0.513
870.000	513.715	80.006	19.997	100.223	20.003	4.428	0.522
872.000	514.742	80.005	19.994	100.230	20.007	4.065	0.520
874.000	515.809	80.005	19.995	100.247	20.018	3.260	0.538
876.000	516.821	80.004	19.995	100.261	20.026	2.631	0.498
878.000	517.875	80.007	19.997	100.263	20.028	2.477	0.518
880.000	518.897	80.004	19.995	100.275	20.032	2.218	0.488
882.000	519.901	80.005	19.995	100.289	20.035	2.008	0.492
884.000	520.947	80.005	19.996	100.290	20.031	2.273	0.495
886.000	521.934	80.003	19.994	100.288	20.034	2.022	0.516
888.000	522.995	80.004	19.996	100.292	20.038	1.779	0.529
890.000	524.000	80.005	19.996	100.298	20.038	1.782	0.481
892.000	525.023	80.003	19.997	100.295	20.036	1.915	0.506
894.000	526.007	80.005	19.997	100.293	20.036	1.872	0.502
896.000	527.013	80.004	19.996	100.298	20.040	1.584	0.489
898.000	528.058	80.005	19.996	100.295	20.039	1.693	0.516
900.000	529.077	80.005	19.995	100.299	20.041	1.485	0.530
902.000	530.110	80.006	19.996	100.299	20.041	1.524	0.540
904.000	531.133	80.008	19.995	100.304	20.042	1.422	0.511
906.000	532.158	80.006	19.994	100.304	20.041	1.496	0.513
908.000	533.249	80.008	19.995	100.298	20.044	1.255	0.560
910.000	534.264	80.007	19.996	100.299	20.042	1.450	0.524
912.000	535.295	80.007	19.996	100.300	20.041	1.496	0.516
914.000	536.335	80.005	19.993	100.299	20.039	1.662	0.505
916.000	537.349	80.007	19.996	100.301	20.041	1.506	0.511
918.000	538.364	80.006	19.996	100.302	20.042	1.454	0.503
920.000	539.386	80.007	19.995	100.299	20.043	1.366	0.537
922.000	540.453	80.008	19.995	100.300	20.041	1.487	0.513
924.000	541.451	80.005	19.997	100.300	20.042	1.475	0.493
926.000	542.482	80.006	19.996	100.297	20.042	1.405	0.519
928.000	543.476	80.006	19.995	100.299	20.040	1.578	0.534
930.000	544.468	80.008	19.996	100.299	20.041	1.496	0.485
932.000	545.495	80.006	19.996	100.299	20.040	1.597	0.521
934.000	546.566	80.006	19.995	100.301	20.043	1.342	0.540
936.000	547.616	80.005	19.995	100.306	20.047	1.055	0.543
938.000	548.646	80.005	19.996	100.308	20.046	1.158	0.525
940.000	549.689	80.003	19.995	100.311	20.045	1.177	0.534
942.000	550.754	80.004	19.996	100.309	20.046	1.171	0.518
944.000	551.798	80.004	19.993	100.330	20.045	1.247	0.511
946.000	552.886	80.004	19.997	100.323	20.047	1.064	0.553
948.000	553.954	80.005	19.995	100.319	20.046	1.162	0.546
950.000	555.025	80.003	19.997	100.319	20.045	1.218	0.506
952.000	556.116	80.002	19.996	100.305	20.045	1.197	0.555
954.000	557.173	80.004	19.997	100.307	20.042	1.407	0.555
956.000	558.222	80.005	19.995	100.305	20.045	1.247	0.520
958.000	559.277	80.006	19.998	100.300	20.044	1.280	0.535
960.000	560.314	80.004	19.997	100.299	20.043	1.331	0.504
962.000	561.380	80.005	19.995	100.297	20.043	1.399	0.534
964.000	562.414	80.005	19.997	100.297	20.042	1.422	0.512
966.000	563.443	80.005	19.997	100.297	20.044	1.271	0.468
968.000	564.488	80.004	19.995	100.298	20.044	1.278	0.538
970.000	565.532	80.006	19.996	100.300	20.042	1.473	0.528
972.000	566.534	80.005	19.995	100.302	20.043	1.333	0.507
974.000	567.542	80.005	19.994	100.309	20.047	1.084	0.506
976.000	568.516	80.005	19.996	100.298	20.044	1.265	0.512
978.000	569.583	80.005	19.993	100.299	20.047	1.051	0.533
980.000	570.604	80.005	19.995	100.301	20.045	1.247	0.510
982.000	571.608	80.005	19.998	100.310	20.047	1.068	0.507
984.000	572.622	80.006	19.998	100.335	20.048	0.955	0.512
986.000	573.579	80.007	19.995	100.317	20.046	1.162	0.477
988.000	574.675	80.008	19.997	100.308	20.048	0.952	0.536
990.000	575.645	80.007	19.995	100.322	20.045	1.191	0.508
992.000	576.668	80.006	19.995	100.315	20.044	1.269	0.502
994.000	577.680	80.005	19.997	100.300	20.047	1.066	0.477
996.000	578.733	80.006	19.998	100.306	20.044	1.321	0.500
998.000	579.730	80.005	19.994	100.301	20.045	1.189	0.503
1000.000	580.752	80.004	19.995	100.302	20.044	1.309	0.531
1002.000	581.752	80.005	19.994	100.302	20.044	1.319	0.521
1004.000	582.753	80.007	19.996	100.301	20.042	1.436	0.497
1006.000	583.754	80.007	19.994	100.307	20.044	1.267	0.499
1008.000	584.758	80.008	19.994	100.308	20.047	1.051	0.494
1010.000	585.746	80.007	19.996	100.307	20.046	1.152	0.459
1012.000	586.805	80.007	19.994	100.313	20.048	0.965	0.542
1014.000	587.802	80.008	19.995	100.309	20.050	0.829	0.513
1016.000	588.800	80.008	19.995	100.302	20.045	1.220	0.498
1018.000	589.811	80.007	19.995	100.306	20.048	1.014	0.514
1020.000	590.802	80.007	19.997	100.311	20.047	1.082	0.488
1022.000	591.873	80.005	19.995	100.312	20.046	1.162	0.504
1024.000	592.863	80.006	19.996	100.315	20.043	1.350	0.514
1026.000	593.855	80.005	19.996	100.304	20.045	1.243	0.513
1028.000	594.902	80.005	19.997	100.305	20.043	1.331	0.521
1030.000	595.886	80.004	19.995	100.300	20.046	1.167	0.505
1032.000	596.887	80.005	19.996	100.304	20.047	1.035	0.509
1034.000	597.860	80.006	19.996	100.307	20.046	1.163	0.487
1036.000	598.834	80.005	19.997	100.303	20.045	1.195	0.490
1038.000	599.829	80.007	19.993	100.298	20.047	1.062	0.490
1040.000	600.895	80.006	19.997	100.307	20.048	0.965	0.552
1042.000	601.863	80.005	19.995	100.303	20.048	1.006	0.504
1044.000	602.849	80.004	19.996	100.324	20.047	1.090	0.522
1046.001	603.868	80.005	19.997	100.325	20.047	1.062	0.511
1048.001	604.866	80.004	19.996	100.316	20.049	0.926	0.500
1050.000	605.865	80.007	19.995	100.316	20.047	1.074	0.473
1052.001	606.846	80.005	19.997	100.318	20.046	1.167	0.499
1054.000	607.842	80.004	19.996	100.313	20.046	1.119	0.494
1056.000	608.859	80.005	19.997	100.321	20.046	1.136	0.524
1058.000	609.893	80.006	19.997	100.335	20.042	1.403	0.509
1060.000	610.889	80.006	19.996	100.329	20.045	1.251	0.512
1062.000	611.859	80.005	19.997	100.321	20.046	1.142	0.492
1064.000	612.888	80.006	19.996	100.328	20.044	1.253	0.503
1066.001	613.904	80.006	19.995	100.328	20.043	1.332	0.518
1068.001	614.933	80.007	19.996	100.337	20.043	1.375	0.532
1070.000	615.987	80.007	19.994	100.333	20.044	1.295	0.521
1072.000	616.990	80.006	19.995	100.334	20.046	1.126	0.500
1074.001	617.996	80.008	19.996	100.336	20.044	1.321	0.495
1076.000	619.065	80.007	19.995	100.334	20.045	1.241	0.536
1078.000	620.039	80.005	19.996	100.341	20.046	1.109	0.490
1080.000	621.081	80.006	19.995	100.343	20.045	1.241	0.486
1082.000	622.109	80.005	19.996	100.345	20.048	1.008	0.532
1084.000	623.111	80.007	19.995	100.344	20.045	1.179	0.501
1086.001	624.132	80.007	19.995	100.338	20.046	1.175	0.502
1088.000	625.114	80.006	19.995	100.342	20.043	1.387	0.511
1090.000	626.125	80.007	19.995	100.336	20.049	0.895	0.487
1092.000	627.139	80.007	19.995	100.334	20.045	1.183	0.494
1094.000	628.129	80.008	19.995	100.333	20.044	1.299	0.473
1096.000	629.156	80.009	19.995	100.337	20.041	1.554	0.514
1098.000	630.134	80.009	19.996	100.336	20.040	1.570	0.512
1100.000	631.101	80.008	19.994	100.331	20.043	1.373	0.495
1102.000	632.094	80.008	19.995	100.328	20.041	1.492	0.494
1104.001	633.106	80.006	19.996	100.333	20.043	1.395	0.499
1106.000	634.106	80.004	19.996	100.335	20.042	1.455	0.478
1108.001	635.100	80.006	19.994	100.331	20.043	1.375	0.505
1110.000	636.055	80.005	19.995	100.334	20.040	1.562	0.494
1112.001	637.041	80.006	19.995	100.338	20.040	1.560	0.496
1114.000	638.034	80.004	19.996	100.340	20.041	1.525	0.487
1116.001	639.052	80.006	19.996	100.357	20.045	1.210	0.497
1118.001	640.022	80.005	19.997	100.367	20.042	1.445	0.485
1120.000	641.013	80.004	19.996	100.346	20.041	1.538	0.505
1122.001	641.970	80.006	19.997	100.361	20.037	1.791	0.486
1124.000	642.946	80.004	19.996	100.338	20.040	1.585	0.490
1126.000	643.909	80.006	19.995	100.340	20.040	1.600	0.461
1128.000	644.923	80.007	19.996	100.342	20.041	1.550	0.504
1130.000	645.864	80.006	19.997	100.363	20.039	1.643	0.491
1132.000	646.875	80.005	19.996	100.365	20.040	1.606	0.504
1134.000	647.876	80.005	19.996	100.351	20.038	1.710	0.513
1136.000	648.857	80.004	19.996	100.371	20.039	1.657	0.473
1138.000	649.848	80.004	19.997	100.372	20.040	1.573	0.509
1140.000	650.867	80.005	19.996	100.365	20.043	1.392	0.528
1142.000	651.863	80.005	19.997	100.364	20.042	1.472	0.508
1144.000	652.864	80.004	19.997	100.357	20.039	1.657	0.458
1146.000	653.888	80.004	19.996	100.362	20.040	1.571	0.535
1148.000	654.874	80.006	19.996	100.377	20.041	1.482	0.497
1150.001	655.878	80.005	19.996	100.376	20.040	1.569	0.493
1152.001	656.868	80.007	19.995	100.378	20.042	1.443	0.516
1154.000	657.887	80.007	19.996	100.372	20.038	1.750	0.497
1156.001	658.934	80.006	19.995	100.374	20.039	1.671	0.526
1158.001	659.906	80.006	19.995	100.366	20.038	1.773	0.489
1160.000	660.969	80.006	19.996	100.364	20.040	1.631	0.499
1162.001	661.966	80.005	19.996	100.359	20.037	1.853	0.520
1164.000	662.977	80.005	19.996	100.354	20.037	1.797	0.519
1166.000	664.014	80.007	19.996	100.357	20.037	1.795	0.493
1168.001	665.038	80.005	19.995	100.371	20.035	1.958	0.517
1170.000	666.099	80.007	19.996	100.375	20.033	2.100	0.540
1172.000	667.108	80.007	19.995	100.375	20.036	1.867	0.495
1174.000	668.172	80.008	19.995	100.375	20.038	1.719	0.518
1176.000	669.201	80.007	19.995	100.376	20.036	1.906	0.499
1178.000	670.201	80.007	19.995	100.379	20.036	1.884	0.526
1180.000	671.250	80.007	19.996	100.373	20.035	1.952	0.536
1182.000	672.247	80.007	19.996	100.377	20.036	1.890	0.510
1184.001	673.310	80.005	19.997	100.378	20.037	1.789	0.521
1186.000	674.349	80.005	19.994	100.379	20.034	2.049	0.523
1188.000	675.397	80.003	19.995	100.378	20.037	1.837	0.508
1190.000	676.436	80.005	19.994	100.389	20.036	1.894	0.495
1192.000	677.431	80.005	19.995	100.380	20.032	2.199	0.489
1194.000	678.478	80.005	19.995	100.378	20.036	1.866	0.515
1196.000	679.496	80.005	19.995	100.389	20.037	1.826	0.488
1198.000	680.508	80.005	19.995	100.385	20.035	1.999	0.494
1200.000	681.545	80.005	19.995	100.387	20.035	1.968	0.525
1202.001	682.584	80.003	19.996	100.386	20.034	2.036	0.544
1204.001	683.590	80.004	19.997	100.400	20.037	1.851	0.512
1206.000	684.613	80.003	19.995	100.388	20.037	1.833	0.504
1208.001	685.673	80.004	19.996	100.384	20.031	2.284	0.556
1210.000	686.683	80.005	19.996	100.382	20.035	1.987	0.516
1212.001	687.685	80.003	19.996	100.383	20.036	1.927	0.510
1214.000	688.690	80.004	19.995	100.390	20.030	2.343	0.488
1216.001	689.746	80.003	19.996	100.390	20.037	1.787	0.509
1218.000	690.765	80.003	19.996	100.413	20.036	1.899	0.515
1220.000	691.762	80.003	19.995	100.404	20.036	1.891	0.487
1222.000	692.795	80.003	19.995	100.393	20.033	2.103	0.508
1224.000	693.786	80.005	19.996	100.396	20.034	2.033	0.515
1226.000	694.832	80.005	19.996	100.385	20.033	2.146	0.521
1228.000	695.846	80.006	19.997	100.406	20.031	2.265	0.543
1230.000	696.861	80.006	19.996	100.403	20.036	1.889	0.517
1232.000	697.892	80.007	19.997	100.412	20.036	1.913	0.507
1234.000	698.879	80.005	19.996	100.412	20.031	2.278	0.515
1236.000	699.842	80.006	19.997	100.408	20.029	2.459	0.495
1238.000	700.880	80.006	19.996	100.408	20.033	2.160	0.511
1240.001	701.914	80.005	19.998	100.408	20.031	2.261	0.508
1242.001	702.921	80.005	19.996	100.407	20.031	2.248	0.484
1244.000	703.968	80.005	19.996	100.400	20.029	2.422	0.527
1246.000	704.997	80.005	19.996	100.407	20.030	2.336	0.544
1248.000	705.962	80.008	19.996	100.408	20.034	2.062	0.484
1250.001	706.981	80.008	19.996	100.399	20.033	2.132	0.508
1252.001	707.991	80.007	19.996	100.402	20.026	2.642	0.522
1254.000	709.065	80.007	19.995	100.389	20.031	2.288	0.535
1256.000	710.040	80.009	19.995	100.414	20.031	2.303	0.489
1258.001	711.055	80.008	19.995	100.415	20.030	2.356	0.519
1260.000	712.049	80.008	19.995	100.416	20.029	2.455	0.523
1262.000	713.105	80.007	19.995	100.417	20.029	2.393	0.511
1264.000	714.088	80.007	19.996	100.417	20.032	2.185	0.501
1266.000	715.069	80.006	19.996	100.417	20.032	2.233	0.488
1268.000	716.057	80.004	19.996	100.417	20.028	2.469	0.494
1270.001	717.169	80.004	19.996	100.406	20.028	2.490	0.531
1272.000	718.092	80.005	19.996	100.410	20.030	2.383	0.469
1274.000	719.092	80.005	19.996	100.420	20.029	2.424	0.470
1276.000	720.138	80.006	19.996	100.419	20.029	2.457	0.521
1278.000	721.122	80.005	19.995	100.419	20.029	2.401	0.532
1280.000	722.155	80.005	19.996	100.419	20.031	2.251	0.528
1282.000	723.165	80.006	19.996	100.421	20.032	2.183	0.521
1284.000	724.110	80.006	19.995	100.422	20.029	2.406	0.477
1286.000	725.137	80.007	19.995	100.427	20.031	2.249	0.502
1288.000	726.127	80.006	19.994	100.417	20.025	2.756	0.489
1290.000	727.096	80.007	19.995	100.416	20.022	2.931	0.507
1292.000	728.082	80.006	19.996	100.417	20.026	2.692	0.497
1294.001	729.089	80.005	19.995	100.417	20.023	2.851	0.528
1296.000	730.075	80.006	19.997	100.417	20.019	3.160	0.512
1298.001	731.077	80.005	19.995	100.420	20.023	2.892	0.516
1300.001	731.996	80.005	19.997	100.423	20.021	3.003	0.485
1302.000	732.969	80.006	19.997	100.417	20.026	2.692	0.478
1304.000	733.942	80.004	19.997	100.423	20.021	3.009	0.506
1306.001	734.944	80.006	19.996	100.422	20.022	2.935	0.493
1308.000	735.900	80.007	19.997	100.430	20.022	2.927	0.483
1310.001	736.869	80.007	19.995	100.422	20.022	2.997	0.469
1312.001	737.860	80.007	19.996	100.417	20.020	3.137	0.477
1314.000	738.861	80.008	19.996	100.420	20.021	3.046	0.492
1316.000	739.820	80.006	19.996	100.417	20.023	2.888	0.506
1318.001	740.788	80.007	19.995	100.419	20.020	3.082	0.464
1320.001	741.756	80.005	19.995	100.429	20.018	3.236	0.499
1322.001	742.755	80.007	19.995	100.430	20.020	3.094	0.451
1323.501	743.557	80.006	19.995	100.426	20.019	3.191	0.526