File: 01_Data/LDPE/MCC/LDPE_MCC_30K_min_210922_R3.txt
Sample ID:	C:\MCC\MCC Cal\Test\LDPE_MCC_30K_min_210922_R3.txt
Sample Weight (mg):	4.31
Heating Rate (C/s):	0.5
Combustor Temp (C):	900
N2 Flow Rate (cc/min):	80
O2 Flow Rate (cc/min):	20
Calibration File:	C:\MCC\MCC Cal\Coeff1 JN10440_30_210304.txt.txt
T Correction Coefficients:	0	1.024463	0
Time Shift (s):	14
*
Time (s)	Temperature (C)	N2 flow rate (cc/min)	O2 flow rate (cc/min)	Flow Rate (cc/min)	Oxygen (%)	HRR (W/g)	Heating rate (C/s)
0.000	109.731	80.005	19.997	100.400	20.056	-0.267	0.005
2.000	109.715	80.004	19.996	100.396	20.054	-0.115	0.001
4.000	109.704	80.005	19.995	100.395	20.052	0.041	-0.018
6.000	109.678	80.003	19.994	100.400	20.053	-0.069	-0.014
8.000	109.681	80.006	19.996	100.412	20.050	0.174	0.016
10.000	109.675	80.005	19.996	100.437	20.047	0.413	-0.021
12.000	109.690	80.005	19.995	100.452	20.042	0.721	0.001
14.000	109.751	80.007	19.995	100.478	20.039	0.933	0.002
16.000	109.813	80.005	19.996	100.490	20.040	0.915	0.034
18.000	109.870	80.006	19.995	100.519	20.035	1.285	-0.003
20.000	110.011	80.005	19.995	100.532	20.032	1.451	0.058
22.000	110.143	80.006	19.995	100.538	20.031	1.514	0.080
24.000	110.272	80.004	19.996	100.533	20.029	1.722	0.087
26.000	110.443	80.007	19.996	100.538	20.027	1.868	0.074
28.000	110.664	80.006	19.996	100.549	20.024	2.052	0.100
30.000	110.942	80.006	19.996	100.562	20.026	1.913	0.120
32.000	111.205	80.006	19.996	100.568	20.025	1.997	0.127
34.001	111.496	80.007	19.996	100.569	20.022	2.240	0.169
36.000	111.804	80.013	19.996	100.568	20.022	2.194	0.163
38.000	112.146	80.008	19.996	100.574	20.022	2.180	0.176
40.000	112.529	80.007	19.994	100.573	20.019	2.423	0.198
42.000	112.930	80.008	19.995	100.575	20.019	2.390	0.217
44.000	113.326	80.008	19.993	100.585	20.019	2.420	0.225
46.000	113.817	80.008	19.995	100.564	20.016	2.630	0.249
48.000	114.236	80.007	19.994	100.583	20.018	2.523	0.232
50.000	114.693	80.006	19.995	100.576	20.017	2.592	0.230
52.000	115.186	80.006	19.995	100.582	20.015	2.681	0.257
54.000	115.694	80.004	19.996	100.585	20.014	2.800	0.284
56.001	116.209	80.004	19.995	100.599	20.012	2.960	0.244
58.000	116.751	80.004	19.996	100.606	20.013	2.889	0.247
60.000	117.305	80.006	19.995	100.609	20.011	2.984	0.262
62.000	117.894	80.004	19.996	100.609	20.008	3.223	0.291
64.000	118.466	80.007	19.995	100.609	20.009	3.173	0.270
66.000	119.113	80.006	19.995	100.611	20.010	3.084	0.291
68.000	119.739	80.005	19.995	100.610	20.010	3.067	0.326
70.000	120.382	80.006	19.994	100.610	20.012	2.898	0.295
72.001	121.067	80.007	19.995	100.609	20.013	2.883	0.347
74.000	121.744	80.007	19.994	100.609	20.008	3.211	0.329
76.001	122.450	80.005	19.994	100.594	20.013	2.863	0.323
78.001	123.160	80.005	19.995	100.598	20.009	3.118	0.359
80.000	123.896	80.004	19.996	100.592	20.013	2.832	0.360
82.000	124.584	80.005	19.996	100.598	20.013	2.844	0.322
84.000	125.339	80.004	19.996	100.600	20.013	2.867	0.363
86.001	126.089	80.004	19.995	100.607	20.010	3.114	0.363
88.000	126.868	80.002	19.996	100.612	20.011	3.035	0.363
90.000	127.640	80.002	19.995	100.613	20.009	3.132	0.400
92.001	128.420	80.005	19.996	100.612	20.013	2.826	0.402
94.000	129.174	80.005	19.997	100.612	20.016	2.669	0.402
96.000	130.030	80.006	19.997	100.612	20.013	2.877	0.403
98.000	130.815	80.006	19.996	100.609	20.012	2.899	0.404
100.001	131.623	80.007	19.995	100.609	20.012	2.934	0.383
102.000	132.442	80.007	19.996	100.607	20.010	3.053	0.415
104.000	133.272	80.006	19.995	100.604	20.010	3.063	0.423
106.000	134.151	80.004	19.995	100.603	20.012	2.936	0.455
108.000	135.015	80.005	19.997	100.602	20.011	2.986	0.442
110.000	135.863	80.006	19.996	100.608	20.011	3.015	0.409
112.000	136.742	80.004	19.996	100.608	20.012	2.942	0.439
114.000	137.628	80.006	19.997	100.602	20.011	3.017	0.457
116.000	138.440	80.004	19.998	100.602	20.016	2.628	0.425
118.000	139.315	80.006	19.997	100.598	20.009	3.161	0.428
120.001	140.277	80.006	19.996	100.606	20.011	3.019	0.493
122.000	141.115	80.007	19.996	100.606	20.016	2.640	0.415
124.000	142.042	80.007	19.996	100.604	20.014	2.780	0.457
126.000	142.976	80.008	19.996	100.602	20.017	2.557	0.472
128.000	143.916	80.007	19.995	100.597	20.012	2.924	0.483
130.000	144.799	80.006	19.993	100.596	20.012	2.902	0.477
132.000	145.775	80.006	19.995	100.606	20.011	2.989	0.483
134.000	146.698	80.005	19.995	100.601	20.012	2.904	0.477
136.000	147.663	80.004	19.995	100.599	20.013	2.878	0.482
138.000	148.599	80.005	19.995	100.607	20.013	2.864	0.481
140.000	149.570	80.006	19.996	100.600	20.013	2.842	0.511
142.000	150.506	80.005	19.996	100.595	20.012	2.957	0.472
144.000	151.469	80.005	19.995	100.576	20.013	2.858	0.486
146.000	152.394	80.003	19.995	100.576	20.012	2.910	0.458
148.000	153.352	80.005	19.995	100.572	20.013	2.855	0.449
150.000	154.298	80.005	19.995	100.573	20.015	2.724	0.467
152.000	155.239	80.005	19.996	100.575	20.014	2.765	0.450
154.000	156.235	80.005	19.995	100.575	20.013	2.842	0.478
156.000	157.241	80.004	19.996	100.585	20.015	2.686	0.522
158.000	158.214	80.004	19.996	100.586	20.018	2.520	0.523
160.000	159.160	80.006	19.995	100.578	20.015	2.682	0.464
162.000	160.153	80.005	19.995	100.574	20.017	2.541	0.507
164.000	161.128	80.004	19.995	100.572	20.015	2.713	0.477
166.000	162.133	80.005	19.996	100.570	20.018	2.482	0.531
168.000	163.089	80.006	19.996	100.572	20.018	2.491	0.493
170.000	164.082	80.005	19.994	100.572	20.020	2.374	0.466
172.000	165.098	80.006	19.995	100.552	20.017	2.534	0.531
174.000	166.087	80.006	19.995	100.547	20.019	2.457	0.494
176.000	167.058	80.007	19.995	100.544	20.018	2.526	0.482
178.000	168.059	80.006	19.995	100.569	20.019	2.429	0.492
180.000	169.056	80.007	19.996	100.575	20.018	2.504	0.505
182.000	170.077	80.007	19.997	100.568	20.018	2.463	0.501
184.000	171.024	80.007	19.997	100.563	20.021	2.306	0.468
186.000	172.030	80.005	19.995	100.555	20.018	2.478	0.452
188.000	173.071	80.006	19.996	100.565	20.018	2.472	0.497
190.000	174.078	80.005	19.996	100.553	20.020	2.359	0.524
192.000	175.071	80.006	19.996	100.551	20.024	2.063	0.510
194.000	176.038	80.005	19.997	100.550	20.018	2.488	0.491
196.000	177.017	80.006	19.995	100.545	20.018	2.510	0.466
198.000	178.032	80.006	19.995	100.562	20.016	2.615	0.462
200.000	179.022	80.004	19.996	100.544	20.020	2.369	0.495
202.000	180.061	80.007	19.996	100.535	20.021	2.254	0.497
204.000	181.012	80.007	19.996	100.549	20.021	2.304	0.458
206.000	182.048	80.007	19.996	100.551	20.020	2.339	0.504
208.000	183.037	80.006	19.996	100.547	20.024	2.061	0.471
210.000	184.081	80.006	19.996	100.549	20.023	2.124	0.524
212.000	185.111	80.007	19.996	100.536	20.025	2.004	0.522
214.000	186.119	80.006	19.996	100.530	20.025	1.994	0.514
216.000	187.100	80.005	19.996	100.535	20.026	1.921	0.505
218.000	188.156	80.004	19.996	100.533	20.023	2.094	0.520
220.000	189.086	80.004	19.996	100.533	20.024	2.049	0.484
222.000	190.088	80.005	19.996	100.533	20.025	1.984	0.501
224.000	191.094	80.004	19.995	100.534	20.023	2.106	0.518
226.000	192.088	80.005	19.995	100.538	20.023	2.106	0.457
228.000	193.092	80.004	19.996	100.533	20.026	1.904	0.491
230.000	194.085	80.006	19.995	100.531	20.024	2.066	0.501
232.001	195.099	80.005	19.995	100.527	20.023	2.139	0.492
234.000	196.030	80.005	19.996	100.518	20.026	1.889	0.478
236.000	197.033	80.006	19.996	100.521	20.028	1.764	0.472
238.000	198.051	80.005	19.995	100.519	20.029	1.668	0.497
240.000	198.981	80.004	19.995	100.516	20.028	1.750	0.468
242.000	200.000	80.004	19.996	100.509	20.030	1.634	0.493
244.000	201.011	80.005	19.995	100.518	20.028	1.754	0.499
246.000	201.965	80.005	19.997	100.524	20.030	1.653	0.485
248.000	202.965	80.006	19.996	100.530	20.029	1.713	0.494
250.000	203.966	80.005	19.996	100.523	20.025	1.952	0.505
252.000	204.961	80.004	19.995	100.518	20.028	1.758	0.494
254.000	205.968	80.005	19.995	100.519	20.030	1.641	0.485
256.000	206.961	80.007	19.995	100.504	20.029	1.711	0.497
258.000	207.947	80.007	19.996	100.509	20.031	1.564	0.469
260.000	208.935	80.007	19.996	100.516	20.028	1.784	0.487
262.000	209.932	80.007	19.996	100.501	20.028	1.740	0.505
264.000	210.917	80.007	19.995	100.499	20.029	1.710	0.479
266.000	211.895	80.007	19.995	100.504	20.029	1.703	0.488
268.000	212.881	80.006	19.995	100.496	20.028	1.734	0.505
270.000	213.871	80.007	19.996	100.508	20.027	1.865	0.516
272.000	214.867	80.007	19.995	100.499	20.027	1.821	0.493
274.000	215.818	80.006	19.996	100.498	20.027	1.870	0.504
276.000	216.823	80.005	19.996	100.496	20.027	1.823	0.501
278.000	217.837	80.006	19.996	100.496	20.027	1.803	0.495
280.000	218.845	80.006	19.996	100.501	20.026	1.876	0.511
282.000	219.827	80.007	19.996	100.503	20.030	1.651	0.496
284.000	220.805	80.007	19.995	100.496	20.033	1.398	0.502
286.000	221.775	80.007	19.995	100.495	20.031	1.537	0.489
288.000	222.757	80.008	19.994	100.495	20.031	1.540	0.482
290.000	223.757	80.009	19.995	100.497	20.030	1.629	0.497
292.000	224.714	80.007	19.996	100.493	20.029	1.685	0.485
294.000	225.713	80.008	19.995	100.490	20.030	1.653	0.510
296.000	226.746	80.006	19.997	100.488	20.031	1.525	0.496
298.000	227.721	80.006	19.996	100.487	20.032	1.444	0.509
300.000	228.758	80.005	19.995	100.489	20.029	1.665	0.501
302.001	229.730	80.006	19.997	100.487	20.033	1.398	0.491
304.000	230.746	80.005	19.996	100.489	20.033	1.428	0.502
306.000	231.727	80.004	19.996	100.488	20.031	1.519	0.520
308.000	232.703	80.005	19.996	100.486	20.029	1.704	0.491
310.000	233.697	80.006	19.996	100.490	20.030	1.629	0.504
312.000	234.687	80.007	19.996	100.487	20.034	1.307	0.490
314.000	235.706	80.006	19.997	100.484	20.031	1.570	0.491
316.000	236.679	80.005	19.996	100.483	20.032	1.457	0.487
318.000	237.670	80.005	19.996	100.485	20.034	1.319	0.498
320.000	238.644	80.006	19.996	100.484	20.030	1.625	0.494
322.000	239.644	80.005	19.996	100.478	20.029	1.669	0.474
324.000	240.639	80.007	19.995	100.480	20.033	1.430	0.488
326.000	241.641	80.004	19.995	100.482	20.030	1.606	0.497
328.000	242.627	80.005	19.995	100.482	20.029	1.689	0.483
330.000	243.639	80.004	19.995	100.486	20.030	1.651	0.507
332.000	244.612	80.005	19.995	100.484	20.031	1.534	0.478
334.000	245.573	80.005	19.995	100.487	20.029	1.720	0.501
336.000	246.612	80.005	19.995	100.475	20.031	1.568	0.507
338.000	247.630	80.005	19.996	100.487	20.032	1.469	0.468
340.000	248.595	80.006	19.996	100.483	20.036	1.177	0.483
342.000	249.614	80.006	19.995	100.473	20.032	1.467	0.509
344.000	250.610	80.007	19.994	100.466	20.034	1.356	0.478
346.000	251.642	80.007	19.995	100.458	20.034	1.329	0.504
348.000	252.653	80.006	19.995	100.463	20.034	1.325	0.508
350.000	253.629	80.006	19.994	100.467	20.031	1.576	0.514
352.000	254.590	80.007	19.994	100.464	20.033	1.435	0.495
354.000	255.590	80.006	19.996	100.457	20.030	1.631	0.487
356.001	256.578	80.005	19.996	100.459	20.034	1.364	0.470
358.000	257.568	80.006	19.995	100.463	20.035	1.242	0.503
360.000	258.602	80.007	19.995	100.463	20.032	1.495	0.499
362.000	259.573	80.006	19.994	100.470	20.034	1.356	0.490
364.000	260.584	80.009	19.995	100.458	20.035	1.273	0.507
366.000	261.567	80.008	19.995	100.457	20.036	1.161	0.486
368.000	262.567	80.007	19.996	100.465	20.036	1.181	0.482
370.000	263.596	80.010	19.995	100.466	20.037	1.135	0.525
372.000	264.574	80.008	19.996	100.450	20.038	1.052	0.494
374.000	265.566	80.009	19.996	100.447	20.038	1.039	0.480
376.001	266.603	80.006	19.995	100.452	20.036	1.155	0.530
378.000	267.566	80.007	19.996	100.466	20.037	1.125	0.504
380.001	268.591	80.006	19.996	100.474	20.034	1.364	0.520
382.000	269.591	80.006	19.996	100.466	20.038	1.011	0.497
384.000	270.603	80.005	19.996	100.461	20.041	0.853	0.518
386.000	271.621	80.004	19.995	100.454	20.039	0.995	0.493
388.000	272.592	80.005	19.996	100.451	20.041	0.851	0.476
390.000	273.596	80.005	19.995	100.451	20.040	0.890	0.475
392.000	274.542	80.005	19.995	100.449	20.042	0.780	0.499
394.000	275.549	80.003	19.996	100.448	20.042	0.774	0.488
396.000	276.555	80.004	19.995	100.450	20.040	0.918	0.512
398.000	277.576	80.006	19.996	100.447	20.042	0.760	0.506
400.000	278.582	80.005	19.995	100.449	20.039	0.946	0.501
402.000	279.529	80.004	19.998	100.445	20.041	0.829	0.481
404.000	280.506	80.005	19.996	100.442	20.039	0.987	0.493
406.000	281.498	80.005	19.997	100.438	20.038	1.021	0.514
408.000	282.477	80.004	19.996	100.438	20.039	0.963	0.505
410.000	283.427	80.003	19.997	100.444	20.037	1.102	0.501
412.000	284.387	80.004	19.996	100.443	20.038	1.033	0.504
414.000	285.310	80.003	19.995	100.433	20.041	0.831	0.459
416.000	286.310	80.005	19.996	100.446	20.039	0.936	0.509
418.000	287.291	80.005	19.996	100.457	20.040	0.906	0.489
420.000	288.259	80.004	19.995	100.456	20.040	0.906	0.489
422.000	289.230	80.005	19.995	100.452	20.037	1.106	0.508
424.000	290.230	80.005	19.996	100.448	20.037	1.108	0.468
426.000	291.220	80.006	19.995	100.446	20.038	1.038	0.533
428.000	292.216	80.006	19.995	100.437	20.037	1.143	0.502
430.000	293.259	80.006	19.996	100.454	20.039	0.999	0.520
432.000	294.236	80.005	19.995	100.453	20.033	1.378	0.500
434.000	295.260	80.006	19.995	100.450	20.038	1.064	0.492
436.000	296.280	80.005	19.996	100.451	20.034	1.330	0.506
438.000	297.242	80.005	19.996	100.450	20.037	1.099	0.483
440.000	298.273	80.007	19.996	100.451	20.037	1.094	0.486
442.000	299.343	80.005	19.995	100.451	20.039	0.938	0.542
444.000	300.349	80.006	19.994	100.449	20.034	1.342	0.522
446.000	301.397	80.006	19.996	100.443	20.034	1.356	0.541
448.000	302.365	80.008	19.995	100.428	20.034	1.344	0.512
450.000	303.406	80.007	19.994	100.444	20.032	1.508	0.503
452.000	304.445	80.007	19.994	100.440	20.032	1.486	0.516
454.000	305.426	80.008	19.995	100.444	20.036	1.200	0.494
456.000	306.515	80.010	19.995	100.432	20.037	1.125	0.536
458.000	307.501	80.007	19.994	100.440	20.037	1.099	0.510
460.000	308.533	80.006	19.995	100.435	20.033	1.399	0.504
462.000	309.545	80.004	19.995	100.420	20.031	1.555	0.510
464.000	310.550	80.005	19.996	100.429	20.035	1.251	0.506
466.000	311.577	80.004	19.996	100.416	20.035	1.236	0.525
468.000	312.635	80.003	19.996	100.420	20.034	1.295	0.502
470.000	313.692	80.005	19.996	100.423	20.038	1.028	0.544
472.000	314.700	80.004	19.996	100.434	20.040	0.880	0.494
474.000	315.703	80.005	19.996	100.423	20.042	0.772	0.486
476.000	316.722	80.006	19.996	100.424	20.038	1.044	0.495
478.001	317.760	80.005	19.997	100.427	20.041	0.817	0.522
480.000	318.774	80.005	19.995	100.423	20.039	0.932	0.523
482.000	319.770	80.005	19.995	100.422	20.040	0.914	0.527
484.000	320.806	80.003	19.995	100.421	20.041	0.837	0.492
486.000	321.792	80.005	19.996	100.419	20.039	0.933	0.516
488.000	322.741	80.005	19.996	100.417	20.042	0.781	0.479
490.000	323.786	80.004	19.996	100.417	20.038	1.044	0.509
492.000	324.782	80.005	19.996	100.412	20.037	1.079	0.540
494.000	325.772	80.003	19.998	100.411	20.041	0.797	0.492
496.000	326.771	80.004	19.997	100.411	20.037	1.111	0.492
498.000	327.787	80.004	19.996	100.411	20.038	1.016	0.513
500.000	328.797	80.005	19.997	100.412	20.041	0.787	0.526
502.000	329.785	80.005	19.996	100.412	20.038	1.042	0.490
504.000	330.771	80.005	19.997	100.418	20.039	0.939	0.464
506.000	331.758	80.007	19.996	100.429	20.039	0.955	0.485
508.000	332.783	80.007	19.996	100.425	20.041	0.807	0.512
510.000	333.759	80.007	19.994	100.418	20.043	0.707	0.498
512.000	334.768	80.007	19.994	100.412	20.039	0.955	0.492
514.000	335.815	80.006	19.996	100.412	20.037	1.093	0.515
516.000	336.761	80.007	19.995	100.409	20.034	1.362	0.501
518.000	337.743	80.005	19.995	100.410	20.032	1.486	0.503
520.000	338.743	80.005	19.996	100.411	20.035	1.279	0.519
522.000	339.715	80.006	19.995	100.412	20.035	1.271	0.501
524.000	340.699	80.006	19.995	100.412	20.033	1.385	0.509
526.000	341.680	80.005	19.995	100.414	20.035	1.253	0.501
528.000	342.668	80.006	19.996	100.415	20.030	1.612	0.503
530.000	343.650	80.006	19.995	100.415	20.034	1.344	0.497
532.000	344.642	80.008	19.995	100.416	20.037	1.135	0.484
534.000	345.667	80.008	19.994	100.417	20.037	1.081	0.524
536.001	346.665	80.009	19.995	100.416	20.036	1.208	0.505
538.000	347.636	80.007	19.994	100.416	20.032	1.494	0.473
540.000	348.650	80.008	19.995	100.414	20.034	1.338	0.488
542.000	349.667	80.007	19.995	100.415	20.035	1.265	0.504
544.000	350.680	80.005	19.995	100.416	20.032	1.474	0.509
546.001	351.686	80.005	19.995	100.416	20.035	1.231	0.502
548.000	352.716	80.005	19.994	100.417	20.035	1.231	0.508
550.000	353.735	80.005	19.995	100.412	20.036	1.164	0.509
552.000	354.769	80.005	19.996	100.414	20.034	1.356	0.532
554.000	355.750	80.005	19.995	100.409	20.036	1.156	0.530
556.000	356.757	80.004	19.995	100.400	20.034	1.310	0.494
558.000	357.750	80.005	19.995	100.413	20.033	1.407	0.525
560.000	358.750	80.006	19.996	100.408	20.034	1.360	0.513
562.000	359.752	80.005	19.996	100.409	20.033	1.417	0.517
564.000	360.758	80.005	19.997	100.412	20.027	1.806	0.504
566.000	361.777	80.007	19.995	100.408	20.029	1.717	0.518
568.000	362.765	80.006	19.995	100.406	20.029	1.677	0.505
570.000	363.733	80.006	19.996	100.393	20.027	1.812	0.489
572.001	364.766	80.004	19.997	100.409	20.027	1.804	0.514
574.000	365.754	80.005	19.996	100.413	20.028	1.733	0.502
576.000	366.720	80.005	19.996	100.409	20.025	2.013	0.489
578.000	367.735	80.003	19.996	100.413	20.027	1.821	0.506
580.000	368.731	80.004	19.995	100.414	20.023	2.155	0.503
582.000	369.732	80.006	19.997	100.413	20.023	2.123	0.475
584.000	370.722	80.004	19.996	100.410	20.026	1.882	0.468
586.000	371.716	80.004	19.996	100.409	20.024	2.060	0.507
588.000	372.724	80.005	19.997	100.395	20.020	2.310	0.517
590.000	373.736	80.005	19.997	100.403	20.021	2.273	0.502
592.001	374.746	80.007	19.997	100.396	20.012	2.896	0.507
594.000	375.740	80.005	19.998	100.386	20.008	3.234	0.512
596.000	376.738	80.005	19.997	100.377	20.012	2.936	0.490
598.000	377.732	80.005	19.996	100.375	20.009	3.118	0.489
600.000	378.775	80.006	19.996	100.381	20.007	3.301	0.503
602.000	379.745	80.007	19.996	100.379	20.009	3.143	0.487
604.000	380.739	80.005	19.995	100.378	20.002	3.670	0.507
606.000	381.733	80.005	19.995	100.389	20.003	3.614	0.480
608.000	382.682	80.006	19.995	100.392	20.000	3.768	0.479
610.000	383.706	80.006	19.995	100.402	19.997	4.030	0.481
612.000	384.715	80.007	19.996	100.392	19.993	4.297	0.489
614.000	385.712	80.006	19.995	100.392	19.989	4.594	0.490
616.001	386.716	80.008	19.996	100.386	19.990	4.535	0.519
618.000	387.740	80.006	19.994	100.377	19.986	4.821	0.509
620.000	388.732	80.007	19.996	100.373	19.981	5.182	0.464
622.000	389.681	80.007	19.995	100.374	19.981	5.167	0.488
624.000	390.681	80.008	19.995	100.372	19.976	5.536	0.519
626.001	391.696	80.007	19.996	100.371	19.974	5.666	0.542
628.000	392.692	80.006	19.996	100.372	19.972	5.830	0.503
630.000	393.697	80.005	19.995	100.373	19.962	6.530	0.521
632.000	394.693	80.006	19.995	100.375	19.963	6.519	0.487
634.000	395.703	80.005	19.995	100.382	19.955	7.052	0.507
636.000	396.718	80.005	19.995	100.387	19.951	7.344	0.487
638.000	397.720	80.004	19.995	100.381	19.948	7.568	0.525
640.000	398.714	80.005	19.995	100.379	19.943	7.914	0.482
642.000	399.727	80.006	19.996	100.374	19.938	8.315	0.496
644.000	400.725	80.005	19.995	100.364	19.930	8.873	0.497
646.000	401.709	80.007	19.995	100.373	19.922	9.438	0.474
648.000	402.739	80.007	19.995	100.371	19.915	10.008	0.499
650.000	403.732	80.006	19.997	100.362	19.912	10.211	0.512
652.000	404.694	80.005	19.996	100.371	19.903	10.830	0.494
654.000	405.721	80.004	19.997	100.372	19.897	11.267	0.503
656.000	406.713	80.004	19.996	100.374	19.886	12.058	0.506
658.000	407.729	80.003	19.996	100.376	19.881	12.445	0.511
660.000	408.697	80.003	19.997	100.374	19.870	13.251	0.472
662.000	409.661	80.003	19.996	100.366	19.857	14.161	0.461
664.000	410.703	80.005	19.996	100.348	19.855	14.339	0.515
666.000	411.687	80.005	19.996	100.343	19.845	15.087	0.488
668.000	412.720	80.005	19.998	100.351	19.832	15.983	0.496
670.000	413.707	80.006	19.995	100.359	19.823	16.684	0.470
672.000	414.666	80.006	19.996	100.354	19.815	17.225	0.485
674.000	415.695	80.006	19.996	100.363	19.801	18.273	0.527
676.000	416.639	80.006	19.995	100.358	19.790	19.018	0.459
678.000	417.679	80.006	19.996	100.370	19.775	20.135	0.517
680.000	418.690	80.004	19.997	100.372	19.759	21.324	0.529
682.000	419.641	80.005	19.997	100.362	19.741	22.604	0.477
684.000	420.673	80.003	19.996	100.376	19.721	24.075	0.509
686.000	421.690	80.005	19.998	100.358	19.704	25.292	0.504
688.000	422.703	80.006	19.999	100.341	19.687	26.517	0.498
690.000	423.716	80.006	19.997	100.342	19.672	27.626	0.504
692.000	424.743	80.006	19.997	100.333	19.652	29.077	0.513
694.000	425.735	80.007	19.996	100.334	19.629	30.704	0.516
696.000	426.766	80.007	19.996	100.333	19.606	32.373	0.506
698.000	427.782	80.009	19.997	100.336	19.575	34.671	0.488
700.000	428.823	80.009	19.994	100.333	19.543	36.997	0.519
702.000	429.859	80.009	19.995	100.331	19.507	39.612	0.547
704.000	430.905	80.008	19.996	100.328	19.476	41.848	0.545
706.000	431.855	80.006	19.995	100.315	19.440	44.489	0.521
708.000	432.902	80.006	19.995	100.301	19.406	46.920	0.499
710.000	433.878	80.007	19.995	100.312	19.367	49.779	0.492
712.000	434.932	80.006	19.997	100.323	19.325	52.779	0.526
714.000	435.907	80.006	19.996	100.310	19.281	55.977	0.493
716.000	436.890	80.006	19.995	100.315	19.231	59.622	0.494
718.000	437.890	80.005	19.997	100.318	19.169	64.099	0.493
720.000	438.924	80.005	19.996	100.317	19.106	68.654	0.507
722.000	439.933	80.006	19.996	100.308	19.039	73.581	0.550
724.000	440.887	80.006	19.996	100.287	18.980	77.851	0.467
726.000	441.933	80.005	19.995	100.268	18.911	82.827	0.504
728.000	442.915	80.007	19.996	100.259	18.843	87.744	0.509
730.000	443.896	80.005	19.994	100.266	18.761	93.717	0.492
732.000	444.871	80.007	19.995	100.283	18.677	99.763	0.491
734.000	445.874	80.006	19.995	100.290	18.594	105.790	0.498
736.000	446.816	80.007	19.995	100.273	18.502	112.412	0.478
738.000	447.826	80.007	19.996	100.245	18.402	119.705	0.483
740.001	448.808	80.005	19.995	100.232	18.300	127.081	0.496
742.000	449.795	80.006	19.995	100.244	18.198	134.474	0.491
744.000	450.771	80.004	19.997	100.221	18.090	142.273	0.503
746.000	451.777	80.006	19.996	100.203	17.978	150.401	0.535
748.000	452.799	80.004	19.997	100.196	17.856	159.212	0.528
750.000	453.806	80.004	19.997	100.195	17.732	168.158	0.511
752.000	454.795	80.006	19.995	100.187	17.592	178.221	0.514
754.000	455.770	80.006	19.995	100.164	17.449	188.626	0.507
756.000	456.825	80.007	19.996	100.162	17.292	199.976	0.484
758.000	457.824	80.005	19.997	100.164	17.137	211.212	0.492
760.000	458.860	80.009	19.996	100.116	16.979	222.615	0.502
762.000	459.892	80.007	19.996	100.089	16.808	234.848	0.514
764.000	460.936	80.006	19.996	100.087	16.619	248.432	0.547
766.000	461.956	80.007	19.996	100.096	16.425	262.500	0.519
768.000	463.003	80.007	19.996	100.081	16.230	276.441	0.517
770.000	464.057	80.005	19.997	100.056	16.025	291.124	0.523
772.000	465.050	80.006	19.997	100.037	15.808	306.702	0.505
774.000	466.125	80.004	19.995	99.985	15.573	323.623	0.564
776.000	467.178	80.006	19.997	99.969	15.344	340.070	0.543
778.000	468.199	80.007	19.997	99.937	15.111	356.725	0.509
780.000	469.247	80.008	19.997	99.900	14.865	374.296	0.536
782.000	470.298	80.007	19.995	99.853	14.633	390.983	0.505
784.000	471.337	80.008	19.997	99.821	14.399	408.204	0.558
786.001	472.344	80.007	19.996	99.793	14.169	424.358	0.524
788.000	473.348	80.008	19.996	99.743	13.936	440.709	0.502
790.000	474.422	80.006	19.995	99.704	13.709	456.842	0.522
792.001	475.469	80.003	19.995	99.680	13.482	473.050	0.505
794.000	476.485	80.006	19.996	99.692	13.270	488.021	0.513
796.000	477.531	80.006	19.995	99.743	13.076	501.850	0.537
798.000	478.560	80.005	19.994	99.576	12.897	514.605	0.539
800.000	479.509	80.006	19.995	99.515	12.737	525.864	0.492
802.001	480.539	80.006	19.997	99.480	12.605	535.152	0.527
804.000	481.579	80.006	19.996	99.430	12.489	543.405	0.505
806.000	482.581	80.004	19.995	99.385	12.420	548.338	0.508
808.000	483.572	80.006	19.996	99.366	12.378	551.296	0.513
810.000	484.573	80.005	19.995	99.337	12.379	551.310	0.485
812.000	485.581	80.006	19.997	99.289	12.425	548.206	0.488
814.000	486.604	80.006	19.995	99.258	12.536	540.079	0.490
816.000	487.602	80.007	19.996	99.253	12.701	528.477	0.486
818.001	488.582	80.007	19.994	99.235	12.910	513.774	0.484
820.000	489.582	80.006	19.997	99.244	13.171	495.221	0.501
822.000	490.568	80.006	19.994	99.272	13.478	473.493	0.509
824.000	491.559	80.006	19.994	99.303	13.826	447.556	0.509
826.001	492.569	80.005	19.996	99.263	14.232	418.613	0.506
828.000	493.529	80.007	19.996	99.354	14.675	387.385	0.489
830.000	494.533	80.006	19.997	99.394	15.146	353.763	0.497
832.001	495.566	80.005	19.996	99.462	15.643	318.233	0.501
834.000	496.561	80.007	19.996	99.422	16.145	282.162	0.503
836.000	497.559	80.009	19.997	99.266	16.650	246.083	0.488
838.000	498.609	80.008	19.995	99.452	17.141	210.770	0.503
840.000	499.651	80.008	19.996	99.573	17.604	177.353	0.522
842.000	500.729	80.010	19.996	99.652	18.025	146.905	0.554
844.000	501.752	80.007	19.999	99.709	18.403	119.570	0.515
846.000	502.755	80.008	19.996	99.841	18.740	95.202	0.529
848.000	503.763	80.003	19.998	99.972	19.032	74.024	0.485
850.000	504.788	80.007	19.997	100.049	19.266	57.064	0.499
852.000	505.815	80.006	19.997	100.098	19.460	42.993	0.515
854.000	506.844	80.006	19.995	100.141	19.620	31.398	0.495
856.001	507.819	80.007	19.996	100.176	19.743	22.411	0.498
858.000	508.783	80.007	19.997	100.196	19.835	15.803	0.497
860.000	509.830	80.008	19.995	100.219	19.897	11.308	0.495
862.000	510.819	80.008	19.996	100.234	19.943	7.965	0.502
864.000	511.829	80.007	19.996	100.247	19.973	5.738	0.492
866.000	512.809	80.009	19.996	100.254	19.995	4.134	0.502
868.001	513.817	80.009	19.999	100.256	20.007	3.269	0.510
870.000	514.861	80.006	19.995	100.284	20.016	2.610	0.525
872.000	515.843	80.005	19.995	100.291	20.029	1.723	0.488
874.000	516.862	80.005	19.995	100.295	20.033	1.382	0.506
876.000	517.877	80.007	19.996	100.298	20.032	1.443	0.475
878.000	518.910	80.004	19.998	100.302	20.037	1.083	0.531
880.000	519.892	80.005	19.997	100.306	20.040	0.882	0.489
882.000	520.910	80.006	19.997	100.320	20.039	0.941	0.523
884.000	521.928	80.005	19.998	100.322	20.039	0.970	0.514
886.000	522.893	80.005	19.995	100.331	20.040	0.864	0.486
888.000	523.920	80.005	19.995	100.333	20.042	0.763	0.508
890.000	524.953	80.007	19.996	100.338	20.042	0.710	0.542
892.000	525.943	80.009	19.994	100.336	20.043	0.665	0.513
894.000	526.977	80.005	19.995	100.335	20.042	0.714	0.509
896.000	528.047	80.008	19.993	100.339	20.047	0.392	0.530
898.000	529.016	80.009	19.995	100.334	20.051	0.110	0.481
900.000	530.071	80.004	19.996	100.332	20.049	0.229	0.535
902.000	531.114	80.012	19.994	100.332	20.052	0.008	0.511
904.000	532.080	80.009	19.994	100.334	20.038	1.006	0.494
906.000	533.182	80.005	19.994	100.332	20.038	1.020	0.530
908.000	534.246	80.004	19.995	100.334	20.045	0.513	0.530
910.000	535.307	80.002	19.996	100.335	20.044	0.629	0.533
912.000	536.436	80.006	19.994	100.326	20.045	0.531	0.548
914.000	537.416	80.006	19.996	100.329	20.049	0.247	0.517
916.000	538.447	80.009	19.996	100.342	20.053	-0.067	0.506
918.000	539.459	80.006	19.996	100.342	20.051	0.126	0.550
920.000	540.477	80.007	19.996	100.343	20.053	-0.020	0.505
922.000	541.594	80.011	19.991	100.349	20.052	0.041	0.538
924.000	542.570	80.009	19.994	100.349	20.054	-0.114	0.519
926.000	543.610	80.009	19.994	100.358	20.050	0.179	0.513
928.000	544.586	80.011	19.995	100.352	20.051	0.114	0.463
930.000	545.582	80.007	19.996	100.351	20.054	-0.106	0.483
932.000	546.608	80.007	19.995	100.343	20.057	-0.353	0.474
934.000	547.734	80.007	19.995	100.339	20.051	0.063	0.535
936.000	548.694	80.010	19.997	100.341	20.053	-0.063	0.507
938.000	549.730	80.009	19.997	100.339	20.049	0.258	0.502
940.000	550.766	80.009	19.994	100.340	20.051	0.083	0.521
942.000	551.759	80.008	19.995	100.331	20.047	0.392	0.495
944.000	552.805	80.001	19.996	100.337	20.055	-0.187	0.522
946.000	553.821	80.009	19.995	100.342	20.058	-0.444	0.524
948.000	554.839	80.010	19.994	100.345	20.054	-0.126	0.533
950.000	555.826	80.006	19.994	100.343	20.047	0.379	0.513
952.000	556.846	80.002	19.996	100.338	20.053	-0.087	0.535
954.000	557.820	80.012	19.995	100.334	20.056	-0.276	0.519
956.000	558.836	80.005	19.996	100.324	20.062	-0.683	0.502
958.000	559.789	80.005	19.996	100.326	20.048	0.333	0.491
960.001	560.856	80.001	19.997	100.334	20.054	-0.101	0.513
962.000	561.830	80.003	19.999	100.338	20.052	-0.008	0.509
964.000	562.843	80.004	19.996	100.337	20.053	-0.043	0.506
966.000	563.805	80.005	19.996	100.355	20.056	-0.239	0.501
968.000	564.878	80.011	19.998	100.358	20.063	-0.807	0.524
970.000	565.847	80.006	19.998	100.339	20.055	-0.181	0.501
972.000	566.917	80.009	19.997	100.353	20.056	-0.280	0.497
974.000	567.945	80.006	19.996	100.345	20.057	-0.345	0.531
976.000	568.875	80.004	19.997	100.347	20.054	-0.148	0.478
978.000	569.929	80.006	19.997	100.339	20.061	-0.659	0.536
980.000	570.932	80.004	19.995	100.333	20.055	-0.231	0.500
982.000	571.952	80.006	19.996	100.336	20.054	-0.101	0.539
984.000	572.940	80.004	19.997	100.335	20.049	0.227	0.498
986.000	573.971	80.006	19.996	100.331	20.051	0.085	0.513
988.000	575.030	80.006	19.994	100.338	20.054	-0.144	0.555
990.000	576.025	80.006	19.996	100.348	20.054	-0.138	0.484
992.000	577.064	80.006	19.995	100.346	20.050	0.142	0.519
994.000	578.052	80.006	19.994	100.352	20.064	-0.864	0.487
996.000	579.036	80.006	19.996	100.352	20.058	-0.402	0.477
998.000	580.026	80.005	19.995	100.352	20.048	0.329	0.519
1000.000	581.057	80.010	19.995	100.362	20.055	-0.213	0.494
1002.000	582.106	80.007	19.994	100.370	20.051	0.057	0.543
1004.000	583.109	80.007	19.997	100.365	20.055	-0.199	0.515
1006.000	584.076	80.009	19.995	100.372	20.053	-0.087	0.473
1008.000	585.136	80.006	19.996	100.350	20.052	0.047	0.517
1010.000	586.091	80.005	19.996	100.339	20.053	-0.067	0.480
1012.000	587.129	80.006	19.995	100.342	20.056	-0.237	0.532
1014.000	588.152	80.009	19.994	100.349	20.056	-0.270	0.510
1016.000	589.135	80.008	19.997	100.375	20.052	0.036	0.499
1018.000	590.124	80.007	19.994	100.363	20.051	0.089	0.457
1020.000	591.151	80.007	19.994	100.349	20.053	-0.032	0.519
1022.000	592.172	80.014	19.994	100.339	20.057	-0.361	0.534
1024.000	593.252	80.008	19.996	100.344	20.052	0.051	0.530
1026.000	594.303	80.008	19.994	100.363	20.055	-0.213	0.538
1028.000	595.346	80.009	19.995	100.376	20.057	-0.325	0.534
1030.001	596.382	80.010	19.995	100.377	20.053	-0.045	0.514
1032.000	597.413	80.010	19.996	100.367	20.056	-0.237	0.549
1034.000	598.429	80.010	19.995	100.355	20.057	-0.310	0.529
1036.000	599.502	80.006	19.996	100.367	20.055	-0.176	0.496
1038.000	600.526	80.007	19.995	100.372	20.050	0.132	0.517
1040.000	601.619	80.007	19.997	100.365	20.050	0.176	0.561
1042.001	602.636	80.006	19.995	100.371	20.055	-0.227	0.513
1044.000	603.655	80.007	19.996	100.369	20.053	-0.034	0.501
1046.000	604.680	80.008	19.996	100.364	20.059	-0.460	0.511
1048.000	605.704	80.006	19.996	100.372	20.051	0.069	0.509
1050.000	606.684	80.006	19.996	100.374	20.050	0.148	0.504
1052.000	607.697	80.005	19.995	100.371	20.051	0.085	0.546
1054.000	608.703	80.006	19.995	100.367	20.056	-0.264	0.507
1056.000	609.757	80.005	19.996	100.378	20.051	0.063	0.533
1058.000	610.755	80.006	19.998	100.377	20.052	0.014	0.499
1060.000	611.753	80.004	19.995	100.373	20.053	-0.089	0.501
1062.000	612.754	80.006	19.995	100.371	20.051	0.118	0.489
1064.000	613.809	80.007	19.998	100.377	20.049	0.241	0.496
1066.000	614.797	80.005	19.997	100.389	20.046	0.442	0.490
1068.000	615.812	80.006	19.997	100.378	20.052	0.049	0.520
1070.000	616.818	80.005	19.996	100.379	20.051	0.065	0.519
1072.000	617.751	80.004	19.997	100.377	20.050	0.185	0.485
1074.001	618.775	80.003	19.996	100.379	20.046	0.436	0.484
1076.000	619.765	80.004	19.996	100.390	20.053	-0.024	0.485
1078.001	620.687	80.006	19.994	100.400	20.050	0.186	0.447
1080.000	621.680	80.007	19.996	100.393	20.047	0.393	0.481
1082.000	622.648	80.007	19.995	100.385	20.051	0.122	0.485
1084.000	623.660	80.005	19.996	100.390	20.047	0.375	0.505
1086.000	624.642	80.007	19.996	100.390	20.048	0.304	0.508
1088.000	625.552	80.007	19.996	100.403	20.049	0.233	0.448
1090.001	626.585	80.008	19.996	100.409	20.051	0.107	0.506
1092.000	627.580	80.008	19.995	100.410	20.049	0.233	0.481
1094.000	628.578	80.005	19.995	100.409	20.048	0.296	0.503
1096.000	629.582	80.008	19.996	100.412	20.048	0.332	0.496
1098.000	630.611	80.006	19.995	100.415	20.049	0.257	0.508
1100.000	631.636	80.006	19.996	100.422	20.045	0.513	0.532
1102.001	632.740	80.008	19.996	100.429	20.046	0.428	0.550
1104.001	633.834	80.008	19.995	100.431	20.045	0.496	0.554
1106.000	634.984	80.009	19.996	100.425	20.045	0.545	0.568
1108.000	636.101	80.010	19.996	100.435	20.043	0.655	0.561
1110.000	637.248	80.013	19.995	100.437	20.047	0.361	0.562
1112.000	638.390	80.009	19.995	100.436	20.044	0.590	0.568
1114.000	639.550	80.009	19.995	100.451	20.042	0.760	0.581
1116.001	640.688	80.007	19.995	100.452	20.043	0.677	0.583
1118.001	641.848	80.007	19.995	100.452	20.046	0.482	0.555
1120.000	643.016	80.005	19.995	100.454	20.045	0.525	0.572
1122.001	644.147	80.004	19.995	100.455	20.044	0.567	0.574
1124.001	645.330	80.005	19.996	100.456	20.044	0.569	0.578
1126.000	646.503	80.006	19.996	100.453	20.041	0.851	0.584
1128.000	647.666	80.006	19.996	100.453	20.045	0.559	0.605
1130.000	648.803	80.005	19.996	100.454	20.043	0.646	0.573
1132.000	650.002	80.006	19.995	100.456	20.041	0.855	0.611
1134.000	651.135	80.006	19.996	100.455	20.040	0.869	0.550
1136.000	652.336	80.006	19.996	100.457	20.041	0.837	0.597
1138.000	653.436	80.007	19.995	100.459	20.040	0.881	0.547
1140.000	654.584	80.007	19.995	100.463	20.040	0.879	0.564
1142.001	655.694	80.006	19.995	100.483	20.043	0.681	0.542
1144.001	656.841	80.006	19.995	100.475	20.037	1.096	0.555
1146.000	657.947	80.006	19.996	100.470	20.042	0.754	0.545
1148.000	659.068	80.006	19.996	100.471	20.040	0.926	0.552
1150.000	660.174	80.004	19.996	100.474	20.041	0.833	0.558
1152.000	661.243	80.006	19.996	100.469	20.039	0.962	0.575
1154.001	662.379	80.007	19.996	100.471	20.042	0.764	0.577
1156.000	663.456	80.006	19.997	100.483	20.040	0.903	0.551
1158.001	664.535	80.005	19.996	100.483	20.038	1.057	0.542
1160.000	665.592	80.007	19.997	100.492	20.040	0.873	0.540
1162.000	666.718	80.005	19.997	100.490	20.037	1.092	0.546
1164.000	667.753	80.007	19.996	100.490	20.034	1.311	0.535
1166.000	668.818	80.008	19.997	100.492	20.035	1.236	0.519
1168.000	669.891	80.007	19.996	100.490	20.034	1.294	0.519
1170.001	670.950	80.008	19.996	100.489	20.029	1.667	0.519
1172.000	672.029	80.007	19.995	100.490	20.032	1.462	0.562
1174.000	673.132	80.008	19.995	100.491	20.031	1.515	0.553
1176.000	674.193	80.009	19.995	100.495	20.031	1.527	0.571
1178.000	675.273	80.006	19.996	100.512	20.034	1.359	0.542
1180.000	676.342	80.007	19.994	100.503	20.029	1.705	0.567
1182.000	677.342	80.008	19.996	100.497	20.032	1.488	0.514
1184.000	678.398	80.008	19.997	100.508	20.029	1.685	0.515
1186.000	679.416	80.007	19.996	100.528	20.033	1.432	0.496
1188.001	680.457	80.009	19.995	100.530	20.035	1.233	0.494
1190.000	681.495	80.009	19.995	100.514	20.031	1.535	0.516
1192.001	682.494	80.009	19.995	100.512	20.033	1.413	0.498
1194.001	683.500	80.009	19.995	100.529	20.030	1.600	0.502
1196.001	684.467	80.009	19.995	100.520	20.032	1.490	0.513
1198.000	685.457	80.009	19.996	100.526	20.030	1.585	0.460
1200.000	686.464	80.008	19.996	100.531	20.031	1.533	0.484
1202.001	687.449	80.005	19.995	100.534	20.030	1.654	0.470
1204.000	688.418	80.006	19.996	100.532	20.026	1.885	0.475
1206.001	689.431	80.005	19.996	100.523	20.027	1.848	0.503
1208.000	690.405	80.007	19.995	100.536	20.027	1.855	0.512
1210.000	691.374	80.006	19.996	100.537	20.025	1.960	0.484
1212.001	692.392	80.007	19.997	100.536	20.026	1.917	0.487
1214.000	693.248	80.004	19.996	100.540	20.026	1.936	0.458
1216.001	694.346	80.008	19.996	100.542	20.026	1.941	0.546
1218.000	695.330	80.005	19.997	100.534	20.027	1.858	0.498
1220.000	696.298	80.006	19.996	100.536	20.020	2.338	0.505
1222.001	697.285	80.006	19.997	100.532	20.022	2.217	0.491
1224.000	698.228	80.006	19.997	100.535	20.025	2.016	0.481
1226.000	699.223	80.007	19.996	100.545	20.024	2.089	0.507
1228.000	700.199	80.006	19.997	100.551	20.023	2.156	0.511
1230.001	701.169	80.006	19.997	100.567	20.023	2.149	0.481
1232.001	702.177	80.006	19.996	100.561	20.018	2.477	0.503
1234.000	703.155	80.005	19.996	100.560	20.018	2.467	0.496
1236.000	704.147	80.004	19.996	100.560	20.020	2.315	0.467
1238.000	705.122	80.005	19.996	100.559	20.018	2.467	0.476
1240.000	706.097	80.006	19.996	100.564	20.015	2.682	0.501
1242.000	707.089	80.006	19.996	100.576	20.018	2.520	0.486
1244.000	708.080	80.006	19.997	100.572	20.020	2.384	0.518
1246.000	709.075	80.006	19.996	100.571	20.020	2.334	0.455
1248.000	710.048	80.006	19.997	100.571	20.021	2.244	0.506
1250.000	711.036	80.008	19.997	100.574	20.022	2.228	0.491
1252.000	712.028	80.006	19.997	100.573	20.020	2.346	0.472
1254.000	713.017	80.006	19.997	100.572	20.018	2.465	0.483
1256.000	714.042	80.005	19.996	100.576	20.017	2.534	0.508
1258.000	715.103	80.005	19.996	100.573	20.017	2.574	0.548
1260.000	716.085	80.005	19.997	100.573	20.015	2.713	0.521
1262.001	717.116	80.004	19.996	100.578	20.014	2.766	0.516
1264.000	718.088	80.006	19.996	100.576	20.012	2.958	0.485
1266.000	719.102	80.007	19.995	100.575	20.013	2.858	0.506
1268.001	720.124	80.006	19.995	100.578	20.012	2.960	0.532
1270.000	721.089	80.008	19.994	100.597	20.012	2.914	0.468
1272.000	722.137	80.008	19.995	100.611	20.013	2.847	0.525
1274.000	723.159	80.008	19.995	100.613	20.013	2.859	0.510
1276.001	724.150	80.007	19.995	100.618	20.013	2.851	0.487
1278.000	725.144	80.008	19.996	100.617	20.017	2.543	0.504
1280.000	726.176	80.008	19.996	100.605	20.017	2.592	0.487
1282.000	727.178	80.006	19.996	100.605	20.016	2.669	0.508
1284.000	728.200	80.005	19.995	100.607	20.014	2.778	0.522
1286.001	729.219	80.007	19.995	100.611	20.012	2.911	0.534
1288.000	730.268	80.007	19.996	100.606	20.015	2.707	0.517
1290.000	731.295	80.005	19.995	100.598	20.015	2.693	0.512
1292.000	732.326	80.007	19.997	100.606	20.012	2.960	0.514
1294.001	733.310	80.007	19.997	100.606	20.009	3.188	0.509
1296.000	734.301	80.006	19.996	100.610	20.010	3.093	0.504
1298.001	735.354	80.008	19.994	100.610	20.007	3.326	0.500
1300.000	736.360	80.006	19.995	100.611	20.009	3.144	0.525
1302.000	737.309	80.006	19.996	100.611	20.010	3.065	0.456
1304.000	738.338	80.007	19.995	100.611	20.010	3.103	0.522
1306.000	739.328	80.007	19.995	100.611	20.013	2.859	0.525
1308.001	740.279	80.006	19.995	100.610	20.015	2.739	0.465
1310.000	741.263	80.005	19.996	100.610	20.010	3.047	0.487
1312.000	742.246	80.005	19.996	100.616	20.012	2.913	0.478
1314.000	743.250	80.006	19.996	100.615	20.012	2.960	0.509
1315.000	743.773	80.005	19.997	100.613	20.010	3.043	0.491