File: 01_Data/LDPE/MCC/LDPE_MCC_30K_min_210922_R2.txt
Sample ID:	C:\MCC\MCC Cal\Test\LDPE_MCC_30K_min_210922_R2.txt
Sample Weight (mg):	4.45
Heating Rate (C/s):	0.5
Combustor Temp (C):	900
N2 Flow Rate (cc/min):	80
O2 Flow Rate (cc/min):	20
Calibration File:	C:\MCC\MCC Cal\Coeff1 JN10440_30_210304.txt.txt
T Correction Coefficients:	0	1.024463	0
Time Shift (s):	14
*
Time (s)	Temperature (C)	N2 flow rate (cc/min)	O2 flow rate (cc/min)	Flow Rate (cc/min)	Oxygen (%)	HRR (W/g)	Heating rate (C/s)
0.000	108.703	80.005	19.996	100.367	20.048	0.233	0.013
2.000	108.730	80.006	19.996	100.364	20.048	0.248	0.028
4.000	108.714	80.006	19.996	100.376	20.052	-0.057	-0.002
6.000	108.656	80.006	19.994	100.373	20.050	0.097	-0.018
8.000	108.650	80.008	19.996	100.378	20.050	0.088	-0.037
10.000	108.661	80.004	19.995	100.377	20.050	0.117	-0.016
12.001	108.650	80.005	19.994	100.378	20.051	0.078	-0.016
14.000	108.658	80.007	19.997	100.404	20.046	0.377	-0.003
16.000	108.687	80.005	19.996	100.422	20.043	0.620	-0.003
18.000	108.739	80.006	19.995	100.430	20.039	0.863	0.025
20.000	108.778	80.009	19.997	100.478	20.032	1.359	0.035
22.000	108.913	80.008	19.997	100.488	20.031	1.443	0.076
24.000	109.034	80.008	19.997	100.505	20.028	1.655	0.055
26.000	109.178	80.006	19.996	100.514	20.024	1.942	0.073
28.000	109.350	80.007	19.995	100.528	20.024	1.937	0.068
30.000	109.567	80.007	19.998	100.525	20.025	1.868	0.122
32.000	109.743	80.007	19.997	100.524	20.026	1.801	0.099
34.000	109.969	80.006	19.996	100.523	20.022	2.063	0.115
36.000	110.237	80.006	19.997	100.533	20.023	1.987	0.134
38.000	110.520	80.005	19.996	100.535	20.023	2.021	0.114
40.000	110.823	80.004	19.996	100.538	20.021	2.188	0.168
42.000	111.146	80.002	19.997	100.537	20.021	2.179	0.179
44.000	111.542	80.004	19.998	100.536	20.019	2.294	0.172
46.000	111.876	80.004	19.997	100.539	20.020	2.204	0.180
48.000	112.276	80.003	19.997	100.547	20.019	2.326	0.195
50.000	112.656	80.005	19.997	100.563	20.016	2.508	0.182
52.001	113.100	80.005	19.997	100.566	20.016	2.491	0.218
54.000	113.530	80.004	19.997	100.573	20.017	2.439	0.222
56.000	114.071	80.005	19.997	100.574	20.014	2.645	0.234
58.000	114.534	80.004	19.997	100.575	20.017	2.414	0.251
60.000	115.032	80.004	19.998	100.574	20.013	2.734	0.268
62.001	115.542	80.007	19.999	100.580	20.011	2.840	0.259
64.001	116.092	80.004	19.997	100.579	20.009	3.037	0.272
66.000	116.646	80.004	19.996	100.601	20.006	3.189	0.248
68.000	117.251	80.002	19.997	100.594	20.011	2.886	0.294
70.000	117.847	80.004	19.997	100.582	20.009	2.991	0.295
72.000	118.500	80.005	19.997	100.586	20.010	2.919	0.336
74.000	119.132	80.004	19.997	100.603	20.010	2.911	0.313
76.001	119.753	80.011	19.998	100.610	20.008	3.055	0.317
78.000	120.410	80.003	19.996	100.612	20.009	2.999	0.331
80.000	121.088	80.002	19.996	100.608	20.008	3.097	0.345
82.001	121.808	80.004	19.996	100.605	20.011	2.874	0.377
84.000	122.581	80.006	19.995	100.608	20.006	3.248	0.374
86.000	123.287	80.009	19.995	100.606	20.007	3.131	0.347
88.000	124.043	80.006	19.995	100.607	20.006	3.188	0.364
90.000	124.791	80.005	19.996	100.610	20.005	3.261	0.350
92.000	125.609	80.007	19.996	100.603	20.007	3.171	0.420
94.000	126.423	80.006	19.997	100.609	20.005	3.290	0.404
96.001	127.179	80.005	19.997	100.606	20.004	3.370	0.391
98.001	128.009	80.004	19.994	100.594	20.007	3.180	0.409
100.000	128.813	80.004	19.995	100.594	20.005	3.312	0.395
102.000	129.614	80.005	19.995	100.586	20.004	3.374	0.402
104.000	130.493	80.008	19.995	100.589	20.008	3.087	0.423
106.000	131.342	80.006	19.996	100.593	20.004	3.378	0.437
108.000	132.144	80.006	19.996	100.591	20.005	3.265	0.403
110.000	133.001	80.006	19.995	100.581	20.006	3.223	0.419
112.000	133.873	80.004	19.995	100.581	20.008	3.104	0.428
114.001	134.749	80.005	19.994	100.601	20.007	3.138	0.399
116.000	135.614	80.006	19.995	100.609	20.006	3.188	0.424
118.000	136.528	80.004	19.995	100.596	20.007	3.173	0.452
120.000	137.414	80.003	19.995	100.589	20.007	3.163	0.447
122.000	138.326	80.003	19.995	100.589	20.007	3.146	0.435
124.000	139.248	80.003	19.996	100.577	20.009	3.038	0.456
126.000	140.166	80.003	19.996	100.584	20.010	2.943	0.455
128.000	141.066	80.003	19.996	100.580	20.009	3.023	0.437
130.000	141.979	80.005	19.996	100.589	20.012	2.809	0.441
132.000	142.935	80.004	19.996	100.586	20.010	2.964	0.475
134.000	143.881	80.003	19.996	100.579	20.006	3.191	0.448
136.000	144.811	80.004	19.996	100.582	20.007	3.165	0.490
138.000	145.768	80.005	19.996	100.581	20.009	3.038	0.454
140.000	146.698	80.005	19.996	100.586	20.009	2.996	0.443
142.000	147.669	80.005	19.995	100.571	20.008	3.109	0.467
144.000	148.640	80.005	19.996	100.572	20.008	3.069	0.485
146.000	149.597	80.004	19.996	100.570	20.010	2.962	0.477
148.000	150.517	80.005	19.996	100.570	20.010	2.939	0.470
150.000	151.514	80.002	19.995	100.570	20.009	3.004	0.503
152.000	152.487	80.004	19.996	100.567	20.011	2.894	0.487
154.000	153.434	80.003	19.997	100.560	20.011	2.845	0.480
156.000	154.396	80.003	19.997	100.571	20.013	2.715	0.459
158.001	155.367	80.004	19.996	100.571	20.012	2.828	0.489
160.000	156.317	80.003	19.997	100.571	20.010	2.925	0.486
162.000	157.283	80.004	19.996	100.569	20.010	2.913	0.484
164.000	158.296	80.004	19.996	100.560	20.013	2.737	0.497
166.000	159.222	80.005	19.995	100.571	20.013	2.710	0.471
168.000	160.260	80.005	19.995	100.575	20.014	2.688	0.523
170.000	161.181	80.005	19.995	100.573	20.013	2.696	0.481
172.000	162.146	80.006	19.995	100.565	20.010	2.941	0.481
174.001	163.104	80.006	19.995	100.547	20.009	3.006	0.487
176.000	164.148	80.006	19.995	100.543	20.011	2.831	0.495
178.000	165.148	80.005	19.995	100.564	20.014	2.662	0.501
180.000	166.129	80.004	19.996	100.574	20.013	2.737	0.504
182.000	167.148	80.005	19.995	100.572	20.018	2.373	0.528
184.000	168.067	80.004	19.995	100.576	20.015	2.608	0.477
186.000	169.084	80.006	19.995	100.566	20.013	2.736	0.484
188.000	170.109	80.006	19.994	100.549	20.014	2.639	0.524
190.000	171.048	80.006	19.995	100.546	20.014	2.651	0.474
192.000	172.090	80.007	19.995	100.535	20.012	2.804	0.503
194.000	173.082	80.006	19.995	100.513	20.011	2.890	0.498
196.000	174.065	80.008	19.995	100.507	20.013	2.744	0.482
198.000	175.030	80.007	19.995	100.530	20.014	2.654	0.498
200.000	176.054	80.007	19.994	100.558	20.013	2.751	0.518
202.000	177.008	80.006	19.995	100.564	20.015	2.551	0.475
204.000	178.059	80.007	19.994	100.546	20.012	2.782	0.521
206.000	179.027	80.005	19.996	100.552	20.015	2.579	0.513
208.000	180.022	80.005	19.997	100.530	20.012	2.807	0.493
210.000	181.041	80.004	19.996	100.518	20.009	2.997	0.504
212.000	182.045	80.005	19.996	100.515	20.011	2.897	0.479
214.000	183.087	80.004	19.996	100.541	20.014	2.670	0.519
216.000	184.080	80.003	19.997	100.522	20.015	2.606	0.503
218.000	185.056	80.004	19.996	100.531	20.012	2.815	0.509
220.000	186.082	80.004	19.997	100.531	20.013	2.733	0.512
222.000	187.081	80.005	19.996	100.528	20.017	2.430	0.500
224.000	188.071	80.004	19.995	100.539	20.018	2.340	0.482
226.000	189.089	80.005	19.996	100.533	20.014	2.627	0.524
228.000	190.131	80.004	19.996	100.533	20.018	2.340	0.526
230.000	191.112	80.005	19.996	100.529	20.018	2.377	0.482
232.000	192.119	80.003	19.996	100.516	20.017	2.459	0.469
234.000	193.148	80.003	19.995	100.520	20.020	2.237	0.489
236.000	194.222	80.003	19.996	100.530	20.019	2.329	0.555
238.000	195.140	80.003	19.997	100.531	20.018	2.348	0.489
240.000	196.171	80.003	19.997	100.525	20.016	2.526	0.505
242.000	197.180	80.004	19.996	100.523	20.021	2.158	0.513
244.000	198.175	80.002	19.997	100.507	20.019	2.265	0.501
246.000	199.177	80.004	19.997	100.518	20.019	2.294	0.511
248.000	200.206	80.003	19.997	100.531	20.022	2.081	0.523
250.000	201.144	80.003	19.996	100.523	20.022	2.110	0.484
252.000	202.156	80.004	19.996	100.523	20.021	2.169	0.497
254.000	203.160	80.005	19.995	100.514	20.022	2.074	0.497
256.000	204.120	80.005	19.996	100.490	20.020	2.216	0.484
258.000	205.117	80.005	19.996	100.492	20.024	1.955	0.515
260.000	206.078	80.006	19.995	100.492	20.024	1.917	0.471
262.000	207.153	80.004	19.995	100.493	20.023	1.999	0.495
264.000	208.103	80.005	19.995	100.504	20.023	2.045	0.472
266.000	209.083	80.005	19.996	100.512	20.025	1.898	0.470
268.000	210.062	80.005	19.994	100.513	20.025	1.888	0.470
270.000	211.042	80.007	19.996	100.498	20.024	1.930	0.454
272.000	212.097	80.006	19.995	100.497	20.021	2.127	0.533
274.000	213.051	80.006	19.995	100.492	20.024	1.915	0.510
276.000	214.053	80.008	19.994	100.494	20.025	1.906	0.510
278.000	215.005	80.006	19.995	100.492	20.026	1.785	0.484
280.000	215.972	80.005	19.995	100.512	20.024	1.940	0.506
282.000	216.945	80.006	19.994	100.498	20.025	1.877	0.482
284.000	217.976	80.005	19.996	100.494	20.028	1.695	0.497
286.000	218.938	80.004	19.996	100.513	20.026	1.835	0.459
288.000	219.914	80.005	19.996	100.494	20.026	1.827	0.490
290.000	220.952	80.005	19.995	100.498	20.025	1.886	0.514
292.000	221.932	80.005	19.994	100.491	20.026	1.781	0.521
294.000	222.914	80.004	19.996	100.491	20.026	1.836	0.488
296.000	223.814	80.005	19.995	100.493	20.027	1.706	0.479
298.000	224.857	80.005	19.995	100.497	20.029	1.626	0.487
300.000	225.859	80.003	19.995	100.500	20.027	1.712	0.494
302.000	226.798	80.005	19.995	100.491	20.029	1.622	0.462
304.000	227.813	80.006	19.995	100.482	20.026	1.823	0.489
306.000	228.798	80.005	19.996	100.485	20.027	1.743	0.515
308.000	229.772	80.003	19.995	100.477	20.027	1.733	0.459
310.000	230.771	80.003	19.995	100.463	20.026	1.777	0.472
312.000	231.778	80.003	19.995	100.480	20.023	1.992	0.483
314.000	232.772	80.003	19.996	100.482	20.022	2.068	0.500
316.000	233.751	80.003	19.996	100.495	20.027	1.722	0.497
318.000	234.690	80.003	19.996	100.498	20.027	1.756	0.486
320.000	235.727	80.004	19.995	100.507	20.026	1.810	0.479
322.000	236.737	80.003	19.996	100.515	20.031	1.423	0.500
324.000	237.677	80.003	19.996	100.501	20.030	1.520	0.493
326.000	238.704	80.004	19.995	100.501	20.030	1.528	0.515
328.000	239.642	80.005	19.996	100.495	20.030	1.555	0.476
330.000	240.655	80.006	19.997	100.491	20.031	1.442	0.492
332.000	241.612	80.006	19.996	100.487	20.031	1.432	0.493
334.000	242.599	80.005	19.996	100.472	20.033	1.333	0.476
336.000	243.669	80.005	19.995	100.452	20.027	1.702	0.512
338.000	244.643	80.005	19.996	100.475	20.028	1.681	0.512
340.000	245.613	80.005	19.997	100.478	20.029	1.622	0.499
342.000	246.630	80.005	19.996	100.461	20.030	1.549	0.509
344.000	247.615	80.005	19.996	100.478	20.028	1.683	0.498
346.000	248.627	80.004	19.996	100.468	20.027	1.704	0.516
348.000	249.641	80.004	19.997	100.460	20.027	1.758	0.491
350.000	250.652	80.005	19.996	100.475	20.029	1.564	0.454
352.000	251.692	80.006	19.996	100.485	20.029	1.587	0.556
354.000	252.684	80.006	19.996	100.491	20.030	1.507	0.502
356.000	253.725	80.006	19.996	100.492	20.029	1.570	0.514
358.000	254.750	80.007	19.996	100.491	20.028	1.647	0.541
360.000	255.733	80.007	19.995	100.467	20.029	1.624	0.523
362.000	256.702	80.006	19.995	100.454	20.029	1.561	0.469
364.000	257.745	80.006	19.995	100.472	20.028	1.629	0.479
366.000	258.706	80.004	19.995	100.472	20.031	1.436	0.488
368.000	259.750	80.004	19.995	100.480	20.031	1.465	0.522
370.000	260.732	80.004	19.995	100.463	20.034	1.235	0.487
372.000	261.719	80.004	19.995	100.464	20.034	1.237	0.504
374.000	262.702	80.003	19.995	100.473	20.032	1.396	0.443
376.000	263.761	80.004	19.995	100.460	20.032	1.385	0.531
378.000	264.749	80.004	19.995	100.459	20.028	1.664	0.508
380.000	265.732	80.004	19.995	100.452	20.030	1.490	0.520
382.000	266.769	80.003	19.996	100.459	20.030	1.555	0.522
384.000	267.766	80.005	19.996	100.461	20.031	1.482	0.515
386.000	268.728	80.003	19.995	100.461	20.030	1.534	0.491
388.000	269.748	80.004	19.995	100.464	20.032	1.402	0.507
390.000	270.740	80.006	19.994	100.463	20.031	1.427	0.515
392.000	271.760	80.005	19.995	100.454	20.032	1.381	0.493
394.000	272.750	80.004	19.996	100.457	20.036	1.113	0.485
396.000	273.749	80.004	19.995	100.455	20.034	1.256	0.493
398.000	274.721	80.005	19.995	100.456	20.035	1.142	0.502
400.000	275.740	80.005	19.995	100.455	20.037	1.044	0.476
402.000	276.749	80.003	19.997	100.456	20.035	1.180	0.508
404.000	277.742	80.004	19.996	100.455	20.035	1.184	0.476
406.000	278.728	80.003	19.995	100.455	20.034	1.222	0.493
408.000	279.714	80.005	19.997	100.458	20.035	1.155	0.481
410.000	280.680	80.004	19.997	100.456	20.035	1.155	0.488
412.000	281.664	80.004	19.996	100.455	20.041	0.776	0.473
414.000	282.697	80.007	19.996	100.453	20.037	1.061	0.497
416.000	283.645	80.006	19.996	100.452	20.038	0.956	0.471
418.001	284.623	80.006	19.996	100.451	20.035	1.138	0.468
420.000	285.669	80.005	19.995	100.452	20.033	1.314	0.506
422.000	286.615	80.005	19.995	100.450	20.036	1.111	0.471
424.000	287.634	80.006	19.997	100.457	20.035	1.143	0.489
426.000	288.655	80.004	19.997	100.456	20.036	1.092	0.511
428.000	289.607	80.005	19.997	100.456	20.041	0.759	0.469
430.000	290.638	80.004	19.996	100.458	20.041	0.732	0.482
432.000	291.642	80.006	19.997	100.461	20.040	0.839	0.491
434.000	292.644	80.005	19.996	100.457	20.039	0.901	0.490
436.000	293.662	80.005	19.997	100.447	20.038	0.983	0.531
438.000	294.673	80.005	19.996	100.452	20.037	1.025	0.516
440.000	295.678	80.007	19.996	100.442	20.032	1.356	0.486
442.000	296.727	80.006	19.996	100.444	20.032	1.402	0.523
444.000	297.729	80.006	19.996	100.454	20.035	1.197	0.503
446.000	298.726	80.006	19.995	100.454	20.033	1.337	0.517
448.000	299.749	80.006	19.997	100.458	20.036	1.134	0.515
450.000	300.733	80.005	19.996	100.458	20.036	1.080	0.504
452.000	301.706	80.003	19.995	100.451	20.037	1.004	0.472
454.000	302.659	80.004	19.995	100.451	20.033	1.279	0.453
456.000	303.672	80.004	19.998	100.443	20.032	1.400	0.503
458.000	304.661	80.004	19.996	100.442	20.032	1.400	0.485
460.000	305.686	80.005	19.995	100.443	20.034	1.266	0.455
462.000	306.703	80.005	19.996	100.447	20.036	1.126	0.528
464.000	307.679	80.004	19.996	100.452	20.036	1.103	0.491
466.000	308.727	80.006	19.996	100.453	20.036	1.086	0.523
468.000	309.705	80.005	19.995	100.452	20.036	1.067	0.529
470.000	310.701	80.006	19.996	100.447	20.035	1.143	0.492
472.000	311.689	80.005	19.996	100.447	20.037	1.025	0.496
474.000	312.773	80.006	19.995	100.448	20.037	1.046	0.531
476.000	313.790	80.004	19.996	100.431	20.038	0.987	0.510
478.000	314.837	80.004	19.995	100.432	20.035	1.199	0.530
480.000	315.831	80.006	19.996	100.423	20.035	1.197	0.506
482.000	316.824	80.004	19.996	100.439	20.035	1.159	0.508
484.000	317.851	80.004	19.996	100.434	20.034	1.233	0.523
486.000	318.843	80.006	19.996	100.443	20.035	1.183	0.485
488.000	319.861	80.005	19.995	100.436	20.036	1.113	0.478
490.000	320.873	80.004	19.995	100.430	20.035	1.204	0.513
492.000	321.906	80.004	19.996	100.430	20.034	1.216	0.510
494.000	322.887	80.005	19.995	100.428	20.035	1.158	0.516
496.000	323.891	80.005	19.995	100.433	20.035	1.204	0.495
498.000	324.841	80.005	19.995	100.435	20.031	1.472	0.459
500.000	325.918	80.007	19.995	100.428	20.035	1.170	0.545
502.000	326.926	80.005	19.995	100.418	20.033	1.277	0.527
504.000	327.911	80.004	19.997	100.420	20.037	1.044	0.507
506.000	328.958	80.006	19.995	100.419	20.032	1.376	0.512
508.000	329.945	80.004	19.995	100.446	20.035	1.158	0.519
510.000	330.971	80.004	19.996	100.428	20.040	0.835	0.503
512.000	331.973	80.004	19.996	100.428	20.034	1.225	0.506
514.000	332.981	80.004	19.995	100.425	20.035	1.156	0.499
516.000	334.002	80.006	19.996	100.431	20.034	1.216	0.508
518.000	335.034	80.006	19.995	100.420	20.034	1.231	0.522
520.000	336.041	80.007	19.995	100.420	20.037	1.044	0.515
522.000	337.060	80.007	19.996	100.416	20.036	1.111	0.513
524.000	338.069	80.007	19.995	100.416	20.037	0.998	0.496
526.000	339.051	80.006	19.995	100.415	20.036	1.112	0.485
528.000	340.053	80.005	19.995	100.415	20.036	1.099	0.485
530.000	341.036	80.006	19.996	100.415	20.034	1.252	0.466
532.000	342.072	80.003	19.997	100.414	20.040	0.830	0.525
534.000	343.040	80.004	19.997	100.414	20.037	1.063	0.500
536.000	344.052	80.003	19.996	100.411	20.034	1.206	0.508
538.001	345.022	80.003	19.998	100.413	20.037	1.025	0.500
540.000	346.114	80.003	19.997	100.415	20.034	1.239	0.537
542.000	347.090	80.005	19.996	100.415	20.035	1.156	0.486
544.000	348.100	80.004	19.996	100.425	20.037	1.038	0.500
546.000	349.147	80.005	19.995	100.421	20.034	1.265	0.547
548.000	350.147	80.002	19.995	100.416	20.035	1.200	0.506
550.000	351.140	80.006	19.995	100.417	20.035	1.155	0.507
552.000	352.167	80.006	19.995	100.416	20.035	1.172	0.539
554.000	353.218	80.006	19.995	100.416	20.034	1.212	0.535
556.000	354.227	80.005	19.995	100.417	20.033	1.342	0.530
558.000	355.241	80.004	19.994	100.416	20.033	1.298	0.503
560.000	356.162	80.005	19.995	100.418	20.033	1.346	0.451
562.000	357.203	80.005	19.997	100.416	20.029	1.568	0.518
564.000	358.233	80.005	19.996	100.416	20.030	1.529	0.475
566.000	359.227	80.003	19.997	100.407	20.029	1.623	0.503
568.000	360.248	80.005	19.996	100.410	20.026	1.808	0.499
570.000	361.235	80.004	19.995	100.421	20.027	1.760	0.469
572.000	362.294	80.005	19.995	100.426	20.027	1.709	0.504
574.000	363.261	80.005	19.994	100.421	20.026	1.829	0.495
576.000	364.267	80.005	19.995	100.421	20.023	2.015	0.502
578.000	365.278	80.006	19.995	100.406	20.023	1.997	0.506
580.000	366.259	80.007	19.995	100.410	20.022	2.053	0.472
582.000	367.289	80.007	19.995	100.419	20.019	2.267	0.501
584.000	368.297	80.007	19.993	100.411	20.016	2.521	0.511
586.000	369.332	80.007	19.995	100.411	20.016	2.510	0.513
588.000	370.323	80.006	19.995	100.397	20.016	2.502	0.510
590.000	371.306	80.007	19.995	100.402	20.013	2.703	0.492
592.000	372.358	80.006	19.995	100.410	20.015	2.565	0.520
594.000	373.378	80.004	19.996	100.386	20.011	2.891	0.504
596.000	374.374	80.007	19.997	100.404	20.011	2.827	0.503
598.000	375.423	80.007	19.996	100.416	20.012	2.767	0.492
600.000	376.401	80.007	19.997	100.414	20.008	3.053	0.510
602.000	377.462	80.008	19.996	100.406	20.004	3.318	0.509
604.000	378.454	80.008	19.997	100.390	20.004	3.348	0.496
606.000	379.477	80.009	19.996	100.406	20.006	3.220	0.520
608.000	380.432	80.008	19.996	100.412	20.001	3.551	0.507
610.000	381.465	80.007	19.993	100.392	20.000	3.631	0.510
612.000	382.516	80.006	19.995	100.391	19.998	3.761	0.525
614.000	383.467	80.006	19.995	100.400	19.998	3.805	0.501
616.000	384.496	80.005	19.995	100.386	19.994	4.025	0.506
618.000	385.524	80.004	19.996	100.384	19.992	4.196	0.497
620.000	386.536	80.003	19.999	100.410	19.988	4.475	0.507
622.000	387.576	80.003	19.995	100.392	19.987	4.523	0.521
624.000	388.574	80.004	19.994	100.399	19.982	4.869	0.501
626.000	389.586	80.004	19.997	100.396	19.977	5.229	0.494
628.000	390.604	80.003	19.997	100.390	19.973	5.512	0.515
630.000	391.626	80.004	19.996	100.386	19.973	5.535	0.511
632.000	392.638	80.005	19.997	100.383	19.968	5.916	0.507
634.000	393.660	80.005	19.996	100.380	19.962	6.285	0.499
636.000	394.703	80.004	19.996	100.397	19.957	6.688	0.505
638.000	395.721	80.006	19.995	100.403	19.952	7.003	0.519
640.000	396.743	80.004	19.995	100.414	19.948	7.322	0.522
642.000	397.740	80.005	19.995	100.388	19.938	7.979	0.498
644.000	398.798	80.005	19.996	100.383	19.928	8.682	0.518
646.000	399.802	80.004	19.994	100.381	19.921	9.214	0.516
648.000	400.806	80.003	19.993	100.379	19.913	9.765	0.479
650.000	401.798	80.004	19.995	100.380	19.906	10.261	0.502
652.000	402.823	80.004	19.995	100.378	19.897	10.860	0.502
654.000	403.864	80.007	19.994	100.377	19.885	11.746	0.504
656.000	404.832	80.006	19.994	100.378	19.880	12.101	0.490
658.000	405.842	80.005	19.996	100.383	19.875	12.414	0.498
660.000	406.815	80.006	19.996	100.385	19.868	12.892	0.503
662.000	407.783	80.007	19.996	100.386	19.860	13.468	0.446
664.000	408.840	80.006	19.997	100.385	19.852	14.032	0.512
666.000	409.792	80.006	19.995	100.379	19.845	14.509	0.491
668.000	410.823	80.007	19.997	100.376	19.835	15.266	0.486
670.000	411.821	80.005	19.995	100.374	19.826	15.863	0.480
672.000	412.792	80.005	19.995	100.369	19.816	16.548	0.475
674.000	413.785	80.006	19.995	100.373	19.806	17.301	0.497
676.000	414.782	80.006	19.995	100.374	19.794	18.159	0.482
678.000	415.764	80.006	19.994	100.370	19.787	18.623	0.489
680.000	416.767	80.007	19.997	100.374	19.768	19.966	0.492
682.000	417.711	80.009	19.995	100.368	19.754	20.935	0.472
684.000	418.735	80.005	19.997	100.369	19.741	21.838	0.506
686.000	419.727	80.008	19.995	100.359	19.719	23.434	0.495
688.000	420.729	80.007	19.995	100.355	19.702	24.590	0.527
690.000	421.707	80.007	19.994	100.357	19.680	26.145	0.475
692.000	422.728	80.006	19.995	100.364	19.660	27.585	0.528
694.000	423.737	80.006	19.995	100.365	19.641	28.909	0.515
696.000	424.734	80.006	19.996	100.342	19.618	30.483	0.507
698.000	425.721	80.004	19.997	100.341	19.598	31.896	0.493
700.000	426.720	80.004	19.996	100.361	19.571	33.825	0.472
702.000	427.712	80.004	19.995	100.362	19.543	35.760	0.525
704.000	428.727	80.005	19.996	100.354	19.512	37.971	0.495
706.000	429.717	80.005	19.996	100.348	19.480	40.196	0.530
708.000	430.738	80.004	19.995	100.346	19.450	42.307	0.509
710.000	431.720	80.005	19.996	100.341	19.417	44.626	0.506
712.000	432.754	80.004	19.995	100.342	19.377	47.455	0.537
714.000	433.779	80.005	19.995	100.341	19.331	50.665	0.511
716.000	434.802	80.004	19.996	100.338	19.284	53.970	0.492
718.000	435.791	80.006	19.999	100.339	19.231	57.723	0.486
720.000	436.836	80.005	19.997	100.338	19.174	61.724	0.539
722.000	437.851	80.005	19.997	100.334	19.122	65.349	0.488
724.000	438.875	80.004	19.996	100.321	19.064	69.479	0.522
726.000	439.886	80.005	19.996	100.313	18.999	74.047	0.533
728.000	440.833	80.004	19.996	100.317	18.933	78.617	0.487
730.000	441.837	80.005	19.997	100.311	18.864	83.506	0.501
732.001	442.844	80.003	19.996	100.294	18.784	89.086	0.516
734.000	443.836	80.004	19.995	100.291	18.705	94.662	0.506
736.000	444.906	80.004	19.994	100.300	18.617	100.824	0.540
738.000	445.888	80.006	19.994	100.292	18.535	106.619	0.490
740.000	446.867	80.006	19.995	100.265	18.438	113.370	0.500
742.000	447.851	80.006	19.995	100.259	18.345	119.961	0.478
744.000	448.899	80.007	19.995	100.255	18.246	126.851	0.525
746.000	449.875	80.007	19.996	100.251	18.140	134.267	0.482
748.000	450.862	80.007	19.995	100.251	18.026	142.285	0.523
750.000	451.869	80.005	19.995	100.226	17.909	150.458	0.509
752.000	452.894	80.005	19.996	100.226	17.774	159.886	0.493
754.000	453.876	80.005	19.995	100.220	17.642	169.157	0.515
756.000	454.868	80.004	19.995	100.194	17.503	178.829	0.487
758.000	455.904	80.005	19.995	100.187	17.352	189.420	0.548
760.000	456.887	80.006	19.997	100.165	17.192	200.550	0.493
762.000	457.849	80.007	19.994	100.135	17.028	212.102	0.479
764.000	458.871	80.007	19.997	100.125	16.857	224.014	0.479
766.000	459.846	80.008	19.995	100.115	16.676	236.641	0.486
768.000	460.863	80.007	19.996	100.070	16.495	249.286	0.482
770.000	461.912	80.006	19.994	100.047	16.302	262.712	0.522
772.000	462.884	80.007	19.994	100.040	16.103	276.612	0.473
774.000	463.874	80.007	19.991	100.034	15.891	291.304	0.500
776.000	464.854	80.006	19.994	99.998	15.677	306.254	0.492
778.000	465.805	80.006	19.995	99.993	15.452	321.869	0.483
780.000	466.858	80.006	19.997	99.945	15.232	337.164	0.514
782.000	467.842	80.005	19.997	99.910	15.005	352.897	0.490
784.000	468.790	80.005	19.996	99.874	14.773	368.970	0.454
786.000	469.842	80.004	19.996	99.857	14.555	384.080	0.515
788.000	470.848	80.004	19.997	99.827	14.330	400.068	0.489
790.000	471.832	80.004	19.997	99.804	14.104	415.390	0.486
792.000	472.835	80.007	19.997	99.767	13.876	431.047	0.486
794.000	473.895	80.006	19.997	99.714	13.647	446.767	0.542
796.000	474.853	80.005	19.996	99.667	13.422	462.360	0.514
798.000	475.896	80.006	19.996	99.710	13.209	476.990	0.508
800.000	476.896	80.005	19.996	99.708	13.009	490.798	0.511
802.000	477.889	80.005	19.996	99.574	12.821	503.873	0.507
804.000	478.936	80.004	19.997	99.528	12.652	515.500	0.535
806.000	479.924	80.004	19.996	99.480	12.509	525.142	0.505
808.000	480.964	80.004	19.997	99.450	12.394	532.909	0.507
810.000	481.992	80.005	19.995	99.404	12.299	539.422	0.523
812.000	483.014	80.005	19.996	99.405	12.233	543.969	0.516
814.000	484.034	80.004	19.996	99.373	12.202	546.230	0.523
816.000	485.044	80.004	19.996	99.339	12.217	545.235	0.513
818.000	486.069	80.005	19.997	99.278	12.293	540.126	0.523
820.001	487.095	80.004	19.996	99.242	12.426	530.647	0.511
822.000	488.132	80.006	19.997	99.240	12.613	518.080	0.503
824.000	489.221	80.005	19.996	99.238	12.849	501.969	0.514
826.000	490.230	80.006	19.995	99.260	13.138	482.196	0.499
828.000	491.261	80.006	19.996	99.269	13.484	458.369	0.526
830.000	492.297	80.008	19.995	99.294	13.871	431.575	0.521
832.000	493.363	80.006	19.995	99.253	14.296	401.982	0.532
834.000	494.432	80.006	19.995	99.376	14.770	367.673	0.519
836.000	495.505	80.005	19.996	99.438	15.286	332.553	0.534
838.000	496.542	80.006	19.996	99.512	15.810	296.761	0.518
840.000	497.633	80.006	19.996	99.561	16.344	259.572	0.549
842.000	498.677	80.005	19.995	99.611	16.869	222.893	0.551
844.000	499.728	80.007	19.996	99.451	17.364	188.501	0.522
846.000	500.816	80.007	19.995	99.328	17.824	156.390	0.538
848.000	501.888	80.008	19.995	99.697	18.237	127.446	0.560
850.000	502.915	80.008	19.995	99.827	18.605	101.653	0.506
852.000	503.942	80.007	19.995	99.893	18.917	79.725	0.545
854.001	504.984	80.008	19.994	99.946	19.179	61.371	0.501
856.000	506.032	80.007	19.995	100.102	19.395	46.167	0.518
858.000	507.057	80.006	19.995	100.167	19.567	34.082	0.507
860.000	508.062	80.006	19.995	100.217	19.703	24.506	0.531
862.000	509.069	80.005	19.995	100.242	19.805	17.305	0.481
864.000	510.104	80.006	19.996	100.249	19.876	12.374	0.530
866.000	511.148	80.006	19.995	100.263	19.929	8.616	0.523
868.000	512.118	80.004	19.995	100.271	19.962	6.319	0.487
870.000	513.142	80.005	19.995	100.284	19.983	4.818	0.488
872.000	514.169	80.005	19.995	100.268	20.001	3.546	0.512
874.000	515.204	80.006	19.996	100.263	20.014	2.664	0.505
876.000	516.257	80.005	19.996	100.284	20.021	2.154	0.521
878.000	517.267	80.007	19.996	100.305	20.029	1.606	0.509
880.000	518.299	80.006	19.996	100.318	20.028	1.635	0.506
882.000	519.308	80.005	19.996	100.326	20.035	1.146	0.503
884.000	520.294	80.004	19.996	100.324	20.037	1.039	0.506
886.000	521.362	80.004	19.996	100.334	20.040	0.852	0.505
888.000	522.378	80.005	19.996	100.340	20.040	0.795	0.499
890.000	523.398	80.005	19.997	100.344	20.038	0.930	0.520
892.000	524.394	80.005	19.996	100.339	20.040	0.783	0.505
894.000	525.409	80.004	19.996	100.349	20.040	0.842	0.508
896.000	526.418	80.005	19.996	100.353	20.044	0.510	0.466
898.000	527.429	80.004	19.997	100.346	20.045	0.455	0.503
900.000	528.448	80.005	19.997	100.349	20.045	0.451	0.514
902.000	529.474	80.004	19.997	100.345	20.041	0.747	0.503
904.000	530.450	80.004	19.996	100.347	20.040	0.816	0.488
906.000	531.505	80.006	19.997	100.345	20.043	0.581	0.520
908.000	532.497	80.006	19.997	100.346	20.044	0.558	0.507
910.000	533.486	80.005	19.997	100.356	20.043	0.588	0.477
912.000	534.459	80.005	19.997	100.363	20.042	0.650	0.480
914.000	535.507	80.006	19.997	100.358	20.045	0.501	0.495
916.000	536.516	80.005	19.997	100.369	20.048	0.225	0.509
918.000	537.508	80.004	19.996	100.367	20.049	0.216	0.506
920.000	538.509	80.007	19.996	100.368	20.047	0.292	0.490
922.000	539.498	80.007	19.996	100.371	20.046	0.373	0.510
924.000	540.534	80.006	19.995	100.369	20.049	0.176	0.507
926.000	541.482	80.007	19.996	100.359	20.049	0.201	0.463
928.000	542.518	80.006	19.996	100.356	20.046	0.394	0.514
930.000	543.518	80.006	19.997	100.357	20.047	0.336	0.512
932.000	544.542	80.007	19.996	100.360	20.049	0.172	0.529
934.000	545.515	80.009	19.995	100.351	20.048	0.258	0.499
936.000	546.529	80.008	19.996	100.358	20.047	0.332	0.526
938.000	547.528	80.006	19.994	100.358	20.048	0.256	0.498
940.000	548.546	80.008	19.995	100.354	20.045	0.434	0.535
942.000	549.501	80.006	19.996	100.360	20.048	0.283	0.486
944.000	550.549	80.004	19.996	100.350	20.045	0.470	0.519
946.000	551.557	80.005	19.994	100.370	20.047	0.292	0.516
948.000	552.553	80.005	19.996	100.373	20.046	0.415	0.496
950.000	553.551	80.004	19.996	100.360	20.045	0.464	0.510
952.000	554.593	80.005	19.996	100.367	20.047	0.332	0.521
954.000	555.620	80.006	19.996	100.367	20.048	0.231	0.486
956.000	556.612	80.006	19.995	100.379	20.051	0.075	0.502
958.000	557.615	80.006	19.995	100.376	20.053	-0.069	0.493
960.000	558.661	80.005	19.995	100.378	20.053	-0.103	0.554
962.000	559.627	80.006	19.996	100.368	20.050	0.105	0.484
964.000	560.657	80.006	19.995	100.378	20.049	0.176	0.501
966.000	561.724	80.004	19.994	100.383	20.051	0.057	0.540
968.000	562.732	80.004	19.995	100.380	20.053	-0.120	0.543
970.000	563.778	80.004	19.996	100.378	20.048	0.269	0.525
972.000	564.774	80.005	19.995	100.379	20.048	0.220	0.495
974.000	565.815	80.003	19.996	100.376	20.047	0.342	0.515
976.000	566.818	80.004	19.996	100.375	20.052	-0.025	0.493
978.000	567.850	80.005	19.996	100.366	20.053	-0.092	0.515
980.000	568.900	80.004	19.996	100.367	20.050	0.130	0.508
982.000	569.933	80.005	19.996	100.359	20.052	-0.055	0.541
984.000	570.911	80.007	19.996	100.365	20.055	-0.231	0.465
986.000	571.863	80.006	19.995	100.366	20.055	-0.218	0.488
988.000	572.895	80.005	19.996	100.366	20.050	0.143	0.485
990.000	573.975	80.008	19.996	100.369	20.052	-0.044	0.551
992.000	574.997	80.007	19.996	100.375	20.057	-0.403	0.505
994.000	576.000	80.007	19.996	100.372	20.055	-0.210	0.486
996.000	577.012	80.006	19.996	100.372	20.053	-0.128	0.507
998.000	578.026	80.007	19.997	100.374	20.055	-0.271	0.486
1000.000	579.024	80.007	19.997	100.374	20.053	-0.124	0.488
1002.000	579.994	80.006	19.997	100.374	20.053	-0.132	0.493
1004.000	580.987	80.006	19.997	100.374	20.053	-0.076	0.508
1006.000	581.967	80.006	19.997	100.369	20.053	-0.094	0.503
1008.000	582.979	80.006	19.996	100.360	20.055	-0.245	0.502
1010.000	584.005	80.007	19.996	100.369	20.055	-0.250	0.508
1012.000	584.953	80.008	19.997	100.375	20.053	-0.128	0.483
1014.000	585.966	80.008	19.996	100.378	20.055	-0.205	0.486
1016.000	586.950	80.009	19.995	100.376	20.054	-0.164	0.511
1018.000	587.949	80.007	19.996	100.376	20.052	-0.025	0.506
1020.000	588.976	80.009	19.996	100.379	20.057	-0.390	0.522
1022.000	589.977	80.008	19.995	100.401	20.053	-0.088	0.516
1024.000	590.987	80.006	19.996	100.415	20.052	-0.029	0.538
1026.000	591.953	80.006	19.995	100.400	20.049	0.151	0.498
1028.000	592.994	80.006	19.995	100.392	20.053	-0.063	0.537
1030.000	594.023	80.005	19.995	100.384	20.052	0.002	0.537
1032.000	595.052	80.005	19.995	100.384	20.052	-0.054	0.515
1034.000	596.129	80.006	19.996	100.394	20.050	0.117	0.553
1036.001	597.119	80.006	19.995	100.393	20.052	-0.034	0.512
1038.000	598.170	80.005	19.996	100.375	20.053	-0.063	0.562
1040.000	599.195	80.006	19.995	100.384	20.051	0.065	0.513
1042.000	600.243	80.006	19.996	100.384	20.052	-0.038	0.511
1044.000	601.327	80.006	19.995	100.392	20.052	-0.023	0.530
1046.001	602.388	80.006	19.996	100.398	20.053	-0.092	0.543
1048.000	603.423	80.005	19.996	100.383	20.052	-0.004	0.515
1050.000	604.479	80.007	19.995	100.388	20.047	0.323	0.531
1052.001	605.546	80.007	19.997	100.400	20.043	0.623	0.523
1054.001	606.577	80.006	19.995	100.409	20.045	0.453	0.530
1056.000	607.660	80.006	19.996	100.397	20.046	0.399	0.551
1058.001	608.707	80.006	19.996	100.415	20.045	0.474	0.549
1060.001	609.733	80.005	19.996	100.416	20.047	0.348	0.540
1062.000	610.733	80.005	19.995	100.421	20.048	0.239	0.511
1064.000	611.757	80.005	19.996	100.417	20.046	0.378	0.506
1066.000	612.798	80.006	19.996	100.415	20.048	0.260	0.534
1068.000	613.846	80.008	19.996	100.411	20.048	0.243	0.523
1070.000	614.872	80.008	19.994	100.411	20.047	0.300	0.504
1072.001	615.938	80.007	19.996	100.414	20.045	0.474	0.516
1074.000	616.954	80.007	19.996	100.417	20.048	0.260	0.524
1076.001	618.002	80.007	19.997	100.410	20.045	0.436	0.523
1078.001	618.996	80.007	19.996	100.422	20.048	0.254	0.518
1080.001	620.077	80.006	19.995	100.424	20.041	0.769	0.527
1082.001	621.108	80.006	19.995	100.419	20.043	0.598	0.531
1084.001	622.128	80.006	19.995	100.420	20.040	0.822	0.526
1086.000	623.129	80.007	19.995	100.422	20.038	0.971	0.497
1088.000	624.209	80.006	19.996	100.435	20.044	0.556	0.550
1090.001	625.235	80.008	19.995	100.451	20.043	0.610	0.515
1092.000	626.242	80.006	19.996	100.430	20.044	0.509	0.503
1094.001	627.293	80.007	19.996	100.425	20.041	0.771	0.498
1096.001	628.348	80.008	19.996	100.439	20.044	0.505	0.536
1098.001	629.357	80.008	19.996	100.430	20.044	0.554	0.504
1100.001	630.371	80.008	19.995	100.435	20.044	0.568	0.514
1102.001	631.438	80.007	19.996	100.436	20.043	0.639	0.523
1104.000	632.487	80.006	19.995	100.446	20.041	0.761	0.510
1106.000	633.487	80.006	19.996	100.447	20.041	0.778	0.498
1108.001	634.531	80.005	19.996	100.417	20.041	0.736	0.528
1110.001	635.580	80.006	19.996	100.436	20.040	0.795	0.528
1112.000	636.628	80.006	19.996	100.448	20.036	1.088	0.509
1114.001	637.647	80.006	19.995	100.452	20.036	1.123	0.511
1116.000	638.677	80.006	19.995	100.453	20.039	0.870	0.508
1118.000	639.691	80.006	19.995	100.454	20.040	0.792	0.481
1120.000	640.709	80.006	19.996	100.454	20.039	0.857	0.521
1122.000	641.743	80.007	19.995	100.454	20.038	0.977	0.514
1124.000	642.756	80.006	19.996	100.465	20.038	0.983	0.501
1126.000	643.709	80.005	19.995	100.463	20.035	1.150	0.475
1128.000	644.739	80.007	19.995	100.458	20.036	1.081	0.508
1130.001	645.732	80.008	19.995	100.455	20.038	0.989	0.515
1132.000	646.740	80.006	19.995	100.458	20.035	1.142	0.511
1134.001	647.722	80.004	19.996	100.460	20.032	1.358	0.503
1136.001	648.745	80.006	19.995	100.468	20.034	1.241	0.524
1138.000	649.752	80.006	19.997	100.492	20.034	1.245	0.495
1140.000	650.746	80.005	19.996	100.489	20.037	1.048	0.449
1142.000	651.753	80.005	19.996	100.487	20.037	1.044	0.525
1144.001	652.775	80.004	19.995	100.463	20.037	1.046	0.496
1146.000	653.793	80.005	19.995	100.488	20.035	1.192	0.509
1148.000	654.785	80.005	19.996	100.491	20.032	1.379	0.500
1150.000	655.807	80.006	19.995	100.496	20.035	1.180	0.511
1152.000	656.804	80.006	19.995	100.495	20.038	0.930	0.491
1154.000	657.774	80.009	19.995	100.495	20.034	1.266	0.503
1156.000	658.807	80.007	19.995	100.495	20.028	1.660	0.493
1158.001	659.811	80.007	19.996	100.494	20.028	1.689	0.476
1160.001	660.799	80.006	19.996	100.499	20.027	1.737	0.490
1162.000	661.765	80.004	19.995	100.494	20.024	1.957	0.511
1164.000	662.764	80.006	19.996	100.494	20.027	1.737	0.485
1166.000	663.814	80.006	19.996	100.497	20.026	1.785	0.532
1168.000	664.757	80.007	19.995	100.497	20.024	1.921	0.457
1170.000	665.734	80.006	19.996	100.511	20.027	1.747	0.478
1172.000	666.714	80.007	19.996	100.500	20.024	1.975	0.493
1174.000	667.664	80.008	19.996	100.502	20.024	1.927	0.487
1176.000	668.625	80.008	19.996	100.519	20.028	1.661	0.468
1178.001	669.645	80.008	19.995	100.501	20.022	2.086	0.474
1180.000	670.663	80.010	19.996	100.506	20.029	1.629	0.512
1182.000	671.670	80.008	19.995	100.523	20.026	1.795	0.501
1184.000	672.692	80.009	19.996	100.522	20.023	2.004	0.549
1186.001	673.673	80.006	19.996	100.523	20.027	1.734	0.493
1188.000	674.738	80.006	19.997	100.530	20.024	1.935	0.543
1190.000	675.772	80.003	19.998	100.530	20.025	1.845	0.533
1192.000	676.782	80.005	19.998	100.532	20.027	1.738	0.501
1194.001	677.766	80.005	19.998	100.530	20.023	2.000	0.515
1196.000	678.834	80.005	19.998	100.529	20.022	2.102	0.506
1198.000	679.833	80.006	19.997	100.530	20.022	2.123	0.510
1200.001	680.883	80.007	19.996	100.528	20.018	2.368	0.506
1202.000	681.880	80.007	19.997	100.530	20.020	2.200	0.528
1204.000	682.930	80.007	19.995	100.535	20.017	2.427	0.529
1206.000	683.982	80.007	19.997	100.549	20.018	2.351	0.527
1208.000	685.006	80.006	19.996	100.553	20.021	2.142	0.526
1210.000	686.054	80.005	19.996	100.564	20.019	2.270	0.535
1212.001	687.063	80.006	19.995	100.568	20.020	2.234	0.489
1214.000	688.138	80.006	19.995	100.570	20.018	2.399	0.514
1216.000	689.230	80.006	19.995	100.571	20.020	2.253	0.559
1218.000	690.260	80.005	19.995	100.572	20.016	2.510	0.510
1220.001	691.348	80.005	19.996	100.569	20.018	2.345	0.526
1222.000	692.404	80.005	19.996	100.569	20.014	2.630	0.518
1224.001	693.421	80.005	19.995	100.564	20.016	2.518	0.516
1226.000	694.496	80.005	19.996	100.568	20.017	2.425	0.503
1228.001	695.540	80.004	19.996	100.573	20.016	2.487	0.534
1230.000	696.566	80.006	19.996	100.571	20.019	2.334	0.502
1232.000	697.581	80.006	19.995	100.568	20.014	2.642	0.494
1234.000	698.610	80.007	19.995	100.572	20.013	2.715	0.505
1236.000	699.590	80.007	19.995	100.574	20.014	2.625	0.498
1238.000	700.628	80.008	19.995	100.559	20.015	2.586	0.529
1240.000	701.627	80.008	19.996	100.569	20.017	2.458	0.575
1242.000	702.612	80.009	19.995	100.571	20.016	2.525	0.448
1244.001	703.644	80.008	19.994	100.572	20.019	2.292	0.488
1246.000	704.618	80.006	19.997	100.571	20.018	2.353	0.469
1248.000	705.612	80.007	19.995	100.570	20.015	2.583	0.501
1250.000	706.619	80.007	19.995	100.571	20.014	2.627	0.492
1252.000	707.618	80.007	19.996	100.571	20.014	2.648	0.523
1254.000	708.652	80.006	19.995	100.570	20.014	2.682	0.514
1256.000	709.578	80.007	19.996	100.570	20.014	2.682	0.487
1258.001	710.634	80.007	19.995	100.572	20.014	2.676	0.503
1260.000	711.602	80.008	19.997	100.574	20.016	2.518	0.495
1262.000	712.592	80.009	19.997	100.571	20.014	2.669	0.516
1264.000	713.557	80.008	19.997	100.575	20.013	2.740	0.498
1266.000	714.559	80.008	19.996	100.573	20.013	2.731	0.495
1268.000	715.540	80.007	19.996	100.577	20.016	2.513	0.488
1270.000	716.574	80.007	19.995	100.580	20.006	3.230	0.512
1272.001	717.604	80.005	19.995	100.585	20.013	2.754	0.530
1274.000	718.596	80.005	19.995	100.591	20.013	2.754	0.501
1276.000	719.548	80.005	19.995	100.611	20.013	2.721	0.473
1278.001	720.531	80.005	19.996	100.610	20.010	2.944	0.488
1280.000	721.449	80.005	19.996	100.595	20.008	3.068	0.489
1282.000	722.474	80.004	19.998	100.592	20.008	3.104	0.492
1284.000	723.435	80.006	19.998	100.606	20.011	2.892	0.488
1286.000	724.459	80.004	19.997	100.612	20.011	2.877	0.502
1288.000	725.453	80.006	19.997	100.611	20.010	2.946	0.523
1290.000	726.430	80.005	19.997	100.612	20.007	3.131	0.512
1292.000	727.429	80.003	19.997	100.612	20.010	2.946	0.502
1294.000	728.427	80.007	19.998	100.612	20.003	3.421	0.495
1296.000	729.438	80.005	19.997	100.609	20.007	3.175	0.506
1298.000	730.420	80.005	19.997	100.614	20.007	3.128	0.488
1300.000	731.446	80.005	19.995	100.614	20.009	2.983	0.524
1302.001	732.416	80.005	19.995	100.613	20.007	3.160	0.521
1304.000	733.375	80.005	19.994	100.612	20.006	3.187	0.460
1306.001	734.401	80.006	19.996	100.611	20.007	3.130	0.528
1308.000	735.374	80.007	19.995	100.613	20.006	3.203	0.508
1310.000	736.340	80.005	19.995	100.628	20.003	3.407	0.497
1312.001	737.344	80.007	19.996	100.624	20.005	3.291	0.489
1314.001	738.310	80.008	19.996	100.626	20.007	3.162	0.489
1316.001	739.337	80.006	19.996	100.613	20.007	3.172	0.488
1318.001	740.309	80.007	19.996	100.621	20.002	3.472	0.494
1320.000	741.296	80.007	19.996	100.619	20.007	3.114	0.474
1322.001	742.286	80.007	19.995	100.619	20.008	3.078	0.486
1324.000	743.269	80.007	19.995	100.615	20.008	3.086	0.484
1324.500	743.508	80.007	19.997	100.613	20.006	3.243	0.477