File: 01_Data/XPS_Foam_Board/Cone/XPS_Foam_Insulation_Cone_HF50Scan_220412_R2.csv
Names,Time,Stack TC,Smoke TC,Exh Press,Smoke Comp,Smoke Meas,CO Meter,CO2 Meter,O2 Meter,Sample Mass,Ext Coeff,Start Test,Flame Verif
Chan Gain,,500,500,1,1,1,1,1,1,1,1,1.0,1.0
Offset,,0,0,0.134314,0,0,0,0,0,0,0,0.0,0.0
Gain,,1,1,25.011,13.1473,13.6402,1,1,1,1.00092,1.00708,1.0,1.0
Units,sec,C,C,Pa,%,%,%,%,%,g,/m,,
Baseline,,31.4455,32.361,150.663,98.685,93.2814,0.000562546,0.0458722,21.0244,-834.271,0.49748,,
2,0.25,30.6483,31.6504,148.331,99.4262,93.9317,0.000841775,0.056624,21.0121,-330.803,0.502196,0.0,0.0
4,0.75,30.2302,31.3347,150.847,99.4367,93.5363,0.000792618,0.0562996,21.0127,-330.863,0.540393,0.0,0.0
6,1.25,30.5484,31.4935,151.057,99.4351,93.4588,0.000738996,0.0555041,21.0136,-330.893,0.547566,0.0,0.0
8,1.75,29.9952,31.0986,151.671,99.4278,93.4422,0.000686621,0.0548597,21.0144,-330.933,0.548499,0.0,0.0
10,2.25,29.996,31.0391,146.57,99.4174,93.2744,0.000636148,0.0541941,21.015,-330.943,0.563445,0.0,0.0
12,2.75,30.208,31.2403,149.99,99.4238,93.0946,0.000595266,0.0535256,21.0155,-330.973,0.581063,0.0,0.0
14,3.25,29.9481,31.1969,150.421,99.4146,92.6255,0.000562151,0.0528908,21.0163,-330.973,0.624873,0.0,0.0
16,3.75,29.7031,30.9025,152.977,99.4074,93.3935,0.000539799,0.0522926,21.017,-330.983,0.551285,0.0,0.0
18,4.25,29.5977,30.5252,147.746,99.3977,92.6684,0.000525717,0.0518081,21.0178,-331.033,0.619287,0.0,0.0
20,4.75,30.3432,31.5497,150.029,99.403,92.4923,0.000514311,0.0513747,21.0187,-331.053,0.636553,0.0,0.0
22,5.25,29.6509,30.8294,147.954,99.4022,91.5544,0.000505072,0.0510236,21.0194,-331.073,0.726513,0.0,0.0
24,5.75,30.1442,30.9046,150.622,99.3957,91.0258,0.000506084,0.0506302,21.0199,-331.103,0.7771,0.0,0.0
26,6.25,30.3821,31.3332,148.381,99.3893,90.672,0.000506903,0.0503115,21.0204,-331.123,0.810934,0.0,0.0
28,6.75,30.0915,31.2936,149.465,99.3913,90.0946,0.000517279,0.049917,21.021,-331.143,0.867544,0.0,0.0
30,7.25,30.4487,30.9731,146.778,99.3729,90.597,0.000525683,0.0495974,21.0216,-331.173,0.816775,0.0,0.0
32,7.75,30.512,31.4839,150.954,99.3725,89.543,0.000555568,0.0492453,21.0222,-331.153,0.920115,0.0,0.0
34,8.25,30.7325,31.6082,149.859,99.3697,89.1422,0.000579774,0.0488762,21.0227,-331.193,0.959502,0.0,0.0
36,8.75,30.5666,31.3644,147.673,99.3705,88.7284,0.000621257,0.0485772,21.023,-331.253,1.00067,0.0,0.0
38,9.25,30.0921,31.2432,153.642,99.362,88.6102,0.000654858,0.0482396,21.0233,-331.223,1.0117,0.0,0.0
40,9.75,30.5268,31.1428,150.881,99.3508,89.2741,0.000699098,0.0479662,21.0233,-331.213,0.944758,0.0,0.0
42,10.25,30.4592,31.5138,149.738,99.35,89.1031,0.000734933,0.0477038,21.0231,-331.243,0.961632,0.0,0.0
44,10.75,30.4879,31.538,152.756,99.3348,88.4191,0.00076652,0.0474913,21.023,-331.243,1.02835,0.0,0.0
46,11.25,30.2632,31.6497,147.278,99.3384,88.2272,0.000794409,0.0472977,21.0224,-331.263,1.04786,0.0,0.0
48,11.75,30.1188,31.1466,151.008,99.3199,88.9261,0.000817,0.0471215,21.0219,-331.263,0.976514,0.0,0.0
50,12.25,30.2423,31.243,150.507,99.3119,88.8982,0.000880856,0.0470289,21.0216,-331.273,0.97857,0.0,0.0
52,12.75,30.5788,31.6049,148.087,99.3007,88.3654,0.000973581,0.0469992,21.0206,-331.273,1.03068,0.0,0.0
54,13.25,30.1604,31.7394,149.084,99.2999,87.791,0.00115357,0.0472692,21.0199,-331.273,1.08822,0.0,0.0
56,13.75,30.7706,31.349,149.242,99.3087,88.8591,0.00139376,0.0477528,21.0175,-331.283,0.982175,0.0,0.0
58,14.25,30.6766,31.7656,146.86,99.2882,87.6619,0.00177503,0.0481445,21.0156,-331.323,1.10018,0.0,0.0
60,14.75,30.6917,31.7341,148.309,99.2702,88.5203,0.00225189,0.0540446,21.0066,-331.514,1.0125,0.0,0.0
62,15.25,31.0782,31.5002,144.621,99.2682,88.1032,0.00263815,0.0588238,20.9992,-331.504,1.05404,0.0,0.0
64,15.75,30.7805,31.2912,144.486,99.2569,89.9314,0.00353217,0.0701188,20.9681,-331.504,0.871604,0.0,1.0
66,16.25,30.5591,31.7951,143.473,99.2553,84.5612,0.00425633,0.0859493,20.943,-331.514,1.41539,0.0,1.0
68,16.75,30.5194,31.3863,142.312,99.2509,77.0197,0.00540361,0.106341,20.9095,-331.644,2.24022,0.0,1.0
70,17.25,30.5569,32.2779,134.577,99.2429,71.1308,0.0063329,0.129671,20.8708,-331.634,2.94217,0.0,1.0
72,17.75,31.4166,32.4839,137.002,99.2268,63.9453,0.00763243,0.148568,20.8289,-331.674,3.8815,0.0,1.0
74,18.25,31.2844,31.8339,131.872,99.2312,55.5842,0.00913379,0.178474,20.7856,-331.744,5.1198,0.0,1.0
76,18.75,32.087,32.7621,137.773,99.1907,59.8218,0.00990885,0.202698,20.7505,-331.784,4.46715,0.0,1.0
78,19.25,31.8457,32.5089,140.556,99.2112,66.8799,0.0112342,0.232497,20.7062,-331.814,3.48371,0.0,1.0
80,19.75,32.1075,32.7451,140.473,99.2156,61.1018,0.0125625,0.256635,20.6703,-331.904,4.28233,0.0,1.0
82,20.25,32.3055,32.6219,133.418,99.1983,53.2922,0.0138678,0.284502,20.6412,-331.914,5.48885,0.0,1.0
84,20.75,32.7117,32.5063,130.667,99.1735,52.4676,0.014925,0.307074,20.6112,-331.954,5.6244,0.0,1.0
86,21.25,32.8963,33.5751,136.792,99.1807,56.9346,0.0157814,0.340215,20.581,-332.004,4.90325,0.0,1.0
88,21.75,33.6204,33.4422,136.596,99.1582,61.3894,0.0170337,0.350242,20.5549,-332.064,4.23574,0.0,0.0
90,22.25,34.0086,34.6853,136.812,99.1462,57.176,0.018551,0.372749,20.5324,-332.164,4.86279,0.0,0.0
92,22.75,33.9834,35.0504,124.027,99.1245,52.0493,0.0206341,0.395806,20.5031,-332.214,5.69076,0.0,0.0
94,23.25,34.7321,34.9401,129.523,99.1277,50.6044,0.0223214,0.414481,20.4693,-332.264,5.93974,0.0,0.0
96,23.75,35.2247,35.7004,121.931,99.1101,42.292,0.0242552,0.429609,20.4246,-332.354,7.52335,0.0,0.0
98,24.25,35.3013,36.0801,127.685,99.1133,43.587,0.0263319,0.468964,20.3726,-332.444,7.25719,0.0,0.0
100,24.75,35.5445,35.8538,127.642,99.1057,40.5562,0.0287649,0.500841,20.3305,-332.514,7.89319,0.0,0.0
102,25.25,36.6485,37.0338,120.92,99.0936,37.741,0.0314115,0.542288,20.2354,-332.655,8.52765,0.0,0.0
104,25.75,36.7844,37.5741,118.505,99.0675,40.1258,0.0335552,0.589924,20.1584,-332.765,7.98404,0.0,0.0
106,26.25,37.0624,38.0966,109.359,99.0704,38.2085,0.0365449,0.643069,20.096,-332.885,8.41682,0.0,0.0
108,26.75,38.6564,38.9337,111.243,99.0455,36.9301,0.0400945,0.699222,20.003,-333.005,8.71523,0.0,0.0
110,27.25,40.0227,40.0063,112.352,99.0387,34.3331,0.0438015,0.76156,19.9277,-333.095,9.35879,0.0,0.0
112,27.75,40.6769,40.8139,101.461,99.0206,30.7619,0.0475526,0.827223,19.8203,-333.215,10.3274,0.0,0.0
114,28.25,42.029,41.5206,112.384,99.009,29.0994,0.0505911,0.880409,19.7333,-333.395,10.8172,0.0,0.0
116,28.75,42.0652,42.6685,97.7265,98.9985,29.5148,0.0547067,0.946726,19.6317,-333.465,10.6911,0.0,0.0
118,29.25,44.7478,44.2492,103.527,99.0037,28.1724,0.0580403,1.02135,19.5213,-333.676,11.1028,0.0,0.0
120,29.75,45.473,45.4612,109.394,98.9684,32.1752,0.062462,1.10403,19.3951,-333.776,9.92598,0.0,0.0
122,30.25,46.4867,47.0243,104.861,98.968,26.1693,0.0660436,1.19101,19.2598,-333.926,11.7511,0.0,0.0
124,30.75,47.7624,48.427,104.73,98.9444,27.7082,0.0703383,1.26146,19.1265,-334.106,11.2442,0.0,0.0
126,31.25,48.0467,50.6199,90.2327,98.944,24.9988,0.0738169,1.35103,18.9971,-334.236,12.1532,0.0,0.0
128,31.75,50.743,51.604,95.1787,98.9223,26.2821,0.0776807,1.42359,18.8707,-334.446,11.709,0.0,0.0
130,32.25,52.1673,53.4716,105.479,98.9195,23.8032,0.0793278,1.51146,18.8066,-334.566,12.5839,0.0,0.0
132,32.75,53.9841,54.9247,93.3942,98.9175,25.8142,0.0821445,1.58263,18.6969,-334.707,11.8673,0.0,0.0
134,33.25,55.7964,56.9332,92.4767,98.9271,26.0944,0.0848179,1.64908,18.6081,-334.877,11.7728,0.0,0.0
136,33.75,57.3504,58.7645,90.6632,98.9227,23.6584,0.087336,1.71082,18.5313,-335.047,12.6382,0.0,0.0
138,34.25,59.3768,61.1368,102.791,98.9331,25.6977,0.0892911,1.76175,18.469,-335.167,11.9087,0.0,0.0
140,34.75,61.0907,62.7717,92.6828,98.9279,23.5893,0.0907985,1.803,18.4185,-335.337,12.6645,0.0,0.0
142,35.25,63.1101,65.0939,89.4786,98.9476,22.8271,0.0917036,1.82058,18.3775,-335.407,12.9564,0.0,0.0
144,35.75,64.0632,67.0269,101.571,98.9404,26.7471,0.0921523,1.83763,18.3444,-335.567,11.5557,0.0,0.0
146,36.25,65.9556,68.6716,102.218,98.9452,27.0135,0.0925158,1.85143,18.3175,-335.697,11.4686,0.0,0.0
148,36.75,67.385,70.3702,98.744,98.9636,28.7639,0.0917152,1.86262,18.3139,-335.808,10.9156,0.0,0.0
150,37.25,68.6351,72.1961,103.153,98.9528,28.6157,0.0910667,1.85069,18.3273,-335.948,10.9603,0.0,0.0
152,37.75,69.9388,73.6666,99.9973,98.9544,24.4364,0.0894629,1.84102,18.3551,-336.038,12.3552,0.0,0.0
154,38.25,70.8923,75.0789,92.9141,98.96,28.3618,0.0881638,1.81213,18.393,-336.158,11.0397,0.0,0.0
156,38.75,72.5739,76.5272,107.267,98.9556,31.0054,0.0859143,1.78872,18.4441,-336.318,10.252,0.0,0.0
158,39.25,73.1968,77.8307,100.685,98.9712,31.4783,0.0840922,1.74392,18.5039,-336.398,10.1197,0.0,0.0
160,39.75,74.4416,78.8704,104.495,98.9608,37.0038,0.0826163,1.70763,18.5524,-336.478,8.69006,0.0,0.0
162,40.25,75.2932,79.7721,108.924,98.9793,39.9098,0.0798427,1.66676,18.6089,-336.568,8.02386,0.0,0.0
164,40.75,76.0623,80.9464,109.036,98.9765,36.1954,0.0775962,1.62332,18.6701,-336.678,8.88659,0.0,0.0
166,41.25,77.1092,81.6857,109.387,98.9837,39.871,0.0745893,1.57567,18.7385,-336.778,8.03283,0.0,0.0
168,41.75,77.5983,82.8503,110.135,98.9777,40.0109,0.0721538,1.52585,18.8109,-336.848,8.00135,0.0,0.0
170,42.25,78.0953,83.6837,110.993,99.0013,39.3382,0.0695699,1.47138,18.8696,-336.959,8.15325,0.0,0.0
172,42.75,78.708,84.2574,116.437,98.9937,42.8819,0.0669269,1.41456,18.9511,-337.039,7.39061,0.0,0.0
174,43.25,79.5642,84.9279,119.523,98.9989,38.83,0.0641554,1.36853,19.0172,-337.079,8.26792,0.0,0.0
176,43.75,79.7327,85.3361,119.281,99.0017,39.7358,0.061343,1.30448,19.0707,-337.229,8.06446,0.0,0.0
178,44.25,80.1085,85.9398,121.578,99.0102,40.4701,0.0590649,1.25261,19.1569,-337.249,7.90346,0.0,0.0
180,44.75,80.0383,86.6024,115.525,99.0078,42.193,0.0565275,1.19966,19.2267,-337.299,7.53494,0.0,0.0
182,45.25,80.2257,86.7329,128.515,99.0078,49.1891,0.0538492,1.14694,19.315,-337.389,6.17963,0.0,0.0
184,45.75,80.2014,87.1641,116.442,99.0158,44.5261,0.0516797,1.10423,19.3866,-337.449,7.06019,0.0,0.0
186,46.25,80.3865,87.2155,125.411,99.0242,47.4375,0.0491255,1.0501,19.4597,-337.509,6.50142,0.0,0.0
188,46.75,80.5213,87.7943,126.291,99.031,44.9973,0.0470565,1.00625,19.5325,-337.539,6.96855,0.0,0.0
190,47.25,80.3774,87.455,125.868,99.0338,52.2412,0.0453807,0.970734,19.5914,-337.559,5.65016,0.0,0.0
192,47.75,80.6544,87.4531,126.929,99.0399,45.9468,0.0430914,0.923271,19.6499,-337.669,6.78487,0.0,0.0
194,48.25,80.8732,87.1317,127.593,99.0387,49.7457,0.0412371,0.884827,19.7069,-337.719,6.083,0.0,0.0
196,48.75,80.5994,87.5569,125.607,99.0387,45.9385,0.0392022,0.844873,19.7637,-337.719,6.78636,0.0,0.0
198,49.25,80.6463,87.2704,123.47,99.0431,45.4827,0.037554,0.81251,19.8194,-337.789,6.87484,0.0,0.0
200,49.75,80.5191,87.0607,132.616,99.0459,53.967,0.0356815,0.786296,19.8717,-337.789,5.36412,0.0,0.0
202,50.25,80.5179,87.0345,130.731,99.0435,51.1839,0.0341647,0.755067,19.9206,-337.889,5.83165,0.0,0.0
204,50.75,80.3507,87.2415,125.98,99.0515,51.3741,0.0326646,0.729771,19.9683,-337.959,5.79959,0.0,0.0
206,51.25,80.619,87.0209,132.426,99.0447,55.4256,0.0312052,0.705035,20.0143,-337.959,5.12842,0.0,0.0
208,51.75,80.3219,86.6957,132.677,99.0675,51.0498,0.0295335,0.681177,20.0604,-337.98,5.85696,0.0,0.0
210,52.25,80.1995,86.4554,131.391,99.0555,54.2193,0.0281794,0.657176,20.1057,-338.03,5.32378,0.0,0.0
212,52.75,80.1342,86.6603,134.23,99.0796,61.0065,0.0268026,0.633526,20.1423,-338.04,4.28401,0.0,0.0
214,53.25,80.2605,86.2094,132.376,99.0667,58.1667,0.0254355,0.609038,20.1884,-338.05,4.70395,0.0,0.0
216,53.75,79.8464,86.3941,138.347,99.0748,62.4376,0.0243281,0.584403,20.2257,-338.08,4.07874,0.0,0.0
218,54.25,79.1497,86.3179,133.939,99.0752,63.8674,0.0230704,0.55941,20.2559,-338.12,3.87875,0.0,0.0
220,54.75,79.2191,85.6252,135.781,99.084,64.7295,0.0217271,0.53463,20.2932,-338.16,3.76109,0.0,0.0
222,55.25,79.285,85.5634,137.106,99.0663,62.9433,0.0204482,0.51007,20.3234,-338.18,4.00672,0.0,0.0
224,55.75,78.6049,85.1248,143.421,99.0812,70.5939,0.0192406,0.486137,20.3625,-338.18,2.99471,0.0,0.0
226,56.25,78.352,84.8393,136.841,99.0748,70.131,0.0181073,0.466752,20.3941,-338.23,3.05225,0.0,0.0
228,56.75,78.2404,84.8496,142.42,99.0924,71.975,0.0170496,0.441232,20.4263,-338.24,2.82454,0.0,0.0
230,57.25,77.6685,84.2374,138.801,99.0824,71.1637,0.0161929,0.420561,20.4581,-338.25,2.92379,0.0,0.0
232,57.75,77.4271,84.1381,139.062,99.0976,72.3613,0.0152229,0.400055,20.4905,-338.26,2.77772,0.0,0.0
234,58.25,76.8807,83.9052,138.769,99.0864,75.2847,0.0144372,0.38006,20.5225,-338.3,2.42684,0.0,0.0
236,58.75,76.8767,83.5004,144.453,99.1097,71.8605,0.0136067,0.363863,20.5525,-338.31,2.84014,0.0,0.0
238,59.25,76.6016,83.6976,146.147,99.0996,73.8157,0.012934,0.34615,20.5803,-338.32,2.6021,0.0,0.0
240,59.75,76.3401,83.0029,138.334,99.1097,74.7007,0.0122163,0.331802,20.6098,-338.32,2.49771,0.0,0.0
242,60.25,75.6613,81.8923,141.232,99.1073,76.7945,0.011635,0.315596,20.6338,-338.34,2.25329,0.0,0.0
244,60.75,75.3047,81.9846,139.35,99.1245,80.4327,0.0110597,0.30247,20.6532,-338.33,1.84593,0.0,0.0
246,61.25,74.6316,81.9404,144.905,99.1121,78.8222,0.0104996,0.288252,20.6747,-338.36,2.0235,0.0,0.0
248,61.75,74.7974,81.2303,143.498,99.1357,81.281,0.00997631,0.276735,20.6921,-338.36,1.75424,0.0,0.0
250,62.25,74.5518,80.9655,144.759,99.1221,80.6958,0.00948984,0.264071,20.711,-338.37,1.81686,0.0,0.0
252,62.75,73.9103,80.6963,143.87,99.143,80.8056,0.009037,0.253812,20.7264,-338.37,1.8067,0.0,0.0
254,63.25,73.4931,80.2964,143.457,99.1366,80.6325,0.00861727,0.243404,20.7437,-338.39,1.82508,0.0,0.0
256,63.75,73.688,80.2039,143.414,99.1486,81.5991,0.0082773,0.233084,20.7577,-338.4,1.72089,0.0,0.0
258,64.25,73.1895,79.3416,143.264,99.139,83.7245,0.00788927,0.224725,20.7756,-338.4,1.49287,0.0,0.0
260,64.75,72.3728,79.1128,142.634,99.1514,83.7736,0.00757497,0.214246,20.7902,-338.43,1.4888,0.0,0.0
262,65.25,72.6205,78.7649,144.794,99.1574,87.0679,0.00721554,0.205759,20.8043,-338.44,1.1486,0.0,0.0
264,65.75,71.8061,78.5268,148.884,99.1674,84.371,0.00692441,0.196421,20.8178,-338.44,1.42746,0.0,0.0
266,66.25,71.409,77.8657,144.481,99.1622,85.2239,0.00658653,0.187616,20.8288,-338.46,1.33814,0.0,0.0
268,66.75,70.9918,77.9046,145.743,99.1831,87.7673,0.00631285,0.179365,20.8393,-338.47,1.08022,0.0,0.0
270,67.25,70.8826,77.7279,145.688,99.1686,87.647,0.00609116,0.172683,20.8493,-338.47,1.09105,0.0,0.0
272,67.75,70.595,77.2482,143.662,99.1811,88.3342,0.0059116,0.164516,20.8574,-338.46,1.02316,0.0,0.0
274,68.25,69.7375,76.4494,147.477,99.1743,88.6402,0.00565069,0.157901,20.8639,-338.44,0.992004,0.0,0.0
276,68.75,69.0783,75.8769,146.807,99.2152,90.6715,0.00533544,0.150582,20.8715,-338.45,0.795484,0.0,0.0
278,69.25,69.4291,75.7496,147.709,99.1903,89.4594,0.00502877,0.144654,20.8777,-338.46,0.912165,0.0,0.0
280,69.75,68.8263,75.2027,147.504,99.2032,91.2131,0.00473419,0.139852,20.8862,-338.46,0.741807,0.0,0.0
282,70.25,68.7024,75.5819,147.028,99.1943,90.1083,0.00445669,0.135962,20.8931,-338.47,0.84867,0.0,0.0
284,70.75,68.3332,74.8111,147.699,99.2168,90.8118,0.00419691,0.129995,20.9013,-338.46,0.78197,0.0,0.0
286,71.25,67.7004,74.3985,145.724,99.208,91.825,0.00395997,0.125161,20.908,-338.47,0.683169,0.0,0.0
288,71.75,67.2594,73.987,147.842,99.2192,91.6527,0.00374417,0.120176,20.9174,-338.49,0.700764,0.0,0.0
290,72.25,67.0127,73.9401,144.781,99.222,91.3592,0.00355128,0.115174,20.925,-338.49,0.729346,0.0,0.0
292,72.75,66.8435,73.4998,143.785,99.2332,91.9715,0.00337875,0.111123,20.9333,-338.49,0.671334,0.0,0.0
294,73.25,66.2183,73.2079,150.142,99.2316,92.7291,0.00322673,0.106565,20.9401,-338.51,0.59872,0.0,0.0
296,73.75,66.2306,72.7773,143.896,99.2521,92.5768,0.00309255,0.102218,20.9474,-338.49,0.615068,0.0,0.0
298,74.25,65.9523,72.1679,148.604,99.2393,92.8956,0.00298387,0.0981075,20.9532,-338.49,0.583551,0.0,0.0
300,74.75,65.4596,71.8619,149.928,99.2641,92.8086,0.00286423,0.0941173,20.958,-338.5,0.594042,0.0,0.0
302,75.25,64.853,72.0081,146.717,99.2409,93.145,0.00273888,0.0902908,20.9636,-338.51,0.560014,0.0,0.0
304,75.75,64.7096,71.3136,148.126,99.2489,93.2332,0.00261093,0.0871914,20.9682,-338.49,0.552363,0.0,0.0
306,76.25,64.1318,70.8888,152.098,99.2373,93.4559,0.00248353,0.0834979,20.9736,-338.49,0.530251,0.0,0.0
308,76.75,64.1054,70.5693,149.588,99.2625,93.8306,0.00238033,0.0805063,20.978,-338.49,0.497159,0.0,0.0
310,77.25,63.4341,70.1011,145.477,99.2533,93.9134,0.00223321,0.0774909,20.9829,-338.49,0.488541,0.0,0.0
312,77.75,63.2297,70.0833,153.544,99.2802,93.5796,0.00211404,0.0745155,20.9869,-338.5,0.522394,0.0,0.0
314,78.25,62.7591,69.1963,146.73,99.2473,93.7831,0.00202344,0.0721055,20.9886,-338.5,0.500269,0.0,0.0
316,78.75,62.3021,68.5359,142.404,99.2734,93.8202,0.00186851,0.0691813,20.9928,-338.51,0.499103,0.0,0.0
318,79.25,62.5934,68.2021,149.986,99.2617,93.4913,0.00174302,0.0668128,20.9963,-338.5,0.529084,0.0,0.0
320,79.75,61.1015,67.8931,144.689,99.279,93.9201,0.00159389,0.0644022,20.9999,-338.5,0.4902,0.0,0.0
322,80.25,61.6476,67.7036,149.398,99.2601,93.5492,0.00145773,0.0624496,21.0029,-338.5,0.523475,0.0,0.0
324,80.75,60.9538,67.4964,150.128,99.2802,93.4921,0.00133362,0.0604446,21.0061,-338.48,0.530648,0.0,0.0
326,81.25,60.6351,66.8848,143.931,99.2738,93.8988,0.00123309,0.0595898,21.0088,-338.49,0.491733,0.0,0.0
328,81.75,60.2974,66.9583,146.172,99.3007,94.1969,0.0011395,0.0579414,21.011,-338.5,0.466129,0.0,0.0
330,82.25,59.9676,66.1595,149.477,99.287,93.8618,0.00105276,0.0564382,21.0127,-338.49,0.496397,0.0,0.0
332,82.75,59.9756,66.2868,148.503,99.3063,94.0645,0.000976108,0.0551057,21.0141,-338.49,0.479051,0.0,0.0
334,83.25,59.2735,65.9498,148.288,99.2922,93.5117,0.000908264,0.053923,21.0153,-338.49,0.529871,0.0,0.0
336,83.75,59.3413,65.5861,148.063,99.3055,93.9496,0.000853311,0.052965,21.0162,-338.48,0.489776,0.0,0.0
338,84.25,58.5843,65.5143,147.498,99.297,93.9442,0.000812442,0.0519437,21.0172,-338.49,0.489536,0.0,0.0
340,84.75,59.0169,64.4694,148.547,99.3119,94.1286,0.000779339,0.0511164,21.0182,-338.49,0.473532,0.0,0.0
342,85.25,58.6284,64.788,147.727,99.3111,93.7461,0.000778042,0.0504463,21.019,-338.5,0.509436,0.0,0.0
344,85.75,58.0899,64.1625,146.048,99.3183,93.8335,0.000776992,0.049849,21.0196,-338.49,0.501846,0.0,0.0
346,86.25,57.7553,64.3646,150.711,99.3091,93.7348,0.000813841,0.0493652,21.0202,-338.51,0.510317,0.0,0.0
348,86.75,57.4396,63.7322,143.708,99.3219,93.6549,0.000843689,0.0488642,21.0211,-338.49,0.518995,0.0,0.0
350,87.25,57.3926,63.3536,144.033,99.3107,93.8135,0.000877475,0.0484585,21.0218,-338.5,0.50305,0.0,0.0
352,87.75,57.2259,63.08,145.198,99.3416,93.7098,0.000913489,0.0480209,21.0223,-338.49,0.515563,0.0,0.0
354,88.25,57.0031,63.1384,146.221,99.3307,93.975,0.00094266,0.0476664,21.0228,-338.51,0.489638,0.0,0.0
356,88.75,56.2007,62.6591,150.012,99.3332,93.9659,0.0009554,0.0473291,21.0232,-338.51,0.490713,0.0,0.0
358,89.25,56.0367,62.4855,149.26,99.3472,94.0141,0.000955918,0.0470107,21.0235,-338.49,0.487423,0.0,0.0
360,89.75,55.916,62.0994,147.566,99.352,94.027,0.000944815,0.0467241,21.0237,-338.5,0.486638,0.0,0.0
362,90.25,55.4308,61.8471,145.007,99.3552,94.0462,0.000925451,0.0464662,21.0239,-338.51,0.485125,0.0,0.0
364,90.75,55.917,61.5555,148.971,99.3677,93.9384,0.000909766,0.0462572,21.0241,-338.53,0.496363,0.0,0.0
366,91.25,54.9027,61.5721,148.313,99.3488,94.0949,0.000886824,0.0460335,21.0242,-338.52,0.479981,0.0,0.0
368,91.75,55.0644,60.9483,145.275,99.3584,94.1985,0.000859028,0.0458523,21.0243,-338.51,0.471112,0.0,0.0
370,92.25,55.0095,60.4423,146.72,99.3572,93.9371,0.000832675,0.0456984,21.0244,-338.51,0.495554,0.0,0.0
372,92.75,54.5245,60.5894,146.294,99.3737,93.9783,0.000807876,0.0455673,21.0245,-338.51,0.493142,0.0,0.0
374,93.25,54.5378,59.7819,146.861,99.3769,94.1153,0.00078651,0.045461,21.0245,-338.5,0.480563,0.0,0.0
376,93.75,54.0522,59.9386,145.882,99.3769,93.8485,0.000768053,0.045375,21.0246,-338.51,0.505644,0.0,0.0
378,94.25,54.0362,59.8671,150.511,99.3781,94.1598,0.000750544,0.0452781,21.0246,-338.5,0.47649,0.0,0.0
380,94.75,54.2961,59.8635,145.031,99.3841,94.104,0.000734061,0.0451781,21.0251,-338.51,0.48226,0.0,0.0
382,95.25,53.3776,59.0786,148.244,99.3893,94.0191,0.000720709,0.0450777,21.0255,-338.51,0.490699,0.0,0.0
384,95.75,52.9774,58.7074,146.909,99.3893,94.1527,0.000709894,0.0449678,21.0258,-338.5,0.478153,0.0,0.0
386,96.25,53.1003,58.9709,149.923,99.4046,93.995,0.000693846,0.0448529,21.026,-338.5,0.494322,0.0,0.0
388,96.75,52.9813,59.2486,148.684,99.405,93.8426,0.000680846,0.0447599,21.0262,-338.49,0.508689,0.0,0.0
390,97.25,52.9417,58.7025,143.743,99.4222,93.8614,0.000666673,0.0447118,21.0264,-338.51,0.508458,0.0,0.0
392,97.75,52.5957,58.1905,143.509,99.4202,93.8793,0.000655193,0.0446728,21.0265,-338.53,0.506596,0.0,0.0
394,98.25,52.4456,58.377,144.42,99.4323,94.0316,0.000639823,0.0446269,21.0266,-338.53,0.49334,0.0,0.0
396,98.75,52.519,57.7042,142.428,99.4218,94.0991,0.000627373,0.0445768,21.0267,-338.53,0.486081,0.0,0.0
398,99.25,51.7663,57.2409,143.759,99.4327,93.9937,0.000613454,0.0445362,21.0268,-338.53,0.496936,0.0,0.0
400,99.75,51.4857,57.2023,148.498,99.4407,94.032,0.000598729,0.0444897,21.0269,-338.52,0.49405,0.0,0.0
402,100.25,51.5709,57.293,143.044,99.4475,93.8701,0.000584246,0.0444521,21.0269,-338.52,0.509882,0.0,0.0
404,100.75,51.0205,56.8171,147.242,99.4455,94.174,0.000570215,0.0444625,21.0267,-338.53,0.481153,0.0,0.0
406,101.25,51.05,56.6109,146.558,99.4555,93.9546,0.000564233,0.0444708,21.0263,-338.52,0.502645,0.0,0.0
408,101.75,51.0479,56.5488,151.633,99.4543,94.2427,0.000547935,0.0445049,21.0263,-338.52,0.475497,0.0,0.0
410,102.25,50.7833,56.8081,145.41,99.4668,93.8593,0.000534734,0.0445324,21.0264,-338.5,0.512611,0.0,0.0
412,102.75,50.7661,56.8765,153.93,99.466,93.9534,0.000524041,0.0445332,21.0266,-338.53,0.50369,0.0,0.0
414,103.25,50.2421,55.6504,147.715,99.4756,94.1682,0.000493541,0.0445146,21.0267,-338.54,0.484372,0.0,0.0
416,103.75,49.9334,55.5062,147.67,99.4788,93.9155,0.000468835,0.0444923,21.0267,-338.54,0.508391,0.0,0.0
418,104.25,50.0836,55.5519,145.266,99.4944,94.0158,0.000439122,0.0444794,21.0268,-338.52,0.50035,0.0,0.0
420,104.75,50.3326,55.425,148.926,99.4824,93.9529,0.000415054,0.0444573,21.0269,-338.52,0.505189,0.0,0.0
422,105.25,49.8192,55.4902,145.146,99.4944,94.129,0.000393134,0.0444394,21.0267,-338.53,0.489717,0.0,0.0
424,105.75,49.7431,55.4145,147.829,99.5017,94.0578,0.000375379,0.044425,21.0263,-338.51,0.497041,0.0,0.0
426,106.25,49.9704,55.0377,146.527,99.5093,93.9883,0.000366153,0.0444132,21.026,-338.5,0.50425,0.0,0.0
428,106.75,49.5119,54.8381,146.713,99.5073,94.0287,0.00036332,0.0444174,21.0258,-338.5,0.500278,0.0,0.0
430,107.25,48.725,54.2764,145.254,99.5177,94.2606,0.000368048,0.0444207,21.0256,-338.52,0.479447,0.0,0.0
432,107.75,48.7284,54.0281,145.663,99.5221,94.1661,0.000378199,0.0444306,21.0253,-338.53,0.488699,0.0,0.0
434,108.25,49.1557,54.3934,146.343,99.5302,94.2156,0.000392169,0.044445,21.025,-338.53,0.484765,0.0,0.0
436,108.75,48.9975,53.9702,149.153,99.5273,94.3051,0.000408658,0.044471,21.0248,-338.52,0.476128,0.0,0.0
438,109.25,48.5896,53.8981,145.74,99.5414,94.1061,0.000422013,0.044505,21.0246,-338.53,0.496033,0.0,0.0
440,109.75,48.6714,53.8072,145.998,99.5434,94.1706,0.000432832,0.0445107,21.0245,-338.52,0.490157,0.0,0.0
442,110.25,48.5379,53.5176,148.656,99.5618,93.9633,0.000442808,0.0444956,21.0244,-338.51,0.511262,0.0,0.0
444,110.75,48.3906,53.4007,151.763,99.549,94.2318,0.000450889,0.0444833,21.0243,-338.53,0.484917,0.0,0.0
446,111.25,48.1044,53.2388,145.748,99.5775,94.0087,0.00045258,0.0444734,21.0242,-338.52,0.508386,0.0,0.0
448,111.75,48.2885,52.9257,148.12,99.5578,94.189,0.00045395,0.0444654,21.0242,-338.51,0.489721,0.0,0.0
450,112.25,47.5216,53.191,146.248,99.5863,94.3555,0.000452633,0.0444453,21.0244,-338.51,0.476645,0.0,0.0
452,112.75,47.6807,52.7841,145.615,99.5835,93.9134,0.000451566,0.044429,21.0247,-338.53,0.517882,0.0,0.0
454,113.25,47.7258,52.8487,145.949,99.5947,94.0716,0.000448275,0.0444158,21.025,-338.52,0.504013,0.0,0.0
456,113.75,47.1904,52.2544,147.191,99.5895,94.2618,0.000445609,0.0444051,21.0252,-338.53,0.485703,0.0,0.0
458,114.25,47.1829,52.3577,146.548,99.6116,94.0429,0.00044345,0.0443965,21.0254,-338.53,0.508204,0.0,0.0
460,114.75,46.681,52.3499,146.892,99.6,94.5103,0.000440487,0.0443895,21.0257,-338.51,0.463369,0.0,0.0
462,115.25,47.4965,51.9265,146.514,99.6208,94.0071,0.000438088,0.0443838,21.0259,-338.54,0.512386,0.0,0.0
464,115.75,46.8444,51.6035,143.196,99.6248,94.2039,0.000433718,0.0444064,21.0262,-338.54,0.494259,0.0,0.0
466,116.25,46.6103,51.004,146.6,99.6317,94.2543,0.000430178,0.0444247,21.0263,-338.53,0.490142,0.0,0.0
468,116.75,46.4362,51.4435,150.36,99.6212,94.3692,0.000427311,0.0444396,21.0265,-338.52,0.478455,0.0,0.0
470,117.25,46.3977,51.2276,148.635,99.6493,94.0058,0.000419881,0.0444659,21.0266,-338.54,0.51503,0.0,0.0
472,117.75,46.4816,51.0873,151.763,99.6473,94.4616,0.000409265,0.0445002,21.0267,-338.53,0.472121,0.0,0.0
474,118.25,46.0199,51.1099,152.319,99.665,94.104,0.000401305,0.0445351,21.0268,-338.55,0.507189,0.0,0.0
476,118.75,46.157,50.9656,148.287,99.6437,94.2389,0.000395432,0.0445698,21.0268,-338.56,0.492653,0.0,0.0
478,119.25,46.1288,50.8772,150.348,99.671,94.4337,0.000396421,0.0445979,21.0269,-338.54,0.476828,0.0,0.0
480,119.75,46.0132,50.3426,151.291,99.6638,94.1902,0.000402394,0.0445935,21.0269,-338.54,0.498997,0.0,0.0
482,120.25,45.7904,50.2898,147.597,99.6762,94.0233,0.000407233,0.0445899,21.027,-338.54,0.515769,0.0,0.0
484,120.75,45.7915,50.3534,152.995,99.6866,94.0916,0.000429356,0.044587,21.027,-338.54,0.510282,0.0,0.0
486,121.25,45.4512,50.5359,148.963,99.6935,94.3909,0.000447276,0.0445438,21.027,-338.54,0.482831,0.0,0.0
488,121.75,45.0873,50.1688,149.587,99.6846,94.1948,0.000466647,0.0445088,21.0268,-338.54,0.500417,0.0,0.0
490,122.25,45.4114,50.7445,149.272,99.7055,94.5907,0.000482337,0.0444532,21.0264,-338.54,0.465217,0.0,0.0
492,122.75,44.806,49.9578,152.097,99.6971,94.266,0.000484121,0.0444082,21.0261,-338.54,0.494846,0.0,0.0
494,123.25,44.8301,50.0147,148.55,99.7103,94.3742,0.000485566,0.0443445,21.0259,-338.55,0.485883,0.0,0.0
496,123.75,44.7176,49.1038,146.374,99.7155,94.3463,0.000486737,0.0442929,21.0257,-338.54,0.488955,0.0,0.0
498,124.25,44.6112,49.4226,149.403,99.7171,94.2048,0.000456142,0.0442647,21.0255,-338.54,0.50236,0.0,0.0
500,124.75,44.4728,49.6135,147.42,99.7191,94.1573,0.00043136,0.0442419,21.0254,-338.54,0.506988,0.0,0.0
502,125.25,44.6692,48.865,152.496,99.7259,94.5907,0.00039189,0.0442506,21.0255,-338.54,0.46703,0.0,0.0
504,125.75,44.4836,49.2419,149.875,99.7251,94.6248,0.00035992,0.0442577,21.0258,-338.54,0.463771,0.0,0.0
506,126.25,44.183,48.7732,149.118,99.7392,94.114,0.000334661,0.044242,21.026,-338.55,0.512828,0.0,0.0
508,126.75,43.8989,48.5727,147.475,99.734,94.2406,0.000314776,0.0442099,21.0262,-338.53,0.500496,0.0,0.0
510,127.25,44.1311,48.8575,147.661,99.732,94.4346,0.000306964,0.0441838,21.0264,-338.55,0.482153,0.0,0.0
512,127.75,44.3372,48.0352,145.538,99.7396,94.5282,0.000308101,0.0441356,21.0265,-338.54,0.474072,0.0,0.0
514,128.25,43.9823,48.181,146.523,99.7456,94.4125,0.000309022,0.0440964,21.0266,-338.56,0.485426,0.0,0.0
516,128.75,43.7337,48.2307,153.585,99.7372,94.2768,0.000341214,0.0440576,21.0267,-338.55,0.497387,0.0,0.0
518,129.25,43.4727,48.2264,146.872,99.7528,94.2797,0.00036729,0.0440197,21.0268,-338.55,0.498499,0.0,0.0
520,129.75,44.0159,48.2273,147.376,99.7536,94.4079,0.000411478,0.0439961,21.027,-338.53,0.486566,0.0,0.0
522,130.25,43.8084,48.1798,151.183,99.7492,94.1794,0.000447271,0.0439835,21.0272,-338.55,0.507585,0.0,0.0
524,130.75,43.251,47.3028,146.649,99.7641,94.3455,0.000476263,0.0439733,21.0274,-338.55,0.493333,0.0,0.0
526,131.25,43.64,48.0746,149.998,99.7464,94.308,0.000509463,0.0439929,21.0275,-338.55,0.49528,0.0,0.0
528,131.75,43.2138,47.6254,150.184,99.7589,94.2006,0.000536354,0.0440088,21.0276,-338.56,0.506447,0.0,0.0
530,132.25,43.369,46.9706,146.656,99.75,94.5511,0.000550849,0.0440489,21.0276,-338.55,0.472857,0.0,0.0
532,132.75,43.4872,48.0184,149.162,99.7641,94.3675,0.00056259,0.0440814,21.0277,-338.56,0.491268,0.0,0.0
534,133.25,42.6752,46.5805,150.805,99.7568,94.1915,0.000562515,0.0441006,21.0278,-338.56,0.507127,0.0,0.0
536,133.75,42.7726,46.9199,148.388,99.7753,94.5728,0.000553826,0.0441097,21.0278,-338.55,0.473072,0.0,0.0
538,134.25,43.3804,47.1525,147.315,99.7621,94.4541,0.000524945,0.044117,21.0278,-338.56,0.48299,0.0,0.0
540,134.75,43.0215,47.2552,146.003,99.7645,94.2914,0.000501552,0.0441158,21.0279,-338.55,0.498438,0.0,0.0
542,135.25,43.0504,47.13,147.41,99.7625,94.2922,0.000472899,0.0441084,21.0279,-338.56,0.498182,0.0,0.0
544,135.75,42.7193,46.6697,146.991,99.7689,94.2772,0.00044969,0.0440737,21.0279,-338.55,0.500155,0.0,0.0
546,136.25,42.6764,46.7674,147.825,99.7592,94.0262,0.000440595,0.0440198,21.0279,-338.54,0.522853,0.0,0.0
548,136.75,42.616,46.0416,147.927,99.7693,94.2472,0.000433228,0.043969,21.0279,-338.55,0.502998,0.0,0.0
550,137.25,42.5713,46.3332,145.838,99.7597,94.114,0.000427261,0.0439214,21.0279,-338.55,0.514641,0.0,0.0
552,137.75,42.7593,46.7227,147.159,99.7673,94.3001,0.000422428,0.0438972,21.0279,-338.57,0.497867,0.0,0.0
554,138.25,42.1162,46.1009,148.292,99.7576,94.2939,0.000441512,0.0438904,21.0279,-338.55,0.4976,0.0,0.0
556,138.75,42.2169,45.2309,148.051,99.7625,94.4108,0.000477671,0.0439258,21.0282,-338.53,0.487074,0.0,0.0
558,139.25,42.3252,46.1241,149.392,99.7621,94.1786,0.000505681,0.0439545,21.0285,-338.53,0.5088,0.0,0.0
560,139.75,42.3919,46.0052,146.922,99.7625,94.2593,0.000527218,0.0439777,21.0282,-338.53,0.501263,0.0,0.0
562,140.25,42.1132,46.1038,145.799,99.754,94.1702,0.000537633,0.0439893,21.028,-338.55,0.50887,0.0,0.0
564,140.75,41.9845,45.7518,148.377,99.7729,94.0637,0.000539742,0.0439923,21.0278,-338.55,0.520542,0.0,0.0
566,141.25,41.8062,45.6416,152.677,99.7568,94.0266,0.00054145,0.0439947,21.0277,-338.55,0.522601,0.0,0.0
568,141.75,41.5169,45.6398,147.527,99.7673,94.2015,0.0005222,0.043968,21.0276,-338.56,0.507114,0.0,0.0
570,142.25,41.335,45.7847,148.375,99.7633,94.1136,0.000506608,0.0439206,21.0275,-338.55,0.514999,0.0,0.0
572,142.75,41.5523,45.1638,147.716,99.7797,94.3218,0.000485485,0.0438894,21.0274,-338.55,0.496941,0.0,0.0
574,143.25,41.6091,45.5169,152.179,99.7552,94.2268,0.000468376,0.0438705,21.0274,-338.56,0.503668,0.0,0.0
576,143.75,41.8898,45.6349,145.99,99.7693,94.4508,0.000456433,0.0438552,21.0273,-338.56,0.48394,0.0,0.0
578,144.25,41.348,45.2444,147.86,99.7536,94.6098,0.000448483,0.0438429,21.0273,-338.55,0.467694,0.0,0.0
580,144.75,41.5801,45.1152,148.661,99.7689,94.154,0.000442044,0.0438328,21.0272,-338.55,0.511707,0.0,0.0
582,145.25,41.2255,44.8895,148.754,99.7468,94.0266,0.000450176,0.0438111,21.0272,-338.55,0.521713,0.0,0.0
584,145.75,41.1971,45.0051,147.433,99.7745,94.092,0.000456762,0.0437935,21.0272,-338.55,0.518026,0.0,0.0
586,146.25,40.8927,44.2968,148.866,99.7589,94.2564,0.000464526,0.0437864,21.0272,-338.55,0.501217,0.0,0.0
588,146.75,40.5611,44.7111,149.299,99.7645,94.2593,0.000470814,0.0437871,21.0272,-338.56,0.501441,0.0,0.0
590,147.25,40.962,44.845,147.974,99.7504,94.1886,0.000463771,0.0437733,21.0272,-338.54,0.506831,0.0,0.0
592,147.75,41.3531,44.5587,146.862,99.7613,94.2318,0.000458067,0.0437493,21.0271,-338.54,0.503731,0.0,0.0
594,148.25,41.3157,44.6994,146.114,99.7492,94.5024,0.0004304,0.0437298,21.0271,-338.55,0.477338,0.0,0.0
596,148.75,41.2535,44.7739,148.672,99.7516,94.2714,0.000407989,0.0436732,21.0271,-338.55,0.499173,0.0,0.0
598,149.25,40.9685,44.6939,149.153,99.7532,94.4029,0.000377764,0.0436274,21.0271,-338.56,0.486998,0.0,0.0
600,149.75,40.8746,44.038,148.081,99.7653,94.5569,0.000342417,0.0436447,21.0271,-338.56,0.473662,0.0,0.0
602,150.25,40.511,43.8652,149.403,99.7484,94.3276,0.000314424,0.0436587,21.0271,-338.55,0.493624,0.0,0.0
604,150.75,41.0321,43.9042,149.927,99.752,94.1086,0.000292324,0.0436701,21.027,-338.55,0.514474,0.0,0.0
606,151.25,41.1479,44.3154,145.833,99.7384,94.3476,0.000274423,0.0436793,21.0268,-338.53,0.490865,0.0,0.0
608,151.75,40.7145,44.0133,148.832,99.7576,94.2951,0.000290231,0.0436863,21.0267,-338.55,0.497482,0.0,0.0
610,152.25,40.7449,43.7502,147.833,99.7416,94.0936,0.000303036,0.0436917,21.0271,-338.54,0.514956,0.0,0.0
612,152.75,40.4667,43.385,148.503,99.7584,94.0703,0.000331291,0.0436961,21.0274,-338.55,0.518638,0.0,0.0
614,153.25,40.3198,43.6289,146.298,99.7416,94.3093,0.000370271,0.0436997,21.0276,-338.54,0.494735,0.0,0.0
616,153.75,41.0807,43.2685,149.561,99.7621,94.0483,0.000406318,0.0437025,21.0278,-338.55,0.52103,0.0,0.0
618,154.25,40.1758,43.6867,150.463,99.7388,94.0932,0.000439542,0.0437049,21.0279,-338.56,0.514747,0.0,0.0
620,154.75,39.988,43.5606,150.123,99.7568,94.0749,0.000464536,0.0437067,21.028,-338.55,0.518066,0.0,0.0
622,155.25,40.0659,43.3069,149.545,99.7368,94.3309,0.000483056,0.0437083,21.0281,-338.55,0.492281,0.0,0.0
624,155.75,40.241,43.593,151.964,99.75,94.6568,0.000498057,0.0437095,21.0282,-338.56,0.462984,0.0,0.0
626,156.25,40.0375,43.4671,149.29,99.734,94.1786,0.00050171,0.043732,21.0283,-338.54,0.506312,0.0,0.0
628,156.75,40.4261,43.2345,147.791,99.742,94.1802,0.000505946,0.0437695,21.0283,-338.54,0.506867,0.0,0.0
630,157.25,39.9106,43.1654,149.245,99.7259,93.9896,0.000510528,0.0438,21.0284,-338.55,0.523345,0.0,0.0
632,157.75,39.8109,43.1644,147.404,99.7504,94.3089,0.000514239,0.0438518,21.0284,-338.54,0.495556,0.0,0.0
634,158.25,39.8646,42.8526,146.559,99.736,93.9613,0.000515821,0.0438939,21.0284,-338.54,0.526896,0.0,0.0
636,158.75,39.951,42.7082,145.931,99.7556,94.3009,0.000530668,0.0439007,21.0285,-338.53,0.496758,0.0,0.0
638,159.25,40.056,43.2913,144.67,99.7296,94.1215,0.000542694,0.0439062,21.0285,-338.55,0.511272,0.0,0.0
640,159.75,39.6144,42.6709,146.519,99.734,94.0541,0.000563254,0.0439106,21.0285,-338.55,0.517994,0.0,0.0
642,160.25,39.9675,42.7575,149.653,99.7332,94.3775,0.000589645,0.0439143,21.0285,-338.55,0.487597,0.0,0.0
644,160.75,40.054,42.5781,149.799,99.7276,94.1074,0.000611022,0.0439308,21.0285,-338.57,0.512423,0.0,0.0
646,161.25,38.9057,42.0177,147.983,99.7211,94.42,0.000640492,0.0439379,21.0285,-338.55,0.482557,0.0,0.0
648,161.75,38.9766,42.4529,149.922,99.7211,94.4762,0.000675302,0.0439499,21.0286,-338.56,0.477301,0.0,0.0
650,162.25,39.6311,42.6257,145.751,99.7119,94.0528,0.000707977,0.0439668,21.0286,-338.55,0.516157,0.0,0.0
652,162.75,39.6069,42.6181,145.511,99.7123,94.3521,0.000738477,0.043987,21.0284,-338.55,0.488125,0.0,0.0
654,163.25,39.399,42.4961,148.766,99.7123,94.37,0.000763181,0.0440033,21.028,-338.55,0.48645,0.0,0.0
656,163.75,39.3778,42.3536,146.901,99.7019,93.9625,0.000777112,0.0440166,21.0277,-338.54,0.523756,0.0,0.0
658,164.25,39.2896,42.2817,152.663,99.6999,94.174,0.000788395,0.0441097,21.0275,-338.55,0.50372,0.0,0.0
660,164.75,39.2687,42.2683,149.986,99.6959,94.0441,0.000791456,0.0441851,21.0273,-338.55,0.515556,0.0,0.0
662,165.25,39.1642,42.3079,150.245,99.6979,93.9937,0.000793935,0.0442462,21.0271,-338.54,0.520467,0.0,0.0
664,165.75,39.3421,42.6788,147.473,99.6922,94.1636,0.000795943,0.0442956,21.027,-338.55,0.504021,0.0,0.0
666,166.25,39.1838,42.2145,151.07,99.6862,94.1111,0.000803648,0.0443221,21.0269,-338.56,0.50841,0.0,0.0
668,166.75,39.167,41.9674,148.475,99.7007,94.2356,0.00080989,0.0443435,21.0268,-338.56,0.498014,0.0,0.0
670,167.25,39.1576,42.0387,147.264,99.6906,94.1078,0.000817378,0.0443201,21.0267,-338.55,0.509113,0.0,0.0
672,167.75,38.8761,41.9611,150.948,99.6846,94.288,0.000823443,0.0443011,21.0267,-338.55,0.491677,0.0,0.0
674,168.25,39.342,41.9837,149.031,99.6778,94.0566,0.000818629,0.0442928,21.0269,-338.55,0.512784,0.0,0.0
676,168.75,39.2015,41.5069,148.265,99.6674,94.1503,0.000814729,0.0442926,21.0272,-338.54,0.503066,0.0,0.0
678,169.25,38.6973,41.6048,144.661,99.675,94.1702,0.000798201,0.0442924,21.0275,-338.55,0.501868,0.0,0.0
680,169.75,39.4055,41.1964,149.164,99.6605,94.0816,0.000784813,0.0442923,21.0278,-338.56,0.508908,0.0,0.0
682,170.25,38.8132,41.2915,146.253,99.6806,94.1706,0.000754624,0.0442921,21.028,-338.54,0.502327,0.0,0.0
684,170.75,38.6197,41.2085,150.179,99.6666,94.0437,0.00073017,0.0443329,21.0281,-338.55,0.513,0.0,0.0
686,171.25,38.3693,41.4489,144.69,99.6686,94.1174,0.000700138,0.0443659,21.0279,-338.56,0.506259,0.0,0.0
688,171.75,38.7169,41.4907,146.891,99.6702,94.241,0.000666609,0.0444198,21.0275,-338.54,0.494805,0.0,0.0
690,172.25,38.5916,41.611,146.146,99.6569,94.1294,0.000639451,0.0444635,21.0271,-338.55,0.504094,0.0,0.0
692,172.75,38.8778,41.5443,147.023,99.6545,94.0429,0.000604102,0.0444631,21.0268,-338.55,0.512012,0.0,0.0
694,173.25,38.4727,41.4941,149.695,99.6517,94.3109,0.000575469,0.0444305,21.0266,-338.55,0.486615,0.0,0.0
696,173.75,38.8395,41.4138,146.778,99.6529,94.0907,0.000558665,0.0444181,21.0264,-338.54,0.507372,0.0,0.0
698,174.25,38.5964,41.1176,147.518,99.6345,94.4629,0.000550802,0.0444206,21.0262,-338.54,0.470866,0.0,0.0
700,174.75,38.6897,41.1037,150.967,99.6341,93.9696,0.000556576,0.0444226,21.0261,-338.54,0.517081,0.0,0.0
702,175.25,38.6534,40.9483,149.482,99.6417,94.3014,0.00057218,0.0444243,21.026,-338.55,0.486623,0.0,0.0
704,175.75,38.5989,41.7122,148.414,99.6313,94.4312,0.00059761,0.0444256,21.0259,-338.54,0.47354,0.0,0.0
706,176.25,38.4548,41.5267,146.093,99.6389,94.2522,0.00062972,0.0444266,21.0259,-338.53,0.490978,0.0,0.0
708,176.75,38.5622,41.0002,147.729,99.6224,94.4341,0.000662126,0.0444275,21.0258,-338.55,0.472485,0.0,0.0
710,177.25,38.0392,41.0496,151.96,99.6281,94.226,0.000694134,0.0444497,21.0253,-338.55,0.492475,0.0,0.0
712,177.75,38.2203,40.8925,147.465,99.6016,94.1469,0.000716221,0.044487,21.0249,-338.55,0.497544,0.0,0.0
714,178.25,38.5046,40.6644,150.078,99.6112,94.0782,0.000730656,0.0445173,21.0246,-338.55,0.504845,0.0,0.0
716,178.75,38.1749,40.7773,149.061,99.5939,94.3405,0.000742349,0.0445418,21.0244,-338.55,0.478725,0.0,0.0
718,179.25,38.2622,40.6786,147.149,99.6112,94.1802,0.000739028,0.0445831,21.0242,-338.55,0.495275,0.0,0.0
720,179.75,38.1306,40.705,149.284,99.5907,94.1902,0.000724826,0.0446359,21.0244,-338.55,0.492523,0.0,0.0
722,180.25,38.5402,40.8801,147.373,99.6092,93.9109,0.000697344,0.0446931,21.0246,-338.56,0.520395,0.0,0.0
724,180.75,38.1035,40.7405,147.937,99.5767,94.1145,0.000660704,0.0447522,21.0248,-338.55,0.498385,0.0,0.0
726,181.25,38.3408,40.3177,149.042,99.5907,94.1915,0.000622035,0.0448002,21.025,-338.55,0.492405,0.0,0.0
728,181.75,38.2272,40.6556,143.73,99.5803,94.0537,0.000582621,0.044839,21.0253,-338.56,0.504412,0.0,0.0
730,182.25,38.1067,40.8699,151.778,99.5691,93.8501,0.000547502,0.0448704,21.0255,-338.55,0.522554,0.0,0.0
732,182.75,37.8226,40.4363,145.082,99.5562,94.3226,0.000516183,0.0448816,21.0257,-338.56,0.477055,0.0,0.0
734,183.25,38.198,40.4981,148.88,99.5586,94.3276,0.000490815,0.0448777,21.0258,-338.57,0.476801,0.0,0.0
736,183.75,37.8883,40.6091,152.128,99.5494,94.1548,0.000470266,0.0448745,21.0259,-338.55,0.492175,0.0,0.0
738,184.25,37.9205,40.2539,147.242,99.5546,94.0832,0.000460646,0.0449136,21.026,-338.56,0.499358,0.0,0.0
740,184.75,37.9593,40.5728,146.997,99.5294,93.7477,0.000459176,0.0449452,21.0261,-338.55,0.528674,0.0,0.0
742,185.25,37.9145,40.4834,146.542,99.5635,94.0362,0.000470124,0.0449435,21.0262,-338.57,0.50456,0.0,0.0
744,185.75,38.0797,40.4785,148.139,99.5273,93.9067,0.000489916,0.0449422,21.0262,-338.56,0.513525,0.0,0.0
746,186.25,37.451,39.8943,148.126,99.5358,94.2964,0.000505949,0.0449411,21.0263,-338.56,0.477695,0.0,0.0
748,186.75,37.7992,40.243,150.347,99.5189,94.0503,,0.0449403,,-338.57,0.499277,0.0,0.0
750,187.25,38.4098,40.2572,144.998,99.5281,94.0932,,0.0449396,,-338.56,0.496071,0.0,0.0
752,187.75,37.4675,40.1071,149.317,99.5025,94.129,,0.0449533,,-338.57,0.490431,0.0,0.0
754,188.25,37.5651,40.3814,149.247,99.5085,94.2885,,0.0449774,,-338.58,0.476014,0.0,0.0
756,188.75,37.5463,40.2496,148.224,99.492,94.1257,,0.0449968,,-338.56,0.489816,0.0,0.0
758,189.25,37.6151,40.2751,148.217,99.5021,93.965,,0.0450262,,-338.56,0.5058,0.0,0.0
760,189.75,38.1278,39.5334,148.418,99.4824,94.0508,,,,-338.57,0.495997,0.0,0.0
762,190.25,37.7504,40.2241,145.962,99.49,93.8934,,,,-338.57,0.511465,0.0,0.0
764,190.75,37.2958,40.0715,147.23,99.4784,93.8976,,,,-338.57,0.510041,0.0,0.0
766,191.25,37.6425,39.7458,149.24,99.4812,93.9388,,,,-338.56,0.506414,0.0,0.0
768,191.75,37.6172,40.017,148.493,99.4684,94.0866,,,,-338.57,0.491388,0.0,0.0
770,192.25,37.8026,39.6209,146.34,99.4732,93.9221,,,,-338.57,0.507267,0.0,0.0
772,192.75,37.7477,40.0342,147.384,99.4575,94.1103,,,,-338.57,0.488198,0.0,0.0
774,193.25,37.0928,39.459,149.151,99.4632,94.0046,,,,-338.55,0.498628,0.0,0.0
776,193.75,37.3294,39.4121,147.896,99.4427,93.9059,,,,-338.56,0.506086,0.0,0.0
778,194.25,36.9555,39.5488,148.952,99.4551,94.2764,,,,-338.57,0.472408,0.0,0.0
780,194.75,37.2542,39.6591,147.91,99.4282,93.9846,,,,-338.57,0.497404,0.0,0.0
782,195.25,37.2528,39.6324,148.49,99.4387,94.0229,,,,-338.57,0.494732,0.0,0.0
784,195.75,37.3504,39.585,146.211,99.4314,94.2223,,,,-338.59,0.475377,0.0,0.0
786,196.25,37.0246,39.9991,145.107,99.4343,94.1453,,,,-338.57,0.482849,0.0,0.0
788,196.75,37.2358,39.413,147.072,99.423,93.8514,,,,-338.58,0.509471,0.0,0.0
790,197.25,36.7041,38.9587,149.002,99.4218,93.7985,,,,-338.57,0.514341,0.0,0.0