File: 01_Data/XPS_Foam_Board/Cone/XPS_Foam_Insulation_Cone_HF50Scan_220412_R3.csv
Names,Time,Stack TC,Smoke TC,Exh Press,Smoke Comp,Smoke Meas,CO Meter,CO2 Meter,O2 Meter,Sample Mass,Ext Coeff,Start Test,Flame Verif
Chan Gain,,500,500,1,1,1,1,1,1,1,1,1.0,1.0
Offset,,0,0,0.134314,0,0,0,0,0,0,0,0.0,0.0
Gain,,1,1,25.011,13.1473,13.6402,1,1,1,1.00092,1.00708,1.0,1.0
Units,sec,C,C,Pa,%,%,%,%,%,g,/m,,
Baseline,,32.7655,33.663,149.829,99.1268,93.6474,0.000790007,0.0481737,21.0209,-834.384,0.50235,,
2,0.25,31.6004,32.8721,151.847,99.1036,93.5887,0.00103504,0.0579834,21.0084,-331.904,0.505805,0.0,0.0
4,0.75,31.0645,32.204,147.604,99.0852,93.418,0.00104355,0.057875,21.0085,-331.934,0.520284,0.0,0.0
6,1.25,31.3117,32.2081,151.266,99.1024,93.1083,0.00104596,0.0577093,21.0088,-331.964,0.551158,0.0,0.0
8,1.75,31.3172,31.8472,151.288,99.082,92.9972,0.00104387,0.0575752,21.009,-331.964,0.559886,0.0,0.0
10,2.25,31.3078,31.8483,148.804,99.094,93.13,0.00103834,0.0573434,21.0099,-331.984,0.548353,0.0,0.0
12,2.75,30.8259,32.0618,152.9,99.0808,93.326,0.0010304,0.0571557,21.0107,-331.984,0.528595,0.0,0.0
14,3.25,30.9153,31.8389,148.902,99.0996,92.7241,0.00102397,0.056949,21.0113,-332.004,0.587438,0.0,0.0
16,3.75,31.1182,32.0792,151.031,99.082,92.5493,0.00102123,0.0567815,21.0115,-332.014,0.602535,0.0,0.0
18,4.25,31.4163,32.2029,154.769,99.0968,92.1193,0.000998293,0.0566458,21.012,-332.034,0.644998,0.0,0.0
20,4.75,31.1446,32.3967,148.48,99.0836,91.6202,0.000979714,0.0566295,21.0123,-332.054,0.691811,0.0,0.0
22,5.25,31.4971,32.4067,151.387,99.0892,90.8364,0.000953719,0.0567006,21.0126,-332.064,0.768214,0.0,0.0
24,5.75,31.5513,32.6289,147.001,99.1061,90.3489,0.000932663,0.0567581,21.0128,-332.094,0.817249,0.0,0.0
26,6.25,31.5776,32.421,148.595,99.0944,90.4139,0.000910744,0.0569688,21.013,-332.114,0.809865,0.0,0.0
28,6.75,31.5028,32.3089,151.518,99.088,89.5164,0.00089235,0.0570587,21.0127,-332.124,0.897419,0.0,0.0
30,7.25,31.4306,32.5141,150.841,99.0988,90.0896,0.000876874,0.0572123,21.0125,-332.124,0.841998,0.0,0.0
32,7.75,31.5183,32.0797,151.985,99.0924,89.4594,0.000866772,0.0573778,21.0123,-332.154,0.903442,0.0,0.0
34,8.25,31.4798,32.5078,149.131,99.1077,89.72,0.000858588,0.0575406,21.0122,-332.104,0.879105,0.0,0.0
36,8.75,31.8015,32.5802,148.535,99.0928,88.467,0.000847481,0.0576985,21.012,-332.184,1.00202,0.0,0.0
38,9.25,31.5985,32.6612,150.833,99.0964,88.5582,0.000834453,0.0578696,21.0119,-332.174,0.993245,0.0,0.0
40,9.75,31.4682,32.0221,146.189,99.0828,89.4311,0.0008239,0.058047,21.0119,-332.194,0.905379,0.0,0.0
42,10.25,31.8103,32.6791,148.875,99.0992,89.113,0.000815992,0.0582628,21.0113,-332.204,0.938316,0.0,0.0
44,10.75,31.5213,32.7397,154.82,99.0944,89.009,0.000810162,0.0585025,21.0105,-332.214,0.948209,0.0,0.0
46,11.25,31.7078,32.7718,147.16,99.096,89.0102,0.000807677,0.0586966,21.0101,-332.224,0.948228,0.0,0.0
48,11.75,31.6395,32.5146,146.107,99.0683,89.1863,0.000877654,0.0590729,21.0091,-332.224,0.928303,0.0,0.0
50,12.25,32.0387,33.2911,149.473,99.098,88.8679,0.000934336,0.0593777,21.0078,-332.234,0.962548,0.0,0.0
52,12.75,31.7149,32.093,147.575,99.0868,87.9949,0.00126271,0.0604884,21.006,-332.234,1.04875,0.0,0.0
54,13.25,31.8862,32.6919,152.192,99.0988,87.0255,0.00152869,0.061388,21.004,-332.254,1.14769,0.0,0.0
56,13.75,32.4826,33.255,147.595,99.0848,88.0091,0.00194674,0.0654993,20.9956,-332.264,1.04715,0.0,0.0
58,14.25,31.6472,32.732,152.312,99.0968,87.6757,0.00246771,0.0688544,20.9828,-332.394,1.08175,0.0,0.0
60,14.75,31.8597,32.8125,144.824,99.0804,88.1294,0.00338399,0.0745915,20.9608,-332.384,1.03469,0.0,0.0
62,15.25,32.2268,33.1044,142.196,99.0968,86.3282,0.00412618,0.0912103,20.9326,-332.384,1.21857,0.0,1.0
64,15.75,32.0863,32.661,136.593,99.0784,76.2105,0.00522552,0.104672,20.8951,-332.474,2.31815,0.0,1.0
66,16.25,32.0879,32.5155,141.484,99.0968,72.3288,0.00611599,0.125519,20.8516,-332.525,2.78161,0.0,1.0
68,16.75,32.1567,32.8963,131.656,99.0936,61.1105,0.00683727,0.151356,20.8164,-332.635,4.2702,0.0,1.0
70,17.25,32.7164,33.1197,137.064,99.1,63.4362,0.00804738,0.178208,20.7795,-332.635,3.94082,0.0,1.0
72,17.75,32.3557,33.1805,135.717,99.084,61.6725,0.00902756,0.205288,20.7421,-332.705,4.18848,0.0,1.0
74,18.25,32.8871,33.9631,136.051,99.0924,61.6313,0.00963609,0.230942,20.7262,-332.745,4.19514,0.0,1.0
76,18.75,33.0595,33.8418,137.724,99.0976,69.062,0.0106767,0.255067,20.6901,-332.805,3.18998,0.0,1.0
78,19.25,34.1056,34.3662,131.639,99.1057,60.1377,0.0117036,0.277394,20.6609,-332.815,4.41304,0.0,1.0
80,19.75,34.0797,34.0767,139.872,99.0896,67.2325,0.0131264,0.297986,20.6171,-332.865,3.42643,0.0,1.0
82,20.25,34.0004,34.2953,141.123,99.0908,63.79,0.0136829,0.314666,20.6054,-332.935,3.89086,0.0,1.0
84,20.75,34.1972,34.1883,134.463,99.0804,56.6665,0.0146345,0.331007,20.5798,-332.985,4.936,0.0,0.0
86,21.25,34.3326,34.7846,133.62,99.0944,63.4778,0.0154053,0.339315,20.5542,-333.015,3.93453,0.0,0.0
88,21.75,34.8421,35.2056,137.034,99.082,63.8887,0.0165902,0.353521,20.5263,-333.085,3.87642,0.0,0.0
90,22.25,34.8519,35.5027,131.814,99.0928,63.2955,0.01755,0.372664,20.4973,-333.115,3.95979,0.0,0.0
92,22.75,35.5426,36.3347,131.272,99.0848,55.6641,0.019021,0.399767,20.4737,-333.195,5.09406,0.0,0.0
94,23.25,36.0687,36.4229,132.436,99.0804,50.7072,0.0202126,0.410203,20.4353,-333.275,5.91759,0.0,0.0
96,23.75,36.1598,36.883,128.193,99.0896,52.6395,0.0211777,0.428049,20.4041,-333.325,5.58803,0.0,0.0
98,24.25,36.4146,37.2599,129.994,99.0872,49.0326,0.0233049,0.456228,20.3789,-333.405,6.21487,0.0,0.0
100,24.75,36.7308,37.6265,131.592,99.0868,49.9488,0.0250279,0.479053,20.3464,-333.475,6.05129,0.0,0.0
102,25.25,37.552,38.3115,123.608,99.0972,48.715,0.0264235,0.514247,20.3093,-333.575,6.27317,0.0,0.0
104,25.75,38.2394,38.5526,124.037,99.0828,40.8526,0.0284424,0.542754,20.2792,-333.605,7.82682,0.0,0.0
106,26.25,38.9721,39.388,123.854,99.09,38.507,0.0308773,0.565844,20.2348,-333.696,8.34984,0.0,0.0
108,26.75,39.2163,39.8288,121.308,99.0784,39.6617,0.0334333,0.612317,20.1989,-333.826,8.08779,0.0,0.0
110,27.25,39.7677,40.3322,118.951,99.0752,38.2151,0.0360289,0.64996,20.1297,-333.886,8.41571,0.0,0.0
112,27.75,40.7158,40.9034,123.026,99.0812,38.9095,0.0387553,0.680451,20.0736,-334.016,8.25718,0.0,0.0
114,28.25,41.3715,41.9888,123.044,99.0768,37.7523,0.0415252,0.726491,19.9753,-334.146,8.52351,0.0,0.0
116,28.75,42.1318,42.5243,118.206,99.0784,42.2617,0.044356,0.782991,19.8956,-334.216,7.52687,0.0,0.0
118,29.25,42.9257,43.6997,110.867,99.088,36.7054,0.0471774,0.840514,19.8065,-334.346,8.77295,0.0,0.0
120,29.75,44.0507,44.3061,107.367,99.0772,34.4475,0.0494627,0.89769,19.7121,-334.466,9.33282,0.0,0.0
122,30.25,44.9453,45.1455,106.067,99.0724,31.8946,0.0526294,0.955927,19.6176,-334.606,10.0126,0.0,0.0
124,30.75,46.0487,46.8845,102.174,99.0756,31.9537,0.0551944,1.01383,19.5247,-334.727,9.99655,0.0,0.0
126,31.25,47.0871,47.7683,114.72,99.0715,34.0804,0.0572721,1.06073,19.4495,-334.857,9.42697,0.0,0.0
128,31.75,48.1746,48.8006,109.471,99.0748,33.5825,0.060376,1.12139,19.372,-334.937,9.55726,0.0,0.0
130,32.25,49.4964,50.2504,104.595,99.0888,30.6266,0.0628902,1.17052,19.2942,-335.107,10.3724,0.0,0.0
132,32.75,50.8383,51.6152,101.256,99.086,31.905,0.0659475,1.23287,19.2128,-335.217,10.011,0.0,0.0
134,33.25,52.1189,52.9262,104.191,99.0683,29.2717,0.068424,1.28337,19.1304,-335.397,10.7704,0.0,0.0
136,33.75,53.4017,54.5181,98.2677,99.0768,28.86,0.0709448,1.33567,19.0637,-335.557,10.8962,0.0,0.0
138,34.25,54.3094,55.6757,94.6223,99.0695,27.1125,0.07345,1.38829,18.9827,-335.567,11.4474,0.0,0.0
140,34.75,56.0533,57.2815,99.3813,99.0675,27.0422,0.0760873,1.43091,18.9051,-335.818,11.4701,0.0,0.0
142,35.25,57.3093,58.7103,102.526,99.0551,32.2051,0.0782234,1.48162,18.8313,-335.948,9.92548,0.0,0.0
144,35.75,58.4793,60.2251,102.865,99.0659,29.7192,0.0802799,1.52268,18.7713,-336.128,10.6361,0.0,0.0
146,36.25,60.0408,61.596,101.336,99.0623,31.0308,0.0819457,1.56357,18.7225,-336.218,10.2543,0.0,0.0
148,36.75,61.2954,63.8458,93.6728,99.0671,27.5763,0.0833198,1.59668,18.683,-336.398,11.2973,0.0,0.0
150,37.25,62.9087,65.1671,106.013,99.0539,28.4871,0.0844328,1.6246,18.651,-336.498,11.0091,0.0,0.0
152,37.75,64.7578,66.9712,98.8898,99.0627,29.4594,0.0850839,1.6482,18.625,-336.648,10.7134,0.0,0.0
154,38.25,65.5665,68.469,100.461,99.0539,29.0965,0.0852429,1.66436,18.614,-336.688,10.8221,0.0,0.0
156,38.75,67.3313,69.6683,93.1896,99.0671,23.797,0.0855149,1.67479,18.5951,-336.858,12.5994,0.0,0.0
158,39.25,68.0566,71.2806,106.302,99.0583,29.2201,0.0851252,1.67294,18.5879,-336.989,10.785,0.0,0.0
160,39.75,69.0553,72.6924,102.886,99.0615,29.1335,0.0848096,1.67144,18.5894,-337.099,10.8116,0.0,0.0
162,40.25,70.6557,74.1723,100.799,99.0387,28.9058,0.0836257,1.66228,18.6001,-337.219,10.8788,0.0,0.0
164,40.75,71.5855,75.6607,117.97,99.0531,33.4781,0.0826668,1.6477,18.6174,-337.329,9.58286,0.0,0.0
166,41.25,72.8575,76.7728,108.938,99.0298,33.6337,0.0810124,1.64148,18.6492,-337.389,9.53979,0.0,0.0
168,41.75,74.1418,78.481,101.06,99.0667,33.451,0.0796724,1.6128,18.6911,-337.559,9.59121,0.0,0.0
170,42.25,74.9515,79.0988,106.11,99.0411,34.9167,0.0776675,1.58956,18.7408,-337.689,9.2101,0.0,0.0
172,42.75,76.1426,80.6394,106.768,99.0563,37.7552,0.0760436,1.55227,18.7953,-337.789,8.52101,0.0,0.0
174,43.25,76.8091,81.1992,107.554,99.0447,39.111,0.073818,1.52206,18.8573,-337.919,8.20831,0.0,0.0
176,43.75,77.6915,82.6235,111.781,99.0563,36.6171,0.0720153,1.48496,18.9236,-337.949,8.79139,0.0,0.0
178,44.25,78.3618,82.5826,109.829,99.0407,37.2336,0.0705551,1.44355,18.9773,-338.04,8.6425,0.0,0.0
180,44.75,79.3071,83.913,111.85,99.0435,36.9893,0.0679085,1.40015,19.0208,-338.13,8.70092,0.0,0.0
182,45.25,79.3268,84.6594,105.506,99.037,36.2641,0.0657647,1.35611,19.0834,-338.23,8.87525,0.0,0.0
184,45.75,79.705,84.994,123.058,99.0483,33.5126,0.0635065,1.30259,19.1478,-338.27,9.57331,0.0,0.0
186,46.25,79.9677,86.0105,115.332,99.037,37.997,0.0612078,1.25924,19.2123,-338.43,8.46288,0.0,0.0
188,46.75,80.3168,85.7561,116.754,99.0483,39.9189,0.058414,1.21324,19.2645,-338.48,8.02799,0.0,0.0
190,47.25,80.1422,86.4869,117.692,99.0298,44.8841,0.0561511,1.16619,19.3205,-338.51,6.9907,0.0,0.0
192,47.75,80.9822,87.0822,123.142,99.0499,52.3885,0.0543181,1.12807,19.3782,-338.55,5.62671,0.0,0.0
194,48.25,81.1322,87.9845,124.975,99.0242,46.8805,0.051548,1.08449,19.4443,-338.63,6.60575,0.0,0.0
196,48.75,81.7787,86.8278,123.876,99.0399,46.2062,0.0493042,1.03774,19.5153,-338.68,6.73515,0.0,0.0
198,49.25,81.6493,87.3418,126.546,99.0282,47.7717,0.0467744,0.992599,19.5856,-338.77,6.43975,0.0,0.0
200,49.75,81.7795,87.9171,125.622,99.0342,45.3249,0.0447253,0.949494,19.654,-338.82,6.90475,0.0,0.0
202,50.25,81.7208,87.5853,123.541,99.0326,48.0864,0.0423714,0.91458,19.7094,-338.86,6.38214,0.0,0.0
204,50.75,82.165,88.0341,128.069,99.0294,51.5493,0.0404647,0.876482,19.7754,-338.91,5.76754,0.0,0.0
206,51.25,82.5194,87.5532,132.069,99.0274,52.4443,0.0389203,0.836789,19.8289,-338.92,5.61531,0.0,0.0
208,51.75,82.2999,88.0388,124.784,99.0306,53.184,0.0370875,0.799408,19.8722,-338.96,5.49186,0.0,0.0
210,52.25,81.5882,88.2285,128.281,99.0186,54.0698,0.0350792,0.764425,19.9285,-339.03,5.34487,0.0,0.0
212,52.75,81.6781,88.0407,129.521,99.0234,51.6288,0.0331267,0.731096,19.974,-339.101,5.75339,0.0,0.0
214,53.25,81.285,88.1966,128.161,99.0178,57.1439,0.0312521,0.699608,20.0262,-339.091,4.8563,0.0,0.0
216,53.75,81.11,87.7083,134.208,99.015,61.0564,0.0294146,0.674102,20.0685,-339.141,4.27102,0.0,0.0
218,54.25,81.4751,87.5272,134.797,99.0122,57.8678,0.0276392,0.641212,20.119,-339.191,4.74459,0.0,0.0
220,54.75,80.7833,87.4762,136.538,99.0106,66.9291,0.0262011,0.614572,20.1599,-339.221,3.45935,0.0,0.0
222,55.25,80.7493,87.807,134.023,99.0061,63.0108,0.0246928,0.587643,20.2031,-339.221,3.99189,0.0,0.0
224,55.75,80.9164,87.4453,135.067,99.0078,61.0239,0.0231619,0.561016,20.247,-339.271,4.27507,0.0,0.0
226,56.25,81.0821,86.6797,132.284,98.9881,66.1382,0.0214284,0.539448,20.2897,-339.311,3.56236,0.0,0.0
228,56.75,80.8214,86.1514,132.21,98.9973,72.3372,0.0200242,0.514272,20.3308,-339.291,2.77172,0.0,0.0
230,57.25,80.2701,86.0239,135.561,98.9885,71.9292,0.0184981,0.493879,20.3702,-339.321,2.82089,0.0,0.0
232,57.75,79.7754,86.2512,139.23,99.007,73.0806,0.017262,0.468649,20.4075,-339.311,2.68225,0.0,0.0
234,58.25,79.627,85.9645,140.104,98.9921,71.7178,0.0162608,0.448212,20.4377,-339.371,2.84722,0.0,0.0
236,58.75,79.3701,85.7997,131.817,98.9853,71.2453,0.0150025,0.426854,20.4709,-339.351,2.905,0.0,0.0
238,59.25,78.6583,85.2694,139.422,98.9853,77.4006,0.0139832,0.405229,20.5058,-339.361,2.17297,0.0,0.0
240,59.75,77.6676,85.0958,139.024,98.9897,78.2727,0.012898,0.383706,20.5403,-339.371,2.07438,0.0,0.0
242,60.25,78.021,85.261,143.551,98.9893,78.9137,0.012019,0.362668,20.5739,-339.341,2.00229,0.0,0.0
244,60.75,78.0528,84.7202,139.746,98.9676,81.7373,0.0111937,0.341155,20.6012,-339.401,1.6898,0.0,0.0
246,61.25,77.4418,83.7682,141.124,98.9712,83.5397,0.0104232,0.319705,20.6338,-339.381,1.49744,0.0,0.0
248,61.75,77.1484,83.8121,139.605,98.9612,86.779,0.00968513,0.302331,20.6602,-339.361,1.16046,0.0,0.0
250,62.25,76.7734,84.0458,143.752,98.9708,87.7131,0.00898465,0.280857,20.694,-339.371,1.06674,0.0,0.0
252,62.75,76.4897,83.4314,141.475,98.9749,88.3051,0.00833465,0.263464,20.7213,-339.361,1.00768,0.0,0.0
254,63.25,76.1234,82.8433,143.685,98.9576,88.5365,0.00773379,0.246369,20.752,-339.371,0.98302,0.0,0.0
256,63.75,75.8073,82.2907,145.537,98.9528,90.2436,0.00717004,0.229817,20.7768,-339.371,0.81388,0.0,0.0
258,64.25,75.1785,82.0209,141.581,98.9508,91.0199,0.00664405,0.213677,20.8044,-339.371,0.73803,0.0,0.0
260,64.75,74.9215,81.3822,142.363,98.9428,91.6452,0.006218,0.198146,20.8268,-339.371,0.676839,0.0,0.0
262,65.25,74.5645,81.2261,143.009,98.9424,92.0065,0.0058729,0.185565,20.8449,-339.381,0.642042,0.0,0.0
264,65.75,74.4262,80.6035,146.234,98.9391,92.5118,0.00540068,0.171418,20.8624,-339.381,0.593369,0.0,0.0
266,66.25,73.9169,80.0998,144.525,98.958,92.8732,0.00501818,0.159959,20.879,-339.371,0.560616,0.0,0.0
268,66.75,73.3917,79.5804,147.291,98.9335,92.8607,0.00460623,0.147941,20.8946,-339.381,0.559619,0.0,0.0
270,67.25,73.2289,79.5626,145.482,98.9395,93.0147,0.00427256,0.138206,20.9091,-339.381,0.545515,0.0,0.0
272,67.75,72.7172,78.9174,144.962,98.9391,93.2116,0.00391392,0.129,20.922,-339.381,0.526801,0.0,0.0
274,68.25,72.4787,78.4588,149.303,98.9283,93.0663,0.00362343,0.120353,20.9335,-339.391,0.539613,0.0,0.0
276,68.75,71.9749,77.9974,148.545,98.9223,93.5346,0.00332078,0.11335,20.9444,-339.411,0.494734,0.0,0.0
278,69.25,71.0606,77.771,146.202,98.9239,93.2528,0.00307563,0.105828,20.9547,-339.391,0.521534,0.0,0.0
280,69.75,70.7505,76.9784,147.809,98.9207,93.3548,0.00282082,0.099735,20.9631,-339.381,0.511591,0.0,0.0
282,70.25,69.7155,76.2749,149.765,98.9424,93.3652,0.00261443,0.0938918,20.9706,-339.371,0.512541,0.0,0.0
284,70.75,69.708,76.1985,141.995,98.8982,93.7386,0.00244725,0.0891589,20.9772,-339.341,0.473341,0.0,0.0
286,71.25,69.0743,75.6499,147.713,98.9087,93.4738,0.00226422,0.0847346,20.9826,-339.371,0.499258,0.0,0.0
288,71.75,68.9858,74.8856,149.455,98.9026,93.6337,0.00211597,0.081151,20.9864,-339.361,0.483627,0.0,0.0
290,72.25,68.5834,74.8323,147.41,98.9083,93.4855,0.00199589,0.0777818,20.9895,-339.361,0.498121,0.0,0.0
292,72.75,68.465,74.2974,146.15,98.887,93.6133,0.00186569,0.0750527,20.9924,-339.361,0.484153,0.0,0.0
294,73.25,67.8248,74.3879,145.347,98.8914,93.6532,0.00176024,0.0728422,20.9952,-339.361,0.480778,0.0,0.0
296,73.75,67.3067,73.7527,150.912,98.8986,93.4372,0.00166519,0.0705582,20.9975,-339.351,0.501824,0.0,0.0
298,74.25,66.8317,73.3585,147.954,98.8918,93.3793,0.00157955,0.0687082,20.9993,-339.371,0.506687,0.0,0.0
300,74.75,66.4859,73.0085,150.226,98.8774,93.1595,0.00150249,0.0672098,21.0008,-339.391,0.526214,0.0,0.0
302,75.25,65.3864,72.5818,145.068,98.8854,93.2245,0.00143314,0.0656263,21.0024,-339.381,0.520775,0.0,0.0
304,75.75,65.7116,72.097,148.38,98.8733,93.2965,0.00137185,0.0643437,21.0037,-339.381,0.512879,0.0,0.0
306,76.25,65.5996,71.623,146.307,98.8858,93.3968,0.00131758,0.0631607,21.0053,-339.381,0.504497,0.0,0.0
308,76.75,64.6019,71.4915,144.592,98.8625,93.3827,0.0012685,0.0620729,21.0065,-339.381,0.503756,0.0,0.0
310,77.25,64.9175,71.4842,152.119,98.8886,93.2965,0.00122414,0.0611125,21.0075,-339.391,0.514241,0.0,0.0
312,77.75,64.3843,70.8812,146.557,98.8657,93.8376,0.0011882,0.0602634,21.0083,-339.381,0.461106,0.0,0.0
314,78.25,63.7677,69.8661,145.99,98.8681,93.3019,0.0011457,0.059482,21.0092,-339.391,0.5119,0.0,0.0
316,78.75,63.9037,70.1003,144.513,98.8669,93.3648,0.00111128,0.0587649,21.0101,-339.391,0.505844,0.0,0.0
318,79.25,63.4248,69.4283,149.819,98.8597,93.6158,0.00107251,0.058184,21.0109,-339.391,0.48148,0.0,0.0
320,79.75,62.9968,69.4893,146.198,98.8425,93.4151,0.00103132,0.0574812,21.0115,-339.381,0.498892,0.0,0.0
322,80.25,62.6938,69.0326,147.437,98.8392,93.6924,0.000993472,0.0569119,21.012,-339.391,0.472426,0.0,0.0
324,80.75,61.9908,68.9481,147.279,98.834,93.2699,0.000958783,0.0562868,21.0124,-339.401,0.511888,0.0,0.0
326,81.25,61.7966,68.0266,145.205,98.8433,93.3664,0.000930685,0.0557805,21.0127,-339.391,0.503571,0.0,0.0
328,81.75,61.4061,67.49,148.534,98.8296,93.3273,0.000898201,0.0552841,21.0134,-339.381,0.506054,0.0,0.0
330,82.25,60.9967,67.7767,150.096,98.8372,93.3893,0.000871889,0.0548044,21.0144,-339.391,0.500867,0.0,0.0
332,82.75,61.3807,67.4971,146.34,98.82,93.4051,0.00083721,0.0544158,21.0152,-339.391,0.497829,0.0,0.0
334,83.25,61.2351,67.2504,146.219,98.8284,93.4642,0.000822425,0.0539646,21.0159,-339.391,0.492993,0.0,0.0
336,83.75,60.7854,66.7941,150.459,98.812,93.2449,0.000793946,0.053599,21.0162,-339.401,0.512281,0.0,0.0
338,84.25,60.8354,66.5919,148.663,98.8244,93.381,0.000768001,0.053221,21.0166,-339.381,0.500507,0.0,0.0
340,84.75,59.7378,66.0167,147.004,98.8092,93.771,0.000748904,0.0529149,21.017,-339.401,0.462322,0.0,0.0
342,85.25,59.8481,65.9217,148.454,98.8043,93.4068,0.000729303,0.0525951,21.0181,-339.391,0.496272,0.0,0.0
344,85.75,59.3587,65.8649,152.336,98.8108,93.9717,0.00072403,0.0522713,21.0184,-339.381,0.443584,0.0,0.0
346,86.25,58.9876,65.3337,148.619,98.8015,93.3519,0.000715014,0.0521333,21.0189,-339.391,0.501219,0.0,0.0
348,86.75,58.4415,64.548,144.547,98.7779,93.4572,0.000716216,0.0517882,21.0193,-339.411,0.489141,0.0,0.0
350,87.25,59.0582,64.7165,149.303,98.7931,93.5916,0.000721027,0.0515086,21.0196,-339.411,0.477804,0.0,0.0
352,87.75,58.4292,64.5747,148.097,98.7754,93.3831,0.000728378,0.051214,21.0199,-339.411,0.495932,0.0,0.0
354,88.25,58.1402,64.3891,143.983,98.7867,93.6653,0.000740731,0.0508735,21.0201,-339.411,0.470279,0.0,0.0
356,88.75,58.0466,64.3367,147.657,98.7634,93.3306,0.000756495,0.0507245,21.0203,-339.411,0.49982,0.0,0.0
358,89.25,57.623,62.6537,147.929,98.7787,93.4976,0.000775665,0.0504697,21.0204,-339.401,0.485397,0.0,0.0
360,89.75,57.6321,63.5914,147.27,98.7706,93.3976,0.000796952,0.0502633,21.021,-339.411,0.494124,0.0,0.0
362,90.25,56.6455,63.1201,148.106,98.7726,93.3169,0.000821237,0.0500416,21.0214,-339.391,0.501945,0.0,0.0
364,90.75,57.0165,62.6149,141.99,98.7446,93.3198,0.000847246,0.049862,21.0218,-339.401,0.499156,0.0,0.0
366,91.25,56.8178,62.8949,146.369,98.7558,93.3714,0.000867034,0.0496893,21.0221,-339.411,0.495278,0.0,0.0
368,91.75,56.6696,61.9066,150.028,98.7301,93.351,0.000881909,0.0495493,21.0223,-339.401,0.49491,0.0,0.0
370,92.25,56.2546,62.0332,143.621,98.7446,93.2524,0.000893957,0.0493542,21.0225,-339.401,0.505543,0.0,0.0
372,92.75,56.0668,61.9616,145.569,98.7245,93.3194,0.000880679,0.0491746,21.0227,-339.401,0.497402,0.0,0.0
374,93.25,55.9425,61.6393,144.992,98.7337,93.1591,0.000849189,0.0490097,21.0228,-339.421,0.513412,0.0,0.0
376,93.75,55.511,61.3944,144.679,98.7221,93.3273,0.000823683,0.0488475,21.0229,-339.431,0.496437,0.0,0.0
378,94.25,54.7897,61.0987,150.328,98.7253,93.3036,0.000774264,0.0486903,21.023,-339.421,0.498971,0.0,0.0
380,94.75,54.7512,60.5252,149.443,98.7088,93.2773,0.000708352,0.0485629,21.023,-339.431,0.499982,0.0,0.0
382,95.25,54.9728,60.9604,145.463,98.7109,93.3569,0.000654963,0.0484052,21.0231,-339.421,0.492635,0.0,0.0
384,95.75,54.8701,60.7552,148.724,98.6988,93.1071,0.000588673,0.0482775,21.0231,-339.401,0.515224,0.0,0.0
386,96.25,53.9605,60.3693,146.743,98.702,93.2661,0.000534978,0.048174,21.0232,-339.391,0.500437,0.0,0.0
388,96.75,54.0328,59.8782,145.568,98.6832,93.192,0.000484211,0.0480902,21.0232,-339.391,0.505769,0.0,0.0
390,97.25,54.005,59.8465,145.818,98.6892,93.2012,0.000443089,0.0479814,21.0232,-339.401,0.50544,0.0,0.0
392,97.75,54.0443,59.7302,145.463,98.6792,93.4468,0.000425544,0.0478933,21.0233,-339.391,0.481294,0.0,0.0
394,98.25,53.477,59.1747,146.058,98.6832,93.3972,0.000411332,0.047822,21.0233,-339.401,0.486337,0.0,0.0
396,98.75,53.0778,58.4648,144.879,98.6639,93.289,0.000411315,0.0477642,21.0233,-339.401,0.494856,0.0,0.0
398,99.25,53.098,59.135,144.462,98.6747,93.5958,0.000421645,0.0477174,21.0237,-339.401,0.466822,0.0,0.0
400,99.75,53.1239,58.9755,147.823,98.6655,93.3627,0.000430013,0.0476794,21.0241,-339.401,0.488025,0.0,0.0
402,100.25,53.2216,58.4581,149.422,98.6619,93.1354,0.000452569,0.0476272,21.0244,-339.401,0.509233,0.0,0.0
404,100.75,53.1631,58.4953,144.775,98.6627,93.3527,0.00047084,0.0475655,21.0246,-339.401,0.488719,0.0,0.0
406,101.25,52.7194,58.0058,143.978,98.6527,93.2316,0.000491711,0.0475084,21.0248,-339.411,0.499291,0.0,0.0
408,101.75,52.3428,57.97,146.507,98.6559,92.9855,0.000508617,0.0474557,21.025,-339.401,0.522921,0.0,0.0
410,102.25,52.304,57.7914,148.473,98.6438,93.0925,0.000530811,0.0474129,21.0251,-339.401,0.511684,0.0,0.0
412,102.75,52.0717,57.5331,147.871,98.6418,93.4534,0.000548788,0.047392,21.0252,-339.411,0.477323,0.0,0.0
414,103.25,51.9675,57.5367,147.975,98.6406,93.1383,0.000569743,0.047375,21.0253,-339.411,0.507053,0.0,0.0
416,103.75,51.9021,57.1672,144.683,98.637,93.0505,0.000592471,0.0473612,21.0254,-339.401,0.515064,0.0,0.0
418,104.25,51.674,56.7642,148.023,98.6294,93.3032,0.000616637,0.0473501,21.0254,-339.401,0.490426,0.0,0.0
420,104.75,51.5948,56.9049,150.441,98.6294,93.1774,0.000641391,0.0473267,21.0255,-339.411,0.502337,0.0,0.0
422,105.25,51.4254,56.6917,144.663,98.6274,92.9743,0.000662082,0.0472949,21.0255,-339.401,0.521437,0.0,0.0
424,105.75,51.4435,56.7246,146.915,98.6314,93.0784,0.000679417,0.0472619,21.0255,-339.401,0.511914,0.0,0.0
426,106.25,51.1934,56.6841,145.985,98.6286,93.1558,0.000693459,0.0472287,21.0256,-339.401,0.504317,0.0,0.0
428,106.75,50.5683,56.407,142.683,98.6178,93.4896,0.000692682,0.0471875,21.0256,-339.381,0.471745,0.0,0.0
430,107.25,50.632,55.7073,148.448,98.6049,93.4896,0.000681118,0.0471413,21.0256,-339.381,0.470594,0.0,0.0
432,107.75,50.2107,55.7662,149.197,98.6146,93.3868,0.000671752,0.0471038,21.0256,-339.391,0.481177,0.0,0.0
434,108.25,50.2126,55.3699,146.249,98.6017,93.2424,0.000627744,0.0470053,21.0256,-339.391,0.493702,0.0,0.0
436,108.75,50.2011,55.3489,150.622,98.617,92.9593,0.000608983,0.0469255,21.0256,-339.391,0.521926,0.0,0.0
438,109.25,49.838,55.2837,148.164,98.6005,93.0992,0.000558706,0.0468745,21.0256,-339.391,0.507171,0.0,0.0
440,109.75,49.7852,54.9926,144.058,98.6065,93.202,0.000517981,0.0468332,21.0256,-339.391,0.497959,0.0,0.0
442,110.25,49.632,54.9921,143.821,98.5973,93.1441,0.000488632,0.0467997,21.0256,-339.401,0.502619,0.0,0.0
444,110.75,49.8102,54.5196,148.792,98.5949,92.9547,0.000464859,0.0467862,21.0256,-339.411,0.520384,0.0,0.0
446,111.25,49.4142,54.6762,145.801,98.5977,93.2291,0.000475939,0.0467753,21.0256,-339.401,0.494604,0.0,0.0
448,111.75,49.0305,54.358,145.226,98.6061,93.2295,0.000484914,0.0467635,21.0256,-339.401,0.49532,0.0,0.0
450,112.25,49.2262,54.5626,147.181,98.5949,93.1367,0.000531051,0.0467433,21.0256,-339.411,0.503114,0.0,0.0
452,112.75,48.9755,53.6583,146.353,98.6037,93.1483,0.000568422,0.0467269,21.0256,-339.411,0.502798,0.0,0.0
454,113.25,48.5478,53.9609,145.661,98.6065,92.9989,0.000598692,0.0467136,21.0256,-339.401,0.517234,0.0,0.0
456,113.75,48.6943,53.2974,147.544,98.6077,93.0068,0.000662119,0.0466957,21.0256,-339.421,0.516591,0.0,0.0
458,114.25,48.238,53.3748,150.436,98.5997,93.1446,0.000713495,0.0466748,21.0256,-339.421,0.502794,0.0,0.0
460,114.75,48.4955,52.9384,150.329,98.6146,93.2786,0.000758951,0.0466578,21.0256,-339.421,0.491422,0.0,0.0
462,115.25,47.8683,52.6921,147.633,98.625,93.6312,0.000799228,0.046644,21.0256,-339.441,0.459028,0.0,0.0
464,115.75,47.9948,53.0016,145.973,98.6362,93.0634,0.000829291,0.0466257,21.0256,-339.431,0.513767,0.0,0.0
466,116.25,47.7616,52.5592,148.32,98.6374,93.259,0.000851338,0.0466044,21.0256,-339.411,0.495323,0.0,0.0
468,116.75,47.749,53.1229,146.228,98.6543,93.4247,0.000869195,0.0465872,21.0256,-339.421,0.481152,0.0,0.0
470,117.25,47.3161,52.4623,142.698,98.6451,92.8827,0.000883659,0.0465875,21.0256,-339.411,0.531723,0.0,0.0
472,117.75,47.4621,52.7952,147.363,98.6912,93.3277,0.000901459,0.0466008,21.0256,-339.401,0.493634,0.0,0.0
474,118.25,47.3529,52.192,146.953,98.6627,93.2886,0.000915876,0.0466115,21.0259,-339.401,0.494787,0.0,0.0
476,118.75,47.5275,51.9126,147.168,98.6928,93.5084,0.000926274,0.0466338,21.0261,-339.401,0.476693,0.0,0.0
478,119.25,47.3107,51.5841,144.096,98.6896,93.3914,0.000933543,0.0466518,21.0263,-339.411,0.487462,0.0,0.0
480,119.75,47.3037,51.9936,146.536,98.6972,93.3673,0.000939431,0.0466664,21.0264,-339.401,0.49043,0.0,0.0
482,120.25,47.1518,51.6667,147.102,98.7016,93.2798,0.000930819,0.0466919,21.0265,-339.391,0.499099,0.0,0.0
484,120.75,46.4573,51.4375,146.625,98.7305,93.4788,0.000923843,0.0467125,21.0266,-339.401,0.48286,0.0,0.0
486,121.25,46.621,51.4095,146.479,98.7353,93.3847,0.000906673,0.0467436,21.0267,-339.401,0.492187,0.0,0.0
488,121.75,46.6329,51.1099,149.686,98.7654,93.1637,0.000882398,0.0467817,21.0267,-339.391,0.515813,0.0,0.0
490,122.25,46.046,50.8854,147.14,98.7662,93.2328,0.000856339,0.0468125,21.0268,-339.401,0.509335,0.0,0.0
492,122.75,46.5191,50.5064,145.844,98.7835,93.5046,0.000829474,0.0467966,21.0268,-339.401,0.485159,0.0,0.0
494,123.25,45.8184,50.6717,145.978,98.7779,93.3048,0.000794288,0.0467837,21.0268,-339.401,0.503555,0.0,0.0
496,123.75,45.8851,50.9006,145.3,98.8051,93.3618,0.000753703,0.0467804,21.0269,-339.411,0.500596,0.0,0.0
498,124.25,45.8923,50.6404,145.373,98.8192,93.4389,0.00072083,0.0467843,21.0269,-339.401,0.494568,0.0,0.0
500,124.75,45.6623,50.0086,144.438,98.8525,93.4892,0.000655366,0.0467873,21.0269,-339.401,0.492785,0.0,0.0
502,125.25,45.8573,50.505,142.997,98.8417,93.4376,0.00060234,0.046749,21.0269,-339.411,0.496695,0.0,0.0
504,125.75,46.2298,49.8864,146.562,98.8721,93.6886,0.000525441,0.0467179,21.0269,-339.421,0.47572,0.0,0.0
506,126.25,45.7473,49.8771,146.813,98.8721,93.2561,0.000463152,0.0466927,21.0269,-339.421,0.516595,0.0,0.0
508,126.75,44.8179,49.8683,145.611,98.90625,93.4921,0.000403134,0.0466723,21.0269,-339.421,0.497312,0.0,0.0
510,127.25,45.7026,49.773,145.819,98.903,93.4618,0.000345912,0.0466558,21.0269,-339.411,0.499897,0.0,0.0
512,127.75,45.6139,49.5428,148.352,98.9287,93.5845,0.000299561,0.0466424,21.0269,-339.411,0.490592,0.0,0.0
514,128.25,45.0529,49.4488,145.614,98.9283,93.3452,0.000268074,0.0466179,21.0269,-339.411,0.513178,0.0,0.0
516,128.75,45.135,49.6529,146.637,98.9608,93.5288,0.000242569,0.0465981,21.0269,-339.411,0.498724,0.0,0.0
518,129.25,45.1203,49.2117,143.812,98.9596,93.5558,0.000228925,0.0465964,21.027,-339.421,0.496062,0.0,0.0
520,129.75,44.9608,48.9666,150.856,98.9945,93.5529,0.000224186,0.0466079,21.027,-339.401,0.499452,0.0,0.0
522,130.25,44.6366,49.1201,142.361,98.9917,93.6249,0.000224814,0.0466173,21.027,-339.411,0.492403,0.0,0.0
524,130.75,44.1704,48.698,148.925,99.015,93.7914,0.000229341,0.046584,21.027,-339.411,0.478783,0.0,0.0
526,131.25,44.6,48.9355,146.921,99.0198,93.3943,0.00023556,0.046557,21.027,-339.411,0.516696,0.0,0.0
528,131.75,44.6653,49.2251,147.477,99.0334,93.6162,0.000242894,0.0465208,21.027,-339.411,0.496952,0.0,0.0
530,132.25,44.1787,48.0265,150.226,99.035,93.6994,0.000248835,0.0464786,21.027,-339.421,0.489242,0.0,0.0
532,132.75,44.1935,48.3002,145.792,99.0571,93.5275,0.000252435,0.0464372,21.027,-339.431,0.507434,0.0,0.0
534,133.25,43.7149,48.2959,145.501,99.0583,93.5829,0.000255351,0.0463972,21.027,-339.421,0.502314,0.0,0.0
536,133.75,44.106,48.0435,148.726,99.078,93.781,0.000258925,0.0463792,21.027,-339.431,0.485382,0.0,0.0
538,134.25,43.9643,48.1985,146.496,99.086,93.6795,0.00026182,0.0463775,21.027,-339.431,0.49567,0.0,0.0
540,134.75,43.7003,47.944,145.156,99.1053,93.7382,0.000265441,0.0463761,21.027,-339.431,0.491854,0.0,0.0
542,135.25,43.6616,47.9229,151.404,99.1045,93.7078,0.000269523,0.046375,21.027,-339.431,0.494647,0.0,0.0
544,135.75,43.9994,48.165,143.613,99.1165,93.9717,0.000272829,0.0463741,21.027,-339.421,0.470874,0.0,0.0
546,136.25,43.9718,47.8649,144.643,99.1305,93.9238,0.000279144,0.0463325,21.027,-339.441,0.476628,0.0,0.0
548,136.75,43.7552,47.4551,146.607,99.139,93.7178,0.000284259,0.0462988,21.027,-339.441,0.496779,0.0,0.0
550,137.25,43.5967,47.8184,146.638,99.1442,93.6815,0.000299318,0.0462987,21.027,-339.451,0.500659,0.0,0.0
552,137.75,43.2916,47.8232,148.344,99.1582,93.5891,0.000311515,0.0462987,21.027,-339.421,0.510629,0.0,0.0
554,138.25,43.1228,47.3962,146.027,99.1735,93.9896,0.000321184,0.0462987,21.027,-339.431,0.474269,0.0,0.0
556,138.75,43.0903,47.1,144.33,99.1807,93.7806,0.000337718,0.0463668,21.027,-339.421,0.494575,0.0,0.0
558,139.25,43.1082,46.8708,148.877,99.1791,93.943,0.000351111,0.0464219,21.027,-339.421,0.479152,0.0,0.0
560,139.75,43.2243,46.7968,151.506,99.1915,93.4834,0.000363172,0.0464394,21.027,-339.421,0.523582,0.0,0.0
562,140.25,43.1493,46.6053,147.447,99.2003,93.724,0.000372942,0.0464535,21.027,-339.411,0.50166,0.0,0.0
564,140.75,43.1655,47.4902,146.519,99.2096,93.674,0.000380856,0.0464513,21.027,-339.431,0.507191,0.0,0.0
566,141.25,42.8395,46.5505,148.097,99.232,93.5046,0.000365433,0.0464504,21.027,-339.441,0.525183,0.0,0.0
568,141.75,42.7816,46.8291,146.684,99.2345,93.7715,0.000352941,0.0464416,21.027,-339.431,0.500225,0.0,0.0
570,142.25,42.2729,46.4123,148.29,99.2397,93.9405,0.000342823,0.046428,21.027,-339.431,0.484782,0.0,0.0
572,142.75,43.0332,46.1708,146.745,99.2533,94.0483,0.000315232,0.0464171,21.027,-339.431,0.475863,0.0,0.0
574,143.25,42.5476,46.4304,144.392,99.2533,93.7469,0.000292883,0.0464082,21.027,-339.421,0.504217,0.0,0.0
576,143.75,42.668,46.3803,145.615,99.2553,93.8193,0.000280841,0.046401,21.027,-339.431,0.497574,0.0,0.0
578,144.25,42.8181,46.4612,151.969,99.273,93.8751,0.000271087,0.0463951,21.027,-339.421,0.493894,0.0,0.0
580,144.75,42.4791,46.4081,146.401,99.2786,94.0341,0.000283797,0.0464047,21.027,-339.421,0.479442,0.0,0.0
582,145.25,42.6719,46.181,146.423,99.2906,93.9001,0.000309335,0.0464254,21.027,-339.441,0.493115,0.0,0.0
584,145.75,42.5305,45.8529,147.126,99.287,93.7098,0.000323053,0.0464422,21.027,-339.431,0.510709,0.0,0.0
586,146.25,42.3553,46.3319,148.382,99.2942,93.8214,0.000346512,0.0464966,21.027,-339.441,0.50084,0.0,0.0
588,146.75,42.0364,45.1866,145.396,99.3199,94.0316,0.000373179,0.0465408,21.027,-339.441,0.483354,0.0,0.0
590,147.25,42.4317,45.4389,147.094,99.3119,93.8551,0.000401678,0.0466037,21.027,-339.451,0.499236,0.0,0.0
592,147.75,42.219,45.1106,144.666,99.3215,93.9538,0.000428596,0.0466547,21.027,-339.451,0.490812,0.0,0.0
594,148.25,42.2554,45.739,146.731,99.334,93.9821,0.00045385,0.0466748,21.027,-339.441,0.489257,0.0,0.0
596,148.75,41.9184,45.1309,149.358,99.3255,93.8114,0.000474306,0.0466802,21.027,-339.451,0.504565,0.0,0.0
598,149.25,42.2742,45.6671,145.876,99.342,94.2514,0.000484486,0.0466464,21.027,-339.441,0.464693,0.0,0.0
600,149.75,42.0467,45.0099,150.127,99.3368,93.7973,0.000486982,0.0465803,21.027,-339.451,0.506897,0.0,0.0
602,150.25,41.7326,45.3716,146.307,99.3765,94.0608,0.000489003,0.0464981,21.027,-339.451,0.485648,0.0,0.0
604,150.75,41.5848,45.2098,146.463,99.3608,93.8347,0.000477291,0.0464057,21.027,-339.441,0.50551,0.0,0.0
606,151.25,41.6363,45.0012,146.896,99.3664,93.8934,0.000467804,0.0463309,21.027,-339.461,0.500485,0.0,0.0
608,151.75,41.5828,45.101,145.433,99.3717,94.025,0.000460119,0.0462566,21.027,-339.451,0.488583,0.0,0.0
610,152.25,41.7473,45.2991,146.322,99.3813,93.8718,0.00045645,0.0461965,21.027,-339.451,0.503842,0.0,0.0
612,152.75,41.1308,44.2192,146.874,99.3757,93.9525,0.000455777,0.0461478,21.027,-339.441,0.495746,0.0,0.0
614,153.25,41.265,44.7641,153.293,99.3957,94.0462,0.000452038,0.0460811,21.027,-339.421,0.488727,0.0,0.0
616,153.75,41.4677,44.8883,147.581,99.3994,93.9325,0.000446137,0.046027,21.027,-339.451,0.49973,0.0,0.0
618,154.25,41.223,44.421,147.436,99.411,93.858,0.000436248,0.0459696,21.027,-339.441,0.507774,0.0,0.0
620,154.75,40.7572,44.3659,148.049,99.4134,93.761,0.000423642,0.0459232,21.027,-339.431,0.517121,0.0,0.0
622,155.25,40.9227,44.0933,147.85,99.4122,94.1723,0.00041343,0.0459128,21.027,-339.441,0.47835,0.0,0.0
624,155.75,40.8826,44.3901,146.75,99.4002,93.8876,0.000403882,0.0459043,21.027,-339.441,0.50403,0.0,0.0
626,156.25,41.4149,44.7674,145.645,99.425,94.0528,0.000394999,0.0458703,21.027,-339.431,0.490705,0.0,0.0
628,156.75,40.7721,44.4288,144.092,99.4138,93.7294,0.000387804,0.0458427,21.027,-339.451,0.520138,0.0,0.0
630,157.25,40.6288,44.1682,152.256,99.4286,93.9317,0.000389254,0.0458203,21.027,-339.451,0.50241,0.0,0.0
632,157.75,40.785,44.1518,147.186,99.4258,93.8784,0.000390429,0.0458022,21.027,-339.451,0.507173,0.0,0.0
634,158.25,41.1355,43.9725,147.641,99.4351,93.7427,0.000401087,0.0457804,21.027,-339.431,0.520772,0.0,0.0
636,158.75,40.9792,43.5559,144.511,99.4258,94.2897,0.000409719,0.0457562,21.027,-339.431,0.468557,0.0,0.0
638,159.25,40.7426,43.4777,145.799,99.4399,93.9201,0.000431276,0.0457367,21.027,-339.441,0.504504,0.0,0.0
640,159.75,40.9292,43.8481,145.811,99.4403,93.9051,0.000448737,0.0457072,21.027,-339.441,0.50595,0.0,0.0
642,160.25,40.7072,43.4179,147.232,99.4607,93.9925,0.000472466,0.0456834,21.027,-339.461,0.499547,0.0,0.0
644,160.75,40.3248,43.2293,145.777,99.4451,94.2085,0.000500314,0.045664,21.027,-339.451,0.477876,0.0,0.0
646,161.25,40.5228,43.9311,147.65,99.4543,94.1161,0.000530544,0.0456484,21.027,-339.451,0.487366,0.0,0.0
648,161.75,41.1094,44.0012,146.099,99.4463,94.0516,0.000561935,0.0456213,21.027,-339.451,0.492712,0.0,0.0
650,162.25,40.5801,43.4879,148.797,99.466,94.0936,0.000587361,0.0455866,21.027,-339.451,0.490509,0.0,0.0
652,162.75,40.7924,43.8541,145.102,99.4651,93.672,0.000619471,0.0455512,21.027,-339.441,0.530116,0.0,0.0
654,163.25,40.7901,43.2163,148.558,99.4748,93.9434,0.000655843,0.0455161,21.027,-339.451,0.505413,0.0,0.0
656,163.75,40.4921,43.2026,151.657,99.4708,94.0487,0.000685304,0.0455164,21.027,-339.441,0.495159,0.0,0.0
658,164.25,40.774,43.2907,145.666,99.4752,94.0732,0.000725811,0.0455424,21.027,-339.441,0.493245,0.0,0.0
660,164.75,40.2727,43.8108,147.527,99.4712,93.8622,0.000773602,0.0455635,21.027,-339.441,0.512728,0.0,0.0
662,165.25,40.2422,43.3349,147.082,99.4856,94.134,0.000812312,0.0455669,21.027,-339.431,0.488466,0.0,0.0
664,165.75,40.0928,43.137,145.553,99.47,93.7665,0.000843668,0.0455697,21.027,-339.431,0.521637,0.0,0.0
666,166.25,40.5096,43.1266,147.277,99.492,93.9729,0.000869066,0.045572,21.027,-339.461,0.504166,0.0,0.0
668,166.75,40.619,43.384,144.257,99.4804,94.1657,0.000868958,0.0455666,21.027,-339.451,0.485033,0.0,0.0
670,167.25,40.364,42.736,148.171,99.5017,94.3859,0.000868871,0.0455559,21.027,-339.451,0.466288,0.0,0.0
672,167.75,39.6744,43.1711,148.223,99.4796,93.9967,0.000832335,0.0455328,21.027,-339.441,0.500832,0.0,0.0
674,168.25,39.8444,43.0272,146.665,99.5097,94.1057,0.000802741,0.0455012,21.027,-339.451,0.49326,0.0,0.0
676,168.75,40.023,43.4592,146.265,99.4985,93.8697,0.000759336,0.0454756,21.027,-339.451,0.514446,0.0,0.0
678,169.25,39.6782,42.6711,147.902,99.5005,94.303,0.000724179,0.0454277,21.027,-339.431,0.473937,0.0,0.0
680,169.75,39.871,42.862,147.523,99.4864,94.0649,0.000695701,0.0453888,21.027,-339.441,0.495024,0.0,0.0
682,170.25,39.3506,42.426,149.13,99.5017,94.1369,0.00065928,0.0453846,21.027,-339.451,0.489617,0.0,0.0
684,170.75,39.7063,42.1864,148.113,99.4989,94.3093,0.000629778,0.0453812,21.027,-339.441,0.47321,0.0,0.0
686,171.25,40.055,43.145,147.719,99.5033,94.0112,0.000600133,0.0453784,21.027,-339.431,0.501563,0.0,0.0
688,171.75,39.9154,42.7238,146.68,99.4928,94.1444,0.000584772,0.0453762,21.027,-339.451,0.48813,0.0,0.0
690,172.25,40.0292,42.3676,149.32,99.5033,93.8605,0.000555312,0.0453815,21.027,-339.441,0.515734,0.0,0.0
692,172.75,39.2976,42.4092,147.979,99.5061,94.0941,0.000528575,0.0453923,21.027,-339.451,0.494033,0.0,0.0
694,173.25,39.6829,42.4146,147.031,99.5033,94.0495,0.00050628,0.045401,21.027,-339.431,0.497966,0.0,0.0
696,173.75,40.1893,42.5113,145.204,99.4964,93.9026,0.000487646,0.0454009,21.027,-339.431,0.511174,0.0,0.0
698,174.25,39.4909,42.5291,148.757,99.5141,94.0241,0.000472552,0.0453944,21.027,-339.441,0.501313,0.0,0.0
700,174.75,39.3017,42.6911,146.248,99.5069,94.0183,0.000460327,0.0453916,21.027,-339.431,0.50122,0.0,0.0
702,175.25,39.6336,42.1514,150.123,99.5033,93.9575,0.000451062,0.045346,21.027,-339.441,0.506612,0.0,0.0
704,175.75,39.1493,41.4654,143.431,99.5069,94.221,0.000444133,0.0453091,21.027,-339.431,0.482193,0.0,0.0
706,176.25,39.628,41.9864,148.774,99.4944,93.96,0.00043852,0.0452791,21.027,-339.431,0.505592,0.0,0.0
708,176.75,39.2229,42.1324,146.085,99.5029,94.3755,0.000439721,0.0452764,21.027,-339.431,0.467369,0.0,0.0
710,177.25,39.6345,42.3262,145.448,99.4977,93.9405,0.000445867,0.0452935,21.027,-339.431,0.507718,0.0,0.0
712,177.75,39.6343,41.7132,150.051,99.4944,94.0304,0.000450845,0.0453289,21.027,-339.441,0.49898,0.0,0.0
714,178.25,39.7295,41.694,148.689,99.5017,93.9654,0.000456091,0.0453769,21.0272,-339.451,0.505726,0.0,0.0
716,178.75,39.1539,42.248,146.282,99.4973,93.9546,,0.0454158,,-339.441,0.506351,0.0,0.0
718,179.25,39.3569,41.5181,149.213,99.5037,93.9592,,0.0454473,,-339.441,0.50649,0.0,0.0
720,179.75,39.5815,41.7352,152.181,99.5057,93.8589,,0.0454728,,-339.441,0.516105,0.0,0.0
722,180.25,39.3149,41.7214,148.233,99.4852,94.2447,,0.0455078,,-339.421,0.478045,0.0,0.0
724,180.75,39.26,41.5863,146.112,99.4928,94.3755,,0.0455491,,-339.441,0.466478,0.0,0.0
726,181.25,38.9622,41.5925,146.217,99.4864,94.2119,,0.0455825,,-339.421,0.481235,0.0,0.0
728,181.75,39.0059,41.8798,148.969,99.4848,94.1598,,,,-339.431,0.485971,0.0,0.0
730,182.25,38.9922,41.3116,147.013,99.49,94.02,,,,-339.431,0.499566,0.0,0.0
732,182.75,39.3302,41.7698,146.844,99.4904,94.0487,,,,-339.441,0.496905,0.0,0.0
734,183.25,39.4866,41.5139,147.273,99.4916,94.2073,,,,-339.451,0.482126,0.0,0.0
736,183.75,38.8441,41.4346,146.727,99.4888,94.2056,,,,-339.411,0.482033,0.0,0.0
738,184.25,38.9674,40.8852,148.348,99.4772,93.9763,,,,-339.101,0.502535,0.0,0.0
740,184.75,38.5288,41.2704,146.131,99.4908,94.0133,,,,-339.411,0.500264,0.0,0.0
742,185.25,39.3056,41.8792,144.689,99.4708,94.0666,,,,-339.431,0.493478,0.0,0.0
744,185.75,39.3292,40.8611,148.064,99.4744,94.0449,,,,-339.441,0.495832,0.0,0.0
746,186.25,38.9959,41.3777,147.342,99.468,94.0025,,,,-339.421,0.499251,0.0,0.0
748,186.75,38.8139,40.7914,147.43,99.4832,94.2414,,,,-339.431,0.478179,0.0,0.0
750,187.25,38.9392,41.0298,145.69,99.4656,94.0374,,,,-339.441,0.495751,0.0,0.0
752,187.75,39.254,41.3354,147.049,99.4712,94.139,,,,-339.431,0.486713,0.0,0.0
754,188.25,38.4647,40.7685,145.924,99.4575,93.9342,,,,-339.441,0.504742,0.0,0.0
756,188.75,38.3511,40.7412,148.886,99.472,94.0383,,,,-339.431,0.496243,0.0,0.0
758,189.25,38.7951,41.039,147.256,99.4467,94.0004,,,,-339.431,0.497557,0.0,0.0