File: 01_Data/XPS_Foam_Board/Cone/XPS_Foam_Insulation_Cone_HF75Scan_220412_R2.csv
Names,Time,Stack TC,Smoke TC,Exh Press,Smoke Comp,Smoke Meas,CO Meter,CO2 Meter,O2 Meter,Sample Mass,Ext Coeff,Start Test,Flame Verif
Chan Gain,,500,500,1,1,1,1,1,1,1,1,1.0,1.0
Offset,,0,0,0.134314,0,0,0,0,0,0,0,0.0,0.0
Gain,,1,1,25.011,13.1473,13.6402,1,1,1,1.00092,1.00708,1.0,1.0
Units,sec,C,C,Pa,%,%,%,%,%,g,/m,,
Baseline,,42.9788,44.519,145.1,99.0502,93.8314,0.000357343,0.0462684,21.0278,-835.082,0.478166,,
2,0.25,43.3177,44.7536,146.365,99.6228,94.4192,0.000906848,0.0492556,21.0198,-333.605,0.473923,0.0,0.0
4,0.75,42.0658,43.7989,144.253,99.6228,93.9442,0.00135609,0.0495118,21.0189,-333.666,0.518473,0.0,0.0
6,1.25,41.9454,43.2486,143.625,99.6313,93.6986,0.00196077,0.0533073,21.0183,-333.716,0.542344,0.0,0.0
8,1.75,41.5954,43.3985,144.708,99.6212,93.1404,0.00245055,0.0563816,21.0151,-333.585,0.594242,0.0,0.0
10,2.25,41.4965,43.4115,148.13,99.6104,91.7476,0.00284728,0.0668382,21.0103,-333.906,0.726383,0.0,0.0
12,2.75,41.7396,43.3496,131.652,99.6208,87.8701,0.00421635,0.0824776,20.993,-333.986,1.10878,0.0,0.0
14,3.25,41.8934,43.9521,134.975,99.6084,75.5499,0.00532529,0.0951456,20.9669,-334.166,2.4422,0.0,1.0
16,3.75,42.1012,43.22,130.417,99.6132,68.9625,0.00688347,0.128134,20.9272,-334.176,3.24855,0.0,1.0
18,4.25,42.0957,43.6071,131.246,99.6064,62.0121,0.0081456,0.154855,20.8784,-334.226,4.18641,0.0,1.0
20,4.75,42.4516,44.0442,128.941,99.6244,53.0512,0.00951341,0.176499,20.8388,-334.296,5.56676,0.0,1.0
22,5.25,42.6943,44.2942,129.977,99.5988,55.225,0.0109323,0.218669,20.7785,-334.406,5.20974,0.0,1.0
24,5.75,42.7529,43.8443,122.213,99.6048,52.1005,0.0120816,0.252826,20.7296,-334.446,5.72477,0.0,1.0
26,6.25,43.2338,44.6219,127.834,99.5951,54.8512,0.0135008,0.289054,20.6805,-334.566,5.26941,0.0,1.0
28,6.75,44.4066,45.8901,128.207,99.6052,55.6824,0.0146503,0.318398,20.6322,-334.546,5.13743,0.0,1.0
30,7.25,44.8754,45.8227,123.962,99.5911,54.2455,0.0159277,0.346618,20.5889,-334.596,5.36715,0.0,1.0
32,7.75,44.6775,45.8191,129.813,99.5956,58.3869,0.0169623,0.369476,20.55,-334.636,4.7176,0.0,1.0
34,8.25,44.5422,45.8332,130.047,99.5871,56.5941,0.0181205,0.38799,20.5185,-334.666,4.99237,0.0,1.0
36,8.75,45.355,46.2272,129.489,99.5907,53.9291,0.0193468,0.410475,20.4803,-334.767,5.41878,0.0,1.0
38,9.25,45.5729,46.6035,124.244,99.5891,47.6614,0.0208582,0.428687,20.4492,-334.857,6.51007,0.0,1.0
40,9.75,45.4634,47.0411,123.544,99.5819,49.3415,0.0225489,0.448741,20.4029,-334.887,6.20339,0.0,0.0
42,10.25,45.8624,47.3772,127.68,99.5751,46.7157,0.0239183,0.469757,20.3654,-334.997,6.68588,0.0,0.0
44,10.75,46.7437,47.7319,130.609,99.5739,42.4165,0.0267182,0.495672,20.3183,-335.057,7.53863,0.0,0.0
46,11.25,46.7479,47.7417,119.99,99.5639,33.2258,0.0289862,0.524668,20.2651,-335.167,9.69511,0.0,0.0
48,11.75,47.1496,48.5337,122.638,99.5739,34.5008,0.0328438,0.563298,20.1972,-335.247,9.36334,0.0,0.0
50,12.25,47.6523,49.0288,129.378,99.5554,29.3862,0.0359685,0.608217,20.1198,-335.367,10.7792,0.0,0.0
52,12.75,47.8296,49.2073,113.506,99.5594,30.5938,0.0384995,0.644602,20.0571,-335.557,10.4238,0.0,0.0
54,13.25,48.7677,49.942,113.703,99.541,27.9617,0.0442569,0.719064,19.9675,-335.647,11.2169,0.0,0.0
56,13.75,49.3491,50.8584,104.762,99.5482,27.3806,0.0489204,0.779378,19.8601,-335.767,11.403,0.0,0.0
58,14.25,49.8379,51.3982,98.7264,99.5306,26.0619,0.0560393,0.861729,19.7224,-335.918,11.8375,0.0,0.0
60,14.75,51.3137,52.5037,98.6081,99.5366,25.4533,0.0618056,0.958582,19.5653,-336.068,12.0468,0.0,0.0
62,15.25,52.4874,53.5217,92.5225,99.5105,25.0171,0.0688551,1.03703,19.4381,-336.278,12.1972,0.0,0.0
64,15.75,54.0592,54.9569,95.2436,99.5257,21.038,0.0767061,1.18167,19.2406,-336.438,13.7288,0.0,0.0
66,16.25,55.3494,56.6074,100.084,99.5037,18.7115,0.0854091,1.29883,19.0806,-336.668,14.7622,0.0,0.0
68,16.75,56.8042,57.7317,101.711,99.5125,18.4938,0.094568,1.4856,18.8099,-336.808,14.8663,0.0,0.0
70,17.25,58.7656,60.2056,81.6466,99.492,17.608,0.104321,1.63688,18.5905,-337.069,15.2981,0.0,0.0
72,17.75,60.64,61.7805,83.9853,99.4896,17.633,0.114323,1.8271,18.3092,-337.369,15.2854,0.0,0.0
74,18.25,62.7762,64.5679,82.432,99.472,15.9288,0.12621,1.98118,18.0813,-337.519,16.1817,0.0,0.0
76,18.75,65.1313,66.6372,90.851,99.484,16.258,0.135839,2.14261,17.7979,-337.709,16.0021,0.0,0.0
78,19.25,67.4152,69.9824,86.5011,99.466,11.548,0.143638,2.30633,17.5683,-337.949,19.0224,0.0,0.0
80,19.75,69.0537,72.5883,75.5366,99.4648,15.2461,0.153358,2.46421,17.3465,-338.24,16.5681,0.0,0.0
82,20.25,72.2491,75.6834,78.3035,99.4435,13.0183,0.161232,2.61485,17.1348,-338.55,17.9617,0.0,0.0
84,20.75,74.9249,78.7891,76.6205,99.4491,12.0704,0.168005,2.75016,16.9632,-338.67,18.63,0.0,0.0
86,21.25,78.2959,82.2626,83.5388,99.4254,12.0579,0.173491,2.87173,16.8243,-338.88,18.637,0.0,0.0
88,21.75,80.2292,84.7713,81.6855,99.4375,14.2233,0.175913,2.97019,16.7117,-339.101,17.1791,0.0,0.0
90,22.25,83.2461,88.2466,75.4954,99.4198,14.1963,0.177876,3.04216,16.6205,-339.361,17.1943,0.0,0.0
92,22.75,85.9703,92.4211,73.088,99.4431,15.3577,0.176205,3.10045,16.5815,-339.591,16.5017,0.0,0.0
94,23.25,87.9072,95.0544,76.2442,99.3973,16.4487,0.174851,3.12065,16.5813,-339.651,15.8914,0.0,0.0
96,23.75,90.7342,98.0532,77.3624,99.3981,18.1416,0.169825,3.11269,16.5811,-339.861,15.026,0.0,0.0
98,24.25,92.5713,101.27,86.8705,99.3905,17.7774,0.167682,3.06345,16.581,-340.001,15.2045,0.0,0.0
100,24.75,94.9209,103.923,90.767,99.3881,17.5755,0.164018,2.98505,16.7018,-340.121,15.3052,0.0,0.0
102,25.25,96.8321,106.49,90.0213,99.3596,22.3651,0.157367,2.88027,16.7996,-340.252,13.1737,0.0,0.0
104,25.75,98.2558,108.739,101.415,99.3717,22.9944,0.148666,2.75824,16.9409,-340.392,12.9296,0.0,0.0
106,26.25,99.8158,110.694,103.35,99.3512,27.416,0.141617,2.6221,17.1113,-340.492,11.3741,0.0,0.0
108,26.75,100.993,112.021,109.598,99.348,28.1549,0.132972,2.47824,17.2493,-340.492,11.1389,0.0,0.0
110,27.25,101.989,113.006,107.073,99.3384,30.3848,0.123327,2.41691,17.4599,-340.642,10.4647,0.0,0.0
112,27.75,102.227,114.231,107.644,99.3344,32.2122,0.115515,2.26448,17.6306,-340.682,9.94841,0.0,0.0
114,28.25,103.299,114.742,112.42,99.3131,35.5315,0.105991,2.09821,17.8651,-340.752,9.08013,0.0,0.0
116,28.75,103.077,115.581,117.263,99.3115,35.2734,0.0982772,1.96352,18.0552,-340.812,9.14439,0.0,0.0
118,29.25,103.449,115.865,114.872,99.2818,38.0936,0.0856825,1.8218,18.2634,-340.922,8.46226,0.0,0.0
120,29.75,103.88,116.028,113.885,99.3083,37.428,0.0822944,1.67764,18.4811,-340.912,8.62034,0.0,0.0
122,30.25,103.677,116.433,119.947,99.2722,43.1121,0.0743078,1.56087,18.6987,-340.972,7.36813,0.0,0.0
124,30.75,103.692,115.878,123.308,99.2762,46.0954,0.0678386,1.42193,18.9122,-341.002,6.7774,0.0,0.0
126,31.25,102.879,115.758,126.699,99.2617,48.7158,0.0609273,1.30939,19.0851,-341.012,6.28768,0.0,0.0
128,31.75,102.87,115.912,134.501,99.2533,60.8857,0.0553292,1.18715,19.28,-341.022,4.31698,0.0,0.0
130,32.25,102.805,115.961,132.202,99.2433,64.4548,0.0507947,1.0314,19.4378,-341.032,3.81286,0.0,0.0
132,32.75,102.36,115.141,131.224,99.2196,72.7359,0.0432093,0.980334,19.6786,-341.032,2.74297,0.0,0.0
134,33.25,101.924,114.762,135.893,99.214,75.7235,0.0411688,0.893017,19.7434,-341.052,2.38687,0.0,0.0
136,33.75,101.766,114.245,135.652,99.2015,80.2412,0.0369799,0.809169,19.8542,-341.032,1.87384,0.0,0.0
138,34.25,100.931,113.643,136.989,99.1947,83.8436,0.032957,0.729443,19.9801,-341.042,1.48529,0.0,0.0
140,34.75,101.082,113.47,138.853,99.1823,84.7785,0.0293698,0.664865,20.0821,-341.032,1.38622,0.0,0.0
142,35.25,100.565,112.848,136.791,99.1522,84.5425,0.0261683,0.594244,20.193,-341.042,1.40816,0.0,0.0
144,35.75,99.6691,112.313,137.248,99.1542,85.6268,0.023309,0.512656,20.2828,-341.052,1.29576,0.0,0.0
146,36.25,99.2037,111.433,141.018,99.1394,88.2714,0.0207533,0.483997,20.3644,-341.052,1.02573,0.0,0.0
148,36.75,99.0269,111.799,138.114,99.1402,89.0061,0.0186833,0.434991,20.4384,-341.072,0.952576,0.0,0.0
150,37.25,98.1214,110.33,139.163,99.1454,90.4921,0.0166066,0.3908,20.5068,-341.052,0.806763,0.0,0.0
152,37.75,97.487,109.738,140.087,99.1482,91.2735,0.0149244,0.350959,20.5696,-341.062,0.731066,0.0,0.0
154,38.25,96.597,109.163,138.289,99.155,90.572,0.0125891,0.318687,20.6506,-341.072,0.799822,0.0,0.0
156,38.75,96.3135,108.639,141.601,99.1606,92.3516,0.0119609,0.287221,20.6738,-341.072,0.628437,0.0,0.0
158,39.25,95.0951,108.208,141.831,99.155,92.7316,0.0106959,0.261732,20.7172,-341.072,0.591658,0.0,0.0
160,39.75,95.0182,106.991,142.21,99.1715,92.3745,0.00967117,0.236506,20.756,-341.042,0.627213,0.0,0.0
162,40.25,94.9029,106.425,141.264,99.1642,93.2445,0.0087432,0.216072,20.7874,-341.052,0.543759,0.0,0.0
164,40.75,94.1099,106.059,140.355,99.1771,93.3111,0.00790337,0.196494,20.8168,-341.052,0.538594,0.0,0.0
166,41.25,93.3454,105.738,138.538,99.1763,93.8647,0.00716911,0.172587,20.8406,-341.052,0.486265,0.0,0.0
168,41.75,92.7889,104.717,139.792,99.1935,94.1307,0.00652575,0.165344,20.8635,-341.052,0.462802,0.0,0.0
170,42.25,92.3848,103.871,141.261,99.1847,94.2452,0.00600463,0.152958,20.8819,-341.062,0.45128,0.0,0.0
172,42.75,92.0858,103.082,142.122,99.2023,94.5461,0.00549005,0.14185,20.8983,-341.042,0.424687,0.0,0.0
174,43.25,90.9656,101.995,143.449,99.1923,94.7817,0.00507324,0.131885,20.9128,-341.042,0.401808,0.0,0.0
176,43.75,90.4347,101.738,142.668,99.2023,94.2464,0.00466549,0.123813,20.9246,-341.042,0.452735,0.0,0.0
178,44.25,89.5059,101.528,141.231,99.21,94.7859,0.00433522,0.115752,20.9363,-341.042,0.402991,0.0,0.0
180,44.75,89.0909,100.645,140.975,99.2124,94.6685,0.00403344,0.109223,20.9458,-341.042,0.414152,0.0,0.0
182,45.25,88.5078,100.142,142.653,99.2353,94.5536,0.00375817,0.103051,20.9548,-341.052,0.426917,0.0,0.0
184,45.75,88.1267,99.5031,142.545,99.2292,94.2626,0.00351713,0.0980512,20.9621,-341.062,0.453607,0.0,0.0
186,46.25,87.5809,99.1614,139.758,99.2389,94.4058,0.00330561,0.0936971,20.9689,-341.072,0.441054,0.0,0.0
188,46.75,86.6183,97.4648,145.15,99.2473,94.1998,0.00313429,0.0898962,20.9745,-341.072,0.461106,0.0,0.0
190,47.25,86.2898,97.4618,140.839,99.2601,94.4804,0.00299552,0.0865928,20.9789,-341.082,0.435977,0.0,0.0
192,47.75,86.0013,97.0451,142.48,99.2621,94.6797,0.00287453,0.083715,20.9825,-341.082,0.417533,0.0,0.0
194,48.25,85.0442,96.0932,142.583,99.2581,94.1711,0.00277653,0.0811669,20.9859,-341.072,0.464764,0.0,0.0
196,48.75,85.1483,95.7392,142.386,99.2694,95.0219,0.00269135,0.0789075,20.9886,-341.062,0.386307,0.0,0.0
198,49.25,84.3813,95.8632,142.683,99.2786,94.5894,0.00261713,0.0770773,20.9906,-341.072,0.427428,0.0,0.0
200,49.75,84.1348,94.78,141.601,99.2798,94.482,0.0025454,0.0751278,20.9921,-341.072,0.437571,0.0,0.0
202,50.25,83.378,93.7746,143.36,99.293,95.0977,0.00247686,0.0735487,20.9938,-341.082,0.381373,0.0,0.0
204,50.75,83.2901,93.6482,142.262,99.2974,94.3163,0.00241039,0.0722696,20.9952,-341.092,0.454646,0.0,0.0
206,51.25,82.4408,93.1128,139.997,99.3115,94.1973,0.00234669,0.0712336,20.9966,-341.102,0.467054,0.0,0.0
208,51.75,82.2964,92.697,142.937,99.3099,94.4937,0.00228157,0.069914,20.9979,-341.092,0.439159,0.0,0.0
210,52.25,81.8231,92.2702,139.425,99.3203,94.5128,0.00221666,0.0688452,20.9992,-341.082,0.438297,0.0,0.0
212,52.75,81.7238,91.8709,143.525,99.3183,94.375,0.00216408,0.0676366,21.0004,-341.082,0.451007,0.0,0.0
214,53.25,81.3429,91.7267,143.02,99.3307,94.5395,0.00208238,0.0666577,21.0017,-341.092,0.436736,0.0,0.0
216,53.75,80.4205,91.2039,142.184,99.3319,94.333,0.0020162,0.0656044,21.0029,-341.092,0.456157,0.0,0.0
218,54.25,80.4129,89.8769,144.146,99.3496,94.6698,0.00193497,0.0647512,21.0039,-341.082,0.426245,0.0,0.0
220,54.75,80.2606,89.4625,141.932,99.3484,94.7001,0.0018443,0.063882,21.0051,-341.072,0.423304,0.0,0.0
222,55.25,79.7153,89.6023,141.6,99.3444,94.5515,0.00177086,0.063178,21.0061,-341.072,0.436821,0.0,0.0
224,55.75,79.058,88.8656,142.547,99.3572,94.718,0.00168821,0.0624161,21.0069,-341.092,0.422419,0.0,0.0
226,56.25,78.3135,89.2018,143.431,99.3673,94.5424,0.00162126,0.0617989,21.0076,-341.082,0.43971,0.0,0.0
228,56.75,78.4247,88.432,139.456,99.3701,94.8292,0.00154509,0.0611838,21.0084,-341.072,0.413201,0.0,0.0
230,57.25,77.7309,87.9531,143.893,99.3853,94.5611,0.00148339,0.0605818,21.0092,-341.082,0.439565,0.0,0.0
232,57.75,77.8023,87.4057,139.914,99.3697,94.5736,0.00141759,0.0600941,21.0099,-341.092,0.437007,0.0,0.0
234,58.25,77.3475,86.839,142.825,99.3994,94.5345,0.00136428,0.0594392,21.0104,-341.072,0.443302,0.0,0.0
236,58.75,76.9924,86.6369,144.936,99.3929,95.0531,0.00131136,0.0589088,21.0108,-341.082,0.394395,0.0,0.0
238,59.25,76.157,86.4087,143.152,99.4014,94.6011,0.0012685,0.058274,21.0116,-341.072,0.437259,0.0,0.0
240,59.75,76.2272,85.7414,142.717,99.4098,94.4824,0.00121552,0.0577598,21.0123,-341.092,0.449092,0.0,0.0
242,60.25,75.8156,85.413,140.475,99.4314,94.4562,0.00117261,0.0572613,21.0133,-341.092,0.45347,0.0,0.0
244,60.75,75.0545,85.2252,140.912,99.4178,95.086,0.00113785,0.0568575,21.014,-341.082,0.39355,0.0,0.0
246,61.25,75.1566,84.5386,142.402,99.4323,94.8096,0.00109023,0.0565017,21.0147,-341.092,0.420551,0.0,0.0
248,61.75,74.7088,84.4367,140.255,99.4314,94.748,0.00105165,0.0561876,21.0152,-341.092,0.426221,0.0,0.0
250,62.25,74.0125,83.8912,139.635,99.4559,94.937,0.00100947,0.0559259,21.0156,-341.092,0.410792,0.0,0.0
252,62.75,73.7348,83.0318,141.325,99.4471,94.937,0.000975292,0.0557075,21.0159,-341.092,0.410008,0.0,0.0
254,63.25,73.8064,83.0459,141.316,99.47,94.2797,0.000947612,0.0555306,21.0162,-341.092,0.473414,0.0,0.0
256,63.75,72.9926,82.8817,143.544,99.466,95.0298,0.000908173,0.0553873,21.0164,-341.092,0.40305,0.0,0.0
258,64.25,73.1017,82.5636,140.861,99.4788,94.8113,0.000869192,0.0552713,21.0166,-341.102,0.424529,0.0,0.0
260,64.75,72.7898,82.1079,144.316,99.4812,94.6094,0.000831287,0.0551413,21.0168,-341.092,0.443575,0.0,0.0
262,65.25,72.3017,81.8689,141.922,99.4993,94.7438,0.000800583,0.0550037,21.0169,-341.102,0.432632,0.0,0.0
264,65.75,72.3054,81.5026,144.153,99.4844,94.9653,0.000758709,0.0548922,21.017,-341.092,0.410688,0.0,0.0
266,66.25,71.5545,81.3076,143.561,99.5053,94.7518,0.00072479,0.0548155,21.017,-341.102,0.432429,0.0,0.0
268,66.75,71.0172,80.1714,143.877,99.5021,94.8633,0.000679106,0.0547534,21.0171,-341.112,0.421749,0.0,0.0
270,67.25,71.5068,80.683,142.748,99.5177,94.9899,0.000642103,0.0546895,21.0172,-341.132,0.411361,0.0,0.0
272,67.75,71.0473,80.084,141.194,99.5033,95.0868,0.00061213,0.0546377,21.0172,-341.112,0.401064,0.0,0.0
274,68.25,70.5558,80.0032,141.122,99.5213,94.9099,0.000570612,0.0546231,21.0172,-341.112,0.419118,0.0,0.0
276,68.75,70.7106,79.5682,143.17,99.5294,94.8388,0.000521466,0.0546112,21.0173,-341.112,0.426458,0.0,0.0
278,69.25,70.0693,78.7934,140.682,99.5482,94.4479,0.00046963,0.054547,21.0172,-341.122,0.464616,0.0,0.0
280,69.75,70.1119,79.0193,144.585,99.5478,94.5894,0.000427642,0.0544949,21.0171,-341.122,0.451353,0.0,0.0
282,70.25,69.5792,78.0613,140.791,99.5627,94.7805,0.00039746,0.0544168,21.017,-341.112,0.434843,0.0,0.0
284,70.75,68.541,77.9574,145.437,99.5606,95.2883,0.000376458,0.0543212,21.0169,-341.112,0.387459,0.0,0.0
286,71.25,69.0274,77.9965,138.301,99.5783,94.9195,0.000359446,0.0542437,21.0168,-341.132,0.423282,0.0,0.0
288,71.75,68.4517,77.5455,141.523,99.5647,94.7796,0.000360988,0.0541806,21.0167,-341.112,0.435099,0.0,0.0
290,72.25,68.5913,77.5824,140.742,99.5919,95.3695,0.000376026,0.0541291,21.0166,-341.122,0.382713,0.0,0.0
292,72.75,68.2234,77.0724,142.304,99.5807,95.1559,0.000396511,0.0540514,21.0165,-341.102,0.401519,0.0,0.0
294,73.25,68.4462,76.4694,139.91,99.6104,94.7934,0.000420577,0.0539562,21.0169,-341.112,0.437876,0.0,0.0
296,73.75,67.4765,75.9268,139.426,99.6136,94.6523,0.000445822,0.053879,21.0172,-341.102,0.451321,0.0,0.0
298,74.25,67.8986,76.478,142.763,99.6256,94.7239,0.000471446,0.0537446,21.0174,-341.092,0.445709,0.0,0.0
300,74.75,67.5678,75.9538,141.113,99.6232,94.9815,0.000492202,0.0535711,21.0176,-341.122,0.421497,0.0,0.0
302,75.25,67.236,75.757,141.688,99.6305,95.0132,0.000511571,0.053373,21.0177,-341.112,0.419196,0.0,0.0
304,75.75,67.2682,75.5385,142.384,99.6256,95.1634,0.00052956,0.0531608,21.0179,-341.112,0.404808,0.0,0.0
306,76.25,66.6799,74.9857,140.294,99.6493,95.1052,0.000547967,0.0529387,21.018,-341.122,0.412319,0.0,0.0
308,76.75,66.9153,74.8235,141.632,99.6461,94.81,0.000566328,0.0527135,21.018,-341.132,0.43949,0.0,0.0
310,77.25,66.4255,74.5335,138.557,99.6573,95.1967,0.000589514,0.052531,21.0181,-341.142,0.404528,0.0,0.0
312,77.75,66.269,74.5048,141.78,99.6541,94.8945,0.000615777,0.0522877,21.0186,-341.132,0.432332,0.0,0.0
314,78.25,65.7863,73.6894,140.371,99.6622,95.0827,0.00063705,0.0520906,21.019,-341.132,0.415546,0.0,0.0
316,78.75,65.7954,73.3423,145.181,99.667,94.7634,0.000670081,0.0518592,21.0193,-341.122,0.445686,0.0,0.0
318,79.25,65.8492,73.1337,143.425,99.679,95.3774,0.000696837,0.0516071,21.0196,-341.122,0.3897,0.0,0.0
320,79.75,65.4497,73.6979,143.346,99.6782,95.3424,0.000716078,0.0514028,21.0198,-341.112,0.392867,0.0,0.0
322,80.25,64.7351,72.2699,143.091,99.7083,94.7938,0.000731663,0.0511419,21.02,-341.132,0.446516,0.0,0.0
324,80.75,64.7702,72.6818,139.711,99.7011,94.9899,0.000733347,0.0509306,21.0201,-341.132,0.427623,0.0,0.0
326,81.25,64.2509,72.8905,139.732,99.7131,94.979,0.000734711,0.0506775,21.0202,-341.112,0.429697,0.0,0.0
328,81.75,64.3137,72.3593,141.908,99.7263,95.2962,0.000735816,0.0504726,21.0203,-341.112,0.401416,0.0,0.0
330,82.25,64.3965,72.4023,139.91,99.7255,94.9249,0.000731171,0.0502563,21.0206,-341.122,0.435832,0.0,0.0
332,82.75,64.0839,71.9244,143.389,99.7376,95.25,0.000723228,0.0500359,21.021,-341.132,0.406696,0.0,0.0
334,83.25,63.2806,71.304,142.906,99.7348,95.1047,0.000722869,0.0498502,21.0214,-341.122,0.41993,0.0,0.0
336,83.75,63.5795,70.9075,141.61,99.7376,94.8533,0.000722578,0.0496933,21.0217,-341.122,0.443565,0.0,0.0
338,84.25,63.8062,71.5401,141.627,99.744,95.0744,0.0007281,0.0495232,21.022,-341.122,0.423571,0.0,0.0
340,84.75,63.1796,71.1124,141.971,99.7308,94.9532,0.000737754,0.0493467,21.0222,-341.122,0.433661,0.0,0.0
342,85.25,63.4179,71.0086,142.929,99.756,94.7376,0.000745574,0.0492714,21.0223,-341.102,0.455983,0.0,0.0
344,85.75,62.6887,70.0005,141.334,99.7633,95.2667,0.000751908,0.0491154,21.0229,-341.112,0.407425,0.0,0.0
346,86.25,62.8599,69.9408,147.275,99.7641,94.9765,0.000750642,0.0489891,21.0234,-341.102,0.434441,0.0,0.0
348,86.75,62.4792,70.2033,141.509,99.7725,95.1318,0.000743859,0.0488509,21.0238,-341.102,0.420757,0.0,0.0
350,87.25,62.16,69.5133,139.518,99.7741,94.9903,0.000729414,0.0487066,21.0241,-341.112,0.434052,0.0,0.0
352,87.75,62.0594,69.583,142.206,99.7813,95.0323,0.000709657,0.048597,21.0243,-341.122,0.430783,0.0,0.0
354,88.25,61.8442,69.38,140.725,99.7857,95.2933,0.000693653,0.0485146,21.0245,-341.112,0.406944,0.0,0.0
356,88.75,62.2629,68.7056,142.774,99.795,95.2775,0.000666632,0.0484192,21.0247,-341.122,0.409228,0.0,0.0
358,89.25,61.774,68.902,141.253,99.7998,95.0831,0.000632092,0.0483161,21.0248,-341.112,0.427697,0.0,0.0
360,89.75,61.4877,68.7718,140.254,99.811,95.2642,0.000604114,0.0482325,21.0249,-341.112,0.411884,0.0,0.0
362,90.25,61.1469,68.8469,143.581,99.8094,95.1539,0.000563252,0.0481103,21.025,-341.112,0.421976,0.0,0.0
364,90.75,60.5127,68.3413,144.161,99.815,94.8533,0.000530153,0.0480114,21.0251,-341.122,0.45042,0.0,0.0
366,91.25,61.2199,68.3816,142.699,99.821,95.2471,0.00048879,0.0479448,21.0251,-341.112,0.414354,0.0,0.0
368,91.75,61.297,67.977,145.413,99.8367,94.9557,0.000455285,0.047891,21.0252,-341.112,0.442805,0.0,0.0
370,92.25,60.6082,67.926,144.615,99.8375,95.2117,0.000417235,0.0478473,21.0252,-341.102,0.419091,0.0,0.0
372,92.75,60.3052,67.7516,144.313,99.8375,94.701,0.000386414,0.0477029,21.0252,-341.102,0.466609,0.0,0.0
374,93.25,60.3451,67.5081,144.934,99.8467,94.845,0.000354432,0.047586,21.0252,-341.102,0.454,0.0,0.0
376,93.75,60.07,66.9369,146.143,99.8604,95.2176,0.000322212,0.0474504,21.0253,-341.122,0.420575,0.0,0.0
378,94.25,60.4048,67.2391,141.79,99.8644,95.0581,0.000296114,0.0473405,21.0253,-341.112,0.435733,0.0,0.0
380,94.75,60.1315,67.0937,142.685,99.8628,95.1231,0.000274974,0.0472659,21.0253,-341.112,0.429558,0.0,0.0
382,95.25,59.4833,66.2663,146.12,99.8584,94.6589,0.000239679,0.0472183,21.0252,-341.122,0.472378,0.0,0.0
384,95.75,59.9519,66.5949,142.882,99.8764,95.2883,0.00021109,0.0471583,21.0251,-341.102,0.415431,0.0,0.0
386,96.25,59.5951,65.857,143.386,99.8672,95.1256,0.00019367,0.0470903,21.025,-341.102,0.429718,0.0,0.0
388,96.75,59.1655,66.3031,142.089,99.8756,95.392,0.000184725,0.0470353,21.0254,-341.132,0.405756,0.0,0.0
390,97.25,59.1789,66.1436,143.43,99.8776,95.0669,0.000188323,0.0469548,21.0257,-341.122,0.436093,0.0,0.0
392,97.75,59.5216,66.0996,144.235,99.8868,94.9486,0.000200995,0.0468574,21.0255,-341.102,0.447901,0.0,0.0
394,98.25,58.6584,65.3694,142.105,99.8937,95.0211,0.00021126,0.0467784,21.0254,-341.122,0.441768,0.0,0.0
396,98.75,58.5631,65.2259,142.515,99.9033,95.168,0.00023655,0.0467073,21.0257,-341.132,0.428968,0.0,0.0
398,99.25,58.997,64.9771,140.975,99.8913,94.9262,0.000257035,0.0466433,21.0259,-341.122,0.450382,0.0,0.0
400,99.75,58.9267,65.379,142.736,99.9129,95.1376,0.000285757,0.0465914,21.0261,-341.132,0.432641,0.0,0.0
402,100.25,58.196,65.1827,143.547,99.9065,95.2325,0.000309023,0.0465358,21.0263,-341.122,0.423265,0.0,0.0
404,100.75,58.657,65.4393,144.615,99.9209,94.9374,0.000328986,0.0464907,21.0265,-341.132,0.451962,0.0,0.0
406,101.25,58.4512,64.3583,141.964,99.9113,95.1251,0.000345156,0.0464406,21.0268,-341.122,0.433659,0.0,0.0
408,101.75,57.6893,64.2219,142.164,99.9318,95.5843,0.000355828,0.0464,21.027,-341.122,0.392932,0.0,0.0
410,102.25,57.8412,63.8164,144.258,99.9169,95.1892,0.000364473,0.0463534,21.0272,-341.122,0.428205,0.0,0.0
412,102.75,57.8712,64.4161,140.58,99.9374,95.2388,0.000371475,0.0463158,21.0273,-341.112,0.425417,0.0,0.0
414,103.25,57.7734,64.0381,139.578,99.927,95.6063,0.000361379,0.0463268,21.0274,-341.122,0.390468,0.0,0.0
416,103.75,57.8807,63.9728,141.891,99.943,95.5098,0.000353201,0.0463358,21.0275,-341.132,0.400813,0.0,0.0
418,104.25,57.2048,63.692,138.347,99.9398,94.989,0.000332028,0.0463294,21.0276,-341.112,0.448828,0.0,0.0
420,104.75,57.2797,63.5277,142.834,99.9466,95.1014,0.000314877,0.0463243,21.0276,-341.122,0.438984,0.0,0.0
422,105.25,56.6844,62.8712,139.523,99.945,95.0864,0.000269483,0.0463057,21.0277,-341.102,0.440234,0.0,0.0
424,105.75,56.688,62.9131,142.48,99.9514,95.2217,0.000232713,0.0462778,21.0277,-341.122,0.428242,0.0,0.0
426,106.25,57.0562,62.8465,142.56,99.9555,95.4082,0.000191459,0.0462552,21.0277,-341.112,0.411313,0.0,0.0
428,106.75,56.8344,62.9176,140.181,99.9615,95.4927,0.000168439,0.0462097,21.0278,-341.122,0.404023,0.0,0.0
430,107.25,56.6723,62.7971,143.133,99.9542,95.0294,0.000122702,0.0461728,21.0278,-341.142,0.44635,0.0,0.0
432,107.75,56.508,62.2727,141.808,99.9751,95.2375,7.99202e-05,0.0461565,21.0278,-341.112,0.428867,0.0,0.0
434,108.25,56.6212,62.5355,141.21,99.9506,95.2683,4.52672e-05,0.0461434,21.0278,-341.122,0.423847,0.0,0.0
436,108.75,56.9619,62.5527,140.671,99.9651,95.1468,1.71983e-05,0.0461399,21.0278,-341.122,0.436402,0.0,0.0
438,109.25,55.5496,62.042,141.61,99.9595,94.9786,-5.53753e-06,0.0461435,21.0278,-341.132,0.451532,0.0,0.0
440,109.75,56.2836,61.6384,146.391,99.9683,95.136,-1.37591e-05,0.046145,21.0278,-341.122,0.43769,0.0,0.0
442,110.25,56.3671,61.6726,140.613,99.9667,95.2954,-1.12435e-05,0.0461477,21.0278,-341.122,0.422756,0.0,0.0
444,110.75,56.3001,62.107,141.386,99.9759,94.9728,-9.20594e-06,0.0461498,21.0279,-341.132,0.453529,0.0,0.0
446,111.25,55.9516,61.9254,140.165,99.9687,95.2667,2.40293e-05,0.046097,21.0276,-341.152,0.425597,0.0,0.0
448,111.75,56.2555,61.9479,141.219,99.9875,95.1972,5.09499e-05,0.0460543,21.0272,-341.152,0.433712,0.0,0.0
450,112.25,55.2894,61.188,141.127,99.9747,95.2996,9.45725e-05,0.0459924,21.0271,-341.152,0.42308,0.0,0.0
452,112.75,55.5502,61.3545,141.558,99.9851,95.1006,0.000129907,0.0459423,21.0271,-341.142,0.442465,0.0,0.0
454,113.25,55.4336,61.2481,139.664,99.9775,95.3162,0.000171866,0.0459017,21.0268,-341.142,0.421785,0.0,0.0
456,113.75,55.3472,60.9828,142.341,99.9815,95.2375,0.000205854,0.0458954,21.0264,-341.132,0.429434,0.0,0.0
458,114.25,54.8931,60.8383,144.601,99.9896,95.3029,0.000239448,0.0458903,21.0261,-341.152,0.424083,0.0,0.0
460,114.75,55.6001,61.1411,138.327,99.9992,94.9578,0.000266659,0.0458725,21.0258,-341.132,0.456979,0.0,0.0
462,115.25,55.1699,60.7146,142.505,99.9875,95.1651,0.000294766,0.0458581,21.0256,-341.132,0.436686,0.0,0.0
464,115.75,55.4488,60.3933,142.79,100.005,95.2425,0.000317533,0.0458873,21.0254,-341.132,0.431027,0.0,0.0
466,116.25,54.8388,60.9005,138.942,99.994,95.4852,0.000335974,0.0459109,21.0253,-341.152,0.407589,0.0,0.0
468,116.75,55.0609,60.4415,142.882,100.009,95.377,0.000356659,0.0459029,21.0252,-341.152,0.418919,0.0,0.0
470,117.25,54.5068,60.399,142.651,99.9992,94.9703,0.000378587,0.0458963,21.0253,-341.142,0.455818,0.0,0.0
472,117.75,55.0901,60.3738,142.899,100.001,95.1335,0.000396348,0.0459053,21.0256,-341.132,0.440829,0.0,0.0
474,118.25,55.2316,60.4679,139.34,100.002,94.9195,0.000407542,0.0459256,21.0259,-341.152,0.460755,0.0,0.0
476,118.75,54.5596,59.7147,141.73,100.004,95.0748,0.000413734,0.0459419,21.0261,-341.142,0.446565,0.0,0.0
478,119.25,54.7251,60.1931,141.503,100.01,95.4095,0.000403429,0.0459416,21.0263,-341.142,0.415983,0.0,0.0
480,119.75,54.4203,59.8507,141.688,99.9992,95.4057,0.000381293,0.0459413,21.0264,-341.132,0.415408,0.0,0.0
482,120.25,54.4084,59.7981,141.347,100.006,95.1822,0.000363363,0.0459411,21.0265,-341.122,0.436768,0.0,0.0
484,120.75,54.5575,59.5966,141.026,100.006,95.3961,0.000320965,0.0459409,21.0266,-341.122,0.416862,0.0,0.0
486,121.25,54.2848,59.3065,140.687,100.008,94.9616,0.000286622,0.0459407,21.0267,-341.122,0.45741,0.0,0.0
488,121.75,54.3023,59.2361,142.66,100.012,94.9212,0.000247903,0.0459263,21.0268,-341.132,0.461557,0.0,0.0
490,122.25,54.6414,58.9123,140.148,100.011,95.173,0.00021654,0.0459016,21.0268,-341.142,0.438008,0.0,0.0
492,122.75,54.1038,59.0088,143.382,100.01,95.0798,0.000193049,0.0458817,21.0268,-341.142,0.446597,0.0,0.0
494,123.25,53.8937,59.04,140.478,100,95.3345,0.000175742,0.0458247,21.0269,-341.142,0.422073,0.0,0.0
496,123.75,54.0561,59.1436,140.999,100.007,95.1793,0.000161724,0.0457785,21.0269,-341.142,0.437074,0.0,0.0
498,124.25,53.8091,59.1444,138.443,99.998,95.275,0.000152919,0.0457339,21.0269,-341.162,0.427412,0.0,0.0
500,124.75,54.1101,58.5472,144.105,100.019,95.5597,0.000148082,0.0456914,21.0269,-341.132,0.40293,0.0,0.0
502,125.25,54.0653,58.9368,142.72,99.9952,95.2892,0.000144163,0.0456641,21.027,-341.112,0.425853,0.0,0.0
504,125.75,53.4433,58.3921,141.35,100.002,95.285,0.00014099,0.0456484,21.027,-341.122,0.426805,0.0,0.0
506,126.25,53.1535,58.2255,141.537,100.002,95.3458,0.000146709,0.0456357,21.027,-341.142,0.421208,0.0,0.0
508,126.75,53.9028,58.2563,144.101,99.9988,95.1522,0.000158804,0.0456527,21.0265,-341.152,0.438877,0.0,0.0
510,127.25,53.5693,57.7482,144.878,100.011,95.238,0.000183915,0.0456664,21.0262,-341.152,0.431982,0.0,0.0
512,127.75,53.6028,58.2025,140.997,100,95.0852,0.000218039,0.0457062,21.0259,-341.152,0.445244,0.0,0.0
514,128.25,53.2999,58.168,143.636,100.001,95.1768,0.000245679,0.0457643,21.0257,-341.142,0.436811,0.0,0.0
516,128.75,53.1326,57.8058,140.447,99.9972,95.6546,0.000311759,0.0458041,21.0257,-341.142,0.392212,0.0,0.0
518,129.25,53.2584,57.6402,141.211,99.9964,95.2313,0.000384468,0.04583,21.026,-341.152,0.431324,0.0,0.0
520,129.75,53.3642,58.4345,143.145,100.003,95.27,0.000460628,0.0458509,21.0262,-341.152,0.428337,0.0,0.0
522,130.25,52.867,57.7866,140.41,99.9976,95.3458,0.000522317,0.0458678,21.0263,-341.142,0.420818,0.0,0.0
524,130.75,52.7167,57.4023,141.608,100.006,94.9682,0.00059341,0.0458816,21.0265,-341.132,0.456648,0.0,0.0
526,131.25,52.9092,57.4604,139.71,99.9976,95.1497,0.000670008,0.0459063,21.0266,-341.152,0.439002,0.0,0.0
528,131.75,52.7458,58.0384,141.261,99.994,95.1713,0.000732053,0.0459263,21.0266,-341.162,0.436674,0.0,0.0
530,132.25,52.8276,57.5586,140.926,99.9976,95.4998,0.000788301,0.0459426,21.0267,-341.182,0.40656,0.0,0.0
532,132.75,52.6215,57.4324,141.371,99.9787,95.1368,0.000833862,0.0459557,21.0268,-341.162,0.438534,0.0,0.0
534,133.25,52.727,57.2184,143.959,99.9924,95.6551,0.000850081,0.0459391,21.0269,-341.162,0.391748,0.0,0.0
536,133.75,52.5631,56.9611,140.363,99.99,95.1039,0.000863218,0.0459257,21.0271,-341.132,0.442581,0.0,0.0
538,134.25,53.106,56.9177,144.044,99.9883,95.5447,0.000844675,0.0459148,21.0272,-341.152,0.401587,0.0,0.0
540,134.75,52.3424,56.9434,145.601,99.9835,95.1713,0.000829655,0.045825,21.0274,-341.172,0.435753,0.0,0.0
542,135.25,52.6342,56.7126,141.612,99.9839,95.3187,0.000787115,0.0457522,21.0275,-341.172,0.42212,0.0,0.0
544,135.75,52.7669,57.1292,144.418,99.9711,95.1177,0.000752657,0.0457341,21.0275,-341.172,0.43964,0.0,0.0
546,136.25,52.3937,56.9999,140.204,99.9956,95.1809,0.00069561,0.0457195,21.0276,-341.172,0.435927,0.0,0.0
548,136.75,52.2687,56.6335,139.578,99.9655,95.32,0.000649402,0.045694,21.0277,-341.162,0.420374,0.0,0.0
550,137.25,52.4698,56.8445,139.661,99.9743,95.2438,0.000611974,0.0456733,21.0277,-341.182,0.428216,0.0,0.0
552,137.75,52.7286,56.9629,139.13,99.9679,95.1543,0.000574633,0.0456975,21.0277,-341.192,0.435955,0.0,0.0
554,138.25,52.6206,56.3838,142.713,99.9643,95.2621,0.000538065,0.045717,21.0275,-341.182,0.425632,0.0,0.0
556,138.75,52.4072,56.8925,142.461,99.953,95.2217,0.000518662,0.0457874,21.0271,-341.172,0.428383,0.0,0.0
558,139.25,52.694,56.4321,144.679,99.9631,95.4398,0.000512143,0.0458443,21.0268,-341.182,0.409058,0.0,0.0
560,139.75,51.8299,56.3161,140.24,99.9466,95.5926,0.000506862,0.0458905,21.0266,-341.182,0.393475,0.0,0.0
562,140.25,52.5285,56.1697,144.618,99.9571,95.1934,0.0005192,0.0460505,21.0264,-341.172,0.431365,0.0,0.0
564,140.75,52.0981,56.0319,146.069,99.9462,95.1597,0.000544148,0.0461801,21.0262,-341.182,0.433538,0.0,0.0
566,141.25,51.9736,55.9539,141.752,99.9458,95.0361,0.000566914,0.0463395,21.0262,-341.162,0.444986,0.0,0.0
568,141.75,51.6377,55.909,140.8,99.9318,94.9187,0.000587656,0.0464687,21.0262,-341.172,0.454664,0.0,0.0
570,142.25,51.3912,56.3296,142.558,99.9587,95.2009,0.000604457,0.0465805,21.0261,-341.172,0.430811,0.0,0.0
572,142.75,52.0189,56.2622,143.691,99.9201,95.4265,0.0006133,0.0466775,21.0261,-341.172,0.406496,0.0,0.0
574,143.25,52.0602,56.15,142.892,99.9294,95.0481,0.000620463,0.0467561,21.026,-341.182,0.44241,0.0,0.0
576,143.75,52.0569,55.3628,144.389,99.925,95.1822,0.000617316,0.0467839,21.0258,-341.172,0.429571,0.0,0.0
578,144.25,52.3971,56.0401,143.382,99.9298,94.9824,0.000606713,0.0467742,21.0257,-341.162,0.44856,0.0,0.0
580,144.75,51.898,55.9826,142.554,99.9077,94.8596,0.000598125,0.0467662,21.0256,-341.162,0.458038,0.0,0.0
582,145.25,51.3586,55.6306,142.057,99.9045,95.1197,0.000564467,0.046719,21.0255,-341.172,0.433559,0.0,0.0
584,145.75,51.175,55.5517,140.223,99.9049,95.3495,0.000537204,0.0466807,21.0254,-341.172,0.41228,0.0,0.0
586,146.25,51.9946,55.9626,145.227,99.8965,95.2171,0.000515121,0.0466762,21.0254,-341.192,0.423807,0.0,0.0
588,146.75,51.7966,55.5764,140.847,99.8933,94.8005,0.000497234,0.0466726,21.0253,-341.172,0.462266,0.0,0.0
590,147.25,51.7053,55.637,148.76,99.8896,95.2176,0.000493604,0.0466481,21.0253,-341.142,0.423166,0.0,0.0
592,147.75,51.4341,55.0894,138.457,99.8824,94.9699,0.000500436,0.0466089,21.0253,-341.162,0.445535,0.0,0.0
594,148.25,51.9971,55.0883,140.855,99.8884,95.4082,0.00050597,0.0465772,21.0257,-341.132,0.405389,0.0,0.0
596,148.75,51.4244,55.2934,142.195,99.8744,94.9499,0.000525024,0.0465379,21.026,-341.122,0.446685,0.0,0.0
598,149.25,51.6647,55.5814,143.268,99.8744,95.2138,0.000544932,0.046506,21.0263,-341.132,0.422165,0.0,0.0
600,149.75,51.3043,55.0023,144.129,99.8792,95.1934,0.000565085,0.0464939,21.0265,-341.142,0.424483,0.0,0.0
602,150.25,50.7274,55.2357,146.766,99.866,94.8271,0.000582687,0.046484,21.0267,-341.162,0.457371,0.0,0.0
604,150.75,51.2069,55.0056,142.851,99.864,95.0868,0.000598097,0.0464975,21.0268,-341.152,0.433029,0.0,0.0
606,151.25,51.1532,54.5452,147.792,99.8419,94.907,0.000610578,0.0465278,21.0267,-341.152,0.4478,0.0,0.0
608,151.75,51.164,55.1868,142.553,99.8327,95.4744,,0.0465811,,-341.132,0.394329,0.0,0.0
610,152.25,50.9353,54.469,142.822,99.8267,95.0823,,0.04665,,-341.122,0.430153,0.0,0.0
612,152.75,51.2668,55.0299,146.191,99.8166,94.8791,,0.0467561,,-341.132,0.448159,0.0,0.0
614,153.25,51.1391,55.3077,142.919,99.8186,94.8467,,0.0468872,,-341.142,0.45136,0.0,0.0
616,153.75,50.6337,54.8533,142.416,99.8066,94.6785,,0.0469933,,-341.122,0.465972,0.0,0.0
618,154.25,51.0792,54.8679,143.315,99.7934,94.8629,,0.047202,,-341.112,0.447611,0.0,0.0
620,154.75,51.0567,54.356,143.306,99.7905,94.8167,,,,-341.112,0.451665,0.0,0.0
622,155.25,50.1892,54.3273,143.367,99.7917,94.6822,,,,-341.092,0.464309,0.0,0.0
624,155.75,50.65,54.783,144.192,99.7845,95.1664,,,,-341.102,0.418616,0.0,0.0
626,156.25,51.0155,54.2338,142.676,99.7761,95.0423,,,,-341.112,0.429392,0.0,0.0
628,156.75,51.1446,54.4423,142.651,99.7576,94.8063,,,,-341.102,0.449723,0.0,0.0
630,157.25,50.8244,54.0428,137.614,99.7617,94.8883,,,,-341.112,0.44244,0.0,0.0
632,157.75,50.6074,54.1319,140.61,99.7552,94.7859,,,,-341.132,0.451411,0.0,0.0
634,158.25,50.6204,54.6028,139.779,99.746,94.9012,,,,-341.142,0.439853,0.0,0.0
636,158.75,50.3001,54.3011,143.29,99.748,94.8179,,,,-341.152,0.447784,0.0,0.0
638,159.25,51.1295,53.8685,142.111,99.7179,94.9191,,,,-341.172,0.4357,0.0,0.0
640,159.75,50.3177,53.9327,143.912,99.7139,94.6319,,,,-341.172,0.462115,0.0,0.0
642,160.25,49.5638,53.0905,145.163,99.7131,94.8271,,,,-341.192,0.443839,0.0,0.0
644,160.75,49.6261,53.1821,144.778,99.7043,94.8225,,,,-341.172,0.443483,0.0,0.0
646,161.25,49.8435,53.7405,142.486,99.6938,94.9491,,,,-341.172,0.430777,0.0,0.0
648,161.75,50.3018,53.3854,141.049,99.6878,95.1401,,,,-341.152,0.412486,0.0,0.0
650,162.25,50.0293,53.7213,138.976,99.663,95.1926,,,,-341.152,0.405412,0.0,0.0