File: 01_Data/XPS_Foam_Board/Cone/XPS_Foam_Insulation_Cone_HF75Scan_220412_R1.csv
Names,Time,Stack TC,Smoke TC,Exh Press,Smoke Comp,Smoke Meas,CO Meter,CO2 Meter,O2 Meter,Sample Mass,Ext Coeff,Start Test,Flame Verif
Chan Gain,,500,500,1,1,1,1,1,1,1,1,1.0,1.0
Offset,,0,0,0.134314,0,0,0,0,0,0,0,0.0,0.0
Gain,,1,1,25.011,13.1473,13.6402,1,1,1,1.00092,1.00708,1.0,1.0
Units,sec,C,C,Pa,%,%,%,%,%,g,/m,,
Baseline,,39.8663,41.6302,145.783,99.5105,94.2364,0.000679223,0.046033,21.0235,-834.911,0.481084,,
2,0.25,39.1972,41.3105,145.223,98.9708,93.667,0.000941538,0.054155,21.0139,-329.832,0.486575,0.0,0.0
4,0.75,38.4507,40.5897,145.917,98.9604,92.9547,0.00110687,0.0539717,21.0133,-329.842,0.553074,0.0,0.0
6,1.25,39.1412,40.8982,148.153,98.9648,92.7037,0.00124079,0.0538233,21.0126,-329.862,0.577355,0.0,0.0
8,1.75,38.5913,40.9971,144.883,98.9568,92.4869,0.00165976,0.0541132,21.0113,-329.872,0.597329,0.0,0.0
10,2.25,38.7872,40.6577,142.322,98.9616,90.7057,0.00199912,0.054717,21.0096,-329.912,0.769553,0.0,0.0
12,2.75,38.8298,40.2415,144.991,98.948,89.1018,0.00252466,0.0552061,21.0083,-329.942,0.925936,0.0,0.0
14,3.25,38.9745,40.9728,144.339,98.9556,87.3797,0.00317593,0.065729,20.9883,-329.952,1.09902,0.0,0.0
16,3.75,39.0976,40.9602,148.9,98.9536,86.8727,0.00370346,0.0742526,20.972,-330.062,1.15025,0.0,0.0
18,4.25,39.1483,40.6504,142.564,98.95,86.6662,0.00478653,0.0976841,20.9289,-330.092,1.17095,0.0,1.0
20,4.75,39.0109,40.9494,134.79,98.942,72.1124,0.00566382,0.116664,20.894,-330.202,2.79427,0.0,1.0
22,5.25,39.2575,40.7281,131.505,98.9488,63.3134,0.00692275,0.142554,20.8516,-330.272,3.94444,0.0,1.0
24,5.75,38.9052,40.7292,133.966,98.9339,62.0584,0.00794249,0.17299,20.8045,-330.333,4.11999,0.0,1.0
26,6.25,39.4065,40.9767,134.218,98.9488,57.2771,0.00876848,0.204152,20.7663,-330.433,4.82957,0.0,1.0
28,6.75,40.0079,41.5238,130.071,98.9247,54.7554,0.010275,0.235252,20.7257,-330.413,5.22518,0.0,1.0
30,7.25,40.2878,41.6738,134.092,98.9351,61.8431,0.0114952,0.260443,20.684,-330.453,4.15079,0.0,1.0
32,7.75,40.5425,41.9698,133.352,98.9175,55.7232,0.013226,0.292844,20.6398,-330.533,5.06975,0.0,1.0
34,8.25,40.9978,42.7385,127.211,98.9428,55.0197,0.0146279,0.319088,20.5946,-330.573,5.18425,0.0,1.0
36,8.75,41.3357,42.8587,130.93,98.9026,51.9793,0.0162222,0.347512,20.5466,-330.593,5.68284,0.0,1.0
38,9.25,41.7601,42.982,124.499,98.9042,43.2519,0.0179264,0.376984,20.4975,-330.703,7.30672,0.0,1.0
40,9.75,41.7872,43.0639,130.417,98.8918,44.7846,0.0199975,0.400856,20.4578,-330.783,6.99798,0.0,1.0
42,10.25,42.4365,43.6934,125.745,98.8962,40.4913,0.0222969,0.430066,20.3894,-330.873,7.88865,0.0,1.0
44,10.75,42.7042,43.839,125.231,98.8733,41.2955,0.0250752,0.462613,20.3341,-330.893,7.71287,0.0,1.0
46,11.25,42.7244,44.1175,124.848,98.8906,34.1537,0.0281499,0.49989,20.2482,-331.033,9.39186,0.0,0.0
48,11.75,43.6648,45.4797,121.25,98.8657,28.2394,0.0317013,0.539908,20.1787,-331.183,11.0694,0.0,0.0
50,12.25,43.877,44.9633,122.077,98.8818,28.5599,0.0355326,0.590278,20.0643,-331.233,10.9712,0.0,0.0
52,12.75,44.6712,46.0607,125.134,98.8633,27.3336,0.0386359,0.647238,19.9715,-331.353,11.3572,0.0,0.0
54,13.25,44.9415,46.3336,105.548,98.8721,24.9238,0.0429251,0.719291,19.8596,-331.504,12.1733,0.0,0.0
56,13.75,45.9792,46.6342,112.176,98.8565,25.2697,0.0479974,0.800978,19.7357,-331.564,12.0502,0.0,0.0
58,14.25,47.1402,48.5819,102.221,98.8617,23.0635,0.0538555,0.89273,19.6353,-331.804,12.8577,0.0,0.0
60,14.75,48.1447,49.1478,100.396,98.8428,20.4906,0.0601753,0.990076,19.554,-331.914,13.9009,0.0,0.0
62,15.25,49.1955,50.5909,98.57,98.8601,23.178,0.0652943,1.06893,19.4106,-332.154,12.8138,0.0,0.0
64,15.75,50.3356,51.9958,93.0591,98.8328,23.8124,0.0718404,1.19566,19.2945,-332.304,12.5728,0.0,0.0
66,16.25,51.6485,53.3059,94.1872,98.8417,21.5334,0.0793024,1.29832,19.1645,-332.434,13.4623,0.0,0.0
68,16.75,53.742,55.0159,94.2101,98.8485,19.4766,0.0866969,1.41221,19.0268,-332.645,14.3498,0.0,0.0
70,17.25,55.5294,56.6886,89.3137,98.8296,15.5029,0.0939017,1.53212,18.8651,-332.825,16.3639,0.0,0.0
72,17.75,56.9138,58.3709,88.5711,98.8244,18.0875,0.0997376,1.62925,18.6889,-333.025,15.0013,0.0,0.0
74,18.25,59.2216,60.9434,92.65,98.8244,17.6783,0.106905,1.70792,18.5039,-333.175,15.2034,0.0,0.0
76,18.75,60.6635,62.5723,84.7005,98.8236,18.7277,0.112711,1.84045,18.316,-333.395,14.6939,0.0,0.0
78,19.25,63.4934,65.251,85.0844,98.834,17.8952,0.118671,1.94779,18.1373,-333.525,15.0966,0.0,0.0
80,19.75,64.9507,67.3826,91.5791,98.8136,17.9468,0.123499,2.06166,17.9687,-333.796,15.0693,0.0,0.0
82,20.25,67.001,69.9086,89.59,98.8116,17.2458,0.127409,2.15389,17.8322,-333.996,15.4211,0.0,0.0
84,20.75,69.1294,72.7036,84.8806,98.8148,22.6519,0.131201,2.23666,17.7216,-334.166,13.0126,0.0,0.0
86,21.25,71.1368,74.8527,74.2154,98.7967,17.0306,0.134272,2.31097,17.632,-334.436,15.5307,0.0,0.0
88,21.75,73.3759,77.281,87.3971,98.7919,21.2882,0.136284,2.37172,17.5594,-334.476,13.559,0.0,0.0
90,22.25,75.2956,79.3375,83.3915,98.7843,17.5959,0.137914,2.42145,17.5006,-334.626,15.2411,0.0,0.0
92,22.75,77.3818,82.2065,85.6805,98.7775,20.8528,0.1379,2.4543,17.4549,-334.877,13.7403,0.0,0.0
94,23.25,79.4251,84.4,98.6501,98.7775,19.9216,0.137888,2.47422,17.4195,-335.027,14.1439,0.0,0.0
96,23.75,81.1678,87.0654,88.0818,98.7718,21.6686,0.136137,2.49036,17.422,-335.247,13.4008,0.0,0.0
98,24.25,83.5418,89.4262,89.9808,98.7626,22.3717,0.134719,2.46986,17.452,-335.367,13.1178,0.0,0.0
100,24.75,85.0484,91.5288,87.5444,98.7538,21.0026,0.132283,2.45325,17.4763,-335.487,13.6749,0.0,0.0
102,25.25,86.7852,93.74,94.3384,98.7486,21.9696,0.129151,2.42091,17.5521,-335.687,13.2768,0.0,0.0
104,25.75,88.2367,95.4254,106.303,98.7446,23.8582,0.125332,2.37772,17.6135,-335.727,12.5479,0.0,0.0
106,26.25,89.6387,97.0667,103.138,98.7265,23.0382,0.121086,2.30616,17.718,-335.918,12.8553,0.0,0.0
108,26.75,90.7055,98.7622,102.441,98.7297,23.459,0.117646,2.24819,17.8026,-336.038,12.6957,0.0,0.0
110,27.25,91.3929,100.226,102.638,98.7221,27.5729,0.111515,2.16185,17.9013,-336.188,11.2676,0.0,0.0
112,27.75,92.6031,101.093,101.389,98.7265,31.0941,0.106548,2.09192,18.0085,-336.228,10.2063,0.0,0.0
114,28.25,93.8078,102.421,108.605,98.7193,30.0743,0.102526,2.00833,18.0953,-336.278,10.5002,0.0,0.0
116,28.75,95.1291,103.825,97.7357,98.7113,27.7906,0.0962147,1.91639,18.2051,-336.468,11.1971,0.0,0.0
118,29.25,94.5518,104.394,110.889,98.6964,31.5354,0.0911029,1.84191,18.3296,-336.568,10.0791,0.0,0.0
120,29.75,96.3543,105.398,111.934,98.6952,34.8996,0.0844681,1.73295,18.4305,-336.568,9.18352,0.0,0.0
122,30.25,96.7484,106.246,112.631,98.6759,32.3437,0.079094,1.6447,18.578,-336.618,9.85366,0.0,0.0
124,30.75,96.876,106.684,115.704,98.6876,34.0683,0.0734906,1.57321,18.6974,-336.678,9.3958,0.0,0.0
126,31.25,96.5725,106.592,122.118,98.6747,38.8004,0.0678266,1.459,18.8759,-336.748,8.24567,0.0,0.0
128,31.75,97.1798,106.971,122.301,98.6715,43.4468,0.062351,1.36648,19.0204,-336.788,7.24621,0.0,0.0
130,32.25,97.0628,107.251,124.094,98.6619,52.9992,0.0571168,1.2517,19.2081,-336.788,5.48967,0.0,0.0
132,32.75,97.1119,106.972,130.935,98.6663,62.2565,0.0514805,1.15873,19.3895,-336.798,4.0679,0.0,0.0
134,33.25,96.7795,107.135,126.749,98.6442,62.1245,0.046915,1.06518,19.5627,-336.848,4.08467,0.0,0.0
136,33.75,96.6835,106.97,132.764,98.6354,71.5779,0.043217,0.972966,19.703,-336.838,2.83258,0.0,0.0
138,34.25,96.4813,107.16,134.282,98.6306,79.2967,0.0386487,0.885619,19.835,-336.838,1.92746,0.0,0.0
140,34.75,95.9904,106.539,135.555,98.6262,80.5168,0.0349483,0.803475,19.9585,-336.828,1.79217,0.0,0.0
142,35.25,95.2185,105.882,136.454,98.6178,81.7847,0.0314696,0.727539,20.0585,-336.848,1.65339,0.0,0.0
144,35.75,95.5204,105.487,141.732,98.6198,83.0764,0.0282186,0.657572,20.1523,-336.868,1.51514,0.0,0.0
146,36.25,94.898,104.952,138.04,98.6085,82.243,0.0252844,0.600899,20.2397,-336.868,1.6032,0.0,0.0
148,36.75,94.3101,104.612,138.112,98.6073,85.5057,0.022637,0.540934,20.3278,-336.838,1.2594,0.0,0.0
150,37.25,93.2088,104.146,138.789,98.5921,83.5168,0.0202745,0.492362,20.3991,-336.848,1.46595,0.0,0.0
152,37.75,92.9551,103.546,142.68,98.5897,84.0292,0.0181647,0.447687,20.4569,-336.858,1.4117,0.0,0.0
154,38.25,92.5476,103.029,135.474,98.5788,83.0052,0.0164557,0.406703,20.5128,-336.858,1.51904,0.0,0.0
156,38.75,92.0958,102.29,138.821,98.5805,87.0388,0.0150714,0.373505,20.5662,-336.879,1.10001,0.0,0.0
158,39.25,91.5058,101.901,140.535,98.5644,86.7403,0.0134739,0.339902,20.6115,-336.888,1.12891,0.0,0.0
160,39.75,90.9973,100.963,138.786,98.5664,87.3414,0.0121798,0.312684,20.65,-336.888,1.06809,0.0,0.0
162,40.25,90.0758,100.317,141.626,98.5488,88.3941,0.0110402,0.286681,20.6813,-336.899,0.960662,0.0,0.0
164,40.75,90.103,99.5598,140.017,98.5588,87.555,0.0100349,0.265618,20.7132,-336.909,1.04583,0.0,0.0
166,41.25,89.5412,99.5067,141.997,98.5391,89.459,0.00922052,0.248558,20.739,-336.909,0.854019,0.0,0.0
168,41.75,88.665,99.527,142.886,98.5371,90.4255,0.00839669,0.230214,20.7627,-336.919,0.758903,0.0,0.0
170,42.25,88.5923,98.6703,141.974,98.5231,90.3602,0.00772939,0.215355,20.7844,-336.929,0.764032,0.0,0.0
172,42.75,87.6219,98.027,144.794,98.5223,90.1296,0.00709217,0.201752,20.802,-336.939,0.786534,0.0,0.0
174,43.25,87.3671,97.3046,141.063,98.5146,91.1661,0.00657602,0.189323,20.8216,-336.919,0.684838,0.0,0.0
176,43.75,86.8497,97.013,144.493,98.5175,91.3621,0.00610523,0.179255,20.8374,-336.929,0.666112,0.0,0.0
178,44.25,86.1873,96.0986,142.215,98.5018,91.9603,0.00567644,0.168358,20.8542,-336.919,0.607058,0.0,0.0
180,44.75,85.5301,95.7355,138.398,98.5195,92.4078,0.00527395,0.159531,20.8678,-336.919,0.565758,0.0,0.0
182,45.25,85.5001,95.269,143.786,98.4898,93.3793,0.00489828,0.151036,20.8828,-336.919,0.470701,0.0,0.0
184,45.75,84.7266,94.7806,146.882,98.5018,93.4122,0.00459399,0.142945,20.8949,-336.919,0.46867,0.0,0.0
186,46.25,84.5742,94.1249,140.105,98.4801,93.8447,0.00425273,0.135459,20.9069,-336.929,0.42592,0.0,0.0
188,46.75,83.2784,93.5479,138.583,98.4773,93.7082,0.00397631,0.128555,20.9167,-336.909,0.438529,0.0,0.0
190,47.25,83.0668,92.4158,138.783,98.4541,93.4784,0.00368245,0.122195,20.9256,-336.929,0.45813,0.0,0.0
192,47.75,82.6204,91.8928,146.28,98.4701,93.3748,0.00344443,0.116351,20.9337,-336.939,0.46937,0.0,0.0
194,48.25,81.9691,92.0904,142.735,98.4533,93.5579,0.00325164,0.111064,20.9403,-336.949,0.450547,0.0,0.0
196,48.75,81.9488,91.4669,142.283,98.4565,93.627,0.00302198,0.106282,20.9466,-336.939,0.444314,0.0,0.0
198,49.25,81.2606,90.7448,138.968,98.4324,93.4913,0.00283596,0.102408,20.9525,-336.939,0.454967,0.0,0.0
200,49.75,80.7618,90.4844,142.464,98.4424,93.3889,0.00266212,0.0982349,20.9573,-336.939,0.465548,0.0,0.0
202,50.25,80.2912,89.8564,140.639,98.4192,93.4472,0.00250045,0.0948543,20.962,-336.949,0.457949,0.0,0.0
204,50.75,79.3012,88.9792,145.047,98.4308,93.6944,0.00233896,0.0916657,20.9663,-336.949,0.435649,0.0,0.0
206,51.25,78.8824,88.6623,140.503,98.4176,93.4039,0.00220815,0.0886779,20.9702,-336.929,0.461898,0.0,0.0
208,51.75,78.7443,88.3324,145.084,98.4256,93.4289,0.00207656,0.0862577,20.9741,-336.919,0.460257,0.0,0.0
210,52.25,78.8302,87.4425,142.113,98.4059,93.3435,0.00196998,0.0836224,20.9779,-336.939,0.466564,0.0,0.0
212,52.75,77.6924,87.474,143.792,98.422,93.5883,0.0018568,0.0814879,20.9814,-336.939,0.44487,0.0,0.0
214,53.25,77.5567,86.9661,141.984,98.4212,93.5621,0.00176513,0.0794693,20.9846,-336.919,0.447274,0.0,0.0
216,53.75,76.9932,86.593,140.307,98.4107,93.2869,0.00165798,0.0775737,20.9873,-336.939,0.472356,0.0,0.0
218,54.25,76.4773,86.421,144.211,98.4023,93.386,0.00157118,0.0758357,20.9894,-336.939,0.462222,0.0,0.0
220,54.75,76.4467,85.7722,141.533,98.4063,94.2543,0.00150087,0.0742457,20.9912,-336.939,0.380821,0.0,0.0
222,55.25,75.732,84.867,142.761,98.3955,93.5338,0.00140983,0.0727699,20.9928,-336.939,0.447642,0.0,0.0
224,55.75,75.6837,84.2886,142.349,98.4139,93.2187,0.00133608,0.0714054,20.9943,-336.939,0.47911,0.0,0.0
226,56.25,75.025,84.2648,146.085,98.3818,93.3673,0.00125778,0.0701269,20.9956,-336.959,0.462156,0.0,0.0
228,56.75,74.915,83.5879,142.712,98.3903,93.5658,0.00117764,0.0689353,20.9974,-336.949,0.444147,0.0,0.0
230,57.25,74.6851,83.4399,143.109,98.3766,93.4422,0.0011051,0.0678042,20.999,-336.939,0.454603,0.0,0.0
232,57.75,74.1921,82.7924,139.754,98.3778,93.5925,0.00103948,0.0667386,21.0001,-336.949,0.440514,0.0,0.0
234,58.25,73.5044,82.6411,142.424,98.3851,94.0603,0.000995283,0.0658754,21.0009,-336.949,0.397111,0.0,0.0
236,58.75,74.0918,82.1428,144.935,98.3827,93.843,0.000967546,0.0650032,21.0021,-336.939,0.417327,0.0,0.0
238,59.25,72.8513,81.5957,145.572,98.379,93.5088,0.000970055,0.064141,21.003,-336.949,0.448524,0.0,0.0
240,59.75,72.5765,81.5115,140.31,98.3702,93.6786,0.000994567,0.0633052,21.0046,-336.939,0.431701,0.0,0.0
242,60.25,72.4232,81.4899,145.147,98.3754,93.274,0.00101442,0.0625047,21.006,-336.939,0.470408,0.0,0.0
244,60.75,71.9019,80.6076,145.817,98.3646,93.6661,0.00108046,0.0617338,21.007,-336.939,0.432374,0.0,0.0
246,61.25,71.2903,80.204,139.69,98.3646,93.637,0.00113395,0.0609991,21.0079,-336.949,0.435123,0.0,0.0
248,61.75,71.405,80.7558,140.484,98.3622,93.6586,0.00117728,0.0603177,21.0086,-336.959,0.432865,0.0,0.0
250,62.25,70.8649,79.5819,144.507,98.3518,93.8743,0.00121237,0.0596879,21.0092,-336.959,0.411613,0.0,0.0
252,62.75,70.3313,78.9529,141.511,98.359,93.5354,0.00125909,0.0591779,21.0097,-336.949,0.444207,0.0,0.0
254,63.25,70.1429,79.1838,144.707,98.353,93.565,0.00128859,0.0585732,21.0098,-336.949,0.440875,0.0,0.0
256,63.75,70.261,79.1553,140.842,98.3453,93.5388,0.00130497,0.0580835,21.0104,-336.959,0.442667,0.0,0.0
258,64.25,70.136,78.2998,144.489,98.3393,94.0574,0.00130798,0.0576868,21.011,-336.949,0.393277,0.0,0.0
260,64.75,69.4739,78.2758,142.158,98.3457,93.7623,0.00130117,0.0572072,21.0119,-336.969,0.421616,0.0,0.0
262,65.25,68.986,77.6764,140.543,98.3381,93.2986,0.00128733,0.0566763,21.0126,-336.969,0.464731,0.0,0.0
264,65.75,69.5394,77.5742,141.793,98.3481,93.6283,0.00126861,0.055991,21.0131,-336.969,0.43447,0.0,0.0
266,66.25,68.3469,76.7675,146.715,98.3457,93.6703,0.00125344,0.0557613,21.0136,-336.969,0.430287,0.0,0.0
268,66.75,68.0894,76.4822,142.762,98.3481,93.4859,0.00124313,0.0553182,21.0138,-336.979,0.447913,0.0,0.0
270,67.25,68.2751,76.5155,141.377,98.3397,93.5604,0.0012255,0.0549139,21.0141,-336.969,0.440118,0.0,0.0
272,67.75,67.8177,76.0919,139.842,98.3369,93.9342,0.00120802,0.0545865,21.0144,-336.979,0.404641,0.0,0.0
274,68.25,67.7264,75.659,138.827,98.3333,94.0091,0.00119097,0.0541984,21.0151,-336.979,0.397273,0.0,0.0
276,68.75,67.2192,75.2371,142.739,98.3377,93.3956,0.00117716,0.053884,21.0156,-336.989,0.455516,0.0,0.0
278,69.25,66.8391,75.2267,141.206,98.3317,93.6054,0.00115957,0.0535611,21.016,-336.979,0.435154,0.0,0.0
280,69.75,67.1016,75.1549,140.809,98.3249,93.6024,0.00113955,0.0534234,21.0164,-336.979,0.434816,0.0,0.0
282,70.25,66.0385,74.7418,143.435,98.3293,93.5525,0.00112013,0.0531018,21.0167,-336.979,0.439927,0.0,0.0
284,70.75,65.8187,73.8667,142.922,98.3345,93.59,0.00110152,0.0527637,21.0169,-336.969,0.43686,0.0,0.0
286,71.25,65.509,73.8345,145.047,98.3269,93.8206,0.00108644,0.0524898,21.0171,-336.969,0.414433,0.0,0.0
288,71.75,65.8694,73.9792,142.031,98.3377,93.6283,0.00107667,0.0521179,21.0173,-336.969,0.433534,0.0,0.0
290,72.25,65.3307,73.8647,142.851,98.3229,93.7806,0.00106875,0.0518166,21.0174,-336.979,0.417837,0.0,0.0
292,72.75,65.5615,73.2361,145.657,98.3285,93.4663,0.00106599,0.0515367,21.0175,-336.989,0.447995,0.0,0.0
294,73.25,65.1358,72.4863,145.323,98.3205,93.418,0.00106567,0.0512776,21.0176,-336.969,0.451839,0.0,0.0
296,73.75,64.503,72.0066,142.642,98.3289,93.3335,0.00106714,0.0510678,21.0181,-336.979,0.460591,0.0,0.0
298,74.25,64.9158,72.5339,140.091,98.3108,93.9617,0.00106834,0.0508159,21.0185,-336.969,0.399714,0.0,0.0
300,74.75,64.3596,72.1236,143.741,98.3072,93.6387,0.00107296,0.050612,21.0188,-336.959,0.429812,0.0,0.0
302,75.25,64.5398,72.1055,142.044,98.312,93.9688,0.0010767,0.0504058,21.0191,-336.999,0.399157,0.0,0.0
304,75.75,63.6123,71.8787,143.12,98.304,93.7531,0.00108037,0.0502389,21.0193,-336.979,0.418731,0.0,0.0
306,76.25,63.8081,71.3821,142.606,98.3112,93.304,0.00108392,0.0500491,21.0195,-336.979,0.461804,0.0,0.0
308,76.75,63.309,71.1916,145.778,98.3056,93.6982,0.0010868,0.0498953,21.0196,-336.989,0.424053,0.0,0.0
310,77.25,63.3159,70.7437,146.119,98.3024,93.2848,0.00107939,0.0497162,21.0197,-336.969,0.462823,0.0,0.0
312,77.75,63.3359,71.0234,141.529,98.2928,93.4559,0.00107339,0.0495712,21.0198,-336.979,0.445771,0.0,0.0
314,78.25,63.0341,70.6675,141.025,98.2976,93.6466,0.00104775,0.0493991,21.0202,-336.969,0.428201,0.0,0.0
316,78.75,62.8785,69.7938,144.174,98.296,93.4126,0.00102698,0.0492598,21.0208,-336.979,0.450152,0.0,0.0
318,79.25,62.0014,69.9418,143.351,98.296,93.1379,0.000984613,0.0491469,21.0213,-336.999,0.476171,0.0,0.0
320,79.75,62.1962,69.6008,146.419,98.2884,93.6145,0.000950299,0.049001,21.0217,-336.989,0.430395,0.0,0.0
322,80.25,62.2568,69.8008,140.926,98.2815,93.4701,0.000895769,0.0488827,21.022,-336.979,0.443423,0.0,0.0
324,80.75,61.7547,69.3712,143.003,98.2811,93.3514,0.000851599,0.0487468,21.0223,-336.989,0.454607,0.0,0.0
326,81.25,61.5348,69.184,141.444,98.292,93.1879,0.000815821,0.0486367,21.0225,-336.999,0.471075,0.0,0.0
328,81.75,61.3468,68.983,140.684,98.2783,93.6661,0.000773481,0.0485475,21.0227,-336.989,0.424623,0.0,0.0
330,82.25,61.7693,68.2198,142.696,98.2956,93.4938,0.000739185,0.0484752,21.0228,-336.989,0.442443,0.0,0.0
332,82.75,60.7821,68.3151,146.782,98.2779,93.652,0.000719076,0.0484167,21.0229,-336.989,0.425923,0.0,0.0
334,83.25,61.1611,68.4619,145.774,98.2787,93.346,0.000709693,0.0483693,21.023,-336.979,0.454903,0.0,0.0
336,83.75,60.5125,67.713,142.507,98.2723,93.5408,0.000709127,0.0483094,21.0231,-336.989,0.435908,0.0,0.0
338,84.25,60.6953,67.5554,142.632,98.2755,93.304,0.000715,0.0482415,21.0231,-336.979,0.458594,0.0,0.0
340,84.75,60.5168,66.8516,143.449,98.2671,93.4106,0.000717504,0.0481865,21.0234,-336.989,0.447752,0.0,0.0
342,85.25,60.5116,66.8993,143.27,98.2735,93.4676,0.000721785,0.0480917,21.0238,-336.999,0.442938,0.0,0.0
344,85.75,60.0276,67.2309,142.793,98.2599,93.5621,0.000716746,0.0479697,21.024,-336.999,0.432785,0.0,0.0
346,86.25,59.3101,67.0837,142.893,98.2707,93.2882,0.000712665,0.0478709,21.0239,-336.969,0.459658,0.0,0.0
348,86.75,59.6539,66.6771,140.642,98.2559,93.4842,0.000691138,0.0477909,21.0238,-336.989,0.439777,0.0,0.0
350,87.25,59.9235,66.5431,141.384,98.2643,93.6999,0.000673702,0.0477261,21.0238,-336.979,0.420183,0.0,0.0
352,87.75,59.6406,66.4559,144.47,98.243,93.6657,0.000649864,0.0476985,21.0237,-336.989,0.421489,0.0,0.0
354,88.25,59.2025,66.2535,142.775,98.2502,93.1554,0.000630555,0.0476376,21.0237,-336.979,0.470403,0.0,0.0
356,88.75,58.9483,65.876,142.652,98.2518,93.1212,0.000628367,0.0475883,21.0236,-336.969,0.473784,0.0,0.0
358,89.25,59.0708,65.6989,139.444,98.2587,93.8347,0.000626594,0.0474802,21.0234,-336.979,0.40697,0.0,0.0
360,89.75,57.838,65.8529,146.15,98.2398,93.4938,0.000625158,0.0473927,21.0233,-336.979,0.437429,0.0,0.0
362,90.25,58.5848,65.5105,145.788,98.247,93.3997,0.000648293,0.0472809,21.0232,-336.979,0.446972,0.0,0.0
364,90.75,58.0018,65.5746,143.449,98.2318,93.3706,0.000667033,0.0471903,21.0231,-336.969,0.448358,0.0,0.0
366,91.25,58.466,64.9331,144.605,98.2442,93.4297,0.000694368,0.0470879,21.023,-336.989,0.443885,0.0,0.0
368,91.75,58.1248,65.09,146.2,98.231,93.4497,0.000716509,0.0469788,21.0229,-336.989,0.440806,0.0,0.0
370,92.25,58.3757,64.7355,141.491,98.229,93.2719,0.000728046,0.0468904,21.0229,-336.989,0.457444,0.0,0.0
372,92.75,58.1583,64.4291,140.388,98.2254,93.3202,0.000731632,0.0468188,21.0229,-336.989,0.452548,0.0,0.0
374,93.25,57.2536,64.1544,146.141,98.223,93.2561,0.000720471,0.0467608,21.0228,-336.989,0.458401,0.0,0.0
376,93.75,57.0961,63.7829,143.202,98.2049,93.1237,0.000698769,0.0467211,21.0228,-336.999,0.469324,0.0,0.0
378,94.25,57.5619,63.7982,144.098,98.2157,93.1142,0.00066394,0.0466953,21.0228,-336.999,0.471207,0.0,0.0
380,94.75,56.7751,63.4009,141.892,98.2137,93.2545,0.000620204,0.0466457,21.0228,-336.999,0.457728,0.0,0.0
382,95.25,57.0311,63.2891,138.748,98.2069,93.1895,0.000574562,0.0465797,21.0227,-336.999,0.463269,0.0,0.0
384,95.75,57.0113,63.0876,142.638,98.2037,93.5554,0.000528399,0.0465263,21.0227,-336.979,0.428362,0.0,0.0
386,96.25,56.7533,63.0623,141.663,98.2101,93.6245,0.000491007,0.0464967,21.0227,-336.979,0.422417,0.0,0.0
388,96.75,56.8409,62.8502,146.803,98.1997,93.3981,0.00046838,0.046487,21.0227,-336.979,0.442872,0.0,0.0
390,97.25,56.563,62.8448,141.299,98.2009,93.9892,0.000456947,0.0464921,21.0227,-336.999,0.387248,0.0,0.0
392,97.75,56.4378,63.0666,145.757,98.1901,93.1454,0.000461739,0.0464818,21.0227,-336.989,0.465936,0.0,0.0
394,98.25,56.3974,62.4036,142.161,98.1917,93.2507,0.000478268,0.0464606,21.0227,-336.999,0.456098,0.0,0.0
396,98.75,55.7908,62.4419,140.701,98.1957,93.2274,0.000491656,0.0464435,21.0227,-336.979,0.458669,0.0,0.0
398,99.25,55.4558,61.7776,142.021,98.1824,93.3206,0.000514644,0.0464295,21.0227,-336.979,0.448645,0.0,0.0
400,99.75,55.8052,62.2378,143.902,98.182,93.5184,0.000533264,0.0464183,21.0227,-336.979,0.429912,0.0,0.0
402,100.25,55.2565,61.0826,145.095,98.1792,93.336,0.000545917,0.0464092,21.0229,-336.989,0.4469,0.0,0.0
404,100.75,55.7678,61.5169,143.357,98.1728,93.5975,0.000556166,0.0464018,21.0233,-336.989,0.421613,0.0,0.0
406,101.25,55.6514,61.7035,145.586,98.1772,93.2973,0.00055354,0.0463958,21.0236,-337.009,0.450383,0.0,0.0
408,101.75,55.2766,61.6294,143.529,98.1688,93.2815,0.000551412,0.0463909,21.0239,-336.999,0.451123,0.0,0.0
410,102.25,55.204,61.4659,139.093,98.164,93.411,0.000545217,0.046387,21.0241,-336.989,0.438438,0.0,0.0
412,102.75,55.0628,61.3942,144.962,98.156,93.4988,0.000536174,0.0463974,21.0238,-336.989,0.429414,0.0,0.0
414,103.25,55.7287,60.8987,141.076,98.1716,93.3523,0.000528849,0.0464059,21.0236,-336.989,0.444677,0.0,0.0
416,103.75,54.7,61.0993,142.425,98.1531,93.769,0.000538698,0.0463855,21.0234,-336.999,0.403672,0.0,0.0
418,104.25,54.7453,60.6241,144.879,98.1511,93.1491,0.000546676,0.046369,21.0233,-336.999,0.462079,0.0,0.0
420,104.75,54.7292,60.2795,141.432,98.154,93.2844,0.000582293,0.0463556,21.0232,-336.989,0.449512,0.0,0.0
422,105.25,54.1041,60.0737,145.507,98.1568,93.418,0.000611143,0.0463447,21.0231,-336.989,0.437119,0.0,0.0
424,105.75,54.3014,59.8311,141.967,98.1483,93.1275,0.000650508,0.046336,21.023,-336.989,0.463879,0.0,0.0
426,106.25,54.3566,60.4692,140.385,98.1435,93.366,0.000696791,0.0463289,21.023,-336.999,0.440849,0.0,0.0
428,106.75,54.4732,60.2564,140.957,98.1443,93.5196,0.000741323,0.0463231,21.0229,-336.979,0.4264,0.0,0.0
430,107.25,54.519,59.8758,142.912,98.1383,93.4821,0.000783733,0.0463184,21.0229,-336.989,0.429399,0.0,0.0
432,107.75,54.2206,59.8921,144.443,98.1379,93.2207,0.000818085,0.0463146,21.0228,-336.989,0.4541,0.0,0.0
434,108.25,53.9408,59.6527,142.986,98.1403,93.0954,0.00084591,0.0462972,21.0228,-336.989,0.466199,0.0,0.0
436,108.75,54.0146,59.5917,141.334,98.1387,93.595,0.000858623,0.0462702,21.0231,-336.989,0.41878,0.0,0.0
438,109.25,53.9016,59.0647,143.962,98.1355,93.279,0.000868921,0.0462484,21.0235,-336.989,0.448363,0.0,0.0
440,109.75,53.4949,59.2633,140.947,98.1491,92.9785,0.000860235,0.0462307,21.024,-336.999,0.4781,0.0,0.0
442,110.25,53.1795,59.4618,143.909,98.1207,93.0963,0.0008532,0.0462163,21.0245,-336.979,0.464349,0.0,0.0
444,110.75,53.4349,58.9487,146.173,98.1283,93.7003,0.000847502,0.0462047,21.0248,-336.999,0.407906,0.0,0.0
446,111.25,53.228,59.3275,143.041,98.1323,93.8743,0.000814932,0.0461816,21.0251,-336.989,0.391879,0.0,0.0
448,111.75,53.5861,58.5037,147.094,98.1271,93.5517,0.000788551,0.046163,21.0254,-336.989,0.42182,0.0,0.0
450,112.25,53.182,59.0993,142.352,98.1275,93.5729,0.00075382,0.046135,21.0256,-336.989,0.419852,0.0,0.0
452,112.75,53.2678,58.9381,142.717,98.1267,93.3773,0.000725689,0.0461123,21.0257,-336.989,0.438269,0.0,0.0
454,113.25,52.8245,58.5647,142.516,98.115,93.1437,0.000698044,0.0460939,21.0258,-336.989,0.459342,0.0,0.0
456,113.75,53.3115,58.4565,143.005,98.1247,93.55,0.000675652,0.0461062,21.0259,-336.999,0.42176,0.0,0.0
458,114.25,53.324,57.8363,144.988,98.109,93.4538,0.000666016,0.0461162,21.0258,-336.989,0.429437,0.0,0.0
460,114.75,52.7417,58.0471,144.512,98.1247,93.259,0.00065821,0.0460698,21.0255,-336.999,0.449279,0.0,0.0
462,115.25,52.279,58.2758,141.796,98.1082,93.4326,0.000664036,0.0460323,21.0252,-336.989,0.431371,0.0,0.0
464,115.75,52.544,57.8082,142.704,98.1251,93.2303,0.000668755,0.0459947,21.025,-336.979,0.452036,0.0,0.0
466,116.25,52.5441,57.9055,142.516,98.111,93.6366,0.000678653,0.0459578,21.0248,-336.989,0.41236,0.0,0.0
468,116.75,51.9468,57.7572,141.045,98.1223,93.1879,0.00068667,0.045935,21.0247,-336.989,0.455808,0.0,0.0
470,117.25,52.2519,57.4109,145.119,98.1082,92.822,0.000693164,0.0459231,21.0246,-336.989,0.489298,0.0,0.0
472,117.75,52.1203,57.1722,144.129,98.1235,93.2715,0.000689919,0.0459062,21.0245,-336.999,0.447988,0.0,0.0
474,118.25,52.3618,57.2306,144.961,98.1154,93.1504,0.00068729,0.0458861,21.0244,-336.999,0.458747,0.0,0.0
476,118.75,52.0034,56.9763,143.664,98.1118,93.2919,0.000681964,0.0458627,21.0243,-337.009,0.44501,0.0,0.0
478,119.25,51.8413,57.3418,141.649,98.0902,93.1674,0.000674773,0.0458372,21.0247,-336.999,0.454853,0.0,0.0
480,119.75,51.6365,56.6886,146.488,98.1114,93.331,0.000670276,0.0458309,21.025,-337.009,0.441269,0.0,0.0
482,120.25,51.6918,56.895,142.554,98.105,93.5417,0.000667828,0.0458388,21.0251,-336.999,0.420777,0.0,0.0
484,120.75,51.5566,56.4645,141.209,98.1082,93.2453,0.000669682,0.0458451,21.0252,-337.009,0.449099,0.0,0.0
486,121.25,51.6559,56.6988,146.137,98.1018,93.2857,0.000674636,0.0458216,21.0253,-337.009,0.444697,0.0,0.0
488,121.75,51.5885,56.7816,143.434,98.117,93.1712,0.000682487,0.0457767,21.0253,-337.009,0.456917,0.0,0.0
490,122.25,51.0707,56.4493,141.858,98.111,93.2082,0.0006923,0.0457403,21.0254,-336.989,0.452864,0.0,0.0
492,122.75,51.4902,56.2735,142.833,98.113,93.1471,0.000700249,0.0456285,21.0254,-336.979,0.458846,0.0,0.0
494,123.25,51.3978,56.1351,141.554,98.101,93.5446,0.000711548,0.0455378,21.0254,-336.989,0.42014,0.0,0.0
496,123.75,51.2399,56.4757,143.252,98.1082,93.5845,0.0007207,0.0455053,21.0254,-336.999,0.417017,0.0,0.0
498,124.25,51.0626,56.2034,141.652,98.103,93.5662,0.000728113,0.0454789,21.0254,-336.989,0.418277,0.0,0.0
500,124.75,51.2857,55.888,145.437,98.113,93.3152,0.00073898,0.0454985,21.0255,-336.999,0.442912,0.0,0.0
502,125.25,51.1734,55.9706,141.368,98.1058,92.9281,0.000747783,0.0455143,21.0255,-336.999,0.478986,0.0,0.0
504,125.75,50.8852,55.6709,143.223,98.1102,93.2649,0.000758559,0.0455271,21.0255,-336.999,0.447427,0.0,0.0
506,126.25,51.4102,55.7254,144.372,98.097,93.2898,0.000767289,0.0455374,21.0255,-337.019,0.44387,0.0,0.0
508,126.75,50.9597,55.8499,140.954,98.1098,93.1637,0.000778007,0.04551,21.0255,-337.009,0.456978,0.0,0.0
510,127.25,50.8648,55.539,145.785,98.1058,93.0676,0.000786689,0.0454555,21.0255,-337.009,0.465739,0.0,0.0
512,127.75,50.6258,54.8938,144.155,98.1082,93.674,0.000802233,0.0454114,21.0255,-336.999,0.408572,0.0,0.0
514,128.25,50.5537,55.3918,146.564,98.0946,93.2657,0.000814824,0.0454165,21.0255,-336.999,0.445939,0.0,0.0
516,128.75,50.5769,54.9612,143.473,98.1042,93.3106,0.00083232,0.0454206,21.0255,-337.009,0.44255,0.0,0.0
518,129.25,50.7454,55.2059,139.718,98.0938,93.5488,0.000846492,0.0454376,21.0255,-336.999,0.419096,0.0,0.0
520,129.75,50.1297,55.3554,145.682,98.0986,93.3673,0.000860483,0.0454513,21.0255,-336.989,0.436684,0.0,0.0
522,130.25,50.2998,54.7776,142.68,98.0974,92.988,0.000874076,0.0454266,21.0255,-336.989,0.47253,0.0,0.0
524,130.75,50.7125,55.2002,140.915,98.1074,93.2495,0.000885087,0.0453744,21.0255,-336.999,0.448633,0.0,0.0
526,131.25,50.2264,54.7765,142.709,98.1002,93.4522,0.000894006,0.045332,21.0255,-336.999,0.428799,0.0,0.0
528,131.75,50.6934,54.9392,143.524,98.0982,93.1063,0.000894188,0.0452977,21.0255,-337.009,0.461379,0.0,0.0
530,132.25,49.9326,54.6973,143.499,98.1018,93.5346,0.000887998,0.0452775,21.0261,-336.999,0.421156,0.0,0.0
532,132.75,50.1413,54.8544,141.913,98.0954,93.4613,0.000873386,0.0452679,21.0265,-337.009,0.427501,0.0,0.0
534,133.25,49.5687,54.4258,141.618,98.0982,93.1799,0.000852911,0.0452601,21.0269,-337.009,0.45439,0.0,0.0
536,133.75,49.7914,54.776,140.407,98.109,93.2432,0.000836326,0.0452538,21.0272,-337.029,0.44937,0.0,0.0
538,134.25,49.4674,54.7495,142.515,98.1006,93.4384,0.000792518,0.04522,21.0275,-337.009,0.430134,0.0,0.0
540,134.75,49.6781,54.2813,143.142,98.1102,92.8927,0.000757034,0.0451669,21.0277,-337.009,0.482746,0.0,0.0
542,135.25,49.6634,54.0573,142.138,98.0994,93.329,0.000707651,0.0451238,21.0278,-337.009,0.440381,0.0,0.0
544,135.75,49.866,53.9897,144.221,98.1014,92.8811,0.000667651,0.0451026,21.0279,-337.009,0.48306,0.0,0.0
546,136.25,50.1991,54.2931,142.512,98.1026,93.4193,0.000619475,0.0450853,21.0283,-337.019,0.432125,0.0,0.0
548,136.75,49.6996,53.8406,142.078,98.1054,93.2873,0.000580452,0.045085,21.0288,-337.029,0.444864,0.0,0.0
550,137.25,49.4095,53.4353,143.721,98.1046,93.5163,0.000550121,0.0450847,21.0292,-337.019,0.423139,0.0,0.0
552,137.75,49.4124,53.5561,144.827,98.1082,93.5238,0.000526703,0.0451275,21.0295,-337.009,0.422756,0.0,0.0
554,138.25,49.7883,54.0734,141.469,98.0926,93.667,0.000507734,0.0452009,21.0297,-337.019,0.407831,0.0,0.0
556,138.75,49.4401,53.8015,141.399,98.1038,93.085,0.000510574,0.0452675,21.0297,-337.009,0.463899,0.0,0.0
558,139.25,49.5686,53.7657,141.09,98.1066,92.9522,0.000512875,0.0453279,21.0295,-336.999,0.476762,0.0,0.0
560,139.75,49.4065,53.7606,144.626,98.1106,93.202,0.000514738,0.045341,21.0293,-337.019,0.453419,0.0,0.0
562,140.25,49.2136,53.8956,140.893,98.111,93.0521,0.00052596,0.0453193,21.0291,-337.029,0.467671,0.0,0.0
564,140.75,49.1005,53.7309,144.743,98.1126,93.3718,0.000535049,0.0453018,21.029,-337.019,0.437516,0.0,0.0
566,141.25,49.7473,53.5681,143.171,98.1142,93.0992,0.000544841,0.0452331,21.0289,-337.029,0.463495,0.0,0.0
568,141.75,49.3961,53.7649,140.878,98.1215,93.3618,0.000551494,0.0451774,21.0288,-337.009,0.439257,0.0,0.0
570,142.25,49.5504,53.5089,144.542,98.1235,93.3673,0.000555732,0.0451324,21.0288,-336.999,0.438925,0.0,0.0
572,142.75,49.1942,53.8303,141.376,98.121,93.3981,0.000552136,0.0450959,21.0287,-337.029,0.435794,0.0,0.0
574,143.25,49.2119,53.5031,144.031,98.117,93.1966,0.000542898,0.0450663,21.0287,-337.019,0.454509,0.0,0.0
576,143.75,48.7429,53.1458,144.341,98.1359,93.5084,0.000535415,0.0450832,21.0286,-337.029,0.426703,0.0,0.0
578,144.25,49.6363,53.2259,144.737,98.1263,93.2257,0.000497807,0.0450969,21.0286,-337.039,0.452579,0.0,0.0
580,144.75,49.108,53.1986,140.495,98.1263,92.9843,0.000467346,0.0450808,21.0286,-337.049,0.475487,0.0,0.0
582,145.25,48.8289,52.5734,137.628,98.1331,93.6278,0.000442671,0.0450677,21.0286,-337.049,0.415172,0.0,0.0
584,145.75,48.7346,52.8644,145.946,98.1295,93.3444,0.000402074,0.0450298,21.0286,-337.049,0.441633,0.0,0.0
586,146.25,48.959,52.5174,139.181,98.154,93.0517,0.00036919,0.0449992,21.0285,-337.029,0.471575,0.0,0.0
588,146.75,49.0292,52.7441,146.728,98.1371,92.9189,0.000361953,0.0450016,21.0288,-337.049,0.482674,0.0,0.0
590,147.25,48.8285,52.4742,142.667,98.1503,93.0763,0.00035609,0.0450036,21.0292,-337.039,0.468918,0.0,0.0
592,147.75,49.1561,52.6479,143.628,98.1331,92.9806,0.000385315,0.0450123,21.0295,-337.059,0.476457,0.0,0.0
594,148.25,48.9658,52.7277,146.554,98.1459,93.3685,0.000408987,0.0450259,21.0297,-337.059,0.44083,0.0,0.0
596,148.75,48.4723,52.8761,143.303,98.1319,93.1375,0.000447588,0.0450368,21.0297,-337.069,0.461451,0.0,0.0
598,149.25,49.041,52.3043,139.522,98.1515,93.2074,0.000478855,0.0450593,21.0295,-337.059,0.456591,0.0,0.0
600,149.75,48.6769,52.3453,142.158,98.1459,93.0796,0.00050904,0.0450776,21.0293,-337.049,0.468205,0.0,0.0
602,150.25,48.4649,52.4064,142.151,98.1527,93.7361,0.00053349,0.0451138,21.0291,-337.059,0.406736,0.0,0.0
604,150.75,48.2035,52.2505,141.607,98.1499,93.177,0.000541839,0.0451626,21.029,-337.049,0.459327,0.0,0.0
606,151.25,48.5479,52.3672,142.307,98.1696,93.331,0.000538293,0.045202,21.0289,-337.039,0.446506,0.0,0.0
608,151.75,48.3589,51.9837,142.305,98.154,93.5537,0.000535421,0.045234,21.0288,-337.029,0.424043,0.0,0.0
610,152.25,48.9693,51.8903,142.204,98.1628,93.3843,0.000508824,0.0452671,21.0287,-337.069,0.44085,0.0,0.0
612,152.75,48.6777,51.6225,142.528,98.1596,93.5587,0.00048728,0.0453003,21.0285,-337.059,0.424077,0.0,0.0
614,153.25,48.5815,52.1793,143.1,98.1752,93.1629,0.00046983,0.0453412,21.0283,-337.029,0.462943,0.0,0.0
616,153.75,48.2706,52.3911,142.719,98.1684,93.5625,0.000455695,0.0453869,21.0282,-337.019,0.424518,0.0,0.0
618,154.25,48.4788,51.9337,144.279,98.174,93.304,0.000444246,0.0454239,21.0281,-337.029,0.449465,0.0,0.0
620,154.75,48.1716,52.1098,142.917,98.1668,93.0721,0.000434973,0.0454538,21.028,-337.049,0.470793,0.0,0.0
622,155.25,48.0281,51.4378,145.121,98.1812,93.5067,,0.0454781,,-337.029,0.430941,0.0,0.0
624,155.75,48.4469,51.7907,144.212,98.1784,93.585,,0.0454906,,-337.029,0.423298,0.0,0.0
626,156.25,47.9594,51.6452,143.769,98.1893,93.0372,,0.0454943,,-337.039,0.476135,0.0,0.0
628,156.75,48.1001,51.3737,142.008,98.184,93.3531,,0.0454973,,-337.029,0.445718,0.0,0.0
630,157.25,48.3734,51.4309,142.235,98.1989,93.5221,,0.0454853,,-337.029,0.431075,0.0,0.0
632,157.75,48.2064,51.7786,145.353,98.1848,93.4751,,0.0454628,,-337.049,0.434256,0.0,0.0
634,158.25,47.8106,51.5427,143.654,98.1969,93.4139,,,,-337.039,0.441124,0.0,0.0
636,158.75,47.6615,51.6301,143.709,98.1997,93.7094,,,,-337.019,0.413471,0.0,0.0
638,159.25,47.9958,51.7928,141.961,98.2121,93.4018,,,,-337.029,0.443637,0.0,0.0
640,159.75,47.9818,51.5747,141.851,98.2033,93.2998,,,,-337.029,0.452493,0.0,0.0
642,160.25,48.1173,51.2408,145.602,98.2061,93.2965,,,,-337.019,0.453061,0.0,0.0
644,160.75,48.1766,51.2023,141.849,98.2077,93.5221,,,,-337.039,0.431869,0.0,0.0
646,161.25,48.0994,51.0615,139.858,98.2238,93.4892,,,,-337.039,0.436419,0.0,0.0
648,161.75,47.5398,50.7585,141.445,98.2177,93.2861,,,,-337.049,0.455094,0.0,0.0
650,162.25,47.5397,51.3077,143.167,98.2422,93.4513,,,,-337.039,0.441658,0.0,0.0
652,162.75,47.6449,51.3628,142.13,98.223,93.4359,,,,-337.039,0.441383,0.0,0.0
654,163.25,48.0951,51.5037,141.613,98.2358,93.4114,,,,-337.049,0.444859,0.0,0.0
656,163.75,47.8009,51.1702,140.831,98.2414,93.3431,,,,-337.059,0.451823,0.0,0.0
658,164.25,47.5015,50.4594,146.966,98.2506,93.2191,,,,-337.049,0.464401,0.0,0.0
660,164.75,47.1594,50.9882,144.982,98.2358,93.6129,,,,-337.049,0.425827,0.0,0.0
662,165.25,47.5038,50.5233,142.372,98.245,93.3818,,,,-337.039,0.448485,0.0,0.0
664,165.75,47.8509,51.2536,146.673,98.247,93.1425,,,,-337.039,0.471337,0.0,0.0