File: 01_Data/XPS_Foam_Board/Cone/XPS_Foam_Insulation_Cone_HF25Scan_220412_R2.csv
Names,Time,Stack TC,Smoke TC,Exh Press,Smoke Comp,Smoke Meas,CO Meter,CO2 Meter,O2 Meter,Sample Mass,Ext Coeff,Start Test,Flame Verif
Chan Gain,,500,500,1,1,1,1,1,1,1,1,1.0,1.0
Offset,,0,0,0.134314,0,0,0,0,0,0,0,0.0,0.0
Gain,,1,1,25.011,13.1473,13.6402,1,1,1,1.00092,1.00708,1.0,1.0
Units,sec,C,C,Pa,%,%,%,%,%,g,/m,,
Baseline,,19.485,19.8698,155.938,98.6509,93.7644,0.000564393,0.0484811,21.0252,-833.813,0.4488,,
4,0.75,18.216,18.7508,156.465,98.5375,93.7598,0.000680852,0.0680054,20.9997,-331.003,0.439063,0.0,0.0
8,1.75,18.7378,18.3336,154.683,98.5732,93.6562,0.00070941,0.0662197,21.0021,-331.073,0.452033,0.0,0.0
12,2.75,18.4646,18.6621,154.797,98.5825,93.4622,0.000730814,0.0644864,21.005,-331.093,0.471178,0.0,0.0
16,3.75,18.7649,18.8955,151.582,98.5909,93.7685,0.000747057,0.0631064,21.0076,-331.133,0.443022,0.0,0.0
20,4.75,18.5299,19.0631,154.723,98.6202,93.3856,0.000764258,0.061379,21.0095,-331.153,0.481799,0.0,0.0
24,5.75,18.5215,18.9013,157.888,98.6471,93.6228,0.000784114,0.0598679,21.0114,-331.163,0.46179,0.0,0.0
28,6.75,18.4373,18.8581,156.238,98.6804,93.3527,0.000796897,0.0586834,21.0126,-331.183,0.490299,0.0,0.0
32,7.75,18.6475,19.1275,155.906,98.692,93.5816,0.000788575,0.0576834,21.0141,-331.183,0.469703,0.0,0.0
36,8.75,18.8062,19.0051,152.185,98.7032,93.7178,0.000761393,0.0568324,21.0156,-331.213,0.457867,0.0,0.0
40,9.75,18.6234,19.6667,156.465,98.7301,93.3477,0.000717174,0.0559683,21.0166,-331.233,0.495225,0.0,0.0
44,10.75,18.9597,19.268,152.334,98.7494,93.7053,0.00067717,0.0550182,21.0175,-331.263,0.463174,0.0,0.0
48,11.75,18.8057,19.1839,154.957,98.7903,93.4476,0.000650924,0.0538396,21.0187,-331.273,0.491159,0.0,0.0
52,12.75,19.0804,19.3203,158.577,98.7887,93.7061,0.000651368,0.052632,21.0206,-331.293,0.466612,0.0,0.0
56,13.75,18.8,18.873,151.996,98.7987,93.3956,0.000662575,0.051685,21.0224,-331.283,0.496833,0.0,0.0
60,14.75,18.4928,18.7329,157.14,98.8392,93.4289,0.000694122,0.0506358,21.0238,-331.303,0.497306,0.0,0.0
64,15.75,18.9726,19.7865,157.929,98.8469,93.7161,0.000700545,0.0496415,21.0247,-331.313,0.470871,0.0,0.0
68,16.75,18.5422,19.4306,153.702,98.8629,93.0963,0.000686044,0.048671,21.0261,-331.343,0.530925,0.0,0.0
72,17.75,18.5307,19.0623,156.028,98.8822,93.3748,0.000667737,0.0478201,21.027,-331.383,0.506261,0.0,0.0
76,18.75,18.7286,19.1964,152.759,98.9034,93.6886,0.00066535,0.0471412,21.0276,-331.393,0.478516,0.0,0.0
80,19.75,19.2677,19.1614,156.532,98.9223,93.3077,0.000667103,0.0465562,21.028,-331.333,0.516187,0.0,0.0
84,20.75,19.0385,19.4258,156.758,98.9263,93.2445,0.000643979,0.0460598,21.0294,-331.353,0.522538,0.0,0.0
88,21.75,18.623,19.5022,153.099,98.9351,93.4568,0.000608275,0.0456476,21.0303,-331.323,0.503236,0.0,0.0
92,22.75,18.9924,19.454,157.503,98.9532,93.1304,0.000582338,0.045416,21.0307,-331.333,0.53575,0.0,0.0
96,23.75,19.2576,19.7935,152.078,98.9708,93.7269,0.000559213,0.0452745,21.0311,-331.363,0.480924,0.0,0.0
100,24.75,18.9883,19.4438,149.909,98.9845,93.326,0.00054699,0.0452399,21.0314,-331.333,0.520005,0.0,0.0
104,25.75,18.8021,19.2137,153.772,98.9933,93.2657,0.000552155,0.0452616,21.0316,-331.343,0.526508,0.0,0.0
108,26.75,18.9668,19.4041,155.223,99.0013,93.2682,0.000566532,0.0453158,21.0317,-331.353,0.526987,0.0,0.0
112,27.75,19.0077,19.5331,158.176,99.0102,93.2607,0.000574234,0.0453975,21.0318,-331.353,0.528485,0.0,0.0
116,28.75,18.9437,19.8394,154.581,99.0254,93.2561,0.000570161,0.0454706,21.0318,-331.363,0.53028,0.0,0.0
120,29.75,19.5858,19.4811,158.934,99.0302,93.2008,0.000559965,0.0454788,21.0319,-331.363,0.535955,0.0,0.0
124,30.75,19.1556,19.6049,154.144,99.0399,93.4422,0.000562268,0.0453928,21.0319,-331.363,0.513959,0.0,0.0
128,31.75,19.0343,19.5475,155.098,99.0503,92.8811,0.000576802,0.0452839,21.0319,-331.363,0.568098,0.0,0.0
132,32.75,18.9772,19.328,154.437,99.0575,92.8923,0.000617039,0.0452125,21.0311,-331.373,0.567673,0.0,0.0
136,33.75,19.2154,19.2549,153.656,99.0715,93.5117,0.000657476,0.0451163,21.031,-331.383,0.510216,0.0,0.0
140,34.75,19.1623,19.5161,155.294,99.082,93.3756,0.000688869,0.0450778,21.0313,-331.383,0.524014,0.0,0.0
144,35.75,19.1542,19.4594,157.335,99.096,92.9568,0.000701251,0.0449943,21.0315,-331.373,0.564973,0.0,0.0
148,36.75,19.2341,19.2629,152.533,99.1012,93.2549,0.000687384,0.0449239,21.0316,-331.413,0.53716,0.0,0.0
152,37.75,19.1833,19.8012,153.435,99.102,92.8873,0.000656301,0.0449516,21.0316,-331.373,0.572119,0.0,0.0
156,38.75,19.3712,19.9555,154.873,99.1149,92.9851,0.000626072,0.0449205,21.0317,-331.393,0.563965,0.0,0.0
160,39.75,19.2905,19.9736,156.864,99.1261,93.3111,0.000569882,0.0448612,21.0317,-331.404,0.534054,0.0,0.0
164,40.75,19.1486,19.6344,156.242,99.1418,93.1949,0.000498978,0.0447925,21.0317,-331.413,0.546451,0.0,0.0
168,41.75,19.7034,19.8764,155.255,99.1422,93.1841,0.000414624,0.044783,21.0317,-331.393,0.547513,0.0,0.0
172,42.75,19.6425,19.4846,154.797,99.1534,92.9219,0.000338493,0.0448099,21.0317,-331.413,0.573411,0.0,0.0
176,43.75,19.1026,19.8602,154.78,99.1638,93.4364,0.00028727,0.0448275,21.0317,-331.413,0.525561,0.0,0.0
180,44.75,19.4614,20.5086,155.724,99.1682,93.2923,0.000271152,0.0447405,21.0317,-331.404,0.539582,0.0,0.0
184,45.75,19.2071,19.9586,152.937,99.1711,92.7699,0.000272359,0.0447081,21.0317,-331.413,0.58944,0.0,0.0
188,46.75,19.2152,19.7238,155.917,99.1887,93.361,0.000317051,0.0446621,21.0317,-331.404,0.534903,0.0,0.0
192,47.75,19.4311,20.0003,154.525,99.1951,93.3032,0.000379318,0.044632,21.0317,-331.444,0.540952,0.0,0.0
196,48.75,19.2152,20.0122,154.908,99.2023,93.4971,0.000442146,0.0446615,21.0317,-331.413,0.523248,0.0,0.0
200,49.75,19.3883,20.3398,151.041,99.224,92.9785,0.000497222,0.0446226,21.0317,-331.423,0.574319,0.0,0.0
204,50.75,19.8597,20.2922,154.12,99.222,93.1604,0.000535353,0.044562,21.0317,-331.423,0.556874,0.0,0.0
208,51.75,19.6039,19.6085,153.646,99.2212,92.7391,0.000539123,0.044517,21.0317,-331.434,0.596839,0.0,0.0
212,52.75,19.8466,19.8649,157.493,99.2268,93.5105,0.000528341,0.0445019,21.0317,-331.454,0.524168,0.0,0.0
216,53.75,19.7888,20.329,158.486,99.2353,92.9423,0.00050257,0.0445053,21.0324,-331.444,0.578762,0.0,0.0
220,54.75,19.4699,19.6263,151.326,99.2353,92.8732,0.000490133,0.0444552,21.0323,-331.444,0.585332,0.0,0.0
224,55.75,19.2551,19.7303,154.95,99.2413,93.1554,0.000492877,0.0444962,21.0321,-331.454,0.559063,0.0,0.0
228,56.75,19.5656,20.0422,152.765,99.2441,92.469,0.000515457,0.0446217,21.032,-331.464,0.624648,0.0,0.0
232,57.75,19.5164,20.251,154.194,99.2485,93.1808,0.000541057,0.0447287,21.0311,-331.464,0.557298,0.0,0.0
236,58.75,19.8103,19.6737,155.829,99.2645,92.8028,0.000562895,0.0447989,21.0313,-331.464,0.594633,0.0,0.0
240,59.75,19.309,20.0694,153.718,99.2661,92.8611,0.000580173,0.0448306,21.031,-331.464,0.589229,0.0,0.0
244,60.75,19.6839,20.071,157.181,99.2798,92.6667,0.000578492,0.0448236,21.0304,-331.444,0.608956,0.0,0.0
248,61.75,19.5407,20.1872,155.207,99.2778,93.4122,0.000541033,0.0448365,21.0297,-331.454,0.537989,0.0,0.0
252,62.75,19.7142,20.4607,157.125,99.2818,93.1009,0.000460571,0.0448828,21.0293,-331.464,0.567841,0.0,0.0
256,63.75,19.8177,20.4519,158.007,99.2886,92.911,0.000381847,0.044937,21.0291,-331.464,0.586478,0.0,0.0
260,64.75,20.1701,20.3096,153.522,99.2922,92.5472,0.00032149,0.0450108,21.0289,-331.474,0.621458,0.0,0.0
264,65.75,19.6937,20.3052,157.402,99.2962,93.4197,0.000283154,0.0450949,21.0288,-331.484,0.538923,0.0,0.0
268,66.75,19.5393,20.0309,156.325,99.3031,93.1791,0.000264209,0.045197,21.0287,-331.494,0.562311,0.0,0.0
272,67.75,19.4953,20.0068,154.581,99.3079,93.0492,0.000277269,0.0454302,21.0286,-331.504,0.575061,0.0,0.0
276,68.75,19.9249,20.2269,156.575,99.3043,92.9252,0.000325991,0.0457755,21.0282,-331.504,0.586524,0.0,0.0
280,69.75,19.4845,19.7622,154.03,99.3163,93.155,0.000387553,0.0459775,21.0275,-331.514,0.565778,0.0,0.0
284,70.75,19.5345,20.0793,155.162,99.3259,93.5284,0.00043014,0.0460517,21.0273,-331.514,0.531297,0.0,0.0
288,71.75,19.6992,19.7736,155.539,99.3139,93.1953,0.000418277,0.0460264,21.0277,-331.524,0.561736,0.0,0.0
292,72.75,19.784,20.3607,150.444,99.3123,93.249,0.000353099,0.0459669,21.028,-331.524,0.556505,0.0,0.0
296,73.75,19.8256,19.6662,157.197,99.3283,93.3073,0.000283113,0.0458513,21.0282,-331.524,0.552412,0.0,0.0
300,74.75,19.305,20.0229,152.794,99.3179,93.247,0.000204619,0.0456955,21.0283,-331.524,0.557201,0.0,0.0
304,75.75,19.4907,19.8246,156.133,99.3303,92.9726,0.000169179,0.0455059,21.0284,-331.534,0.584334,0.0,0.0
308,76.75,20.1596,20.1732,159.107,99.3127,93.0834,0.000173157,0.0452089,21.0284,-331.544,0.572249,0.0,0.0
312,77.75,19.7803,20.2007,154.467,99.3207,93.0601,0.000201172,0.0450141,21.0285,-331.554,0.575176,0.0,0.0
316,78.75,19.385,20.6189,151.332,99.3123,93.1188,0.000239784,0.0448669,21.0285,-331.534,0.568856,0.0,0.0
320,79.75,20.0406,20.6187,153.976,99.3175,92.7708,0.000289376,0.0447262,21.0285,-331.564,0.602397,0.0,0.0
324,80.75,20.1353,20.5859,155.513,99.3211,93.0476,0.0003305,0.0445652,21.0288,-331.584,0.576397,0.0,0.0
328,81.75,19.9606,20.5129,155.366,99.3175,93.0621,0.00039034,0.0443663,21.0293,-331.564,0.574693,0.0,0.0
332,82.75,19.6984,20.2857,159.835,99.3183,92.7774,0.000439989,0.0442149,21.0299,-331.564,0.601834,0.0,0.0
336,83.75,20.3165,20.1784,153.282,99.3147,92.7733,0.000482286,0.0440957,21.0302,-331.554,0.601908,0.0,0.0
340,84.75,19.5461,20.3808,153.966,99.3135,92.5472,0.0005119,0.0439778,21.0313,-331.574,0.623351,0.0,0.0
344,85.75,20.0284,20.5549,159.338,99.3091,93.2932,0.000522672,0.0438833,21.0314,-331.584,0.552039,0.0,0.0
348,86.75,19.38,20.2526,155.687,99.2999,92.8686,0.000520484,0.0437586,21.032,-331.574,0.591515,0.0,0.0
352,87.75,19.5196,20.1556,152.595,99.3135,92.6596,0.000523574,0.0437157,21.0325,-331.594,0.612629,0.0,0.0
356,88.75,20.2998,20.189,155.71,99.2982,92.6696,0.000548218,0.0437128,21.0321,-331.594,0.61032,0.0,0.0
360,89.75,19.7611,20.5167,157.301,99.2982,93.5704,0.000582814,0.0437103,21.0317,-331.594,0.524864,0.0,0.0
364,90.75,19.6365,20.4407,153.981,99.3007,92.3582,0.000608631,0.0437611,21.0314,-331.614,0.640267,0.0,0.0
368,91.75,19.9146,20.2575,156.158,99.295,92.7533,0.00061018,0.0437945,21.0313,-331.614,0.602062,0.0,0.0
372,92.75,19.7764,20.6154,157.367,99.2926,92.5868,0.000591417,0.0437917,21.0312,-331.624,0.617721,0.0,0.0
376,93.75,19.6741,20.495,158.487,99.2822,92.8657,0.000553136,0.0438093,21.0311,-331.614,0.590222,0.0,0.0
380,94.75,19.9461,20.1661,154.213,99.2822,92.019,0.00050041,0.0438066,21.031,-331.624,0.671134,0.0,0.0
384,95.75,20.0048,20.7573,157.854,99.2806,92.6983,0.000447197,0.0437725,21.0316,-331.634,0.606012,0.0,0.0
388,96.75,19.6835,20.4695,154.957,99.269,92.7504,0.000413359,0.043728,21.0322,-331.634,0.600019,0.0,0.0
392,97.75,19.6768,20.4704,160.712,99.2665,92.7853,0.000413472,0.0437727,21.0326,-331.644,0.596476,0.0,0.0
396,98.75,19.8492,20.3013,151.465,99.2686,91.8575,0.000440182,0.0437774,21.0328,-331.664,0.685439,0.0,0.0
400,99.75,19.5964,20.3793,153.663,99.2633,92.5726,0.000478401,0.0438193,21.033,-331.674,0.616465,0.0,0.0
404,100.75,20.0228,20.4097,153.419,99.2401,92.9722,0.000515944,0.0438961,21.0331,-331.654,0.576341,0.0,0.0
408,101.75,20.2631,20.706,153.385,99.2389,92.1822,0.000582162,0.0440346,21.0331,-331.664,0.651626,0.0,0.0
412,102.75,19.8986,20.6526,156.509,99.2413,92.2446,0.000636793,0.044171,21.0327,-331.674,0.645859,0.0,0.0
416,103.75,20.1324,20.4389,161.255,99.2377,92.2438,0.000714444,0.0442993,21.0321,-331.664,0.645617,0.0,0.0
420,104.75,19.6303,20.2964,153.672,99.232,92.2429,0.000760188,0.0444083,21.0318,-331.684,0.645197,0.0,0.0
424,105.75,19.969,20.4485,153.778,99.2148,92.1934,0.000761059,0.0445147,21.0315,-331.694,0.648405,0.0,0.0
428,106.75,19.3841,20.0701,156.565,99.2148,91.9453,0.000723379,0.0445982,21.0314,-331.704,0.67221,0.0,0.0
432,107.75,20.0832,20.4216,156.965,99.2164,92.0327,0.000678872,0.0447048,21.0313,-331.714,0.663959,0.0,0.0
436,108.75,19.8784,20.2031,154.832,99.2044,92.7749,0.000653315,0.0448896,21.031,-331.714,0.59193,0.0,0.0
440,109.75,20.1661,20.9367,155.527,99.2007,92.5318,0.000643333,0.0451587,21.0302,-331.714,0.614787,0.0,0.0
444,110.75,19.8673,20.4696,156.144,99.1967,92.0785,0.000646778,0.0454373,21.0297,-331.724,0.657813,0.0,0.0
448,111.75,20.0097,20.653,160.395,99.1847,92.1555,0.000650598,0.0457075,21.0294,-331.734,0.649356,0.0,0.0
452,112.75,19.6843,20.9055,153.714,99.1823,91.8762,0.000626725,0.0459626,21.0292,-331.744,0.675958,0.0,0.0
456,113.75,20.0898,20.2385,154.454,99.1731,91.9386,0.00056712,0.0460925,21.029,-331.744,0.669133,0.0,0.0
460,114.75,19.8197,20.4979,158.172,99.1606,91.6581,0.00047971,0.0461485,21.0289,-331.764,0.695025,0.0,0.0
464,115.75,20.0842,20.4301,157.745,99.1558,92.3395,0.000413874,0.0461605,21.0289,-331.764,0.629163,0.0,0.0
468,116.75,19.7747,20.2982,158.687,99.1446,91.1785,0.000363804,0.0461165,21.0288,-331.764,0.739935,0.0,0.0
472,117.75,20.142,20.0479,153.841,99.1402,91.5877,0.000329678,0.0460545,21.0288,-331.774,0.699985,0.0,0.0
476,118.75,19.6503,20.3317,157.782,99.1394,91.9898,0.000302899,0.0459153,21.0288,-331.794,0.661213,0.0,0.0
480,119.75,20.0776,20.6875,154.312,99.1249,91.7929,0.000284132,0.0457073,21.0296,-331.804,0.678855,0.0,0.0
484,120.75,19.9484,20.9814,156.258,99.1049,92.0365,0.000280953,0.045423,21.0301,-331.804,0.653662,0.0,0.0
488,121.75,19.9978,20.6669,153.844,99.1097,91.6019,0.000289761,0.0451081,21.0304,-331.784,0.695902,0.0,0.0
492,122.75,20.2768,20.6409,154.027,99.1057,92.1218,0.000302911,0.0448753,21.0307,-331.814,0.645546,0.0,0.0
496,123.75,20.001,20.758,153.808,99.1008,92.1239,0.000322699,0.0446643,21.0306,-331.824,0.644917,0.0,0.0
500,124.75,19.9974,20.8666,158.44,99.0892,91.8641,0.000333439,0.0445102,21.0305,-331.844,0.668823,0.0,0.0
504,125.75,20.2867,20.3322,157.947,99.072,91.9411,0.000337538,0.0444091,21.0304,-331.834,0.659883,0.0,0.0
508,126.75,20.2112,20.4948,156.938,99.0704,91.7176,0.000322933,0.0442923,21.0306,-331.854,0.681244,0.0,0.0
512,127.75,20.0361,20.5503,153.674,99.0659,91.1598,0.000293138,0.0441416,21.031,-331.864,0.734739,0.0,0.0
516,128.75,20.4286,20.8184,151.972,99.0643,91.7064,0.000264218,0.0440572,21.0313,-331.864,0.68179,0.0,0.0
520,129.75,20.0453,20.7948,154.222,99.0583,91.2685,0.000257182,0.0440152,21.0314,-331.874,0.723538,0.0,0.0
524,130.75,20.1622,20.2547,152.152,99.0467,91.5403,0.000279128,0.0439209,21.0315,-331.904,0.69623,0.0,0.0
528,131.75,20.0282,20.8852,154.596,99.0667,91.584,0.000313574,0.0438241,21.0316,-331.904,0.693801,0.0,0.0
532,132.75,20.1102,20.7717,153.817,99.0294,91.3929,0.000336323,0.0437606,21.0316,-331.894,0.708922,0.0,0.0
536,133.75,20.0797,20.8154,153.404,99.023,92.0602,0.000330166,0.0437436,21.0317,-331.934,0.644086,0.0,0.0
540,134.75,20.0996,20.5668,154.817,99.0214,91.8991,0.000308884,0.0437518,21.032,-331.934,0.659415,0.0,0.0
544,135.75,19.8652,20.8239,158.983,99.0142,91.0957,0.00025105,0.0437871,21.0322,-331.924,0.736338,0.0,0.0
548,136.75,19.6249,20.5626,152.775,99.0013,90.4563,0.000188884,0.043753,21.0323,-331.944,0.797415,0.0,0.0
552,137.75,19.6805,20.5938,153.057,98.9849,91.8238,0.000146642,0.043657,21.0324,-331.924,0.663402,0.0,0.0
556,138.75,19.8373,20.79,151.617,98.9901,91.4862,0.000174847,0.0435926,21.0325,-331.954,0.696407,0.0,0.0
560,139.75,20.2562,20.9631,150.386,98.9849,91.472,0.000265556,0.0435854,21.0325,-331.954,0.697307,0.0,0.0
564,140.75,19.9173,20.6546,152.673,98.9769,91.082,0.000374732,0.0435313,21.0326,-331.964,0.73434,0.0,0.0
568,141.75,20.1477,20.8531,159.631,98.9716,91.9657,0.000453447,0.0434377,21.0326,-331.984,0.648576,0.0,0.0
572,142.75,19.8017,21.0821,154.336,98.9821,91.5994,0.000486386,0.0433993,21.0326,-332.004,0.684764,0.0,0.0
576,143.75,20.6,21.099,152.765,98.9628,91.3521,0.000447425,0.0434429,21.0326,-331.994,0.706923,0.0,0.0
580,144.75,20.4913,21.013,156.307,98.9556,91.395,0.000376173,0.0434677,21.0326,-332.004,0.702133,0.0,0.0
584,145.75,20.5189,21.1058,158.776,98.962,91.6868,0.000317881,0.0435468,21.0324,-332.014,0.674546,0.0,0.0
588,146.75,20.008,21.2276,154.274,98.9383,90.4863,0.000291236,0.0437327,21.0316,-332.024,0.788865,0.0,0.0
592,147.75,20.0884,20.9425,153.81,98.9255,90.7897,0.00031343,0.0441113,21.0312,-332.034,0.758143,0.0,0.0
596,148.75,20.4468,20.6789,156.141,98.9099,91.2214,0.000350586,0.0445171,21.0309,-332.054,0.714842,0.0,0.0
600,149.75,20.0194,20.9463,153.577,98.903,90.997,0.000445274,0.0452271,21.0297,-332.054,0.735989,0.0,0.0
604,150.75,20.1105,20.8948,155.061,98.8802,91.0316,0.000514686,0.0460135,21.0287,-332.064,0.730592,0.0,0.0
608,151.75,20.3678,20.9457,152.931,98.8794,91.0965,0.000550342,0.0466931,21.028,-332.074,0.724221,0.0,0.0
612,152.75,20.0521,20.8683,150.941,98.8565,91.5399,0.000539097,0.0473074,21.0274,-332.094,0.679291,0.0,0.0
616,153.75,20.4524,21.053,154.751,98.8368,91.6722,0.000510188,0.0477979,21.0263,-332.094,0.664768,0.0,0.0
620,154.75,20.3624,20.86,155.573,98.8248,91.0016,0.000485707,0.0482431,21.0257,-332.114,0.728553,0.0,0.0
624,155.75,20.5219,20.9829,156.509,98.8132,90.6428,0.00047899,0.0485846,21.0253,-332.114,0.762415,0.0,0.0
628,156.75,20.2923,20.8217,154.838,98.8015,90.7119,0.000494356,0.0487892,21.025,-332.114,0.754642,0.0,0.0
632,157.75,20.0136,20.7798,152.575,98.7907,91.0978,0.000543304,0.0489376,21.0243,-332.124,0.716174,0.0,0.0
636,158.75,20.0264,21.2171,152.478,98.7811,90.1758,0.000700591,0.0491959,21.0225,-332.124,0.805181,0.0,0.0
640,159.75,19.9718,20.7848,155.668,98.7622,90.3502,0.000978681,0.0504719,21.0189,-332.154,0.786424,0.0,0.0
644,160.75,20.2447,20.5223,153.277,98.7433,91.0903,0.00157806,0.0539058,21.0121,-332.034,0.712666,0.0,0.0
648,161.75,20.2482,20.6926,148.252,98.7277,88.0133,0.00266174,0.0710948,20.969,-332.314,1.01484,0.0,1.0
652,162.75,20.0954,20.9024,148.687,98.7281,81.7214,0.0040139,0.0985663,20.9262,-332.304,1.6701,0.0,1.0
656,163.75,20.5616,21.4153,142.087,98.7365,67.255,0.00588829,0.141524,20.8428,-332.424,3.39195,0.0,1.0
660,164.75,21.0271,21.5758,141.032,98.7365,59.3543,0.00792358,0.194994,20.7779,-332.595,4.49591,0.0,1.0
664,165.75,21.7679,21.477,136.344,98.7385,59.4717,0.0103242,0.236148,20.704,-332.695,4.47863,0.0,1.0
668,166.75,22.0347,22.0423,139.707,98.7401,58.0356,0.0126466,0.282937,20.6352,-332.835,4.69472,0.0,1.0
672,167.75,22.697,22.8907,138.843,98.7425,60.6701,0.0148527,0.322595,20.5745,-332.895,4.30275,0.0,1.0
676,168.75,23.4603,23.3166,139.973,98.749,61.6779,0.0169971,0.358311,20.5149,-332.985,4.15779,0.0,0.0
680,169.75,23.5326,23.7579,127.059,98.7554,51.8965,0.0188121,0.394068,20.4597,-333.115,5.68377,0.0,0.0
684,170.75,24.2891,24.8012,140.251,98.753,60.7388,0.0207298,0.432771,20.3885,-333.255,4.29368,0.0,0.0
688,171.75,25.1509,25.6701,133.139,98.7758,56.0771,0.0233039,0.47959,20.3341,-333.365,5.00118,0.0,0.0
692,172.75,26.8434,26.4906,129.356,98.757,50.4258,0.0257351,0.515971,20.2798,-333.535,5.93787,0.0,0.0
696,173.75,27.8878,27.4584,130.936,98.7726,52.2528,0.0283811,0.563041,20.2299,-333.666,5.62486,0.0,0.0
700,174.75,28.8362,28.9356,124.292,98.7799,47.8617,0.0306789,0.597533,20.1732,-333.896,6.40096,0.0,0.0
704,175.75,29.7022,29.9352,123.229,98.7779,53.1636,0.0328062,0.641616,20.0986,-334.026,5.47268,0.0,0.0
708,176.75,31.1679,31.279,122.954,98.7863,49.262,0.0345377,0.686006,20.0269,-334.176,6.14678,0.0,0.0
712,177.75,32.5802,32.6057,124.814,98.7891,51.7104,0.0361028,0.723788,19.9718,-334.306,5.71851,0.0,0.0
716,178.75,34.0367,34.2403,120.802,98.7987,52.2874,0.0373845,0.7534,19.9294,-334.486,5.62136,0.0,0.0
720,179.75,35.2002,35.3991,121.534,98.8172,46.7994,0.0381914,0.777766,19.9029,-334.626,6.60258,0.0,0.0
724,180.75,36.7962,37.1218,132.796,98.8128,46.9238,0.0390037,0.796271,19.8738,-334.827,6.57872,0.0,0.0
728,181.75,37.8023,38.2425,124.14,98.818,47.7917,0.0395678,0.809913,19.8548,-334.917,6.41728,0.0,0.0
732,182.75,38.7898,39.5291,125.198,98.826,48.4565,0.0398921,0.817061,19.8423,-335.117,6.29597,0.0,0.0
736,183.75,40.4804,40.8407,125.702,98.8252,48.8316,0.0400015,0.8238,19.8345,-335.257,6.22778,0.0,0.0
740,184.75,41.5891,42.8498,129.737,98.8328,51.8645,0.040032,0.827404,19.8306,-335.377,5.69615,0.0,0.0
744,185.75,42.2377,43.725,128.109,98.8445,52.9759,0.0397759,0.826808,19.8319,-335.527,5.50988,0.0,0.0
748,186.75,44.0539,44.7455,125.98,98.8417,49.2749,0.0392962,0.820204,19.8435,-335.687,6.14941,0.0,0.0
752,187.75,44.538,45.8906,123.091,98.8557,52.1654,0.0386616,0.80797,19.8615,-335.828,5.64708,0.0,0.0
756,188.75,46.4301,47.3899,132.269,98.8581,47.2135,0.0378447,0.791674,19.8883,-335.958,6.52839,0.0,0.0
760,189.75,46.7981,48.1471,123.457,98.8653,53.1062,0.0369454,0.771207,19.9214,-336.128,5.49005,0.0,0.0
764,190.75,47.6118,48.7603,120.499,98.8798,51.4532,0.0359924,0.752153,19.9581,-336.228,5.77068,0.0,0.0
768,191.75,47.8207,49.0162,128.637,98.8806,51.8844,0.0350576,0.728523,19.9941,-336.328,5.69701,0.0,0.0
772,192.75,48.2632,49.5204,132.006,98.8894,52.0272,0.0343001,0.704083,20.0234,-336.468,5.67353,0.0,0.0
776,193.75,48.9721,50.6513,132.612,98.9022,52.1925,0.0332027,0.679751,20.0593,-336.578,5.64666,0.0,0.0
780,194.75,49.3317,51.3901,133.349,98.9135,53.0362,0.0320629,0.657704,20.0853,-336.728,5.50599,0.0,0.0
784,195.75,49.8886,51.967,133.407,98.9375,53.5116,0.031131,0.642953,20.1119,-336.818,5.42931,0.0,0.0
788,196.75,50.1151,52.3171,137.538,98.9287,55.3332,0.0300706,0.623422,20.139,-336.929,5.13281,0.0,0.0
792,197.75,50.5663,52.4076,130.57,98.9424,55.8598,0.0290005,0.607169,20.1682,-337.019,5.05036,0.0,0.0
796,198.75,50.3894,52.7445,135.693,98.9412,55.9185,0.0279753,0.590666,20.1943,-337.119,5.04097,0.0,0.0
800,199.75,50.9046,53.169,134.302,98.952,60.3675,0.0270431,0.576001,20.2156,-337.159,4.36564,0.0,0.0
804,200.75,51.199,53.4633,134.416,98.9616,54.7583,0.0259891,0.562498,20.2373,-337.279,5.228,0.0,0.0
808,201.75,51.1254,53.8631,134.111,98.9821,57.4491,0.0248555,0.549135,20.2566,-337.409,4.80607,0.0,0.0
812,202.75,51.4822,54.0439,134.924,98.9873,61.9597,0.0236953,0.533429,20.2853,-337.499,4.13881,0.0,0.0
816,203.75,51.2598,53.7796,134.687,99.005,61.2133,0.0225841,0.511158,20.3277,-337.549,4.24745,0.0,0.0
820,204.75,51.6509,54.1178,137.915,99.0078,66.2064,0.021598,0.491305,20.3609,-337.619,3.555,0.0,0.0
824,205.75,51.4518,54.2392,139.856,99.0206,62.9567,0.0208604,0.474323,20.3832,-337.729,4.00077,0.0,0.0
828,206.75,50.9831,53.4975,134.245,99.0387,60.4141,0.0202297,0.461832,20.3978,-337.789,4.36655,0.0,0.0
832,207.75,51.0888,54.2526,139.832,99.0543,60.5327,0.019797,0.454616,20.4074,-337.839,4.35062,0.0,0.0
836,208.75,51.4912,54.3609,139.056,99.0587,59.3089,0.0194588,0.451477,20.4137,-337.939,4.53144,0.0,0.0
840,209.75,51.1287,54.1909,137.111,99.0728,63.9003,0.0191322,0.449873,20.4179,-338.01,3.87399,0.0,0.0
844,210.75,51.1177,53.797,139.296,99.0772,58.9297,0.0186762,0.448495,20.4217,-338.06,4.58975,0.0,0.0
848,211.75,51.4693,54.2577,142.312,99.0892,62.0459,0.0180255,0.446146,20.4315,-338.17,4.13562,0.0,0.0
852,212.75,51.2409,54.1506,140.569,99.1036,69.5832,0.0174239,0.437054,20.4487,-338.24,3.1241,0.0,0.0
856,213.75,51.4025,54.7073,137.879,99.1113,65.0263,0.0164642,0.424076,20.4681,-338.3,3.72311,0.0,0.0
860,214.75,50.5655,53.9978,142.457,99.1233,69.0212,0.0153579,0.409275,20.4912,-338.33,3.19749,0.0,0.0
864,215.75,51.1603,54.0617,145.102,99.1353,70.3304,0.0142005,0.393272,20.5168,-338.42,3.03257,0.0,0.0
868,216.75,50.8955,54.2693,142.104,99.149,76.7013,0.0131022,0.376319,20.5477,-338.42,2.26774,0.0,0.0
872,217.75,50.5985,53.7333,141.337,99.159,75.1274,0.0120978,0.359251,20.5712,-338.48,2.45179,0.0,0.0
876,218.75,50.4732,53.9894,148.458,99.1727,75.0516,0.0113624,0.341539,20.5969,-338.5,2.46192,0.0,0.0
880,219.75,49.636,53.6804,144.658,99.1835,77.9222,0.0104574,0.325244,20.6192,-338.53,2.13131,0.0,0.0
884,220.75,49.9326,53.4968,142.448,99.202,75.2273,0.00965294,0.311586,20.6387,-338.53,2.44388,0.0,0.0
888,221.75,49.4005,53.1812,147.894,99.214,75.2335,0.00895139,0.297598,20.6576,-338.58,2.44422,0.0,0.0
892,222.75,49.6134,53.0561,149.387,99.2288,76.3758,0.0082696,0.282446,20.681,-338.6,2.31242,0.0,0.0
896,223.75,48.8919,52.3256,145.447,99.2393,77.7719,0.0076046,0.267864,20.7074,-338.61,2.15333,0.0,0.0
900,224.75,48.6429,52.1245,146.776,99.2513,83.0064,0.00696662,0.251483,20.7367,-338.63,1.57897,0.0,0.0
904,225.75,48.8679,51.9654,151.441,99.2613,83.9788,0.00636814,0.234191,20.7662,-338.66,1.47697,0.0,0.0
908,226.75,47.8038,51.4879,149.446,99.2682,84.4301,0.00590094,0.218019,20.7922,-338.65,1.43024,0.0,0.0
912,227.75,47.5724,51.1525,148.065,99.281,88.7055,0.00544618,0.200466,20.815,-338.65,0.994995,0.0,0.0
916,228.75,47.3373,51.0067,151.242,99.3019,87.4467,0.00498857,0.184161,20.8365,-338.67,1.12311,0.0,0.0
920,229.75,47.049,50.4562,152.046,99.3159,88.3654,0.0045228,0.169902,20.8548,-338.68,1.03203,0.0,0.0
924,230.75,46.2731,50.3147,148.753,99.3251,89.5963,0.00406313,0.158328,20.8711,-338.68,0.91065,0.0,0.0
928,231.75,46.079,49.7133,148.718,99.336,89.2458,0.00356725,0.14697,20.8881,-338.71,0.94624,0.0,0.0
932,232.75,45.1912,49.1658,150.805,99.352,90.2403,0.00309028,0.137837,20.9028,-338.72,0.849775,0.0,0.0
936,233.75,44.9094,48.7384,153.797,99.3532,89.4594,0.00272377,0.129632,20.9141,-338.71,0.926661,0.0,0.0
940,234.75,44.464,48.4012,150.526,99.3705,91.0774,0.00239037,0.122423,20.924,-338.72,0.769844,0.0,0.0
944,235.75,43.9361,47.8359,151.11,99.3885,91.2256,0.00213184,0.115998,20.9331,-338.74,0.757088,0.0,0.0
948,236.75,43.5453,47.3604,151.471,99.3921,91.087,0.00191361,0.110292,20.9408,-338.75,0.770842,0.0,0.0
952,237.75,43.151,46.899,148.707,99.405,91.7855,0.00173952,0.105605,20.9484,-338.76,0.704499,0.0,0.0
956,238.75,42.6301,46.6832,153.884,99.4078,91.7247,0.00162164,0.100779,20.9561,-338.75,0.7106,0.0,0.0
960,239.75,42.3411,46.032,152.408,99.4098,92.7599,0.00154622,0.0961898,20.9623,-338.77,0.61163,0.0,0.0
964,240.75,41.7736,46.0601,149.223,99.423,92.0785,0.00150068,0.0919085,20.9675,-338.77,0.677943,0.0,0.0
968,241.75,41.5732,45.259,153.083,99.4302,91.9291,0.00147964,0.0882122,20.9714,-338.79,0.692933,0.0,0.0
972,242.75,41.2573,45.1391,152.804,99.4419,92.9006,0.00147803,0.0845378,20.9755,-338.8,0.601094,0.0,0.0
976,243.75,40.752,44.6984,155.08,99.4427,92.4502,0.00148948,0.0814242,20.9786,-338.77,0.644098,0.0,0.0
980,244.75,40.5641,44.4288,153.244,99.4495,93.1562,0.00150597,0.0788121,20.9822,-338.8,0.5775,0.0,0.0
984,245.75,39.8711,43.6583,151.07,99.4559,92.8856,0.00149648,0.0757534,20.9862,-338.81,0.603767,0.0,0.0
988,246.75,39.798,43.588,153.332,99.4591,93.4722,0.00145016,0.0736035,20.9904,-338.8,0.548445,0.0,0.0
992,247.75,39.2954,43.1886,155.093,99.4712,93.418,0.00138691,0.0711891,20.994,-338.81,0.55463,0.0,0.0
996,248.75,39.2152,42.9399,155.369,99.4688,93.7448,0.00133151,0.0687514,20.9967,-338.8,0.52357,0.0,0.0
1000,249.75,38.4996,42.1438,152.69,99.476,93.8289,0.00129376,0.0666862,20.9992,-338.81,0.516291,0.0,0.0
1004,250.75,38.2572,41.8967,151.562,99.4904,93.6087,0.00126705,0.0647222,21.0019,-338.79,0.53833,0.0,0.0
1008,251.75,37.9989,41.8881,151.081,99.4888,93.5583,0.00122796,0.0631563,21.005,-338.79,0.542942,0.0,0.0
1012,252.75,37.4047,41.356,153.669,99.4828,94.0345,0.00118476,0.061486,21.007,-338.79,0.497557,0.0,0.0
1016,253.75,37.1557,41.1848,151.886,99.4956,93.647,0.00113574,0.0600779,21.0091,-338.78,0.53518,0.0,0.0
1020,254.75,37.0451,40.9537,159.171,99.4964,93.9971,0.00109889,0.058992,21.0105,-338.78,0.502288,0.0,0.0
1024,255.75,36.779,40.3807,153.565,99.5057,94.2577,0.00106777,0.0582195,21.0119,-338.79,0.478651,0.0,0.0
1028,256.75,36.3481,40.1909,152.986,99.5037,93.9134,0.00101251,0.0576047,21.0131,-338.8,0.510797,0.0,0.0
1032,257.75,36.0366,40.0473,156.928,99.5073,94.1931,0.000917105,0.0571204,21.014,-338.8,0.484843,0.0,0.0
1036,258.75,35.8521,39.2373,155.482,99.5137,94.2202,0.000804603,0.0567583,21.0145,-338.8,0.482876,0.0,0.0
1040,259.75,35.6328,39.4284,147.439,99.5157,94.701,0.00069925,0.0564848,21.0149,-338.81,0.438091,0.0,0.0
1044,260.75,35.4406,38.8805,153.271,99.5109,94.3929,0.000621002,0.05616,21.015,-338.81,0.466445,0.0,0.0
1048,261.75,35.1029,38.4921,152.744,99.5209,94.6306,0.000576544,0.0558065,21.0149,-338.8,0.445118,0.0,0.0
1052,262.75,34.8732,38.2812,150.936,99.5261,94.3555,0.000624308,0.0556241,21.0148,-338.82,0.471305,0.0,0.0
1056,263.75,34.58,38.3261,153.867,99.5217,94.5732,0.000688646,0.0558,21.0148,-338.82,0.450553,0.0,0.0
1060,264.75,33.0421,37.1111,153.759,99.5225,94.457,0.000746264,0.0560659,21.015,-338.81,0.461481,0.0,0.0
1064,265.75,33.6103,37.0834,153.218,99.5165,94.6302,0.000783095,0.0563484,21.0155,-338.82,0.444766,0.0,0.0
1068,266.75,33.3787,36.8072,153.215,99.5165,94.671,0.000840772,0.056386,21.0156,-338.83,0.440958,0.0,0.0
1072,267.75,32.7186,36.6738,148.421,99.5213,94.6914,0.000902121,0.0562999,21.0156,-338.81,0.439482,0.0,0.0
1076,268.75,33.1476,35.9141,153.197,99.5233,94.5569,0.000950185,0.0558459,21.0164,-338.81,0.452213,0.0,0.0
1080,269.75,32.0827,35.9367,154.672,99.5221,94.6802,0.000943539,0.0551391,21.017,-338.81,0.440602,0.0,0.0
1084,270.75,32.1393,35.7225,149.879,99.5157,95.1102,0.000856095,0.0541289,21.0182,-338.82,0.400002,0.0,0.0
1088,271.75,31.7267,35.1918,157.208,99.5229,94.5923,0.00073665,0.0529662,21.0197,-338.8,0.448872,0.0,0.0
1092,272.75,31.4074,35.1069,154.311,99.5217,94.42,0.000616207,0.0520044,21.021,-338.81,0.464875,0.0,0.0
1096,273.75,31.6497,35.2145,154.687,99.5177,94.6115,0.000524565,0.0508796,21.0223,-338.81,0.446622,0.0,0.0
1100,274.75,31.1121,34.5999,155.704,99.5049,94.5241,0.000475735,0.0499083,21.0232,-338.82,0.453648,0.0,0.0
1104,275.75,31.1611,34.311,151.321,99.5097,94.2909,0.00045927,0.0491305,21.0238,-338.81,0.475888,0.0,0.0
1108,276.75,30.8049,34.2943,151.081,99.4932,94.3251,0.000469238,0.0485409,21.0242,-338.81,0.471231,0.0,0.0
1112,277.75,30.8424,34.067,152.887,99.4944,94.1906,0.000491755,0.0480607,21.0245,-338.81,0.483938,0.0,0.0
1116,278.75,30.3831,33.3474,154.891,99.4977,94.7884,0.000516526,0.047602,21.0248,-338.81,0.428337,0.0,0.0
1120,279.75,30.4745,33.826,153.788,99.4812,94.241,0.000556286,0.0471444,21.0257,-338.82,0.47804,0.0,0.0
1124,280.75,30.4453,33.2084,156.033,99.4632,94.6673,0.000594423,0.0466828,21.0262,-338.81,0.43657,0.0,0.0
1128,281.75,30.2529,33.1543,153.235,99.4623,94.835,0.000627243,0.0464028,21.0266,-338.83,0.420858,0.0,0.0
1132,282.75,29.4706,32.7038,151.598,99.4535,94.7921,0.000657572,0.0460272,21.0268,-338.81,0.424068,0.0,0.0
1136,283.75,29.9851,32.9487,151.371,99.4371,94.1328,0.000667751,0.0456523,21.027,-338.82,0.484271,0.0,0.0
1140,284.75,29.2549,32.4829,151.751,99.4467,94.3971,0.000651982,0.0453802,21.0271,-338.81,0.460354,0.0,0.0
1144,285.75,28.9724,32.2222,152.777,99.4234,94.4866,0.000621525,0.0452017,21.0271,-338.82,0.449915,0.0,0.0
1148,286.75,28.9719,31.9172,155.057,99.417,94.435,0.0005717,0.0451092,21.028,-338.83,0.454172,0.0,0.0
1152,287.75,29.0664,32.2572,153.556,99.3977,94.0916,0.000491389,0.0449709,21.0285,-338.82,0.484645,0.0,0.0
1156,288.75,29.0017,32.1195,149.709,99.3989,94.0703,0.000419051,0.0448981,21.0289,-338.82,0.486745,0.0,0.0
1160,289.75,28.9232,31.5146,155.026,99.3765,94.4983,0.000318012,0.0448413,21.0296,-338.83,0.444653,0.0,0.0
1164,290.75,28.4323,31.6177,156.098,99.3592,94.047,0.00023973,0.04476,21.0304,-338.83,0.485403,0.0,0.0
1168,291.75,28.1038,31.194,149.563,99.3436,94.5465,0.000215775,0.0446962,21.0309,-338.84,0.437216,0.0,0.0
1172,292.75,28.7683,31.2506,154.511,99.3456,94.1636,0.000240453,0.0446544,21.03125,-338.83,0.473249,0.0,0.0
1176,293.75,28.2251,30.8989,151.003,99.3243,94.0054,0.0003164,0.0445776,21.0315,-338.83,0.486211,0.0,0.0
1180,294.75,28.3172,30.6323,151.591,99.3079,94.0474,0.000412963,0.0445273,21.0317,-338.81,0.480797,0.0,0.0
1184,295.75,27.471,30.4576,152.556,99.2898,94.4908,0.00045855,0.0444748,21.0317,-338.83,0.437647,0.0,0.0
1188,296.75,27.7986,30.5501,154.107,99.2794,94.462,0.000494129,0.0444079,21.0318,-338.83,0.439404,0.0,0.0
1192,297.75,27.9953,30.4297,153.78,99.2553,94.3438,0.000519205,0.0443683,21.0314,-338.84,0.448325,0.0,0.0
1196,298.75,27.5956,29.703,156.245,99.2525,94.5457,0.000553444,0.0443795,21.0308,-338.83,0.42919,0.0,0.0
1200,299.75,27.5397,30.0756,154.075,99.2268,94.2635,0.00060656,0.0443973,21.0304,-338.83,0.453315,0.0,0.0
1204,300.75,27.2622,29.9564,155.078,99.2264,94.2893,0.000660536,0.044409,21.0301,-338.82,0.450861,0.0,0.0
1208,301.75,26.9833,29.3885,151.982,99.2112,94.0166,0.000690706,0.0444166,21.0299,-338.83,0.475085,0.0,0.0
1212,302.75,27.2237,29.2239,154.698,99.1815,94.2073,0.000699773,0.0444042,21.0298,-338.83,0.454546,0.0,0.0
1216,303.75,27.2998,29.5659,150.151,99.1606,94.415,0.000696363,0.0444206,21.0297,-338.82,0.43323,0.0,0.0
1220,304.75,26.9795,29.085,155.782,99.1462,94.191,0.000676535,0.0444489,21.0297,-338.82,0.452923,0.0,0.0
1224,305.75,26.8419,29.0093,155.648,99.1297,94.169,0.000637546,0.0445167,21.0297,-338.82,0.453526,0.0,0.0
1228,306.75,26.4862,29.1225,152.837,99.1169,94.1257,0.000563238,0.0445749,21.0296,-338.82,0.456444,0.0,0.0
1232,307.75,26.8636,28.8947,154.358,99.0968,94.2289,0.000481616,0.0446025,21.0296,-338.83,0.444972,0.0,0.0
1236,308.75,26.2249,28.8858,154.63,99.0752,94.0612,0.00038983,0.0445826,21.0296,-338.81,0.458782,0.0,0.0
1240,309.75,26.2709,28.8657,150.905,99.0611,93.6466,0.00031479,0.044626,21.0296,-338.81,0.496553,0.0,0.0
1244,310.75,26.8349,28.3018,152.525,99.0431,93.9484,0.000268161,0.044714,21.0296,-338.79,0.466521,0.0,0.0
1248,311.75,25.7485,28.4132,155.291,99.0282,94.4558,0.000248458,0.0447534,21.0296,-338.79,0.417611,0.0,0.0
1252,312.75,26.2739,27.9325,149.713,98.9917,94.0778,0.000247651,0.0446919,21.0296,-338.8,0.449774,0.0,0.0
1256,313.75,25.918,28.0256,155.401,98.966,93.8206,0.000256302,0.0445739,21.0301,-338.81,0.471671,0.0,0.0
1260,314.75,25.5135,27.5391,155.44,98.942,93.58,0.000263612,0.0444755,21.0303,-338.81,0.492206,0.0,0.0
1264,315.75,25.9995,27.9659,151.905,98.9175,93.935,0.000285764,0.0445096,21.0305,-338.82,0.456565,0.0,0.0
1268,316.75,25.3978,27.1972,155.169,98.8862,94.1153,0.000332592,0.0445125,21.0307,-338.82,0.436835,0.0,0.0
1272,317.75,25.7184,28.0587,155.355,98.8665,93.9829,0.000385121,0.044548,21.0307,-338.82,0.447512,0.0,0.0
1276,318.75,25.4249,27.5265,154.427,98.834,94.2968,0.000426176,0.0445818,21.0308,-338.83,0.415155,0.0,0.0
1280,319.75,25.6439,27.5448,154.545,98.8075,93.7814,0.000444457,0.0445845,21.0308,-338.83,0.461199,0.0,0.0
1284,320.75,25.8878,27.6542,156.459,98.7783,94.2914,0.000466242,0.0445674,21.0309,-338.83,0.410675,0.0,0.0
1288,321.75,25.4745,26.8799,155.257,98.7674,93.8643,0.000508039,0.0445667,21.0309,-338.83,0.449811,0.0,0.0
1292,322.75,25.3659,27.356,152.621,98.7514,93.8451,0.000569706,0.0446259,21.0309,-338.83,0.450177,0.0,0.0
1296,323.75,25.0941,27.3455,154.612,98.7221,93.5488,0.000629776,0.0446893,21.0309,-338.83,0.475501,0.0,0.0
1300,324.75,25.03,27.5316,152.578,98.7104,93.6578,0.000679032,0.0447627,21.0309,-338.83,0.464166,0.0,0.0
1304,325.75,24.8415,26.7227,151.727,98.6695,93.5704,0.000687152,0.0448459,21.0309,-338.84,0.468752,0.0,0.0
1308,326.75,25.1403,26.9303,153.905,98.6451,93.6532,0.000644115,0.044999,21.0309,-338.84,0.458743,0.0,0.0
1312,327.75,25.2624,27.0329,151.734,98.6222,94.2069,0.000576333,0.0451383,21.0309,-338.83,0.404627,0.0,0.0
1316,328.75,25.0275,26.8918,156.085,98.6049,94.0404,0.00050112,0.0452538,21.0309,-338.82,0.418709,0.0,0.0
1320,329.75,24.6675,26.7718,154.7,98.5833,93.5945,0.000443124,0.045327,21.0309,-338.82,0.458746,0.0,0.0
1324,330.75,24.8729,26.3845,152.45,98.564,93.5396,0.000411394,0.045364,21.0309,-338.83,0.462208,0.0,0.0
1328,331.75,24.6156,26.4291,152.111,98.5419,93.724,0.000399288,0.0453882,21.0309,-338.82,0.442831,0.0,0.0
1332,332.75,24.715,26.5614,154.79,98.5163,93.6861,0.000410749,0.045397,21.0309,-338.82,0.4441,0.0,0.0
1336,333.75,24.6095,26.349,156.899,98.4918,93.8772,0.000427614,0.0453852,21.0301,-338.82,0.423908,0.0,0.0
1340,334.75,24.6193,26.5628,150.485,98.4749,93.3231,0.000443738,0.0453775,21.0296,-338.82,0.474687,0.0,0.0
1344,335.75,24.6111,26.0705,153.311,98.4513,93.6203,0.000462066,0.0453316,21.0292,-338.82,0.444474,0.0,0.0
1348,336.75,24.2462,26.4872,151.591,98.4501,93.6278,0.000494146,0.0453093,21.0284,-338.82,0.44366,0.0,0.0
1352,337.75,24.3993,26.1456,149.254,98.4111,93.2495,0.000526106,0.0453277,21.0279,-338.83,0.47594,0.0,0.0
1356,338.75,24.3595,26.1748,152.89,98.3843,93.4268,0.000547074,0.0453796,21.0276,-338.82,0.456743,0.0,0.0
1360,339.75,24.0586,25.6966,153.781,98.3694,93.7119,0.000523476,0.0454439,21.028,-338.82,0.428489,0.0,0.0
1364,340.75,23.9424,25.7585,152.633,98.3449,93.2919,0.000479443,0.0454135,21.0284,-338.83,0.465973,0.0,0.0
1368,341.75,23.9191,25.7336,153.077,98.3189,93.5779,0.000439575,0.0453591,21.0287,-338.84,0.436593,0.0,0.0
1372,342.75,23.8376,25.5682,155.999,98.29,93.371,0.000413417,0.0453196,21.0289,-338.84,0.453548,0.0,0.0
1376,343.75,23.3809,24.69,154.642,98.2683,93.6761,0.000405037,0.0453254,21.029,-338.82,0.422781,0.0,0.0
1380,344.75,24.2641,25.1156,152.327,98.2374,93.1554,0.000404486,0.0453571,21.0289,-338.83,0.469247,0.0,0.0
1384,345.75,24.1756,25.9011,153.813,98.2161,93.361,0.000407359,0.0453388,21.0283,-338.82,0.447856,0.0,0.0
1388,346.75,23.7484,25.5124,153.522,98.1937,92.9756,0.000413478,0.0452744,21.0276,-338.82,0.482384,0.0,0.0
1392,347.75,23.6181,25.087,151.753,98.1708,93.3535,0.000409772,0.0452322,21.0271,-338.82,0.444486,0.0,0.0
1396,348.75,23.8208,25.121,154.014,98.1471,93.6241,0.000382524,0.0451688,21.0267,-338.84,0.416789,0.0,0.0
1400,349.75,23.4335,25.1583,153.834,98.1231,93.5821,0.000337847,0.0451163,21.0265,-338.83,0.418589,0.0,0.0
1404,350.75,23.9378,25.2442,148.376,98.1162,93.4301,0.000301741,0.0451661,21.0263,-338.83,0.432329,0.0,0.0
1408,351.75,23.5829,24.7561,153.607,98.0797,93.2603,0.000283131,0.0452338,21.0262,-338.84,0.445116,0.0,0.0
1412,352.75,23.8461,25.2959,151.475,98.0468,93.4913,0.00027583,0.0453028,21.0262,-338.83,0.420294,0.0,0.0
1416,353.75,23.0411,24.603,154.689,98.0248,93.0917,0.0002864,0.0453235,21.0261,-338.83,0.456147,0.0,0.0
1420,354.75,23.5262,25.0745,153.965,97.9995,93.3148,0.000299919,0.0452877,21.0261,-338.83,0.43272,0.0,0.0
1424,355.75,23.5827,24.8531,153.23,97.9866,93.5217,0.000300142,0.0452837,21.0261,-338.82,0.411999,0.0,0.0
1428,356.75,23.6362,25.2237,155.087,97.9598,93.2998,0.000291046,0.0453271,21.0261,-338.83,0.430557,0.0,0.0
1432,357.75,23.4491,24.8074,151.982,97.9385,92.9685,0.000290134,0.0453615,21.0261,-338.84,0.460069,0.0,0.0
1436,358.75,23.4565,24.4433,155.145,97.908,92.9597,0.000300332,0.0453619,21.0261,-338.84,0.458149,0.0,0.0
1440,359.75,23.386,24.267,154.056,97.894,93.0168,0.000328818,0.0453058,21.0268,-338.84,0.451464,0.0,0.0
1444,360.75,23.8006,24.642,155.468,97.8675,92.817,0.000357889,0.0452515,21.0273,-338.84,0.468071,0.0,0.0
1448,361.75,22.7935,24.2205,155.932,97.8506,92.8894,0.000386678,0.0452158,21.0276,-338.84,0.459658,0.0,0.0
1452,362.75,23.2067,25.1692,151.616,97.8362,93.1033,0.000400148,0.0452333,21.0278,-338.84,0.438029,0.0,0.0
1456,363.75,23.5785,24.1301,160.101,97.7977,93.033,0.000390978,0.0452563,21.028,-338.84,0.441229,0.0,0.0
1460,364.75,23.1866,24.6947,153.715,97.7989,92.6084,0.000388625,0.045219,21.0281,-338.85,0.481746,0.0,0.0
1464,365.75,22.9621,24.1397,152.292,97.7836,92.8823,0.00041564,0.0450467,21.0281,-338.84,0.45428,0.0,0.0
1468,366.75,23.2088,24.2245,153.265,97.7507,92.2783,0.000454989,0.0449829,21.0282,-338.84,0.508941,0.0,0.0
1472,367.75,23.0468,24.86,157.547,97.7279,92.8665,0.000520537,0.044941,21.028,-338.83,0.450745,0.0,0.0
1476,368.75,23.5089,23.8262,155.671,97.7214,92.6105,0.000541562,0.0448396,21.0278,-338.83,0.474551,0.0,0.0
1480,369.75,23.1614,24.0623,151.664,97.7198,92.8969,0.000518004,0.0448268,21.0276,-338.84,0.447129,0.0,0.0
1484,370.75,22.8659,24.0557,154.537,97.6933,93.1504,0.000471803,0.0448212,21.0275,-338.84,0.420661,0.0,0.0
1488,371.75,23.128,23.8641,154.297,97.6713,93.0921,0.000430515,0.0447915,21.0275,-338.83,0.424194,0.0,0.0
1492,372.75,22.7013,24.3502,155.959,97.6681,92.6971,0.000417817,0.0447895,21.0275,-338.84,0.46147,0.0,0.0
1496,373.75,22.7747,24.0474,157.168,97.6548,92.5193,,0.0447474,,-338.83,0.477228,0.0,0.0
1500,374.75,23.38,24.0027,149.842,97.64,92.8952,,0.0446458,,-338.84,0.440067,0.0,0.0
1504,375.75,22.6729,23.571,149.39,97.6223,93.1737,,0.0445672,,-338.84,0.412026,0.0,0.0
1508,376.75,22.7178,23.9724,153.897,97.6059,92.6018,,,,-338.85,0.464932,0.0,0.0
1512,377.75,22.5664,24.4229,156.548,97.6059,92.8132,,,,-338.83,0.444782,0.0,0.0
1516,378.75,22.6765,23.4838,154.682,97.587,92.648,,,,-338.84,0.458819,0.0,0.0
1520,379.75,23.6329,24.1286,150.846,97.587,92.7187,,,,-338.83,0.452073,0.0,0.0
1524,380.75,23.0463,23.0947,154.894,97.5678,92.3328,,,,-338.84,0.487172,0.0,0.0
1528,381.75,23.3483,24.0844,155.414,97.5561,93.0293,,,,-338.83,0.419739,0.0,0.0
1532,382.75,22.2064,23.4553,159.653,97.5577,92.7782,,,,-338.82,0.443753,0.0,0.0
1536,383.75,22.4008,23.8931,151.379,97.5465,92.9006,,,,-338.84,0.43109,0.0,0.0