File: 01_Data/XPS_Foam_Board/Cone/XPS_Foam_Insulation_Cone_HF50Scan_220412_R1.csv
Names,Time,Stack TC,Smoke TC,Exh Press,Smoke Comp,Smoke Meas,CO Meter,CO2 Meter,O2 Meter,Sample Mass,Ext Coeff,Start Test,Flame Verif
Chan Gain,,500,500,1,1,1,1,1,1,1,1,1.0,1.0
Offset,,0,0,0.134314,0,0,0,0,0,0,0,0.0,0.0
Gain,,1,1,25.011,13.1473,13.6402,1,1,1,1.00092,1.00708,1.0,1.0
Units,sec,C,C,Pa,%,%,%,%,%,g,/m,,
Baseline,,28.4032,29.6201,151.009,98.7473,93.2805,0.000766161,0.0468042,21.0214,-834.145,0.503134,,
2,0.25,27.885,29.3415,149.322,99.2738,93.7569,0.000749375,0.0580036,21.0104,-332.254,0.505097,0.0,0.0
4,0.75,27.6037,28.622,150.809,99.2485,93.4584,0.000785389,0.0576811,21.0105,-332.304,0.531014,0.0,0.0
6,1.25,27.619,28.8345,150.587,99.2621,93.2773,0.00081456,0.0572644,21.0107,-332.324,0.549361,0.0,0.0
8,1.75,27.7532,29.533,150.286,99.2561,93.2973,0.000855224,0.0569269,21.0113,-332.334,0.546933,0.0,0.0
10,2.25,27.7945,29.2535,149.606,99.2525,93.1466,0.000888163,0.0565031,21.0123,-332.364,0.560892,0.0,0.0
12,2.75,27.5514,28.7277,150.102,99.2328,92.7308,0.000922146,0.0561599,21.0134,-332.394,0.598669,0.0,0.0
14,3.25,27.6681,28.3746,151.331,99.2437,92.8482,0.000949672,0.0557744,21.0144,-332.414,0.588458,0.0,0.0
16,3.75,27.8206,28.697,147.787,99.2324,92.5314,0.0009671,0.0553655,21.0153,-332.434,0.617649,0.0,0.0
18,4.25,27.609,28.7943,150.454,99.2328,92.4694,0.000981216,0.0549479,21.016,-332.454,0.623608,0.0,0.0
20,4.75,27.9261,28.5992,150.343,99.2144,92.5947,0.00099265,0.0545321,21.0166,-332.494,0.610002,0.0,0.0
22,5.25,27.3122,28.5429,148.754,99.2345,92.0215,0.000985902,0.054145,21.017,-332.505,0.666645,0.0,0.0
24,5.75,27.4843,28.8007,153.152,99.2148,91.2493,0.000966028,0.0537861,21.0174,-332.525,0.739335,0.0,0.0
26,6.25,27.7405,28.599,150.566,99.2184,90.7619,0.00094929,0.0534545,21.0177,-332.555,0.786974,0.0,0.0
28,6.75,27.7228,29.0481,150.299,99.2144,90.5433,0.000935156,0.0531859,21.0179,-332.575,0.807913,0.0,0.0
30,7.25,27.7673,28.9585,149.635,99.2172,89.9135,0.00093203,0.0529683,21.0181,-332.575,0.869826,0.0,0.0
32,7.75,28.0406,28.8688,150.218,99.1995,89.9089,0.000936989,0.0528876,21.0183,-332.595,0.868704,0.0,0.0
34,8.25,28.0204,29.1511,151.434,99.2084,89.9023,0.000952536,0.0528223,21.0184,-332.595,0.870144,0.0,0.0
36,8.75,27.743,28.8664,149.47,99.1975,88.4162,0.000975505,0.0527406,21.0181,-332.625,1.01642,0.0,0.0
38,9.25,27.4243,28.8174,147.813,99.2048,88.4408,0.00100693,0.0526486,21.0178,-332.605,1.01461,0.0,0.0
40,9.75,28.1467,29.0831,149.708,99.1971,88.9257,0.00104392,0.0525453,21.0176,-332.635,0.965628,0.0,0.0
42,10.25,28.1474,29.3082,148.368,99.1939,89.26,0.00108869,0.0524358,21.0174,-332.635,0.932198,0.0,0.0
44,10.75,27.8631,28.7003,150.799,99.1867,90.0754,0.00113827,0.0523399,21.0168,-332.645,0.851216,0.0,0.0
46,11.25,28.2785,28.8942,151.344,99.1859,88.4349,0.00117843,0.0522557,21.0164,-332.655,1.01352,0.0,0.0
48,11.75,28.2258,28.831,150.247,99.1743,89.0514,0.00126815,0.0521732,21.016,-332.665,0.951112,0.0,0.0
50,12.25,27.9648,28.9659,147.439,99.1767,88.8641,0.0013923,0.0520934,21.0155,-332.655,0.969928,0.0,0.0
52,12.75,27.8719,29.1471,147.23,99.1723,87.47,0.00158834,0.0522157,21.0151,-332.665,1.10922,0.0,0.0
54,13.25,28.1293,29.0267,147.01,99.1731,88.405,0.00183307,0.0524829,21.0139,-332.685,1.01537,0.0,0.0
56,13.75,28.3358,29.3625,147.943,99.159,88.3313,0.00219691,0.0526993,21.013,-332.695,1.02148,0.0,0.0
58,14.25,27.8461,29.1287,148.464,99.165,87.7727,0.00264067,0.0556139,21.0078,-332.915,1.07807,0.0,0.0
60,14.75,27.5868,29.3328,156.109,99.1458,88.8874,0.00300012,0.0604401,20.9996,-332.825,0.964859,0.0,0.0
62,15.25,28.633,29.685,141.09,99.153,89.1801,0.0037513,0.0643493,20.9809,-332.785,0.936466,0.0,1.0
64,15.75,28.2614,29.0758,147.715,99.1466,84.7323,0.00435975,0.0800892,20.9549,-332.905,1.38785,0.0,1.0
66,16.25,27.9856,29.1131,143.783,99.149,82.0116,0.00537154,0.0928385,20.9227,-332.965,1.67638,0.0,1.0
68,16.75,28.5116,29.4343,136.1,99.143,71.1275,0.00619109,0.115929,20.8866,-333.035,2.93368,0.0,1.0
70,17.25,28.8554,29.6137,139.111,99.1257,72.5753,0.00737307,0.134631,20.845,-332.985,2.75414,0.0,1.0
72,17.75,28.8877,29.4098,133.786,99.1221,65.1529,0.00833048,0.165378,20.8003,-333.125,3.7069,0.0,1.0
74,18.25,29.1465,30.3558,133.678,99.1209,58.8506,0.00910598,0.190283,20.764,-333.155,4.60552,0.0,1.0
76,18.75,29.7594,30.1729,141.4,99.1157,65.7231,0.0104329,0.216403,20.7258,-333.205,3.62934,0.0,1.0
78,19.25,29.6829,30.657,129.398,99.1165,55.7207,0.0115078,0.242913,20.687,-333.205,5.0879,0.0,1.0
80,19.75,29.8999,30.1239,134.364,99.1105,56.3314,0.0128992,0.269309,20.6555,-333.285,4.99108,0.0,1.0
82,20.25,30.211,30.7548,129.368,99.1093,54.9436,0.0140262,0.295122,20.6228,-333.315,5.21134,0.0,1.0
84,20.75,30.323,31.3504,134.19,99.0972,59.6961,0.0149391,0.31603,20.5898,-333.375,4.4774,0.0,1.0
86,21.25,30.5504,30.8297,137.125,99.0964,55.3145,0.0161229,0.342053,20.5631,-333.515,5.15076,0.0,1.0
88,21.75,30.7025,31.5443,131.595,99.0844,45.9889,0.0174816,0.363132,20.5324,-333.545,6.78076,0.0,0.0
90,22.25,31.5124,31.9595,131.341,99.076,56.3784,0.0189008,0.38947,20.5076,-333.595,4.98063,0.0,0.0
92,22.75,31.8489,32.5928,129.244,99.0744,50.5899,0.020337,0.410805,20.4708,-333.616,5.93753,0.0,0.0
94,23.25,32.1485,32.934,133.085,99.0836,48.9935,0.0219122,0.428086,20.441,-333.696,6.2216,0.0,0.0
96,23.75,32.8071,32.9734,132.623,99.0856,42.0027,0.0235589,0.45846,20.3948,-333.786,7.5818,0.0,0.0
98,24.25,33.5076,33.6664,128.325,99.0611,48.996,0.0253961,0.483063,20.3574,-333.906,6.21915,0.0,0.0
100,24.75,33.5571,34.3763,118.798,99.0567,42.8157,0.0273374,0.513547,20.2865,-333.986,7.40988,0.0,0.0
102,25.25,34.4617,34.8478,121.203,99.0511,43.5292,0.0289098,0.547738,20.229,-334.066,7.26338,0.0,0.0
104,25.75,34.7472,35.688,117.302,99.0567,41.0041,0.0301835,0.585929,20.1825,-334.116,7.79179,0.0,0.0
106,26.25,35.6095,35.9548,120.313,99.0439,38.1177,0.032875,0.62631,20.1121,-334.226,8.43547,0.0,0.0
108,26.75,36.0486,37.1586,121.406,99.0475,37.8717,0.0350552,0.670992,20.0551,-334.326,8.49299,0.0,0.0
110,27.25,36.6141,37.3234,117.259,99.0318,38.4316,0.0380632,0.71796,19.991,-334.426,8.36195,0.0,0.0
112,27.75,37.5616,38.1629,116.998,99.031,38.437,0.0404996,0.756004,19.923,-334.606,8.36064,0.0,0.0
114,28.25,38.7661,38.7198,106.777,99.0262,34.6049,0.0437681,0.803088,19.8498,-334.656,9.28801,0.0,0.0
116,28.75,39.1088,40.5864,107.823,99.0174,32.4961,0.048126,0.855868,19.7419,-334.787,9.84266,0.0,0.0
118,29.25,40.5703,41.2623,113.281,99.0017,34.4871,0.0496653,0.898619,19.6852,-334.907,9.31595,0.0,0.0
120,29.75,41.5443,42.2848,103.421,99.0174,34.5191,0.0522975,0.96226,19.5883,-335.117,9.30914,0.0,0.0
122,30.25,42.7779,43.3024,110.9,98.9961,31.7689,0.0554792,1.01381,19.488,-335.157,10.0407,0.0,0.0
124,30.75,43.9335,44.9247,103.409,98.9997,32.9482,0.0580563,1.08052,19.387,-335.317,9.71904,0.0,0.0
126,31.25,45.0349,45.9291,113.381,98.9833,32.3333,0.0611264,1.13455,19.2726,-335.397,9.88398,0.0,0.0
128,31.75,46.5379,47.0534,101.932,98.9889,30.1475,0.0636131,1.23105,19.1798,-335.617,10.5028,0.0,0.0
130,32.25,47.7033,48.3737,107.098,98.9753,30.2907,0.0656274,1.25701,19.0809,-335.657,10.4597,0.0,0.0
132,32.75,49.2155,49.6487,100.793,98.9801,29.0511,0.0678784,1.31978,19.0008,-335.848,10.8293,0.0,0.0
134,33.25,50.7118,51.2007,100.229,98.9528,29.8578,0.0702592,1.37061,18.9276,-336.008,10.5849,0.0,0.0
136,33.75,52.2677,52.7193,99.7324,98.9584,32.1781,0.0726693,1.4244,18.861,-336.148,9.92428,0.0,0.0
138,34.25,53.7125,54.659,97.8922,98.9363,27.4493,0.0746214,1.46797,18.8015,-336.338,11.3264,0.0,0.0
140,34.75,54.8564,56.717,101.392,98.9359,27.9459,0.0754537,1.50816,18.7734,-336.458,11.168,0.0,0.0
142,35.25,56.1863,58.4606,96.2641,98.9199,29.5269,0.077168,1.54511,18.7255,-336.578,10.6804,0.0,0.0
144,35.75,57.7626,59.4897,96.6427,98.9219,30.2853,0.0785567,1.57505,18.6867,-336.638,10.4566,0.0,0.0
146,36.25,59.1154,60.9341,107.538,98.9002,29.8041,0.0797267,1.60292,18.6552,-336.828,10.5961,0.0,0.0
148,36.75,60.5699,62.6066,100.064,98.903,26.4765,0.0806744,1.6255,18.6297,-336.909,11.6422,0.0,0.0
150,37.25,61.8966,64.7048,97.2953,98.8894,29.5381,0.0812146,1.64198,18.6091,-337.109,10.6743,0.0,0.0
152,37.75,62.8861,65.7639,98.9921,98.891,30.14,0.0816522,1.64901,18.5951,-337.209,10.4963,0.0,0.0
154,38.25,64.7065,67.1238,97.3296,98.8641,28.6173,0.0814742,1.65688,18.5837,-337.309,10.9518,0.0,0.0
156,38.75,66.047,68.65,96.1992,98.8661,28.2781,0.08133,1.65953,18.5744,-337.459,11.0574,0.0,0.0
158,39.25,66.528,70.5373,105.796,98.8404,32.1131,0.0812132,1.65536,18.5851,-337.549,9.93159,0.0,0.0
160,39.75,68.1515,71.8711,105.54,98.8433,31.9246,0.080039,1.6463,18.5937,-337.649,9.98387,0.0,0.0
162,40.25,69.4657,72.9811,99.7943,98.8216,35.0453,0.0790878,1.63896,18.6236,-337.809,9.15802,0.0,0.0
164,40.75,70.3961,74.1033,108.058,98.8384,31.3992,0.0774698,1.61749,18.6479,-337.949,10.13,0.0,0.0
166,41.25,71.6685,75.0647,104.536,98.8372,33.1068,0.0761593,1.60009,18.6822,-338,9.66211,0.0,0.0
168,41.75,72.2015,76.6344,107.928,98.8409,33.9568,0.0741872,1.57317,18.7231,-338.09,9.43848,0.0,0.0
170,42.25,73.2399,77.8254,113.805,98.8364,36.5543,0.0725898,1.53982,18.7563,-338.21,8.78694,0.0,0.0
172,42.75,73.9647,78.4799,111.185,98.8525,39.8677,0.0712959,1.50068,18.7832,-338.36,8.02185,0.0,0.0
174,43.25,74.5601,79.2105,112.368,98.84,38.3205,0.0693364,1.45808,18.8407,-338.36,8.37041,0.0,0.0
176,43.75,75.2012,80.0426,112.856,98.8609,37.0067,0.0669291,1.42357,18.8873,-338.5,8.68044,0.0,0.0
178,44.25,75.5216,80.9029,110.9,98.8621,38.1365,0.0644332,1.37487,18.9613,-338.55,8.4149,0.0,0.0
180,44.75,76.6085,81.5561,117.153,98.8621,43.2898,0.0619202,1.33542,19.0213,-338.61,7.29522,0.0,0.0
182,45.25,77.188,81.7193,118.679,98.8509,42.792,0.059382,1.27769,19.1025,-338.69,7.3964,0.0,0.0
184,45.75,77.4083,82.9816,116.882,98.8589,47.5403,0.0568739,1.23092,19.1683,-338.76,6.46754,0.0,0.0
186,46.25,77.3939,83.3694,122.065,98.8613,46.396,0.0548422,1.19305,19.2216,-338.79,6.68299,0.0,0.0
188,46.75,78.1202,83.5062,125.373,98.8657,44.5037,0.0531966,1.14625,19.3067,-338.92,7.05125,0.0,0.0
190,47.25,77.8753,83.8426,124.662,98.8565,48.7695,0.0503931,1.09383,19.3952,-338.99,6.24181,0.0,0.0
192,47.75,78.0562,83.7506,132.401,98.8717,45.9102,0.0481223,1.04263,19.4844,-338.94,6.77691,0.0,0.0
194,48.25,78.1149,84.5064,127.71,98.8689,48.1934,0.045845,0.993279,19.5567,-339.03,6.34789,0.0,0.0
196,48.75,78.0551,84.6727,127.33,98.8725,49.3115,0.0436063,0.953307,19.6377,-339.131,6.14561,0.0,0.0
198,49.25,78.3761,83.9343,132.153,98.8778,51.2921,0.041438,0.911624,19.7034,-339.131,5.7982,0.0,0.0
200,49.75,78.2537,84.2566,133.483,98.8906,56.1965,0.0393622,0.869485,19.7791,-339.191,4.99264,0.0,0.0
202,50.25,78.2664,84.5715,130.557,98.8874,54.3433,0.0373486,0.835353,19.8404,-339.221,5.28858,0.0,0.0
204,50.75,77.9522,84.4143,128.096,98.903,53.8034,0.0354186,0.79982,19.8966,-339.261,5.37819,0.0,0.0
206,51.25,78.0057,84.1197,130.66,98.901,50.5158,0.0338553,0.763941,19.9479,-339.331,5.93501,0.0,0.0
208,51.75,77.623,84.0877,129.778,98.9026,53.2452,0.0319791,0.729714,19.9984,-339.381,5.47028,0.0,0.0
210,52.25,77.7884,84.0108,136.41,98.8974,56.0508,0.0304594,0.697342,20.0471,-339.401,5.01618,0.0,0.0
212,52.75,77.8405,83.9778,138.611,98.9183,59.7073,0.0285937,0.67112,20.0957,-339.481,4.45977,0.0,0.0
214,53.25,77.0635,83.7787,135.935,98.9095,64.6642,0.0270824,0.639266,20.1432,-339.451,3.75444,0.0,0.0
216,53.75,76.8289,83.4852,137.572,98.9279,65.4942,0.0258583,0.613463,20.1817,-339.501,3.64342,0.0,0.0
218,54.25,76.9726,83.2957,135.245,98.9219,66.5711,0.0242033,0.584022,20.2199,-339.501,3.49881,0.0,0.0
220,54.75,76.5996,83.0383,130.1,98.9267,64.3769,0.0228626,0.560174,20.2573,-339.591,3.79531,0.0,0.0
222,55.25,76.3409,82.8939,135.19,98.9424,67.819,0.0213667,0.534458,20.2926,-339.581,3.33657,0.0,0.0
224,55.75,76.1995,82.8199,137.793,98.948,66.3708,0.020155,0.513629,20.3258,-339.591,3.52775,0.0,0.0
226,56.25,76.3315,82.5467,141.435,98.96,66.0324,0.0189497,0.49279,20.3527,-339.581,3.57398,0.0,0.0
228,56.75,75.9845,82.2802,137.899,98.95,70.3091,0.0172698,0.47234,20.3983,-339.671,3.0187,0.0,0.0
230,57.25,75.3339,81.7967,134.693,98.96,71.1329,0.0166705,0.455776,20.4106,-339.671,2.91669,0.0,0.0
232,57.75,75.0017,81.5831,139.639,98.9572,69.2414,0.0156455,0.435651,20.4434,-339.681,3.15453,0.0,0.0
234,58.25,74.6574,81.3852,139.332,98.9773,74.933,0.014691,0.419351,20.4701,-339.711,2.45848,0.0,0.0
236,58.75,74.4318,81.1477,139.139,98.968,75.005,0.013806,0.401651,20.4987,-339.741,2.44917,0.0,0.0
238,59.25,74.1582,80.7639,137.957,98.9905,72.9416,0.0129961,0.387315,20.5219,-339.741,2.6976,0.0,0.0
240,59.75,74.379,80.9964,134.861,98.9925,73.0606,0.0122565,0.368523,20.5469,-339.741,2.68338,0.0,0.0
242,60.25,73.4725,80.0383,138.468,99.0001,70.5239,0.0116574,0.362061,20.5671,-339.781,2.99623,0.0,0.0
244,60.75,73.2801,79.6347,142.25,99.0037,70.899,0.0110896,0.351011,20.5835,-339.781,2.9497,0.0,0.0
246,61.25,73.5791,80.0348,136.81,99.0182,71.9621,0.0105554,0.338618,20.6021,-339.771,2.8195,0.0,0.0
248,61.75,72.8542,79.314,147.244,99.015,75.4492,0.0100861,0.326797,20.6171,-339.831,2.4012,0.0,0.0
250,62.25,72.7207,79.314,139.961,99.0366,72.4225,0.00967319,0.315618,20.635,-339.821,2.76481,0.0,0.0
252,62.75,72.1711,79.1573,139.681,99.0198,74.5625,0.00933871,0.306563,20.6495,-339.851,2.50605,0.0,0.0
254,63.25,71.8687,78.8945,140.586,99.0499,76.9119,0.00901363,0.295093,20.6639,-339.841,2.23468,0.0,0.0
256,63.75,71.5335,78.5167,141.29,99.0427,75.5474,0.00875031,0.285802,20.6777,-339.881,2.39217,0.0,0.0
258,64.25,71.2329,78.0577,141.981,99.0563,78.2789,0.00850055,0.276192,20.6927,-339.851,2.07962,0.0,0.0
260,64.75,71.1168,77.8419,141.771,99.0519,80.026,0.00829824,0.266533,20.7082,-339.861,1.88423,0.0,0.0
262,65.25,70.8313,77.1531,140.95,99.0683,76.5772,0.00809542,0.258709,20.7207,-339.891,2.27485,0.0,0.0
264,65.75,70.5949,77.1073,141.899,99.0647,77.9963,0.00793113,0.249276,20.7309,-339.891,2.11233,0.0,0.0
266,66.25,70.0523,76.9827,145.817,99.086,81.0696,0.00779806,0.241636,20.744,-339.901,1.77282,0.0,0.0
268,66.75,69.4705,76.3394,141.141,99.0744,79.9265,0.00764933,0.231916,20.7546,-339.901,1.89723,0.0,0.0
270,67.25,69.6962,76.1149,144.731,99.0976,82.5598,0.00749201,0.224042,20.767,-339.921,1.61294,0.0,0.0
272,67.75,68.8652,75.3839,143.58,99.0824,83.0293,0.00736458,0.216375,20.7771,-339.941,1.56148,0.0,0.0
274,68.25,68.8584,75.3345,146.949,99.1097,85.2763,0.00721326,0.209004,20.7853,-339.931,1.32802,0.0,0.0
276,68.75,67.9412,75.0966,145.779,99.0984,82.7105,0.0070474,0.203034,20.7954,-339.941,1.5969,0.0,0.0
278,69.25,67.9755,74.8934,143.707,99.1197,83.8523,0.00687492,0.19654,20.8037,-339.981,1.47768,0.0,0.0
280,69.75,67.7381,74.3496,144.773,99.1297,83.8069,0.00670089,0.189787,20.8139,-339.971,1.48336,0.0,0.0
282,70.25,67.2222,74.2945,147.636,99.1297,85.323,0.00652055,0.184317,20.8221,-340.001,1.32498,0.0,0.0
284,70.75,67.0372,73.74,142.404,99.1281,84.2373,0.00633904,0.178694,20.8328,-340.001,1.43796,0.0,0.0
286,71.25,66.8813,73.1531,144.967,99.1514,83.9996,0.00616057,0.173067,20.8414,-340.001,1.46499,0.0,0.0
288,71.75,66.5422,72.8685,145.019,99.1369,86.5871,0.00598772,0.168509,20.8511,-339.991,1.19569,0.0,0.0
290,72.25,66.0867,72.6099,149.113,99.1614,86.1334,0.00581696,0.163205,20.8589,-339.991,1.24429,0.0,0.0
292,72.75,65.1966,72.5112,142.797,99.1594,85.8816,0.00565098,0.15891,20.867,-340.021,1.26998,0.0,0.0
294,73.25,65.3148,72.2376,145.867,99.1711,85.8683,0.00551654,0.154266,20.8735,-340.001,1.27238,0.0,0.0
296,73.75,64.8308,72.0417,143.04,99.1654,87.1058,0.00536846,0.150504,20.8788,-340.021,1.14547,0.0,0.0
298,74.25,64.9465,71.5252,145.22,99.1863,88.6193,0.00521327,0.146622,20.884,-340.041,0.995151,0.0,0.0
300,74.75,64.2694,70.5831,143.051,99.1883,85.6439,0.00508756,0.143477,20.8882,-340.041,1.29703,0.0,0.0
302,75.25,64.1805,70.5501,146.334,99.2015,86.8623,0.00493001,0.140266,20.8923,-340.041,1.17342,0.0,0.0
304,75.75,63.9886,70.2969,144.827,99.1923,85.2555,0.00480239,0.137665,20.8963,-340.041,1.33754,0.0,0.0
306,76.25,63.8038,69.9524,145.105,99.212,87.7206,0.00466315,0.134697,20.9001,-340.061,1.08748,0.0,0.0
308,76.75,63.0384,69.0881,144.444,99.2011,88.9798,0.00460379,0.132294,20.9021,-340.071,0.960611,0.0,0.0
310,77.25,62.8726,69.3626,146.091,99.2625,87.7806,0.00450228,0.130347,20.9055,-340.061,1.08595,0.0,0.0
312,77.75,62.9638,69.5608,144.296,99.222,89.9377,0.00438176,0.127575,20.909,-340.071,0.867883,0.0,0.0
314,78.25,62.1611,69.0707,147.338,99.2393,89.6292,0.00428413,0.125329,20.9124,-340.081,0.899769,0.0,0.0
316,78.75,61.4326,68.9109,146.683,99.2373,87.6187,0.00418036,0.123112,20.9159,-340.091,1.10001,0.0,0.0
318,79.25,61.8066,68.0605,144.514,99.2537,88.8495,0.00409631,0.120957,20.9193,-340.101,0.978236,0.0,0.0
320,79.75,61.7325,67.0182,144.544,99.2385,87.7981,0.00400972,0.120038,20.9228,-340.101,1.08205,0.0,0.0
322,80.25,61.0737,67.6533,147.906,99.2617,89.8648,0.00393114,0.117865,20.9263,-340.091,0.878577,0.0,0.0
324,80.75,61.062,67.049,146.398,99.2565,88.8945,0.0038599,0.116105,20.9295,-340.101,0.974017,0.0,0.0
326,81.25,60.5632,67.0763,145.519,99.2786,90.2852,0.00380219,0.113813,20.9326,-340.111,0.838843,0.0,0.0
328,81.75,60.1205,66.3731,143.891,99.2637,90.5084,0.00374247,0.111956,20.9351,-340.121,0.815719,0.0,0.0
330,82.25,59.7641,66.1946,144.776,99.2878,90.095,0.00368243,0.109908,20.9379,-340.111,0.858298,0.0,0.0
332,82.75,60.084,66.0108,146.592,99.2826,90.3019,0.00362147,0.108249,20.9403,-340.121,0.837571,0.0,0.0
334,83.25,59.1728,66.2503,148.347,99.299,88.9927,0.003561,0.106515,20.9426,-340.132,0.968044,0.0,0.0
336,83.75,59.4194,65.2419,146.93,99.2834,89.1805,0.00353523,0.105111,20.9436,-340.132,0.948035,0.0,0.0
338,84.25,59.1755,65.0261,145.098,99.3079,89.7295,0.00348272,0.103636,20.9453,-340.132,0.895992,0.0,0.0
340,84.75,58.7502,64.7909,149.684,99.2898,90.98,0.00343261,0.102138,20.9476,-340.132,0.772126,0.0,0.0
342,85.25,58.6012,64.6715,150.963,99.3127,91.2834,0.00338944,0.1015,20.9494,-340.161,0.744744,0.0,0.0
344,85.75,57.8269,64.7195,143.546,99.3151,89.4207,0.00335213,0.0987737,20.9518,-340.172,0.927096,0.0,0.0
346,86.25,57.9272,64.2829,148.384,99.3295,91.2597,0.0033096,0.0973803,20.9546,-340.172,0.748539,0.0,0.0
348,86.75,57.84,63.8385,144.724,99.3199,92.2883,0.00327516,0.0964578,20.9578,-340.161,0.648672,0.0,0.0
350,87.25,57.3704,64.2721,146.693,99.342,92.2521,0.00322635,0.0948803,20.9605,-340.172,0.654101,0.0,0.0
352,87.75,57.2569,62.7784,146.324,99.3251,91.0291,0.00318681,0.09318,20.963,-340.172,0.770498,0.0,0.0
354,88.25,56.6851,62.7168,147.402,99.3504,91.7855,0.00315478,0.0914224,20.965,-340.182,0.699648,0.0,0.0
356,88.75,56.1106,62.8209,149.029,99.3416,91.7855,0.00310556,0.089635,20.9666,-340.182,0.698864,0.0,0.0
358,89.25,56.36,62.693,149.096,99.3661,92.6213,0.00304473,0.0878599,20.9679,-340.192,0.620955,0.0,0.0
360,89.75,56.2202,62.2891,145.779,99.36,92.0048,0.00299546,0.0860517,20.9707,-340.192,0.679416,0.0,0.0
362,90.25,55.9605,61.8751,146.982,99.3737,92.2005,0.00292131,0.0842537,20.973,-340.172,0.661863,0.0,0.0
364,90.75,54.9881,62.0899,140.991,99.3741,92.2508,0.00283045,0.0823914,20.9756,-340.192,0.657074,0.0,0.0
366,91.25,55.6225,61.2137,151.864,99.3841,92.5697,0.00275685,0.0805174,20.9777,-340.202,0.627484,0.0,0.0
368,91.75,55.3628,61.4531,150.743,99.3817,92.4219,0.00264088,0.0789995,20.9802,-340.202,0.641384,0.0,0.0
370,92.25,54.685,60.8113,151.343,99.3925,93.2016,0.00254694,0.0777701,20.9823,-340.202,0.568136,0.0,0.0
372,92.75,54.3607,60.0573,147.584,99.3865,93.0467,0.0024048,0.0760075,20.9849,-340.202,0.582291,0.0,0.0
374,93.25,54.3508,60.7628,148.607,99.401,93.5342,0.00228967,0.0738899,20.9878,-340.202,0.537416,0.0,0.0
376,93.75,54.4375,60.3244,144.982,99.3937,93.95,0.00213658,0.0721746,20.9912,-340.192,0.497587,0.0,0.0
378,94.25,53.6184,60.045,148.887,99.4078,93.6778,0.00201258,0.0699079,20.9947,-340.192,0.524469,0.0,0.0
380,94.75,53.942,59.6414,148.623,99.4038,93.6661,0.00188909,0.0680719,20.9975,-340.192,0.525212,0.0,0.0
382,95.25,53.3591,59.4047,147.935,99.411,93.8335,0.00176831,0.0658868,21.0007,-340.202,0.510086,0.0,0.0
384,95.75,53.3844,59.4902,146.757,99.4134,93.6707,0.00167048,0.0641169,21.0033,-340.182,0.525636,0.0,0.0
386,96.25,51.8811,58.1053,153.4,99.4226,93.766,0.00157649,0.0620955,21.0056,-340.202,0.51747,0.0,0.0
388,96.75,51.8542,57.8825,146.536,99.425,93.9217,0.00148709,0.0604582,21.0075,-340.202,0.50303,0.0,0.0
390,97.25,52.447,58.6149,151.808,99.4359,93.8177,0.00141019,0.0589595,21.0093,-340.202,0.513785,0.0,0.0
392,97.75,52.2427,58.3274,150.83,99.4323,93.8926,0.00134386,0.0575904,21.011,-340.182,0.506412,0.0,0.0
394,98.25,51.6736,57.894,144.318,99.4459,93.8555,0.00128757,0.0564813,21.0123,-340.172,0.51111,0.0,0.0
396,98.75,51.7873,57.5555,147.21,99.4583,94.2585,0.00123968,0.0552275,21.0139,-340.192,0.474369,0.0,0.0
398,99.25,51.624,56.9171,146.349,99.4559,93.9359,0.00119767,0.0542119,21.0151,-340.192,0.504443,0.0,0.0
400,99.75,51.418,57.1016,149.401,99.4555,93.8235,0.00116077,0.0533103,21.0161,-340.192,0.514983,0.0,0.0
402,100.25,51.0838,56.5903,147.747,99.4515,93.8547,0.00113088,0.0525089,21.017,-340.202,0.511688,0.0,0.0
404,100.75,50.6609,56.6267,149.58,99.4688,93.9392,0.00108842,0.0518024,21.0181,-340.202,0.50527,0.0,0.0
406,101.25,50.3265,56.3079,148.474,99.4696,93.7756,0.00105402,0.0511784,21.019,-340.182,0.520739,0.0,0.0
408,101.75,50.3025,56.5156,147.868,99.4684,93.8014,0.00100306,0.050673,21.0201,-340.202,0.518201,0.0,0.0
410,102.25,49.7745,55.9835,147.093,99.4704,94.01,0.000961781,0.0501682,21.0211,-340.192,0.49876,0.0,0.0
412,102.75,50.1823,55.742,145.637,99.48,94.027,0.000928345,0.0497593,21.0218,-340.192,0.498012,0.0,0.0
414,103.25,50.0573,55.5939,147.471,99.4864,94.2293,0.000883995,0.0493872,21.0225,-340.212,0.479595,0.0,0.0
416,103.75,49.9772,55.6007,146.159,99.4964,93.7819,0.000832532,0.0490858,21.023,-340.222,0.522538,0.0,0.0
418,104.25,49.843,54.9676,149.532,99.4912,94.2352,0.000795705,0.0487872,21.0234,-340.202,0.479476,0.0,0.0
420,104.75,49.048,54.654,145.469,99.4956,94.3089,0.000765875,0.0485453,21.0237,-340.212,0.472964,0.0,0.0
422,105.25,48.8618,54.8245,148.16,99.5013,93.8535,0.000751256,0.0483278,21.024,-340.202,0.516223,0.0,0.0
424,105.75,49.1326,54.3059,149.928,99.5177,93.8256,0.000748003,0.0481323,21.0242,-340.212,0.520309,0.0,0.0
426,106.25,48.3934,54.1544,148.902,99.5029,94.2169,0.000749845,0.0479739,21.0244,-340.202,0.482227,0.0,0.0
428,106.75,48.0323,54.357,147.434,99.5097,93.9171,0.000755368,0.0478593,21.0245,-340.192,0.510979,0.0,0.0
430,107.25,47.9824,54.1034,148.107,99.5173,93.8659,0.000759841,0.0477664,21.0248,-340.212,0.516473,0.0,0.0
432,107.75,48.1009,53.6454,147.03,99.5257,94.199,0.000767111,0.0476776,21.025,-340.202,0.485935,0.0,0.0
434,108.25,47.7577,53.9312,149.164,99.5129,94.0108,0.000773,0.0476056,21.0252,-340.212,0.502459,0.0,0.0
436,108.75,48.2118,53.6791,147.048,99.531,93.8468,0.000782633,0.0475046,21.0253,-340.212,0.519486,0.0,0.0
438,109.25,47.4466,53.4675,147.929,99.5249,94.1224,0.000790436,0.0473845,21.0255,-340.222,0.49305,0.0,0.0
440,109.75,47.7558,53.1654,149.983,99.5354,93.9692,0.000796757,0.0472656,21.0256,-340.202,0.508366,0.0,0.0
442,110.25,47.5645,52.7741,146.939,99.5494,93.965,0.000808276,0.04715,21.0256,-340.212,0.510002,0.0,0.0
444,110.75,47.7782,52.3332,148.206,99.549,94.0666,0.000823367,0.0470564,21.0257,-340.212,0.500424,0.0,0.0
446,111.25,46.6041,52.097,149.005,99.535,94.1195,0.000838151,0.0469669,21.0257,-340.222,0.494214,0.0,0.0
448,111.75,46.6727,52.0074,150.425,99.555,94.077,0.000852431,0.0468944,21.0258,-340.192,0.49998,0.0,0.0
450,112.25,46.6653,52.487,143.753,99.5458,93.9217,0.000863997,0.0467926,21.0258,-340.202,0.513754,0.0,0.0
452,112.75,46.2928,52.0559,145.798,99.5554,93.8056,0.000865686,0.0466715,21.0258,-340.212,0.525538,0.0,0.0
454,113.25,46.7918,51.9809,151.19,99.551,93.9284,0.00086014,0.0465734,21.0259,-340.212,0.51359,0.0,0.0
456,113.75,46.3137,51.43,146.048,99.5687,93.8897,0.000845412,0.0465348,21.0261,-340.212,0.518798,0.0,0.0
458,114.25,46.5668,51.5246,149.622,99.5566,94.2019,0.000824269,0.0465035,21.0262,-340.192,0.488403,0.0,0.0
460,114.75,45.866,51.4397,147.197,99.5667,93.8293,0.000795634,0.0464373,21.0263,-340.212,0.5243,0.0,0.0
462,115.25,46.0786,51.4248,148.977,99.5699,93.945,0.00076208,0.0463837,21.0263,-340.212,0.513697,0.0,0.0
464,115.75,45.5184,51.3956,147.807,99.5743,94.3546,0.000734902,0.0463403,21.0264,-340.212,0.475656,0.0,0.0
466,116.25,45.3329,50.5659,149.635,99.5627,93.9342,0.000697101,0.0463051,21.0264,-340.222,0.514074,0.0,0.0
468,116.75,45.5622,50.8595,147.009,99.5899,93.7835,0.000666483,0.0462766,21.0265,-340.222,0.530677,0.0,0.0
470,117.25,44.7874,50.3238,146.608,99.5767,93.8909,0.000644238,0.0462944,21.0265,-340.222,0.519391,0.0,0.0
472,117.75,45.5182,50.1118,146.798,99.5891,94.0574,0.00062852,0.0463088,21.0265,-340.212,0.504843,0.0,0.0
474,118.25,44.9968,50.0218,150.238,99.5964,94.1203,0.000623459,0.0463069,21.0265,-340.202,0.499581,0.0,0.0
476,118.75,45.3252,50.2136,149.253,99.5919,94.0608,0.000626262,0.0463053,21.0266,-340.202,0.50478,0.0,0.0
478,119.25,44.7164,50.0876,151.645,99.5883,93.9609,0.000636206,0.046304,21.0266,-340.212,0.513847,0.0,0.0
480,119.75,45.1857,49.852,148.007,99.5992,94.0133,0.000651166,0.0462621,21.0266,-340.222,0.509878,0.0,0.0
482,120.25,44.693,50.316,149.219,99.5847,93.8918,0.000663284,0.0462281,21.0266,-340.212,0.520026,0.0,0.0
484,120.75,44.3913,49.5811,148.05,99.6216,94.1215,0.000682822,0.0461935,21.0266,-340.212,0.501707,0.0,0.0
486,121.25,44.7779,49.4493,152.161,99.5915,94.2185,0.000698648,0.046159,21.0268,-340.222,0.48994,0.0,0.0
488,121.75,44.3804,49.303,147.767,99.6124,94.2293,0.000712683,0.0461238,21.0272,-340.212,0.490774,0.0,0.0
490,122.25,43.4773,48.292,152.455,99.598,93.9134,0.000724051,0.0460889,21.0276,-340.212,0.519164,0.0,0.0
492,122.75,43.8695,48.4596,147.954,99.5996,94.3292,0.000733259,0.0460606,21.0278,-340.222,0.480275,0.0,0.0
494,123.25,43.4771,48.8392,147.546,99.6024,94.1515,0.000740717,0.0459696,21.028,-340.232,0.497186,0.0,0.0
496,123.75,43.5779,49.0386,145.801,99.6208,93.9937,0.000746758,0.0458959,21.0278,-340.212,0.513638,0.0,0.0
498,124.25,44.1164,48.5549,145.371,99.6076,94.1145,0.00074922,0.0458089,21.0275,-340.212,0.501126,0.0,0.0
500,124.75,43.7213,48.4081,150.541,99.6208,93.9867,0.000751215,0.0457385,21.0276,-340.222,0.514303,0.0,0.0
502,125.25,43.4841,48.3524,147.054,99.6128,94.1619,0.000741893,0.0456886,21.0279,-340.232,0.497135,0.0,0.0
504,125.75,43.4695,48.3703,146.008,99.6305,93.8589,0.000734343,0.0456547,21.0281,-340.232,0.527177,0.0,0.0
506,126.25,43.0025,48.0055,149.477,99.622,94.102,0.000717408,0.0456343,21.0282,-340.222,0.503579,0.0,0.0
508,126.75,43.5052,48.4146,145.491,99.6297,94.1969,0.000693953,0.0456243,21.0284,-340.222,0.49535,0.0,0.0
510,127.25,42.9722,47.6141,142.635,99.6208,94.1906,0.000667287,0.0456162,21.0285,-340.222,0.495153,0.0,0.0
512,127.75,43.0924,47.33,144.401,99.6325,94.2073,0.000638786,0.0455824,21.0285,-340.232,0.494622,0.0,0.0
514,128.25,43.063,46.8682,151.589,99.6232,94.1682,0.000617617,0.045555,21.0284,-340.232,0.497474,0.0,0.0
516,128.75,43.0495,47.0472,145.542,99.6361,93.9979,0.000602195,0.0455056,21.0283,-340.212,0.514598,0.0,0.0
518,129.25,42.6573,47.1389,148.165,99.6377,94.2389,0.000598651,0.0454656,21.0283,-340.212,0.492119,0.0,0.0
520,129.75,42.7962,47.3457,146.164,99.6413,94.4162,0.000603832,0.0454399,21.0283,-340.222,0.475832,0.0,0.0
522,130.25,42.0328,46.775,145.388,99.6449,94.4067,0.000608029,0.0454253,21.0282,-340.222,0.477047,0.0,0.0
524,130.75,41.7462,46.9821,147.686,99.6429,94.3159,0.000625497,0.0453991,21.0282,-340.202,0.485365,0.0,0.0
526,131.25,42.3885,46.4921,149.702,99.6441,94.1348,0.000652308,0.045365,21.0282,-340.212,0.502449,0.0,0.0
528,131.75,41.8125,46.8078,148.029,99.6445,94.1527,0.000674025,0.0453373,21.0282,-340.212,0.500805,0.0,0.0
530,132.25,42.0918,46.5949,147.945,99.6465,94.3463,0.000691615,0.0453149,21.0281,-340.212,0.48284,0.0,0.0
532,132.75,42.1903,46.3404,145.805,99.6593,94.2947,0.000705864,0.0452968,21.0281,-340.202,0.488813,0.0,0.0
534,133.25,41.8099,46.3935,152.447,99.6517,94.3667,0.000707682,0.0452821,21.0281,-340.222,0.481392,0.0,0.0
536,133.75,41.7885,46.0536,150.024,99.6581,94.1894,0.000709155,0.0452702,21.0281,-340.222,0.498577,0.0,0.0
538,134.25,41.4476,46.1223,152.122,99.6662,94.0233,0.000698199,0.0452176,21.0281,-340.222,0.51488,0.0,0.0
540,134.75,41.9259,45.6691,148.758,99.6497,94.0953,0.000689325,0.0451362,21.0281,-340.212,0.506659,0.0,0.0
542,135.25,41.4343,45.9718,146.559,99.6513,93.8743,0.000682136,0.0450632,21.0281,-340.212,0.527578,0.0,0.0
544,135.75,41.1266,45.5525,148.499,99.6626,94.0612,0.000667812,0.0449976,21.0281,-340.212,0.511002,0.0,0.0
546,136.25,41.5064,45.5486,149.754,99.663,94.0183,0.000656209,0.0449516,21.028,-340.212,0.515065,0.0,0.0
548,136.75,41.4072,45.5584,144.564,99.6662,94.1348,0.00064186,0.0449208,21.0279,-340.212,0.504406,0.0,0.0
550,137.25,40.817,45.2854,144.906,99.6642,94.2468,0.000635743,0.0448958,21.0278,-340.212,0.493726,0.0,0.0
552,137.75,41.2295,45.7918,149.503,99.6678,94.2214,0.000625282,0.0448756,21.0277,-340.212,0.496425,0.0,0.0
554,138.25,41.1427,44.9206,145.231,99.6642,94.236,0.000615531,0.0448593,21.0276,-340.222,0.49474,0.0,0.0
556,138.75,40.7922,44.7772,147.882,99.6561,93.9942,0.000606481,0.044846,21.0277,-340.232,0.516729,0.0,0.0
558,139.25,40.837,44.9894,146.538,99.6618,94.2202,0.000599791,0.0448489,21.0277,-340.232,0.496009,0.0,0.0
560,139.75,40.7532,44.7858,145.953,99.6593,93.9121,0.000594947,0.0448512,21.0278,-340.222,0.524725,0.0,0.0
562,140.25,41.083,44.9128,151.7,99.665,93.7719,0.000596776,0.0448522,21.0279,-340.212,0.538428,0.0,0.0
564,140.75,40.6001,44.5471,148.208,99.6585,94.0112,0.000603434,0.0448274,21.0279,-340.232,0.515338,0.0,0.0
566,141.25,40.8477,44.5291,150.505,99.667,94.1432,0.000608827,0.0448073,21.028,-340.222,0.503695,0.0,0.0
568,141.75,40.8633,44.6895,148.663,99.6634,94.2701,0.000615625,0.0447766,21.028,-340.232,0.49147,0.0,0.0
570,142.25,40.3204,44.88,147.104,99.6614,94.0687,0.000621132,0.0447389,21.028,-340.222,0.510192,0.0,0.0
572,142.75,40.3614,44.3509,145.634,99.669,94.2377,0.000604948,0.0447012,21.0281,-340.212,0.49501,0.0,0.0
574,143.25,40.5132,44.338,149.877,99.6597,94.5599,0.000591839,0.0446643,21.0281,-340.222,0.464041,0.0,0.0
576,143.75,40.4778,44.1053,147.699,99.6545,93.9392,0.000555736,0.0446271,21.0281,-340.222,0.521753,0.0,0.0
578,144.25,39.8968,44.1251,146.94,99.6605,94.0616,0.000526492,0.0445906,21.0283,-340.232,0.510784,0.0,0.0
580,144.75,39.7159,44.0753,149.154,99.6533,94.2959,0.000491953,0.0445682,21.0287,-340.232,0.488162,0.0,0.0
582,145.25,40.1824,43.7154,144.812,99.6593,94.3222,0.00045421,0.0445565,21.0291,-340.222,0.486239,0.0,0.0
584,145.75,40.7296,43.7229,149.818,99.6509,94.4383,0.000423638,0.044547,21.0293,-340.232,0.474621,0.0,0.0
586,146.25,39.8983,43.8847,147.656,99.6497,94.1786,0.000400087,0.0445393,21.0295,-340.242,0.498846,0.0,0.0
588,146.75,40.0439,43.8421,150.721,99.6489,94.3825,0.00038101,0.0445331,21.0297,-340.242,0.479663,0.0,0.0
590,147.25,40.144,43.8184,147.496,99.6622,94.3301,0.000373268,0.0445417,21.0299,-340.232,0.485747,0.0,0.0
592,147.75,39.896,43.4761,147.986,99.6529,93.8364,0.000373936,0.0445486,21.03,-340.232,0.531285,0.0,0.0
594,148.25,39.7235,43.4226,147.255,99.6561,93.9217,0.000379584,0.0445542,21.0301,-340.222,0.523539,0.0,0.0
596,148.75,39.9445,43.937,150.402,99.6401,94.1315,0.000388756,0.0445724,21.03,-340.222,0.502405,0.0,0.0
598,149.25,39.6724,43.4548,146.522,99.6477,94.196,0.000398102,0.0445871,21.0299,-340.242,0.497028,0.0,0.0
600,149.75,39.8098,43.2286,143.535,99.6517,94.1348,0.000407395,0.044599,21.0299,-340.232,0.503125,0.0,0.0
602,150.25,39.5457,42.9149,145.987,99.667,94.3347,0.000420672,0.0446087,21.0298,-340.232,0.485745,0.0,0.0
604,150.75,38.8668,42.4136,145.117,99.6409,94.1602,0.0004366,0.044609,21.0298,-340.222,0.499782,0.0,0.0
606,151.25,39.2755,42.7365,148.967,99.6557,94.0374,0.000449501,0.0446024,21.0297,-340.212,0.512626,0.0,0.0
608,151.75,39.0673,42.4072,152.639,99.6373,94.1153,0.000459951,0.0446115,21.0297,-340.222,0.50368,0.0,0.0
610,152.25,39.1949,43.1775,152.64,99.6505,94.0608,0.000506063,0.0446317,21.0297,-340.222,0.509975,0.0,0.0
612,152.75,39.2665,42.5887,150.456,99.6349,94.0978,0.000543413,0.0446624,21.0297,-340.222,0.505108,0.0,0.0
614,153.25,39.6154,42.9738,147.732,99.6614,94.196,0.000600409,0.0447001,21.0297,-340.232,0.498238,0.0,0.0
616,153.75,38.99,42.4259,150.713,99.6413,94.1203,0.000646575,0.0447307,21.0296,-340.232,0.503567,0.0,0.0
618,154.25,38.2901,42.3791,146.827,99.6409,94.266,0.000694915,0.0447419,21.0296,-340.232,0.489868,0.0,0.0
620,154.75,38.2633,42.3174,147.068,99.6321,93.9421,0.00073407,0.0447509,21.0296,-340.222,0.519487,0.0,0.0
622,155.25,38.5063,42.4154,149.621,99.6589,94.2681,0.000762137,0.0447583,21.0296,-340.222,0.491272,0.0,0.0
624,155.75,38.8443,42.1833,147.312,99.6313,93.9234,0.000784871,0.0447506,21.0296,-340.242,0.521178,0.0,0.0
626,156.25,38.8068,42.3807,152.305,99.6333,94.1657,0.000800854,0.0447444,21.0296,-340.242,0.498598,0.0,0.0
628,156.75,38.718,42.1822,148.268,99.6264,94.1794,0.000813799,0.0447322,21.0296,-340.232,0.496705,0.0,0.0
630,157.25,38.754,41.976,153.22,99.6401,94.4071,0.000826718,0.0447158,21.0296,-340.232,0.476581,0.0,0.0
632,157.75,38.7037,42.3931,150.038,99.6224,94.4512,0.000837182,0.0447298,21.0296,-340.232,0.470889,0.0,0.0
634,158.25,38.3216,41.7195,147.902,99.6313,94.2389,0.000845657,0.0447411,21.0296,-340.242,0.491549,0.0,0.0
636,158.75,38.4191,41.6339,145.605,99.6088,94.5103,0.000852523,0.0447503,21.0296,-340.242,0.464152,0.0,0.0
638,159.25,38.5404,42.1113,149.058,99.6284,94.0537,0.000839845,0.0447578,21.0296,-340.232,0.508682,0.0,0.0
640,159.75,38.8162,41.7353,143.499,99.6076,94.2185,0.000829576,0.0447423,21.0296,-340.232,0.491363,0.0,0.0
642,160.25,38.9536,41.3163,148.102,99.6184,94.1344,0.000804245,0.0447104,21.0294,-340.232,0.500211,0.0,0.0
644,160.75,38.5163,41.906,147.772,99.6048,93.9267,0.000783726,0.0446846,21.029,-340.242,0.518516,0.0,0.0
646,161.25,38.1202,41.5704,150.488,99.6124,94.3567,0.000760073,0.0446637,21.0287,-340.232,0.478842,0.0,0.0
648,161.75,37.9869,41.6769,148.17,99.5988,93.9467,0.000734584,0.0447148,21.0284,-340.232,0.516103,0.0,0.0
650,162.25,37.945,41.4685,147.076,99.6016,93.955,0.00071266,0.0447562,21.0282,-340.232,0.51557,0.0,0.0
652,162.75,38.4387,41.7734,145.034,99.5943,94.015,0.00069375,0.0448041,21.028,-340.222,0.509294,0.0,0.0
654,163.25,38.5449,41.0869,147.63,99.608,94.1378,0.000678434,0.0448558,21.0279,-340.232,0.498973,0.0,0.0
656,163.75,38.183,41.4935,146.54,99.5827,94.1765,0.000676959,0.0448977,21.0278,-340.222,0.493099,0.0,0.0
658,164.25,37.9446,41.1008,145.411,99.598,94.4179,0.000675765,0.0449316,21.0277,-340.222,0.471835,0.0,0.0
660,164.75,38.3246,41.2046,148.6,99.5867,93.7473,0.000677227,0.0449376,21.0276,-340.232,0.533804,0.0,0.0
662,165.25,38.0206,41.0429,145.188,99.5895,93.9758,0.000678412,0.044923,21.0275,-340.212,0.512545,0.0,0.0
664,165.75,37.8045,41.4253,151.063,99.5739,94.1819,0.000679372,0.0449113,21.0275,-340.232,0.491808,0.0,0.0
666,166.25,38.183,41.0338,149.735,99.5815,94.0737,0.000658287,0.0449018,21.0275,-340.232,0.502642,0.0,0.0
668,166.75,37.7677,40.9881,146.234,99.5691,94.2497,0.000641208,0.044894,21.0274,-340.222,0.48502,0.0,0.0
670,167.25,37.887,41.0226,148.003,99.5707,94.1736,0.000609166,0.0448806,21.0274,-340.212,0.492304,0.0,0.0
672,167.75,37.4516,40.5673,149.293,99.5711,94.4079,0.000583212,0.0448633,21.0274,-340.232,0.470384,0.0,0.0
674,168.25,37.7215,40.7416,146.921,99.563,94.3188,0.000556441,0.0448493,21.0274,-340.232,0.478011,0.0,0.0
676,168.75,37.7092,40.4313,145.795,99.5446,94.2835,0.000529584,0.0448243,21.0273,-340.242,0.479688,0.0,0.0
678,169.25,37.8077,40.655,150.551,99.5518,94.1948,0.00050783,0.0448041,21.0273,-340.242,0.48864,0.0,0.0
680,169.75,37.5115,40.3518,147.215,99.5546,93.7964,0.000499916,0.0448163,21.0276,-340.242,0.526329,0.0,0.0
682,170.25,37.6477,40.7468,150.138,99.551,93.933,0.000493505,0.0448521,21.0279,-340.242,0.513159,0.0,0.0
684,170.75,37.5454,40.8026,151.698,99.5414,93.8963,0.000499237,0.0448954,21.0283,-340.242,0.515749,0.0,0.0
686,171.25,37.4342,40.4905,148.155,99.5374,94.1103,0.00050388,0.0449433,21.0285,-340.262,0.495287,0.0,0.0
688,171.75,37.8345,40.2274,150.55,99.537,93.7419,0.000510068,0.0449822,21.0287,-340.242,0.5299,0.0,0.0
690,172.25,37.5336,40.6326,145.636,99.5237,94.0408,0.00051508,0.045109,21.0289,-340.242,0.500603,0.0,0.0
692,172.75,37.4889,40.1937,148.08,99.5326,94.4133,0.000519141,0.0452117,21.029,-340.252,0.466459,0.0,0.0
694,173.25,37.1493,40.4458,147.792,99.5201,94.0079,0.000535785,0.0452677,21.0291,-340.242,0.503373,0.0,0.0
696,173.75,37.4647,40.2681,150.941,99.5141,93.9559,0.000549268,0.045313,21.0292,-340.242,0.507729,0.0,0.0
698,174.25,37.2671,39.9637,147.039,99.5133,94.035,0.00058327,0.0452952,21.0293,-340.252,0.500225,0.0,0.0
700,174.75,36.8282,40.23,147.634,99.5025,93.8064,0.000610812,0.0452808,21.0294,-340.252,0.520759,0.0,0.0
702,175.25,37.1864,39.8878,149.643,99.4993,93.8722,0.00065257,0.0452405,21.0294,-340.242,0.514282,0.0,0.0
704,175.75,37.2184,40.1487,145.271,99.4876,94.169,0.000686393,0.045182,21.0294,-340.242,0.485362,0.0,0.0
706,176.25,37.0844,40.203,152.363,99.4808,94.0212,0.000727167,0.0451347,21.0292,-340.242,0.49863,0.0,0.0
708,176.75,37.015,39.6346,150.383,99.4816,94.0075,0.00074455,0.0451372,21.029,-340.252,0.499992,0.0,0.0
710,177.25,37.363,39.796,147.126,99.4583,94.0279,0.000777475,0.0451392,21.0287,-340.242,0.496009,0.0,0.0
712,177.75,37.0535,39.4703,151.836,99.4696,93.9213,0.000807026,0.0451839,21.0284,-340.252,0.507024,0.0,0.0
714,178.25,37.0196,39.6137,145.571,99.4459,93.8951,0.000827761,0.0452587,21.0282,-340.262,0.507389,0.0,0.0
716,178.75,37.0585,39.6201,149.478,99.4467,93.7794,0.000841675,0.0452649,21.028,-340.252,0.518354,0.0,0.0
718,179.25,37.2922,39.7415,149.799,99.4339,93.9837,0.000852946,0.0452699,21.0279,-340.232,0.497981,0.0,0.0
720,179.75,36.7692,39.8274,146.156,99.4314,94.2577,0.000851146,0.0452505,21.0278,-340.252,0.472059,0.0,0.0
722,180.25,36.5703,39.4082,146.52,99.4226,93.8597,0.000839853,0.0452174,21.0277,-340.252,0.508651,0.0,0.0
724,180.75,36.7127,39.3243,147.787,99.4266,93.9937,0.000818553,0.0451834,21.0276,-340.252,0.496401,0.0,0.0
726,181.25,36.6525,39.8253,146.574,99.4078,93.873,0.000790362,0.0451494,21.0276,-340.262,0.506078,0.0,0.0
728,181.75,36.889,39.8056,144.834,99.3981,94.0832,0.000767528,0.0451219,21.0277,-340.252,0.485462,0.0,0.0
730,182.25,36.0078,39.2538,151.889,99.3981,93.8539,0.000729221,0.0451411,21.0278,-340.252,0.507024,0.0,0.0
732,182.75,36.7278,38.8438,148.378,99.3789,94.1407,0.000680362,0.0451567,21.0273,-340.252,0.478358,0.0,0.0
734,183.25,36.5539,39.0252,146.952,99.3681,93.898,0.000640786,0.0451765,21.027,-340.252,0.500197,0.0,0.0
736,183.75,36.5187,39.3152,144.275,99.3624,94.1769,0.000597809,0.045199,21.0268,-340.232,0.473499,0.0,0.0
738,184.25,36.9697,39.8979,153.237,99.3456,93.6699,0.000562998,0.0452172,21.0265,-340.242,0.519687,0.0,0.0
740,184.75,36.6404,39.4229,148.51,99.3408,93.8543,0.000537226,0.045232,21.0264,-340.252,0.501885,0.0,0.0
742,185.25,36.6693,39.6311,149.012,99.3187,93.694,0.000516352,0.0452167,21.0262,-340.252,0.515019,0.0,0.0
744,185.75,36.2949,39.4157,150.334,99.3111,93.7652,0.000503084,0.0452043,21.0261,-340.262,0.507633,0.0,0.0
746,186.25,35.9814,38.5706,145.872,99.2946,93.7561,0.000487755,0.0451535,21.026,-340.232,0.507032,0.0,0.0
748,186.75,35.6359,38.6163,149.487,99.2954,93.96,0.000483632,0.0451122,21.0259,-340.252,0.487905,0.0,0.0
750,187.25,36.4127,38.5268,149.925,99.281,93.6861,0.000477794,0.0450789,21.0259,-340.252,0.51241,0.0,0.0
752,187.75,36.4566,38.8791,149.334,99.2806,94.1249,0.000473065,0.0450518,21.0258,-340.252,0.4711,0.0,0.0
754,188.25,36.4433,39.0415,147.621,99.2621,93.6253,0.000482586,0.0450514,21.0258,-340.242,0.516465,0.0,0.0
756,188.75,36.2065,38.8396,148.601,99.2605,93.9063,0.000490298,0.0450704,21.0257,-340.242,0.48985,0.0,0.0
758,189.25,36.5251,38.9837,147.876,99.2292,93.9862,0.000509376,0.0450853,21.0257,-340.242,0.479548,0.0,0.0
760,189.75,36.6371,38.6082,147.958,99.2332,93.7065,0.000536378,0.0450847,21.0257,-340.242,0.506238,0.0,0.0
762,190.25,35.5527,38.0788,147.782,99.2128,93.8822,0.000562086,0.0450838,21.0256,-340.252,0.487871,0.0,0.0
764,190.75,36.0496,38.3096,148.246,99.2108,93.5733,0.000586363,0.0451239,21.0254,-340.252,0.516803,0.0,0.0
766,191.25,36.4037,38.941,146.984,99.1815,93.7723,0.000604109,0.0451564,21.0253,-340.242,0.49543,0.0,0.0
768,191.75,35.9406,38.813,148.803,99.1931,93.7369,0.000616756,0.0452236,21.0252,-340.252,0.499801,0.0,0.0
770,192.25,36.1439,38.4269,147.571,99.1474,93.6778,0.00062636,0.045278,21.0251,-340.262,0.501299,0.0,0.0
772,192.75,36.2288,38.6802,148.844,99.1638,93.5841,0.000633565,0.0453288,21.025,-340.252,0.511601,0.0,0.0
774,193.25,36.3886,38.8431,147.721,99.1293,93.6033,0.0006394,0.0453762,21.025,-340.252,0.506719,0.0,0.0
776,193.75,36.0866,38.5414,149.19,99.1321,93.5275,0.000662354,0.0454145,21.0249,-340.252,0.514122,0.0,0.0
778,194.25,36.3643,38.5802,148.267,99.1036,93.4751,0.000680947,0.0454455,21.0249,-340.252,0.516538,0.0,0.0
780,194.75,36.1828,38.7226,146.935,99.1101,94.0524,0.000704964,0.045485,21.0249,-340.252,0.462715,0.0,0.0
782,195.25,35.6891,38.1873,149.67,99.0924,93.3589,0.00073248,0.0455299,21.0249,-340.272,0.52652,0.0,0.0
784,195.75,35.5583,38.1103,148.201,99.0856,93.453,0.000758609,0.0455663,21.0248,-340.272,0.517015,0.0,0.0
786,196.25,35.8823,38.9057,146.12,99.0575,93.4813,0.000771567,0.0455412,21.0248,-340.252,0.511836,0.0,0.0
788,196.75,35.9569,38.2392,148.828,99.0655,93.7552,0.000792446,0.045521,21.0248,-340.242,0.486705,0.0,0.0
790,197.25,36.2491,38.1804,146.289,99.0362,93.2886,0.000808205,0.0455045,21.0248,-340.242,0.52817,0.0,0.0
792,197.75,36.2445,38.4785,147.952,99.0346,93.7173,0.00081649,0.0454912,21.0248,-340.252,0.487519,0.0,0.0
794,198.25,36.3028,38.2908,149.283,99.0102,93.4663,0.000819169,0.0454805,21.0248,-340.242,0.509028,0.0,0.0
796,198.75,36.4221,38.5292,147.484,99.0098,93.8539,0.000808544,0.0454853,21.0248,-340.242,0.472439,0.0,0.0
798,199.25,36.0042,38.2209,146.194,98.9801,93.4867,0.000788423,0.0454874,21.0248,-340.252,0.504416,0.0,0.0
800,199.75,35.8215,38.4144,149.606,98.97,93.3473,0.000772125,0.0454774,21.0248,-340.252,0.516706,0.0,0.0
802,200.25,35.6635,38.6455,145.756,98.9468,93.6258,0.000732083,0.0454406,21.0248,-340.262,0.488313,0.0,0.0
804,200.75,36.1023,38.2023,148.555,98.9391,93.4126,0.000675494,0.0453849,21.0248,-340.272,0.507766,0.0,0.0
806,201.25,35.7145,38.2238,150.157,98.9147,93.4409,0.000614336,0.0453471,21.0248,-340.262,0.502904,0.0,0.0
808,201.75,36.2689,38.2659,147.877,98.9107,93.637,0.00055101,0.0453228,21.0248,-340.252,0.484029,0.0,0.0
810,202.25,35.7938,38.1583,148.636,98.881,93.5637,0.000499716,0.0453032,21.0248,-340.252,0.488292,0.0,0.0
812,202.75,36.0049,38.1143,145.701,98.883,93.6591,0.000449683,0.0453281,21.0243,-340.262,0.479474,0.0,0.0
814,203.25,35.8335,38.1637,146.144,98.8481,93.4218,0.000409156,0.0453484,21.024,-340.262,0.498764,0.0,0.0
816,203.75,35.899,38.5617,144.045,98.8485,93.5042,0.000387239,0.0453647,21.0237,-340.262,0.49101,0.0,0.0
818,204.25,36.2683,38.307,146.698,98.83,93.4205,0.000369486,0.045378,21.0234,-340.262,0.497269,0.0,0.0
820,204.75,35.8489,37.9821,147.655,98.8116,93.4001,,0.0453887,,-340.272,0.497547,0.0,0.0
822,205.25,36.0038,37.9519,150.229,98.7943,93.5234,,0.0453838,,-340.252,0.484359,0.0,0.0
824,205.75,35.4008,37.687,150.123,98.765,93.2624,,0.0453798,,-340.252,0.506428,0.0,0.0
826,206.25,35.8767,38.0262,149.212,98.7518,93.0655,,0.0453766,,-340.262,0.523913,0.0,0.0
828,206.75,35.6599,37.8501,145.563,98.7377,93.3577,,0.045374,,-340.272,0.494961,0.0,0.0
830,207.25,35.4799,38.1511,149.702,98.7209,93.5983,,0.0453719,,-340.262,0.470715,0.0,0.0
832,207.75,35.9997,38.2254,146.267,98.7,93.232,,,,-340.262,0.503491,0.0,0.0
834,208.25,35.9369,38.2655,150.548,98.686,93.1508,,,,-340.252,0.509928,0.0,0.0
836,208.75,36.0332,37.6098,151.406,98.6739,93.0047,,,,-340.262,0.522717,0.0,0.0
838,209.25,35.4739,37.9048,144.731,98.6479,93.2449,,,,-340.262,0.497598,0.0,0.0
840,209.75,35.5311,37.8484,150.292,98.6451,93.1903,,,,-340.262,0.502515,0.0,0.0
842,210.25,35.4784,37.9225,147.929,98.6294,93.244,,,,-340.262,0.496024,0.0,0.0
844,210.75,35.706,37.4545,150.383,98.6097,93.3181,,,,-340.252,0.487246,0.0,0.0
846,211.25,35.9677,37.586,148.552,98.6073,93.0089,,,,-340.252,0.516357,0.0,0.0
848,211.75,35.6087,37.5411,149.132,98.5784,93.498,,,,-340.262,0.467435,0.0,0.0
850,212.25,35.6091,37.8207,146.446,98.5724,93.0734,,,,-340.262,0.507103,0.0,0.0
852,212.75,35.7861,37.4899,148.593,98.5508,93.2028,,,,-340.252,0.492882,0.0,0.0
854,213.25,35.8345,37.5712,150.992,98.5463,93.0501,,,,-340.262,0.50698,0.0,0.0
856,213.75,35.3237,37.6815,149.939,98.5271,92.9926,,,,-340.272,0.510708,0.0,0.0
858,214.25,35.5141,37.4061,146.291,98.5191,93.1512,,,,-340.262,0.494935,0.0,0.0
860,214.75,35.3935,37.3931,149.407,98.4813,93.2545,,,,-340.242,0.481767,0.0,0.0
862,215.25,35.7427,37.275,146.012,98.4729,93.3881,,,,-340.242,0.468363,0.0,0.0