File: 01_Data/XPS_Foam_Board/Cone/XPS_Foam_Insulation_Cone_HF25Scan_220412_R3.csv
Names,Time,Stack TC,Smoke TC,Exh Press,Smoke Comp,Smoke Meas,CO Meter,CO2 Meter,O2 Meter,Sample Mass,Ext Coeff,Start Test,Flame Verif
Chan Gain,,500,500,1,1,1,1,1,1,1,1,1.0,1.0
Offset,,0,0,0.134314,0,0,0,0,0,0,0,0.0,0.0
Gain,,1,1,25.011,13.1473,13.6402,1,1,1,1.00092,1.00708,1.0,1.0
Units,sec,C,C,Pa,%,%,%,%,%,g,/m,,
Baseline,,19.6463,20.1164,155.668,99.2821,94.5091,0.000742566,0.0468504,21.0223,-833.86,0.435262,,
4,0.75,18.6703,19.3402,154.396,99.5037,94.7364,0.000705129,0.0673375,21,-328.06,0.433722,0.0,0.0
8,1.75,19.0599,19.2771,154.171,99.5157,94.6419,0.000677687,0.0666872,21.0008,-328.04,0.443607,0.0,0.0
12,2.75,18.916,19.2273,152.936,99.5145,94.5336,0.000653756,0.0659317,21.0017,-328.05,0.453608,0.0,0.0
16,3.75,18.8157,19.0268,156.602,99.5117,94.3896,0.000649715,0.0654984,21.0023,-328.06,0.466827,0.0,0.0
20,4.75,18.8886,18.5879,157.986,99.5113,94.4233,0.000658831,0.0653391,21.0027,-328.08,0.463636,0.0,0.0
24,5.75,18.3779,19.2513,159.276,99.5073,94.9674,0.000672914,0.0653226,21.0029,-328.1,0.412526,0.0,0.0
28,6.75,18.611,19.1638,153.517,99.5029,94.2889,0.000679494,0.0652373,21.0031,-328.141,0.475477,0.0,0.0
32,7.75,18.7911,19.0357,158.286,99.5081,94.2218,0.000680859,0.0649082,21.0032,-328.141,0.482222,0.0,0.0
36,8.75,18.4812,19.2209,158.088,99.4956,94.6781,0.000653173,0.0643448,21.0039,-328.16,0.438445,0.0,0.0
40,9.75,18.7135,19.1828,156.678,99.4896,94.169,0.000641603,0.0634541,21.0058,-328.171,0.485541,0.0,0.0
44,10.75,18.87,19.4622,154.594,99.4824,94.333,0.000645004,0.0624177,21.0073,-328.191,0.469527,0.0,0.0
48,11.75,19.2087,19.3165,153.794,99.4956,94.1544,0.000640639,0.06117,21.0096,-328.211,0.487442,0.0,0.0
52,12.75,19.0149,19.7195,153.872,99.4788,94.2235,0.000615796,0.0597083,21.0121,-328.211,0.479464,0.0,0.0
56,13.75,19.0619,19.5736,157.683,99.482,94.7801,0.000570932,0.0582368,21.0145,-328.231,0.427723,0.0,0.0
60,14.75,18.9334,19.6896,155.021,99.4728,93.903,0.000547736,0.0566336,21.0159,-328.261,0.509033,0.0,0.0
64,15.75,19.1304,19.3794,151.311,99.4684,93.776,0.000530671,0.0551445,21.0172,-328.281,0.520593,0.0,0.0
68,16.75,18.8237,19.589,156.674,99.4643,94.3738,0.00053925,0.0540017,21.0182,-328.271,0.464104,0.0,0.0
72,17.75,19.1503,19.2111,155.406,99.4611,94.1278,0.00056466,0.053002,21.0197,-328.271,0.486877,0.0,0.0
76,18.75,18.9661,19.3791,154.627,99.4523,93.6387,0.000596923,0.0518999,21.0213,-328.221,0.532117,0.0,0.0
80,19.75,19.3467,19.8781,156.967,99.4463,94.0424,0.000634416,0.0509787,21.0223,-328.271,0.493571,0.0,0.0
84,20.75,18.605,19.7316,152.857,99.4495,93.9176,0.000667395,0.0502618,21.023,-328.261,0.505594,0.0,0.0
88,21.75,19.3528,19.4059,156.785,99.4455,94.0129,0.000701514,0.0497076,21.0232,-328.271,0.496277,0.0,0.0
92,22.75,18.8461,19.4504,154.863,99.4379,93.9767,0.000739504,0.0492596,21.0228,-328.281,0.499003,0.0,0.0
96,23.75,19.2283,20.1072,152.971,99.4503,93.853,0.000772096,0.0489307,21.0225,-328.281,0.511737,0.0,0.0
100,24.75,19.4076,19.9237,156.271,99.4379,93.7419,0.000791888,0.0486876,21.0223,-328.281,0.5211,0.0,0.0
104,25.75,19.437,19.8075,156.266,99.4198,93.8801,0.00079675,0.048506,21.0222,-328.281,0.506482,0.0,0.0
108,26.75,19.0077,19.7333,159.408,99.4198,94.3388,0.000790153,0.0483797,21.0224,-328.291,0.463422,0.0,0.0
112,27.75,19.1391,19.1968,154.858,99.4058,93.8647,0.000780671,0.0482295,21.0225,-328.291,0.506683,0.0,0.0
116,28.75,19.1507,19.427,157.129,99.4098,94.3559,0.000774992,0.0479951,21.023,-328.291,0.460932,0.0,0.0
120,29.75,19.4963,19.97,156.129,99.4006,93.7186,0.00077414,0.0478062,21.0238,-328.301,0.519981,0.0,0.0
124,30.75,19.0742,19.941,151.572,99.3841,93.9542,0.000793385,0.0476084,21.0242,-328.301,0.496338,0.0,0.0
128,31.75,19.3515,19.8373,153.074,99.3825,93.4976,0.000810413,0.0474672,21.0245,-328.301,0.539236,0.0,0.0
132,32.75,19.2395,19.7785,154.075,99.3825,93.2553,0.00080838,0.0472684,21.0247,-328.301,0.562156,0.0,0.0
136,33.75,19.1785,19.889,156.659,99.3713,93.9517,0.000791645,0.0470284,21.0249,-328.301,0.495432,0.0,0.0
140,34.75,19.5562,19.8431,155.081,99.3628,93.6382,0.000782399,0.0468131,21.025,-328.311,0.524205,0.0,0.0
144,35.75,19.197,19.8331,154.907,99.3532,93.9205,0.000780047,0.0466335,21.0256,-328.311,0.496762,0.0,0.0
148,36.75,19.4089,19.7231,162.526,99.3436,93.9613,0.00077747,0.0464937,21.0261,-328.321,0.492071,0.0,0.0
152,37.75,19.5147,19.8001,155.961,99.3492,94.1049,0.000739234,0.0464019,21.0263,-328.331,0.479078,0.0,0.0
156,38.75,19.2241,19.7495,154.861,99.3384,93.3161,0.000665509,0.0463664,21.0264,-328.331,0.552477,0.0,0.0
160,39.75,19.7676,20.0848,152.697,99.3223,93.2903,0.000585339,0.0463418,21.0264,-328.341,0.553493,0.0,0.0
164,40.75,19.497,20.1451,155.246,99.3103,93.1317,0.000538207,0.0463256,21.0265,-328.331,0.567454,0.0,0.0
168,41.75,20.2112,20.0185,157.517,99.299,93.2486,0.000524419,0.046315,21.0265,-328.321,0.555366,0.0,0.0
172,42.75,19.6012,19.958,154.909,99.2926,93.6403,0.000551741,0.0462692,21.0265,-328.331,0.517764,0.0,0.0
176,43.75,19.2422,19.6688,154.239,99.2822,93.339,0.00057945,0.0462287,21.0266,-328.341,0.545313,0.0,0.0
180,44.75,19.49,20.0016,155.603,99.2802,93.3618,0.000600952,0.0462021,21.0268,-328.341,0.542969,0.0,0.0
184,45.75,19.1891,19.2848,156.52,99.2758,93.6149,0.00059635,0.0461918,21.0272,-328.341,0.51866,0.0,0.0
188,46.75,19.2106,19.5415,155.845,99.2529,93.3631,0.000544994,0.0462026,21.0274,-328.341,0.540422,0.0,0.0
192,47.75,19.4669,19.6233,155.481,99.2429,93.6154,0.000504711,0.046196,21.0276,-328.341,0.515693,0.0,0.0
196,48.75,19.5043,19.9339,153.472,99.232,93.4293,0.00050464,0.0461398,21.0277,-328.351,0.532304,0.0,0.0
200,49.75,19.4382,19.8784,155.329,99.2184,93.4293,0.000524406,0.0460835,21.0278,-328.361,0.53109,0.0,0.0
204,50.75,19.3989,19.5978,155.387,99.2068,92.9964,0.000592099,0.0460848,21.0272,-328.361,0.571083,0.0,0.0
208,51.75,19.4786,20.1282,155.099,99.1955,93.1046,0.00066043,0.0460933,21.0266,-328.361,0.559807,0.0,0.0
212,52.75,19.0597,20.2392,154.871,99.1811,93.3194,0.000737073,0.046064,21.0263,-328.371,0.538164,0.0,0.0
216,53.75,19.2223,19.7749,151.775,99.1747,93.2869,0.000823791,0.0460447,21.026,-328.371,0.540667,0.0,0.0
220,54.75,19.7324,19.8842,155.76,99.1694,93.5533,0.000902917,0.0459828,21.0259,-328.371,0.515009,0.0,0.0
224,55.75,19.5751,19.7633,154.125,99.1526,93.3773,0.00095952,0.0459616,21.0258,-328.371,0.530151,0.0,0.0
228,56.75,19.7825,19.954,155.878,99.1478,93.1221,0.000974089,0.0459918,21.0257,-328.391,0.553895,0.0,0.0
232,57.75,19.5305,20.3091,153.693,99.1442,93.4168,0.00095502,0.0460414,21.0257,-328.381,0.52566,0.0,0.0
236,58.75,18.968,19.7497,153.694,99.1297,93.3011,0.000913892,0.0461065,21.0256,-328.381,0.535323,0.0,0.0
240,59.75,19.443,20.2504,160.393,99.1369,93.3082,0.000846816,0.0461713,21.0256,-328.391,0.535296,0.0,0.0
244,60.75,20.3507,20.2065,153.491,99.1225,93.4264,0.000752177,0.0462384,21.0256,-328.401,0.522823,0.0,0.0
248,61.75,19.2515,20.1683,150.918,99.0984,93.2386,0.000665327,0.0462085,21.0256,-328.401,0.538448,0.0,0.0
252,62.75,19.0869,20.1373,155.396,99.104,92.8998,0.000603429,0.0461889,21.0256,-328.401,0.57111,0.0,0.0
256,63.75,19.2992,19.9989,154.035,99.078,92.7862,0.000576001,0.0461566,21.0256,-328.401,0.579598,0.0,0.0
260,64.75,19.6882,20.1254,153.775,99.0687,92.8636,0.00059097,0.0460718,21.0256,-328.401,0.571406,0.0,0.0
264,65.75,19.3443,19.2593,155.155,99.0563,93.2553,0.000664572,0.04602,21.0256,-328.401,0.533113,0.0,0.0
268,66.75,19.1034,20.2494,154.937,99.0515,93.4876,0.000737192,0.0459912,21.0256,-328.411,0.510708,0.0,0.0
272,67.75,19.6099,20.0743,155.93,99.0443,93.2224,0.000844178,0.0459587,21.0266,-328.411,0.535156,0.0,0.0
276,68.75,19.8211,20.3477,160.136,99.0334,93.1928,0.000912169,0.0459264,21.0268,-328.421,0.53699,0.0,0.0
280,69.75,19.6052,20.5581,160.047,99.0166,93.264,0.000932547,0.0459051,21.0275,-328.421,0.528743,0.0,0.0
284,70.75,20.1454,20.191,159.088,99.0166,93.2961,0.000938617,0.045864,21.0278,-328.421,0.525706,0.0,0.0
288,71.75,19.2012,19.7235,155.143,98.9933,92.9976,0.00094642,0.0457604,21.0277,-328.431,0.551936,0.0,0.0
292,72.75,18.9606,20.1387,156.32,98.9869,92.961,0.000968392,0.0456412,21.0282,-328.441,0.554845,0.0,0.0
296,73.75,19.8266,20.2212,153.436,98.9777,92.255,0.00101929,0.0455454,21.0286,-328.441,0.621365,0.0,0.0
300,74.75,19.6256,20.1584,158.831,98.9672,92.9223,0.00106773,0.0454438,21.0288,-328.451,0.556769,0.0,0.0
304,75.75,19.9613,20.6122,153.324,98.962,93.0055,0.00110092,0.0453667,21.0289,-328.451,0.548392,0.0,0.0
308,76.75,19.6191,20.4764,158.665,98.9548,93.0688,0.00110706,0.0452578,21.029,-328.461,0.54174,0.0,0.0
312,77.75,19.5478,20.6632,153.847,98.9359,92.9672,0.0010612,0.0451318,21.0291,-328.451,0.549701,0.0,0.0
316,78.75,20.3797,20.4646,151.56,98.9327,92.8611,0.000960306,0.045097,21.0291,-328.461,0.559507,0.0,0.0
320,79.75,19.7043,19.7073,153.118,98.9099,92.5626,0.000836708,0.0450898,21.0292,-328.461,0.585904,0.0,0.0
324,80.75,19.7137,19.6955,153.791,98.8986,92.9701,0.000715642,0.0450851,21.0292,-328.461,0.546093,0.0,0.0
328,81.75,19.4027,20.2617,154.871,98.8942,92.7553,0.000600306,0.0451313,21.0292,-328.461,0.566132,0.0,0.0
332,82.75,19.4297,20.4738,154.129,98.8766,92.8582,0.000517487,0.0452849,21.0292,-328.471,0.554767,0.0,0.0
336,83.75,20.1418,20.1479,156.125,98.8822,93.2137,0.000464706,0.0453468,21.0292,-328.491,0.521514,0.0,0.0
340,84.75,19.9231,20.2464,155.01,98.8585,92.9085,0.000431806,0.0453187,21.0292,-328.481,0.548363,0.0,0.0
344,85.75,19.9373,20.2666,151.408,98.8433,92.7932,0.000405497,0.045271,21.0292,-328.501,0.557972,0.0,0.0
348,86.75,19.58,20.5755,154.561,98.8276,93.1096,0.00039376,0.0452559,21.0292,-328.501,0.526506,0.0,0.0
352,87.75,19.6074,20.1598,154.768,98.8015,92.5622,0.000403493,0.0452537,21.0292,-328.501,0.576264,0.0,0.0
356,88.75,19.7443,19.8824,154.029,98.8019,92.5239,0.000416495,0.0452029,21.0292,-328.491,0.579954,0.0,0.0
360,89.75,19.6129,20.4596,156.837,98.7791,92.6513,0.000426992,0.0451347,21.0292,-328.511,0.565756,0.0,0.0
364,90.75,19.5903,20.3672,157.297,98.7702,92.1996,0.000389967,0.0451146,21.03,-328.511,0.608135,0.0,0.0
368,91.75,19.622,20.0652,153.436,98.755,92.1713,0.000349915,0.0450767,21.0305,-328.521,0.609484,0.0,0.0
372,92.75,19.5784,20.6541,155.417,98.7466,92.4702,0.000318144,0.0450655,21.0309,-328.521,0.580131,0.0,0.0
376,93.75,19.9671,20.0642,154.226,98.7369,92.8411,0.000312125,0.0450978,21.0311,-328.531,0.543907,0.0,0.0
380,94.75,19.5692,20.4266,155.591,98.7173,91.763,0.000340823,0.045189,21.0312,-328.531,0.645335,0.0,0.0
384,95.75,19.7219,20.3502,153.961,98.6968,92.1543,0.000412838,0.0451995,21.0313,-328.541,0.605914,0.0,0.0
388,96.75,19.4626,20.0652,162.17,98.6832,91.8941,0.000501546,0.0451675,21.0314,-328.541,0.629668,0.0,0.0
392,97.75,19.87,20.3996,154.834,98.6607,92.0498,0.000608102,0.0451361,21.0314,-328.561,0.612703,0.0,0.0
396,98.75,19.6572,20.0548,155.417,98.6675,92.2517,0.00077711,0.0450961,21.0315,-328.571,0.593959,0.0,0.0
400,99.75,19.9811,20.7609,155.152,98.6515,91.3588,0.000914052,0.045084,21.0315,-328.571,0.678441,0.0,0.0
404,100.75,20.1486,20.2852,155.342,98.6354,91.6431,0.000998748,0.0450813,21.0315,-328.571,0.649556,0.0,0.0
408,101.75,19.3958,20.8148,157.843,98.6202,91.7692,0.00101631,0.0450652,21.0315,-328.581,0.63604,0.0,0.0
412,102.75,19.6671,20.3302,155.768,98.6045,91.9549,0.000992948,0.0450268,21.0315,-328.581,0.616785,0.0,0.0
416,103.75,20.1503,20.8982,155.427,98.5889,91.4545,0.000932641,0.0450263,21.0313,-328.581,0.663582,0.0,0.0
420,104.75,19.7347,20.3159,151,98.5881,91.8987,0.000871832,0.0450435,21.0306,-328.591,0.620711,0.0,0.0
424,105.75,20.2777,20.3672,151.479,98.5768,91.9761,0.000789665,0.0450793,21.0309,-328.591,0.612265,0.0,0.0
428,106.75,19.7673,20.6868,154.162,98.562,91.6681,0.000720804,0.0450783,21.0303,-328.611,0.64057,0.0,0.0
432,107.75,20.1026,20.268,155.803,98.5508,92.0498,0.000684215,0.0450581,21.0299,-328.611,0.602854,0.0,0.0
436,108.75,19.6574,20.994,156.673,98.5455,91.9869,0.000677359,0.0450533,21.0297,-328.621,0.60842,0.0,0.0
440,109.75,20.1729,20.3596,152.115,98.5251,91.9241,0.000705851,0.0450417,21.0295,-328.611,0.612625,0.0,0.0
444,110.75,19.766,19.8206,151.13,98.5183,91.4587,0.000739946,0.0449881,21.0294,-328.631,0.656851,0.0,0.0
448,111.75,20.2484,20.6262,156.801,98.495,91.8812,0.000770826,0.0449392,21.0293,-328.641,0.614047,0.0,0.0
452,112.75,20.2832,20.7474,156.092,98.5034,91.9686,0.00079798,0.0449532,21.0293,-328.631,0.606402,0.0,0.0
456,113.75,19.9882,20.8226,154.837,98.4681,91.3617,0.000833143,0.0450027,21.0293,-328.641,0.661725,0.0,0.0
460,114.75,20.5678,20.4464,155.473,98.4613,91.2302,0.000857411,0.0450526,21.0297,-328.661,0.673842,0.0,0.0
464,115.75,19.3278,20.5085,156.267,98.4525,91.4978,0.00086546,0.0450997,21.0303,-328.651,0.647169,0.0,0.0
468,116.75,19.7062,19.8291,154.072,98.4621,91.1935,0.000858469,0.0451655,21.0307,-328.661,0.677461,0.0,0.0
472,117.75,19.7819,20.178,156.613,98.4392,91.4508,0.00085455,0.0451872,21.031,-328.671,0.650525,0.0,0.0
476,118.75,20.1076,20.5658,157.811,98.4364,91.5873,0.000856752,0.0451777,21.0312,-328.671,0.637093,0.0,0.0
480,119.75,20.2644,20.7089,155.512,98.4156,91.236,0.000870125,0.0452414,21.0313,-328.671,0.669173,0.0,0.0
484,120.75,20.3071,20.7379,153.609,98.4059,90.3839,0.000882583,0.0452831,21.0306,-328.681,0.751201,0.0,0.0
488,121.75,19.9724,20.2653,153.249,98.3979,90.8139,0.000875552,0.0452859,21.0309,-328.701,0.708552,0.0,0.0
492,122.75,20.2163,21.0445,153.762,98.3827,91.4499,0.000836934,0.0452469,21.0311,-328.711,0.645527,0.0,0.0
496,123.75,20.6072,20.5284,157.509,98.3718,91.7784,0.000781955,0.0452426,21.0306,-328.721,0.612884,0.0,0.0
500,124.75,20.5652,20.5591,154.037,98.3654,91.1303,0.000701921,0.0453521,21.0301,-328.731,0.674913,0.0,0.0
504,125.75,20.1347,20.4033,155.1,98.3602,90.7897,0.00064334,0.0454926,21.0298,-328.721,0.707515,0.0,0.0
508,126.75,19.265,20.4578,156.262,98.3425,91.1336,0.000618201,0.0455816,21.0296,-328.731,0.672537,0.0,0.0
512,127.75,20.0257,21.0601,154.662,98.3309,90.9105,0.000643187,0.0456193,21.0295,-328.741,0.693146,0.0,0.0
516,128.75,20.1128,20.7802,154.625,98.3205,91.2522,0.000695818,0.045679,21.0294,-328.751,0.659061,0.0,0.0
520,129.75,20.0887,20.3967,156.052,98.316,91.1906,0.000736087,0.0457428,21.0293,-328.761,0.664631,0.0,0.0
524,130.75,19.96,20.9386,156.935,98.3068,91.7517,0.000742233,0.0456861,21.0293,-328.761,0.60961,0.0,0.0
528,131.75,20.3118,20.7503,154.528,98.3132,91.0174,0.000708829,0.0456489,21.03,-328.771,0.68117,0.0,0.0
532,132.75,20.3907,21.2022,152.575,98.3072,90.9109,0.00062804,0.0456633,21.0306,-328.781,0.690978,0.0,0.0
536,133.75,19.6528,20.6573,155.836,98.296,91.462,0.000540165,0.0457415,21.0304,-328.781,0.636574,0.0,0.0
540,134.75,20.2207,20.289,156.704,98.2868,90.4443,0.000471326,0.0458085,21.03,-328.771,0.7346,0.0,0.0
544,135.75,19.9213,21.05,153.368,98.2767,90.7265,0.000421249,0.0458525,21.0304,-328.801,0.706175,0.0,0.0
548,136.75,20.6134,20.7864,151.967,98.2763,91.0624,0.000375226,0.0458813,21.03,-328.791,0.673491,0.0,0.0
552,137.75,20.3978,20.686,155.162,98.2651,90.3331,0.000356004,0.0460728,21.0295,-328.801,0.743515,0.0,0.0
556,138.75,20.2385,20.7527,154.479,98.2615,91.5274,0.000354366,0.046263,21.0292,-328.811,0.627163,0.0,0.0
560,139.75,20.3287,20.7899,153.13,98.2599,91.2539,0.000361783,0.0465954,21.0285,-328.821,0.653455,0.0,0.0
564,140.75,20.4115,20.8923,155.358,98.2474,91.0199,0.000381829,0.0469862,21.0277,-328.811,0.675013,0.0,0.0
568,141.75,20.4607,20.8369,155.404,98.239,90.3764,0.000422896,0.0473794,21.0272,-328.821,0.736937,0.0,0.0
572,142.75,20.2192,20.5454,155.171,98.2282,90.751,0.000476848,0.0476724,21.0269,-328.841,0.699419,0.0,0.0
576,143.75,20.237,21.1758,154.344,98.2254,90.7094,0.000542742,0.0478646,21.0266,-328.861,0.70322,0.0,0.0
580,144.75,20.1761,20.5842,154.694,98.2157,90.699,0.00061093,0.0479324,21.0265,-328.861,0.703367,0.0,0.0
584,145.75,20.3667,20.9917,154.607,98.2093,90.5213,0.000690873,0.0478251,21.0264,-328.881,0.720118,0.0,0.0
588,146.75,20.5831,21.1701,154.571,98.1913,90.8763,0.000743323,0.0476364,21.0263,-328.881,0.68391,0.0,0.0
592,147.75,20.4312,20.4463,154.939,98.1792,90.7935,0.000749994,0.0473918,21.0263,-328.891,0.690884,0.0,0.0
596,148.75,20.3006,20.2687,152.841,98.1792,90.0072,0.000727468,0.0471728,21.0263,-328.901,0.767724,0.0,0.0
600,149.75,20.3206,20.7392,151.421,98.1716,90.7602,0.000684799,0.0469942,21.0263,-328.911,0.693439,0.0,0.0
604,150.75,20.1192,20.5455,156.786,98.156,90.699,0.000645752,0.046803,21.0262,-328.921,0.697988,0.0,0.0
608,151.75,20.3246,20.5521,153.474,98.1475,89.5622,0.000622985,0.0465789,21.0265,-328.921,0.808655,0.0,0.0
612,152.75,20.1511,21.463,157.088,98.16,90.8355,0.0006174,0.0464565,21.0272,-328.921,0.68506,0.0,0.0
616,153.75,20.0373,21.0354,152.908,98.1186,90.7594,0.000626926,0.046327,21.0277,-328.941,0.688752,0.0,0.0
620,154.75,20.2244,20.7446,154.789,98.111,89.5276,0.000615589,0.0462419,21.0273,-328.951,0.808776,0.0,0.0
624,155.75,20.3078,20.7294,156.509,98.0982,90.587,0.000578715,0.0461998,21.0269,-328.961,0.7037,0.0,0.0
628,156.75,20.6034,20.9416,154.81,98.0797,90.8185,0.000550065,0.0461975,21.0267,-328.981,0.679496,0.0,0.0
632,157.75,20.5213,21.0885,157.233,98.0757,90.3289,0.00059976,0.0463959,21.0265,-328.981,0.72688,0.0,0.0
636,158.75,20.3776,21.1284,150.969,98.0637,90.0838,0.000772459,0.0479491,21.0248,-328.991,0.749806,0.0,0.0
640,159.75,20.0671,20.5615,157.802,98.0492,89.444,0.00118313,0.0536859,21.0201,-329.071,0.811471,0.0,0.0
644,160.75,20.4188,21.0952,154.861,98.0504,90.5954,0.00214969,0.0628843,21.0095,-329.071,0.698587,0.0,1.0
648,161.75,20.6737,21.1392,151.521,98.0252,84.8084,0.0035558,0.0857906,20.9889,-329.131,1.27942,0.0,1.0
652,162.75,20.5096,21.2131,145.331,98.0151,70.4569,0.00529295,0.113734,20.9422,-329.161,2.9163,0.0,1.0
656,163.75,20.898,21.2634,143.541,98.0075,56.6873,0.0078072,0.162504,20.8765,-329.252,4.83658,0.0,1.0
660,164.75,20.7668,21.4884,140.072,98.0003,49.8959,0.0101701,0.21891,20.7687,-329.442,5.96324,0.0,1.0
664,165.75,21.664,21.7019,129.455,97.975,51.5556,0.0125985,0.276365,20.6653,-329.652,5.67191,0.0,0.0
668,166.75,21.9989,22.4788,139.245,97.9674,62.1404,0.0147034,0.332148,20.583,-329.722,4.0216,0.0,0.0
672,167.75,23.1055,22.8301,126.998,97.9529,54.1127,0.0165534,0.373526,20.5242,-329.862,5.24228,0.0,0.0
676,168.75,23.3439,24.3476,140.523,97.9365,64.2379,0.0183142,0.404759,20.4782,-329.952,3.72554,0.0,0.0
680,169.75,24.2629,25.0305,138.204,97.9249,60.2788,0.02002,0.429687,20.4389,-330.042,4.28645,0.0,0.0
684,170.75,25.4261,24.6515,131.901,97.9144,60.4295,0.0217675,0.452738,20.3945,-330.162,4.26345,0.0,0.0
688,171.75,26.3737,26.0252,134.733,97.894,53.5016,0.0236116,0.480584,20.3478,-330.272,5.33728,0.0,0.0
692,172.75,27.0516,26.7049,134.091,97.8727,54.0865,0.0254493,0.512267,20.2938,-330.483,5.23932,0.0,0.0
696,173.75,27.9205,27.8738,135.965,97.8607,52.0343,0.0273363,0.548501,20.2403,-330.603,5.57994,0.0,0.0
700,174.75,29.528,28.6659,129.776,97.8418,47.0857,0.0294978,0.583382,20.1821,-330.713,6.46105,0.0,0.0
704,175.75,30.1559,30.3182,124.105,97.8266,46.0214,0.031415,0.623903,20.1167,-330.923,6.66166,0.0,0.0
708,176.75,31.2458,31.5836,130.795,97.8217,47.8758,0.0334086,0.663656,20.0562,-331.073,6.31224,0.0,0.0
712,177.75,32.6224,32.5669,119.059,97.8081,48.1576,0.0351551,0.701376,19.9941,-331.233,6.25916,0.0,0.0
716,178.75,34.1041,34.1011,120.971,97.7876,47.1665,0.0365762,0.737265,19.9405,-331.373,6.44102,0.0,0.0
720,179.75,35.0803,35.6875,118.826,97.7768,45.228,0.0376768,0.766072,19.8956,-331.544,6.81079,0.0,0.0
724,180.75,36.5327,37.1288,124.396,97.7591,48.8261,0.0384513,0.790031,19.864,-331.714,6.13295,0.0,0.0
728,181.75,37.9824,38.5031,117.378,97.7559,46.0193,0.0390018,0.809614,19.8396,-331.854,6.65568,0.0,0.0
732,182.75,39.1426,39.5688,122.219,97.7411,49.4268,0.0393692,0.824157,19.8242,-332.054,6.0233,0.0,0.0
736,183.75,40.2641,40.8699,128.859,97.725,50.2635,0.0395705,0.83344,19.8154,-332.184,5.87356,0.0,0.0
740,184.75,41.8377,42.4339,130.615,97.7106,49.5725,0.0396043,0.838129,19.811,-332.334,5.99454,0.0,0.0
744,185.75,42.8231,44.0767,119.995,97.7078,44.9869,0.0395015,0.837785,19.8179,-332.454,6.85176,0.0,0.0
748,186.75,43.824,44.7383,128.137,97.6954,46.7777,0.0391969,0.830118,19.8322,-332.615,6.5058,0.0,0.0
752,187.75,44.782,45.832,117.393,97.6785,51.3354,0.0388718,0.819145,19.8478,-332.785,5.68294,0.0,0.0
756,188.75,45.5738,46.826,124.962,97.6721,49.1154,0.0383088,0.808469,19.8619,-332.855,6.07289,0.0,0.0
760,189.75,46.9234,48.0887,126.83,97.6604,46.4946,0.0376537,0.796616,19.8771,-333.035,6.55626,0.0,0.0
764,190.75,47.7735,48.7828,129.877,97.6588,50.4725,0.0368486,0.78285,19.8979,-333.195,5.83092,0.0,0.0
768,191.75,48.7787,50.2957,131.156,97.652,52.4651,0.0359264,0.766133,19.9256,-333.315,5.48825,0.0,0.0
772,192.75,49.3222,50.4221,132.033,97.636,52.6932,0.0349499,0.744994,19.9609,-333.405,5.44847,0.0,0.0
776,193.75,49.6493,51.6515,133.251,97.6287,53.6148,0.033734,0.723892,19.999,-333.555,5.29464,0.0,0.0
780,194.75,50.0584,51.8147,130.624,97.6195,54.0936,0.0325965,0.699861,20.0307,-333.656,5.21528,0.0,0.0
784,195.75,50.4909,52.7975,134.351,97.6199,59.7643,0.0311851,0.676981,20.0683,-333.756,4.33462,0.0,0.0
788,196.75,50.3471,53.3779,134.363,97.6211,60.8687,0.0298987,0.65104,20.105,-333.856,4.17298,0.0,0.0
792,197.75,50.4638,54.0627,133.874,97.6043,58.113,0.0285324,0.628409,20.1385,-333.976,4.58073,0.0,0.0
796,198.75,51.7781,53.9601,133.37,97.5987,59.4863,0.0273193,0.60862,20.1693,-334.076,4.37389,0.0,0.0
800,199.75,51.8183,53.7322,138.128,97.5979,58.7624,0.0263486,0.589891,20.2008,-334.186,4.48198,0.0,0.0
804,200.75,52.01,54.1816,133.707,97.5874,59.1324,0.0254728,0.574333,20.2256,-334.266,4.42558,0.0,0.0
808,201.75,52.3032,54.5867,136.191,97.585,58.5684,0.0247128,0.561208,20.2444,-334.356,4.51003,0.0,0.0
812,202.75,52.2599,54.7435,134.585,97.581,53.5853,0.023929,0.549413,20.2612,-334.486,5.29519,0.0,0.0
816,203.75,52.1721,54.97,137.55,97.573,59.2902,0.0232285,0.537359,20.2803,-334.516,4.40073,0.0,0.0
820,204.75,52.3638,54.5865,139.804,97.571,57.606,0.0225807,0.526192,20.2954,-334.636,4.65512,0.0,0.0
824,205.75,52.4493,55.4297,133.834,97.5694,58.349,0.0220044,0.514641,20.3102,-334.717,4.54176,0.0,0.0
828,206.75,52.442,55.7431,136.705,97.5585,64.4427,0.0213928,0.504074,20.3275,-334.827,3.66326,0.0,0.0
832,207.75,52.3988,56.0482,134.629,97.5646,56.2577,0.0207939,0.495642,20.3418,-334.897,4.86376,0.0,0.0
836,208.75,52.9761,55.9778,138.257,97.5549,61.2949,0.0203136,0.487227,20.3529,-334.957,4.10534,0.0,0.0
840,209.75,52.643,55.6452,143.286,97.5497,66.9062,0.0198613,0.476496,20.3737,-335.027,3.33106,0.0,0.0
844,210.75,52.711,55.7645,141.441,97.5509,61.7095,0.0194709,0.466898,20.3887,-335.137,4.04542,0.0,0.0
848,211.75,52.6954,55.6296,132.169,97.5417,55.9555,0.0190494,0.459566,20.3994,-335.277,4.90928,0.0,0.0
852,212.75,52.7337,55.9141,140.32,97.5373,59.7373,0.0185337,0.452143,20.4142,-335.307,4.33114,0.0,0.0
856,213.75,52.5152,55.569,141.74,97.5365,67.8378,0.0178619,0.441545,20.436,-335.347,3.2077,0.0,0.0
860,214.75,52.5618,55.9396,137.276,97.5373,64.752,0.016926,0.427365,20.4631,-335.387,3.61904,0.0,0.0
864,215.75,52.4479,55.7242,144.729,97.5357,75.9791,0.01596,0.411175,20.4862,-335.407,2.20639,0.0,0.0
868,216.75,52.4244,55.6359,143.996,97.5345,69.8433,0.0147821,0.39598,20.5105,-335.437,2.95014,0.0,0.0
872,217.75,52.0066,55.7628,141.813,97.5349,72.6477,0.0136378,0.381675,20.5339,-335.537,2.6024,0.0,0.0
876,218.75,51.8698,55.5247,145.814,97.5361,79.8424,0.0124927,0.364941,20.5596,-335.617,1.76828,0.0,0.0
880,219.75,51.6559,55.0017,139.811,97.5337,75.6531,0.0112091,0.347578,20.5908,-335.637,2.24419,0.0,0.0
884,220.75,51.2127,55.2757,145.082,97.5369,81.3614,0.0100733,0.328161,20.6241,-335.637,1.60187,0.0,0.0
888,221.75,51.1993,54.9042,144.778,97.5244,82.551,0.00903002,0.308912,20.6587,-335.737,1.47251,0.0,0.0
892,222.75,50.6962,54.3268,148.082,97.5248,80.702,0.00830659,0.289172,20.6789,-335.727,1.67267,0.0,0.0
896,223.75,50.1619,53.8848,146.733,97.5276,80.384,0.00743678,0.27073,20.7027,-335.717,1.7078,0.0,0.0
900,224.75,49.9292,53.7161,148.484,97.5236,81.2644,0.00672406,0.254281,20.7262,-335.697,1.61121,0.0,0.0
904,225.75,49.3345,53.6188,150.208,97.5228,82.3587,0.0060652,0.24192,20.7505,-335.697,1.49297,0.0,0.0
908,226.75,49.1522,53.1494,146.054,97.53,82.032,0.00548947,0.223405,20.7792,-335.697,1.52874,0.0,0.0
912,227.75,49.0435,52.6026,154.302,97.5325,84.182,0.00502593,0.206261,20.8028,-335.727,1.30041,0.0,0.0
916,228.75,48.3068,51.8995,146.343,97.5393,84.5012,0.00461929,0.189808,20.824,-335.727,1.26759,0.0,0.0
920,229.75,48.0507,51.9238,151.386,97.5232,86.3395,0.00426946,0.174753,20.842,-335.747,1.07602,0.0,0.0
924,230.75,47.3649,51.65,150.309,97.5232,86.7957,0.00389945,0.162531,20.8589,-335.767,1.02946,0.0,0.0
928,231.75,46.5457,51.0736,149.84,97.5333,87.1458,0.00355874,0.150906,20.8763,-335.767,0.994811,0.0,0.0
932,232.75,46.5924,50.7826,150.357,97.5405,88.2714,0.00327038,0.141038,20.8936,-335.767,0.882094,0.0,0.0
936,233.75,46.1639,50.0456,152.486,97.5373,89.0789,0.00298603,0.13129,20.9092,-335.777,0.801353,0.0,0.0
940,234.75,45.6498,50.3128,148.622,97.5409,88.5415,0.00273306,0.123198,20.922,-335.788,0.855136,0.0,0.0
944,235.75,45.0304,49.3515,149.785,97.5409,88.8017,0.00248813,0.116171,20.9332,-335.797,0.829216,0.0,0.0
948,236.75,45.056,48.6086,154.573,97.5501,91.092,0.00234854,0.109993,20.9399,-335.777,0.605102,0.0,0.0
952,237.75,44.1997,48.0158,150.408,97.563,90.1221,0.00215082,0.104868,20.9476,-335.797,0.700829,0.0,0.0
956,238.75,43.532,48.2878,155.577,97.5802,90.3822,0.00198792,0.0999974,20.9546,-335.808,0.676926,0.0,0.0
960,239.75,43.0594,47.6045,153.074,97.5778,90.0592,0.00184971,0.0964709,20.9609,-335.808,0.708336,0.0,0.0
964,240.75,43.6485,46.7959,154.691,97.5782,90.6869,0.00172275,0.0925718,20.9666,-335.808,0.647011,0.0,0.0
968,241.75,42.7413,46.0443,148.084,97.5886,90.2703,0.00160988,0.0889866,20.972,-335.818,0.688639,0.0,0.0
972,242.75,42.137,46.6106,150.915,97.5971,91.1357,0.00152038,0.0859948,20.9759,-335.818,0.605114,0.0,0.0
976,243.75,41.6729,45.6017,154.547,97.6031,90.2012,0.00146288,0.0833011,20.9789,-335.828,0.696711,0.0,0.0
980,244.75,41.7223,45.128,154.184,97.6215,90.9267,0.00142742,0.0809096,20.982,-335.838,0.627608,0.0,0.0
984,245.75,40.4246,45.3052,153.733,97.6356,91.1586,0.00140665,0.0787315,20.9848,-335.838,0.606381,0.0,0.0
988,246.75,40.6738,44.7813,148.777,97.6283,90.898,0.00138825,0.0768959,20.9867,-335.848,0.631017,0.0,0.0
992,247.75,40.001,44.4938,153.078,97.6344,91.2289,0.00136578,0.0752181,20.9887,-335.848,0.599457,0.0,0.0
996,248.75,40.1107,44.0379,151.1,97.6584,90.8301,0.00134029,0.0737053,20.9908,-335.848,0.640335,0.0,0.0
1000,249.75,39.6768,43.8444,153.661,97.6584,91.2514,0.00131262,0.0722882,20.9922,-335.858,0.599459,0.0,0.0
1004,250.75,38.9378,43.2368,152.334,97.6721,90.8643,0.00129446,0.0709604,20.9935,-335.858,0.63825,0.0,0.0
1008,251.75,38.7597,42.8171,150.589,97.6958,91.1552,0.00125168,0.0697306,20.995,-335.858,0.612147,0.0,0.0
1012,252.75,38.5305,42.5653,151.315,97.699,91.3217,0.00123463,0.0687054,20.9965,-335.868,0.596315,0.0,0.0
1016,253.75,38.2594,41.9681,149.939,97.723,91.4141,0.00123668,0.0676803,20.9981,-335.868,0.589558,0.0,0.0
1020,254.75,38.2454,41.6059,155.401,97.7258,91.4225,0.00124464,0.0667471,20.9994,-335.868,0.589007,0.0,0.0
1024,255.75,37.6829,41.1727,152.57,97.7511,91.9878,0.00125868,0.0656767,21.001,-335.868,0.536836,0.0,0.0
1028,256.75,37.1754,40.8295,149.478,97.762,92.23,0.00128528,0.0645278,21.0027,-335.878,0.51458,0.0,0.0
1032,257.75,36.7143,41.0958,150.958,97.7796,92.4228,0.00131839,0.0634098,21.0038,-335.878,0.497734,0.0,0.0
1036,258.75,36.3757,39.98,154.166,97.79,91.9378,0.00134899,0.0623787,21.0051,-335.868,0.545152,0.0,0.0
1040,259.75,36.2958,39.678,154.735,97.8009,91.6431,0.0013633,0.0614322,21.0061,-335.878,0.574494,0.0,0.0
1044,260.75,36.4787,39.6075,153.968,97.8125,92.3724,0.0013586,0.0604773,21.0073,-335.868,0.505522,0.0,0.0
1048,261.75,35.5736,39.1279,151.936,97.8302,92.4498,0.0013114,0.0594298,21.0086,-335.868,0.499715,0.0,0.0
1052,262.75,35.6958,39.41,154.792,97.8518,92.4153,0.00122973,0.0584454,21.0105,-335.868,0.504974,0.0,0.0
1056,263.75,35.5354,38.8998,150.538,97.8639,92.5185,0.00111888,0.057429,21.0121,-335.888,0.496198,0.0,0.0
1060,264.75,35.1006,38.9048,148.618,97.8831,92.7395,0.00100968,0.0564576,21.0131,-335.888,0.476856,0.0,0.0
1064,265.75,34.8601,38.171,153.205,97.8964,92.3624,0.000909126,0.0554356,21.0142,-335.888,0.514048,0.0,0.0
1068,266.75,34.3262,37.9693,154.288,97.9196,92.9144,0.000853672,0.0544874,21.0158,-335.888,0.46351,0.0,0.0
1072,267.75,34.1344,37.6918,152.503,97.9421,92.3986,0.000848092,0.05362,21.0176,-335.898,0.514711,0.0,0.0
1076,268.75,34.264,37.5859,154.064,97.9525,92.6617,0.000872687,0.0527791,21.0191,-335.888,0.490535,0.0,0.0
1080,269.75,33.7797,37.1576,154.815,97.9594,92.6346,0.000907003,0.0519938,21.0206,-335.898,0.493731,0.0,0.0
1084,270.75,33.6253,36.9925,153.379,97.9774,92.7753,0.000935765,0.0511628,21.0219,-335.888,0.481951,0.0,0.0
1088,271.75,33.5896,36.8121,153.485,97.9955,93.2823,0.000955277,0.0503356,21.0227,-335.888,0.435433,0.0,0.0
1092,272.75,33.1255,36.6407,152.845,98.0087,93.3847,0.000960676,0.0495798,21.0233,-335.878,0.426934,0.0,0.0
1096,273.75,33.0737,36.3349,148.591,98.0252,92.5439,0.000942353,0.0488785,21.0239,-335.878,0.50832,0.0,0.0
1100,274.75,31.7824,35.5623,153.43,98.0436,92.6288,0.000881777,0.0482859,21.0249,-335.878,0.501882,0.0,0.0
1104,275.75,32.0642,36.0644,156.861,98.054,93.2278,0.00079159,0.0477245,21.0257,-335.868,0.445878,0.0,0.0
1108,276.75,31.5228,34.566,152.737,98.0737,92.5518,0.000701246,0.0472575,21.0263,-335.868,0.51194,0.0,0.0
1112,277.75,31.4477,35.0848,153.927,98.0918,93.0692,0.00062493,0.0468966,21.0266,-335.868,0.464316,0.0,0.0
1116,278.75,31.6119,34.405,152.92,98.0958,92.8702,0.000577386,0.0465884,21.0269,-335.858,0.483584,0.0,0.0
1120,279.75,30.9076,34.6052,152.274,98.1158,92.5564,0.000550125,0.0463713,21.0271,-335.868,0.515297,0.0,0.0
1124,280.75,30.7349,34.1742,160.079,98.1283,93.4501,0.000527767,0.0462464,21.028,-335.878,0.431525,0.0,0.0
1128,281.75,30.6062,33.1651,153.714,98.1347,93.0509,0.000492616,0.0461891,21.0286,-335.878,0.469921,0.0,0.0
1132,282.75,30.8358,33.9063,156.619,98.154,93.0288,0.000435982,0.046132,21.0289,-335.888,0.473748,0.0,0.0
1136,283.75,30.2845,33.3638,154.787,98.1744,93.1429,0.00036818,0.0461088,21.0292,-335.878,0.464767,0.0,0.0
1140,284.75,30.5926,33.2071,154.736,98.1873,92.6122,0.000309692,0.0460794,21.0294,-335.878,0.516402,0.0,0.0
1144,285.75,30.3327,33.1017,154.356,98.2037,92.8486,0.000264405,0.0460276,21.0295,-335.888,0.495358,0.0,0.0
1148,286.75,29.6755,33.0187,159.382,98.2181,92.8786,0.000234045,0.0460104,21.0295,-335.888,0.493806,0.0,0.0
1152,287.75,29.8797,32.5689,150.626,98.2342,93.053,0.00022965,0.0459823,21.0296,-335.878,0.478675,0.0,0.0
1156,288.75,29.4773,32.4884,153.93,98.2462,93.3585,0.000266218,0.0459275,21.0296,-335.888,0.450799,0.0,0.0
1160,289.75,29.7937,32.3786,151.91,98.2575,93.2428,0.000316686,0.0458566,21.0296,-335.888,0.462766,0.0,0.0
1164,290.75,29.2789,32.1038,156.667,98.2791,93.2499,0.000367053,0.0457114,21.0297,-335.888,0.464043,0.0,0.0
1168,291.75,29.1559,32.2001,154.739,98.3036,93.4072,0.000416957,0.0455669,21.0297,-335.878,0.451349,0.0,0.0
1172,292.75,28.4193,31.8179,150.921,98.3092,93.0842,0.000456266,0.0455214,21.0297,-335.878,0.482457,0.0,0.0
1176,293.75,28.932,31.483,150.269,98.3353,92.382,0.000490433,0.0455655,21.0297,-335.878,0.551697,0.0,0.0
1180,294.75,28.4261,31.0019,149.438,98.3514,93.3439,0.000495272,0.0455555,21.0297,-335.888,0.461625,0.0,0.0
1184,295.75,28.6491,31.0232,153.315,98.3678,92.7949,0.000469892,0.0455493,21.0297,-335.878,0.515218,0.0,0.0
1188,296.75,28.3447,30.5889,152.59,98.3802,93.3273,0.000429089,0.0455663,21.0297,-335.878,0.465795,0.0,0.0
1192,297.75,28.3441,30.8394,154.017,98.3979,93.4655,0.000409341,0.0455949,21.0297,-335.888,0.454308,0.0,0.0
1196,298.75,28.4091,30.5186,150.915,98.4224,92.9901,0.000413513,0.0455922,21.0292,-335.888,0.501551,0.0,0.0
1200,299.75,27.7869,30.6495,151.895,98.4432,93.2162,0.000452604,0.045538,21.0289,-335.898,0.481977,0.0,0.0
1204,300.75,27.8827,30.4814,151.664,98.4509,93.1033,0.000503618,0.0455024,21.0292,-335.898,0.493358,0.0,0.0
1208,301.75,27.9208,30.7522,150.612,98.4801,93.4289,0.000536085,0.0454518,21.0297,-335.898,0.465153,0.0,0.0
1212,302.75,27.5747,30.5858,155.243,98.4966,93.5238,0.00054733,0.0454181,21.03,-335.878,0.457659,0.0,0.0
1216,303.75,27.6304,30.0428,150.955,98.509,93.6432,0.000545451,0.045434,21.0303,-335.888,0.447497,0.0,0.0
1220,304.75,27.5052,30.3147,155.467,98.5187,93.423,0.000533698,0.0453881,21.0304,-335.898,0.469158,0.0,0.0
1224,305.75,27.5558,29.8216,152.908,98.5387,93.3864,0.000523658,0.0453054,21.0305,-335.888,0.474422,0.0,0.0
1228,306.75,26.911,29.2434,155.701,98.5544,93.5979,0.000520904,0.0452266,21.0306,-335.888,0.455843,0.0,0.0
1232,307.75,27.5039,29.9337,151.826,98.5648,93.5667,0.000526531,0.0451502,21.0306,-335.898,0.459725,0.0,0.0
1236,308.75,26.8476,29.8773,156.417,98.5857,93.4464,0.000525547,0.0451001,21.0306,-335.888,0.472961,0.0,0.0
1240,309.75,27.1079,29.0996,156.51,98.5913,93.1708,0.000516113,0.0451081,21.0307,-335.878,0.499553,0.0,0.0
1244,310.75,27.3769,29.3169,153.24,98.6122,93.7394,0.000509923,0.04516,21.0307,-335.888,0.447673,0.0,0.0
1248,311.75,26.9161,29.1366,157.929,98.6238,93.5229,0.000505862,0.0451908,21.0307,-335.888,0.469138,0.0,0.0
1252,312.75,26.9846,28.7253,156.512,98.637,93.5583,0.000518781,0.045176,21.0307,-335.878,0.466981,0.0,0.0
1256,313.75,26.8353,29.1359,152.459,98.6679,93.8884,0.000546022,0.0451663,21.0307,-335.888,0.438635,0.0,0.0
1260,314.75,26.7449,28.7582,152.453,98.6607,93.637,0.000581771,0.0451456,21.0307,-335.878,0.461676,0.0,0.0
1264,315.75,26.5564,28.5702,152.94,98.6751,93.6253,0.000615005,0.0450971,21.0307,-335.898,0.464069,0.0,0.0
1268,316.75,26.0406,28.645,153.269,98.6844,93.4176,0.000639468,0.0450899,21.0307,-335.888,0.484516,0.0,0.0
1272,317.75,26.4106,28.6683,151.973,98.6928,93.6699,0.000651759,0.0450359,21.0307,-335.898,0.461448,0.0,0.0
1276,318.75,26.4777,28.3592,150.786,98.7008,93.4384,0.000658263,0.0450587,21.0307,-335.898,0.484021,0.0,0.0
1280,319.75,26.2126,28.1652,154.275,98.7084,93.8426,0.000693597,0.0451476,21.0307,-335.888,0.446571,0.0,0.0
1284,320.75,26.185,28.3392,150.818,98.7173,93.5429,0.000728336,0.0451828,21.0307,-335.898,0.47562,0.0,0.0
1288,321.75,26.5474,28.2301,155.574,98.7385,93.4896,0.000753172,0.0451137,21.0294,-335.888,0.482556,0.0,0.0
1292,322.75,26.1422,27.8146,152.589,98.7389,93.7107,0.000747109,0.0450022,21.0286,-335.898,0.461731,0.0,0.0
1296,323.75,25.7626,28.4553,152.074,98.7558,93.508,0.000722853,0.0449706,21.0289,-335.888,0.48237,0.0,0.0
1300,324.75,25.8629,27.7993,154.971,98.757,93.6382,0.000691547,0.0449563,21.0284,-335.908,0.470176,0.0,0.0
1304,325.75,25.4915,27.9033,155.7,98.7562,93.4268,0.000697394,0.0449657,21.0286,-335.898,0.490076,0.0,0.0
1308,326.75,25.7163,27.6593,153.545,98.7674,93.4426,0.000725541,0.045005,21.0289,-335.908,0.489586,0.0,0.0
1312,327.75,25.4282,27.4257,153.385,98.7738,93.8701,0.000767347,0.0450443,21.029,-335.888,0.449836,0.0,0.0
1316,328.75,25.679,27.7307,154.065,98.7959,93.5791,0.000784357,0.0450812,21.0292,-335.898,0.479235,0.0,0.0
1320,329.75,25.2695,27.2795,154.729,98.7895,93.8643,0.000771253,0.0451301,21.0292,-335.898,0.451784,0.0,0.0
1324,330.75,25.3297,26.8019,156.315,98.7987,93.6316,0.000716526,0.0451232,21.0293,-335.898,0.474537,0.0,0.0
1328,331.75,24.3785,26.442,153.402,98.8116,93.7598,0.00063651,0.0450695,21.029,-335.898,0.463595,0.0,0.0
1332,332.75,24.4564,26.6908,152.792,98.8104,93.6074,0.00055597,0.0450043,21.0289,-335.898,0.477855,0.0,0.0
1336,333.75,25.3674,27.2324,153.765,98.842,93.7248,0.000482368,0.0449557,21.0287,-335.888,0.469617,0.0,0.0
1340,334.75,25.2525,26.6976,150.677,98.8264,93.8922,0.000454446,0.044964,21.0287,-335.898,0.45246,0.0,0.0
1344,335.75,24.8545,26.6674,154.187,98.8328,93.9438,0.000474265,0.0450026,21.0286,-335.898,0.448178,0.0,0.0
1348,336.75,25.3846,26.6936,152.039,98.8525,93.5908,0.000500507,0.0450136,21.0286,-335.888,0.483192,0.0,0.0
1352,337.75,24.5712,26.6519,153.548,98.8356,93.9933,0.000508304,0.0449858,21.0286,-335.898,0.443773,0.0,0.0
1356,338.75,24.9214,26.5358,152.314,98.8409,93.8243,0.000481976,0.0449429,21.0285,-335.888,0.460137,0.0,0.0
1360,339.75,24.7204,26.4867,152.994,98.8505,93.7569,0.000447995,0.0449641,21.0285,-335.888,0.46735,0.0,0.0
1364,340.75,24.6712,26.6327,153.912,98.8437,93.7323,0.000381803,0.0449586,21.0285,-335.898,0.469055,0.0,0.0
1368,341.75,24.633,26.1211,162.33,98.8517,93.331,0.00028793,0.0449109,21.0285,-335.898,0.507672,0.0,0.0
1372,342.75,25.1515,26.277,154.42,98.8661,93.7964,0.000191797,0.0449274,21.0285,-335.888,0.465022,0.0,0.0
1376,343.75,24.917,25.9327,150.498,98.8629,93.6,0.000114973,0.0449467,21.0285,-335.898,0.48326,0.0,0.0
1380,344.75,24.4925,26.1844,154.233,98.8581,93.7802,5.36911e-05,0.0449348,21.029,-335.898,0.465834,0.0,0.0
1384,345.75,24.4459,26.1619,150.073,98.8637,93.6999,4.63513e-05,0.0449095,21.0294,-335.888,0.473908,0.0,0.0
1388,346.75,24.5648,25.8161,152.113,98.8697,93.6728,7.22246e-05,0.04499,21.0296,-335.898,0.476996,0.0,0.0
1392,347.75,24.4094,26.026,152.659,98.8641,93.8118,0.000123767,0.0450825,21.0298,-335.878,0.463393,0.0,0.0
1396,348.75,24.328,26.2057,161.159,98.8677,93.8493,0.000185071,0.0451134,21.0296,-335.888,0.460188,0.0,0.0
1400,349.75,24.5345,25.7828,158.102,98.8665,94.0012,0.000252152,0.0450934,21.0294,-335.888,0.445791,0.0,0.0
1404,350.75,24.2334,25.5998,154.649,98.8713,93.7148,0.000308416,0.0450629,21.0296,-335.898,0.473175,0.0,0.0
1408,351.75,24.2143,25.5175,156.183,98.8701,93.8343,0.000344869,0.0450181,21.0295,-335.898,0.461814,0.0,0.0
1412,352.75,24.352,25.8632,153.237,98.8741,93.5034,0.000360891,0.0449641,21.029,-335.898,0.493383,0.0,0.0
1416,353.75,24.3564,25.1703,156.799,98.8685,93.8497,0.000372942,0.0449287,21.0294,-335.888,0.46022,0.0,0.0
1420,354.75,24.2926,25.822,154.433,98.889,93.8356,0.00035819,0.0450041,21.0297,-335.898,0.463382,0.0,0.0
1424,355.75,24.1419,26.2312,158.728,98.8758,93.6957,0.000349216,0.0450625,21.0292,-335.898,0.475376,0.0,0.0
1428,356.75,24.2598,25.3771,152.492,98.8693,93.4967,0.000359131,0.0450892,21.0288,-335.878,0.493581,0.0,0.0
1432,357.75,23.6677,25.2006,149.607,98.8725,93.7019,0.000391754,0.0450839,21.0284,-335.898,0.474501,0.0,0.0
1436,358.75,24.1238,25.4645,154.33,98.8641,93.7307,0.000438123,0.0450669,21.0282,-335.898,0.47104,0.0,0.0
1440,359.75,24.1665,25.2793,153.862,98.8681,93.7377,0.000500115,0.0450306,21.028,-335.898,0.470732,0.0,0.0
1444,360.75,23.7225,25.23,154.097,98.8609,94.2252,0.00055417,0.0449763,21.0281,-335.898,0.424267,0.0,0.0
1448,361.75,23.5454,25.2611,152.29,98.8489,94.2747,0.00060523,0.0449963,21.0288,-335.898,0.418548,0.0,0.0
1452,362.75,23.4681,24.5757,155.641,98.8541,93.4031,0.000634334,0.0449745,21.0292,-335.898,0.501073,0.0,0.0
1456,363.75,23.8164,24.9039,154.623,98.8441,93.769,0.000618252,0.0449601,21.0295,-335.898,0.465638,0.0,0.0
1460,364.75,23.8126,24.7929,153.623,98.8493,93.5421,0.000559364,0.0448925,21.0291,-335.908,0.487503,0.0,0.0
1464,365.75,23.9727,25.0134,156.559,98.836,94.087,0.000470232,0.0448597,21.0286,-335.888,0.43501,0.0,0.0
1468,366.75,23.3378,24.5448,150.476,98.8428,93.9725,0.000411753,0.0448602,21.0283,-335.898,0.446374,0.0,0.0
1472,367.75,23.6493,24.7643,156.087,98.822,93.8002,0.000305388,0.0448605,21.0278,-335.898,0.460725,0.0,0.0
1476,368.75,23.5638,24.9249,153.573,98.814,93.9513,0.000225237,0.0448607,21.0274,-335.888,0.445789,0.0,0.0
1480,369.75,24.0392,25.1584,154.03,98.8063,94.1324,0.000169862,0.0449386,21.0272,-335.898,0.428097,0.0,0.0
1484,370.75,23.1478,24.1766,154.287,98.7819,93.7977,0.00013353,0.0449833,21.027,-335.898,0.457373,0.0,0.0
1488,371.75,23.6,25.0429,155.256,98.7883,93.4235,0.00011833,0.0449834,21.0269,-335.898,0.493263,0.0,0.0
1492,372.75,23.565,24.8189,154.629,98.7867,93.5171,0.00012643,0.044966,21.0271,-335.898,0.484267,0.0,0.0
1496,373.75,23.5915,24.8743,152.605,98.7634,93.4139,0.000165105,0.0449546,21.0277,-335.908,0.491943,0.0,0.0
1500,374.75,23.3076,24.1113,152.791,98.7746,93.6133,0.00020717,0.0449471,21.0282,-335.908,0.474111,0.0,0.0
1504,375.75,23.3595,24.6983,154.734,98.7666,93.5429,0.000283065,0.0449668,21.0279,-335.908,0.480035,0.0,0.0
1508,376.75,23.6211,24.3644,156.098,98.7558,93.9754,0.00036581,0.0450381,21.0275,-335.908,0.438316,0.0,0.0
1512,377.75,23.5943,24.7471,149.163,98.7502,93.5983,0.000447808,0.0450732,21.0272,-335.908,0.473336,0.0,0.0
1516,378.75,22.6226,23.8092,155.196,98.7393,93.7465,0.000507329,0.0450742,21.027,-335.908,0.458392,0.0,0.0
1520,379.75,23.4038,24.4723,155.228,98.7277,93.6416,0.000535522,0.0450749,21.0269,-335.908,0.467241,0.0,0.0
1524,380.75,23.271,24.3986,153.294,98.7117,93.7115,0.000544296,0.0450753,21.0268,-335.908,0.459211,0.0,0.0
1528,381.75,23.7033,24.628,154.765,98.7133,93.8189,0.000551385,0.0450971,21.0268,-335.918,0.449235,0.0,0.0
1532,382.75,23.3816,24.7522,154.022,98.69,93.8951,,0.0451639,,-335.898,0.439983,0.0,0.0
1536,383.75,23.319,24.6081,153.27,98.6735,93.8822,,0.0451337,,-335.908,0.439725,0.0,0.0
1540,384.75,23.3604,24.5783,156.728,98.6723,93.826,,0.0451139,,-335.908,0.444907,0.0,0.0
1544,385.75,23.0518,24.0828,154.872,98.6639,93.9604,,,,-335.898,0.431502,0.0,0.0
1548,386.75,23.5625,24.2682,152.718,98.6523,94.097,,,,-335.888,0.417633,0.0,0.0
1552,387.75,23.6035,24.6779,150.579,98.6563,93.2586,,,,-335.898,0.497051,0.0,0.0
1556,388.75,23.3196,24.5272,155.123,98.6459,93.5433,,,,-335.908,0.469187,0.0,0.0
1560,389.75,23.5427,24.1487,153.224,98.631,93.2853,,,,-335.888,0.492265,0.0,0.0
1564,390.75,22.7171,24.4887,156.985,98.6214,93.2823,,,,-335.898,0.491678,0.0,0.0
1568,391.75,23.2332,24.3471,152.704,98.6113,93.4389,,,,-335.888,0.475969,0.0,0.0
1572,392.75,23.4719,24.3817,153.031,98.6081,93.7735,,,,-335.898,0.444096,0.0,0.0
1574,393.25,23.0466,24.1517,153.356,98.5989,93.4626,,,,-335.888,0.472612,0.0,0.0