File: 01_Data/XPS_Foam_Board/Cone/XPS_Foam_Insulation_Cone_HF75Scan_220412_R3.csv
Names,Time,Stack TC,Smoke TC,Exh Press,Smoke Comp,Smoke Meas,CO Meter,CO2 Meter,O2 Meter,Sample Mass,Ext Coeff,Start Test,Flame Verif
Chan Gain,,500,500,1,1,1,1,1,1,1,1,1.0,1.0
Offset,,0,0,0.134314,0,0,0,0,0,0,0,0.0,0.0
Gain,,1,1,25.011,13.1473,13.6402,1,1,1,1.00092,1.00708,1.0,1.0
Units,sec,C,C,Pa,%,%,%,%,%,g,/m,,
Baseline,,44.907,46.2964,145.151,98.5947,93.4374,0.000382215,0.0443917,21.0299,-835.177,0.474627,,
2,0.25,43.844,44.9867,145.811,99.1947,94.0416,0.000841902,0.0525519,21.0174,-331.884,0.471273,0.0,0.0
4,0.75,42.5686,43.927,143.503,99.1939,93.6416,0.00124795,0.0531796,21.0158,-331.944,0.508861,0.0,0.0
6,1.25,42.9522,43.8499,143.68,99.1971,92.9814,0.00188137,0.0536881,21.0145,-331.994,0.571649,0.0,0.0
8,1.75,42.6818,43.7609,144.76,99.1923,92.4036,0.00266852,0.0581854,21.0033,-332.054,0.626285,0.0,0.0
10,2.25,42.9471,43.6425,144.364,99.2076,91.2247,0.00367479,0.0655051,20.9943,-332.214,0.74107,0.0,0.0
12,2.75,42.5864,43.9045,138.635,99.1999,91.1427,0.00482168,0.0714341,20.9672,-332.274,0.748335,0.0,0.0
14,3.25,42.8572,43.5394,141.227,99.2112,77.3827,0.00575066,0.0978817,20.9275,-332.344,2.19515,0.0,1.0
16,3.75,42.9347,43.7876,136.648,99.2023,64.9822,0.00731869,0.119304,20.88,-332.414,3.73722,0.0,1.0
18,4.25,42.2907,43.8187,131.817,99.2136,57.4387,0.00858879,0.156736,20.8277,-332.514,4.82831,0.0,1.0
20,4.75,43.3133,43.9759,130.714,99.2048,59.6836,0.0101018,0.187056,20.7747,-332.635,4.48883,0.0,1.0
22,5.25,43.4662,44.3143,124.005,99.2264,54.551,0.0113274,0.226534,20.7221,-332.675,5.28512,0.0,1.0
24,5.75,44.0382,44.9899,129.447,99.2116,59.788,0.01232,0.258512,20.6795,-332.815,4.47399,0.0,1.0
26,6.25,44.5107,44.8833,126.155,99.2156,55.7274,0.0135597,0.292435,20.639,-332.825,5.09568,0.0,1.0
28,6.75,44.3795,45.4198,129.78,99.2164,59.4621,0.0145638,0.319913,20.6007,-332.835,4.52271,0.0,1.0
30,7.25,45.2159,46.0378,127.664,99.2312,55.394,0.0155383,0.343153,20.5697,-332.875,5.15008,0.0,1.0
32,7.75,45.5871,46.3153,130.476,99.2216,61.8203,0.0164728,0.362862,20.5446,-332.905,4.1796,0.0,1.0
34,8.25,45.6615,46.1893,127.57,99.2489,62.0987,0.0172297,0.378827,20.5203,-332.935,4.14232,0.0,1.0
36,8.75,45.5752,46.7032,126.963,99.2413,64.6046,0.018284,0.395076,20.5006,-332.935,3.79216,0.0,1.0
38,9.25,46.476,47.5693,131.721,99.2441,49.0484,0.019535,0.408237,20.4845,-333.055,6.226,0.0,0.0
40,9.75,45.761,47.751,128.97,99.2268,54.9119,0.0211408,0.423812,20.4714,-333.105,5.2269,0.0,0.0
42,10.25,47.9827,48.5897,133.116,99.2545,50.5262,0.0229746,0.440851,20.4414,-333.155,5.9647,0.0,0.0
44,10.75,47.6315,49.0746,126.247,99.2401,43.4518,0.02446,0.454653,20.4171,-333.265,7.29595,0.0,0.0
46,11.25,47.7332,48.7989,131.204,99.2577,43.8097,0.0271947,0.465833,20.3571,-333.345,7.22503,0.0,0.0
48,11.75,48.2596,49.4566,124.5,99.2397,40.279,0.0305268,0.506519,20.3085,-333.445,7.96572,0.0,0.0
50,12.25,49.054,49.8526,120.493,99.2573,36.2749,0.0342311,0.539475,20.1958,-333.505,8.89224,0.0,0.0
52,12.75,49.4022,50.2849,114.353,99.2409,30.3348,0.0372316,0.603145,20.1045,-333.605,10.4706,0.0,0.0
54,13.25,49.8809,50.9717,114.425,99.2682,28.1266,0.0419628,0.654718,20.0305,-333.756,11.1407,0.0,0.0
56,13.75,50.59,51.7379,103.142,99.2577,29.6164,0.0478657,0.747106,19.8923,-333.936,10.6838,0.0,0.0
58,14.25,51.3728,52.436,107.475,99.2673,29.3849,0.0549844,0.82194,19.7804,-334.046,10.754,0.0,0.0
60,14.75,52.3624,53.1888,94.6215,99.2678,26.4578,0.062854,0.947073,19.5964,-334.266,11.681,0.0,0.0
62,15.25,53.6179,53.9793,99.1386,99.2802,20.9152,0.0715083,1.04843,19.4474,-334.406,13.7587,0.0,0.0
64,15.75,54.5837,55.583,91.9134,99.2706,21.6495,0.0805703,1.20964,19.2302,-334.596,13.4531,0.0,0.0
66,16.25,56.0006,57.0565,87.3399,99.2802,18.1833,0.09022,1.34022,19.0544,-334.837,14.9953,0.0,0.0
68,16.75,58.0546,58.9302,84.2395,99.2686,17.7974,0.100115,1.48932,18.7792,-335.127,15.1837,0.0,0.0
70,17.25,59.5633,60.5735,84.6692,99.293,15.8155,0.110368,1.6491,18.5564,-335.307,16.2288,0.0,0.0
72,17.75,61.6261,63.1012,87.5429,99.2822,13.0732,0.120687,1.77851,18.32,-335.597,17.9101,0.0,0.0
74,18.25,64.5618,65.8699,101.114,99.2906,12.4946,0.129045,1.95772,18.0783,-335.717,18.3108,0.0,0.0
76,18.75,66.6969,68.3549,68.4389,99.2758,14.792,0.140393,2.10288,17.8357,-335.988,16.8184,0.0,0.0
78,19.25,68.8326,70.9096,82.216,99.2946,16.2838,0.149584,2.28032,17.5971,-336.218,15.9712,0.0,0.0
80,19.75,71.2278,73.9627,78.321,99.2838,12.6678,0.158565,2.42405,17.4038,-336.618,18.1886,0.0,0.0
82,20.25,73.5559,76.5297,78.4775,99.3035,12.5079,0.167221,2.59464,17.1685,-336.778,18.3025,0.0,0.0
84,20.75,75.9994,79.3417,73.1689,99.3007,14.2404,0.174233,2.73282,16.978,-336.909,17.1563,0.0,0.0
86,21.25,79.0398,83.1493,76.2327,99.3139,12.0546,0.179668,2.87154,16.8236,-337.129,18.6296,0.0,0.0
88,21.75,81.1739,85.9105,84.9295,99.2934,14.3024,0.184071,2.9839,16.6986,-337.359,17.1173,0.0,0.0
90,22.25,84.1557,89.6219,79.4011,99.3167,12.7535,0.186282,3.06276,16.5973,-337.509,18.1319,0.0,0.0
92,22.75,87.3059,92.9275,84.8203,99.3103,13.7646,0.186853,3.1157,16.5153,-337.749,17.4574,0.0,0.0
94,23.25,89.1912,96.091,79.8277,99.334,16.0732,0.183586,3.15858,16.4488,-337.97,16.0897,0.0,0.0
96,23.75,91.8854,99.2059,74.6871,99.3115,15.2307,0.18094,3.13165,16.4848,-338.09,16.5634,0.0,0.0
98,24.25,93.9756,102.137,80.0208,99.3372,21.0159,0.174312,3.10983,16.5139,-338.19,13.7214,0.0,0.0
100,24.75,96.0946,104.711,89.0863,99.3372,18.8722,0.168944,3.04812,16.6688,-338.39,14.6718,0.0,0.0
102,25.25,98.0934,107.32,95.494,99.3388,24.5737,0.164595,2.95848,16.7943,-338.49,12.3399,0.0,0.0
104,25.75,99.7582,109.21,91.4654,99.3235,23.6005,0.15512,2.84103,16.9577,-338.6,12.6955,0.0,0.0
106,26.25,101.327,111.454,105.24,99.342,24.103,0.147444,2.70554,17.1455,-338.68,12.5111,0.0,0.0
108,26.75,102.691,113.38,100.812,99.3404,31.1844,0.138375,2.55816,17.2976,-338.77,10.2354,0.0,0.0
110,27.25,103.572,114.672,106.234,99.3464,30.5201,0.12846,2.40492,17.5233,-338.87,10.4262,0.0,0.0
112,27.75,104.175,115.72,108.478,99.346,29.9698,0.118799,2.28079,17.7061,-338.92,10.5869,0.0,0.0
114,28.25,104.633,117.098,111.091,99.3652,33.4148,0.109506,2.1017,17.9084,-338.99,9.62737,0.0,0.0
116,28.75,105.549,117.885,116.572,99.3544,35.7629,0.101979,1.95663,18.121,-339.081,9.02645,0.0,0.0
118,29.25,105.259,117.354,118.778,99.3709,39.9368,0.0927612,1.81099,18.3308,-339.161,8.05275,0.0,0.0
120,29.75,105.356,118.406,122.726,99.3576,39.8894,0.0852947,1.66771,18.5344,-339.171,8.06208,0.0,0.0
122,30.25,105.38,118.942,127.074,99.3661,40.1479,0.077289,1.55165,18.6993,-339.191,8.00576,0.0,0.0
124,30.75,105.596,118.448,121.251,99.3713,45.8586,0.0708044,1.41968,18.8697,-339.231,6.83136,0.0,0.0
126,31.25,105.081,117.859,127.22,99.3705,52.7819,0.0655518,1.31278,19.0408,-339.261,5.58917,0.0,0.0
128,31.75,104.888,117.79,122.951,99.3741,56.1203,0.0599929,1.19341,19.2062,-339.281,5.0477,0.0,0.0
130,32.25,104.775,117.634,134.331,99.3729,58.573,0.0543163,1.09672,19.3643,-339.261,4.66972,0.0,0.0
132,32.75,104.596,117.423,129.074,99.3729,64.9543,0.0491319,0.994024,19.4924,-339.271,3.75619,0.0,0.0
134,33.25,103.244,116.132,130.83,99.3873,69.3026,0.0444047,0.910838,19.6351,-339.301,3.18504,0.0,0.0
136,33.75,103.511,116.169,132.111,99.3853,73.1701,0.0405758,0.843457,19.7506,-339.311,2.70513,0.0,0.0
138,34.25,102.757,115.78,133.18,99.403,76.9627,0.0362866,0.772917,19.8642,-339.311,2.26028,0.0,0.0
140,34.75,102.439,115.396,135.506,99.3989,79.0053,0.0328124,0.701415,19.9741,-339.331,2.02853,0.0,0.0
142,35.25,101.657,114.802,131.652,99.3941,81.2548,0.0295638,0.63656,20.0632,-339.341,1.78009,0.0,0.0
144,35.75,101.848,114.622,137.041,99.3953,81.7893,0.0265412,0.577783,20.1654,-339.381,1.72227,0.0,0.0
146,36.25,100.833,113.834,135.937,99.3953,83.2033,0.0238308,0.530173,20.2482,-339.341,1.57085,0.0,0.0
148,36.75,100.535,113.452,136.831,99.401,83.6229,0.0213993,0.479585,20.3311,-339.371,1.52691,0.0,0.0
150,37.25,99.4475,112.315,137.021,99.3977,86.6608,0.0192402,0.438609,20.3983,-339.381,1.21139,0.0,0.0
152,37.75,98.8141,111.595,136.048,99.4014,87.647,0.0173205,0.400128,20.4704,-339.381,1.11175,0.0,0.0
154,38.25,98.9679,111.072,140.126,99.4014,89.297,0.0156114,0.364196,20.5288,-339.401,0.946987,0.0,0.0
156,38.75,98.2455,110.643,139.085,99.4094,88.3022,0.0140882,0.335092,20.5831,-339.391,1.04667,0.0,0.0
158,39.25,98.5564,110.411,143.295,99.4006,92.0448,0.0128544,0.303991,20.6333,-339.411,0.679182,0.0,0.0
160,39.75,96.9226,109.159,141.268,99.4098,91.7759,0.011578,0.278799,20.6777,-339.411,0.705848,0.0,0.0
162,40.25,96.2426,108.969,138.347,99.407,91.9928,0.0105441,0.253752,20.7171,-339.411,0.684748,0.0,0.0
164,40.75,96.4315,108.174,141.295,99.4146,93.319,0.00958865,0.233463,20.7489,-339.391,0.558979,0.0,0.0
166,41.25,94.6013,107.546,139.834,99.4158,93.0201,0.00870853,0.213056,20.7805,-339.401,0.587424,0.0,0.0
168,41.75,94.2474,106.41,140.926,99.409,93.5533,0.00793169,0.196526,20.806,-339.401,0.536321,0.0,0.0
170,42.25,93.8391,106.561,140.226,99.4142,94.1011,0.00724489,0.17961,20.8324,-339.391,0.485208,0.0,0.0
172,42.75,93.3379,105.54,141.249,99.415,95.0419,0.00668858,0.165909,20.8538,-339.401,0.397401,0.0,0.0
174,43.25,93.2163,105.192,140.415,99.4118,95.2467,0.00614155,0.153468,20.873,-339.401,0.3781,0.0,0.0
176,43.75,91.9555,103.704,141.959,99.4258,94.6631,0.00569845,0.142182,20.8903,-339.381,0.433643,0.0,0.0
178,44.25,91.4968,103.494,143.99,99.423,94.6256,0.00527416,0.133041,20.9059,-339.401,0.436891,0.0,0.0
180,44.75,91.2501,102.645,142.506,99.4331,94.2435,0.00493048,0.123904,20.9199,-339.391,0.473528,0.0,0.0
182,45.25,90.1258,101.173,141.739,99.423,94.5203,0.00459915,0.116502,20.9327,-339.401,0.446729,0.0,0.0
184,45.75,89.7839,101.135,142.854,99.4319,94.7318,0.00433076,0.10947,20.943,-339.401,0.427771,0.0,0.0
186,46.25,89.5042,100.384,147.12,99.4314,94.5016,0.00404934,0.103775,20.9518,-339.391,0.449227,0.0,0.0
188,46.75,88.8866,100.61,141.858,99.4306,94.7601,0.00382139,0.0984026,20.9594,-339.401,0.425025,0.0,0.0
190,47.25,88.0916,99.3096,142.292,99.4371,94.8912,0.00363675,0.0940512,20.9655,-339.391,0.413379,0.0,0.0
192,47.75,87.9441,99.3324,142.24,99.4306,94.6119,0.00339883,0.0900032,20.971,-339.401,0.43885,0.0,0.0
194,48.25,87.547,98.9025,142.387,99.4399,94.895,0.00320612,0.0867243,20.976,-339.401,0.41328,0.0,0.0
196,48.75,87.0818,97.9499,144.479,99.4439,94.9324,0.00298511,0.0835732,20.98,-339.401,0.41015,0.0,0.0
198,49.25,86.345,97.6598,140.908,99.4387,95.1139,0.0028061,0.0810207,20.9841,-339.401,0.392814,0.0,0.0
200,49.75,86.0773,97.2926,145.051,99.4491,94.9649,0.002627,0.0789532,20.9875,-339.391,0.407592,0.0,0.0
202,50.25,84.9328,96.2965,139.627,99.4339,95.1464,0.00245123,0.0767572,20.9911,-339.391,0.38937,0.0,0.0
204,50.75,84.4397,95.4363,139.388,99.466,95.2013,0.00228766,0.0749784,20.994,-339.401,0.387122,0.0,0.0
206,51.25,84.5094,95.4203,143.723,99.4475,94.9715,0.00213608,0.0733135,20.9964,-339.381,0.40683,0.0,0.0
208,51.75,83.8726,94.4631,143.264,99.4543,95.6055,0.00199726,0.0717634,20.9983,-339.401,0.348662,0.0,0.0
210,52.25,83.7404,94.2553,147.503,99.4479,94.1915,0.00187037,0.070349,21.0007,-339.421,0.479726,0.0,0.0
212,52.75,82.9415,93.738,143.724,99.4495,94.6556,0.00175989,0.0690604,21.0027,-339.411,0.436445,0.0,0.0
214,53.25,82.7303,93.5279,143.039,99.4523,94.6298,0.00166348,0.0678362,21.0043,-339.411,0.439104,0.0,0.0
216,53.75,82.4524,93.1883,141.008,99.4591,94.8812,0.00158538,0.0666823,21.006,-339.421,0.41627,0.0,0.0
218,54.25,81.897,92.4505,140.382,99.4495,94.3834,0.00152212,0.0655818,21.0074,-339.431,0.46189,0.0,0.0
220,54.75,81.2332,91.4389,139.394,99.4615,94.9695,0.00147601,0.0645411,21.0086,-339.431,0.40827,0.0,0.0
222,55.25,81.0766,92.0706,139.246,99.476,94.4983,0.00144328,0.0635901,21.0084,-339.411,0.453494,0.0,0.0
224,55.75,80.8569,91.0245,139.851,99.4756,95.5089,0.00141677,0.0627225,21.0082,-339.421,0.359478,0.0,0.0
226,56.25,80.5847,90.6619,146.547,99.464,95.6084,0.00138555,0.0620197,21.0083,-339.441,0.349247,0.0,0.0
228,56.75,79.8429,89.714,142.919,99.4603,95.0119,0.00136026,0.0614505,21.0086,-339.451,0.404215,0.0,0.0
230,57.25,79.4059,89.9359,141.14,99.4527,95.0935,0.00131176,0.0606473,21.0091,-339.441,0.395955,0.0,0.0
232,57.75,79.2458,89.6726,140.225,99.4651,95.0053,0.00127247,0.0599967,21.0097,-339.411,0.405262,0.0,0.0
234,58.25,78.7701,88.8737,144.562,99.4539,94.7359,0.00120657,0.0594698,21.0104,-339.411,0.429343,0.0,0.0
236,58.75,77.9626,88.4117,139.672,99.4904,95.1709,0.00115319,0.0588104,21.0112,-339.411,0.392115,0.0,0.0
238,59.25,77.9493,88.1674,147.523,99.4527,94.4408,0.00108563,0.0582764,21.0118,-339.441,0.4568,0.0,0.0
240,59.75,77.7273,87.8052,141.46,99.4724,94.885,0.00103091,0.057666,21.0124,-339.431,0.417097,0.0,0.0
242,60.25,76.9556,87.4259,145.798,99.4499,94.7051,0.000979545,0.0571717,21.0128,-339.431,0.431859,0.0,0.0
244,60.75,76.7697,87.0323,141.277,99.4551,95.1759,0.000931608,0.056685,21.0136,-339.441,0.388517,0.0,0.0
246,61.25,76.9757,86.5998,143.317,99.4539,94.6677,0.000892779,0.056213,21.0142,-339.431,0.435711,0.0,0.0
248,61.75,76.7696,86.3932,146.905,99.4595,94.7892,0.000862607,0.0557373,21.0147,-339.431,0.424874,0.0,0.0
250,62.25,75.8333,85.4658,141.156,99.4543,94.8533,0.000839319,0.0552678,21.0151,-339.401,0.41844,0.0,0.0
252,62.75,75.6082,85.4575,143.044,99.4575,95.23,0.000826533,0.0548157,21.0157,-339.401,0.383708,0.0,0.0
254,63.25,75.2608,85.2991,143.555,99.4491,95.3762,0.000816176,0.0543848,21.0164,-339.391,0.369417,0.0,0.0
256,63.75,74.8394,84.5661,139.893,99.4583,95.4394,0.000812906,0.0540357,21.0169,-339.411,0.364377,0.0,0.0
258,64.25,74.1104,84.5645,139.849,99.4435,94.7738,0.000814863,0.0536574,21.0173,-339.381,0.424884,0.0,0.0
260,64.75,74.844,84.3357,143.122,99.4615,95.0461,0.000822209,0.0533509,21.0177,-339.381,0.401149,0.0,0.0
262,65.25,74.0455,83.3015,142.091,99.4419,94.3064,0.000833344,0.0530381,21.018,-339.371,0.468423,0.0,0.0
264,65.75,74.0217,82.5906,139.943,99.4607,94.8267,0.000844284,0.0527265,21.0182,-339.371,0.42149,0.0,0.0
266,66.25,73.2118,82.5036,144.892,99.4451,94.9095,0.000854873,0.0524022,21.0188,-339.371,0.412387,0.0,0.0
268,66.75,73.2407,82.8304,144.692,99.4551,94.4258,0.00086153,0.0520749,21.0194,-339.411,0.458416,0.0,0.0
270,67.25,72.7148,82.0591,142.545,99.4339,94.8579,0.000865194,0.0517452,21.0198,-339.401,0.416195,0.0,0.0
272,67.75,72.8002,81.6119,142.874,99.4423,95.0735,0.000868162,0.05142,21.0201,-339.431,0.396885,0.0,0.0
274,68.25,72.2961,81.2511,142.677,99.4459,94.8945,0.000869334,0.0511206,21.0204,-339.431,0.413853,0.0,0.0
276,68.75,71.7345,80.6835,138.874,99.4463,94.9919,0.000869176,0.0508459,21.0204,-339.421,0.404826,0.0,0.0
278,69.25,71.574,80.2867,147.879,99.427,94.8766,0.000866487,0.0506089,21.0205,-339.431,0.413844,0.0,0.0
280,69.75,71.4462,79.9858,143.576,99.4375,94.9174,0.000862006,0.0504041,21.0205,-339.421,0.410974,0.0,0.0
282,70.25,70.8588,80.0349,139.557,99.4262,95.2413,0.000852348,0.0502382,21.0206,-339.431,0.379886,0.0,0.0
284,70.75,70.9649,79.7815,143.006,99.4294,94.979,0.000846924,0.0500675,21.0206,-339.411,0.404529,0.0,0.0
286,71.25,70.8013,79.4272,140.772,99.4246,94.7334,0.000837648,0.0498966,21.0206,-339.401,0.426974,0.0,0.0
288,71.75,70.0465,79.0933,141.045,99.4379,94.8596,0.000827704,0.0497151,21.0208,-339.401,0.416396,0.0,0.0
290,72.25,69.0969,78.8785,142.045,99.4178,94.87,0.000819649,0.0495294,21.0212,-339.401,0.413645,0.0,0.0
292,72.75,69.2767,78.4202,142.175,99.423,95.1085,0.00081434,0.0493789,21.0216,-339.411,0.391925,0.0,0.0
294,73.25,69.5229,78.1487,142.655,99.4347,94.8175,0.000810039,0.0490884,21.0218,-339.401,0.420027,0.0,0.0
296,73.75,69.3482,77.9271,140.766,99.4158,95.3732,0.000801694,0.0490103,21.0221,-339.401,0.366728,0.0,0.0
298,74.25,69.0153,77.1719,141.39,99.4202,94.7234,0.000794934,0.0487948,21.0222,-339.401,0.427513,0.0,0.0
300,74.75,68.5921,77.0597,139.545,99.4098,94.4983,0.000789459,0.0486204,21.0224,-339.421,0.447613,0.0,0.0
302,75.25,68.5861,77.5552,142.652,99.4034,94.7963,0.000785024,0.0484431,21.0225,-339.391,0.419225,0.0,0.0
304,75.75,68.3825,76.9074,141.164,99.405,94.7118,0.000781432,0.0482673,21.0226,-339.401,0.427246,0.0,0.0
306,76.25,67.6596,76.1274,140.242,99.3969,95.0981,0.000793111,0.0481177,21.0227,-339.401,0.390575,0.0,0.0
308,76.75,67.4635,75.9255,140.312,99.403,95.2746,0.00080257,0.0479901,21.0227,-339.411,0.37473,0.0,0.0
310,77.25,67.8671,75.8189,142.751,99.3901,94.9283,0.000810233,0.0478724,21.0228,-339.421,0.405759,0.0,0.0
312,77.75,66.8434,75.5991,140.429,99.3885,95.0165,0.000831165,0.0477641,21.0228,-339.411,0.397408,0.0,0.0
314,78.25,66.9739,75.2531,141.974,99.3917,94.7842,0.000861373,0.0476764,21.0229,-339.391,0.419315,0.0,0.0
316,78.75,66.9881,75.0063,142.348,99.3881,94.778,0.00089545,0.0475373,21.023,-339.391,0.419576,0.0,0.0
318,79.25,66.4546,74.4467,144.206,99.3873,94.8121,0.000931701,0.0474245,21.023,-339.371,0.416324,0.0,0.0
320,79.75,66.5983,74.5846,142.684,99.3805,94.8708,0.000964909,0.0473332,21.023,-339.401,0.410251,0.0,0.0
322,80.25,65.9781,73.8472,143.425,99.3777,94.7438,0.000995269,0.0472091,21.0235,-339.401,0.421832,0.0,0.0
324,80.75,66.0718,73.759,142.181,99.3797,94.4067,0.00101986,0.0470633,21.0239,-339.421,0.453504,0.0,0.0
326,81.25,65.8688,73.4171,141.794,99.3801,94.5128,0.00103978,0.0469453,21.0242,-339.411,0.443614,0.0,0.0
328,81.75,66.1339,73.4519,145.84,99.3701,94.4745,0.00105591,0.0468496,21.0245,-339.391,0.446301,0.0,0.0
330,82.25,65.4974,73.4319,146.615,99.3677,94.7817,0.00106386,0.0467937,21.0247,-339.401,0.417408,0.0,0.0
332,82.75,65.2534,73.0708,141.246,99.3673,94.6369,0.00106567,0.0467677,21.0248,-339.381,0.430885,0.0,0.0
334,83.25,65.3138,73.0387,139.358,99.3805,94.8483,0.00106202,0.0467467,21.025,-339.401,0.412344,0.0,0.0
336,83.75,64.5806,72.6143,142.429,99.3693,94.343,0.00105445,0.0467297,21.0251,-339.401,0.458539,0.0,0.0
338,84.25,64.7219,72.5752,142.412,99.3628,94.4629,0.00104127,0.0467159,21.0252,-339.421,0.446749,0.0,0.0
340,84.75,64.4656,72.731,143.796,99.3673,94.9062,0.00102426,0.0466093,21.0252,-339.401,0.40578,0.0,0.0
342,85.25,64.3308,72.0276,141.301,99.3576,94.6727,0.000999596,0.046523,21.0253,-339.421,0.426688,0.0,0.0
344,85.75,64.205,72.2156,141.213,99.3528,94.8096,0.000969823,0.0464316,21.0253,-339.421,0.413489,0.0,0.0
346,86.25,64.0068,71.5484,140.381,99.3584,94.8795,0.000932273,0.0463382,21.0254,-339.431,0.407475,0.0,0.0
348,86.75,63.6068,71.3718,143.451,99.3532,95.1535,0.000889765,0.0462482,21.0258,-339.411,0.381546,0.0,0.0
350,87.25,63.8849,71.6057,142.549,99.3584,94.9116,0.000846383,0.0461625,21.0262,-339.391,0.404492,0.0,0.0
352,87.75,63.4149,71.0293,145.464,99.3428,95.4353,0.000803187,0.0460858,21.0265,-339.381,0.354493,0.0,0.0
354,88.25,63.0695,70.6638,140.284,99.3512,94.368,0.000768198,0.0460172,21.0268,-339.401,0.454595,0.0,0.0
356,88.75,63.0253,70.4277,144.299,99.3364,94.5499,0.000741086,0.045933,21.027,-339.421,0.436262,0.0,0.0
358,89.25,63.0948,70.7654,141.406,99.3552,94.84,0.000720232,0.045839,21.0271,-339.421,0.410872,0.0,0.0
360,89.75,62.7142,70.1388,142.061,99.3327,94.7942,0.000710374,0.0457629,21.0273,-339.411,0.413141,0.0,0.0
362,90.25,62.6551,69.0268,137.675,99.336,94.9187,0.000708719,0.045674,21.0275,-339.411,0.401835,0.0,0.0
364,90.75,61.9748,69.8848,141.88,99.3396,94.8067,0.000707379,0.0456019,21.0277,-339.411,0.412583,0.0,0.0
366,91.25,61.6906,69.4879,141.787,99.3323,94.6544,0.000706932,0.0455164,21.0279,-339.431,0.426149,0.0,0.0
368,91.75,61.9995,69.2228,141.624,99.3151,94.7484,0.000707146,0.0454471,21.0281,-339.451,0.415838,0.0,0.0
370,92.25,62.1667,69.2917,144.069,99.3255,94.5898,0.000702204,0.0453909,21.0282,-339.481,0.431566,0.0,0.0
372,92.75,61.4094,69.0152,141.265,99.3123,94.4624,0.000693597,0.0453325,21.0283,-339.471,0.442293,0.0,0.0
374,93.25,61.824,68.8263,141.606,99.3171,94.6881,0.000681511,0.0452852,21.0284,-339.451,0.421647,0.0,0.0
376,93.75,61.1326,68.485,140.332,99.3015,94.7497,0.000667118,0.0452333,21.0284,-339.451,0.414509,0.0,0.0
378,94.25,61.408,68.1558,140.285,99.3039,94.8329,0.00065482,0.0451912,21.0285,-339.451,0.406965,0.0,0.0
380,94.75,60.7815,68.0759,142.97,99.2942,95.0515,0.000644284,0.0451428,21.0285,-339.411,0.385773,0.0,0.0
382,95.25,61.3764,67.9129,146.21,99.301,94.5236,0.00063575,0.0450907,21.0286,-339.421,0.435572,0.0,0.0
384,95.75,60.4501,68.0576,137.981,99.2866,95.1314,0.000640346,0.0450342,21.0286,-339.401,0.37767,0.0,0.0
386,96.25,60.5098,67.4351,142.586,99.2886,95.2546,0.000654427,0.0449755,21.0286,-339.421,0.366415,0.0,0.0
388,96.75,60.8385,67.6401,142.048,99.2722,94.3796,0.000674788,0.0449423,21.0286,-339.431,0.446473,0.0,0.0
390,97.25,59.7642,66.9329,140.539,99.2794,94.2618,0.00069934,0.0449283,21.0286,-339.441,0.45815,0.0,0.0
392,97.75,60.087,67.1376,140.982,99.2649,94.9886,0.000727548,0.0449169,21.0287,-339.441,0.389011,0.0,0.0
394,98.25,60.0012,66.4181,140.705,99.273,94.7376,0.000757884,0.0448863,21.0287,-339.431,0.4131,0.0,0.0
396,98.75,59.7307,66.2274,139.89,99.2581,94.5686,0.000787578,0.044842,21.0287,-339.441,0.427552,0.0,0.0
398,99.25,59.9128,66.1494,143.884,99.2629,94.6194,0.00081624,0.0447991,21.0287,-339.451,0.423237,0.0,0.0
400,99.75,59.5952,66.302,146.653,99.2381,94.5861,0.000839456,0.0447578,21.0287,-339.471,0.424133,0.0,0.0
402,100.25,59.5927,65.824,140.776,99.2453,94.7755,0.000858261,0.0447459,21.0287,-339.431,0.407105,0.0,0.0
404,100.75,59.6258,66.0173,136.417,99.2128,94.7938,0.00087237,0.0447556,21.0289,-339.431,0.402504,0.0,0.0
406,101.25,59.5033,66.1475,142.698,99.2365,94.6502,0.000883798,0.0447563,21.0293,-339.451,0.418006,0.0,0.0
408,101.75,59.234,65.3971,141.478,99.22,94.6777,0.000887293,0.0447504,21.0295,-339.441,0.413977,0.0,0.0
410,102.25,58.8466,65.1821,145.303,99.2164,94.6202,0.000884938,0.0447456,21.0296,-339.441,0.419017,0.0,0.0
412,102.75,59.282,64.4833,139.863,99.2044,94.6456,0.000883031,0.0447417,21.0296,-339.451,0.415575,0.0,0.0
414,103.25,58.3482,64.7508,139.705,99.1995,94.9641,0.000846234,0.0447243,21.0297,-339.451,0.385473,0.0,0.0
416,103.75,58.7757,64.9688,144.107,99.1839,94.3863,0.000816429,0.0447101,21.0298,-339.461,0.43799,0.0,0.0
418,104.25,58.8866,64.8862,142.087,99.1971,94.4121,0.000767995,0.0446987,21.0298,-339.441,0.436755,0.0,0.0
420,104.75,58.0055,64.8187,140.965,99.1775,94.4862,0.000728763,0.0446894,21.0298,-339.441,0.428074,0.0,0.0
422,105.25,58.6097,64.6232,141.95,99.1867,94.1465,0.000676351,0.0446819,21.0299,-339.461,0.46071,0.0,0.0
424,105.75,58.4264,64.0817,140.269,99.1767,94.8483,0.000633896,0.0446894,21.0299,-339.441,0.394208,0.0,0.0
426,106.25,58.2982,64.027,142.368,99.1763,94.7526,0.000588589,0.0446955,21.0299,-339.441,0.403093,0.0,0.0
428,106.75,58.0188,63.9276,140.984,99.1582,94.4358,0.00055189,0.0447148,21.0299,-339.441,0.431069,0.0,0.0
430,107.25,57.993,64.3864,140.162,99.1574,94.5291,0.00051961,0.0447433,21.0299,-339.441,0.422279,0.0,0.0
432,107.75,57.6346,63.7706,143.447,99.1446,94.5773,0.000491165,0.0447521,21.0299,-339.441,0.416625,0.0,0.0
434,108.25,57.1228,63.5265,141.468,99.1514,94.5132,0.000470678,0.0447463,21.0299,-339.451,0.423221,0.0,0.0
436,108.75,56.3977,63.2232,145.314,99.1374,94.7272,0.000456382,0.0447344,21.0299,-339.461,0.401994,0.0,0.0
438,109.25,57.3378,63.614,142.376,99.1378,94.8858,0.000450288,0.0447183,21.0299,-339.461,0.387252,0.0,0.0
440,109.75,57.4652,62.8094,139.207,99.1189,94.8229,0.000451362,0.0446838,21.0299,-339.471,0.391425,0.0,0.0
442,110.25,56.5561,62.7674,145.381,99.1225,94.6094,0.000462579,0.0446365,21.03,-339.471,0.411665,0.0,0.0
444,110.75,57.1453,62.7929,140.601,99.1129,94.9391,0.000476727,0.0446054,21.03,-339.481,0.380076,0.0,0.0
446,111.25,56.6679,62.6622,145.287,99.1233,94.3963,0.000492742,0.0445866,21.0301,-339.481,0.431658,0.0,0.0
448,111.75,57.0167,62.6767,141.143,99.104,94.4275,0.000505715,0.0445643,21.0303,-339.471,0.427021,0.0,0.0
450,112.25,56.7655,62.5062,144.433,99.102,94.4791,0.000517437,0.0445513,21.0304,-339.471,0.422014,0.0,0.0
452,112.75,56.4354,62.1326,144.541,99.096,94.609,0.000526932,0.0445292,21.0305,-339.461,0.409342,0.0,0.0
454,113.25,56.9002,62.9233,142.684,99.0916,94.1723,0.000527337,0.0445113,21.0305,-339.451,0.449816,0.0,0.0
456,113.75,56.1516,61.9937,141.19,99.1093,94.1915,0.000527666,0.0444703,21.0306,-339.471,0.449594,0.0,0.0
458,114.25,56.4264,61.8006,144.244,99.0904,94.1973,0.000513368,0.044437,21.0306,-339.451,0.447367,0.0,0.0
460,114.75,56.2822,61.4614,138.882,99.074,94.4079,0.000501786,0.0443829,21.0307,-339.461,0.426168,0.0,0.0
462,115.25,56.5188,61.8978,144.287,99.0764,94.4866,0.000487551,0.044339,21.0307,-339.461,0.419024,0.0,0.0
464,115.75,56.0802,61.6277,143.035,99.0651,94.8766,0.000476021,0.0443035,21.0307,-339.461,0.381631,0.0,0.0
466,116.25,55.7178,61.477,141.522,99.0595,94.1935,0.000466682,0.0442747,21.0307,-339.461,0.444964,0.0,0.0
468,116.75,55.6497,60.8828,146.327,99.0659,94.2398,0.000465184,0.0442786,21.0308,-339.471,0.441203,0.0,0.0
470,117.25,55.7849,61.1405,144.229,99.0479,94.6652,0.00046397,0.0442818,21.0308,-339.451,0.399804,0.0,0.0
472,117.75,55.549,60.5196,142.578,99.0487,94.6219,0.000471483,0.0442485,21.0308,-339.441,0.403916,0.0,0.0
474,118.25,55.4956,60.9911,140.487,99.0374,94.6827,0.000477569,0.0441894,21.0308,-339.421,0.397242,0.0,0.0
476,118.75,55.4134,60.5724,145.928,99.035,94.1282,0.000494639,0.0441629,21.0308,-339.411,0.448912,0.0,0.0
478,119.25,55.4691,60.7415,141.933,99.0455,94.3642,0.000508465,0.0441609,21.0308,-339.411,0.427719,0.0,0.0
480,119.75,55.423,61.0838,142.201,99.0338,94.4067,0.000525417,0.0441592,21.0308,-339.421,0.422707,0.0,0.0
482,120.25,55.3491,59.9818,141.007,99.013,94.3089,0.000544325,0.0442123,21.0308,-339.431,0.430004,0.0,0.0
484,120.75,54.3696,60.0436,144.341,99.0154,94.2094,0.000569872,0.0442553,21.0308,-339.431,0.439543,0.0,0.0
486,121.25,54.8061,60.4933,140.23,99.0102,94.3459,0.000599773,0.0442615,21.0308,-339.431,0.426284,0.0,0.0
488,121.75,54.8131,60.5019,143.16,99.0102,94.5195,0.000632309,0.0442407,21.0308,-339.421,0.410045,0.0,0.0
490,122.25,54.6951,60.1828,141.486,98.9993,94.4208,0.000666149,0.0442167,21.0308,-339.431,0.418304,0.0,0.0
492,122.75,54.7059,60.0451,141.381,99.0021,94.4491,0.000693558,0.0441908,21.0311,-339.411,0.415906,0.0,0.0
494,123.25,55.0858,60.0049,139.702,98.9985,94.241,0.00071576,0.0441698,21.0315,-339.431,0.435074,0.0,0.0
496,123.75,54.7746,59.6545,143.42,98.9933,94.3713,0.000733744,0.0441664,21.0318,-339.421,0.422402,0.0,0.0
498,124.25,54.8018,59.5408,143.721,98.9877,94.2756,0.000778718,0.0441637,21.0319,-339.421,0.430868,0.0,0.0
500,124.75,54.6335,59.5111,141.801,99.0033,94.621,0.000815147,0.0441478,21.0319,-339.441,0.399949,0.0,0.0
502,125.25,54.3257,59.423,144.347,98.9805,94.2551,0.000838571,0.044135,21.0319,-339.421,0.432136,0.0,0.0
504,125.75,54.6502,59.3333,143.475,98.9781,94.6007,0.000857544,0.0441246,21.0319,-339.441,0.399597,0.0,0.0
506,126.25,54.1619,59.205,142.151,98.97,95.0444,0.000861966,0.0440733,21.0319,-339.441,0.357542,0.0,0.0
508,126.75,54.362,58.4429,144.009,98.9773,94.241,0.000865547,0.0439929,21.0319,-339.461,0.433176,0.0,0.0
510,127.25,54.1709,58.8816,143.443,98.9664,94.1969,0.000864799,0.0439279,21.0319,-339.451,0.436346,0.0,0.0
512,127.75,54.2137,58.5406,140.443,98.9757,94.2706,0.000864193,0.0438967,21.0319,-339.431,0.430262,0.0,0.0
514,128.25,53.7287,58.9419,142.304,98.9608,94.1428,0.000863062,0.0438907,21.0318,-339.441,0.440921,0.0,0.0
516,128.75,53.6687,58.9693,142.061,98.964,94.2539,0.00086157,0.0439268,21.0318,-339.431,0.430784,0.0,0.0
518,129.25,54.0722,58.5789,142.479,98.954,94.3355,0.000857801,0.0439559,21.0318,-339.441,0.422245,0.0,0.0
520,129.75,53.7374,58.9156,145.357,98.9692,94.2248,0.000852444,0.0439524,21.0318,-339.441,0.433982,0.0,0.0
522,130.25,53.78,58.6124,141.4,98.95,94.6127,0.000848105,0.0439495,21.0318,-339.451,0.395963,0.0,0.0
524,130.75,54.2806,57.914,142.219,98.9508,94.1374,0.000833715,0.0439543,21.0318,-339.441,0.440532,0.0,0.0
526,131.25,53.3429,58.3054,143.698,98.9375,94.1886,0.00081227,0.0439646,21.0318,-339.451,0.434547,0.0,0.0
528,131.75,53.2814,58.3786,140.124,98.9456,94.1648,0.000789145,0.0439587,21.0318,-339.431,0.437489,0.0,0.0
530,132.25,53.553,58.0501,140.669,98.9355,94.221,0.000765234,0.043941,21.0318,-339.461,0.431324,0.0,0.0
532,132.75,53.4542,57.9515,142.249,98.9379,94.4429,0.000745865,0.0439266,21.0318,-339.471,0.410761,0.0,0.0
534,133.25,53.317,57.8426,141.823,98.9239,94.0503,0.000716816,0.0438605,21.0318,-339.481,0.4463,0.0,0.0
536,133.75,53.3075,57.8143,142.722,98.9424,94.3638,0.000693287,0.043807,21.0318,-339.511,0.418556,0.0,0.0
538,134.25,53.54,57.3546,144.321,98.9291,94.3159,0.000662085,0.0437637,21.0318,-339.471,0.421856,0.0,0.0
540,134.75,53.4128,58.0403,142.754,98.9263,94.1369,0.000636812,0.0437694,21.0318,-339.471,0.438387,0.0,0.0
542,135.25,53.2095,57.3072,141.305,98.9223,94.4071,0.000605417,0.043774,21.0318,-339.491,0.412713,0.0,0.0
544,135.75,52.8356,57.6246,143.597,98.9199,94.4987,0.000579987,0.0438186,21.0318,-339.491,0.403933,0.0,0.0
546,136.25,52.7372,57.3303,143.257,98.9087,94.2019,0.000554534,0.0438547,21.0318,-339.491,0.430718,0.0,0.0
548,136.75,53.1062,57.017,141.25,98.9199,93.9858,0.000533917,0.0438704,21.0318,-339.501,0.452004,0.0,0.0
550,137.25,52.8275,57.3983,139.673,98.897,93.9738,0.000517217,0.0438831,21.0318,-339.501,0.451097,0.0,0.0
552,137.75,52.6008,56.751,139.625,98.9103,94.338,0.000510973,0.0438933,21.0318,-339.481,0.418105,0.0,0.0
554,138.25,52.6397,57.3483,139.778,98.8926,94.3022,0.000505914,0.0439016,21.0318,-339.471,0.419882,0.0,0.0
556,138.75,52.3183,56.9315,139.646,98.9006,93.724,0.00051517,0.0438675,21.0318,-339.471,0.474929,0.0,0.0
558,139.25,52.9432,56.3601,142.203,98.891,94.2597,0.000522667,0.0438399,21.0318,-339.491,0.423717,0.0,0.0
560,139.75,52.3386,56.9536,142.119,98.899,94.2002,0.000536026,0.0438247,21.0318,-339.491,0.430015,0.0,0.0
562,140.25,52.5979,56.7426,142.974,98.8818,94.1411,0.000546846,0.0438188,21.0318,-339.491,0.434018,0.0,0.0
564,140.75,52.7815,56.9668,142.501,98.8794,93.9946,0.000549539,0.0438141,21.0318,-339.471,0.447564,0.0,0.0
566,141.25,52.6452,56.4614,142.574,98.8754,94.3663,0.00055172,0.0438238,21.0318,-339.471,0.412338,0.0,0.0
568,141.75,52.4369,56.626,142.606,98.8858,94.8483,0.000547786,0.0438317,21.0318,-339.461,0.368259,0.0,0.0
570,142.25,52.4288,56.0703,141.916,98.8754,94.3646,0.000539469,0.0438654,21.0314,-339.461,0.412493,0.0,0.0
572,142.75,52.1208,56.0807,141.488,98.877,94.3688,0.000528899,0.0438926,21.031,-339.471,0.412247,0.0,0.0
574,143.25,52.2475,56.3223,142.919,98.8573,94.5719,0.000516888,0.0439419,21.0307,-339.481,0.391495,0.0,0.0
576,143.75,52.5186,55.7443,141.923,98.8733,94.2706,0.000507159,0.0439818,21.0303,-339.481,0.421126,0.0,0.0
578,144.25,52.4993,56.1672,141.649,98.8589,94.3359,0.000499279,0.043978,21.03,-339.461,0.413713,0.0,0.0
580,144.75,52.501,56.0115,142.528,98.8657,93.9409,0.00049775,0.0439423,21.0297,-339.451,0.451393,0.0,0.0
582,145.25,51.5982,55.9656,143.328,98.8621,94.3459,0.000496511,0.0439205,21.0295,-339.441,0.413065,0.0,0.0
584,145.75,51.6058,55.7788,140.436,98.8665,94.3767,0.000512504,0.0439094,21.0294,-339.441,0.410575,0.0,0.0
586,146.25,52.1121,56.2067,144.46,98.8465,94.5082,0.000525459,0.0439003,21.0292,-339.441,0.396479,0.0,0.0
588,146.75,52.4492,56.2278,141.863,98.8505,93.9409,0.000535952,0.043893,21.0291,-339.451,0.450031,0.0,0.0
590,147.25,51.5303,55.5965,143.48,98.842,94.273,0.000559157,0.0438734,21.029,-339.451,0.418095,0.0,0.0
592,147.75,51.5444,56.1763,144.812,98.8533,94.2581,0.000591188,0.0438576,21.0289,-339.471,0.420503,0.0,0.0
594,148.25,51.5969,55.7985,141.965,98.8409,94.0208,0.00061969,0.0438591,21.0288,-339.501,0.441658,0.0,0.0
596,148.75,51.5872,56.0038,143.574,98.8328,94.1382,0.00064508,0.0438732,21.0288,-339.501,0.429917,0.0,0.0
598,149.25,51.861,55.7145,141.648,98.8348,94.0578,0.000655904,0.0438847,21.0288,-339.481,0.437639,0.0,0.0
600,149.75,52.2052,55.5217,146.619,98.8469,94.2406,0.000665907,0.0438939,21.0287,-339.481,0.421568,0.0,0.0
602,150.25,51.9209,56.1794,144.731,98.8328,94.5295,0.000665696,0.0439014,21.0287,-339.461,0.393274,0.0,0.0
604,150.75,51.517,55.2091,140.843,98.8296,94.41,0.000658045,0.0439075,21.0286,-339.481,0.404159,0.0,0.0
606,151.25,51.9227,55.3974,140.725,98.828,94.0803,0.000651848,0.0439124,21.0286,-339.481,0.434918,0.0,0.0
608,151.75,52.1029,55.4711,142.183,98.8461,94.1011,0.000646828,0.0438949,21.0286,-339.491,0.434578,0.0,0.0
610,152.25,51.8804,55.14,136.562,98.8409,93.868,,0.0438773,,-339.481,0.456023,0.0,0.0
612,152.75,51.6287,55.3646,142.674,98.8449,94.2747,,0.0438471,,-339.461,0.41819,0.0,0.0
614,153.25,51.8515,54.7236,142.652,98.8649,94.3888,,0.0438635,,-339.491,0.409302,0.0,0.0
616,153.75,51.3483,54.9149,141.06,98.8826,93.9388,,0.0438768,,-339.461,0.453095,0.0,0.0
618,154.25,51.5183,55.0159,143.857,98.8842,94.2805,,0.0438467,,-339.481,0.421158,0.0,0.0
620,154.75,51.5707,55.6164,141.864,98.8994,93.7098,,0.0438223,,-339.481,0.476156,0.0,0.0
622,155.25,50.8247,54.8048,139.897,98.9199,93.7606,,,,-339.491,0.473198,0.0,0.0
624,155.75,51.4328,54.8431,142.915,98.9231,94.2606,,,,-339.471,0.426505,0.0,0.0
626,156.25,51.4734,54.9754,144.165,98.9323,94.015,,,,-339.481,0.450377,0.0,0.0
628,156.75,51.2181,54.6176,138.885,98.9335,94.3505,,,,-339.461,0.419015,0.0,0.0
630,157.25,51.3813,54.7923,143.841,98.9528,93.9163,,,,-339.451,0.461479,0.0,0.0
632,157.75,51.7869,54.4277,145.051,98.9672,94.4729,,,,-339.451,0.410573,0.0,0.0
634,158.25,51.0176,54.7475,143.505,98.9769,93.786,,,,-339.441,0.475892,0.0,0.0
636,158.75,51.0168,54.5373,144.113,98.9813,93.97,,,,-339.451,0.458973,0.0,0.0
638,159.25,50.4996,54.4958,141.802,98.9929,94.1731,,,,-339.451,0.440934,0.0,0.0
640,159.75,50.8295,54.5449,142.261,98.9953,94.3372,,,,-339.441,0.425778,0.0,0.0
642,160.25,51.0038,54.5644,142.312,99.023,94.5898,,,,-339.451,0.404619,0.0,0.0
644,160.75,51.354,54.7886,140.384,99.0278,94.246,,,,-339.461,0.437218,0.0,0.0
646,161.25,51.0503,54.7065,140.655,99.0571,94.5757,,,,-339.441,0.408982,0.0,0.0
648,161.75,51.1295,54.1045,142.19,99.0691,94.6702,,,,-339.441,0.401234,0.0,0.0
650,162.25,50.5899,53.8016,142.944,99.0856,94.3421,,,,-339.441,0.433362,0.0,0.0
652,162.75,50.8702,54.4163,141.909,99.094,94.4304,,,,-339.451,0.425854,0.0,0.0
653,163,51.0719,54.1149,143.585,99.1028,94.1786,,,,-339.451,0.450232,0.0,0.0