File: 01_Data/XPS_Foam_Board/Cone/XPS_Foam_Insulation_Cone_HF25Scan_220412_R1.csv
Names,Time,Stack TC,Smoke TC,Exh Press,Smoke Comp,Smoke Meas,CO Meter,CO2 Meter,O2 Meter,Sample Mass,Ext Coeff,Start Test,Flame Verif
Chan Gain,,500,500,1,1,1,1,1,1,1,1,1.0,1.0
Offset,,0,0,0.134314,0,0,0,0,0,0,0,0.0,0.0
Gain,,1,1,25.011,13.1473,13.6402,1,1,1,1.00092,1.00708,1.0,1.0
Units,sec,C,C,Pa,%,%,%,%,%,g,/m,,
Baseline,,19.1494,19.5154,155.92,98.3522,93.5942,0.000798117,0.0499281,21.0165,-833.761,0.438062,,
4,0.75,17.7409,18.5798,154.257,98.8453,93.9005,0.000886329,0.0645558,21.0024,-330.082,0.453362,0.0,0.0
8,1.75,17.853,18.537,155.632,98.8388,94.102,0.000854758,0.0633374,21.0037,-330.112,0.433854,0.0,0.0
12,2.75,17.6873,18.1722,157.554,98.8533,94.035,0.000861459,0.0626285,21.0037,-330.152,0.441439,0.0,0.0
16,3.75,18.1508,18.5824,156.655,98.8665,93.8489,0.000888223,0.0626221,21.0029,-330.172,0.460119,0.0,0.0
20,4.75,18.1508,18.1919,156.868,98.8529,93.9034,0.000950318,0.0630931,21.0025,-330.202,0.453769,0.0,0.0
24,5.75,17.9033,18.3897,152.977,98.8589,93.826,0.000995969,0.0641968,21.0022,-330.222,0.461594,0.0,0.0
28,6.75,18.3797,18.7732,155.624,98.8585,94.0961,0.00104261,0.0652689,21.002,-330.242,0.436158,0.0,0.0
32,7.75,18.0406,19.0919,156.772,98.8589,93.7386,0.00107321,0.0657569,21.0018,-330.262,0.469828,0.0,0.0
36,8.75,18.1184,18.1898,155.212,98.8697,94.2035,0.00108888,0.065689,21.0024,-330.282,0.427085,0.0,0.0
40,9.75,18.3743,18.4199,153.311,98.8729,93.5558,0.00108373,0.0652171,21.0035,-330.302,0.488322,0.0,0.0
44,10.75,18.5718,18.5991,158.253,98.8685,94.0191,0.00105602,0.0644222,21.0044,-330.302,0.444288,0.0,0.0
48,11.75,17.9714,18.3893,159.962,98.8798,93.9038,0.00100467,0.0634867,21.005,-330.343,0.456133,0.0,0.0
52,12.75,18.4519,18.7117,154.919,98.8725,93.7739,0.00092733,0.0626021,21.0054,-330.343,0.467713,0.0,0.0
56,13.75,18.2703,18.7169,154.059,98.8737,93.2478,0.000843666,0.0617405,21.0065,-330.373,0.517527,0.0,0.0
60,14.75,18.1619,18.9336,157.73,98.879,93.4609,0.000775738,0.0607787,21.008,-330.383,0.497825,0.0,0.0
64,15.75,18.2526,18.7342,156.99,98.8685,93.8247,0.000737407,0.0598353,21.0094,-330.383,0.462571,0.0,0.0
68,16.75,18.457,18.9963,155.487,98.8737,93.1454,0.00076253,0.0588397,21.0109,-330.403,0.527234,0.0,0.0
72,17.75,18.3348,18.6979,151.719,98.8681,93.5904,0.000803483,0.0577762,21.012,-330.423,0.48463,0.0,0.0
76,18.75,18.4444,18.4945,155.964,98.8681,93.5492,0.000830898,0.0568814,21.0136,-330.413,0.48852,0.0,0.0
80,19.75,18.243,18.7489,156.519,98.8657,93.8689,0.000828591,0.0560311,21.0146,-330.393,0.458168,0.0,0.0
84,20.75,18.2602,18.1949,156.861,98.8601,93.4863,0.000794076,0.0551766,21.0153,-330.423,0.493741,0.0,0.0
88,21.75,18.3535,18.5526,154.504,98.8573,93.4355,0.000758236,0.0544383,21.0163,-330.413,0.49829,0.0,0.0
92,22.75,18.4013,18.6626,156.564,98.8505,93.3477,0.000743516,0.0536873,21.0172,-330.423,0.505989,0.0,0.0
96,23.75,18.3457,18.3989,154.45,98.8509,93.3606,0.000750352,0.0530267,21.0179,-330.413,0.504803,0.0,0.0
100,24.75,18.3165,18.3028,160.291,98.8529,93.4114,0.00076518,0.0524971,21.0181,-330.423,0.500178,0.0,0.0
104,25.75,18.3611,18.4446,156.926,98.8384,93.3181,0.000786688,0.0521028,21.0184,-330.423,0.50771,0.0,0.0
108,26.75,18.6315,18.8669,154.816,98.8308,93.085,0.000801785,0.0517543,21.0185,-330.433,0.529124,0.0,0.0
112,27.75,18.5067,18.9776,156.174,98.8232,93.4276,0.000809259,0.0515973,21.0186,-330.443,0.49599,0.0,0.0
116,28.75,18.4918,19.2571,154.674,98.8248,93.1421,0.000808545,0.0516249,21.0187,-330.433,0.523176,0.0,0.0
120,29.75,18.6756,18.6817,152.85,98.8184,93.1067,0.000812418,0.0518654,21.0188,-330.433,0.525958,0.0,0.0
124,30.75,18.3038,18.9357,155.17,98.8087,93.2016,0.000820869,0.0522951,21.0188,-330.443,0.516097,0.0,0.0
128,31.75,18.7995,19.3128,158.386,98.8047,92.8673,0.000855029,0.0529479,21.018,-330.443,0.547477,0.0,0.0
132,32.75,18.3724,18.4513,154.08,98.7987,92.546,0.000895057,0.0537075,21.0175,-330.443,0.577562,0.0,0.0
136,33.75,18.7461,18.658,152.287,98.7923,93.1167,0.000940414,0.0544121,21.0172,-330.443,0.522678,0.0,0.0
140,34.75,18.994,19.0471,154.427,98.7839,92.6692,0.000990936,0.0547828,21.0169,-330.443,0.564481,0.0,0.0
144,35.75,18.3927,18.6343,152.785,98.7742,92.8727,0.00104739,0.0548328,21.0172,-330.433,0.544236,0.0,0.0
148,36.75,19.056,18.9633,160.649,98.7726,92.5322,0.00110695,0.0545585,21.0178,-330.453,0.57654,0.0,0.0
152,37.75,18.2099,19.2717,153.199,98.7634,92.3986,0.00115558,0.0541066,21.0181,-330.443,0.588481,0.0,0.0
156,38.75,19.0188,19.1935,154.681,98.7526,92.7083,0.00119143,0.0535669,21.0184,-330.443,0.557952,0.0,0.0
160,39.75,18.91,19.4779,151.95,98.7498,92.66,0.00119789,0.0530902,21.0186,-330.453,0.562303,0.0,0.0
164,40.75,18.2725,19.5178,153.002,98.7353,92.9818,0.00116275,0.0525303,21.0188,-330.453,0.530388,0.0,0.0
168,41.75,18.5593,19.1395,154.306,98.7385,92.5526,0.00109343,0.0520696,21.0192,-330.463,0.571543,0.0,0.0
172,42.75,18.7098,19.2823,154.439,98.7269,92.5002,0.00100901,0.0515396,21.02,-330.463,0.575509,0.0,0.0
176,43.75,18.4879,19.3627,154.02,98.7329,92.7329,0.000936928,0.0509696,21.0213,-330.463,0.553854,0.0,0.0
180,44.75,18.961,18.6921,155.103,98.71,92.6117,0.000884955,0.0504228,21.0222,-330.463,0.563354,0.0,0.0
184,45.75,18.5548,19.6512,154.271,98.7197,92.5131,0.000870661,0.049916,21.0227,-330.473,0.573631,0.0,0.0
188,46.75,18.5807,18.9695,155.81,98.6948,93.0497,0.000865684,0.049564,21.0231,-330.473,0.520316,0.0,0.0
192,47.75,18.8274,19.0293,156.978,98.6932,92.7345,0.00085548,0.0492596,21.0233,-330.483,0.550141,0.0,0.0
196,48.75,18.5224,19.259,157.504,98.6856,92.5189,0.000824917,0.0489688,21.0235,-330.483,0.570021,0.0,0.0
200,49.75,19.2589,19.3349,156.423,98.6707,92.5164,0.00078753,0.0486547,21.0236,-330.493,0.568931,0.0,0.0
204,50.75,18.6769,19.6153,156.551,98.6679,92.4694,0.000739278,0.0483396,21.0237,-330.493,0.573173,0.0,0.0
208,51.75,19.4151,19.5518,155.92,98.6615,92.0789,0.000704538,0.0480731,21.0237,-330.503,0.609979,0.0,0.0
212,52.75,18.8647,19.3733,152.356,98.6567,92.6309,0.000662474,0.047888,21.0238,-330.503,0.55675,0.0,0.0
216,53.75,18.8733,19.2498,155.206,98.6535,92.1867,0.000641111,0.047784,21.0238,-330.513,0.598922,0.0,0.0
220,54.75,18.8125,19.6507,156.604,98.6422,92.4402,0.000664471,0.047672,21.0238,-330.503,0.573658,0.0,0.0
224,55.75,19.302,19.0636,159.883,98.6282,92.3707,0.000711003,0.0475138,21.0238,-330.513,0.579046,0.0,0.0
228,56.75,18.9664,19.4872,152.822,98.6286,92.3674,0.000769007,0.0473659,21.0238,-330.503,0.5794,0.0,0.0
232,57.75,18.8313,18.8298,157.537,98.6194,92.173,0.000801789,0.0472688,21.0238,-330.523,0.597184,0.0,0.0
236,58.75,19.3506,19.4052,154.227,98.6154,92.4869,0.000807701,0.0472195,21.0238,-330.523,0.566795,0.0,0.0
240,59.75,19.0678,18.7747,151.304,98.6162,92.215,0.000771418,0.0472221,21.0238,-330.533,0.592869,0.0,0.0
244,60.75,18.7558,19.1871,158.449,98.6093,91.9911,0.000725778,0.0472238,21.0238,-330.533,0.613738,0.0,0.0
248,61.75,18.7355,19.4416,156.744,98.6005,91.957,0.000660838,0.0472496,21.0238,-330.533,0.616226,0.0,0.0
252,62.75,19.1366,20.0368,157.86,98.6033,91.87,0.000584255,0.0473054,21.0236,-330.543,0.624839,0.0,0.0
256,63.75,18.722,19.0622,155.208,98.5909,92.0169,0.000486711,0.0473245,21.023,-330.543,0.609606,0.0,0.0
260,64.75,18.5704,19.3782,160.295,98.5869,92.3287,0.000366186,0.0473143,21.0226,-330.533,0.579364,0.0,0.0
264,65.75,18.9202,19.6247,155.803,98.5933,92.4702,0.000266895,0.0474049,21.0223,-330.543,0.566409,0.0,0.0
268,66.75,19.0601,19.4033,159.243,98.5788,92.3587,0.000213843,0.0476654,21.0221,-330.553,0.575779,0.0,0.0
272,67.75,19.072,19.5897,156.287,98.5805,92.3703,0.000211669,0.0478971,21.022,-330.573,0.574808,0.0,0.0
276,68.75,18.9536,19.1722,157.236,98.5712,91.6252,0.000273494,0.0480529,21.022,-330.563,0.64553,0.0,0.0
280,69.75,18.7058,19.6349,155.045,98.5728,92.5626,0.000386088,0.0481448,21.0219,-330.563,0.555751,0.0,0.0
284,70.75,19.5976,19.6963,150.689,98.5636,91.4091,0.000527332,0.0482083,21.0219,-330.573,0.665701,0.0,0.0
288,71.75,19.2574,19.432,153.247,98.5724,92.2741,0.000641194,0.0482006,21.0219,-330.573,0.58329,0.0,0.0
292,72.75,19.0592,19.5314,157.327,98.5965,92.6671,0.000721734,0.0481749,21.0218,-330.583,0.547906,0.0,0.0
296,73.75,19.1929,19.7348,154.601,98.6258,91.8866,0.000710772,0.048193,21.0221,-330.583,0.625251,0.0,0.0
300,74.75,19.189,19.9343,156.655,98.6603,92.1951,0.000666205,0.0482556,21.0223,-330.603,0.598736,0.0,0.0
304,75.75,19.5341,19.6722,158.6,98.68,92.5426,0.000640429,0.0483549,21.0224,-330.593,0.567254,0.0,0.0
308,76.75,19.5605,19.8671,154.426,98.7024,92.6176,0.000645237,0.0484631,21.0225,-330.613,0.562116,0.0,0.0
312,77.75,19.269,19.7047,156.703,98.7293,92.2766,0.000664382,0.0485705,21.0226,-330.613,0.597099,0.0,0.0
316,78.75,19.459,19.623,155.686,98.7542,92.2134,0.000667609,0.0486975,21.0226,-330.613,0.605384,0.0,0.0
320,79.75,18.9476,19.6581,157.299,98.7863,92.0739,0.000651764,0.0488262,21.0226,-330.623,0.621623,0.0,0.0
324,80.75,19.55,19.7595,150.816,98.8027,91.9799,0.000599767,0.0488429,21.0226,-330.643,0.632125,0.0,0.0
328,81.75,18.9921,19.153,153.429,98.8296,92.0793,0.000550401,0.0487313,21.0227,-330.643,0.624979,0.0,0.0
332,82.75,19.057,19.7796,153.944,98.8392,92.2463,0.000514379,0.048584,21.0227,-330.633,0.609839,0.0,0.0
336,83.75,19.6161,19.8195,155.51,98.8665,92.2687,0.000489188,0.0484874,21.0224,-330.643,0.610125,0.0,0.0
340,84.75,19.1288,20.0502,158.068,98.8778,91.9907,0.000468268,0.0484506,21.0222,-330.643,0.637792,0.0,0.0
344,85.75,19.2048,19.513,156.358,98.891,91.9611,0.000456457,0.0485161,21.0221,-330.643,0.641813,0.0,0.0
348,86.75,19.1424,20.1608,157.259,98.9079,91.8741,0.000453382,0.0486825,21.0222,-330.653,0.65168,0.0,0.0
352,87.75,18.8452,19.7956,157.93,98.9319,91.9424,0.000471134,0.0488469,21.0217,-330.663,0.647268,0.0,0.0
356,88.75,19.3645,19.9641,154.353,98.9496,91.78,0.000499359,0.049266,21.0213,-330.663,0.664456,0.0,0.0
360,89.75,19.2154,19.9516,156.643,98.9624,92.1314,0.000547988,0.0496657,21.0209,-330.663,0.631851,0.0,0.0
364,90.75,19.7161,19.8451,153.478,98.9741,91.9632,0.000620616,0.0499467,21.0206,-330.673,0.64903,0.0,0.0
368,91.75,19.0779,19.6714,154.744,98.9857,92.5951,0.000708809,0.0500356,21.0205,-330.693,0.589576,0.0,0.0
372,92.75,19.3312,20.0612,157.85,98.9989,92.0689,0.000773761,0.0500484,21.0204,-330.693,0.641099,0.0,0.0
376,93.75,19.239,19.8962,158.387,99.0114,91.6169,0.000815315,0.0500393,21.0203,-330.703,0.685691,0.0,0.0
380,94.75,19.3741,19.664,157.002,99.0202,92.4839,0.000783166,0.0501074,21.0205,-330.703,0.603265,0.0,0.0
384,95.75,19.6815,19.8257,152.581,99.0543,91.957,0.00071703,0.0501726,21.0207,-330.713,0.656789,0.0,0.0
388,96.75,20.0052,19.993,158.061,99.0346,92.399,0.000644206,0.0502345,21.0208,-330.723,0.612668,0.0,0.0
392,97.75,19.2532,19.4718,155.008,99.0515,91.984,0.000590553,0.0501634,21.0209,-330.723,0.653939,0.0,0.0
396,98.75,19.3291,20.2519,150.01,99.0619,91.452,0.000585266,0.050003,21.0209,-330.723,0.70611,0.0,0.0
400,99.75,19.2888,19.9582,157.469,99.0655,91.8358,0.000610121,0.0498986,21.0209,-330.723,0.669436,0.0,0.0
404,100.75,19.2206,20.1448,154.676,99.0832,92.1056,0.000644139,0.0500074,21.021,-330.733,0.6451,0.0,0.0
408,101.75,19.5604,20.4572,157.227,99.0928,91.9774,0.000701657,0.0502264,21.0204,-330.743,0.658264,0.0,0.0
412,102.75,19.0849,20.2838,153.565,99.0888,92.0689,0.000745996,0.0506514,21.0198,-330.753,0.649116,0.0,0.0
416,103.75,19.7622,19.9367,155.939,99.1032,92.0514,0.000775087,0.0510081,21.0194,-330.753,0.652081,0.0,0.0
420,104.75,19.3515,19.8675,154.339,99.1149,91.6731,0.000794174,0.0512084,21.0192,-330.763,0.689505,0.0,0.0
424,105.75,19.8158,19.7475,153.627,99.1309,92.0902,0.000798186,0.0512167,21.019,-330.773,0.650834,0.0,0.0
428,106.75,19.5576,20.0826,155.919,99.1285,91.6019,0.000784203,0.0509288,21.0191,-330.773,0.697583,0.0,0.0
432,107.75,19.7848,19.7833,152.201,99.1558,91.7447,0.000762676,0.0504948,21.0198,-330.773,0.686255,0.0,0.0
436,108.75,20.3307,20.4778,152.508,99.165,91.7905,0.000737634,0.0501113,21.0202,-330.793,0.68267,0.0,0.0
440,109.75,19.461,20.1865,159.459,99.1711,92.2309,0.000724848,0.0497116,21.0205,-330.813,0.640921,0.0,0.0
444,110.75,19.3175,20.2767,153.532,99.1751,92.0027,0.000731565,0.0493715,21.0208,-330.813,0.663155,0.0,0.0
448,111.75,19.8471,20.4024,164.247,99.1935,91.7472,0.000760404,0.0491275,21.0211,-330.823,0.689374,0.0,0.0
452,112.75,19.6743,20.3298,157.914,99.2128,91.8392,0.000799656,0.0490661,21.0212,-330.843,0.682236,0.0,0.0
456,113.75,19.6083,20.1607,154.342,99.22,91.5952,0.000831665,0.0492233,21.0213,-330.833,0.706374,0.0,0.0
460,114.75,19.1711,19.9589,156.928,99.2212,91.8158,0.000851104,0.0494005,21.0213,-330.843,0.685228,0.0,0.0
464,115.75,19.0733,20.2223,157.602,99.2316,91.6319,0.000851717,0.0495415,21.0208,-330.843,0.703877,0.0,0.0
468,116.75,19.4121,19.7809,152.154,99.2421,90.7619,0.000846421,0.0497118,21.0202,-330.843,0.789081,0.0,0.0
472,117.75,19.2651,20.4548,151.163,99.2497,91.8383,0.000842192,0.0498445,21.0198,-330.853,0.685603,0.0,0.0
476,118.75,19.6147,19.9728,159.31,99.2613,91.2976,0.000841619,0.0499315,21.0196,-330.873,0.738804,0.0,0.0
480,119.75,19.6442,20.063,154.549,99.2657,92.0635,0.00083858,0.0499145,21.0194,-330.883,0.665395,0.0,0.0
484,120.75,19.7205,20.4231,155.458,99.2774,91.5407,0.000827552,0.0499775,21.0196,-330.893,0.716742,0.0,0.0
488,121.75,19.9215,20.5042,157.607,99.2978,91.37,0.000815393,0.0500188,21.0202,-330.883,0.735048,0.0,0.0
492,122.75,19.5176,20.6375,162.58,99.2882,92.1247,0.000818418,0.0500706,21.02,-330.913,0.661525,0.0,0.0
496,123.75,19.187,20.1538,158.79,99.3027,91.5086,0.000833608,0.0501292,21.0202,-330.923,0.722085,0.0,0.0
500,124.75,19.7001,20.2843,158.974,99.3139,91.4341,0.000847977,0.0501288,21.0206,-330.913,0.73028,0.0,0.0
504,125.75,19.5491,19.8875,158.543,99.3199,91.0682,0.000844199,0.0500908,21.0209,-330.933,0.766237,0.0,0.0
508,126.75,20.1313,20.1206,155.487,99.3372,91.3775,0.000826113,0.0500222,21.0211,-330.933,0.73782,0.0,0.0
512,127.75,19.8611,20.6954,151.723,99.3335,91.7996,0.000813516,0.0499175,21.0212,-330.953,0.696787,0.0,0.0
516,128.75,19.6781,20.4276,153.757,99.3335,90.8447,0.000808744,0.04986,21.0213,-330.953,0.789162,0.0,0.0
520,129.75,20.2415,20.8497,156.681,99.3408,91.2173,0.000811854,0.0498923,21.0214,-330.973,0.753649,0.0,0.0
524,130.75,19.3065,20.4188,157.866,99.342,91.7068,0.000805094,0.0502098,21.0208,-330.983,0.706475,0.0,0.0
528,131.75,19.5506,20.2456,153.046,99.3492,90.7535,0.000787457,0.0505155,21.0202,-330.973,0.799422,0.0,0.0
532,132.75,19.5574,20.5709,156.628,99.3504,91.708,0.000766164,0.0508514,21.0198,-330.993,0.707103,0.0,0.0
536,133.75,19.7341,20.2835,156.631,99.3681,90.6761,0.00074432,0.0512285,21.0196,-330.983,0.808639,0.0,0.0
540,134.75,19.3039,20.0112,156.271,99.3588,92.0544,0.000738303,0.0515312,21.0186,-331.013,0.674554,0.0,0.0
544,135.75,19.9685,20.5844,156.986,99.362,91.8013,0.000754637,0.0517792,21.018,-331.013,0.69916,0.0,0.0
548,136.75,19.8092,20.6618,154.935,99.3564,91.1015,0.000793102,0.051942,21.0176,-331.023,0.766255,0.0,0.0
552,137.75,19.8814,20.0787,158.702,99.3516,91.2809,0.000829273,0.0521266,21.0173,-331.043,0.748447,0.0,0.0
556,138.75,20.277,20.8383,159.313,99.3516,90.3976,0.000851505,0.052378,21.0172,-331.053,0.834349,0.0,0.0
560,139.75,20.4132,20.6225,154.822,99.3508,90.9471,0.000860473,0.0526314,21.0166,-331.053,0.780743,0.0,0.0
564,140.75,19.913,20.3273,159.103,99.3532,91.1973,0.000852458,0.052946,21.0159,-331.063,0.75669,0.0,0.0
568,141.75,19.8841,20.2362,156.18,99.3472,90.9966,0.000835776,0.0534244,21.0152,-331.093,0.775612,0.0,0.0
572,142.75,19.5213,20.8109,154.741,99.3488,90.9525,0.000818589,0.0539856,21.0142,-331.093,0.780041,0.0,0.0
576,143.75,20.0579,20.29,151.956,99.348,90.9704,0.000873351,0.054527,21.0122,-331.113,0.778229,0.0,0.0
580,144.75,19.6057,20.6616,153.927,99.3412,91.0487,0.00101873,0.0551358,21.0102,-331.103,0.770027,0.0,0.0
584,145.75,19.9248,20.6333,156.146,99.3247,90.4663,0.00142445,0.0576177,21.0041,-331.013,0.825248,0.0,0.0
588,146.75,20.1558,20.7412,150.343,99.3311,87.6952,0.00217341,0.0643073,20.9823,-331.163,1.10065,0.0,0.0
592,147.75,19.3171,20.1488,151.657,99.3199,87.1936,0.00329803,0.0819708,20.9468,-331.223,1.15032,0.0,1.0
596,148.75,20.0146,20.3984,150.374,99.3135,79.442,0.00507869,0.105536,20.8882,-331.273,1.97224,0.0,1.0
600,149.75,20.6487,21.0157,144.057,99.3059,68.0521,0.00674808,0.144656,20.8215,-331.323,3.33865,0.0,1.0
604,150.75,20.8061,21.2791,138.356,99.2974,54.4249,0.00954703,0.195752,20.734,-331.484,5.31189,0.0,1.0
608,151.75,21.2093,21.2927,135.211,99.279,48.9194,0.0125479,0.260731,20.6265,-331.664,6.25238,0.0,1.0
612,152.75,21.3174,21.8445,133.461,99.2894,46.1071,0.0154956,0.322141,20.5334,-331.834,6.77634,0.0,1.0
616,153.75,22.4517,22.5001,129.697,99.2806,47.9416,0.0181585,0.375084,20.4562,-332.004,6.43088,0.0,1.0
620,154.75,23.631,22.6962,137.844,99.2577,58.9518,0.0205451,0.419836,20.3993,-332.114,4.60253,0.0,1.0
624,155.75,24.1495,24.1903,133.496,99.2401,53.1332,0.021779,0.457769,20.3633,-332.234,5.51897,0.0,0.0
628,156.75,25.1122,24.7014,127.888,99.2228,50.0853,0.0240851,0.494129,20.3194,-332.394,6.0393,0.0,0.0
632,157.75,26.1369,26.0825,128.785,99.2365,53.9341,0.0261879,0.523704,20.2775,-332.525,5.38648,0.0,0.0
636,158.75,27.1669,27.0357,126.114,99.2336,45.526,0.028528,0.550397,20.2321,-332.665,6.88342,0.0,0.0
640,159.75,27.939,27.7086,120.306,99.212,48.4365,0.0308478,0.586754,20.1749,-332.825,6.33404,0.0,0.0
644,160.75,28.8006,28.8081,119.417,99.1911,44.6806,0.0324746,0.624009,20.119,-332.955,7.04523,0.0,0.0
648,161.75,30.0402,29.896,119.957,99.1791,44.0241,0.0346702,0.663069,20.0419,-333.135,7.17491,0.0,0.0
652,162.75,31.5752,31.5032,126.905,99.1618,49.6653,0.0366461,0.703157,19.9699,-333.325,6.10826,0.0,0.0
656,163.75,33.043,32.4869,128.928,99.1538,45.0244,0.0381738,0.736006,19.9102,-333.485,6.97418,0.0,0.0
660,164.75,34.4806,34.3279,118.781,99.1466,45.1093,0.0397656,0.774639,19.8597,-333.636,6.95689,0.0,0.0
664,165.75,35.2908,35.2998,113.377,99.1161,44.4042,0.0410261,0.809195,19.8235,-333.786,7.09336,0.0,0.0
668,166.75,37.0704,37.0704,121.587,99.0896,45.3445,0.0418951,0.832158,19.7998,-333.966,6.90588,0.0,0.0
672,167.75,38.4523,38.5343,126.033,99.0872,49.7036,0.0424008,0.84478,19.7889,-334.116,6.0948,0.0,0.0
676,168.75,39.7757,40.1481,124.64,99.0523,42.9847,0.0425722,0.848315,19.7881,-334.306,7.37468,0.0,0.0
680,169.75,40.7409,41.089,126.802,99.0282,41.6335,0.042407,0.84689,19.7959,-334.466,7.65469,0.0,0.0
684,170.75,42.3195,42.8069,132.075,99.0114,50.7505,0.0421654,0.841134,19.8061,-334.606,5.9039,0.0,0.0
688,171.75,42.9186,43.8556,127.707,98.9973,50.8463,0.041544,0.834844,19.8172,-334.767,5.88599,0.0,0.0
692,172.75,44.3783,45.2447,121.508,98.9769,46.6728,0.04076,0.825859,19.8338,-334.917,6.64076,0.0,0.0
696,173.75,44.8462,46.0766,121.376,98.9592,49.5005,0.0398661,0.812459,19.8632,-335.017,6.11956,0.0,0.0
700,174.75,46.0566,47.5408,132.133,98.9235,48.8699,0.0386919,0.792207,19.897,-335.157,6.22964,0.0,0.0
704,175.75,46.6286,47.7452,125.631,98.9006,49.4439,0.0373009,0.768314,19.9362,-335.337,6.12444,0.0,0.0
708,176.75,47.4792,48.6587,128.826,98.8878,57.1152,0.0357904,0.744697,19.9805,-335.417,4.84914,0.0,0.0
712,177.75,47.9481,49.3653,129.215,98.8465,55.5571,0.0344216,0.717038,20.0188,-335.547,5.08978,0.0,0.0
716,178.75,48.5946,50.2049,130.766,98.8128,55.2133,0.032908,0.687203,20.055,-335.647,5.14161,0.0,0.0
720,179.75,48.8924,50.7787,128.315,98.7911,56.5304,0.0314049,0.659622,20.0926,-335.737,4.93142,0.0,0.0
724,180.75,49.4305,51.3234,133.97,98.7646,60.4099,0.0297143,0.630338,20.1331,-335.838,4.34268,0.0,0.0
728,181.75,49.339,51.2142,132.34,98.751,62.4209,0.0282479,0.611125,20.1687,-335.918,4.05218,0.0,0.0
732,182.75,49.5267,51.5907,136.547,98.7586,61.27,0.027164,0.584916,20.2022,-336.008,4.21727,0.0,0.0
736,183.75,49.9184,52.3036,135.599,98.7698,58.6483,0.0259106,0.56031,20.2475,-336.118,4.60459,0.0,0.0
740,184.75,50.0854,52.4071,138.866,98.7807,61.6383,0.0249648,0.540225,20.282,-336.248,4.16629,0.0,0.0
744,185.75,49.972,52.2449,131.028,98.7887,56.5112,0.0242093,0.527606,20.3046,-336.298,4.9342,0.0,0.0
748,186.75,49.9727,52.3946,143.128,98.7879,56.4388,0.0235658,0.515049,20.3199,-336.398,4.94545,0.0,0.0
752,187.75,50.4027,52.8345,139.685,98.8087,56.7114,0.0229737,0.506739,20.3305,-336.468,4.90475,0.0,0.0
756,188.75,50.3189,52.8451,137.634,98.8124,54.9332,0.0223337,0.500227,20.3407,-336.578,5.18651,0.0,0.0
760,189.75,50.3105,52.6983,140.543,98.8216,58.5255,0.0216443,0.492433,20.3552,-336.628,4.62774,0.0,0.0
764,190.75,50.4052,52.8752,135.216,98.8272,59.1054,0.0209453,0.484867,20.3704,-336.708,4.54114,0.0,0.0
768,191.75,50.3225,52.949,138.001,98.836,62.6236,0.0201965,0.476155,20.386,-336.768,4.03114,0.0,0.0
772,192.75,50.4939,53.0938,136.407,98.8489,59.9904,0.0190741,0.466241,20.4044,-336.848,4.41179,0.0,0.0
776,193.75,50.5296,53.2958,140.256,98.8617,68.4185,0.0179655,0.451652,20.4284,-336.929,3.25163,0.0,0.0
780,194.75,50.4838,53.336,141.247,98.8681,70.307,0.0168128,0.435232,20.4595,-336.969,3.01165,0.0,0.0
784,195.75,50.6339,53.4977,142.535,98.8802,68.5908,0.0156565,0.418765,20.4863,-336.979,3.23105,0.0,0.0
788,196.75,49.6144,52.7723,141.499,98.8978,71.1504,0.0145068,0.402831,20.511,-337.059,2.90897,0.0,0.0
792,197.75,49.737,52.8468,138.961,98.9071,70.3857,0.0132593,0.388457,20.5381,-337.119,3.00525,0.0,0.0
796,198.75,50.0134,53.163,141.055,98.9127,72.9245,0.0127402,0.374292,20.5521,-337.169,2.69272,0.0,0.0
800,199.75,49.3778,52.5995,144.843,98.944,73.5119,0.011973,0.361178,20.5719,-337.209,2.62465,0.0,0.0
804,200.75,49.1628,52.3267,142.803,98.9383,74.2495,0.0113405,0.345167,20.5905,-337.259,2.53595,0.0,0.0
808,201.75,49.1951,52.3858,140.195,98.9576,76.852,0.0107984,0.336733,20.6058,-337.299,2.23334,0.0,0.0
812,202.75,48.9331,52.198,143.928,98.966,76.9427,0.0103498,0.326192,20.6191,-337.389,2.22366,0.0,0.0
816,203.75,49.022,52.3153,148.418,98.9829,77.7819,0.00988346,0.317005,20.634,-337.399,2.12934,0.0,0.0
820,204.75,48.3892,51.624,145.643,98.9901,77.2449,0.00948627,0.308522,20.6486,-337.379,2.19118,0.0,0.0
824,205.75,48.0978,51.4044,136.539,99.0037,73.7296,0.00917372,0.299606,20.6622,-337.489,2.60386,0.0,0.0
828,206.75,47.8038,51.3178,148.789,99.0254,79.5569,0.0088749,0.290804,20.6755,-337.489,1.93381,0.0,0.0
832,207.75,47.9228,51.1874,145.379,99.0326,77.9975,0.00860326,0.282898,20.6867,-337.549,2.10932,0.0,0.0
836,208.75,47.2787,50.6575,146.23,99.0535,76.2942,0.00832543,0.276166,20.6958,-337.509,2.30624,0.0,0.0
840,209.75,47.2387,50.7471,144.62,99.0744,74.903,0.00801858,0.270096,20.7046,-337.599,2.47067,0.0,0.0
844,210.75,46.8815,50.435,144.787,99.0896,75.4916,0.00771439,0.263612,20.7129,-337.639,2.40288,0.0,0.0
848,211.75,46.4727,49.9104,144.557,99.1004,76.4424,0.00744667,0.257701,20.7216,-337.669,2.29329,0.0,0.0
852,212.75,46.1524,49.9059,143.978,99.1297,75.7818,0.00721147,0.251766,20.7297,-337.669,2.37257,0.0,0.0
856,213.75,46.1277,49.7286,147.523,99.1398,74.7003,0.00698915,0.246262,20.7375,-337.719,2.50044,0.0,0.0
860,214.75,45.8332,49.5472,148.721,99.1658,77.8019,0.00677761,0.240296,20.7465,-337.729,2.14338,0.0,0.0
864,215.75,46.1027,49.4601,149.557,99.1747,77.7598,0.00653703,0.233808,20.7576,-337.789,2.14894,0.0,0.0
868,216.75,45.7006,48.995,144.635,99.1959,79.0836,0.00624145,0.22681,20.7704,-337.789,2.00172,0.0,0.0
872,217.75,45.0704,48.501,148.022,99.2096,80.1371,0.00585829,0.218195,20.7881,-337.819,1.88602,0.0,0.0
876,218.75,45.205,48.8378,149.066,99.2248,82.4145,0.00543391,0.208285,20.8051,-337.819,1.63983,0.0,0.0
880,219.75,44.8464,48.4909,151.973,99.2405,85.3513,0.00508378,0.196951,20.8195,-337.839,1.33191,0.0,0.0
884,220.75,44.3263,48.1452,151.35,99.2621,86.7899,0.00464155,0.185088,20.8354,-337.849,1.18618,0.0,0.0
888,221.75,43.8518,47.533,153.104,99.2742,87.0255,0.00425951,0.17485,20.85,-337.859,1.16331,0.0,0.0
892,222.75,43.8087,47.3671,150.711,99.3031,87.495,0.00391743,0.164563,20.8634,-337.869,1.11834,0.0,0.0
896,223.75,43.0845,46.8625,148.278,99.3067,87.5346,0.0036373,0.155501,20.8763,-337.909,1.11467,0.0,0.0
900,224.75,43.0337,46.7714,152.698,99.3247,88.626,0.00341789,0.147744,20.8866,-337.949,1.00681,0.0,0.0
904,225.75,42.2294,46.2055,151.863,99.3436,89.2696,0.00324812,0.140729,20.896,-337.939,0.94457,0.0,0.0
908,226.75,42.2326,45.9268,149.55,99.3608,89.6138,0.00311583,0.134461,20.9031,-337.939,0.912102,0.0,0.0
912,227.75,41.8795,45.7422,149.953,99.3693,89.5851,0.00296679,0.12963,20.9103,-337.959,0.915683,0.0,0.0
916,228.75,41.4841,45.1774,148.373,99.3849,88.8346,0.00280682,0.124146,20.9169,-337.959,0.991395,0.0,0.0
920,229.75,40.9924,44.8367,151.955,99.4002,90.8497,0.00263893,0.119129,20.9238,-337.959,0.794597,0.0,0.0
924,230.75,40.7142,44.523,151.931,99.415,91.1149,0.00248914,0.114478,20.9315,-337.98,0.77017,0.0,0.0
928,231.75,40.3809,43.996,149.167,99.4202,91.1161,0.00237427,0.109867,20.9389,-337.98,0.770512,0.0,0.0
932,232.75,40.2123,43.9932,154.498,99.4395,91.701,0.00229609,0.10573,20.9457,-337.99,0.715702,0.0,0.0
936,233.75,39.1676,43.0051,153.623,99.4423,92.0519,0.00224158,0.101484,20.9508,-337.99,0.682211,0.0,0.0
940,234.75,39.4097,43.0148,155.963,99.4555,91.6331,0.0022072,0.0978773,20.9548,-337.99,0.723666,0.0,0.0
944,235.75,38.968,42.5913,150.89,99.4684,91.5536,0.00214217,0.0941563,20.9597,-338.02,0.732474,0.0,0.0
948,236.75,38.9509,42.6184,148.626,99.4932,92.6842,0.00203975,0.0904374,20.9651,-338,0.626262,0.0,0.0
952,237.75,38.3388,41.9761,153.022,99.4824,93.003,0.00189075,0.0878101,20.9704,-338,0.594961,0.0,0.0
956,238.75,38.2317,42.0992,153.244,99.4892,92.6725,0.00170686,0.0844051,20.9761,-338.01,0.627017,0.0,0.0
960,239.75,37.5674,41.2649,151.953,99.4956,93.1512,0.00153328,0.0810431,20.981,-338.02,0.582071,0.0,0.0
964,240.75,37.377,41.1937,150.873,99.4981,93.3281,0.00140721,0.0776387,20.9851,-338.01,0.565524,0.0,0.0
968,241.75,37.077,40.9446,152.426,99.5057,93.4534,0.00130732,0.0743233,20.9897,-338.02,0.554348,0.0,0.0
972,242.75,36.9102,40.4544,153.612,99.5109,93.5716,0.00123138,0.0717141,20.9933,-338.03,0.543644,0.0,0.0
976,243.75,36.4319,39.8992,156.193,99.5185,93.9067,0.00117062,0.0688597,20.9972,-338.04,0.512741,0.0,0.0
980,244.75,36.5007,40.1072,153.765,99.5241,94.0071,0.00113011,0.0662638,21.0014,-338.02,0.503808,0.0,0.0
984,245.75,35.5918,39.214,149.768,99.5217,93.7402,0.00109685,0.063702,21.0049,-338.03,0.528704,0.0,0.0
988,246.75,35.3901,38.9229,148.704,99.5281,93.9683,0.00106253,0.0611989,21.008,-338.03,0.507802,0.0,0.0
992,247.75,35.3118,38.4173,150.725,99.5253,94.1382,0.000995969,0.0587986,21.0101,-338.04,0.491601,0.0,0.0
996,248.75,34.3175,38.1937,153.526,99.5273,93.8064,0.000938225,0.0566379,21.0122,-338.04,0.522967,0.0,0.0
1000,249.75,34.9491,38.1058,151.517,99.5245,94.2726,0.000881316,0.0548184,21.0146,-338.05,0.478922,0.0,0.0
1004,250.75,34.5524,38.177,157.047,99.5297,94.2364,0.00081987,0.0533925,21.0174,-338.04,0.482778,0.0,0.0
1008,251.75,34.2607,37.7984,152.208,99.5237,93.8218,0.000788355,0.0519316,21.02,-338.05,0.521195,0.0,0.0
1012,252.75,33.5534,37.0878,152.17,99.5314,94.3584,0.000787476,0.0509014,21.0219,-338.06,0.471495,0.0,0.0
1016,253.75,32.6449,36.4444,155.929,99.5318,94.174,0.000826405,0.0497371,21.0234,-338.04,0.488812,0.0,0.0
1020,254.75,32.3676,36.4174,154.69,99.5478,94.1669,0.00084982,0.0487922,21.024,-338.04,0.490901,0.0,0.0
1024,255.75,32.3984,35.9899,152.949,99.5197,94.6061,0.000865626,0.0480701,21.0253,-338.04,0.447305,0.0,0.0
1028,256.75,32.218,35.7952,155.02,99.5289,94.1811,0.000825588,0.0474018,21.0262,-338.03,0.487899,0.0,0.0
1032,257.75,32.0871,35.9368,153.231,99.5245,94.3309,0.000744219,0.047063,21.0268,-338.04,0.473463,0.0,0.0
1036,258.75,31.7969,34.6068,154.193,99.5217,94.37,0.00067057,0.0465552,21.0272,-338.03,0.46955,0.0,0.0
1040,259.75,31.5538,34.7963,150.854,99.5261,94.542,0.000644224,0.0461504,21.0274,-338.03,0.453862,0.0,0.0
1044,260.75,31.585,34.2579,152.788,99.5181,94.2164,0.000675313,0.0459184,21.0276,-338.03,0.483619,0.0,0.0
1048,261.75,31.0045,34.2845,150.967,99.535,94.2144,0.00072732,0.0457085,21.0279,-338.03,0.485311,0.0,0.0
1052,262.75,30.9553,34.0125,151.675,99.4997,94.1482,0.000791912,0.0454612,21.0285,-338.03,0.488384,0.0,0.0
1056,263.75,30.7474,33.5851,153.093,99.5193,94.3884,0.000833111,0.0452549,21.0283,-338.01,0.467621,0.0,0.0
1060,264.75,30.5559,33.5587,152.523,99.5133,94.1161,0.000840611,0.0451195,21.0281,-338.02,0.492603,0.0,0.0
1064,265.75,30.4336,33.7534,155.478,99.5057,94.1128,0.000823243,0.0450501,21.0288,-338.03,0.492239,0.0,0.0
1068,266.75,29.8629,33.835,154.897,99.5005,94.1752,0.000795527,0.045059,21.0293,-338.02,0.485917,0.0,0.0
1072,267.75,30.0211,33.1907,152.665,99.5021,93.9663,0.000767983,0.0449872,21.0296,-338.04,0.505683,0.0,0.0
1076,268.75,29.5819,33.0151,152.859,99.4936,94.1249,0.000718725,0.0449386,21.0298,-338.05,0.490037,0.0,0.0
1080,269.75,29.1825,32.1202,153.066,99.4944,94.3022,0.000636463,0.0448926,21.0299,-338.04,0.473481,0.0,0.0
1084,270.75,29.0938,32.5594,154.868,99.486,94.1053,0.000524604,0.0448435,21.03,-338.03,0.491197,0.0,0.0
1088,271.75,29.2376,31.6465,154.612,99.4796,94.2955,0.000438649,0.0447931,21.0301,-338.05,0.472787,0.0,0.0
1092,272.75,28.8004,31.8826,153.401,99.474,94.2543,0.000338381,0.0447354,21.0297,-338.04,0.476149,0.0,0.0
1096,273.75,29.0898,31.791,153.747,99.4627,94.288,0.00030111,0.0446801,21.0293,-338.05,0.471992,0.0,0.0
1100,274.75,28.6673,32.1667,155.313,99.4623,94.2814,0.000335467,0.0446846,21.029,-338.04,0.47258,0.0,0.0
1104,275.75,27.8616,31.2255,153.017,99.4627,93.9022,0.000397474,0.0447135,21.0289,-338.03,0.508219,0.0,0.0
1108,276.75,28.5063,31.6297,154.217,99.4664,94.0125,0.000505419,0.044715,21.0287,-338.04,0.498169,0.0,0.0
1112,277.75,28.2731,30.9479,152.293,99.4491,94.0008,0.00060476,0.044716,21.0284,-338.03,0.497732,0.0,0.0
1116,278.75,28.6682,31.1896,152.248,99.4411,94.0999,0.000683702,0.0447412,21.0277,-338.04,0.487714,0.0,0.0
1120,279.75,27.9224,30.6124,153.847,99.4407,94.2181,0.000736059,0.0447773,21.0272,-338.03,0.476587,0.0,0.0
1124,280.75,27.9276,30.3303,153.886,99.4238,94.6531,0.000759048,0.0447478,21.0268,-338.04,0.434398,0.0,0.0
1128,281.75,27.6637,30.8401,154.064,99.4282,94.2943,0.000761647,0.0447517,21.0266,-338.03,0.468342,0.0,0.0
1132,282.75,27.6678,30.0019,153.082,99.411,94.0308,0.000730558,0.0447453,21.0265,-338.02,0.491529,0.0,0.0
1136,283.75,27.04,30.255,153.401,99.4062,94.037,0.000684016,0.0446776,21.0262,-338.03,0.490514,0.0,0.0
1140,284.75,27.9041,30.3432,160.111,99.3877,94.2089,0.000655749,0.0446039,21.0262,-338.04,0.472739,0.0,0.0
1144,285.75,27.4486,30.2417,152.939,99.3897,94.273,0.000662148,0.0445656,21.0267,-338.04,0.466908,0.0,0.0
1148,286.75,27.4067,29.474,155.323,99.3729,93.9334,0.000695981,0.0445992,21.027,-338.03,0.497297,0.0,0.0
1152,287.75,27.0291,29.4475,154.329,99.3737,93.9996,0.00073224,0.0446387,21.0273,-338.03,0.491146,0.0,0.0
1156,288.75,27.5062,29.3689,155.183,99.3628,94.1765,0.000760629,0.0446893,21.0274,-338.04,0.473572,0.0,0.0
1160,289.75,26.5179,29.3702,157.696,99.3528,94.1532,0.000784497,0.0446732,21.0267,-338.03,0.474868,0.0,0.0
1164,290.75,26.6917,29.3048,150.871,99.346,94.1149,0.000793916,0.044638,21.0262,-338.04,0.477855,0.0,0.0
1168,291.75,26.3674,29.0515,156.441,99.3352,94.2189,0.000771494,0.0445954,21.0259,-338.05,0.467129,0.0,0.0
1172,292.75,26.4807,28.7435,151.773,99.3215,93.9642,0.000710611,0.0445487,21.0257,-338.03,0.489834,0.0,0.0
1176,293.75,26.6449,28.8477,156.967,99.3135,94.2497,0.000609151,0.0445342,21.0256,-338.03,0.462314,0.0,0.0
1180,294.75,26.5513,28.3104,155.658,99.3071,94.0233,0.000520752,0.0445468,21.0255,-338.05,0.482994,0.0,0.0
1184,295.75,26.396,28.2757,156.724,99.3043,93.9263,0.000445071,0.0445407,21.0268,-338.04,0.491861,0.0,0.0
1188,296.75,25.9277,28.5714,154.285,99.3007,94.0075,0.000423952,0.0445018,21.0276,-338.03,0.483909,0.0,0.0
1192,297.75,26.0846,28.5218,153.279,99.2894,94.343,0.000460612,0.0444568,21.0282,-338.04,0.451437,0.0,0.0
1196,298.75,25.5074,27.8193,153.404,99.2878,93.8726,0.000537421,0.0444085,21.0285,-338.05,0.49545,0.0,0.0
1200,299.75,25.7709,28.153,155.071,99.2669,93.8918,0.00063621,0.0443657,21.0287,-338.05,0.491791,0.0,0.0
1204,300.75,25.7503,27.9458,153.074,99.2589,93.7835,0.000734042,0.0443449,21.0289,-338.04,0.501267,0.0,0.0
1208,301.75,25.8175,28.0642,154.198,99.2481,94.1919,0.000822454,0.0443486,21.029,-338.04,0.46192,0.0,0.0
1212,302.75,25.0886,27.2764,155.896,99.234,94.2389,0.000878725,0.0443239,21.0291,-338.05,0.45626,0.0,0.0
1216,303.75,25.3058,27.4401,153.706,99.23,94.082,0.000904042,0.0443128,21.0293,-338.05,0.470625,0.0,0.0
1220,304.75,25.1296,27.6228,156.119,99.2248,93.9163,0.000895822,0.0443276,21.0303,-338.04,0.485731,0.0,0.0
1224,305.75,25.012,27.6588,152.453,99.2168,93.9055,0.000867385,0.0443373,21.0313,-338.04,0.486035,0.0,0.0
1228,306.75,24.9888,27.1237,152.18,99.212,93.9775,0.000803285,0.0442723,21.0321,-338.04,0.478835,0.0,0.0
1232,307.75,25.0724,27.3397,153.575,99.2056,93.9276,0.000759358,0.0442297,21.0324,-338.03,0.482959,0.0,0.0
1236,308.75,24.8509,27.0875,153.496,99.1851,93.9151,0.000697913,0.0442211,21.0327,-338.03,0.482312,0.0,0.0
1240,309.75,24.6947,26.3295,149.108,99.1799,93.948,0.000635088,0.0442207,21.0329,-338.04,0.478753,0.0,0.0
1244,310.75,24.6883,26.7912,154.916,99.1731,93.6641,0.000589544,0.0442593,21.033,-338.05,0.504882,0.0,0.0
1248,311.75,24.9781,26.9373,154.487,99.1566,93.8551,0.000577444,0.0443223,21.0331,-338.03,0.485413,0.0,0.0
1252,312.75,24.7204,26.8473,155.577,99.1554,94.0212,0.000604938,0.044357,21.0331,-338.03,0.469688,0.0,0.0
1256,313.75,24.6956,26.7006,154.571,99.139,94.2639,0.000654175,0.044317,21.0332,-338.05,0.445449,0.0,0.0
1260,314.75,24.6282,26.5262,154.807,99.1289,94.0358,0.000727955,0.0443441,21.0332,-338.04,0.465959,0.0,0.0
1264,315.75,24.6247,26.6205,153.188,99.1205,93.7814,0.000789743,0.0444564,21.0332,-338.05,0.489135,0.0,0.0
1268,316.75,24.5288,26.3862,153.401,99.1205,93.9908,0.000841213,0.0445476,21.033,-338.05,0.469433,0.0,0.0
1272,317.75,24.8093,25.7917,153.478,99.1008,93.6345,0.000817752,0.0446061,21.0323,-338.04,0.501234,0.0,0.0
1276,318.75,24.3245,26.8004,152.051,99.0952,93.7165,0.000743651,0.0445706,21.0315,-338.04,0.493,0.0,0.0
1280,319.75,24.6663,26.8627,154.46,99.0936,93.831,0.000664335,0.0445473,21.0309,-338.05,0.482073,0.0,0.0
1284,320.75,24.0028,26.2952,153.458,99.1069,93.9221,0.000612366,0.0445074,21.0306,-338.04,0.474674,0.0,0.0
1288,321.75,24.2448,26.2912,156.389,99.0667,93.9009,0.000596983,0.0445058,21.0303,-338.04,0.473094,0.0,0.0
1292,322.75,24.7317,26.2044,154.359,99.0611,93.57,0.000603695,0.0444309,21.0301,-338.04,0.503782,0.0,0.0
1296,323.75,24.3039,26.1209,154.382,99.0487,93.6333,0.000653523,0.0444556,21.03,-338.04,0.496701,0.0,0.0
1300,324.75,23.8433,25.4589,154.153,99.033,93.8277,0.000699012,0.0444226,21.03,-338.05,0.476983,0.0,0.0
1304,325.75,23.952,25.5975,152.713,99.031,93.5084,0.000744261,0.0444502,21.0299,-338.05,0.506916,0.0,0.0
1308,326.75,23.8514,25.6375,152.398,99.017,93.6811,0.000756346,0.0444295,21.0299,-338.05,0.489359,0.0,0.0
1312,327.75,23.8118,25.6735,153.79,99.0122,94.0945,0.000741741,0.0443918,21.0299,-338.04,0.450036,0.0,0.0
1316,328.75,23.409,25.3602,155.374,99.007,93.53,0.00070877,0.0443289,21.0299,-338.03,0.502724,0.0,0.0
1320,329.75,23.5331,25.4705,148.452,99.0001,93.5875,0.000673976,0.0442519,21.0296,-338.05,0.496691,0.0,0.0
1324,330.75,24.0935,25.0855,154.264,98.9941,93.7765,0.000651548,0.0442047,21.0289,-338.05,0.478333,0.0,0.0
1328,331.75,23.746,25.3799,152.804,98.9965,93.7735,0.000653668,0.0442087,21.0284,-338.06,0.478822,0.0,0.0
1332,332.75,24.2604,25.1799,158.231,98.9793,93.6312,0.00067242,0.0441866,21.0284,-338.03,0.490705,0.0,0.0
1336,333.75,24.0271,25.6276,157.676,98.9692,93.3939,0.000684322,0.044211,21.0289,-338.05,0.512224,0.0,0.0
1340,334.75,22.9081,24.4366,156.384,98.9672,94.2289,0.000674719,0.0442569,21.0292,-338.05,0.433411,0.0,0.0
1344,335.75,23.471,24.9756,152.008,98.9672,93.6691,0.000640353,0.0442728,21.0294,-338.05,0.486057,0.0,0.0
1348,336.75,23.9804,24.4305,154.421,98.9612,93.7968,0.000571065,0.0442197,21.0296,-338.06,0.473476,0.0,0.0
1352,337.75,23.4801,24.2097,153.747,98.9624,93.7132,0.000497463,0.0441693,21.0294,-338.06,0.481467,0.0,0.0
1356,338.75,23.3621,25.2441,153.631,98.9468,93.6778,0.000457113,0.0441906,21.0288,-338.05,0.483406,0.0,0.0
1360,339.75,23.0433,24.8352,152.769,98.9428,93.6058,0.000440463,0.0442272,21.0283,-338.04,0.489841,0.0,0.0
1364,340.75,23.0725,24.8888,158.07,98.9492,93.4509,0.000477868,0.0441988,21.0282,-338.05,0.505041,0.0,0.0
1368,341.75,23.111,24.5687,153.021,98.9416,93.6174,0.000526585,0.0441802,21.0282,-338.04,0.488634,0.0,0.0
1372,342.75,23.584,24.439,157.132,98.9347,93.8464,0.000578335,0.0441543,21.0282,-338.02,0.466447,0.0,0.0
1376,343.75,22.892,24.7278,152.947,98.9379,93.4884,0.000591642,0.0441264,21.0282,-338.04,0.500497,0.0,0.0
1380,344.75,23.0811,24.6739,152.453,98.942,93.5042,0.000559373,0.044108,21.0282,-338.03,0.49936,0.0,0.0
1384,345.75,23.071,24.3974,156.309,98.9307,93.7681,0.000509649,0.044096,21.0282,-338.03,0.47346,0.0,0.0
1388,346.75,23.7191,24.5259,159.788,98.9199,93.7332,0.000454706,0.0440634,21.0282,-338.04,0.475787,0.0,0.0
1392,347.75,23.6143,24.631,154.43,98.9319,93.3868,0.000417102,0.0440421,21.028,-338.04,0.509561,0.0,0.0
1396,348.75,22.204,24.0277,152.71,98.9315,93.2561,0.000412188,0.0440475,21.0277,-338.05,0.521899,0.0,0.0
1400,349.75,23.2711,24.3517,151.029,98.9263,93.9134,0.000439713,0.0440419,21.0276,-338.04,0.459389,0.0,0.0
1404,350.75,22.8367,24.2288,157.177,98.9219,93.6274,0.000461413,0.0440131,21.0275,-338.06,0.485937,0.0,0.0
1408,351.75,23.0385,24.4409,152.748,98.9215,93.6054,0.000464036,0.0439974,21.0274,-338.05,0.487982,0.0,0.0
1412,352.75,22.9896,24.0506,153.056,98.9183,93.5858,0.000436979,0.0440078,21.0274,-338.05,0.489542,0.0,0.0
1416,353.75,22.9091,24.1666,156.32,98.9131,93.6174,0.000399408,0.0439797,21.0274,-338.05,0.486091,0.0,0.0
1420,354.75,22.6942,23.8192,151.711,98.9283,93.8555,0.000372271,0.0439366,21.0281,-338.05,0.465012,0.0,0.0
1424,355.75,23.2678,23.7848,154.059,98.9147,93.4955,0.000362495,0.0439576,21.028,-338.06,0.49775,0.0,0.0
1428,356.75,22.611,23.8432,155.289,98.9171,94.0358,0.000360992,0.0440206,21.0278,-338.06,0.447059,0.0,0.0
1432,357.75,22.7075,24.0469,155.745,98.9099,93.7332,0.000377039,0.044062,21.0276,-338.05,0.474891,0.0,0.0
1436,358.75,22.9385,24.2762,150.399,98.9042,93.4926,0.000414651,0.0440152,21.0281,-338.06,0.497094,0.0,0.0
1440,359.75,22.7701,23.6183,155.501,98.895,93.7989,0.000476554,0.0440131,21.0284,-338.05,0.467368,0.0,0.0
1444,360.75,22.5775,24.1028,156.496,98.9071,93.4992,0.000530411,0.0440278,21.0286,-338.03,0.496716,0.0,0.0
1448,361.75,21.8439,23.6801,149.579,98.8902,93.5371,,0.0440128,,-338.05,0.491632,0.0,0.0
1452,362.75,22.8618,24.0651,153.744,98.881,93.5804,,0.0439927,,-338.05,0.486719,0.0,0.0
1456,363.75,22.548,23.5929,156.171,98.8729,93.3939,,0.0439969,,-338.04,0.503625,0.0,0.0
1460,364.75,22.1658,23.8563,152.071,98.8617,93.5733,,,,-338.05,0.485666,0.0,0.0
1464,365.75,22.6687,23.4625,156.989,98.8485,93.7078,,,,-338.05,0.4718,0.0,0.0
1468,366.75,22.8897,23.3327,156.532,98.8368,93.1895,,,,-338.06,0.519752,0.0,0.0
1472,367.75,22.6706,23.5506,156.635,98.818,93.9454,,,,-338.06,0.446695,0.0,0.0
1476,368.75,22.4396,23.1942,151.171,98.822,93.423,,,,-338.05,0.496314,0.0,0.0
1480,369.75,22.137,23.752,156.891,98.818,93.781,,,,-338.06,0.462169,0.0,0.0
1484,370.75,22.0888,23.5875,155.074,98.7947,93.836,,,,-338.05,0.454915,0.0,0.0
1488,371.75,22.8244,23.8434,155.272,98.7714,93.5991,,,,-338.05,0.47516,0.0,0.0
1489,372,22.0155,23.0878,152.871,98.7702,93.6083,,,,-338.06,0.474188,0.0,0.0