File: 01_Data/Nylon/STA/N2/10K_min/Nylon_STA_N2_10KData_220604_R2.csv
##Temp./Â°C,Time/min,DSC(subtr.2)/(mW/mg),Mass loss(subtr.2)/mg,Sensit./(uV/mW)
49.935,10.01,0.00689387,-0.04081,1.06047
50.635,10.77201,0.04774739,-0.04303887,1.06033
51.335,10.9748,0.07969749,-0.04860293,1.06018
52.035,11.12678,0.10635,-0.04600833,1.06003
52.735,11.25558,0.12881,-0.04724198,1.05989
53.435,11.3714,0.14875,-0.047305,1.05974
54.135,11.4772,0.16394,-0.04682598,1.05959
54.835,11.57698,0.17979,-0.04628314,1.05944
55.535,11.67178,0.19099,-0.04806706,1.05929
56.235,11.7616,0.19747,-0.05009677,1.05914
56.935,11.84923,0.21234,-0.05233473,1.05899
57.635,11.93665,0.2195,-0.0499275,1.05883
58.335,12.02086,0.22664,-0.04994598,1.05868
59.035,12.10391,0.23308,-0.05149059,1.05852
59.735,12.18533,0.24157,-0.04958702,1.05837
60.435,12.26587,0.24646,-0.05014994,1.05821
61.135,12.34533,0.25122,-0.05102363,1.05805
61.835,12.424,0.25719,-0.05144648,1.0579
62.535,12.50217,0.26295,-0.05144655,1.05774
63.235,12.57987,0.26834,-0.05080332,1.05758
63.935,12.6572,0.27161,-0.05010108,1.05741
64.635,12.73427,0.27532,-0.05143792,1.05725
65.335,12.8108,0.28068,-0.05216173,1.05709
66.035,12.88694,0.28331,-0.05144068,1.05692
66.735,12.96294,0.28725,-0.05157748,1.05676
67.435,13.03855,0.29128,-0.05286818,1.05659
68.135,13.11384,0.29367,-0.0528681,1.05643
68.835,13.189,0.29384,-0.05283301,1.05626
69.535,13.264,0.29915,-0.05354657,1.05609
70.235,13.3386,0.30113,-0.054184,1.05592
70.935,13.41284,0.30262,-0.05301109,1.05575
71.635,13.4873,0.30747,-0.05289817,1.05558
72.335,13.56134,0.30905,-0.05420749,1.05541
73.035,13.63541,0.31052,-0.05395429,1.05523
73.735,13.709,0.31024,-0.05476668,1.05506
74.435,13.78309,0.31246,-0.05524611,1.05488
75.135,13.85665,0.31394,-0.0555043,1.05471
75.835,13.93021,0.31501,-0.05681974,1.05453
76.535,14.0031,0.31716,-0.05688026,1.05435
77.235,14.0761,0.3159,-0.05662538,1.05418
77.935,14.14887,0.31813,-0.05550092,1.054
78.635,14.22154,0.31705,-0.0568229,1.05382
79.335,14.29405,0.31931,-0.05812631,1.05363
80.035,14.3666,0.31972,-0.05813318,1.05345
80.735,14.43883,0.31946,-0.05944996,1.05327
81.435,14.51079,0.32137,-0.06076429,1.05309
82.135,14.58254,0.32225,-0.05947481,1.0529
82.835,14.6545,0.32247,-0.05935443,1.05272
83.535,14.7263,0.32373,-0.05944298,1.05253
84.235,14.79788,0.32469,-0.06076441,1.05234
84.935,14.8691,0.32568,-0.06209008,1.05215
85.635,14.94038,0.32396,-0.06172743,1.05196
86.335,15.01141,0.3241,-0.06075659,1.05177
87.035,15.0822,0.32565,-0.06217099,1.05158
87.735,15.1526,0.32715,-0.06252769,1.05139
88.435,15.22301,0.32683,-0.06203089,1.0512
89.135,15.2934,0.32626,-0.06341004,1.05101
89.835,15.36369,0.32729,-0.06340545,1.05081
90.535,15.4338,0.32928,-0.06350375,1.05062
91.235,15.50394,0.32718,-0.06374542,1.05042
91.935,15.574,0.32798,-0.06580534,1.05022
92.635,15.64405,0.32838,-0.06570408,1.05002
93.335,15.7139,0.33051,-0.06502642,1.04983
94.035,15.7837,0.33003,-0.06466104,1.04963
94.735,15.85331,0.33327,-0.06603027,1.04943
95.435,15.92286,0.33136,-0.06599997,1.04922
96.135,15.99249,0.33261,-0.06734408,1.04902
96.835,16.06185,0.33419,-0.06734995,1.04882
97.535,16.13125,0.33691,-0.06603354,1.04862
98.235,16.20026,0.33668,-0.06735004,1.04841
98.935,16.2694,0.33908,-0.06735,1.0482
99.635,16.33854,0.34122,-0.06734903,1.048
100.335,16.40746,0.33909,-0.06735031,1.04779
101.035,16.4765,0.33927,-0.06872948,1.04758
101.735,16.54551,0.34102,-0.06865345,1.04737
102.435,16.6148,0.341,-0.06995671,1.04716
103.135,16.68412,0.34386,-0.06866024,1.04695
103.835,16.75301,0.34645,-0.06995491,1.04674
104.535,16.8218,0.34573,-0.07004905,1.04653
105.235,16.89035,0.34704,-0.07261008,1.04631
105.935,16.95877,0.34856,-0.07260972,1.0461
106.635,17.02736,0.34975,-0.07256285,1.04589
107.335,17.09611,0.34934,-0.07125275,1.04567
108.035,17.1652,0.35219,-0.07262044,1.04545
108.735,17.23408,0.35269,-0.07257927,1.04524
109.435,17.30256,0.35432,-0.07259679,1.04502
110.135,17.3709,0.35406,-0.07236197,1.0448
110.835,17.43969,0.35353,-0.07129963,1.04458
111.535,17.50831,0.35581,-0.0713,1.04436
112.235,17.577,0.35838,-0.0712933,1.04413
112.935,17.64565,0.3589,-0.07261085,1.04391
113.635,17.71421,0.3587,-0.07128288,1.04369
114.335,17.78257,0.35985,-0.07216223,1.04346
115.035,17.85078,0.36358,-0.07300899,1.04324
115.735,17.91924,0.36137,-0.07525086,1.04301
116.435,17.98797,0.36273,-0.07393025,1.04278
117.135,18.05635,0.36522,-0.07293465,1.04256
117.835,18.12473,0.36624,-0.07339742,1.04233
118.535,18.1931,0.36483,-0.07392881,1.0421
119.235,18.26129,0.36459,-0.07459447,1.04187
119.935,18.3296,0.36726,-0.07591021,1.04164
120.635,18.3979,0.36685,-0.07460059,1.0414
121.335,18.46645,0.36874,-0.07459,1.04117
122.035,18.53506,0.3691,-0.07454209,1.04094
122.735,18.60354,0.37117,-0.07591027,1.0407
123.435,18.6719,0.37143,-0.07593798,1.04047
124.135,18.74006,0.37122,-0.07557116,1.04023
124.835,18.8081,0.37374,-0.0764043,1.03999
125.535,18.87615,0.375,-0.07721809,1.03976
126.235,18.9442,0.37444,-0.07591192,1.03952
126.935,19.01204,0.37727,-0.07591,1.03928
127.635,19.08023,0.3773,-0.07590903,1.03904
128.335,19.1483,0.38124,-0.07458455,1.0388
129.035,19.21667,0.38211,-0.07590034,1.03855
129.735,19.2847,0.38232,-0.0759,1.03831
130.435,19.3526,0.38281,-0.07591876,1.03807
131.135,19.42054,0.38506,-0.07691556,1.03782
131.835,19.48835,0.38422,-0.07673474,1.03758
132.535,19.5561,0.38687,-0.07722009,1.03733
133.235,19.6239,0.38684,-0.07795189,1.03709
133.935,19.69173,0.39186,-0.07787829,1.03684
134.635,19.75976,0.39042,-0.0785302,1.03659
135.335,19.82771,0.38988,-0.07853011,1.03634
136.035,19.8956,0.39186,-0.07982754,1.03609
136.735,19.96336,0.39221,-0.07866221,1.03584
137.435,20.03097,0.39364,-0.07853997,1.03559
138.135,20.09861,0.39585,-0.0771903,1.03533
138.835,20.16623,0.39679,-0.07853471,1.03508
139.535,20.23386,0.39631,-0.08051552,1.03483
140.235,20.3014,0.39888,-0.0805063,1.03457
140.935,20.36919,0.398,-0.07918947,1.03431
141.635,20.43674,0.40017,-0.07850324,1.03406
142.335,20.5044,0.40129,-0.07854014,1.0338
143.035,20.57181,0.40109,-0.07853764,1.03354
143.735,20.63909,0.40331,-0.07985654,1.03328
144.435,20.7063,0.40381,-0.08117031,1.03302
145.135,20.77372,0.40757,-0.08117,1.03276
145.835,20.84103,0.40649,-0.08117,1.0325
146.535,20.90844,0.40999,-0.08117,1.03224
147.235,20.9757,0.41028,-0.08117,1.03197
147.935,21.043,0.41147,-0.08117084,1.03171
148.635,21.11044,0.41488,-0.08183123,1.03145
149.335,21.17794,0.41722,-0.08182995,1.03118
150.035,21.2454,0.4162,-0.08067958,1.03091
150.735,21.3127,0.41849,-0.08116987,1.03065
151.435,21.3801,0.41843,-0.08117548,1.03038
152.135,21.44725,0.41839,-0.08248002,1.03011
152.835,21.5147,0.41957,-0.08247999,1.02984
153.535,21.582,0.42151,-0.08251685,1.02957
154.235,21.64965,0.41994,-0.08248794,1.0293
154.935,21.71707,0.42083,-0.08248997,1.02903
155.635,21.78451,0.42041,-0.08289625,1.02875
156.335,21.8518,0.42317,-0.08380999,1.02848
157.035,21.91915,0.42157,-0.08381,1.02821
157.735,21.98647,0.42437,-0.08374968,1.02793
158.435,22.0538,0.42467,-0.08479008,1.02765
159.135,22.1211,0.42468,-0.08479,1.02738
159.835,22.18853,0.42586,-0.08478995,1.0271
160.535,22.25593,0.42804,-0.08367271,1.02682
161.235,22.32326,0.42732,-0.08373982,1.02654
161.935,22.39058,0.42964,-0.08512001,1.02626
162.635,22.4579,0.43017,-0.08519999,1.02598
163.335,22.52524,0.43244,-0.08380093,1.0257
164.035,22.59242,0.43526,-0.08510738,1.02542
164.735,22.65941,0.43737,-0.08642898,1.02514
165.435,22.72642,0.43391,-0.08577099,1.02485
166.135,22.79339,0.43638,-0.08576521,1.02457
166.835,22.8605,0.43813,-0.08641103,1.02428
167.535,22.92762,0.43667,-0.08642999,1.024
168.235,22.99469,0.43887,-0.08643,1.02371
168.935,23.06182,0.44048,-0.08643065,1.02342
169.635,23.1291,0.43803,-0.08776671,1.02313
170.335,23.1965,0.44025,-0.08742868,1.02284
171.035,23.26364,0.44025,-0.08676487,1.02255
171.735,23.3308,0.44216,-0.0864253,1.02226
172.435,23.39763,0.44119,-0.08512868,1.02197
173.135,23.4645,0.44245,-0.08779922,1.02168
173.835,23.5314,0.44338,-0.08774916,1.02139
174.535,23.59836,0.44491,-0.08949505,1.02109
175.235,23.66536,0.44494,-0.08913951,1.0208
175.935,23.7319,0.4446,-0.08674621,1.0205
176.635,23.79898,0.44508,-0.08675997,1.02021
177.335,23.86603,0.44622,-0.08640127,1.01991
178.035,23.9332,0.4465,-0.08774453,1.01961
178.735,24.00007,0.4478,-0.08644072,1.01931
179.435,24.06705,0.44781,-0.08644007,1.01902
180.135,24.1341,0.44748,-0.08744032,1.01872
180.835,24.2013,0.44777,-0.0890694,1.01841
181.535,24.2686,0.4489,-0.08907,1.01811
182.235,24.33561,0.44915,-0.08907363,1.01781
182.935,24.40232,0.44775,-0.08775691,1.01751
183.635,24.469,0.44948,-0.08875149,1.0172
184.335,24.53577,0.44985,-0.08873999,1.0169
185.035,24.60274,0.45019,-0.08874,1.0166
185.735,24.66947,0.45316,-0.08874001,1.01629
186.435,24.73637,0.45098,-0.08909582,1.01598
187.135,24.80302,0.45276,-0.09016142,1.01568
187.835,24.8695,0.4523,-0.09038562,1.01537
188.535,24.93583,0.45182,-0.08972993,1.01506
189.235,25.0023,0.45227,-0.09227948,1.01475
189.935,25.06921,0.4533,-0.09133286,1.01444
190.635,25.13615,0.4519,-0.0909167,1.01413
191.335,25.20306,0.45446,-0.08829408,1.01382
192.035,25.26974,0.45686,-0.08992097,1.0135
192.735,25.337,0.45696,-0.09092993,1.01319
193.435,25.40421,0.45735,-0.09093001,1.01288
194.135,25.47185,0.45623,-0.09089575,1.01256
194.835,25.5386,0.45828,-0.09224998,1.01224
195.535,25.60567,0.45689,-0.0919023,1.01193
196.235,25.67269,0.45863,-0.0912601,1.01161
196.935,25.73957,0.46094,-0.09258701,1.01129
197.635,25.80627,0.46068,-0.09236547,1.01098
198.335,25.87313,0.4607,-0.09224998,1.01066
199.035,25.94,0.46069,-0.09225,1.01034
199.735,26.007,0.46233,-0.09211194,1.01002
200.435,26.07345,0.45972,-0.09213095,1.00969
201.135,26.13994,0.46318,-0.09225,1.00937
201.835,26.20663,0.46469,-0.09225,1.00905
202.535,26.27389,0.46595,-0.09225,1.00873
203.235,26.3411,0.46504,-0.09225,1.0084
203.935,26.40805,0.46632,-0.09225,1.00808
204.635,26.4748,0.46798,-0.09226275,1.00775
205.335,26.54174,0.47,-0.09356927,1.00742
206.035,26.6087,0.47291,-0.09357,1.0071
206.735,26.6756,0.47152,-0.09356999,1.00677
207.435,26.7422,0.47372,-0.09361205,1.00644
208.135,26.8088,0.47343,-0.09225011,1.00611
208.835,26.8754,0.47648,-0.09353376,1.00578
209.535,26.94213,0.47652,-0.0948831,1.00545
210.235,27.00892,0.47837,-0.09488,1.00512
210.935,27.0757,0.47924,-0.09488,1.00479
211.635,27.1425,0.48186,-0.09488345,1.00445
212.335,27.20914,0.48377,-0.09356029,1.00412
213.035,27.27585,0.48438,-0.09356,1.00378
213.735,27.34272,0.48532,-0.0935939,1.00345
214.435,27.4099,0.48551,-0.09256959,1.00311
215.135,27.47676,0.48914,-0.09389032,1.00278
215.835,27.5438,0.4882,-0.09389,1.00244
216.535,27.6107,0.49136,-0.09389,1.0021
217.235,27.6777,0.49351,-0.09388988,1.00176
217.935,27.7444,0.49427,-0.09458378,1.00142
218.635,27.81097,0.49628,-0.09488,1.00108
219.335,27.8775,0.49628,-0.09620269,1.00074
220.035,27.94408,0.49841,-0.09587004,1.0004
220.735,28.01098,0.49879,-0.09546337,1.00006
221.435,28.0773,0.50235,-0.09357025,0.99972
222.135,28.14388,0.5038,-0.09359175,0.99937
222.835,28.21048,0.50531,-0.09641318,0.99903
223.535,28.27768,0.50763,-0.09487605,0.99868
224.235,28.3447,0.50914,-0.09487142,0.99834
224.935,28.41135,0.51348,-0.09454989,0.99799
225.635,28.478,0.51466,-0.09454724,0.99764
226.335,28.54457,0.51622,-0.09739824,0.9973
227.035,28.6112,0.51937,-0.09673911,0.99695
227.735,28.6781,0.51959,-0.0946405,0.9966
228.435,28.7449,0.52197,-0.09465353,0.99625
229.135,28.81164,0.52546,-0.09562504,0.9959
229.835,28.87821,0.52799,-0.09565,0.99555
230.535,28.94489,0.52745,-0.09566283,0.9952
231.235,29.0117,0.53131,-0.09696929,0.99484
231.935,29.0785,0.5351,-0.09697,0.99449
232.635,29.1449,0.53707,-0.09697,0.99414
233.335,29.21078,0.53979,-0.09697,0.99378
234.035,29.2776,0.54516,-0.09697,0.99343
234.735,29.34463,0.54698,-0.09696673,0.99307
235.435,29.4125,0.54814,-0.09828352,0.99271
236.135,29.47942,0.55311,-0.09794642,0.99236
236.835,29.54617,0.55676,-0.09777547,0.992
237.535,29.6129,0.56001,-0.09729004,0.99164
238.235,29.67963,0.56431,-0.09728948,0.99128
238.935,29.7466,0.57021,-0.09761954,0.99092
239.635,29.81373,0.57305,-0.09761661,0.99056
240.335,29.88062,0.57645,-0.0989373,0.9902
241.035,29.94748,0.58093,-0.09894,0.98984
241.735,30.0141,0.58458,-0.09894,0.98947
242.435,30.0808,0.59085,-0.09894,0.98911
243.135,30.1476,0.59579,-0.09886908,0.98875
243.835,30.2145,0.59979,-0.10123,0.98838
244.535,30.28148,0.60656,-0.09993169,0.98802
245.235,30.3483,0.61534,-0.09861434,0.98765
245.935,30.41518,0.62408,-0.09996649,0.98728
246.635,30.4821,0.63394,-0.09991999,0.98692
247.335,30.54903,0.6468,-0.09992,0.98655
248.035,30.6159,0.66412,-0.09991999,0.98618
248.735,30.68253,0.68176,-0.09993337,0.98581
249.435,30.7492,0.70614,-0.09959873,0.98544
250.135,30.81588,0.73977,-0.0996,0.98507
250.835,30.88284,0.77158,-0.0996,0.9847
251.535,30.9497,0.80083,-0.0996,0.98433
252.235,31.01665,0.83558,-0.09960068,0.98395
252.935,31.0838,0.87405,-0.09992699,0.98358
253.635,31.15097,0.92235,-0.10256,0.98321
254.335,31.2183,0.97437,-0.10256,0.98283
255.035,31.2855,1.03295,-0.10322,0.98246
255.735,31.3529,1.0943,-0.10322,0.98208
256.435,31.4202,1.15671,-0.10322,0.9817
257.135,31.4877,1.2163,-0.10322,0.98133
257.835,31.5551,1.27138,-0.10287,0.98095
258.535,31.6227,1.32666,-0.10157,0.98057
259.235,31.69032,1.38366,-0.10289,0.98019
259.935,31.75814,1.4368,-0.10367,0.97981
260.635,31.82597,1.48074,-0.10321,0.97943
261.335,31.89374,1.51068,-0.10321,0.97905
262.035,31.9613,1.50113,-0.10321,0.97867
262.735,32.0286,1.41526,-0.10321,0.97829
263.435,32.0957,1.21168,-0.10321,0.9779
264.135,32.16265,0.98471,-0.10321,0.97752
264.835,32.22894,0.82553,-0.10346,0.97714
265.535,32.29505,0.7185,-0.10483,0.97675
266.235,32.36097,0.6489,-0.10552,0.97637
266.935,32.4272,0.60276,-0.10552,0.97598
267.635,32.49348,0.57106,-0.10552,0.97559
268.335,32.5597,0.55078,-0.1042,0.97521
269.035,32.62588,0.53795,-0.10553,0.97482
269.735,32.69236,0.52966,-0.10585,0.97443
270.435,32.75887,0.52167,-0.10585,0.97404
271.135,32.8256,0.51981,-0.10585,0.97365
271.835,32.89204,0.51505,-0.10453,0.97326
272.535,32.95856,0.51322,-0.10555,0.97287
273.235,33.02528,0.51265,-0.10683,0.97248
273.935,33.09196,0.51168,-0.10571,0.97208
274.635,33.1586,0.50921,-0.10645,0.97169
275.335,33.2254,0.50953,-0.10651,0.9713
276.035,33.29233,0.50899,-0.10651,0.9709
276.735,33.35907,0.50942,-0.10677,0.97051
277.435,33.42589,0.51045,-0.10749,0.97011
278.135,33.49244,0.50798,-0.10507,0.96972
278.835,33.5594,0.50784,-0.10405,0.96932
279.535,33.6262,0.5097,-0.10658,0.96892
280.235,33.69321,0.50867,-0.10792,0.96852
280.935,33.76008,0.51159,-0.10793,0.96813
281.635,33.8268,0.51189,-0.1086,0.96773
282.335,33.8936,0.51156,-0.10925,0.96733
283.035,33.96034,0.51029,-0.10924,0.96693
283.735,34.02724,0.5089,-0.10792,0.96653
284.435,34.09414,0.51145,-0.10925,0.96612
285.135,34.16113,0.51021,-0.10892,0.96572
285.835,34.2281,0.51001,-0.10892,0.96532
286.535,34.29488,0.51298,-0.10925,0.96491
287.235,34.36186,0.5119,-0.10925,0.96451
287.935,34.42859,0.51254,-0.10793,0.96411
288.635,34.49558,0.51208,-0.10925,0.9637
289.335,34.5625,0.51341,-0.10925,0.9633
290.035,34.6295,0.51289,-0.10924,0.96289
290.735,34.69664,0.51277,-0.11062,0.96248
291.435,34.76338,0.51508,-0.11186,0.96207
292.135,34.8302,0.51752,-0.11057,0.96167
292.835,34.89717,0.51522,-0.11326,0.96126
293.535,34.9643,0.51531,-0.11189,0.96085
294.235,35.03133,0.51673,-0.11191,0.96044
294.935,35.09822,0.51628,-0.10992,0.96003
295.635,35.16479,0.51617,-0.11122,0.95962
296.335,35.23183,0.51636,-0.1099,0.9592
297.035,35.29892,0.51924,-0.10924,0.95879
297.735,35.36608,0.51853,-0.10925,0.95838
298.435,35.43305,0.52006,-0.11061,0.95797
299.135,35.5,0.51916,-0.11056,0.95755
299.835,35.5672,0.51868,-0.11188,0.95714
300.535,35.6342,0.51883,-0.11188,0.95672
301.235,35.7013,0.51991,-0.11179,0.9563
301.935,35.76847,0.52017,-0.11057,0.95589
302.635,35.83566,0.52151,-0.11189,0.95547
303.335,35.90272,0.52006,-0.11188,0.95505
304.035,35.96976,0.52113,-0.11219,0.95464
304.735,36.03691,0.52155,-0.11319,0.95422
305.435,36.10415,0.52209,-0.11319,0.9538
306.135,36.17142,0.52318,-0.1132,0.95338
306.835,36.23857,0.52308,-0.11194,0.95296
307.535,36.3057,0.52426,-0.11319,0.95254
308.235,36.37271,0.5256,-0.11319,0.95211
308.935,36.43985,0.52552,-0.11319,0.95169
309.635,36.5069,0.52565,-0.11422,0.95127
310.335,36.57423,0.52824,-0.11418,0.95085
311.035,36.64134,0.52737,-0.11549,0.95042
311.735,36.70868,0.52937,-0.11583,0.95
312.435,36.77578,0.52974,-0.11583,0.94957
313.135,36.8429,0.5329,-0.11583,0.94915
313.835,36.91004,0.53012,-0.11583,0.94872
314.535,36.97748,0.52962,-0.11583,0.94829
315.235,37.04475,0.53089,-0.11583,0.94787
315.935,37.112,0.53397,-0.11696,0.94744
316.635,37.17902,0.52927,-0.11716,0.94701
317.335,37.2463,0.53068,-0.11791,0.94658
318.035,37.31342,0.53366,-0.11642,0.94615
318.735,37.3809,0.53418,-0.11781,0.94572
319.435,37.44822,0.53434,-0.11781,0.94529
320.135,37.5159,0.53586,-0.11845,0.94486
320.835,37.583,0.53579,-0.11848,0.94443
321.535,37.65005,0.53496,-0.11879,0.944
322.235,37.71705,0.53743,-0.11879,0.94356
322.935,37.78413,0.53966,-0.11885,0.94313
323.635,37.8513,0.53848,-0.11814,0.9427
324.335,37.91854,0.54039,-0.11814,0.94226
325.035,37.98568,0.5401,-0.11815,0.94183
325.735,38.05296,0.54191,-0.12076,0.94139
326.435,38.1201,0.54465,-0.11823,0.94095
327.135,38.18737,0.54418,-0.12136,0.94052
327.835,38.2547,0.54511,-0.12262,0.94008
328.535,38.32193,0.54659,-0.12211,0.93964
329.235,38.38939,0.54932,-0.12131,0.9392
329.935,38.45681,0.54729,-0.12101,0.93876
330.635,38.5244,0.54678,-0.12198,0.93833
331.335,38.59182,0.5486,-0.12117,0.93789
332.035,38.6592,0.54871,-0.12151,0.93745
332.735,38.72661,0.54885,-0.12329,0.937
333.435,38.79404,0.54791,-0.12201,0.93656
334.135,38.86173,0.54931,-0.12198,0.93612
334.835,38.92917,0.55185,-0.12198,0.93568
335.535,38.99674,0.55045,-0.12198,0.93523
336.235,39.06431,0.55063,-0.12198,0.93479
336.935,39.13167,0.55218,-0.12198,0.93435
337.635,39.19883,0.55087,-0.12386,0.9339
338.335,39.26574,0.55116,-0.1243,0.93346
339.035,39.333,0.5507,-0.12526,0.93301
339.735,39.40065,0.55021,-0.12526,0.93256
340.435,39.46889,0.55038,-0.12593,0.93212
341.135,39.5371,0.55033,-0.12593,0.93167
341.835,39.60535,0.55062,-0.12658,0.93122
342.535,39.67293,0.55066,-0.12658,0.93077
343.235,39.74065,0.55197,-0.12658,0.93033
343.935,39.8082,0.5525,-0.12658,0.92988
344.635,39.8759,0.55499,-0.12724,0.92943
345.335,39.9433,0.55613,-0.12852,0.92898
346.035,40.01095,0.55547,-0.12855,0.92852
346.735,40.07868,0.55434,-0.12855,0.92807
347.435,40.14628,0.55797,-0.12923,0.92762
348.135,40.214,0.56044,-0.12985,0.92717
348.835,40.28157,0.56025,-0.13052,0.92671
349.535,40.34935,0.5613,-0.13145,0.92626
350.235,40.41695,0.56042,-0.13184,0.92581
350.935,40.4846,0.56248,-0.13184,0.92535
351.635,40.55231,0.56477,-0.13097,0.9249
352.335,40.61996,0.56656,-0.1302,0.92444
353.035,40.6879,0.56445,-0.13021,0.92399
353.735,40.75574,0.56807,-0.13151,0.92353
354.435,40.8236,0.56749,-0.13151,0.92307
355.135,40.89093,0.56775,-0.13257,0.92261
355.835,40.9587,0.57213,-0.13283,0.92216
356.535,41.02633,0.57386,-0.13415,0.9217
357.235,41.09447,0.57711,-0.13557,0.92124
357.935,41.16227,0.57885,-0.13642,0.92078
358.635,41.22994,0.5809,-0.13657,0.92032
359.335,41.2977,0.58174,-0.13483,0.91986
360.035,41.36565,0.58423,-0.13808,0.9194
360.735,41.43373,0.58846,-0.13861,0.91894
361.435,41.50166,0.58934,-0.13864,0.91847
362.135,41.56945,0.59442,-0.13798,0.91801
362.835,41.6376,0.59455,-0.13799,0.91755
363.535,41.7055,0.60226,-0.13929,0.91708
364.235,41.7735,0.60104,-0.1406,0.91662
364.935,41.84124,0.60804,-0.14136,0.91616
365.635,41.90918,0.61214,-0.14285,0.91569
366.335,41.97716,0.61608,-0.14265,0.91522
367.035,42.0451,0.61794,-0.14352,0.91476
367.735,42.113,0.6257,-0.14457,0.91429
368.435,42.18077,0.63424,-0.14457,0.91383
369.135,42.24865,0.63742,-0.14645,0.91336
369.835,42.31635,0.64484,-0.14683,0.91289
370.535,42.38434,0.6506,-0.15027,0.91242
371.235,42.4521,0.66476,-0.14873,0.91195
371.935,42.51999,0.67435,-0.14874,0.91148
372.635,42.5878,0.68838,-0.14874,0.91101
373.335,42.6557,0.70017,-0.1507,0.91054
374.035,42.72376,0.71226,-0.15268,0.91007
374.735,42.79179,0.72239,-0.15277,0.9096
375.435,42.85972,0.73361,-0.15477,0.90913
376.135,42.92768,0.74264,-0.15611,0.90866
376.835,42.99582,0.75076,-0.15917,0.90818
377.535,43.06391,0.76016,-0.16092,0.90771
378.235,43.13208,0.76582,-0.16221,0.90724
378.935,43.20013,0.77281,-0.16355,0.90676
379.635,43.26834,0.77952,-0.16474,0.90629
380.335,43.3362,0.78579,-0.16497,0.90581
381.035,43.40465,0.79374,-0.16721,0.90534
381.735,43.47289,0.79924,-0.16879,0.90486
382.435,43.5415,0.80487,-0.17013,0.90439
383.135,43.60992,0.80984,-0.17209,0.90391
383.835,43.67869,0.81009,-0.17464,0.90343
384.535,43.74754,0.81083,-0.17821,0.90295
385.235,43.8162,0.80927,-0.17987,0.90248
385.935,43.88478,0.81166,-0.18134,0.902
386.635,43.9534,0.81742,-0.18536,0.90152
387.335,44.02227,0.82304,-0.1892,0.90104
388.035,44.091,0.82932,-0.19199,0.90056
388.735,44.15954,0.84276,-0.19389,0.90008
389.435,44.22803,0.84885,-0.1978,0.8996
390.135,44.29667,0.85576,-0.20246,0.89911
390.835,44.3656,0.8647,-0.20584,0.89863
391.535,44.4343,0.87983,-0.20958,0.89815
392.235,44.50288,0.89084,-0.21367,0.89767
392.935,44.5715,0.90704,-0.21852,0.89718
393.635,44.63982,0.92287,-0.22364,0.8967
394.335,44.70852,0.94073,-0.23007,0.89622
395.035,44.7771,0.95736,-0.23504,0.89573
395.735,44.84604,0.97484,-0.24139,0.89525
396.435,44.91455,0.9905,-0.24849,0.89476
397.135,44.98319,1.00662,-0.25512,0.89428
397.835,45.05171,1.02725,-0.26329,0.89379
398.535,45.12042,1.04699,-0.27175,0.8933
399.235,45.189,1.06278,-0.27882,0.89282
399.935,45.25758,1.08387,-0.28763,0.89233
400.635,45.32597,1.1022,-0.29601,0.89184
401.335,45.39434,1.12288,-0.30594,0.89135
402.035,45.46295,1.13931,-0.3162,0.89086
402.735,45.53157,1.1571,-0.32536,0.89037
403.435,45.60037,1.17992,-0.33646,0.88988
404.135,45.66897,1.20626,-0.34854,0.88939
404.835,45.73767,1.22404,-0.36092,0.8889
405.535,45.80595,1.24575,-0.373,0.88841
406.235,45.8746,1.26931,-0.38484,0.88792
406.935,45.94317,1.29224,-0.39948,0.88743
407.635,46.01209,1.31226,-0.41277,0.88693
408.335,46.08062,1.33879,-0.42763,0.88644
409.035,46.14922,1.35781,-0.44382,0.88595
409.735,46.21772,1.38616,-0.46073,0.88545
410.435,46.28635,1.36202,-0.47869,0.88496
411.135,46.35491,1.36269,-0.49565,0.88447
411.835,46.42361,1.37358,-0.50929,0.88397
412.535,46.49235,1.38838,-0.52544,0.88348
413.235,46.561,1.4047,-0.54331,0.88298
413.935,46.62959,1.41968,-0.5617,0.88248
414.635,46.69813,1.43475,-0.5814,0.88199
415.335,46.76682,1.44619,-0.60065,0.88149
416.035,46.8354,1.44592,-0.61898,0.88099
416.735,46.90387,1.45808,-0.63797,0.88049
417.435,46.97183,1.47188,-0.65785,0.88
418.135,47.04,1.49198,-0.67776,0.8795
418.835,47.1082,1.50996,-0.69946,0.879
419.535,47.17685,1.52144,-0.72302,0.8785
420.235,47.2456,1.54104,-0.74463,0.878
420.935,47.31409,1.55683,-0.7669,0.8775
421.635,47.38277,1.57123,-0.79174,0.877
422.335,47.4512,1.59006,-0.81512,0.8765
423.035,47.5199,1.60787,-0.83949,0.876
423.735,47.58834,1.62631,-0.86578,0.87549
424.435,47.65763,1.64164,-0.89166,0.87499
425.135,47.7269,1.66395,-0.91982,0.87449
425.835,47.79643,1.6763,-0.9466,0.87399
426.535,47.86526,1.68648,-0.97583,0.87348
427.235,47.9342,1.70266,-1.00626,0.87298
427.935,48.00309,1.71648,-1.03406,0.87247
428.635,48.07208,1.73373,-1.06437,0.87197
429.335,48.14096,1.74844,-1.09527,0.87146
430.035,48.20989,1.75793,-1.12873,0.87096
430.735,48.2787,1.77388,-1.16077,0.87045
431.435,48.34753,1.78176,-1.19482,0.86995
432.135,48.41624,1.79792,-1.2288,0.86944
432.835,48.4851,1.80651,-1.26412,0.86893
433.535,48.55392,1.82287,-1.29804,0.86842
434.235,48.62287,1.82622,-1.33509,0.86792
434.935,48.69171,1.83336,-1.3712,0.86741
435.635,48.76076,1.84007,-1.40818,0.8669
436.335,48.82973,1.84921,-1.44541,0.86639
437.035,48.89875,1.85435,-1.48433,0.86588
437.735,48.96771,1.85913,-1.5234,0.86537
438.435,49.0366,1.86746,-1.56153,0.86486
439.135,49.10555,1.86905,-1.60146,0.86435
439.835,49.17443,1.86822,-1.64293,0.86384
440.535,49.24324,1.87239,-1.68326,0.86333
441.235,49.31219,1.8743,-1.72357,0.86282
441.935,49.38108,1.87292,-1.76584,0.8623
442.635,49.45001,1.87781,-1.80939,0.86179
443.335,49.51871,1.88138,-1.85045,0.86128
444.035,49.58717,1.88383,-1.89305,0.86077
444.735,49.65593,1.88361,-1.93726,0.86025
445.435,49.7249,1.88709,-1.98202,0.85974
446.135,49.79401,1.88968,-2.02579,0.85922
446.835,49.8626,1.89415,-2.06978,0.85871
447.535,49.93065,1.89291,-2.11518,0.85819
448.235,49.999,1.88793,-2.15958,0.85768
448.935,50.06728,1.88118,-2.20468,0.85716
449.635,50.13583,1.87929,-2.25157,0.85665
450.335,50.20458,1.87459,-2.2971,0.85613
451.035,50.27337,1.86742,-2.34274,0.85561
451.735,50.34194,1.86039,-2.3905,0.8551
452.435,50.41063,1.85364,-2.44063,0.85458
453.135,50.47961,1.84339,-2.48321,0.85406
453.835,50.5492,1.83286,-2.52803,0.85354
454.535,50.6185,1.82051,-2.57724,0.85302
455.235,50.68769,1.80578,-2.62453,0.85251
455.935,50.7564,1.79134,-2.67187,0.85199
456.635,50.82509,1.7748,-2.71915,0.85147
457.335,50.8938,1.75692,-2.76739,0.85095
458.035,50.96266,1.73869,-2.8138,0.85043
458.735,51.03158,1.71597,-2.86017,0.8499
459.435,51.1004,1.69206,-2.90679,0.84938
460.135,51.1693,1.66724,-2.95497,0.84886
460.835,51.23793,1.6408,-2.99847,0.84834
461.535,51.30686,1.61083,-3.04415,0.84782
462.235,51.37559,1.57837,-3.09067,0.8473
462.935,51.44429,1.54544,-3.13507,0.84677
463.635,51.51283,1.50612,-3.17847,0.84625
464.335,51.58165,1.4688,-3.21962,0.84573
465.035,51.65048,1.42766,-3.26401,0.8452
465.735,51.71918,1.38733,-3.30614,0.84468
466.435,51.7877,1.33823,-3.34621,0.84415
467.135,51.8563,1.2898,-3.38752,0.84363
467.835,51.9249,1.24009,-3.42617,0.8431
468.535,51.9933,1.18465,-3.46342,0.84258
469.235,52.06175,1.12968,-3.5,0.84205
469.935,52.13022,1.06879,-3.53243,0.84152
470.635,52.1988,1.00832,-3.5694,0.841
471.335,52.26729,0.94633,-3.60077,0.84047
472.035,52.33573,0.87822,-3.63289,0.83994
472.735,52.4041,0.81199,-3.65963,0.83942
473.435,52.47265,0.74906,-3.68638,0.83889
474.135,52.5411,0.68179,-3.71103,0.83836
474.835,52.60963,0.61675,-3.73473,0.83783
475.535,52.6781,0.55668,-3.755,0.8373
476.235,52.74638,0.5002,-3.77421,0.83677
476.935,52.81462,0.44706,-3.79286,0.83624
477.635,52.88305,0.40282,-3.80748,0.83571
478.335,52.95137,0.35814,-3.82196,0.83518
479.035,53.01993,0.31625,-3.83616,0.83465
479.735,53.0883,0.28165,-3.8428,0.83412
480.435,53.1569,0.2507,-3.85825,0.83359
481.135,53.22544,0.22231,-3.8688,0.83306
481.835,53.29401,0.19601,-3.87636,0.83253
482.535,53.36254,0.17238,-3.884,0.83199
483.235,53.43107,0.15424,-3.89142,0.83146
483.935,53.4997,0.13756,-3.89703,0.83093
484.635,53.56841,0.12333,-3.9014,0.8304
485.335,53.6371,0.11001,-3.90716,0.82986
486.035,53.7056,0.09953568,-3.91135,0.82933
486.735,53.77431,0.08826717,-3.91328,0.82879
487.435,53.84299,0.08076667,-3.91647,0.82826
488.135,53.91183,0.07298722,-3.91793,0.82772
488.835,53.98052,0.06660258,-3.92113,0.82719
489.535,54.0494,0.06217726,-3.92234,0.82665
490.235,54.1183,0.05768382,-3.92481,0.82612
490.935,54.18727,0.05657851,-3.92621,0.82558
491.635,54.25635,0.05302212,-3.92774,0.82505
492.335,54.32535,0.0513617,-3.92919,0.82451
493.035,54.3944,0.04990193,-3.93049,0.82397
493.735,54.46324,0.04889508,-3.93049,0.82344
494.435,54.5321,0.04776983,-3.93181,0.8229
495.135,54.6012,0.04699808,-3.93312,0.82236
495.835,54.6702,0.0465608,-3.93313,0.82182
496.535,54.7394,0.04590184,-3.93444,0.82128
497.235,54.8085,0.04941254,-3.93577,0.82074
497.935,54.87752,0.04932915,-3.93576,0.82021
498.635,54.9466,0.05017288,-3.93705,0.81967
499.335,55.0156,0.05391212,-3.93839,0.81913
500.035,55.08492,0.04824403,-3.93839,0.81859
500.735,55.1542,0.0430813,-3.93839,0.81805
501.435,55.2237,0.03879132,-3.93981,0.81751
502.135,55.2931,0.03290008,-3.93971,0.81697
502.835,55.36263,0.0340861,-3.93938,0.81642
503.535,55.43215,0.03103071,-3.93939,0.81588
504.235,55.5015,0.03259796,-3.94201,0.81534
504.935,55.57091,0.03166218,-3.94067,0.8148
505.635,55.6404,0.0322329,-3.94069,0.81426
506.335,55.71001,0.02994777,-3.94135,0.81371
507.035,55.77966,0.01731682,-3.9407,0.81317
507.735,55.84927,0.01571008,-3.9407,0.81263
508.435,55.91876,0.01037001,-3.9407,0.81209
509.135,55.9883,0.002402614,-3.94205,0.81154
509.835,56.0578,-0.003813146,-3.94202,0.811
510.535,56.12732,-0.01257842,-3.94202,0.81045
511.235,56.19685,-0.01771372,-3.94098,0.80991
511.935,56.26635,-0.02223097,-3.94168,0.80936
512.635,56.33576,-0.02604154,-3.94234,0.80882
513.335,56.405,-0.03009747,-3.94301,0.80827
514.035,56.47439,-0.03013336,-3.94299,0.80773
514.735,56.5438,-0.03008928,-3.94168,0.80718
515.435,56.6128,-0.03242768,-3.94309,0.80664
516.135,56.68232,-0.03026718,-3.9443,0.80609
516.835,56.7519,-0.03234673,-3.94564,0.80554
517.535,56.8218,-0.03088723,-3.94433,0.805
518.235,56.89125,-0.02945296,-3.94432,0.80445
518.935,56.9606,-0.03043542,-3.94657,0.8039
519.635,57.03,-0.02916657,-3.94487,0.80335
520.335,57.0995,-0.02761415,-3.94267,0.80281
521.035,57.1692,-0.02880771,-3.94511,0.80226
521.735,57.23875,-0.0278819,-3.94563,0.80171
522.435,57.3085,-0.0248351,-3.94567,0.80116
523.135,57.37814,-0.02467117,-3.94432,0.80061
523.835,57.4477,-0.02423274,-3.94576,0.80006
524.535,57.517,-0.02291442,-3.94629,0.79951
525.235,57.58634,-0.02135126,-3.94629,0.79896
525.935,57.65579,-0.02480058,-3.94629,0.79841
526.635,57.72525,-0.02259555,-3.94503,0.79786
527.335,57.79484,-0.01933154,-3.94499,0.79731
528.035,57.8644,-0.02025844,-3.94629,0.79676
528.735,57.9342,-0.01911951,-3.94766,0.79621
529.435,58.0037,-0.02047527,-3.94761,0.79566
530.135,58.0733,-0.01580265,-3.94758,0.7951
530.835,58.1427,-0.01634644,-3.94969,0.79455
531.535,58.21252,-0.015859,-3.94675,0.794
532.235,58.28232,-0.01534663,-3.94684,0.79345
532.935,58.35224,-0.01503644,-3.94684,0.7929
533.635,58.4219,-0.01623765,-3.94765,0.79234
534.335,58.4917,-0.01293326,-3.94961,0.79179
535.035,58.5614,-0.01137538,-3.94819,0.79124
535.735,58.6312,-0.01218514,-3.94742,0.79068
536.435,58.70104,-0.01118101,-3.94683,0.79013
537.135,58.7707,-0.01168194,-3.94683,0.78957
537.835,58.8403,-0.0104179,-3.94716,0.78902
538.535,58.91001,-0.00713356,-3.94871,0.78846
539.235,58.9795,-0.0106634,-3.94673,0.78791
539.935,59.04903,-0.01004014,-3.94574,0.78735
540.635,59.11883,-0.008880924,-3.94708,0.7868
541.335,59.18914,-0.007418871,-3.94706,0.78624
542.035,59.25939,-0.008824144,-3.94706,0.78569
542.735,59.3293,-0.01093292,-3.94836,0.78513
543.435,59.39921,-0.009752538,-3.94838,0.78457
544.135,59.46905,-0.01722058,-3.94838,0.78402
544.835,59.5389,-0.01821015,-3.9484,0.78346
545.535,59.60853,-0.01740092,-3.94805,0.7829
546.235,59.67815,-0.01980202,-3.94805,0.78235
546.935,59.74794,-0.01721452,-3.94907,0.78179
547.635,59.8179,-0.01544602,-3.94903,0.78123
548.335,59.8879,-0.01488368,-3.94903,0.78067
549.035,59.95769,-0.01673325,-3.94903,0.78012
549.735,60.0274,-0.01617947,-3.94936,0.77956
550.435,60.09714,-0.01716586,-3.94936,0.779
551.135,60.1669,-0.01507489,-3.94936,0.77844
551.835,60.23695,-0.01722738,-3.94936,0.77788
552.535,60.3069,-0.01799073,-3.94936,0.77732
553.235,60.37706,-0.01761711,-3.94936,0.77676
553.935,60.44698,-0.01806378,-3.94936,0.7762
554.635,60.517,-0.01626839,-3.94936,0.77564
555.335,60.5867,-0.01781244,-3.9487,0.77508
556.035,60.6566,-0.01820175,-3.9487,0.77452
556.735,60.7263,-0.01452642,-3.9487,0.77396
557.435,60.79609,-0.01842649,-3.9487,0.7734
558.135,60.8657,-0.01757876,-3.94873,0.77284
558.835,60.93504,-0.01867923,-3.94969,0.77228
559.535,61.00434,-0.01737159,-3.94969,0.77172
560.235,61.07379,-0.01715195,-3.9484,0.77115
560.935,61.14345,-0.01464391,-3.94835,0.77059
561.635,61.21314,-0.01724706,-3.94867,0.77003
562.335,61.28284,-0.01649289,-3.95002,0.76947
563.035,61.35284,-0.01385808,-3.95002,0.7689
563.735,61.42325,-0.01519531,-3.95002,0.76834
564.435,61.49352,-0.0151296,-3.95133,0.76778
565.135,61.56363,-0.01296843,-3.95133,0.76722
565.835,61.63316,-0.01354829,-3.95133,0.76665
566.535,61.70292,-0.01609766,-3.95133,0.76609
567.235,61.7726,-0.01206611,-3.95118,0.76552
567.935,61.84242,-0.01391294,-3.95048,0.76496
568.635,61.9122,-0.01523367,-3.95068,0.7644
569.335,61.9821,-0.01277743,-3.95077,0.76383
570.035,62.0522,-0.01313176,-3.95113,0.76327
570.735,62.12236,-0.01662296,-3.95143,0.7627
571.435,62.1926,-0.01582019,-3.95265,0.76214
572.135,62.26259,-0.01477153,-3.95265,0.76157
572.835,62.33249,-0.01421449,-3.95265,0.76101
573.535,62.40249,-0.01648886,-3.95265,0.76044
574.235,62.4727,-0.01630439,-3.95322,0.75987
574.935,62.5432,-0.01578396,-3.95265,0.75931
575.635,62.6134,-0.01552839,-3.9526,0.75874
576.335,62.6836,-0.01372826,-3.95265,0.75818
577.035,62.75362,-0.01051889,-3.95196,0.75761
577.735,62.82376,-0.01405396,-3.95353,0.75704
578.435,62.89383,-0.01428979,-3.95385,0.75648
579.135,62.9639,-0.01695834,-3.95484,0.75591
579.835,63.03371,-0.01598072,-3.95484,0.75534
580.535,63.10365,-0.01659299,-3.95484,0.75477
581.235,63.1738,-0.01502987,-3.95362,0.75421
581.935,63.24417,-0.01527998,-3.95344,0.75364
582.635,63.3146,-0.01282478,-3.95484,0.75307
583.335,63.3848,-0.01468096,-3.95484,0.7525
584.035,63.455,-0.01269686,-3.95485,0.75193
584.735,63.5249,-0.01295992,-3.95412,0.75136
585.435,63.595,-0.01596512,-3.95472,0.75079
586.135,63.6649,-0.01726239,-3.95352,0.75023
586.835,63.73489,-0.01314712,-3.95485,0.74966
587.535,63.80466,-0.0130941,-3.95485,0.74909
588.235,63.8745,-0.01322836,-3.95485,0.74852
588.935,63.94452,-0.01581123,-3.95583,0.74795
589.635,64.0146,-0.01694935,-3.95583,0.74738
590.335,64.08451,-0.01647614,-3.9544,0.74681
591.035,64.1545,-0.0185859,-3.95586,0.74624
591.735,64.22445,-0.0181893,-3.95726,0.74567
592.435,64.29462,-0.01746204,-3.95585,0.7451
593.135,64.36452,-0.01746774,-3.95594,0.74453
593.835,64.43462,-0.01609422,-3.95594,0.74395
594.535,64.50452,-0.01451537,-3.95586,0.74338
595.235,64.5745,-0.01594935,-3.95594,0.74281
595.935,64.64438,-0.01900544,-3.95594,0.74224
596.635,64.71451,-0.01658441,-3.9553,0.74167
597.335,64.78461,-0.01739244,-3.95781,0.7411
598.035,64.85466,-0.01656735,-3.95622,0.74053
598.735,64.9247,-0.01694402,-3.95496,0.73995
599.435,64.9946,-0.01598465,-3.95628,0.73938
600.135,65.06456,-0.01939126,-3.95487,0.73881
600.835,65.13457,-0.0166757,-3.95497,0.73824
601.535,65.20473,-0.02169198,-3.95604,0.73766
602.235,65.27496,-0.0186419,-3.95693,0.73709
602.935,65.34505,-0.01816521,-3.95693,0.73652
603.635,65.4147,-0.01568998,-3.95611,0.73594
604.335,65.48473,-0.01755151,-3.95562,0.73537
605.035,65.5548,-0.01745887,-3.95625,0.7348
605.735,65.62535,-0.01701775,-3.96043,0.73422
606.435,65.69551,-0.01714119,-3.9629,0.73365
607.135,65.76584,-0.01783274,-3.96095,0.73307
607.835,65.83604,-0.01411835,-3.96012,0.7325
608.535,65.9063,-0.01655778,-3.96011,0.73193
609.235,65.97649,-0.01736234,-3.95879,0.73135
609.935,66.04694,-0.01897445,-3.95879,0.73078
610.635,66.11735,-0.01733033,-3.95743,0.7302
611.335,66.18782,-0.01815539,-3.95748,0.72963
612.035,66.25811,-0.01999414,-3.95748,0.72905
612.735,66.32835,-0.01850045,-3.95707,0.72848
613.435,66.39869,-0.02247187,-3.95721,0.7279
614.135,66.46882,-0.01741348,-3.95649,0.72733
614.835,66.53924,-0.02128926,-3.95649,0.72675
615.535,66.60939,-0.02149955,-3.95359,0.72617
616.235,66.67989,-0.02118002,-3.95363,0.7256
616.935,66.75016,-0.02249411,-3.95363,0.72502
617.635,66.82069,-0.02032113,-3.95495,0.72445
618.335,66.8909,-0.02129357,-3.95601,0.72387
619.035,66.96119,-0.01971079,-3.95496,0.72329
619.735,67.03147,-0.02208017,-3.95705,0.72272
620.435,67.1019,-0.01785741,-3.9584,0.72214
621.135,67.1722,-0.02145706,-3.95742,0.72156
621.835,67.24229,-0.02327263,-3.95779,0.72099
622.535,67.3126,-0.01921584,-3.95901,0.72041
623.235,67.38277,-0.02188807,-3.95903,0.71983
623.935,67.45302,-0.02094601,-3.95868,0.71925
624.635,67.52334,-0.01920109,-3.95866,0.71868
625.335,67.59379,-0.01916983,-3.95869,0.7181
626.035,67.66418,-0.02001487,-3.95941,0.71752
626.735,67.7346,-0.01858126,-3.95934,0.71694
627.435,67.8048,-0.0222025,-3.96029,0.71637
628.135,67.8751,-0.01789718,-3.96068,0.71579
628.835,67.94526,-0.02300413,-3.96065,0.71521
629.535,68.01557,-0.0219303,-3.96062,0.71463
630.235,68.08575,-0.02145756,-3.95934,0.71405
630.935,68.15605,-0.02067072,-3.95934,0.71347
631.635,68.22652,-0.02503466,-3.95904,0.71289
632.335,68.29692,-0.01993724,-3.96039,0.71232
633.035,68.36729,-0.02356119,-3.95901,0.71174
633.735,68.4376,-0.02043262,-3.95901,0.71116
634.435,68.50808,-0.01987626,-3.95903,0.71058
635.135,68.57851,-0.02281408,-3.96033,0.71
635.835,68.64887,-0.0212351,-3.96033,0.70942
636.535,68.71889,-0.02226159,-3.96033,0.70884
637.235,68.7889,-0.01699905,-3.96033,0.70826
637.935,68.8595,-0.02015245,-3.96033,0.70768
638.635,68.93051,-0.02201795,-3.96033,0.7071
639.335,69.00131,-0.02024219,-3.96168,0.70652
640.035,69.07177,-0.02194067,-3.96099,0.70594
640.735,69.14229,-0.02147319,-3.96099,0.70536
641.435,69.21292,-0.02224675,-3.96099,0.70478
642.135,69.28358,-0.02266115,-3.9623,0.7042
642.835,69.3537,-0.02428689,-3.9623,0.70362
643.535,69.42418,-0.02352768,-3.9623,0.70304
644.235,69.4945,-0.02381272,-3.96362,0.70246
644.935,69.56512,-0.02495266,-3.96229,0.70187
645.635,69.6348,-0.02457877,-3.9623,0.70129
646.335,69.70518,-0.02409963,-3.9623,0.70071
647.035,69.77552,-0.0234538,-3.96172,0.70013
647.735,69.84637,-0.02184694,-3.96297,0.69955
648.435,69.91667,-0.01964438,-3.96164,0.69897
649.135,69.98702,-0.01868231,-3.96164,0.69839
649.835,70.0573,-0.01891938,-3.96208,0.6978
650.535,70.12756,-0.01732397,-3.96165,0.69722
651.235,70.19788,-0.01577186,-3.96165,0.69664
651.935,70.26826,-0.01617673,-3.96165,0.69606
652.635,70.33859,-0.01682762,-3.96231,0.69548
653.335,70.40894,-0.01990695,-3.96263,0.6949
654.035,70.4793,-0.01941547,-3.96263,0.69431
654.735,70.5498,-0.01941202,-3.96263,0.69373
655.435,70.62013,-0.024074,-3.96263,0.69315
656.135,70.69041,-0.02444979,-3.96164,0.69257
656.835,70.76083,-0.02344619,-3.96091,0.69198
657.535,70.83122,-0.0203811,-3.96093,0.6914
658.235,70.90179,-0.02062716,-3.96341,0.69082
658.935,70.97242,-0.02017115,-3.9634,0.69023
659.635,71.043,-0.01974779,-3.96365,0.68965
660.335,71.11361,-0.02164494,-3.96472,0.68907
661.035,71.18406,-0.02294555,-3.96452,0.68849
661.735,71.2546,-0.02204353,-3.9634,0.6879
662.435,71.32514,-0.021891,-3.96331,0.68732
663.135,71.3958,-0.02183984,-3.96594,0.68674
663.835,71.46656,-0.02476259,-3.96406,0.68615
664.535,71.53716,-0.0248467,-3.96406,0.68557
665.235,71.6078,-0.02578794,-3.96412,0.68498
665.935,71.6784,-0.02719259,-3.9634,0.6844
666.635,71.74916,-0.02773971,-3.9634,0.68382
667.335,71.81945,-0.02767903,-3.96409,0.68323
668.035,71.88969,-0.02352565,-3.96406,0.68265
668.735,71.95996,-0.02665843,-3.96471,0.68207
669.435,72.03065,-0.02492162,-3.96471,0.68148
670.135,72.10191,-0.02378223,-3.96338,0.6809
670.835,72.17313,-0.02733784,-3.96472,0.68031
671.535,72.24428,-0.02749348,-3.96572,0.67973
672.235,72.3149,-0.02781541,-3.96603,0.67914
672.935,72.38566,-0.02927051,-3.96603,0.67856
673.635,72.45651,-0.02780649,-3.96474,0.67798
674.335,72.52731,-0.02916708,-3.96472,0.67739
675.035,72.598,-0.0254112,-3.96522,0.67681
675.735,72.6686,-0.02731764,-3.96636,0.67622
676.435,72.73926,-0.02574063,-3.96505,0.67564
677.135,72.81007,-0.0291606,-3.96505,0.67505
677.835,72.8809,-0.03268595,-3.96504,0.67447
678.535,72.95175,-0.02865525,-3.96635,0.67388
679.235,73.0224,-0.02858071,-3.96503,0.6733
679.935,73.09317,-0.03085717,-3.96504,0.67271
680.635,73.1639,-0.03015032,-3.96504,0.67213
681.335,73.23493,-0.03129079,-3.9651,0.67154
682.035,73.30581,-0.02570101,-3.96438,0.67096
682.735,73.37676,-0.03016045,-3.96438,0.67037
683.435,73.44758,-0.02773996,-3.96375,0.66978
684.135,73.51854,-0.03059238,-3.96505,0.6692
684.835,73.58936,-0.02825365,-3.96505,0.66861
685.535,73.6602,-0.0285967,-3.96505,0.66803
686.235,73.73103,-0.02528877,-3.96805,0.66744
686.935,73.8018,-0.02687077,-3.97032,0.66686
687.635,73.87232,-0.02572354,-3.96898,0.66627
688.335,73.94274,-0.02398499,-3.96898,0.66569
689.035,74.01334,-0.02493318,-3.96627,0.6651
689.735,74.08391,-0.0276641,-3.96508,0.66451
690.435,74.15445,-0.03122652,-3.96505,0.66393
691.135,74.22505,-0.02889454,-3.96399,0.66334
691.835,74.29571,-0.02910752,-3.96558,0.66276
692.535,74.36624,-0.02876646,-3.96642,0.66217
693.235,74.43678,-0.0321251,-3.96505,0.66158
693.935,74.5073,-0.0314853,-3.96505,0.661
694.635,74.57785,-0.03083126,-3.96502,0.66041
695.335,74.6486,-0.0371173,-3.96504,0.65982
696.035,74.71937,-0.03681911,-3.96504,0.65924
696.735,74.78986,-0.03327256,-3.96504,0.65865
697.435,74.86018,-0.03016312,-3.96504,0.65807
698.135,74.9307,-0.03137016,-3.96504,0.65748
698.835,75.00147,-0.02926111,-3.96504,0.65689
699.535,75.0721,-0.03288686,-3.9664,0.65631
700.235,75.14226,-0.02971991,-3.96636,0.65572
700.935,75.2127,-0.03084305,-3.96636,0.65513
701.635,75.28317,-0.02978968,-3.965,0.65455
702.335,75.3541,-0.0313063,-3.96604,0.65396
703.035,75.4247,-0.03399676,-3.96646,0.65337
703.735,75.49531,-0.03525473,-3.96735,0.65279
704.435,75.56614,-0.03273292,-3.96604,0.6522
705.135,75.63701,-0.03208199,-3.96604,0.65161
705.835,75.7079,-0.0317768,-3.96636,0.65103
706.535,75.7786,-0.03375593,-3.96636,0.65044
707.235,75.84937,-0.03566887,-3.96636,0.64985
707.935,75.91996,-0.03521925,-3.96768,0.64927
708.635,75.99074,-0.03497822,-3.96768,0.64868
709.335,76.0618,-0.03217932,-3.96768,0.64809
710.035,76.1328,-0.03474468,-3.96638,0.6475
710.735,76.2039,-0.03795105,-3.96768,0.64692
711.435,76.27471,-0.03794899,-3.96768,0.64633
712.135,76.3456,-0.0372868,-3.96768,0.64574
712.835,76.41633,-0.03806503,-3.96768,0.64516
713.535,76.48722,-0.03614485,-3.96768,0.64457
714.235,76.55803,-0.03472669,-3.96768,0.64398
714.935,76.62892,-0.03424395,-3.9676,0.64339
715.635,76.69986,-0.03877508,-3.96767,0.64281
716.335,76.77101,-0.03888821,-3.96613,0.64222
717.035,76.8419,-0.0386398,-3.96625,0.64163
717.735,76.91297,-0.03596658,-3.96754,0.64105
718.435,76.98387,-0.03471394,-3.96756,0.64046
719.135,77.05502,-0.03777126,-3.96861,0.63987
719.835,77.12571,-0.0354699,-3.96886,0.63928
720.535,77.1969,-0.03539286,-3.9702,0.6387
721.235,77.26799,-0.03955583,-3.96928,0.63811
721.935,77.33929,-0.03940762,-3.96823,0.63752
722.635,77.41026,-0.0412736,-3.9679,0.63694
723.335,77.4811,-0.03655653,-3.9679,0.63635
724.035,77.55193,-0.04276728,-3.9679,0.63576
724.735,77.6228,-0.04031927,-3.9679,0.63517
725.435,77.69365,-0.04490295,-3.96758,0.63459
726.135,77.76467,-0.04517432,-3.96751,0.634
726.835,77.8357,-0.04683488,-3.96625,0.63341
727.535,77.9063,-0.0493453,-3.96625,0.63282
728.235,77.97718,-0.05018904,-3.96744,0.63224
728.935,78.04782,-0.05221803,-3.96757,0.63165
729.635,78.1188,-0.04928907,-3.96887,0.63106
730.335,78.18952,-0.05062365,-3.96888,0.63047
731.035,78.26023,-0.04993462,-3.96691,0.62989
731.735,78.3309,-0.05309502,-3.96626,0.6293
732.435,78.4016,-0.05460066,-3.96624,0.62871
733.135,78.47244,-0.05049113,-3.96853,0.62812
733.835,78.5433,-0.05155158,-3.96854,0.62754
734.535,78.61417,-0.05290313,-3.96724,0.62695
735.235,78.6849,-0.05504895,-3.96856,0.62636
735.935,78.7559,-0.05334229,-3.96725,0.62578
736.635,78.8267,-0.05486411,-3.96725,0.62519
737.335,78.89763,-0.05370416,-3.9677,0.6246
738.035,78.96831,-0.05886037,-3.96856,0.62401
738.735,79.03931,-0.05954221,-3.96693,0.62343
739.435,79.11015,-0.05898384,-3.96691,0.62284
740.135,79.18118,-0.06012356,-3.96822,0.62225
740.835,79.25202,-0.05741673,-3.96955,0.62166
741.535,79.32294,-0.05864749,-3.96955,0.62108
742.235,79.39361,-0.058595,-3.96824,0.62049
742.935,79.46441,-0.05896987,-3.96923,0.6199
743.635,79.53529,-0.05838302,-3.96823,0.61932
744.335,79.60641,-0.06123429,-3.96822,0.61873
745.035,79.67751,-0.06055593,-3.96822,0.61814
745.735,79.74852,-0.05854456,-3.96822,0.61755
746.435,79.81934,-0.05993188,-3.96822,0.61697
747.135,79.89014,-0.0629353,-3.96822,0.61638
747.835,79.96088,-0.06432412,-3.96822,0.61579
748.135,79.99138,-0.05919491,-3.96719,0.61554