File: 01_Data/Nylon/STA/N2/10K_min/Nylon_STA_N2_10KData_220604_R3.csv
##Temp./Â°C,Time/min,DSC(subtr.2)/(mW/mg),Mass loss(subtr.2)/mg,Sensit./(uV/mW)
49.858,10.01,0.002632041,-0.04036,1.06049
50.558,10.775,0.04539675,-0.04284025,1.06034
51.258,10.978,0.07648929,-0.04293893,1.0602
51.958,11.13088,0.10202,-0.04447328,1.06005
52.658,11.25955,0.12512,-0.04289695,1.0599
53.358,11.37421,0.14525,-0.04392623,1.05976
54.058,11.48025,0.16057,-0.04528787,1.05961
54.758,11.58018,0.17424,-0.04509807,1.05946
55.458,11.67457,0.18845,-0.04718371,1.05931
56.158,11.76596,0.2012,-0.04547209,1.05916
56.858,11.85494,0.20995,-0.04546896,1.059
57.558,11.9412,0.21913,-0.04689293,1.05885
58.258,12.0253,0.22732,-0.04612906,1.0587
58.958,12.1068,0.2328,-0.04680299,1.05854
59.658,12.1874,0.24029,-0.04554383,1.05839
60.358,12.26724,0.2468,-0.04700206,1.05823
61.058,12.3467,0.2517,-0.04793977,1.05807
61.758,12.4251,0.25743,-0.0472272,1.05791
62.458,12.5031,0.26173,-0.04715519,1.05775
63.158,12.58052,0.26779,-0.047151,1.05759
63.858,12.65824,0.27298,-0.04743619,1.05743
64.558,12.73555,0.27759,-0.04849271,1.05727
65.258,12.81218,0.28179,-0.04848128,1.05711
65.958,12.88826,0.2837,-0.04848117,1.05694
66.658,12.9643,0.28774,-0.04845283,1.05678
67.358,13.04035,0.29098,-0.04714068,1.05661
68.058,13.1169,0.29438,-0.04849233,1.05644
68.758,13.19335,0.29936,-0.04847042,1.05628
69.458,13.269,0.30122,-0.04978664,1.05611
70.158,13.344,0.30281,-0.04989716,1.05594
70.858,13.4185,0.30529,-0.05112482,1.05577
71.558,13.49298,0.30731,-0.05138626,1.0556
72.258,13.5671,0.31027,-0.05249389,1.05543
72.958,13.64112,0.30904,-0.05112009,1.05525
73.658,13.7148,0.312,-0.05240536,1.05508
74.358,13.7888,0.31366,-0.05320796,1.0549
75.058,13.86244,0.31448,-0.05242999,1.05473
75.758,13.93578,0.31582,-0.0513523,1.05455
76.458,14.00869,0.31852,-0.05241948,1.05437
77.158,14.08174,0.31741,-0.05244256,1.0542
77.858,14.1548,0.31983,-0.05233915,1.05402
78.558,14.2276,0.321,-0.05243,1.05384
79.258,14.3001,0.31984,-0.05242989,1.05365
79.958,14.3724,0.32296,-0.05258988,1.05347
80.658,14.44496,0.32231,-0.05351351,1.05329
81.358,14.51714,0.32235,-0.05220498,1.05311
82.058,14.58906,0.32661,-0.05481204,1.05292
82.758,14.6608,0.32735,-0.06512222,1.05274
83.458,14.7327,0.32853,-0.06494965,1.05255
84.158,14.8043,0.32877,-0.06197011,1.05236
84.858,14.87585,0.3302,-0.06032269,1.05217
85.558,14.94691,0.32858,-0.05901545,1.05199
86.258,15.01795,0.32841,-0.05886497,1.0518
86.958,15.0886,0.32969,-0.05703919,1.0516
87.658,15.1594,0.32965,-0.05516481,1.05141
88.358,15.22984,0.33051,-0.05450999,1.05122
89.058,15.30025,0.33037,-0.05385028,1.05103
89.758,15.3704,0.32905,-0.05516958,1.05083
90.458,15.44103,0.33019,-0.05517,1.05064
91.158,15.5117,0.33186,-0.05523452,1.05044
91.858,15.5823,0.3317,-0.05788301,1.05024
92.558,15.6523,0.33397,-0.05780552,1.05005
93.258,15.722,0.33332,-0.05781075,1.04985
93.958,15.7913,0.33613,-0.05781658,1.04965
94.658,15.86065,0.3357,-0.06046044,1.04945
95.358,15.93,0.3382,-0.0607567,1.04925
96.058,15.99959,0.33845,-0.06307002,1.04904
96.758,16.06927,0.34067,-0.0630707,1.04884
97.458,16.13861,0.34257,-0.06437949,1.04864
98.158,16.20813,0.34231,-0.06437933,1.04843
98.858,16.2771,0.34165,-0.0624599,1.04823
99.558,16.3461,0.34287,-0.06044669,1.04802
100.258,16.41481,0.34517,-0.05890873,1.04781
100.958,16.4838,0.34503,-0.05625584,1.04761
101.658,16.55269,0.34528,-0.05252315,1.0474
102.358,16.62155,0.34504,-0.05111324,1.04719
103.058,16.6903,0.3464,-0.05266657,1.04698
103.758,16.75909,0.34714,-0.05549954,1.04676
104.458,16.8277,0.34872,-0.05677547,1.04655
105.158,16.89641,0.35147,-0.05980231,1.04634
105.858,16.96544,0.35217,-0.06044007,1.04612
106.558,17.03409,0.35344,-0.06044741,1.04591
107.258,17.1032,0.35362,-0.06213048,1.04569
107.958,17.17174,0.3545,-0.06180233,1.04548
108.658,17.24067,0.35931,-0.06208,1.04526
109.358,17.309,0.35615,-0.06207989,1.04504
110.058,17.3775,0.35742,-0.06179902,1.04482
110.758,17.44598,0.35972,-0.06171418,1.0446
111.458,17.5143,0.36174,-0.06201043,1.04438
112.158,17.58257,0.36519,-0.06437974,1.04416
112.858,17.6509,0.36183,-0.06437595,1.04394
113.558,17.71922,0.36463,-0.06305993,1.04371
114.258,17.7878,0.36592,-0.06305997,1.04349
114.958,17.85604,0.36834,-0.06363913,1.04326
115.658,17.92442,0.36708,-0.06308333,1.04304
116.358,17.99288,0.3676,-0.06448754,1.04281
117.058,18.0613,0.36982,-0.06437834,1.04258
117.758,18.12969,0.37038,-0.06569805,1.04235
118.458,18.19797,0.37017,-0.06702147,1.04212
119.158,18.26625,0.37323,-0.06700624,1.04189
119.858,18.33438,0.37169,-0.065701,1.04166
120.558,18.40246,0.37165,-0.06570007,1.04143
121.258,18.4704,0.37526,-0.06671937,1.0412
121.958,18.5388,0.37403,-0.06567802,1.04096
122.658,18.60732,0.37525,-0.06536869,1.04073
123.358,18.67604,0.37667,-0.06536824,1.04049
124.058,18.74425,0.37439,-0.06505315,1.04026
124.758,18.81223,0.37712,-0.06537007,1.04002
125.458,18.8804,0.37973,-0.06668438,1.03978
126.158,18.9485,0.3791,-0.06667702,1.03954
126.858,19.01661,0.37996,-0.06537447,1.0393
127.558,19.0849,0.38199,-0.06537007,1.03906
128.258,19.15296,0.38301,-0.06627065,1.03882
128.958,19.22103,0.38324,-0.06668001,1.03858
129.658,19.28905,0.38424,-0.06667899,1.03834
130.358,19.35717,0.38539,-0.06672036,1.0381
131.058,19.42514,0.38589,-0.06668999,1.03785
131.758,19.4928,0.38776,-0.06669001,1.03761
132.458,19.56072,0.38737,-0.066661,1.03736
133.158,19.62888,0.39136,-0.06703087,1.03711
133.858,19.69697,0.39336,-0.06819649,1.03686
134.558,19.76468,0.39281,-0.06832159,1.03662
135.258,19.83227,0.39434,-0.06799985,1.03637
135.958,19.90025,0.39729,-0.068,1.03612
136.658,19.96837,0.39878,-0.06800383,1.03587
137.358,20.03647,0.39678,-0.06830968,1.03561
138.058,20.1044,0.3975,-0.06799982,1.03536
138.758,20.17193,0.40102,-0.06800804,1.03511
139.458,20.2391,0.40067,-0.06801091,1.03485
140.158,20.30646,0.40142,-0.06801,1.0346
140.858,20.3743,0.40111,-0.06801,1.03434
141.558,20.44238,0.40493,-0.06801,1.03409
142.258,20.5103,0.40605,-0.06800998,1.03383
142.958,20.57773,0.40595,-0.06930404,1.03357
143.658,20.64524,0.40761,-0.06883112,1.03331
144.358,20.71296,0.40798,-0.06799999,1.03305
145.058,20.7806,0.4094,-0.06803893,1.03279
145.758,20.84804,0.4093,-0.06799737,1.03253
146.458,20.9154,0.41071,-0.06807744,1.03227
147.158,20.9828,0.41384,-0.06931088,1.032
147.858,21.05023,0.4125,-0.06865975,1.03174
148.558,21.11771,0.41556,-0.06865999,1.03147
149.258,21.1852,0.41834,-0.06872713,1.03121
149.958,21.25277,0.4167,-0.06812109,1.03094
150.658,21.32006,0.41868,-0.06932,1.03068
151.358,21.38743,0.41997,-0.06932,1.03041
152.058,21.45478,0.41905,-0.06934368,1.03014
152.758,21.5223,0.42035,-0.06957418,1.02987
153.458,21.5899,0.42127,-0.06932,1.0296
154.158,21.65725,0.42316,-0.06932,1.02933
154.858,21.72425,0.42265,-0.06932,1.02906
155.558,21.7913,0.42489,-0.06932051,1.02878
156.258,21.85853,0.42689,-0.07029071,1.02851
156.958,21.92588,0.42429,-0.07003188,1.02824
157.658,21.99318,0.42766,-0.06998,1.02796
158.358,22.06041,0.4279,-0.06998,1.02769
159.058,22.12775,0.42972,-0.06998117,1.02741
159.758,22.19502,0.42908,-0.07064472,1.02713
160.458,22.26206,0.42842,-0.07080222,1.02685
161.158,22.32914,0.43042,-0.0706398,1.02657
161.858,22.39648,0.43028,-0.07064,1.02629
162.558,22.4638,0.43216,-0.07064,1.02601
163.258,22.53107,0.43427,-0.07064029,1.02573
163.958,22.59791,0.43684,-0.0719528,1.02545
164.658,22.66498,0.43849,-0.07203931,1.02517
165.358,22.73227,0.43887,-0.07159541,1.02488
166.058,22.79965,0.43976,-0.07162,1.0246
166.758,22.86676,0.44102,-0.07185244,1.02431
167.458,22.93383,0.4414,-0.07098279,1.02403
168.158,23.001,0.44129,-0.07063998,1.02374
168.858,23.06805,0.43944,-0.07056297,1.02345
169.558,23.1351,0.44195,-0.07195003,1.02317
170.258,23.20223,0.44036,-0.07195,1.02288
170.958,23.26954,0.44255,-0.07195,1.02259
171.658,23.3369,0.44241,-0.07195,1.0223
172.358,23.40395,0.44519,-0.07195,1.022
173.058,23.47121,0.44436,-0.07194801,1.02171
173.758,23.53833,0.44756,-0.07194719,1.02142
174.458,23.6056,0.4457,-0.07195667,1.02113
175.158,23.67285,0.44803,-0.07062953,1.02083
175.858,23.73997,0.44783,-0.07062999,1.02054
176.558,23.80702,0.44735,-0.07198088,1.02024
177.258,23.87417,0.44939,-0.07118589,1.01994
177.958,23.94105,0.45198,-0.0706201,1.01965
178.658,24.0081,0.44988,-0.07194964,1.01935
179.358,24.07506,0.45238,-0.07194656,1.01905
180.058,24.14211,0.45235,-0.07326334,1.01875
180.758,24.20897,0.45232,-0.07226015,1.01845
181.458,24.27589,0.45211,-0.07228001,1.01815
182.158,24.3428,0.45272,-0.07228002,1.01784
182.858,24.40983,0.45317,-0.07260628,1.01754
183.558,24.47684,0.45401,-0.07304637,1.01724
184.258,24.5439,0.45408,-0.07359998,1.01693
184.958,24.6109,0.45577,-0.07359999,1.01663
185.658,24.67791,0.45678,-0.07332746,1.01632
186.358,24.74465,0.45396,-0.07326999,1.01602
187.058,24.81146,0.45538,-0.07327,1.01571
187.758,24.87823,0.45867,-0.07327483,1.0154
188.458,24.94505,0.4559,-0.07308021,1.01509
189.158,25.0119,0.45683,-0.07327001,1.01478
189.858,25.0785,0.45764,-0.07327,1.01447
190.558,25.14547,0.45929,-0.07326641,1.01416
191.258,25.2124,0.45906,-0.07458331,1.01385
191.958,25.27938,0.46083,-0.07457999,1.01354
192.658,25.3463,0.45961,-0.07501325,1.01322
193.358,25.41323,0.46144,-0.07523871,1.01291
194.058,25.4799,0.45962,-0.07392987,1.01259
194.758,25.54656,0.46236,-0.07393,1.01228
195.458,25.6131,0.46505,-0.07393,1.01196
196.158,25.6799,0.46445,-0.0739305,1.01165
196.858,25.7467,0.46478,-0.07458849,1.01133
197.558,25.81343,0.46503,-0.07558432,1.01101
198.258,25.8801,0.46784,-0.07558,1.01069
198.958,25.94681,0.46871,-0.07558705,1.01037
199.658,26.01357,0.46564,-0.07425953,1.01005
200.358,26.08045,0.46921,-0.07458831,1.00973
201.058,26.14734,0.46838,-0.07459752,1.00941
201.758,26.21435,0.47017,-0.07534943,1.00908
202.458,26.2812,0.47116,-0.07589998,1.00876
203.158,26.34808,0.47319,-0.07570675,1.00844
203.858,26.4149,0.47356,-0.07589835,1.00811
204.558,26.4817,0.47672,-0.0759,1.00779
205.258,26.54852,0.47517,-0.0759,1.00746
205.958,26.61535,0.47738,-0.07589903,1.00713
206.658,26.6821,0.47681,-0.07459144,1.0068
207.358,26.74875,0.47881,-0.07458554,1.00648
208.058,26.8154,0.47928,-0.07492871,1.00615
208.758,26.88216,0.47978,-0.07555513,1.00582
209.458,26.9491,0.48055,-0.07529025,1.00549
210.158,27.01602,0.48344,-0.07524998,1.00515
210.858,27.08285,0.48396,-0.07525007,1.00482
211.558,27.14988,0.48425,-0.07656189,1.00449
212.258,27.21668,0.4872,-0.07725668,1.00416
212.958,27.2839,0.48897,-0.07655923,1.00382
213.658,27.35045,0.48782,-0.07656002,1.00349
214.358,27.4172,0.48925,-0.07561204,1.00315
215.058,27.484,0.49102,-0.07556997,1.00281
215.758,27.55074,0.49295,-0.0769271,1.00248
216.458,27.6175,0.49234,-0.07689002,1.00214
217.158,27.68429,0.49643,-0.07689,1.0018
217.858,27.7513,0.49722,-0.07689,1.00146
218.558,27.81812,0.49838,-0.07689,1.00112
219.258,27.8849,0.50222,-0.07689,1.00078
219.958,27.9515,0.50384,-0.07689,1.00044
220.658,28.01843,0.50631,-0.07687691,1.0001
221.358,28.0853,0.50641,-0.07622966,0.99975
222.058,28.152,0.50733,-0.07624184,0.99941
222.758,28.2188,0.51042,-0.07684113,0.99907
223.458,28.28555,0.5101,-0.0771944,0.99872
224.158,28.3525,0.5132,-0.07590013,0.99838
224.858,28.41938,0.51656,-0.0759,0.99803
225.558,28.48638,0.5165,-0.07626661,0.99768
226.258,28.5532,0.51978,-0.07720993,0.99734
226.958,28.62006,0.52075,-0.07721,0.99699
227.658,28.6868,0.5257,-0.07721,0.99664
228.358,28.75334,0.52719,-0.07720703,0.99629
229.058,28.81987,0.5269,-0.0782006,0.99594
229.758,28.88656,0.5313,-0.07853012,0.99559
230.458,28.95318,0.53264,-0.07853,0.99524
231.158,29.0199,0.53493,-0.07853039,0.99488
231.858,29.0863,0.53779,-0.07721655,0.99453
232.558,29.15304,0.53957,-0.07590067,0.99418
233.258,29.22,0.54261,-0.07722005,0.99382
233.958,29.28724,0.54762,-0.07722,0.99347
234.658,29.3542,0.54902,-0.07722582,0.99311
235.358,29.421,0.55135,-0.07787882,0.99275
236.058,29.4878,0.55636,-0.07854225,0.9924
236.758,29.55452,0.56055,-0.07854,0.99204
237.458,29.62132,0.56215,-0.07854,0.99168
238.158,29.68802,0.56563,-0.07854,0.99132
238.858,29.75481,0.56963,-0.07853999,0.99096
239.558,29.82163,0.57307,-0.07857029,0.9906
240.258,29.8885,0.5756,-0.07722001,0.99024
240.958,29.95536,0.58317,-0.0777236,0.98988
241.658,30.02235,0.58615,-0.07853999,0.98951
242.358,30.0894,0.5914,-0.07853996,0.98915
243.058,30.1562,0.59795,-0.07725746,0.98879
243.758,30.22297,0.60477,-0.07722,0.98842
244.458,30.2897,0.60887,-0.07752592,0.98806
245.158,30.3566,0.61812,-0.07891193,0.98769
245.858,30.42339,0.6262,-0.07984864,0.98732
246.558,30.4903,0.6388,-0.07853031,0.98696
247.258,30.5573,0.64805,-0.07853492,0.98659
247.958,30.6242,0.66106,-0.07755076,0.98622
248.658,30.691,0.68163,-0.07754,0.98585
249.358,30.75787,0.70896,-0.07745499,0.98548
250.058,30.82494,0.74106,-0.08018698,0.98511
250.758,30.8921,0.7755,-0.0788555,0.98474
251.458,30.95907,0.80868,-0.08017768,0.98437
252.158,31.02608,0.84473,-0.08015126,0.984
252.858,31.09317,0.88304,-0.07918946,0.98362
253.558,31.16024,0.92844,-0.07919,0.98325
254.258,31.22754,0.98407,-0.07918955,0.98287
254.958,31.29488,1.04301,-0.08050578,0.9825
255.658,31.3624,1.10728,-0.08031815,0.98212
256.358,31.4298,1.16967,-0.07919,0.98175
257.058,31.49758,1.23214,-0.07921293,0.98137
257.758,31.5649,1.29083,-0.08049989,0.98099
258.458,31.6321,1.34712,-0.0805,0.98061
259.158,31.69946,1.40273,-0.08050076,0.98023
259.858,31.76715,1.45653,-0.08018384,0.97985
260.558,31.8353,1.50313,-0.08148908,0.97947
261.258,31.9029,1.53631,-0.08148998,0.97909
261.958,31.9706,1.52867,-0.08113625,0.97871
262.658,32.03792,1.42281,-0.08083573,0.97833
263.358,32.1049,1.18923,-0.07950953,0.97795
264.058,32.17137,0.9639,-0.07951048,0.97756
264.758,32.2376,0.81384,-0.08083324,0.97718
265.458,32.30388,0.71097,-0.08083,0.97679
266.158,32.3701,0.64351,-0.08083,0.97641
266.858,32.43603,0.60071,-0.08083,0.97602
267.558,32.5022,0.57512,-0.08083,0.97564
268.258,32.56813,0.55499,-0.08083,0.97525
268.958,32.63425,0.54378,-0.08083,0.97486
269.658,32.7003,0.53541,-0.08083,0.97447
270.358,32.76675,0.52966,-0.08082997,0.97408
271.058,32.8333,0.52426,-0.08102587,0.97369
271.758,32.89932,0.52307,-0.08148999,0.9733
272.458,32.96502,0.51995,-0.08149,0.97291
273.158,33.0309,0.52067,-0.08149,0.97252
273.858,33.09722,0.51674,-0.08149,0.97213
274.558,33.16388,0.51759,-0.08149,0.97173
275.258,33.23048,0.51551,-0.08148958,0.97134
275.958,33.29715,0.51576,-0.08214666,0.97095
276.658,33.36427,0.51575,-0.08278519,0.97055
277.358,33.43161,0.51655,-0.08281,0.97016
278.058,33.49855,0.51728,-0.08281,0.96976
278.758,33.5652,0.51822,-0.08281,0.96936
279.458,33.6319,0.51649,-0.08280995,0.96897
280.158,33.69885,0.51776,-0.08193395,0.96857
280.858,33.76594,0.51748,-0.08150001,0.96817
281.558,33.83267,0.51724,-0.0815,0.96777
282.258,33.89933,0.51962,-0.08149407,0.96737
282.958,33.9659,0.51801,-0.08248025,0.96697
283.658,34.03267,0.52,-0.08248,0.96657
284.358,34.09949,0.52065,-0.08248,0.96617
285.058,34.1663,0.52101,-0.08247066,0.96577
285.758,34.23312,0.52057,-0.08214982,0.96536
286.458,34.2998,0.52063,-0.08215,0.96496
287.158,34.36671,0.52122,-0.08215,0.96456
287.858,34.4335,0.52326,-0.08212478,0.96415
288.558,34.50045,0.52093,-0.08247999,0.96375
289.258,34.5674,0.52168,-0.08247364,0.96334
289.958,34.63418,0.52332,-0.08384292,0.96293
290.658,34.7011,0.52086,-0.08247986,0.96253
291.358,34.768,0.52161,-0.08250056,0.96212
292.058,34.835,0.52339,-0.08515575,0.96171
292.758,34.90197,0.52442,-0.08382866,0.9613
293.458,34.96895,0.52443,-0.08248522,0.96089
294.158,35.036,0.52469,-0.08511212,0.96048
294.858,35.10305,0.52224,-0.08511,0.96007
295.558,35.16989,0.52391,-0.08511004,0.95966
296.258,35.23685,0.52422,-0.08379659,0.95925
296.958,35.30359,0.52369,-0.08509628,0.95884
297.658,35.37059,0.52473,-0.08511,0.95842
298.358,35.43758,0.52362,-0.08511,0.95801
299.058,35.50431,0.52545,-0.08511,0.9576
299.758,35.57143,0.52452,-0.08511,0.95718
300.458,35.6387,0.52614,-0.08511,0.95677
301.158,35.70625,0.52794,-0.08511,0.95635
301.858,35.7733,0.52681,-0.08511007,0.95593
302.558,35.84006,0.52775,-0.08577241,0.95552
303.258,35.90715,0.52771,-0.08476141,0.9551
303.958,35.97424,0.52543,-0.08601001,0.95468
304.658,36.04164,0.52801,-0.0861,0.95426
305.358,36.10887,0.52635,-0.0861,0.95384
306.058,36.17629,0.52706,-0.08610014,0.95342
306.758,36.24371,0.528,-0.0871967,0.953
307.458,36.311,0.52734,-0.08709,0.95258
308.158,36.3782,0.53117,-0.08709,0.95216
308.858,36.44543,0.52911,-0.08709,0.95174
309.558,36.5128,0.53059,-0.08709,0.95132
310.258,36.57995,0.53092,-0.08709,0.95089
310.958,36.64716,0.53187,-0.08708991,0.95047
311.658,36.71417,0.53028,-0.08635906,0.95004
312.358,36.7814,0.53224,-0.0864302,0.94962
313.058,36.8486,0.53233,-0.08730039,0.94919
313.758,36.9159,0.53133,-0.08807926,0.94877
314.458,36.9833,0.5338,-0.08771924,0.94834
315.158,37.05066,0.53167,-0.08643006,0.94791
315.858,37.11792,0.53472,-0.08778845,0.94749
316.558,37.18544,0.53553,-0.0891564,0.94706
317.258,37.2528,0.53494,-0.08906999,0.94663
317.958,37.32047,0.53417,-0.08907,0.9462
318.658,37.38779,0.53759,-0.08923955,0.94577
319.358,37.45517,0.53756,-0.09068387,0.94534
320.058,37.52254,0.53662,-0.09136023,0.94491
320.758,37.58995,0.53924,-0.09005021,0.94448
321.458,37.65735,0.53629,-0.08873651,0.94404
322.158,37.72459,0.53894,-0.09009847,0.94361
322.858,37.79207,0.53807,-0.09005026,0.94318
323.558,37.8594,0.53993,-0.09036904,0.94274
324.258,37.9272,0.54099,-0.09037,0.94231
324.958,37.99462,0.54165,-0.09037,0.94187
325.658,38.06217,0.53946,-0.09034765,0.94144
326.358,38.12939,0.54237,-0.09168999,0.941
327.058,38.19658,0.5398,-0.09266867,0.94057
327.758,38.26384,0.53888,-0.09267853,0.94013
328.458,38.33145,0.54168,-0.09137118,0.93969
329.158,38.3991,0.54098,-0.09137,0.93925
329.858,38.46673,0.54057,-0.09137,0.93881
330.558,38.53407,0.54082,-0.09137001,0.93837
331.258,38.6017,0.54232,-0.09132344,0.93793
331.958,38.66896,0.54153,-0.09399972,0.93749
332.658,38.73669,0.54555,-0.09270882,0.93705
333.358,38.8043,0.54277,-0.09268,0.93661
334.058,38.87242,0.54239,-0.09268005,0.93617
334.758,38.9399,0.54468,-0.09333685,0.93573
335.458,39.00757,0.54344,-0.09235986,0.93528
336.158,39.0751,0.54606,-0.09235983,0.93484
336.858,39.1425,0.54572,-0.09268227,0.9344
337.558,39.20968,0.5449,-0.09398801,0.93395
338.258,39.27722,0.54603,-0.09464995,0.93351
338.958,39.34499,0.54973,-0.09465,0.93306
339.658,39.41285,0.54627,-0.09464707,0.93261
340.358,39.48043,0.54811,-0.09530968,0.93217
341.058,39.54775,0.55295,-0.09522592,0.93172
341.758,39.61522,0.54918,-0.09663247,0.93127
342.458,39.68286,0.55271,-0.09630065,0.93082
343.158,39.75052,0.55264,-0.0963,0.93037
343.858,39.81827,0.5542,-0.09630005,0.92993
344.558,39.8859,0.55285,-0.09741546,0.92948
345.258,39.95347,0.55165,-0.09762002,0.92902
345.958,40.0212,0.55565,-0.09762001,0.92857
346.658,40.08883,0.55562,-0.09764362,0.92812
347.358,40.1565,0.55676,-0.09991967,0.92767
348.058,40.2241,0.55687,-0.09991918,0.92722
348.758,40.29181,0.55959,-0.09861061,0.92676
349.458,40.35955,0.55709,-0.0986,0.92631
350.158,40.42653,0.56149,-0.09860209,0.92586
350.858,40.4936,0.56156,-0.09959767,0.9254
351.558,40.56047,0.56276,-0.09959,0.92495
352.258,40.62781,0.56086,-0.09959,0.92449
352.958,40.69572,0.56309,-0.09959066,0.92404
353.658,40.76355,0.56326,-0.10009,0.92358
354.358,40.83175,0.56512,-0.10256,0.92312
355.058,40.89963,0.56818,-0.10255,0.92266
355.758,40.96776,0.5649,-0.10382,0.92221
356.458,41.0361,0.56605,-0.10295,0.92175
357.158,41.1043,0.56444,-0.10352,0.92129
357.858,41.17222,0.5645,-0.10354,0.92083
358.558,41.2399,0.56592,-0.1042,0.92037
359.258,41.3076,0.56436,-0.10649,0.91991
359.958,41.3754,0.56353,-0.10656,0.91945
360.658,41.44318,0.56168,-0.10683,0.91899
361.358,41.51085,0.56463,-0.10683,0.91852
362.058,41.57874,0.56481,-0.10683,0.91806
362.758,41.64671,0.56572,-0.10937,0.9176
363.458,41.71477,0.56591,-0.10946,0.91714
364.158,41.7826,0.57215,-0.10998,0.91667
364.858,41.85032,0.57216,-0.11111,0.91621
365.558,41.91818,0.57608,-0.11111,0.91574
366.258,41.98605,0.57894,-0.11382,0.91528
366.958,42.05403,0.58304,-0.11378,0.91481
367.658,42.1218,0.58626,-0.11436,0.91434
368.358,42.1894,0.59128,-0.11504,0.91388
369.058,42.25662,0.59461,-0.11506,0.91341
369.758,42.32419,0.59795,-0.11498,0.91294
370.458,42.3924,0.59928,-0.11697,0.91247
371.158,42.46105,0.60392,-0.11942,0.912
371.858,42.52948,0.60834,-0.11967,0.91153
372.558,42.5976,0.60924,-0.12155,0.91107
373.258,42.6654,0.61804,-0.1224,0.91059
373.958,42.73345,0.62528,-0.12373,0.91012
374.658,42.8015,0.62959,-0.12548,0.90965
375.358,42.86994,0.63366,-0.12702,0.90918
376.058,42.93833,0.63753,-0.12699,0.90871
376.758,43.0067,0.64303,-0.12973,0.90824
377.458,43.0747,0.65399,-0.13107,0.90776
378.158,43.14275,0.66123,-0.13239,0.90729
378.858,43.2111,0.67261,-0.13369,0.90682
379.558,43.2795,0.68069,-0.13633,0.90634
380.258,43.34779,0.69811,-0.13845,0.90587
380.958,43.41615,0.70873,-0.13994,0.90539
381.658,43.48433,0.72308,-0.14392,0.90491
382.358,43.55273,0.73922,-0.14593,0.90444
383.058,43.6209,0.75475,-0.1481,0.90396
383.758,43.68929,0.76865,-0.14961,0.90348
384.458,43.75761,0.78334,-0.15307,0.90301
385.158,43.82601,0.79917,-0.15783,0.90253
385.858,43.89448,0.81739,-0.16222,0.90205
386.558,43.96287,0.83908,-0.1656,0.90157
387.258,44.03119,0.85748,-0.16837,0.90109
387.958,44.09963,0.87539,-0.17369,0.90061
388.658,44.16802,0.89292,-0.17793,0.90013
389.358,44.23643,0.91812,-0.18352,0.89965
390.058,44.30491,0.93595,-0.1915,0.89917
390.758,44.37356,0.96165,-0.19743,0.89869
391.458,44.44205,0.99599,-0.20251,0.8982
392.158,44.51061,1.03664,-0.20844,0.89772
392.858,44.57906,1.06695,-0.217,0.89724
393.558,44.64771,1.09749,-0.22431,0.89675
394.258,44.71628,1.12433,-0.23339,0.89627
394.958,44.78487,1.14944,-0.24467,0.89579
395.658,44.8534,1.17712,-0.25586,0.8953
396.358,44.92196,1.20134,-0.26405,0.89481
397.058,44.99042,1.22259,-0.27518,0.89433
397.758,45.0591,1.2459,-0.28774,0.89384
398.458,45.12762,1.26563,-0.30026,0.89336
399.158,45.19624,1.28644,-0.31361,0.89287
399.858,45.26467,1.3074,-0.32641,0.89238
400.558,45.33314,1.32939,-0.33978,0.89189
401.258,45.4016,1.34678,-0.35444,0.8914
401.958,45.47019,1.3691,-0.37001,0.89092
402.658,45.53882,1.38541,-0.38613,0.89043
403.358,45.60734,1.40801,-0.4019,0.88994
404.058,45.67587,1.42951,-0.41919,0.88945
404.758,45.7445,1.44734,-0.4364,0.88896
405.458,45.81307,1.47262,-0.45371,0.88846
406.158,45.88146,1.49042,-0.4719,0.88797
406.858,45.9497,1.51166,-0.49188,0.88748
407.558,46.0182,1.53548,-0.50971,0.88699
408.258,46.08701,1.55757,-0.53014,0.8865
408.958,46.15553,1.5825,-0.5507,0.886
409.658,46.22415,1.60651,-0.57316,0.88551
410.358,46.29255,1.62642,-0.59384,0.88501
411.058,46.36133,1.644,-0.61742,0.88452
411.758,46.42982,1.67333,-0.63975,0.88403
412.458,46.49843,1.6918,-0.66507,0.88353
413.158,46.56705,1.71423,-0.68946,0.88303
413.858,46.63592,1.73202,-0.71525,0.88254
414.558,46.70479,1.75071,-0.74,0.88204
415.258,46.77352,1.77475,-0.76726,0.88154
415.958,46.8422,1.79456,-0.79419,0.88105
416.658,46.91098,1.81858,-0.82064,0.88055
417.358,46.9797,1.84011,-0.8497,0.88005
418.058,47.04817,1.85907,-0.87876,0.87955
418.758,47.11677,1.87355,-0.90655,0.87905
419.458,47.1854,1.89862,-0.93787,0.87855
420.158,47.2543,1.9155,-0.9701,0.87805
420.858,47.32304,1.92739,-1.00159,0.87755
421.558,47.39192,1.93962,-1.03621,0.87705
422.258,47.4606,1.95291,-1.06911,0.87655
422.958,47.52933,1.96713,-1.10024,0.87605
423.658,47.59771,1.9811,-1.136,0.87555
424.358,47.66641,1.98652,-1.17059,0.87505
425.058,47.73507,1.99378,-1.20543,0.87454
425.758,47.80405,2.00231,-1.24034,0.87404
426.458,47.87296,2.0061,-1.27776,0.87354
427.158,47.94186,2.01482,-1.31469,0.87303
427.858,48.01041,2.01835,-1.35093,0.87253
428.558,48.07918,2.02407,-1.38906,0.87202
429.258,48.1481,2.02481,-1.42757,0.87152
429.958,48.2173,2.02842,-1.46724,0.87101
430.658,48.28614,2.02835,-1.50438,0.87051
431.358,48.35472,2.02475,-1.54404,0.87
432.058,48.42337,2.02388,-1.58454,0.86949
432.758,48.49197,2.02493,-1.62426,0.86899
433.458,48.56077,2.02468,-1.66391,0.86848
434.158,48.6297,2.02344,-1.70512,0.86797
434.858,48.69838,2.01908,-1.74847,0.86746
435.558,48.76709,2.01246,-1.78898,0.86696
436.258,48.8356,2.00649,-1.83127,0.86645
436.958,48.90432,2.00404,-1.87438,0.86594
437.658,48.97309,1.99667,-1.91414,0.86543
438.358,49.0417,1.98955,-1.95707,0.86492
439.058,49.11051,1.98152,-1.99994,0.86441
439.758,49.1791,1.96779,-2.04318,0.8639
440.458,49.24765,1.96691,-2.08408,0.86338
441.158,49.3162,1.95246,-2.1279,0.86287
441.858,49.38453,1.93851,-2.17296,0.86236
442.558,49.45281,1.92677,-2.21499,0.86185
443.258,49.5208,1.91704,-2.25527,0.86134
443.958,49.58898,1.90717,-2.29859,0.86082
444.658,49.6578,1.89804,-2.34111,0.86031
445.358,49.7269,1.88601,-2.38566,0.8598
446.058,49.796,1.87718,-2.42902,0.85928
446.758,49.86503,1.86748,-2.47365,0.85877
447.458,49.93391,1.85379,-2.51713,0.85825
448.158,50.00265,1.8429,-2.55983,0.85774
448.858,50.07111,1.82832,-2.6052,0.85722
449.558,50.13957,1.81396,-2.65027,0.8567
450.258,50.20835,1.79495,-2.69271,0.85619
450.958,50.27707,1.77895,-2.73446,0.85567
451.658,50.34579,1.76041,-2.77959,0.85515
452.358,50.4144,1.74347,-2.82297,0.85464
453.058,50.48324,1.7211,-2.86621,0.85412
453.758,50.55185,1.69942,-2.91036,0.8536
454.458,50.62045,1.67744,-2.95325,0.85308
455.158,50.68894,1.65241,-2.99433,0.85256
455.858,50.7577,1.62282,-3.03845,0.85204
456.558,50.82633,1.59918,-3.08074,0.85152
457.258,50.8949,1.56863,-3.12452,0.851
457.958,50.96338,1.53893,-3.16337,0.85048
458.658,51.0321,1.50306,-3.20419,0.84996
459.358,51.10088,1.46841,-3.24491,0.84944
460.058,51.16955,1.42806,-3.28381,0.84892
460.758,51.23809,1.3882,-3.3217,0.8484
461.458,51.3065,1.34703,-3.36013,0.84788
462.158,51.37494,1.30298,-3.39785,0.84735
462.858,51.4435,1.25266,-3.43273,0.84683
463.558,51.51198,1.20696,-3.46834,0.84631
464.258,51.58051,1.15684,-3.50594,0.84578
464.958,51.64888,1.09991,-3.5382,0.84526
465.658,51.71725,1.04681,-3.56911,0.84474
466.358,51.78568,0.98599,-3.59952,0.84421
467.058,51.85407,0.9284,-3.62974,0.84369
467.758,51.92265,0.8651,-3.65587,0.84316
468.458,51.991,0.80979,-3.68136,0.84263
469.158,52.0593,0.74596,-3.70682,0.84211
469.858,52.12747,0.68867,-3.73082,0.84158
470.558,52.19575,0.62898,-3.75169,0.84106
471.258,52.2642,0.57213,-3.77253,0.84053
471.958,52.3327,0.52009,-3.79133,0.84
472.658,52.40121,0.46702,-3.80648,0.83947
473.358,52.46954,0.42201,-3.82316,0.83895
474.058,52.5381,0.37808,-3.83757,0.83842
474.758,52.60674,0.34056,-3.8494,0.83789
475.458,52.67559,0.30598,-3.85998,0.83736
476.158,52.7442,0.27717,-3.8693,0.83683
476.858,52.8131,0.25076,-3.87955,0.8363
477.558,52.8819,0.22722,-3.88813,0.83577
478.258,52.9509,0.20478,-3.89646,0.83524
478.958,53.0197,0.18736,-3.90151,0.83471
479.658,53.0884,0.16817,-3.9083,0.83418
480.358,53.15707,0.15427,-3.91284,0.83365
481.058,53.22589,0.1418,-3.91768,0.83312
481.758,53.29478,0.13105,-3.92316,0.83258
482.458,53.36365,0.12307,-3.9263,0.83205
483.158,53.43251,0.11265,-3.92918,0.83152
483.858,53.50135,0.10947,-3.93193,0.83099
484.558,53.5704,0.10599,-3.93356,0.83045
485.258,53.6395,0.0939923,-3.9351,0.82992
485.958,53.7086,0.091813,-3.93641,0.82939
486.658,53.77777,0.08621982,-3.93895,0.82885
487.358,53.8467,0.08917076,-3.93905,0.82832
488.058,53.91582,0.08168102,-3.94038,0.82778
488.758,53.98489,0.08218512,-3.94166,0.82725
489.458,54.054,0.07841267,-3.9429,0.82671
490.158,54.12304,0.07919939,-3.94325,0.82618
490.858,54.192,0.0767943,-3.94432,0.82564
491.558,54.261,0.07477454,-3.94693,0.82511
492.258,54.33021,0.07401888,-3.94826,0.82457
492.958,54.3994,0.07278196,-3.94958,0.82403
493.658,54.4687,0.07202373,-3.94957,0.82349
494.358,54.5378,0.0726039,-3.94957,0.82296
495.058,54.6067,0.07399167,-3.94957,0.82242
495.758,54.6759,0.07756098,-3.94958,0.82188
496.458,54.7451,0.08266747,-3.9509,0.82134
497.158,54.8139,0.09011743,-3.95089,0.8208
497.858,54.88284,0.09216156,-3.95221,0.82027
498.558,54.95202,0.09764848,-3.9509,0.81973
499.258,55.02163,0.0978172,-3.9522,0.81919
499.958,55.09104,0.09766144,-3.95221,0.81865
500.658,55.16033,0.09811291,-3.95257,0.81811
501.358,55.2298,0.09565327,-3.95353,0.81757
502.058,55.2991,0.0879246,-3.95353,0.81702
502.758,55.3685,0.07857229,-3.95483,0.81648
503.458,55.4379,0.07258775,-3.95484,0.81594
504.158,55.5075,0.06863478,-3.95384,0.8154
504.858,55.57721,0.07050882,-3.95385,0.81486
505.558,55.64689,0.06684494,-3.95385,0.81432
506.258,55.71645,0.0667371,-3.95484,0.81377
506.958,55.7858,0.06822175,-3.95484,0.81323
507.658,55.85527,0.06377462,-3.95651,0.81269
508.358,55.92487,0.0620581,-3.95557,0.81215
509.058,55.9945,0.05962352,-3.95649,0.8116
509.758,56.064,0.05702288,-3.95649,0.81106
510.458,56.13355,0.05483886,-3.95649,0.81051
511.158,56.2032,0.05239166,-3.95649,0.80997
511.858,56.2729,0.04940316,-3.95649,0.80942
512.558,56.34185,0.04369706,-3.95649,0.80888
513.258,56.41104,0.0377093,-3.95648,0.80833
513.958,56.48033,0.03543956,-3.95647,0.80779
514.658,56.5503,0.0305283,-3.95782,0.80724
515.358,56.6201,0.02837381,-3.95912,0.8067
516.058,56.6899,0.02748055,-3.95912,0.80615
516.758,56.75976,0.02405355,-3.95848,0.8056
517.458,56.8295,0.02221208,-3.9578,0.80506
518.158,56.89979,0.02202516,-3.95649,0.80451
518.858,56.96996,0.02221577,-3.95681,0.80396
519.558,57.04028,0.02016507,-3.9578,0.80341
520.258,57.11,0.01715113,-3.9578,0.80287
520.958,57.1797,0.01828197,-3.9578,0.80232
521.658,57.2495,0.0180368,-3.95912,0.80177
522.358,57.3194,0.01679159,-3.95912,0.80122
523.058,57.3893,0.01886395,-3.95912,0.80067
523.758,57.45925,0.01741434,-3.9578,0.80012
524.458,57.529,0.02072426,-3.95781,0.79957
525.158,57.5988,0.01988804,-3.95865,0.79902
525.858,57.6684,0.01785534,-3.96043,0.79847
526.558,57.7382,0.01988572,-3.96043,0.79792
527.258,57.8079,0.02127542,-3.96043,0.79737
527.958,57.8776,0.02333843,-3.95967,0.79682
528.658,57.9472,0.02527077,-3.95912,0.79627
529.358,58.01695,0.02892029,-3.95912,0.79572
530.058,58.08668,0.02685155,-3.95912,0.79517
530.758,58.1562,0.03029716,-3.95819,0.79461
531.458,58.22591,0.03024239,-3.95912,0.79406
532.158,58.2954,0.03074839,-3.95984,0.79351
532.858,58.3651,0.03031753,-3.95978,0.79296
533.558,58.43473,0.03086952,-3.95978,0.7924
534.258,58.5039,0.03027351,-3.96044,0.79185
534.958,58.57342,0.03216405,-3.96046,0.7913
535.658,58.64286,0.03031697,-3.95978,0.79074
536.358,58.7127,0.03320213,-3.95979,0.79019
537.058,58.78227,0.03233364,-3.95847,0.78963
537.758,58.85182,0.03192808,-3.95833,0.78908
538.458,58.9214,0.03319672,-3.95846,0.78853
539.158,58.9908,0.03452949,-3.95846,0.78797
539.858,59.0603,0.03496964,-3.95978,0.78742
540.558,59.1298,0.03570264,-3.95978,0.78686
541.258,59.1996,0.03591773,-3.95978,0.7863
541.958,59.2691,0.03404704,-3.95978,0.78575
542.658,59.33877,0.03794438,-3.95978,0.78519
543.358,59.40849,0.03601217,-3.95925,0.78464
544.058,59.47855,0.03710085,-3.95846,0.78408
544.758,59.54826,0.03680087,-3.95977,0.78352
545.458,59.61786,0.03437997,-3.95977,0.78297
546.158,59.68731,0.0359976,-3.96109,0.78241
546.858,59.75694,0.03439623,-3.96109,0.78185
547.558,59.8265,0.03468746,-3.96109,0.78129
548.258,59.89592,0.03358143,-3.96109,0.78074
548.958,59.9655,0.03357801,-3.96109,0.78018
549.658,60.0351,0.03303654,-3.95977,0.77962
550.358,60.10505,0.03361093,-3.96045,0.77906
551.058,60.1744,0.03845261,-3.96044,0.7785
551.758,60.24365,0.03698495,-3.95944,0.77794
552.458,60.3128,0.04104357,-3.95945,0.77738
553.158,60.38244,0.04106455,-3.96175,0.77682
553.858,60.45239,0.03766468,-3.96119,0.77626
554.558,60.52259,0.03861872,-3.96043,0.7757
555.258,60.5929,0.04331334,-3.96175,0.77514
555.958,60.6633,0.04050503,-3.96303,0.77458
556.658,60.73339,0.0398659,-3.96234,0.77402
557.358,60.80324,0.03841186,-3.96241,0.77346
558.058,60.87271,0.04056497,-3.96239,0.7729
558.758,60.9425,0.04140891,-3.96405,0.77234
559.458,61.01251,0.04043526,-3.96306,0.77178
560.158,61.08271,0.04288053,-3.96306,0.77122
560.858,61.15276,0.04210966,-3.96438,0.77065
561.558,61.22269,0.04365366,-3.96438,0.77009
562.258,61.2928,0.04189486,-3.96438,0.76953
562.958,61.36295,0.04303202,-3.96438,0.76897
563.658,61.43306,0.04168798,-3.96447,0.7684
564.358,61.50335,0.04534128,-3.96405,0.76784
565.058,61.5734,0.04398351,-3.96369,0.76728
565.758,61.64349,0.04176174,-3.96342,0.76671
566.458,61.7134,0.04503688,-3.96319,0.76615
567.158,61.7835,0.04659085,-3.96163,0.76559
567.858,61.85366,0.04383799,-3.96443,0.76502
568.558,61.9238,0.04755951,-3.96438,0.76446
569.258,61.99383,0.04440576,-3.96438,0.76389
569.958,62.06385,0.04716334,-3.96405,0.76333
570.658,62.13395,0.04718871,-3.96277,0.76276
571.358,62.2042,0.04410708,-3.9641,0.7622
572.058,62.2745,0.04378049,-3.96537,0.76163
572.758,62.3447,0.04239778,-3.96573,0.76107
573.458,62.4149,0.04411683,-3.96575,0.7605
574.158,62.48464,0.04368168,-3.96438,0.75994
574.858,62.55446,0.04606389,-3.96438,0.75937
575.558,62.624,0.04537626,-3.96308,0.7588
576.258,62.69401,0.04630565,-3.96437,0.75824
576.958,62.764,0.0474167,-3.96404,0.75767
577.658,62.83435,0.04754963,-3.96534,0.7571
578.358,62.9045,0.04594558,-3.96537,0.75654
579.058,62.97465,0.04898907,-3.96495,0.75597
579.758,63.04512,0.04957788,-3.96536,0.7554
580.458,63.1155,0.04959616,-3.96404,0.75484
581.158,63.1859,0.05073504,-3.96537,0.75427
581.858,63.25595,0.0514249,-3.96537,0.7537
582.558,63.32583,0.05035961,-3.96537,0.75313
583.258,63.39572,0.05304986,-3.96569,0.75256
583.958,63.4656,0.04966127,-3.96669,0.75199
584.658,63.5355,0.05018199,-3.96683,0.75143
585.358,63.6054,0.0512629,-3.96734,0.75086
586.058,63.67535,0.05067649,-3.96684,0.75029
586.758,63.7454,0.0488156,-3.96529,0.74972
587.458,63.81539,0.0486729,-3.96668,0.74915
588.158,63.8851,0.04822104,-3.96668,0.74858
588.858,63.95502,0.04914918,-3.96582,0.74801
589.558,64.02502,0.05108748,-3.96673,0.74744
590.258,64.09518,0.05167611,-3.96668,0.74687
590.958,64.16503,0.05168199,-3.96668,0.7463
591.658,64.23496,0.0520425,-3.968,0.74573
592.358,64.30506,0.05485291,-3.968,0.74516
593.058,64.37514,0.053562,-3.96691,0.74459
593.758,64.44504,0.05706185,-3.96669,0.74402
594.458,64.51507,0.05678753,-3.96669,0.74345
595.158,64.58507,0.05651257,-3.96798,0.74287
595.858,64.65525,0.05976068,-3.96931,0.7423
596.558,64.72529,0.05887131,-3.96831,0.74173
597.258,64.79562,0.0605669,-3.96833,0.74116
597.958,64.86579,0.06266492,-3.96833,0.74059
598.658,64.93596,0.05924207,-3.96833,0.74002
599.358,65.00594,0.0623217,-3.96835,0.73944
600.058,65.07616,0.05705022,-3.96931,0.73887
600.758,65.14611,0.05888998,-3.96941,0.7383
601.458,65.2162,0.05932722,-3.968,0.73773
602.158,65.2862,0.06172563,-3.96768,0.73715
602.858,65.35634,0.06306645,-3.96767,0.73658
603.558,65.4261,0.06271402,-3.96767,0.73601
604.258,65.49546,0.06177736,-3.97031,0.73543
604.958,65.56531,0.05907711,-3.97156,0.73486
605.658,65.63561,0.06305277,-3.97154,0.73429
606.358,65.7063,0.06163071,-3.97031,0.73371
607.058,65.77673,0.06297766,-3.97031,0.73314
607.758,65.84675,0.06521946,-3.97031,0.73256
608.458,65.91671,0.0666092,-3.97031,0.73199
609.158,65.987,0.06394162,-3.97031,0.73142
609.858,66.05798,0.06448695,-3.96897,0.73084
610.558,66.12881,0.06318789,-3.96899,0.73027
611.258,66.19936,0.06581674,-3.97031,0.72969
611.958,66.26943,0.0647557,-3.97031,0.72912
612.658,66.33965,0.06769252,-3.97162,0.72854
613.358,66.40975,0.0648808,-3.97162,0.72797
614.058,66.48015,0.06827099,-3.97293,0.72739
614.758,66.55045,0.06826806,-3.97163,0.72681
615.458,66.6206,0.07184572,-3.97158,0.72624
616.158,66.69078,0.0719586,-3.97063,0.72566
616.858,66.76103,0.06959013,-3.97031,0.72509
617.558,66.8313,0.06974006,-3.97031,0.72451
618.258,66.90148,0.06919797,-3.96932,0.72393
618.958,66.9718,0.0720545,-3.96932,0.72336
619.658,67.04213,0.06867588,-3.96928,0.72278
620.358,67.11241,0.07171101,-3.97064,0.7222
621.058,67.18248,0.06924476,-3.97066,0.72163
621.758,67.2526,0.07552135,-3.97031,0.72105
622.458,67.3228,0.07521847,-3.97033,0.72047
623.158,67.393,0.07453088,-3.97162,0.7199
623.858,67.4632,0.07488206,-3.97162,0.71932
624.558,67.53341,0.07696616,-3.97164,0.71874
625.258,67.60367,0.07344574,-3.97294,0.71816
625.958,67.67415,0.07894839,-3.97294,0.71758
626.658,67.7445,0.07895507,-3.97298,0.71701
627.358,67.815,0.0745911,-3.97261,0.71643
628.058,67.88529,0.08048391,-3.97261,0.71585
628.758,67.9559,0.07880737,-3.97159,0.71527
629.458,68.02638,0.07726854,-3.97118,0.71469
630.158,68.09693,0.07774253,-3.97118,0.71412
630.858,68.16762,0.07838604,-3.97109,0.71354
631.558,68.23813,0.07775224,-3.97283,0.71296
632.258,68.30869,0.08131449,-3.97283,0.71238
632.958,68.37905,0.08201468,-3.97283,0.7118
633.658,68.44922,0.083476,-3.97285,0.71122
634.358,68.51966,0.08501472,-3.97184,0.71064
635.058,68.59015,0.0843233,-3.97184,0.71006
635.758,68.6608,0.08434445,-3.97184,0.70948
636.458,68.7312,0.08268875,-3.97184,0.7089
637.158,68.80155,0.08181137,-3.97182,0.70832
637.858,68.872,0.08502849,-3.97311,0.70774
638.558,68.94237,0.08210705,-3.9715,0.70716
639.258,69.0127,0.08430047,-3.97151,0.70658
639.958,69.08299,0.08417622,-3.97283,0.706
640.658,69.15342,0.08842514,-3.97283,0.70542
641.358,69.224,0.08610745,-3.97283,0.70484
642.058,69.29468,0.08625817,-3.97216,0.70426
642.758,69.36532,0.0867811,-3.97309,0.70368
643.458,69.43585,0.08936174,-3.97315,0.7031
644.158,69.50628,0.08998384,-3.97315,0.70252
644.858,69.5767,0.09000532,-3.97315,0.70194
645.558,69.6472,0.08824868,-3.97247,0.70136
646.258,69.71764,0.0892206,-3.97232,0.70078
646.958,69.78823,0.0889192,-3.9702,0.7002
647.658,69.85855,0.08808678,-3.97151,0.69961
648.358,69.92919,0.08842954,-3.97151,0.69903
649.058,69.99984,0.08789636,-3.97282,0.69845
649.758,70.07041,0.08874057,-3.97282,0.69787
650.458,70.14073,0.08959362,-3.97375,0.69729
651.158,70.211,0.09270327,-3.97284,0.69671
651.858,70.28139,0.0888985,-3.97151,0.69612
652.558,70.3518,0.08977553,-3.97106,0.69554
653.258,70.42217,0.09140989,-3.97152,0.69496
653.958,70.49247,0.0882931,-3.97292,0.69438
654.658,70.56271,0.09163123,-3.97283,0.69379
655.358,70.63291,0.08980424,-3.97251,0.69321
656.058,70.7033,0.08806922,-3.9725,0.69263
656.758,70.7737,0.08782681,-3.97118,0.69205
657.458,70.84413,0.08870615,-3.97138,0.69146
658.158,70.9146,0.08936054,-3.97251,0.69088
658.858,70.98513,0.0888979,-3.97381,0.6903
659.558,71.0557,0.08853786,-3.97381,0.68972
660.258,71.12623,0.08427325,-3.97345,0.68913
660.958,71.19665,0.08612248,-3.9725,0.68855
661.658,71.26709,0.08565515,-3.97317,0.68797
662.358,71.33776,0.08646494,-3.9725,0.68738
663.058,71.40834,0.08563928,-3.9725,0.6868
663.758,71.47889,0.08292399,-3.9712,0.68622
664.458,71.5493,0.08662438,-3.97147,0.68563
665.158,71.61989,0.08420494,-3.9725,0.68505
665.858,71.69049,0.08423117,-3.97349,0.68447
666.558,71.76097,0.08906217,-3.97251,0.68388
667.258,71.8313,0.08652722,-3.9725,0.6833
667.958,71.9018,0.0838444,-3.97249,0.68271
668.658,71.9723,0.08806861,-3.9715,0.68213
669.358,72.04312,0.08393348,-3.97078,0.68155
670.058,72.11376,0.08670647,-3.97281,0.68096
670.758,72.18451,0.08921046,-3.97316,0.68038
671.458,72.25506,0.08808779,-3.97316,0.67979
672.158,72.32558,0.0873506,-3.97318,0.67921
672.858,72.39616,0.08988582,-3.97381,0.67862
673.558,72.46669,0.09112721,-3.97381,0.67804
674.258,72.53742,0.09142588,-3.97381,0.67745
674.958,72.60801,0.08821359,-3.97381,0.67687
675.658,72.67871,0.09036683,-3.9741,0.67629
676.358,72.7494,0.08841222,-3.97546,0.6757
677.058,72.8202,0.09039061,-3.97546,0.67512
677.758,72.89085,0.08752226,-3.97414,0.67453
678.458,72.96136,0.08428356,-3.97414,0.67395
679.158,73.03183,0.08776824,-3.97414,0.67336
679.858,73.1024,0.0863874,-3.97315,0.67278
680.558,73.17294,0.08723798,-3.97316,0.67219
681.258,73.24344,0.08477595,-3.97451,0.67161
681.958,73.31395,0.0862366,-3.97579,0.67102
682.658,73.38439,0.08694802,-3.97457,0.67043
683.358,73.4551,0.08837408,-3.97448,0.66985
684.058,73.5258,0.08884801,-3.97323,0.66926
684.758,73.59665,0.09074232,-3.97283,0.66868
685.458,73.6674,0.0887305,-3.97283,0.66809
686.158,73.7381,0.08894141,-3.97416,0.66751
686.858,73.80903,0.09085323,-3.97414,0.66692
687.558,73.8797,0.09059151,-3.97414,0.66634
688.258,73.9505,0.09353075,-3.97447,0.66575
688.958,74.02102,0.0927054,-3.97579,0.66516
689.658,74.09156,0.09249076,-3.97623,0.66458
690.358,74.16232,0.09487684,-3.97682,0.66399
691.058,74.23294,0.09728494,-3.97482,0.66341
691.758,74.30404,0.09678106,-3.9748,0.66282
692.458,74.37499,0.09636672,-3.97595,0.66223
693.158,74.446,0.09667993,-3.9748,0.66165
693.858,74.51688,0.09518177,-3.97386,0.66106
694.558,74.58766,0.09698025,-3.97381,0.66048
695.258,74.6585,0.09881435,-3.97381,0.65989
695.958,74.72938,0.10052,-3.97381,0.6593
696.658,74.80022,0.09939016,-3.97381,0.65872
697.358,74.87101,0.10019,-3.9738,0.65813
698.058,74.94158,0.09973083,-3.97513,0.65754
698.758,75.0124,0.10275,-3.97513,0.65696
699.458,75.08334,0.10342,-3.97513,0.65637
700.158,75.15435,0.10499,-3.97491,0.65578
700.858,75.22522,0.10181,-3.97382,0.6552
701.558,75.29612,0.10374,-3.97382,0.65461
702.258,75.36689,0.10872,-3.97247,0.65402
702.958,75.43763,0.1068,-3.97385,0.65344
703.658,75.50837,0.10659,-3.97381,0.65285
704.358,75.57932,0.10905,-3.97381,0.65226
705.058,75.65029,0.10562,-3.97381,0.65168
705.758,75.7213,0.10872,-3.97381,0.65109
706.458,75.79214,0.10723,-3.97381,0.6505
707.158,75.86318,0.1108,-3.97381,0.64992
707.858,75.9341,0.11081,-3.97381,0.64933
708.558,76.00498,0.11144,-3.97444,0.64874
709.258,76.0758,0.11248,-3.97512,0.64816
709.958,76.14666,0.11454,-3.97513,0.64757
710.658,76.2175,0.11513,-3.97513,0.64698
711.358,76.28832,0.11251,-3.97513,0.64639
712.058,76.35935,0.11499,-3.97381,0.64581
712.758,76.43043,0.11547,-3.97483,0.64522
713.458,76.5014,0.1184,-3.97481,0.64463
714.158,76.5723,0.11862,-3.97349,0.64405
714.858,76.6431,0.11639,-3.97349,0.64346
715.558,76.7139,0.12107,-3.97381,0.64287
716.258,76.78457,0.11862,-3.97382,0.64229
716.958,76.8553,0.12209,-3.97382,0.6417
717.658,76.92608,0.12102,-3.97246,0.64111
718.358,76.9969,0.12256,-3.9725,0.64052
719.058,77.06784,0.12165,-3.9725,0.63994
719.758,77.1387,0.1211,-3.97274,0.63935
720.458,77.2094,0.12533,-3.97381,0.63876
721.158,77.28027,0.12447,-3.97381,0.63817
721.858,77.3511,0.12481,-3.97381,0.63759
722.558,77.4221,0.12448,-3.97381,0.637
723.258,77.49294,0.12374,-3.97381,0.63641
723.958,77.56387,0.12749,-3.97515,0.63583
724.658,77.63479,0.13051,-3.97645,0.63524
725.358,77.70566,0.12875,-3.97512,0.63465
726.058,77.77654,0.12849,-3.97382,0.63406
726.758,77.84743,0.12833,-3.97382,0.63348
727.458,77.91835,0.13128,-3.97382,0.63289
728.158,77.98921,0.1267,-3.97382,0.6323
728.858,78.06004,0.13078,-3.97382,0.63171
729.558,78.13084,0.13563,-3.97514,0.63113
730.258,78.20172,0.12999,-3.97382,0.63054
730.958,78.27266,0.12722,-3.97439,0.62995
731.658,78.34375,0.12791,-3.9726,0.62936
732.358,78.41447,0.12918,-3.97185,0.62878
733.058,78.48539,0.13114,-3.97151,0.62819
733.758,78.5561,0.13027,-3.97278,0.6276
734.458,78.62719,0.12987,-3.97283,0.62701
735.158,78.6977,0.12992,-3.97448,0.62643
735.858,78.76857,0.13115,-3.9748,0.62584
736.558,78.83934,0.12843,-3.97484,0.62525
737.258,78.91033,0.13206,-3.97348,0.62467
737.958,78.98136,0.13359,-3.97348,0.62408
738.658,79.05239,0.13033,-3.97348,0.62349
739.358,79.1235,0.12884,-3.97249,0.6229
740.058,79.1945,0.12679,-3.97217,0.62232
740.758,79.26493,0.13265,-3.97217,0.62173
741.458,79.3357,0.13,-3.97214,0.62114
742.158,79.40656,0.13021,-3.97283,0.62055
742.858,79.47811,0.13157,-3.97279,0.61997
743.558,79.54926,0.12859,-3.97414,0.61938
744.258,79.62024,0.12893,-3.97384,0.61879
744.958,79.6909,0.13014,-3.97415,0.61821
745.658,79.76171,0.12231,-3.97283,0.61762
746.358,79.8326,0.12517,-3.97283,0.61703
747.058,79.9037,0.12624,-3.97141,0.61644
747.758,79.9748,0.12507,-3.97151,0.61586
747.958,79.9946,0.12012,-3.97151,0.61569