File: 01_Data/Nylon/STA/N2/10K_min/Nylon_STA_N2_10KData_220604_R1.csv
##Temp./Â°C,Time/min,DSC(subtr.2)/(mW/mg),Mass loss(subtr.2)/mg,Sensit./(uV/mW)
49.962,10.00917,-0.000910683,-0.00713,1.06046
50.562,10.73964,0.03903246,-0.007479161,1.06034
51.162,10.9307,0.07108962,-0.009361349,1.06022
51.762,11.0724,0.09526829,-0.009465813,1.06009
52.362,11.19085,0.1189,-0.0073994,1.05997
52.962,11.29567,0.13705,-0.00663606,1.05984
53.562,11.39217,0.15315,-0.008860714,1.05971
54.162,11.48196,0.16895,-0.006712801,1.05959
54.762,11.56746,0.18094,-0.007099195,1.05946
55.362,11.64917,0.192,-0.00844999,1.05933
55.962,11.72873,0.20405,-0.007946921,1.0592
56.562,11.80574,0.21218,-0.008316814,1.05907
57.162,11.8814,0.22312,-0.009256135,1.05894
57.762,11.955,0.22806,-0.00757995,1.05881
58.362,12.02702,0.23714,-0.006031766,1.05867
58.962,12.09778,0.24461,-0.006288472,1.05854
59.562,12.16798,0.25092,-0.00626253,1.05841
60.162,12.23734,0.2553,-0.007066495,1.05827
60.762,12.30613,0.2626,-0.006244787,1.05814
61.362,12.3744,0.2661,-0.006413731,1.058
61.962,12.44202,0.27056,-0.006242927,1.05787
62.562,12.5093,0.27665,-0.006242114,1.05773
63.162,12.57584,0.28193,-0.00624998,1.05759
63.762,12.6419,0.28429,-0.00769545,1.05745
64.362,12.7078,0.28755,-0.00761368,1.05731
64.962,12.77351,0.29143,-0.00891526,1.05718
65.562,12.8394,0.29569,-0.008999942,1.05704
66.162,12.90467,0.30045,-0.009327963,1.05689
66.762,12.9697,0.30384,-0.00863968,1.05675
67.362,13.03467,0.30491,-0.007578943,1.05661
67.962,13.0992,0.30696,-0.006690424,1.05647
68.562,13.16329,0.3114,-0.00767985,1.05632
69.162,13.22711,0.31485,-0.008878949,1.05618
69.762,13.29145,0.31331,-0.008967786,1.05603
70.362,13.35609,0.31686,-0.01036909,1.05589
70.962,13.4208,0.32165,-0.01030177,1.05574
71.562,13.48485,0.32311,-0.01039267,1.0556
72.162,13.54853,0.32254,-0.01166365,1.05545
72.762,13.61193,0.32117,-0.01031202,1.0553
73.362,13.67534,0.32522,-0.009002524,1.05515
73.962,13.73875,0.32741,-0.01031218,1.055
74.562,13.80185,0.32933,-0.009333143,1.05485
75.162,13.86501,0.3321,-0.008996003,1.0547
75.762,13.92794,0.33269,-0.007906972,1.05455
76.362,13.9909,0.33431,-0.008989898,1.0544
76.962,14.0535,0.33481,-0.008940257,1.05425
77.562,14.11607,0.33315,-0.008347137,1.05409
78.162,14.1785,0.33493,-0.00898758,1.05394
78.762,14.24081,0.33757,-0.01030029,1.05378
79.362,14.30303,0.33707,-0.01030396,1.05363
79.962,14.36495,0.33816,-0.009645818,1.05347
80.562,14.427,0.33716,-0.009650061,1.05331
81.162,14.4889,0.33981,-0.01028075,1.05316
81.762,14.55075,0.34078,-0.01095896,1.053
82.362,14.6124,0.34304,-0.01226299,1.05284
82.962,14.6738,0.34359,-0.01226029,1.05268
83.562,14.7351,0.34657,-0.01154712,1.05252
84.162,14.7963,0.34593,-0.0122949,1.05236
84.762,14.85754,0.34539,-0.01095911,1.0522
85.362,14.91813,0.34632,-0.01195012,1.05204
85.962,14.97923,0.34485,-0.01195,1.05188
86.562,15.04006,0.34819,-0.01195153,1.05171
87.162,15.10095,0.34726,-0.01227709,1.05155
87.762,15.1615,0.34957,-0.01359842,1.05138
88.362,15.2217,0.34963,-0.01371101,1.05122
88.962,15.2824,0.35221,-0.01496024,1.05105
89.562,15.34286,0.35275,-0.01393218,1.05089
90.162,15.4033,0.35251,-0.01359586,1.05072
90.762,15.4636,0.35456,-0.0122832,1.05055
91.362,15.5237,0.35514,-0.01229,1.05038
91.962,15.58375,0.35602,-0.01229,1.05022
92.562,15.6438,0.35629,-0.0122899,1.05005
93.162,15.7038,0.35866,-0.01228156,1.04988
93.762,15.76345,0.36024,-0.01360628,1.0497
94.362,15.823,0.35785,-0.01384101,1.04953
94.962,15.8824,0.36075,-0.0142599,1.04936
95.562,15.9421,0.36122,-0.01426029,1.04919
96.162,16.00164,0.3634,-0.0131054,1.04901
96.762,16.0613,0.36248,-0.01424417,1.04884
97.362,16.12069,0.36622,-0.01341257,1.04867
97.962,16.1803,0.36424,-0.01425993,1.04849
98.562,16.23968,0.36741,-0.01426,1.04831
99.162,16.29899,0.36932,-0.01426,1.04814
99.762,16.35831,0.37151,-0.0142661,1.04796
100.362,16.41775,0.37002,-0.01561436,1.04778
100.962,16.47707,0.3744,-0.01426041,1.0476
101.562,16.53637,0.37508,-0.01426,1.04743
102.162,16.59555,0.37598,-0.01425945,1.04725
102.762,16.65457,0.37529,-0.01554766,1.04707
103.362,16.71353,0.37687,-0.01556998,1.04688
103.962,16.7725,0.38104,-0.01553961,1.0467
104.562,16.83163,0.38065,-0.01554471,1.04652
105.162,16.89091,0.38089,-0.01688927,1.04634
105.762,16.94951,0.38296,-0.01688989,1.04615
106.362,17.00825,0.38462,-0.01755424,1.04597
106.962,17.06718,0.38411,-0.01871406,1.04578
107.562,17.12594,0.38578,-0.01781345,1.0456
108.162,17.18575,0.38769,-0.01754948,1.04541
108.762,17.24473,0.38636,-0.01554526,1.04523
109.362,17.30375,0.39063,-0.01491961,1.04504
109.962,17.36287,0.39048,-0.01492996,1.04485
110.562,17.42166,0.39222,-0.01612617,1.04466
111.162,17.48056,0.39356,-0.01621242,1.04447
111.762,17.53923,0.39452,-0.0188613,1.04428
112.362,17.59805,0.39511,-0.01829302,1.04409
112.962,17.65705,0.3961,-0.01753988,1.0439
113.562,17.71602,0.39641,-0.01751499,1.04371
114.162,17.77486,0.39965,-0.0162314,1.04352
114.762,17.8337,0.40212,-0.01754453,1.04333
115.362,17.8921,0.40129,-0.01690358,1.04313
115.962,17.9509,0.40173,-0.01752948,1.04294
116.562,18.0094,0.40436,-0.01821967,1.04274
117.162,18.06788,0.40674,-0.01854059,1.04255
117.762,18.12639,0.40643,-0.01853993,1.04235
118.362,18.18492,0.40726,-0.01822161,1.04216
118.962,18.24354,0.4078,-0.01721961,1.04196
119.562,18.30239,0.40866,-0.01580369,1.04176
120.162,18.36075,0.40859,-0.01589998,1.04156
120.762,18.41929,0.4101,-0.01589995,1.04136
121.362,18.4776,0.41432,-0.01622721,1.04116
121.962,18.5362,0.41604,-0.0162296,1.04096
122.562,18.59449,0.41723,-0.01681082,1.04076
123.162,18.65294,0.41811,-0.01658709,1.04056
123.762,18.71133,0.41867,-0.01622935,1.04036
124.362,18.76954,0.41817,-0.01721662,1.04015
124.962,18.82775,0.4216,-0.01721935,1.03995
125.562,18.88557,0.42351,-0.01621906,1.03975
126.162,18.94355,0.42341,-0.01760137,1.03954
126.762,19.00161,0.42476,-0.01750222,1.03934
127.362,19.0602,0.42659,-0.01886994,1.03913
127.962,19.1185,0.42634,-0.01886102,1.03893
128.562,19.1768,0.42808,-0.01754976,1.03872
129.162,19.23526,0.42952,-0.01753601,1.03851
129.762,19.29345,0.43118,-0.01623136,1.0383
130.362,19.35182,0.43088,-0.01754826,1.03809
130.962,19.40996,0.43126,-0.01754981,1.03788
131.562,19.46829,0.43347,-0.01687883,1.03767
132.162,19.52644,0.43464,-0.01688999,1.03746
132.762,19.58437,0.43567,-0.01689178,1.03725
133.362,19.64247,0.43655,-0.01821682,1.03704
133.962,19.70061,0.43814,-0.01821,1.03683
134.562,19.75883,0.43917,-0.01821035,1.03661
135.162,19.8172,0.43859,-0.01953243,1.0364
135.762,19.87513,0.44003,-0.01967456,1.03619
136.362,19.9332,0.43969,-0.01953324,1.03597
136.962,19.99129,0.44197,-0.01724241,1.03576
137.562,20.0493,0.44189,-0.01722,1.03554
138.162,20.10749,0.44507,-0.01721306,1.03532
138.762,20.16552,0.44435,-0.01689036,1.03511
139.362,20.22356,0.44683,-0.01548479,1.03489
139.962,20.28122,0.44691,-0.01557997,1.03467
140.562,20.33916,0.44607,-0.01558,1.03445
141.162,20.39699,0.44776,-0.01558011,1.03423
141.762,20.45486,0.44948,-0.01611543,1.03401
142.362,20.513,0.44777,-0.01604986,1.03379
142.962,20.57106,0.44972,-0.01722291,1.03357
143.562,20.62912,0.45308,-0.01722,1.03335
144.162,20.68722,0.45242,-0.01722,1.03312
144.762,20.7451,0.45596,-0.01721932,1.0329
145.362,20.80283,0.45798,-0.01690467,1.03268
145.962,20.86041,0.45779,-0.01753465,1.03245
146.562,20.9181,0.45562,-0.01820987,1.03223
147.162,20.9758,0.45939,-0.01704545,1.032
147.762,21.0338,0.46101,-0.01688945,1.03178
148.362,21.09159,0.46285,-0.01852024,1.03155
148.962,21.14934,0.46317,-0.01886005,1.03132
149.562,21.2072,0.46435,-0.01837818,1.03109
150.162,21.26489,0.46664,-0.01820013,1.03087
150.762,21.32274,0.46669,-0.0182,1.03064
151.362,21.38048,0.46786,-0.0182,1.03041
151.962,21.438,0.46986,-0.0182,1.03018
152.562,21.49553,0.46912,-0.0182,1.02995
153.162,21.55307,0.47252,-0.01820021,1.02971
153.762,21.6105,0.47086,-0.01744422,1.02948
154.362,21.66832,0.47228,-0.0178811,1.02925
154.962,21.72595,0.47361,-0.01788067,1.02902
155.562,21.78368,0.47576,-0.01819456,1.02878
156.162,21.84146,0.47714,-0.01951842,1.02855
156.762,21.89931,0.47708,-0.01952165,1.02831
157.362,21.9571,0.47903,-0.01701832,1.02808
157.962,22.01476,0.47921,-0.01824342,1.02784
158.562,22.0724,0.48018,-0.01885356,1.0276
159.162,22.12966,0.47853,-0.0195043,1.02737
159.762,22.1864,0.48084,-0.01688677,1.02713
160.362,22.2435,0.48384,-0.01689782,1.02689
160.962,22.30069,0.48555,-0.01689592,1.02665
161.562,22.35792,0.48432,-0.01689,1.02641
162.162,22.41592,0.48453,-0.01690549,1.02617
162.762,22.47329,0.48567,-0.01953076,1.02593
163.362,22.53089,0.48658,-0.01902661,1.02569
163.962,22.589,0.48783,-0.01819872,1.02545
164.562,22.64712,0.48908,-0.01822909,1.02521
165.162,22.7056,0.48877,-0.01823894,1.02496
165.762,22.76309,0.49214,-0.01919789,1.02472
166.362,22.8205,0.49017,-0.01916511,1.02448
166.962,22.87807,0.48927,-0.01887016,1.02423
167.562,22.93584,0.49324,-0.01816379,1.02399
168.162,22.99408,0.49376,-0.01791899,1.02374
168.762,23.05176,0.49358,-0.01721802,1.02349
169.362,23.10925,0.49529,-0.01852932,1.02325
169.962,23.1667,0.49594,-0.01983268,1.023
170.562,23.22421,0.49754,-0.01984999,1.02275
171.162,23.28193,0.49817,-0.01984756,1.0225
171.762,23.3396,0.49843,-0.02083907,1.02225
172.362,23.39708,0.50044,-0.0200512,1.022
172.962,23.45479,0.49779,-0.01957093,1.02175
173.562,23.51211,0.49975,-0.01819945,1.0215
174.162,23.56951,0.5012,-0.01853075,1.02125
174.762,23.6269,0.50027,-0.01951265,1.021
175.362,23.68421,0.50214,-0.01952635,1.02075
175.962,23.74183,0.50324,-0.01908094,1.02049
176.562,23.79939,0.50337,-0.01951999,1.02024
177.162,23.85681,0.50522,-0.01954523,1.01998
177.762,23.9142,0.50775,-0.02050859,1.01973
178.362,23.97148,0.50487,-0.01922202,1.01947
178.962,24.02897,0.50772,-0.01920003,1.01922
179.562,24.08665,0.50742,-0.0179876,1.01896
180.162,24.14401,0.50785,-0.01788007,1.0187
180.762,24.2015,0.50748,-0.01788356,1.01845
181.362,24.25892,0.50974,-0.0168912,1.01819
181.962,24.31624,0.50803,-0.01762135,1.01793
182.562,24.37353,0.5101,-0.01784969,1.01767
183.162,24.4308,0.50977,-0.0182107,1.01741
183.762,24.48803,0.5103,-0.01951404,1.01715
184.362,24.54552,0.5124,-0.01951999,1.01689
184.962,24.60255,0.51244,-0.01951742,1.01663
185.562,24.6598,0.51484,-0.02083559,1.01636
186.162,24.7167,0.51593,-0.02083989,1.0161
186.762,24.77385,0.51561,-0.01942667,1.01584
187.362,24.8314,0.51511,-0.01951997,1.01558
187.962,24.88867,0.51644,-0.01952,1.01531
188.562,24.9465,0.51817,-0.01952,1.01505
189.162,25.00357,0.51884,-0.01952,1.01478
189.762,25.06041,0.51755,-0.01952002,1.01451
190.362,25.11756,0.51784,-0.01948329,1.01425
190.962,25.1747,0.51816,-0.02083914,1.01398
191.562,25.23199,0.51997,-0.02084,1.01371
192.162,25.28957,0.51993,-0.02083995,1.01345
192.762,25.3468,0.5219,-0.02049357,1.01318
193.362,25.4041,0.52054,-0.02052506,1.01291
193.962,25.4616,0.52184,-0.02008515,1.01264
194.562,25.51874,0.52234,-0.02084004,1.01237
195.162,25.57624,0.52557,-0.02084,1.0121
195.762,25.63348,0.52438,-0.02084,1.01183
196.362,25.69055,0.52552,-0.02084064,1.01155
196.962,25.74771,0.52785,-0.02053591,1.01128
197.562,25.80483,0.52677,-0.02017959,1.01101
198.162,25.86196,0.52745,-0.0210591,1.01073
198.762,25.91911,0.52776,-0.02149,1.01046
199.362,25.97632,0.52995,-0.02148649,1.01019
199.962,26.03345,0.5311,-0.02279618,1.00991
200.562,26.0907,0.53073,-0.02281,1.00964
201.162,26.14793,0.53018,-0.02281,1.00936
201.762,26.20515,0.53157,-0.02281,1.00908
202.362,26.2625,0.5345,-0.02280697,1.00881
202.962,26.3197,0.53378,-0.02413907,1.00853
203.562,26.37697,0.5338,-0.02412998,1.00825
204.162,26.4344,0.53651,-0.02413693,1.00797
204.762,26.4918,0.53646,-0.02282171,1.00769
205.362,26.54907,0.53859,-0.02282,1.00741
205.962,26.6065,0.53875,-0.02282,1.00713
206.562,26.6638,0.53978,-0.02282001,1.00685
207.162,26.72092,0.53957,-0.02282971,1.00657
207.762,26.77843,0.53987,-0.02380022,1.00629
208.362,26.83568,0.54437,-0.02282144,1.006
208.962,26.89283,0.54378,-0.02282,1.00572
209.562,26.9504,0.54223,-0.02282,1.00544
210.162,27.00753,0.5441,-0.02282,1.00515
210.762,27.065,0.5468,-0.02282,1.00487
211.362,27.1223,0.54606,-0.02282,1.00458
211.962,27.17953,0.54834,-0.02282,1.0043
212.562,27.2366,0.54944,-0.02282,1.00401
213.162,27.29389,0.55086,-0.02282134,1.00372
213.762,27.35124,0.5554,-0.02407871,1.00344
214.362,27.4088,0.55461,-0.02379999,1.00315
214.962,27.46637,0.55669,-0.0238,1.00286
215.562,27.52378,0.55948,-0.0238,1.00257
216.162,27.581,0.55839,-0.0238,1.00228
216.762,27.6385,0.56077,-0.0238,1.00199
217.362,27.6958,0.56236,-0.02380178,1.0017
217.962,27.75323,0.56226,-0.02512697,1.00141
218.562,27.8105,0.56611,-0.02512,1.00112
219.162,27.86764,0.56907,-0.02511995,1.00083
219.762,27.9249,0.56823,-0.02480523,1.00053
220.362,27.98214,0.56903,-0.02379975,1.00024
220.962,28.03929,0.5731,-0.02380052,0.99995
221.562,28.0966,0.57526,-0.0251208,0.99965
222.162,28.1538,0.57566,-0.0264367,0.99936
222.762,28.211,0.57729,-0.02644833,0.99906
223.362,28.26843,0.58015,-0.02510951,0.99877
223.962,28.3254,0.57933,-0.02510945,0.99847
224.562,28.38275,0.58091,-0.02434334,0.99818
225.162,28.4398,0.58485,-0.02545019,0.99788
225.762,28.4969,0.58526,-0.02545001,0.99758
226.362,28.5544,0.58768,-0.02547408,0.99728
226.962,28.6115,0.59064,-0.02535377,0.99699
227.562,28.66869,0.59374,-0.02643134,0.99669
228.162,28.7259,0.59589,-0.0257763,0.99639
228.762,28.783,0.59437,-0.02511996,0.99609
229.362,28.84042,0.59752,-0.02512046,0.99579
229.962,28.8977,0.60236,-0.02612842,0.99548
230.562,28.95513,0.60424,-0.02610003,0.99518
231.162,29.0121,0.60699,-0.0261,0.99488
231.762,29.0692,0.60864,-0.02609999,0.99458
232.362,29.12635,0.61342,-0.02642444,0.99427
232.962,29.1836,0.61333,-0.02679457,0.99397
233.562,29.2412,0.61702,-0.02758856,0.99367
234.162,29.29833,0.62112,-0.02808004,0.99336
234.762,29.35558,0.62487,-0.02808,0.99306
235.362,29.41265,0.62679,-0.02808001,0.99275
235.962,29.46985,0.62994,-0.02808276,0.99245
236.562,29.527,0.63385,-0.02938329,0.99214
237.162,29.5842,0.63534,-0.03070823,0.99183
237.762,29.64142,0.63802,-0.03071012,0.99152
238.362,29.6986,0.64246,-0.03009836,0.99122
238.962,29.75528,0.64529,-0.02938284,0.99091
239.562,29.8124,0.64818,-0.03072509,0.9906
240.162,29.86972,0.65282,-0.03202013,0.99029
240.762,29.92737,0.6543,-0.03194691,0.98998
241.362,29.985,0.65648,-0.03343573,0.98967
241.962,30.04225,0.66296,-0.03205283,0.98936
242.562,30.09948,0.66729,-0.03071052,0.98904
243.162,30.1566,0.6704,-0.02939464,0.98873
243.762,30.21377,0.67523,-0.02808557,0.98842
244.362,30.27116,0.68123,-0.0281039,0.98811
244.962,30.3284,0.68788,-0.02807989,0.98779
245.562,30.3856,0.69385,-0.02922128,0.98748
246.162,30.4429,0.70386,-0.02971244,0.98716
246.762,30.5002,0.71419,-0.03071002,0.98685
247.362,30.55746,0.72312,-0.0307049,0.98653
247.962,30.6149,0.73579,-0.03207089,0.98622
248.562,30.6723,0.74836,-0.03071075,0.9859
249.162,30.72973,0.76853,-0.03139378,0.98558
249.762,30.7871,0.79328,-0.03169004,0.98527
250.362,30.8446,0.81976,-0.03168965,0.98495
250.962,30.9021,0.84735,-0.03241808,0.98463
251.562,30.95937,0.87374,-0.03234994,0.98431
252.162,31.01656,0.90297,-0.03105364,0.98399
252.762,31.07408,0.93801,-0.02961343,0.98367
253.362,31.1317,0.98088,-0.02960513,0.98335
253.962,31.18954,1.02841,-0.03129192,0.98303
254.562,31.24752,1.0801,-0.03250177,0.98271
255.162,31.30527,1.13625,-0.03290011,0.98239
255.762,31.36272,1.18989,-0.03290139,0.98207
256.362,31.42043,1.24302,-0.03422412,0.98174
256.962,31.4784,1.30075,-0.03422,0.98142
257.562,31.53622,1.35161,-0.03421987,0.9811
258.162,31.5945,1.40201,-0.03281717,0.98077
258.762,31.6527,1.45052,-0.0305093,0.98045
259.362,31.7108,1.4966,-0.03059998,0.98012
259.962,31.7691,1.5429,-0.0306,0.9798
260.562,31.82703,1.5795,-0.03059416,0.97947
261.162,31.88502,1.60348,-0.03191826,0.97915
261.762,31.9431,1.60041,-0.03289565,0.97882
262.362,32.00083,1.52947,-0.03323995,0.97849
262.962,32.05853,1.36384,-0.03323983,0.97816
263.562,32.116,1.15414,-0.0345337,0.97783
264.162,32.17317,0.98199,-0.03455148,0.97751
264.762,32.23005,0.86218,-0.03586305,0.97718
265.362,32.28678,0.77868,-0.03584473,0.97685
265.962,32.34344,0.71919,-0.03455829,0.97652
266.562,32.40035,0.67847,-0.03455001,0.97619
267.162,32.4572,0.64957,-0.03452118,0.97585
267.762,32.5141,0.62861,-0.03584464,0.97552
268.362,32.5708,0.61857,-0.03586948,0.97519
268.962,32.62755,0.60705,-0.03717942,0.97486
269.562,32.68438,0.59741,-0.03717987,0.97452
270.162,32.74142,0.59137,-0.03700751,0.97419
270.762,32.79852,0.59013,-0.03586001,0.97386
271.362,32.8556,0.58737,-0.03586,0.97352
271.962,32.91265,0.58459,-0.03586508,0.97319
272.562,32.9696,0.58274,-0.0345504,0.97285
273.162,33.0267,0.5839,-0.03499899,0.97252
273.762,33.08392,0.58224,-0.03586026,0.97218
274.362,33.14119,0.58111,-0.03586014,0.97184
274.962,33.19833,0.58211,-0.0352396,0.97151
275.562,33.2555,0.58192,-0.03520007,0.97117
276.162,33.31263,0.58228,-0.0351902,0.97083
276.762,33.3698,0.58339,-0.03783871,0.97049
277.362,33.42699,0.58175,-0.03782613,0.97015
277.962,33.4842,0.58103,-0.03882935,0.96981
278.562,33.54137,0.58038,-0.03767337,0.96947
279.162,33.5986,0.58169,-0.03783977,0.96913
279.762,33.65595,0.5825,-0.03889834,0.96879
280.362,33.71334,0.58328,-0.03883007,0.96845
280.962,33.77071,0.58256,-0.03885821,0.96811
281.562,33.828,0.58385,-0.03750984,0.96777
282.162,33.885,0.58393,-0.03711477,0.96743
282.762,33.94214,0.58434,-0.03651693,0.96708
283.362,33.9992,0.5854,-0.03750965,0.96674
283.962,34.05645,0.58765,-0.03750976,0.96639
284.562,34.11384,0.5893,-0.03854256,0.96605
285.162,34.17109,0.58722,-0.03882993,0.96571
285.762,34.22849,0.58838,-0.03910718,0.96536
286.362,34.286,0.58751,-0.0401403,0.96501
286.962,34.3433,0.58816,-0.04011121,0.96467
287.562,34.40055,0.58927,-0.04052171,0.96432
288.162,34.45773,0.59054,-0.04178973,0.96397
288.762,34.51513,0.59356,-0.04179,0.96363
289.362,34.57246,0.5909,-0.04178995,0.96328
289.962,34.63016,0.59109,-0.04175439,0.96293
290.562,34.68744,0.59237,-0.04048032,0.96258
291.162,34.74471,0.59422,-0.04048191,0.96223
291.762,34.80207,0.59262,-0.04179661,0.96188
292.362,34.85945,0.59323,-0.04179005,0.96153
292.962,34.9167,0.59459,-0.04300643,0.96118
293.562,34.97396,0.59499,-0.04310993,0.96083
294.162,35.0309,0.59618,-0.04310999,0.96048
294.762,35.08787,0.5955,-0.04309974,0.96013
295.362,35.14524,0.59533,-0.0431,0.95978
295.962,35.20277,0.595,-0.0431,0.95942
296.562,35.2603,0.59616,-0.0431,0.95907
297.162,35.3182,0.59471,-0.0431,0.95872
297.762,35.37573,0.59463,-0.0431,0.95836
298.362,35.43338,0.59564,-0.0431,0.95801
298.962,35.49096,0.59502,-0.04309991,0.95765
299.562,35.54845,0.59421,-0.04370014,0.9573
300.162,35.606,0.59621,-0.04577356,0.95694
300.762,35.66353,0.5965,-0.04574002,0.95659
301.362,35.7211,0.59509,-0.04574,0.95623
301.962,35.77872,0.5949,-0.04574,0.95587
302.562,35.83636,0.59821,-0.04574,0.95552
303.162,35.8941,0.59751,-0.04573356,0.95516
303.762,35.95173,0.5945,-0.0450734,0.9548
304.362,36.00929,0.59637,-0.04475005,0.95444
304.962,36.06678,0.59773,-0.04475,0.95408
305.562,36.12444,0.59768,-0.04474949,0.95372
306.162,36.1821,0.59611,-0.04598179,0.95336
306.762,36.23968,0.59735,-0.04706021,0.953
307.362,36.29719,0.59953,-0.04739318,0.95264
307.962,36.35488,0.60084,-0.0473819,0.95228
308.562,36.41263,0.60148,-0.04870691,0.95192
309.162,36.47051,0.60013,-0.0487,0.95156
309.762,36.52843,0.60003,-0.04869981,0.95119
310.362,36.58618,0.60024,-0.04998961,0.95083
310.962,36.6436,0.60357,-0.05000999,0.95047
311.562,36.70125,0.60282,-0.05001073,0.9501
312.162,36.75884,0.60346,-0.04935891,0.94974
312.762,36.81644,0.60393,-0.05065902,0.94937
313.362,36.8743,0.60341,-0.04935895,0.94901
313.962,36.93199,0.60565,-0.05041747,0.94864
314.562,36.9895,0.60415,-0.04934999,0.94828
315.162,37.04728,0.6073,-0.0493426,0.94791
315.762,37.10494,0.60867,-0.04903033,0.94754
316.362,37.16288,0.60626,-0.05020487,0.94718
316.962,37.22065,0.60623,-0.05066997,0.94681
317.562,37.27834,0.60639,-0.05200453,0.94644
318.162,37.33616,0.61068,-0.05103332,0.94607
318.762,37.39389,0.60844,-0.05232438,0.94571
319.362,37.45173,0.6109,-0.05367787,0.94534
319.962,37.5096,0.61018,-0.05400506,0.94497
320.562,37.56746,0.60956,-0.05364019,0.9446
321.162,37.62529,0.61317,-0.05250855,0.94423
321.762,37.68302,0.61112,-0.05228018,0.94386
322.362,37.7408,0.6123,-0.0536293,0.94348
322.962,37.79861,0.60973,-0.05362797,0.94311
323.562,37.85651,0.61205,-0.055676,0.94274
324.162,37.9143,0.61399,-0.05626649,0.94237
324.762,37.97197,0.61469,-0.05756715,0.942
325.362,38.0297,0.61297,-0.05758066,0.94162
325.962,38.08748,0.6156,-0.0562197,0.94125
326.562,38.1454,0.61609,-0.05757741,0.94087
327.162,38.20333,0.61425,-0.05625313,0.9405
327.762,38.26112,0.62039,-0.05626,0.94013
328.362,38.31895,0.61701,-0.05626,0.93975
328.962,38.37686,0.61524,-0.05626086,0.93937
329.562,38.4345,0.61678,-0.05762607,0.939
330.162,38.49252,0.61758,-0.05758003,0.93862
330.762,38.55025,0.62009,-0.05758547,0.93825
331.362,38.60814,0.61914,-0.05889965,0.93787
331.962,38.6661,0.61871,-0.0589,0.93749
332.562,38.7241,0.61866,-0.05889937,0.93711
333.162,38.78224,0.61906,-0.05857929,0.93673
333.762,38.84026,0.62161,-0.05857,0.93636
334.362,38.89812,0.61949,-0.05857,0.93598
334.962,38.95598,0.62119,-0.05857,0.9356
335.562,39.01405,0.62158,-0.05857004,0.93522
336.162,39.07209,0.62307,-0.05865355,0.93484
336.762,39.1303,0.62413,-0.06122592,0.93446
337.362,39.18828,0.62487,-0.06119999,0.93408
337.962,39.24605,0.62603,-0.0612,0.93369
338.562,39.30417,0.62801,-0.0612,0.93331
339.162,39.36234,0.62693,-0.06120001,0.93293
339.762,39.4204,0.62741,-0.06120672,0.93255
340.362,39.47872,0.62709,-0.06251895,0.93216
340.962,39.5366,0.62788,-0.06382273,0.93178
341.562,39.59435,0.62751,-0.06383001,0.9314
342.162,39.65247,0.62934,-0.06384761,0.93101
342.762,39.71058,0.62832,-0.06247566,0.93063
343.362,39.76882,0.62886,-0.06187562,0.93024
343.962,39.82659,0.63063,-0.06180607,0.92986
344.562,39.88463,0.63061,-0.06448749,0.92947
345.162,39.9427,0.63181,-0.06448735,0.92909
345.762,40.0008,0.63186,-0.06580003,0.9287
346.362,40.05895,0.63396,-0.06581,0.92831
346.962,40.1169,0.63334,-0.06581,0.92793
347.562,40.17497,0.63339,-0.06580239,0.92754
348.162,40.23294,0.63552,-0.06680724,0.92715
348.762,40.29107,0.63717,-0.06787343,0.92676
349.362,40.34904,0.63779,-0.06779,0.92637
349.962,40.4069,0.6409,-0.0677878,0.92598
350.562,40.4649,0.64153,-0.06812211,0.92559
351.162,40.52301,0.64581,-0.06815944,0.92521
351.762,40.5811,0.6416,-0.06943108,0.92481
352.362,40.63926,0.64751,-0.07075038,0.92442
352.962,40.6974,0.64935,-0.07072365,0.92403
353.562,40.75543,0.64797,-0.07385479,0.92364
354.162,40.8136,0.65007,-0.07371007,0.92325
354.762,40.87165,0.65251,-0.07370754,0.92286
355.362,40.9298,0.65471,-0.0743772,0.92247
355.962,40.9879,0.65514,-0.07502065,0.92207
356.562,41.046,0.65525,-0.07501952,0.92168
357.162,41.10406,0.65754,-0.07627143,0.92129
357.762,41.16203,0.65712,-0.07634001,0.92089
358.362,41.22006,0.66031,-0.07593036,0.9205
358.962,41.27819,0.66124,-0.07502934,0.9201
359.562,41.33635,0.66303,-0.0759848,0.91971
360.162,41.3945,0.66656,-0.07502184,0.91931
360.762,41.45267,0.66748,-0.07505252,0.91892
361.362,41.51083,0.67009,-0.07635029,0.91852
361.962,41.56899,0.67442,-0.07765995,0.91813
362.562,41.62727,0.67442,-0.07765464,0.91773
363.162,41.6852,0.67659,-0.07896845,0.91733
363.762,41.7434,0.67843,-0.07892719,0.91693
364.362,41.80153,0.68118,-0.08028911,0.91654
364.962,41.85968,0.68288,-0.08029229,0.91614
365.562,41.91793,0.67942,-0.08160016,0.91574
366.162,41.97602,0.68604,-0.08295287,0.91534
366.762,42.03417,0.68751,-0.08292028,0.91494
367.362,42.09232,0.69038,-0.0829298,0.91454
367.962,42.15045,0.69434,-0.08367027,0.91414
368.562,42.20855,0.69521,-0.08555744,0.91374
369.162,42.26679,0.69707,-0.08555002,0.91334
369.762,42.3251,0.70119,-0.08564457,0.91294
370.362,42.38358,0.70014,-0.08686727,0.91254
370.962,42.44195,0.7033,-0.08816649,0.91214
371.562,42.5002,0.7073,-0.08684177,0.91173
372.162,42.55843,0.70796,-0.08819699,0.91133
372.762,42.61667,0.71008,-0.08917036,0.91093
373.362,42.67499,0.71022,-0.09028182,0.91052
373.962,42.7333,0.71431,-0.09177367,0.91012
374.562,42.79139,0.71548,-0.09293973,0.90972
375.162,42.84966,0.71664,-0.09443146,0.90931
375.762,42.90807,0.72013,-0.09631835,0.90891
376.362,42.9666,0.72375,-0.09723136,0.9085
376.962,43.02519,0.72886,-0.09838227,0.9081
377.562,43.08356,0.73126,-0.09970685,0.90769
378.162,43.14176,0.7346,-0.0997,0.90729
378.762,43.20006,0.73867,-0.09970221,0.90688
379.362,43.25819,0.74465,-0.10099,0.90647
379.962,43.31657,0.75058,-0.10235,0.90607
380.562,43.37472,0.75335,-0.10414,0.90566
381.162,43.433,0.76135,-0.10674,0.90525
381.762,43.49155,0.76638,-0.10943,0.90484
382.362,43.5499,0.77323,-0.11166,0.90444
382.962,43.60885,0.78087,-0.11516,0.90403
383.562,43.66733,0.78753,-0.11467,0.90362
384.162,43.72578,0.79516,-0.1152,0.90321
384.762,43.7843,0.80583,-0.11639,0.9028
385.362,43.84265,0.81543,-0.12088,0.90239
385.962,43.90115,0.82562,-0.12191,0.90198
386.562,43.95963,0.8354,-0.12503,0.90157
387.162,44.01807,0.84459,-0.12506,0.90116
387.762,44.07648,0.85599,-0.1282,0.90075
388.362,44.1349,0.86914,-0.13019,0.90033
388.962,44.19337,0.87993,-0.13238,0.89992
389.562,44.25204,0.89324,-0.13601,0.89951
390.162,44.31045,0.90709,-0.1398,0.8991
390.762,44.369,0.91679,-0.14235,0.89868
391.362,44.42745,0.93099,-0.14579,0.89827
391.962,44.48591,0.94466,-0.1512,0.89786
392.562,44.54452,0.95901,-0.15525,0.89744
393.162,44.60314,0.97445,-0.15887,0.89703
393.762,44.66192,0.99021,-0.16402,0.89661
394.362,44.72076,1.00505,-0.16853,0.8962
394.962,44.77956,1.01778,-0.17225,0.89578
395.562,44.8382,1.0367,-0.17839,0.89537
396.162,44.89666,1.05006,-0.18386,0.89495
396.762,44.9552,1.06696,-0.18972,0.89453
397.362,45.01388,1.08393,-0.19526,0.89412
397.962,45.07262,1.10323,-0.19991,0.8937
398.562,45.13135,1.12177,-0.20555,0.89328
399.162,45.18999,1.13659,-0.21488,0.89287
399.762,45.24866,1.15396,-0.22161,0.89245
400.362,45.3074,1.17528,-0.22921,0.89203
400.962,45.36607,1.19398,-0.23636,0.89161
401.562,45.42473,1.21388,-0.24294,0.89119
402.162,45.48341,1.2305,-0.25138,0.89077
402.762,45.54226,1.24833,-0.26052,0.89035
403.362,45.60102,1.26584,-0.27007,0.88993
403.962,45.65975,1.28535,-0.28102,0.88951
404.562,45.71841,1.30237,-0.29016,0.88909
405.162,45.77718,1.32585,-0.2998,0.88867
405.762,45.836,1.34399,-0.30951,0.88825
406.362,45.89488,1.35981,-0.31979,0.88783
406.962,45.9536,1.37795,-0.33123,0.88741
407.562,46.01226,1.39782,-0.34329,0.88699
408.162,46.0709,1.41871,-0.35391,0.88656
408.762,46.12963,1.44252,-0.36626,0.88614
409.362,46.18849,1.46482,-0.37969,0.88572
409.962,46.24735,1.47907,-0.39412,0.88529
410.562,46.30608,1.50256,-0.4081,0.88487
411.162,46.3648,1.52436,-0.42266,0.88445
411.762,46.42364,1.54444,-0.43714,0.88402
412.362,46.4824,1.56673,-0.4487,0.8836
412.962,46.5413,1.59103,-0.46749,0.88317
413.562,46.6002,1.61222,-0.48437,0.88275
414.162,46.6591,1.63435,-0.50179,0.88232
414.762,46.71785,1.6503,-0.51853,0.8819
415.362,46.77665,1.6683,-0.53545,0.88147
415.962,46.8356,1.68968,-0.55354,0.88104
416.562,46.89462,1.7117,-0.57193,0.88062
417.162,46.9538,1.73492,-0.59218,0.88019
417.762,47.01254,1.75691,-0.61314,0.87976
418.362,47.07145,1.77606,-0.63143,0.87934
418.962,47.13022,1.79407,-0.65519,0.87891
419.562,47.18929,1.81504,-0.67548,0.87848
420.162,47.2483,1.83559,-0.69694,0.87805
420.762,47.30743,1.847,-0.71792,0.87762
421.362,47.36634,1.86072,-0.74015,0.87719
421.962,47.4253,1.88199,-0.76276,0.87676
422.562,47.4842,1.89586,-0.78546,0.87633
423.162,47.54312,1.91432,-0.80994,0.8759
423.762,47.60212,1.92977,-0.83357,0.87547
424.362,47.661,1.94512,-0.85813,0.87504
424.962,47.71997,1.95858,-0.88374,0.87461
425.562,47.7789,1.97153,-0.91204,0.87418
426.162,47.8379,1.98903,-0.93825,0.87375
426.762,47.8968,1.99713,-0.96603,0.87332
427.362,47.9557,2.00972,-0.99441,0.87289
427.962,48.01449,2.02409,-1.02306,0.87245
428.562,48.07335,2.02752,-1.05125,0.87202
429.162,48.1323,2.03371,-1.07909,0.87159
429.762,48.19097,2.04166,-1.10678,0.87116
430.362,48.2495,2.05233,-1.13839,0.87072
430.962,48.30826,2.05608,-1.16802,0.87029
431.562,48.36721,2.06245,-1.19937,0.86985
432.162,48.42664,2.07344,-1.22941,0.86942
432.762,48.48597,2.0751,-1.26281,0.86899
433.362,48.545,2.08487,-1.29427,0.86855
433.962,48.60386,2.08685,-1.32625,0.86811
434.562,48.6628,2.08862,-1.36021,0.86768
435.162,48.72177,2.09393,-1.39307,0.86724
435.762,48.7806,2.10347,-1.42563,0.86681
436.362,48.83971,2.10666,-1.46031,0.86637
436.962,48.8984,2.11242,-1.49358,0.86593
437.562,48.95732,2.11746,-1.5282,0.8655
438.162,49.01631,2.1239,-1.5628,0.86506
438.762,49.07526,2.12455,-1.59784,0.86462
439.362,49.13449,2.12437,-1.63372,0.86419
439.962,49.19332,2.1234,-1.66791,0.86375
440.562,49.2523,2.12404,-1.70497,0.86331
441.162,49.3114,2.12678,-1.74055,0.86287
441.762,49.37043,2.12433,-1.77834,0.86243
442.362,49.42927,2.12488,-1.81339,0.86199
442.962,49.48805,2.12602,-1.85217,0.86155
443.562,49.54683,2.12132,-1.88773,0.86111
444.162,49.60579,2.1182,-1.92782,0.86067
444.762,49.66482,2.11437,-1.96496,0.86023
445.362,49.72397,2.10883,-2.00532,0.85979
445.962,49.78308,2.10496,-2.04181,0.85935
446.562,49.84223,2.10061,-2.08058,0.85891
447.162,49.90124,2.09636,-2.11771,0.85847
447.762,49.96014,2.0896,-2.1561,0.85803
448.362,50.01921,2.08692,-2.19681,0.85759
448.962,50.07829,2.08006,-2.23516,0.85714
449.562,50.13748,2.06864,-2.27556,0.8567
450.162,50.19665,2.06036,-2.31402,0.85626
450.762,50.25567,2.05279,-2.35435,0.85582
451.362,50.31465,2.0411,-2.39272,0.85537
451.962,50.37362,2.02796,-2.4328,0.85493
452.562,50.43253,2.01708,-2.47115,0.85449
453.162,50.4917,2.00047,-2.51298,0.85404
453.762,50.55084,1.98541,-2.55154,0.8536
454.362,50.6098,1.96955,-2.59318,0.85315
454.962,50.66868,1.95008,-2.63159,0.85271
455.562,50.72744,1.93161,-2.67087,0.85226
456.162,50.78608,1.90959,-2.70797,0.85182
456.762,50.8453,1.89022,-2.74846,0.85137
457.362,50.9041,1.86507,-2.78488,0.85093
457.962,50.963,1.84312,-2.82442,0.85048
458.562,51.02186,1.81815,-2.86247,0.85003
459.162,51.08059,1.79264,-2.90143,0.84959
459.762,51.1394,1.76279,-2.93838,0.84914
460.362,51.1982,1.73036,-2.97549,0.84869
460.962,51.25685,1.69901,-3.01268,0.84825
461.562,51.3155,1.66646,-3.04782,0.8478
462.162,51.37426,1.62954,-3.08444,0.84735
462.762,51.43292,1.59473,-3.11839,0.8469
463.362,51.49154,1.55728,-3.15559,0.84645
463.962,51.54995,1.51332,-3.18756,0.846
464.562,51.6083,1.46822,-3.22204,0.84556
465.162,51.66668,1.42962,-3.25414,0.84511
465.762,51.72515,1.38288,-3.28624,0.84466
466.362,51.78378,1.33738,-3.31692,0.84421
466.962,51.84233,1.28398,-3.34725,0.84376
467.562,51.9006,1.23724,-3.37563,0.84331
468.162,51.95897,1.18561,-3.40259,0.84286
468.762,52.01721,1.13163,-3.42957,0.84241
469.362,52.07558,1.07936,-3.45607,0.84196
469.962,52.13411,1.02234,-3.48227,0.8415
470.562,52.19233,0.96706,-3.50607,0.84105
471.162,52.2508,0.91228,-3.52968,0.8406
471.762,52.30912,0.85825,-3.54931,0.84015
472.362,52.36744,0.80379,-3.57129,0.8397
472.962,52.426,0.74963,-3.58935,0.83924
473.562,52.48451,0.70035,-3.60742,0.83879
474.162,52.54323,0.64757,-3.6241,0.83834
474.762,52.602,0.60147,-3.63812,0.83789
475.362,52.6607,0.55976,-3.65263,0.83743
475.962,52.71963,0.51195,-3.66581,0.83698
476.562,52.77864,0.47307,-3.67757,0.83653
477.162,52.8376,0.43811,-3.68789,0.83607
477.762,52.89634,0.40584,-3.69931,0.83562
478.362,52.9552,0.3756,-3.70906,0.83516
478.962,53.01412,0.34768,-3.71748,0.83471
479.562,53.07325,0.32323,-3.72509,0.83425
480.162,53.13235,0.30205,-3.7314,0.8338
480.762,53.19146,0.28362,-3.73732,0.83334
481.362,53.2506,0.26478,-3.74118,0.83289
481.962,53.3097,0.24966,-3.74519,0.83243
482.562,53.3688,0.2348,-3.75002,0.83197
483.162,53.4279,0.22329,-3.75499,0.83152
483.762,53.48679,0.2133,-3.75946,0.83106
484.362,53.54574,0.20576,-3.76101,0.8306
484.962,53.6046,0.19452,-3.76416,0.83015
485.562,53.6635,0.1895,-3.76588,0.82969
486.162,53.72255,0.1842,-3.76716,0.82923
486.762,53.7818,0.1811,-3.76843,0.82877
487.362,53.84091,0.17552,-3.77125,0.82832
487.962,53.9001,0.1661,-3.7734,0.82786
488.562,53.9593,0.16526,-3.7755,0.8274
489.162,54.01854,0.16086,-3.7755,0.82694
489.762,54.0777,0.16204,-3.77678,0.82648
490.362,54.1365,0.15791,-3.77661,0.82602
490.962,54.1958,0.15219,-3.77747,0.82556
491.562,54.25516,0.15355,-3.77814,0.8251
492.162,54.31425,0.15252,-3.77948,0.82464
492.762,54.3738,0.15198,-3.78208,0.82418
493.362,54.433,0.15162,-3.78084,0.82372
493.962,54.4924,0.1491,-3.78209,0.82326
494.562,54.5518,0.14719,-3.78209,0.8228
495.162,54.61119,0.14565,-3.78339,0.82234
495.762,54.67054,0.14349,-3.78472,0.82188
496.362,54.72973,0.14399,-3.78439,0.82142
496.962,54.7891,0.14445,-3.78439,0.82096
497.562,54.84834,0.14342,-3.78306,0.82049
498.162,54.9077,0.14343,-3.78242,0.82003
498.762,54.96706,0.14693,-3.78392,0.81957
499.362,55.0264,0.1494,-3.78542,0.81911
499.962,55.08563,0.14907,-3.78691,0.81864
500.562,55.1447,0.15112,-3.78694,0.81818
501.162,55.20404,0.15929,-3.78822,0.81772
501.762,55.2634,0.16126,-3.78722,0.81725
502.362,55.32303,0.16659,-3.78724,0.81679
502.962,55.38239,0.16992,-3.78724,0.81633
503.562,55.44177,0.17333,-3.78857,0.81586
504.162,55.501,0.17437,-3.78856,0.8154
504.762,55.56021,0.17095,-3.78821,0.81493
505.362,55.61955,0.16607,-3.78955,0.81447
505.962,55.6789,0.16472,-3.78956,0.814
506.562,55.7385,0.1628,-3.7882,0.81354
507.162,55.79815,0.15646,-3.7883,0.81307
507.762,55.8578,0.15439,-3.78823,0.81261
508.362,55.9175,0.15583,-3.78957,0.81214
508.962,55.9771,0.15268,-3.78954,0.81168
509.562,56.0367,0.1531,-3.78954,0.81121
510.162,56.0963,0.14841,-3.78954,0.81074
510.762,56.15583,0.14897,-3.78827,0.81028
511.362,56.2154,0.14817,-3.78955,0.80981
511.962,56.27511,0.14591,-3.78796,0.80934
512.562,56.33478,0.14558,-3.78839,0.80888
513.162,56.39456,0.14734,-3.79094,0.80841
513.762,56.4542,0.14693,-3.79216,0.80794
514.362,56.51407,0.14437,-3.79314,0.80747
514.962,56.5738,0.142,-3.79316,0.80701
515.562,56.63365,0.14298,-3.79315,0.80654
516.162,56.69333,0.14054,-3.79217,0.80607
516.762,56.7531,0.14261,-3.79217,0.8056
517.362,56.8128,0.14191,-3.79217,0.80513
517.962,56.8726,0.1388,-3.79354,0.80466
518.562,56.93235,0.13694,-3.79349,0.80419
519.162,56.992,0.13386,-3.79349,0.80372
519.762,57.05161,0.13228,-3.7935,0.80325
520.362,57.1113,0.13275,-3.7925,0.80278
520.962,57.171,0.12646,-3.79119,0.80231
521.562,57.23081,0.12547,-3.79166,0.80184
522.162,57.29034,0.12141,-3.79317,0.80137
522.762,57.3497,0.12009,-3.79448,0.8009
523.362,57.4093,0.11847,-3.79448,0.80043
523.962,57.46904,0.11951,-3.79317,0.79996
524.562,57.52915,0.1179,-3.79448,0.79949
525.162,57.58849,0.11435,-3.79579,0.79902
525.762,57.6483,0.11272,-3.79579,0.79855
526.362,57.70824,0.11424,-3.79479,0.79808
526.962,57.7683,0.11332,-3.7948,0.7976
527.562,57.8283,0.1097,-3.79609,0.79713
528.162,57.8882,0.1103,-3.79612,0.79666
528.762,57.94785,0.10954,-3.79612,0.79619
529.362,58.0076,0.11281,-3.79612,0.79571
529.962,58.06725,0.11354,-3.79612,0.79524
530.562,58.1269,0.1132,-3.79612,0.79477
531.162,58.18646,0.1121,-3.79612,0.79429
531.762,58.246,0.11248,-3.79615,0.79382
532.362,58.3056,0.11262,-3.7958,0.79335
532.962,58.3652,0.11318,-3.79516,0.79287
533.562,58.425,0.11342,-3.79514,0.7924
534.162,58.48475,0.11127,-3.79529,0.79193
534.762,58.5446,0.11051,-3.79712,0.79145
535.362,58.6043,0.1125,-3.79586,0.79098
535.962,58.664,0.11259,-3.7958,0.7905
536.562,58.7236,0.11397,-3.79581,0.79003
537.162,58.78329,0.11545,-3.79448,0.78955
537.762,58.843,0.11427,-3.79577,0.78908
538.362,58.90276,0.11568,-3.7958,0.7886
538.962,58.9625,0.11565,-3.79581,0.78813
539.562,59.02239,0.11455,-3.79712,0.78765
540.162,59.08223,0.11629,-3.79584,0.78717
540.762,59.1419,0.11606,-3.79711,0.7867
541.362,59.2017,0.11417,-3.79711,0.78622
541.962,59.26166,0.11872,-3.79711,0.78575
542.562,59.3215,0.12004,-3.79711,0.78527
543.162,59.3813,0.11626,-3.79711,0.78479
543.762,59.4408,0.11553,-3.79711,0.78431
544.362,59.5007,0.11601,-3.79821,0.78384
544.962,59.5606,0.11519,-3.79711,0.78336
545.562,59.6206,0.11688,-3.79757,0.78288
546.162,59.68054,0.11849,-3.79775,0.78241
546.762,59.74032,0.12157,-3.79712,0.78193
547.362,59.8001,0.11853,-3.79712,0.78145
547.962,59.8599,0.11528,-3.79843,0.78097
548.562,59.9198,0.11689,-3.79843,0.78049
549.162,59.97973,0.11847,-3.79843,0.78001
549.762,60.03985,0.11892,-3.79843,0.77954
550.362,60.09972,0.11722,-3.79843,0.77906
550.962,60.15954,0.12204,-3.79843,0.77858
551.562,60.2194,0.11837,-3.79843,0.7781
552.162,60.2792,0.11997,-3.79843,0.77762
552.762,60.33914,0.1193,-3.79974,0.77714
553.362,60.39895,0.12037,-3.79974,0.77666
553.962,60.45879,0.12062,-3.79974,0.77618
554.562,60.5185,0.11699,-3.79843,0.7757
555.162,60.57839,0.12025,-3.79843,0.77522
555.762,60.63824,0.11814,-3.7991,0.77474
556.362,60.69806,0.12233,-3.7991,0.77426
556.962,60.7581,0.12028,-3.79975,0.77378
557.562,60.8179,0.12274,-3.79975,0.7733
558.162,60.87766,0.12097,-3.79975,0.77282
558.762,60.9375,0.11821,-3.79975,0.77234
559.362,60.9973,0.12098,-3.79975,0.77185
559.962,61.05709,0.12337,-3.79971,0.77137
560.562,61.1167,0.12082,-3.80106,0.77089
561.162,61.1765,0.12212,-3.80106,0.77041
561.762,61.23601,0.12148,-3.80111,0.76993
562.362,61.29625,0.12208,-3.79975,0.76945
562.962,61.3564,0.12182,-3.80046,0.76896
563.562,61.41658,0.12394,-3.80106,0.76848
564.162,61.47645,0.12165,-3.80106,0.768
564.762,61.5363,0.12376,-3.80172,0.76752
565.362,61.5962,0.12371,-3.80104,0.76703
565.962,61.65616,0.12384,-3.79968,0.76655
566.562,61.716,0.12544,-3.79975,0.76607
567.162,61.77575,0.12396,-3.80106,0.76558
567.762,61.83566,0.12234,-3.80106,0.7651
568.362,61.89569,0.12486,-3.80106,0.76462
568.962,61.9557,0.12371,-3.80209,0.76413
569.562,62.0159,0.12668,-3.80205,0.76365
570.162,62.07606,0.12342,-3.80207,0.76316
570.762,62.1361,0.12527,-3.80295,0.76268
571.362,62.19599,0.12353,-3.80172,0.7622
571.962,62.25575,0.12781,-3.80205,0.76171
572.562,62.3158,0.12491,-3.8024,0.76123
573.162,62.3758,0.13133,-3.80304,0.76074
573.762,62.43577,0.1284,-3.80304,0.76026
574.362,62.4959,0.12696,-3.80304,0.75977
574.962,62.55585,0.12937,-3.80281,0.75929
575.562,62.6159,0.12651,-3.80272,0.7588
576.162,62.6759,0.127,-3.80276,0.75832
576.762,62.73588,0.1269,-3.80139,0.75783
577.362,62.79569,0.12752,-3.80135,0.75734
577.962,62.85555,0.12834,-3.80172,0.75686
578.562,62.9155,0.12508,-3.80303,0.75637
579.162,62.9757,0.12746,-3.80396,0.75589
579.762,63.036,0.13002,-3.80402,0.7554
580.362,63.0963,0.12659,-3.8054,0.75491
580.962,63.1565,0.12544,-3.80404,0.75443
581.562,63.21677,0.12703,-3.8025,0.75394
582.162,63.27703,0.12761,-3.80233,0.75345
582.762,63.33716,0.12745,-3.80235,0.75297
583.362,63.3973,0.12869,-3.80251,0.75248
583.962,63.45734,0.13031,-3.80378,0.75199
584.562,63.51739,0.12991,-3.80446,0.7515
585.162,63.5773,0.13036,-3.80365,0.75102
585.762,63.63755,0.12888,-3.80315,0.75053
586.362,63.6977,0.12796,-3.80447,0.75004
586.962,63.75776,0.13064,-3.80446,0.74955
587.562,63.8178,0.13079,-3.80377,0.74907
588.162,63.8776,0.13123,-3.80514,0.74858
588.762,63.93772,0.13008,-3.80512,0.74809
589.362,63.9978,0.12947,-3.80512,0.7476
589.962,64.0581,0.13261,-3.80512,0.74711
590.562,64.118,0.13329,-3.80484,0.74662
591.162,64.1781,0.13145,-3.80446,0.74613
591.762,64.23823,0.13273,-3.80449,0.74564
592.362,64.29828,0.1312,-3.80348,0.74516
592.962,64.35816,0.13338,-3.80348,0.74467
593.562,64.4179,0.12974,-3.80377,0.74418
594.162,64.47761,0.1302,-3.80479,0.74369
594.762,64.53739,0.1307,-3.80614,0.7432
595.362,64.59743,0.13149,-3.80611,0.74271
595.962,64.6576,0.13311,-3.80611,0.74222
596.562,64.7179,0.13099,-3.80611,0.74173
597.162,64.77799,0.12926,-3.80611,0.74124
597.762,64.83814,0.13191,-3.80611,0.74075
598.362,64.89817,0.13075,-3.80611,0.74026
598.962,64.9582,0.12939,-3.80611,0.73977
599.562,65.01817,0.12838,-3.80611,0.73928
600.162,65.07821,0.13074,-3.8055,0.73879
600.762,65.13824,0.13252,-3.80545,0.7383
601.362,65.1983,0.13262,-3.80673,0.7378
601.962,65.25831,0.13303,-3.80676,0.73731
602.562,65.31828,0.13399,-3.80676,0.73682
603.162,65.37812,0.13594,-3.80741,0.73633
603.762,65.438,0.13366,-3.80648,0.73584
604.362,65.49772,0.13575,-3.80676,0.73535
604.962,65.5577,0.13405,-3.80705,0.73486
605.562,65.6177,0.13515,-3.80709,0.73436
606.162,65.6777,0.13098,-3.80709,0.73387
606.762,65.7377,0.13238,-3.80709,0.73338
607.362,65.7978,0.13389,-3.80709,0.73289
607.962,65.85784,0.13178,-3.80709,0.7324
608.562,65.91808,0.13042,-3.80709,0.7319
609.162,65.97801,0.13259,-3.80709,0.73141
609.762,66.03811,0.13354,-3.80841,0.73092
610.362,66.09816,0.13066,-3.80841,0.73043
610.962,66.15841,0.13075,-3.80841,0.72993
611.562,66.21866,0.13265,-3.80841,0.72944
612.162,66.27891,0.13392,-3.80841,0.72895
612.762,66.33924,0.13123,-3.80841,0.72845
613.362,66.39961,0.13492,-3.80708,0.72796
613.962,66.46011,0.13479,-3.8071,0.72747
614.562,66.5206,0.12972,-3.80844,0.72698
615.162,66.58091,0.13284,-3.80841,0.72648
615.762,66.6412,0.1327,-3.8071,0.72599
616.362,66.70136,0.13376,-3.8071,0.72549
616.962,66.7615,0.1326,-3.80849,0.725
617.562,66.82175,0.13497,-3.80972,0.72451
618.162,66.88209,0.13209,-3.80855,0.72401
618.762,66.94243,0.1339,-3.80841,0.72352
619.362,67.0029,0.13529,-3.80742,0.72302
619.962,67.06328,0.13482,-3.80743,0.72253
620.562,67.1238,0.13091,-3.80666,0.72204
621.162,67.18424,0.13279,-3.80675,0.72154
621.762,67.24484,0.13211,-3.80992,0.72105
622.362,67.30529,0.13258,-3.80995,0.72055
622.962,67.36583,0.13156,-3.80979,0.72006
623.562,67.42635,0.12802,-3.80994,0.71956
624.162,67.48675,0.13136,-3.80865,0.71907
624.762,67.54706,0.13211,-3.80995,0.71857
625.362,67.6072,0.1305,-3.80995,0.71808
625.962,67.66736,0.13522,-3.81127,0.71758
626.562,67.72751,0.13608,-3.80994,0.71709
627.162,67.78789,0.1369,-3.80994,0.71659
627.762,67.84823,0.13592,-3.81052,0.7161
628.362,67.90856,0.13647,-3.81126,0.7156
628.962,67.969,0.14047,-3.80994,0.7151
629.562,68.02929,0.13759,-3.80994,0.71461
630.162,68.08963,0.13778,-3.80991,0.71411
630.762,68.1499,0.13407,-3.80961,0.71362
631.362,68.21008,0.13739,-3.80961,0.71312
631.962,68.2705,0.13509,-3.80961,0.71262
632.562,68.3309,0.1349,-3.80959,0.71213
633.162,68.39107,0.134,-3.81027,0.71163
633.762,68.45124,0.13549,-3.80994,0.71113
634.362,68.51083,0.13427,-3.80863,0.71064
634.962,68.57104,0.13209,-3.80863,0.71014
635.562,68.6314,0.13667,-3.81002,0.70964
636.162,68.6919,0.13607,-3.80994,0.70915
636.762,68.75242,0.13573,-3.80994,0.70865
637.362,68.81263,0.13426,-3.80994,0.70815
637.962,68.8728,0.13469,-3.80853,0.70766
638.562,68.9332,0.13591,-3.80855,0.70716
639.162,68.99342,0.1358,-3.81127,0.70666
639.762,69.05364,0.13527,-3.81086,0.70617
640.362,69.11375,0.13282,-3.80862,0.70567
640.962,69.17405,0.13433,-3.80864,0.70517
641.562,69.23435,0.1299,-3.80995,0.70467
642.162,69.29468,0.1337,-3.80995,0.70418
642.762,69.3549,0.13169,-3.80995,0.70368
643.362,69.4151,0.1334,-3.81127,0.70318
643.962,69.47529,0.13154,-3.81124,0.70268
644.562,69.53559,0.13176,-3.81092,0.70218
645.162,69.59585,0.13441,-3.81096,0.70169
645.762,69.65613,0.12925,-3.81224,0.70119
646.362,69.71656,0.13366,-3.81224,0.70069
646.962,69.77695,0.13173,-3.81168,0.70019
647.562,69.8374,0.13113,-3.81323,0.69969
648.162,69.8976,0.13384,-3.81324,0.6992
648.762,69.95783,0.13084,-3.81324,0.6987
649.362,70.01804,0.13277,-3.81258,0.6982
649.962,70.07852,0.12888,-3.81258,0.6977
650.562,70.139,0.12826,-3.81258,0.6972
651.162,70.19904,0.1325,-3.81258,0.6967
651.762,70.259,0.13349,-3.81258,0.6962
652.362,70.3189,0.13297,-3.81389,0.6957
652.962,70.37904,0.13029,-3.8139,0.69521
653.562,70.43959,0.13459,-3.81389,0.69471
654.162,70.49993,0.13285,-3.81389,0.69421
654.762,70.5605,0.13478,-3.81389,0.69371
655.362,70.621,0.13155,-3.81389,0.69321
655.962,70.6814,0.1364,-3.81389,0.69271
656.562,70.7423,0.13226,-3.81258,0.69221
657.162,70.8034,0.13418,-3.81285,0.69171
657.762,70.86457,0.13413,-3.81265,0.69121
658.362,70.92546,0.13552,-3.81258,0.69071
658.962,70.98603,0.1331,-3.81258,0.69021
659.562,71.04658,0.13045,-3.81258,0.68971
660.162,71.10716,0.12949,-3.81258,0.68921
660.762,71.1678,0.12863,-3.81258,0.68871
661.362,71.22828,0.13286,-3.81317,0.68821
661.962,71.28876,0.12852,-3.8152,0.68771
662.562,71.3492,0.1307,-3.81521,0.68721
663.162,71.40947,0.13148,-3.8139,0.68671
663.762,71.47004,0.13265,-3.8139,0.68621
664.362,71.53045,0.1255,-3.8139,0.68571
664.962,71.59097,0.1325,-3.81235,0.68521
665.562,71.65122,0.13289,-3.81398,0.68471
666.162,71.71163,0.13165,-3.81521,0.68421
666.762,71.77198,0.13321,-3.81521,0.68371
667.362,71.83195,0.13386,-3.81521,0.68321
667.962,71.89217,0.13097,-3.81521,0.68271
668.562,71.95215,0.13536,-3.81521,0.68221
669.162,72.0124,0.13519,-3.81521,0.68171
669.762,72.07256,0.13162,-3.8152,0.68121
670.362,72.1327,0.13311,-3.81346,0.68071
670.962,72.19285,0.13352,-3.81356,0.68021
671.562,72.25328,0.13704,-3.81376,0.67971
672.162,72.31375,0.13547,-3.81488,0.6792
672.762,72.3743,0.13342,-3.81597,0.6787
673.362,72.43464,0.13433,-3.81678,0.6782
673.962,72.49506,0.13722,-3.81719,0.6777
674.562,72.5556,0.13247,-3.81719,0.6772
675.162,72.61645,0.1346,-3.81719,0.6767
675.762,72.67745,0.13222,-3.81587,0.6762
676.362,72.7383,0.13341,-3.81587,0.6757
676.962,72.79884,0.13478,-3.81587,0.6752
677.562,72.85935,0.13107,-3.81587,0.67469
678.162,72.9199,0.12792,-3.81551,0.67419
678.762,72.98066,0.13122,-3.81456,0.67369
679.362,73.04127,0.13335,-3.81456,0.67319
679.962,73.10185,0.1311,-3.81319,0.67269
680.562,73.16216,0.1288,-3.81324,0.67219
681.162,73.2225,0.12929,-3.81324,0.67169
681.762,73.283,0.12809,-3.81324,0.67118
682.362,73.34342,0.13055,-3.81324,0.67068
682.962,73.40383,0.12906,-3.81374,0.67018
683.562,73.4641,0.13095,-3.81324,0.66968
684.162,73.52449,0.13518,-3.81521,0.66918
684.762,73.585,0.134,-3.81587,0.66867
685.362,73.64559,0.13123,-3.8182,0.66817
685.962,73.70604,0.13412,-3.8185,0.66767
686.562,73.76655,0.13085,-3.81721,0.66717
687.162,73.82701,0.13426,-3.81719,0.66667
687.762,73.88752,0.13017,-3.81614,0.66616
688.362,73.94811,0.12987,-3.81455,0.66566
688.962,74.00873,0.1298,-3.81521,0.66516
689.562,74.06936,0.12926,-3.81521,0.66466
690.162,74.12997,0.12772,-3.81554,0.66416
690.762,74.19075,0.12922,-3.81554,0.66365
691.362,74.25148,0.12998,-3.81424,0.66315
691.962,74.31233,0.12702,-3.81422,0.66265
692.562,74.37323,0.12783,-3.81422,0.66215
693.162,74.43409,0.12848,-3.8134,0.66164
693.762,74.49495,0.12862,-3.81477,0.66114
694.362,74.55572,0.12465,-3.81566,0.66064
694.962,74.61625,0.12763,-3.81686,0.66014
695.562,74.677,0.12411,-3.81556,0.65963
696.162,74.7379,0.12541,-3.81619,0.65913
696.762,74.79853,0.12685,-3.81619,0.65863
697.362,74.8594,0.12353,-3.81619,0.65813
697.962,74.92012,0.12473,-3.81619,0.65762
698.562,74.98115,0.12564,-3.81685,0.65712
699.162,75.04186,0.12712,-3.81737,0.65662
699.762,75.10263,0.12519,-3.81784,0.65612
700.362,75.16337,0.12552,-3.81784,0.65561
700.962,75.22413,0.1275,-3.81784,0.65511
701.562,75.28475,0.12674,-3.81783,0.65461
702.162,75.34549,0.1256,-3.81751,0.6541
702.762,75.40611,0.12652,-3.81753,0.6536
703.362,75.46684,0.12656,-3.8185,0.6531
703.962,75.52754,0.12472,-3.8185,0.6526
704.562,75.58827,0.12608,-3.81719,0.65209
705.162,75.64909,0.12805,-3.81719,0.65159
705.762,75.70975,0.12938,-3.81653,0.65109
706.362,75.7704,0.13083,-3.81686,0.65058
706.962,75.83103,0.13259,-3.81807,0.65008
707.562,75.8918,0.13069,-3.81751,0.64958
708.162,75.95257,0.13073,-3.81751,0.64907
708.762,76.01324,0.13183,-3.81771,0.64857
709.362,76.07388,0.13534,-3.81883,0.64807
709.962,76.1344,0.13236,-3.81883,0.64757
710.562,76.19505,0.13159,-3.81883,0.64706
711.162,76.25574,0.13125,-3.81883,0.64656
711.762,76.31657,0.1344,-3.81883,0.64606
712.362,76.37736,0.13272,-3.81883,0.64555
712.962,76.438,0.13198,-3.81882,0.64505
713.562,76.49858,0.12801,-3.8175,0.64455
714.162,76.55921,0.13106,-3.81619,0.64404
714.762,76.61986,0.12931,-3.81751,0.64354
715.362,76.68074,0.132,-3.8183,0.64304
715.962,76.74155,0.1306,-3.81753,0.64253
716.562,76.8024,0.13072,-3.81751,0.64203
717.162,76.86318,0.13179,-3.81751,0.64153
717.762,76.92401,0.13011,-3.81881,0.64102
718.362,76.9851,0.13139,-3.81883,0.64052
718.962,77.0462,0.12979,-3.81752,0.64002
719.562,77.1074,0.12922,-3.81752,0.63951
720.162,77.16835,0.1279,-3.81752,0.63901
720.762,77.22915,0.12917,-3.81752,0.63851
721.362,77.28987,0.12782,-3.81883,0.638
721.962,77.3507,0.12986,-3.81888,0.6375
722.562,77.41144,0.1307,-3.81883,0.637
723.162,77.47234,0.13209,-3.81883,0.63649
723.762,77.53323,0.13259,-3.81883,0.63599
724.362,77.594,0.13237,-3.81883,0.63549
724.962,77.655,0.13075,-3.81883,0.63498
725.562,77.71581,0.13086,-3.81883,0.63448
726.162,77.7766,0.13142,-3.81878,0.63398
726.762,77.8374,0.13297,-3.82014,0.63347
727.362,77.89815,0.13249,-3.82052,0.63297
727.962,77.95897,0.13285,-3.82048,0.63247
728.562,78.0198,0.12931,-3.82015,0.63196
729.162,78.0808,0.12943,-3.82015,0.63146
729.762,78.1417,0.13125,-3.82015,0.63096
730.362,78.20255,0.13082,-3.82009,0.63045
730.962,78.26307,0.13235,-3.82007,0.62995
731.562,78.3236,0.13345,-3.82015,0.62944
732.162,78.38401,0.13162,-3.82015,0.62894
732.762,78.4444,0.13237,-3.82015,0.62844
733.362,78.50483,0.13185,-3.82015,0.62793
733.962,78.56533,0.13516,-3.82015,0.62743
734.562,78.62594,0.13393,-3.82015,0.62693
735.162,78.68655,0.13476,-3.81904,0.62642
735.762,78.74716,0.13514,-3.81883,0.62592
736.362,78.80763,0.1336,-3.81883,0.62542
736.962,78.86831,0.13427,-3.81942,0.62491
737.562,78.92886,0.13828,-3.82015,0.62441
738.162,78.98939,0.13618,-3.8198,0.62391
738.762,79.05001,0.13627,-3.81981,0.6234
739.362,79.1108,0.13602,-3.81969,0.6229
739.962,79.1716,0.13414,-3.81882,0.6224
740.562,79.23257,0.1383,-3.81883,0.62189
741.162,79.29321,0.1392,-3.82016,0.62139
741.762,79.35382,0.14049,-3.82016,0.62089
742.362,79.41452,0.13391,-3.81916,0.62038
742.962,79.47516,0.13509,-3.81916,0.61988
743.562,79.53599,0.1368,-3.81915,0.61938
744.162,79.59685,0.13625,-3.82048,0.61887
744.762,79.6577,0.1415,-3.82048,0.61837
745.362,79.7188,0.13526,-3.82048,0.61787
745.962,79.77976,0.13975,-3.82179,0.61736
746.562,79.84062,0.13938,-3.82047,0.61686
747.162,79.90141,0.1386,-3.82048,0.61636
747.762,79.96223,0.14052,-3.82179,0.61585
748.062,79.99287,0.14031,-3.82323,0.6156