File: 01_Data/PlasticA/STA/N2/30K_min/PlasticA_STA_N2_30KData_211019_R1.csv
,Time/min,DSC/mW,Mass loss/mg,Sensit./(uV/mW)
50.0,10.9797,0.0428483,0.0554644,1.05402
50.5,11.189,0.170516,0.0537941,1.05403
51,11.3308,0.287625,0.0562809,1.05404
51.5,11.444,0.382889,0.0565709,1.05405
52,11.5352,0.475923,0.0555123,1.05405
52.5,11.6225,0.564538,0.0579626,1.05406
53,11.697,0.65034,0.058587,1.05406
53.5,11.7651,0.721793,0.056088,1.05406
54,11.8284,0.797853,0.0583197,1.05406
54.5,11.8878,0.866645,0.0590229,1.05406
55,11.9433,0.936955,0.0577671,1.05406
55.5,11.996,0.99797,0.0574599,1.05406
56,12.0468,1.06085,0.0582302,1.05405
56.5,12.0954,1.12011,0.0595873,1.05405
57,12.1415,1.17525,0.0578869,1.05404
57.5,12.1868,1.2327,0.0564013,1.05403
58,12.2311,1.27242,0.0574626,1.05403
58.5,12.2734,1.33156,0.0556557,1.05401
59,12.3146,1.37471,0.0579986,1.054
59.5,12.355,1.41723,0.0585989,1.05399
60,12.3945,1.45727,0.0591953,1.05398
60.5,12.433,1.50194,0.059044,1.05396
61,12.4709,1.54397,0.0592654,1.05395
61.5,12.5081,1.58584,0.0566626,1.05393
62,12.5443,1.61723,0.0569522,1.05391
62.5,12.5804,1.65582,0.0585809,1.05389
63,12.616,1.70296,0.0590228,1.05387
63.5,12.6508,1.74465,0.0602569,1.05385
64,12.6846,1.77404,0.0610474,1.05382
64.5,12.7185,1.80519,0.0606711,1.0538
65,12.7527,1.84561,0.0612764,1.05377
65.5,12.7861,1.88203,0.0623909,1.05375
66,12.8188,1.90692,0.0625098,1.05372
66.5,12.8513,1.9415,0.0602719,1.05369
67,12.8835,1.9748,0.0590064,1.05366
67.5,12.9153,2.01062,0.058749,1.05363
68,12.9469,2.02493,0.058553,1.05359
68.5,12.9781,2.05407,0.0607186,1.05356
69,13.009,2.08798,0.0611718,1.05352
69.5,13.0395,2.11209,0.0606388,1.05349
70,13.0697,2.14417,0.0619612,1.05345
70.5,13.0999,2.1685,0.0633079,1.05341
71,13.1301,2.19654,0.0631708,1.05337
71.5,13.1602,2.22349,0.0618184,1.05333
72,13.1898,2.24693,0.0603941,1.05329
72.5,13.2191,2.27603,0.0608473,1.05324
73,13.2482,2.30529,0.0605283,1.0532
73.5,13.2772,2.32445,0.0592025,1.05315
74,13.306,2.36356,0.0587608,1.0531
74.5,13.3347,2.394,0.059364,1.05306
75,13.3632,2.41126,0.0611201,1.05301
75.5,13.3914,2.43994,0.0620364,1.05295
76,13.4195,2.4674,0.0625688,1.0529
76.5,13.4474,2.4932,0.0619748,1.05285
77,13.475,2.51588,0.0620241,1.0528
77.5,13.5026,2.54755,0.0626743,1.05274
78,13.5297,2.57223,0.0634927,1.05268
78.5,13.5569,2.59716,0.0624177,1.05263
79,13.5839,2.62572,0.0620018,1.05257
79.5,13.6108,2.64627,0.0609334,1.05251
80,13.6377,2.66372,0.0601499,1.05245
80.5,13.6642,2.69193,0.060864,1.05238
81,13.6905,2.70279,0.0619672,1.05232
81.5,13.7166,2.71902,0.0605817,1.05225
82,13.7426,2.74092,0.0584381,1.05219
82.5,13.7685,2.75602,0.0576705,1.05212
83,13.7942,2.78013,0.0582244,1.05205
83.5,13.8196,2.80682,0.0601758,1.05198
84,13.8448,2.81459,0.0611263,1.05191
84.5,13.8699,2.83921,0.0624192,1.05184
85,13.8949,2.8567,0.0608046,1.05177
85.5,13.9198,2.87385,0.0607081,1.05169
86,13.9448,2.89329,0.0622326,1.05162
86.5,13.9693,2.91306,0.064003,1.05154
87,13.9939,2.92208,0.0636504,1.05147
87.5,14.0183,2.93981,0.0636267,1.05139
88,14.0425,2.95267,0.0637205,1.05131
88.5,14.0664,2.97259,0.0644581,1.05123
89,14.0903,2.98192,0.0639989,1.05115
89.5,14.114,2.98958,0.0643462,1.05106
90,14.1377,2.99828,0.0635936,1.05098
90.5,14.1611,3.01082,0.0623,1.05089
91,14.1845,3.02489,0.0621219,1.05081
91.5,14.2077,3.04423,0.0630125,1.05072
92,14.2309,3.04171,0.0629715,1.05063
92.5,14.2538,3.05739,0.0641583,1.05054
93,14.2766,3.07595,0.0641162,1.05045
93.5,14.2992,3.0828,0.0654991,1.05036
94,14.3218,3.10119,0.0643891,1.05026
94.5,14.3444,3.12233,0.0643583,1.05017
95,14.3667,3.13192,0.0644364,1.05007
95.5,14.389,3.16128,0.0643621,1.04998
96,14.4112,3.17401,0.0649737,1.04988
96.5,14.4333,3.20008,0.0653605,1.04978
97,14.4552,3.21563,0.0664115,1.04968
97.5,14.4772,3.23456,0.0651135,1.04958
98,14.4992,3.25815,0.0656225,1.04948
98.5,14.5209,3.28629,0.0641089,1.04937
99,14.5425,3.30337,0.0627925,1.04927
99.5,14.5639,3.32513,0.062214,1.04916
100,14.5852,3.35133,0.0612985,1.04906
100.5,14.6066,3.38366,0.0612999,1.04895
101,14.6276,3.39629,0.0600221,1.04884
101.5,14.6483,3.42698,0.0600081,1.04873
102,14.6693,3.45381,0.0597144,1.04862
102.5,14.6902,3.47391,0.0608838,1.04851
103,14.7114,3.5022,0.0625498,1.04839
103.5,14.7325,3.52871,0.0635892,1.04828
104,14.7532,3.55234,0.0647988,1.04816
104.5,14.7737,3.58247,0.0657985,1.04805
105,14.7943,3.61608,0.0658012,1.04793
105.5,14.8147,3.6416,0.0662234,1.04781
106,14.835,3.66631,0.0654607,1.04769
106.5,14.8555,3.69408,0.0639466,1.04757
107,14.8759,3.72412,0.0627114,1.04745
107.5,14.8962,3.75289,0.0630048,1.04733
108,14.9164,3.79426,0.0640181,1.0472
108.5,14.9365,3.82274,0.0658035,1.04708
109,14.9565,3.86051,0.0657921,1.04695
109.5,14.9764,3.90126,0.0661047,1.04682
110,14.9962,3.93381,0.0662012,1.04669
110.5,15.0161,3.96897,0.0673739,1.04656
111,15.0358,3.99933,0.0681938,1.04643
111.5,15.0555,4.04974,0.0682381,1.0463
112,15.075,4.08131,0.0683405,1.04617
112.5,15.0946,4.12157,0.0686928,1.04603
113,15.114,4.15257,0.068653,1.0459
113.5,15.1336,4.19262,0.0690534,1.04576
114,15.153,4.23617,0.0687518,1.04563
114.5,15.1724,4.26738,0.0681287,1.04549
115,15.1918,4.29592,0.0677235,1.04535
115.5,15.2109,4.32133,0.0666945,1.04521
116,15.2301,4.34313,0.0677525,1.04507
116.5,15.2492,4.36686,0.0667056,1.04493
117,15.2682,4.39098,0.0671607,1.04478
117.5,15.2872,4.4137,0.0680104,1.04464
118,15.3063,4.43876,0.0680987,1.04449
118.5,15.3252,4.46301,0.0667137,1.04435
119,15.3441,4.50183,0.0680534,1.0442
119.5,15.363,4.51458,0.0674364,1.04405
120,15.3816,4.5446,0.0678109,1.0439
120.5,15.4003,4.55461,0.0676851,1.04375
121,15.4189,4.57735,0.0665356,1.0436
121.5,15.4375,4.61127,0.0653148,1.04344
122,15.456,4.61581,0.0662096,1.04329
122.5,15.4746,4.64514,0.0660198,1.04314
123,15.4931,4.66238,0.0650296,1.04298
123.5,15.5115,4.69602,0.06505,1.04282
124,15.5299,4.70428,0.0657054,1.04266
124.5,15.5481,4.72539,0.0652488,1.04251
125,15.5663,4.74853,0.0662148,1.04235
125.5,15.5846,4.75955,0.0666319,1.04218
126,15.6027,4.80326,0.0681634,1.04202
126.5,15.6209,4.81044,0.0681355,1.04186
127,15.6389,4.83662,0.0680964,1.04169
127.5,15.6569,4.85631,0.0682685,1.04153
128,15.6748,4.86793,0.0686327,1.04136
128.5,15.6928,4.88459,0.0682198,1.0412
129,15.7107,4.90833,0.0676942,1.04103
129.5,15.7286,4.93564,0.0682856,1.04086
130,15.7464,4.94958,0.0671309,1.04069
130.5,15.7641,4.97579,0.0668094,1.04052
131,15.7817,4.98966,0.0667898,1.04034
131.5,15.7994,5.01052,0.0667615,1.04017
132,15.817,5.02463,0.0681465,1.04
132.5,15.8346,5.04179,0.0681,1.03982
133,15.8523,5.06567,0.0681,1.03964
133.5,15.8699,5.07294,0.0680998,1.03947
134,15.8873,5.08349,0.0671001,1.03929
134.5,15.9048,5.09692,0.0682748,1.03911
135,15.9222,5.09773,0.0681515,1.03893
135.5,15.9395,5.10228,0.0678598,1.03875
136,15.9568,5.1173,0.0682203,1.03857
136.5,15.9741,5.12558,0.0682034,1.03838
137,15.9913,5.12739,0.0681676,1.0382
137.5,16.0086,5.14364,0.0683026,1.03801
138,16.0257,5.1491,0.0682117,1.03783
138.5,16.0429,5.15048,0.0681669,1.03764
139,16.06,5.16644,0.0669494,1.03745
139.5,16.077,5.17226,0.0681868,1.03726
140,16.094,5.1924,0.0682299,1.03707
140.5,16.111,5.19361,0.0684577,1.03688
141,16.128,5.20932,0.0685516,1.03669
141.5,16.145,5.2182,0.0685316,1.03649
142,16.1619,5.23526,0.0685313,1.0363
142.5,16.1789,5.24658,0.0673616,1.0361
143,16.1957,5.25624,0.0672405,1.03591
143.5,16.2126,5.26485,0.0672233,1.03571
144,16.2293,5.27847,0.0684119,1.03551
144.5,16.246,5.28468,0.0685508,1.03531
145,16.2624,5.30104,0.06855,1.03511
145.5,16.2789,5.31218,0.06855,1.03491
146,16.2953,5.3272,0.0685585,1.03471
146.5,16.3117,5.32972,0.0683387,1.03451
147,16.3284,5.34868,0.06853,1.0343
147.5,16.3452,5.36571,0.0685498,1.0341
148,16.3621,5.38005,0.0686109,1.03389
148.5,16.3788,5.39613,0.0693258,1.03369
149,16.3954,5.39811,0.068758,1.03348
149.5,16.4119,5.41196,0.0696214,1.03327
150,16.4283,5.43388,0.0697429,1.03306
150.5,16.4447,5.44496,0.0687245,1.03285
151,16.4611,5.45691,0.0687713,1.03264
151.5,16.4776,5.46536,0.0687509,1.03242
152,16.4939,5.47869,0.0686568,1.0322
152.5,16.5103,5.49597,0.0686817,1.032
153,16.5266,5.50059,0.0687605,1.03177
153.5,16.5428,5.51796,0.0687627,1.03156
154,16.5591,5.53736,0.0688543,1.03135
154.5,16.5753,5.55153,0.0675953,1.03113
155,16.5914,5.56544,0.0674297,1.0309
155.5,16.6077,5.57589,0.0685317,1.03068
156,16.6238,5.58492,0.0688707,1.03047
156.5,16.6399,5.60482,0.0688784,1.03025
157,16.656,5.61136,0.069467,1.03002
157.5,16.6721,5.62933,0.0702082,1.0298
158,16.6881,5.63772,0.0702,1.02957
158.5,16.7041,5.64926,0.0701912,1.02935
159,16.7201,5.664,0.0702456,1.02912
159.5,16.736,5.68201,0.0692614,1.0289
160,16.7519,5.68943,0.068876,1.02867
160.5,16.7678,5.70655,0.0688801,1.02844
161,16.7836,5.71671,0.06888,1.02821
161.5,16.7995,5.734,0.06888,1.02798
162,16.8155,5.7465,0.0688714,1.02774
162.5,16.8314,5.76589,0.0689114,1.02752
163,16.8475,5.7747,0.0678337,1.02728
163.5,16.8635,5.78699,0.0686245,1.02704
164,16.8793,5.80065,0.0688708,1.02681
164.5,16.8951,5.81649,0.06887,1.02657
165,16.9109,5.82193,0.06887,1.02633
165.5,16.9267,5.83862,0.06887,1.02609
166,16.9424,5.84628,0.0688703,1.02586
166.5,16.9581,5.85793,0.0688519,1.02562
167,16.9738,5.87006,0.0688411,1.02537
167.5,16.9895,5.88628,0.0665641,1.02513
168,17.0051,5.89824,0.0661476,1.02489
168.5,17.0208,5.90603,0.0661221,1.02466
169,17.0364,5.91244,0.0649416,1.0244
169.5,17.052,5.92989,0.0648192,1.02417
170,17.0675,5.93822,0.0648062,1.02391
170.5,17.083,5.95118,0.0659438,1.02366
171,17.0985,5.97577,0.0654707,1.02342
171.5,17.114,5.97275,0.0650427,1.02317
172,17.1294,5.98433,0.0651117,1.02292
172.5,17.1449,6.00207,0.066311,1.02267
173,17.1604,6.01773,0.06635,1.02241
173.5,17.1758,6.02173,0.06635,1.02216
174,17.1913,6.03988,0.06635,1.02191
174.5,17.2066,6.05617,0.06635,1.02166
175,17.222,6.07005,0.06635,1.0214
175.5,17.2374,6.07328,0.06635,1.02114
176,17.2527,6.08586,0.06635,1.02089
176.5,17.2681,6.10262,0.06635,1.02063
177,17.2834,6.11667,0.06635,1.02037
177.5,17.2987,6.13326,0.06635,1.02011
178,17.314,6.14132,0.0663508,1.01985
178.5,17.3292,6.15966,0.0663989,1.01959
179,17.3445,6.15871,0.0656132,1.01933
179.5,17.3597,6.17692,0.0650048,1.01907
180,17.3749,6.1946,0.065028,1.01881
180.5,17.39,6.19577,0.0657409,1.01854
181,17.4051,6.21798,0.0665962,1.01828
181.5,17.4203,6.22411,0.0665805,1.01801
182,17.4353,6.23886,0.0667174,1.01774
182.5,17.4504,6.26054,0.0679357,1.01748
183,17.4655,6.2628,0.06789,1.01721
183.5,17.4805,6.28035,0.0678897,1.01694
184,17.4955,6.29046,0.0679657,1.01667
184.5,17.5105,6.30346,0.0687052,1.0164
185,17.5255,6.31654,0.0678455,1.01613
185.5,17.5405,6.3214,0.0679074,1.01585
186,17.5555,6.34655,0.0690407,1.01558
186.5,17.5704,6.35384,0.0691993,1.01531
187,17.5853,6.36309,0.0691565,1.01503
187.5,17.6001,6.37968,0.0688557,1.01476
188,17.615,6.39059,0.0688797,1.01448
188.5,17.6298,6.39877,0.06888,1.0142
189,17.6447,6.42258,0.06888,1.01392
189.5,17.6596,6.42451,0.06888,1.01365
190,17.6744,6.44202,0.06888,1.01337
190.5,17.6891,6.4613,0.06888,1.01309
191,17.7039,6.46607,0.068891,1.0128
191.5,17.7186,6.47128,0.069418,1.01252
192,17.7334,6.49039,0.0695066,1.01224
192.5,17.7481,6.49314,0.0691884,1.01196
193,17.7629,6.50639,0.0692,1.01167
193.5,17.7776,6.5108,0.0692,1.01139
194,17.7923,6.52335,0.0692,1.0111
194.5,17.807,6.53887,0.0692,1.01081
195,17.8218,6.54482,0.0692,1.01052
195.5,17.8365,6.56124,0.0692,1.01024
196,17.8511,6.56504,0.0692,1.00995
196.5,17.8658,6.57832,0.0692,1.00966
197,17.8804,6.58895,0.069192,1.00937
197.5,17.895,6.5984,0.0686426,1.00907
198,17.9097,6.60972,0.0667303,1.00878
198.5,17.9243,6.61816,0.0665882,1.00849
199,17.9389,6.63118,0.0665801,1.00819
199.5,17.9534,6.63395,0.06658,1.0079
200,17.968,6.64709,0.06658,1.0076
200.5,17.9826,6.65735,0.06658,1.00731
201,17.9972,6.67006,0.066561,1.00701
201.5,18.0117,6.67695,0.0663307,1.00671
202,18.0263,6.67822,0.0666607,1.00642
202.5,18.0408,6.70114,0.0665549,1.00612
203,18.0553,6.70936,0.0670779,1.00582
203.5,18.0697,6.72007,0.0668995,1.00552
204,18.0843,6.73624,0.0665936,1.00521
204.5,18.0987,6.7448,0.0665689,1.00491
205,18.1132,6.75283,0.06658,1.00461
205.5,18.1276,6.7639,0.0665621,1.0043
206,18.1421,6.77642,0.0654062,1.004
206.5,18.1565,6.78124,0.0652191,1.00369
207,18.1709,6.79146,0.0644019,1.00339
207.5,18.1854,6.80217,0.063821,1.00308
208,18.1998,6.81942,0.06383,1.00277
208.5,18.2142,6.82834,0.06383,1.00247
209,18.2286,6.83141,0.06383,1.00216
209.5,18.2429,6.84837,0.06383,1.00185
210,18.2573,6.85909,0.06383,1.00154
210.5,18.2717,6.86685,0.06383,1.00123
211,18.2861,6.8679,0.06383,1.00091
211.5,18.3004,6.87899,0.06383,1.0006
212,18.3147,6.89045,0.0638185,1.00029
212.5,18.3291,6.89944,0.0644262,0.999973
213,18.3434,6.9172,0.0653786,0.999664
213.5,18.3577,6.91929,0.0661987,0.999343
214,18.372,6.93609,0.0669069,0.999033
214.5,18.3863,6.94595,0.0669,0.998714
215,18.4006,6.95214,0.0669,0.998393
215.5,18.4149,6.96435,0.0669,0.998073
216,18.4291,6.97401,0.0669121,0.997762
216.5,18.4434,6.9788,0.0662363,0.997442
217,18.4577,6.99402,0.0655797,0.997122
217.5,18.4719,6.99863,0.0653803,0.996793
218,18.4862,7.01104,0.064177,0.996473
218.5,18.5004,7.02345,0.0642734,0.996154
219,18.5146,7.03333,0.0642603,0.995833
219.5,18.5288,7.03125,0.06426,0.995503
220,18.543,7.04808,0.06426,0.995183
220.5,18.5572,7.0523,0.06426,0.994853
221,18.5713,7.06126,0.06426,0.994533
221.5,18.5855,7.07831,0.0642608,0.994202
222,18.5997,7.08631,0.06429,0.993873
222.5,18.6138,7.09227,0.0642604,0.993543
223,18.628,7.09319,0.0654939,0.993223
223.5,18.6421,7.10583,0.0655813,0.992893
224,18.6562,7.11868,0.065579,0.992563
224.5,18.6703,7.13208,0.0654527,0.992233
225,18.6845,7.1374,0.064218,0.991893
225.5,18.6986,7.14838,0.0642809,0.991563
226,18.7127,7.15009,0.0642602,0.991232
226.5,18.7269,7.16206,0.0642823,0.990903
227,18.741,7.17723,0.0653546,0.990562
227.5,18.7551,7.17438,0.0655642,0.990233
228,18.7692,7.18217,0.0655925,0.989892
228.5,18.7832,7.19333,0.0657404,0.989563
229,18.7974,7.20822,0.065973,0.989222
229.5,18.8115,7.20576,0.06516,0.988882
230,18.8256,7.2255,0.064581,0.988543
230.5,18.8396,7.22581,0.06459,0.988203
231,18.8537,7.22792,0.06459,0.987863
231.5,18.8678,7.23862,0.06459,0.987523
232,18.8818,7.24046,0.0645878,0.987183
232.5,18.8958,7.24485,0.0650982,0.986842
233,18.9098,7.26548,0.065989,0.986502
233.5,18.9238,7.27163,0.0659082,0.986162
234,18.9379,7.27534,0.0659101,0.985823
234.5,18.9519,7.28567,0.0659102,0.985472
235,18.9659,7.29532,0.0659314,0.985132
235.5,18.9799,7.31015,0.0642944,0.984782
236,18.9938,7.31911,0.0630662,0.984442
236.5,19.0078,7.31706,0.0630904,0.984092
237,19.0218,7.32462,0.0630578,0.983742
237.5,19.0357,7.33435,0.062999,0.983403
238,19.0497,7.33906,0.0618638,0.983052
238.5,19.0636,7.34294,0.0617399,0.982702
239,19.0776,7.35755,0.06174,0.982352
239.5,19.0916,7.35975,0.06174,0.982002
240,19.1055,7.36928,0.06174,0.981652
240.5,19.1195,7.38152,0.06174,0.981302
241,19.1335,7.37827,0.06174,0.980942
241.5,19.1474,7.39263,0.0617391,0.980592
242,19.1613,7.40001,0.0616971,0.980242
242.5,19.1753,7.40487,0.0614307,0.979882
243,19.1892,7.41136,0.0623285,0.979532
243.5,19.2031,7.41054,0.0624246,0.979181
244,19.217,7.41914,0.0624004,0.978822
244.5,19.2308,7.42006,0.0624,0.978462
245,19.2447,7.42309,0.0624,0.978113
245.5,19.2586,7.43297,0.0624003,0.977752
246,19.2724,7.44504,0.0624185,0.977392
246.5,19.2863,7.45648,0.0617919,0.977032
247,19.3001,7.46995,0.0612326,0.976672
247.5,19.314,7.47165,0.0603259,0.976312
248,19.3278,7.48162,0.0603018,0.975952
248.5,19.3417,7.49258,0.0591989,0.975592
249,19.3555,7.50952,0.0589997,0.975232
249.5,19.3693,7.50759,0.059,0.974872
250,19.3831,7.52108,0.059,0.974511
250.5,19.397,7.53224,0.059,0.974142
251,19.4108,7.54793,0.059,0.973783
251.5,19.4247,7.54336,0.059,0.973422
252,19.4385,7.55575,0.059,0.973052
252.5,19.4523,7.56662,0.059,0.972691
253,19.4662,7.56908,0.059,0.972323
253.5,19.48,7.57286,0.059,0.971952
254,19.4938,7.58173,0.0589976,0.971591
254.5,19.5076,7.59162,0.0594081,0.971222
255,19.5213,7.59365,0.0603327,0.970853
255.5,19.5351,7.59936,0.0603198,0.970482
256,19.5489,7.60534,0.06032,0.970112
256.5,19.5627,7.60877,0.0603198,0.969742
257,19.5765,7.61781,0.0602161,0.969372
257.5,19.5905,7.62328,0.0590866,0.969003
258,19.6042,7.62511,0.0589999,0.968632
258.5,19.618,7.63007,0.059,0.968262
259,19.6317,7.63584,0.059,0.967882
259.5,19.6455,7.64177,0.0589992,0.967512
260,19.6592,7.6474,0.0589556,0.967142
260.5,19.673,7.65579,0.0604415,0.966762
261,19.6867,7.66746,0.0613434,0.966392
261.5,19.7004,7.6642,0.0612991,0.966012
262,19.7142,7.66401,0.06131,0.965642
262.5,19.7279,7.67696,0.0613013,0.965262
263,19.7417,7.68174,0.0613613,0.964882
263.5,19.7554,7.68155,0.0606421,0.964512
264,19.7691,7.68752,0.0598199,0.964132
264.5,19.7828,7.69492,0.059892,0.963751
265,19.7966,7.69102,0.05988,0.963372
265.5,19.8103,7.70188,0.05988,0.962992
266,19.8239,7.7023,0.05988,0.962612
266.5,19.8376,7.71176,0.0598702,0.962232
267,19.8513,7.71155,0.0594649,0.961851
267.5,19.865,7.71633,0.0585351,0.961471
268,19.8787,7.72696,0.0585518,0.961092
268.5,19.8924,7.72235,0.0585277,0.960702
269,19.9061,7.7284,0.0598482,0.960321
269.5,19.9198,7.7381,0.0598804,0.959942
270,19.9335,7.74486,0.05988,0.959552
270.5,19.9472,7.74435,0.0598748,0.959171
271,19.9608,7.74186,0.0586993,0.958782
271.5,19.9745,7.74979,0.0583253,0.958401
272,19.9881,7.75449,0.0568342,0.958012
272.5,20.0018,7.76177,0.0563663,0.957632
273,20.0155,7.76419,0.0545148,0.957241
273.5,20.0291,7.76943,0.0545385,0.956851
274,20.0429,7.77028,0.0534236,0.956462
274.5,20.0566,7.77673,0.0532999,0.956082
275,20.0702,7.77858,0.0533,0.955691
275.5,20.0839,7.77697,0.0533,0.955301
276,20.0975,7.78335,0.0533,0.954911
276.5,20.1111,7.79091,0.0532903,0.954521
277,20.1247,7.78761,0.0528846,0.954131
277.5,20.1383,7.79401,0.0519548,0.953742
278,20.152,7.78881,0.0519719,0.953342
278.5,20.1656,7.79239,0.0514533,0.952951
279,20.1793,7.79587,0.0506442,0.952561
279.5,20.193,7.79701,0.05066,0.952172
280,20.2066,7.79696,0.05066,0.951771
280.5,20.2202,7.80039,0.05066,0.951381
281,20.2338,7.80163,0.0506599,0.950982
281.5,20.2474,7.80465,0.0506829,0.950591
282,20.261,7.81032,0.051397,0.950191
282.5,20.2747,7.80959,0.0516552,0.949801
283,20.2883,7.8102,0.0516502,0.949401
283.5,20.3019,7.80354,0.0516499,0.949012
284,20.3155,7.81183,0.0516416,0.948611
284.5,20.3292,7.81276,0.0515852,0.948211
285,20.3428,7.81313,0.0506433,0.947811
285.5,20.3564,7.81053,0.0506705,0.947411
286,20.3701,7.8061,0.05067,0.947022
286.5,20.3837,7.81644,0.05067,0.946621
287,20.3973,7.81112,0.05067,0.946221
287.5,20.4109,7.81562,0.05067,0.945821
288,20.4245,7.814,0.0506602,0.945421
288.5,20.4381,7.82187,0.0502633,0.945011
289,20.4517,7.82707,0.0491077,0.944611
289.5,20.4654,7.8233,0.0491417,0.944211
290,20.479,7.82119,0.0479108,0.943811
290.5,20.4927,7.81785,0.0464405,0.943411
291,20.5063,7.82231,0.0464002,0.943001
291.5,20.5199,7.81745,0.0463995,0.942601
292,20.5336,7.81495,0.0463804,0.9422
292.5,20.5472,7.81587,0.0457441,0.941791
293,20.5607,7.81575,0.04574,0.941391
293.5,20.5744,7.8169,0.04574,0.940981
294,20.588,7.8096,0.045753,0.94058
294.5,20.6015,7.80935,0.0453119,0.940171
295,20.6151,7.81043,0.0450803,0.939761
295.5,20.6287,7.79976,0.0450296,0.93936
296,20.6423,7.79917,0.0439315,0.938951
296.5,20.6558,7.80493,0.0437814,0.938541
297,20.6695,7.79567,0.0447568,0.938131
297.5,20.6831,7.78849,0.0450945,0.93773
298,20.6967,7.79668,0.045062,0.93732
298.5,20.7104,7.78878,0.045156,0.936911
299,20.724,7.77621,0.0442547,0.936501
299.5,20.7375,7.78116,0.042613,0.936091
300,20.7511,7.77755,0.0424685,0.935681
300.5,20.7647,7.76967,0.0424928,0.93527
301,20.7783,7.77425,0.0406812,0.93486
301.5,20.792,7.76837,0.0392226,0.934441
302,20.8056,7.75896,0.0378156,0.934031
302.5,20.8192,7.75642,0.0367302,0.933621
303,20.8327,7.75392,0.036073,0.933211
303.5,20.8463,7.74564,0.0360868,0.9328
304,20.8598,7.74839,0.0348525,0.932381
304.5,20.8734,7.73487,0.0348507,0.931971
305,20.887,7.73319,0.0339043,0.931551
305.5,20.9005,7.7322,0.033867,0.931142
306,20.914,7.72195,0.03388,0.93073
306.5,20.9276,7.71879,0.0338776,0.930312
307,20.941,7.70474,0.0342962,0.929891
307.5,20.9545,7.68934,0.0353379,0.929482
308,20.9681,7.69447,0.03547,0.929061
308.5,20.9818,7.67667,0.0370073,0.92865
309,20.9955,7.6645,0.0375831,0.928232
309.5,21.0092,7.66627,0.0376099,0.927811
310,21.023,7.65471,0.03761,0.927391
310.5,21.0365,7.65007,0.037621,0.92698
311,21.0501,7.64254,0.0369029,0.926562
311.5,21.0637,7.62964,0.0360407,0.926142
312,21.0773,7.62987,0.0357783,0.925721
312.5,21.0908,7.61709,0.0344865,0.925301
313,21.1045,7.5971,0.0345919,0.924881
313.5,21.1181,7.60131,0.0327267,0.924461
314,21.1318,7.58189,0.0318502,0.924041
314.5,21.1454,7.57248,0.031912,0.923621
315,21.159,7.56454,0.0319281,0.923201
315.5,21.1725,7.55812,0.0309815,0.922782
316,21.1861,7.53545,0.0310055,0.922361
316.5,21.1997,7.53218,0.0320052,0.92194
317,21.2132,7.52322,0.031904,0.92152
317.5,21.2268,7.50189,0.0307888,0.921091
318,21.2404,7.49461,0.0303821,0.920672
318.5,21.254,7.48467,0.03038,0.92025
319,21.2677,7.47179,0.0303799,0.919821
319.5,21.2812,7.4487,0.0303946,0.919402
320,21.2948,7.44753,0.0295344,0.91898
320.5,21.3084,7.43134,0.0290527,0.918551
321,21.322,7.42794,0.0290333,0.91813
321.5,21.3356,7.41271,0.0263998,0.917701
322,21.3491,7.4009,0.0260115,0.91728
322.5,21.3627,7.38939,0.0242611,0.916851
323,21.3763,7.37368,0.0236742,0.91643
323.5,21.3898,7.37117,0.0227705,0.916
324,21.4034,7.3476,0.0228001,0.915571
324.5,21.417,7.35021,0.0228,0.91515
325,21.4306,7.33926,0.0227901,0.91472
325.5,21.4442,7.33058,0.0226432,0.914291
326,21.4578,7.32531,0.0215486,0.913871
326.5,21.4714,7.31499,0.0214894,0.91344
327,21.485,7.30812,0.0215092,0.91301
327.5,21.4986,7.30154,0.0205623,0.912581
328,21.5122,7.30106,0.0198476,0.912151
328.5,21.5259,7.28921,0.0204509,0.911721
329,21.5395,7.27907,0.019965,0.911291
329.5,21.5532,7.28602,0.0199576,0.910871
330,21.5668,7.27332,0.0206268,0.910441
330.5,21.5804,7.27372,0.021267,0.910011
331,21.594,7.27402,0.0212707,0.909581
331.5,21.6076,7.26132,0.0208486,0.909151
332,21.6212,7.26179,0.0197273,0.908711
332.5,21.6348,7.2488,0.0192581,0.908281
333,21.6485,7.25073,0.018082,0.907851
333.5,21.6621,7.24101,0.0169581,0.90742
334,21.6757,7.23326,0.0163726,0.90699
334.5,21.6894,7.22823,0.0157477,0.906561
335,21.703,7.22093,0.015,0.906131
335.5,21.7166,7.21217,0.0149992,0.905691
336,21.7302,7.19961,0.0157331,0.90526
336.5,21.7438,7.18984,0.0160014,0.904831
337,21.7575,7.17625,0.01601,0.904391
337.5,21.7711,7.1625,0.0160002,0.90396
338,21.7847,7.14504,0.0156043,0.903531
338.5,21.7984,7.13921,0.0145457,0.903091
339,21.812,7.12342,0.0145799,0.90266
339.5,21.8256,7.11342,0.01458,0.902221
340,21.8393,7.10223,0.01458,0.90179
340.5,21.8529,7.07771,0.01458,0.901351
341,21.8665,7.07032,0.0145808,0.90092
341.5,21.8802,7.0537,0.0142321,0.900481
342,21.8939,7.03506,0.0130346,0.90005
342.5,21.9076,7.0188,0.0130512,0.899611
343,21.9212,7.00115,0.0131601,0.899181
343.5,21.9349,6.97529,0.0143651,0.89874
344,21.9486,6.96057,0.0143513,0.898301
344.5,21.9622,6.94852,0.0138306,0.89787
345,21.9759,6.92243,0.0130297,0.89743
345.5,21.9896,6.8985,0.0130829,0.896991
346,22.0033,6.88581,0.011885,0.896561
346.5,22.017,6.86105,0.0114141,0.89612
347,22.0306,6.83886,0.0100358,0.89568
347.5,22.0443,6.81875,0.00891032,0.895241
348,22.0579,6.80248,0.00776838,0.894811
348.5,22.0716,6.77489,0.00574169,0.89437
349,22.0853,6.75636,0.00380203,0.89393
349.5,22.099,6.7244,0.0023646,0.89349
350,22.1126,6.69744,0.00114692,0.89305
350.5,22.1263,6.67029,-0.000534961,0.89261
351,22.14,6.65154,-0.000545552,0.892171
351.5,22.1537,6.62468,-0.00156467,0.891731
352,22.1674,6.59925,-0.00186867,0.891291
352.5,22.181,6.56608,-0.00186942,0.890851
353,22.1947,6.54283,-0.00178802,0.890411
353.5,22.2085,6.50067,-0.000505278,0.889971
354,22.2222,6.48225,-0.00055004,0.889531
354.5,22.2359,6.4407,-0.000623543,0.889091
355,22.2496,6.41361,-0.0018491,0.88865
355.5,22.2633,6.37382,-0.00318352,0.88821
356,22.2771,6.35029,-0.00329144,0.88777
356.5,22.2908,6.30768,-0.00365527,0.88733
357,22.3045,6.2836,-0.00476526,0.88689
357.5,22.3182,6.2608,-0.00472006,0.88645
358,22.3319,6.22022,-0.00471705,0.886011
358.5,22.3456,6.18813,-0.0056417,0.88556
359,22.3593,6.15819,-0.00746847,0.88512
359.5,22.373,6.13488,-0.00764592,0.88468
360,22.3867,6.09753,-0.00859265,0.88424
360.5,22.4004,6.06396,-0.00884426,0.883791
361,22.4142,6.0226,-0.00996203,0.88335
361.5,22.4279,5.99264,-0.0111139,0.88291
362,22.4416,5.96497,-0.011128,0.882471
362.5,22.4553,5.93148,-0.0123669,0.88202
363,22.4691,5.8801,-0.0117902,0.88158
363.5,22.4828,5.84693,-0.0111493,0.881141
364,22.4966,5.82041,-0.0111922,0.88069
364.5,22.5104,5.77996,-0.0114928,0.88025
365,22.5242,5.73332,-0.0125454,0.879801
365.5,22.5379,5.69704,-0.0125193,0.87936
366,22.5517,5.66628,-0.012709,0.87892
366.5,22.5654,5.63381,-0.0140079,0.87847
367,22.5791,5.59455,-0.0140668,0.87803
367.5,22.5929,5.55358,-0.0143197,0.87758
368,22.6067,5.51669,-0.014264,0.87714
368.5,22.6204,5.48453,-0.0145739,0.876691
369,22.6342,5.4472,-0.0157885,0.87625
369.5,22.648,5.40847,-0.0158023,0.875801
370,22.6617,5.37029,-0.0169906,0.87536
370.5,22.6755,5.33027,-0.0172526,0.87491
371,22.6893,5.29643,-0.0188488,0.87447
371.5,22.7031,5.25671,-0.0198694,0.87402
372,22.7169,5.2207,-0.0213095,0.87358
372.5,22.7306,5.17619,-0.0216683,0.87313
373,22.7444,5.14978,-0.022717,0.872691
373.5,22.7582,5.11783,-0.0244154,0.87224
374,22.772,5.08936,-0.0255685,0.87179
374.5,22.7858,5.04602,-0.0284209,0.87135
375,22.7996,5.02202,-0.0321622,0.8709
375.5,22.8135,4.99113,-0.0340462,0.870451
376,22.8273,4.95673,-0.0354321,0.87001
376.5,22.8411,4.9244,-0.0377281,0.86956
377,22.8549,4.88886,-0.0378316,0.869111
377.5,22.8687,4.85259,-0.0378399,0.86867
378,22.8825,4.82091,-0.03784,0.86822
378.5,22.8964,4.78876,-0.037841,0.86777
379,22.9102,4.76961,-0.0379501,0.86733
379.5,22.924,4.73642,-0.0391236,0.86688
380,22.9378,4.70361,-0.0405447,0.86643
380.5,22.9517,4.67956,-0.0412793,0.865991
381,22.9655,4.64717,-0.0427848,0.86554
381.5,22.9793,4.6285,-0.0446574,0.86509
382,22.9931,4.60187,-0.0451006,0.86464
382.5,23.0069,4.57457,-0.0450719,0.864191
383,23.0207,4.55759,-0.0452659,0.86375
383.5,23.0346,4.53881,-0.0469369,0.8633
384,23.0484,4.52772,-0.0496988,0.86285
384.5,23.0623,4.5,-0.0514741,0.8624
385,23.0763,4.49897,-0.0531881,0.861961
385.5,23.0901,4.48073,-0.054983,0.86151
386,23.104,4.4744,-0.0567893,0.86106
386.5,23.1179,4.45587,-0.0591833,0.86061
387,23.1318,4.46534,-0.0623231,0.86016
387.5,23.1457,4.44397,-0.0630919,0.85971
388,23.1595,4.44117,-0.064396,0.859271
388.5,23.1734,4.43812,-0.0657125,0.85882
389,23.1873,4.4434,-0.0662741,0.85837
389.5,23.2012,4.44109,-0.0682906,0.85792
390,23.2151,4.45817,-0.0692934,0.85747
390.5,23.229,4.46947,-0.0706902,0.85702
391,23.2428,4.47695,-0.0729015,0.85657
391.5,23.2567,4.50905,-0.07631,0.85612
392,23.2706,4.51902,-0.0794138,0.85568
392.5,23.2844,4.55063,-0.0826884,0.85523
393,23.2983,4.58026,-0.0845308,0.85478
393.5,23.3122,4.6006,-0.0864247,0.85433
394,23.3261,4.62793,-0.0885815,0.85388
394.5,23.34,4.66152,-0.090821,0.85343
395,23.3539,4.69611,-0.0935168,0.85298
395.5,23.3678,4.74936,-0.0956611,0.85253
396,23.3817,4.79382,-0.0978336,0.85208
396.5,23.3956,4.84005,-0.0996679,0.85163
397,23.4096,4.8945,-0.101513,0.85118
397.5,23.4236,4.95213,-0.104008,0.85073
398,23.4376,5.01684,-0.106495,0.85028
398.5,23.4516,5.07833,-0.110149,0.84984
399,23.4656,5.16662,-0.113557,0.84939
399.5,23.4796,5.22545,-0.117242,0.84894
400,23.4935,5.30355,-0.121045,0.84849
400.5,23.5075,5.38999,-0.125499,0.84804
401,23.5215,5.47892,-0.129316,0.84759
401.5,23.5355,5.56581,-0.132917,0.84714
402,23.5495,5.66685,-0.13621,0.84669
402.5,23.5635,5.76679,-0.138988,0.84624
403,23.5775,5.87449,-0.141975,0.84579
403.5,23.5916,5.97798,-0.14508,0.84534
404,23.6057,6.10476,-0.148819,0.84489
404.5,23.6198,6.22859,-0.153178,0.84444
405,23.6339,6.34809,-0.157707,0.84399
405.5,23.648,6.48041,-0.16214,0.84354
406,23.6621,6.61484,-0.166103,0.84309
406.5,23.6762,6.74933,-0.169657,0.84264
407,23.6902,6.89087,-0.172477,0.84219
407.5,23.7043,7.04362,-0.175028,0.84174
408,23.7183,7.1929,-0.179075,0.84129
408.5,23.7323,7.3633,-0.183145,0.84084
409,23.7464,7.5241,-0.186599,0.84039
409.5,23.7605,7.70324,-0.19191,0.83994
410,23.7746,7.87821,-0.196817,0.83949
410.5,23.7887,8.06241,-0.202976,0.83904
411,23.8028,8.23928,-0.20834,0.83859
411.5,23.8169,8.44295,-0.213931,0.83815
412,23.8311,8.64489,-0.219248,0.8377
412.5,23.8451,8.8371,-0.224257,0.83725
413,23.8593,9.04712,-0.230128,0.8368
413.5,23.8734,9.27009,-0.235458,0.83635
414,23.8875,9.48796,-0.241995,0.8359
414.5,23.9015,9.70304,-0.249166,0.83545
415,23.9157,9.94446,-0.25617,0.835
415.5,23.9298,10.1717,-0.264376,0.83455
416,23.9439,10.411,-0.271901,0.8341
416.5,23.958,10.6569,-0.279693,0.83365
417,23.9722,10.9123,-0.287651,0.8332
417.5,23.9864,11.1689,-0.295471,0.83275
418,24.0006,11.4295,-0.303579,0.8323
418.5,24.0147,11.6916,-0.311121,0.83185
419,24.0288,11.9709,-0.319004,0.8314
419.5,24.0429,12.249,-0.327493,0.83095
420,24.057,12.5285,-0.335272,0.8305
420.5,24.0711,12.8109,-0.343093,0.83006
421,24.0853,13.1105,-0.350782,0.82961
421.5,24.0995,13.4042,-0.358155,0.82916
422,24.1138,13.6937,-0.365864,0.82871
422.5,24.1281,13.9978,-0.375344,0.82826
423,24.1423,14.3293,-0.384126,0.82781
423.5,24.1566,14.646,-0.393839,0.82736
424,24.1709,14.965,-0.403852,0.82691
424.5,24.1852,15.2838,-0.414526,0.82646
425,24.1995,15.6192,-0.425589,0.826021
425.5,24.2138,15.9661,-0.436433,0.82557
426,24.2281,16.3158,-0.446631,0.82512
426.5,24.2424,16.6779,-0.458638,0.82467
427,24.2569,17.0311,-0.472307,0.82422
427.5,24.2713,17.3996,-0.486605,0.82377
428,24.2857,17.7465,-0.499363,0.82332
428.5,24.3,18.1338,-0.510047,0.82288
429,24.3144,18.5058,-0.519946,0.82243
429.5,24.3286,18.8843,-0.530743,0.82198
430,24.3429,19.2767,-0.545397,0.82153
430.5,24.3572,19.6486,-0.561958,0.82108
431,24.3716,20.0449,-0.578659,0.820631
431.5,24.3859,20.4467,-0.595541,0.82019
432,24.4004,20.8536,-0.610325,0.81974
432.5,24.4148,21.2751,-0.624554,0.81929
433,24.4292,21.689,-0.640528,0.81884
433.5,24.4437,22.1013,-0.656937,0.8184
434,24.4581,22.5195,-0.673332,0.81795
434.5,24.4725,22.9351,-0.68955,0.8175
435,24.4869,23.382,-0.705921,0.81705
435.5,24.5014,23.8125,-0.72337,0.81661
436,24.5158,24.2382,-0.742549,0.81616
436.5,24.5302,24.6845,-0.764407,0.81571
437,24.5446,25.1076,-0.78631,0.815261
437.5,24.5591,25.5567,-0.810042,0.81482
438,24.5736,25.9947,-0.832692,0.81437
438.5,24.588,26.4424,-0.853942,0.81392
439,24.6025,26.8879,-0.874695,0.81348
439.5,24.6169,27.345,-0.894418,0.81303
440,24.6313,27.791,-0.91597,0.812581
440.5,24.6457,28.2207,-0.938531,0.81214
441,24.6601,28.6688,-0.961712,0.81169
441.5,24.6746,29.0992,-0.985099,0.811251
442,24.6892,29.5357,-1.00964,0.8108
442.5,24.7039,29.9568,-1.03589,0.81035
443,24.7186,30.3766,-1.06228,0.80991
443.5,24.7333,30.7899,-1.08871,0.80946
444,24.7479,31.184,-1.11471,0.809021
444.5,24.7624,31.5622,-1.14135,0.80857
445,24.7769,31.9501,-1.16885,0.808121
445.5,24.7914,32.3315,-1.19616,0.80768
446,24.806,32.6986,-1.22303,0.807231
446.5,24.8206,33.0514,-1.24953,0.80679
447,24.8352,33.3999,-1.27909,0.806341
447.5,24.8498,33.7452,-1.30947,0.8059
448,24.8644,34.0445,-1.3403,0.805451
448.5,24.879,34.3494,-1.37093,0.80501
449,24.8935,34.6123,-1.40166,0.804571
449.5,24.9081,34.8797,-1.43327,0.80412
450,24.9227,35.1194,-1.46739,0.80368
450.5,24.9373,35.3411,-1.50064,0.80323
451,24.9519,35.5376,-1.53383,0.80279
451.5,24.9665,35.7402,-1.56658,0.802341
452,24.9812,35.9139,-1.59863,0.8019
452.5,24.9957,36.0628,-1.63093,0.80146
453,25.0103,36.2024,-1.66462,0.80101
453.5,25.0249,36.3193,-1.69932,0.80057
454,25.0395,36.3877,-1.73491,0.80013
454.5,25.054,36.4315,-1.76357,0.79968
455,25.0686,36.4727,-1.80153,0.79924
455.5,25.0832,36.4674,-1.84078,0.7988
456,25.0978,36.4607,-1.88734,0.798351
456.5,25.1124,36.4224,-1.92883,0.79791
457,25.127,36.3663,-1.96501,0.79747
457.5,25.1415,36.2826,-1.99282,0.79703
458,25.1561,36.1789,-2.0229,0.796591
458.5,25.1706,36.0592,-2.05319,0.79614
459,25.1852,35.8905,-2.08781,0.7957
459.5,25.1998,35.7277,-2.12137,0.79526
460,25.2144,35.5477,-2.15564,0.79482
460.5,25.229,35.3402,-2.19075,0.794381
461,25.2436,35.1231,-2.22563,0.793941
461.5,25.2582,34.8731,-2.26066,0.793491
462,25.2728,34.5985,-2.29422,0.79305
462.5,25.2874,34.3029,-2.32588,0.79261
463,25.302,33.9989,-2.3564,0.79217
463.5,25.3166,33.648,-2.38661,0.79173
464,25.3311,33.3226,-2.41742,0.79129
464.5,25.3457,32.9483,-2.44949,0.79085
465,25.3603,32.5321,-2.4817,0.79041
465.5,25.3748,32.0935,-2.514,0.78997
466,25.3894,31.6117,-2.54571,0.78953
466.5,25.4039,31.1596,-2.57645,0.78909
467,25.4184,30.6037,-2.60709,0.78865
467.5,25.433,29.9793,-2.63779,0.78821
468,25.4475,29.4644,-2.66851,0.787771
468.5,25.462,28.9652,-2.69961,0.787331
469,25.4766,28.4772,-2.73029,0.786901
469.5,25.4911,27.8346,-2.76011,0.78646
470,25.5056,27.1666,-2.78821,0.78602
470.5,25.5201,26.5328,-2.81668,0.78558
471,25.5347,25.9227,-2.84464,0.785141
471.5,25.5492,25.3179,-2.87223,0.784711
472,25.5638,24.7134,-2.89929,0.78427
472.5,25.5783,24.1175,-2.92599,0.78383
473,25.5928,23.577,-2.9523,0.783391
473.5,25.6073,23.059,-2.97756,0.782961
474,25.6218,22.4758,-3.00218,0.78252
474.5,25.6363,21.9215,-3.02504,0.78208
475,25.6509,21.3694,-3.04776,0.781651
475.5,25.6655,20.8002,-3.0705,0.78121
476,25.68,20.2578,-3.09288,0.780771
476.5,25.6945,19.7217,-3.11514,0.780341
477,25.709,19.2001,-3.13708,0.7799
477.5,25.7235,18.681,-3.15849,0.779471
478,25.738,18.1804,-3.17977,0.77903
478.5,25.7526,17.6787,-3.20085,0.778591
479,25.7671,17.1895,-3.22173,0.77816
479.5,25.7816,16.709,-3.2414,0.777721
480,25.7961,16.2466,-3.25999,0.77729
480.5,25.8107,15.763,-3.27798,0.776861
481,25.8252,15.3027,-3.29616,0.77642
481.5,25.8398,14.8698,-3.31353,0.775991
482,25.8544,14.4301,-3.32993,0.775551
482.5,25.8689,14.0003,-3.34608,0.77512
483,25.8834,13.5781,-3.36213,0.774691
483.5,25.898,13.1689,-3.37799,0.774251
484,25.9126,12.7625,-3.39286,0.77382
484.5,25.9271,12.3673,-3.40673,0.773391
485,25.9418,11.9848,-3.41985,0.772951
485.5,25.9564,11.6188,-3.43264,0.772521
486,25.9709,11.2746,-3.44613,0.77209
486.5,25.9855,10.9161,-3.45928,0.77166
487,26.0001,10.5806,-3.47196,0.771231
487.5,26.0147,10.2536,-3.48446,0.770791
488,26.0293,9.93075,-3.4968,0.770361
488.5,26.044,9.63184,-3.50921,0.769931
489,26.0586,9.33313,-3.52138,0.769501
489.5,26.0732,9.05268,-3.53319,0.76907
490,26.0879,8.78168,-3.54454,0.76864
490.5,26.1025,8.53977,-3.55486,0.76821
491,26.1172,8.27522,-3.56366,0.76778
491.5,26.1318,8.03309,-3.57231,0.76735
492,26.1465,7.8202,-3.58087,0.76692
492.5,26.1612,7.59943,-3.58942,0.766491
493,26.1759,7.38328,-3.59787,0.766061
493.5,26.1906,7.17927,-3.60591,0.765631
494,26.2053,6.98991,-3.6133,0.765201
494.5,26.22,6.81282,-3.62008,0.764781
495,26.2347,6.6304,-3.62605,0.76435
495.5,26.2494,6.47292,-3.63208,0.76392
496,26.2642,6.32756,-3.6373,0.763491
496.5,26.2789,6.17188,-3.64357,0.763061
497,26.2937,6.00955,-3.64954,0.76264
497.5,26.3085,5.88171,-3.65578,0.76221
498,26.3232,5.75969,-3.66257,0.761781
498.5,26.338,5.63412,-3.66988,0.76136
499,26.3528,5.50131,-3.67655,0.760931
499.5,26.3676,5.39354,-3.68191,0.760501
500,26.3825,5.27553,-3.68696,0.76008
500.5,26.3973,5.17035,-3.69198,0.759651
501,26.4121,5.07541,-3.69746,0.75923
501.5,26.427,4.97442,-3.70289,0.758801
502,26.4417,4.87458,-3.70795,0.75838
502.5,26.4565,4.77295,-3.71266,0.757951
503,26.4714,4.68846,-3.71614,0.75753
503.5,26.4862,4.59308,-3.72052,0.757101
504,26.501,4.51221,-3.72383,0.756681
504.5,26.5159,4.42167,-3.72675,0.75626
505,26.5307,4.33416,-3.72934,0.755831
505.5,26.5455,4.25501,-3.73265,0.755412
506,26.5603,4.17701,-3.73598,0.75499
506.5,26.5752,4.09819,-3.73978,0.754561
507,26.59,4.02999,-3.74347,0.754141
507.5,26.6048,3.93961,-3.74649,0.753722
508,26.6197,3.86515,-3.7489,0.753301
508.5,26.6345,3.80886,-3.75094,0.75288
509,26.6494,3.7325,-3.75336,0.75246
509.5,26.6644,3.67015,-3.75563,0.752031
510,26.6794,3.59145,-3.75862,0.751611
510.5,26.6943,3.53503,-3.76127,0.751191
511,26.7092,3.46841,-3.76392,0.750771
511.5,26.7241,3.41533,-3.7659,0.750351
512,26.7391,3.36362,-3.76781,0.749931
512.5,26.7539,3.31188,-3.76904,0.749511
513,26.7689,3.25652,-3.77047,0.749091
513.5,26.7838,3.18909,-3.77169,0.748671
514,26.7988,3.13993,-3.7707,0.74826
514.5,26.8137,3.08878,-3.77013,0.74784
515,26.8287,3.04531,-3.77004,0.747422
515.5,26.8437,2.99868,-3.76999,0.747002
516,26.8587,2.96562,-3.77092,0.746581
516.5,26.8737,2.92221,-3.7721,0.74617
517,26.8886,2.8821,-3.77344,0.745752
517.5,26.9035,2.84415,-3.77438,0.745331
518,26.9185,2.81003,-3.77572,0.74492
518.5,26.9335,2.77505,-3.77738,0.744502
519,26.9485,2.7659,-3.77893,0.744081
519.5,26.9635,2.73488,-3.78015,0.74367
520,26.9784,2.70473,-3.78152,0.743251
520.5,26.9934,2.68256,-3.78342,0.74284
521,27.0084,2.65697,-3.78508,0.742421
521.5,27.0234,2.64185,-3.78549,0.74201
522,27.0384,2.63289,-3.78597,0.741591
522.5,27.0534,2.61544,-3.78697,0.741181
523,27.0683,2.58843,-3.78972,0.74077
523.5,27.0833,2.58444,-3.79119,0.740351
524,27.0983,2.56208,-3.79295,0.739941
524.5,27.1132,2.55018,-3.79527,0.73953
525,27.1282,2.54496,-3.79526,0.739111
525.5,27.1432,2.52793,-3.79416,0.738701
526,27.1583,2.51827,-3.79384,0.738291
526.5,27.1733,2.51373,-3.79383,0.73788
527,27.1884,2.5106,-3.79383,0.73747
527.5,27.2034,2.50276,-3.79384,0.737051
528,27.2185,2.48988,-3.79365,0.736641
528.5,27.2336,2.47892,-3.79345,0.736231
529,27.2486,2.48761,-3.79351,0.735821
529.5,27.2636,2.46414,-3.7935,0.735411
530,27.2787,2.47675,-3.79328,0.735001
530.5,27.2937,2.47659,-3.79196,0.734591
531,27.3088,2.47253,-3.79141,0.734181
531.5,27.3239,2.45605,-3.79041,0.73378
532,27.3389,2.448,-3.79043,0.733371
532.5,27.354,2.45329,-3.79047,0.732961
533,27.3691,2.45474,-3.79204,0.732551
533.5,27.3842,2.4625,-3.79197,0.732141
534,27.3993,2.45609,-3.79197,0.73174
534.5,27.4144,2.44991,-3.79197,0.731331
535,27.4295,2.46181,-3.79197,0.730921
535.5,27.4446,2.45422,-3.79197,0.73052
536,27.4597,2.45753,-3.79196,0.730111
536.5,27.4748,2.4623,-3.79302,0.729701
537,27.4899,2.46347,-3.79297,0.729301
537.5,27.505,2.46063,-3.79298,0.728891
538,27.5202,2.47171,-3.79184,0.728491
538.5,27.5353,2.46826,-3.79143,0.728081
539,27.5505,2.47033,-3.79142,0.727681
539.5,27.5656,2.48296,-3.79138,0.72728
540,27.5807,2.48601,-3.7932,0.726871
540.5,27.5958,2.50008,-3.79463,0.726471
541,27.611,2.49558,-3.79569,0.72607
541.5,27.6261,2.5117,-3.79686,0.725661
542,27.6413,2.50493,-3.79766,0.725261
542.5,27.6564,2.49377,-3.79816,0.724861
543,27.6716,2.48965,-3.79656,0.724461
543.5,27.6867,2.49682,-3.79514,0.72406
544,27.7018,2.51023,-3.79449,0.723651
544.5,27.717,2.49711,-3.79448,0.723251
545,27.7322,2.50573,-3.79446,0.722851
545.5,27.7474,2.52265,-3.79675,0.722451
546,27.7626,2.51716,-3.79799,0.722051
546.5,27.7778,2.52411,-3.79878,0.721651
547,27.793,2.51837,-3.80029,0.721251
547.5,27.8082,2.52569,-3.8003,0.720861
548,27.8234,2.52629,-3.8003,0.720461
548.5,27.8386,2.52568,-3.8003,0.720061
549,27.8538,2.52159,-3.80028,0.719661
549.5,27.869,2.52232,-3.79868,0.719261
550,27.8842,2.51404,-3.79841,0.718871
550.5,27.8994,2.52124,-3.79721,0.718471
551,27.9146,2.51377,-3.79639,0.718071
551.5,27.9298,2.52409,-3.79569,0.717681
552,27.9449,2.51834,-3.79523,0.717281
552.5,27.9602,2.52644,-3.79426,0.716882
553,27.9755,2.52637,-3.79344,0.716491
553.5,27.9907,2.52417,-3.79438,0.716092
554,28.0059,2.54024,-3.79453,0.715701
554.5,28.0211,2.52778,-3.7943,0.715312
555,28.0363,2.543,-3.79427,0.714911
555.5,28.0516,2.55552,-3.79425,0.714521
556,28.0668,2.55933,-3.79527,0.714122
556.5,28.082,2.55012,-3.79573,0.713731
557,28.0973,2.5584,-3.79712,0.713341
557.5,28.1125,2.55742,-3.79745,0.712951
558,28.1277,2.54683,-3.79853,0.712552
558.5,28.143,2.55316,-3.79833,0.712162
559,28.1583,2.5417,-3.79697,0.711771
559.5,28.1736,2.54347,-3.79668,0.711381
560,28.189,2.54037,-3.79559,0.710991
560.5,28.2042,2.55089,-3.79593,0.710601
561,28.2196,2.54365,-3.79481,0.710211
561.5,28.2349,2.55053,-3.79483,0.709821
562,28.2502,2.54226,-3.79494,0.709431
562.5,28.2655,2.54604,-3.7955,0.709042
563,28.2809,2.53459,-3.79548,0.708652
563.5,28.2962,2.53191,-3.79547,0.708272
564,28.3115,2.53008,-3.79546,0.707881
564.5,28.3269,2.5269,-3.79523,0.707491
565,28.3423,2.52721,-3.79247,0.707102
565.5,28.3576,2.52441,-3.79178,0.706722
566,28.373,2.51766,-3.79082,0.706331
566.5,28.3883,2.52928,-3.7895,0.705942
567,28.4036,2.52733,-3.78965,0.705561
567.5,28.4189,2.529,-3.78847,0.705172
568,28.4342,2.53382,-3.78823,0.704792
568.5,28.4495,2.53212,-3.78882,0.704402
569,28.4649,2.53233,-3.79013,0.704021
569.5,28.4803,2.53342,-3.79103,0.703632
570,28.4957,2.5342,-3.79109,0.703251
570.5,28.5111,2.53419,-3.79129,0.702872
571,28.5265,2.53787,-3.7913,0.702492
571.5,28.5419,2.54078,-3.79115,0.702102
572,28.5573,2.54127,-3.79097,0.701721
572.5,28.5726,2.53612,-3.79104,0.701342
573,28.588,2.53939,-3.79029,0.700962
573.5,28.6034,2.54367,-3.79033,0.700582
574,28.6188,2.5482,-3.79032,0.700192
574.5,28.6342,2.54373,-3.79037,0.699812
575,28.6496,2.54886,-3.79133,0.699432
575.5,28.6649,2.57065,-3.79132,0.699052
576,28.6803,2.57038,-3.79271,0.698672
576.5,28.6957,2.55322,-3.79427,0.698302
577,28.7111,2.56137,-3.79428,0.697922
577.5,28.7266,2.56288,-3.79427,0.697542
578,28.7422,2.55855,-3.79541,0.697162
578.5,28.7576,2.56291,-3.79558,0.696782
579,28.773,2.55714,-3.79558,0.696412
579.5,28.7884,2.57812,-3.7957,0.696032
580,28.8039,2.57368,-3.79695,0.695652
580.5,28.8193,2.57328,-3.79688,0.695282
581,28.8347,2.58493,-3.79698,0.694902
581.5,28.8502,2.5698,-3.79569,0.694532
582,28.8657,2.58632,-3.79504,0.694152
582.5,28.8812,2.59949,-3.79427,0.693782
583,28.8966,2.60291,-3.79425,0.693402
583.5,28.9121,2.59619,-3.79376,0.693032
584,28.9276,2.58979,-3.79296,0.692652
584.5,28.943,2.58372,-3.79295,0.692282
585,28.9584,2.5835,-3.79295,0.691912
585.5,28.9739,2.60485,-3.79294,0.691532
586,28.9894,2.60425,-3.79177,0.691162
586.5,29.0049,2.60885,-3.79163,0.690792
587,29.0204,2.60788,-3.79163,0.690423
587.5,29.0359,2.60168,-3.79164,0.690052
588,29.0515,2.60661,-3.79081,0.689682
588.5,29.0669,2.62089,-3.79031,0.689312
589,29.0824,2.62067,-3.79032,0.688942
589.5,29.0979,2.61508,-3.79082,0.688572
590,29.1134,2.61445,-3.79287,0.688203
590.5,29.1289,2.61107,-3.7951,0.687833
591,29.1443,2.61776,-3.79583,0.687462
591.5,29.1599,2.62697,-3.79391,0.687092
592,29.1754,2.61868,-3.78917,0.686731
592.5,29.1909,2.63524,-3.78589,0.686363
593,29.2064,2.62669,-3.78493,0.685992
593.5,29.2219,2.64097,-3.78596,0.685631
594,29.2374,2.63932,-3.78599,0.685263
594.5,29.2529,2.6325,-3.78785,0.684892
595,29.2685,2.64091,-3.79132,0.684531
595.5,29.2839,2.64601,-3.79303,0.684162
596,29.2995,2.66209,-3.79422,0.683802
596.5,29.315,2.65931,-3.79572,0.683432
597,29.3304,2.66081,-3.79569,0.683073
597.5,29.3459,2.65862,-3.79569,0.682711
598,29.3614,2.65668,-3.7948,0.682342
598.5,29.3768,2.67247,-3.79372,0.681982
599,29.3923,2.66342,-3.79303,0.681622
599.5,29.4078,2.66204,-3.79299,0.681261
600,29.4233,2.66326,-3.79321,0.680892
600.5,29.4389,2.66874,-3.79329,0.680532
601,29.4544,2.67007,-3.79328,0.680172
601.5,29.47,2.66986,-3.79328,0.679812
602,29.4855,2.67123,-3.79327,0.679452
602.5,29.5011,2.67934,-3.79359,0.679092
603,29.5166,2.69419,-3.79463,0.678732
603.5,29.5321,2.68242,-3.79459,0.678372
604,29.5477,2.69892,-3.79459,0.678012
604.5,29.5633,2.71235,-3.79594,0.677661
605,29.5789,2.71726,-3.79698,0.677302
605.5,29.5945,2.71483,-3.79874,0.676942
606,29.6101,2.71374,-3.79952,0.676582
606.5,29.6258,2.70271,-3.79956,0.676233
607,29.6413,2.70272,-3.79723,0.675872
607.5,29.657,2.70895,-3.79531,0.675512
608,29.6727,2.71213,-3.79261,0.675162
608.5,29.6883,2.70559,-3.79048,0.674802
609,29.704,2.71723,-3.78838,0.674452
609.5,29.7196,2.70983,-3.78803,0.674092
610,29.7351,2.71722,-3.78859,0.673742
610.5,29.7507,2.73028,-3.79063,0.673392
611,29.7662,2.72363,-3.79304,0.673032
611.5,29.7816,2.73275,-3.79438,0.672682
612,29.7971,2.73523,-3.79428,0.672332
612.5,29.8128,2.73969,-3.79427,0.671982
613,29.8284,2.74129,-3.79427,0.671622
613.5,29.8442,2.75623,-3.79427,0.671272
614,29.86,2.76294,-3.79427,0.670922
614.5,29.8758,2.76396,-3.7943,0.670572
615,29.8914,2.74997,-3.79308,0.670222
615.5,29.9071,2.75901,-3.79295,0.669872
616,29.9228,2.75427,-3.79295,0.669522
616.5,29.9384,2.75596,-3.79315,0.669172
617,29.954,2.74567,-3.79428,0.668832
617.5,29.9697,2.762,-3.79427,0.668482
618,29.9852,2.77399,-3.79472,0.668132
618.5,,,,
619,,,,
619.5,,,,
620,,,,
620.5,,,,
621,,,,
621.5,,,,
622,,,,
622.5,,,,
623,,,,
623.5,,,,
624,,,,
624.5,,,,
625,,,,
625.5,,,,
626,,,,
626.5,,,,
627,,,,
627.5,,,,
628,,,,
628.5,,,,
629,,,,
629.5,,,,
630,,,,
630.5,,,,
631,,,,
631.5,,,,
632,,,,
632.5,,,,
633,,,,
633.5,,,,
634,,,,
634.5,,,,
635,,,,
635.5,,,,
636,,,,
636.5,,,,
637,,,,
637.5,,,,
638,,,,
638.5,,,,
639,,,,
639.5,,,,
640,,,,
640.5,,,,
641,,,,
641.5,,,,
642,,,,
642.5,,,,
643,,,,
643.5,,,,
644,,,,
644.5,,,,
645,,,,
645.5,,,,
646,,,,
646.5,,,,
647,,,,
647.5,,,,
648,,,,
648.5,,,,
649,,,,
649.5,,,,
650,,,,
650.5,,,,
651,,,,
651.5,,,,
652,,,,
652.5,,,,
653,,,,
653.5,,,,
654,,,,
654.5,,,,
655,,,,
655.5,,,,
656,,,,
656.5,,,,
657,,,,
657.5,,,,
658,,,,
658.5,,,,
659,,,,
659.5,,,,
660,,,,
660.5,,,,
661,,,,
661.5,,,,
662,,,,
662.5,,,,
663,,,,
663.5,,,,
664,,,,
664.5,,,,
665,,,,
665.5,,,,
666,,,,
666.5,,,,
667,,,,
667.5,,,,
668,,,,
668.5,,,,
669,,,,
669.5,,,,
670,,,,
670.5,,,,
671,,,,
671.5,,,,
672,,,,
672.5,,,,
673,,,,
673.5,,,,
674,,,,
674.5,,,,
675,,,,
675.5,,,,
676,,,,
676.5,,,,
677,,,,
677.5,,,,
678,,,,
678.5,,,,
679,,,,
679.5,,,,
680,,,,
680.5,,,,
681,,,,
681.5,,,,
682,,,,
682.5,,,,
683,,,,
683.5,,,,
684,,,,
684.5,,,,
685,,,,
685.5,,,,
686,,,,
686.5,,,,
687,,,,
687.5,,,,
688,,,,
688.5,,,,
689,,,,
689.5,,,,
690,,,,
690.5,,,,
691,,,,
691.5,,,,
692,,,,
692.5,,,,
693,,,,
693.5,,,,
694,,,,
694.5,,,,
695,,,,
695.5,,,,
696,,,,
696.5,,,,
697,,,,
697.5,,,,
698,,,,
698.5,,,,
699,,,,
699.5,,,,
700,,,,
700.5,,,,
701,,,,
701.5,,,,
702,,,,
702.5,,,,
703,,,,
703.5,,,,
704,,,,
704.5,,,,
705,,,,
705.5,,,,
706,,,,
706.5,,,,
707,,,,
707.5,,,,
708,,,,
708.5,,,,
709,,,,
709.5,,,,
710,,,,
710.5,,,,
711,,,,
711.5,,,,
712,,,,
712.5,,,,
713,,,,
713.5,,,,
714,,,,
714.5,,,,
715,,,,
715.5,,,,
716,,,,
716.5,,,,
717,,,,
717.5,,,,
718,,,,
718.5,,,,
719,,,,
719.5,,,,
720,,,,
720.5,,,,
721,,,,
721.5,,,,
722,,,,
722.5,,,,
723,,,,
723.5,,,,
724,,,,
724.5,,,,
725,,,,
725.5,,,,
726,,,,
726.5,,,,
727,,,,
727.5,,,,
728,,,,
728.5,,,,
729,,,,
729.5,,,,
730,,,,
730.5,,,,
731,,,,
731.5,,,,
732,,,,
732.5,,,,
733,,,,
733.5,,,,
734,,,,
734.5,,,,
735,,,,
735.5,,,,
736,,,,
736.5,,,,
737,,,,
737.5,,,,
738,,,,
738.5,,,,
739,,,,
739.5,,,,
740,,,,
740.5,,,,
741,,,,
741.5,,,,
742,,,,
742.5,,,,
743,,,,
743.5,,,,
744,,,,
744.5,,,,
745,,,,
745.5,,,,
746,,,,
746.5,,,,
747,,,,
747.5,,,,
748,,,,
748.5,,,,
749,,,,
749.5,,,,
750,,,,