File: 01_Data/Basswood_Panel/MCC/Basswood_Panel_MCC_30K_min_211117_R3.txt
Sample ID:	C:\MCC\MCC Cal\Test\Basswood_Panel_MCC_30K_min_211117_R3.txt
Sample Weight (mg):	4.66
Heating Rate (C/s):	0.5
Combustor Temp (C):	900
N2 Flow Rate (cc/min):	80
O2 Flow Rate (cc/min):	20
Calibration File:	C:\MCC\MCC Cal\Coeff1 JN10440_30_210304.txt.txt
T Correction Coefficients:	0	1.024463	0
Time Shift (s):	14
*
Time (s)	Temperature (C)	N2 flow rate (cc/min)	O2 flow rate (cc/min)	Flow Rate (cc/min)	Oxygen (%)	HRR (W/g)	Heating rate (C/s)
0.000	108.819	80.004	19.995	103.023	19.864	0.002	-0.007
2.000	108.822	80.003	19.996	103.011	19.865	-0.063	-0.002
4.000	108.790	80.002	19.996	103.016	19.863	0.047	-0.026
6.001	108.780	80.003	19.995	103.021	19.863	0.065	-0.020
8.000	108.757	80.004	19.996	103.023	19.863	0.078	0.002
10.000	108.758	80.001	19.996	103.026	19.865	-0.047	-0.002
12.000	108.793	80.003	19.996	103.025	19.862	0.138	0.009
14.001	108.782	80.001	19.996	103.028	19.861	0.207	-0.003
16.001	108.808	80.003	19.996	103.041	19.859	0.343	0.016
18.000	108.784	80.002	19.995	103.033	19.860	0.268	0.023
20.000	108.805	80.003	19.996	103.048	19.854	0.693	0.016
22.000	108.879	80.001	19.996	103.064	19.853	0.753	0.006
24.000	108.934	80.002	19.996	103.070	19.853	0.731	0.041
26.000	108.977	80.004	19.995	103.101	19.847	1.158	0.039
28.000	109.054	80.003	19.995	103.140	19.843	1.439	0.050
30.000	109.204	80.002	19.994	103.185	19.841	1.622	0.069
32.000	109.325	80.003	19.996	103.203	19.835	1.982	0.071
34.000	109.521	80.004	19.995	103.214	19.832	2.236	0.097
36.001	109.737	80.003	19.995	103.219	19.830	2.347	0.099
38.001	110.022	80.005	19.995	103.221	19.827	2.563	0.136
40.001	110.295	80.004	19.995	103.223	19.827	2.534	0.141
42.000	110.640	80.005	19.995	103.230	19.823	2.805	0.158
44.001	110.981	80.005	19.994	103.238	19.822	2.899	0.182
46.000	111.311	80.005	19.995	103.230	19.819	3.140	0.177
48.000	111.668	80.004	19.995	103.210	19.819	3.097	0.203
50.000	112.133	80.004	19.995	103.310	19.817	3.225	0.218
52.000	112.559	80.004	19.995	103.269	19.819	3.123	0.187
54.000	113.040	80.004	19.995	103.264	19.823	2.860	0.209
56.000	113.576	80.005	19.996	103.277	19.816	3.311	0.276
58.000	114.098	80.004	19.994	103.283	19.817	3.280	0.283
60.000	114.691	80.006	19.995	103.264	19.818	3.192	0.292
62.000	115.253	80.004	19.993	103.260	19.819	3.142	0.283
64.000	115.873	80.005	19.994	103.271	19.822	2.922	0.305
66.000	116.499	80.005	19.994	103.274	19.820	3.076	0.346
68.000	117.168	80.005	19.994	103.273	19.821	2.996	0.348
70.000	117.831	80.006	19.995	103.277	19.819	3.136	0.331
72.001	118.488	80.006	19.995	103.269	19.819	3.140	0.351
74.000	119.171	80.005	19.995	103.278	19.817	3.228	0.343
76.000	119.877	80.004	19.994	103.275	19.817	3.235	0.334
78.000	120.635	80.003	19.995	103.265	19.817	3.246	0.364
80.000	121.402	80.002	19.995	103.271	19.813	3.518	0.351
82.000	122.137	80.002	19.996	103.274	19.818	3.198	0.373
84.000	122.915	80.002	19.995	103.282	19.820	3.021	0.394
86.000	123.682	80.002	19.995	103.279	19.816	3.289	0.386
88.000	124.461	80.002	19.997	103.283	19.820	3.049	0.387
90.001	125.246	80.004	19.994	103.273	19.818	3.151	0.403
92.000	126.057	80.003	19.995	103.273	19.820	3.045	0.381
94.000	126.856	80.002	19.996	103.288	19.818	3.156	0.369
96.000	127.715	80.005	19.995	103.288	19.819	3.144	0.411
98.000	128.577	80.004	19.995	103.288	19.819	3.123	0.407
100.000	129.407	80.003	19.995	103.286	19.818	3.219	0.415
102.001	130.282	80.003	19.995	103.272	19.816	3.317	0.440
104.001	131.123	80.003	19.996	103.280	19.814	3.455	0.408
106.001	132.030	80.003	19.996	103.273	19.813	3.506	0.450
108.000	132.919	80.002	19.995	103.287	19.811	3.673	0.458
110.000	133.810	80.002	19.997	103.290	19.813	3.546	0.461
112.000	134.741	80.002	19.996	103.289	19.812	3.584	0.486
114.001	135.649	80.002	19.996	103.283	19.814	3.437	0.465
116.001	136.565	80.004	19.996	103.290	19.813	3.528	0.505
118.001	137.471	80.003	19.996	103.279	19.814	3.468	0.451
120.000	138.395	80.004	19.995	103.266	19.814	3.485	0.452
122.000	139.343	80.005	19.995	103.277	19.811	3.653	0.478
124.001	140.300	80.004	19.995	103.284	19.813	3.499	0.467
126.000	141.229	80.004	19.995	103.291	19.813	3.548	0.486
128.000	142.211	80.005	19.995	103.286	19.809	3.828	0.474
130.000	143.164	80.006	19.995	103.275	19.813	3.498	0.495
132.000	144.163	80.005	19.994	103.275	19.814	3.473	0.498
134.000	145.099	80.005	19.996	103.273	19.813	3.563	0.476
136.000	146.097	80.002	19.996	103.273	19.809	3.828	0.496
138.000	147.078	80.004	19.995	103.272	19.811	3.641	0.494
140.000	148.050	80.004	19.994	103.279	19.810	3.749	0.502
142.000	149.037	80.004	19.996	103.266	19.813	3.520	0.504
144.000	150.056	80.004	19.995	103.266	19.814	3.484	0.531
146.000	151.027	80.004	19.994	103.267	19.809	3.771	0.485
148.000	152.026	80.005	19.995	103.263	19.814	3.456	0.499
150.000	153.011	80.006	19.994	103.264	19.810	3.714	0.511
152.000	153.971	80.006	19.995	103.266	19.812	3.611	0.476
154.000	154.957	80.005	19.994	103.259	19.812	3.626	0.456
156.000	155.957	80.005	19.993	103.258	19.810	3.753	0.526
158.000	156.990	80.005	19.994	103.257	19.807	3.911	0.492
160.000	157.978	80.004	19.995	103.258	19.811	3.665	0.505
162.000	158.954	80.003	19.995	103.259	19.810	3.734	0.497
164.000	159.949	80.002	19.994	103.257	19.809	3.812	0.496
166.000	160.976	80.004	19.994	103.258	19.811	3.691	0.510
168.000	161.959	80.004	19.995	103.258	19.809	3.836	0.464
170.000	162.970	80.004	19.995	103.259	19.812	3.600	0.494
172.000	163.992	80.003	19.996	103.256	19.812	3.600	0.500
174.000	165.011	80.004	19.995	103.256	19.812	3.564	0.513
176.000	165.978	80.003	19.996	103.252	19.810	3.765	0.463
178.000	167.031	80.003	19.995	103.253	19.811	3.648	0.512
180.000	168.059	80.004	19.996	103.251	19.815	3.409	0.515
182.000	169.032	80.003	19.995	103.255	19.812	3.564	0.482
184.000	170.052	80.003	19.995	103.256	19.818	3.206	0.547
186.000	171.024	80.004	19.995	103.249	19.812	3.566	0.498
188.000	172.054	80.002	19.995	103.246	19.815	3.377	0.521
190.000	173.014	80.003	19.995	103.239	19.815	3.362	0.490
192.000	174.063	80.003	19.994	103.254	19.817	3.263	0.539
194.000	175.010	80.003	19.995	103.244	19.815	3.392	0.466
196.000	176.011	80.001	19.996	103.242	19.815	3.383	0.473
198.000	177.040	80.002	19.996	103.237	19.815	3.368	0.487
200.000	178.042	80.003	19.997	103.230	19.817	3.273	0.504
202.000	178.979	80.003	19.995	103.236	19.817	3.284	0.467
204.000	179.982	80.003	19.996	103.235	19.817	3.284	0.496
206.000	180.964	80.004	19.996	103.236	19.814	3.452	0.511
208.000	181.923	80.003	19.996	103.232	19.816	3.353	0.507
210.000	182.928	80.002	19.996	103.236	19.817	3.284	0.488
212.000	183.923	80.004	19.995	103.237	19.815	3.371	0.497
214.000	184.874	80.004	19.995	103.229	19.814	3.461	0.473
216.000	185.881	80.004	19.994	103.236	19.814	3.492	0.491
218.000	186.884	80.004	19.995	103.235	19.811	3.640	0.479
220.000	187.850	80.005	19.995	103.232	19.812	3.612	0.473
222.000	188.828	80.004	19.995	103.225	19.814	3.444	0.506
224.000	189.816	80.004	19.995	103.225	19.813	3.548	0.504
226.000	190.796	80.004	19.995	103.225	19.812	3.608	0.492
228.000	191.796	80.005	19.995	103.222	19.808	3.850	0.471
230.000	192.737	80.004	19.995	103.233	19.813	3.505	0.488
232.000	193.725	80.005	19.995	103.231	19.813	3.520	0.493
234.000	194.702	80.005	19.994	103.225	19.811	3.692	0.503
236.000	195.695	80.005	19.995	103.227	19.808	3.895	0.484
238.000	196.640	80.006	19.995	103.221	19.806	4.003	0.473
240.000	197.576	80.005	19.995	103.221	19.810	3.740	0.478
242.000	198.564	80.004	19.996	103.222	19.806	4.039	0.475
244.000	199.512	80.003	19.995	103.225	19.805	4.063	0.476
246.000	200.519	80.004	19.995	103.225	19.804	4.121	0.509
248.000	201.459	80.003	19.995	103.224	19.805	4.115	0.491
250.000	202.493	80.004	19.995	103.224	19.807	3.910	0.502
252.000	203.445	80.003	19.994	103.224	19.806	3.992	0.494
254.000	204.465	80.004	19.995	103.230	19.806	3.998	0.509
256.000	205.412	80.004	19.994	103.226	19.804	4.126	0.512
258.000	206.406	80.004	19.994	103.226	19.802	4.266	0.489
260.000	207.422	80.004	19.995	103.233	19.803	4.225	0.507
262.000	208.410	80.004	19.995	103.232	19.799	4.468	0.484
264.000	209.390	80.004	19.996	103.227	19.806	4.015	0.493
266.000	210.393	80.004	19.996	103.228	19.803	4.253	0.514
268.000	211.370	80.003	19.994	103.225	19.801	4.384	0.505
270.000	212.323	80.002	19.995	103.224	19.801	4.332	0.490
272.000	213.323	80.003	19.995	103.223	19.800	4.436	0.527
274.000	214.315	80.002	19.995	103.225	19.799	4.516	0.486
276.000	215.289	80.003	19.995	103.226	19.797	4.606	0.489
278.000	216.305	80.002	19.996	103.225	19.795	4.760	0.523
280.000	217.313	80.002	19.996	103.225	19.797	4.602	0.495
282.000	218.252	80.003	19.995	103.225	19.795	4.746	0.469
284.000	219.254	80.003	19.995	103.225	19.792	4.984	0.502
286.000	220.256	80.004	19.995	103.225	19.793	4.917	0.497
288.000	221.195	80.003	19.996	103.226	19.790	5.093	0.457
290.000	222.207	80.005	19.994	103.227	19.790	5.093	0.482
292.000	223.187	80.003	19.995	103.226	19.788	5.269	0.500
294.000	224.200	80.003	19.996	103.236	19.787	5.309	0.517
296.000	225.174	80.004	19.997	103.222	19.781	5.711	0.507
298.000	226.144	80.003	19.996	103.226	19.781	5.758	0.478
300.000	227.163	80.003	19.995	103.236	19.781	5.762	0.531
302.000	228.163	80.003	19.996	103.233	19.780	5.793	0.501
304.000	229.161	80.004	19.996	103.224	19.782	5.652	0.509
306.000	230.179	80.004	19.996	103.223	19.779	5.889	0.496
308.000	231.197	80.005	19.995	103.224	19.778	5.954	0.513
310.000	232.191	80.004	19.995	103.222	19.777	6.044	0.499
312.000	233.191	80.005	19.994	103.225	19.774	6.240	0.506
314.000	234.211	80.007	19.993	103.231	19.772	6.387	0.497
316.000	235.199	80.006	19.994	103.225	19.771	6.439	0.525
318.000	236.198	80.005	19.993	103.231	19.772	6.391	0.473
320.000	237.177	80.005	19.994	103.229	19.769	6.552	0.497
322.000	238.212	80.005	19.993	103.239	19.771	6.437	0.510
324.000	239.175	80.003	19.995	103.235	19.768	6.644	0.444
326.000	240.188	80.001	19.995	103.235	19.766	6.786	0.504
328.000	241.201	80.002	19.995	103.239	19.769	6.545	0.496
330.000	242.257	80.002	19.994	103.230	19.762	7.047	0.515
332.000	243.222	80.003	19.994	103.229	19.763	7.004	0.490
334.000	244.209	80.002	19.995	103.228	19.758	7.324	0.478
336.000	245.226	80.003	19.994	103.231	19.756	7.464	0.486
338.000	246.218	80.003	19.994	103.238	19.755	7.552	0.483
340.000	247.222	80.003	19.994	103.231	19.750	7.914	0.499
342.000	248.266	80.002	19.994	103.230	19.749	7.919	0.522
344.000	249.254	80.003	19.994	103.231	19.744	8.294	0.505
346.000	250.284	80.004	19.994	103.225	19.742	8.443	0.515
348.000	251.242	80.002	19.994	103.227	19.740	8.559	0.495
350.000	252.247	80.003	19.994	103.234	19.738	8.719	0.459
352.000	253.249	80.004	19.995	103.235	19.733	9.055	0.516
354.000	254.194	80.003	19.994	103.231	19.728	9.396	0.468
356.000	255.215	80.003	19.995	103.230	19.728	9.377	0.502
358.000	256.227	80.003	19.995	103.231	19.723	9.752	0.471
360.000	257.183	80.003	19.995	103.243	19.718	10.084	0.460
362.000	258.197	80.002	19.995	103.239	19.712	10.512	0.496
364.000	259.176	80.004	19.995	103.238	19.708	10.817	0.509
366.000	260.147	80.003	19.995	103.248	19.703	11.135	0.483
368.000	261.129	80.005	19.995	103.242	19.698	11.478	0.499
370.000	262.137	80.005	19.996	103.251	19.693	11.842	0.478
372.000	263.075	80.006	19.994	103.248	19.686	12.323	0.472
374.000	264.110	80.005	19.995	103.253	19.682	12.559	0.482
376.000	265.073	80.006	19.995	103.247	19.676	13.011	0.501
378.000	266.101	80.005	19.996	103.255	19.672	13.307	0.501
380.000	267.024	80.004	19.995	103.257	19.666	13.707	0.477
382.000	268.005	80.003	19.994	103.258	19.654	14.506	0.482
384.000	269.042	80.004	19.996	103.260	19.647	14.982	0.500
386.000	270.005	80.003	19.995	103.264	19.644	15.188	0.469
388.000	271.051	80.004	19.995	103.264	19.638	15.597	0.524
390.000	272.051	80.004	19.995	103.262	19.628	16.357	0.530
392.000	273.020	80.004	19.995	103.274	19.622	16.769	0.498
394.000	273.961	80.005	19.996	103.277	19.613	17.369	0.460
396.000	274.958	80.005	19.996	103.271	19.605	17.895	0.494
398.000	275.916	80.005	19.996	103.274	19.597	18.464	0.482
400.000	276.930	80.005	19.995	103.287	19.589	18.990	0.489
402.000	277.946	80.006	19.994	103.283	19.581	19.543	0.487
404.000	278.907	80.005	19.994	103.289	19.569	20.391	0.446
406.000	279.898	80.005	19.995	103.290	19.559	21.110	0.478
408.000	280.877	80.002	19.994	103.299	19.550	21.735	0.464
410.000	281.913	80.005	19.994	103.301	19.544	22.116	0.463
412.000	282.898	80.003	19.996	103.301	19.530	23.100	0.477
414.000	283.903	80.003	19.995	103.300	19.521	23.697	0.481
416.000	284.877	80.003	19.994	103.300	19.509	24.532	0.496
418.000	285.877	80.004	19.995	103.299	19.507	24.732	0.475
420.000	286.875	80.003	19.996	103.298	19.494	25.602	0.522
422.000	287.847	80.004	19.996	103.309	19.483	26.395	0.487
424.000	288.883	80.003	19.994	103.311	19.475	26.907	0.505
426.000	289.823	80.005	19.996	103.308	19.465	27.602	0.485
428.000	290.881	80.004	19.995	103.319	19.458	28.125	0.535
430.000	291.851	80.004	19.995	103.323	19.449	28.720	0.500
432.000	292.875	80.004	19.995	103.326	19.440	29.345	0.475
434.000	293.843	80.003	19.995	103.333	19.432	29.862	0.490
436.000	294.816	80.004	19.994	103.330	19.420	30.745	0.479
438.000	295.846	80.003	19.994	103.325	19.413	31.186	0.491
440.000	296.867	80.002	19.994	103.331	19.407	31.651	0.512
442.000	297.874	80.004	19.996	103.333	19.399	32.173	0.527
444.000	298.924	80.003	19.994	103.335	19.391	32.758	0.539
446.000	299.891	80.005	19.994	103.336	19.385	33.167	0.503
448.000	300.885	80.004	19.994	103.338	19.376	33.742	0.492
450.000	301.876	80.005	19.995	103.338	19.372	34.040	0.476
452.000	302.872	80.004	19.994	103.336	19.365	34.529	0.501
454.000	303.851	80.005	19.995	103.337	19.361	34.831	0.470
456.000	304.857	80.005	19.995	103.338	19.358	34.999	0.484
458.000	305.851	80.004	19.995	103.339	19.351	35.514	0.535
460.000	306.831	80.004	19.995	103.338	19.347	35.762	0.508
462.000	307.823	80.006	19.996	103.338	19.342	36.115	0.452
464.000	308.811	80.004	19.996	103.339	19.333	36.736	0.492
466.000	309.817	80.004	19.995	103.343	19.329	37.039	0.499
468.000	310.842	80.004	19.996	103.340	19.323	37.400	0.521
470.000	311.848	80.005	19.995	103.343	19.321	37.560	0.504
472.000	312.854	80.005	19.995	103.344	19.317	37.849	0.504
474.000	313.856	80.006	19.994	103.341	19.314	38.084	0.508
476.000	314.854	80.006	19.995	103.338	19.309	38.431	0.498
478.000	315.833	80.005	19.994	103.339	19.304	38.749	0.498
480.000	316.806	80.006	19.996	103.335	19.299	39.106	0.507
482.000	317.799	80.005	19.996	103.341	19.296	39.286	0.491
484.000	318.814	80.006	19.995	103.354	19.291	39.678	0.510
486.000	319.798	80.004	19.996	103.342	19.285	40.092	0.498
488.000	320.794	80.001	19.995	103.342	19.276	40.709	0.491
490.000	321.761	80.002	19.996	103.347	19.270	41.088	0.487
492.000	322.762	80.003	19.996	103.349	19.264	41.553	0.485
494.000	323.763	80.003	19.995	103.355	19.257	42.029	0.515
496.000	324.760	80.003	19.995	103.363	19.248	42.658	0.527
498.000	325.758	80.004	19.995	103.369	19.238	43.354	0.498
500.000	326.760	80.003	19.994	103.374	19.232	43.718	0.504
502.000	327.738	80.004	19.995	103.374	19.220	44.565	0.529
504.000	328.735	80.004	19.996	103.374	19.211	45.225	0.504
506.000	329.707	80.005	19.995	103.374	19.202	45.856	0.489
508.000	330.723	80.004	19.995	103.374	19.190	46.661	0.475
510.000	331.705	80.006	19.995	103.381	19.180	47.348	0.486
512.000	332.696	80.004	19.995	103.376	19.168	48.163	0.466
514.000	333.730	80.004	19.996	103.389	19.157	48.970	0.533
516.000	334.722	80.003	19.994	103.399	19.141	50.082	0.505
518.000	335.717	80.002	19.995	103.408	19.128	50.982	0.503
520.000	336.663	80.002	19.995	103.405	19.112	52.094	0.484
522.000	337.679	80.002	19.994	103.406	19.100	52.881	0.487
524.000	338.680	80.003	19.996	103.416	19.080	54.289	0.512
526.000	339.625	80.004	19.995	103.418	19.067	55.220	0.455
528.000	340.663	80.003	19.995	103.417	19.051	56.325	0.492
530.000	341.618	80.003	19.996	103.429	19.034	57.497	0.483
532.000	342.636	80.003	19.995	103.437	19.017	58.648	0.493
534.000	343.591	80.005	19.994	103.438	18.999	59.955	0.494
536.000	344.557	80.005	19.994	103.457	18.980	61.250	0.516
538.000	345.553	80.004	19.995	103.459	18.961	62.535	0.475
540.000	346.541	80.004	19.994	103.461	18.945	63.660	0.517
542.000	347.540	80.004	19.994	103.466	18.927	64.929	0.511
544.000	348.516	80.004	19.995	103.469	18.903	66.567	0.502
546.000	349.516	80.005	19.993	103.471	18.885	67.836	0.526
548.000	350.495	80.003	19.995	103.483	18.869	68.991	0.487
550.000	351.503	80.004	19.996	103.487	18.850	70.304	0.519
552.000	352.500	80.004	19.995	103.492	18.835	71.294	0.546
554.000	353.575	80.005	19.995	103.492	18.820	72.318	0.535
556.000	354.536	80.005	19.994	103.493	18.802	73.585	0.512
558.000	355.531	80.007	19.995	103.508	18.789	74.528	0.491
560.000	356.551	80.006	19.994	103.513	18.773	75.631	0.518
562.001	357.485	80.006	19.995	103.495	18.766	76.050	0.501
564.000	358.500	80.008	19.994	103.501	18.744	77.634	0.540
566.000	359.568	80.006	19.996	103.494	18.746	77.435	0.497
568.000	360.590	80.004	19.995	103.497	18.736	78.176	0.575
570.000	361.575	80.004	19.995	103.493	18.733	78.331	0.561
572.000	362.647	80.003	19.995	103.493	18.730	78.520	0.513
574.000	363.499	80.003	19.996	103.491	18.728	78.658	0.393
576.000	365.064	80.003	19.995	103.487	18.733	78.334	0.724
578.000	365.475	80.002	19.997	103.479	18.742	77.713	0.261
580.000	366.920	80.003	19.995	103.460	18.755	76.757	0.458
582.000	367.791	80.004	19.996	103.455	18.767	75.929	0.631
584.000	368.796	80.003	19.995	103.449	18.788	74.476	0.496
586.000	369.863	80.003	19.995	103.435	18.806	73.164	0.542
588.000	370.849	80.004	19.995	103.423	18.835	71.154	0.514
590.000	371.841	80.003	19.995	103.398	18.862	69.316	0.492
592.000	372.922	80.004	19.994	103.382	18.898	66.770	0.552
594.000	374.007	80.003	19.994	103.353	18.933	64.379	0.541
596.000	374.999	80.004	19.995	103.338	18.975	61.461	0.510
598.000	376.055	80.003	19.994	103.316	19.021	58.239	0.480
600.000	377.094	80.002	19.997	103.301	19.069	54.900	0.490
602.000	378.130	80.004	19.994	103.280	19.120	51.405	0.532
604.000	379.133	80.003	19.995	103.263	19.172	47.818	0.501
606.001	380.180	80.002	19.995	103.254	19.221	44.402	0.534
608.001	381.214	80.002	19.995	103.227	19.271	40.979	0.512
610.000	382.245	80.003	19.995	103.212	19.325	37.200	0.519
612.000	383.223	80.004	19.996	103.188	19.371	34.024	0.522
614.000	384.257	80.005	19.994	103.182	19.418	30.788	0.512
616.000	385.294	80.005	19.995	103.179	19.464	27.638	0.507
618.000	386.314	80.005	19.996	103.173	19.506	24.748	0.546
620.000	387.318	80.006	19.994	103.166	19.546	21.981	0.514
622.000	388.325	80.005	19.996	103.162	19.577	19.814	0.517
624.000	389.357	80.006	19.995	103.169	19.606	17.826	0.480
626.000	390.360	80.004	19.995	103.170	19.630	16.193	0.494
628.000	391.346	80.005	19.996	103.158	19.654	14.490	0.493
630.000	392.334	80.005	19.994	103.155	19.674	13.106	0.502
632.000	393.341	80.005	19.994	103.150	19.688	12.181	0.496
634.000	394.370	80.005	19.994	103.146	19.700	11.342	0.492
636.000	395.357	80.004	19.995	103.144	19.709	10.694	0.469
638.000	396.366	80.006	19.995	103.151	19.718	10.117	0.521
640.000	397.342	80.006	19.995	103.141	19.724	9.698	0.488
642.000	398.329	80.006	19.994	103.146	19.729	9.305	0.493
644.000	399.343	80.005	19.995	103.146	19.736	8.810	0.502
646.000	400.346	80.005	19.996	103.151	19.746	8.170	0.499
648.000	401.318	80.006	19.995	103.143	19.744	8.297	0.496
650.000	402.326	80.004	19.996	103.142	19.745	8.222	0.521
652.000	403.298	80.003	19.994	103.148	19.749	7.971	0.496
654.000	404.278	80.004	19.998	103.155	19.754	7.576	0.499
656.000	405.261	80.003	19.994	103.151	19.752	7.751	0.493
658.000	406.236	80.004	19.994	103.150	19.756	7.466	0.506
660.000	407.279	80.003	19.995	103.146	19.754	7.611	0.517
662.000	408.262	80.003	19.996	103.145	19.756	7.473	0.501
664.000	409.251	80.004	19.996	103.148	19.762	7.043	0.479
666.000	410.240	80.003	19.995	103.153	19.762	7.081	0.506
668.000	411.217	80.002	19.996	103.146	19.760	7.160	0.479
670.000	412.187	80.003	19.996	103.143	19.760	7.199	0.424
672.000	413.202	80.003	19.995	103.143	19.764	6.880	0.527
674.000	414.168	80.004	19.996	103.145	19.763	6.953	0.510
676.000	415.115	80.002	19.996	103.139	19.761	7.091	0.504
678.000	416.107	80.002	19.997	103.139	19.763	6.945	0.483
680.000	417.097	80.003	19.996	103.140	19.767	6.715	0.494
682.000	418.053	80.003	19.996	103.140	19.767	6.702	0.465
684.000	419.053	80.003	19.997	103.141	19.767	6.694	0.508
686.000	420.031	80.004	19.995	103.139	19.770	6.527	0.512
688.000	421.037	80.004	19.995	103.136	19.769	6.571	0.494
690.000	422.001	80.004	19.995	103.139	19.772	6.370	0.506
692.000	422.980	80.005	19.995	103.141	19.770	6.464	0.508
694.000	423.994	80.006	19.995	103.140	19.773	6.281	0.510
696.000	424.968	80.005	19.995	103.144	19.773	6.265	0.501
698.000	426.000	80.006	19.995	103.140	19.775	6.156	0.503
700.000	427.038	80.005	19.994	103.140	19.773	6.265	0.522
702.000	428.034	80.006	19.995	103.156	19.776	6.086	0.535
704.000	429.088	80.005	19.994	103.156	19.772	6.344	0.530
706.000	430.040	80.005	19.996	103.155	19.776	6.115	0.483
708.000	431.088	80.005	19.996	103.154	19.777	6.011	0.485
710.000	432.164	80.005	19.996	103.153	19.778	5.909	0.498
712.000	433.212	80.005	19.994	103.151	19.781	5.724	0.528
714.000	434.253	80.004	19.995	103.154	19.785	5.478	0.534
716.000	435.344	80.006	19.996	103.149	19.784	5.562	0.530
718.000	436.379	80.006	19.995	103.147	19.781	5.702	0.522
720.000	437.542	80.006	19.994	103.156	19.783	5.614	0.587
722.000	438.607	80.006	19.994	103.149	19.786	5.380	0.531
724.000	439.712	80.007	19.995	103.147	19.785	5.480	0.562
726.000	440.823	80.007	19.992	103.153	19.786	5.359	0.573
728.000	441.956	80.007	19.994	103.153	19.786	5.405	0.578
730.000	443.024	80.003	19.995	103.154	19.784	5.558	0.541
732.000	444.137	80.003	19.996	103.154	19.785	5.442	0.572
734.000	445.274	80.003	19.995	103.161	19.783	5.582	0.561
736.000	446.386	80.004	19.995	103.148	19.788	5.271	0.552
738.000	447.519	80.005	19.996	103.150	19.790	5.088	0.548
740.000	448.640	80.004	19.997	103.142	19.791	5.040	0.570
742.000	449.750	80.006	19.995	103.141	19.793	4.876	0.540
744.000	450.867	80.004	19.995	103.143	19.794	4.851	0.529
746.000	451.958	80.005	19.995	103.143	19.793	4.874	0.547
748.000	453.089	80.005	19.997	103.142	19.797	4.656	0.560
750.000	454.205	80.004	19.995	103.145	19.793	4.890	0.572
752.000	455.351	80.004	19.995	103.143	19.798	4.540	0.590
754.000	456.421	80.005	19.995	103.140	19.799	4.499	0.570
756.000	457.511	80.003	19.995	103.141	19.799	4.483	0.540
758.000	458.628	80.005	19.996	103.140	19.800	4.453	0.564
760.000	459.728	80.006	19.995	103.138	19.806	3.981	0.559
762.000	460.813	80.004	19.995	103.137	19.800	4.404	0.524
764.000	461.888	80.003	19.997	103.137	19.807	3.964	0.541
766.000	463.028	80.002	19.997	103.140	19.807	3.959	0.567
768.000	464.029	80.003	19.997	103.140	19.809	3.827	0.548
770.000	465.065	80.002	19.998	103.143	19.809	3.775	0.521
772.000	466.125	80.002	19.995	103.142	19.810	3.724	0.522
774.000	467.212	80.003	19.995	103.135	19.814	3.476	0.534
776.000	468.259	80.004	19.995	103.140	19.813	3.545	0.524
778.000	469.333	80.004	19.995	103.141	19.813	3.528	0.495
780.000	470.389	80.005	19.994	103.142	19.813	3.514	0.523
782.000	471.430	80.006	19.993	103.142	19.815	3.400	0.506
784.000	472.452	80.005	19.994	103.137	19.813	3.500	0.523
786.000	473.516	80.005	19.995	103.134	19.813	3.493	0.518
788.000	474.619	80.004	19.994	103.132	19.811	3.649	0.550
790.000	475.655	80.004	19.994	103.133	19.816	3.329	0.532
792.000	476.682	80.003	19.995	103.137	19.813	3.519	0.530
794.000	477.707	80.004	19.995	103.136	19.815	3.407	0.521
796.000	478.684	80.004	19.995	103.124	19.816	3.301	0.497
798.000	479.774	80.004	19.995	103.127	19.815	3.366	0.517
800.000	480.737	80.005	19.995	103.130	19.814	3.422	0.470
802.000	481.757	80.005	19.994	103.117	19.821	2.977	0.482
804.000	482.822	80.007	19.993	103.119	19.819	3.090	0.514
806.000	483.774	80.007	19.995	103.119	19.817	3.233	0.487
808.000	484.769	80.006	19.993	103.109	19.818	3.167	0.512
810.000	485.742	80.007	19.995	103.111	19.820	3.038	0.471
812.000	486.736	80.008	19.994	103.117	19.821	2.971	0.504
814.000	487.676	80.005	19.994	103.119	19.822	2.902	0.486
816.000	488.655	80.003	19.994	103.105	19.821	2.956	0.493
818.000	489.648	80.003	19.995	103.109	19.823	2.811	0.496
820.000	490.628	80.004	19.996	103.112	19.824	2.753	0.509
822.000	491.618	80.004	19.994	103.112	19.825	2.690	0.489
824.000	492.643	80.003	19.995	103.110	19.827	2.576	0.519
826.000	493.641	80.004	19.996	103.118	19.824	2.742	0.467
828.000	494.663	80.003	19.995	103.133	19.827	2.557	0.532
830.000	495.667	80.003	19.997	103.134	19.828	2.496	0.517
832.000	496.640	80.004	19.995	103.124	19.829	2.401	0.491
834.000	497.622	80.004	19.996	103.112	19.830	2.349	0.471
836.000	498.639	80.003	19.995	103.106	19.831	2.312	0.533
838.000	499.620	80.004	19.996	103.105	19.831	2.261	0.485
840.000	500.518	80.004	19.995	103.106	19.833	2.144	0.448
842.000	501.513	80.005	19.994	103.111	19.832	2.200	0.468
844.000	502.501	80.004	19.994	103.112	19.832	2.192	0.509
846.000	503.428	80.003	19.995	103.115	19.830	2.328	0.442
848.000	504.421	80.003	19.994	103.115	19.827	2.576	0.488
850.000	505.348	80.003	19.996	103.112	19.829	2.444	0.457
852.000	506.335	80.002	19.995	103.111	19.828	2.458	0.516
854.000	507.289	80.002	19.996	103.105	19.830	2.345	0.498
856.000	508.221	80.003	19.995	103.107	19.833	2.172	0.439
858.000	509.154	80.005	19.995	103.111	19.832	2.239	0.465
860.000	510.104	80.003	19.996	103.111	19.829	2.403	0.474
862.000	510.998	80.004	19.996	103.106	19.832	2.209	0.481
864.000	511.910	80.005	19.996	103.106	19.834	2.043	0.480
866.000	512.778	80.004	19.996	103.107	19.831	2.278	0.447
868.000	513.725	80.004	19.994	103.107	19.831	2.304	0.470
870.000	514.690	80.005	19.995	103.108	19.833	2.164	0.467
872.000	515.608	80.004	19.994	103.103	19.832	2.204	0.473
874.000	516.516	80.005	19.995	103.105	19.829	2.425	0.451
876.000	517.465	80.005	19.994	103.101	19.832	2.209	0.448
878.000	518.421	80.004	19.994	103.110	19.829	2.392	0.468
880.000	519.393	80.005	19.995	103.109	19.831	2.295	0.490
882.000	520.393	80.004	19.994	103.124	19.831	2.278	0.486
884.000	521.377	80.006	19.994	103.114	19.833	2.168	0.502
886.000	522.338	80.006	19.995	103.116	19.832	2.233	0.470
888.000	523.326	80.005	19.994	103.116	19.835	2.026	0.507
890.000	524.299	80.007	19.995	103.122	19.838	1.797	0.472
892.000	525.293	80.005	19.994	103.123	19.834	2.105	0.487
894.000	526.301	80.004	19.994	103.120	19.835	2.040	0.506
896.000	527.324	80.003	19.995	103.117	19.834	2.067	0.505
898.000	528.387	80.003	19.994	103.111	19.835	2.021	0.536
900.000	529.361	80.003	19.996	103.109	19.841	1.604	0.506
902.000	530.424	80.004	19.995	103.122	19.836	1.928	0.544
904.000	531.434	80.002	19.994	103.125	19.834	2.068	0.525
906.000	532.462	80.002	19.994	103.119	19.834	2.062	0.497
908.000	533.490	80.002	19.995	103.108	19.835	1.978	0.523
910.000	534.550	80.004	19.996	103.114	19.836	1.937	0.521
912.000	535.593	80.005	19.995	103.112	19.833	2.166	0.514
914.000	536.646	80.004	19.995	103.124	19.831	2.291	0.535
916.000	537.726	80.002	19.995	103.111	19.834	2.057	0.511
918.000	538.759	80.004	19.996	103.108	19.835	2.001	0.502
920.000	539.847	80.003	19.995	103.118	19.836	1.967	0.543
922.000	540.856	80.003	19.994	103.119	19.833	2.125	0.498
924.000	541.945	80.002	19.995	103.113	19.831	2.300	0.527
926.000	542.978	80.001	19.995	103.122	19.838	1.812	0.526
928.000	544.003	80.004	19.995	103.124	19.834	2.053	0.537
930.000	545.047	80.004	19.995	103.117	19.836	1.928	0.520
932.000	546.094	80.002	19.995	103.113	19.834	2.081	0.519
934.000	547.132	80.004	19.995	103.113	19.833	2.110	0.532
936.000	548.183	80.003	19.995	103.116	19.836	1.909	0.542
938.000	549.232	80.003	19.995	103.117	19.836	1.960	0.535
940.000	550.255	80.005	19.995	103.114	19.836	1.917	0.530
942.000	551.267	80.005	19.995	103.122	19.836	1.941	0.508
944.000	552.334	80.006	19.994	103.111	19.837	1.857	0.533
946.000	553.352	80.005	19.994	103.119	19.835	2.024	0.530
948.000	554.427	80.004	19.995	103.129	19.836	1.967	0.527
950.000	555.470	80.003	19.997	103.127	19.839	1.750	0.524
952.000	556.522	80.003	19.996	103.126	19.836	1.916	0.514
954.000	557.573	80.003	19.997	103.122	19.836	1.919	0.530
956.000	558.607	80.003	19.996	103.115	19.838	1.783	0.526
958.000	559.696	80.003	19.997	103.057	19.840	1.634	0.541
960.000	560.701	80.002	19.996	103.173	19.840	1.690	0.531
962.000	561.817	80.004	19.997	103.120	19.837	1.851	0.546
964.000	562.836	80.005	19.994	103.113	19.837	1.902	0.527
966.000	563.854	80.006	19.993	103.119	19.839	1.742	0.514
968.000	564.910	80.005	19.993	103.119	19.841	1.624	0.531
970.000	565.958	80.005	19.995	103.129	19.839	1.716	0.503
972.000	566.996	80.005	19.995	103.119	19.838	1.779	0.521
974.000	568.033	80.002	19.995	103.111	19.838	1.807	0.538
976.000	569.076	80.004	19.994	103.118	19.839	1.743	0.549
978.000	570.064	80.003	19.994	103.127	19.841	1.557	0.489
980.000	571.096	80.003	19.995	103.122	19.839	1.730	0.495
982.000	572.147	80.004	19.995	103.123	19.839	1.764	0.516
984.001	573.174	80.003	19.993	103.113	19.841	1.613	0.514
986.000	574.165	80.003	19.995	103.108	19.841	1.568	0.496
988.000	575.222	80.003	19.994	103.110	19.840	1.663	0.537
990.000	576.229	80.002	19.995	103.108	19.837	1.889	0.532
992.000	577.202	80.003	19.996	103.107	19.839	1.756	0.525
994.000	578.198	80.004	19.994	103.110	19.837	1.889	0.462
996.000	579.177	80.003	19.994	103.121	19.837	1.864	0.519
998.000	580.162	80.003	19.993	103.108	19.842	1.505	0.469
1000.000	581.149	80.004	19.995	103.111	19.839	1.749	0.527
1002.000	582.100	80.003	19.995	103.116	19.842	1.501	0.473
1004.000	583.125	80.002	19.995	103.110	19.842	1.537	0.472
1006.000	584.085	80.003	19.994	103.109	19.843	1.423	0.437
1008.000	585.061	80.002	19.996	103.115	19.845	1.319	0.480
1010.000	586.037	80.003	19.996	103.104	19.841	1.568	0.470
1012.000	587.008	80.002	19.995	103.116	19.841	1.572	0.483
1014.000	587.958	80.003	19.996	103.116	19.846	1.253	0.471
1016.000	588.950	80.004	19.996	103.104	19.846	1.244	0.492
1018.000	589.905	80.002	19.996	103.103	19.842	1.510	0.480
1020.000	590.892	80.004	19.995	103.102	19.840	1.669	0.451
1022.000	591.864	80.003	19.996	103.102	19.841	1.611	0.476
1024.001	592.827	80.006	19.995	103.100	19.840	1.654	0.492
1026.000	593.821	80.004	19.995	103.101	19.840	1.630	0.494
1028.000	594.802	80.005	19.994	103.104	19.844	1.362	0.485
1030.000	595.824	80.005	19.995	103.103	19.843	1.468	0.498
1032.000	596.815	80.004	19.995	103.107	19.841	1.574	0.483
1034.000	597.781	80.004	19.994	103.104	19.845	1.334	0.477
1036.000	598.759	80.004	19.995	103.104	19.844	1.365	0.477
1038.000	599.805	80.003	19.995	103.108	19.846	1.279	0.510
1040.000	600.759	80.004	19.995	103.111	19.842	1.499	0.481
1042.000	601.741	80.003	19.995	103.109	19.841	1.572	0.494
1044.000	602.779	80.002	19.995	103.106	19.843	1.468	0.500
1046.001	603.790	80.003	19.995	103.107	19.844	1.395	0.494
1048.000	604.760	80.005	19.996	103.101	19.842	1.490	0.466
1050.000	605.834	80.003	19.996	103.105	19.844	1.412	0.529
1052.000	606.818	80.005	19.994	103.103	19.843	1.447	0.526
1054.000	607.853	80.005	19.995	103.104	19.841	1.617	0.541
1056.000	608.868	80.004	19.994	103.112	19.845	1.302	0.527
1058.000	609.965	80.004	19.993	103.113	19.841	1.620	0.532
1060.000	610.987	80.002	19.994	103.121	19.841	1.581	0.502
1062.000	612.065	80.004	19.995	103.127	19.842	1.523	0.539
1064.000	613.090	80.002	19.995	103.109	19.840	1.674	0.527
1066.000	614.177	80.003	19.995	103.105	19.841	1.609	0.510
1068.000	615.272	80.004	19.995	103.108	19.842	1.546	0.534
1070.000	616.358	80.003	19.996	103.105	19.840	1.654	0.526
1072.000	617.398	80.003	19.995	103.105	19.841	1.624	0.537
1074.000	618.459	80.004	19.994	103.113	19.842	1.522	0.523
1076.000	619.554	80.003	19.995	103.110	19.844	1.402	0.541
1078.000	620.599	80.003	19.995	103.121	19.842	1.555	0.526
1080.000	621.679	80.004	19.996	103.115	19.844	1.386	0.513
1082.000	622.795	80.005	19.995	103.106	19.839	1.734	0.557
1084.000	623.850	80.003	19.995	103.107	19.844	1.412	0.563
1086.000	624.913	80.004	19.995	103.107	19.839	1.745	0.534
1088.000	625.986	80.002	19.994	103.114	19.839	1.736	0.530
1090.000	627.022	80.003	19.995	103.114	19.837	1.853	0.535
1092.000	628.130	80.003	19.994	103.110	19.840	1.663	0.519
1094.000	629.212	80.003	19.994	103.118	19.840	1.661	0.508
1096.000	630.252	80.003	19.994	103.106	19.840	1.676	0.532
1098.000	631.292	80.004	19.994	103.105	19.839	1.760	0.537
1100.000	632.330	80.005	19.994	103.108	19.838	1.788	0.538
1102.000	633.335	80.005	19.994	103.105	19.838	1.803	0.474
1104.000	634.456	80.005	19.994	103.114	19.835	1.972	0.559
1106.000	635.489	80.004	19.994	103.109	19.838	1.808	0.541
1108.000	636.536	80.004	19.995	103.106	19.838	1.771	0.516
1110.000	637.608	80.004	19.995	103.106	19.836	1.963	0.527
1112.000	638.602	80.004	19.995	103.115	19.839	1.738	0.509
1114.000	639.654	80.004	19.994	103.106	19.837	1.851	0.543
1116.000	640.681	80.003	19.995	103.103	19.840	1.676	0.506
1118.000	641.689	80.004	19.995	103.105	19.842	1.548	0.497
1120.000	642.752	80.004	19.994	103.106	19.841	1.622	0.531
1122.000	643.749	80.004	19.995	103.106	19.839	1.697	0.486
1124.000	644.704	80.003	19.994	103.105	19.839	1.695	0.453
1126.001	645.731	80.004	19.994	103.104	19.841	1.617	0.473
1128.000	646.719	80.005	19.993	103.102	19.841	1.577	0.479
1130.000	647.752	80.007	19.997	103.114	19.840	1.667	0.489
1132.000	648.723	80.005	19.995	103.102	19.842	1.536	0.489
1134.000	649.769	80.005	19.995	103.107	19.838	1.780	0.503
1136.000	650.762	80.005	19.995	103.103	19.840	1.693	0.500
1138.000	651.784	80.004	19.995	103.103	19.840	1.684	0.517
1140.000	652.802	80.003	19.996	103.099	19.841	1.611	0.493
1142.000	653.762	80.002	19.996	103.099	19.838	1.821	0.506
1144.000	654.828	80.004	19.996	103.096	19.843	1.486	0.517
1146.000	655.849	80.004	19.995	103.099	19.840	1.672	0.526
1148.000	656.848	80.004	19.996	103.103	19.842	1.553	0.498
1150.000	657.847	80.002	19.995	103.100	19.841	1.577	0.490
1152.000	658.844	80.005	19.995	103.097	19.843	1.486	0.498
1154.000	659.887	80.003	19.995	103.102	19.844	1.393	0.508
1156.000	660.869	80.003	19.994	103.097	19.844	1.382	0.510
1158.000	661.885	80.003	19.994	103.099	19.844	1.395	0.486
1160.000	662.900	80.005	19.994	103.102	19.842	1.492	0.511
1162.000	663.906	80.004	19.994	103.103	19.843	1.451	0.511
1164.000	664.922	80.003	19.995	103.104	19.843	1.451	0.520
1166.000	665.931	80.003	19.994	103.105	19.841	1.572	0.502
1168.000	666.981	80.002	19.994	103.102	19.839	1.721	0.559
1170.000	667.977	80.002	19.994	103.104	19.839	1.730	0.516
1172.000	668.971	80.004	19.995	103.103	19.843	1.486	0.496
1174.000	669.978	80.002	19.995	103.104	19.843	1.447	0.449
1176.000	670.985	80.002	19.995	103.104	19.840	1.637	0.505
1178.000	672.008	80.002	19.995	103.104	19.840	1.630	0.505
1180.000	673.016	80.002	19.995	103.108	19.840	1.672	0.498
1182.000	673.984	80.004	19.994	103.106	19.840	1.659	0.496
1184.000	675.084	80.004	19.996	103.105	19.842	1.501	0.515
1186.000	676.129	80.005	19.994	103.114	19.842	1.503	0.521
1188.000	677.108	80.004	19.994	103.124	19.841	1.596	0.453
1190.000	678.102	80.006	19.993	103.114	19.838	1.782	0.511
1192.000	679.129	80.005	19.994	103.105	19.839	1.717	0.529
1194.001	680.140	80.003	19.994	103.102	19.838	1.777	0.513
1196.000	681.137	80.002	19.994	103.105	19.838	1.767	0.502
1198.000	682.131	80.004	19.996	103.109	19.839	1.702	0.491
1200.000	683.140	80.005	19.996	103.107	19.841	1.615	0.499
1202.000	684.104	80.004	19.996	103.104	19.839	1.762	0.493
1204.000	685.129	80.005	19.995	103.101	19.837	1.872	0.493
1206.000	686.076	80.005	19.995	103.102	19.835	1.987	0.497
1208.000	687.049	80.005	19.996	103.101	19.837	1.849	0.500
1210.000	688.069	80.005	19.995	103.102	19.837	1.834	0.503
1212.000	689.059	80.006	19.995	103.103	19.843	1.473	0.510
1214.000	690.041	80.006	19.994	103.102	19.839	1.745	0.508
1216.000	691.060	80.006	19.995	103.104	19.836	1.915	0.530
1218.000	692.051	80.006	19.995	103.106	19.841	1.613	0.509
1220.000	693.040	80.004	19.996	103.106	19.840	1.635	0.493
1222.000	694.073	80.001	19.996	103.103	19.841	1.589	0.534
1224.000	695.098	80.002	19.995	103.101	19.843	1.455	0.498
1226.000	696.162	80.003	19.995	103.103	19.837	1.875	0.564
1228.000	697.192	80.003	19.995	103.101	19.837	1.844	0.506
1230.000	698.224	80.003	19.997	103.104	19.838	1.788	0.527
1232.000	699.245	80.003	19.995	103.104	19.840	1.676	0.514
1234.000	700.258	80.001	19.997	103.103	19.838	1.801	0.524
1236.000	701.276	80.002	19.995	103.103	19.839	1.702	0.502
1238.000	702.332	80.000	19.996	103.104	19.840	1.633	0.513
1240.000	703.325	80.005	19.996	103.105	19.839	1.697	0.492
1242.000	704.328	80.003	19.995	103.105	19.840	1.626	0.487
1244.000	705.354	80.003	19.996	103.104	19.841	1.605	0.513
1246.000	706.386	80.004	19.996	103.102	19.842	1.503	0.486
1248.000	707.400	80.004	19.994	103.103	19.839	1.697	0.522
1250.000	708.435	80.003	19.995	103.106	19.838	1.790	0.507
1252.000	709.442	80.003	19.995	103.108	19.841	1.579	0.522
1254.000	710.451	80.003	19.995	103.108	19.841	1.618	0.480
1256.000	711.506	80.004	19.996	103.106	19.839	1.751	0.534
1258.000	712.527	80.002	19.994	103.105	19.840	1.674	0.506
1260.000	713.553	80.004	19.994	103.100	19.838	1.831	0.514
1262.000	714.558	80.004	19.996	103.103	19.845	1.335	0.519
1264.000	715.591	80.004	19.995	103.103	19.841	1.620	0.502
1266.000	716.573	80.006	19.994	103.107	19.842	1.535	0.488
1268.000	717.627	80.005	19.995	103.102	19.843	1.477	0.496
1270.000	718.631	80.005	19.995	103.102	19.839	1.697	0.533
1272.000	719.623	80.006	19.995	103.104	19.842	1.542	0.493
1274.000	720.636	80.007	19.994	103.104	19.838	1.773	0.496
1276.001	721.596	80.005	19.995	103.102	19.843	1.421	0.460
1278.000	722.655	80.007	19.994	103.104	19.839	1.698	0.537
1280.000	723.654	80.006	19.994	103.103	19.841	1.570	0.521
1282.000	724.639	80.007	19.995	103.102	19.841	1.607	0.492
1284.000	725.627	80.006	19.994	103.103	19.840	1.657	0.478
1286.000	726.668	80.006	19.995	103.102	19.840	1.633	0.523
1288.000	727.664	80.005	19.995	103.102	19.841	1.591	0.530
1290.000	728.652	80.008	19.994	103.101	19.840	1.659	0.493
1292.000	729.606	80.007	19.995	103.093	19.838	1.801	0.494
1294.000	730.658	80.007	19.995	103.097	19.841	1.589	0.524
1296.000	731.654	80.007	19.995	103.101	19.844	1.393	0.524
1298.000	732.625	80.004	19.994	103.103	19.842	1.503	0.511
1300.000	733.648	80.005	19.994	103.103	19.843	1.427	0.498
1302.000	734.658	80.005	19.996	103.108	19.842	1.535	0.518
1304.001	735.678	80.004	19.995	103.104	19.840	1.630	0.492
1306.000	736.713	80.003	19.995	103.106	19.841	1.600	0.518
1308.000	737.810	80.004	19.995	103.107	19.842	1.527	0.561
1310.000	738.818	80.004	19.995	103.107	19.844	1.415	0.518
1312.000	739.923	80.003	19.995	103.106	19.839	1.717	0.543
1314.000	740.968	80.004	19.994	103.107	19.841	1.572	0.536
1316.000	742.052	80.002	19.994	103.106	19.841	1.624	0.535
1318.000	743.116	80.003	19.995	103.107	19.840	1.652	0.556
1318.500	743.406	80.001	19.995	103.107	19.839	1.699	0.521