File: 01_Data/Basswood_Panel/MCC/Basswood_Panel_MCC_30K_min_211117_R2.txt
Sample ID:	C:\MCC\MCC Cal\Test\Basswood_Panel_MCC_30K_min_211117_R2.txt
Sample Weight (mg):	4.78
Heating Rate (C/s):	0.5
Combustor Temp (C):	900
N2 Flow Rate (cc/min):	80
O2 Flow Rate (cc/min):	20
Calibration File:	C:\MCC\MCC Cal\Coeff1 JN10440_30_210304.txt.txt
T Correction Coefficients:	0	1.024463	0
Time Shift (s):	14
*
Time (s)	Temperature (C)	N2 flow rate (cc/min)	O2 flow rate (cc/min)	Flow Rate (cc/min)	Oxygen (%)	HRR (W/g)	Heating rate (C/s)
0.000	108.663	80.002	19.996	103.002	19.894	-0.183	0.006
2.000	108.641	80.000	19.996	103.008	19.891	0.015	-0.027
4.000	108.645	80.000	19.996	103.014	19.893	-0.111	-0.020
6.000	108.617	80.001	19.994	103.006	19.890	0.098	0.024
8.000	108.637	80.002	19.995	103.013	19.893	-0.067	-0.003
10.000	108.596	80.001	19.995	103.009	19.894	-0.134	-0.014
12.000	108.593	80.002	19.994	103.021	19.895	-0.207	0.000
14.001	108.612	80.003	19.995	103.017	19.891	0.031	-0.006
16.000	108.595	80.002	19.995	103.012	19.892	-0.005	-0.007
18.000	108.594	80.000	19.995	103.021	19.893	-0.073	-0.003
20.000	108.550	80.003	19.995	103.030	19.889	0.209	-0.021
22.000	108.589	80.003	19.995	103.051	19.889	0.165	0.012
24.000	108.649	80.002	19.994	103.095	19.886	0.362	0.023
26.000	108.691	80.002	19.995	103.109	19.879	0.887	0.065
28.000	108.742	80.003	19.995	103.121	19.877	0.972	0.028
30.000	108.821	80.002	19.996	103.133	19.876	1.054	0.038
32.000	108.935	80.002	19.995	103.170	19.870	1.442	0.073
34.000	109.105	80.002	19.996	103.179	19.864	1.873	0.102
36.000	109.280	80.002	19.993	103.182	19.864	1.887	0.097
38.001	109.480	80.001	19.995	103.193	19.861	2.069	0.100
40.000	109.747	80.002	19.994	103.214	19.858	2.295	0.130
42.000	110.003	80.002	19.995	103.235	19.851	2.728	0.145
44.001	110.294	80.004	19.994	103.238	19.854	2.559	0.149
46.000	110.629	80.004	19.995	103.245	19.851	2.713	0.178
48.000	110.994	80.003	19.996	103.259	19.851	2.770	0.206
50.000	111.409	80.003	19.997	103.263	19.844	3.241	0.195
52.000	111.871	80.002	19.995	103.264	19.848	2.935	0.231
54.000	112.310	80.002	19.995	103.266	19.845	3.157	0.219
56.000	112.770	80.003	19.995	103.262	19.843	3.264	0.228
58.000	113.297	80.003	19.994	103.270	19.843	3.270	0.260
60.000	113.869	80.001	19.995	103.268	19.842	3.333	0.289
62.000	114.419	80.003	19.994	103.268	19.844	3.195	0.301
64.000	115.005	80.003	19.995	103.274	19.846	3.053	0.284
66.000	115.612	80.005	19.996	103.263	19.848	2.962	0.335
68.000	116.228	80.005	19.995	103.271	19.845	3.144	0.308
70.001	116.927	80.005	19.995	103.266	19.849	2.866	0.349
72.000	117.629	80.006	19.996	103.259	19.847	3.035	0.361
74.000	118.288	80.005	19.995	103.260	19.848	2.944	0.337
76.000	118.992	80.005	19.996	103.262	19.847	3.002	0.339
78.000	119.747	80.003	19.994	103.267	19.847	3.006	0.386
80.000	120.487	80.004	19.996	103.273	19.848	2.919	0.396
82.001	121.212	80.001	19.996	103.262	19.844	3.222	0.396
84.000	122.014	80.001	19.995	103.262	19.844	3.222	0.386
86.000	122.764	80.002	19.997	103.259	19.844	3.224	0.384
88.000	123.571	80.001	19.996	103.258	19.844	3.217	0.373
90.000	124.343	80.001	19.996	103.269	19.845	3.172	0.395
92.000	125.183	80.002	19.996	103.267	19.846	3.084	0.420
94.001	125.983	80.002	19.995	103.262	19.846	3.092	0.406
96.000	126.777	80.002	19.996	103.262	19.845	3.141	0.384
98.001	127.636	80.003	19.995	103.261	19.844	3.237	0.410
100.001	128.504	80.003	19.995	103.275	19.843	3.292	0.413
102.000	129.361	80.002	19.995	103.270	19.841	3.392	0.442
104.000	130.242	80.004	19.995	103.269	19.842	3.342	0.429
106.001	131.138	80.003	19.994	103.270	19.846	3.050	0.448
108.000	131.997	80.004	19.995	103.272	19.847	3.037	0.433
110.001	132.885	80.003	19.995	103.264	19.844	3.219	0.441
112.000	133.808	80.003	19.996	103.270	19.848	2.977	0.476
114.000	134.704	80.003	19.995	103.263	19.843	3.281	0.470
116.001	135.593	80.002	19.996	103.272	19.842	3.382	0.456
118.000	136.500	80.001	19.995	103.266	19.844	3.222	0.466
120.000	137.470	80.002	19.995	103.282	19.846	3.090	0.464
122.001	138.361	80.003	19.994	103.271	19.839	3.564	0.434
124.001	139.306	80.003	19.995	103.266	19.842	3.377	0.456
126.000	140.246	80.004	19.994	103.268	19.842	3.350	0.460
128.000	141.165	80.003	19.995	103.265	19.841	3.426	0.482
130.000	142.121	80.003	19.995	103.263	19.837	3.664	0.447
132.000	143.072	80.005	19.994	103.264	19.842	3.355	0.483
134.000	144.076	80.004	19.994	103.261	19.843	3.284	0.498
136.000	145.005	80.004	19.995	103.261	19.843	3.262	0.490
138.000	145.929	80.004	19.995	103.260	19.842	3.328	0.461
140.000	146.913	80.002	19.996	103.261	19.843	3.297	0.488
142.000	147.850	80.004	19.994	103.263	19.839	3.531	0.445
144.000	148.804	80.004	19.995	103.260	19.839	3.542	0.476
146.000	149.813	80.002	19.995	103.263	19.837	3.673	0.459
148.000	150.795	80.003	19.995	103.260	19.841	3.437	0.476
150.000	151.751	80.005	19.995	103.259	19.839	3.557	0.482
152.000	152.729	80.004	19.995	103.256	19.838	3.635	0.478
154.000	153.687	80.005	19.995	103.257	19.839	3.522	0.451
156.000	154.644	80.006	19.995	103.257	19.837	3.655	0.494
158.000	155.617	80.004	19.995	103.256	19.838	3.637	0.501
160.000	156.549	80.003	19.995	103.256	19.837	3.691	0.476
162.000	157.550	80.003	19.995	103.258	19.836	3.742	0.480
164.000	158.547	80.002	19.995	103.256	19.841	3.434	0.505
166.000	159.500	80.001	19.995	103.259	19.839	3.572	0.494
168.000	160.527	80.002	19.995	103.260	19.839	3.583	0.521
170.000	161.497	80.002	19.995	103.258	19.841	3.418	0.504
172.000	162.478	80.002	19.995	103.240	19.839	3.583	0.471
174.000	163.473	80.002	19.996	103.243	19.837	3.667	0.478
176.000	164.458	80.002	19.995	103.246	19.838	3.623	0.497
178.000	165.486	80.002	19.996	103.240	19.837	3.717	0.524
180.000	166.491	80.001	19.997	103.239	19.839	3.576	0.471
182.000	167.471	80.001	19.996	103.229	19.839	3.543	0.521
184.000	168.454	80.003	19.997	103.235	19.838	3.591	0.485
186.000	169.454	80.001	19.996	103.246	19.839	3.581	0.472
188.000	170.413	80.003	19.995	103.229	19.836	3.723	0.505
190.000	171.422	80.001	19.996	103.225	19.838	3.598	0.504
192.000	172.378	80.002	19.995	103.236	19.836	3.763	0.487
194.000	173.364	80.003	19.995	103.232	19.836	3.772	0.512
196.000	174.389	80.002	19.995	103.239	19.836	3.745	0.505
198.000	175.365	80.002	19.994	103.229	19.835	3.790	0.520
200.000	176.302	80.002	19.996	103.229	19.835	3.839	0.469
202.000	177.276	80.002	19.995	103.232	19.833	3.952	0.456
204.000	178.296	80.002	19.995	103.228	19.836	3.764	0.483
206.000	179.238	80.003	19.995	103.222	19.834	3.903	0.498
208.000	180.212	80.003	19.995	103.223	19.836	3.732	0.467
210.000	181.211	80.004	19.995	103.224	19.834	3.866	0.474
212.000	182.222	80.004	19.996	103.236	19.836	3.739	0.495
214.000	183.165	80.003	19.995	103.220	19.832	3.999	0.488
216.000	184.112	80.004	19.994	103.220	19.832	4.033	0.465
218.000	185.122	80.003	19.995	103.219	19.834	3.864	0.471
220.000	186.143	80.004	19.995	103.220	19.830	4.166	0.523
222.000	187.129	80.003	19.995	103.222	19.832	4.017	0.485
224.000	188.137	80.003	19.996	103.220	19.834	3.921	0.516
226.000	189.065	80.003	19.995	103.219	19.831	4.114	0.461
228.000	190.068	80.003	19.995	103.220	19.829	4.192	0.495
230.000	191.073	80.003	19.995	103.220	19.827	4.392	0.503
232.000	192.036	80.002	19.994	103.222	19.829	4.239	0.495
234.000	192.997	80.005	19.994	103.222	19.828	4.304	0.480
236.000	193.982	80.005	19.996	103.222	19.830	4.159	0.471
238.000	194.964	80.004	19.995	103.223	19.828	4.294	0.477
240.000	195.912	80.004	19.996	103.221	19.827	4.344	0.487
242.000	196.852	80.003	19.995	103.221	19.824	4.572	0.470
244.000	197.861	80.000	19.995	103.221	19.829	4.237	0.488
246.000	198.829	80.002	19.995	103.223	19.824	4.584	0.495
248.000	199.820	80.002	19.996	103.225	19.824	4.554	0.486
250.000	200.829	80.002	19.996	103.223	19.823	4.624	0.490
252.000	201.793	80.003	19.995	103.223	19.821	4.731	0.471
254.000	202.775	80.001	19.995	103.224	19.819	4.910	0.496
256.000	203.738	80.001	19.995	103.225	19.824	4.553	0.478
258.000	204.781	80.000	19.996	103.224	19.822	4.681	0.517
260.000	205.751	80.002	19.996	103.225	19.820	4.813	0.478
262.000	206.724	80.001	19.996	103.221	19.820	4.830	0.530
264.000	207.750	80.002	19.996	103.220	19.819	4.882	0.491
266.000	208.738	80.001	19.996	103.220	19.820	4.815	0.478
268.000	209.712	80.003	19.994	103.221	19.819	4.884	0.509
270.000	210.735	80.002	19.995	103.220	19.816	5.091	0.522
272.000	211.702	80.003	19.997	103.219	19.816	5.088	0.482
274.000	212.695	80.003	19.996	103.221	19.811	5.420	0.496
276.000	213.684	80.001	19.997	103.218	19.813	5.313	0.500
278.000	214.728	80.001	19.997	103.217	19.812	5.362	0.515
280.000	215.687	80.001	19.996	103.218	19.808	5.658	0.479
282.000	216.675	80.001	19.996	103.217	19.808	5.613	0.522
284.000	217.671	80.002	19.997	103.217	19.808	5.637	0.499
286.000	218.616	80.002	19.996	103.218	19.807	5.684	0.524
288.000	219.627	80.004	19.995	103.218	19.807	5.684	0.499
290.000	220.619	80.004	19.995	103.220	19.804	5.889	0.507
292.000	221.593	80.003	19.995	103.218	19.805	5.869	0.483
294.000	222.538	80.003	19.995	103.217	19.805	5.871	0.485
296.000	223.537	80.003	19.996	103.218	19.804	5.915	0.484
298.000	224.518	80.003	19.994	103.211	19.800	6.186	0.507
300.000	225.501	80.003	19.996	103.219	19.798	6.339	0.492
302.000	226.508	80.002	19.995	103.221	19.802	6.037	0.484
304.000	227.495	80.003	19.996	103.223	19.800	6.206	0.521
306.000	228.504	80.002	19.995	103.222	19.802	6.069	0.515
308.000	229.485	80.003	19.996	103.222	19.801	6.133	0.508
310.000	230.510	80.003	19.994	103.222	19.797	6.353	0.514
312.000	231.464	80.003	19.996	103.223	19.797	6.380	0.479
314.000	232.447	80.003	19.995	103.221	19.794	6.591	0.504
316.000	233.460	80.003	19.995	103.222	19.792	6.745	0.528
318.000	234.449	80.005	19.994	103.221	19.791	6.758	0.496
320.000	235.499	80.006	19.994	103.220	19.791	6.762	0.504
322.000	236.453	80.005	19.994	103.222	19.786	7.122	0.512
324.000	237.476	80.005	19.994	103.222	19.787	7.042	0.483
326.000	238.451	80.004	19.995	103.219	19.782	7.384	0.473
328.000	239.490	80.002	19.996	103.220	19.782	7.422	0.509
330.000	240.442	80.003	19.995	103.220	19.782	7.389	0.529
332.000	241.437	80.001	19.996	103.219	19.779	7.584	0.524
334.000	242.432	80.002	19.996	103.220	19.777	7.758	0.506
336.000	243.419	80.002	19.994	103.219	19.777	7.758	0.497
338.000	244.425	80.002	19.996	103.220	19.773	7.968	0.515
340.000	245.398	80.002	19.996	103.226	19.771	8.145	0.503
342.000	246.421	80.002	19.996	103.222	19.769	8.249	0.486
344.000	247.440	80.000	19.996	103.223	19.768	8.364	0.516
346.000	248.428	80.003	19.995	103.220	19.763	8.653	0.498
348.000	249.472	80.003	19.996	103.223	19.761	8.822	0.515
350.000	250.515	80.003	19.994	103.226	19.755	9.226	0.524
352.000	251.499	80.000	19.995	103.219	19.755	9.193	0.497
354.000	252.490	80.003	19.995	103.222	19.751	9.471	0.496
356.000	253.486	80.002	19.995	103.225	19.747	9.740	0.503
358.000	254.532	80.001	19.995	103.221	19.748	9.689	0.529
360.000	255.537	80.001	19.995	103.225	19.741	10.135	0.525
362.000	256.510	80.002	19.996	103.234	19.735	10.546	0.506
364.000	257.502	80.000	19.995	103.226	19.733	10.669	0.510
366.000	258.535	80.001	19.996	103.228	19.726	11.159	0.527
368.000	259.537	80.003	19.997	103.223	19.718	11.709	0.498
370.000	260.507	80.001	19.996	103.235	19.718	11.677	0.461
372.000	261.542	80.003	19.995	103.245	19.711	12.200	0.532
374.000	262.521	80.004	19.996	103.225	19.706	12.487	0.502
376.000	263.513	80.004	19.995	103.230	19.697	13.090	0.486
378.000	264.520	80.003	19.996	103.246	19.690	13.583	0.488
380.000	265.533	80.003	19.994	103.246	19.688	13.698	0.509
382.000	266.533	80.002	19.994	103.253	19.679	14.344	0.499
384.000	267.547	80.002	19.995	103.239	19.671	14.891	0.517
386.000	268.543	80.004	19.995	103.250	19.665	15.289	0.507
388.000	269.556	80.002	19.995	103.256	19.659	15.659	0.506
390.000	270.557	80.003	19.994	103.256	19.649	16.361	0.531
392.000	271.594	80.004	19.995	103.259	19.643	16.790	0.536
394.000	272.588	80.002	19.995	103.262	19.635	17.332	0.490
396.000	273.608	80.005	19.994	103.259	19.626	17.896	0.501
398.000	274.625	80.004	19.995	103.262	19.620	18.328	0.512
400.000	275.608	80.004	19.995	103.263	19.612	18.856	0.487
402.000	276.573	80.005	19.995	103.273	19.602	19.549	0.485
404.000	277.589	80.004	19.995	103.275	19.591	20.252	0.481
406.000	278.599	80.003	19.995	103.285	19.584	20.741	0.504
408.000	279.609	80.002	19.995	103.289	19.574	21.452	0.514
410.000	280.617	80.003	19.995	103.284	19.566	21.942	0.519
412.000	281.632	80.002	19.995	103.289	19.557	22.591	0.521
414.000	282.622	80.003	19.995	103.295	19.547	23.227	0.515
416.000	283.597	80.003	19.995	103.297	19.536	23.980	0.493
418.000	284.621	80.002	19.995	103.298	19.527	24.603	0.501
420.000	285.591	80.003	19.995	103.298	19.516	25.343	0.468
422.000	286.558	80.003	19.994	103.301	19.505	26.080	0.499
424.000	287.601	80.002	19.995	103.300	19.495	26.731	0.525
426.000	288.606	80.001	19.995	103.306	19.484	27.531	0.479
428.000	289.542	80.002	19.995	103.320	19.476	28.005	0.491
430.000	290.556	80.001	19.995	103.317	19.466	28.691	0.494
432.000	291.608	80.001	19.995	103.324	19.453	29.598	0.502
434.000	292.586	80.001	19.996	103.333	19.445	30.127	0.472
436.000	293.569	80.001	19.995	103.332	19.437	30.675	0.494
438.000	294.554	80.001	19.996	103.334	19.427	31.346	0.486
440.000	295.606	80.001	19.996	103.330	19.418	31.933	0.532
442.000	296.567	80.000	19.996	103.330	19.410	32.493	0.482
444.000	297.591	80.001	19.995	103.339	19.403	32.934	0.510
446.000	298.552	80.000	19.996	103.341	19.394	33.536	0.483
448.000	299.580	80.002	19.994	103.340	19.382	34.398	0.520
450.000	300.562	80.002	19.994	103.339	19.380	34.537	0.516
452.000	301.554	80.001	19.995	103.340	19.374	34.917	0.503
454.000	302.587	80.003	19.994	103.339	19.362	35.743	0.500
456.000	303.596	80.003	19.995	103.336	19.360	35.862	0.500
458.000	304.585	80.002	19.996	103.334	19.356	36.149	0.525
460.000	305.612	80.003	19.996	103.333	19.351	36.475	0.516
462.000	306.602	80.004	19.996	103.335	19.346	36.786	0.509
464.000	307.605	80.002	19.996	103.334	19.340	37.207	0.498
466.000	308.612	80.003	19.997	103.335	19.333	37.651	0.488
468.000	309.637	80.002	19.998	103.335	19.330	37.860	0.514
470.000	310.609	80.005	19.997	103.335	19.327	38.094	0.497
472.000	311.664	80.004	19.996	103.336	19.319	38.605	0.544
474.000	312.680	80.003	19.997	103.337	19.314	38.964	0.518
476.000	313.700	80.006	19.995	103.337	19.312	39.099	0.518
478.000	314.773	80.004	19.996	103.335	19.308	39.350	0.532
480.000	315.731	80.005	19.995	103.340	19.304	39.622	0.521
482.000	316.754	80.006	19.995	103.344	19.298	40.039	0.530
484.000	317.734	80.005	19.994	103.334	19.290	40.558	0.530
486.000	318.746	80.004	19.994	103.335	19.285	40.937	0.477
488.000	319.776	80.004	19.995	103.339	19.281	41.221	0.475
490.000	320.767	80.002	19.996	103.337	19.272	41.828	0.497
492.000	321.799	80.001	19.995	103.339	19.263	42.386	0.519
494.000	322.782	80.001	19.996	103.349	19.261	42.590	0.503
496.000	323.795	80.002	19.995	103.360	19.254	43.049	0.524
498.000	324.772	80.003	19.995	103.353	19.246	43.546	0.475
500.000	325.789	80.001	19.995	103.363	19.238	44.081	0.517
502.000	326.800	80.002	19.995	103.374	19.227	44.863	0.528
504.000	327.789	80.001	19.995	103.369	19.218	45.452	0.530
506.000	328.743	80.003	19.993	103.377	19.211	45.950	0.496
508.000	329.757	80.002	19.995	103.378	19.197	46.877	0.482
510.000	330.755	80.004	19.994	103.378	19.187	47.546	0.506
512.000	331.796	80.003	19.995	103.380	19.178	48.162	0.516
514.000	332.777	80.002	19.995	103.380	19.162	49.269	0.532
516.001	333.728	80.002	19.994	103.394	19.152	49.961	0.491
518.000	334.747	80.003	19.996	103.399	19.137	50.954	0.478
520.000	335.763	80.003	19.996	103.412	19.120	52.075	0.517
522.000	336.713	80.001	19.996	103.409	19.106	53.070	0.505
524.000	337.738	80.001	19.996	103.407	19.093	53.958	0.490
526.000	338.754	80.000	19.996	103.417	19.069	55.538	0.521
528.000	339.689	80.001	19.996	103.421	19.059	56.240	0.465
530.000	340.716	80.001	19.996	103.422	19.037	57.684	0.505
532.000	341.714	80.002	19.997	103.437	19.017	59.050	0.486
534.000	342.683	80.002	19.996	103.443	19.002	60.107	0.494
536.000	343.652	80.003	19.995	103.453	18.983	61.361	0.490
538.000	344.631	80.006	19.995	103.454	18.965	62.588	0.484
540.000	345.614	80.004	19.996	103.454	18.944	64.050	0.498
542.000	346.633	80.003	19.996	103.456	18.923	65.464	0.479
544.000	347.632	80.003	19.994	103.468	18.902	66.844	0.510
546.000	348.613	80.001	19.996	103.490	18.884	68.091	0.488
548.000	349.638	80.002	19.997	103.491	18.865	69.379	0.520
550.000	350.673	80.002	19.995	103.499	18.847	70.578	0.522
552.000	351.706	80.002	19.996	103.494	18.827	71.979	0.514
554.000	352.759	80.002	19.996	103.520	18.806	73.368	0.533
556.000	353.854	80.003	19.995	103.525	18.787	74.685	0.576
558.000	354.914	80.004	19.996	103.527	18.766	76.047	0.534
560.000	356.012	80.002	19.997	103.531	18.750	77.178	0.537
562.000	357.050	80.006	19.994	103.531	18.736	78.100	0.554
564.000	358.163	80.005	19.994	103.531	18.721	79.103	0.566
566.000	359.227	80.005	19.995	103.531	18.707	80.021	0.533
568.000	360.302	80.004	19.995	103.531	18.698	80.614	0.537
570.000	361.368	80.002	19.995	103.531	18.677	82.056	0.463
572.000	362.414	80.001	19.994	103.530	18.674	82.278	0.498
574.000	363.522	80.003	19.994	103.516	18.672	82.352	0.527
576.000	364.640	80.002	19.995	103.514	18.674	82.203	0.541
578.000	365.695	80.003	19.994	103.508	18.682	81.641	0.526
580.000	366.793	80.004	19.995	103.498	18.687	81.346	0.603
582.000	367.967	80.004	19.995	103.492	18.701	80.381	0.455
584.000	368.800	80.004	19.995	103.479	18.719	79.116	0.607
586.000	370.016	80.004	19.995	103.461	18.739	77.722	0.384
588.000	371.032	80.002	19.995	103.432	18.763	76.143	0.520
590.000	372.155	80.003	19.995	103.416	18.793	74.089	0.532
592.000	373.289	80.002	19.995	103.398	18.827	71.752	0.558
594.000	374.351	80.002	19.995	103.369	18.868	68.983	0.494
596.000	375.446	80.002	19.995	103.354	18.908	66.295	0.531
598.000	376.506	80.004	19.996	103.325	18.957	63.000	0.574
600.000	377.549	80.004	19.995	103.303	19.005	59.765	0.475
602.000	378.581	80.003	19.995	103.284	19.060	55.992	0.495
604.000	379.632	80.003	19.995	103.261	19.118	52.124	0.526
606.000	380.631	80.004	19.994	103.250	19.173	48.417	0.516
608.000	381.727	80.002	19.993	103.238	19.228	44.693	0.538
610.000	382.738	80.002	19.995	103.217	19.282	41.046	0.507
612.000	383.780	80.004	19.995	103.203	19.337	37.329	0.533
614.000	384.770	80.002	19.997	103.183	19.390	33.764	0.509
616.000	385.792	80.004	19.994	103.180	19.440	30.401	0.497
618.000	386.842	80.003	19.997	103.176	19.480	27.690	0.517
620.000	387.841	80.004	19.995	103.171	19.527	24.538	0.511
622.000	388.860	80.003	19.996	103.156	19.565	21.991	0.498
624.000	389.872	80.003	19.995	103.153	19.596	19.932	0.503
626.000	390.869	80.004	19.996	103.149	19.622	18.156	0.494
628.000	391.918	80.004	19.997	103.144	19.647	16.485	0.548
630.000	392.879	80.003	19.995	103.144	19.668	15.072	0.510
632.000	393.908	80.002	19.995	103.145	19.686	13.843	0.520
634.000	394.895	80.002	19.994	103.145	19.705	12.591	0.511
636.000	395.881	80.003	19.995	103.148	19.718	11.698	0.502
638.000	396.843	80.002	19.996	103.143	19.723	11.354	0.495
640.000	397.782	80.004	19.995	103.143	19.734	10.603	0.471
642.000	398.741	80.006	19.996	103.144	19.739	10.284	0.460
644.000	399.716	80.005	19.995	103.144	19.743	10.039	0.486
646.000	400.673	80.004	19.996	103.147	19.749	9.623	0.485
648.000	401.573	80.003	19.996	103.142	19.750	9.570	0.454
650.000	402.535	80.005	19.997	103.139	19.758	9.029	0.474
652.000	403.461	80.004	19.996	103.136	19.760	8.883	0.467
654.000	404.389	80.003	19.996	103.139	19.762	8.733	0.464
656.000	405.332	80.003	19.996	103.138	19.761	8.786	0.470
658.000	406.196	80.003	19.996	103.141	19.765	8.531	0.456
660.000	407.188	80.003	19.995	103.140	19.769	8.252	0.496
662.000	408.080	80.004	19.995	103.135	19.769	8.270	0.437
664.000	409.016	80.004	19.996	103.139	19.770	8.177	0.463
666.000	409.948	80.002	19.996	103.140	19.776	7.789	0.471
668.000	410.888	80.004	19.996	103.141	19.769	8.235	0.499
670.000	411.846	80.004	19.995	103.140	19.773	7.976	0.498
672.000	412.769	80.003	19.996	103.142	19.775	7.859	0.459
674.000	413.741	80.004	19.995	103.143	19.778	7.682	0.500
676.000	414.673	80.004	19.995	103.141	19.781	7.442	0.518
678.000	415.604	80.004	19.995	103.144	19.781	7.478	0.489
680.000	416.552	80.002	19.996	103.143	19.783	7.313	0.434
682.000	417.524	80.003	19.995	103.143	19.781	7.467	0.494
684.000	418.489	80.003	19.995	103.145	19.783	7.335	0.479
686.000	419.425	80.002	19.995	103.148	19.781	7.456	0.487
688.000	420.478	80.001	19.996	103.145	19.784	7.238	0.492
690.000	421.455	80.002	19.995	103.146	19.783	7.351	0.503
692.000	422.442	80.002	19.994	103.145	19.784	7.265	0.493
694.000	423.435	80.003	19.994	103.144	19.787	7.055	0.503
696.000	424.390	80.004	19.994	103.145	19.787	7.017	0.480
698.000	425.403	80.004	19.995	103.145	19.787	7.039	0.493
700.000	426.429	80.005	19.995	103.144	19.786	7.090	0.526
702.000	427.402	80.004	19.995	103.145	19.787	7.079	0.468
704.000	428.424	80.004	19.995	103.140	19.787	7.040	0.528
706.000	429.464	80.002	19.994	103.144	19.790	6.861	0.534
708.000	430.398	80.003	19.996	103.146	19.786	7.142	0.490
710.000	431.477	80.004	19.995	103.145	19.788	6.991	0.532
712.000	432.488	80.003	19.995	103.148	19.790	6.849	0.496
714.000	433.508	80.004	19.997	103.146	19.794	6.604	0.497
716.000	434.580	80.005	19.996	103.147	19.792	6.713	0.537
718.000	435.657	80.004	19.996	103.146	19.795	6.530	0.533
720.000	436.700	80.004	19.995	103.141	19.794	6.597	0.528
722.000	437.751	80.005	19.995	103.141	19.795	6.497	0.540
724.000	438.815	80.005	19.997	103.139	19.796	6.464	0.528
726.000	439.896	80.006	19.994	103.140	19.795	6.541	0.525
728.000	440.939	80.008	19.995	103.141	19.800	6.186	0.519
730.000	442.004	80.006	19.996	103.140	19.799	6.272	0.511
732.000	443.082	80.004	19.995	103.138	19.802	6.016	0.500
734.000	444.170	80.005	19.994	103.140	19.800	6.159	0.548
736.000	445.255	80.001	19.995	103.139	19.800	6.150	0.554
738.000	446.313	80.002	19.997	103.140	19.799	6.212	0.516
740.000	447.371	80.003	19.997	103.140	19.803	5.976	0.529
742.000	448.458	80.003	19.997	103.139	19.805	5.845	0.543
744.000	449.523	80.001	19.997	103.139	19.808	5.665	0.555
746.000	450.601	80.002	19.996	103.140	19.809	5.534	0.529
748.000	451.643	80.001	19.997	103.139	19.809	5.582	0.509
750.000	452.702	80.002	19.997	103.139	19.805	5.848	0.503
752.000	453.766	80.003	19.998	103.141	19.806	5.743	0.545
754.000	454.811	80.001	19.996	103.143	19.809	5.541	0.527
756.000	455.922	80.001	19.996	103.142	19.812	5.370	0.531
758.000	456.953	80.003	19.994	103.142	19.812	5.363	0.532
760.000	458.017	80.002	19.996	103.141	19.814	5.200	0.520
762.000	459.083	80.001	19.995	103.137	19.816	5.073	0.538
764.000	460.090	80.002	19.994	103.126	19.813	5.276	0.485
766.000	461.165	80.002	19.996	103.134	19.814	5.256	0.548
768.000	462.156	80.001	19.995	103.131	19.817	5.022	0.505
770.000	463.189	80.001	19.995	103.136	19.820	4.822	0.505
772.000	464.192	80.001	19.996	103.136	19.820	4.832	0.498
774.000	465.215	80.000	19.995	103.127	19.820	4.855	0.500
776.000	466.171	80.001	19.995	103.134	19.817	5.011	0.487
778.000	467.169	80.002	19.996	103.137	19.821	4.742	0.469
780.000	468.171	80.003	19.995	103.128	19.825	4.470	0.500
782.000	469.172	80.004	19.995	103.120	19.824	4.535	0.540
784.000	470.170	80.005	19.994	103.123	19.826	4.448	0.517
786.000	471.166	80.005	19.994	103.134	19.827	4.334	0.478
788.000	472.094	80.005	19.995	103.133	19.827	4.352	0.471
790.000	473.139	80.004	19.996	103.136	19.825	4.466	0.531
792.000	474.143	80.004	19.994	103.134	19.827	4.337	0.518
794.000	475.115	80.003	19.994	103.129	19.829	4.240	0.478
796.000	476.123	80.005	19.995	103.132	19.828	4.295	0.480
798.000	477.063	80.004	19.995	103.137	19.828	4.308	0.467
800.000	478.054	80.005	19.995	103.132	19.830	4.123	0.453
802.000	479.052	80.005	19.995	103.136	19.830	4.186	0.463
804.000	480.060	80.005	19.996	103.116	19.827	4.324	0.484
806.000	481.059	80.005	19.996	103.125	19.826	4.423	0.473
808.000	482.069	80.006	19.995	103.124	19.827	4.364	0.510
810.000	483.027	80.005	19.995	103.131	19.827	4.363	0.500
812.000	484.015	80.005	19.996	103.133	19.830	4.182	0.501
814.000	485.002	80.004	19.995	103.129	19.831	4.066	0.506
816.000	486.004	80.004	19.995	103.134	19.829	4.250	0.509
818.000	486.983	80.002	19.996	103.131	19.828	4.270	0.478
820.001	487.969	80.002	19.995	103.136	19.830	4.148	0.497
822.000	488.995	80.002	19.995	103.130	19.830	4.175	0.512
824.000	490.035	80.003	19.996	103.132	19.832	4.041	0.512
826.000	491.034	80.002	19.995	103.136	19.833	3.950	0.497
828.000	492.050	80.002	19.997	103.135	19.832	4.025	0.507
830.000	493.053	80.003	19.996	103.122	19.832	4.019	0.508
832.000	494.064	80.001	19.997	103.124	19.833	3.951	0.486
834.000	495.124	80.001	19.997	103.137	19.830	4.157	0.539
836.000	496.108	80.001	19.996	103.136	19.831	4.097	0.491
838.000	497.180	80.001	19.997	103.136	19.829	4.217	0.542
840.000	498.177	80.002	19.997	103.128	19.830	4.179	0.519
842.000	499.225	80.001	19.996	103.121	19.834	3.906	0.520
844.000	500.219	80.003	19.996	103.123	19.832	4.035	0.524
846.001	501.249	80.003	19.996	103.129	19.833	3.975	0.527
848.000	502.267	80.002	19.995	103.119	19.836	3.747	0.516
850.000	503.202	80.001	19.997	103.132	19.835	3.812	0.470
852.000	504.256	80.003	19.995	103.129	19.838	3.638	0.530
854.000	505.267	80.002	19.995	103.129	19.836	3.734	0.512
856.000	506.274	80.001	19.995	103.134	19.836	3.765	0.516
858.000	507.302	80.002	19.995	103.127	19.837	3.712	0.530
860.000	508.309	80.002	19.995	103.129	19.839	3.545	0.512
862.000	509.395	80.003	19.995	103.137	19.840	3.512	0.527
864.000	510.376	80.004	19.995	103.134	19.838	3.621	0.503
866.000	511.402	80.004	19.994	103.139	19.840	3.463	0.475
868.000	512.420	80.004	19.995	103.137	19.836	3.777	0.521
870.000	513.459	80.005	19.995	103.124	19.837	3.683	0.500
872.000	514.490	80.004	19.994	103.122	19.835	3.805	0.530
874.000	515.556	80.004	19.996	103.129	19.836	3.730	0.532
876.000	516.594	80.004	19.996	103.126	19.835	3.843	0.522
878.000	517.623	80.003	19.996	103.118	19.833	3.951	0.500
880.000	518.643	80.003	19.995	103.123	19.836	3.743	0.506
882.000	519.669	80.005	19.994	103.136	19.839	3.569	0.514
884.000	520.710	80.004	19.995	103.133	19.837	3.713	0.522
886.000	521.754	80.005	19.995	103.137	19.838	3.589	0.521
888.000	522.780	80.006	19.995	103.142	19.838	3.598	0.520
890.000	523.786	80.006	19.995	103.137	19.836	3.719	0.526
892.000	524.780	80.005	19.993	103.124	19.840	3.480	0.494
894.000	525.834	80.006	19.996	103.124	19.839	3.514	0.524
896.000	526.850	80.004	19.994	103.118	19.835	3.821	0.509
898.000	527.900	80.002	19.995	103.134	19.838	3.594	0.558
900.000	528.915	80.002	19.995	103.123	19.839	3.518	0.500
902.000	529.913	80.001	19.995	103.126	19.838	3.587	0.490
904.000	530.941	80.002	19.995	103.130	19.839	3.534	0.496
906.000	531.990	80.004	19.996	103.114	19.837	3.698	0.522
908.000	532.994	80.003	19.996	103.116	19.839	3.549	0.535
910.000	534.005	80.002	19.995	103.123	19.839	3.581	0.487
912.000	535.054	80.002	19.994	103.132	19.840	3.477	0.550
914.000	536.091	80.003	19.996	103.121	19.838	3.635	0.534
916.000	537.076	80.002	19.996	103.116	19.842	3.345	0.481
918.000	538.100	80.002	19.995	103.128	19.839	3.552	0.503
920.000	539.166	80.003	19.996	103.119	19.837	3.710	0.540
922.000	540.172	80.003	19.996	103.108	19.836	3.728	0.512
924.000	541.188	80.003	19.996	103.111	19.834	3.903	0.509
926.000	542.264	80.002	19.999	103.110	19.836	3.783	0.528
928.000	543.283	80.003	19.996	103.114	19.838	3.596	0.544
930.000	544.320	80.001	19.997	103.121	19.838	3.631	0.526
932.000	545.268	80.001	19.997	103.112	19.837	3.674	0.507
934.000	546.317	80.001	19.996	103.114	19.838	3.641	0.510
936.000	547.354	80.002	19.995	103.126	19.838	3.645	0.519
938.000	548.375	80.001	19.996	103.118	19.836	3.779	0.518
940.000	549.400	80.001	19.995	103.115	19.837	3.663	0.493
942.000	550.443	80.003	19.996	103.116	19.839	3.536	0.518
944.000	551.506	80.004	19.995	103.126	19.840	3.503	0.536
946.000	552.537	80.005	19.995	103.123	19.839	3.559	0.514
948.000	553.556	80.005	19.996	103.123	19.841	3.425	0.502
950.000	554.598	80.006	19.996	103.111	19.837	3.668	0.524
952.000	555.625	80.004	19.996	103.119	19.838	3.586	0.530
954.000	556.685	80.004	19.996	103.118	19.838	3.635	0.531
956.000	557.723	80.002	19.995	103.126	19.839	3.558	0.523
958.000	558.776	80.003	19.995	103.108	19.839	3.579	0.549
960.000	559.776	80.003	19.995	103.116	19.839	3.519	0.513
962.000	560.794	80.003	19.994	103.116	19.839	3.533	0.525
964.000	561.848	80.003	19.995	103.113	19.839	3.577	0.520
966.000	562.870	80.003	19.996	103.120	19.837	3.652	0.508
968.000	563.894	80.004	19.994	103.115	19.838	3.646	0.527
970.000	564.902	80.004	19.994	103.118	19.835	3.814	0.493
972.000	565.933	80.005	19.995	103.108	19.838	3.612	0.522
974.000	566.975	80.006	19.993	103.116	19.838	3.637	0.505
976.000	568.040	80.005	19.994	103.114	19.841	3.441	0.551
978.000	569.059	80.005	19.995	103.113	19.836	3.732	0.522
980.000	570.053	80.004	19.995	103.116	19.838	3.626	0.526
982.000	571.101	80.002	19.995	103.118	19.835	3.833	0.523
984.000	572.107	80.002	19.994	103.113	19.838	3.617	0.474
986.000	573.169	80.003	19.995	103.112	19.837	3.715	0.530
988.000	574.207	80.003	19.995	103.121	19.838	3.601	0.548
990.000	575.278	80.002	19.995	103.114	19.839	3.517	0.552
992.000	576.298	80.003	19.996	103.113	19.839	3.539	0.516
994.000	577.337	80.003	19.995	103.111	19.839	3.539	0.530
996.000	578.329	80.003	19.995	103.113	19.837	3.686	0.509
998.000	579.351	80.003	19.996	103.105	19.837	3.681	0.510
1000.000	580.409	80.005	19.994	103.115	19.839	3.542	0.520
1002.000	581.418	80.003	19.996	103.112	19.839	3.541	0.491
1004.000	582.455	80.003	19.995	103.105	19.842	3.377	0.532
1006.000	583.476	80.004	19.997	103.112	19.836	3.753	0.509
1008.000	584.488	80.003	19.996	103.107	19.841	3.392	0.516
1010.000	585.544	80.003	19.995	103.108	19.837	3.659	0.527
1012.000	586.534	80.002	19.995	103.107	19.837	3.668	0.509
1014.000	587.600	80.003	19.995	103.114	19.837	3.655	0.526
1016.000	588.606	80.002	19.995	103.112	19.839	3.546	0.531
1018.000	589.644	80.003	19.994	103.107	19.837	3.715	0.533
1020.000	590.640	80.002	19.995	103.107	19.838	3.588	0.513
1022.000	591.666	80.002	19.996	103.108	19.834	3.851	0.528
1024.000	592.711	80.003	19.996	103.107	19.836	3.761	0.507
1026.000	593.740	80.005	19.996	103.111	19.843	3.287	0.541
1028.000	594.789	80.003	19.996	103.107	19.836	3.782	0.521
1030.000	595.792	80.005	19.997	103.113	19.839	3.566	0.539
1032.000	596.841	80.004	19.996	103.109	19.838	3.606	0.517
1034.001	597.835	80.004	19.994	103.120	19.839	3.517	0.505
1036.000	598.889	80.004	19.996	103.119	19.836	3.777	0.516
1038.000	599.940	80.003	19.995	103.107	19.834	3.858	0.534
1040.000	600.940	80.004	19.996	103.106	19.834	3.875	0.513
1042.000	601.988	80.004	19.993	103.107	19.835	3.810	0.525
1044.001	602.966	80.004	19.994	103.106	19.838	3.630	0.484
1046.001	604.010	80.005	19.995	103.108	19.836	3.753	0.492
1048.000	605.015	80.004	19.995	103.108	19.837	3.664	0.498
1050.000	606.047	80.004	19.995	103.103	19.836	3.741	0.489
1052.000	607.069	80.005	19.994	103.114	19.839	3.577	0.523
1054.000	608.110	80.006	19.996	103.121	19.841	3.414	0.535
1056.000	609.142	80.006	19.994	103.115	19.841	3.394	0.517
1058.000	610.144	80.006	19.994	103.114	19.836	3.781	0.517
1060.000	611.205	80.005	19.994	103.104	19.838	3.592	0.531
1062.001	612.225	80.004	19.994	103.117	19.841	3.424	0.501
1064.000	613.266	80.003	19.996	103.104	19.840	3.476	0.508
1066.000	614.295	80.003	19.995	103.109	19.841	3.405	0.533
1068.000	615.331	80.004	19.996	103.107	19.840	3.501	0.472
1070.001	616.380	80.004	19.995	103.123	19.837	3.670	0.528
1072.000	617.381	80.003	19.996	103.110	19.839	3.566	0.491
1074.000	618.405	80.004	19.995	103.111	19.839	3.521	0.526
1076.000	619.457	80.004	19.995	103.130	19.836	3.739	0.513
1078.000	620.445	80.004	19.995	103.121	19.837	3.715	0.498
1080.000	621.474	80.003	19.995	103.111	19.838	3.590	0.497
1082.001	622.507	80.003	19.994	103.112	19.839	3.529	0.507
1084.000	623.530	80.003	19.995	103.109	19.840	3.452	0.502
1086.000	624.542	80.002	19.996	103.118	19.839	3.535	0.501
1088.001	625.588	80.002	19.995	103.108	19.840	3.461	0.508
1090.000	626.583	80.002	19.996	103.107	19.840	3.486	0.522
1092.000	627.626	80.001	19.996	103.124	19.842	3.336	0.540
1094.000	628.628	80.002	19.995	103.113	19.838	3.626	0.508
1096.000	629.665	80.002	19.996	103.112	19.842	3.368	0.514
1098.000	630.722	80.001	19.995	103.108	19.842	3.335	0.516
1100.001	631.727	80.003	19.995	103.111	19.841	3.415	0.522
1102.000	632.730	80.002	19.996	103.117	19.839	3.539	0.494
1104.001	633.783	80.004	19.994	103.117	19.838	3.599	0.523
1106.000	634.830	80.004	19.994	103.104	19.841	3.437	0.529
1108.000	635.835	80.003	19.995	103.104	19.837	3.700	0.498
1110.000	636.882	80.004	19.994	103.104	19.839	3.513	0.492
1112.000	637.944	80.005	19.995	103.108	19.842	3.359	0.516
1114.001	638.929	80.003	19.995	103.107	19.839	3.517	0.489
1116.000	639.982	80.003	19.996	103.104	19.837	3.657	0.516
1118.000	640.963	80.003	19.996	103.103	19.839	3.570	0.483
1120.000	642.001	80.002	19.996	103.103	19.838	3.608	0.509
1122.000	643.030	80.003	19.996	103.105	19.837	3.697	0.509
1124.000	644.054	80.005	19.995	103.107	19.838	3.644	0.489
1126.000	645.086	80.003	19.995	103.102	19.837	3.661	0.529
1128.000	646.085	80.005	19.996	103.103	19.840	3.506	0.491
1130.000	647.114	80.005	19.995	103.115	19.839	3.566	0.510
1132.000	648.098	80.006	19.994	103.106	19.840	3.511	0.488
1134.000	649.141	80.005	19.995	103.108	19.837	3.715	0.506
1136.000	650.174	80.015	19.993	103.103	19.837	3.709	0.511
1138.000	651.184	80.023	20.002	103.131	19.836	3.757	0.506
1140.000	652.184	80.021	20.006	103.145	19.836	3.717	0.488
1142.001	653.226	80.041	20.009	103.149	19.840	3.499	0.524
1144.001	654.222	80.040	20.009	103.153	19.839	3.567	0.508
1146.000	655.274	80.023	20.007	103.151	19.839	3.565	0.534
1148.001	656.285	80.023	20.003	103.117	19.841	3.421	0.509
1150.000	657.290	80.003	20.000	103.108	19.838	3.595	0.524
1152.000	658.294	80.002	19.997	103.113	19.834	3.884	0.503
1154.000	659.308	80.003	19.996	103.116	19.834	3.869	0.486
1156.001	660.327	80.003	19.996	103.128	19.834	3.871	0.460
1158.001	661.292	80.002	19.995	103.112	19.835	3.822	0.481
1160.000	662.327	80.004	19.995	103.107	19.830	4.183	0.510
1162.000	663.345	80.003	19.995	103.110	19.833	3.962	0.461
1164.000	664.360	80.003	19.995	103.108	19.832	4.013	0.463
1166.000	665.354	80.004	19.995	103.111	19.837	3.711	0.500
1168.000	666.355	80.003	19.994	103.115	19.834	3.855	0.493
1170.000	667.348	80.003	19.994	103.107	19.835	3.827	0.504
1172.001	668.363	80.002	19.994	103.106	19.836	3.726	0.479
1174.001	669.334	80.003	19.994	103.114	19.834	3.904	0.537
1176.000	670.390	80.003	19.997	103.109	19.838	3.613	0.492
1178.000	671.391	80.003	19.996	103.107	19.840	3.479	0.509
1180.000	672.412	80.003	19.995	103.103	19.837	3.659	0.515
1182.000	673.405	80.003	19.995	103.103	19.836	3.749	0.497
1184.000	674.421	80.003	19.995	103.105	19.835	3.813	0.488
1186.000	675.479	80.003	19.996	103.100	19.833	3.935	0.529
1188.000	676.446	80.005	19.996	103.111	19.835	3.820	0.510
1190.001	677.479	80.005	19.995	103.112	19.834	3.886	0.503
1192.000	678.456	80.005	19.994	103.101	19.831	4.093	0.490
1194.000	679.494	80.005	19.996	103.102	19.833	3.982	0.505
1196.000	680.464	80.004	19.995	103.103	19.833	3.980	0.490
1198.001	681.423	80.004	19.996	103.102	19.834	3.887	0.475
1200.000	682.441	80.003	19.995	103.103	19.833	3.977	0.496
1202.000	683.469	80.003	19.996	103.103	19.835	3.811	0.533
1204.000	684.462	80.003	19.995	103.105	19.836	3.766	0.532
1206.000	685.425	80.002	19.996	103.107	19.837	3.686	0.489
1208.001	686.510	80.004	19.996	103.102	19.835	3.800	0.572
1210.000	687.493	80.002	19.995	103.104	19.835	3.842	0.544
1212.000	688.513	80.004	19.995	103.113	19.839	3.568	0.526
1214.000	689.529	80.004	19.995	103.104	19.838	3.637	0.543
1216.000	690.531	80.006	19.995	103.103	19.836	3.735	0.525
1218.000	691.535	80.005	19.995	103.104	19.833	3.947	0.480
1220.000	692.523	80.006	19.995	103.104	19.836	3.771	0.503
1222.000	693.540	80.005	19.995	103.103	19.837	3.662	0.499
1224.000	694.576	80.004	19.995	103.104	19.834	3.884	0.499
1226.000	695.683	80.003	19.994	103.106	19.835	3.791	0.527
1228.000	696.668	80.002	19.994	103.104	19.838	3.628	0.526
1230.000	697.687	80.002	19.995	103.108	19.835	3.807	0.530
1232.000	698.665	80.003	19.995	103.108	19.836	3.724	0.518
1234.001	699.685	80.002	19.994	103.109	19.833	3.942	0.546
1236.001	700.669	80.002	19.994	103.108	19.840	3.499	0.515
1238.001	701.673	80.003	19.995	103.107	19.838	3.624	0.519
1240.000	702.659	80.001	19.994	103.107	19.838	3.613	0.489
1242.000	703.718	80.003	19.994	103.104	19.833	3.929	0.489
1244.000	704.695	80.003	19.994	103.103	19.833	3.920	0.504
1246.000	705.699	80.002	19.995	103.103	19.833	3.922	0.518
1248.000	706.708	80.003	19.995	103.104	19.832	4.004	0.506
1250.000	707.726	80.002	19.995	103.104	19.829	4.220	0.527
1252.000	708.709	80.004	19.994	103.106	19.832	4.051	0.479
1254.000	709.747	80.003	19.995	103.108	19.831	4.112	0.494
1256.000	710.748	80.003	19.994	103.109	19.830	4.171	0.507
1258.000	711.706	80.002	19.996	103.104	19.832	4.033	0.481
1260.000	712.738	80.003	19.994	103.104	19.831	4.094	0.484
1262.001	713.732	80.001	19.995	103.099	19.831	4.062	0.495
1264.000	714.758	80.003	19.995	103.102	19.835	3.802	0.502
1266.000	715.755	80.003	19.995	103.103	19.835	3.784	0.538
1268.000	716.785	80.003	19.995	103.105	19.832	4.033	0.514
1270.001	717.780	80.003	19.995	103.105	19.829	4.189	0.509
1272.000	718.830	80.003	19.995	103.103	19.831	4.082	0.534
1274.000	719.792	80.004	19.994	103.106	19.833	3.976	0.465
1276.001	720.801	80.004	19.995	103.105	19.833	3.971	0.500
1278.000	721.794	80.003	19.995	103.104	19.831	4.067	0.501
1280.001	722.804	80.003	19.995	103.100	19.832	4.051	0.462
1282.000	723.806	80.002	19.996	103.104	19.831	4.085	0.500
1284.000	724.781	80.003	19.994	103.107	19.830	4.132	0.484
1286.000	725.774	80.003	19.994	103.104	19.831	4.074	0.508
1288.000	726.783	80.003	19.995	103.104	19.829	4.220	0.498
1290.000	727.828	80.002	19.995	103.102	19.826	4.441	0.508
1292.000	728.829	80.004	19.995	103.106	19.829	4.234	0.508
1294.000	729.826	80.004	19.994	103.103	19.828	4.285	0.476
1296.001	730.845	80.005	19.995	103.102	19.832	4.005	0.512
1298.000	731.887	80.005	19.994	103.103	19.830	4.125	0.516
1300.000	732.838	80.006	19.995	103.098	19.830	4.134	0.479
1302.000	733.831	80.006	19.995	103.096	19.829	4.195	0.486
1304.000	734.878	80.004	19.997	103.101	19.828	4.305	0.518
1306.000	735.889	80.004	19.996	103.100	19.829	4.208	0.499
1308.000	736.874	80.003	19.996	103.088	19.830	4.145	0.528
1310.000	737.880	80.002	19.997	103.098	19.829	4.238	0.494
1312.000	738.878	80.003	19.996	103.084	19.830	4.170	0.490
1314.000	739.895	80.003	19.996	103.091	19.831	4.112	0.506
1316.000	740.860	80.003	19.995	103.095	19.833	3.971	0.488
1318.001	741.916	80.003	19.996	103.102	19.831	4.114	0.532
1320.000	742.882	80.003	19.995	103.102	19.831	4.100	0.495
1321.500	743.679	80.003	19.995	103.103	19.834	3.915	0.525