File: 01_Data/Basswood_Panel/MCC/Basswood_Panel_MCC_30K_min_211116_R1.txt
Sample ID:	C:\MCC\MCC Cal\Test\Basswood_Panel_MCC_30K_min_211116_R1.txt
Sample Weight (mg):	4.68
Heating Rate (C/s):	0.5
Combustor Temp (C):	900
N2 Flow Rate (cc/min):	80
O2 Flow Rate (cc/min):	20
Calibration File:	C:\MCC\MCC Cal\Coeff1 JN10440_30_210304.txt.txt
T Correction Coefficients:	0	1.024463	0
Time Shift (s):	14
*
Time (s)	Temperature (C)	N2 flow rate (cc/min)	O2 flow rate (cc/min)	Flow Rate (cc/min)	Oxygen (%)	HRR (W/g)	Heating rate (C/s)
0.000	106.963	80.004	19.998	102.982	20.312	0.159	0.021
2.000	106.963	80.000	19.994	102.984	20.311	0.250	0.028
4.000	106.978	80.001	19.996	102.984	20.313	0.106	0.018
6.000	106.967	80.001	19.995	102.985	20.309	0.388	-0.004
8.000	106.949	80.000	19.995	102.987	20.313	0.133	0.001
10.000	106.945	80.000	19.995	103.003	20.312	0.200	-0.022
12.000	106.926	80.001	19.995	103.021	20.310	0.323	-0.021
14.000	106.979	80.001	19.995	103.023	20.307	0.518	0.042
16.000	106.989	80.003	19.995	103.025	20.305	0.658	-0.005
18.000	107.064	80.003	19.995	103.025	20.301	0.942	0.034
20.001	107.097	80.002	19.994	103.030	20.303	0.755	0.020
22.000	107.152	80.003	19.994	103.047	20.298	1.105	0.065
24.000	107.222	80.003	19.996	103.096	20.296	1.298	0.047
26.000	107.340	80.002	19.994	103.118	20.291	1.634	0.030
28.000	107.461	80.001	19.995	103.138	20.288	1.810	0.061
30.000	107.627	80.002	19.993	103.139	20.281	2.278	0.100
32.001	107.806	80.000	19.995	103.141	20.279	2.451	0.098
34.000	107.992	80.001	19.993	103.152	20.280	2.370	0.110
36.001	108.235	80.003	19.994	103.161	20.276	2.645	0.139
38.000	108.460	80.001	19.994	103.173	20.277	2.572	0.110
40.001	108.734	80.003	19.995	103.183	20.274	2.820	0.156
42.000	109.098	80.004	19.993	103.200	20.268	3.174	0.171
44.000	109.379	80.004	19.994	103.216	20.266	3.325	0.134
46.000	109.785	80.003	19.994	103.217	20.263	3.556	0.206
48.000	110.139	80.003	19.995	103.217	20.264	3.459	0.206
50.000	110.588	80.002	19.994	103.219	20.262	3.623	0.253
52.000	111.032	80.000	19.995	103.233	20.259	3.801	0.202
54.000	111.526	80.000	19.996	103.240	20.259	3.841	0.262
56.000	112.021	80.001	19.994	103.244	20.259	3.807	0.252
58.001	112.534	80.001	19.994	103.250	20.259	3.852	0.252
60.001	113.116	80.002	19.994	103.254	20.255	4.063	0.261
62.000	113.686	80.001	19.994	103.255	20.257	3.932	0.286
64.000	114.285	80.001	19.996	103.256	20.261	3.653	0.319
66.000	114.993	80.002	19.994	103.255	20.261	3.674	0.369
68.000	115.593	80.000	19.995	103.258	20.258	3.884	0.332
70.000	116.253	80.001	19.996	103.258	20.258	3.871	0.348
72.000	116.961	80.001	19.995	103.256	20.255	4.125	0.330
74.001	117.650	80.000	19.995	103.254	20.254	4.148	0.365
76.000	118.347	80.001	19.997	103.257	20.256	4.009	0.362
78.000	119.074	80.000	19.998	103.257	20.255	4.065	0.355
80.000	119.919	80.000	19.995	103.257	20.259	3.848	0.406
82.000	120.639	80.000	19.995	103.257	20.255	4.101	0.377
84.000	121.451	79.999	19.995	103.264	20.253	4.222	0.399
86.000	122.178	80.000	19.994	103.260	20.255	4.061	0.390
88.000	123.068	80.001	19.995	103.260	20.254	4.161	0.434
90.000	123.823	80.001	19.995	103.260	20.254	4.159	0.369
92.000	124.672	80.001	19.993	103.260	20.254	4.131	0.424
94.000	125.560	80.001	19.994	103.258	20.255	4.063	0.426
96.001	126.403	80.003	19.994	103.257	20.255	4.127	0.430
98.000	127.252	80.004	19.994	103.256	20.254	4.157	0.453
100.001	128.112	80.004	19.995	103.256	20.255	4.082	0.398
102.001	128.987	80.002	19.993	103.256	20.248	4.544	0.431
104.001	129.870	80.003	19.995	103.255	20.252	4.267	0.409
106.000	130.791	80.002	19.994	103.256	20.249	4.475	0.434
108.000	131.698	80.002	19.995	103.255	20.253	4.243	0.444
110.001	132.614	80.001	19.995	103.256	20.251	4.359	0.483
112.000	133.530	80.003	19.995	103.256	20.251	4.350	0.464
114.000	134.430	80.004	19.995	103.255	20.250	4.468	0.465
116.000	135.374	80.003	19.995	103.256	20.251	4.363	0.434
118.000	136.305	80.003	19.993	103.257	20.251	4.393	0.516
120.000	137.237	80.003	19.994	103.256	20.252	4.277	0.488
122.000	138.162	80.004	19.994	103.257	20.253	4.260	0.478
124.000	139.177	80.004	19.995	103.256	20.250	4.458	0.493
126.000	140.088	80.005	19.993	103.255	20.246	4.717	0.475
128.000	141.091	80.004	19.993	103.257	20.249	4.473	0.522
130.000	142.058	80.003	19.994	103.257	20.249	4.492	0.495
132.000	143.037	80.001	19.994	103.258	20.252	4.287	0.516
134.000	144.046	80.000	19.994	103.258	20.253	4.260	0.519
136.000	145.057	80.000	19.994	103.258	20.255	4.088	0.451
138.000	146.076	80.000	19.994	103.258	20.248	4.576	0.496
140.001	147.077	80.001	19.995	103.256	20.249	4.493	0.506
142.000	148.048	80.000	19.995	103.242	20.248	4.603	0.497
144.000	149.070	80.001	19.994	103.244	20.249	4.532	0.521
146.000	150.091	80.001	19.998	103.250	20.249	4.515	0.522
148.000	151.118	80.002	19.995	103.248	20.251	4.365	0.524
150.000	152.138	80.002	19.995	103.239	20.255	4.075	0.516
152.000	153.093	80.002	19.994	103.233	20.252	4.293	0.495
154.001	154.094	80.004	19.994	103.228	20.252	4.290	0.498
156.000	155.085	80.001	19.994	103.241	20.252	4.320	0.503
158.000	156.088	80.001	19.996	103.225	20.252	4.330	0.510
160.000	157.107	80.002	19.996	103.230	20.250	4.443	0.522
162.000	158.133	80.002	19.997	103.235	20.247	4.664	0.530
164.000	159.197	79.999	19.996	103.232	20.252	4.268	0.525
166.000	160.139	80.000	19.994	103.230	20.253	4.198	0.535
168.000	161.162	80.000	19.996	103.228	20.253	4.210	0.489
170.000	162.197	80.002	19.995	103.224	20.249	4.483	0.524
172.000	163.161	80.001	19.996	103.217	20.254	4.152	0.498
174.000	164.148	80.003	19.995	103.217	20.246	4.698	0.512
176.000	165.189	80.001	19.996	103.218	20.248	4.544	0.519
178.000	166.223	80.004	19.995	103.217	20.250	4.425	0.494
180.000	167.229	80.003	19.994	103.219	20.250	4.445	0.501
182.000	168.218	80.003	19.995	103.217	20.252	4.317	0.514
184.000	169.241	80.002	19.994	103.216	20.245	4.750	0.484
186.000	170.272	80.002	19.995	103.217	20.250	4.449	0.513
188.000	171.233	80.003	19.995	103.219	20.253	4.209	0.511
190.000	172.199	80.001	19.995	103.216	20.248	4.577	0.467
192.000	173.186	80.003	19.995	103.207	20.254	4.189	0.509
194.000	174.179	80.002	19.995	103.201	20.253	4.228	0.520
196.000	175.145	80.002	19.996	103.209	20.251	4.365	0.503
198.001	176.136	80.003	19.995	103.210	20.250	4.423	0.499
200.000	177.092	80.003	19.995	103.192	20.252	4.299	0.494
202.000	178.082	80.005	19.994	103.206	20.251	4.391	0.506
204.000	179.003	80.003	19.993	103.202	20.250	4.440	0.450
206.000	180.017	80.004	19.994	103.205	20.246	4.700	0.499
208.000	180.969	80.003	19.994	103.215	20.246	4.709	0.503
210.000	181.955	80.002	19.994	103.216	20.248	4.595	0.541
212.000	182.846	80.001	19.993	103.218	20.247	4.614	0.443
214.000	183.846	80.003	19.994	103.218	20.246	4.698	0.498
216.000	184.819	80.002	19.994	103.218	20.244	4.827	0.476
218.000	185.814	80.001	19.995	103.217	20.242	4.959	0.483
220.000	186.774	80.002	19.994	103.216	20.242	4.975	0.494
222.000	187.752	80.003	19.995	103.217	20.245	4.774	0.479
224.000	188.717	80.002	19.995	103.212	20.240	5.147	0.492
226.000	189.699	80.002	19.994	103.213	20.242	5.003	0.531
228.000	190.694	80.002	19.995	103.208	20.242	5.020	0.488
230.000	191.620	80.001	19.995	103.206	20.240	5.113	0.480
232.000	192.610	80.002	19.994	103.212	20.237	5.303	0.452
234.000	193.596	80.002	19.995	103.214	20.240	5.146	0.496
236.000	194.623	80.002	19.995	103.212	20.233	5.579	0.505
238.000	195.598	80.002	19.996	103.212	20.237	5.313	0.504
240.000	196.529	80.001	19.995	103.216	20.239	5.179	0.468
242.000	197.545	80.001	19.994	103.199	20.237	5.352	0.505
244.000	198.480	80.001	19.995	103.209	20.235	5.436	0.486
246.000	199.447	80.000	19.995	103.205	20.233	5.586	0.435
248.000	200.434	80.002	19.996	103.208	20.232	5.687	0.503
250.000	201.386	80.000	19.994	103.212	20.234	5.530	0.509
252.000	202.365	80.002	19.996	103.215	20.230	5.797	0.528
254.000	203.341	80.001	19.997	103.208	20.230	5.844	0.496
256.000	204.396	80.001	19.995	103.199	20.231	5.756	0.521
258.000	205.314	80.002	19.996	103.210	20.231	5.752	0.459
260.000	206.328	80.003	19.996	103.218	20.226	6.117	0.485
262.000	207.339	80.002	19.995	103.206	20.225	6.181	0.472
264.000	208.339	80.001	19.995	103.207	20.225	6.155	0.490
266.000	209.291	80.002	19.995	103.199	20.226	6.119	0.485
268.000	210.298	80.002	19.994	103.196	20.223	6.325	0.543
270.000	211.297	80.002	19.994	103.207	20.220	6.509	0.506
272.000	212.306	80.002	19.993	103.199	20.225	6.159	0.527
274.000	213.251	80.002	19.995	103.210	20.223	6.298	0.523
276.000	214.236	80.002	19.995	103.202	20.225	6.175	0.481
278.000	215.208	80.003	19.995	103.204	20.217	6.728	0.493
280.000	216.244	80.003	19.995	103.203	20.219	6.545	0.523
282.000	217.201	80.004	19.994	103.192	20.219	6.587	0.481
284.000	218.203	80.003	19.995	103.196	20.219	6.594	0.497
286.000	219.204	80.003	19.994	103.197	20.215	6.832	0.468
288.000	220.200	80.002	19.996	103.194	20.214	6.942	0.490
290.000	221.182	80.004	19.995	103.194	20.209	7.251	0.502
292.000	222.190	80.001	19.995	103.208	20.207	7.401	0.476
294.000	223.194	80.001	19.996	103.207	20.208	7.331	0.486
296.000	224.187	80.000	19.995	103.200	20.202	7.707	0.497
298.000	225.210	80.002	19.994	103.210	20.204	7.576	0.516
300.000	226.188	80.003	19.995	103.213	20.204	7.590	0.523
302.001	227.196	80.001	19.995	103.214	20.204	7.604	0.495
304.000	228.161	80.002	19.994	103.207	20.197	8.051	0.497
306.000	229.243	80.002	19.994	103.209	20.200	7.889	0.522
308.000	230.205	80.002	19.995	103.205	20.200	7.882	0.499
310.000	231.272	80.002	19.995	103.209	20.197	8.064	0.536
312.000	232.190	80.003	19.995	103.209	20.195	8.222	0.504
314.000	233.258	80.003	19.994	103.196	20.190	8.541	0.521
316.000	234.239	80.002	19.995	103.212	20.194	8.285	0.488
318.000	235.218	80.002	19.995	103.209	20.187	8.749	0.473
320.001	236.244	80.001	19.997	103.210	20.191	8.468	0.515
322.000	237.242	80.001	19.995	103.201	20.186	8.849	0.479
324.000	238.227	80.001	19.995	103.202	20.184	8.995	0.485
326.000	239.204	80.001	19.995	103.203	20.181	9.168	0.461
328.000	240.227	80.000	19.996	103.203	20.178	9.398	0.554
330.000	241.238	80.002	19.996	103.200	20.179	9.326	0.553
332.000	242.216	80.001	19.995	103.209	20.177	9.429	0.487
334.000	243.263	80.002	19.996	103.217	20.175	9.586	0.539
336.000	244.264	80.001	19.995	103.216	20.174	9.676	0.529
338.000	245.243	80.003	19.995	103.203	20.170	9.938	0.501
340.000	246.236	80.003	19.995	103.212	20.169	9.990	0.483
342.000	247.284	80.002	19.994	103.214	20.165	10.284	0.505
344.000	248.259	80.002	19.995	103.217	20.162	10.484	0.537
346.000	249.207	80.001	19.994	103.215	20.160	10.655	0.554
348.001	250.310	80.003	19.996	103.214	20.159	10.670	0.549
350.000	251.297	80.002	19.996	103.213	20.157	10.812	0.521
352.000	252.306	80.002	19.996	103.214	20.146	11.614	0.520
354.000	253.283	80.003	19.995	103.214	20.150	11.300	0.489
356.000	254.289	80.004	19.995	103.214	20.144	11.705	0.533
358.000	255.324	80.002	19.995	103.215	20.140	12.000	0.515
360.000	256.287	80.004	19.995	103.213	20.137	12.226	0.460
362.000	257.274	80.004	19.994	103.213	20.131	12.597	0.486
364.000	258.282	80.004	19.993	103.216	20.129	12.769	0.472
366.000	259.242	80.004	19.994	103.217	20.122	13.226	0.501
368.001	260.213	80.004	19.994	103.220	20.119	13.476	0.474
370.000	261.197	80.003	19.994	103.216	20.112	13.963	0.487
372.000	262.191	80.001	19.995	103.215	20.108	14.195	0.486
374.000	263.241	80.002	19.995	103.217	20.100	14.728	0.483
376.000	264.214	80.001	19.994	103.217	20.094	15.152	0.513
378.000	265.195	80.001	19.995	103.226	20.088	15.572	0.486
380.000	266.211	80.002	19.995	103.228	20.083	15.901	0.500
382.000	267.231	80.002	19.995	103.230	20.076	16.441	0.490
384.000	268.223	80.001	19.994	103.238	20.067	17.068	0.477
386.000	269.209	80.003	19.995	103.249	20.061	17.423	0.535
388.000	270.234	80.002	19.994	103.253	20.055	17.867	0.565
390.000	271.259	80.001	19.994	103.256	20.045	18.518	0.535
392.000	272.253	80.002	19.994	103.257	20.037	19.084	0.490
394.000	273.256	80.002	19.994	103.258	20.027	19.792	0.491
396.000	274.278	80.002	19.994	103.257	20.018	20.396	0.509
398.000	275.287	80.002	19.994	103.257	20.010	20.958	0.533
400.000	276.275	80.001	19.995	103.258	20.003	21.412	0.515
402.000	277.287	80.001	19.995	103.260	19.994	22.059	0.527
404.000	278.214	80.001	19.994	103.262	19.986	22.642	0.467
406.000	279.286	80.000	19.995	103.263	19.978	23.189	0.490
408.000	280.270	80.001	19.994	103.260	19.967	23.900	0.481
410.000	281.211	80.001	19.996	103.265	19.957	24.650	0.486
412.000	282.222	80.001	19.996	103.280	19.947	25.317	0.464
414.000	283.223	80.002	19.996	103.276	19.935	26.141	0.513
416.000	284.194	80.002	19.995	103.282	19.926	26.744	0.508
418.000	285.260	80.002	19.995	103.286	19.914	27.557	0.504
420.000	286.220	80.002	19.995	103.291	19.903	28.349	0.495
422.000	287.233	80.002	19.995	103.293	19.895	28.882	0.500
424.000	288.281	80.004	19.995	103.294	19.886	29.540	0.537
426.001	289.195	80.002	19.995	103.294	19.875	30.271	0.491
428.000	290.284	80.001	19.994	103.294	19.860	31.311	0.526
430.000	291.295	80.001	19.994	103.294	19.851	31.919	0.525
432.000	292.296	80.001	19.995	103.295	19.844	32.425	0.519
434.000	293.344	80.002	19.995	103.294	19.831	33.271	0.500
436.000	294.346	80.003	19.996	103.294	19.820	34.072	0.544
438.000	295.336	80.003	19.995	103.304	19.812	34.577	0.495
440.000	296.372	80.002	19.996	103.300	19.807	34.937	0.480
442.000	297.381	80.004	19.996	103.306	19.794	35.848	0.507
444.000	298.438	80.004	19.996	103.311	19.790	36.110	0.559
446.000	299.385	80.004	19.995	103.302	19.786	36.411	0.514
448.000	300.385	80.003	19.995	103.316	19.777	37.000	0.512
450.000	301.403	80.002	19.994	103.312	19.769	37.541	0.510
452.000	302.395	80.002	19.994	103.316	19.762	38.061	0.468
454.000	303.472	80.001	19.993	103.315	19.757	38.400	0.522
456.000	304.479	80.001	19.994	103.326	19.754	38.623	0.551
458.001	305.498	80.002	19.995	103.327	19.744	39.307	0.543
460.000	306.526	80.002	19.996	103.320	19.737	39.783	0.524
462.000	307.549	80.000	19.995	103.329	19.732	40.131	0.466
464.000	308.549	80.002	19.995	103.329	19.727	40.467	0.517
466.000	309.584	80.000	19.995	103.318	19.724	40.674	0.497
468.000	310.670	80.002	19.995	103.325	19.720	40.929	0.561
470.000	311.680	80.001	19.993	103.333	19.714	41.341	0.507
472.000	312.665	80.002	19.996	103.330	19.713	41.427	0.536
474.000	313.766	80.002	19.995	103.333	19.704	42.060	0.516
476.000	314.648	80.002	19.994	103.318	19.702	42.179	0.542
478.000	315.806	80.001	19.995	103.324	19.696	42.590	0.505
480.000	316.819	80.002	19.994	103.328	19.693	42.825	0.486
482.000	317.748	80.001	19.995	103.327	19.681	43.634	0.502
484.000	318.770	80.002	19.994	103.328	19.680	43.733	0.445
486.000	319.826	80.001	19.995	103.327	19.674	44.095	0.564
488.000	320.816	80.001	19.995	103.326	19.669	44.440	0.553
490.000	321.777	80.001	19.994	103.329	19.655	45.453	0.513
492.000	322.767	80.002	19.994	103.334	19.650	45.780	0.545
494.000	323.863	80.002	19.993	103.335	19.648	45.931	0.558
496.000	324.531	80.003	19.994	103.334	19.632	46.998	0.474
498.000	325.707	80.003	19.995	103.335	19.631	47.082	0.435
500.000	326.856	80.003	19.995	103.334	19.619	47.920	0.470
502.000	327.694	80.002	19.996	103.334	19.607	48.779	0.493
504.000	328.492	80.002	19.995	103.334	19.600	49.212	0.400
506.000	329.501	80.002	19.994	103.337	19.587	50.121	0.341
508.000	330.849	80.002	19.994	103.340	19.581	50.570	0.423
510.000	331.339	80.001	19.994	103.351	19.572	51.135	0.236
512.000	332.704	80.003	19.996	103.359	19.564	51.726	0.558
514.000	333.757	80.001	19.995	103.370	19.549	52.775	0.510
516.000	334.787	80.003	19.995	103.374	19.537	53.574	0.555
518.000	335.701	80.003	19.994	103.374	19.525	54.414	0.544
520.000	336.569	80.005	19.996	103.375	19.506	55.709	0.696
522.000	337.609	80.003	19.995	103.377	19.489	56.912	0.657
524.000	338.552	80.005	19.995	103.387	19.476	57.819	0.555
526.000	339.601	80.003	19.995	103.395	19.456	59.170	0.524
528.000	340.656	80.002	19.994	103.408	19.440	60.268	0.626
530.000	341.740	80.002	19.994	103.412	19.422	61.518	0.440
532.000	342.528	80.000	19.995	103.412	19.407	62.577	0.415
534.000	343.793	80.000	19.995	103.413	19.399	63.163	0.457
536.000	344.392	80.000	19.995	103.416	19.370	65.145	0.759
538.000	345.816	80.002	19.995	103.426	19.359	65.920	0.973
540.000	346.151	80.002	19.996	103.442	19.336	67.523	0.039
542.000	347.113	80.001	19.996	103.448	19.322	68.425	0.492
544.000	348.671	80.001	19.995	103.451	19.303	69.766	0.588
546.000	349.541	80.002	19.995	103.451	19.283	71.166	0.764
548.000	350.704	80.002	19.996	103.452	19.263	72.575	0.791
550.000	351.605	80.001	19.995	103.466	19.246	73.743	0.437
552.000	352.392	80.000	19.993	103.459	19.220	75.537	0.209
554.000	353.621	80.004	19.995	103.469	19.203	76.654	0.518
556.000	354.668	80.002	19.995	103.480	19.192	77.449	0.400
558.000	355.644	80.001	19.995	103.486	19.170	78.938	0.455
560.000	356.539	80.001	19.996	103.489	19.155	79.994	0.370
562.000	357.862	80.002	19.994	103.488	19.137	81.227	0.484
564.000	358.676	80.003	19.996	103.489	19.125	82.066	0.492
566.000	359.727	80.003	19.996	103.488	19.117	82.563	0.522
568.000	360.829	80.003	19.995	103.489	19.107	83.250	0.475
570.001	361.914	80.001	19.996	103.487	19.095	84.138	0.532
572.000	362.820	80.002	19.995	103.477	19.095	84.095	0.639
574.000	363.845	80.001	19.994	103.471	19.090	84.402	0.608
576.000	364.798	80.002	19.996	103.463	19.093	84.203	0.470
578.000	365.862	80.003	19.995	103.462	19.099	83.809	0.509
580.000	366.921	80.004	19.995	103.455	19.105	83.325	0.623
582.000	367.955	80.003	19.994	103.448	19.119	82.385	0.527
584.000	368.921	80.003	19.994	103.446	19.132	81.452	0.469
586.000	369.954	80.004	19.994	103.421	19.154	79.909	0.464
588.000	371.005	80.001	19.994	103.410	19.173	78.583	0.519
590.000	372.139	80.000	19.994	103.385	19.202	76.633	0.545
592.000	373.125	80.001	19.996	103.372	19.232	74.495	0.496
594.000	374.211	80.002	19.996	103.357	19.262	72.419	0.556
596.000	375.238	80.000	19.995	103.338	19.300	69.827	0.505
598.000	376.233	80.002	19.995	103.317	19.344	66.775	0.492
600.000	377.356	80.002	19.995	103.301	19.388	63.722	0.508
602.000	378.320	80.003	19.995	103.283	19.428	60.962	0.586
604.000	379.382	80.003	19.996	103.258	19.473	57.853	0.533
606.000	380.364	80.004	19.995	103.245	19.529	54.047	0.506
608.000	381.402	80.003	19.994	103.223	19.575	50.825	0.541
610.000	382.478	80.003	19.994	103.212	19.625	47.439	0.491
612.000	383.576	80.002	19.996	103.189	19.676	43.889	0.470
614.000	384.519	80.001	19.995	103.178	19.730	40.160	0.481
616.000	385.542	80.002	19.997	103.172	19.776	37.011	0.475
618.000	386.555	80.002	19.997	103.164	19.823	33.765	0.520
620.000	387.629	80.000	19.996	103.145	19.864	30.963	0.561
622.001	388.660	80.000	19.997	103.144	19.906	28.105	0.524
624.000	389.625	80.000	19.996	103.138	19.945	25.422	0.489
626.000	390.684	80.000	19.997	103.137	19.973	23.498	0.519
628.000	391.705	80.001	19.996	103.136	20.001	21.546	0.534
630.000	392.693	80.002	19.996	103.132	20.024	19.953	0.543
632.000	393.761	80.001	19.995	103.136	20.049	18.227	0.494
634.000	394.768	80.002	19.996	103.135	20.071	16.743	0.534
636.000	395.829	80.001	19.994	103.134	20.083	15.948	0.486
638.000	396.866	80.003	19.995	103.121	20.095	15.065	0.523
640.000	397.830	80.002	19.995	103.126	20.106	14.311	0.484
642.000	398.853	80.001	19.994	103.126	20.113	13.864	0.536
644.000	399.869	80.001	19.995	103.131	20.117	13.554	0.511
646.000	400.872	80.000	19.996	103.136	20.124	13.106	0.503
648.000	401.884	80.000	19.996	103.133	20.129	12.734	0.462
650.000	402.923	80.001	19.995	103.122	20.132	12.525	0.499
652.000	403.841	80.000	19.995	103.117	20.139	12.057	0.460
654.000	404.912	80.001	19.993	103.135	20.141	11.959	0.470
656.000	405.957	80.002	19.995	103.135	20.140	11.990	0.522
658.000	406.917	80.002	19.993	103.126	20.144	11.719	0.494
660.000	407.926	80.001	19.994	103.137	20.143	11.762	0.495
662.000	408.991	80.002	19.993	103.130	20.146	11.592	0.504
664.001	409.957	80.003	19.994	103.131	20.149	11.384	0.515
666.000	410.980	80.003	19.995	103.134	20.152	11.183	0.494
668.000	411.991	80.002	19.995	103.136	20.151	11.217	0.442
670.000	412.960	80.003	19.995	103.133	20.153	11.089	0.512
672.000	413.954	80.002	19.994	103.131	20.151	11.234	0.495
674.000	414.980	80.002	19.995	103.131	20.151	11.208	0.515
676.000	415.985	80.002	19.995	103.132	20.159	10.679	0.456
678.000	416.995	80.003	19.995	103.136	20.156	10.890	0.532
680.000	418.028	80.001	19.995	103.133	20.157	10.805	0.525
682.000	419.050	80.003	19.995	103.125	20.157	10.795	0.513
684.000	420.057	80.003	19.995	103.129	20.159	10.709	0.513
686.000	421.044	80.003	19.994	103.135	20.158	10.766	0.506
688.000	422.051	80.003	19.994	103.124	20.161	10.523	0.510
690.000	423.096	80.003	19.995	103.124	20.166	10.198	0.546
692.000	424.078	80.002	19.995	103.124	20.166	10.197	0.496
694.000	425.082	80.003	19.995	103.126	20.167	10.146	0.488
696.000	426.074	80.001	19.994	103.118	20.165	10.302	0.521
698.000	427.083	80.000	19.994	103.110	20.163	10.417	0.475
700.000	428.083	80.000	19.995	103.118	20.167	10.105	0.502
702.000	429.105	80.001	19.995	103.124	20.167	10.121	0.485
704.000	430.088	80.001	19.996	103.125	20.172	9.826	0.475
706.000	431.088	80.002	19.995	103.134	20.169	10.007	0.493
708.000	432.089	80.000	19.995	103.131	20.166	10.178	0.501
710.000	433.120	80.000	19.996	103.119	20.168	10.081	0.503
712.000	434.114	80.001	19.997	103.127	20.167	10.107	0.482
714.000	435.138	80.000	19.997	103.125	20.169	10.009	0.528
716.000	436.133	80.000	19.996	103.109	20.170	9.967	0.486
718.000	437.144	80.000	19.996	103.128	20.173	9.735	0.507
720.000	438.122	79.999	19.996	103.119	20.172	9.785	0.482
722.000	439.145	79.999	19.995	103.130	20.175	9.622	0.490
724.000	440.160	80.001	19.996	103.114	20.179	9.296	0.509
726.000	441.174	80.000	19.995	103.123	20.176	9.545	0.497
728.000	442.192	80.000	19.994	103.119	20.177	9.435	0.487
730.000	443.167	80.001	19.996	103.120	20.179	9.344	0.474
732.000	444.207	80.000	19.994	103.122	20.180	9.271	0.526
734.000	445.210	80.001	19.994	103.107	20.176	9.527	0.515
736.000	446.231	80.000	19.995	103.114	20.179	9.298	0.536
738.000	447.222	80.000	19.996	103.115	20.175	9.598	0.492
740.000	448.267	80.001	19.996	103.117	20.183	9.055	0.516
742.000	449.268	80.003	19.995	103.124	20.188	8.699	0.517
744.000	450.271	80.002	19.995	103.119	20.182	9.133	0.505
746.000	451.344	80.002	19.995	103.113	20.185	8.883	0.512
748.000	452.330	80.002	19.993	103.105	20.183	9.019	0.533
750.000	453.334	80.002	19.996	103.106	20.183	9.027	0.529
752.000	454.324	80.002	19.996	103.112	20.179	9.309	0.491
754.000	455.410	80.000	19.996	103.108	20.184	8.980	0.558
756.000	456.410	80.000	19.995	103.110	20.184	8.976	0.529
758.000	457.381	80.002	19.996	103.109	20.191	8.470	0.491
760.000	458.372	80.001	19.994	103.107	20.190	8.539	0.508
762.000	459.393	80.003	19.995	103.105	20.187	8.737	0.521
764.000	460.416	80.001	19.995	103.102	20.191	8.468	0.530
766.000	461.428	80.003	19.994	103.103	20.194	8.293	0.496
768.000	462.432	80.004	19.995	103.103	20.192	8.389	0.528
770.000	463.423	80.002	19.994	103.111	20.194	8.274	0.507
772.000	464.440	80.003	19.995	103.101	20.195	8.217	0.511
774.000	465.419	80.003	19.994	103.107	20.192	8.418	0.503
776.000	466.409	80.001	19.995	103.106	20.196	8.128	0.469
778.000	467.456	80.001	19.996	103.115	20.195	8.237	0.497
780.000	468.468	80.001	19.996	103.120	20.193	8.339	0.492
782.000	469.456	80.000	19.995	103.113	20.194	8.306	0.517
784.000	470.457	80.000	19.994	103.120	20.199	7.925	0.500
786.000	471.464	80.001	19.995	103.113	20.195	8.186	0.492
788.000	472.501	80.001	19.994	103.115	20.198	7.973	0.463
790.001	473.581	80.000	19.994	103.108	20.203	7.670	0.516
792.000	474.611	80.003	19.995	103.109	20.199	7.933	0.537
794.000	475.614	80.002	19.994	103.116	20.202	7.739	0.471
796.000	476.663	80.002	19.997	103.111	20.202	7.717	0.534
798.000	477.725	80.001	19.995	103.100	20.202	7.717	0.557
800.000	478.744	80.001	19.996	103.110	20.204	7.608	0.548
802.000	479.747	80.001	19.996	103.108	20.201	7.767	0.490
804.000	480.790	80.001	19.996	103.108	20.200	7.841	0.498
806.000	481.838	80.001	19.996	103.107	20.201	7.801	0.543
808.000	482.888	79.999	19.996	103.107	20.200	7.842	0.527
810.000	483.890	80.001	19.996	103.104	20.206	7.432	0.544
812.000	484.909	80.000	19.995	103.103	20.207	7.376	0.528
814.000	485.912	80.001	19.996	103.100	20.208	7.298	0.518
816.000	486.963	80.002	19.995	103.102	20.206	7.479	0.508
818.001	487.985	80.001	19.996	103.104	20.206	7.436	0.505
820.000	489.020	80.003	19.994	103.099	20.203	7.664	0.475
822.000	490.046	80.003	19.995	103.101	20.203	7.636	0.485
824.000	491.128	80.002	19.995	103.101	20.203	7.660	0.512
826.000	492.145	80.005	19.995	103.104	20.207	7.384	0.532
828.000	493.189	80.002	19.996	103.109	20.206	7.429	0.512
830.000	494.194	80.003	19.994	103.102	20.206	7.455	0.487
832.000	495.237	80.001	19.994	103.102	20.207	7.356	0.522
834.000	496.253	80.002	19.995	103.103	20.205	7.504	0.506
836.000	497.308	80.002	19.995	103.104	20.206	7.487	0.514
838.000	498.314	80.002	19.994	103.105	20.206	7.485	0.513
840.000	499.336	80.002	19.995	103.103	20.205	7.520	0.514
842.000	500.370	80.003	19.994	103.102	20.207	7.418	0.519
844.001	501.351	80.003	19.995	103.103	20.207	7.378	0.506
846.000	502.399	80.003	19.994	103.104	20.210	7.192	0.497
848.000	503.411	80.003	19.995	103.103	20.204	7.597	0.487
850.000	504.433	80.003	19.993	103.106	20.206	7.453	0.476
852.000	505.433	80.003	19.995	103.104	20.206	7.462	0.506
854.000	506.453	80.002	19.995	103.106	20.203	7.694	0.501
856.000	507.465	80.003	19.995	103.104	20.203	7.657	0.506
858.000	508.442	80.001	19.994	103.108	20.205	7.492	0.511
860.000	509.437	80.001	19.994	103.104	20.204	7.612	0.474
862.000	510.480	80.000	19.995	103.104	20.207	7.390	0.496
864.000	511.525	80.001	19.995	103.103	20.207	7.393	0.480
866.000	512.454	80.001	19.996	103.105	20.202	7.752	0.516
868.000	513.483	80.001	19.996	103.104	20.205	7.539	0.507
870.000	514.536	80.001	19.996	103.100	20.203	7.683	0.502
872.000	515.556	80.000	19.994	103.105	20.206	7.440	0.510
874.000	516.601	80.003	19.995	103.099	20.204	7.563	0.519
876.000	517.637	80.002	19.995	103.099	20.205	7.499	0.538
878.000	518.648	80.002	19.994	103.101	20.207	7.358	0.536
880.000	519.637	80.001	19.994	103.101	20.206	7.445	0.504
882.000	520.609	80.004	19.995	103.099	20.206	7.451	0.532
884.000	521.654	80.001	19.995	103.099	20.209	7.279	0.534
886.000	522.650	80.000	19.994	103.099	20.207	7.412	0.500
888.000	523.656	80.000	19.995	103.101	20.208	7.339	0.508
890.000	524.688	80.000	19.995	103.101	20.203	7.642	0.508
892.000	525.713	79.998	19.995	103.100	20.206	7.442	0.530
894.000	526.699	80.000	19.994	103.101	20.207	7.369	0.503
896.000	527.770	80.000	19.995	103.101	20.207	7.385	0.516
898.000	528.776	80.001	19.995	103.102	20.205	7.515	0.523
900.000	529.797	80.002	19.996	103.102	20.206	7.488	0.513
902.000	530.795	80.001	19.996	103.101	20.204	7.572	0.526
904.000	531.765	80.002	19.996	103.101	20.205	7.492	0.497
906.000	532.795	80.001	19.995	103.100	20.207	7.418	0.527
908.000	533.847	80.001	19.995	103.101	20.207	7.363	0.517
910.000	534.888	80.002	19.995	103.104	20.209	7.246	0.535
912.000	535.888	80.002	19.994	103.101	20.208	7.320	0.516
914.000	536.925	80.002	19.994	103.102	20.206	7.457	0.498
916.000	537.952	80.001	19.994	103.105	20.205	7.537	0.536
918.000	538.984	80.001	19.994	103.103	20.202	7.732	0.505
920.000	539.993	80.002	19.995	103.105	20.205	7.545	0.486
922.000	541.046	80.002	19.993	103.104	20.202	7.732	0.511
924.000	542.109	80.003	19.994	103.103	20.203	7.681	0.538
926.000	543.172	80.004	19.994	103.103	20.196	8.131	0.545
928.000	544.232	80.005	19.994	103.109	20.196	8.143	0.551
930.000	545.256	80.004	19.994	103.107	20.198	8.015	0.518
932.000	546.345	80.004	19.994	103.106	20.199	7.935	0.521
934.000	547.402	80.003	19.994	103.102	20.200	7.888	0.556
936.000	548.495	80.002	19.995	103.100	20.197	8.051	0.531
938.000	549.587	80.002	19.996	103.106	20.196	8.118	0.520
940.000	550.657	80.001	19.994	103.104	20.199	7.931	0.542
942.000	551.790	80.002	19.994	103.102	20.201	7.827	0.542
944.000	552.898	80.001	19.995	103.100	20.206	7.453	0.585
946.000	553.973	80.001	19.995	103.099	20.201	7.818	0.526
948.000	555.154	80.001	19.995	103.099	20.204	7.603	0.605
950.000	556.232	80.002	19.995	103.100	20.202	7.731	0.537
952.000	557.337	80.002	19.996	103.100	20.201	7.775	0.547
954.000	558.480	80.002	19.994	103.100	20.205	7.504	0.579
956.000	559.540	80.001	19.995	103.100	20.203	7.687	0.523
958.000	560.723	80.001	19.995	103.108	20.198	7.976	0.558
960.000	561.789	80.002	19.996	103.101	20.199	7.922	0.533
962.000	562.892	80.001	19.994	103.102	20.196	8.120	0.556
964.000	563.993	80.001	19.995	103.109	20.200	7.853	0.535
966.000	565.067	80.000	19.996	103.104	20.200	7.837	0.541
968.001	566.111	80.002	19.996	103.103	20.200	7.898	0.531
970.000	567.234	80.000	19.995	103.103	20.200	7.840	0.549
972.000	568.321	80.002	19.995	103.104	20.197	8.059	0.553
974.000	569.404	80.001	19.995	103.103	20.204	7.603	0.551
976.000	570.433	80.001	19.995	103.112	20.199	7.941	0.531
978.000	571.496	80.000	19.995	103.112	20.200	7.862	0.519
980.000	572.595	80.000	19.995	103.104	20.200	7.851	0.555
982.000	573.680	80.001	19.995	103.107	20.202	7.763	0.541
984.000	574.789	80.002	19.995	103.106	20.202	7.750	0.559
986.000	575.902	80.002	19.995	103.106	20.201	7.770	0.550
988.000	576.965	80.003	19.995	103.102	20.200	7.866	0.551
990.000	578.022	80.004	19.996	103.100	20.200	7.871	0.528
992.000	579.075	80.002	19.996	103.104	20.200	7.897	0.555
994.000	580.092	80.003	19.997	103.098	20.200	7.871	0.501
996.000	581.188	80.002	19.994	103.098	20.199	7.937	0.529
998.000	582.244	80.002	19.995	103.098	20.199	7.920	0.571
1000.000	583.273	80.003	19.996	103.099	20.197	8.107	0.497
1002.000	584.312	80.002	19.996	103.098	20.201	7.828	0.508
1004.000	585.338	80.002	19.995	103.099	20.199	7.916	0.509
1006.000	586.369	80.003	19.994	103.099	20.197	8.107	0.506
1008.000	587.464	80.004	19.995	103.100	20.198	8.025	0.540
1010.000	588.455	80.004	19.993	103.100	20.201	7.804	0.493
1012.000	589.501	80.005	19.994	103.099	20.202	7.712	0.503
1014.000	590.523	80.005	19.994	103.101	20.198	8.034	0.552
1016.000	591.592	80.003	19.995	103.097	20.199	7.956	0.520
1018.000	592.597	80.003	19.995	103.097	20.195	8.201	0.498
1020.000	593.625	80.002	19.996	103.100	20.196	8.139	0.507
1022.000	594.678	80.002	19.994	103.099	20.195	8.186	0.520
1024.000	595.704	80.001	19.995	103.100	20.197	8.096	0.502
1026.001	596.743	80.001	19.995	103.101	20.197	8.075	0.516
1028.000	597.766	80.000	19.995	103.102	20.198	8.021	0.519
1030.001	598.770	80.001	19.994	103.104	20.194	8.296	0.494
1032.001	599.784	80.002	19.995	103.104	20.197	8.103	0.498
1034.000	600.806	80.002	19.994	103.105	20.197	8.107	0.520
1036.000	601.822	80.002	19.996	103.105	20.196	8.133	0.498
1038.000	602.832	80.003	19.995	103.104	20.197	8.068	0.519
1040.001	603.835	80.003	19.994	103.103	20.196	8.176	0.521
1042.000	604.824	80.002	19.994	103.103	20.192	8.443	0.483
1044.000	605.784	80.002	19.994	103.104	20.191	8.471	0.497
1046.001	606.804	80.001	19.994	103.104	20.193	8.344	0.498
1048.000	607.831	80.001	19.994	103.105	20.196	8.167	0.483
1050.000	608.844	80.002	19.994	103.105	20.194	8.254	0.466
1052.000	609.853	80.002	19.995	103.104	20.193	8.363	0.506
1054.000	610.801	80.001	19.995	103.103	20.189	8.639	0.489
1056.001	611.837	80.001	19.997	103.102	20.191	8.477	0.480
1058.000	612.785	80.000	19.995	103.100	20.190	8.531	0.490
1060.000	613.800	80.002	19.995	103.099	20.179	9.325	0.488
1062.000	614.785	80.001	19.996	103.100	20.192	8.438	0.530
1064.000	615.831	80.003	19.995	103.100	20.188	8.707	0.526
1066.000	616.799	80.002	19.996	103.101	20.192	8.439	0.472
1068.001	617.680	80.004	19.996	103.100	20.191	8.496	0.473
1070.001	618.692	80.004	19.995	103.099	20.190	8.583	0.486
1072.000	619.626	80.001	19.994	103.099	20.192	8.411	0.523
1074.000	620.480	80.003	19.994	103.099	20.190	8.578	0.631
1076.000	621.744	80.003	19.994	103.098	20.189	8.604	-0.141
1078.000	622.716	80.003	19.997	103.100	20.191	8.505	0.389
1080.001	623.590	80.001	19.995	103.102	20.192	8.436	0.710
1082.000	624.579	80.003	19.995	103.098	20.188	8.708	0.419
1084.001	625.499	80.002	19.997	103.098	20.193	8.336	0.555
1086.000	626.371	80.002	19.996	103.097	20.186	8.808	0.477
1088.000	627.340	80.003	19.996	103.096	20.188	8.688	0.488
1090.000	628.285	80.004	19.995	103.099	20.189	8.652	0.468
1092.000	629.204	80.002	19.994	103.099	20.192	8.411	0.435
1094.001	630.186	80.003	19.994	103.099	20.192	8.413	0.477
1096.001	631.126	80.003	19.995	103.097	20.192	8.385	0.495
1098.000	632.106	80.004	19.995	103.100	20.193	8.346	0.479
1100.000	633.002	80.002	19.994	103.099	20.192	8.449	0.459
1102.000	633.919	79.999	19.994	103.094	20.189	8.592	0.489
1104.001	634.877	80.002	19.996	103.100	20.193	8.346	0.476
1106.001	635.840	80.002	19.994	103.095	20.180	9.239	0.467
1108.000	636.799	80.001	19.995	103.100	20.189	8.651	0.466
1110.001	637.725	80.001	19.995	103.087	20.191	8.506	0.485
1112.000	638.677	80.001	19.995	103.088	20.190	8.563	0.497
1114.000	639.638	80.001	19.994	103.096	20.188	8.683	0.494
1116.000	640.592	80.001	19.994	103.102	20.189	8.631	0.493
1118.001	641.611	80.001	19.995	103.102	20.186	8.845	0.518
1120.000	641.843	80.001	19.995	103.099	20.184	8.940	0.061
1122.000	643.438	80.002	19.994	103.097	20.186	8.839	0.491
1124.001	644.394	80.002	19.995	103.097	20.184	8.991	0.462
1126.000	645.221	80.002	19.995	103.087	20.186	8.826	0.483
1128.000	646.292	80.003	19.995	103.095	20.180	9.235	0.466
1130.001	647.229	80.002	19.994	103.101	20.185	8.875	0.475
1132.000	648.195	80.002	19.994	103.101	20.177	9.426	0.480
1134.000	649.176	80.001	19.995	103.100	20.182	9.129	0.453
1136.000	650.169	80.002	19.994	103.096	20.185	8.875	0.497
1138.000	651.186	80.001	19.994	103.097	20.181	9.205	0.481
1140.000	652.164	80.002	19.995	103.099	20.183	9.028	0.460
1142.001	653.142	80.002	19.994	103.101	20.184	8.947	0.504
1144.000	654.141	80.002	19.994	103.099	20.183	9.052	0.464
1146.001	655.200	80.003	19.995	103.098	20.183	9.052	0.510
1148.000	656.196	80.003	19.996	103.098	20.181	9.183	0.518
1150.001	657.186	80.002	19.995	103.099	20.179	9.318	0.502
1152.001	658.171	80.003	19.993	103.099	20.177	9.432	0.485
1154.001	659.150	80.003	19.995	103.093	20.177	9.463	0.498
1156.000	660.176	80.002	19.996	103.093	20.177	9.443	0.491
1158.000	661.154	80.002	19.995	103.098	20.176	9.495	0.503
1160.001	662.185	80.002	19.995	103.101	20.181	9.202	0.505
1162.000	663.159	80.001	19.995	103.099	20.179	9.301	0.510
1164.000	664.137	80.003	19.995	103.098	20.178	9.379	0.478
1166.000	665.099	80.002	19.995	103.098	20.172	9.792	0.482
1168.000	666.131	80.003	19.995	103.102	20.181	9.189	0.519
1170.000	667.090	80.002	19.995	103.100	20.173	9.739	0.489
1172.000	668.158	80.003	19.995	103.099	20.175	9.608	0.491
1174.000	669.142	80.005	19.995	103.098	20.178	9.412	0.500
1176.001	670.189	80.003	19.994	103.095	20.176	9.539	0.518
1178.001	671.200	80.003	19.995	103.098	20.179	9.316	0.532
1180.000	672.147	80.002	19.996	103.098	20.175	9.590	0.536
1182.000	673.266	80.002	19.995	103.088	20.173	9.742	0.481
1184.000	674.286	80.001	19.996	103.085	20.170	9.936	0.519
1186.001	675.253	80.000	19.996	103.088	20.177	9.463	0.501
1188.000	676.326	80.001	19.996	103.087	20.176	9.500	0.490
1190.001	677.388	80.001	19.995	103.082	20.174	9.624	0.522
1192.000	678.464	80.001	19.994	103.096	20.175	9.606	0.514
1194.000	679.459	80.001	19.994	103.097	20.175	9.606	0.520
1196.000	680.452	80.003	19.994	103.097	20.172	9.806	0.529
1198.000	681.506	80.002	19.995	103.095	20.176	9.507	0.540
1200.001	682.669	80.002	19.995	103.096	20.174	9.683	0.571
1202.000	683.562	80.003	19.994	103.093	20.171	9.866	0.524
1204.001	684.573	80.002	19.995	103.082	20.172	9.773	0.529
1206.000	685.569	80.002	19.995	103.086	20.172	9.784	0.498
1208.001	686.621	80.001	19.995	103.087	20.174	9.684	0.483
1210.000	687.660	80.003	19.995	103.079	20.171	9.874	0.540
1212.000	688.616	80.001	19.995	103.090	20.172	9.759	0.505
1214.000	689.624	80.001	19.994	103.089	20.171	9.863	0.495
1216.000	690.641	80.001	19.995	103.092	20.173	9.697	0.498
1218.000	691.670	80.001	19.994	103.100	20.169	9.992	0.496
1220.000	692.676	80.001	19.995	103.097	20.171	9.828	0.491
1222.000	693.729	80.002	19.994	103.096	20.169	9.981	0.513
1224.000	694.795	80.002	19.994	103.101	20.172	9.777	0.516
1226.000	695.846	80.002	19.994	103.097	20.168	10.037	0.545
1228.000	696.924	80.004	19.995	103.100	20.169	9.966	0.534
1230.000	698.010	80.003	19.995	103.099	20.168	10.100	0.521
1232.000	699.032	80.003	19.993	103.100	20.167	10.141	0.531
1234.000	700.154	80.004	19.994	103.099	20.167	10.153	0.567
1236.000	701.184	80.001	19.995	103.095	20.167	10.132	0.532
1238.000	702.274	80.003	19.995	103.099	20.164	10.328	0.562
1240.001	703.357	80.003	19.996	103.097	20.168	10.087	0.563
1242.000	704.380	80.001	19.995	103.094	20.168	10.058	0.539
1244.001	705.459	80.001	19.996	103.097	20.161	10.555	0.530
1246.000	706.526	80.002	19.994	103.103	20.162	10.445	0.531
1248.000	707.566	80.003	19.995	103.091	20.166	10.222	0.540
1250.000	708.651	80.003	19.995	103.096	20.160	10.601	0.537
1252.000	709.731	80.005	19.994	103.086	20.163	10.419	0.556
1254.000	710.844	80.004	19.995	103.087	20.162	10.461	0.545
1256.001	711.924	80.004	19.995	103.085	20.163	10.390	0.527
1258.000	712.980	80.004	19.994	103.085	20.161	10.549	0.526
1260.000	714.016	80.004	19.994	103.090	20.161	10.559	0.516
1262.001	715.105	80.003	19.995	103.085	20.160	10.595	0.525
1264.000	716.204	80.002	19.997	103.089	20.163	10.377	0.558
1266.000	717.342	80.002	19.996	103.096	20.158	10.771	0.555
1268.000	718.443	80.000	19.995	103.097	20.156	10.897	0.556
1270.000	719.522	80.001	19.995	103.093	20.158	10.759	0.555
1272.000	720.576	80.002	19.996	103.091	20.161	10.579	0.545
1274.000	721.649	80.001	19.995	103.095	20.158	10.734	0.545
1276.001	722.697	80.001	19.996	103.091	20.161	10.575	0.550
1278.001	723.776	80.003	19.996	103.089	20.159	10.710	0.552
1280.001	724.853	80.003	19.995	103.079	20.164	10.324	0.495
1282.000	725.906	80.003	19.996	103.094	20.159	10.655	0.542
1284.000	726.986	80.002	19.995	103.093	20.162	10.448	0.528
1286.001	728.051	80.002	19.994	103.099	20.162	10.500	0.544
1288.000	729.129	80.002	19.994	103.094	20.159	10.682	0.537
1290.000	730.136	80.003	19.995	103.099	20.160	10.650	0.525
1292.000	731.183	80.001	19.994	103.079	20.159	10.667	0.521
1294.001	732.236	80.002	19.994	103.091	20.160	10.622	0.512
1296.000	733.277	80.001	19.994	103.098	20.160	10.650	0.502
1298.001	734.312	80.001	19.996	103.084	20.160	10.644	0.523
1300.000	735.305	80.000	19.994	103.097	20.158	10.776	0.497
1302.000	736.316	79.999	19.993	103.101	20.158	10.725	0.498
1304.001	737.357	80.002	19.995	103.093	20.162	10.481	0.507
1306.000	738.361	80.001	19.995	103.092	20.160	10.634	0.509
1308.000	739.394	80.002	19.994	103.088	20.160	10.594	0.500
1310.000	740.440	80.002	19.994	103.093	20.165	10.239	0.513
1312.000	741.407	80.002	19.994	103.084	20.159	10.662	0.496
1314.000	742.451	80.004	19.994	103.080	20.155	10.940	0.498
1316.000	743.498	80.002	19.994	103.063	20.159	10.713	0.522