File: 01_Data/Window_Screen/Cone/Window_Screen_Cone_HF75Scan_220524_R1.csv
Names,Time,Stack TC,Smoke TC,Exh Press,Smoke Comp,Smoke Meas,CO Meter,CO2 Meter,O2 Meter,Sample Mass,Ext Coeff,Start Test,Flame Verif
Chan Gain,,500,500,1,1,1,1,1,1,1,1,1.0,1.0
Offset,,0,0,0.13752,0,0,0,0,0,0,0,0.0,0.0
Gain,,1,1,25.011,13.8491,15.2622,1,1,1,1.00087,1.03118,1.0,1.0
Units,sec,C,C,Pa,%,%,%,%,%,g,/m,,
Baseline,,44.2962,46.0527,133.705,104.171,106.46,0.000833966,0.0438026,20.9975,-451.174,-0.196546,,
2,0.25,40.7026,43.2733,113.842,104.318,74.5694,0.0131412,0.0854345,20.9203,573.649,3.0367,0.0,1.0
4,0.75,40.2728,41.8061,116.667,104.332,53.3659,0.0145978,0.110863,20.9021,573.549,6.06418,0.0,1.0
6,1.25,40.1815,41.8293,120.061,104.347,52.7809,0.0156036,0.129756,20.8874,573.539,6.16513,0.0,1.0
8,1.75,40.9003,41.8861,123.163,104.366,66.0804,0.0162619,0.143526,20.8754,573.539,4.1341,0.0,1.0
10,2.25,40.7701,42.3884,125.288,104.383,90.1455,0.016443,0.15468,20.8657,573.569,1.32642,0.0,1.0
12,2.75,42.0225,42.4097,127.631,104.389,100.994,0.016273,0.154026,20.8579,573.549,0.299078,0.0,1.0
14,3.25,42.8733,42.8837,131.249,104.408,103.244,0.0158044,0.153496,20.8516,573.569,0.101367,0.0,1.0
16,3.75,42.6288,43.6176,135.744,104.442,104.557,0.0151273,0.149037,20.8591,573.569,-0.00997605,0.0,1.0
18,4.25,42.672,43.6234,132.778,104.45,106.135,0.0145787,0.141797,20.8651,573.529,-0.144702,0.0,1.0
20,4.75,42.2961,43.8076,131.801,104.472,106.155,0.013455,0.133657,20.8766,573.539,-0.144506,0.0,1.0
22,5.25,41.5261,41.7949,135.175,104.476,105.559,0.0125448,0.125013,20.8859,573.529,-0.093269,0.0,0.0
24,5.75,41.16,41.7529,136.894,104.489,106.524,0.0114252,0.116816,20.8953,573.499,-0.17446,0.0,0.0
26,6.25,40.8696,42.5376,133.491,104.502,106.356,0.0105184,0.109102,20.9045,573.539,-0.15907,0.0,0.0
28,6.75,39.5628,40.774,130.435,104.521,106.023,0.00978385,0.10204,20.912,573.529,-0.129024,0.0,0.0
30,7.25,39.5876,41.3654,133.536,104.554,106.106,0.00929367,0.0955888,20.9152,573.579,-0.133241,0.0,0.0
32,7.75,39.3187,40.9851,132.897,104.567,105.689,0.00845546,0.0903632,20.9232,573.579,-0.096574,0.0,0.0
34,8.25,39.5222,40.7571,133.693,104.577,106.056,0.00771395,0.0849896,20.9298,573.639,-0.127094,0.0,0.0
36,8.75,39.8667,40.858,133.833,104.597,106.879,0.00705701,0.080637,20.9368,573.689,-0.195258,0.0,0.0
38,9.25,39.5722,41.0563,130.721,104.608,106.44,0.00648199,0.0767214,20.9425,573.429,-0.157062,0.0,0.0
40,9.75,40.1113,41.0457,133.629,104.63,105.955,0.00597761,0.0731989,20.9484,573.609,-0.113788,0.0,0.0
42,10.25,40.0432,40.9732,131.592,104.629,107.345,0.00553468,0.0716972,20.9532,573.559,-0.231778,0.0,0.0
44,10.75,39.8609,40.985,132.108,104.65,107.388,0.00514496,0.0688625,20.9584,573.539,-0.233601,0.0,0.0
46,11.25,39.3163,40.8157,135.248,104.666,107.503,0.00479238,0.0663262,20.9626,573.529,-0.241859,0.0,0.0
48,11.75,39.3358,41.4587,137.853,104.692,107.023,0.00447357,0.0641278,20.9669,573.509,-0.199174,0.0,0.0
50,12.25,39.9867,41.0988,133.846,104.703,107.138,0.00417979,0.0622173,20.9704,573.479,-0.207979,0.0,0.0
52,12.75,39.6359,41.5123,128.085,104.726,107.194,0.00390983,0.0605114,20.9732,573.469,-0.210689,0.0,0.0
54,13.25,39.661,40.9256,136.444,104.735,106.696,0.00369116,0.058987,20.9755,573.489,-0.16781,0.0,0.0
56,13.75,39.4377,40.623,133.006,104.75,106.943,0.00343193,0.0576227,20.9775,573.459,-0.187475,0.0,0.0
58,14.25,39.4598,40.2121,131.202,104.75,106.998,0.00322195,0.056401,20.9794,573.489,-0.19205,0.0,0.0
60,14.75,37.9893,40.0842,132.505,104.782,106.756,0.00313243,0.0553323,20.981,573.499,-0.168815,0.0,0.0
62,15.25,39.7514,40.6785,135.714,104.781,107.091,0.00293531,0.0543954,20.9818,573.429,-0.197258,0.0,0.0
64,15.75,39.608,41.2326,136.452,104.809,107.825,0.00276084,0.0536366,20.9833,573.409,-0.256598,0.0,0.0
66,16.25,40.1588,41.9572,133.21,104.811,106.572,0.00260621,0.0528715,20.985,573.429,-0.150732,0.0,0.0
68,16.75,40.4277,41.5712,132.107,104.83,106.583,0.00248096,0.0522519,20.9863,573.399,-0.15,0.0,0.0
70,17.25,40.4114,41.9414,132.659,104.826,107.348,0.00235385,0.0516816,20.9874,573.409,-0.215078,0.0,0.0
72,17.75,40.2206,41.9389,134.313,104.851,107.323,0.0022509,0.0514385,20.9883,573.409,-0.210735,0.0,0.0
74,18.25,40.3627,41.8437,133.603,104.855,106.844,0.00213211,0.0510228,20.9892,573.399,-0.169921,0.0,0.0
76,18.75,40.0628,42.241,134.535,104.873,107.795,0.0020359,0.0505905,20.9902,573.399,-0.248557,0.0,0.0
78,19.25,40.9911,42.0373,131.43,104.876,107.016,0.00192261,0.0502403,20.991,573.359,-0.18275,0.0,0.0
80,19.75,40.3306,42.4055,132.617,104.877,107.565,0.00183084,0.0499156,20.9916,573.379,-0.228898,0.0,0.0
82,20.25,41.1114,42.0606,130.216,104.888,106.393,0.00175651,0.0496527,20.9922,573.379,-0.128864,0.0,0.0
84,20.75,40.5269,42.3359,133.586,104.902,106.974,0.00169631,0.0494109,20.9926,573.369,-0.176946,0.0,0.0
86,21.25,40.3961,41.9592,131.978,104.903,107.702,0.00159031,0.0491892,20.9929,573.359,-0.238222,0.0,0.0
88,21.75,40.726,42.2544,131.185,104.918,107.351,0.00150445,0.0489737,20.9932,573.389,-0.207367,0.0,0.0
90,22.25,40.664,42.5788,133.1,104.917,107.727,0.00142761,0.0487668,20.9934,573.369,-0.239132,0.0,0.0
92,22.75,40.7569,42.3182,131.433,104.931,107.329,0.00136536,0.0485992,20.9936,573.369,-0.204468,0.0,0.0
94,23.25,40.6898,42.372,132.537,104.93,108.74,0.00131251,0.0484635,20.9937,573.389,-0.322666,0.0,0.0
96,23.75,40.7574,42.8078,132.921,104.955,108.561,0.0012697,0.048258,20.9938,573.399,-0.305514,0.0,0.0
98,24.25,40.9079,41.8066,133.449,104.949,106.692,0.00122773,0.0480915,20.9939,573.449,-0.149004,0.0,0.0
100,24.75,40.7667,42.1937,133.876,104.966,108.021,0.00119373,0.0478991,20.994,573.419,-0.259474,0.0,0.0
102,25.25,40.879,42.0179,134.164,104.974,107.423,0.00116428,0.0476916,20.9941,573.419,-0.2086,0.0,0.0
104,25.75,40.8281,42.4399,131.248,104.98,107.386,0.00113869,0.0474948,20.9946,573.399,-0.204955,0.0,0.0
106,26.25,40.9772,41.8221,135.605,104.973,107.519,0.00111988,0.0473095,20.995,573.419,-0.216827,0.0,0.0
108,26.75,40.6401,42.3701,130.718,104.986,108.022,0.00110637,0.047145,20.9953,573.409,-0.257919,0.0,0.0
110,27.25,41.1544,42.6153,133.4,104.981,106.893,0.00109543,0.0469989,20.9955,573.379,-0.163242,0.0,0.0
112,27.75,40.4159,42.5533,130.322,104.99,107.058,0.00108657,0.0468662,20.9957,573.399,-0.176459,0.0,0.0
114,28.25,41.3447,41.8372,135.453,104.982,107.38,0.00105265,0.0467457,20.9959,573.389,-0.204263,0.0,0.0
116,28.75,40.6549,42.5548,132.528,104.992,107.926,0.00102517,0.0466051,20.9961,573.429,-0.249256,0.0,0.0
118,29.25,41.1234,42.4844,131.438,104.98,107.801,0.000959194,0.0464524,20.9962,573.459,-0.239844,0.0,0.0
120,29.75,41.4566,42.6665,133.126,105.004,107.433,0.000905752,0.0463287,20.9963,573.479,-0.206844,0.0,0.0
122,30.25,41.2683,43.0719,132.87,104.988,107.833,0.000833345,0.0461466,20.9963,573.439,-0.241888,0.0,0.0
124,30.75,40.6197,42.6361,135.241,105.015,107.002,0.000774695,0.0459991,20.9964,573.489,-0.169545,0.0,0.0
126,31.25,41.3079,42.6448,130.887,104.998,106.237,0.0007187,0.0458797,20.9964,573.469,-0.10608,0.0,0.0
128,31.75,41.1299,42.6028,134.501,105.011,107.847,0.000673345,0.0457693,20.9965,573.459,-0.241018,0.0,0.0
130,32.25,40.4837,42.6851,131.95,105.002,107.744,0.000640244,0.0456799,20.9965,573.479,-0.233145,0.0,0.0
132,32.75,41.1072,42.234,133.491,105.019,107.071,0.000613433,0.0456211,20.9965,573.469,-0.175084,0.0,0.0
134,33.25,41.0078,42.6014,130.96,105.002,106.849,0.000596183,0.0455735,20.9966,573.419,-0.157788,0.0,0.0
136,33.75,41.0716,42.7011,133.526,105.004,107.435,0.000586233,0.0454803,20.9966,573.409,-0.207034,0.0,0.0
138,34.25,41.0392,42.9161,135.954,104.995,107.147,0.000578173,0.0454049,20.9966,573.389,-0.183495,0.0,0.0
140,34.75,40.9339,42.902,132.422,105.007,107.58,0.000581349,0.0453294,20.9966,573.409,-0.218894,0.0,0.0
142,35.25,41.3764,42.6043,130.669,104.992,107.192,0.000583921,0.0452554,20.9966,573.379,-0.18756,0.0,0.0
144,35.75,41.0743,42.8691,132.94,104.991,107.158,0.000586004,0.0452026,20.9966,573.359,-0.1848,0.0,0.0
146,36.25,40.7217,43.0778,131.439,104.98,107.09,0.000587692,0.0451663,20.9966,573.379,-0.180083,0.0,0.0
148,36.75,40.5058,42.7654,134.548,104.985,107.271,0.000590975,0.0451512,20.9966,573.379,-0.194823,0.0,0.0
150,37.25,41.2707,42.6077,133.598,104.974,106.588,0.000595358,0.0451519,20.9971,573.369,-0.137972,0.0,0.0
152,37.75,40.5814,42.8379,133.017,104.973,107.148,0.000605935,0.0451525,20.9974,573.379,-0.185507,0.0,0.0
154,38.25,40.8696,42.2487,132.34,104.975,106.755,0.000620826,0.0451394,20.9977,573.379,-0.152114,0.0,0.0
156,38.75,41.0545,42.8779,135.709,104.966,107.542,0.000632888,0.0451287,20.9979,573.379,-0.219293,0.0,0.0
158,39.25,40.8076,42.4388,133.293,104.963,106.723,0.000668156,0.0451344,20.9981,573.369,-0.15045,0.0,0.0
160,39.75,40.949,42.6711,131.933,104.958,107.247,0.000696723,0.045152,20.9983,573.369,-0.19515,0.0,0.0
162,40.25,40.845,42.7462,136.305,104.945,105.797,0.000735657,0.0451662,20.9984,573.389,-0.0731148,0.0,0.0
164,40.75,41.2658,42.5849,136.196,104.947,106.686,0.000767193,0.0451777,20.9985,573.379,-0.148675,0.0,0.0
166,41.25,40.9566,43.026,129.761,104.933,106.889,0.000792738,0.0451871,20.9986,573.359,-0.167076,0.0,0.0
168,41.75,41.3206,43.0124,133.056,104.926,106.214,0.000831661,0.0451803,20.9984,573.379,-0.110365,0.0,0.0
170,42.25,41.3634,42.976,134.862,104.922,107.222,0.000863189,0.0451618,20.9981,573.369,-0.196161,0.0,0.0
172,42.75,41.5742,42.6036,131.262,104.914,106.487,0.000897238,0.0451254,20.9978,573.379,-0.134636,0.0,0.0
174,43.25,41.5317,42.7105,133.875,104.897,107.496,0.000924818,0.0450764,20.9976,573.359,-0.221389,0.0,0.0
176,43.75,41.7135,42.5758,132.959,104.914,106.304,0.000947157,0.045044,20.9974,573.349,-0.119041,0.0,0.0
178,44.25,40.8383,42.5144,132.064,104.88,106.966,0.000961604,0.0450242,20.9976,573.359,-0.178132,0.0,0.0
180,44.75,41.235,42.9284,130.376,104.871,107.57,0.000973306,0.0450081,20.9979,573.359,-0.229875,0.0,0.0
182,45.25,41.4005,43.0446,133.629,104.867,107.265,0.000973058,0.0449678,20.9983,573.359,-0.204517,0.0,0.0
184,45.75,41.2217,43.0882,131.846,104.866,106.864,0.000972858,0.0449352,20.9985,573.339,-0.170669,0.0,0.0
186,46.25,41.1298,42.7727,136.396,104.849,106.846,0.000966938,0.0449088,20.9987,573.339,-0.17063,0.0,0.0
188,46.75,42.001,42.6469,134.081,104.84,107.039,0.000956961,0.0448945,20.9989,573.339,-0.187744,0.0,0.0
190,47.25,41.1167,43.0907,132.549,104.824,106.266,0.000945682,0.0448895,20.999,573.329,-0.123555,0.0,0.0
192,47.75,41.1374,43.232,133.256,104.817,107.044,0.000933668,0.0448854,20.9991,573.349,-0.190179,0.0,0.0
194,48.25,40.6213,43.4741,131.108,104.797,106.952,0.000923937,0.044882,20.9992,573.309,-0.184098,0.0,0.0
196,48.75,41.5859,42.9911,135.471,104.788,107.108,0.000916054,0.0448793,20.9993,573.329,-0.19805,0.0,0.0
198,49.25,41.4158,42.9704,136.108,104.799,107.391,0.000903595,0.0448772,20.9993,573.319,-0.221026,0.0,0.0
200,49.75,41.1223,43.1424,130.816,104.763,107.208,0.000893503,0.0448754,20.9994,573.319,-0.208657,0.0,0.0
202,50.25,41.1264,42.7992,135.041,104.764,106.914,0.000884113,0.0448603,20.9994,573.329,-0.183749,0.0,0.0
204,50.75,41.3937,43.2376,130.084,104.738,107.542,0.000876507,0.0448481,20.9995,573.329,-0.238982,0.0,0.0
206,51.25,41.6425,42.8554,134.185,104.737,107.701,0.000869132,0.0448311,20.9995,573.319,-0.252401,0.0,0.0
208,51.75,41.281,42.7671,132.574,104.73,107.235,0.000863158,0.0448108,20.9995,573.329,-0.213818,0.0,0.0
210,52.25,41.5816,42.89,130.053,104.703,107.702,0.000857105,0.0447943,20.9995,573.319,-0.255439,0.0,0.0
212,52.75,41.3161,43.0498,134.034,104.694,106.675,0.000852202,0.0447947,20.9995,573.319,-0.169535,0.0,0.0
214,53.25,41.3493,43.1589,133.698,104.691,106.462,0.000846915,0.0447949,20.9995,573.329,-0.151726,0.0,0.0
216,53.75,41.4189,43.297,135.58,104.666,107.471,0.000837874,0.0447664,20.9995,573.289,-0.23923,0.0,0.0
218,54.25,41.3496,42.8432,131.272,104.663,106.628,0.000828633,0.0447175,20.9996,573.289,-0.168211,0.0,0.0
220,54.75,41.0333,43.1431,133.814,104.641,107.187,0.000819422,0.0446635,20.9996,573.289,-0.217443,0.0,0.0
222,55.25,41.1238,43.3751,134.568,104.637,106.646,0.000811961,0.0446069,20.9996,573.299,-0.17198,0.0,0.0
224,55.75,41.2908,42.5026,132.893,104.606,107.145,0.000818064,0.0445754,20.9996,573.309,-0.216898,0.0,0.0
226,56.25,41.9703,43.0577,132.066,104.601,106.891,0.000823008,0.0445687,20.9996,573.309,-0.195881,0.0,0.0
228,56.75,41.176,43.4912,134.331,104.572,107.219,0.0008392,0.0445789,20.9996,573.289,-0.22607,0.0,0.0
230,57.25,41.3643,42.9697,135.391,104.573,107.616,0.000863284,0.0446065,20.9996,573.289,-0.259489,0.0,0.0
232,57.75,42.1293,43.1211,131.759,104.554,106.799,0.000891111,0.0446289,20.9996,573.299,-0.192244,0.0,0.0
234,58.25,41.4453,43.3637,132.917,104.546,106.526,0.000921138,0.0446334,20.9994,573.289,-0.169757,0.0,0.0
236,58.75,41.248,42.8148,133.399,104.526,106.743,0.0009493,0.044637,20.9993,573.259,-0.189808,0.0,0.0
238,59.25,41.7267,43.1885,133.51,104.518,107.14,0.000975569,0.04464,20.9992,573.259,-0.224107,0.0,0.0
240,59.75,41.6938,43.2541,133.942,104.486,107.271,0.000995566,0.0446424,20.9991,573.279,-0.237894,0.0,0.0
242,60.25,42.0259,43.2564,134.504,104.482,106.763,0.00101061,0.0446443,20.999,573.289,-0.195309,0.0,0.0
244,60.75,41.4197,43.3323,132.334,104.47,106.506,0.0010196,0.0446723,20.999,573.269,-0.174604,0.0,0.0
246,61.25,41.8539,43.3901,134.594,104.484,106.559,0.001024,0.0446807,20.9989,573.259,-0.177825,0.0,0.0
248,61.75,41.4685,43.3034,134.099,104.486,106.651,0.00102756,0.0446746,20.9989,573.279,-0.185467,0.0,0.0
250,62.25,41.3391,43.4187,131.098,104.496,106.559,0.00102085,0.0446696,20.9989,573.289,-0.17684,0.0,0.0
252,62.75,41.0297,43.4405,134.642,104.485,106.567,0.00100677,0.0446246,20.9988,573.269,-0.178425,0.0,0.0
254,63.25,41.7874,43.3713,131.737,104.502,105.856,0.000988973,0.0445882,20.9988,573.279,-0.116432,0.0,0.0
256,63.75,41.3145,43.3658,134.043,104.497,106.55,0.000968801,0.0445588,20.9988,573.259,-0.176017,0.0,0.0
258,64.25,41.457,42.8327,129.673,104.512,107.24,0.000947347,0.0445349,20.9988,573.229,-0.233067,0.0,0.0
260,64.75,41.5918,43.0568,136.768,104.502,107.473,0.000925364,0.0445428,20.9988,573.229,-0.253533,0.0,0.0
262,65.25,41.3705,42.8344,132.701,104.515,107.593,0.000901167,0.0445492,20.9988,573.239,-0.262468,0.0,0.0
264,65.75,41.533,42.8476,133.008,104.521,106.782,0.000875814,0.0445616,20.9988,573.269,-0.193525,0.0,0.0
266,66.25,41.3769,43.6518,133.399,104.534,107.376,0.000855278,0.0445781,20.9988,573.279,-0.242708,0.0,0.0
268,66.75,41.2699,43.284,133.165,104.523,106.078,0.000838644,0.0445771,20.9988,573.249,-0.1336,0.0,0.0
270,67.25,41.0555,43.2353,132.249,104.549,106.686,0.000789973,0.0445634,20.9988,573.239,-0.18298,0.0,0.0
272,67.75,42.2226,43.7406,132.4,104.531,106.987,0.00075055,0.0445379,20.999,573.249,-0.210066,0.0,0.0
274,68.25,41.4123,42.9716,132.722,104.559,107.257,0.000705206,0.0445043,20.9992,573.259,-0.230424,0.0,0.0
276,68.75,41.8982,43.7773,135.619,104.545,106.826,0.000668477,0.0444771,20.9994,573.249,-0.195261,0.0,0.0
278,69.25,41.51,43.3582,129.451,104.561,106.779,0.000638727,0.0444623,20.9996,573.259,-0.189926,0.0,0.0
280,69.75,41.5703,43.1444,135.561,104.547,106.511,0.000621651,0.0444567,20.9998,573.249,-0.168302,0.0,0.0
282,70.25,42.0407,43.2026,132.488,104.581,106.883,0.00061414,0.0444522,20.9999,573.239,-0.196927,0.0,0.0
284,70.75,41.7689,43.3321,131.759,104.571,107.624,0.000618275,0.0444357,21,573.229,-0.260304,0.0,0.0
286,71.25,41.1136,43.605,132.008,104.598,107.269,0.000630821,0.0444224,21.0001,573.249,-0.228085,0.0,0.0
288,71.75,41.7691,43.3412,135.232,104.587,106.215,0.000647373,0.0444115,21.0002,573.259,-0.139713,0.0,0.0
290,72.25,41.2831,43.4328,136.715,104.6,107.124,0.000666531,0.0444573,21.0002,573.259,-0.215674,0.0,0.0
292,72.75,42.0486,43.0867,131.556,104.596,106.736,0.000685883,0.0444944,21.0003,573.269,-0.183183,0.0,0.0
294,73.25,42.0022,43.2759,136.321,104.604,107.279,0.00070501,0.0445029,21.0003,573.269,-0.22836,0.0,0.0
296,73.75,41.619,43.3464,127.809,104.597,107.191,0.000723698,0.0444904,21.0003,573.269,-0.221595,0.0,0.0
298,74.25,41.7276,43.5905,135.194,104.601,107.192,0.000741712,0.0444947,21.0003,573.259,-0.221308,0.0,0.0
300,74.75,41.8906,43.1198,134.696,104.625,107.676,0.000762058,0.044511,21.0004,573.259,-0.260043,0.0,0.0
302,75.25,41.7287,43.2921,135.799,104.631,107.096,0.000783717,0.044553,21.0004,573.239,-0.210573,0.0,0.0
304,75.75,41.5624,43.9159,132.503,104.62,105.923,0.000801261,0.0446128,21.0004,573.239,-0.111997,0.0,0.0
306,76.25,41.5414,43.2049,136.605,104.632,106.726,0.000827625,0.0446541,21.0004,573.249,-0.17925,0.0,0.0
308,76.75,41.5427,43.5892,132.85,104.625,106.711,0.000848979,0.0446811,21.0004,573.249,-0.178569,0.0,0.0
310,77.25,41.5912,43.3724,129.841,104.646,106.909,0.000858985,0.0447101,21.0004,573.239,-0.193582,0.0,0.0
312,77.75,42.0609,43.746,134.799,104.65,106.924,0.000867089,0.0447401,21.0004,573.249,-0.194402,0.0,0.0
314,78.25,41.5654,43.4673,130.602,104.659,106.903,0.000860227,0.0447643,21.0004,573.259,-0.191861,0.0,0.0
316,78.75,41.7013,43.1752,132.224,104.652,107.161,0.000842585,0.0448386,21.0004,573.259,-0.214329,0.0,0.0
318,79.25,41.7478,43.5243,134.284,104.67,106.66,0.000816794,0.0448987,21.0004,573.239,-0.170392,0.0,0.0
320,79.75,41.8281,43.5791,131.357,104.668,106.678,0.000785553,0.0449833,21.0004,573.239,-0.172003,0.0,0.0
322,80.25,42.1799,43.4893,132.885,104.684,106.319,0.000760247,0.0450842,21.0004,573.239,-0.140226,0.0,0.0
324,80.75,41.6773,43.5076,130.048,104.685,107.434,0.000733682,0.0451802,21.0004,573.229,-0.234449,0.0,0.0
326,81.25,42.1593,43.4658,131.724,104.693,106.82,0.000712165,0.0452709,21.0004,573.219,-0.181958,0.0,0.0
328,81.75,41.896,43.4084,130.365,104.698,106.774,0.000700803,0.0453516,21.0004,573.199,-0.177654,0.0,0.0
330,82.25,42.2114,43.2242,135.232,104.704,107.518,0.0006916,0.0454234,21.0004,573.209,-0.239865,0.0,0.0
332,82.75,41.8521,43.9443,133.309,104.742,106.798,0.000689895,0.0454816,21.0004,573.199,-0.175909,0.0,0.0
334,83.25,42.0792,43.8776,132.755,104.733,107.084,0.000693688,0.0455423,21.0004,573.179,-0.200786,0.0,0.0
336,83.75,42.0822,43.5885,132.353,104.74,107.775,0.000696761,0.0455915,21.0004,573.169,-0.258327,0.0,0.0
338,84.25,41.8221,43.755,133.352,104.758,107.583,0.00069925,0.0456723,21.0004,573.159,-0.240714,0.0,0.0
340,84.75,41.988,43.8089,133.696,104.75,107.129,0.000701265,0.0457378,21.0004,573.159,-0.203107,0.0,0.0
342,85.25,42.1849,43.5434,132.681,104.764,106.756,0.000689548,0.0457836,21.0004,573.159,-0.170344,0.0,0.0
344,85.75,42.3266,43.7536,128.218,104.77,106.751,0.000680057,0.0458143,21.0004,573.169,-0.169439,0.0,0.0
346,86.25,42.0326,43.8192,134.63,104.78,107.566,0.000657809,0.0458391,21.0004,573.139,-0.237364,0.0,0.0
348,86.75,41.5109,44.2923,129.994,104.79,107.312,0.000639788,0.0458865,21.0004,573.169,-0.21508,0.0,0.0
350,87.25,41.7071,43.8548,131.007,104.806,106.474,0.000621999,0.0459249,21.0004,573.189,-0.142828,0.0,0.0
352,87.75,42.0659,43.5439,132.763,104.809,108.268,0.000604718,0.0459287,21.0004,573.169,-0.293722,0.0,0.0
354,88.25,41.8582,43.484,136.348,104.813,107.243,0.000599659,0.0459318,21.0004,573.199,-0.207338,0.0,0.0
356,88.75,41.965,43.7606,133.146,104.834,107.333,0.000603606,0.0459271,21.0004,573.189,-0.213091,0.0,0.0
358,89.25,42.5891,43.4093,131.508,104.834,107.376,0.000606803,0.0459168,21.0004,573.189,-0.21674,0.0,0.0
360,89.75,41.9496,43.6812,133.709,104.83,108.125,0.000609393,0.0459157,21.0004,573.199,-0.279981,0.0,0.0
362,90.25,41.8499,43.5981,133.557,104.837,107.387,0.000632577,0.0459213,21.0004,573.199,-0.217387,0.0,0.0
364,90.75,41.9339,44.0947,129.963,104.857,107.375,0.000670334,0.0459186,21,573.189,-0.214617,0.0,0.0
366,91.25,42.1463,44.1994,134.739,104.851,107.817,0.000699638,0.04591,20.9997,573.169,-0.252286,0.0,0.0
368,91.75,42.0287,43.8615,131.715,104.871,106.975,0.000722223,0.045903,20.9994,573.179,-0.179682,0.0,0.0
370,92.25,42.2945,43.9198,131.331,104.864,106.468,0.000740518,0.0458973,20.9992,573.169,-0.137354,0.0,0.0
372,92.75,42.4016,44.1013,131.688,104.874,107.036,0.000752907,0.0458791,20.999,573.189,-0.184512,0.0,0.0
374,93.25,41.3969,43.8911,133.395,104.884,108.028,0.000762942,0.0458643,20.9989,573.179,-0.267166,0.0,0.0
376,93.75,42.5445,43.9177,128.662,104.898,107.972,0.00077593,0.0458523,20.9988,573.179,-0.261243,0.0,0.0
378,94.25,42.2646,44.0047,130.964,104.892,106.96,0.00078645,0.0458836,20.9987,573.159,-0.1766,0.0,0.0
380,94.75,41.893,43.9869,132.69,104.91,107.196,0.000801046,0.0459089,20.9986,573.159,-0.194981,0.0,0.0
382,95.25,42.4913,44.0641,135.577,104.895,107.513,0.000812868,0.0459567,20.9985,573.169,-0.222985,0.0,0.0
384,95.75,42.5897,44.1192,134.542,104.922,107.451,0.000823723,0.0459954,20.9985,573.189,-0.215476,0.0,0.0
386,96.25,42.169,43.9018,132.439,104.924,107.007,0.000833666,0.0460131,20.9985,573.189,-0.177811,0.0,0.0
388,96.75,42.413,43.8579,129.944,104.933,106.773,0.00084172,0.0460274,20.9984,573.179,-0.157223,0.0,0.0
390,97.25,42.5018,43.9794,132.142,104.924,106.935,0.000841317,0.0460462,20.9984,573.169,-0.171745,0.0,0.0
392,97.75,42.4642,43.6601,131.449,104.943,107.264,0.000840627,0.0460679,20.9984,573.149,-0.197878,0.0,0.0
394,98.25,42.5188,43.6401,130.875,104.942,106.835,0.000834955,0.0460999,20.9984,573.159,-0.161665,0.0,0.0
396,98.75,42.2489,44.0603,133.035,104.952,107.22,0.000825758,0.0461387,20.9984,573.169,-0.193384,0.0,0.0
398,99.25,42.0033,44.1206,133.08,104.953,107.567,0.000810604,0.0461414,20.9983,573.149,-0.222537,0.0,0.0
400,99.75,42.7155,44.3463,133.265,104.969,107.661,0.000791394,0.0461177,20.9983,573.139,-0.229056,0.0,0.0
402,100.25,42.2955,43.836,132.858,104.97,107.648,0.000770724,0.0461076,20.9983,573.159,-0.227815,0.0,0.0
404,100.75,42.1784,44.3448,133.467,104.986,107.68,0.000749382,0.0460903,20.9989,573.169,-0.229167,0.0,0.0
406,101.25,42.1468,44.5963,132.856,104.976,106.598,0.000732095,0.0460764,20.9994,573.159,-0.138692,0.0,0.0
408,101.75,42.4818,44.53,134.031,105.005,108.053,0.000722947,0.046065,20.9998,573.169,-0.258853,0.0,0.0
410,102.25,42.8117,43.8419,131.979,105.006,106.845,0.000715537,0.0461105,21.0001,573.169,-0.156994,0.0,0.0
412,102.75,42.9571,44.4772,133.017,105.01,107.234,0.000730176,0.0461472,21.0004,573.169,-0.18961,0.0,0.0
414,103.25,42.0455,44.3178,133.105,105.019,107.813,0.000742033,0.0461505,21.0006,573.169,-0.23755,0.0,0.0
416,103.75,42.8193,44.1982,137.742,105.015,107.788,0.000751638,0.0461532,21.0007,573.169,-0.235764,0.0,0.0
418,104.25,42.3717,44.2965,136.336,105.014,106.499,0.000791009,0.0461417,21.0009,573.159,-0.126996,0.0,0.0
420,104.75,42.6972,44.8136,136.04,105.03,106.933,0.000822899,0.0461324,21.001,573.149,-0.162407,0.0,0.0
422,105.25,42.1301,44.4352,132.501,105.021,107.363,0.000860888,0.0460703,21.0008,573.149,-0.199501,0.0,0.0
424,105.75,42.7976,44.601,128,105.04,107.361,0.000891659,0.04602,21.0005,573.149,-0.197742,0.0,0.0
426,106.25,42.1998,44.3065,135.483,105.029,107.11,0.000920232,0.045972,21.0003,573.139,-0.177513,0.0,0.0
428,106.75,42.2735,44.5394,130.469,105.054,108.674,0.000943376,0.0459268,21,573.149,-0.306382,0.0,0.0
430,107.25,42.5174,44.8318,133.54,105.047,107.31,0.000945101,0.0458901,20.9999,573.139,-0.192845,0.0,0.0
432,107.75,42.4045,44.5063,132.294,105.063,106.508,0.000946498,0.0458467,20.9997,573.139,-0.123565,0.0,0.0
434,108.25,42.8753,44.4522,133.468,105.052,107.592,0.000919683,0.0458116,20.9996,573.129,-0.216094,0.0,0.0
436,108.75,42.7241,44.0016,131.34,105.048,107.527,0.000897963,0.045776,20.9995,573.129,-0.211013,0.0,0.0
438,109.25,42.9059,44.1043,129.073,105.054,107.027,0.000860563,0.0457406,20.9995,573.129,-0.168249,0.0,0.0
440,109.75,42.4919,44.5161,130.234,105.067,108.006,0.000812443,0.0457048,20.9994,573.129,-0.249489,0.0,0.0
442,110.25,42.8618,43.965,133.544,105.067,107.216,0.000773466,0.0456694,20.9994,573.139,-0.1832,0.0,0.0
444,110.75,42.444,44.507,133.158,105.087,107.674,0.000728525,0.0456119,20.9993,573.129,-0.219999,0.0,0.0
446,111.25,42.2863,44.3124,132.523,105.084,107.141,0.000680091,0.0455396,20.9991,573.129,-0.175305,0.0,0.0
448,111.75,42.7553,43.9405,134.933,105.09,107.505,0.000644049,0.0454953,20.999,573.129,-0.205569,0.0,0.0
450,112.25,42.5017,44.1967,133.675,105.087,107.124,0.000617727,0.0454724,20.9988,573.129,-0.173595,0.0,0.0
452,112.75,43.1372,43.8676,132.29,105.1,108.183,0.000596407,0.0454538,20.9987,573.129,-0.261535,0.0,0.0
454,113.25,42.6918,44.5891,130.36,105.091,107.822,0.000579137,0.0454107,20.9986,573.119,-0.232031,0.0,0.0
456,113.75,42.6014,44.5569,135.277,105.109,107.205,0.000572425,0.0453757,20.9987,573.109,-0.178619,0.0,0.0
458,114.25,42.4315,44.5124,134.244,105.111,107.648,0.000564436,0.0453331,20.9989,573.099,-0.215732,0.0,0.0
460,114.75,42.9277,44.2886,135.006,105.111,107.494,,0.0452856,,573.099,-0.20281,0.0,0.0
462,115.25,42.7303,44.2627,134.538,105.126,108.113,,0.0452472,,573.109,-0.253437,0.0,0.0
464,115.75,41.9679,44.3,133.458,105.112,107.11,,0.045216,,573.099,-0.170269,0.0,0.0
466,116.25,42.1877,43.7774,129.584,105.122,107.142,,0.0452181,,573.099,-0.172146,0.0,0.0
468,116.75,42.4388,44.4424,134.055,105.134,107.478,,0.0452198,,573.109,-0.199399,0.0,0.0
470,117.25,42.7527,44.1062,133.13,105.131,107.816,,0.0452211,,573.079,-0.228106,0.0,0.0
472,117.75,42.3108,44.322,136.132,105.145,107.548,,,,573.069,-0.204446,0.0,0.0
474,118.25,42.2018,44.5022,132.031,105.144,107.538,,,,573.059,-0.203618,0.0,0.0
476,118.75,42.6265,44.5076,134.426,105.148,106.781,,,,573.069,-0.139366,0.0,0.0
478,119.25,42.4147,44.2143,132.839,105.141,106.981,,,,573.079,-0.156893,0.0,0.0
480,119.75,42.8472,44.0324,134.404,105.154,106.468,,,,573.099,-0.112303,0.0,0.0
482,120.25,42.6649,44.4269,135.401,105.138,108.061,,,,573.079,-0.248019,0.0,0.0
484,120.75,42.4923,44.2218,133.729,105.152,107.388,,,,573.089,-0.190338,0.0,0.0
486,121.25,42.4613,44.2861,132.143,105.152,106.816,,,,573.059,-0.142072,0.0,0.0
488,121.75,42.624,44.9385,133.578,105.151,108.119,,,,573.069,-0.251797,0.0,0.0
490,122.25,42.6239,44.2414,132.67,105.16,107.374,,,,573.069,-0.18851,0.0,0.0
492,122.75,42.5295,44.1665,134.387,105.168,107.69,,,,573.069,-0.214311,0.0,0.0
494,123.25,43.0755,44.2188,134.058,105.169,106.712,,,,573.059,-0.131746,0.0,0.0
496,123.75,42.3255,44.3218,136.075,105.163,107.049,,,,573.059,-0.160791,0.0,0.0
498,124.25,42.513,44.1382,134.143,105.176,107.926,,,,573.039,-0.233394,0.0,0.0
500,124.75,42.2833,44.4839,132.848,105.178,107.824,,,,573.039,-0.224735,0.0,0.0
502,125.25,42.8567,44.5335,135.348,105.181,107.82,,,,573.009,-0.224165,0.0,0.0
503,125.5,42.5309,44.7397,133.129,105.185,107.279,,,,573.019,-0.178285,0.0,0.0