File: 01_Data/Window_Screen/Cone/Window_Screen_Cone_HF75Scan_220524_R2.csv
Names,Time,Stack TC,Smoke TC,Exh Press,Smoke Comp,Smoke Meas,CO Meter,CO2 Meter,O2 Meter,Sample Mass,Ext Coeff,Start Test,Flame Verif
Chan Gain,,500,500,1,1,1,1,1,1,1,1,1.0,1.0
Offset,,0,0,0.13752,0,0,0,0,0,0,0,0.0,0.0
Gain,,1,1,25.011,13.8491,15.2622,1,1,1,1.00087,1.03118,1.0,1.0
Units,sec,C,C,Pa,%,%,%,%,%,g,/m,,
Baseline,,46.4689,48.325,132.725,103.544,106.186,0.000830354,0.0447384,20.9958,-451.521,-0.227822,,
2,0.25,42.4626,44.5458,124.901,103.464,87.0309,0.0114041,0.0717302,20.9276,551.48,1.5645,0.0,0.0
4,0.75,41.7421,44.1281,114.23,103.47,67.3314,0.0129463,0.0945534,20.9023,551.46,3.88642,0.0,1.0
6,1.25,41.0082,43.3863,117.5,103.469,49.4144,0.014249,0.11304,20.8819,551.35,6.68493,0.0,1.0
8,1.75,40.988,42.8082,118.086,103.474,52.7255,0.0151179,0.130846,20.8653,551.36,6.09866,0.0,1.0
10,2.25,41.7622,43.2532,123.016,103.486,70.9718,0.0156539,0.142378,20.8519,551.31,3.41153,0.0,1.0
12,2.75,42.3284,43.6531,128.395,103.481,91.1269,0.0160881,0.149118,20.841,551.41,1.14999,0.0,1.0
14,3.25,43.0499,43.7672,131.575,103.485,100.384,0.0159928,0.150743,20.8322,551.34,0.275173,0.0,1.0
16,3.75,43.3182,43.9235,129.247,103.49,101.553,0.0155132,0.148609,20.8355,551.33,0.17096,0.0,1.0
18,4.25,43.4158,44.2894,129.267,103.496,103.199,0.0148293,0.143839,20.8382,551.32,0.0259209,0.0,1.0
20,4.75,43.6423,44.3921,131.756,103.491,105.17,0.0140096,0.137238,20.8478,551.33,-0.145622,0.0,1.0
22,5.25,43.4016,44.9188,130.896,103.502,105.263,0.0133456,0.131891,20.8556,551.32,-0.152633,0.0,1.0
24,5.75,41.9758,43.3634,132.658,103.516,104.86,0.0122809,0.125146,20.8619,551.3,-0.11669,0.0,1.0
26,6.25,42.0608,43.5954,135.159,103.514,105.526,0.0114184,0.11751,20.87,551.31,-0.174145,0.0,0.0
28,6.75,41.9652,43.4717,134.279,103.512,105.408,0.0107199,0.110073,20.8792,551.29,-0.164145,0.0,0.0
30,7.25,42.1329,43.6674,128.796,103.524,106.023,0.00992882,0.102923,20.8867,551.27,-0.215757,0.0,0.0
32,7.75,42.1991,43.6487,129.824,103.543,105.411,0.0090854,0.0971312,20.8986,551.27,-0.161733,0.0,0.0
34,8.25,41.8284,42.8563,131.533,103.547,106.209,0.00830686,0.0912283,20.9083,551.26,-0.229607,0.0,0.0
36,8.75,40.5759,42.2996,130.937,103.538,106.378,0.00759042,0.0864469,20.9178,551.25,-0.244808,0.0,0.0
38,9.25,40.2382,42.3037,133.387,103.569,105.252,0.00694114,0.082574,20.9256,551.23,-0.145798,0.0,0.0
40,9.75,41.6258,43.4764,133.558,103.558,105.871,0.00635317,0.0787358,20.9345,551.22,-0.19984,0.0,0.0
42,10.25,41.5602,43.5269,132.854,103.576,107.012,0.00587691,0.074996,20.9417,551.25,-0.29515,0.0,0.0
44,10.75,42.1176,43.6071,132.492,103.578,106.157,0.00542566,0.0717214,20.9479,551.22,-0.222506,0.0,0.0
46,11.25,42.3679,43.0934,132.93,103.586,105.88,0.00500122,0.0688482,20.9534,551.18,-0.198083,0.0,0.0
48,11.75,41.69,43.329,131.535,103.608,106.436,0.00462897,0.0663263,20.9579,551.1,-0.243627,0.0,0.0
50,12.25,42.2282,43.3336,128.506,103.601,105.94,0.00430184,0.0641085,20.9624,551.46,-0.201923,0.0,0.0
52,12.75,42.0621,43.4074,132.868,103.615,106.252,0.00401554,0.062312,20.966,551.17,-0.227315,0.0,0.0
54,13.25,42.3104,43.8148,133.7,103.615,105.722,0.00376446,0.0605284,20.9694,551.3,-0.182038,0.0,0.0
56,13.75,41.8823,43.3884,131.647,103.623,105.655,0.00354302,0.0590837,20.9721,551.27,-0.175597,0.0,0.0
58,14.25,41.5432,43.1526,130.105,103.634,105.999,0.00334739,0.0578271,20.9744,551.33,-0.204134,0.0,0.0
60,14.75,41.3257,43.7453,131.424,103.659,105.752,0.00317023,0.0567315,20.9762,551.2,-0.180868,0.0,0.0
62,15.25,41.6765,43.8497,133.534,103.659,106.708,0.00300991,0.055808,20.9781,551.34,-0.262251,0.0,0.0
64,15.75,41.8655,44.1442,136.244,103.682,105.406,0.00288005,0.0550277,20.9796,551.26,-0.149114,0.0,0.0
66,16.25,41.6089,43.4503,133.358,103.669,106.525,0.00274182,0.0543668,20.9808,551.35,-0.245835,0.0,0.0
68,16.75,42.148,43.4067,132.7,103.684,106.41,0.00262986,0.0538055,20.9818,551.26,-0.23477,0.0,0.0
70,17.25,42.2891,43.6921,130.563,103.695,105.692,0.00253019,0.0533438,20.9826,551.27,-0.172553,0.0,0.0
72,17.75,41.7475,43.6455,129.817,103.701,106.043,0.00244138,0.0529632,20.9831,551.16,-0.202046,0.0,0.0
74,18.25,41.9234,43.3073,128.779,103.708,107.432,0.00236559,0.0526622,20.9835,551.21,-0.319084,0.0,0.0
76,18.75,41.9123,43.6625,131.626,103.716,105.66,0.00230072,0.0524248,20.9839,551.19,-0.167922,0.0,0.0
78,19.25,41.915,43.6993,127.712,103.731,105.924,0.00224817,0.0522326,20.9841,551.15,-0.189252,0.0,0.0
80,19.75,41.8281,43.3268,131.808,103.744,106.818,0.0021885,0.0520548,20.9843,551.15,-0.264193,0.0,0.0
82,20.25,41.6539,43.5727,132.848,103.753,106.441,0.0021286,0.051891,20.9845,551.2,-0.231302,0.0,0.0
84,20.75,42.2788,43.4495,133.618,103.761,105.962,0.00206967,0.0517584,20.9851,551.21,-0.189893,0.0,0.0
86,21.25,42.1719,44.1689,129.972,103.77,106.029,0.00202193,0.0515279,20.9856,551.2,-0.194884,0.0,0.0
88,21.75,42.0182,43.4036,130.747,103.789,106.74,0.00196007,0.0513412,20.9859,551.21,-0.25362,0.0,0.0
90,22.25,42.371,43.5922,127.857,103.79,106.354,0.00190996,0.0511079,20.9862,551.2,-0.220768,0.0,0.0
92,22.75,41.8439,43.6731,131.586,103.819,106.395,0.00184742,0.050919,20.9865,551.22,-0.221713,0.0,0.0
94,23.25,41.6151,43.5013,131.989,103.809,106.859,0.00179676,0.0506703,20.9867,551.2,-0.261914,0.0,0.0
96,23.75,41.9299,43.8483,132.455,103.829,106.429,0.0017352,0.0504689,20.9869,551.21,-0.223716,0.0,0.0
98,24.25,42.3465,43.6779,134.975,103.836,107.93,0.00166685,0.0501964,20.9874,551.2,-0.349747,0.0,0.0
100,24.75,41.7995,43.69,133.095,103.854,106.665,0.00159676,0.0499758,20.9879,551.22,-0.241595,0.0,0.0
102,25.25,42.5534,44.5512,131.039,103.857,106.577,0.00152671,0.0496877,20.9883,551.19,-0.233792,0.0,0.0
104,25.75,42.1919,44.2648,132.236,103.868,106.827,0.00146229,0.0494544,20.9886,551.18,-0.254115,0.0,0.0
106,26.25,42.5807,43.2152,131.533,103.875,105.83,0.00140319,0.0492295,20.989,551.17,-0.168655,0.0,0.0
108,26.75,41.9632,43.8429,132.147,103.899,106.106,0.00135532,0.0490149,20.9896,551.17,-0.190171,0.0,0.0
110,27.25,42.1174,44.0891,130.841,103.895,106.657,0.00132019,0.0487837,20.9901,551.18,-0.23739,0.0,0.0
112,27.75,42.0354,44.2201,130.573,103.917,106.417,0.00129174,0.0485446,20.9905,551.17,-0.214958,0.0,0.0
114,28.25,42.3293,43.7709,125.608,103.92,106.429,0.00126626,0.0482935,20.9908,551.18,-0.215729,0.0,0.0
116,28.75,42.378,43.76,131.234,103.945,106.203,0.00124562,0.0480383,20.9911,551.19,-0.194376,0.0,0.0
118,29.25,42.4551,43.9114,130.595,103.939,106.316,0.00122891,0.0478317,20.9913,551.2,-0.204602,0.0,0.0
120,29.75,42.1089,44.0509,128.319,103.968,106.434,0.00119232,0.0475687,20.9914,551.16,-0.212046,0.0,0.0
122,30.25,42.1165,43.8233,129.09,103.972,106.118,0.00114195,0.0473557,20.9919,551.19,-0.184804,0.0,0.0
124,30.75,41.9772,43.9863,129.576,103.985,106.669,0.00110115,0.0471013,20.9923,551.16,-0.230467,0.0,0.0
126,31.25,42.188,43.9497,131.253,103.979,105.92,0.00102195,0.0468953,20.9929,551.13,-0.167326,0.0,0.0
128,31.75,42.23,43.8757,134.012,104.009,106.313,0.000957801,0.0467284,20.9935,551.15,-0.198185,0.0,0.0
130,32.25,41.7263,44.4278,130.939,103.999,106.2,0.000903409,0.0465429,20.994,551.11,-0.189472,0.0,0.0
132,32.75,41.7701,43.7678,135.715,104.022,106.689,0.000859352,0.0463474,20.9945,551.12,-0.22893,0.0,0.0
134,33.25,42.1579,44.4821,133.807,104.012,106.034,0.00083459,0.0461891,20.9948,551.1,-0.174156,0.0,0.0
136,33.75,41.8925,43.8408,130.525,104.041,107.028,0.000814534,0.0460063,20.9951,551.17,-0.256016,0.0,0.0
138,34.25,42.305,43.6365,133.593,104.029,106.467,0.000810432,0.0458582,20.9953,551.14,-0.209528,0.0,0.0
140,34.75,42.2313,44.1671,130.563,104.038,106.258,0.000807109,0.0457167,20.9955,551.13,-0.190972,0.0,0.0
142,35.25,42.384,43.8836,130.228,104.046,106.457,0.000808061,0.0455827,20.9957,551.12,-0.207222,0.0,0.0
144,35.75,42.1782,43.9639,133.268,104.049,107.248,0.000808831,0.0454598,20.9958,551.14,-0.273881,0.0,0.0
146,36.25,42.0625,43.6905,130.681,104.069,106.663,0.00080626,0.0453473,20.9959,551.14,-0.222756,0.0,0.0
148,36.75,41.9795,44.3904,130.315,104.075,106.618,0.000801299,0.0452153,20.996,551.14,-0.218333,0.0,0.0
150,37.25,41.8617,43.484,134.716,104.069,106.318,0.000797282,0.0451084,20.996,551.12,-0.193404,0.0,0.0
152,37.75,42.5326,43.5914,132.936,104.078,106.64,0.00078572,0.0449643,20.9961,551.18,-0.219972,0.0,0.0
154,38.25,42.0175,44.1829,136.362,104.078,106.493,0.000768879,0.044796,20.9961,551.19,-0.207516,0.0,0.0
156,38.75,42.2126,44.0473,130.206,104.093,106.922,0.000755238,0.0446453,20.9961,551.17,-0.242558,0.0,0.0
158,39.25,41.7997,43.7944,132.92,104.088,106.819,0.00073812,0.0445103,20.9962,551.19,-0.234325,0.0,0.0
160,39.75,41.7896,43.9434,129.645,104.117,106.222,0.000724254,0.0444009,20.9962,551.19,-0.181046,0.0,0.0
162,40.25,42.3793,43.87,130.78,104.11,106.443,0.000703315,0.0443805,20.9962,551.16,-0.200454,0.0,0.0
164,40.75,42.2906,43.9689,131.671,104.108,106.518,0.000686354,0.044364,20.9962,551.16,-0.206932,0.0,0.0
166,41.25,42.442,43.7198,133.894,104.103,106.896,0.000672615,0.0443291,20.9962,551.15,-0.239505,0.0,0.0
168,41.75,42.4666,43.8024,130.562,104.119,107.527,0.000661487,0.0442815,20.9963,551.15,-0.291357,0.0,0.0
170,42.25,42.4812,43.5223,131.375,104.119,107.373,0.000655667,0.0442429,20.9965,551.14,-0.278382,0.0,0.0
172,42.75,42.2088,43.8753,135.307,104.125,106.595,0.000653827,0.0441707,20.9969,551.16,-0.212063,0.0,0.0
174,43.25,42.1689,44.2342,130.756,104.145,106.105,0.000656807,0.0441122,20.9972,551.17,-0.168662,0.0,0.0
176,43.75,42.0615,44.249,131.427,104.146,106.226,0.000663246,0.0440649,20.9975,551.18,-0.17887,0.0,0.0
178,44.25,42.1184,44.4293,134.75,104.149,105.638,0.000668461,0.0440265,20.9977,551.17,-0.128458,0.0,0.0
180,44.75,41.8023,44.2508,134.949,104.155,105.559,0.000678436,0.044017,20.9979,551.17,-0.121089,0.0,0.0
182,45.25,42.2206,43.9749,129.755,104.16,105.785,0.000691692,0.0440286,20.998,551.14,-0.139985,0.0,0.0
184,45.75,42.1016,44.1255,131.35,104.166,107.026,0.000706264,0.0440165,20.9981,551.12,-0.244992,0.0,0.0
186,46.25,43.0779,43.7673,130.009,104.166,106.208,0.000721518,0.0439874,20.9982,551.14,-0.175674,0.0,0.0
188,46.75,42.2672,43.7774,133.177,104.173,107.924,0.000736431,0.0439637,20.9983,551.13,-0.31998,0.0,0.0
190,47.25,42.3351,43.7797,135.735,104.186,106.422,0.000750811,0.043931,20.9983,551.1,-0.192065,0.0,0.0
192,47.75,42.3687,43.8966,131.013,104.183,107.247,0.00076246,0.0439044,20.9984,551.14,-0.262199,0.0,0.0
194,48.25,42.7227,44.3826,133.488,104.198,107.3,0.000759751,0.0439116,20.9984,551.13,-0.265316,0.0,0.0
196,48.75,42.7053,44.1822,129.447,104.203,107.101,0.000757557,0.0439433,20.9985,551.11,-0.248094,0.0,0.0
198,49.25,42.3786,44.4095,129.483,104.198,106.778,0.000732717,0.043933,20.9985,551.15,-0.22127,0.0,0.0
200,49.75,42.3398,43.9021,130.893,104.205,106.836,0.000712596,0.0438925,20.9985,551.13,-0.225538,0.0,0.0
202,50.25,41.9277,44.1751,133.346,104.204,107.161,0.000676888,0.0438596,20.9985,551.14,-0.253098,0.0,0.0
204,50.75,42.0453,44.1422,130.653,104.223,106.205,0.000647965,0.043833,20.9985,551.14,-0.17037,0.0,0.0
206,51.25,42.2805,44.3532,132.23,104.227,106.253,0.000624537,0.0438114,20.9985,551.16,-0.174086,0.0,0.0
208,51.75,41.9696,43.9668,134.583,104.231,105.78,0.000597073,0.0438212,20.9986,551.13,-0.133455,0.0,0.0
210,52.25,42.1897,43.6433,131.28,104.223,106.415,0.000574826,0.0438291,20.9986,551.13,-0.18828,0.0,0.0
212,52.75,42.3531,44.2829,133.352,104.242,106.595,0.000556807,0.0438643,20.9986,551.15,-0.201898,0.0,0.0
214,53.25,42.1394,44.1811,132.336,104.229,107.317,0.000528876,0.0439186,20.9986,551.13,-0.264128,0.0,0.0
216,53.75,42.1947,44.1305,131.551,104.247,107.532,0.000506252,0.0439626,20.9987,551.15,-0.280634,0.0,0.0
218,54.25,42.0739,43.6899,134.306,104.27,107.666,0.000485375,0.0439709,20.9987,551.13,-0.289967,0.0,0.0
220,54.75,42.2856,43.7198,127.197,104.256,107.982,0.000466168,0.0439777,20.9987,551.15,-0.317708,0.0,0.0
222,55.25,42.519,44.1776,129.22,104.264,107.708,0.000456352,0.0439831,20.9988,551.16,-0.293965,0.0,0.0
224,55.75,42.3894,44.3903,132.362,104.268,107.247,0.000453568,0.0439445,20.9988,551.15,-0.25483,0.0,0.0
226,56.25,42.7403,43.3256,131.909,104.274,106.993,0.000467076,0.0438745,20.9988,551.14,-0.232879,0.0,0.0
228,56.75,42.6594,44.2702,132.481,104.27,106.849,0.000478017,0.0438321,20.9988,551.14,-0.221032,0.0,0.0
230,57.25,42.1952,44.2785,135.292,104.279,106.616,0.000495818,0.0438107,20.9988,551.14,-0.200527,0.0,0.0
232,57.75,42.874,44.071,132.334,104.281,106.729,0.000518281,0.0438006,20.9988,551.15,-0.209901,0.0,0.0
234,58.25,42.4932,44.3944,129.58,104.299,106.347,0.000536476,0.0437988,20.9989,551.14,-0.175894,0.0,0.0
236,58.75,42.9794,43.8236,130.669,104.291,106.91,0.000562074,0.0437902,20.9989,551.12,-0.224327,0.0,0.0
238,59.25,42.4269,44.4189,130.115,104.311,107.051,0.000592582,0.0437767,20.9989,551.1,-0.234573,0.0,0.0
240,59.75,42.5121,44.4743,130.274,104.304,107.076,0.000617294,0.043773,20.9989,551.12,-0.237245,0.0,0.0
242,60.25,42.589,44.5808,132.298,104.311,107.318,0.000638524,0.0437765,20.9989,551.1,-0.25706,0.0,0.0
244,60.75,42.4827,44.6487,132.623,104.323,107.219,0.00065572,0.0437793,20.9989,551.11,-0.247628,0.0,0.0
246,61.25,42.9941,44.0259,131.699,104.318,107.812,0.000666007,0.0437407,20.9989,551.09,-0.297952,0.0,0.0
248,61.75,42.6763,44.2262,129.45,104.315,107.057,0.000674339,0.0437094,20.9989,551.09,-0.234716,0.0,0.0
250,62.25,42.7758,44.3031,128.677,104.327,106.785,0.000689587,0.0437127,20.9989,551.12,-0.210717,0.0,0.0
252,62.75,42.7,44.5296,135.449,104.32,107.494,0.000701938,0.0437413,20.9989,551.14,-0.271155,0.0,0.0
254,63.25,42.3674,45.0512,131.375,104.337,107.224,0.000722873,0.0437644,20.9989,551.14,-0.246851,0.0,0.0
256,63.75,42.3107,44.422,134.13,104.325,106.863,0.000739829,0.043824,20.9989,551.14,-0.217374,0.0,0.0
258,64.25,42.709,44.5548,130.463,104.348,106.921,0.000753564,0.0438723,20.9989,551.12,-0.22036,0.0,0.0
260,64.75,42.8408,44.099,130.278,104.337,107.116,0.000764689,0.0438569,20.9989,551.09,-0.23777,0.0,0.0
262,65.25,42.9344,44.6922,132.109,104.363,106.858,0.000773701,0.0438444,20.9989,551.1,-0.21368,0.0,0.0
264,65.75,42.5502,44.2118,133.416,104.359,107.318,0.000773713,0.0438343,20.9989,551.12,-0.25288,0.0,0.0
266,66.25,42.9208,43.9303,131.697,104.368,107.002,0.000773723,0.0438261,20.9989,551.15,-0.225452,0.0,0.0
268,66.75,42.3173,44.5254,131.921,104.362,107.278,0.000771302,0.0438195,20.9987,551.12,-0.249283,0.0,0.0
270,67.25,43.0696,44.6383,133.88,104.376,106.35,0.000769341,0.0438141,20.9983,551.13,-0.16943,0.0,0.0
272,67.75,42.787,44.6969,133.035,104.365,107.794,0.000756826,0.0438385,20.9979,551.13,-0.292439,0.0,0.0
274,68.25,43.0204,44.393,132.011,104.378,107.137,0.000746688,0.0438841,20.9977,551.12,-0.235947,0.0,0.0
276,68.75,42.6804,44.525,130.731,104.364,108.166,0.000714207,0.043921,20.9975,551.12,-0.323687,0.0,0.0
278,69.25,42.9348,44.779,132.811,104.393,106.804,0.000687897,0.044019,20.9973,551.12,-0.206541,0.0,0.0
280,69.75,42.8264,45.0544,132.376,104.371,108.161,0.000645969,0.0440985,20.9972,551.1,-0.322672,0.0,0.0
282,70.25,42.8648,44.776,135.837,104.396,107.383,0.000612007,0.0441492,20.9971,551.11,-0.255187,0.0,0.0
284,70.75,42.5471,45.0211,130.389,104.376,107.028,0.00057748,0.0441903,20.997,551.09,-0.226964,0.0,0.0
286,71.25,42.3939,45.203,132.72,104.39,106.662,0.000543197,0.0442644,20.9969,551.08,-0.194837,0.0,0.0
288,71.75,42.9589,44.9965,130.318,104.381,107.738,0.000515428,0.0443245,20.9968,551.07,-0.286393,0.0,0.0
290,72.25,43.1482,44.9609,130.312,104.406,107.371,0.000495487,0.044366,20.9968,551.07,-0.253365,0.0,0.0
292,72.75,43.0336,44.5327,134.481,104.393,106.922,0.00048163,0.0443932,20.9968,551.07,-0.216558,0.0,0.0
294,73.25,42.9219,44.683,133.046,104.415,107.358,0.000470407,0.0444367,20.9967,551.09,-0.251384,0.0,0.0
296,73.75,43.3802,44.9502,129.261,104.411,106.814,0.000473439,0.0444914,20.9967,551.08,-0.205834,0.0,0.0
298,74.25,43.0975,44.9252,135.765,104.411,106.565,0.000475895,0.0445356,20.9967,551.07,-0.184747,0.0,0.0
300,74.75,43.1022,44.9983,132.511,104.414,107.559,0.000496078,0.0445643,20.9967,551.07,-0.268356,0.0,0.0
302,75.25,42.9978,44.6769,130.453,104.428,107.225,0.000512425,0.0445811,20.9967,551.07,-0.239095,0.0,0.0
304,75.75,43.1067,45.046,135.334,104.42,106.904,0.000525667,0.0445946,20.9966,551.06,-0.212714,0.0,0.0
306,76.25,43.2452,44.7797,134.296,104.426,106.544,0.00055945,0.0446329,20.9969,551.06,-0.181574,0.0,0.0
308,76.75,43.0517,44.8497,133.223,104.428,106.539,0.000586813,0.0446639,20.9972,551.05,-0.180996,0.0,0.0
310,77.25,43.2702,44.8063,130.559,104.443,107.13,0.000617477,0.0447027,20.9976,551.05,-0.229794,0.0,0.0
312,77.75,43.0074,44.813,131.171,104.439,107.07,0.000642315,0.044734,20.9978,551.06,-0.225052,0.0,0.0
314,78.25,43.0318,45.294,130.295,104.443,107.446,0.000666076,0.0447595,20.998,551.06,-0.256382,0.0,0.0
316,78.75,43.36,44.9376,135.301,104.441,106.32,0.000685323,0.0447255,20.9982,551.03,-0.161329,0.0,0.0
318,79.25,43.1721,44.7305,129.854,104.443,106.031,0.000700912,0.044698,20.9983,551.04,-0.136544,0.0,0.0
320,79.75,43.5258,44.8117,132.933,104.444,106.738,0.000717184,0.0446757,20.9984,551.04,-0.196587,0.0,0.0
322,80.25,42.9437,45.0037,132.164,104.45,107.512,0.000730363,0.0446577,20.9985,551.05,-0.261402,0.0,0.0
324,80.75,43.2424,44.8944,128.179,104.442,107.214,0.000747432,0.0446294,20.9986,551.05,-0.236983,0.0,0.0
326,81.25,42.9518,45.0208,132.954,104.45,107.016,0.00076701,0.0446065,20.9982,551.02,-0.219609,0.0,0.0
328,81.75,43.0541,44.6723,128.1,104.442,107.345,0.000787346,0.044588,20.9979,551.03,-0.247943,0.0,0.0
330,82.25,43.1506,45.0379,136.038,104.455,106.864,0.000807846,0.0446139,20.9977,551.03,-0.206247,0.0,0.0
332,82.75,42.478,44.8083,131.748,104.444,107.819,0.000830208,0.0446349,20.9975,551.02,-0.287666,0.0,0.0
334,83.25,42.8115,45.1604,129.118,104.443,106.936,0.000853502,0.0446734,20.9977,551.03,-0.213419,0.0,0.0
336,83.75,42.942,44.6109,135.046,104.449,106.705,0.000875569,0.044724,20.9979,551.01,-0.193306,0.0,0.0
338,84.25,43.2351,45.2174,131.927,104.465,107.546,0.000896323,0.044765,20.9977,551.02,-0.262942,0.0,0.0
340,84.75,43.1015,44.7999,132.954,104.452,107.234,0.000913133,0.0447982,20.9975,551.04,-0.237831,0.0,0.0
342,85.25,43.1765,45.1812,129.944,104.465,107.475,0.000921887,0.044825,20.9978,551.03,-0.256947,0.0,0.0
344,85.75,43.1111,45.5055,131.446,104.477,107.628,0.000928978,0.0448878,20.998,551.03,-0.268737,0.0,0.0
346,86.25,43.2641,45.0992,132.461,104.468,106.784,0.000927046,0.0449385,20.9981,551.02,-0.198368,0.0,0.0
348,86.75,43.2905,45.1136,132.255,104.464,107.855,0.000918572,0.0450206,20.9983,551.05,-0.288914,0.0,0.0
350,87.25,43.3098,44.9277,132.198,104.481,106.758,0.000906594,0.0450871,20.9984,551.06,-0.195027,0.0,0.0
352,87.75,43.4739,44.9041,131.893,104.48,106.63,0.000892288,0.0451273,20.9981,551.06,-0.184275,0.0,0.0
354,88.25,43.5899,45.3308,130.178,104.479,107.852,0.000873668,0.0451598,20.9978,551.06,-0.287475,0.0,0.0
356,88.75,43.046,44.9497,131.402,104.478,107.199,0.000852258,0.0451862,20.9976,551.04,-0.232615,0.0,0.0
358,89.25,42.921,44.9277,129.633,104.488,106.968,0.000834915,0.0452076,20.9974,551.03,-0.212106,0.0,0.0
360,89.75,42.8321,44.8804,132.509,104.491,107.983,0.000792882,0.0452033,20.9972,551.03,-0.297309,0.0,0.0
362,90.25,42.975,44.9204,132.842,104.51,106.798,0.000758834,0.0451805,20.9971,551.05,-0.195933,0.0,0.0
364,90.75,43.1408,45.2927,130.829,104.498,107.566,0.000708209,0.0451405,20.9971,551.03,-0.261773,0.0,0.0
366,91.25,43.1649,45.2974,134.429,104.493,107.365,0.000667203,0.0450887,20.9972,551.03,-0.245315,0.0,0.0
368,91.75,43.0961,44.9269,136.044,104.502,107.12,0.000612167,0.0450467,20.9972,551.01,-0.223806,0.0,0.0
370,92.25,43.2799,45.0985,132.372,104.491,107.462,0.000567589,0.0450537,20.9973,551.02,-0.253616,0.0,0.0
372,92.75,43.0548,45.2857,128.375,104.495,106.936,0.00053148,0.0450593,20.9973,551.02,-0.208919,0.0,0.0
374,93.25,43.1558,44.7619,131.439,104.509,107.962,0.000503971,0.0450646,20.9973,551.03,-0.294051,0.0,0.0
376,93.75,42.9255,45.4629,134.364,104.495,107.593,0.000456932,0.045069,20.9978,551,-0.2643,0.0,0.0
378,94.25,43.476,44.3885,136.85,104.499,107.007,0.000418192,0.0450588,20.9982,550.98,-0.214576,0.0,0.0
380,94.75,43.5166,44.8545,133.767,104.511,107.089,0.00038624,0.0450506,20.9985,550.98,-0.220402,0.0,0.0
382,95.25,43.1822,45.169,134.093,104.525,107.546,0.00037247,0.045044,20.9987,550.98,-0.257747,0.0,0.0
384,95.75,43.5018,45.2322,129.305,104.507,107.295,0.000361317,0.0450386,20.9989,550.99,-0.238183,0.0,0.0
386,96.25,43.3345,44.7217,133.874,104.499,106.774,0.000377733,0.0450363,20.9991,550.99,-0.194795,0.0,0.0
388,96.75,42.9179,45.3542,134.475,104.512,107.758,0.00039103,0.0450108,20.9992,551,-0.276651,0.0,0.0
390,97.25,43.0023,45.3804,131.82,104.504,108.432,0.000434548,0.0449708,20.9993,550.99,-0.333819,0.0,0.0
392,97.75,43.2852,45.019,130.712,104.524,106.598,0.000469797,0.0449384,20.9994,550.97,-0.177707,0.0,0.0
394,98.25,43.3355,45.4023,130.886,104.495,107.373,0.000498349,0.0449121,20.9995,550.95,-0.245723,0.0,0.0
396,98.75,43.0155,44.8896,128.987,104.53,108.116,0.000540645,0.0448909,20.9995,550.95,-0.305131,0.0,0.0
398,99.25,43.3707,45.3067,130.282,104.514,107.293,0.000592157,0.0448737,20.9994,550.97,-0.237365,0.0,0.0
400,99.75,43.3118,45.4769,132.091,104.527,107.612,0.000633882,0.0448597,20.9993,551,-0.263089,0.0,0.0
402,100.25,43.2462,45.1571,134.024,104.527,106.593,0.000668318,0.0448484,20.9992,550.99,-0.17698,0.0,0.0
404,100.75,43.196,44.9107,129.63,104.546,107.002,0.000696787,0.0448393,20.9992,550.95,-0.210007,0.0,0.0
406,101.25,42.9652,44.9643,128.724,104.533,106.927,0.000719846,0.0447816,20.9991,550.95,-0.204799,0.0,0.0
408,101.75,42.8943,45.124,131.749,104.546,107.612,0.000738524,0.0446897,20.9991,550.95,-0.261443,0.0,0.0
410,102.25,43.6112,45.2836,134.622,104.531,108.304,0.000753654,0.0446152,20.999,550.94,-0.320712,0.0,0.0
412,102.75,43.2159,44.99,127.335,104.548,108.062,0.000769745,0.0445549,20.999,550.96,-0.299074,0.0,0.0
414,103.25,43.3653,45.3593,133.207,104.533,107.465,0.000786231,0.044506,20.999,550.95,-0.250157,0.0,0.0
416,103.75,43.4822,45.4625,134.509,104.562,107.685,0.000804445,0.0444665,20.999,550.97,-0.266271,0.0,0.0
418,104.25,43.4794,44.9379,129.296,104.54,108.531,0.000819199,0.0443389,20.999,550.96,-0.338943,0.0,0.0
420,104.75,43.1483,45.2111,132.576,104.572,107.191,0.000838185,0.0442357,20.9989,550.96,-0.223748,0.0,0.0
422,105.25,43.407,45.5229,133.042,104.551,107.512,0.000859896,0.0441656,20.9989,550.95,-0.252616,0.0,0.0
424,105.75,43.7623,45.5148,134.816,104.574,107.766,0.000885161,0.0441089,20.9989,550.96,-0.271976,0.0,0.0
426,106.25,43.0472,45.1592,133.927,104.547,107.602,0.000912536,0.0440701,20.9989,550.96,-0.260545,0.0,0.0
428,106.75,43.5682,44.9878,128.847,104.571,107.323,0.00093471,0.0440452,20.9989,550.97,-0.234977,0.0,0.0
430,107.25,43.6352,45.2333,135.34,104.582,106.754,0.000963617,0.0440178,20.9989,550.97,-0.185967,0.0,0.0
432,107.75,43.62,44.8434,133.471,104.584,106.944,0.000987032,0.0439892,20.9989,550.95,-0.201796,0.0,0.0
434,108.25,43.2379,45.8015,130.661,104.561,107.414,0.00100356,0.043966,20.9989,550.92,-0.243506,0.0,0.0
436,108.75,43.3983,45.0473,131.194,104.577,108.327,0.00101696,0.0439472,20.9989,550.93,-0.318708,0.0,0.0
438,109.25,43.4904,45.1854,132.351,104.585,107.874,0.00102051,0.043932,20.9989,550.93,-0.280055,0.0,0.0
440,109.75,43.6125,45.4738,129.024,104.586,106.669,0.00102338,0.0438378,20.9989,550.94,-0.1783,0.0,0.0
442,110.25,43.7486,45.2559,131.849,104.578,107.975,0.00101598,0.0437616,20.9989,550.93,-0.289145,0.0,0.0
444,110.75,43.3984,45.5039,131.362,104.586,107.395,0.00100999,0.0437357,20.9989,550.93,-0.239743,0.0,0.0
446,111.25,42.8905,45.1887,130.15,104.576,108.217,0.00100066,0.043747,20.9989,550.95,-0.309595,0.0,0.0
448,111.75,43.6158,45.1768,129.434,104.583,107.344,0.000989071,0.0438108,20.9989,550.95,-0.23572,0.0,0.0
450,112.25,43.8579,45.4647,131.169,104.58,107.031,0.000979683,0.0438624,20.9989,550.95,-0.209565,0.0,0.0
452,112.75,43.3663,45.1537,130.885,104.588,107.204,0.000968432,0.0438633,20.9989,550.93,-0.22346,0.0,0.0
454,113.25,43.5473,45.7031,132.291,104.578,107.649,0.00095932,0.043864,20.9989,550.91,-0.261793,0.0,0.0
456,113.75,43.8251,45.2223,132.662,104.586,106.937,0.000951938,0.0438718,20.9989,550.92,-0.201096,0.0,0.0
458,114.25,43.4062,45.6723,130.43,104.59,107.2,0.000939883,0.0438845,20.9989,550.91,-0.223002,0.0,0.0
460,114.75,44.1329,45.6173,132.275,104.592,107.024,0.000930119,0.0438805,20.9989,550.92,-0.207987,0.0,0.0
462,115.25,43.4905,45.5958,134.06,104.581,108.427,0.000913705,0.0438643,20.9989,550.91,-0.326736,0.0,0.0
464,115.75,43.4043,45.6762,130.439,104.594,107.773,0.000900409,0.0438512,20.9989,550.92,-0.270885,0.0,0.0
466,116.25,43.6131,45.5367,130.195,104.583,107.182,0.000885996,0.0438262,20.9989,550.91,-0.222054,0.0,0.0
468,116.75,43.3738,45.2264,130.459,104.595,108.076,,0.0437931,,550.91,-0.29611,0.0,0.0
470,117.25,43.3912,45.6406,133.226,104.582,107.994,,0.0437663,,550.9,-0.290419,0.0,0.0
472,117.75,43.4946,45.4856,131.392,104.592,107.985,,0.0437581,,550.9,-0.288724,0.0,0.0
474,118.25,43.9268,45.2896,129.686,104.589,107.081,,0.0437516,,550.88,-0.213045,0.0,0.0
476,118.75,43.4209,45.7032,131.017,104.595,107.315,,0.0436645,,550.86,-0.232302,0.0,0.0
478,119.25,44.0256,45.4107,129.968,104.594,107.308,,0.0435939,,550.85,-0.231708,0.0,0.0
480,119.75,43.0887,45.4773,133.402,104.596,107.105,,,,550.84,-0.214393,0.0,0.0
482,120.25,43.1999,45.545,128.265,104.586,108.549,,,,550.84,-0.336361,0.0,0.0
484,120.75,43.2319,45.4193,134.892,104.602,107.158,,,,550.85,-0.21844,0.0,0.0
486,121.25,43.5995,44.8734,131.856,104.594,106.66,,,,550.829,-0.176969,0.0,0.0
488,121.75,43.4449,45.5429,129.451,104.597,108.196,,,,550.85,-0.306054,0.0,0.0
490,122.25,43.5552,45.5103,133.652,104.597,107.203,,,,550.86,-0.222653,0.0,0.0
492,122.75,43.307,45.4751,130.123,104.603,108.142,,,,550.87,-0.300985,0.0,0.0
494,123.25,43.531,45.5977,131.87,104.588,107.616,,,,550.87,-0.258137,0.0,0.0
496,123.75,43.4798,45.6773,130.75,104.586,107.229,,,,550.85,-0.225728,0.0,0.0
498,124.25,43.2309,45.5879,131.565,104.589,107.999,,,,550.85,-0.290263,0.0,0.0
500,124.75,43.5961,45.224,132.036,104.593,106.35,,,,550.84,-0.150737,0.0,0.0
502,125.25,43.689,45.2752,128.548,104.588,107.978,,,,550.84,-0.288505,0.0,0.0
504,125.75,43.5209,45.1207,129.671,104.592,107.769,,,,550.82,-0.270715,0.0,0.0
506,126.25,44.0162,45.1455,132.208,104.592,107.55,,,,550.829,-0.252322,0.0,0.0
508,126.75,43.6828,45.5649,132.628,104.594,107.573,,,,550.84,-0.253983,0.0,0.0
510,127.25,43.7748,45.6969,128.797,104.599,107.015,,,,550.86,-0.206503,0.0,0.0