File: 01_Data/Window_Screen/Cone/Window_Screen_Cone_HF50Scan_220524_R2.csv
Names,Time,Stack TC,Smoke TC,Exh Press,Smoke Comp,Smoke Meas,CO Meter,CO2 Meter,O2 Meter,Sample Mass,Ext Coeff,Start Test,Flame Verif
Chan Gain,,500,500,1,1,1,1,1,1,1,1,1.0,1.0
Offset,,0,0,0.13752,0,0,0,0,0,0,0,0.0,0.0
Gain,,1,1,25.011,13.8491,15.2622,1,1,1,1.00087,1.03118,1.0,1.0
Units,sec,C,C,Pa,%,%,%,%,%,g,/m,,
Baseline,,34.0764,35.311,137.909,103.441,104.266,0.000623715,0.0428266,20.9992,-450.64,-0.0718908,,
2,0.25,31.9141,32.6136,135.641,103.393,95.6616,0.00804137,0.0740589,20.9576,552.551,0.703053,0.0,1.0
4,0.75,31.1161,32.6994,126.79,103.405,74.6346,0.00980594,0.0862933,20.9382,552.471,2.94925,0.0,1.0
6,1.25,29.9454,31.4821,120.829,103.397,76.0715,0.0112352,0.0962031,20.9223,552.391,2.77609,0.0,1.0
8,1.75,30.2068,31.2804,124.072,103.407,66.1847,0.0123114,0.113685,20.9092,552.391,4.03629,0.0,1.0
10,2.25,30.5892,31.5704,133.987,103.404,57.4712,0.0131831,0.127845,20.8987,552.351,5.31291,0.0,1.0
12,2.75,31.3212,32.1076,127.438,103.412,69.4651,0.0134345,0.136843,20.8901,552.321,3.5992,0.0,1.0
14,3.25,31.3138,32.4012,130.557,103.414,81.6146,0.013638,0.141907,20.8831,552.331,2.14137,0.0,1.0
16,3.75,32.0654,31.9178,134.219,103.417,95.9364,0.0134368,0.146009,20.8775,552.331,0.679177,0.0,1.0
18,4.25,32.3903,32.8282,134.953,103.417,102.061,0.0129442,0.141031,20.8729,552.361,0.119419,0.0,1.0
20,4.75,32.6938,32.742,136.487,103.437,100.729,0.0125452,0.137,20.8803,552.351,0.239993,0.0,1.0
22,5.25,31.5768,31.6114,137.315,103.425,102.981,0.0115622,0.128457,20.8863,552.341,0.0389217,0.0,1.0
24,5.75,31.1826,31.6174,134.136,103.447,102.74,0.010766,0.121536,20.8972,552.341,0.0620523,0.0,0.0
26,6.25,31.3643,31.4591,137.217,103.431,103.282,0.00975856,0.113927,20.9061,552.361,0.0130446,0.0,0.0
28,6.75,31.3029,32.1226,132.598,103.458,103.855,0.00894257,0.10596,20.9132,552.361,-0.0346659,0.0,0.0
30,7.25,30.96,31.4264,139.571,103.431,104.355,0.00828162,0.0984288,20.9225,552.341,-0.0804516,0.0,0.0
32,7.75,31.0921,31.7014,136.736,103.461,104.127,0.00740695,0.091358,20.9301,552.341,-0.0580266,0.0,0.0
34,8.25,31.6004,31.7208,140.136,103.444,104.114,0.00669846,0.0856306,20.9388,552.351,-0.0584498,0.0,0.0
36,8.75,29.5282,30.6536,136.249,103.471,104.121,0.00599907,0.0797852,20.9458,552.331,-0.0566918,0.0,0.0
38,9.25,29.5156,30.1836,138.612,103.458,104.2,0.00543255,0.0750504,20.9533,552.341,-0.0646392,0.0,0.0
40,9.75,29.3263,30.2667,133.999,103.466,104.054,0.00489146,0.0708623,20.9594,552.391,-0.0512696,0.0,0.0
42,10.25,29.6561,30.1345,137.767,103.471,104.395,0.00445317,0.0671525,20.9651,552.311,-0.0804522,0.0,0.0
44,10.75,29.6152,30.6893,135.714,103.496,103.908,0.00404548,0.0639101,20.9698,552.381,-0.0359606,0.0,0.0
46,11.25,29.6247,30.2099,134.308,103.496,103.867,0.00371525,0.0610702,20.9744,552.341,-0.0323952,0.0,0.0
48,11.75,29.3731,30.6307,137.355,103.507,103.821,0.00340617,0.0586476,20.9782,552.481,-0.027378,0.0,0.0
50,12.25,29.7895,30.5746,140.352,103.502,103.997,0.00315581,0.0565753,20.9813,552.321,-0.0431882,0.0,0.0
52,12.75,29.8922,30.7013,134.803,103.519,104.481,0.00291392,0.0548968,20.9838,552.341,-0.0836273,0.0,0.0
54,13.25,29.5437,30.5019,135.516,103.519,104.089,0.00271799,0.0534143,20.9858,552.351,-0.0496513,0.0,0.0
56,13.75,30.5185,30.8013,140.348,103.532,103.757,0.00255928,0.0522135,20.9883,552.311,-0.0196384,0.0,0.0
58,14.25,30.4166,31.3029,135.857,103.535,104.123,0.00230759,0.0511863,20.9903,552.341,-0.0511623,0.0,0.0
60,14.75,30.4502,31.1875,135.867,103.558,103.85,0.00215852,0.0503542,20.9926,552.301,-0.025466,0.0,0.0
62,15.25,30.5911,31.7478,134.601,103.55,104.277,0.00209497,0.0496529,20.9932,552.341,-0.0633301,0.0,0.0
64,15.75,30.5191,31.7074,133.94,103.573,104.395,0.00188957,0.0490849,20.9948,552.311,-0.0714751,0.0,0.0
66,16.25,30.5528,31.8974,136.887,103.565,104.454,0.00182215,0.048596,20.9952,552.341,-0.0773379,0.0,0.0
68,16.75,30.2183,31.3347,134.904,103.584,103.901,0.00170684,0.0481742,20.9959,552.331,-0.0276766,0.0,0.0
70,17.25,30.3718,30.9481,134.729,103.586,104.073,0.0016064,0.0478325,20.9965,552.341,-0.0424418,0.0,0.0
72,17.75,30.7654,31.364,132.968,103.595,104.222,0.0015187,0.0473695,20.9974,552.331,-0.0545338,0.0,0.0
74,18.25,30.4586,31.4725,135.999,103.602,103.839,0.00144767,0.0472343,20.9981,552.351,-0.020691,0.0,0.0
76,18.75,30.376,30.9493,135.251,103.626,105.035,0.00139013,0.0468612,20.9987,552.321,-0.122144,0.0,0.0
78,19.25,30.2038,31.3338,136.418,103.615,104.192,0.00134352,0.0467337,20.9992,552.321,-0.0502091,0.0,0.0
80,19.75,30.8565,31.0294,136.263,103.63,104.835,0.0013155,0.0465156,20.9995,552.321,-0.104591,0.0,0.0
82,20.25,30.829,31.3599,139.616,103.624,104.508,0.00129281,0.0462708,20.9999,552.311,-0.0768116,0.0,0.0
84,20.75,30.2755,31.5767,139.316,103.653,104.372,0.00127443,0.0460724,21.0001,552.331,-0.062564,0.0,0.0
86,21.25,30.4097,31.4837,140.926,103.647,104.442,0.00126851,0.0458708,21.0003,552.331,-0.0690561,0.0,0.0
88,21.75,30.5966,31.9048,138.646,103.671,104.52,0.00127179,0.0457075,20.9998,552.331,-0.0738426,0.0,0.0
90,22.25,30.4566,31.2689,136.467,103.674,104.672,0.00127701,0.0454798,20.9994,552.331,-0.0866789,0.0,0.0
92,22.75,30.626,31.7434,137.292,103.693,104.315,0.00128354,0.0452953,20.9995,552.331,-0.0540983,0.0,0.0
94,23.25,30.6424,31.9884,139.637,103.682,104.063,0.00128115,0.0451459,20.9996,552.321,-0.0332545,0.0,0.0
96,23.75,30.3382,31.8001,139.312,103.704,104.528,0.00127228,0.0449962,20.9997,552.311,-0.0716517,0.0,0.0
98,24.25,30.5482,31.6238,138.398,103.691,104.25,0.00126511,0.0448491,20.9998,552.311,-0.0486262,0.0,0.0
100,24.75,30.6404,31.3669,138.127,103.71,104.426,0.00121793,0.0447227,20.9998,552.311,-0.0621905,0.0,0.0
102,25.25,30.8395,31.557,138.133,103.713,104.679,0.00117971,0.0446139,20.9999,552.311,-0.083814,0.0,0.0
104,25.75,30.1439,31.6917,135.742,103.739,104.495,0.00111938,0.0445258,20.9999,552.291,-0.0656531,0.0,0.0
106,26.25,30.212,31.7387,137.55,103.718,104.414,0.00104406,0.044468,20.9998,552.291,-0.0605181,0.0,0.0
108,26.75,30.7032,31.6252,138.626,103.758,104.44,0.000964541,0.0444213,20.9996,552.301,-0.059273,0.0,0.0
110,27.25,30.42,31.7149,141.18,103.745,104.625,0.000883458,0.0443697,21,552.301,-0.0763793,0.0,0.0
112,27.75,30.5648,31.5187,137.031,103.769,104.89,0.000817781,0.044328,21.0003,552.291,-0.0972399,0.0,0.0
114,28.25,30.3784,31.5549,136.779,103.759,105.325,0.000749907,0.0442722,21.0005,552.291,-0.135486,0.0,0.0
116,28.75,30.7484,31.7515,133.839,103.783,104.414,0.00068172,0.0442073,21.0007,552.291,-0.0548072,0.0,0.0
118,29.25,30.5457,31.4106,134.313,103.796,104.632,0.000620111,0.0441261,21.0008,552.281,-0.0725257,0.0,0.0
120,29.75,30.4476,31.8645,135.28,103.803,104.436,0.000564468,0.0440344,21.001,552.281,-0.054932,0.0,0.0
122,30.25,30.7039,31.8873,133.445,103.811,104.959,0.000519397,0.0439601,21.001,552.291,-0.0994953,0.0,0.0
124,30.75,30.4428,31.7996,137.261,103.813,104.713,0.000482889,0.0439136,21.0011,552.291,-0.0780601,0.0,0.0
126,31.25,30.4557,31.4635,135.802,103.821,104.585,0.000456507,0.0438759,21.0012,552.301,-0.0663254,0.0,0.0
128,31.75,30.463,31.4677,135.896,103.84,105.162,0.000438007,0.0438598,21.0012,552.301,-0.114403,0.0,0.0
130,32.25,30.109,31.5265,137.291,103.844,104.837,0.000423022,0.0438596,21.0013,552.301,-0.0860682,0.0,0.0
132,32.75,30.1814,31.6635,136.641,103.863,104.805,0.000410884,0.0438666,21.0013,552.311,-0.0816778,0.0,0.0
134,33.25,30.6836,32.0357,134.854,103.864,104.769,0.000404242,0.0438788,21.0013,552.301,-0.0784685,0.0,0.0
136,33.75,30.5939,31.8499,136.162,103.882,104.91,0.000401731,0.0438743,21.0014,552.291,-0.089058,0.0,0.0
138,34.25,30.561,31.7914,138.914,103.873,105.213,0.000399698,0.0438577,21.0014,552.281,-0.116014,0.0,0.0
140,34.75,31.0231,31.8608,133.114,103.891,105.246,0.000417835,0.04383,21.0014,552.291,-0.117194,0.0,0.0
142,35.25,30.3049,31.9251,137.259,103.888,105.164,0.00045033,0.0437945,21.0014,552.281,-0.110404,0.0,0.0
144,35.75,30.4485,31.852,137.905,103.909,105.193,0.000476652,0.0437659,21.0014,552.281,-0.111051,0.0,0.0
146,36.25,30.6472,31.61,138.792,103.919,104.907,0.000541673,0.0437563,21.0014,552.281,-0.0856164,0.0,0.0
148,36.75,30.7299,31.8264,138.411,103.933,104.696,0.00059434,0.0437485,21.0014,552.281,-0.0661918,0.0,0.0
150,37.25,30.5528,31.3126,137.573,103.941,105.459,0.000651709,0.0437422,21.0014,552.281,-0.131172,0.0,0.0
152,37.75,30.4191,31.8827,137.081,103.953,104.715,0.000711416,0.0437371,21.0014,552.271,-0.0660761,0.0,0.0
154,38.25,30.8688,32.0012,136.659,103.953,104.426,0.000766817,0.0437329,21.0015,552.261,-0.04106,0.0,0.0
156,38.75,30.5031,32.4144,138.092,103.967,104.496,0.000818028,0.0436614,21.0015,552.261,-0.0458556,0.0,0.0
158,39.25,31.1994,31.8265,139.873,103.978,104.681,0.000870454,0.0436035,21.0015,552.261,-0.060892,0.0,0.0
160,39.75,30.4707,31.5569,137.487,103.977,104.275,0.000912919,0.0435638,21.0015,552.251,-0.0259197,0.0,0.0
162,40.25,31.1027,31.6291,140.088,103.995,105.039,0.000951798,0.043538,21.0015,552.241,-0.0903959,0.0,0.0
164,40.75,30.6125,31.7858,140.828,104.006,105.012,0.000987323,0.0435315,21.0015,552.251,-0.0870763,0.0,0.0
166,41.25,30.6143,31.7545,138.324,104.008,104.76,0.0010161,0.0435392,21.0015,552.221,-0.0651583,0.0,0.0
168,41.75,30.5876,31.8105,140.914,104.01,104.58,0.00104549,0.0435239,21.0015,552.211,-0.0494745,0.0,0.0
170,42.25,30.7856,31.8129,136.26,104.032,105.478,0.0010693,0.0434921,21.0015,552.201,-0.124862,0.0,0.0
172,42.75,30.4768,31.3148,136.024,104.029,104.96,0.00109589,0.043452,21.0015,552.201,-0.0805936,0.0,0.0
174,43.25,30.9703,31.4125,138.316,104.048,104.8,0.00111742,0.0434066,21.0012,552.211,-0.0651285,0.0,0.0
176,43.75,30.8129,31.8145,136.089,104.052,104.494,0.00113486,0.0433698,21.0008,552.231,-0.0383437,0.0,0.0
178,44.25,30.3631,31.9231,137.28,104.06,104.976,0.00114003,0.0432991,21.0005,552.231,-0.0792794,0.0,0.0
180,44.75,30.5009,31.2622,137.394,104.057,105.392,0.00113614,0.0432419,21.0007,552.231,-0.115268,0.0,0.0
182,45.25,31.022,31.565,135.212,104.069,104.881,0.00112083,0.0432099,21.0008,552.221,-0.0703568,0.0,0.0
184,45.75,30.5248,32.2454,133.427,104.067,105.196,0.00109748,0.0431968,21.0009,552.231,-0.0976547,0.0,0.0
186,46.25,30.4642,31.8317,137.985,104.094,105.341,0.00107857,0.0431863,21.001,552.231,-0.107711,0.0,0.0
188,46.75,30.7572,31.6672,141.708,104.094,105.533,0.00103287,0.0431777,21.001,552.211,-0.124176,0.0,0.0
190,47.25,30.6386,31.6705,136.95,104.106,104.807,0.000995854,0.0431708,21.0011,552.221,-0.0606994,0.0,0.0
192,47.75,30.9551,31.8049,137.02,104.103,105.261,0.000950082,0.043158,21.0011,552.211,-0.100025,0.0,0.0
194,48.25,30.2644,31.7492,135.791,104.118,105.348,0.000913007,0.0431412,21.0012,552.201,-0.106181,0.0,0.0
196,48.75,30.8203,31.9107,137.439,104.123,105.021,0.000882976,0.0431276,21.0012,552.211,-0.0776626,0.0,0.0
198,49.25,30.7047,31.5635,137.152,104.144,105.364,0.000844083,0.0431166,21.0012,552.251,-0.105381,0.0,0.0
200,49.75,31.1399,32.2916,137.861,104.135,105.053,0.000809386,0.0431077,21.0012,552.251,-0.0794382,0.0,0.0
202,50.25,30.6456,31.676,136.87,104.156,104.361,0.000778407,0.0430932,21.0013,552.241,-0.0177717,0.0,0.0
204,50.75,30.9613,31.8321,139.497,104.158,104.995,0.000753315,0.0430751,21.0013,552.231,-0.0724017,0.0,0.0
206,51.25,30.5196,32.0418,136.497,104.168,104.791,0.000717217,0.043082,21.0013,552.211,-0.0539361,0.0,0.0
208,51.75,30.6891,31.6819,133.985,104.168,105.766,0.000687977,0.0431069,21.0013,552.221,-0.137768,0.0,0.0
210,52.25,30.8107,31.6711,136.694,104.192,105.594,0.000648528,0.043127,21.0013,552.211,-0.120886,0.0,0.0
212,52.75,30.7395,31.7532,137.424,104.176,104.868,0.000616573,0.0431298,21.0013,552.191,-0.0599058,0.0,0.0
214,53.25,30.4474,31.8525,133.432,104.209,105.245,0.000585841,0.0431319,21.0013,552.201,-0.0894876,0.0,0.0
216,53.75,30.4315,31.4529,138.597,104.202,105.14,0.000560948,0.0431474,21.0013,552.201,-0.0810995,0.0,0.0
218,54.25,30.4729,31.5921,137.71,104.209,105.323,0.000535935,0.0431598,21.0013,552.211,-0.0961702,0.0,0.0
220,54.75,30.5641,31.3162,138.045,104.202,105.095,0.000515675,0.04317,21.0013,552.211,-0.0772123,0.0,0.0
222,55.25,30.2199,31.4371,138.388,104.219,104.964,0.000501178,0.0431781,21.0013,552.201,-0.0643959,0.0,0.0
224,55.75,30.3283,32.3917,136.086,104.214,105.938,0.000491158,0.0431984,21.0013,552.191,-0.148455,0.0,0.0
226,56.25,30.5479,31.691,139.442,104.238,105.826,0.000483043,0.0432148,21.0013,552.191,-0.136738,0.0,0.0
228,56.75,30.8777,31.8943,134.528,104.25,104.484,0.000489806,0.0432145,21.0013,552.191,-0.0202814,0.0,0.0
230,57.25,30.4266,31.5202,140.568,104.264,104.911,0.000495285,0.0432142,21.0018,552.181,-0.0560077,0.0,0.0
232,57.75,30.8753,31.8303,138.875,104.256,104.83,0.000509938,0.0431925,21.0021,552.181,-0.0496784,0.0,0.0
234,58.25,30.4467,31.4214,134.324,104.27,104.993,0.000531,0.0431555,21.0024,552.201,-0.0624467,0.0,0.0
236,58.75,31.1554,32.0005,137.837,104.263,104.287,0.000556555,0.0431112,21.0026,552.181,-0.00206843,0.0,0.0
238,59.25,30.5703,32.0172,137.671,104.276,104.793,0.000577255,0.0430624,21.0028,552.161,-0.0447031,0.0,0.0
240,59.75,30.8444,31.5062,132.668,104.275,104.816,0.000590381,0.0430229,21.003,552.201,-0.0467855,0.0,0.0
242,60.25,30.8652,31.8834,131.29,104.296,105.4,0.000601013,0.0430124,21.0031,552.201,-0.0952134,0.0,0.0
244,60.75,30.4387,32.0568,140.737,104.286,105.696,0.000601131,0.0430232,21.0032,552.211,-0.12152,0.0,0.0
246,61.25,30.1237,31.6145,133.658,104.313,105.646,0.000601227,0.043032,21.0033,552.231,-0.114868,0.0,0.0
248,61.75,30.3376,31.3335,134.6,104.3,105.192,0.000601304,0.0430392,21.0033,552.231,-0.0770388,0.0,0.0
250,62.25,31.0563,31.9705,137.798,104.333,104.882,0.000613501,0.0430449,21.0034,552.241,-0.0475063,0.0,0.0
252,62.75,30.9319,31.6943,137.938,104.319,105.131,0.000623381,0.0430496,21.0034,552.231,-0.0701808,0.0,0.0
254,63.25,30.7852,32.0529,136.633,104.351,105.182,0.00065688,0.0430391,21.0035,552.191,-0.0717235,0.0,0.0
256,63.75,30.8727,31.6427,140.304,104.324,105.112,0.000684014,0.0430176,21.0035,552.201,-0.0680983,0.0,0.0
258,64.25,30.5793,31.9181,136.789,104.343,105.547,0.000722999,0.042993,21.0035,552.191,-0.103772,0.0,0.0
260,64.75,30.9987,32.2994,138.066,104.349,104.989,0.000754578,0.0429667,21.0035,552.181,-0.055309,0.0,0.0
262,65.25,30.3979,31.6764,140.336,104.357,105.362,0.000780156,0.0429453,21.0036,552.171,-0.0867355,0.0,0.0
264,65.75,30.659,31.7374,139.115,104.357,105.198,0.000800875,0.0429689,21.0036,552.161,-0.0725751,0.0,0.0
266,66.25,30.7177,32.3685,138.715,104.366,104.656,0.000817657,0.0429881,21.0036,552.181,-0.0250692,0.0,0.0
268,66.75,30.9799,32.1979,137.935,104.377,104.864,0.000824811,0.0429964,21.0036,552.181,-0.0420935,0.0,0.0
270,67.25,30.5794,31.7617,137.522,104.38,105.184,0.000783369,0.0429967,21.0035,552.181,-0.0693565,0.0,0.0
272,67.75,30.6988,31.7531,137.89,104.383,104.872,0.00074431,0.0430105,21.0034,552.171,-0.0423004,0.0,0.0
274,68.25,31.0425,31.9539,136.885,104.392,105.242,0.00071919,0.0430217,21.0031,552.181,-0.0733724,0.0,0.0
276,68.75,30.9052,31.5038,137.443,104.392,105.054,0.000676235,0.0430308,21.0026,552.161,-0.0571486,0.0,0.0
278,69.25,30.8486,31.954,138.814,104.399,105.205,0.000641441,0.0430741,21.0023,552.171,-0.0695472,0.0,0.0
280,69.75,30.7934,32.0911,137.792,104.416,105.35,0.000593863,0.0431095,21.0022,552.171,-0.0806083,0.0,0.0
282,70.25,30.5,32.3349,136.121,104.429,105.567,0.000555324,0.0431959,21.0023,552.161,-0.09801,0.0,0.0
284,70.75,30.9268,31.8758,140.948,104.435,105.355,0.000518049,0.0431992,21.0022,552.161,-0.079324,0.0,0.0
286,71.25,30.8759,31.6311,136.287,104.435,105.043,0.000487856,0.0432005,21.0019,552.161,-0.0524881,0.0,0.0
288,71.75,31.1941,32.215,137.263,104.434,105.566,0.000453707,0.0432029,21.0017,552.181,-0.0974917,0.0,0.0
290,72.25,30.8889,32.295,137.829,104.426,105.505,0.000426047,0.0432049,21.0015,552.181,-0.0929966,0.0,0.0
292,72.75,30.9818,31.6947,139.462,104.448,105.011,0.000403641,0.0432064,21.0016,552.161,-0.0486663,0.0,0.0
294,73.25,31.3534,32.1487,136.805,104.439,105.08,0.000385493,0.0432622,21.0018,552.161,-0.0553334,0.0,0.0
296,73.75,30.7298,32.0204,134.426,104.454,105.199,0.000388969,0.0433074,21.0021,552.171,-0.0642309,0.0,0.0
298,74.25,31.1827,32.4066,134.451,104.469,106.082,0.000391784,0.0433304,21.0022,552.171,-0.138568,0.0,0.0
300,74.75,31.3128,32.2059,137.752,104.47,105.522,0.000414674,0.043349,21.0024,552.171,-0.0905914,0.0,0.0
302,75.25,30.8966,32.1958,137.028,104.461,105.536,0.000433215,0.0433497,21.0025,552.151,-0.0925941,0.0,0.0
304,75.75,30.9611,31.9508,138.794,104.47,105.092,0.000448233,0.0433374,21.0026,552.151,-0.0537045,0.0,0.0
306,76.25,31.0574,32.1039,137.463,104.475,105.234,0.000481019,0.0433346,21.0027,552.151,-0.0655206,0.0,0.0
308,76.75,31.167,32.1639,140.524,104.485,105.479,0.000507576,0.0433387,21.0027,552.171,-0.0856371,0.0,0.0
310,77.25,31.1458,31.9007,136.003,104.485,105.261,0.00053228,0.0433493,21.0028,552.141,-0.0669647,0.0,0.0
312,77.75,30.9241,31.7994,137.839,104.487,105.63,0.000555164,0.0433643,21.0024,552.131,-0.0984226,0.0,0.0
314,78.25,30.6848,32.4383,137.615,104.494,105.111,0.000573701,0.0433765,21.002,552.131,-0.0532554,0.0,0.0
316,78.75,30.6088,32.5592,137.182,104.513,105.012,0.000587569,0.0434136,21.0017,552.131,-0.0430344,0.0,0.0
318,79.25,30.7053,32.6073,140.514,104.504,105.137,0.000598803,0.0434437,21.0013,552.141,-0.0546212,0.0,0.0
320,79.75,31.0903,31.7415,139.265,104.533,105.219,0.000609116,0.0434465,21.0011,552.141,-0.0591509,0.0,0.0
322,80.25,31.4813,31.7144,138.169,104.529,105.913,0.00061747,0.0434294,21.0008,552.111,-0.118942,0.0,0.0
324,80.75,30.7702,32.0006,137.821,104.53,105.821,0.000630304,0.0434156,21.0006,552.091,-0.11103,0.0,0.0
326,81.25,31.261,32.2564,136.644,104.526,104.931,0.000640701,0.0433763,21.0005,552.081,-0.0349171,0.0,0.0
328,81.75,30.8387,32.0449,133.02,104.544,105.307,0.000656405,0.0433445,21.0004,552.121,-0.0658019,0.0,0.0
330,82.25,30.5657,31.5481,133.485,104.546,104.843,0.000669126,0.0433869,21.0002,552.091,-0.0256461,0.0,0.0
332,82.75,31.162,32.5375,132.628,104.554,105.308,0.000679429,0.0434213,21.0002,552.091,-0.0649275,0.0,0.0
334,83.25,31.2924,32.1616,134.543,104.556,105.553,0.000684134,0.0434491,21.0001,552.111,-0.0857639,0.0,0.0
336,83.75,31.229,32.0636,138.487,104.566,104.906,0.000687944,0.0434716,21,552.151,-0.0293878,0.0,0.0
338,84.25,31.0731,32.1977,140.501,104.55,105.175,0.000683748,0.0435035,21,552.181,-0.0539242,0.0,0.0
340,84.75,30.3767,32.1576,140.287,104.568,105.291,0.000680349,0.0435294,21,552.171,-0.0623566,0.0,0.0
342,85.25,30.6235,32.35,137.927,104.562,105.352,0.000671528,0.0435359,21.0002,552.141,-0.0681054,0.0,0.0
344,85.75,30.8335,32.2485,137.582,104.601,105.298,0.000664383,0.0435283,21.0005,552.121,-0.0601061,0.0,0.0
346,86.25,31.2287,32.2871,140.203,104.563,105.064,0.000659809,0.0435222,21.0008,552.111,-0.0432879,0.0,0.0
348,86.75,30.9821,32.179,136.264,104.586,105.338,0.000656104,0.043449,21.0011,552.111,-0.0648618,0.0,0.0
350,87.25,30.9703,31.7598,140.849,104.584,105.179,0.00066524,0.0433898,21.0013,552.131,-0.0513553,0.0,0.0
352,87.75,31.1779,31.9793,137.853,104.598,105.492,0.000672641,0.0433145,21.0014,552.101,-0.0769143,0.0,0.0
354,88.25,31.1573,32.0655,134.623,104.587,105.504,0.000687546,0.0432536,21.0016,552.101,-0.0789792,0.0,0.0
356,88.75,30.9863,31.9713,136.925,104.611,105.213,0.000707639,0.0432178,21.0017,552.131,-0.0519436,0.0,0.0
358,89.25,31.1244,32.1152,136.489,104.606,105.435,0.000723914,0.0431889,21.0015,552.101,-0.0714224,0.0,0.0
360,89.75,30.878,32.0629,137.285,104.627,105.805,0.000737096,0.0431927,21.0012,552.141,-0.101231,0.0,0.0
362,90.25,31.3009,32.3053,139.346,104.607,105.711,0.00073755,0.0431958,21.0009,552.131,-0.095014,0.0,0.0
364,90.75,30.8181,32.1477,137.15,104.622,106.094,0.000728716,0.0432119,21.0009,552.131,-0.1264,0.0,0.0
366,91.25,31.1981,31.8012,136.62,104.625,105.294,0.00070368,0.043225,21.0009,552.081,-0.0576592,0.0,0.0
368,91.75,30.9815,32.2175,136.475,104.635,105.919,0.00066731,0.0432401,21.0008,552.051,-0.11036,0.0,0.0
370,92.25,31.1889,32.1016,135.252,104.616,105.698,0.000621263,0.0432442,21.0008,552.121,-0.0930914,0.0,0.0
372,92.75,31.0967,32.2275,138.71,104.633,105.842,0.000569036,0.0432802,21.0008,552.141,-0.103864,0.0,0.0
374,93.25,31.0854,32.2565,136.052,104.63,105.442,0.000519718,0.0433356,21.0008,552.111,-0.0699759,0.0,0.0
376,93.75,30.7959,32.0036,133.616,104.65,105.519,0.000473459,0.043359,21.0007,552.111,-0.0748526,0.0,0.0
378,94.25,30.8021,32.2458,137.218,104.633,105.723,0.000435989,0.0433585,21.0007,552.091,-0.0937451,0.0,0.0
380,94.75,31.6194,32.4026,136.993,104.655,105.594,0.000409272,0.0433581,21.0007,552.131,-0.080797,0.0,0.0
382,95.25,30.9577,32.3426,138.804,104.632,105.557,0.000394008,0.0433987,21.0007,552.131,-0.0795808,0.0,0.0
384,95.75,31.0168,32.6481,136.728,104.66,105.781,0.000387383,0.0434316,21.0007,552.131,-0.0963833,0.0,0.0
386,96.25,31.1517,32.2103,140.029,104.667,105.213,0.000382017,0.0434719,21.0007,552.141,-0.0470413,0.0,0.0
388,96.75,31.0556,32.5518,136.424,104.67,105.688,0.000381496,0.0435045,21.0007,552.151,-0.087538,0.0,0.0
390,97.25,30.9595,32.6541,136.829,104.657,105.757,0.000384519,0.0435582,21.0007,552.151,-0.0946108,0.0,0.0
392,97.75,29.9902,32.4688,137.322,104.68,105.527,0.000388881,0.0436017,21.0007,552.121,-0.0729382,0.0,0.0
394,98.25,30.9877,32.6625,136.546,104.657,105.657,0.000394137,0.0436505,21.0011,552.131,-0.0860018,0.0,0.0
396,98.75,31.0529,32.1715,138.017,104.671,105.669,0.000398395,0.0436901,21.0015,552.101,-0.0857574,0.0,0.0
398,99.25,31.0189,32.2325,137.963,104.673,105.385,0.000414606,0.043654,21.0018,552.101,-0.0613339,0.0,0.0
400,99.75,31.0359,31.9669,138.456,104.689,105.973,0.000439224,0.0436248,21.002,552.101,-0.110261,0.0,0.0
402,100.25,31.1868,32.1117,137.286,104.692,105.399,0.000471297,0.0436011,21.0022,552.101,-0.0608893,0.0,0.0
404,100.75,31.157,32.366,135.151,104.693,106.374,0.000508196,0.043541,21.0023,552.081,-0.144061,0.0,0.0
406,101.25,31.5281,32.0362,136.057,104.68,105.287,0.000542556,0.0434923,21.0024,552.101,-0.052314,0.0,0.0
408,101.75,31.2564,32.4379,132.649,104.709,105.791,0.000574412,0.0434256,21.0025,552.101,-0.0929471,0.0,0.0
410,102.25,30.5333,32.389,138.207,104.679,105.266,0.000595744,0.0433716,21.0026,552.121,-0.0505458,0.0,0.0
412,102.75,30.9827,32.3977,136.208,104.697,105.073,0.000608997,0.043335,21.0027,552.131,-0.0324309,0.0,0.0
414,103.25,30.9078,32.344,132.868,104.694,105.36,0.000619733,0.0433118,21.0027,552.151,-0.0573516,0.0,0.0
416,103.75,31.496,32.4386,135.405,104.696,105.98,0.000620765,0.0433218,21.0028,552.121,-0.110236,0.0,0.0
418,104.25,30.9286,32.1394,135.465,104.703,106.045,0.000614704,0.0433557,21.0024,552.121,-0.115213,0.0,0.0
420,104.75,30.6932,32.3893,138.998,104.701,105.245,0.000605326,0.0433903,21.0021,552.101,-0.0468094,0.0,0.0
422,105.25,30.7596,32.2483,140.295,104.708,105.192,0.000593707,0.0434248,21.0018,552.091,-0.0416601,0.0,0.0
424,105.75,31.0789,32.4094,140.294,104.707,105.152,0.00057217,0.0434527,21.0016,552.091,-0.0383616,0.0,0.0
426,106.25,30.6039,32.1274,135.19,104.709,105.684,0.000543813,0.0434617,21.0014,552.101,-0.0838591,0.0,0.0
428,106.75,31.1493,32.7486,136.993,104.71,105.281,0.000502989,0.043469,21.0013,552.091,-0.0492008,0.0,0.0
430,107.25,31.4138,32.11,135.389,104.707,105.488,0.000453853,0.0434677,21.0012,552.101,-0.0672466,0.0,0.0
432,107.75,31.2611,32.6218,136.528,104.718,105.405,0.000397489,0.0434602,21.0011,552.091,-0.0591488,0.0,0.0
434,108.25,31.2234,32.2896,137.215,104.706,105.874,0.000336926,0.0434542,21.001,552.081,-0.100405,0.0,0.0
436,108.75,31.1816,32.5785,139.368,104.722,105.759,0.00028787,0.0434493,21.0009,552.061,-0.0891435,0.0,0.0
438,109.25,31.0885,32.3606,136.85,104.71,106.324,0.0002312,0.0434166,21.0009,552.071,-0.138398,0.0,0.0
440,109.75,31.3236,32.6812,134.951,104.724,106.044,0.000185298,0.0433643,21.0008,552.081,-0.113272,0.0,0.0
442,110.25,30.8472,32.2684,135.427,104.716,105.184,0.000148116,0.0433219,21.0008,552.091,-0.0403218,0.0,0.0
444,110.75,30.9854,32.7249,134.861,104.723,105.172,0.000134865,0.043274,21.0011,552.081,-0.0387368,0.0,0.0
446,111.25,31.3753,32.5103,135.36,104.722,105.866,0.000124131,0.0432638,21.0016,552.071,-0.0983043,0.0,0.0
448,111.75,31.21,32.6655,136.802,104.718,105.711,0.000137222,0.0432814,21.002,552.061,-0.0854074,0.0,0.0
450,112.25,30.9245,32.4057,139.291,104.738,105.944,0.000147825,0.0432957,21.0024,552.041,-0.103557,0.0,0.0
452,112.75,31.8765,32.4236,136.987,104.726,105.509,0.000152346,0.0433073,21.0025,552.071,-0.0674373,0.0,0.0
454,113.25,31.5819,32.3126,135.269,104.735,106.093,0.000174737,0.0433174,21.0028,552.051,-0.116533,0.0,0.0
456,113.75,30.9457,32.3579,136.165,104.721,105.347,0.000206069,0.0433256,21.0021,552.111,-0.053896,0.0,0.0
458,114.25,31.2057,31.9803,139.02,104.733,105.415,0.000241654,0.0433251,21.0016,552.091,-0.0587108,0.0,0.0
460,114.75,31.63,32.969,137.985,104.723,105.286,0.000279663,0.0433182,21.0016,552.081,-0.048469,0.0,0.0
462,115.25,31.3535,32.8251,137.828,104.731,105.526,0.000320661,0.0433127,21.0016,552.071,-0.0684368,0.0,0.0
464,115.75,31.4061,32.2436,138.658,104.721,105.522,0.00036306,0.0433103,21.0016,552.041,-0.0688801,0.0,0.0
466,116.25,31.1885,32.2035,136.589,104.731,105.122,0.000401233,0.0433062,21.0016,552.061,-0.033715,0.0,0.0
468,116.75,31.0354,32.539,139.356,104.727,105.71,,0.0433029,,552.041,-0.0844817,0.0,0.0
470,117.25,31.3212,32.6953,137.601,104.733,105.567,,0.043273,,552.051,-0.0717664,0.0,0.0
472,117.75,31.2583,32.3966,134.859,104.727,106.013,,0.0432631,,552.071,-0.110393,0.0,0.0
474,118.25,31.5532,32.338,137.375,104.732,105.224,,0.043268,,552.071,-0.0423827,0.0,0.0
476,118.75,31.5469,32.6187,138.611,104.732,106.127,,0.043272,,552.071,-0.119684,0.0,0.0
478,119.25,30.7134,32.3601,136.128,104.737,105.682,,0.0432752,,552.091,-0.0812573,0.0,0.0
480,119.75,31.3482,32.0761,137.69,104.733,105.798,,,,552.091,-0.0915396,0.0,0.0
482,120.25,31.3422,32.5057,141.105,104.743,105.709,,,,552.091,-0.0830152,0.0,0.0
484,120.75,31.6669,32.2382,138.515,104.732,105.505,,,,552.101,-0.0665302,0.0,0.0
486,121.25,31.1022,32.3428,135.606,104.737,105.419,,,,552.091,-0.058738,0.0,0.0
488,121.75,30.8388,32.1066,137.077,104.719,105.51,,,,552.061,-0.0680609,0.0,0.0
490,122.25,31.5947,32.8017,136.598,104.734,105.725,,,,552.041,-0.0851761,0.0,0.0
492,122.75,30.8964,32.6437,138.705,104.726,105.661,,,,552.021,-0.0803695,0.0,0.0
494,123.25,31.2352,32.3553,135.857,104.739,105.586,,,,552.061,-0.0727789,0.0,0.0
496,123.75,30.8708,32.5774,135.151,104.737,105.501,,,,552.041,-0.0657725,0.0,0.0
498,124.25,31.3469,32.7526,135.993,104.734,106.044,,,,552.061,-0.112469,0.0,0.0
500,124.75,31.3581,31.9776,135.067,104.718,105.926,,,,552.071,-0.103759,0.0,0.0
502,125.25,31.45,32.6917,136.212,104.728,105.357,,,,552.071,-0.0541916,0.0,0.0
504,125.75,31.7041,32.6315,134.401,104.719,106.146,,,,552.091,-0.122483,0.0,0.0
506,126.25,31.5757,32.909,140.383,104.723,105.895,,,,552.081,-0.100622,0.0,0.0
508,126.75,31.4631,32.8835,136.242,104.717,105.546,,,,552.061,-0.0713616,0.0,0.0
510,127.25,31.3477,32.3083,134.732,104.722,105.881,,,,552.071,-0.0995379,0.0,0.0
511,127.5,31.3454,32.6759,135.835,104.72,105.475,,,,552.061,-0.0649932,0.0,0.0