File: 01_Data/Window_Screen/Cone/Window_Screen_Cone_HF50Scan_220524_R1.csv
Names,Time,Stack TC,Smoke TC,Exh Press,Smoke Comp,Smoke Meas,CO Meter,CO2 Meter,O2 Meter,Sample Mass,Ext Coeff,Start Test,Flame Verif
Chan Gain,,500,500,1,1,1,1,1,1,1,1,1.0,1.0
Offset,,0,0,0.13752,0,0,0,0,0,0,0,0.0,0.0
Gain,,1,1,25.011,13.8491,15.2622,1,1,1,1.00087,1.03118,1.0,1.0
Units,sec,C,C,Pa,%,%,%,%,%,g,/m,,
Baseline,,32.676,33.919,138.578,105.098,106.006,0.00091501,0.0440926,20.9975,-450.503,-0.0778086,,
2,0.25,31.1081,32.5244,131.214,105.225,83.3425,0.00881925,0.0761423,20.9377,574.87,2.10889,0.0,0.0
4,0.75,31.287,32.3847,126.38,105.226,79.3072,0.0102941,0.090629,20.919,574.76,2.55786,0.0,1.0
6,1.25,29.9186,31.538,128.292,105.226,92.2545,0.0114887,0.108073,20.9034,574.65,1.19005,0.0,1.0
8,1.75,29.9099,30.8593,125.972,105.235,72.1935,0.0122691,0.122203,20.8907,574.64,3.40877,0.0,1.0
10,2.25,30.1791,30.89,127.196,105.226,61.773,0.0129012,0.134393,20.8805,574.54,4.81798,0.0,1.0
12,2.75,30.6015,31.6001,134.129,105.239,73.1307,0.0134133,0.144267,20.8722,574.57,3.2924,0.0,1.0
14,3.25,31.5246,31.7131,132.823,105.225,89.4562,0.0133771,0.146552,20.8657,574.55,1.46852,0.0,1.0
16,3.75,32.3283,31.9726,134.127,105.238,99.9275,0.0129419,0.148403,20.8605,574.57,0.468352,0.0,1.0
18,4.25,31.7952,32.4146,138.063,105.23,102.326,0.0122662,0.14307,20.8563,574.6,0.253133,0.0,1.0
20,4.75,32.2508,32.4768,138.282,105.235,103.443,0.011428,0.138749,20.8625,574.6,0.155412,0.0,1.0
22,5.25,32.607,32.2303,134.281,105.235,104.59,0.0107491,0.13525,20.8676,574.58,0.055573,0.0,1.0
24,5.75,32.5354,32.4812,137.725,105.266,105.991,0.0098941,0.125485,20.8716,574.57,-0.0621015,0.0,1.0
26,6.25,31.1,31.3244,137.735,105.238,105.983,0.00892699,0.117574,20.8828,574.59,-0.0637829,0.0,1.0
28,6.75,30.7906,31.3916,136.561,105.247,105.271,0.00814362,0.109742,20.8918,574.58,-0.00211049,0.0,0.0
30,7.25,30.706,30.8807,137.592,105.256,106.106,0.00727058,0.102116,20.9021,574.59,-0.0727496,0.0,0.0
32,7.75,30.8441,31.57,139.199,105.262,105.968,0.00656342,0.0959383,20.9131,574.56,-0.0604377,0.0,0.0
34,8.25,29.8179,29.5029,135.332,105.24,106.011,0.00586763,0.0899797,20.9246,574.57,-0.0660626,0.0,0.0
36,8.75,29.0271,29.8089,139.451,105.253,105.735,0.00530405,0.0842938,20.934,574.53,-0.0413395,0.0,0.0
38,9.25,28.8953,29.6637,138.286,105.256,106.259,0.00478252,0.0796883,20.9429,574.66,-0.0857639,0.0,0.0
40,9.75,29.2065,29.9475,138.395,105.277,106.256,0.00436009,0.0750669,20.9501,574.63,-0.0837829,0.0,0.0
42,10.25,29.7513,30.0449,138.709,105.264,106.569,0.00415743,0.0713236,20.9536,574.61,-0.111439,0.0,0.0
44,10.75,29.3474,30.108,139.413,105.286,106.557,0.00381089,0.0678398,20.9596,574.56,-0.108521,0.0,0.0
46,11.25,28.8721,30.5723,138.045,105.27,105.762,0.00348982,0.065018,20.9645,574.6,-0.0421606,0.0,0.0
48,11.75,28.957,29.7221,135.952,105.278,106.24,0.00322975,0.0624041,20.9689,574.62,-0.0822463,0.0,0.0
50,12.25,29.8752,30.4443,137.57,105.264,105.764,0.00301909,0.0602868,20.9724,574.57,-0.0429049,0.0,0.0
52,12.75,30.242,30.4739,138.507,105.277,106.876,0.00280568,0.0583531,20.9753,574.57,-0.136368,0.0,0.0
54,13.25,29.4141,30.0029,135.377,105.276,105.846,0.00263282,0.0575287,20.9777,574.6,-0.0488197,0.0,0.0
56,13.75,28.9369,29.5514,141.397,105.295,106.057,0.00247995,0.0560687,20.9796,574.57,-0.0652751,0.0,0.0
58,14.25,29.3124,29.6934,134.799,105.284,106.181,0.00234456,0.0548408,20.9811,574.6,-0.0767795,0.0,0.0
60,14.75,29.487,30.312,136.986,105.319,105.845,0.00223489,0.0538461,20.9823,574.58,-0.0450368,0.0,0.0
62,15.25,28.5465,29.7215,138.416,105.291,106.164,0.00211555,0.0529039,20.9838,574.58,-0.0747303,0.0,0.0
64,15.75,29.2261,29.7517,132.015,105.316,106.238,0.00200349,0.0521407,20.9849,574.57,-0.0788568,0.0,0.0
66,16.25,28.3812,30.0471,135.866,105.289,106.069,0.00189886,0.0514506,20.9861,574.57,-0.0667002,0.0,0.0
68,16.75,28.9827,29.6997,139.19,105.31,106.413,0.00180193,0.0508269,20.9873,574.57,-0.09423,0.0,0.0
70,17.25,29.0508,30.1878,138.077,105.306,106.534,0.00171245,0.0502858,20.9886,574.56,-0.104842,0.0,0.0
72,17.75,29.0055,29.9257,137.17,105.326,106.721,0.00163676,0.0498151,20.9897,574.57,-0.11902,0.0,0.0
74,18.25,29.4435,30.0051,139.983,105.316,106.438,0.00157257,0.0494339,20.9906,574.58,-0.0958961,0.0,0.0
76,18.75,28.8132,29.5423,140.413,105.313,106.345,0.00152058,0.0490022,20.9914,574.57,-0.088194,0.0,0.0
78,19.25,28.9856,30.4582,140.548,105.316,106.061,0.0014759,0.0486526,20.992,574.56,-0.0637747,0.0,0.0
80,19.75,29.0283,29.9169,139.156,105.335,106.095,0.00143741,0.0482738,20.9924,574.57,-0.0649677,0.0,0.0
82,20.25,29.1854,30.0377,138.761,105.331,106.615,0.00139918,0.047967,20.9928,574.54,-0.109615,0.0,0.0
84,20.75,29.4652,29.8809,139.249,105.347,105.975,0.00136187,0.0476639,20.9932,574.53,-0.0538162,0.0,0.0
86,21.25,29.057,30.0253,139.31,105.338,105.96,0.00132333,0.0474184,20.9934,574.54,-0.0531904,0.0,0.0
88,21.75,28.7326,29.906,136.617,105.351,106.308,0.00128461,0.047198,20.9936,574.54,-0.0818704,0.0,0.0
90,22.25,28.9688,30.2594,136.644,105.354,106.296,0.00124941,0.0470001,20.9938,574.53,-0.0804734,0.0,0.0
92,22.75,29.0606,29.7083,139.117,105.361,106.229,0.00121744,0.0467823,20.9944,574.54,-0.0741834,0.0,0.0
94,23.25,29.2083,30.0426,138.586,105.348,106.231,0.00119347,0.0465542,20.9948,574.53,-0.0755028,0.0,0.0
96,23.75,29.0713,29.9086,138.286,105.362,106.093,0.00117578,0.0463551,20.9952,574.52,-0.0625624,0.0,0.0
98,24.25,29.1316,29.7356,136.627,105.374,105.784,0.00116145,0.0461808,20.9955,574.53,-0.03514,0.0,0.0
100,24.75,29.3463,30.0043,137.847,105.372,106.539,0.00116201,0.0460325,20.9957,574.52,-0.0996551,0.0,0.0
102,25.25,28.8509,29.8978,141.478,105.364,106.706,0.00116246,0.045906,20.9959,574.53,-0.11449,0.0,0.0
104,25.75,29.1578,30.3053,142.47,105.38,106.266,0.00116283,0.0458034,20.9961,574.53,-0.075723,0.0,0.0
106,26.25,29.1493,29.9821,139.612,105.376,106.285,0.00116312,0.0457204,20.9965,574.53,-0.0777474,0.0,0.0
108,26.75,29.2804,30.1493,137.411,105.389,106.196,0.00116913,0.0456172,20.9971,574.53,-0.0690485,0.0,0.0
110,27.25,29.0394,30.3434,133.685,105.381,106.113,0.00117918,0.0455013,20.9976,574.53,-0.0626335,0.0,0.0
112,27.75,28.827,29.9972,136.853,105.398,106.717,0.00119053,0.0454075,20.998,574.54,-0.112572,0.0,0.0
114,28.25,29.1622,29.6667,139.349,105.381,106.731,0.0012026,0.0453314,20.9983,574.53,-0.115131,0.0,0.0
116,28.75,28.9408,30.0161,139.119,105.403,106.653,0.00121623,0.0452699,20.9986,574.52,-0.106651,0.0,0.0
118,29.25,28.9298,30.1451,135.089,105.397,106.405,0.00123072,0.0451791,20.9988,574.53,-0.086115,0.0,0.0
120,29.75,29.1906,30.1362,139.262,105.411,106.291,0.00124182,0.0451055,20.999,574.52,-0.0752158,0.0,0.0
122,30.25,28.9461,30.6279,135.116,105.398,106.741,0.00125024,0.0450531,20.9991,574.53,-0.114585,0.0,0.0
124,30.75,29.1467,30.0863,134.962,105.408,106.266,0.00124552,0.0450171,20.9992,574.52,-0.0732893,0.0,0.0
126,31.25,29.4374,30.303,136.714,105.399,106.847,0.00123133,0.0449952,20.9993,574.52,-0.123471,0.0,0.0
128,31.75,29.1504,30.4949,140.118,105.42,105.959,0.0012051,0.0449838,20.9994,574.51,-0.0461092,0.0,0.0
130,32.25,29.0754,29.6734,138.358,105.405,106.569,0.00117061,0.0449747,20.9995,574.51,-0.0993531,0.0,0.0
132,32.75,29.2652,30.3071,136.638,105.42,106.691,0.00114266,0.0449672,20.9995,574.5,-0.108403,0.0,0.0
134,33.25,29.5569,30.1486,138.012,105.407,106.648,0.00108479,0.0449339,20.9996,574.5,-0.105853,0.0,0.0
136,33.75,29.2063,29.899,139.813,105.423,106.59,0.00103791,0.044907,20.9996,574.5,-0.0996114,0.0,0.0
138,34.25,28.6185,29.6204,139.727,105.421,106.762,0.000982929,0.0448578,20.9996,574.49,-0.114327,0.0,0.0
140,34.75,28.9751,29.8893,138.085,105.433,106.549,0.000938399,0.044818,20.9996,574.5,-0.0952624,0.0,0.0
142,35.25,29.155,30.1383,136.348,105.413,106.994,0.000897217,0.0447714,20.9997,574.49,-0.134685,0.0,0.0
144,35.75,28.7267,30.4539,137.166,105.431,106.101,0.00085926,0.0447208,20.9997,574.49,-0.0573613,0.0,0.0
146,36.25,29.3175,29.9891,135.028,105.417,106.456,0.000828514,0.0446798,20.9997,574.51,-0.0886529,0.0,0.0
148,36.75,28.591,29.9602,140.437,105.435,106.51,0.000799969,0.0446329,20.9997,574.51,-0.0917564,0.0,0.0
150,37.25,29.157,30.3916,139.278,105.432,106.893,0.000776848,0.0445949,20.9997,574.51,-0.124509,0.0,0.0
152,37.75,29.2433,30.2746,135.387,105.429,106.243,0.00075812,0.0445785,20.9997,574.52,-0.0695337,0.0,0.0
154,38.25,28.6114,29.8421,136.436,105.438,106.979,0.00074295,0.0445781,20.9997,574.51,-0.131211,0.0,0.0
156,38.75,29.7928,29.9102,137.851,105.429,106.42,0.000734303,0.0445707,20.9997,574.52,-0.0846254,0.0,0.0
158,39.25,29.0947,30.1323,137.26,105.431,106.238,0.000727299,0.0445582,20.9997,574.52,-0.0689518,0.0,0.0
160,39.75,29.2577,30.1716,143.144,105.43,106.703,0.000721627,0.044548,20.9997,574.51,-0.108552,0.0,0.0
162,40.25,29.4087,30.1479,137.944,105.443,106.098,0.000730386,0.0444716,20.9997,574.5,-0.0559957,0.0,0.0
164,40.75,29.4686,29.9248,135.939,105.439,107.357,0.000737482,0.0444097,20.9997,574.51,-0.1631,0.0,0.0
166,41.25,28.6068,30.6036,136.281,105.451,106.577,0.000761449,0.0443596,20.9997,574.5,-0.0960361,0.0,0.0
168,41.75,29.3075,30.2637,138.798,105.431,107.331,0.000780862,0.044319,20.9997,574.49,-0.161627,0.0,0.0
170,42.25,29.3536,30.7505,139.636,105.439,106.283,0.000819677,0.0442589,20.9997,574.48,-0.0721849,0.0,0.0
172,42.75,29.3684,30.4448,137.076,105.435,106.423,0.000851117,0.0442101,21.0002,574.48,-0.0843554,0.0,0.0
174,43.25,28.9798,30.1801,137.681,105.434,106.487,0.000891176,0.0441707,21.0005,574.49,-0.0898536,0.0,0.0
176,43.75,29.4067,30.2544,137.401,105.429,106.656,0.000923623,0.0441387,21.0008,574.5,-0.104715,0.0,0.0
178,44.25,28.8237,30.2152,137.217,105.441,106.886,0.000955986,0.0441415,21.001,574.5,-0.123156,0.0,0.0
180,44.75,28.9667,30.3054,136.938,105.439,106.227,0.0009822,0.0441696,21.0012,574.5,-0.0673905,0.0,0.0
182,45.25,29.2106,30.4542,138.953,105.451,106.039,0.00101803,0.0441924,21.0014,574.49,-0.0502986,0.0,0.0
184,45.75,29.2643,30.6162,139.918,105.433,106.726,0.00104706,0.0442108,21.0015,574.49,-0.110236,0.0,0.0
186,46.25,29.0457,30.255,139.672,105.441,106.613,0.00107057,0.0442114,21.0016,574.48,-0.0999129,0.0,0.0
188,46.75,29.0055,30.8272,135.512,105.428,106.505,0.001103,0.044199,21.0017,574.5,-0.0919797,0.0,0.0
190,47.25,29.5261,30.4534,140.658,105.442,106.315,0.00112927,0.0441889,21.0017,574.48,-0.0745536,0.0,0.0
192,47.75,29.2426,30.3041,137.85,105.435,106.16,0.00115055,0.0441398,21.0018,574.48,-0.0620038,0.0,0.0
194,48.25,29.3052,30.2357,139.088,105.439,106.135,0.00116778,0.0441001,21.0018,574.48,-0.0595699,0.0,0.0
196,48.75,29.0585,30.5582,136.189,105.431,106.432,0.00116957,0.0440607,21.0019,574.49,-0.0855098,0.0,0.0
198,49.25,29.1575,30.4267,135.466,105.43,107.034,0.00117102,0.0440224,21.002,574.49,-0.136545,0.0,0.0
200,49.75,29.6359,30.8053,135.265,105.425,106.652,0.00116368,0.0439913,21.0021,574.48,-0.104682,0.0,0.0
202,50.25,29.382,30.2899,136.117,105.433,106.46,0.00115773,0.0439661,21.0022,574.49,-0.0877432,0.0,0.0
204,50.75,28.9884,30.5077,138.251,105.432,106.587,0.0011517,0.0439457,21.0023,574.49,-0.0984978,0.0,0.0
206,51.25,28.6942,30.1612,139.146,105.445,105.876,0.00114489,0.0439292,21.0024,574.47,-0.0369291,0.0,0.0
208,51.75,29.3784,30.6174,139.046,105.42,107.108,0.00113764,0.0439517,21.0024,574.46,-0.143672,0.0,0.0
210,52.25,29.3626,30.4226,139.458,105.422,106.429,0.00112922,0.0440023,21.0025,574.46,-0.0859615,0.0,0.0
212,52.75,29.0179,30.8651,139.167,105.415,106.522,0.00112008,0.0440432,21.0025,574.46,-0.0944882,0.0,0.0
214,53.25,29.0638,30.425,138.81,105.428,106.058,0.00111269,0.0440627,21.0026,574.48,-0.0538488,0.0,0.0
216,53.75,29.6492,30.3025,136.038,105.431,106.329,0.00110285,0.0440642,21.0026,574.48,-0.076761,0.0,0.0
218,54.25,29.5421,30.5943,136.397,105.436,106.848,0.00109143,0.0440524,21.0026,574.48,-0.120319,0.0,0.0
220,54.75,29.1082,30.4768,135.786,105.411,106.747,0.00107642,0.0440214,21.0026,574.48,-0.113898,0.0,0.0
222,55.25,29.1226,30.6357,138.08,105.426,106.717,0.00105908,0.0439769,21.0026,574.49,-0.110102,0.0,0.0
224,55.75,29.3792,30.6031,136.955,105.413,106.066,0.00104504,0.0439265,21.0026,574.49,-0.0559051,0.0,0.0
226,56.25,29.8446,30.564,137.981,105.425,106.112,0.00101907,0.0438727,21.0026,574.48,-0.0588215,0.0,0.0
228,56.75,29.4447,30.801,140.083,105.418,105.937,0.000998042,0.0438292,21.0026,574.48,-0.0444614,0.0,0.0
230,57.25,29.3463,30.6906,137.682,105.418,106.41,0.000968858,0.0437867,21.0026,574.48,-0.084701,0.0,0.0
232,57.75,29.284,30.7577,140.494,105.413,106.221,0.000945219,0.0437459,21.0027,574.48,-0.0690833,0.0,0.0
234,58.25,29.4049,30.209,132.445,105.42,106.881,0.000911496,0.04372,21.0027,574.49,-0.124536,0.0,0.0
236,58.75,29.221,30.4421,135.286,105.41,106.625,0.000884181,0.0437055,21.0027,574.48,-0.1037,0.0,0.0
238,59.25,29.4458,30.3973,139.24,105.42,106.657,0.00085311,0.0437081,21.0027,574.48,-0.105592,0.0,0.0
240,59.75,29.5924,30.7213,132.82,105.402,106.328,0.000819892,0.0437231,21.0027,574.48,-0.0791081,0.0,0.0
242,60.25,29.286,30.9358,138.263,105.433,106.077,0.000792985,0.0437352,21.0027,574.48,-0.0550025,0.0,0.0
244,60.75,29.4073,30.5936,134.569,105.406,106.966,0.000772468,0.0437042,21.0027,574.47,-0.1329,0.0,0.0
246,61.25,29.5223,31.1838,134.808,105.424,106.253,0.000756999,0.043679,21.0027,574.47,-0.0708377,0.0,0.0
248,61.75,29.2933,30.9746,136.97,105.403,106.376,0.000750405,0.0436515,21.0027,574.46,-0.0830799,0.0,0.0
250,62.25,29.3587,30.6894,140.983,105.424,105.962,0.00075734,0.0436227,21.0027,574.46,-0.0461005,0.0,0.0
252,62.75,29.1994,31.3787,138.133,105.405,105.812,0.000762957,0.0435994,21.0027,574.46,-0.034805,0.0,0.0
254,63.25,29.4514,30.6466,138.186,105.43,105.611,0.000790588,0.0436351,21.0027,574.46,-0.0155242,0.0,0.0
256,63.75,29.7167,30.6649,138.412,105.402,106.182,0.00081297,0.043664,21.0027,574.45,-0.0666942,0.0,0.0
258,64.25,29.6333,30.4658,139.379,105.412,105.728,0.000831099,0.0436874,21.0024,574.45,-0.027059,0.0,0.0
260,64.75,29.494,30.7042,138.006,105.396,106.022,0.000845784,0.0436973,21.002,574.45,-0.0536221,0.0,0.0
262,65.25,29.329,30.6237,140.646,105.416,105.944,0.000835811,0.0437144,21.0017,574.45,-0.0451994,0.0,0.0
264,65.75,29.2964,30.9988,135.437,105.406,106.311,0.000827733,0.0437418,21.0015,574.44,-0.0773553,0.0,0.0
266,66.25,29.5764,30.6029,137.149,105.412,106.621,0.000785988,0.0437641,21.0013,574.46,-0.103202,0.0,0.0
268,66.75,29.0237,30.5805,134.016,105.4,106.674,0.000752174,0.0437684,21.0011,574.45,-0.108682,0.0,0.0
270,67.25,29.2695,30.5792,135.181,105.406,106.981,0.000724785,0.043772,21.001,574.45,-0.134164,0.0,0.0
272,67.75,29.2646,30.3984,136.293,105.395,106.162,0.000678987,0.0437612,21.0008,574.45,-0.065532,0.0,0.0
274,68.25,29.2353,30.8099,134.371,105.412,106.175,0.000620639,0.0437525,21.0008,574.45,-0.0652289,0.0,0.0
276,68.75,29.5784,30.3056,135.163,105.397,106.434,0.000572102,0.0437727,21.0007,574.45,-0.0885734,0.0,0.0
278,69.25,29.6263,30.8183,140.453,105.402,106.049,0.000531639,0.0437891,21.0006,574.45,-0.0553789,0.0,0.0
280,69.75,29.5343,30.57,137.329,105.401,106.397,0.000498864,0.0438023,21.0006,574.44,-0.0850395,0.0,0.0
282,70.25,29.2899,30.8313,139.079,105.404,106.295,0.000491708,0.0438676,21.0005,574.43,-0.0761101,0.0,0.0
284,70.75,29.1619,30.4884,140.446,105.394,105.792,0.000485912,0.0439205,21.0005,574.43,-0.0341518,0.0,0.0
286,71.25,29.1811,30.0335,137.845,105.403,106.332,0.000481217,0.0439562,21.0005,574.43,-0.0794285,0.0,0.0
288,71.75,29.3043,30.2484,135.66,105.392,106.918,0.000517445,0.0439786,21.0004,574.44,-0.130039,0.0,0.0
290,72.25,29.5149,30.898,132.262,105.403,106.531,0.000546789,0.0439967,21.0003,574.44,-0.0963315,0.0,0.0
292,72.75,29.4412,31.0951,136.936,105.394,106.158,0.000583911,0.0440251,21.0002,574.44,-0.0653598,0.0,0.0
294,73.25,29.4722,30.8585,137.634,105.392,106.378,0.000613979,0.044048,21.0001,574.43,-0.0842575,0.0,0.0
296,73.75,29.8851,30.6511,138.888,105.394,106.167,0.000644727,0.0440666,21,574.44,-0.0660778,0.0,0.0
298,74.25,29.5734,30.9986,138.464,105.39,105.71,0.000675384,0.0440953,21,574.44,-0.0274267,0.0,0.0
300,74.75,29.5672,30.5305,135.695,105.39,106.554,0.000700217,0.0441186,20.9999,574.44,-0.0993928,0.0,0.0
302,75.25,29.4741,30.5414,139.402,105.385,105.885,0.000738554,0.0441518,20.9999,574.44,-0.0427982,0.0,0.0
304,75.75,29.5243,31.3541,135.851,105.405,107.139,0.000769607,0.0441916,20.9999,574.44,-0.147613,0.0,0.0
306,76.25,29.6759,30.7084,135.836,105.395,106.609,0.000794759,0.0442238,20.9998,574.42,-0.103626,0.0,0.0
308,76.75,29.5742,30.8865,141.785,105.392,106.549,0.000815133,0.0442499,20.9998,574.41,-0.0987807,0.0,0.0
310,77.25,29.4613,31.034,136.531,105.394,106.481,0.000815015,0.0442711,20.9998,574.41,-0.0927847,0.0,0.0
312,77.75,29.7632,31.3294,138.143,105.395,107.016,0.00079996,0.0443019,20.9998,574.42,-0.13806,0.0,0.0
314,78.25,29.5463,30.9926,139.072,105.401,106.688,0.000787765,0.0443268,20.9998,574.41,-0.109718,0.0,0.0
316,78.75,29.586,30.7329,136.088,105.387,106.267,0.000747547,0.044347,20.9998,574.41,-0.0751826,0.0,0.0
318,79.25,29.7813,30.7656,136.966,105.396,106.166,0.000714971,0.0443633,20.9998,574.4,-0.0658529,0.0,0.0
320,79.75,29.881,31.3209,136.76,105.411,106.387,0.000667967,0.0443622,20.9998,574.41,-0.0834135,0.0,0.0
322,80.25,29.733,30.9339,138.95,105.402,106.46,0.000629894,0.0443484,20.9997,574.4,-0.0903143,0.0,0.0
324,80.75,29.8593,31.0225,135.144,105.422,106.167,0.000601481,0.0443372,20.9997,574.4,-0.0637595,0.0,0.0
326,81.25,29.566,30.91,136.598,105.404,105.442,0.000578465,0.04426,20.9997,574.39,-0.00324412,0.0,0.0
328,81.75,29.5644,30.782,141.007,105.409,106.055,0.000559823,0.0441974,20.9997,574.38,-0.0552428,0.0,0.0
330,82.25,29.6487,31.0152,137.289,105.407,106.235,0.000568981,0.0441467,20.9997,574.38,-0.0707845,0.0,0.0
332,82.75,29.9852,30.7241,138.462,105.432,105.805,0.000576398,0.0441057,20.9997,574.39,-0.032003,0.0,0.0
334,83.25,29.8959,30.5627,139.976,105.405,106.627,0.000612752,0.0440588,20.9997,574.37,-0.104254,0.0,0.0
336,83.75,29.9701,31.073,140.632,105.422,106.573,0.000642198,0.0440208,20.9997,574.37,-0.0982182,0.0,0.0
338,84.25,29.7753,30.4075,134.637,105.417,105.698,0.00069642,0.0439828,20.9997,574.39,-0.024069,0.0,0.0
340,84.75,29.6922,30.657,140.113,105.421,106.192,0.00074034,0.0439456,20.9997,574.4,-0.0659376,0.0,0.0
342,85.25,29.6031,30.7847,136.465,105.409,105.812,0.000794149,0.0439155,20.9997,574.38,-0.0345187,0.0,0.0
344,85.75,29.5994,31.0201,134.217,105.426,106.058,0.000837735,0.0438502,20.9997,574.39,-0.0541059,0.0,0.0
346,86.25,29.2361,30.7927,137.729,105.419,106.186,0.000880336,0.0437973,20.9997,574.39,-0.065564,0.0,0.0
348,86.75,29.6384,30.8921,137.664,105.431,106.255,0.000914843,0.0437272,20.9997,574.4,-0.0704954,0.0,0.0
350,87.25,29.7548,30.7616,136.446,105.415,106.567,0.000944009,0.0436704,20.9997,574.4,-0.0983637,0.0,0.0
352,87.75,30.0187,30.6132,138.021,105.43,106.603,0.000967633,0.0436381,20.9997,574.41,-0.100138,0.0,0.0
354,88.25,30.0256,31.0172,136.023,105.42,106.365,0.000986769,0.0436118,20.9997,574.4,-0.08079,0.0,0.0
356,88.75,29.5573,30.578,138.392,105.437,106.278,0.00100349,0.0436042,20.9997,574.39,-0.0718572,0.0,0.0
358,89.25,30.0719,31.1777,132.283,105.414,105.961,0.00101703,0.0435981,20.9997,574.39,-0.0467796,0.0,0.0
360,89.75,29.675,30.9678,133.594,105.436,106.121,0.00101967,0.0435795,20.9997,574.41,-0.058561,0.0,0.0
362,90.25,29.8573,31.0987,138.521,105.433,106.417,0.00101433,0.0435644,20.9997,574.39,-0.0841018,0.0,0.0
364,90.75,29.4109,30.6498,140.255,105.437,106.083,0.000986911,0.0435235,20.9997,574.38,-0.0552319,0.0,0.0
366,91.25,29.9879,31.2668,136.675,105.422,106.534,0.0009647,0.0434645,20.9997,574.36,-0.0949758,0.0,0.0
368,91.75,29.9584,30.7861,140.746,105.44,105.642,0.000923633,0.0434167,20.9997,574.37,-0.0172866,0.0,0.0
370,92.25,29.7455,31.0923,135.777,105.428,106.142,0.000890369,0.0434211,20.9997,574.36,-0.0610685,0.0,0.0
372,92.75,29.3067,31.0151,137.83,105.434,106.229,0.00085448,0.0434633,20.9997,574.37,-0.0679843,0.0,0.0
374,93.25,29.6708,31.1772,134.974,105.433,106.313,0.00081736,0.0435048,20.9997,574.37,-0.0751565,0.0,0.0
376,93.75,29.7578,30.873,131.047,105.446,106.559,0.000787293,0.0435448,20.9997,574.38,-0.0949687,0.0,0.0
378,94.25,29.9586,30.7652,135.474,105.425,106.2,0.00077444,0.0435556,20.9997,574.38,-0.0662467,0.0,0.0
380,94.75,29.4626,31.1663,134.755,105.449,106.402,0.00077438,0.0435451,21,574.38,-0.0814172,0.0,0.0
382,95.25,29.9923,31.199,138.604,105.436,106.89,0.000774331,0.0435222,21.0003,574.38,-0.123942,0.0,0.0
384,95.75,29.808,31.2946,141.857,105.448,106.339,0.000808309,0.0434907,21.0005,574.38,-0.0761031,0.0,0.0
386,96.25,29.7021,31.1287,136.283,105.435,106.54,0.000835832,0.0434652,21.0007,574.39,-0.0943662,0.0,0.0
388,96.75,29.8981,31.2417,135.643,105.45,106.113,0.000875145,0.0434374,21.0008,574.38,-0.0566896,0.0,0.0
390,97.25,29.7264,31.1079,136.621,105.418,106.899,0.00090699,0.0434084,21.0009,574.38,-0.126178,0.0,0.0
392,97.75,29.7833,31.4684,136.598,105.452,106.29,0.000932783,0.0433849,21.001,574.38,-0.0715795,0.0,0.0
394,98.25,29.6874,31.1877,137.988,105.442,106.343,0.000953676,0.0433795,21.0011,574.38,-0.0770068,0.0,0.0
396,98.75,29.0557,30.6487,136.338,105.447,106.26,0.00096612,0.0433752,21.0011,574.38,-0.0694413,0.0,0.0
398,99.25,30.0031,31.4459,137.646,105.436,106.259,0.000972168,0.0433788,21.0012,574.37,-0.0703014,0.0,0.0
400,99.75,30.1077,31.5833,137.701,105.469,106.396,0.000977067,0.0433882,21.0012,574.38,-0.0790869,0.0,0.0
402,100.25,29.7613,31.7981,139.256,105.43,105.712,0.000976172,0.0433815,21.001,574.37,-0.0241804,0.0,0.0
404,100.75,30.0085,31.361,135.725,105.447,106.468,0.000975448,0.0433631,21.0006,574.37,-0.0872195,0.0,0.0
406,101.25,29.7368,31.216,137.698,105.431,106.684,0.000968782,0.0433482,21.0004,574.37,-0.106903,0.0,0.0
408,101.75,29.5758,30.8326,137.473,105.448,106.107,0.000963384,0.0433362,21.0001,574.36,-0.0563902,0.0,0.0
410,102.25,30.0799,30.9977,136.81,105.436,105.977,0.000951975,0.0433193,20.9999,574.37,-0.0463178,0.0,0.0
412,102.75,29.9601,31.0856,138.298,105.454,106.601,0.000936403,0.0432991,21.0002,574.35,-0.097913,0.0,0.0
414,103.25,29.9122,31.1401,135.703,105.436,106.28,0.000923789,0.0432827,21.0004,574.36,-0.072086,0.0,0.0
416,103.75,30.0078,30.7919,138.34,105.449,106.735,0.000913572,0.0432559,21.0006,574.36,-0.109647,0.0,0.0
418,104.25,29.9242,31.0723,136.141,105.438,106.456,0.000905296,0.0432341,21.0007,574.35,-0.0869125,0.0,0.0
420,104.75,29.8708,31.422,134.48,105.459,106.417,0.000903453,0.0432093,21.0009,574.36,-0.0817779,0.0,0.0
422,105.25,30.0821,31.1864,138.14,105.434,106.504,0.00090196,0.0431827,21.001,574.36,-0.0913174,0.0,0.0
424,105.75,29.9445,31.282,137.182,105.45,106.586,0.00089589,0.0431612,21.001,574.36,-0.0968955,0.0,0.0
426,106.25,30.4373,31.4766,136.927,105.439,106.175,0.000890974,0.0431575,21.0011,574.36,-0.0628713,0.0,0.0
428,106.75,30.0303,31.3993,134.47,105.444,106.624,0.000867558,0.0431544,21.0012,574.34,-0.100645,0.0,0.0
430,107.25,30.2386,30.7607,138.287,105.428,106.353,0.000848591,0.0431519,21.0012,574.33,-0.0790314,0.0,0.0
432,107.75,30.0839,31.3867,142.309,105.44,106.198,0.00080895,0.0431499,21.0012,574.34,-0.0647793,0.0,0.0
434,108.25,29.9877,31.3764,135.355,105.428,106.166,0.00077684,0.0431483,21.0013,574.36,-0.0630966,0.0,0.0
436,108.75,30.3208,31.282,138.225,105.438,106.76,0.000750831,0.0431469,21.0013,574.35,-0.112683,0.0,0.0
438,109.25,29.7883,31.5621,140.842,105.434,105.758,0.000700651,0.043153,21.0013,574.35,-0.0277626,0.0,0.0
440,109.75,29.9782,31.3277,136.209,105.438,106.153,0.000660006,0.0431644,21.0013,574.35,-0.061151,0.0,0.0
442,110.25,30.1154,31.4226,135.842,105.425,106.381,0.000618789,0.0431873,21.0013,574.36,-0.081662,0.0,0.0
444,110.75,30.4138,31.6636,136.082,105.437,105.995,0.000577938,0.0432058,21.0013,574.34,-0.04776,0.0,0.0
446,111.25,30.0589,31.2731,139.283,105.422,106.446,0.000539109,0.0432208,21.0013,574.34,-0.087459,0.0,0.0
448,111.75,30.1993,31.5411,138.317,105.427,106.983,0.000502491,0.0432603,21.0014,574.34,-0.132583,0.0,0.0
450,112.25,30.0426,31.138,136.347,105.425,106.397,0.00047283,0.0432922,21.0014,574.34,-0.0829727,0.0,0.0
452,112.75,30.1277,31.4576,140.881,105.426,106.621,0.000441536,0.0433252,21.0014,574.36,-0.10189,0.0,0.0
454,113.25,30.0923,31.3456,137.442,105.422,106.317,0.000418739,0.0433585,21.0014,574.35,-0.0764554,0.0,0.0
456,113.75,29.7721,31.6843,140.503,105.416,105.91,0.000410228,0.0433854,21.0014,574.36,-0.0422592,0.0,0.0
458,114.25,29.9193,31.0855,135.826,105.414,107.246,0.0003995,0.0433799,21.0014,574.36,-0.155816,0.0,0.0
460,114.75,30.0364,31.4265,135.989,105.407,106.283,0.000394255,0.0433755,21.0009,574.35,-0.0749048,0.0,0.0
462,115.25,30.1684,31.6485,137.471,105.425,106.146,0.000390006,0.0434128,21.0006,574.34,-0.0617199,0.0,0.0
464,115.75,30.2943,31.5368,136.176,105.405,106.225,0.000391667,0.0434645,21.0003,574.34,-0.0701297,0.0,0.0
466,116.25,29.8622,31.1893,136.879,105.406,105.495,,0.0435258,,574.32,-0.00761658,0.0,0.0
468,116.75,30.1764,31.1108,136.464,105.385,106.927,,0.0435519,,574.32,-0.131332,0.0,0.0
470,117.25,30.0096,31.2749,139.256,105.401,106.713,,0.0435693,,574.32,-0.11189,0.0,0.0
472,117.75,29.8736,31.4037,135.546,105.405,106.003,,0.0435834,,574.32,-0.0511948,0.0,0.0
474,118.25,29.7843,30.892,136.693,105.396,106.768,,0.0436092,,574.33,-0.11698,0.0,0.0
476,118.75,29.9592,31.3299,137.318,105.39,106.455,,0.043643,,574.34,-0.0909345,0.0,0.0
478,119.25,30.2981,31.3902,137.375,105.392,106.999,,,,574.35,-0.13686,0.0,0.0
480,119.75,29.5932,31.8093,136.552,105.378,106.978,,,,574.32,-0.136319,0.0,0.0
482,120.25,29.794,31.2431,136.921,105.386,106.146,,,,574.32,-0.0649808,0.0,0.0
484,120.75,29.9237,31.5109,138.05,105.379,105.692,,,,574.31,-0.0268151,0.0,0.0
486,121.25,30.0699,31.4044,139.312,105.366,106.133,,,,574.31,-0.0656498,0.0,0.0
488,121.75,30.2243,31.3903,139.141,105.351,106.026,,,,574.28,-0.0577824,0.0,0.0
490,122.25,30.205,31.7363,136.97,105.364,105.998,,,,574.28,-0.0543125,0.0,0.0
492,122.75,29.7575,31.9553,134.9,105.343,106.41,,,,574.27,-0.0912341,0.0,0.0
494,123.25,30.0621,31.7694,135.598,105.357,105.926,,,,574.27,-0.0486907,0.0,0.0
496,123.75,30.3323,31.6229,136.428,105.341,105.976,,,,574.28,-0.0543673,0.0,0.0
498,124.25,30.1196,31.4511,138.297,105.348,105.713,,,,574.29,-0.0312936,0.0,0.0
500,124.75,30.2651,31.7557,139.136,105.331,106.046,,,,574.27,-0.0612356,0.0,0.0
502,125.25,30.3153,31.3759,139.103,105.34,105.96,,,,574.29,-0.0531209,0.0,0.0
504,125.75,30.2693,31.3435,137.028,105.321,106.318,,,,574.29,-0.0852022,0.0,0.0
506,126.25,30.2844,31.796,134.527,105.317,106.406,,,,574.27,-0.0930919,0.0,0.0
508,126.75,30.4287,31.4396,130.087,105.298,106.733,,,,574.27,-0.122439,0.0,0.0
509,127,30.2243,31.8337,137.278,105.302,105.894,,,,574.27,-0.0506678,0.0,0.0