File: 01_Data/Window_Screen/Cone/Window_Screen_Cone_HF25Scan_220524_R3.csv
Names,Time,Stack TC,Smoke TC,Exh Press,Smoke Comp,Smoke Meas,CO Meter,CO2 Meter,O2 Meter,Sample Mass,Ext Coeff,Start Test,Flame Verif
Chan Gain,,500,500,1,1,1,1,1,1,1,1,1.0,1.0
Offset,,0,0,0.13752,0,0,0,0,0,0,0,0.0,0.0
Gain,,1,1,25.011,13.8491,15.2622,1,1,1,1.00087,1.03118,1.0,1.0
Units,sec,C,C,Pa,%,%,%,%,%,g,/m,,
Baseline,,24.6693,25.3352,143.048,105.227,105.042,0.000494231,0.0428335,21.0035,-450.259,0.0159878,,
2,0.25,23.6385,24.2241,140.607,105.103,104.87,0.00105527,0.0448692,20.9992,553.252,0.0201311,0.0,0.0
4,0.75,23.4499,24.4934,142.141,105.089,104.752,0.00174156,0.0450038,20.9942,553.152,0.02906,0.0,0.0
6,1.25,22.3977,23.1597,144.505,105.092,104.45,0.00229746,0.0490712,20.986,553.302,0.0554958,0.0,0.0
8,1.75,21.8689,22.9109,145.859,105.077,104.256,0.0031638,0.0523658,20.975,553.041,0.0709442,0.0,0.0
10,2.25,21.9042,22.6983,140.819,105.081,97.2573,0.00386553,0.0600967,20.9622,553.152,0.699826,0.0,0.0
12,2.75,22.4509,22.9892,137.519,105.075,88.6257,0.00477235,0.0663587,20.9492,553.001,1.53998,0.0,1.0
14,3.25,21.8937,22.0672,134.384,105.055,97.0952,0.00550687,0.0754301,20.9365,553.091,0.712695,0.0,1.0
16,3.75,22.0531,22.8228,138.376,105.048,96.5409,0.00610183,0.0827779,20.9262,552.941,0.763859,0.0,1.0
18,4.25,22.5139,23.0172,133.885,105.063,94.4874,0.0067585,0.0910135,20.9179,553.001,0.959692,0.0,1.0
20,4.75,22.3163,23.1451,137.042,105.044,93.1972,0.00729041,0.0976844,20.9111,552.841,1.08242,0.0,1.0
22,5.25,22.8052,23.2643,133.563,105.05,83.6569,0.00763505,0.103341,20.9056,552.911,2.05974,0.0,1.0
24,5.75,22.7987,23.4948,137.866,105.023,84.2541,0.0079142,0.108151,20.9012,552.841,1.99315,0.0,1.0
26,6.25,23.2178,23.1555,135.539,105.016,88.1404,0.0080008,0.11108,20.8976,552.891,1.58463,0.0,1.0
28,6.75,23.1846,23.3776,140.352,105.007,93.6029,0.00794537,0.112583,20.8951,552.871,1.03989,0.0,1.0
30,7.25,23.4873,23.0451,136.547,104.997,98.186,0.00775141,0.113801,20.8931,552.901,0.606689,0.0,1.0
32,7.75,23.148,22.32,142.485,104.986,98.8902,0.00746015,0.110988,20.895,552.881,0.541059,0.0,1.0
34,8.25,22.2188,22.0988,140.172,104.989,100.786,0.00722422,0.108709,20.8997,552.861,0.369559,0.0,0.0
36,8.75,22.2489,21.7687,139.103,104.975,101.519,0.00670492,0.104824,20.9096,552.851,0.302757,0.0,0.0
38,9.25,22.374,22.1157,142.633,104.955,102.53,0.00616543,0.0998432,20.9177,552.861,0.211436,0.0,0.0
40,9.75,22.6477,22.3697,142.219,104.953,102.718,0.00562146,0.0945748,20.9272,552.861,0.194705,0.0,0.0
42,10.25,22.3857,21.9724,141.883,104.957,103.27,0.00518085,0.0891971,20.935,552.881,0.146599,0.0,0.0
44,10.75,22.1606,22.3475,140.26,104.944,104.033,0.0047129,0.0848411,20.9412,552.851,0.0788547,0.0,0.0
46,11.25,22.6174,21.9521,142.599,104.937,104.05,0.00423389,0.0795969,20.9485,552.861,0.0768095,0.0,0.0
48,11.75,21.0918,20.9232,144.398,104.92,104.179,0.0038459,0.075349,20.9544,552.851,0.0641029,0.0,0.0
50,12.25,20.4894,20.8555,141.966,104.92,104.185,0.00345098,0.0710867,20.9596,552.841,0.0635858,0.0,0.0
52,12.75,20.9167,20.7648,145.066,104.908,104.193,0.00313109,0.0676343,20.9642,552.871,0.0619142,0.0,0.0
54,13.25,21.2695,20.8898,141.584,104.901,104.416,0.00282319,0.064514,20.968,552.931,0.0419822,0.0,0.0
56,13.75,20.4984,20.7445,141.876,104.885,104.194,0.00257378,0.0616952,20.9717,553.081,0.0598245,0.0,0.0
58,14.25,21.097,20.5183,140.089,104.877,104.617,0.00237177,0.0594119,20.9754,552.801,0.0224139,0.0,0.0
60,14.75,20.6124,20.6048,141.186,104.865,104.443,0.00214845,0.0572346,20.9786,552.921,0.0364712,0.0,0.0
62,15.25,20.8524,20.8873,141.276,104.868,104.248,0.00196756,0.055471,20.9815,552.951,0.0536009,0.0,0.0
64,15.75,20.5803,20.5484,144.921,104.86,104.105,0.00177604,0.0538923,20.9839,552.901,0.0653588,0.0,0.0
66,16.25,20.6198,20.7732,143.75,104.864,104.241,0.00162091,0.0526135,20.9858,552.951,0.0538785,0.0,0.0
68,16.75,20.0797,20.5461,142.915,104.851,104.322,0.00146904,0.0515777,20.9873,552.891,0.0457219,0.0,0.0
70,17.25,20.4048,20.4777,139.177,104.843,104.492,0.00132244,0.0506159,20.989,552.911,0.0304152,0.0,0.0
72,17.75,20.2744,20.4445,137.266,104.846,104.224,0.00120369,0.0498368,20.9903,552.871,0.0538463,0.0,0.0
74,18.25,20.2084,20.4803,146.174,104.835,104.07,0.00109345,0.0492467,20.9914,552.871,0.0662119,0.0,0.0
76,18.75,20.3691,20.3296,143.559,104.833,103.996,0.000991514,0.0487687,20.9923,552.861,0.0725007,0.0,0.0
78,19.25,20.5475,21.1884,143.983,104.83,104.227,0.000908945,0.0483815,20.9931,552.861,0.0521375,0.0,0.0
80,19.75,20.5691,20.9929,142.062,104.821,104.304,0.000838425,0.0480679,20.9936,552.851,0.0446672,0.0,0.0
82,20.25,20.9351,21.5683,142.47,104.824,104.62,0.000781305,0.0478139,20.9941,552.851,0.0176551,0.0,0.0
84,20.75,20.8618,21.1503,140.001,104.813,104.48,0.000730186,0.0476217,20.9945,552.841,0.0287558,0.0,0.0
86,21.25,20.7771,21.1477,144.33,104.808,104.172,0.00068878,0.0474661,20.9948,552.851,0.0550929,0.0,0.0
88,21.75,20.6992,21.3038,141.087,104.811,104.384,0.000644328,0.0473401,20.9951,552.861,0.0369244,0.0,0.0
90,22.25,20.8781,20.6077,144.643,104.805,104.272,0.000608323,0.0471561,20.9953,552.901,0.0461425,0.0,0.0
92,22.75,20.6974,21.3353,139.192,104.8,104.341,0.000571885,0.0470071,20.9957,552.881,0.0397666,0.0,0.0
94,23.25,20.7633,21.9629,142.776,104.799,104.48,0.00054237,0.0468181,20.9962,552.861,0.0275927,0.0,0.0
96,23.75,21.088,21.0637,140.922,104.801,104.229,0.000522099,0.0466651,20.9966,552.881,0.0494998,0.0,0.0
98,24.25,20.7482,21.2206,142.551,104.8,104.401,0.00050568,0.0464865,20.997,552.861,0.0345196,0.0,0.0
100,24.75,21.134,20.9624,143.118,104.8,104.389,0.00049238,0.0463419,20.9972,552.851,0.0355325,0.0,0.0
102,25.25,20.4732,21.4393,144.278,104.803,104.381,0.000507073,0.0461293,20.9977,552.871,0.0364744,0.0,0.0
104,25.75,20.6982,21.2663,140.401,104.804,104.197,0.000518974,0.045957,20.9983,552.831,0.0525803,0.0,0.0
106,26.25,21.1647,21.2118,139.61,104.798,104.504,0.000554096,0.0457493,20.9987,552.861,0.025423,0.0,0.0
108,26.75,20.8614,21.352,143.24,104.799,104.251,0.000582545,0.045581,20.9991,552.851,0.0474544,0.0,0.0
110,27.25,20.9735,21.1011,138.954,104.808,104.385,0.000617092,0.0453873,20.9994,552.841,0.0365528,0.0,0.0
112,27.75,20.4333,20.8086,142.261,104.808,104.309,0.000655429,0.0451787,20.9997,552.841,0.0431703,0.0,0.0
114,28.25,20.6951,21.0886,141.053,104.797,104.109,0.000686482,0.0450098,20.9999,552.821,0.0595696,0.0,0.0
116,28.75,20.2881,21.3196,140.894,104.808,104.621,0.000715279,0.044837,21,552.811,0.0161483,0.0,0.0
118,29.25,20.588,21.4113,140.682,104.802,104.395,0.000738604,0.0446648,21.0002,552.791,0.035191,0.0,0.0
120,29.75,20.7117,21.3845,147.029,104.81,104.197,0.000744139,0.0445253,21.0003,552.821,0.0530874,0.0,0.0
122,30.25,20.7155,21.3109,140.346,104.819,104.441,0.000748621,0.0444123,21.0004,552.791,0.0326589,0.0,0.0
124,30.75,20.823,21.2665,144.394,104.826,104.179,0.000730401,0.0443208,21.0004,552.791,0.055977,0.0,0.0
126,31.25,20.7125,20.9981,145.356,104.819,104.18,0.000715642,0.0442194,21.0005,552.821,0.0553094,0.0,0.0
128,31.75,20.7533,20.8186,140.564,104.83,104.283,0.000703688,0.0441373,21.0005,552.811,0.0473246,0.0,0.0
130,32.25,20.9654,20.976,141.632,104.823,104.309,0.000678232,0.0440435,21.0008,552.811,0.0444065,0.0,0.0
132,32.75,20.7314,21.1416,144.051,104.841,104.316,0.000657613,0.0439675,21.0012,552.781,0.0454054,0.0,0.0
134,33.25,20.457,21.1026,142.481,104.844,104.372,0.000644551,0.0438923,21.0016,552.791,0.0408187,0.0,0.0
136,33.75,20.7629,21.1609,143.521,104.849,104.447,0.000633971,0.0438314,21.0018,552.781,0.0347559,0.0,0.0
138,34.25,20.2527,21.0093,142.106,104.856,104.126,0.000639961,0.0437677,21.0021,552.801,0.0631735,0.0,0.0
140,34.75,20.3298,21.0499,143.83,104.863,104.307,0.000644814,0.0437033,21.0022,552.791,0.048113,0.0,0.0
142,35.25,20.3304,20.8637,147.944,104.864,104.278,0.00067424,0.043651,21.0024,552.781,0.0507265,0.0,0.0
144,35.75,19.9813,21.0495,141.086,104.882,104.412,0.000698076,0.0435678,21.0025,552.781,0.0406254,0.0,0.0
146,36.25,20.3481,20.9209,144.198,104.873,104.234,0.000740465,0.0435004,21.0026,552.801,0.0552869,0.0,0.0
148,36.75,20.1118,21.0902,140.938,104.883,104.123,0.000774801,0.0434185,21.0027,552.821,0.0657538,0.0,0.0
150,37.25,20.4456,20.3301,143.941,104.883,104.413,0.000802613,0.0433522,21.0027,552.801,0.0405804,0.0,0.0
152,37.75,20.4697,21.0271,142.653,104.898,104.209,0.000830259,0.0432849,21.0028,552.791,0.0595835,0.0,0.0
154,38.25,20.1873,21.0229,139.73,104.902,104.567,0.000857258,0.0432304,21.0028,552.791,0.0289557,0.0,0.0
156,38.75,20.3845,20.8099,143.292,104.917,104.466,0.000868768,0.0432271,21.0029,552.791,0.0388981,0.0,0.0
158,39.25,20.2543,21.0246,143.951,104.914,104.189,0.00088845,0.0432244,21.0029,552.761,0.0627066,0.0,0.0
160,39.75,20.4311,20.9097,140.001,104.931,104.485,0.000876444,0.0432223,21.0029,552.771,0.038519,0.0,0.0
162,40.25,20.4241,20.883,138.695,104.928,104.633,0.000866719,0.043199,21.0029,552.771,0.0254961,0.0,0.0
164,40.75,20.0535,21.1718,144.431,104.939,104.313,0.000832128,0.0431608,21.0029,552.801,0.0541432,0.0,0.0
166,41.25,20.2203,21.1303,144.792,104.939,104.574,0.00080411,0.0431298,21.003,552.781,0.031477,0.0,0.0
168,41.75,20.1633,21.2343,144.26,104.95,104.398,0.000773112,0.0431381,21.003,552.791,0.0476658,0.0,0.0
170,42.25,20.2734,20.7429,148.819,104.955,104.351,0.000740531,0.0431524,21.003,552.761,0.0522169,0.0,0.0
172,42.75,20.2266,20.9468,143.168,104.969,104.618,0.000711587,0.0431639,21.003,552.791,0.0302809,0.0,0.0
174,43.25,20.4571,21.4474,142.728,104.971,104.632,0.000685842,0.0431732,21.003,552.801,0.0292147,0.0,0.0
176,43.75,20.4479,20.9159,140.974,104.994,104.248,0.000670737,0.0431808,21.003,552.821,0.0644573,0.0,0.0
178,44.25,20.267,20.7958,140.346,104.997,104.779,0.000663674,0.0431941,21.003,552.791,0.0187937,0.0,0.0
180,44.75,20.0496,20.7608,145.262,105.001,104.461,0.000666897,0.0432113,21.003,552.791,0.0466263,0.0,0.0
182,45.25,20.1383,20.8995,145.898,104.993,104.559,0.000677556,0.0432253,21.003,552.801,0.0374324,0.0,0.0
184,45.75,20.1801,21.0097,143.255,105.015,104.602,0.00068619,0.0432366,21.003,552.841,0.0356195,0.0,0.0
186,46.25,20.3358,20.9344,144.371,105.013,104.771,0.000699254,0.0432458,21.003,552.871,0.0208283,0.0,0.0
188,46.75,20.2405,20.7268,143.999,105.018,104.521,0.000709836,0.0432532,21.003,552.841,0.0429578,0.0,0.0
190,47.25,20.2465,21.2142,142.448,105.031,104.541,0.000708694,0.0432592,21.003,552.831,0.0422398,0.0,0.0
192,47.75,20.2234,21.0879,141.942,105.046,105.142,0.00070777,0.0432641,21.003,552.881,-0.00821178,0.0,0.0
194,48.25,20.1807,20.6442,150.59,105.048,104.698,0.00069173,0.043268,21.003,552.871,0.0302014,0.0,0.0
196,48.75,20.0701,20.9256,140.983,105.061,104.545,0.000664975,0.0432303,21.0026,552.841,0.0445009,0.0,0.0
198,49.25,20.0355,21.2464,145.547,105.07,104.605,0.000643304,0.0431998,21.0022,552.831,0.0401821,0.0,0.0
200,49.75,20.3037,21.2137,141.119,105.063,104.782,0.000591805,0.0431965,21.0019,552.851,0.0241939,0.0,0.0
202,50.25,20.0262,21.3343,139.391,105.064,104.383,0.000550091,0.0432133,21.0015,552.881,0.0587875,0.0,0.0
204,50.75,20.0282,20.6983,142.196,105.078,104.603,0.000490864,0.0432269,21.0012,552.841,0.0409206,0.0,0.0
206,51.25,20.2091,20.6862,141.32,105.08,104.545,0.000442891,0.0432379,21.0009,552.861,0.0461393,0.0,0.0
208,51.75,20.5398,20.9211,143.409,105.084,104.847,0.000389504,0.0432468,21.0007,552.871,0.0204227,0.0,0.0
210,52.25,20.2138,21.2878,145.289,105.086,104.64,0.000346261,0.0432396,21.0006,552.861,0.0384675,0.0,0.0
212,52.75,20.1514,21.2863,140.742,105.104,104.795,0.000311234,0.0432338,21.0004,552.841,0.026638,0.0,0.0
214,53.25,20.321,20.9713,135.92,105.101,104.763,0.000259872,0.0432427,21.0003,552.851,0.0291169,0.0,0.0
216,53.75,20.2228,20.8883,143.557,105.108,104.645,0.000218268,0.0432499,21.0002,552.851,0.0399921,0.0,0.0
218,54.25,19.9776,20.9486,141.92,105.107,104.589,0.000183359,0.0432486,21.0002,552.861,0.0447155,0.0,0.0
220,54.75,19.9341,20.8186,140.691,105.113,104.39,0.000155083,0.0432411,21.0001,552.871,0.0624025,0.0,0.0
222,55.25,20.502,21.4027,139.385,105.132,104.629,0.000146698,0.043235,21.0001,552.871,0.0433613,0.0,0.0
224,55.75,20.1517,20.7155,143.658,105.126,104.762,0.000139906,0.04323,21,552.881,0.0313803,0.0,0.0
226,56.25,20.5444,20.9956,142.09,105.123,104.843,0.000159825,0.043226,21.0002,552.871,0.0241304,0.0,0.0
228,56.75,19.9744,20.8193,144.545,105.131,104.495,0.000175959,0.0432228,21.0006,552.851,0.0548892,0.0,0.0
230,57.25,19.7687,21.2168,140.739,105.126,104.749,0.00022174,0.0432202,21.0009,552.871,0.0325106,0.0,0.0
232,57.75,19.7515,21.0782,140.137,105.127,105.016,0.000258822,0.043218,21.0011,552.871,0.00948519,0.0,0.0
234,58.25,20.1546,20.7305,142.902,105.132,104.627,0.000326451,0.0432163,21.0013,552.871,0.0435223,0.0,0.0
236,58.75,20.2309,21.0786,142.181,105.136,104.575,0.000381231,0.0431877,21.0015,552.871,0.0483576,0.0,0.0
238,59.25,20.2958,20.8519,151.627,105.145,104.483,0.000404584,0.0431644,21.0016,552.871,0.0571783,0.0,0.0
240,59.75,19.7871,20.4848,142.438,105.141,104.499,0.000464964,0.043132,21.0017,552.861,0.0554798,0.0,0.0
242,60.25,20.3411,20.4626,143.945,105.136,104.49,0.000532274,0.0431057,21.0018,552.871,0.0557691,0.0,0.0
244,60.75,20.0731,20.8207,142.018,105.138,104.338,0.000586794,0.0430701,21.0018,552.861,0.0690738,0.0,0.0
246,61.25,19.7746,20.4525,141.146,105.135,104.801,0.000630956,0.0430283,21.0019,552.871,0.0287697,0.0,0.0
248,61.75,19.9976,21.1083,142.364,105.133,104.671,0.000697105,0.0429945,21.0021,552.841,0.0398482,0.0,0.0
250,62.25,19.9489,20.8713,143.625,105.138,104.373,0.000750686,0.0429514,21.0025,552.851,0.0660053,0.0,0.0
252,62.75,19.6734,20.9667,141.868,105.13,104.435,0.000805028,0.0428777,21.0028,552.861,0.0599466,0.0,0.0
254,63.25,20.3233,21.2363,141.739,105.135,105.104,0.000849046,0.0428179,21.003,552.841,0.00267811,0.0,0.0
256,63.75,20.57,20.851,138.863,105.128,105.231,0.000885916,0.0427696,21.0032,552.811,-0.00884157,0.0,0.0
258,64.25,20.0031,20.9361,145.898,105.128,104.703,0.00091578,0.0427713,21.0034,552.831,0.0367107,0.0,0.0
260,64.75,19.5128,20.5297,140.307,105.124,104.409,0.00092295,0.0427726,21.0035,552.821,0.0616968,0.0,0.0
262,65.25,20.1481,21.1964,141.93,105.124,104.645,0.000928757,0.0428419,21.0036,552.811,0.0412609,0.0,0.0
264,65.75,19.714,21.0634,146.152,105.111,104.93,0.000904302,0.042898,21.0037,552.821,0.0156015,0.0,0.0
266,66.25,19.405,20.7426,141.538,105.121,104.835,0.000884493,0.0429435,21.0037,552.821,0.0246327,0.0,0.0
268,66.75,19.6925,20.3735,143.194,105.115,104.55,0.000868448,0.0429803,21.0038,552.821,0.048792,0.0,0.0
270,67.25,20.0509,20.9975,143.929,105.111,104.782,0.00083117,0.0429692,21.0038,552.831,0.0283054,0.0,0.0
272,67.75,19.9074,21.003,139.669,105.096,104.677,0.000800974,0.0429602,21.0039,552.851,0.03612,0.0,0.0
274,68.25,19.7323,20.831,140.231,105.099,104.948,0.000787441,0.042953,21.0039,552.831,0.0129843,0.0,0.0
276,68.75,20.3894,20.8163,141.917,105.096,104.825,0.000776479,0.0429471,21.0039,552.831,0.0233712,0.0,0.0
278,69.25,20.3108,20.8365,140.681,105.103,104.672,0.000778465,0.0429638,21.0039,552.831,0.0371489,0.0,0.0
280,69.75,20.0996,20.6057,140.246,105.083,104.32,0.000789853,0.0429968,21.004,552.841,0.065879,0.0,0.0
282,70.25,19.9656,20.5553,142.777,105.095,104.805,0.00079716,0.0430235,21.004,552.841,0.0250295,0.0,0.0
284,70.75,19.9432,20.9158,141.835,105.08,104.534,0.000801352,0.0430451,21.004,552.841,0.0470661,0.0,0.0
286,71.25,19.921,20.4378,141.541,105.073,104.583,0.000789411,0.0430626,21.004,552.841,0.0422162,0.0,0.0
288,71.75,20.5726,20.723,143.355,105.064,104.586,0.000765936,0.0430911,21.0036,552.831,0.0412512,0.0,0.0
290,72.25,19.9623,20.5186,140.097,105.067,104.478,0.000732236,0.0431271,21.0032,552.851,0.050852,0.0,0.0
292,72.75,19.9872,20.5693,142.25,105.045,104.586,0.000691722,0.0431707,21.0029,552.861,0.0395734,0.0,0.0
294,73.25,20.5732,20.871,140.474,105.065,104.604,0.000658905,0.0432188,21.0027,552.851,0.0397859,0.0,0.0
296,73.75,20.0286,20.9661,143.788,105.026,104.642,0.000622114,0.0432579,21.0025,552.861,0.0330618,0.0,0.0
298,74.25,19.5161,21.2045,141.622,105.035,104.799,0.000583125,0.0433167,21.0024,552.871,0.020342,0.0,0.0
300,74.75,19.8655,20.5418,143.884,105.016,104.356,0.000557924,0.0433644,21.0022,552.871,0.0570165,0.0,0.0
302,75.25,20.1658,20.8207,143.009,105.018,104.588,0.000543253,0.0434303,21.0021,552.861,0.0371188,0.0,0.0
304,75.75,20.2186,21.0102,142.088,105.004,104.777,0.000540944,0.0434837,21.0021,552.861,0.0196147,0.0,0.0
306,76.25,20.3353,20.8155,141.874,104.993,104.893,0.000547691,0.0435406,21.002,552.851,0.00866111,0.0,0.0
308,76.75,19.9391,21.0226,143.209,104.986,104.524,0.000556987,0.0435866,21.0019,552.841,0.0399126,0.0,0.0
310,77.25,19.9258,20.9424,145.827,104.986,104.567,0.000567965,0.0436311,21.0023,552.821,0.0362049,0.0,0.0
312,77.75,19.8098,20.6807,144.329,104.985,104.459,0.000573664,0.0436736,21.0027,552.831,0.0453679,0.0,0.0
314,78.25,19.9608,20.3591,146.781,104.977,104.48,0.000575407,0.043708,21.0029,552.821,0.0429331,0.0,0.0
316,78.75,20.629,21.4613,139.994,104.958,104.366,0.00057235,0.0437359,21.0031,552.821,0.0511072,0.0,0.0
318,79.25,20.433,21.0134,140.853,104.955,104.181,0.000565852,0.043737,21.0029,552.841,0.0670051,0.0,0.0
320,79.75,20.2817,20.8272,141.314,104.933,104.34,0.000560589,0.0437184,21.0026,552.851,0.0512905,0.0,0.0
322,80.25,20.0133,20.6136,143.31,104.944,104.629,0.000558205,0.0437034,21.0025,552.841,0.0271616,0.0,0.0
324,80.75,20.0995,20.7347,138.742,104.931,104.71,0.000557964,0.0436913,21.0028,552.851,0.01911,0.0,0.0
326,81.25,20.1031,20.7824,143.152,104.935,104.546,0.000557769,0.0436814,21.003,552.851,0.0336108,0.0,0.0
328,81.75,19.6801,20.7091,142.924,104.924,104.528,0.00056853,0.0436871,21.003,552.851,0.0341555,0.0,0.0
330,82.25,20.3321,20.7424,142.574,104.918,104.599,0.000577246,0.0436917,21.003,552.821,0.027597,0.0,0.0
332,82.75,19.6814,20.3898,140.491,104.911,104.733,0.000587947,0.0437026,21.0029,552.831,0.0153851,0.0,0.0
334,83.25,20.0042,20.682,148.223,104.907,104.306,0.000596614,0.0437178,21.0028,552.841,0.0520196,0.0,0.0
336,83.75,20.7005,20.8022,142.43,104.892,104.512,0.000603635,0.0437302,21.0028,552.831,0.0328319,0.0,0.0
338,84.25,20.335,20.9579,142.006,104.892,104.365,0.000611876,0.0437274,21.0027,552.841,0.0455041,0.0,0.0
340,84.75,19.9839,21.1494,141.745,104.89,104.82,0.000620851,0.0437251,21.0021,552.851,0.00603973,0.0,0.0
342,85.25,20.5581,20.9607,139.229,104.886,104.366,0.000630037,0.0437448,21.0016,552.871,0.0449494,0.0,0.0
344,85.75,20.5391,20.7716,147.512,104.874,104.169,0.000639203,0.0437801,21.0016,552.851,0.0610242,0.0,0.0
346,86.25,20.3859,20.4741,147.026,104.877,104.327,0.000647266,0.0438087,21.0016,552.821,0.0475392,0.0,0.0
348,86.75,19.9907,21.3476,142.709,104.854,104.355,0.000654371,0.0438103,21.0012,552.831,0.0431842,0.0,0.0
350,87.25,20.3124,20.8169,142.319,104.85,104.287,0.000660127,0.0437923,21.0009,552.831,0.0487555,0.0,0.0
352,87.75,20.1015,20.9828,143.082,104.851,104.674,0.000658401,0.0437705,21.0008,552.841,0.0152419,0.0,0.0
354,88.25,20.2365,21.0251,138.762,104.855,104.732,0.000651255,0.0437464,21.001,552.841,0.010614,0.0,0.0
356,88.75,20.2851,20.7623,141.598,104.83,104.515,0.000629697,0.043734,21.0011,552.841,0.0271917,0.0,0.0
358,89.25,20.4274,20.8422,142.627,104.829,104.634,0.000612234,0.0437305,21.0012,552.841,0.016849,0.0,0.0
360,89.75,19.7628,20.5608,143.32,104.818,104.684,0.000592346,0.0437276,21.0013,552.831,0.0115897,0.0,0.0
362,90.25,20.2638,20.7243,140.329,104.827,104.187,0.000571066,0.0437389,21.0014,552.831,0.0553587,0.0,0.0
364,90.75,20.0804,21.1121,143.631,104.813,104.436,0.000555142,0.043748,21.0015,552.821,0.0326643,0.0,0.0
366,91.25,20.2464,21.3463,141.626,104.806,104.378,0.000543425,0.0437339,21.0011,552.821,0.0370479,0.0,0.0
368,91.75,20.3352,21.2134,143.897,104.805,104.085,0.000533933,0.0437031,21.0008,552.811,0.0623233,0.0,0.0
370,92.25,20.0693,21.0387,142.129,104.811,104.288,0.000529887,0.0436854,21.0007,552.821,0.0452788,0.0,0.0
372,92.75,20.2245,20.9873,145.787,104.795,104.517,0.000528799,0.0436774,21.0007,552.811,0.0240433,0.0,0.0
374,93.25,19.6794,21.1034,145.868,104.792,104.294,0.000524512,0.0436849,21.0005,552.801,0.0431123,0.0,0.0
376,93.75,20.0546,21.1213,143.396,104.783,104.335,0.000522684,0.0437036,21.0003,552.781,0.0387155,0.0,0.0
378,94.25,20.4456,21.0913,142.014,104.784,104.927,0.000519559,0.0437402,21,552.811,-0.0123491,0.0,0.0
380,94.75,20.6403,21.5,144.121,104.779,104.417,0.000508541,0.0437892,20.9997,552.801,0.0312825,0.0,0.0
382,95.25,20.2519,20.9919,141.209,104.766,104.431,0.000499616,0.0438289,20.9995,552.791,0.0289815,0.0,0.0
384,95.75,20.4022,21.1527,144.292,104.76,104.574,0.000486325,0.0439157,20.9993,552.771,0.0160536,0.0,0.0
386,96.25,20.5396,21.0197,147.165,104.763,104.325,0.00047556,0.0439859,20.9992,552.771,0.0379295,0.0,0.0
388,96.75,20.123,20.8767,144.789,104.766,104.274,0.000468052,0.0440158,20.9991,552.781,0.0425467,0.0,0.0
390,97.25,20.1386,20.7647,141.348,104.751,104.274,0.00046197,0.0440398,20.999,552.801,0.0413103,0.0,0.0
392,97.75,20.3337,21.4655,146.304,104.753,104.195,0.000464318,0.0440592,20.9989,552.751,0.0482514,0.0,0.0
394,98.25,19.7913,20.9585,142.632,104.744,104.177,0.00046622,0.0440612,20.9988,552.751,0.0490976,0.0,0.0
396,98.75,20.5422,20.8294,141.015,104.74,104.184,0.000473823,0.0440629,20.9988,552.771,0.0481634,0.0,0.0
398,99.25,20.0017,20.71,144.779,104.739,104.089,0.000479981,0.0440506,20.9987,552.781,0.0563071,0.0,0.0
400,99.75,20.0216,20.8286,143.542,104.743,104.428,0.000488608,0.0440407,20.9987,552.801,0.0272164,0.0,0.0
402,100.25,20.6015,20.4359,143.255,104.73,104.496,0.000495595,0.044019,20.9987,552.801,0.0202731,0.0,0.0
404,100.75,20.0187,20.9199,141.007,104.745,104.587,0.000501255,0.0440014,20.9987,552.751,0.0136163,0.0,0.0
406,101.25,20.7812,20.7235,138.442,104.716,104.023,0.000511903,0.0439599,20.9986,552.721,0.0600441,0.0,0.0
408,101.75,20.3669,21.3741,140.074,104.731,104.123,0.000520529,0.0439263,20.9986,552.741,0.0526993,0.0,0.0
410,102.25,20.0972,20.5942,147.113,104.709,104.531,0.000524324,0.0439263,20.9986,552.721,0.0154615,0.0,0.0
412,102.75,20.238,20.6955,141.055,104.717,104.103,0.000524525,0.0439264,20.9986,552.741,0.0532342,0.0,0.0
414,103.25,20.1898,21.8045,146.185,104.715,104.453,0.000518307,0.0439192,20.9986,552.751,0.0226699,0.0,0.0
416,103.75,20.4524,21.0039,144.893,104.736,104.227,0.000507526,0.043907,20.9986,552.761,0.0440374,0.0,0.0
418,104.25,20.4002,21.1796,146.523,104.704,104.453,0.000491138,0.0438971,20.9986,552.781,0.0217212,0.0,0.0
420,104.75,19.5303,20.8588,142.432,104.72,104.302,0.000470974,0.0438388,20.9986,552.791,0.0362221,0.0,0.0
422,105.25,20.4497,21.4052,141.697,104.714,104.621,0.000445076,0.0437464,20.9986,552.791,0.00800718,0.0,0.0
424,105.75,20.3113,21.0817,143.973,104.72,104.188,0.000415491,0.0436428,20.9986,552.771,0.046047,0.0,0.0
426,106.25,19.9481,21.0407,142.624,104.711,104.182,0.000391527,0.0435331,20.9986,552.781,0.0458099,0.0,0.0
428,106.75,20.2291,20.8354,147.196,104.726,104.484,0.000372116,0.043473,20.9986,552.801,0.0209939,0.0,0.0
430,107.25,20.1727,20.6879,144.331,104.711,104.145,0.000358816,0.0434501,20.9991,552.821,0.0490815,0.0,0.0
432,107.75,20.2545,21.4304,144.389,104.724,104.375,0.000348042,0.0434315,20.9995,552.811,0.0302519,0.0,0.0
434,108.25,20.1105,20.9721,144.975,104.707,104.312,0.000348243,0.0434301,20.9999,552.771,0.0341651,0.0,0.0
436,108.75,20.3905,21.2595,142.245,104.729,104.391,0.000356441,0.043429,21.0002,552.791,0.0291997,0.0,0.0
438,109.25,20.4675,20.94,141.541,104.731,104.19,0.000366271,0.0434281,21.0004,552.791,0.0468741,0.0,0.0
440,109.75,20.0696,20.8584,145.143,104.736,104.972,0.000377104,0.0434001,21.0006,552.771,-0.0203635,0.0,0.0
442,110.25,20.4124,21.2192,143.57,104.721,104.553,0.000385878,0.0433774,21.0007,552.791,0.0144733,0.0,0.0
444,110.75,20.4283,21.074,141.064,104.72,104.632,0.000392986,0.0433662,21.0009,552.771,0.00766889,0.0,0.0
446,111.25,20.3987,21.3436,143.569,104.721,104.13,0.000398743,0.0433636,21.001,552.791,0.0511758,0.0,0.0
448,111.75,20.8137,21.1813,137.534,104.731,104.298,0.00040583,0.0433471,21.001,552.771,0.0374979,0.0,0.0
450,112.25,20.2926,20.9703,145.149,104.723,104.316,0.00041157,0.0433209,21.0011,552.761,0.0351523,0.0,0.0
452,112.75,20.1327,21.0536,140.25,104.736,104.655,0.000412994,0.0432781,21.0012,552.761,0.0069664,0.0,0.0
454,113.25,19.87,20.8883,144.034,104.728,104.575,0.000411244,0.0432241,21.0014,552.761,0.0131996,0.0,0.0
456,113.75,20.5918,21.2526,141.082,104.751,104.476,0.000398986,0.0431947,21.0015,552.781,0.023796,0.0,0.0
458,114.25,20.7314,21.4119,144.65,104.73,104.212,0.000379299,0.0431837,21.0017,552.791,0.0448604,0.0,0.0
460,114.75,20.5081,20.7421,143.559,104.738,104.28,0.000363353,0.0431749,21.0018,552.771,0.0396174,0.0,0.0
462,115.25,20.2752,20.9104,143.628,104.735,103.919,0.000335779,0.0431413,21.0019,552.781,0.070804,0.0,0.0
464,115.75,20.7232,21.3658,144.108,104.749,104.21,0.000300253,0.043114,21.0019,552.781,0.0466285,0.0,0.0
466,116.25,20.5392,21.115,144.208,104.733,104.272,0.000269566,0.0431063,21.002,552.771,0.0399073,0.0,0.0
468,116.75,20.3938,21.0456,143.083,104.739,104.286,0.00024299,0.0431129,21.002,552.771,0.0392427,0.0,0.0
470,117.25,20.211,21.2761,141.596,104.742,104.146,0.000227196,0.0431183,21.0021,552.781,0.0515886,0.0,0.0
472,117.75,20.4575,21.0865,144.489,104.744,104.279,0.000219564,0.0431091,21.0021,552.771,0.0402497,0.0,0.0
474,118.25,20.6159,21.336,143.126,104.749,104.424,0.000225492,0.0431016,21.0021,552.771,0.0280872,0.0,0.0
476,118.75,20.6372,21.3921,142.834,104.748,104.379,0.000241192,0.0430883,21.0021,552.771,0.0318917,0.0,0.0
478,119.25,20.9788,21.5817,145.167,104.754,104.015,0.000268579,0.0430711,21.0022,552.781,0.0640986,0.0,0.0
480,119.75,20.9642,21.3956,145.723,104.745,104.378,,0.0430428,,552.781,0.0317166,0.0,0.0
482,120.25,20.8086,21.1687,144.106,104.732,104.222,,0.043007,,552.791,0.0441586,0.0,0.0
484,120.75,20.4781,21.057,141.177,104.75,104.34,,0.042978,,552.801,0.0354692,0.0,0.0
486,121.25,21.1794,20.9698,139.283,104.73,104.659,,0.0429545,,552.801,0.00613671,0.0,0.0
488,121.75,20.1435,21.2846,142.709,104.731,104.354,,0.0429355,,552.801,0.0326482,0.0,0.0
490,122.25,20.0491,21.2298,142.502,104.731,104.418,,0.0429473,,552.801,0.0270455,0.0,0.0
492,122.75,20.798,21.3099,143.823,104.736,104.641,,,,552.791,0.00821403,0.0,0.0
494,123.25,19.8093,21.543,141.703,104.73,104.324,,,,552.771,0.0351222,0.0,0.0
496,123.75,20.1678,20.9868,138.599,104.738,104.261,,,,552.791,0.0413146,0.0,0.0
498,124.25,20.9708,21.2837,146.787,104.725,104.546,,,,552.801,0.0154831,0.0,0.0
500,124.75,20.6537,20.7905,140.481,104.737,104.218,,,,552.791,0.0449602,0.0,0.0
502,125.25,21.047,21.4571,145.388,104.732,104.319,,,,552.781,0.0357538,0.0,0.0
504,125.75,21.1595,21.483,139.776,104.731,104.492,,,,552.781,0.0206658,0.0,0.0
506,126.25,20.644,20.916,143.297,104.732,104.438,,,,552.781,0.0254564,0.0,0.0
508,126.75,20.5946,20.8954,146.343,104.746,104.637,,,,552.801,0.00941194,0.0,0.0
510,127.25,20.8101,21.24,145.166,104.745,104.149,,,,552.801,0.0516347,0.0,0.0
512,127.75,20.5204,20.9352,141.65,104.748,104.202,,,,552.771,0.0472839,0.0,0.0
514,128.25,20.6602,21.3545,139.01,104.743,104.03,,,,552.781,0.0618135,0.0,0.0
516,128.75,20.8343,21.6499,141.24,104.755,104.325,,,,552.771,0.0371585,0.0,0.0
518,129.25,20.2222,21.14,142.668,104.742,104.098,,,,552.761,0.0558302,0.0,0.0
520,129.75,20.5094,21.2174,143.416,104.76,104.229,,,,552.791,0.0459601,0.0,0.0
522,130.25,20.6529,21.6903,140.513,104.773,104.221,,,,552.801,0.0477387,0.0,0.0