File: 01_Data/Window_Screen/Cone/Window_Screen_Cone_HF25Scan_220524_R1.csv
Names,Time,Stack TC,Smoke TC,Exh Press,Smoke Comp,Smoke Meas,CO Meter,CO2 Meter,O2 Meter,Sample Mass,Ext Coeff,Start Test,Flame Verif
Chan Gain,,500,500,1,1,1,1,1,1,1,1,1.0,1.0
Offset,,0,0,0.13752,0,0,0,0,0,0,0,0.0,0.0
Gain,,1,1,25.011,13.8491,15.2622,1,1,1,1.00087,1.03118,1.0,1.0
Units,sec,C,C,Pa,%,%,%,%,%,g,/m,,
Baseline,,20.9815,21.4792,144.521,103.491,103.087,0.0005598,0.0438072,21.0039,-449.745,0.0353994,,
2,0.25,21.6402,22.059,142.738,103.723,103.222,0.00185633,0.0497873,20.9978,48.4622,0.0437712,0.0,0.0
4,0.75,21.3587,22.309,147.45,103.735,103.446,0.00254316,0.0501476,20.9966,48.5423,0.0252703,0.0,0.0
6,1.25,20.0665,21.4223,145.365,103.743,103.263,0.00381234,0.0513695,20.9953,48.4522,0.0419543,0.0,0.0
8,1.75,19.9771,20.8329,141.949,103.732,103.281,0.00548194,0.0531963,20.9942,48.3621,0.0394821,0.0,0.0
10,2.25,20.162,20.9751,143.549,103.746,103.045,0.00750002,0.0546759,20.9806,48.3721,0.0613626,0.0,0.0
12,2.75,19.7666,20.5707,144.757,103.766,102.737,0.00973379,0.064451,20.9697,48.3421,0.0901239,0.0,0.0
14,3.25,20.1627,20.7413,146.265,103.774,99.016,0.0106861,0.0723689,20.9492,48.272,0.424519,0.0,0.0
16,3.75,20.0128,20.5123,134.239,103.783,81.7343,0.0140599,0.0866277,20.8993,48.3221,2.16036,0.0,0.0
18,4.25,19.8895,20.3586,131.838,103.792,67.3589,0.0149675,0.105238,20.8858,47.9217,3.9108,0.0,1.0
20,4.75,19.8702,20.6925,122.816,103.802,67.4073,0.0165195,0.123921,20.8594,47.9618,3.90526,0.0,1.0
22,5.25,19.9019,20.4791,132.114,103.805,69.2592,0.0176174,0.142301,20.8379,47.9818,3.66036,0.0,1.0
24,5.75,20.7986,20.7879,132.978,103.824,69.4441,0.0185066,0.157354,20.8206,47.9117,3.6379,0.0,1.0
26,6.25,20.9916,21.5455,132.429,103.825,69.0696,0.0185497,0.16385,20.8065,47.8316,3.68689,0.0,1.0
28,6.75,21.8588,21.3811,131.652,103.852,71.2606,0.0185845,0.179693,20.7951,47.8116,3.40677,0.0,1.0
30,7.25,21.9718,21.4303,140.468,103.846,73.2508,0.0177719,0.181323,20.7859,47.8216,3.15709,0.0,1.0
32,7.75,22.5417,21.865,132.657,103.861,78.5205,0.0171138,0.184112,20.7784,47.8517,2.52995,0.0,1.0
34,8.25,23.0676,21.9943,139.351,103.868,92.0496,0.0165806,0.186371,20.7802,47.8316,1.09264,0.0,1.0
36,8.75,23.2016,22.1649,140.429,103.892,100.418,0.0150653,0.180036,20.7886,47.8316,0.307616,0.0,1.0
38,9.25,23.704,22.2786,145.233,103.89,102.236,0.0138379,0.174905,20.8021,47.8416,0.145219,0.0,1.0
40,9.75,22.1249,20.8148,142.34,103.912,103.075,0.0123678,0.164365,20.8191,47.8517,0.073181,0.0,1.0
42,10.25,21.8266,21.4195,147.55,103.909,103.322,0.0111771,0.155827,20.8329,47.8517,0.051208,0.0,0.0
44,10.75,21.9206,20.8584,144.685,103.935,103.66,0.0102126,0.144303,20.8515,47.8416,0.0239702,0.0,0.0
46,11.25,22.4512,20.812,142.261,103.938,103.759,0.00906747,0.134969,20.8665,47.8517,0.0155789,0.0,0.0
48,11.75,21.6868,21.6108,145.408,103.952,104.002,0.00813993,0.127408,20.8812,47.8517,-0.00433744,0.0,0.0
50,12.25,21.4636,20.5611,143.175,103.965,103.926,0.00726091,0.117319,20.8954,47.8717,0.00336692,0.0,0.0
52,12.75,19.8784,20.0607,144.998,103.977,103.762,0.00643395,0.109147,20.9068,47.8817,0.0187517,0.0,0.0
54,13.25,20.2216,19.8874,143.608,103.985,104.104,0.00576411,0.101622,20.9196,47.8316,-0.0103366,0.0,0.0
56,13.75,20.5077,20.2282,144.811,104.01,104.131,0.00510753,0.0947109,20.93,47.8416,-0.0105153,0.0,0.0
58,14.25,20.3619,19.7284,144.354,104.013,103.672,0.0045757,0.0891131,20.9401,47.8717,0.0297199,0.0,0.0
60,14.75,20.4281,19.2018,140.323,104.029,103.871,0.00406788,0.0833708,20.9483,47.8817,0.0137767,0.0,0.0
62,15.25,19.9562,19.8802,142.428,104.038,103.339,0.003627,0.0787195,20.9558,47.8617,0.060991,0.0,0.0
64,15.75,20.496,18.879,141.535,104.058,103.972,0.0032433,0.0745265,20.9619,47.8817,0.00751805,0.0,0.0
66,16.25,20.9739,20.0262,143.088,104.058,103.757,0.00291453,0.0707473,20.9673,47.8517,0.0262219,0.0,0.0
68,16.75,20.507,20.0604,144.954,104.079,103.828,0.00263206,0.0674845,20.9721,47.8917,0.0218481,0.0,0.0
70,17.25,20.3622,19.8502,148.364,104.092,103.914,0.00238595,0.0646601,20.9759,47.8817,0.0154465,0.0,0.0
72,17.75,19.7315,20.4106,142.546,104.106,104.075,0.00217103,0.0622428,20.9795,47.8717,0.00275465,0.0,0.0
74,18.25,20.1041,19.6118,143.016,104.112,104.305,0.00199694,0.0601682,20.9824,47.8717,-0.0167837,0.0,0.0
76,18.75,19.1045,18.5955,144.25,104.13,104.4,0.00181213,0.0584159,20.985,47.8717,-0.0234776,0.0,0.0
78,19.25,18.757,18.9364,143.58,104.122,104.152,0.00166243,0.0569317,20.9873,47.8817,-0.00260772,0.0,0.0
80,19.75,19.3876,19.1385,141.833,104.15,103.9,0.00150593,0.0556935,20.9891,47.8717,0.0217255,0.0,0.0
82,20.25,18.9173,19.762,143.073,104.147,103.832,0.00137917,0.0546583,20.9906,47.8817,0.0273992,0.0,0.0
84,20.75,18.8315,19.4439,143.612,104.181,104.332,0.00126374,0.0538197,20.9918,47.8717,-0.0131066,0.0,0.0
86,21.25,19.2465,18.9684,144.869,104.177,103.912,0.00115878,0.0530448,20.9933,47.8617,0.0230238,0.0,0.0
88,21.75,19.4065,19.2288,144.915,104.193,104.004,0.00107376,0.0524171,20.9944,47.8617,0.0164723,0.0,0.0
90,22.25,19.0778,18.6128,141.887,104.206,103.965,0.00100732,0.05188,20.9953,47.8717,0.0208982,0.0,0.0
92,22.75,18.933,19.0895,142.149,104.224,104.101,0.0009535,0.051419,20.9959,47.8717,0.0106506,0.0,0.0
94,23.25,18.9427,19.2724,143.222,104.224,104.053,0.000913551,0.0510455,20.9964,47.8517,0.0148565,0.0,0.0
96,23.75,18.9482,18.8357,141.484,104.25,104.278,0.000881192,0.0507431,20.9968,47.8717,-0.00236449,0.0,0.0
98,24.25,18.5937,18.9357,141.721,104.248,103.867,0.000854981,0.0504981,20.9971,47.8717,0.0330811,0.0,0.0
100,24.75,18.9933,19.3109,141.329,104.274,103.867,0.00083375,0.0503262,20.9973,47.8617,0.0353177,0.0,0.0
102,25.25,18.568,19.0924,144.876,104.273,103.916,0.000816553,0.0501869,20.9976,47.8717,0.0310235,0.0,0.0
104,25.75,18.9232,18.9004,143.691,104.284,104.122,0.000800195,0.0500605,20.9977,47.8517,0.0141137,0.0,0.0
106,26.25,18.9317,18.8876,142.419,104.302,103.991,0.000786945,0.049958,20.9979,47.8617,0.0269906,0.0,0.0
108,26.75,19.0073,19.7638,142.751,104.324,103.964,0.000783498,0.0498463,20.998,47.8717,0.0312459,0.0,0.0
110,27.25,19.0047,18.9105,144.165,104.318,104.053,0.000780706,0.0497299,20.9981,47.8717,0.0229958,0.0,0.0
112,27.75,18.8315,18.7844,140.265,104.344,104.379,0.000784516,0.0495781,20.9981,47.8817,-0.0029901,0.0,0.0
114,28.25,18.7434,19.2844,143.67,104.344,103.914,0.000787602,0.0494034,20.9982,47.8517,0.0374227,0.0,0.0
116,28.75,18.6641,19.6168,142.553,104.367,104.175,0.00079496,0.0492619,20.9983,47.4813,0.0166477,0.0,0.0
118,29.25,18.7804,19.1299,144.929,104.361,104.165,0.000800919,0.0490243,20.9983,47.9017,0.0170621,0.0,0.0
120,29.75,19.0044,19.445,147.007,104.39,104.131,0.000809391,0.0488319,20.9983,47.8216,0.0224688,0.0,0.0
122,30.25,18.6979,19.4926,149.003,104.395,104.043,0.000820089,0.0486078,20.9984,47.8316,0.0305141,0.0,0.0
124,30.75,18.4569,19.6027,148.562,104.413,103.934,0.000832208,0.0484263,20.9984,47.8316,0.0415733,0.0,0.0
126,31.25,19.1701,19.1549,144.05,104.417,104.151,0.000842024,0.0481973,20.9984,47.8416,0.0230324,0.0,0.0
128,31.75,18.8111,19.8883,140.433,104.431,104.044,0.000849976,0.0480119,20.9984,47.8517,0.0335087,0.0,0.0
130,32.25,18.4605,19.1125,143.76,104.446,104.281,0.000856416,0.0478207,20.9984,47.8517,0.0142752,0.0,0.0
132,32.75,18.5675,18.8487,143.515,104.46,104.317,0.000866714,0.0476731,20.9984,47.8216,0.0123737,0.0,0.0
134,33.25,19.0145,18.8352,140.182,104.469,104.258,0.000879627,0.0475599,20.9986,47.8216,0.0182352,0.0,0.0
136,33.75,18.3037,19.2081,147.754,104.489,104.329,0.000887529,0.0474683,20.9987,47.8316,0.0138112,0.0,0.0
138,34.25,18.8014,19.2771,144.596,104.505,104.194,0.000891626,0.047394,20.999,47.8216,0.0269605,0.0,0.0
140,34.75,19.1587,19.4352,144.079,104.516,104.272,0.00088983,0.0475064,20.9992,47.8316,0.0211209,0.0,0.0
142,35.25,18.9171,19.0281,146.441,104.524,104.537,0.00088377,0.0477526,20.9994,47.8216,-0.0011819,0.0,0.0
144,35.75,18.7783,18.9896,145.694,104.545,104.576,0.000872469,0.0479521,20.9996,47.8216,-0.00262444,0.0,0.0
146,36.25,18.8445,19.1651,143.486,104.547,104.242,0.000857562,0.0483154,20.9992,47.8416,0.0264542,0.0,0.0
148,36.75,18.8571,19.0106,142.771,104.582,104.126,0.000837818,0.0487913,20.999,47.8416,0.0395175,0.0,0.0
150,37.25,18.3003,18.8962,139.874,104.593,104.357,0.000814924,0.049256,20.9988,47.8316,0.0204248,0.0,0.0
152,37.75,18.3068,19.2355,146.301,104.589,104.398,0.000786799,0.0497036,20.9986,47.8116,0.0164669,0.0,0.0
154,38.25,18.5697,19.0621,144.073,104.606,104.599,0.000755394,0.0501093,20.9985,47.8216,0.00059197,0.0,0.0
156,38.75,18.8595,19.0996,146.023,104.63,104.578,0.000729956,0.0504768,20.9984,47.8216,0.00456224,0.0,0.0
158,39.25,18.9015,18.973,148.125,104.64,104.349,0.000695307,0.0507745,20.9983,47.8216,0.0252445,0.0,0.0
160,39.75,18.3337,19.5343,140.955,104.659,104.233,0.000654602,0.0510156,20.9982,47.8316,0.036948,0.0,0.0
162,40.25,18.9025,19.2368,141.117,104.667,104.176,0.000623546,0.0512109,20.9981,47.8517,0.0425747,0.0,0.0
164,40.75,18.7989,19.3095,145.72,104.69,104.121,0.000600113,0.0513418,20.9981,47.8216,0.0493561,0.0,0.0
166,41.25,18.3991,18.431,143.519,104.703,104.275,0.000595816,0.0514477,20.998,47.8216,0.0370683,0.0,0.0
168,41.75,18.7219,18.7143,142.994,104.693,104.205,0.000605552,0.0514688,20.998,47.8416,0.0422945,0.0,0.0
170,42.25,17.7854,19.0732,142.298,104.712,104.385,0.000629411,0.0514276,20.998,47.8517,0.028228,0.0,0.0
172,42.75,18.6005,19.368,145.386,104.724,104.496,0.000663113,0.0513223,20.998,47.8617,0.0196857,0.0,0.0
174,43.25,18.7302,18.8215,137.202,104.744,104.484,0.000690412,0.0511722,20.9979,47.8717,0.0225258,0.0,0.0
176,43.75,18.3079,19.0437,145.427,104.747,104.637,0.000738106,0.0509716,20.9982,47.8717,0.00948519,0.0,0.0
178,44.25,17.9604,19.1705,143.162,104.764,104.349,0.000758438,0.0507378,20.9984,47.8517,0.0359793,0.0,0.0
180,44.75,18.6726,19.1316,141.272,104.771,104.391,0.000794486,0.0505485,20.9987,47.8517,0.0328534,0.0,0.0
182,45.25,18.5351,19.3893,142.435,104.788,104.577,0.000824836,0.0501902,20.9988,47.8517,0.0181835,0.0,0.0
184,45.75,18.8742,19.1447,143.121,104.8,104.873,0.00084942,0.0499,20.9989,47.8617,-0.00626766,0.0,0.0
186,46.25,18.2577,19.5935,142.887,104.828,104.526,0.000868053,0.0495998,20.999,47.8416,0.0260413,0.0,0.0
188,46.75,18.5227,19.4284,140.588,104.816,104.519,0.000881994,0.0492981,20.9991,47.8517,0.0255886,0.0,0.0
190,47.25,18.5555,18.9112,142.502,104.833,104.466,0.000897125,0.0491694,20.9991,47.8316,0.0317209,0.0,0.0
192,47.75,18.2954,19.1147,146.186,104.836,104.901,0.000912836,0.0488539,20.9996,47.8416,-0.00565424,0.0,0.0
194,48.25,18.6136,18.8872,144.139,104.844,104.705,0.000927482,0.0485983,21,47.8316,0.0120388,0.0,0.0
196,48.75,18.5056,18.764,142.959,104.849,104.73,0.000941072,0.0482411,21.0003,47.8316,0.0103447,0.0,0.0
198,49.25,18.946,19.1542,144.882,104.862,104.629,0.000949521,0.0479518,21.0005,47.8316,0.0201322,0.0,0.0
200,49.75,18.2279,19.4469,142.493,104.863,104.567,0.000954061,0.0476169,21.0007,47.8416,0.0255983,0.0,0.0
202,50.25,18.1828,19.0128,144.625,104.876,104.776,0.000951342,0.0472551,21.0009,47.8416,0.00862018,0.0,0.0
204,50.75,18.2018,19.5681,141.439,104.872,104.884,0.000943382,0.0469118,21.001,47.8416,-0.0010692,0.0,0.0
206,51.25,18.6134,18.96,145.449,104.886,104.782,0.000936296,0.0465885,21.0011,47.8617,0.00897136,0.0,0.0
208,51.75,18.5542,19.3734,141.722,104.892,104.57,0.00092998,0.0462692,21.0017,47.8717,0.0278313,0.0,0.0
210,52.25,18.3533,18.9401,141.607,104.91,104.818,0.000924864,0.0459589,21.0021,47.8617,0.00791345,0.0,0.0
212,52.75,18.6012,18.7836,144.73,104.906,104.638,0.000930442,0.0456717,21.0024,47.8717,0.0231173,0.0,0.0
214,53.25,18.1463,18.8305,140.616,104.917,104.771,0.000934961,0.0454067,21.0027,47.8717,0.0125977,0.0,0.0
216,53.75,18.4584,18.9524,140.01,104.914,104.831,0.000936887,0.0451777,21.0028,47.8717,0.00715604,0.0,0.0
218,54.25,17.9078,19.1301,143.24,104.941,104.778,0.000943761,0.0449793,21.003,47.8717,0.0140749,0.0,0.0
220,54.75,18.0093,19.0962,140.468,104.947,104.736,0.000949329,0.0448186,21.0032,47.8817,0.0182362,0.0,0.0
222,55.25,18.5114,19.2029,149.547,104.966,105.006,0.000953838,0.0445794,21.0033,47.8917,-0.00338489,0.0,0.0
224,55.75,18.5093,19.0504,141.503,104.961,105.009,0.000946553,0.0443856,21.0037,47.8717,-0.00406289,0.0,0.0
226,56.25,18.718,19.183,142.025,104.991,104.723,0.000940651,0.044186,21.0042,47.8917,0.0231141,0.0,0.0
228,56.75,17.8616,19.2526,141.793,104.988,104.91,0.000930115,0.0440807,21.0047,47.8917,0.00670565,0.0,0.0
230,57.25,18.611,18.7524,145.073,105.019,104.907,0.000916402,0.0439007,21.005,47.8717,0.0096403,0.0,0.0
232,57.75,18.707,19.2921,143.883,105.023,104.791,0.000898261,0.0437548,21.0053,47.8517,0.0200859,0.0,0.0
234,58.25,18.0899,19.1997,141.135,105.055,104.791,0.000877239,0.0436511,21.0055,47.8917,0.0227387,0.0,0.0
236,58.75,18.4755,19.2202,142.615,105.04,104.855,0.00085382,0.0435799,21.0057,47.8617,0.0159954,0.0,0.0
238,59.25,18.5929,19.0686,143.581,105.068,104.821,0.0008291,0.0434864,21.0059,47.8717,0.0212941,0.0,0.0
240,59.75,18.4449,18.755,143.332,105.084,104.889,0.000809077,0.0433784,21.006,47.8817,0.0167747,0.0,0.0
242,60.25,18.238,19.0619,142.156,105.1,104.964,0.000773439,0.0432694,21.0063,47.8917,0.0117653,0.0,0.0
244,60.75,18.6447,19.1691,140.014,105.104,105.17,0.000744572,0.0431617,21.0068,47.8817,-0.00563104,0.0,0.0
246,61.25,18.2655,18.4282,143.216,105.137,104.765,0.000716337,0.0430673,21.0072,47.8416,0.0320486,0.0,0.0
248,61.75,18.3366,19.0207,143.341,105.13,105.32,0.000693467,0.0429844,21.0075,47.8416,-0.0163063,0.0,0.0
250,62.25,18.0791,19.5869,143.283,105.157,104.618,0.000682222,0.0429172,21.0077,47.8517,0.0464332,0.0,0.0
252,62.75,18.1961,18.6674,140.067,105.157,105.061,0.000673114,0.042931,21.0079,47.8517,0.00832931,0.0,0.0
254,63.25,18.5424,19.082,145.532,105.182,105.032,0.000681514,0.0429421,21.0081,47.8617,0.0128884,0.0,0.0
256,63.75,18.6644,18.7693,137.36,105.184,105.093,0.000688318,0.0429511,21.0082,47.8817,0.00785312,0.0,0.0
258,64.25,18.6253,19.0402,145.752,105.218,105.014,0.000693829,0.0429584,21.0083,47.8617,0.0176142,0.0,0.0
260,64.75,17.8647,18.961,141.573,105.226,104.988,0.000703149,0.0430053,21.0084,47.8617,0.020512,0.0,0.0
262,65.25,18.6103,19.1103,143.122,105.24,105.22,0.000710698,0.0430432,21.0085,47.8517,0.00167122,0.0,0.0
264,65.75,17.8701,19.2368,142.977,105.257,104.803,0.000713171,0.0430739,21.0083,47.8316,0.0391085,0.0,0.0
266,66.25,18.1982,18.9523,139.668,105.294,104.988,0.000715174,0.0430988,21.008,47.8416,0.0263628,0.0,0.0
268,66.75,18.0721,19.0663,141.771,105.294,105.193,0.000716797,0.0431046,21.0077,47.8517,0.00868266,0.0,0.0
270,67.25,18.2122,18.8811,146.196,105.318,104.921,0.000715683,0.0430964,21.0075,47.8617,0.0341318,0.0,0.0
272,67.75,18.3474,19.0071,145.021,105.324,105.363,0.000714782,0.0430897,21.0073,47.8517,-0.00335038,0.0,0.0
274,68.25,18.2478,18.9957,140.776,105.336,105.07,0.000720121,0.043098,21.0071,47.8517,0.0228527,0.0,0.0
276,68.75,18.2303,19.2913,144.455,105.347,104.952,0.000724445,0.0431046,21.007,47.8517,0.0339503,0.0,0.0
278,69.25,18.648,19.4382,139.975,105.373,105.319,0.000736448,0.0430957,21.0069,47.8517,0.00462259,0.0,0.0
280,69.75,18.6468,19.4036,143.797,105.369,104.957,0.00074617,0.0430755,21.0068,47.8617,0.0354359,0.0,0.0
282,70.25,18.5137,18.7676,143.117,105.385,105.057,0.000764977,0.0430592,21.0068,47.8717,0.0282237,0.0,0.0
284,70.75,18.4274,19.4943,142.109,105.391,105.147,0.00078021,0.0430051,21.0067,47.8817,0.0209552,0.0,0.0
286,71.25,18.3858,18.8282,145.077,105.402,105.371,0.000799838,0.0429613,21.0067,47.8617,0.00265009,0.0,0.0
288,71.75,18.614,18.839,144.005,105.409,105.167,0.000815737,0.0429803,21.0066,47.8617,0.0207562,0.0,0.0
290,72.25,18.3355,19.322,146.597,105.43,105.002,0.000823755,0.0429957,21.0066,47.8517,0.0368417,0.0,0.0
292,72.75,18.5991,18.8302,141.846,105.429,105.241,0.00083025,0.0430218,21.0066,47.8416,0.0161698,0.0,0.0
294,73.25,18.4554,18.7427,141.166,105.447,105.045,0.00083551,0.0430429,21.0066,47.8216,0.0344852,0.0,0.0
296,73.75,18.3487,18.7637,145.398,105.449,105.459,0.000817911,0.0430328,21.0066,47.8216,-0.000842196,0.0,0.0
298,74.25,18.1199,19.0245,141.17,105.466,105.199,0.000803655,0.0430246,21.0065,47.8416,0.0229678,0.0,0.0
300,74.75,18.7628,18.9027,142.974,105.472,105.392,0.000792109,0.0430725,21.0065,47.8316,0.00683387,0.0,0.0
302,75.25,17.9902,19.0666,144.057,105.488,105.379,0.000757269,0.0431113,21.0065,47.8116,0.00940332,0.0,0.0
304,75.75,18.4777,19.6585,140.727,105.487,105.451,0.000729048,0.0431498,21.0065,47.8316,0.00309852,0.0,0.0
306,76.25,17.992,19.263,141.956,105.508,105.696,0.000695272,0.0431876,21.0065,47.8416,-0.0160394,0.0,0.0
308,76.75,17.7396,18.9651,143.662,105.502,105.254,0.000667913,0.0432181,21.0065,47.8216,0.0212801,0.0,0.0
310,77.25,18.8217,19.0208,147.229,105.519,105.06,0.000643327,0.0432428,21.0065,47.8416,0.0394767,0.0,0.0
312,77.75,18.7263,19.1215,144.031,105.523,105.457,0.000623412,0.0432902,21.0063,47.8517,0.00566041,0.0,0.0
314,78.25,18.5319,19.5653,140.168,105.527,105.454,0.000607281,0.0433285,21.0059,47.8416,0.00626602,0.0,0.0
316,78.75,18.1909,18.6152,144.481,105.536,105.193,0.000591662,0.0433459,21.0055,47.8517,0.0295028,0.0,0.0
318,79.25,18.1976,19.5549,144.976,105.542,105.168,0.000576712,0.04336,21.0051,47.8617,0.0321335,0.0,0.0
320,79.75,18.2405,18.727,145.228,105.551,105.637,0.000560136,0.043385,21.0048,47.8517,-0.00735703,0.0,0.0
322,80.25,18.719,19.1583,142.553,105.552,105.189,0.000542689,0.0434053,21.0046,47.8517,0.0311997,0.0,0.0
324,80.75,18.1588,18.8916,141.489,105.555,105.774,0.000528557,0.0434218,21.0044,47.8416,-0.018749,0.0,0.0
326,81.25,17.9785,18.8405,146.113,105.567,105.4,0.000523172,0.0434279,21.0042,47.8617,0.0143785,0.0,0.0
328,81.75,18.2776,18.9814,143.676,105.582,105.273,0.00051881,0.0434264,21.0041,47.8617,0.0265251,0.0,0.0
330,82.25,18.6498,19.007,144.005,105.565,105.488,0.000515277,0.043418,21.0042,47.8517,0.00656881,0.0,0.0
332,82.75,18.3955,18.8987,141.843,105.564,105.386,0.000512415,0.0434048,21.0045,47.8617,0.0153237,0.0,0.0
334,83.25,18.614,19.0471,141.726,105.574,105.528,0.000501611,0.0433941,21.0048,47.8617,0.0039716,0.0,0.0
336,83.75,18.3313,19.2508,141.655,105.588,105.227,0.00049286,0.0434535,21.005,47.8416,0.0309945,0.0,0.0
338,84.25,18.2727,19.1786,142.066,105.574,105.322,0.000486409,0.0435017,21.0051,47.8316,0.021676,0.0,0.0
340,84.75,18.5509,18.5691,140.689,105.585,105.498,0.000481757,0.0435336,21.0053,47.8316,0.00746849,0.0,0.0
342,85.25,18.5449,19.0601,142.469,105.58,105.282,0.00047799,0.0435529,21.0054,47.8316,0.0255069,0.0,0.0
344,85.75,18.7074,18.6497,143.903,105.573,105.433,0.000498048,0.0435542,21.0055,47.8416,0.011972,0.0,0.0
346,86.25,18.3699,18.9156,138.579,105.562,105.335,0.000514294,0.0435424,21.0055,47.8416,0.019506,0.0,0.0
348,86.75,18.204,19.4047,144.765,105.583,105.244,0.00055658,0.0435399,21.0055,47.8517,0.0290825,0.0,0.0
350,87.25,18.2281,19.1538,144.755,105.578,105.787,0.000590831,0.0435444,21.0054,47.8416,-0.017876,0.0,0.0
352,87.75,18.3113,18.9361,145.523,105.579,105.016,0.000618575,0.0435481,21.0053,47.8316,0.0483136,0.0,0.0
354,88.25,18.5065,19.1267,147.559,105.568,105.277,0.000677486,0.0435366,21.0053,47.8316,0.0249327,0.0,0.0
356,88.75,18.4076,19.2846,148.057,105.563,105.367,0.000725205,0.0435273,21.0052,47.8316,0.0168544,0.0,0.0
358,89.25,18.2696,19.3517,149.613,105.544,105.177,0.000788171,0.0435471,21.0052,47.8316,0.0315178,0.0,0.0
360,89.75,18.4734,18.706,141.671,105.551,105.302,0.000839174,0.0435631,21.0051,47.8216,0.021364,0.0,0.0
362,90.25,18.4604,18.8541,145.93,105.532,105.424,0.00088535,0.043576,21.0051,47.8216,0.00921697,0.0,0.0
364,90.75,18.3147,19.1552,141.029,105.55,105.446,0.000922753,0.0435729,21.0051,47.8016,0.00889811,0.0,0.0
366,91.25,18.1779,18.821,142.337,105.531,105.415,0.000942105,0.0435703,21.0051,47.8016,0.00994513,0.0,0.0
368,91.75,18.2737,18.9836,143.982,105.54,105.163,0.00095778,0.0435611,21.0051,47.8016,0.0323892,0.0,0.0
370,92.25,18.3944,19.1453,141.153,105.523,105.515,0.000944952,0.0435471,21.005,47.7916,0.000630787,0.0,0.0
372,92.75,18.1146,18.6573,151.347,105.533,105.31,0.000934562,0.0435768,21.005,47.7716,0.0191229,0.0,0.0
374,93.25,18.6009,18.9125,143.976,105.507,105.281,0.000894569,0.0436007,21.005,47.7816,0.0194371,0.0,0.0
376,93.75,18.0301,19.0532,143.253,105.515,105.253,0.000862174,0.0435384,21.005,47.8216,0.0224903,0.0,0.0
378,94.25,17.7612,18.9822,141.26,105.5,105.226,0.000835935,0.0434879,21.005,47.8116,0.0235411,0.0,0.0
380,94.75,18.4253,19.1366,143.338,105.505,105.205,0.000764942,0.043406,21.005,47.7616,0.0257413,0.0,0.0
382,95.25,18.5712,18.98,144.808,105.481,105.146,0.000707438,0.0433398,21.005,47.7616,0.0287225,0.0,0.0
384,95.75,18.2503,18.749,145.011,105.482,105.529,0.00066086,0.043327,21.005,47.7816,-0.00404185,0.0,0.0
386,96.25,17.8606,19.0526,149.521,105.465,105.3,0.000589204,0.0433166,21.005,47.7816,0.0141718,0.0,0.0
388,96.75,18.2942,18.843,144.993,105.457,105.479,0.000531162,0.0433082,21.005,47.7816,-0.0019115,0.0,0.0
390,97.25,18.2013,19.5464,144.662,105.442,105.338,0.000485359,0.0433151,21.0048,47.7716,0.00893474,0.0,0.0
392,97.75,17.983,18.9485,144.323,105.438,105.449,0.000448258,0.0433206,21.0044,47.7316,-0.000982389,0.0,0.0
394,98.25,18.0314,19.2384,147.315,105.411,105.232,0.000441228,0.0433251,21.0041,47.7416,0.0153345,0.0,0.0
396,98.75,18.7324,19.0652,141.692,105.397,105.374,0.000435533,0.0433151,21.0038,47.7215,0.00193535,0.0,0.0
398,99.25,18.7612,18.8827,146.401,105.377,105.662,0.000457593,0.043307,21.0036,47.7516,-0.0243696,0.0,0.0
400,99.75,18.0451,18.8099,143.832,105.387,105.427,0.000475462,0.0433277,21.0034,47.7616,-0.00349223,0.0,0.0
402,100.25,18.4774,18.9364,138.973,105.34,105.386,0.000508132,0.0433445,21.0033,47.6715,-0.00388974,0.0,0.0
404,100.75,18.3267,19.0503,144.511,105.328,105.357,0.000534596,0.0433444,21.0032,47.6615,-0.00253977,0.0,0.0
406,101.25,18.4331,18.877,139.999,105.308,104.991,0.000556031,0.0433444,21.0031,47.6915,0.0272433,0.0,0.0
408,101.75,18.4867,18.8758,142.877,105.288,104.888,0.000573394,0.043358,21.003,47.8216,0.0344057,0.0,0.0
410,102.25,17.9503,19.1194,147.932,105.263,105.143,0.000600808,0.043369,21.0034,47.8316,0.0102823,0.0,0.0
412,102.75,18.0656,19.0902,145.281,105.246,104.816,0.000623014,0.0433779,21.0036,47.8216,0.0370791,0.0,0.0
414,103.25,18.783,18.4987,143.714,105.216,105.247,0.000634932,0.0433852,21.0039,47.8116,-0.00264116,0.0,0.0
416,103.75,18.0058,18.5289,143.832,105.202,105.245,0.000644586,0.043391,21.0041,47.8016,-0.00364379,0.0,0.0
418,104.25,17.9612,19.147,140.789,105.168,105.059,0.00064391,0.0433958,21.0042,47.7916,0.00939794,0.0,0.0
420,104.75,17.7408,18.5453,144.766,105.155,105.33,0.000643363,0.0434132,21.0043,47.7816,-0.0150376,0.0,0.0
422,105.25,18.1267,19.1316,146.843,105.118,104.877,0.000639298,0.0434274,21.0044,47.8116,0.0207648,0.0,0.0
424,105.75,17.9472,19.4233,144.565,105.097,104.6,0.000632347,0.0434798,21.0045,47.8116,0.0428397,0.0,0.0
426,106.25,18.3617,18.9454,143.934,105.085,104.859,0.000626717,0.0435222,21.0045,47.7716,0.0194511,0.0,0.0
428,106.75,17.8427,18.7611,147.122,105.072,104.743,0.000620943,0.0435429,21.0046,47.7816,0.0283774,0.0,0.0
430,107.25,17.9083,18.6701,144.052,105.027,105.319,0.000616267,0.0435597,21.0046,47.8116,-0.0251,0.0,0.0
432,107.75,18.4374,18.9907,143.989,105.007,105.303,0.000619758,0.0435596,21.0047,47.8216,-0.0254509,0.0,0.0
434,108.25,18.1824,19.1127,142.648,104.979,104.655,0.000622586,0.0435596,21.0047,47.8316,0.0278926,0.0,0.0
436,108.75,18.5057,18.6197,145.165,104.971,104.519,0.000631264,0.0435668,21.0047,47.8316,0.0390409,0.0,0.0
438,109.25,18.6217,18.6946,143.05,104.939,104.62,0.000644042,0.043579,21.0048,47.8316,0.0276067,0.0,0.0
440,109.75,18.5955,18.9086,143.041,104.922,104.685,0.000654392,0.0435889,21.0048,47.8416,0.020513,0.0,0.0
442,110.25,18.9318,18.7023,143.392,104.9,104.65,0.000663989,0.0436106,21.0048,47.8216,0.0215609,0.0,0.0
444,110.75,18.1016,18.9955,144.091,104.878,104.497,0.000671763,0.0436282,21.0048,47.7916,0.0328835,0.0,0.0
446,111.25,18.2198,19.2428,139.222,104.858,104.67,0.000679274,0.0436352,21.0048,47.7916,0.0162204,0.0,0.0
448,111.75,18.07,18.894,143.028,104.839,104.484,0.000685358,0.0436344,21.0048,47.7916,0.0306947,0.0,0.0
450,112.25,18.4322,19.1664,141.266,104.821,104.251,0.000690286,0.0436338,21.0048,47.7816,0.0493872,0.0,0.0
452,112.75,18.6779,18.7448,142.494,104.816,104.784,0.000694278,0.043647,21.0048,47.8216,0.00279454,0.0,0.0
454,113.25,18.5492,19.379,142.348,104.793,104.591,0.000692656,0.0436576,21.0048,47.8116,0.0174539,0.0,0.0
456,113.75,18.3729,18.7788,140.477,104.771,104.872,0.000691342,0.0437071,21.0048,47.8216,-0.00870125,0.0,0.0
458,114.25,18.1488,19.2357,142.962,104.759,104.9,0.000679356,0.0437473,21.0048,47.8316,-0.0121693,0.0,0.0
460,114.75,18.748,19.3634,142.025,104.742,104.538,0.000669648,0.0437525,21.0048,47.8416,0.0175916,0.0,0.0
462,115.25,18.706,18.9234,141.684,104.737,104.332,0.000661784,0.0437567,21.0048,47.8517,0.0350567,0.0,0.0
464,115.75,18.2067,19.3618,139.414,104.737,104.355,0.000651774,0.0437458,21.0048,47.8316,0.0330457,0.0,0.0
466,116.25,18.6059,18.7883,144.407,104.712,104.365,0.000643666,0.043724,21.0048,47.8416,0.0300402,0.0,0.0
468,116.75,18.4486,18.818,141.48,104.709,104.792,0.000643449,0.0437207,21.0048,47.8216,-0.00712123,0.0,0.0
470,117.25,18.6272,18.9981,143.549,104.697,104.317,0.000648989,0.043731,21.0048,47.8116,0.0328845,0.0,0.0
472,117.75,18.5269,19.1456,143.396,104.685,104.173,0.000657309,0.0437393,21.0048,47.8316,0.0443099,0.0,0.0
474,118.25,18.4889,19.3917,139.333,104.692,104.15,0.000667498,0.0437597,21.005,47.8316,0.0469567,0.0,0.0
476,118.75,18.5814,18.8581,145.559,104.702,104.866,0.000675752,0.0437762,21.0051,47.8216,-0.0142087,0.0,0.0
478,119.25,18.5438,19.053,139.339,104.745,104.725,0.000681223,0.0438115,21.0052,47.8316,0.00169602,0.0,0.0
480,119.75,18.4165,19.1355,141.04,104.773,104.717,0.000685654,0.0438598,21.0053,47.8316,0.00486616,0.0,0.0
482,120.25,18.702,19.1382,142.359,104.812,104.42,,0.043899,,47.8216,0.0338858,0.0,0.0
484,120.75,18.6469,19.1638,144.144,104.835,104.44,,0.0439307,,47.8016,0.0341211,0.0,0.0
486,121.25,18.8352,19.0267,142.132,104.866,104.649,,0.0439564,,47.8116,0.0187291,0.0,0.0
488,121.75,18.6499,18.8794,146.311,104.898,105.106,,0.0439499,,47.8016,-0.0179862,0.0,0.0
490,122.25,18.7531,18.893,141.295,104.928,104.624,,0.0439447,,47.7916,0.0261832,0.0,0.0
492,122.75,18.6041,19.0859,139.039,104.964,104.554,,0.0438995,,47.7916,0.0354359,0.0,0.0
494,123.25,18.105,19.6188,140.641,104.977,104.641,,,,47.8016,0.0289965,0.0,0.0
496,123.75,18.6395,18.7353,142.035,104.995,104.66,,,,47.7916,0.0289116,0.0,0.0
498,124.25,18.1911,19.0971,142.22,105.027,104.734,,,,47.7816,0.0253198,0.0,0.0
500,124.75,18.569,18.9581,140.684,105.032,104.815,,,,47.7916,0.0186839,0.0,0.0
502,125.25,18.4646,18.9633,140.775,105.053,104.677,,,,47.7916,0.0324086,0.0,0.0
504,125.75,18.3202,19.3067,145.904,105.076,104.991,,,,47.7716,0.00732735,0.0,0.0
506,126.25,17.9361,19.0338,141.749,105.095,105.002,,,,47.7616,0.00804058,0.0,0.0
508,126.75,18.4244,19.116,144.998,105.1,104.997,,,,47.7616,0.00883886,0.0,0.0
510,127.25,18.4265,18.9251,144.618,105.114,105.084,,,,47.7616,0.0025757,0.0,0.0
512,127.75,18.3157,18.9937,141.389,105.123,105.022,,,,47.7816,0.00871713,0.0,0.0
514,128.25,18.478,19.0769,145.53,105.148,104.879,,,,47.7916,0.0231464,0.0,0.0
516,128.75,18.4604,19.082,143.447,105.148,104.789,,,,47.7916,0.0309386,0.0,0.0
518,129.25,18.7346,18.9139,138.059,105.164,104.88,,,,47.7916,0.0244445,0.0,0.0
520,129.75,18.1538,18.8668,141.079,105.156,104.867,,,,47.7916,0.0248778,0.0,0.0
522,130.25,18.2943,18.942,141.347,105.177,104.73,,,,47.7816,0.0385147,0.0,0.0
524,130.75,18.6949,19.046,141.04,105.17,104.804,,,,47.7616,0.0315468,0.0,0.0