File: 01_Data/Window_Screen/Cone/Window_Screen_Cone_HF50Scan_220524_R3.csv
Names,Time,Stack TC,Smoke TC,Exh Press,Smoke Comp,Smoke Meas,CO Meter,CO2 Meter,O2 Meter,Sample Mass,Ext Coeff,Start Test,Flame Verif
Chan Gain,,500,500,1,1,1,1,1,1,1,1,1.0,1.0
Offset,,0,0,0.13752,0,0,0,0,0,0,0,0.0,0.0
Gain,,1,1,25.011,13.8491,15.2622,1,1,1,1.00087,1.03118,1.0,1.0
Units,sec,C,C,Pa,%,%,%,%,%,g,/m,,
Baseline,,35.465,36.7379,137.133,104.761,105.931,0.000680013,0.0439455,20.9996,-450.815,-0.100377,,
2,0.25,34.4288,36.1907,140.878,104.982,105.717,0.00815164,0.0682337,20.9496,562.94,-0.0631373,0.0,0.0
4,0.75,33.6491,35.8104,127.268,104.993,80.6211,0.00990447,0.0827163,20.9287,562.98,2.38922,0.0,0.0
6,1.25,32.4931,34.7451,121.016,104.993,76.8391,0.0113243,0.100369,20.9084,562.76,2.82379,0.0,1.0
8,1.75,32.6544,34.3956,126.552,104.997,81.2648,0.0124944,0.114667,20.892,562.76,2.31765,0.0,1.0
10,2.25,32.8675,34.7873,127.002,104.997,62.0142,0.0134603,0.128715,20.8787,562.71,4.76305,0.0,1.0
12,2.75,33.4421,34.5817,126.978,105.018,64.8438,0.01387,0.140094,20.8679,562.66,4.36129,0.0,1.0
14,3.25,33.9695,34.5701,127.91,105.003,74.6528,0.0142019,0.14408,20.8592,562.63,3.0858,0.0,1.0
16,3.75,34.9548,35.0135,130.012,105.006,92.4976,0.0138768,0.147309,20.8574,562.58,1.14726,0.0,1.0
18,4.25,34.8294,35.6685,132.124,105.006,99.4627,0.0136135,0.146557,20.8607,562.63,0.490562,0.0,1.0
20,4.75,35.2399,35.3406,136.744,105.007,102.803,0.0134002,0.142917,20.8634,562.58,0.191945,0.0,1.0
22,5.25,35.366,35.548,136.184,105.016,103.716,0.0124221,0.134309,20.8692,562.66,0.112662,0.0,1.0
24,5.75,35.2434,35.8552,131.577,105.017,105.147,0.0116299,0.127336,20.8773,562.62,-0.0112041,0.0,1.0
26,6.25,34.3151,34.8426,137.554,105.021,104.827,0.0104782,0.119868,20.8863,562.65,0.0166919,0.0,1.0
28,6.75,33.7128,34.4103,134.426,105.028,105.166,0.00954541,0.112182,20.8959,562.62,-0.0119005,0.0,0.0
30,7.25,33.681,33.9741,137.368,105.034,104.952,0.00878983,0.1047,20.9036,562.64,0.00713233,0.0,0.0
32,7.75,33.3719,34.4183,136.693,105.034,105.098,0.00784943,0.0975093,20.9134,562.62,-0.00554041,0.0,0.0
34,8.25,33.9657,34.4226,134.084,105.04,105.979,0.00699054,0.0916849,20.9213,562.58,-0.0805191,0.0,0.0
36,8.75,31.8745,32.6069,135.909,105.044,105.642,0.0062074,0.0861216,20.9308,562.69,-0.0513672,0.0,0.0
38,9.25,32.2569,32.7319,135.4,105.055,105.654,0.00550276,0.0808542,20.9385,562.91,-0.0514144,0.0,0.0
40,9.75,32.2384,33.0003,135.811,105.054,105.39,0.00486873,0.0765876,20.946,562.71,-0.0289297,0.0,0.0
42,10.25,31.9138,32.6835,136.734,105.064,105.164,0.00435516,0.0724877,20.9521,562.69,-0.00857065,0.0,0.0
44,10.75,32.2045,33.3705,135.732,105.07,105.931,0.00384145,0.0691668,20.957,562.63,-0.0738361,0.0,0.0
46,11.25,32.1499,32.9901,135.534,105.077,106.005,0.00342534,0.0661894,20.9612,562.7,-0.079503,0.0,0.0
48,11.75,31.8163,32.9073,136.912,105.072,106.636,0.00308829,0.0637777,20.9649,562.66,-0.133709,0.0,0.0
50,12.25,32.1844,32.8367,138.379,105.089,105.553,0.00281528,0.0617011,20.9678,562.71,-0.0398502,0.0,0.0
52,12.75,31.5019,33.2007,136.413,105.089,106.025,0.00252346,0.0600191,20.9707,562.68,-0.0802291,0.0,0.0
54,13.25,31.4464,32.8743,138.235,105.102,105.521,0.00228708,0.0586019,20.9736,562.67,-0.0360077,0.0,0.0
56,13.75,32.1481,33.4303,138.873,105.095,106.492,0.00210535,0.057454,20.9762,562.65,-0.119453,0.0,0.0
58,14.25,32.7929,33.4301,134.336,105.106,106.218,0.00195816,0.0565242,20.9784,562.65,-0.0951774,0.0,0.0
60,14.75,32.4144,33.4786,137.902,105.138,105.837,0.00185842,0.0557711,20.9805,562.65,-0.0599064,0.0,0.0
62,15.25,32.5412,33.6564,136.212,105.127,106.079,0.00177763,0.0550653,20.9824,562.62,-0.0816044,0.0,0.0
64,15.75,32.0404,33.6324,139.322,105.11,106.058,0.00172438,0.0544936,20.9839,562.64,-0.0812317,0.0,0.0
66,16.25,32.3575,33.4654,137.768,105.134,106.113,0.00168125,0.0539945,20.9852,562.65,-0.0838085,0.0,0.0
68,16.75,32.6173,33.8286,135.96,105.122,105.945,0.00164952,0.0535579,20.9862,562.64,-0.0704823,0.0,0.0
70,17.25,32.1709,34.0107,135.152,105.133,106.956,0.0016267,0.0531827,20.987,562.68,-0.155573,0.0,0.0
72,17.75,32.8406,33.7468,134.104,105.134,106.152,0.00160823,0.0528593,20.9876,562.69,-0.0871395,0.0,0.0
74,18.25,33.0523,33.9103,139.462,105.168,106.01,0.00159326,0.052547,20.9882,562.69,-0.0721213,0.0,0.0
76,18.75,32.8267,33.9867,138.902,105.139,105.845,0.00158113,0.0522486,20.9886,562.67,-0.0605137,0.0,0.0
78,19.25,32.7232,33.6355,136.372,105.152,106.039,0.00156811,0.0519423,20.989,562.71,-0.0760422,0.0,0.0
80,19.75,32.9547,33.7797,137.053,105.144,105.889,0.00155466,0.0516358,20.9897,562.7,-0.0638551,0.0,0.0
82,20.25,32.5236,33.7546,137.61,105.157,106.353,0.00154634,0.0513876,20.9903,562.73,-0.102273,0.0,0.0
84,20.75,32.7064,33.9147,136.863,105.152,105.63,0.00154192,0.0510499,20.9907,562.72,-0.0410151,0.0,0.0
86,21.25,32.7966,33.7796,137.424,105.171,105.94,0.00154282,0.0507764,20.9911,562.7,-0.0659398,0.0,0.0
88,21.75,32.5796,33.3343,134.972,105.162,106.777,0.00154759,0.0504757,20.9919,562.68,-0.13785,0.0,0.0
90,22.25,32.511,33.6923,138.458,105.183,106.302,0.00155146,0.050161,20.9925,562.65,-0.0957364,0.0,0.0
92,22.75,33.0428,33.6484,136.693,105.158,105.894,0.00155581,0.049906,20.993,562.6,-0.0630559,0.0,0.0
94,23.25,32.6503,33.7219,135.262,105.182,106.478,0.001551,0.0495766,20.9934,562.62,-0.110814,0.0,0.0
96,23.75,32.9309,33.5531,136.415,105.179,105.397,0.00153959,0.0493098,20.9937,562.66,-0.0187998,0.0,0.0
98,24.25,32.6804,34.1455,132.627,105.187,105.648,0.00151175,0.049039,20.9939,562.7,-0.0395886,0.0,0.0
100,24.75,32.7708,33.7387,137.61,105.184,106.125,0.00147247,0.0488197,20.9941,562.71,-0.0805506,0.0,0.0
102,25.25,32.878,33.673,138.021,105.198,106.288,0.00144065,0.0485465,20.9943,562.72,-0.0932717,0.0,0.0
104,25.75,32.2141,34.024,140.058,105.187,105.955,0.00138541,0.0482821,20.9945,562.69,-0.0658312,0.0,0.0
106,26.25,32.7875,34.0739,137.041,105.208,105.664,0.00131416,0.0480291,20.9946,562.68,-0.0391678,0.0,0.0
108,26.75,32.0567,33.9719,134.907,105.214,106.526,0.00125644,0.0478242,20.9947,562.68,-0.112087,0.0,0.0
110,27.25,32.5231,34.1507,133.576,105.217,106.284,0.00117938,0.04759,20.9947,562.67,-0.0912836,0.0,0.0
112,27.75,32.3232,33.8745,133.687,105.209,106.169,0.00111695,0.0474002,20.9948,562.67,-0.082174,0.0,0.0
114,28.25,32.2207,34.1507,136.622,105.223,105.832,0.00106895,0.0472106,20.9948,562.66,-0.0521627,0.0,0.0
116,28.75,32.385,33.4285,137.904,105.212,106.458,0.00103237,0.0470247,20.9946,562.67,-0.106453,0.0,0.0
118,29.25,32.3772,33.8007,140.785,105.239,105.778,0.00101041,0.0468383,20.9948,562.67,-0.0462062,0.0,0.0
120,29.75,32.7323,33.6551,136.351,105.224,106.124,0.000999533,0.0466549,20.9951,562.67,-0.0769796,0.0,0.0
122,30.25,32.4694,33.8297,136.81,105.24,106.174,0.000998401,0.0465063,20.9954,562.65,-0.0799218,0.0,0.0
124,30.75,33.3884,33.9187,137.317,105.227,106.173,0.00100439,0.0463497,20.9956,562.67,-0.0810087,0.0,0.0
126,31.25,32.7148,33.9381,135.474,105.256,105.847,0.00101181,0.0461902,20.9958,562.68,-0.0507188,0.0,0.0
128,31.75,32.4069,34.1638,136.189,105.241,105.375,0.00102012,0.0460609,20.9959,562.67,-0.0114999,0.0,0.0
130,32.25,32.7193,33.8735,135.576,105.247,105.926,0.00102685,0.0459562,20.996,562.68,-0.0581698,0.0,0.0
132,32.75,32.4126,33.5402,138.058,105.234,105.778,0.00102718,0.0458427,20.9961,562.67,-0.0466029,0.0,0.0
134,33.25,32.6358,33.8441,135.358,105.26,105.786,0.00102284,0.0457249,20.9962,562.65,-0.0451403,0.0,0.0
136,33.75,32.5782,33.8001,138.043,105.241,105.769,0.00101485,0.0456295,20.9962,562.65,-0.0453007,0.0,0.0
138,34.25,32.7819,34.1222,136.803,105.267,105.42,0.00100435,0.0456068,20.9963,562.65,-0.0131649,0.0,0.0
140,34.75,32.2365,33.4272,140.275,105.272,106.035,0.000995836,0.0455884,20.9963,562.66,-0.0653652,0.0,0.0
142,35.25,32.5108,34.0077,136.919,105.277,106.195,0.000988943,0.0455663,20.9964,562.65,-0.0785876,0.0,0.0
144,35.75,32.5078,33.7631,134.247,105.27,106.278,0.000955414,0.0455419,20.9963,562.65,-0.0861874,0.0,0.0
146,36.25,32.4927,33.8425,137.25,105.287,105.838,0.000928255,0.0455222,20.9963,562.67,-0.0472348,0.0,0.0
148,36.75,32.6964,33.8297,136.168,105.278,106.251,0.000879545,0.0454653,20.9962,562.66,-0.0831615,0.0,0.0
150,37.25,32.0504,33.8814,142.671,105.293,105.941,0.000840091,0.0454192,20.9962,562.66,-0.0555238,0.0,0.0
152,37.75,32.2695,33.7217,136.429,105.275,105.833,0.000786292,0.0453819,20.9962,562.65,-0.047818,0.0,0.0
154,38.25,32.9434,33.6303,136.139,105.315,106.329,0.000742715,0.0453789,20.9961,562.63,-0.0866229,0.0,0.0
156,38.75,32.5606,33.6669,135.623,105.285,105.901,0.000700396,0.0453765,20.9961,562.61,-0.052789,0.0,0.0
158,39.25,32.7354,33.8611,138.188,105.303,106.072,0.000659799,0.0453337,20.9961,562.62,-0.0658203,0.0,0.0
160,39.75,33.0655,34.0347,135.628,105.301,106.601,0.000626915,0.0452989,20.9961,562.63,-0.111006,0.0,0.0
162,40.25,32.7457,33.6115,140.212,105.316,105.866,0.000603471,0.0452572,20.9961,562.63,-0.047115,0.0,0.0
164,40.75,32.0618,33.7097,138.427,105.293,105.592,0.000587354,0.0452233,20.9961,562.63,-0.0256488,0.0,0.0
166,41.25,32.8054,33.9686,135.015,105.313,105.949,0.000581959,0.0452175,20.9961,562.64,-0.0544899,0.0,0.0
168,41.75,32.1825,34.0313,134.996,105.316,105.944,0.000584484,0.0452321,20.9961,562.63,-0.0537653,0.0,0.0
170,42.25,32.6375,33.8188,138.48,105.312,106.28,0.000593554,0.045244,20.9961,562.62,-0.0827915,0.0,0.0
172,42.75,32.8197,33.5908,139.279,105.313,106.6,0.000607224,0.0452536,20.9961,562.63,-0.109872,0.0,0.0
174,43.25,32.5522,34.3029,134.395,105.323,105.485,0.000624046,0.0452613,20.9961,562.64,-0.0139289,0.0,0.0
176,43.75,32.7863,34.0111,135.682,105.321,105.346,0.000642847,0.0452748,20.9961,562.63,-0.00216064,0.0,0.0
178,44.25,32.8918,33.9783,136.818,105.332,105.775,0.000659993,0.0452922,20.9961,562.64,-0.0379398,0.0,0.0
180,44.75,32.6188,34.0495,134.306,105.324,105.712,0.000675606,0.0453135,20.9961,562.63,-0.0332827,0.0,0.0
182,45.25,32.2953,33.8212,136.661,105.333,106.153,0.000690169,0.0453372,20.9961,562.62,-0.0701514,0.0,0.0
184,45.75,32.9076,34.1818,133.193,105.327,106.16,0.000703692,0.0453635,20.9961,562.62,-0.0712545,0.0,0.0
186,46.25,32.6699,34.1396,135.303,105.34,105.946,0.000714645,0.0453913,20.9961,562.62,-0.0518525,0.0,0.0
188,46.75,32.7865,34.0638,133.828,105.333,106.137,0.000726074,0.0454139,20.9961,562.62,-0.0687225,0.0,0.0
190,47.25,32.9671,33.7635,135.673,105.333,105.758,0.000737631,0.0454321,20.9961,562.61,-0.0364689,0.0,0.0
192,47.75,32.4943,34.1596,137.626,105.342,106.197,0.000746993,0.0454254,20.9961,562.62,-0.0731197,0.0,0.0
194,48.25,32.441,34.4727,138.337,105.335,105.947,0.000760649,0.0454005,20.9961,562.61,-0.052404,0.0,0.0
196,48.75,32.6192,34.2903,138.485,105.347,105.855,0.00077171,0.0453804,20.9961,562.6,-0.0434775,0.0,0.0
198,49.25,32.4411,34.7556,135.312,105.349,106.337,0.000785785,0.0453777,20.9961,562.62,-0.0844316,0.0,0.0
200,49.75,32.7521,34.1377,138.807,105.342,106.27,0.000808611,0.0453755,20.9961,562.61,-0.0793822,0.0,0.0
202,50.25,32.7128,33.8235,138.331,105.349,105.858,0.000817949,0.0453594,20.9961,562.6,-0.0436075,0.0,0.0
204,50.75,32.7053,33.8657,139.651,105.358,105.866,0.000840724,0.0453334,20.9961,562.6,-0.0434889,0.0,0.0
206,51.25,32.881,33.7092,135.992,105.343,106.397,0.000848769,0.0453124,20.9961,562.6,-0.0900529,0.0,0.0
208,51.75,32.9664,34.4074,131.663,105.355,106.606,0.000862527,0.0452817,20.9961,562.61,-0.106759,0.0,0.0
210,52.25,33.2724,33.6121,139.754,105.349,105.876,0.000873671,0.0452569,20.9961,562.6,-0.0450867,0.0,0.0
212,52.75,32.5759,33.6883,133.904,105.353,106.303,0.000882698,0.0452418,20.9961,562.59,-0.0812132,0.0,0.0
214,53.25,32.7507,34.1484,138.875,105.357,106.242,0.000890009,0.0452399,20.9961,562.59,-0.0756969,0.0,0.0
216,53.75,33.0761,34.2271,135.386,105.356,106.445,0.000893501,0.0452352,20.9961,562.59,-0.0930391,0.0,0.0
218,54.25,32.5692,34.1174,136.684,105.357,105.849,0.000896329,0.045234,20.9961,562.59,-0.0421287,0.0,0.0
220,54.75,32.7486,34.4076,138.749,105.364,106.546,0.000885255,0.0452318,20.9961,562.59,-0.100894,0.0,0.0
222,55.25,32.7856,34.4476,137.012,105.372,105.313,0.000876285,0.0452301,20.9961,562.59,0.00507416,0.0,0.0
224,55.75,32.8494,34.1043,134.37,105.364,105.742,0.00084716,0.0452287,20.9961,562.59,-0.032425,0.0,0.0
226,56.25,33.3221,33.7894,137.19,105.356,106.108,0.000823569,0.0452548,20.9961,562.59,-0.0643014,0.0,0.0
228,56.75,32.4326,34.2633,136.091,105.36,105.257,0.000787469,0.045276,20.9961,562.58,0.00881947,0.0,0.0
230,57.25,32.9218,33.7154,136.506,105.36,105.975,0.000758227,0.045225,20.9961,562.58,-0.0525759,0.0,0.0
232,57.75,32.9021,34.2696,136.207,105.36,106.401,0.000734541,0.0451836,20.9961,562.56,-0.0889186,0.0,0.0
234,58.25,32.7246,33.8339,137.06,105.365,105.553,0.000715356,0.0451286,20.9961,562.56,-0.0162026,0.0,0.0
236,58.75,32.3287,33.9567,134.874,105.373,106.11,0.000691254,0.0450646,20.9961,562.56,-0.0629723,0.0,0.0
238,59.25,32.3882,34.1498,140.468,105.362,106.764,0.000671731,0.0449913,20.9961,562.56,-0.11949,0.0,0.0
240,59.75,32.7629,34.2658,137.305,105.373,105.767,0.000667415,0.0449125,20.9961,562.56,-0.0337026,0.0,0.0
242,60.25,33.1833,34.1329,136.529,105.372,105.786,0.000674265,0.0448487,20.9962,562.57,-0.0354837,0.0,0.0
244,60.75,32.3728,34.3432,135.722,105.37,105.993,0.000679814,0.0447826,20.9963,562.58,-0.0533276,0.0,0.0
246,61.25,32.8837,34.0979,137.844,105.352,105.774,0.000703737,0.0447162,20.9964,562.58,-0.0361544,0.0,0.0
248,61.75,33.2796,34.6394,137.872,105.382,105.414,0.000723115,0.0446624,20.9965,562.57,-0.00277221,0.0,0.0
250,62.25,32.6469,34.2159,135.431,105.378,106.136,0.000726666,0.044606,20.9966,562.56,-0.0647967,0.0,0.0
252,62.75,32.7221,34.2477,138.709,105.372,105.877,0.000728181,0.0445602,20.9966,562.57,-0.0432067,0.0,0.0
254,63.25,33.0204,34.197,136.234,105.358,105.161,0.000721187,0.0445232,20.9967,562.58,0.0169642,0.0,0.0
256,63.75,32.9255,34.6281,139.143,105.376,106.213,0.000706898,0.0445614,20.9967,562.58,-0.0715289,0.0,0.0
258,64.25,32.8332,34.1917,134.05,105.365,105.907,0.000680764,0.0445924,20.9968,562.56,-0.0463699,0.0,0.0
260,64.75,32.7346,33.925,131.888,105.375,105.995,0.000659596,0.0446174,20.9968,562.57,-0.0530553,0.0,0.0
262,65.25,32.7408,34.2075,135.633,105.369,106.174,0.000636384,0.0446377,20.9968,562.57,-0.0688491,0.0,0.0
264,65.75,32.4421,33.8506,136.746,105.377,106.241,0.000617582,0.0446392,20.9968,562.56,-0.073872,0.0,0.0
266,66.25,33.0218,34.3669,135.136,105.374,105.513,0.000598523,0.0446418,20.9968,562.56,-0.0119339,0.0,0.0
268,66.75,32.9607,33.9946,144.782,105.381,106.58,0.000579639,0.044651,20.9968,562.56,-0.102293,0.0,0.0
270,67.25,32.8811,34.2005,133.758,105.364,106.59,0.000564342,0.0446649,20.9969,562.56,-0.104654,0.0,0.0
272,67.75,33.1166,34.6595,136.007,105.379,105.576,0.000551314,0.0446762,20.9969,562.54,-0.016848,0.0,0.0
274,68.25,33.2667,33.9865,139.171,105.362,106.404,0.000540186,0.0446853,20.9969,562.56,-0.0890112,0.0,0.0
276,68.75,32.9727,34.34,137.298,105.385,106.152,0.000535039,0.044664,20.9969,562.57,-0.0655689,0.0,0.0
278,69.25,33.0577,34.8677,135.042,105.365,106.129,0.000534349,0.0446209,20.9969,562.56,-0.0654022,0.0,0.0
280,69.75,33.0583,33.4821,134.484,105.395,105.631,0.000533789,0.044586,20.9969,562.55,-0.0202176,0.0,0.0
282,70.25,33.0005,34.1335,139.1,105.377,105.852,0.000533336,0.0445168,20.9968,562.55,-0.040663,0.0,0.0
284,70.75,33.1685,34.2563,137.602,105.382,105.748,0.00053297,0.0444608,20.9967,562.53,-0.0313472,0.0,0.0
286,71.25,33.0849,34.2164,131.625,105.363,106.742,0.000529034,0.0444369,20.9965,562.53,-0.117599,0.0,0.0
288,71.75,33.0666,34.5028,137.576,105.375,106.16,0.000525847,0.0444369,20.9964,562.55,-0.067151,0.0,0.0
290,72.25,32.9118,34.1711,138.762,105.376,105.9,0.00052569,0.044437,20.9964,562.55,-0.0449062,0.0,0.0
292,72.75,32.9734,34.4053,136.16,105.381,105.839,0.000525563,0.0444362,20.9963,562.54,-0.039261,0.0,0.0
294,73.25,33.2598,34.4797,136.783,105.366,106.13,0.000536377,0.0444356,20.9963,562.52,-0.0653327,0.0,0.0
296,73.75,32.5865,34.0669,138.756,105.382,106.132,0.000545137,0.0443806,20.9962,562.51,-0.0641521,0.0,0.0
298,74.25,32.7672,34.3586,134.291,105.385,106.005,0.000552232,0.044336,20.9962,562.5,-0.0530586,0.0,0.0
300,74.75,33.0751,34.1165,137.5,105.379,105.181,0.000577394,0.0442726,20.9962,562.53,0.0170546,0.0,0.0
302,75.25,33.0035,34.0735,138.488,105.358,106.122,0.000597775,0.0442213,20.9961,562.53,-0.0653104,0.0,0.0
304,75.75,33.1799,34.3458,139.352,105.383,105.784,0.000623996,0.0441797,20.9961,562.54,-0.034378,0.0,0.0
306,76.25,33.062,34.5718,136.924,105.363,105.817,0.000645235,0.044146,20.9961,562.52,-0.0389101,0.0,0.0
308,76.75,32.9748,34.4488,134.785,105.369,106.009,0.000661224,0.0441331,20.9961,562.5,-0.0547546,0.0,0.0
310,77.25,33.0239,33.9782,135.583,105.38,106.741,0.000674175,0.0441355,20.9961,562.51,-0.116072,0.0,0.0
312,77.75,32.8011,34.6507,135.18,105.373,106.299,0.000671313,0.0441375,20.9961,562.5,-0.0791908,0.0,0.0
314,78.25,33.4781,34.7367,135.048,105.355,106.168,0.000668995,0.0441527,20.9961,562.5,-0.0695342,0.0,0.0
316,78.75,33.3326,34.1469,135.068,105.365,105.362,0.000647704,0.0441651,20.9961,562.5,0.000216737,0.0,0.0
318,79.25,32.7674,33.6874,136.339,105.363,106.223,0.000630459,0.0441751,20.9961,562.51,-0.073523,0.0,0.0
320,79.75,33.5194,34.5679,136.564,105.378,106.873,0.000607519,0.0441832,20.9961,562.5,-0.127414,0.0,0.0
322,80.25,33.4558,34.6049,137.231,105.352,106.213,0.000580862,0.0441352,20.9961,562.51,-0.0736366,0.0,0.0
324,80.75,32.952,33.9619,137.196,105.365,106.223,0.000559271,0.0440963,20.9961,562.5,-0.0733779,0.0,0.0
326,81.25,32.905,33.8715,136.586,105.351,106.681,0.000541782,0.0440512,20.9961,562.53,-0.113443,0.0,0.0
328,81.75,33.0934,34.6963,139.393,105.35,106.416,0.000527616,0.0440147,20.9961,562.52,-0.0910565,0.0,0.0
330,82.25,33.3871,34.2736,136.999,105.363,106.677,0.000535545,0.0439926,20.9962,562.51,-0.112075,0.0,0.0
332,82.75,32.9203,34.6091,135.69,105.35,106.391,0.000541969,0.0439816,20.9964,562.53,-0.0889181,0.0,0.0
334,83.25,33.2344,34.5789,135.985,105.35,106.628,0.000566585,0.0439727,20.9966,562.51,-0.109013,0.0,0.0
336,83.75,32.8477,34.6478,138.101,105.353,107.079,0.000586524,0.0439655,20.9967,562.54,-0.146965,0.0,0.0
338,84.25,32.8663,34.3105,135.767,105.35,107.009,0.000610342,0.0439668,20.9968,562.53,-0.141351,0.0,0.0
340,84.75,32.8111,34.4341,137.713,105.348,106.038,0.000636536,0.0439744,20.9969,562.53,-0.0590728,0.0,0.0
342,85.25,33.2136,34.4065,135.548,105.338,106.244,0.000663505,0.0439805,20.997,562.51,-0.0774489,0.0,0.0
344,85.75,33.3113,34.5853,136.691,105.335,106.099,0.000690526,0.0439991,20.9971,562.49,-0.065438,0.0,0.0
346,86.25,32.92,34.5682,135.828,105.34,106.549,0.000717529,0.0440141,20.9971,562.5,-0.10328,0.0,0.0
348,86.75,32.8919,34.4171,139.59,105.332,106.012,0.000744003,0.0440048,20.9972,562.48,-0.0582224,0.0,0.0
350,87.25,33.2354,34.628,136.137,105.336,106.13,0.000768646,0.0439778,20.9972,562.49,-0.0678729,0.0,0.0
352,87.75,33.1496,34.4839,134.815,105.323,105.856,0.000791484,0.0439704,20.9977,562.48,-0.0456654,0.0,0.0
354,88.25,32.9135,34.3411,136.751,105.325,105.721,0.000809983,0.0439772,20.998,562.46,-0.0338947,0.0,0.0
356,88.75,33.2348,34.231,138.42,105.313,106.571,0.000817933,0.0439756,20.9983,562.47,-0.107349,0.0,0.0
358,89.25,33.1628,34.479,137.619,105.333,106.108,0.000818042,0.0439678,20.9986,562.45,-0.0662972,0.0,0.0
360,89.75,33.2379,34.2657,138.487,105.313,106.657,0.000802155,0.0439472,20.9988,562.45,-0.114735,0.0,0.0
362,90.25,33.0987,34.3549,138.023,105.321,106.741,0.000774909,0.0439176,20.9989,562.44,-0.12115,0.0,0.0
364,90.75,33.1008,34.5296,137.691,105.309,105.885,0.000736239,0.0438936,20.9991,562.46,-0.0493672,0.0,0.0
366,91.25,32.9687,34.4008,134.101,105.314,106.13,0.000689976,0.0438468,20.9992,562.45,-0.0697608,0.0,0.0
368,91.75,32.719,34.5163,140.877,105.299,106.534,0.000652503,0.043809,20.9993,562.46,-0.105495,0.0,0.0
370,92.25,32.8052,34.2975,138.549,105.313,105.44,0.000597906,0.0437712,20.9993,562.47,-0.0108899,0.0,0.0
372,92.75,32.8662,34.3059,136.243,105.303,106.048,0.000553683,0.0437341,20.9994,562.49,-0.0637509,0.0,0.0
374,93.25,32.8294,34.3667,138.072,105.303,106.209,0.00051665,0.0437256,20.9994,562.48,-0.0775261,0.0,0.0
376,93.75,33.1309,34.4621,136.959,105.297,106.759,0.000486654,0.043738,20.9995,562.48,-0.124725,0.0,0.0
378,94.25,33.4736,34.4876,135.786,105.297,106.461,0.000467204,0.0437481,20.9995,562.48,-0.0995057,0.0,0.0
380,94.75,33.0277,34.1007,139.023,105.289,106.583,0.00045145,0.0437291,20.9995,562.48,-0.110522,0.0,0.0
382,95.25,32.8452,34.4141,133.831,105.294,106.41,0.000438688,0.0437136,20.9995,562.46,-0.095409,0.0,0.0
384,95.75,32.9394,34.5621,136.395,105.279,106.176,0.000428352,0.0436874,20.9996,562.45,-0.0767398,0.0,0.0
386,96.25,33.6137,34.5272,137.95,105.284,106.056,0.000419979,0.0436662,20.9996,562.45,-0.0661033,0.0,0.0
388,96.75,33.0781,34.5878,134.873,105.266,106.366,0.000408578,0.0436627,20.9996,562.45,-0.0940796,0.0,0.0
390,97.25,33.0752,34.5701,138.41,105.27,106.664,0.00040551,0.0436599,20.9996,562.45,-0.118991,0.0,0.0
392,97.75,32.7394,34.457,132.041,105.256,105.957,0.000401478,0.0436432,20.9996,562.46,-0.0599954,0.0,0.0
394,98.25,33.099,34.3896,132.53,105.27,106.6,0.000398211,0.0436168,20.9996,562.45,-0.113542,0.0,0.0
396,98.75,33.516,34.6426,136.747,105.252,106.467,0.000400414,0.0435954,20.9996,562.46,-0.103794,0.0,0.0
398,99.25,32.9087,34.024,134.833,105.261,105.895,0.000402198,0.0435917,20.9996,562.45,-0.0543814,0.0,0.0
400,99.75,33.3264,34.9365,134.603,105.245,105.66,0.000409703,0.0435887,20.9996,562.46,-0.0355758,0.0,0.0
402,100.25,33.1762,34.8675,137.728,105.256,106.322,0.000415783,0.0435863,20.9996,562.47,-0.091148,0.0,0.0
404,100.75,33.1516,34.6194,139.45,105.234,106.664,0.000427089,0.0435843,20.9996,562.47,-0.122155,0.0,0.0
406,101.25,33.3854,34.5273,136.641,105.252,106.484,0.000441989,0.0435963,20.9996,562.49,-0.105218,0.0,0.0
408,101.75,33.3963,34.6161,135.658,105.228,106.169,0.000454059,0.0436061,20.9996,562.47,-0.080506,0.0,0.0
410,102.25,33.6906,34.7029,136.676,105.25,106.239,0.00046958,0.0436413,20.9996,562.43,-0.0845639,0.0,0.0
412,102.75,32.7437,34.9612,136.057,105.231,106.346,0.000487323,0.0436698,20.9996,562.45,-0.095318,0.0,0.0
414,103.25,32.9447,34.4895,133.755,105.237,106.508,0.00050808,0.0436713,20.9996,562.43,-0.108546,0.0,0.0
416,103.75,33.4643,34.708,139.433,105.202,106.488,0.000530641,0.0436532,20.9996,562.42,-0.109861,0.0,0.0
418,104.25,33.1196,34.9492,141.129,105.221,106.787,0.000548915,0.0436385,20.9992,562.43,-0.133591,0.0,0.0
420,104.75,32.8575,34.5855,137.426,105.206,106.7,0.000585443,0.0435857,20.9988,562.43,-0.127517,0.0,0.0
422,105.25,33.063,34.7861,135.133,105.211,105.717,0.000634585,0.043543,20.9988,562.44,-0.0434212,0.0,0.0
424,105.75,32.9618,34.2136,137.377,105.21,105.731,0.000684622,0.0435298,20.9988,562.44,-0.0447264,0.0,0.0
426,106.25,32.8933,34.3419,133.596,105.194,106.029,0.000734362,0.0435386,20.9987,562.44,-0.0714963,0.0,0.0
428,106.75,33.2047,34.6004,138.607,105.182,106.294,0.00078297,0.0435457,20.9987,562.44,-0.0950924,0.0,0.0
430,107.25,33.318,35.1145,142.302,105.197,106.088,0.000829828,0.0435514,20.9987,562.46,-0.0763238,0.0,0.0
432,107.75,33.0242,34.8284,133.318,105.174,107.327,0.000869704,0.0435424,20.9987,562.45,-0.183235,0.0,0.0
434,108.25,33.0908,34.389,131.847,105.193,106.721,0.000903731,0.0435352,20.9987,562.47,-0.130457,0.0,0.0
436,108.75,33.2903,33.9845,138.394,105.171,106.397,0.000931294,0.0435157,20.9987,562.46,-0.104757,0.0,0.0
438,109.25,33.0265,34.4613,137.074,105.18,106.667,0.0009453,0.0435142,20.9987,562.46,-0.12697,0.0,0.0
440,109.75,32.4707,34.438,135.733,105.155,106.322,0.000949158,0.0435259,20.9987,562.47,-0.0998001,0.0,0.0
442,110.25,33.472,34.5701,132.751,105.152,106.457,0.000941409,0.0435282,20.9987,562.46,-0.111575,0.0,0.0
444,110.75,32.8238,34.6599,136.353,105.136,106.546,0.000925347,0.0435237,20.9987,562.45,-0.120548,0.0,0.0
446,111.25,33.4634,34.7342,137.209,105.146,106.832,0.000912336,0.04352,20.9986,562.41,-0.143883,0.0,0.0
448,111.75,32.9904,34.7918,138.386,105.122,106.484,0.000884793,0.0434897,20.9986,562.42,-0.116416,0.0,0.0
450,112.25,33.4726,34.9175,137.634,105.142,106.814,0.000862483,0.0434652,20.9986,562.41,-0.142711,0.0,0.0
452,112.75,32.626,34.3109,134.056,105.111,106.692,0.000843773,0.0434525,20.9986,562.41,-0.13499,0.0,0.0
454,113.25,33.9464,34.5006,133.61,105.12,105.963,0.000828043,0.0434487,20.9986,562.41,-0.0722909,0.0,0.0
456,113.75,33.3208,34.6022,139.726,105.099,106.207,0.000822333,0.0434456,20.9986,562.4,-0.0948837,0.0,0.0
458,114.25,33.5488,34.92,137.637,105.109,106.255,0.000824037,0.043484,20.9986,562.39,-0.0981316,0.0,0.0
460,114.75,33.1705,34.4281,136.445,105.087,106.833,0.000835649,0.0435151,20.9986,562.42,-0.14906,0.0,0.0
462,115.25,33.5808,34.5137,137.617,105.087,106.248,0.000854263,0.0434994,20.9986,562.41,-0.0994283,0.0,0.0
464,115.75,33.3273,34.4015,136.455,105.07,106.521,0.000869341,0.0434867,20.9986,562.42,-0.124087,0.0,0.0
466,116.25,33.7319,35.2665,132.379,105.072,106.465,0.000889231,0.0434692,20.9986,562.44,-0.119122,0.0,0.0
468,116.75,33.6829,34.4611,136.463,105.059,106.45,,0.0434486,,562.4,-0.118944,0.0,0.0
470,117.25,33.5569,35.0257,138.994,105.052,105.53,,0.0434319,,562.39,-0.04106,0.0,0.0
472,117.75,33.2334,34.2807,134.597,105.046,106.368,,0.0434047,,562.37,-0.113103,0.0,0.0
474,118.25,33.5667,34.2698,134.426,105.054,106.191,,0.0433827,,562.4,-0.0974241,0.0,0.0
476,118.75,32.9404,34.7028,139.617,105.031,105.601,,0.0434008,,562.41,-0.0489856,0.0,0.0
478,119.25,33.5585,35.0348,135.164,105.018,105.785,,0.0434477,,562.42,-0.0657829,0.0,0.0
480,119.75,33.6691,35.0193,136.396,105.013,105.956,,,,562.44,-0.0809004,0.0,0.0
482,120.25,33.3551,34.3002,137.168,105.021,106.136,,,,562.43,-0.0955447,0.0,0.0
484,120.75,33.4331,34.4322,134.547,104.994,106.461,,,,562.42,-0.125539,0.0,0.0
486,121.25,33.9182,34.2923,137.741,104.992,106.233,,,,562.41,-0.106273,0.0,0.0
488,121.75,33.3037,34.5928,139.189,104.993,106.068,,,,562.43,-0.0921098,0.0,0.0
490,122.25,33.2502,34.5513,136.457,104.981,105.324,,,,562.43,-0.029549,0.0,0.0
492,122.75,33.4004,34.7329,138.269,104.96,106.565,,,,562.42,-0.137233,0.0,0.0
494,123.25,34.1454,34.8331,135.604,104.945,106.157,,,,562.43,-0.103845,0.0,0.0
496,123.75,33.4889,34.9278,136.261,104.94,106.166,,,,562.42,-0.105116,0.0,0.0
498,124.25,33.747,35.1301,136.589,104.931,105.935,,,,562.4,-0.0861362,0.0,0.0
500,124.75,33.5442,34.4517,135.754,104.927,106.376,,,,562.41,-0.124088,0.0,0.0
502,125.25,33.3765,34.9147,135.39,104.911,106.02,,,,562.41,-0.09516,0.0,0.0
504,125.75,33.5196,34.7738,137.286,104.905,106.182,,,,562.41,-0.109449,0.0,0.0
506,126.25,33.2611,34.6614,135.859,104.891,106.287,,,,562.42,-0.119575,0.0,0.0
508,126.75,33.6737,35.0208,138.588,104.887,105.904,,,,562.41,-0.0873376,0.0,0.0
510,127.25,33.6529,34.8754,138.034,104.871,106.037,,,,562.41,-0.10002,0.0,0.0
511,127.5,33.2651,34.6337,138.088,104.86,106.084,,,,562.4,-0.104937,0.0,0.0