File: 01_Data/Window_Screen/Cone/Window_Screen_Cone_HF25Scan_220524_R2.csv
Names,Time,Stack TC,Smoke TC,Exh Press,Smoke Comp,Smoke Meas,CO Meter,CO2 Meter,O2 Meter,Sample Mass,Ext Coeff,Start Test,Flame Verif
Chan Gain,,500,500,1,1,1,1,1,1,1,1,1.0,1.0
Offset,,0,0,0.13752,0,0,0,0,0,0,0,0.0,0.0
Gain,,1,1,25.011,13.8491,15.2622,1,1,1,1.00087,1.03118,1.0,1.0
Units,sec,C,C,Pa,%,%,%,%,%,g,/m,,
Baseline,,24.8269,25.4177,143.164,105.161,105.154,0.000712645,0.0431229,21.0008,-450.244,0.000626873,,
2,0.25,23.7804,24.4267,140.49,104.719,104.614,0.00146801,0.0520489,20.9915,575.661,0.00909417,0.0,0.0
4,0.75,23.8398,24.3234,143.012,104.698,104.537,0.00205202,0.05427,20.991,575.601,0.0138747,0.0,0.0
6,1.25,22.6004,22.935,143.321,104.686,104.487,0.00279004,0.0560691,20.9866,575.641,0.0172429,0.0,0.0
8,1.75,22.2544,23.0025,142.08,104.673,103.57,0.00362613,0.0604067,20.9831,575.531,0.0957763,0.0,0.0
10,2.25,22.0839,22.5082,135.232,104.647,97.6494,0.00451783,0.0665124,20.9702,575.521,0.625984,0.0,1.0
12,2.75,21.5944,22.6881,136.446,104.637,96.105,0.00538536,0.071458,20.9598,575.421,0.769392,0.0,1.0
14,3.25,22.3822,23.232,133.72,104.615,96.7435,0.00621881,0.0788668,20.9453,575.451,0.707553,0.0,1.0
16,3.75,22.3959,23.1424,135.297,104.607,94.7431,0.00692066,0.0879304,20.9335,575.431,0.895898,0.0,1.0
18,4.25,22.4172,22.9418,134.672,104.568,93.9154,0.00751325,0.0958684,20.9239,575.401,0.971866,0.0,1.0
20,4.75,22.6261,23.6323,134.973,104.54,92.9108,0.00791439,0.102835,20.9162,575.371,1.06677,0.0,1.0
22,5.25,22.8853,23.3079,136.105,104.532,89.8963,0.00816834,0.10777,20.91,575.371,1.36438,0.0,1.0
24,5.75,23.7618,23.5598,139.305,104.506,92.2768,0.00837404,0.11113,20.9049,575.381,1.12574,0.0,1.0
26,6.25,23.8729,23.5858,139.297,104.507,96.5265,0.00833426,0.113851,20.9008,575.341,0.718582,0.0,1.0
28,6.75,23.9699,23.4427,141.83,104.466,98.03,0.00811628,0.113379,20.9014,575.361,0.575227,0.0,1.0
30,7.25,23.1207,22.6316,139.536,104.459,99.9363,0.00779301,0.112997,20.9018,575.331,0.400351,0.0,1.0
32,7.75,22.6561,22.284,140.179,104.444,100.1,0.00739912,0.109877,20.9062,575.351,0.384242,0.0,0.0
34,8.25,22.7893,22.2457,139.747,104.417,99.9662,0.00708007,0.107349,20.9096,575.331,0.394066,0.0,0.0
36,8.75,22.791,22.2443,137.133,104.393,101.929,0.00651773,0.103723,20.9145,575.331,0.215987,0.0,0.0
38,9.25,22.9039,22.5106,137.831,104.387,102.468,0.00606223,0.0993647,20.9204,575.331,0.167814,0.0,0.0
40,9.75,22.4991,22.8878,141.135,104.353,102.922,0.00550596,0.0946435,20.9274,575.321,0.124925,0.0,0.0
42,10.25,22.7595,22.6228,140.628,104.334,103.289,0.00505538,0.0897472,20.9351,575.331,0.0909993,0.0,0.0
44,10.75,22.427,22.4725,145.481,104.31,103.696,0.00451504,0.0851372,20.9423,575.321,0.0534497,0.0,0.0
46,11.25,23.1104,22.541,140.848,104.29,103.921,0.00407736,0.0808235,20.9489,575.321,0.0320841,0.0,0.0
48,11.75,22.75,22.1105,142.661,104.274,103.956,0.00362876,0.0773293,20.955,575.331,0.0276142,0.0,0.0
50,12.25,21.6194,21.3794,144.35,104.25,103.847,0.00326539,0.07358,20.9606,575.351,0.0350857,0.0,0.0
52,12.75,21.2479,21.3025,145.153,104.226,103.83,0.00297107,0.070543,20.965,575.341,0.0344595,0.0,0.0
54,13.25,20.9133,21.1168,142.568,104.204,104.27,0.00268266,0.0675626,20.9689,575.231,-0.00574865,0.0,0.0
56,13.75,21.1885,21.3601,140.621,104.191,104.408,0.00244905,0.0651484,20.9722,575.141,-0.0187647,0.0,0.0
58,14.25,20.7012,21.1173,143.501,104.177,103.812,0.00224765,0.0629409,20.9754,575.491,0.0317456,0.0,0.0
60,14.75,20.573,20.9983,142.69,104.152,103.763,0.00208451,0.0609259,20.9784,575.211,0.0339202,0.0,0.0
62,15.25,20.7175,21.3493,139.478,104.134,103.882,0.00194019,0.0592938,20.981,575.421,0.0218761,0.0,0.0
64,15.75,21.415,21.3649,139.292,104.117,104.064,0.00182329,0.0576026,20.9833,575.281,0.00460427,0.0,0.0
66,16.25,20.9047,21.3344,143.472,104.099,104.037,0.0017152,0.0562328,20.9852,575.351,0.00537376,0.0,0.0
68,16.75,21.5618,21.5588,142.935,104.081,103.878,0.00162765,0.0550441,20.9868,575.321,0.0177283,0.0,0.0
70,17.25,21.3885,21.8319,139.98,104.048,104.319,0.00154969,0.05401,20.988,575.321,-0.0235014,0.0,0.0
72,17.75,20.3361,21.351,142.922,104.045,103.663,0.0014802,0.053194,20.989,575.351,0.0332444,0.0,0.0
74,18.25,21.3407,21.8586,146.174,104.024,103.551,0.00141943,0.0525525,20.9899,575.321,0.041248,0.0,0.0
76,18.75,21.6322,21.1219,136.495,104.008,104.562,0.00136617,0.0521148,20.9905,575.351,-0.0480901,0.0,0.0
78,19.25,21.1331,21.9942,146.482,103.981,103.843,0.00132304,0.0517603,20.9911,575.291,0.0120237,0.0,0.0
80,19.75,21.2226,21.4306,142.828,103.975,104.06,0.00128809,0.0515091,20.9915,575.341,-0.007377,0.0,0.0
82,20.25,21.3592,21.9575,143.997,103.917,103.792,0.00125467,0.051338,20.9918,575.281,0.0108165,0.0,0.0
84,20.75,21.2733,22.0188,142.611,103.934,103.534,0.00122298,0.0511779,20.9918,575.321,0.0349181,0.0,0.0
86,21.25,21.4198,21.2801,140.536,103.904,104.072,0.00119732,0.0510287,20.9918,575.291,-0.0145726,0.0,0.0
88,21.75,21.3879,21.8753,144.563,103.902,103.458,0.00116194,0.0509079,20.9917,575.301,0.0387166,0.0,0.0
90,22.25,21.1765,21.702,140.595,103.885,103.743,0.00113328,0.0508101,20.9917,575.311,0.0124383,0.0,0.0
92,22.75,20.8778,21.7982,144.07,103.865,103.447,0.00109912,0.0505726,20.9917,575.321,0.036497,0.0,0.0
94,23.25,21.1167,21.7591,143.185,103.847,103.638,0.00107146,0.0502378,20.9917,575.321,0.0182265,0.0,0.0
96,23.75,21.2182,21.7846,141.327,103.831,103.864,0.00102961,0.0499667,20.9923,575.321,-0.00286659,0.0,0.0
98,24.25,21.1513,21.7224,142.215,103.807,103.541,0.000995706,0.0494876,20.9935,575.321,0.0232292,0.0,0.0
100,24.75,21.366,22.0083,145.088,103.802,103.744,0.000946387,0.0490996,20.9945,575.321,0.00498686,0.0,0.0
102,25.25,21.6226,21.1867,142.793,103.782,103.46,0.000906439,0.0485668,20.9952,575.321,0.0281022,0.0,0.0
104,25.75,21.2146,21.816,143.35,103.764,103.844,0.000847381,0.0481353,20.9958,575.311,-0.00693832,0.0,0.0
106,26.25,21.1453,21.6981,143.194,103.743,103.506,0.000799544,0.0475948,20.9963,575.321,0.0207196,0.0,0.0
108,26.75,21.3514,21.3347,141.994,103.731,103.551,0.000760795,0.0471569,20.9967,575.321,0.0157436,0.0,0.0
110,27.25,21.3852,22.1687,142.786,103.715,103.292,0.000699092,0.0467233,20.9971,575.321,0.0369148,0.0,0.0
112,27.75,21.5482,21.9263,142.686,103.705,103.669,0.000649113,0.046301,20.9973,575.301,0.00312654,0.0,0.0
114,28.25,21.7299,21.3806,144.796,103.689,103.52,0.000603782,0.0459015,20.9978,575.311,0.0147015,0.0,0.0
116,28.75,21.202,21.3144,141.88,103.682,103.798,0.000567064,0.0455263,20.9984,575.301,-0.0101482,0.0,0.0
118,29.25,21.2964,22.2954,147.118,103.654,103.813,0.000542426,0.0452223,20.9988,575.321,-0.0138809,0.0,0.0
120,29.75,21.1352,21.4876,141.254,103.655,103.487,0.000527063,0.0448534,20.9992,575.311,0.0146046,0.0,0.0
122,30.25,21.0882,21.3084,142.597,103.635,103.168,0.000532493,0.0445546,20.9995,575.301,0.0408423,0.0,0.0
124,30.75,21.0186,21.6702,147.555,103.635,103.478,0.000552978,0.0442839,20.9997,575.301,0.0137638,0.0,0.0
126,31.25,21.3127,21.6346,139.69,103.597,103.308,0.000569571,0.0440387,20.9999,575.301,0.0252746,0.0,0.0
128,31.75,20.9074,21.5895,141.783,103.596,103.315,0.000625508,0.043833,21.0001,575.301,0.0245488,0.0,0.0
130,32.25,21.3869,21.7969,141.862,103.573,103.335,0.000670817,0.0436599,21.0002,575.311,0.0208057,0.0,0.0
132,32.75,21.3158,21.9718,140.828,103.573,103.395,0.000741551,0.0435197,21.0003,575.311,0.0156252,0.0,0.0
134,33.25,21.4294,21.5099,141.516,103.544,103.128,0.000798845,0.0433653,21.0004,575.301,0.0364164,0.0,0.0
136,33.75,21.1126,21.7641,144.137,103.557,103.703,0.000859338,0.0432401,21.0005,575.311,-0.0127448,0.0,0.0
138,34.25,21.095,21.622,141.781,103.516,103.365,0.000921016,0.0431252,21.0005,575.311,0.0131759,0.0,0.0
140,34.75,21.3352,21.6936,142.212,103.524,103.648,0.000971615,0.043032,21.0006,575.311,-0.0108294,0.0,0.0
142,35.25,20.8463,21.3005,141.227,103.498,103.562,0.00101318,0.0429566,21.0006,575.311,-0.00564076,0.0,0.0
144,35.75,21.4188,22.1339,141.191,103.499,103.864,0.00103788,0.0428955,21.0006,575.321,-0.0318904,0.0,0.0
146,36.25,21.2817,21.7616,142.567,103.486,103.449,0.00104981,0.0428317,21.0007,575.301,0.00325266,0.0,0.0
148,36.75,21.078,21.9072,144.334,103.482,103.382,0.00105948,0.0427671,21.0007,575.311,0.00871282,0.0,0.0
150,37.25,21.1677,22.0864,140.655,103.466,103.573,0.00103935,0.0427147,21.0007,575.311,-0.00931002,0.0,0.0
152,37.75,20.9355,21.4778,143.81,103.471,103.595,0.00100833,0.0426178,21.0007,575.311,-0.0108526,0.0,0.0
154,38.25,21.2601,21.3558,142.449,103.443,103.406,0.000988144,0.0425393,21.0007,575.311,0.00327206,0.0,0.0
156,38.75,21.6114,21.9941,145.122,103.451,103.288,0.00095362,0.0425166,21.0007,575.301,0.014329,0.0,0.0
158,39.25,20.8497,21.3526,141.384,103.438,103.135,0.000900159,0.0424982,21.0007,575.301,0.0264939,0.0,0.0
160,39.75,21.3495,22.0632,142.177,103.425,103.37,0.000856856,0.0424561,21.0007,575.311,0.00481658,0.0,0.0
162,40.25,21.373,21.5659,141.787,103.409,103.522,0.00082178,0.0423933,21.0008,575.311,-0.00986108,0.0,0.0
164,40.75,21.0982,21.525,141.781,103.417,103.144,0.000760614,0.0423166,21.0008,575.301,0.0239444,0.0,0.0
166,41.25,21.1189,21.614,142.719,103.398,103.392,0.00071107,0.0422839,21.0008,575.311,0.000502476,0.0,0.0
168,41.75,21.3713,21.0811,143.986,103.405,103.102,0.000662452,0.0422552,21.0008,575.311,0.0265531,0.0,0.0
170,42.25,21.1512,21.7814,145.476,103.393,102.855,0.000623071,0.042232,21.0008,575.311,0.0471637,0.0,0.0
172,42.75,21.0234,21.6917,144.012,103.392,103.157,0.000591173,0.0422203,21.0008,575.311,0.0205819,0.0,0.0
174,43.25,21.5589,21.5787,141.439,103.39,103.205,0.000562783,0.0422173,21.0008,575.321,0.0162279,0.0,0.0
176,43.75,21.07,21.9585,143.397,103.384,102.62,0.000537491,0.0422149,21.0013,575.311,0.067171,0.0,0.0
178,44.25,20.8449,21.9385,142.165,103.369,103.18,0.000520833,0.0421843,21.0018,575.301,0.0165444,0.0,0.0
180,44.75,21.1076,21.7486,144.799,103.372,103.359,0.000510785,0.0421337,21.0021,575.301,0.00113646,0.0,0.0
182,45.25,21.2007,21.9525,140.425,103.382,103.193,0.00051222,0.0420927,21.0024,575.301,0.0165509,0.0,0.0
184,45.75,20.9564,21.5975,144.059,103.385,103.281,0.000521998,0.0420594,21.0027,575.321,0.00909632,0.0,0.0
186,46.25,20.7046,21.8879,141.164,103.359,103.402,0.000544608,0.0420189,21.0029,575.341,-0.0037549,0.0,0.0
188,46.75,20.7622,21.6023,145.116,103.373,102.79,0.000576143,0.0419861,21.003,575.341,0.0511994,0.0,0.0
190,47.25,20.8964,21.3431,145.395,103.36,102.997,0.000601685,0.0419322,21.0032,575.371,0.0318283,0.0,0.0
192,47.75,20.6772,21.575,144.222,103.361,102.958,0.000629404,0.0418886,21.0033,575.351,0.0353424,0.0,0.0
194,48.25,20.8037,21.6848,142.194,103.354,103.061,0.000658183,0.0418942,21.0038,575.341,0.0257488,0.0,0.0
196,48.75,20.836,21.7109,141.319,103.363,103.066,0.000681494,0.0418987,21.0042,575.331,0.0260026,0.0,0.0
198,49.25,20.5878,21.5191,141.55,103.354,103.179,0.000699161,0.0419023,21.0046,575.321,0.0153388,0.0,0.0
200,49.75,21.1518,22.0266,142.53,103.352,102.949,0.000713471,0.0419052,21.0048,575.301,0.0353435,0.0,0.0
202,50.25,21.0356,21.5475,140.076,103.357,103.118,0.000722634,0.0419291,21.0048,575.291,0.0209445,0.0,0.0
204,50.75,20.9025,21.8154,143.368,103.349,102.939,0.000730056,0.0419679,21.0046,575.301,0.0359439,0.0,0.0
206,51.25,20.8394,21.7691,147.29,103.351,103.039,0.000742139,0.0419992,21.0044,575.301,0.0273336,0.0,0.0
208,51.75,21.1384,21.4984,141.705,103.345,103.206,0.000751927,0.042011,21.0043,575.311,0.012112,0.0,0.0
210,52.25,20.55,21.6166,144.611,103.349,102.767,0.00076586,0.0420206,21.0042,575.341,0.0510214,0.0,0.0
212,52.75,20.8976,21.894,141.68,103.344,102.986,0.000777146,0.0420419,21.0043,575.321,0.0314447,0.0,0.0
214,53.25,20.5984,21.2487,141.516,103.355,103.009,0.000786288,0.0420592,21.0043,575.311,0.0303626,0.0,0.0
216,53.75,20.9637,22.1483,141.813,103.357,103.11,0.000793692,0.0420868,21.0044,575.311,0.021676,0.0,0.0
218,54.25,21.0988,21.8127,142.871,103.347,103.017,0.00079969,0.0421092,21.0044,575.321,0.0289235,0.0,0.0
220,54.75,20.5229,21.3541,141.758,103.338,102.83,0.000796878,0.0421493,21.0044,575.331,0.0445685,0.0,0.0
222,55.25,21.3143,21.8412,143.47,103.332,102.953,0.000787697,0.0422015,21.0049,575.341,0.0332359,0.0,0.0
224,55.75,21.5231,21.9999,140.245,103.329,103.582,0.000777066,0.0422438,21.0053,575.321,-0.0221766,0.0,0.0
226,56.25,20.7581,21.5617,139.414,103.335,103.38,0.000765579,0.042278,21.0056,575.321,-0.00391132,0.0,0.0
228,56.75,20.835,21.5687,143.112,103.332,103.197,0.000757553,0.0423057,21.0058,575.291,0.0118191,0.0,0.0
230,57.25,21.3491,21.6726,142.547,103.34,103.04,0.000752202,0.0423282,21.006,575.291,0.0262531,0.0,0.0
232,57.75,21.4891,21.4162,142.489,103.325,103.281,0.000747867,0.0423464,21.0062,575.301,0.00384011,0.0,0.0
234,58.25,20.5649,21.6921,139.88,103.331,103.127,0.000744356,0.0423611,21.0063,575.331,0.0178338,0.0,0.0
236,58.75,21.2044,21.0995,143.041,103.333,103.573,0.000738956,0.0424003,21.0064,575.321,-0.0209931,0.0,0.0
238,59.25,20.4877,21.5922,142.119,103.327,103.315,0.000732282,0.0424321,21.0065,575.331,0.00108902,0.0,0.0
240,59.75,20.7163,22.0924,142.607,103.325,103.274,0.000722404,0.0424578,21.0066,575.361,0.00449649,0.0,0.0
242,60.25,20.6573,21.1041,140.188,103.344,103.06,0.000710379,0.0424643,21.0066,575.351,0.0249015,0.0,0.0
244,60.75,20.6158,21.7765,142.273,103.341,102.863,0.000700638,0.0424566,21.0067,575.341,0.0419146,0.0,0.0
246,61.25,21.3273,21.6782,143.806,103.328,102.935,0.000688916,0.0424432,21.0067,575.311,0.0344219,0.0,0.0
248,61.75,20.8571,21.6485,144.099,103.319,102.983,0.000675972,0.0424259,21.0067,575.311,0.0294705,0.0,0.0
250,62.25,21.0971,21.8596,139.078,103.333,103.573,0.000671875,0.0424119,21.0068,575.331,-0.0209563,0.0,0.0
252,62.75,21.1254,21.5143,143.124,103.33,103.264,0.000674305,0.0424278,21.0063,575.341,0.00583391,0.0,0.0
254,63.25,20.905,21.2757,144.135,103.33,103.147,0.000676273,0.0424407,21.006,575.311,0.0160805,0.0,0.0
256,63.75,20.647,21.1073,142.632,103.325,103.214,0.000699722,0.0424512,21.0057,575.311,0.0097157,0.0,0.0
258,64.25,20.9996,21.63,145.351,103.337,103.197,0.000718716,0.0424596,21.0055,575.311,0.012266,0.0,0.0
260,64.75,21.1631,21.2937,140.089,103.325,103.305,0.00073653,0.0424665,21.0053,575.301,0.00180059,0.0,0.0
262,65.25,20.4434,21.4994,142.632,103.33,103.301,0.000750959,0.0424993,21.005,575.291,0.00257139,0.0,0.0
264,65.75,20.7318,21.5309,144.29,103.322,103.077,0.000762646,0.0425259,21.0044,575.301,0.0214286,0.0,0.0
266,66.25,20.9407,21.4374,144.755,103.329,102.874,0.000756139,0.0425474,21.004,575.291,0.0398589,0.0,0.0
268,66.75,21.1221,21.4623,143.389,103.32,102.906,0.00073649,0.0425648,21.0035,575.291,0.0362972,0.0,0.0
270,67.25,21.0086,21.1833,143.576,103.329,103.172,0.000709719,0.0425718,21.0031,575.281,0.0137229,0.0,0.0
272,67.75,20.96,21.759,138.844,103.317,102.917,0.000678266,0.0425709,21.0028,575.291,0.0350932,0.0,0.0
274,68.25,20.9594,21.1797,146.933,103.335,103.027,0.000652788,0.0425703,21.0025,575.281,0.0270326,0.0,0.0
276,68.75,20.9072,21.2718,140.96,103.322,103.886,0.000607902,0.0425912,21.0025,575.291,-0.0492864,0.0,0.0
278,69.25,20.7677,21.6184,140.215,103.334,103.173,0.000571544,0.0426276,21.0028,575.301,0.014048,0.0,0.0
280,69.75,20.8603,21.6442,144.58,103.315,103.377,0.000532398,0.042657,21.0029,575.291,-0.0054843,0.0,0.0
282,70.25,21.0868,21.5637,140.869,103.333,103.203,0.00050069,0.0426809,21.0027,575.301,0.0113657,0.0,0.0
284,70.75,21.5236,22.0383,142.399,103.315,103.295,0.000467737,0.0427002,21.0024,575.291,0.00177256,0.0,0.0
286,71.25,21.1611,21.4573,144.237,103.33,103.074,0.000441045,0.0426886,21.0027,575.291,0.0224591,0.0,0.0
288,71.75,21.0982,21.9244,147.684,103.317,103.203,0.000423059,0.0426792,21.0029,575.291,0.00999576,0.0,0.0
290,72.25,20.6543,21.2803,148.284,103.335,102.982,0.000408491,0.0426788,21.003,575.291,0.0310364,0.0,0.0
292,72.75,21.3617,21.6047,143.968,103.315,103.041,0.000406294,0.0426849,21.0032,575.281,0.0240251,0.0,0.0
294,73.25,20.7763,21.3065,145.228,103.324,103.057,0.000413159,0.0426755,21.0033,575.281,0.0234905,0.0,0.0
296,73.75,21.1025,21.3197,141.593,103.319,102.984,0.000418719,0.0426549,21.0033,575.291,0.0293889,0.0,0.0
298,74.25,20.8094,21.0661,142.677,103.335,103.242,0.000454754,0.0426383,21.0033,575.301,0.00811815,0.0,0.0
300,74.75,20.7982,21.8022,142.621,103.324,103.511,0.000483943,0.0426248,21.0032,575.301,-0.0163187,0.0,0.0
302,75.25,21.262,21.4974,140.563,103.322,103.105,0.000507586,0.0426139,21.0032,575.301,0.0190175,0.0,0.0
304,75.75,21.2644,21.3813,141.748,103.312,102.95,0.000548582,0.0426323,21.0031,575.291,0.0317058,0.0,0.0
306,76.25,21.2628,21.767,144.652,103.33,103.433,0.000581789,0.0426473,21.0031,575.271,-0.00907849,0.0,0.0
308,76.75,20.9508,21.6632,145.151,103.31,103.371,0.000595335,0.0426995,21.003,575.261,-0.00535699,0.0,0.0
310,77.25,20.8914,21.6828,142.693,103.319,103.377,0.000606307,0.0427417,21.003,575.271,-0.00507701,0.0,0.0
312,77.75,21.0665,21.5541,143.583,103.308,103.341,0.000599871,0.0427616,21.003,575.261,-0.0028558,0.0,0.0
314,78.25,20.9841,21.5568,140.362,103.329,103.352,0.000580868,0.0427649,21.0029,575.231,-0.0019843,0.0,0.0
316,78.75,20.8036,21.6406,140.645,103.308,103.016,0.000550802,0.0427675,21.0029,575.231,0.0256424,0.0,0.0
318,79.25,21.062,21.1531,147.211,103.316,103.295,0.000513243,0.0427696,21.0029,575.221,0.0018394,0.0,0.0
320,79.75,20.8324,21.396,142.008,103.316,103.072,0.000475807,0.0427713,21.0029,575.231,0.0213231,0.0,0.0
322,80.25,20.9339,21.663,143.702,103.321,102.722,0.000439171,0.0427726,21.0029,575.231,0.0525985,0.0,0.0
324,80.75,21.4389,21.8428,143.365,103.311,103.215,0.000407584,0.0427738,21.0029,575.241,0.00841765,0.0,0.0
326,81.25,21.1412,21.5696,139.178,103.321,103.094,0.000380278,0.0427818,21.0029,575.251,0.0198471,0.0,0.0
328,81.75,21.1099,21.1175,142.506,103.328,103.02,0.00035816,0.0427948,21.0029,575.241,0.0269756,0.0,0.0
330,82.25,21.1554,21.9785,142.686,103.324,103.215,0.000339033,0.0428054,21.0029,575.231,0.00956382,0.0,0.0
332,82.75,21.0822,21.345,144.251,103.333,103.379,0.00032354,0.0428275,21.0029,575.231,-0.00401488,0.0,0.0
334,83.25,21.1729,21.8427,142.003,103.323,103.209,0.000314178,0.0428455,21.0029,575.241,0.0100205,0.0,0.0
336,83.75,20.6723,21.5656,139.816,103.316,103.396,0.000309464,0.04286,21.0029,575.241,-0.00692537,0.0,0.0
338,84.25,20.7131,21.5091,142.5,103.316,103.295,0.000305645,0.0428718,21.0029,575.241,0.00180275,0.0,0.0
340,84.75,20.9295,21.7876,139.241,103.318,102.978,0.000314665,0.042895,21.0029,575.231,0.0298102,0.0,0.0
342,85.25,20.7944,21.923,142.415,103.319,103.528,0.000321972,0.0429137,21.0029,575.191,-0.0182309,0.0,0.0
344,85.75,20.7945,21.188,142.064,103.319,103.473,0.00035092,0.0429289,21.0029,575.221,-0.0135056,0.0,0.0
346,86.25,20.9715,21.5594,143.169,103.321,103.427,0.000374367,0.0429412,21.0029,575.231,-0.00932568,0.0,0.0
348,86.75,20.4593,21.5213,142.564,103.313,102.979,0.00042247,0.0429512,21.0029,575.211,0.0293168,0.0,0.0
350,87.25,21.0729,21.6683,146.107,103.313,103.111,0.000461433,0.0429729,21.0029,575.201,0.0176723,0.0,0.0
352,87.75,21.482,21.9087,140.628,103.322,103.384,0.000508771,0.0429905,21.0029,575.211,-0.0054665,0.0,0.0
354,88.25,20.7821,21.5994,143.76,103.319,103.077,0.000547114,0.0430048,21.0029,575.221,0.0211693,0.0,0.0
356,88.75,20.9395,21.0216,144.527,103.319,103.053,0.000578173,0.0430163,21.0029,575.201,0.0233357,0.0,0.0
358,89.25,20.4411,21.1948,142.631,103.322,103.563,0.00060333,0.043012,21.0029,575.201,-0.0210233,0.0,0.0
360,89.75,21.1717,22.019,144.253,103.316,103.206,0.000605503,0.0430085,21.003,575.211,0.00959937,0.0,0.0
362,90.25,20.8505,21.6419,141.185,103.327,103.138,0.000607262,0.0430194,21.003,575.211,0.0166014,0.0,0.0
364,90.75,20.9501,21.6625,140.926,103.324,103.105,0.00058928,0.0430281,21.0029,575.191,0.0191617,0.0,0.0
366,91.25,20.9183,21.0399,147.16,103.311,103.217,0.000581614,0.0430352,21.0027,575.231,0.00817633,0.0,0.0
368,91.75,20.9944,21.5003,139.196,103.321,103.277,0.00056608,0.0430625,21.0024,575.241,0.00387783,0.0,0.0
370,92.25,20.7364,21.4413,140.936,103.322,103.191,0.000553497,0.0431039,21.0021,575.251,0.0115402,0.0,0.0
372,92.75,21.4453,21.6078,142.851,103.333,103.718,0.000549368,0.0431375,21.0019,575.231,-0.0336761,0.0,0.0
374,93.25,21.1142,21.2144,140.076,103.339,103.355,0.000546024,0.0431647,21.0018,575.231,-0.00141916,0.0,0.0
376,93.75,21.1275,21.4009,146.019,103.327,103.123,0.000547145,0.0431868,21.0016,575.251,0.0178316,0.0,0.0
378,94.25,20.8959,21.3243,143.011,103.335,103.263,0.000551501,0.0432105,21.0015,575.231,0.00635976,0.0,0.0
380,94.75,20.5448,21.3379,139.117,103.326,103.438,0.000555029,0.0432511,21.0014,575.231,-0.00982222,0.0,0.0
382,95.25,20.4997,21.2321,139.883,103.327,103.419,0.000546972,0.043284,21.0014,575.241,-0.00807418,0.0,0.0
384,95.75,20.9601,21.4827,147.607,103.343,103.439,0.000540445,0.0433106,21.0013,575.261,-0.00834616,0.0,0.0
386,96.25,20.6283,22.0454,141.202,103.336,103.703,0.000523035,0.0433322,21.0013,575.261,-0.0321171,0.0,0.0
388,96.75,20.6083,21.3755,139.847,103.336,103.608,0.000498022,0.0433497,21.0012,575.241,-0.0237447,0.0,0.0
390,97.25,21.2455,21.777,141.445,103.343,103.465,0.000470748,0.0433423,21.0012,575.241,-0.0105865,0.0,0.0
392,97.75,20.4175,21.522,143.27,103.348,103.288,0.000442342,0.043317,21.0012,575.251,0.00522611,0.0,0.0
394,98.25,20.622,21.2039,141.228,103.346,103.541,0.00041997,0.0432965,21.0012,575.251,-0.0170392,0.0,0.0
396,98.75,20.784,21.5254,142.817,103.363,103.564,0.000402424,0.0432655,21.0011,575.251,-0.017594,0.0,0.0
398,99.25,20.7724,21.5016,141.026,103.352,103.303,0.000397778,0.0432275,21.0011,575.241,0.00433159,0.0,0.0
400,99.75,20.3133,21.2691,142.594,103.383,103.532,0.000402624,0.0432111,21.0011,575.251,-0.0130083,0.0,0.0
402,100.25,20.4931,21.6826,143.11,103.366,103.824,0.000423143,0.0432107,21.0011,575.231,-0.0400072,0.0,0.0
404,100.75,20.7289,21.5599,142.425,103.382,103.646,0.000454699,0.0432247,21.0011,575.241,-0.0230836,0.0,0.0
406,101.25,21.0944,21.6685,142.201,103.402,103.183,0.000480258,0.043249,21.0011,575.241,0.0192241,0.0,0.0
408,101.75,20.9766,21.5598,140.045,103.398,103.705,0.000530089,0.0432686,21.0011,575.231,-0.0268394,0.0,0.0
410,102.25,21.292,21.7734,143.167,103.399,103.576,0.000570452,0.0432846,21.0011,575.211,-0.0154718,0.0,0.0
412,102.75,20.9055,21.5799,145.747,103.423,103.49,0.000603145,0.0432975,21.0011,575.221,-0.00583282,0.0,0.0
414,103.25,20.4289,21.4377,139.412,103.414,103.525,0.000646629,0.0432943,21.0011,575.221,-0.0097391,0.0,0.0
416,103.75,21.1058,21.7376,141.623,103.452,103.412,0.000681851,0.0432917,21.0011,575.211,0.00348118,0.0,0.0
418,104.25,21.1058,21.4035,142.315,103.441,103.161,0.000731037,0.0432623,21.0011,575.221,0.0245445,0.0,0.0
420,104.75,21.4622,21.166,145.216,103.461,103.216,0.000770877,0.0432386,21.0011,575.241,0.021463,0.0,0.0
422,105.25,20.8975,21.4308,144.232,103.455,103.323,0.000812745,0.0432337,21.0011,575.231,0.0115628,0.0,0.0
424,105.75,21.1666,21.3975,141.877,103.49,103.207,0.000855297,0.0432426,21.0011,575.241,0.024751,0.0,0.0
426,106.25,21.173,21.3841,143.141,103.477,103.549,0.000892964,0.0432498,21.0011,575.241,-0.00627468,0.0,0.0
428,106.75,20.8482,21.6639,142.405,103.505,103.79,0.000926354,0.0432693,21.0011,575.221,-0.0248475,0.0,0.0
430,107.25,21.3585,21.7821,140.506,103.515,103.298,0.000952761,0.0432851,21.0011,575.231,0.0190099,0.0,0.0
432,107.75,20.785,21.6964,144.241,103.535,103.405,0.000973573,0.0433388,21.0011,575.231,0.0114067,0.0,0.0
434,108.25,20.7531,21.1876,142.983,103.541,103.809,0.000980193,0.0433823,21.0011,575.251,-0.0233685,0.0,0.0
436,108.75,21.072,21.5535,141.798,103.562,103.393,0.00097634,0.0434391,21.0011,575.251,0.014751,0.0,0.0
438,109.25,20.7979,21.48,143.257,103.568,103.687,0.000973219,0.0435044,21.0011,575.251,-0.0104068,0.0,0.0
440,109.75,20.7791,21.3063,145.938,103.595,103.846,0.000943201,0.0435573,21.0011,575.251,-0.0218864,0.0,0.0
442,110.25,20.5438,21.3612,142.28,103.593,103.759,0.000894147,0.0435866,21.0011,575.251,-0.0144851,0.0,0.0
444,110.75,20.8929,21.7617,139.584,103.638,103.824,0.00083462,0.0436103,21.0011,575.271,-0.0162166,0.0,0.0
446,111.25,20.7842,21.7746,143.898,103.627,103.35,0.000768589,0.0436022,21.0011,575.241,0.0241842,0.0,0.0
448,111.75,20.9016,21.6399,142.229,103.652,103.431,0.000715104,0.0435956,21.0011,575.211,0.0193069,0.0,0.0
450,112.25,20.8754,21.7458,144.398,103.652,103.207,0.000652646,0.0436119,21.0011,575.231,0.0389206,0.0,0.0
452,112.75,21.2694,21.0719,146.666,103.697,103.532,0.000584833,0.0436444,21.001,575.231,0.0144216,0.0,0.0
454,113.25,21.2824,21.7077,144.627,103.709,103.436,0.000522893,0.0436779,21.0007,575.241,0.0238809,0.0,0.0
456,113.75,20.8296,21.6954,142.394,103.738,103.45,0.000466412,0.0437115,21.0005,575.241,0.0252037,0.0,0.0
458,114.25,20.079,21.6547,140.003,103.751,103.746,0.000420663,0.0437387,21.0004,575.231,0.000439938,0.0,0.0
460,114.75,20.9488,21.4303,142.526,103.771,103.505,0.000382395,0.0437608,21.0005,575.231,0.0231948,0.0,0.0
462,115.25,20.8901,21.1195,143.897,103.781,103.736,0.000351398,0.0437513,21.0008,575.221,0.00398993,0.0,0.0
464,115.75,21.1847,21.4673,142.898,103.799,103.778,0.000328712,0.0437437,21.0011,575.221,0.00188253,0.0,0.0
466,116.25,20.8874,21.7274,140.973,103.816,103.435,0.000310337,0.0437648,21.0012,575.221,0.0332477,0.0,0.0
468,116.75,20.5773,21.7349,140.154,103.843,103.701,0.000295452,0.0437819,21.0014,575.161,0.0123726,0.0,0.0
470,117.25,21.5398,21.9179,141.662,103.861,103.927,0.000285283,0.0437548,21.0015,575.191,-0.00572707,0.0,0.0
472,117.75,20.6381,21.5223,143.809,103.894,103.903,0.000267894,0.0437329,21.0016,575.191,-0.000789354,0.0,0.0
474,118.25,21.1694,21.2211,144.106,103.897,103.936,0.000246547,0.0437152,21.0017,575.191,-0.0034097,0.0,0.0
476,118.75,21.0729,21.3311,141.863,103.913,103.753,0.000229255,0.0437008,21.0013,575.201,0.0139737,0.0,0.0
478,119.25,21.0048,21.3922,141.613,103.934,104.011,0.000217797,0.0436891,21.001,575.161,-0.00669282,0.0,0.0
480,119.75,21.2428,21.6604,141.515,103.964,103.891,0.00021081,0.0436797,21.0012,575.191,0.00629727,0.0,0.0
482,120.25,20.8733,21.5615,145.692,103.984,103.701,,0.0436757,,575.181,0.0246638,0.0,0.0
484,120.75,21.0598,21.4745,142.295,104.017,104.018,,0.0436831,,575.181,-0.00013425,0.0,0.0
486,121.25,21.1181,21.9276,140.179,104.036,103.644,,0.0437021,,575.131,0.0341426,0.0,0.0
488,121.75,20.7127,21.8808,141.364,104.059,103.791,,0.0437103,,575.151,0.0234056,0.0,0.0
490,122.25,21.4697,22.3473,143.841,104.095,103.744,,0.0437105,,575.171,0.0305883,0.0,0.0
492,122.75,21.437,21.8212,139.671,104.108,103.658,,0.0437034,,575.171,0.0392019,0.0,0.0
494,123.25,21.0231,21.3148,142.576,104.131,103.704,,,,575.171,0.0371242,0.0,0.0
496,123.75,21.3222,21.7444,142.78,104.148,103.88,,,,575.191,0.0233303,0.0,0.0
498,124.25,20.9541,21.706,143.299,104.169,104.551,,,,575.211,-0.0330532,0.0,0.0
500,124.75,21.3401,21.7319,143.16,104.21,103.982,,,,575.211,0.0198471,0.0,0.0
502,125.25,20.917,21.4078,144.528,104.21,104.319,,,,575.201,-0.00948003,0.0,0.0
504,125.75,20.663,22.0665,140.952,104.244,104.373,,,,575.201,-0.0111528,0.0,0.0
506,126.25,20.6836,21.6772,141.975,104.267,104.466,,,,575.211,-0.0172456,0.0,0.0
508,126.75,21.2592,21.8728,142.917,104.285,104.201,,,,575.201,0.00727456,0.0,0.0
510,127.25,20.8296,21.656,141.365,104.301,104.274,,,,575.181,0.00236226,0.0,0.0
512,127.75,21.3385,22.195,140.221,104.327,104.356,,,,575.191,-0.00259046,0.0,0.0
514,128.25,21.0893,21.8488,141.29,104.346,104.341,,,,575.241,0.000390338,0.0,0.0
516,128.75,20.7646,21.462,140.699,104.382,104.142,,,,575.251,0.0208014,0.0,0.0
518,129.25,21.4621,21.8736,145.121,104.393,104.208,,,,575.251,0.0160073,0.0,0.0
520,129.75,20.9017,21.3666,137.802,104.414,104.517,,,,575.211,-0.0089263,0.0,0.0
522,130.25,21.3347,21.7873,144.708,104.433,104.603,,,,575.191,-0.0146925,0.0,0.0
524,130.75,20.9917,21.5249,142.97,104.462,104.138,,,,575.161,0.0281226,0.0,0.0
525,131,21.3224,21.8859,139.612,104.464,104.265,,,,575.191,0.0172634,0.0,0.0