File: 01_Data/Window_Screen/Cone/Window_Screen_Cone_HF25Scan_220524_R4.csv
Names,Time,Stack TC,Smoke TC,Exh Press,Smoke Comp,Smoke Meas,CO Meter,CO2 Meter,O2 Meter,Sample Mass,Ext Coeff,Start Test,Flame Verif
Chan Gain,,500,500,1,1,1,1,1,1,1,1,1.0,1.0
Offset,,0,0,0.13752,0,0,0,0,0,0,0,0.0,0.0
Gain,,1,1,25.011,13.8491,15.2622,1,1,1,1.00087,1.03118,1.0,1.0
Units,sec,C,C,Pa,%,%,%,%,%,g,/m,,
Baseline,,24.2929,24.9291,142.975,104.522,104.378,0.000618374,0.0429603,21.0016,-450.233,0.0125314,,
2,0.25,21.7625,22.6019,141.389,105.183,105.031,0.00161427,0.0505161,20.9915,570.477,0.0131135,0.0,0.0
4,0.75,21.2432,22.9114,140.469,105.199,104.898,0.00201638,0.0519024,20.9914,570.387,0.0258972,0.0,0.0
6,1.25,19.9762,20.6927,142.76,105.193,105.008,0.00234208,0.0530253,20.9886,570.407,0.0159556,0.0,0.0
8,1.75,19.9466,20.9199,139.123,105.201,104.515,0.00271837,0.0562832,20.9854,570.377,0.05923,0.0,0.0
10,2.25,20.1968,20.799,142.216,105.2,102.72,0.00326121,0.0610357,20.9846,570.357,0.215792,0.0,0.0
12,2.75,20.2263,20.906,137.287,105.205,94.0738,0.00418945,0.0673832,20.9745,570.337,1.01155,0.0,0.0
14,3.25,20.4851,20.9748,131.617,105.199,96.7896,0.00510318,0.074773,20.9663,570.266,0.753641,0.0,1.0
16,3.75,19.6564,20.5554,139.384,105.205,95.1776,0.00598897,0.0807587,20.9518,570.246,0.906069,0.0,1.0
18,4.25,19.9784,20.8529,135.565,105.197,96.9946,0.00676337,0.0856072,20.9385,570.146,0.734291,0.0,1.0
20,4.75,20.6959,20.9741,137.067,105.217,97.1478,0.00744186,0.0989524,20.9262,570.206,0.72172,0.0,1.0
22,5.25,21.0307,21.5261,139.398,105.201,94.812,0.00790744,0.102542,20.9163,570.146,0.940521,0.0,1.0
24,5.75,20.5412,20.929,134.692,105.207,89.7855,0.00828457,0.10919,20.9083,570.146,1.43373,0.0,1.0
26,6.25,21.6057,20.9188,134.452,105.208,86.2568,0.00843605,0.115033,20.9018,570.096,1.7965,0.0,1.0
28,6.75,20.9851,21.6112,135.693,105.214,84.4208,0.00842017,0.119137,20.8965,570.096,1.99163,0.0,1.0
30,7.25,21.4823,21.5871,138.243,105.209,87.3882,0.00840731,0.121896,20.8922,570.056,1.67878,0.0,1.0
32,7.75,21.3277,21.8778,141.836,105.211,95.3066,0.00802895,0.122516,20.8917,570.046,0.894325,0.0,1.0
34,8.25,21.7659,21.1568,138.505,105.207,100.979,0.00772248,0.121564,20.894,570.106,0.37104,0.0,1.0
36,8.75,20.772,20.4682,142.907,105.209,101.406,0.00747424,0.120794,20.8959,570.196,0.333005,0.0,1.0
38,9.25,20.2988,20.5646,142.51,105.212,101.465,0.00688151,0.115913,20.9008,570.106,0.327985,0.0,1.0
40,9.75,21.2291,20.5231,143.018,105.213,102.936,0.00640139,0.11196,20.9079,569.896,0.197867,0.0,0.0
42,10.25,20.4554,20.8441,140.314,105.214,103.83,0.00578068,0.105995,20.9155,570.046,0.119772,0.0,0.0
44,10.75,21.0578,20.3441,141.968,105.223,104.502,0.0052779,0.101164,20.9233,570.106,0.0621755,0.0,0.0
46,11.25,20.7839,20.667,142.695,105.2,104.405,0.00472098,0.0959582,20.931,570.046,0.0686405,0.0,0.0
48,11.75,19.7066,20.3232,154.381,105.226,104.563,0.00426988,0.0905781,20.9385,570.106,0.0572233,0.0,0.0
50,12.25,19.0109,19.5881,142.309,105.206,104.674,0.00380545,0.0862203,20.9457,570.046,0.0458174,0.0,0.0
52,12.75,19.3576,19.6431,139.259,105.209,104.797,0.00342926,0.0812479,20.9525,570.096,0.0354939,0.0,0.0
54,13.25,19.5701,19.9694,143.85,105.208,104.913,0.00308539,0.0772202,20.9588,570.056,0.0253746,0.0,0.0
56,13.75,19.7469,19.7104,145.552,105.199,105.03,0.00277161,0.0735682,20.9645,570.086,0.0145347,0.0,0.0
58,14.25,19.7542,19.5826,142.941,105.215,104.619,0.00246144,0.0702595,20.9693,570.056,0.0514042,0.0,0.0
60,14.75,19.4102,19.8202,142.814,105.221,105.09,0.0022102,0.0670592,20.9734,570.076,0.0112516,0.0,0.0
62,15.25,19.6831,19.8426,141.658,105.203,104.733,0.0020067,0.0644669,20.9767,570.056,0.0404902,0.0,0.0
64,15.75,19.2726,19.4685,141.536,105.198,104.772,0.00177986,0.062144,20.9794,570.066,0.036715,0.0,0.0
66,16.25,19.3607,19.4381,141.588,105.219,105.105,0.00159613,0.0600617,20.9816,570.046,0.00978679,0.0,0.0
68,16.75,19.6924,20.0249,143.309,105.206,104.84,0.00143132,0.0582023,20.9834,570.056,0.0314609,0.0,0.0
70,17.25,19.473,19.47,140.443,105.191,104.809,0.00128346,0.0565409,20.9857,570.046,0.0329211,0.0,0.0
72,17.75,19.495,20.0704,143.619,105.207,105,0.00116369,0.0551951,20.9876,570.036,0.0178725,0.0,0.0
74,18.25,19.7699,19.451,144.076,105.198,105.053,0.00105454,0.0538865,20.9891,570.056,0.0125008,0.0,0.0
76,18.75,19.3101,19.3435,144.738,105.186,104.956,0.000966129,0.0528265,20.9903,570.046,0.0197524,0.0,0.0
78,19.25,19.0467,19.516,147.391,105.193,104.99,0.000910291,0.0519679,20.9913,570.066,0.0174399,0.0,0.0
80,19.75,19.7169,19.7032,141.993,105.201,104.655,0.000865063,0.0512178,20.9921,570.076,0.0470726,0.0,0.0
82,20.25,18.8847,19.7578,140.534,105.19,104.852,0.000841847,0.0506749,20.993,570.076,0.0291481,0.0,0.0
84,20.75,19.2297,19.2753,140.947,105.183,104.368,0.000835119,0.0502934,20.9939,570.076,0.0703739,0.0,0.0
86,21.25,19.0214,19.5484,144.031,105.176,104.817,0.0008399,0.0499844,20.9947,570.076,0.03093,0.0,0.0
88,21.75,18.8201,19.8681,141.536,105.172,105.31,0.00085298,0.0497772,20.9953,570.066,-0.011827,0.0,0.0
90,22.25,19.4423,20.1073,143.42,105.176,104.594,0.000863574,0.0496483,20.9958,570.076,0.0502365,0.0,0.0
92,22.75,19.6389,19.897,142.096,105.168,104.848,0.000880663,0.0495294,20.9961,570.066,0.0275787,0.0,0.0
94,23.25,19.1791,19.3614,142.073,105.169,105.143,0.000894505,0.0494202,20.9965,570.066,0.00225122,0.0,0.0
96,23.75,18.9086,19.3688,142.135,105.162,104.742,0.000907636,0.0492598,20.9967,570.066,0.0362403,0.0,0.0
98,24.25,18.9146,19.6527,141.687,105.15,104.806,0.00092,0.0490652,20.9969,570.056,0.0296328,0.0,0.0
100,24.75,18.9399,19.4882,139.626,105.139,104.672,0.000925271,0.0489076,20.997,570.056,0.0403131,0.0,0.0
102,25.25,18.895,19.7394,143.625,105.151,104.799,0.000934284,0.0485752,20.9972,570.066,0.0302723,0.0,0.0
104,25.75,18.9369,19.4928,140.189,105.146,105.002,0.000944016,0.0483059,20.9973,570.066,0.0124782,0.0,0.0
106,26.25,19.1437,19.5508,144.908,105.143,104.535,0.000951899,0.0480015,20.9974,570.056,0.0524045,0.0,0.0
108,26.75,19.3782,19.7365,139.354,105.134,105.119,0.000951887,0.0476774,20.9975,570.066,0.0012777,0.0,0.0
110,27.25,18.9027,19.7579,143.188,105.138,105.149,0.00094612,0.0474149,20.9976,570.076,-0.00095489,0.0,0.0
112,27.75,19.1652,19.6178,147.93,105.135,104.568,0.000933135,0.047303,20.9978,570.076,0.0489292,0.0,0.0
114,28.25,19.0749,19.7749,144.694,105.141,104.783,0.000915136,0.0469752,20.9983,570.066,0.0309203,0.0,0.0
116,28.75,18.8405,20.0144,141.543,105.13,105.187,0.000894803,0.0467096,20.9986,570.066,-0.00489845,0.0,0.0
118,29.25,18.4437,19.7181,144.641,105.13,104.595,0.000873156,0.0465218,20.9989,570.056,0.04612,0.0,0.0
120,29.75,18.9728,19.7488,139.725,105.133,104.832,0.000855622,0.0463697,20.9991,570.036,0.0259359,0.0,0.0
122,30.25,19.0995,19.4883,145.108,105.123,104.982,0.000842058,0.0462608,20.9993,570.016,0.0121239,0.0,0.0
124,30.75,19.1464,19.5945,140.39,105.126,104.921,0.000831647,0.0461856,20.9995,570.016,0.0176777,0.0,0.0
126,31.25,19.1033,19.278,140.916,105.104,104.934,0.000822575,0.0461246,20.9996,570.026,0.0146617,0.0,0.0
128,31.75,19.1216,19.4892,144.941,105.109,105.02,0.000814651,0.0460343,20.9997,570.036,0.00771306,0.0,0.0
130,32.25,19.3542,19.8522,142.215,105.125,104.753,0.000801843,0.0459612,20.9998,570.036,0.0320357,0.0,0.0
132,32.75,18.8699,19.6748,141.632,105.108,104.769,0.000785717,0.0459838,20.9998,570.036,0.02929,0.0,0.0
134,33.25,18.9005,19.6933,141.655,105.116,104.58,0.000761157,0.0460021,20.9999,570.036,0.0462852,0.0,0.0
136,33.75,18.4124,19.3513,143.105,105.101,104.444,0.000730916,0.0460314,20.9999,570.036,0.0567475,0.0,0.0
138,34.25,18.9134,19.1838,142.686,105.114,104.844,0.000692378,0.0460679,21,570.046,0.0232141,0.0,0.0
140,34.75,18.8162,19.275,141.832,105.098,104.996,0.000648524,0.0461263,20.9996,570.036,0.00881408,0.0,0.0
142,35.25,19.0791,19.5272,142.008,105.099,104.689,0.000613002,0.0461994,20.9992,570.036,0.0352919,0.0,0.0
144,35.75,18.9666,19.7199,142.729,105.076,104.666,0.000569684,0.0462946,20.999,570.026,0.0354165,0.0,0.0
146,36.25,18.8088,19.3738,143.275,105.093,104.543,0.000534596,0.046404,20.9988,570.036,0.0474684,0.0,0.0
148,36.75,19.0273,19.4571,143.539,105.068,104.805,0.000504899,0.0464926,20.9986,570.036,0.0226215,0.0,0.0
150,37.25,18.7449,19.4254,141.571,105.08,104.788,0.000479697,0.04666,20.9984,570.046,0.0252047,0.0,0.0
152,37.75,19.2193,19.7887,143.571,105.052,105.138,0.000459284,0.0467955,20.9983,570.056,-0.00741855,0.0,0.0
154,38.25,19.0045,19.3052,142.209,105.06,104.546,0.000445241,0.0468643,20.9982,570.046,0.0443485,0.0,0.0
156,38.75,18.8086,19.858,144.378,105.041,104.585,0.000433867,0.0469201,20.9982,570.056,0.0393264,0.0,0.0
158,39.25,19.1547,19.3233,147.447,105.051,104.776,0.000427205,0.0469221,20.9981,570.056,0.0237024,0.0,0.0
160,39.75,18.6322,19.1776,146.497,105.027,104.782,0.000424105,0.046885,20.9983,570.046,0.0211779,0.0,0.0
162,40.25,18.8309,19.4977,142.504,105.043,104.587,0.000428612,0.0468549,20.9985,570.056,0.039306,0.0,0.0
164,40.75,18.6792,19.299,143.086,105.009,105.135,0.000438579,0.0467206,20.9986,570.056,-0.0108904,0.0,0.0
166,41.25,18.8981,19.015,141.885,105.019,105.104,0.000472123,0.0466118,20.9988,570.046,-0.00733545,0.0,0.0
168,41.75,18.8638,19.365,143.07,104.999,105.352,0.000499293,0.0464145,20.9989,570.046,-0.0303426,0.0,0.0
170,42.25,18.7656,19.6117,142.831,105.004,104.845,0.000554074,0.0462547,20.9989,570.046,0.0137487,0.0,0.0
172,42.75,19.2581,19.6317,143.463,104.993,104.891,0.000598447,0.0460678,20.999,570.046,0.00874945,0.0,0.0
174,43.25,18.7037,19.2932,141.538,104.993,104.694,0.00063439,0.0458647,20.9991,570.036,0.0258671,0.0,0.0
176,43.75,18.776,19.2226,141.146,104.976,105.148,0.000684154,0.0456572,20.9995,570.036,-0.0148524,0.0,0.0
178,44.25,18.836,19.2052,146.657,104.974,104.695,0.000724463,0.0454503,20.9999,570.046,0.0241122,0.0,0.0
180,44.75,18.9722,19.2987,139.952,104.963,104.756,0.000737171,0.0452468,21.0001,570.056,0.0178553,0.0,0.0
182,45.25,18.799,19.677,143.206,104.951,104.699,0.000758902,0.0450497,21.0004,570.066,0.0217061,0.0,0.0
184,45.75,18.7743,19.502,142.349,104.952,104.833,0.000754644,0.044847,21.0006,570.056,0.0103113,0.0,0.0
186,46.25,18.6274,19.3793,139.436,104.947,104.954,0.000751195,0.0446441,21.0008,570.046,-0.000645928,0.0,0.0
188,46.75,18.9616,19.3444,140.152,104.91,105.208,0.000728982,0.0444797,21.0009,570.046,-0.0257023,0.0,0.0
190,47.25,19.1548,20.0341,142.281,104.924,104.628,0.000710989,0.0443056,21.001,570.056,0.0255693,0.0,0.0
192,47.75,18.7893,19.4319,145.604,104.903,104.563,0.000696415,0.0442314,21.0011,570.066,0.0294233,0.0,0.0
194,48.25,18.9916,19.4397,140.004,104.904,105.064,0.00068202,0.0440758,21.0012,570.056,-0.013754,0.0,0.0
196,48.75,18.8346,19.3253,143.167,104.89,105.051,0.000668028,0.043924,21.0017,570.056,-0.0139468,0.0,0.0
198,49.25,18.885,19.9968,141.054,104.895,105.008,0.000656695,0.0437795,21.0021,570.056,-0.00966624,0.0,0.0
200,49.75,19.0206,19.6357,142.722,104.868,104.785,0.000656008,0.043643,21.0025,570.056,0.00715927,0.0,0.0
202,50.25,18.5379,19.4297,142.773,104.858,104.473,0.000655452,0.0435325,21.0029,570.066,0.0332262,0.0,0.0
204,50.75,19.1209,19.6555,143.85,104.845,104.523,0.000655002,0.0433928,21.0032,570.066,0.0278227,0.0,0.0
206,51.25,18.9892,19.3827,142.435,104.833,104.598,0.000654637,0.0432344,21.0035,570.056,0.0203506,0.0,0.0
208,51.75,19.0745,19.6349,141.714,104.837,104.488,0.000654342,0.0431061,21.0037,570.066,0.0301133,0.0,0.0
210,52.25,19.0636,20.0007,143.979,104.828,104.213,0.000645609,0.0429894,21.0041,570.056,0.0532042,0.0,0.0
212,52.75,18.6408,19.6571,140.009,104.815,104.731,0.000638535,0.0428948,21.0046,570.056,0.00723361,0.0,0.0
214,53.25,18.511,19.2844,144.358,104.801,104.973,0.000615824,0.0427895,21.005,570.046,-0.0148237,0.0,0.0
216,53.75,18.4702,19.426,143.552,104.799,104.642,0.000597428,0.0426784,21.0054,570.056,0.0136475,0.0,0.0
218,54.25,18.8014,19.318,142.56,104.789,104.432,0.000552222,0.0425884,21.0057,570.046,0.0308311,0.0,0.0
220,54.75,19.0441,19.6289,144.02,104.778,104.406,0.000515605,0.0424882,21.0059,570.056,0.0321421,0.0,0.0
222,55.25,18.5783,19.5232,145.546,104.771,104.574,0.000456876,0.0424071,21.0061,570.066,0.0170427,0.0,0.0
224,55.75,18.7781,19.9811,141.309,104.757,104.841,0.000409306,0.042355,21.0062,570.086,-0.00721674,0.0,0.0
226,56.25,18.7514,18.4885,144.378,104.756,104.62,0.00036313,0.0423128,21.0063,570.096,0.0117416,0.0,0.0
228,56.75,18.7842,19.4299,142.79,104.761,104.483,0.000318846,0.0423073,21.0064,570.106,0.024067,0.0,0.0
230,57.25,19.186,19.4442,142.514,104.739,104.544,0.000282976,0.0423287,21.0065,570.086,0.0168113,0.0,0.0
232,57.75,18.5988,19.3342,143.279,104.728,104.748,0.000262394,0.042346,21.0066,570.076,-0.00177129,0.0,0.0
234,58.25,18.154,19.1599,141.256,104.726,104.798,0.000245723,0.0423601,21.0066,570.066,-0.00622396,0.0,0.0
236,58.75,18.8412,19.3015,141.832,104.728,104.227,0.000238591,0.0423427,21.0067,570.096,0.0433441,0.0,0.0
238,59.25,18.1122,19.1045,138.255,104.737,104.681,0.000238549,0.0423029,21.0067,570.106,0.00482952,0.0,0.0
240,59.75,18.4556,19.156,141.553,104.713,104.555,0.000238516,0.0422706,21.0068,570.096,0.0136174,0.0,0.0
242,60.25,18.4587,19.1394,142,104.716,104.392,0.000253092,0.0422444,21.0067,570.076,0.0280646,0.0,0.0
244,60.75,18.7324,19.6925,142.276,104.701,104.616,0.000264898,0.0422233,21.0066,570.076,0.00731765,0.0,0.0
246,61.25,18.5503,19.0289,143.3,104.708,104.28,0.000285365,0.0422276,21.0065,570.096,0.0370254,0.0,0.0
248,61.75,18.9963,19.5295,140.161,104.7,104.667,0.000301943,0.0422505,21.0064,570.086,0.00285598,0.0,0.0
250,62.25,18.6895,19.6904,140.664,104.696,104.451,0.000327491,0.0422691,21.0063,570.066,0.0211521,0.0,0.0
252,62.75,18.6136,19.481,145.621,104.71,104.418,0.000348185,0.0423242,21.0062,570.046,0.025294,0.0,0.0
254,63.25,19.0619,19.109,144.713,104.698,104.615,0.000387986,0.0423689,21.0062,570.066,0.00714742,0.0,0.0
256,63.75,18.5649,19.0632,145.343,104.696,104.704,0.000404953,0.0423835,21.0062,570.056,-0.000687985,0.0,0.0
258,64.25,19.0064,19.5518,142.484,104.694,104.345,0.000433968,0.042376,21.0062,570.076,0.0302433,0.0,0.0
260,64.75,18.8456,19.4623,144.218,104.685,104.526,0.000478095,0.0423836,21.0061,570.056,0.0137067,0.0,0.0
262,65.25,18.7477,19.2916,138.882,104.685,104.553,0.000513838,0.0423897,21.0061,570.026,0.0113324,0.0,0.0
264,65.75,18.5084,19.5172,140.529,104.689,104.431,0.000537937,0.0424219,21.0059,569.986,0.0223386,0.0,0.0
266,66.25,18.9127,19.5293,140.222,104.693,104.749,0.00054821,0.042448,21.0056,570.016,-0.00488173,0.0,0.0
268,66.75,18.6956,19.6207,141.597,104.695,104.963,0.000561307,0.0424591,21.0051,570.026,-0.023142,0.0,0.0
270,67.25,18.362,19.2797,143.714,104.695,104.594,0.000567893,0.0424918,21.005,570.016,0.0087042,0.0,0.0
272,67.75,18.3187,18.8612,142.488,104.7,104.985,0.000561097,0.0425182,21.0047,569.986,-0.024594,0.0,0.0
274,68.25,18.5343,19.3471,140.639,104.688,104.472,0.000555593,0.0425253,21.0045,569.986,0.0186398,0.0,0.0
276,68.75,18.2675,19.284,141.516,104.7,104.37,0.000544753,0.0425181,21.0044,569.996,0.0285741,0.0,0.0
278,69.25,18.8068,19.0407,145.659,104.699,104.515,0.000530229,0.0425079,21.0043,569.996,0.0158792,0.0,0.0
280,69.75,18.3621,19.1964,143.999,104.712,104.599,0.000512686,0.0424829,21.0042,569.996,0.00975771,0.0,0.0
282,70.25,18.8934,19.1228,138.74,104.696,104.843,0.000493276,0.0424977,21.0041,570.056,-0.0127108,0.0,0.0
284,70.75,18.9865,19.0807,142.352,104.714,104.258,0.000477554,0.042523,21.004,570.056,0.0395122,0.0,0.0
286,71.25,18.1323,19.2644,144.339,104.718,104.52,0.000464819,0.0425364,21.0039,570.066,0.0171557,0.0,0.0
288,71.75,18.4072,19.5526,142.415,104.726,104.228,0.000454504,0.0425407,21.0039,570.046,0.0430447,0.0,0.0
290,72.25,18.9722,19.1925,142.322,104.714,104.331,0.000436453,0.0425442,21.0039,570.036,0.0331338,0.0,0.0
292,72.75,19.7934,19.9058,142.712,104.734,104.295,0.000421832,0.0425342,21.0038,570.026,0.0379596,0.0,0.0
294,73.25,20.4804,20.8343,143.146,104.73,104.383,0.000418473,0.0425261,21.0038,570.036,0.0300756,0.0,0.0
296,73.75,21.1825,21.143,144.574,104.739,104.335,0.000415751,0.0425196,21.0038,570.066,0.0348838,0.0,0.0
298,74.25,20.6163,21.341,142.593,104.737,104.66,0.000429305,0.0425358,21.0038,570.036,0.00660005,0.0,0.0
300,74.75,20.6212,21.2517,143.81,104.759,104.536,0.000440284,0.0425683,21.0038,570.026,0.0192122,0.0,0.0
302,75.25,20.3912,21.3742,143.159,104.75,105.104,0.000461944,0.0425946,21.0038,569.996,-0.0304778,0.0,0.0
304,75.75,20.6028,21.37,146.427,104.769,104.657,0.00049098,0.0426295,21.0037,569.976,0.0096877,0.0,0.0
306,76.25,21.0082,21.1768,142.561,104.772,104.691,0.000530471,0.0426578,21.0037,570.006,0.0070095,0.0,0.0
308,76.75,20.8547,21.6293,143.979,104.778,104.9,0.000576832,0.0426664,21.0037,570.026,-0.010607,0.0,0.0
310,77.25,20.0521,20.4789,140.071,104.782,104.501,0.00060235,0.0426605,21.0037,570.046,0.0242832,0.0,0.0
312,77.75,19.741,20.5038,142.04,104.793,104.513,0.000645985,0.0426556,21.0037,570.076,0.0241788,0.0,0.0
314,78.25,19.8863,20.7021,145.298,104.798,104.284,0.000681329,0.0426517,21.0037,570.056,0.0444719,0.0,0.0
316,78.75,20.3817,20.5472,142.551,104.801,104.197,0.0007051,0.0426557,21.0037,570.036,0.052249,0.0,0.0
318,79.25,20.3589,20.6217,142.954,104.8,104.502,0.000724354,0.0426654,21.0037,570.046,0.0258069,0.0,0.0
320,79.75,20.62,20.8221,140.841,104.813,104.864,0.000740589,0.0426805,21.0037,570.016,-0.00437358,0.0,0.0
322,80.25,20.6144,21.0762,145.294,104.813,104.398,0.000754315,0.0426903,21.0037,570.016,0.0358956,0.0,0.0
324,80.75,20.0806,20.2903,143.904,104.828,104.67,0.000765433,0.042707,21.0037,570.006,0.0136357,0.0,0.0
326,81.25,20.299,21.3378,143.222,104.815,104.309,0.000780579,0.0427479,21.0036,570.006,0.0437906,0.0,0.0
328,81.75,19.8837,20.7831,144.047,104.822,104.5,0.000792848,0.042781,21.0035,570.006,0.0278281,0.0,0.0
330,82.25,20.2499,20.3882,142.67,104.821,104.7,0.000802786,0.0428006,21.0036,570.016,0.0104363,0.0,0.0
332,82.75,20.0017,20.7264,143.602,104.838,104.858,0.000810835,0.04281,21.0039,570.036,-0.00169957,0.0,0.0
334,83.25,20.1381,20.17,144.91,104.84,104.624,0.000811282,0.0428173,21.0039,570.066,0.0186387,0.0,0.0
336,83.75,20.1455,20.7365,139.794,104.848,104.761,0.000811643,0.0428227,21.0037,570.056,0.00750405,0.0,0.0
338,84.25,20.2388,20.3345,142.793,104.846,104.682,0.000814366,0.0428272,21.0035,570.056,0.0141934,0.0,0.0
340,84.75,19.9735,20.9564,143.618,104.862,104.388,0.000816571,0.0428172,21.0034,570.036,0.0410505,0.0,0.0
342,85.25,20.2427,20.624,142.494,104.878,104.696,0.000822193,0.042809,21.0033,570.046,0.0156445,0.0,0.0
344,85.75,20.0646,20.6617,142.923,104.874,104.477,0.0008302,0.0428161,21.0032,570.056,0.034366,0.0,0.0
346,86.25,20.5993,20.8013,140.852,104.87,104.655,0.000836685,0.0428218,21.0032,570.046,0.0185731,0.0,0.0
348,86.75,19.9388,20.6346,143.746,104.878,104.506,0.00083222,0.04284,21.0031,570.036,0.0321539,0.0,0.0
350,87.25,20.2308,20.6243,141.147,104.883,104.531,0.000828603,0.0428548,21.0031,570.026,0.0303776,0.0,0.0
352,87.75,20.3013,21.4282,144.929,104.889,104.33,0.000803819,0.0428955,21.003,570.036,0.0483125,0.0,0.0
354,88.25,19.9476,20.3002,139.815,104.88,104.846,0.000783743,0.0429543,21.003,570.036,0.0029185,0.0,0.0
356,88.75,19.9613,20.8456,145.286,104.903,104.419,0.000752919,0.0430019,21.003,570.026,0.0418427,0.0,0.0
358,89.25,20.5637,21.0801,140.916,104.917,105.138,0.000727951,0.0430268,21.0029,570.026,-0.0190743,0.0,0.0
360,89.75,20.0727,20.9523,139.321,104.914,104.787,0.000701661,0.043047,21.0029,570.026,0.010935,0.0,0.0
362,90.25,19.7743,20.6403,141.413,104.931,104.735,0.000680367,0.0430634,21.0029,570.036,0.0169372,0.0,0.0
364,90.75,20.4351,20.745,141.45,104.944,104.711,0.000664359,0.0430766,21.0029,570.026,0.0200816,0.0,0.0
366,91.25,20.4225,20.8934,145.659,104.947,104.494,0.000652509,0.0430737,21.0029,570.016,0.0391375,0.0,0.0
368,91.75,20.3485,20.9378,142.986,104.96,104.696,0.000642911,0.0430714,21.0029,570.006,0.0227893,0.0,0.0
370,92.25,20.4404,20.6151,142.769,104.968,104.558,0.000638968,0.0430695,21.0029,570.016,0.0354047,0.0,0.0
372,92.75,20.0866,20.8189,140.784,104.977,104.491,0.000639223,0.0430679,21.003,570.026,0.0420101,0.0,0.0
374,93.25,19.9429,20.7952,141.367,104.976,104.808,0.000637514,0.0430667,21.0032,570.036,0.0144808,0.0,0.0
376,93.75,20.0916,20.7251,146.04,104.993,104.714,0.000634405,0.0430657,21.0033,570.036,0.0241369,0.0,0.0
378,94.25,20.0753,20.7589,143.844,105.011,104.88,0.000631887,0.0430649,21.0034,570.026,0.0113184,0.0,0.0
380,94.75,20.5835,20.5942,143.217,105.007,104.975,0.000629847,0.0430513,21.0034,570.046,0.00275573,0.0,0.0
382,95.25,20.0497,21.2133,143.81,105.035,105.492,0.000607574,0.0430404,21.0035,570.036,-0.0392409,0.0,0.0
384,95.75,20.4566,20.6769,141.847,105.03,104.492,0.000590809,0.0430459,21.0035,570.046,0.0464364,0.0,0.0
386,96.25,20.0884,20.8114,143.458,105.032,104.674,0.000578378,0.0430632,21.0036,570.056,0.0309107,0.0,0.0
388,96.75,19.7892,20.6157,141.738,105.034,104.711,0.000572139,0.0430773,21.0036,570.036,0.0278335,0.0,0.0
390,97.25,20.3788,20.2633,141.687,105.06,104.376,0.000570533,0.0430887,21.0036,570.016,0.0590693,0.0,0.0
392,97.75,20.0287,20.6577,144.63,105.051,104.837,0.000571147,0.0430706,21.0036,570.026,0.0183955,0.0,0.0
394,98.25,20.1351,20.7199,144.644,105.06,105.094,0.000573368,0.043056,21.0036,570.026,-0.00292322,0.0,0.0
396,98.75,20.5207,20.8275,141.801,105.064,104.587,0.000575168,0.0430851,21.0037,570.036,0.0411707,0.0,0.0
398,99.25,20.4569,20.6088,144.293,105.085,104.855,0.000575986,0.0431086,21.0037,570.026,0.0198524,0.0,0.0
400,99.75,20.417,20.7087,143.288,105.096,104.952,0.000576075,0.043155,21.0037,570.046,0.0124448,0.0,0.0
402,100.25,20.4546,21.0622,140.936,105.091,105.001,0.000574231,0.0431925,21.0037,570.066,0.00779387,0.0,0.0
404,100.75,19.7257,20.6313,143.295,105.1,105.026,0.000571014,0.0432501,21.0037,570.046,0.00635545,0.0,0.0
406,101.25,19.4296,20.5252,144.288,105.107,105.057,0.000568409,0.0432969,21.0037,570.016,0.00436285,0.0,0.0
408,101.75,20.2883,20.7076,143.239,105.103,105.054,0.000563106,0.0433619,21.0037,570.016,0.00427663,0.0,0.0
410,102.25,20.1083,21.0333,144.764,105.125,104.984,0.000555939,0.0434147,21.0037,570.016,0.0121853,0.0,0.0
412,102.75,20.2136,20.7832,140.925,105.126,105.111,0.000545666,0.0434574,21.0037,569.986,0.0013122,0.0,0.0
414,103.25,19.9933,20.7453,144.305,105.132,104.962,0.000533324,0.0434647,21.0037,569.976,0.0146531,0.0,0.0
416,103.75,20.2996,20.5002,143.237,105.125,105.134,0.000519499,0.0434707,21.0037,569.996,-0.000800677,0.0,0.0
418,104.25,20.6699,20.9645,139.198,105.142,105.237,0.000504854,0.0434611,21.0037,570.016,-0.0081249,0.0,0.0
420,104.75,19.9221,20.378,145.713,105.127,105.701,0.000488527,0.0434405,21.0037,570.016,-0.0492571,0.0,0.0
422,105.25,20.0191,20.5357,141.58,105.154,104.83,0.000471283,0.0434237,21.0033,569.996,0.0279109,0.0,0.0
424,105.75,20.44,20.557,144.059,105.136,104.815,0.000457316,0.0434375,21.0029,569.986,0.0277099,0.0,0.0
426,106.25,20.3634,20.292,143.555,105.147,105.039,0.000446002,0.0434486,21.0026,569.976,0.00934192,0.0,0.0
428,106.75,20.0023,20.985,142.238,105.136,105.104,0.000436838,0.0434167,21.0024,569.966,0.00271045,0.0,0.0
430,107.25,20.0696,21.2239,136.85,105.15,104.575,0.000431839,0.0433909,21.0022,569.986,0.0495931,0.0,0.0
432,107.75,20.3098,21.1253,144.791,105.141,104.83,0.00042779,0.0433427,21.0021,569.996,0.026824,0.0,0.0
434,108.25,20.4938,20.7216,147.974,105.157,105.061,0.000428976,0.0433036,21.0019,570.016,0.00825605,0.0,0.0
436,108.75,20.0244,20.8781,141.481,105.14,105.117,0.000431597,0.043272,21.0019,570.026,0.00202806,0.0,0.0
438,109.25,20.4913,20.3349,143.779,105.159,105.231,0.000447689,0.0432464,21.0018,570.026,-0.00618727,0.0,0.0
440,109.75,20.4055,20.8991,140.974,105.155,104.9,0.000453544,0.0432472,21.0017,570.036,0.0219976,0.0,0.0
442,110.25,20.3155,20.7013,146.971,105.15,104.859,0.000467385,0.0432672,21.0017,570.026,0.0250918,0.0,0.0
444,110.75,20.2851,20.513,143.667,105.13,105.08,0.000482043,0.0432906,21.0016,570.036,0.00428201,0.0,0.0
446,111.25,19.9522,20.7604,140.945,105.143,104.668,0.000493916,0.043316,21.0016,570.056,0.0409249,0.0,0.0
448,111.75,19.8798,20.4891,143.762,105.128,105.123,0.000495044,0.0433268,21.0016,570.036,0.000411903,0.0,0.0
450,112.25,20.2048,20.8033,143.688,105.125,105.294,0.000495958,0.0433921,21.0015,570.036,-0.0145354,0.0,0.0
452,112.75,20.1258,21.0401,143.609,105.108,104.887,0.000496698,0.0434096,21.0015,570.026,0.0190411,0.0,0.0
454,113.25,20.0695,20.8017,138.417,105.116,104.876,0.000496021,0.0434397,21.0015,570.016,0.0206992,0.0,0.0
456,113.75,20.125,20.8419,145.769,105.097,105.161,0.000494324,0.043464,21.0015,570.016,-0.00545194,0.0,0.0
458,114.25,19.5328,20.5919,140.892,105.114,104.981,0.000499332,0.0434564,21.0015,570.006,0.0114433,0.0,0.0
460,114.75,20.3898,21.1597,143.205,105.084,104.826,0.000509133,0.0434503,21.0015,570.016,0.022231,0.0,0.0
462,115.25,19.8831,20.7096,142.341,105.079,104.698,0.000517072,0.0434454,21.0015,570.006,0.0328544,0.0,0.0
464,115.75,20.1242,21.034,142.339,105.075,104.798,0.000536847,0.0434413,21.0014,569.996,0.0239595,0.0,0.0
466,116.25,20.148,20.7238,144.379,105.065,104.525,0.000552865,0.0434381,21.0014,570.006,0.0466349,0.0,0.0
468,116.75,20.3377,21.0409,144.164,105.044,104.343,0.000565839,0.0434354,21.0014,570.006,0.0605122,0.0,0.0
470,117.25,19.6396,20.7335,144.236,105.029,105.152,0.00059334,0.0434333,21.0014,570.016,-0.0106259,0.0,0.0
472,117.75,20.6727,21.2102,140.266,105.013,104.829,0.000615615,0.0434531,21.0017,570.006,0.0158803,0.0,0.0
474,118.25,19.9001,20.7417,142.673,104.996,105.084,0.000643371,0.0434885,21.0019,570.016,-0.00749679,0.0,0.0
476,118.75,20.2703,20.972,144.889,104.987,104.639,0.000665853,0.0435028,21.002,570.006,0.0300713,0.0,0.0
478,119.25,19.9355,20.9867,142.132,104.972,104.722,0.000688921,0.0435015,21.0022,570.016,0.0215964,0.0,0.0
480,119.75,20.1721,20.8571,142.731,104.943,104.689,,0.0435005,,570.006,0.0219363,0.0,0.0
482,120.25,20.2207,21.4477,142.278,104.928,104.571,,0.0434996,,570.026,0.0308881,0.0,0.0
484,120.75,20.4767,21.11,147.1,104.887,104.289,,0.0434444,,570.016,0.0516487,0.0,0.0
486,121.25,20.6056,20.7651,141.661,104.865,104.6,,0.0433997,,570.026,0.0229603,0.0,0.0
488,121.75,20.0955,20.7927,143.038,104.839,104.66,,0.043418,,570.016,0.0155057,0.0,0.0
490,122.25,19.8901,20.5327,146.262,104.811,104.581,,0.0434328,,570.016,0.0198643,0.0,0.0
492,122.75,20.8073,20.9303,142.97,104.783,104.749,,,,570.016,0.00292928,0.0,0.0
494,123.25,20.1565,21.1225,141.041,104.758,104.524,,,,569.976,0.0201871,0.0,0.0
496,123.75,19.8026,20.6701,142.096,104.719,104.531,,,,569.976,0.0162645,0.0,0.0
498,124.25,20.0222,21.0232,145.795,104.701,104.558,,,,569.976,0.0124308,0.0,0.0
500,124.75,19.7201,20.6211,141.441,104.667,104.355,,,,569.946,0.0270573,0.0,0.0
502,125.25,20.0185,20.91,142.827,104.642,104.525,,,,569.956,0.0101013,0.0,0.0
504,125.75,19.8876,20.477,142.851,104.605,104.253,,,,569.916,0.0304926,0.0,0.0
506,126.25,20.3562,20.5886,143.382,104.568,103.975,,,,569.936,0.0513935,0.0,0.0
508,126.75,19.9584,20.6831,142.066,104.534,104.08,,,,569.936,0.0393597,0.0,0.0
510,127.25,20.2082,20.8188,141.587,104.484,104.178,,,,569.926,0.0265832,0.0,0.0
512,127.75,20.1282,20.1951,146.315,104.445,103.888,,,,569.906,0.0483286,0.0,0.0
514,128.25,19.765,21.2522,142.126,104.41,103.98,,,,569.896,0.0373454,0.0,0.0
516,128.75,19.8936,20.8628,142.482,104.361,104.014,,,,569.916,0.0301756,0.0,0.0
518,129.25,20.4676,20.4676,138.774,104.311,103.962,,,,569.926,0.0303088,0.0,0.0
520,129.75,19.4119,20.517,148.784,104.279,103.85,,,,569.916,0.0372949,0.0,0.0
522,130.25,19.6934,20.775,144.507,104.268,104.043,,,,569.916,0.0195652,0.0,0.0
523,130.5,19.9945,20.4791,142.004,104.266,104.066,,,,569.916,0.0173581,0.0,0.0