File: 01_Data/Window_Screen/Cone/Window_Screen_Cone_HF75Scan_220524_R3.csv
Names,Time,Stack TC,Smoke TC,Exh Press,Smoke Comp,Smoke Meas,CO Meter,CO2 Meter,O2 Meter,Sample Mass,Ext Coeff,Start Test,Flame Verif
Chan Gain,,500,500,1,1,1,1,1,1,1,1,1.0,1.0
Offset,,0,0,0.13752,0,0,0,0,0,0,0,0.0,0.0
Gain,,1,1,25.011,13.8491,15.2622,1,1,1,1.00087,1.03118,1.0,1.0
Units,sec,C,C,Pa,%,%,%,%,%,g,/m,,
Baseline,,45.227,47.0678,132.943,104.653,107.155,0.000813532,0.0440265,20.9955,-451.73,-0.213674,,
2,0.25,44.5615,47.0898,114.99,104.187,71.9788,0.0124299,0.105001,20.8787,561.549,3.34513,0.0,1.0
4,0.75,43.8152,46.2004,114.748,104.193,44.93,0.0139027,0.125083,20.8555,561.519,7.60855,0.0,1.0
6,1.25,43.8423,45.4741,117.079,104.192,46.5117,0.0150957,0.144295,20.8367,561.539,7.29543,0.0,1.0
8,1.75,44.1373,45.937,121.177,104.194,63.9635,0.0156215,0.156475,20.8215,561.489,4.41366,0.0,1.0
10,2.25,44.9156,45.9747,127.094,104.18,88.5358,0.0160473,0.163298,20.8092,561.559,1.47181,0.0,1.0
12,2.75,45.2292,46.7173,129.189,104.186,99.7486,0.0157973,0.168825,20.808,561.499,0.393683,0.0,1.0
14,3.25,45.5154,46.4308,129.47,104.174,101.039,0.0155948,0.162699,20.8148,561.549,0.276446,0.0,1.0
16,3.75,45.9187,46.3451,128.71,104.184,104.403,0.0148035,0.157737,20.8254,561.529,-0.0190213,0.0,1.0
18,4.25,45.7607,47.1525,131.624,104.165,104.968,0.0141625,0.150549,20.8385,561.559,-0.0694902,0.0,1.0
20,4.75,46.1044,46.6826,130.459,104.186,105.422,0.0131153,0.141873,20.8519,561.529,-0.106704,0.0,1.0
22,5.25,45.3231,45.8027,128.377,104.171,106.323,0.0122671,0.131238,20.8652,561.569,-0.18495,0.0,1.0
24,5.75,43.9871,45.0899,127.551,104.182,104.893,0.0115801,0.122624,20.876,561.529,-0.0615212,0.0,0.0
26,6.25,44.2632,45.6591,130.534,104.174,106.118,0.0107461,0.114387,20.8847,561.539,-0.167239,0.0,0.0
28,6.75,43.9671,45.7282,130.188,104.193,105.986,0.00982096,0.106582,20.8918,561.479,-0.154348,0.0,0.0
30,7.25,43.3316,43.856,133.987,104.167,106.525,0.00907156,0.099542,20.901,561.549,-0.202458,0.0,0.0
32,7.75,43.057,43.8063,134.005,104.201,106.148,0.00846455,0.0931939,20.9085,561.809,-0.167474,0.0,0.0
34,8.25,42.5167,44.0139,130.292,104.158,106.218,0.00767983,0.0880519,20.9184,561.329,-0.177091,0.0,0.0
36,8.75,43.0072,43.9486,134.259,104.171,105.834,0.00704421,0.0827469,20.9264,561.599,-0.143251,0.0,0.0
38,9.25,43.1894,44.1575,129.647,104.168,106.825,0.00643918,0.0784498,20.9346,561.559,-0.227899,0.0,0.0
40,9.75,42.5899,44.4132,133.947,104.182,105.908,0.00594911,0.0749692,20.9413,561.559,-0.148661,0.0,0.0
42,10.25,42.5669,44.9038,130.018,104.164,106.326,0.0054942,0.0721499,20.948,561.659,-0.185815,0.0,0.0
44,10.75,42.9526,44.0219,127.984,104.196,106.262,0.00512572,0.0689479,20.9534,561.509,-0.177669,0.0,0.0
46,11.25,42.5433,43.6203,130.836,104.165,106.313,0.00478047,0.0663543,20.9583,561.629,-0.184593,0.0,0.0
48,11.75,42.6922,44.0472,129.738,104.187,106.765,0.00450082,0.0640071,20.9626,561.449,-0.221121,0.0,0.0
50,12.25,41.8231,43.0463,132.606,104.159,105.825,0.00423003,0.0621059,20.9664,561.569,-0.143519,0.0,0.0
52,12.75,41.8934,43.6731,132.573,104.171,106.857,0.0040107,0.0604017,20.9696,561.479,-0.230211,0.0,0.0
54,13.25,41.6748,43.4087,131.339,104.167,107.009,0.00383303,0.0590213,20.9723,561.539,-0.243498,0.0,0.0
56,13.75,41.8422,43.2915,128.702,104.169,106.519,0.00361546,0.0578074,20.9748,561.469,-0.201801,0.0,0.0
58,14.25,41.9916,43.5792,134.205,104.156,107.038,0.00343923,0.0568241,20.9769,561.519,-0.246893,0.0,0.0
60,14.75,41.9384,42.9217,132.817,104.163,106.622,0.00323398,0.056014,20.9786,561.519,-0.211052,0.0,0.0
62,15.25,42.3153,43.3235,129.645,104.152,106.547,0.00306773,0.0553578,20.9799,561.509,-0.205678,0.0,0.0
64,15.75,42.1821,43.2158,132.39,104.16,105.825,0.00289956,0.0547543,20.9811,561.499,-0.143449,0.0,0.0
66,16.25,42.1569,43.786,129.615,104.155,106.669,0.00273317,0.0542007,20.9824,561.459,-0.215815,0.0,0.0
68,16.75,41.9031,43.537,130.442,104.163,106.627,0.00259839,0.0537522,20.9835,561.499,-0.211523,0.0,0.0
70,17.25,41.9024,43.7179,132.132,104.153,107.308,0.00245502,0.0532811,20.9847,561.479,-0.26995,0.0,0.0
72,17.75,41.5117,43.0837,131.368,104.163,105.771,0.00233888,0.0528023,20.9859,561.509,-0.138572,0.0,0.0
74,18.25,42.0248,43.0199,132.402,104.151,106.391,0.00222894,0.0523569,20.9869,561.499,-0.192499,0.0,0.0
76,18.75,41.8006,43.3021,133.171,104.161,105.465,0.00213989,0.0519443,20.9877,561.479,-0.112546,0.0,0.0
78,19.25,41.7054,43.4572,133.394,104.152,106.096,0.00205311,0.0516102,20.9884,561.439,-0.167284,0.0,0.0
80,19.75,41.8585,43.799,132.176,104.167,106.034,0.00198282,0.0511353,20.9889,561.449,-0.16064,0.0,0.0
82,20.25,41.9624,43.6037,132.818,104.148,105.896,0.00192589,0.0507507,20.9894,561.439,-0.150523,0.0,0.0
84,20.75,42.0375,43.6727,135.553,104.158,106.825,0.00186025,0.0503529,20.9899,561.449,-0.228704,0.0,0.0
86,21.25,41.6168,43.6396,133.836,104.145,106.743,0.00180709,0.049953,20.9906,561.469,-0.2229,0.0,0.0
88,21.75,42.1987,43.6553,133.371,104.179,106.634,0.00174086,0.0495199,20.9912,561.469,-0.210682,0.0,0.0
90,22.25,42.2443,43.6129,127.35,104.15,107.113,0.00168722,0.0491691,20.9916,561.489,-0.253781,0.0,0.0
92,22.75,41.5409,43.3718,132.2,104.152,106.74,0.00161331,0.0488489,20.9922,561.479,-0.222034,0.0,0.0
94,23.25,42.0368,43.7792,133.695,104.154,105.657,0.00155345,0.0485573,20.9929,561.479,-0.129612,0.0,0.0
96,23.75,41.7353,43.4811,128.788,104.156,106.25,0.00147088,0.0483211,20.9934,561.479,-0.180051,0.0,0.0
98,24.25,41.6973,43.9403,132.116,104.145,105.815,0.00140399,0.0480069,20.9939,561.419,-0.143854,0.0,0.0
100,24.75,42.2587,43.5395,131.885,104.155,105.605,0.00132428,0.0477524,20.9945,561.449,-0.125039,0.0,0.0
102,25.25,41.7141,44.2636,129.054,104.148,106.74,0.00125971,0.0475053,20.9952,561.439,-0.222328,0.0,0.0
104,25.75,42.0254,43.9865,132.265,104.147,105.866,0.00119283,0.0473052,20.9957,561.429,-0.148126,0.0,0.0
106,26.25,41.9417,43.3598,132.881,104.151,106.506,0.00113865,0.0470884,20.9962,561.459,-0.202274,0.0,0.0
108,26.75,42.0759,43.6471,136.228,104.149,106.038,0.00109476,0.0469129,20.9965,561.429,-0.162578,0.0,0.0
110,27.25,42.0267,43.5251,130.49,104.147,106.284,0.00105474,0.0467061,20.9968,561.429,-0.183753,0.0,0.0
112,27.75,42.1626,43.2991,130.423,104.144,106.017,0.00101829,0.0464804,20.9971,561.409,-0.161228,0.0,0.0
114,28.25,41.8227,43.5939,129.314,104.14,106.621,0.000992607,0.046243,20.9973,561.369,-0.212952,0.0,0.0
116,28.75,42.1789,43.6845,131.287,104.151,106.397,0.000975255,0.0460507,20.9974,561.409,-0.19301,0.0,0.0
118,29.25,42.165,43.7764,130.204,104.141,106.024,0.000963759,0.045895,20.9976,561.419,-0.162045,0.0,0.0
120,29.75,41.9968,43.9255,132.427,104.146,105.98,0.000956749,0.0457143,20.9977,561.409,-0.157905,0.0,0.0
122,30.25,42.2322,43.8003,130.642,104.147,106.048,0.000951072,0.0455679,20.9977,561.419,-0.163633,0.0,0.0
124,30.75,41.7956,43.6978,136.326,104.145,106.357,0.000939437,0.0454206,20.9978,561.419,-0.190082,0.0,0.0
126,31.25,41.8102,44.0442,135.609,104.144,106.646,0.000923682,0.0452754,20.9976,561.399,-0.214755,0.0,0.0
128,31.75,41.776,44.0816,132.033,104.154,105.703,0.00090197,0.0451507,20.9974,561.439,-0.133563,0.0,0.0
130,32.25,42.3146,43.5507,130.184,104.143,105.374,0.000876329,0.0450432,20.9972,561.429,-0.106331,0.0,0.0
132,32.75,41.8754,43.6628,135.841,104.141,106.359,0.000847253,0.0449561,20.9971,561.439,-0.190607,0.0,0.0
134,33.25,42.0811,43.4693,132.488,104.152,106.502,0.000816224,0.0448927,20.9975,561.409,-0.201881,0.0,0.0
136,33.75,41.7454,43.6519,129.605,104.149,106.489,0.000791092,0.0448479,20.9977,561.439,-0.20103,0.0,0.0
138,34.25,42.0904,43.617,132.176,104.15,105.737,0.000758598,0.0447972,20.9979,561.449,-0.136799,0.0,0.0
140,34.75,41.9632,43.9274,129.77,104.15,106.108,0.000732278,0.0447432,20.9981,561.469,-0.168463,0.0,0.0
142,35.25,41.7274,43.7888,132.445,104.159,105.643,0.000702466,0.0446636,20.9983,561.429,-0.127939,0.0,0.0
144,35.75,41.6598,43.766,130.949,104.155,105.648,0.000678318,0.0445668,20.9984,561.429,-0.128742,0.0,0.0
146,36.25,42.2816,43.5981,132.265,104.14,105.561,0.00065148,0.0444884,20.9985,561.439,-0.122609,0.0,0.0
148,36.75,42.2945,44.3208,130.463,104.141,106.645,0.000629742,0.0443976,20.9981,561.429,-0.214933,0.0,0.0
150,37.25,41.8974,44.3275,132.414,104.147,106.112,0.000612133,0.0443241,20.9978,561.429,-0.169111,0.0,0.0
152,37.75,42.0087,43.4461,134.052,104.143,106.482,0.000607575,0.0442782,20.9978,561.449,-0.200952,0.0,0.0
154,38.25,42.3161,43.8455,131.479,104.147,105.914,0.000603883,0.044241,20.998,561.439,-0.152108,0.0,0.0
156,38.75,42.1387,43.4851,134.827,104.136,106.125,0.000615454,0.044218,20.998,561.419,-0.171177,0.0,0.0
158,39.25,42.2177,44.1191,129.922,104.141,106.362,0.000624827,0.0442059,20.9977,561.429,-0.190848,0.0,0.0
160,39.75,42.2513,43.8863,132.446,104.143,105.632,0.000638169,0.0441889,20.9975,561.399,-0.128454,0.0,0.0
162,40.25,42.489,43.9839,132.833,104.148,105.606,0.00065415,0.0441687,20.9973,561.389,-0.125703,0.0,0.0
164,40.75,42.3746,43.8264,129.3,104.163,105.681,0.000667095,0.0441523,20.9972,561.379,-0.130802,0.0,0.0
166,41.25,42.1606,43.7764,129.349,104.157,105.897,0.000683651,0.0441254,20.9971,561.369,-0.149831,0.0,0.0
168,41.75,42.0058,43.5877,134.347,104.138,106.722,0.000697062,0.0441036,20.997,561.389,-0.221746,0.0,0.0
170,42.25,42.2258,43.596,129.066,104.148,106.313,0.000704282,0.0440572,20.9971,561.399,-0.186061,0.0,0.0
172,42.75,42.0961,43.8043,132.312,104.141,107.775,0.00071013,0.0439938,20.9975,561.389,-0.310308,0.0,0.0
174,43.25,42.1125,43.9308,130.536,104.158,106.627,0.00071295,0.0439425,20.9977,561.399,-0.211888,0.0,0.0
176,43.75,42.3332,43.7762,130.534,104.151,106.767,0.000713509,0.0439418,20.998,561.389,-0.224359,0.0,0.0
178,44.25,42.0247,43.7599,134.36,104.164,107.185,0.00071032,0.0439412,20.9981,561.389,-0.258585,0.0,0.0
180,44.75,42.6129,44.2148,128.507,104.164,106.466,0.000707737,0.0439544,20.9983,561.399,-0.197734,0.0,0.0
182,45.25,42.3203,44.0952,128.724,104.171,106.087,0.000705645,0.0439651,20.9984,561.399,-0.164915,0.0,0.0
184,45.75,42.532,43.9822,134.192,104.156,106.367,0.00070395,0.0439522,20.9985,561.379,-0.189999,0.0,0.0
186,46.25,42.6033,44.1323,128.969,104.168,105.945,0.000718361,0.0439224,20.9986,561.369,-0.153014,0.0,0.0
188,46.75,42.6415,43.9606,132.832,104.151,107.016,0.000730034,0.0439126,20.9986,561.369,-0.245522,0.0,0.0
190,47.25,42.4811,44.0609,131.598,104.168,106.482,0.000739489,0.0439176,20.9987,561.379,-0.198713,0.0,0.0
192,47.75,42.3358,43.9247,131.359,104.152,105.448,0.000765088,0.0439288,20.9987,561.349,-0.111838,0.0,0.0
194,48.25,41.9186,43.9367,130.309,104.161,105.755,0.000801971,0.0439444,20.9987,561.349,-0.137322,0.0,0.0
196,48.75,42.1578,44.1264,138.056,104.147,106.674,0.000840164,0.0439498,20.9988,561.389,-0.216834,0.0,0.0
198,49.25,42.4522,44.1853,132.067,104.168,105.85,0.000878588,0.0439477,20.9986,561.359,-0.144862,0.0,0.0
200,49.75,42.199,43.8952,132.249,104.155,106.673,0.000914832,0.043946,20.9985,561.349,-0.216094,0.0,0.0
202,50.25,42.6698,44.4754,128.246,104.166,106.696,0.000948799,0.0439583,20.9984,561.359,-0.217039,0.0,0.0
204,50.75,42.2808,44.1868,130.176,104.152,106.906,0.000976311,0.0439683,20.9984,561.349,-0.236113,0.0,0.0
206,51.25,42.4379,44.3257,132.251,104.17,105.73,0.000993732,0.0439615,20.9983,561.359,-0.13444,0.0,0.0
208,51.75,42.6484,43.6774,130.095,104.148,106.22,0.00100784,0.0439428,20.9982,561.339,-0.178171,0.0,0.0
210,52.25,42.1658,44.368,131.392,104.165,105.913,0.00099617,0.0439133,20.9982,561.339,-0.150527,0.0,0.0
212,52.75,42.4332,44.0577,135.238,104.153,106.275,0.000986716,0.0438765,20.9982,561.359,-0.182486,0.0,0.0
214,53.25,42.4374,43.9772,129.325,104.159,106.252,0.000979058,0.0438466,20.9981,561.369,-0.179913,0.0,0.0
216,53.75,42.9785,44.3629,135.989,104.152,105.71,0.000931553,0.0438634,20.998,561.359,-0.134268,0.0,0.0
218,54.25,42.4026,43.8352,134.119,104.167,106.862,0.000893073,0.0438769,20.9977,561.379,-0.231048,0.0,0.0
220,54.75,42.6347,44.3586,132.963,104.156,107.109,0.000848491,0.0438879,20.9975,561.359,-0.252913,0.0,0.0
222,55.25,42.1319,44.4979,131.135,104.171,106.27,0.000800306,0.0438968,20.9973,561.359,-0.180435,0.0,0.0
224,55.75,42.4355,44.075,133.223,104.154,106.515,0.000754254,0.043904,20.9972,561.349,-0.202765,0.0,0.0
226,56.25,42.436,44.379,134.933,104.167,107.384,0.000710631,0.0439235,20.9971,561.359,-0.275175,0.0,0.0
228,56.75,42.3974,44.2363,133.381,104.149,106.676,0.000674659,0.0439393,20.997,561.319,-0.216921,0.0,0.0
230,57.25,42.6387,44.2318,128.312,104.166,107.23,0.000644947,0.0439161,20.9969,561.319,-0.262251,0.0,0.0
232,57.75,42.4163,44.4088,129.167,104.163,105.964,0.00062088,0.0438651,20.9969,561.299,-0.155048,0.0,0.0
234,58.25,42.2226,44.4275,135.162,104.178,106.661,0.000615941,0.0438238,20.9968,561.309,-0.213085,0.0,0.0
236,58.75,42.4623,44.1122,128.769,104.163,107.005,0.000611941,0.0437903,20.9968,561.329,-0.243549,0.0,0.0
238,59.25,42.3802,44.3069,134.18,104.17,105.621,0.000623393,0.0437632,20.9967,561.299,-0.125107,0.0,0.0
240,59.75,42.3477,44.0126,130.911,104.167,106.889,0.000645892,0.0437549,20.9967,561.309,-0.233334,0.0,0.0
242,60.25,42.6278,44.2283,128.792,104.179,107.58,0.000664116,0.0437482,20.9967,561.299,-0.290575,0.0,0.0
244,60.75,42.6875,44.4873,130.966,104.164,107.133,0.000697095,0.0437564,20.9967,561.309,-0.254224,0.0,0.0
246,61.25,42.376,43.8564,134.342,104.182,107.561,0.000723808,0.043763,20.9967,561.289,-0.288676,0.0,0.0
248,61.75,42.0405,44.2162,131.427,104.176,107.14,0.000752479,0.0437683,20.9966,561.299,-0.253823,0.0,0.0
250,62.25,42.7014,44.3121,131.646,104.181,106.204,0.000782034,0.0437727,20.9966,561.289,-0.173957,0.0,0.0
252,62.75,42.9526,44.3385,132.217,104.176,106.032,0.000810451,0.0437619,20.9966,561.289,-0.159747,0.0,0.0
254,63.25,42.392,44.475,133.626,104.171,106.138,0.000837499,0.0437402,20.9966,561.289,-0.169245,0.0,0.0
256,63.75,42.1275,44.6498,129.952,104.165,106.092,0.00084903,0.0437226,20.9966,561.299,-0.165826,0.0,0.0
258,64.25,42.7497,43.7921,132.122,104.171,106.232,0.000866189,0.0436868,20.9966,561.309,-0.177221,0.0,0.0
260,64.75,42.4354,44.1792,132.728,104.174,106.261,0.000877786,0.0436385,20.9966,561.289,-0.179419,0.0,0.0
262,65.25,42.7382,44.4115,131.145,104.179,107.165,0.000865309,0.0435993,20.9966,561.269,-0.255689,0.0,0.0
264,65.75,42.2687,44.6181,134.366,104.172,107.073,0.000855203,0.0435676,20.9966,561.279,-0.248489,0.0,0.0
266,66.25,42.8825,43.8532,133.093,104.181,107.167,0.000829125,0.0435419,20.9966,561.269,-0.255587,0.0,0.0
268,66.75,42.6134,44.2483,130.781,104.176,105.796,0.0007919,0.0435238,20.9966,561.299,-0.139619,0.0,0.0
270,67.25,42.284,44.4683,131.682,104.182,107.12,0.000743873,0.0434928,20.9966,561.289,-0.251581,0.0,0.0
272,67.75,42.79,44.5644,130.527,104.188,106.827,0.000688885,0.0434964,20.9966,561.259,-0.226219,0.0,0.0
274,68.25,42.6242,44.2888,126.761,104.19,106.781,0.000644344,0.0435251,20.9966,561.239,-0.222243,0.0,0.0
276,68.75,42.7107,43.9809,131.839,104.179,107.154,0.000601249,0.0435556,20.9966,561.239,-0.254672,0.0,0.0
278,69.25,42.7667,44.3894,129.896,104.18,107.177,0.000560026,0.0435867,20.9966,561.269,-0.256562,0.0,0.0
280,69.75,42.3894,44.7296,131.621,104.179,107.053,0.000526635,0.0436191,20.9966,561.289,-0.246096,0.0,0.0
282,70.25,43.0196,44.8026,135.244,104.182,106.892,0.000517703,0.0436518,20.9967,561.299,-0.232286,0.0,0.0
284,70.75,43.1886,44.0535,131.54,104.174,106.614,0.000510468,0.0436783,20.9968,561.309,-0.209462,0.0,0.0
286,71.25,42.5722,44.2784,132.397,104.182,106.852,0.00053372,0.0436725,20.997,561.289,-0.228862,0.0,0.0
288,71.75,42.9931,44.4369,133.994,104.189,107.254,0.000552554,0.0436678,20.997,561.269,-0.262236,0.0,0.0
290,72.25,42.4913,45.1258,129.452,104.18,107.063,0.000593302,0.0436572,20.9971,561.279,-0.246926,0.0,0.0
292,72.75,42.5956,44.3806,135.106,104.188,107.017,0.000626307,0.0436425,20.9972,561.279,-0.242369,0.0,0.0
294,73.25,42.9453,44.5722,130.653,104.181,106.904,0.000674907,0.0436307,20.9972,561.249,-0.233388,0.0,0.0
296,73.75,42.7881,44.3899,133.187,104.194,106.808,0.000714273,0.043621,20.9973,561.239,-0.224165,0.0,0.0
298,74.25,42.5912,43.8733,131.373,104.186,106.334,0.000754666,0.0436133,20.9973,561.249,-0.184577,0.0,0.0
300,74.75,43.0132,44.8051,129.667,104.184,107.029,0.000787384,0.0436141,20.9973,561.259,-0.243647,0.0,0.0
302,75.25,42.4611,44.4874,128.141,104.192,106.612,0.000813886,0.0436213,20.9974,561.229,-0.207689,0.0,0.0
304,75.75,42.7203,44.636,130.099,104.183,107.23,0.00082077,0.0436199,20.9974,561.219,-0.260746,0.0,0.0
306,76.25,42.6281,44.4935,131.526,104.185,106.963,0.000826347,0.0436123,20.9974,561.219,-0.238061,0.0,0.0
308,76.75,42.3913,44.4608,133.838,104.191,106.161,0.000830864,0.0436134,20.9974,561.229,-0.169388,0.0,0.0
310,77.25,42.3616,44.397,131.674,104.178,107.624,0.000824294,0.0436207,20.9975,561.219,-0.294328,0.0,0.0
312,77.75,42.5904,44.6372,133.397,104.191,107.806,0.000809768,0.0436194,20.9975,561.229,-0.308521,0.0,0.0
314,78.25,42.4145,44.5063,131.723,104.184,106.696,0.000798641,0.0436119,20.9976,561.219,-0.215533,0.0,0.0
316,78.75,43.0811,44.2958,130.993,104.191,106.891,0.000790204,0.0436059,20.9977,561.208,-0.231402,0.0,0.0
318,79.25,42.7062,44.4629,131.025,104.183,107.053,0.000783369,0.043601,20.9977,561.239,-0.245806,0.0,0.0
320,79.75,42.6625,44.3285,130.667,104.193,107.18,0.000776687,0.0436113,20.9977,561.259,-0.255697,0.0,0.0
322,80.25,42.5417,44.4712,130.303,104.186,106.225,0.000771275,0.0436327,20.9978,561.239,-0.175341,0.0,0.0
324,80.75,42.8466,44.4528,131.929,104.204,106.57,0.000765613,0.0436356,20.9978,561.219,-0.203142,0.0,0.0
326,81.25,42.8147,44.0669,131.546,104.186,106.045,0.000759877,0.043625,20.9976,561.229,-0.159942,0.0,0.0
328,81.75,42.2754,44.3973,130.981,104.2,107.029,0.000762261,0.0436165,20.9975,561.239,-0.242252,0.0,0.0
330,82.25,42.9022,44.614,132.644,104.185,106.644,0.000770519,0.0436096,20.9974,561.208,-0.211037,0.0,0.0
332,82.75,42.4187,44.7471,127.116,104.197,107.493,0.000777208,0.043604,20.9974,561.229,-0.281746,0.0,0.0
334,83.25,42.7795,44.3666,131.591,104.191,107.485,0.000808142,0.043585,20.9973,561.239,-0.281516,0.0,0.0
336,83.75,42.8236,44.6902,130.866,104.196,106.684,0.000833198,0.0435696,20.9972,561.189,-0.213443,0.0,0.0
338,84.25,42.7234,44.5202,132.897,104.186,106.533,0.000869297,0.0435572,20.9972,561.189,-0.201559,0.0,0.0
340,84.75,42.9695,44.9579,129.44,104.209,107.183,0.000898537,0.0435471,20.9972,561.199,-0.254539,0.0,0.0
342,85.25,43.3478,44.592,129.609,104.187,107.104,0.000928302,0.043539,20.9971,561.189,-0.249804,0.0,0.0
344,85.75,42.7949,44.6438,133.482,104.205,106.938,0.000952411,0.043546,20.9971,561.199,-0.234132,0.0,0.0
346,86.25,42.9703,45.1043,129.553,104.186,106.827,0.00097194,0.0435517,20.9971,561.199,-0.226403,0.0,0.0
348,86.75,42.6492,44.5608,132.652,104.193,105.97,0.000987758,0.0435706,20.9971,561.199,-0.152993,0.0,0.0
350,87.25,42.9552,44.4989,130.911,104.193,106.346,0.00100179,0.0435989,20.9971,561.189,-0.184984,0.0,0.0
352,87.75,42.656,44.923,132.741,104.194,106.329,0.00101315,0.0436362,20.9971,561.208,-0.183444,0.0,0.0
354,88.25,42.846,44.903,130.029,104.201,107.308,0.00102114,0.0436793,20.9971,561.189,-0.265691,0.0,0.0
356,88.75,43.6392,44.727,129.876,104.204,106.708,0.00102761,0.0437213,20.9971,561.169,-0.214723,0.0,0.0
358,89.25,42.7875,44.9546,134.264,104.192,107.214,0.00103285,0.0437619,20.9971,561.179,-0.258641,0.0,0.0
360,89.75,43.162,44.6548,131.203,104.212,107.327,0.00102737,0.0437947,20.9971,561.169,-0.266346,0.0,0.0
362,90.25,42.5876,44.41,131.589,104.182,107.153,0.00102293,0.0438213,20.997,561.159,-0.254373,0.0,0.0
364,90.75,42.3725,44.8542,129.915,104.204,106.417,0.00101447,0.0438292,20.997,561.179,-0.190087,0.0,0.0
366,91.25,42.5186,45.1755,131.664,104.19,106.422,0.00100762,0.0438357,20.9966,561.169,-0.191735,0.0,0.0
368,91.75,43.3828,44.9482,133.629,104.199,107.626,0.00100462,0.0438408,20.9963,561.189,-0.292723,0.0,0.0
370,92.25,42.8891,44.6263,130.821,104.195,107.438,0.0010045,0.0438451,20.996,561.199,-0.277303,0.0,0.0
372,92.75,42.6891,44.6348,137.106,104.201,107.133,0.00100889,0.0438485,20.9957,561.179,-0.250995,0.0,0.0
374,93.25,42.6027,45.0706,131.388,104.197,107.012,0.00101647,0.0438727,20.9955,561.179,-0.241092,0.0,0.0
376,93.75,43.1263,44.5894,137.761,104.202,105.846,0.00102261,0.0439118,20.9954,561.169,-0.141567,0.0,0.0
378,94.25,42.952,44.588,130.985,104.199,107.451,0.00103002,0.0439004,20.9953,561.169,-0.277995,0.0,0.0
380,94.75,42.8519,44.8539,131.722,104.197,106.333,0.00103602,0.0438524,20.9952,561.169,-0.183584,0.0,0.0
382,95.25,43.2631,44.3557,129.927,104.19,107.066,0.00103845,0.0438135,20.9955,561.159,-0.246284,0.0,0.0
384,95.75,43.2256,44.2989,131.99,104.204,107.67,0.00104041,0.0437547,20.9958,561.169,-0.295967,0.0,0.0
386,96.25,43.105,44.8909,131.787,104.196,107.328,0.00103817,0.0437071,20.996,561.148,-0.267934,0.0,0.0
388,96.75,42.8829,44.6616,129.939,104.205,107.057,0.00103289,0.0437367,20.9962,561.138,-0.244213,0.0,0.0
390,97.25,42.4896,45.0185,131.25,104.206,106.552,0.00102798,0.0437607,20.9964,561.138,-0.201379,0.0,0.0
392,97.75,42.4619,44.9404,131.406,104.214,107.35,0.00102342,0.0437801,20.9965,561.128,-0.268238,0.0,0.0
394,98.25,42.7282,45.0083,129.347,104.174,107.705,0.00101973,0.0437959,20.9966,561.138,-0.301504,0.0,0.0
396,98.75,42.7488,45.2091,131.489,104.219,107.004,0.00102039,0.0438158,20.9967,561.128,-0.238551,0.0,0.0
398,99.25,43.3826,44.9094,131.069,104.196,107.038,0.00102092,0.0438384,20.9967,561.118,-0.243482,0.0,0.0
400,99.75,43.0996,44.8499,132.321,104.21,106.61,0.00102135,0.0438567,20.9968,561.138,-0.205914,0.0,0.0
402,100.25,43.0974,45.05,132.603,104.204,107.025,0.00103751,0.0438579,20.9969,561.128,-0.241684,0.0,0.0
404,100.75,43.1872,44.6577,129.725,104.213,107.228,0.0010506,0.0438589,20.997,561.118,-0.257987,0.0,0.0
406,101.25,43.4048,45.046,129.854,104.209,107.654,0.00107702,0.0438324,20.997,561.128,-0.294191,0.0,0.0
408,101.75,43.128,45.0981,131.473,104.223,106.755,0.00109843,0.0438109,20.9971,561.138,-0.217133,0.0,0.0
410,102.25,42.9397,44.7333,131.18,104.209,107.088,0.00112537,0.0437935,20.9971,561.128,-0.24648,0.0,0.0
412,102.75,43.0312,45.1549,130.653,104.219,106.687,0.00115585,0.0438067,20.9971,561.128,-0.211702,0.0,0.0
414,103.25,43.306,44.9861,134.222,104.221,106.464,0.00118053,0.0438174,20.9971,561.108,-0.192619,0.0,0.0
416,103.75,43.264,44.6393,132.399,104.218,107.668,0.00120053,0.0438046,20.9972,561.118,-0.294522,0.0,0.0
418,104.25,43.1845,45.4522,130.389,104.224,107.168,0.00121672,0.0437747,20.9972,561.128,-0.251923,0.0,0.0
420,104.75,43.049,44.6596,129.306,104.223,107.04,0.00122023,0.0437506,20.9972,561.118,-0.241255,0.0,0.0
422,105.25,43.1152,44.62,128.989,104.222,106.513,0.00121442,0.0437447,20.9972,561.118,-0.1967,0.0,0.0
424,105.75,42.7242,44.6193,130.956,104.224,107.106,0.00120075,0.0437399,20.9972,561.108,-0.24677,0.0,0.0
426,106.25,43.0608,44.6371,133.307,104.231,106.717,0.00118161,0.0437087,20.9972,561.108,-0.213205,0.0,0.0
428,106.75,43.1239,44.9217,131.523,104.22,106.707,0.0011597,0.0436835,20.9972,561.108,-0.21325,0.0,0.0
430,107.25,43.1519,44.9853,132.358,104.219,107.366,0.0011362,0.0436631,20.9972,561.128,-0.269095,0.0,0.0
432,107.75,43.5262,44.9413,132.696,104.223,106.541,0.00110692,0.0436465,20.9972,561.118,-0.198966,0.0,0.0
434,108.25,43.4565,44.7646,131.238,104.23,106.881,0.00107399,0.0436331,20.9972,561.128,-0.227197,0.0,0.0
436,108.75,43.1333,44.5666,131.53,104.23,106.945,0.00104029,0.0436086,20.9972,561.118,-0.232596,0.0,0.0
438,109.25,43.1386,44.746,134.671,104.226,106.631,0.00100665,0.0435888,20.9972,561.108,-0.206298,0.0,0.0
440,109.75,42.8883,45.4164,131.508,104.231,106.926,0.000979411,0.0435318,20.9972,561.108,-0.230871,0.0,0.0
442,110.25,43.6358,44.4722,132.895,104.253,106.449,0.000949672,0.0434856,20.9972,561.118,-0.188565,0.0,0.0
444,110.75,43.3643,44.8911,131.052,104.235,106.604,0.000918679,0.0434755,20.9972,561.098,-0.203312,0.0,0.0
446,111.25,42.9692,45.2341,130.805,104.251,107.053,0.000893574,0.0434817,20.9972,561.108,-0.239897,0.0,0.0
448,111.75,43.2384,45.2159,131.672,104.242,106.298,0.000869596,0.0434996,20.9972,561.108,-0.176649,0.0,0.0
450,112.25,42.9331,44.9692,129.567,104.256,107.148,0.000850174,0.0435141,20.9972,561.098,-0.247521,0.0,0.0
452,112.75,43.2113,44.4631,126.404,104.246,107.84,0.000838277,0.0434986,20.9972,561.108,-0.306643,0.0,0.0
454,113.25,42.8084,45.0187,134.221,104.249,107.286,0.000832092,0.043486,20.9972,561.098,-0.259739,0.0,0.0
456,113.75,43.0997,44.9095,132.178,104.248,106.777,0.000833476,0.0434902,20.9972,561.098,-0.216823,0.0,0.0
458,114.25,42.7592,44.7613,131.816,104.259,107.548,0.000840352,0.0435065,20.9972,561.078,-0.280941,0.0,0.0
460,114.75,43.0457,45.1218,129.664,104.25,107.087,0.000852956,0.0435197,20.9972,561.098,-0.242919,0.0,0.0
462,115.25,42.611,45.2083,137.392,104.272,106.285,,0.0435447,,561.108,-0.17297,0.0,0.0
464,115.75,43.2827,45.0149,133.184,104.259,107.36,,0.0435779,,561.138,-0.265175,0.0,0.0
466,116.25,42.7754,45.0541,129.019,104.277,107.324,,0.043612,,561.128,-0.2605,0.0,0.0
468,116.75,43.2342,45.3605,129.769,104.278,107.566,,0.043646,,561.098,-0.280778,0.0,0.0
470,117.25,42.7734,44.957,132.238,104.278,107.225,,0.0436664,,561.088,-0.252064,0.0,0.0
472,117.75,42.8562,45.1333,126.898,104.275,108.22,,0.0436765,,561.078,-0.335973,0.0,0.0
474,118.25,43.1422,45.3697,128.219,104.281,107.768,,,,561.048,-0.297542,0.0,0.0
476,118.75,43.0736,45.2284,131.592,104.272,107.122,,,,561.038,-0.243887,0.0,0.0
478,119.25,43.2363,45.1827,134.294,104.282,106.845,,,,561.068,-0.219575,0.0,0.0
480,119.75,43.4165,45.144,133.753,104.279,106.146,,,,561.058,-0.160566,0.0,0.0
482,120.25,43.0832,44.9376,132.399,104.289,106.269,,,,561.088,-0.170156,0.0,0.0
484,120.75,43.0057,45.1681,130.204,104.291,107.995,,,,561.108,-0.315682,0.0,0.0
486,121.25,43.0689,45.3664,132.87,104.304,106.863,,,,561.108,-0.219246,0.0,0.0
488,121.75,43.5964,44.6143,130.999,104.313,106.23,,,,561.098,-0.164739,0.0,0.0
490,122.25,43.1713,45.3334,133.404,104.306,107.56,,,,561.098,-0.27785,0.0,0.0
492,122.75,43.0527,45.0515,132.366,104.306,107.517,,,,561.118,-0.274247,0.0,0.0
494,123.25,42.6495,44.9984,131.433,104.314,107.928,,,,561.128,-0.308082,0.0,0.0
496,123.75,43.1334,44.912,132.391,104.299,107.356,,,,561.108,-0.261338,0.0,0.0
498,124.25,43.1857,45.4102,132.262,104.323,107.485,,,,561.088,-0.270037,0.0,0.0
500,124.75,43.5268,45.2973,133.075,104.317,106.957,,,,561.108,-0.22607,0.0,0.0
502,125.25,42.9517,45.4384,131.684,104.338,107.246,,,,561.118,-0.248588,0.0,0.0
504,125.75,42.9644,45.2474,131.665,104.338,108.602,,,,561.108,-0.362305,0.0,0.0
505,126,43.2498,45.3673,132.435,104.344,107.041,,,,561.118,-0.230773,0.0,0.0