File: 01_Data/Latex_Pillow_Outer_Fabric/MCC/Latex_Pillow_Outer_Fabric_MCC_30K_min_211210_R2.txt
Sample ID:	C:\MCC\MCC Cal\Test\LatexPillow_A_Outer_Fabric_MCC_30K_min_211210_R2.txt
Sample Weight (mg):	4.59
Heating Rate (C/s):	0.5
Combustor Temp (C):	900
N2 Flow Rate (cc/min):	80
O2 Flow Rate (cc/min):	20
Calibration File:	C:\MCC\MCC Cal\Coeff1 JN10440_30_210304.txt.txt
T Correction Coefficients:	0	1.024463	0
Time Shift (s):	14
*
Time (s)	Temperature (C)	N2 flow rate (cc/min)	O2 flow rate (cc/min)	Flow Rate (cc/min)	Oxygen (%)	HRR (W/g)	Heating rate (C/s)
0.000	108.570	80.023	19.998	103.117	20.263	0.027	0.008
2.000	108.536	80.008	19.995	103.129	20.263	0.012	-0.023
4.000	108.535	80.008	19.995	103.122	20.267	-0.287	-0.021
6.000	108.548	80.008	19.995	103.127	20.268	-0.342	0.013
8.000	108.568	80.006	19.994	103.127	20.265	-0.120	0.041
10.000	108.523	80.007	19.994	103.132	20.264	-0.037	-0.000
12.000	108.519	80.009	19.996	103.137	20.261	0.120	-0.006
14.000	108.559	80.007	19.994	103.162	20.258	0.361	0.014
16.000	108.579	80.007	19.994	103.156	20.256	0.475	0.001
18.000	108.649	80.006	19.995	103.185	20.251	0.844	0.056
20.000	108.703	80.007	19.994	103.200	20.250	0.902	0.003
22.000	108.798	80.008	19.995	103.225	20.247	1.146	0.050
24.000	108.882	80.009	19.995	103.254	20.240	1.657	0.035
26.000	109.040	80.008	19.994	103.260	20.234	2.071	0.066
28.000	109.157	80.007	19.996	103.266	20.233	2.150	0.091
30.000	109.374	80.008	19.994	103.287	20.233	2.089	0.116
32.000	109.557	80.007	19.994	103.288	20.233	2.141	0.076
34.000	109.778	80.009	19.994	103.288	20.233	2.083	0.134
36.001	110.017	80.009	19.995	103.288	20.232	2.205	0.122
38.000	110.314	80.008	19.995	103.294	20.230	2.358	0.143
40.001	110.574	80.007	19.994	103.317	20.233	2.151	0.150
42.001	110.916	80.007	19.994	103.331	20.229	2.378	0.170
44.000	111.250	80.008	19.994	103.324	20.228	2.451	0.155
46.000	111.653	80.008	19.994	103.326	20.225	2.646	0.176
48.001	112.036	80.008	19.994	103.331	20.226	2.610	0.211
50.001	112.505	80.006	19.994	103.342	20.223	2.834	0.214
52.000	112.937	80.009	19.995	103.346	20.221	2.938	0.234
54.001	113.447	80.007	19.996	103.352	20.226	2.644	0.246
56.000	113.939	80.008	19.996	103.357	20.222	2.863	0.259
58.000	114.498	80.008	19.995	103.356	20.222	2.921	0.258
60.000	115.013	80.009	19.995	103.365	20.219	3.131	0.263
62.000	115.585	80.010	19.994	103.358	20.220	2.998	0.271
64.000	116.178	80.010	19.994	103.355	20.220	3.049	0.312
66.000	116.742	80.010	19.994	103.353	20.223	2.836	0.277
68.001	117.382	80.008	19.995	103.358	20.222	2.869	0.290
70.000	118.022	80.008	19.994	103.348	20.223	2.855	0.308
72.000	118.685	80.007	19.995	103.354	20.219	3.114	0.342
74.000	119.325	80.009	19.995	103.362	20.222	2.919	0.334
76.001	120.012	80.007	19.995	103.361	20.213	3.538	0.340
78.001	120.701	80.005	19.996	103.364	20.213	3.507	0.381
80.001	121.403	80.006	19.996	103.366	20.213	3.523	0.319
82.000	122.151	80.009	19.995	103.365	20.214	3.453	0.372
84.000	122.911	80.008	19.996	103.371	20.213	3.519	0.380
86.001	123.643	80.007	19.996	103.369	20.214	3.444	0.349
88.000	124.377	80.006	19.996	103.362	20.218	3.148	0.361
90.000	125.125	80.006	19.995	103.367	20.219	3.103	0.358
92.001	125.891	80.005	19.996	103.373	20.218	3.142	0.383
94.000	126.651	80.009	19.994	103.369	20.216	3.301	0.390
96.000	127.512	80.009	19.994	103.377	20.211	3.633	0.426
98.001	128.308	80.009	19.996	103.375	20.213	3.521	0.410
100.000	129.149	80.009	19.995	103.380	20.213	3.552	0.417
102.001	130.018	80.007	19.994	103.381	20.213	3.536	0.429
104.000	130.889	80.006	19.994	103.382	20.213	3.519	0.426
106.000	131.737	80.007	19.994	103.377	20.214	3.456	0.422
108.000	132.583	80.007	19.993	103.377	20.213	3.531	0.427
110.000	133.409	80.008	19.995	103.390	20.215	3.359	0.435
112.000	134.322	80.008	19.995	103.380	20.214	3.482	0.462
114.001	135.217	80.006	19.994	103.377	20.213	3.519	0.462
116.000	136.101	80.006	19.995	103.394	20.214	3.457	0.432
118.000	137.021	80.008	19.994	103.380	20.214	3.436	0.435
120.000	137.922	80.009	19.995	103.383	20.209	3.772	0.462
122.001	138.861	80.008	19.994	103.380	20.213	3.523	0.475
124.000	139.776	80.009	19.994	103.375	20.213	3.550	0.441
126.000	140.717	80.008	19.995	103.375	20.209	3.782	0.470
128.000	141.636	80.008	19.995	103.368	20.216	3.333	0.457
130.000	142.597	80.011	19.996	103.380	20.213	3.529	0.474
132.000	143.573	80.010	19.995	103.374	20.214	3.451	0.487
134.000	144.514	80.006	19.994	103.367	20.209	3.770	0.475
136.000	145.491	80.006	19.994	103.381	20.214	3.445	0.486
138.000	146.432	80.010	19.994	103.376	20.211	3.654	0.475
140.001	147.402	80.007	19.994	103.384	20.209	3.805	0.473
142.000	148.373	80.010	19.995	103.369	20.209	3.789	0.480
144.000	149.394	80.011	19.995	103.368	20.207	3.950	0.530
146.000	150.384	80.010	19.995	103.364	20.212	3.561	0.501
148.000	151.313	80.011	19.995	103.367	20.206	3.996	0.456
150.000	152.300	80.009	19.996	103.364	20.211	3.687	0.498
152.000	153.261	80.007	19.995	103.368	20.211	3.675	0.502
154.000	154.196	80.007	19.995	103.365	20.210	3.723	0.469
156.000	155.226	80.006	19.995	103.373	20.209	3.810	0.507
158.000	156.208	80.002	19.994	103.364	20.209	3.836	0.495
160.000	157.191	80.009	19.995	103.366	20.209	3.814	0.518
162.000	158.155	80.009	19.994	103.367	20.205	4.104	0.470
164.000	159.184	80.007	19.996	103.365	20.207	3.972	0.518
166.000	160.169	80.005	19.994	103.365	20.210	3.768	0.509
168.001	161.174	80.007	19.994	103.366	20.210	3.735	0.493
170.000	162.154	80.006	19.995	103.369	20.208	3.866	0.477
172.000	163.171	80.009	19.994	103.318	20.207	3.910	0.489
174.000	164.115	80.006	19.994	103.336	20.211	3.663	0.502
176.000	165.179	80.008	19.996	103.409	20.206	4.044	0.507
178.000	166.186	80.006	19.997	103.368	20.208	3.846	0.498
180.000	167.198	80.006	19.996	103.359	20.209	3.786	0.505
182.000	168.197	80.003	19.995	103.361	20.207	3.943	0.508
184.000	169.189	80.005	19.995	103.343	20.209	3.786	0.461
186.000	170.242	80.009	19.995	103.361	20.205	4.082	0.504
188.000	171.239	80.005	19.995	103.359	20.207	3.975	0.492
190.000	172.216	80.005	19.995	103.340	20.205	4.058	0.492
192.000	173.242	80.007	19.994	103.336	20.209	3.778	0.498
194.000	174.244	80.008	19.993	103.331	20.207	3.915	0.511
196.000	175.274	80.005	19.995	103.329	20.211	3.631	0.508
198.000	176.268	80.009	19.995	103.327	20.202	4.259	0.504
200.000	177.280	80.006	19.994	103.330	20.205	4.080	0.478
202.000	178.272	80.009	19.995	103.328	20.205	4.116	0.539
204.000	179.274	80.010	19.994	103.328	20.206	3.995	0.511
206.000	180.254	80.011	19.994	103.332	20.207	3.911	0.515
208.000	181.289	80.008	19.994	103.327	20.210	3.755	0.544
210.000	182.270	80.009	19.996	103.327	20.213	3.538	0.503
212.000	183.276	80.008	19.994	103.325	20.212	3.610	0.485
214.000	184.293	80.008	19.994	103.331	20.211	3.641	0.507
216.000	185.300	80.009	19.995	103.326	20.209	3.770	0.481
218.000	186.354	80.005	19.995	103.326	20.213	3.521	0.518
220.000	187.416	80.008	19.995	103.325	20.215	3.413	0.481
222.000	188.397	80.007	19.995	103.326	20.213	3.511	0.510
224.000	189.373	80.011	19.994	103.323	20.214	3.476	0.521
226.000	190.400	80.010	19.993	103.324	20.212	3.571	0.502
228.000	191.358	80.009	19.994	103.327	20.213	3.507	0.490
230.000	192.389	80.011	19.993	103.323	20.213	3.540	0.483
232.000	193.383	80.008	19.994	103.327	20.210	3.743	0.517
234.000	194.394	80.008	19.995	103.320	20.213	3.535	0.518
236.000	195.340	80.008	19.995	103.315	20.216	3.345	0.504
238.000	196.339	80.007	19.995	103.328	20.213	3.529	0.486
240.000	197.309	80.007	19.995	103.318	20.213	3.552	0.492
242.000	198.271	80.007	19.996	103.325	20.213	3.488	0.445
244.000	199.271	80.007	19.997	103.328	20.212	3.581	0.494
246.000	200.258	80.008	19.997	103.328	20.216	3.308	0.494
248.000	201.241	80.007	19.996	103.328	20.211	3.631	0.502
250.000	202.232	80.007	19.996	103.328	20.215	3.409	0.520
252.000	203.218	80.009	19.995	103.318	20.216	3.333	0.496
254.000	204.203	80.007	19.994	103.313	20.213	3.492	0.498
256.000	205.208	80.007	19.995	103.318	20.216	3.308	0.492
258.000	206.164	80.006	19.994	103.322	20.218	3.161	0.483
260.000	207.195	80.008	19.996	103.319	20.219	3.087	0.513
262.000	208.180	80.007	19.994	103.316	20.217	3.248	0.511
264.000	209.118	80.007	19.995	103.321	20.222	2.879	0.503
266.000	210.160	80.006	19.996	103.321	20.220	3.024	0.526
268.000	211.114	80.007	19.995	103.311	20.220	3.032	0.480
270.000	212.119	80.005	19.996	103.302	20.219	3.070	0.498
272.000	213.098	80.007	19.996	103.304	20.220	3.053	0.487
274.001	214.124	80.008	19.996	103.322	20.221	2.987	0.510
276.000	215.077	80.007	19.996	103.310	20.221	2.927	0.477
278.000	216.068	80.007	19.996	103.302	20.217	3.259	0.493
280.000	217.039	80.007	19.995	103.302	20.223	2.792	0.470
282.001	218.012	80.008	19.996	103.295	20.220	3.003	0.474
284.000	218.997	80.008	19.994	103.295	20.222	2.894	0.497
286.000	219.965	80.009	19.996	103.299	20.226	2.634	0.492
288.000	220.951	80.009	19.994	103.299	20.224	2.720	0.480
290.000	221.934	80.009	19.995	103.291	20.225	2.690	0.486
292.000	222.902	80.010	19.994	103.302	20.225	2.687	0.496
294.000	223.926	80.008	19.994	103.301	20.223	2.803	0.546
296.000	224.913	80.009	19.995	103.311	20.226	2.585	0.511
298.000	225.887	80.008	19.994	103.295	20.226	2.579	0.493
300.000	226.930	80.008	19.995	103.310	20.230	2.334	0.495
302.000	227.946	80.009	19.995	103.301	20.229	2.426	0.514
304.000	228.951	80.010	19.994	103.292	20.234	2.030	0.521
306.000	229.989	80.009	19.995	103.293	20.233	2.117	0.501
308.000	231.001	80.010	19.993	103.296	20.227	2.517	0.501
310.000	231.966	80.009	19.994	103.298	20.231	2.222	0.478
312.000	232.991	80.009	19.995	103.291	20.232	2.181	0.487
314.000	234.027	80.010	19.994	103.291	20.233	2.146	0.511
316.000	235.024	80.010	19.994	103.294	20.231	2.249	0.487
318.000	235.994	80.010	19.995	103.293	20.236	1.940	0.500
320.000	237.030	80.008	19.995	103.290	20.233	2.108	0.508
322.000	238.028	80.008	19.995	103.290	20.231	2.274	0.486
324.000	239.036	80.008	19.993	103.290	20.234	2.017	0.521
326.000	240.019	80.008	19.995	103.290	20.230	2.339	0.503
328.000	241.016	80.007	19.995	103.288	20.233	2.138	0.489
330.000	241.955	80.008	19.994	103.284	20.232	2.200	0.480
332.000	242.991	80.008	19.996	103.288	20.232	2.168	0.494
334.000	243.976	80.008	19.995	103.290	20.232	2.183	0.499
336.000	244.962	80.008	19.995	103.293	20.230	2.312	0.487
338.000	245.922	80.008	19.996	103.289	20.232	2.220	0.515
340.000	246.970	80.009	19.995	103.288	20.228	2.498	0.517
342.000	247.941	80.008	19.995	103.290	20.227	2.509	0.515
344.000	248.948	80.009	19.995	103.290	20.224	2.726	0.536
346.000	249.952	80.007	19.995	103.289	20.228	2.490	0.516
348.000	250.954	80.008	19.995	103.287	20.227	2.552	0.497
350.000	251.967	80.006	19.996	103.287	20.228	2.502	0.516
352.000	252.939	80.006	19.995	103.287	20.228	2.475	0.485
354.000	253.885	80.006	19.995	103.286	20.227	2.542	0.451
356.000	254.925	80.007	19.995	103.285	20.231	2.233	0.506
358.000	255.885	80.008	19.995	103.288	20.229	2.395	0.502
360.000	256.864	80.007	19.996	103.287	20.230	2.341	0.461
362.000	257.930	80.007	19.996	103.289	20.229	2.376	0.522
364.000	258.913	80.008	19.996	103.288	20.231	2.225	0.491
366.000	259.939	80.008	19.995	103.288	20.226	2.627	0.494
368.000	260.912	80.008	19.995	103.288	20.228	2.451	0.496
370.000	261.951	80.009	19.996	103.287	20.229	2.394	0.516
372.000	262.885	80.010	19.995	103.287	20.229	2.390	0.493
374.000	263.934	80.007	19.995	103.285	20.230	2.305	0.512
376.000	264.959	80.007	19.995	103.286	20.228	2.438	0.513
378.000	265.927	80.008	19.994	103.278	20.229	2.395	0.492
380.000	266.935	80.006	19.995	103.287	20.230	2.330	0.526
382.000	267.938	80.008	19.995	103.287	20.233	2.090	0.479
384.000	268.939	80.009	19.994	103.287	20.230	2.345	0.499
386.000	269.991	80.009	19.994	103.286	20.236	1.879	0.537
388.000	271.029	80.010	19.995	103.288	20.234	2.077	0.546
390.000	272.080	80.012	19.994	103.288	20.230	2.345	0.526
392.000	273.038	80.011	19.995	103.285	20.229	2.387	0.504
394.000	274.042	80.010	19.994	103.281	20.229	2.375	0.474
396.000	275.092	80.010	19.995	103.280	20.234	2.057	0.546
398.000	276.110	80.009	19.993	103.283	20.229	2.389	0.497
400.000	277.105	80.010	19.994	103.285	20.233	2.119	0.474
402.000	278.116	80.009	19.994	103.279	20.231	2.237	0.503
404.000	279.095	80.007	19.996	103.263	20.232	2.215	0.494
406.000	280.085	80.008	19.994	103.267	20.232	2.154	0.502
408.000	281.098	80.006	19.994	103.267	20.229	2.410	0.527
410.000	282.111	80.007	19.995	103.266	20.233	2.142	0.524
412.000	283.131	80.008	19.994	103.280	20.230	2.293	0.535
414.000	284.147	80.009	19.994	103.277	20.233	2.115	0.506
416.000	285.168	80.008	19.995	103.280	20.232	2.183	0.514
418.000	286.156	80.007	19.994	103.276	20.231	2.262	0.518
420.000	287.138	80.007	19.994	103.263	20.232	2.210	0.503
422.000	288.172	80.007	19.994	103.267	20.234	2.036	0.518
424.000	289.175	80.008	19.994	103.275	20.229	2.378	0.516
426.000	290.166	80.009	19.994	103.278	20.228	2.501	0.505
428.000	291.196	80.008	19.994	103.278	20.232	2.194	0.504
430.000	292.197	80.008	19.994	103.272	20.227	2.536	0.501
432.000	293.206	80.007	19.996	103.278	20.229	2.383	0.502
434.000	294.225	80.007	19.996	103.269	20.231	2.235	0.510
436.000	295.281	80.008	19.996	103.271	20.229	2.408	0.498
438.000	296.249	80.007	19.995	103.281	20.230	2.337	0.474
440.000	297.238	80.005	19.996	103.281	20.231	2.291	0.493
442.000	298.317	80.008	19.995	103.267	20.231	2.231	0.541
444.000	299.303	80.007	19.995	103.265	20.225	2.663	0.486
446.000	300.283	80.007	19.995	103.267	20.231	2.287	0.523
448.000	301.303	80.008	19.995	103.262	20.235	1.997	0.526
450.000	302.312	80.010	19.995	103.274	20.227	2.528	0.489
452.000	303.318	80.009	19.996	103.266	20.232	2.208	0.492
454.000	304.303	80.008	19.995	103.264	20.231	2.262	0.494
456.000	305.317	80.009	19.995	103.268	20.231	2.283	0.488
458.000	306.309	80.008	19.995	103.271	20.230	2.327	0.498
460.000	307.332	80.008	19.995	103.268	20.233	2.105	0.493
462.000	308.313	80.008	19.995	103.273	20.235	1.993	0.499
464.000	309.376	80.008	19.995	103.272	20.236	1.910	0.535
466.000	310.406	80.008	19.995	103.264	20.234	2.034	0.525
468.000	311.412	80.008	19.995	103.260	20.228	2.474	0.541
470.000	312.435	80.008	19.996	103.257	20.239	1.707	0.544
472.000	313.441	80.008	19.995	103.255	20.231	2.240	0.542
474.000	314.487	80.010	19.996	103.252	20.235	1.968	0.558
476.000	315.553	80.009	19.997	103.250	20.232	2.159	0.550
478.000	316.459	80.011	19.995	103.252	20.237	1.827	0.486
480.000	317.394	80.009	19.995	103.250	20.229	2.397	0.498
482.000	318.279	80.010	19.994	103.254	20.233	2.132	0.469
484.000	319.684	80.010	19.995	103.251	20.232	2.184	0.660
486.000	320.668	80.008	19.995	103.256	20.236	1.873	0.739
488.000	321.313	80.008	19.995	103.259	20.233	2.113	0.305
490.000	322.279	80.008	19.994	103.251	20.236	1.935	0.512
492.000	323.415	80.007	19.994	103.257	20.233	2.130	0.483
494.000	324.407	80.008	19.995	103.270	20.229	2.401	0.490
496.000	325.327	80.008	19.996	103.258	20.227	2.549	0.508
498.000	326.344	80.009	19.995	103.261	20.228	2.487	0.495
500.000	327.290	80.007	19.996	103.253	20.232	2.175	0.496
502.000	328.313	80.007	19.993	103.250	20.229	2.426	0.476
504.000	329.295	80.007	19.994	103.260	20.229	2.426	0.499
506.000	330.297	80.007	19.995	103.256	20.234	2.039	0.516
508.000	331.224	80.008	19.995	103.253	20.230	2.331	0.469
510.000	332.241	80.008	19.995	103.256	20.229	2.391	0.518
512.000	333.230	80.007	19.994	103.259	20.225	2.675	0.514
514.000	334.207	80.008	19.994	103.255	20.229	2.418	0.482
516.000	335.255	80.007	19.993	103.253	20.231	2.252	0.528
518.000	336.164	80.007	19.994	103.253	20.231	2.281	0.482
520.000	337.173	80.008	19.996	103.253	20.228	2.489	0.500
522.000	338.185	80.008	19.994	103.255	20.233	2.113	0.484
524.000	339.148	80.009	19.996	103.256	20.233	2.126	0.503
526.000	340.160	80.007	19.995	103.256	20.232	2.213	0.475
528.000	341.167	80.009	19.995	103.251	20.228	2.462	0.526
530.000	342.186	80.010	19.994	103.250	20.233	2.130	0.510
532.000	343.155	80.009	19.995	103.250	20.237	1.838	0.488
534.000	344.195	80.009	19.994	103.250	20.231	2.250	0.526
536.000	345.195	80.010	19.997	103.254	20.229	2.366	0.537
538.001	346.201	80.009	19.996	103.252	20.228	2.489	0.515
540.000	347.224	80.009	19.995	103.253	20.224	2.731	0.522
542.000	348.191	80.008	19.995	103.254	20.231	2.282	0.475
544.000	349.207	80.008	19.995	103.253	20.225	2.659	0.505
546.000	350.273	80.011	19.995	103.249	20.226	2.638	0.536
548.000	351.234	80.008	19.995	103.247	20.224	2.773	0.504
550.000	352.256	80.009	19.995	103.248	20.225	2.650	0.528
552.001	353.279	80.008	19.996	103.247	20.227	2.540	0.504
554.000	354.298	80.007	19.994	103.251	20.225	2.655	0.522
556.000	355.306	80.010	19.996	103.250	20.222	2.854	0.512
558.000	356.294	80.009	19.996	103.254	20.230	2.339	0.472
560.000	357.318	80.010	19.995	103.253	20.225	2.671	0.499
562.000	358.319	80.011	19.995	103.261	20.219	3.080	0.529
564.000	359.311	80.009	19.995	103.260	20.220	2.999	0.476
566.000	360.336	80.007	19.994	103.252	20.216	3.298	0.521
568.000	361.359	80.009	19.997	103.250	20.214	3.480	0.533
570.000	362.394	80.007	19.995	103.262	20.210	3.720	0.501
572.000	363.396	80.008	19.996	103.256	20.208	3.878	0.522
574.000	364.365	80.008	19.996	103.260	20.207	3.958	0.478
576.000	365.411	80.008	19.995	103.261	20.199	4.502	0.503
578.000	366.404	80.007	19.996	103.256	20.195	4.813	0.482
580.000	367.378	80.008	19.994	103.269	20.190	5.107	0.478
582.000	368.402	80.007	19.994	103.257	20.185	5.482	0.520
584.000	369.441	80.008	19.994	103.267	20.180	5.826	0.496
586.000	370.391	80.009	19.995	103.274	20.175	6.172	0.487
588.000	371.411	80.008	19.995	103.275	20.167	6.759	0.513
590.000	372.406	80.008	19.993	103.267	20.165	6.889	0.506
592.000	373.461	80.007	19.994	103.268	20.161	7.144	0.529
594.000	374.437	80.007	19.995	103.270	20.158	7.350	0.491
596.000	375.431	80.007	19.994	103.281	20.145	8.272	0.498
598.000	376.431	80.007	19.994	103.285	20.141	8.583	0.512
600.000	377.474	80.007	19.995	103.284	20.128	9.476	0.532
602.000	378.489	80.006	19.994	103.286	20.125	9.684	0.513
604.000	379.519	80.007	19.996	103.286	20.112	10.596	0.491
606.000	380.561	80.007	19.995	103.287	20.111	10.674	0.534
608.000	381.609	80.009	19.995	103.288	20.107	10.931	0.512
610.000	382.620	80.007	19.994	103.288	20.096	11.770	0.506
612.000	383.690	80.008	19.993	103.298	20.093	11.981	0.536
614.000	384.709	80.010	19.996	103.312	20.079	12.960	0.511
616.000	385.761	80.010	19.996	103.314	20.076	13.130	0.513
618.000	386.803	80.010	19.995	103.318	20.062	14.106	0.504
620.000	387.861	80.009	19.993	103.317	20.050	14.972	0.516
622.000	388.933	80.008	19.994	103.324	20.038	15.805	0.526
624.000	389.978	80.007	19.996	103.326	20.027	16.581	0.512
626.000	391.064	80.007	19.994	103.327	20.014	17.490	0.525
628.000	392.104	80.008	19.995	103.330	20.002	18.360	0.526
630.000	393.156	80.007	19.995	103.331	19.988	19.359	0.506
632.000	394.219	80.008	19.995	103.337	19.967	20.788	0.519
634.000	395.267	80.009	19.995	103.348	19.958	21.438	0.524
636.000	396.296	80.008	19.995	103.341	19.933	23.157	0.522
638.000	397.350	80.009	19.996	103.365	19.906	25.071	0.517
640.000	398.411	80.010	19.995	103.379	19.870	27.644	0.508
642.000	399.459	80.010	19.996	103.369	19.854	28.794	0.543
644.000	400.528	80.010	19.995	103.344	19.839	29.791	0.499
646.000	401.558	80.010	19.994	103.332	19.835	30.135	0.493
648.000	402.610	80.008	19.995	103.339	19.816	31.411	0.543
650.000	403.654	80.009	19.995	103.425	19.796	32.834	0.515
652.000	404.723	80.008	19.997	103.444	19.776	34.247	0.503
654.000	405.715	80.007	19.996	103.425	19.759	35.484	0.514
656.001	406.773	80.006	19.995	103.436	19.726	37.803	0.496
658.000	407.818	80.007	19.995	103.418	19.701	39.550	0.507
660.000	408.869	80.007	19.996	103.434	19.671	41.683	0.522
662.000	409.916	80.006	19.996	103.446	19.642	43.686	0.528
664.000	410.919	80.007	19.995	103.457	19.606	46.249	0.506
666.000	411.911	80.008	19.996	103.479	19.573	48.604	0.481
668.000	412.969	80.008	19.996	103.483	19.531	51.566	0.518
670.000	413.982	80.008	19.994	103.491	19.484	54.842	0.480
672.001	414.999	80.007	19.995	103.512	19.439	58.036	0.507
674.001	415.971	80.008	19.994	103.524	19.394	61.259	0.475
676.000	416.981	80.008	19.995	103.552	19.345	64.669	0.506
678.000	417.986	80.007	19.994	103.561	19.287	68.755	0.513
680.000	419.028	80.007	19.995	103.564	19.242	71.941	0.499
682.000	420.021	80.008	19.995	103.601	19.184	76.097	0.502
684.000	421.011	80.008	19.996	103.630	19.122	80.462	0.481
686.000	422.038	80.008	19.995	103.643	19.067	84.384	0.493
688.000	423.020	80.007	19.995	103.665	19.000	89.102	0.494
690.000	424.019	80.008	19.995	103.678	18.937	93.555	0.511
692.000	425.014	80.007	19.994	103.693	18.878	97.740	0.499
694.001	425.998	80.007	19.994	103.721	18.817	102.067	0.484
696.000	427.022	80.008	19.996	103.747	18.752	106.734	0.495
698.001	428.039	80.009	19.994	103.768	18.680	111.843	0.497
700.000	429.020	80.009	19.995	103.793	18.612	116.682	0.496
702.000	430.042	80.009	19.993	103.814	18.541	121.678	0.499
704.000	431.012	80.010	19.993	103.843	18.471	126.719	0.492
706.000	432.027	80.008	19.994	103.879	18.405	131.407	0.523
708.000	433.020	80.007	19.994	103.897	18.321	137.329	0.479
710.001	434.023	80.009	19.995	103.935	18.252	142.161	0.508
712.000	435.077	80.008	19.994	103.937	18.177	147.462	0.485
714.000	436.044	80.008	19.995	103.964	18.107	152.544	0.504
716.000	437.076	80.010	19.994	104.005	18.038	157.477	0.507
718.000	438.093	80.009	19.995	104.021	17.991	160.800	0.496
720.000	439.110	80.009	19.994	103.995	17.957	163.182	0.512
722.000	440.102	80.010	19.994	103.991	17.926	165.381	0.494
724.000	441.131	80.011	19.995	104.027	17.890	167.994	0.522
726.000	442.147	80.009	19.995	104.083	17.862	169.965	0.478
728.000	443.175	80.011	19.996	104.113	17.825	172.540	0.537
730.000	444.208	80.012	19.996	104.110	17.800	174.314	0.477
732.000	445.217	80.009	19.995	104.108	17.762	177.047	0.510
734.000	446.227	80.009	19.996	104.129	17.730	179.305	0.520
736.000	447.210	80.009	19.996	104.130	17.712	180.515	0.488
738.000	448.204	80.008	19.995	104.118	17.693	181.866	0.506
740.001	449.218	80.009	19.995	104.117	17.688	182.151	0.514
742.000	450.259	80.008	19.994	104.124	17.697	181.527	0.511
744.000	451.269	80.009	19.997	104.125	17.710	180.532	0.510
746.000	452.251	80.008	19.996	104.114	17.742	178.229	0.486
748.000	453.297	80.007	19.995	104.107	17.790	174.816	0.531
750.000	454.309	80.007	19.995	104.085	17.843	170.953	0.538
752.000	455.330	80.007	19.995	104.066	17.906	166.490	0.489
754.000	456.332	80.009	19.996	104.048	17.990	160.458	0.493
756.000	457.387	80.008	19.995	104.020	18.083	153.862	0.528
758.000	458.426	80.007	19.996	103.987	18.178	147.102	0.483
760.000	459.471	80.007	19.996	103.951	18.287	139.312	0.522
762.000	460.473	80.007	19.995	103.912	18.401	131.253	0.507
764.000	461.516	80.007	19.996	103.875	18.515	123.172	0.497
766.000	462.525	80.006	19.995	103.833	18.642	114.252	0.512
768.000	463.531	80.006	19.994	103.796	18.778	104.636	0.523
770.000	464.525	80.006	19.994	103.752	18.910	95.257	0.497
772.000	465.543	80.006	19.995	103.717	19.054	85.127	0.513
774.000	466.577	80.006	19.994	103.691	19.175	76.530	0.512
776.000	467.607	80.007	19.994	103.676	19.291	68.348	0.520
778.000	468.642	80.009	19.995	103.647	19.388	61.505	0.525
780.000	469.709	80.007	19.996	103.612	19.488	54.487	0.523
782.000	470.763	80.010	19.996	103.555	19.566	49.013	0.528
784.000	471.804	80.009	19.994	103.510	19.641	43.721	0.524
786.000	472.865	80.009	19.995	103.488	19.699	39.634	0.546
788.000	473.937	80.009	19.994	103.456	19.757	35.539	0.523
790.000	475.014	80.007	19.994	103.441	19.801	32.440	0.558
792.000	476.064	80.008	19.994	103.414	19.843	29.488	0.550
794.000	477.120	80.009	19.995	103.404	19.882	26.744	0.515
796.000	478.137	80.008	19.994	103.401	19.920	24.071	0.515
798.000	479.232	80.009	19.994	103.389	19.948	22.160	0.549
800.000	480.203	80.010	19.995	103.383	19.974	20.291	0.515
802.000	481.263	80.010	19.994	103.351	20.003	18.299	0.508
804.000	482.314	80.010	19.994	103.356	20.020	17.071	0.530
806.000	483.357	80.011	19.994	103.343	20.037	15.857	0.528
808.000	484.375	80.012	19.995	103.328	20.057	14.481	0.510
810.000	485.477	80.012	19.994	103.325	20.070	13.532	0.540
812.000	486.505	80.010	19.995	103.324	20.087	12.398	0.516
814.000	487.524	80.010	19.995	103.315	20.097	11.662	0.511
816.000	488.595	80.007	19.993	103.299	20.109	10.851	0.523
818.000	489.603	80.009	19.995	103.288	20.116	10.321	0.522
820.000	490.648	80.008	19.994	103.286	20.129	9.412	0.495
822.000	491.685	80.006	19.995	103.285	20.132	9.228	0.535
824.000	492.682	80.006	19.994	103.288	20.145	8.283	0.514
826.000	493.729	80.006	19.994	103.275	20.148	8.086	0.514
828.000	494.745	80.006	19.994	103.277	20.152	7.822	0.533
830.000	495.752	80.007	19.995	103.283	20.157	7.435	0.495
832.000	496.796	80.007	19.995	103.266	20.162	7.114	0.520
834.000	497.775	80.008	19.995	103.254	20.168	6.705	0.468
836.001	498.820	80.008	19.995	103.262	20.176	6.112	0.527
838.000	499.842	80.008	19.995	103.259	20.179	5.919	0.527
840.000	500.829	80.007	19.994	103.255	20.179	5.921	0.490
842.000	501.816	80.006	19.994	103.253	20.179	5.907	0.497
844.000	502.853	80.007	19.995	103.254	20.183	5.638	0.514
846.000	503.883	80.006	19.995	103.252	20.183	5.640	0.499
848.000	504.877	80.007	19.995	103.250	20.184	5.520	0.479
850.000	505.908	80.007	19.995	103.250	20.188	5.262	0.507
852.000	506.932	80.007	19.995	103.247	20.188	5.275	0.509
854.000	507.938	80.006	19.996	103.240	20.190	5.148	0.482
856.000	508.907	80.007	19.995	103.246	20.187	5.325	0.511
858.000	509.968	80.009	19.995	103.241	20.189	5.171	0.512
860.000	510.961	80.008	19.995	103.236	20.192	4.962	0.470
862.000	512.002	80.009	19.994	103.243	20.191	5.037	0.514
864.000	513.026	80.009	19.994	103.230	20.194	4.849	0.551
866.000	513.989	80.008	19.994	103.237	20.193	4.895	0.481
868.000	515.064	80.009	19.994	103.235	20.194	4.869	0.525
870.000	516.070	80.009	19.994	103.245	20.197	4.664	0.485
872.000	517.063	80.010	19.994	103.232	20.201	4.372	0.509
874.000	518.124	80.010	19.994	103.241	20.198	4.605	0.495
876.000	519.121	80.008	19.995	103.240	20.194	4.870	0.515
878.000	520.166	80.008	19.994	103.230	20.195	4.792	0.515
880.000	521.197	80.008	19.994	103.223	20.194	4.868	0.514
882.000	522.193	80.008	19.993	103.217	20.194	4.823	0.501
884.000	523.242	80.009	19.995	103.218	20.196	4.738	0.522
886.000	524.272	80.009	19.994	103.238	20.197	4.616	0.499
888.000	525.277	80.008	19.994	103.232	20.195	4.783	0.516
890.000	526.299	80.010	19.993	103.237	20.195	4.754	0.520
892.000	527.285	80.010	19.993	103.236	20.199	4.499	0.489
894.001	528.311	80.009	19.992	103.222	20.197	4.624	0.532
896.000	529.363	80.009	19.995	103.230	20.198	4.589	0.519
898.000	530.367	80.011	19.995	103.226	20.199	4.524	0.534
900.000	531.402	80.008	19.994	103.239	20.199	4.499	0.528
902.000	532.408	80.007	19.993	103.243	20.193	4.893	0.494
904.000	533.465	80.006	19.993	103.227	20.197	4.642	0.499
906.000	534.483	80.008	19.993	103.223	20.201	4.381	0.506
908.000	535.539	80.009	19.995	103.233	20.199	4.465	0.533
910.000	536.571	80.007	19.994	103.227	20.200	4.454	0.547
912.000	537.638	80.007	19.994	103.236	20.200	4.417	0.529
914.000	538.608	80.006	19.994	103.231	20.200	4.406	0.517
916.000	539.628	80.008	19.994	103.230	20.197	4.672	0.504
918.000	540.660	80.008	19.994	103.220	20.199	4.508	0.486
920.000	541.721	80.009	19.994	103.212	20.196	4.701	0.519
922.000	542.724	80.007	19.994	103.216	20.201	4.353	0.500
924.000	543.747	80.007	19.995	103.222	20.200	4.435	0.504
926.000	544.764	80.008	19.995	103.218	20.199	4.534	0.513
928.000	545.802	80.006	19.995	103.215	20.197	4.625	0.510
930.000	546.860	80.008	19.994	103.220	20.200	4.451	0.537
932.000	547.883	80.008	19.997	103.230	20.196	4.682	0.516
934.000	548.945	80.008	19.996	103.225	20.199	4.494	0.526
936.000	549.989	80.008	19.995	103.237	20.196	4.740	0.524
938.000	550.996	80.008	19.995	103.182	20.196	4.693	0.515
940.000	552.024	80.007	19.996	103.267	20.199	4.531	0.514
942.000	553.045	80.007	19.996	103.237	20.193	4.916	0.508
944.000	554.088	80.009	19.996	103.214	20.195	4.748	0.510
946.000	555.125	80.009	19.995	103.222	20.195	4.800	0.510
948.000	556.118	80.008	19.995	103.226	20.195	4.808	0.492
950.000	557.147	80.009	19.996	103.220	20.198	4.603	0.516
952.000	558.186	80.010	19.996	103.227	20.193	4.908	0.534
954.000	559.217	80.009	19.995	103.224	20.196	4.678	0.524
956.000	560.239	80.008	19.995	103.235	20.195	4.778	0.509
958.000	561.282	80.010	19.994	103.228	20.191	5.074	0.509
960.000	562.334	80.009	19.995	103.232	20.194	4.838	0.518
962.000	563.324	80.008	19.995	103.224	20.194	4.883	0.475
964.000	564.339	80.008	19.994	103.231	20.194	4.863	0.515
966.000	565.369	80.007	19.993	103.233	20.195	4.788	0.522
968.000	566.385	80.009	19.993	103.225	20.194	4.853	0.511
970.000	567.395	80.010	19.993	103.228	20.194	4.855	0.526
972.000	568.424	80.010	19.994	103.219	20.191	5.046	0.500
974.000	569.479	80.011	19.993	103.233	20.197	4.612	0.516
976.000	570.458	80.010	19.994	103.215	20.197	4.617	0.492
978.000	571.520	80.009	19.994	103.218	20.193	4.905	0.514
980.000	572.553	80.010	19.995	103.217	20.199	4.526	0.557
982.000	573.577	80.010	19.995	103.221	20.194	4.882	0.521
984.000	574.623	80.008	19.995	103.210	20.194	4.880	0.518
986.000	575.686	80.008	19.993	103.213	20.196	4.685	0.499
988.000	576.675	80.008	19.994	103.211	20.191	5.036	0.524
990.000	577.733	80.009	19.994	103.227	20.189	5.170	0.506
992.000	578.710	80.008	19.994	103.223	20.192	4.963	0.497
994.000	579.704	80.006	19.993	103.220	20.191	5.027	0.495
996.000	580.765	80.009	19.993	103.216	20.188	5.297	0.528
998.000	581.781	80.008	19.993	103.213	20.192	4.971	0.503
1000.000	582.743	80.009	19.995	103.215	20.187	5.355	0.498
1002.000	583.771	80.010	19.995	103.220	20.186	5.386	0.535
1004.001	584.773	80.008	19.994	103.221	20.185	5.498	0.513
1006.000	585.810	80.009	19.995	103.213	20.188	5.293	0.527
1008.000	586.821	80.009	19.995	103.213	20.184	5.523	0.491
1010.000	587.805	80.008	19.995	103.214	20.186	5.440	0.496
1012.000	588.834	80.009	19.996	103.212	20.189	5.203	0.493
1014.000	589.901	80.008	19.995	103.214	20.187	5.313	0.525
1016.000	590.904	80.007	19.996	103.217	20.188	5.293	0.517
1018.001	591.939	80.007	19.996	103.217	20.183	5.610	0.536
1020.000	592.942	80.007	19.996	103.217	20.182	5.660	0.498
1022.000	594.024	80.007	19.995	103.223	20.186	5.428	0.562
1024.000	595.074	80.009	19.995	103.223	20.185	5.477	0.515
1026.000	596.100	80.008	19.994	103.220	20.185	5.492	0.516
1028.000	597.130	80.008	19.994	103.215	20.182	5.703	0.509
1030.000	598.124	80.009	19.994	103.213	20.183	5.633	0.509
1032.000	599.186	80.009	19.995	103.213	20.185	5.465	0.512
1034.000	600.176	80.010	19.995	103.216	20.184	5.540	0.487
1036.001	601.233	80.007	19.995	103.224	20.188	5.289	0.498
1038.001	602.246	80.008	19.995	103.213	20.186	5.440	0.491
1040.000	603.265	80.006	19.995	103.222	20.188	5.289	0.506
1042.000	604.269	80.007	19.996	103.213	20.188	5.303	0.493
1044.000	605.275	80.006	19.995	103.211	20.187	5.347	0.489
1046.001	606.307	80.007	19.996	103.211	20.184	5.546	0.519
1048.000	607.299	80.008	19.996	103.212	20.183	5.588	0.494
1050.000	608.400	80.010	19.995	103.208	20.187	5.332	0.511
1052.000	609.380	80.010	19.995	103.210	20.183	5.652	0.500
1054.001	610.444	80.010	19.995	103.208	20.180	5.801	0.508
1056.000	611.404	80.011	19.994	103.208	20.181	5.737	0.500
1058.000	612.450	80.010	19.994	103.209	20.182	5.679	0.519
1060.001	613.454	80.011	19.993	103.214	20.185	5.471	0.506
1062.000	614.501	80.010	19.994	103.210	20.184	5.534	0.534
1064.001	615.539	80.008	19.994	103.213	20.184	5.585	0.529
1066.000	616.524	80.008	19.996	103.213	20.186	5.382	0.514
1068.000	617.576	80.007	19.994	103.208	20.182	5.664	0.536
1070.000	618.563	80.007	19.994	103.210	20.179	5.905	0.508
1072.000	619.581	80.006	19.993	103.210	20.185	5.498	0.532
1074.001	620.614	80.007	19.995	103.211	20.185	5.511	0.532
1076.000	621.573	80.008	19.995	103.215	20.186	5.401	0.455
1078.001	622.694	80.008	19.994	103.214	20.183	5.647	0.550
1080.000	623.702	80.009	19.995	103.210	20.186	5.421	0.496
1082.000	624.701	80.008	19.995	103.210	20.188	5.291	0.490
1084.000	625.701	80.008	19.995	103.212	20.182	5.679	0.510
1086.001	626.744	80.007	19.994	103.213	20.185	5.490	0.498
1088.001	627.739	80.009	19.995	103.213	20.183	5.643	0.480
1090.000	628.771	80.008	19.994	103.215	20.181	5.770	0.510
1092.000	629.821	80.007	19.994	103.213	20.186	5.415	0.518
1094.000	630.873	80.007	19.994	103.215	20.188	5.264	0.536
1096.000	631.937	80.008	19.994	103.213	20.187	5.361	0.555
1098.000	632.854	80.008	19.995	103.211	20.187	5.353	0.502
1100.000	633.862	80.007	19.994	103.213	20.183	5.623	0.501
1102.000	634.875	80.007	19.997	103.213	20.188	5.273	0.529
1104.000	635.892	80.008	19.995	103.212	20.193	4.945	0.511
1106.000	636.937	80.008	19.994	103.210	20.187	5.375	0.518
1108.001	637.975	80.008	19.997	103.208	20.190	5.144	0.500
1110.000	638.992	80.008	19.995	103.200	20.188	5.272	0.522
1112.000	639.980	80.009	19.995	103.202	20.190	5.154	0.493
1114.000	640.964	80.010	19.995	103.199	20.192	4.995	0.483
1116.000	642.014	80.007	19.995	103.185	20.191	5.086	0.556
1118.000	643.026	80.009	19.995	103.201	20.192	4.970	0.517
1120.001	644.041	80.010	19.995	103.208	20.193	4.934	0.511
1122.000	645.005	80.008	19.994	103.208	20.192	4.966	0.490
1124.000	646.079	80.008	19.994	103.207	20.193	4.940	0.539
1126.000	647.070	80.008	19.995	103.202	20.195	4.801	0.503
1128.001	648.103	80.008	19.995	103.205	20.194	4.854	0.493
1130.001	649.126	80.008	19.994	103.207	20.197	4.667	0.508
1132.000	650.161	80.009	19.995	103.203	20.198	4.567	0.518
1134.001	651.186	80.009	19.996	103.205	20.197	4.667	0.531
1136.000	652.189	80.009	19.996	103.206	20.201	4.339	0.531
1138.000	653.196	80.009	19.997	103.204	20.200	4.411	0.538
1140.000	654.237	80.010	19.996	103.193	20.200	4.411	0.502
1142.000	655.284	80.010	19.997	103.202	20.198	4.575	0.508
1144.000	656.296	80.010	19.996	103.205	20.198	4.583	0.514
1146.000	657.341	80.010	19.995	103.205	20.198	4.558	0.485
1148.000	658.381	80.007	19.995	103.207	20.199	4.505	0.518
1150.000	659.448	80.007	19.994	103.203	20.197	4.633	0.558
1152.000	660.444	80.007	19.995	103.208	20.200	4.453	0.544
1154.000	661.421	80.008	19.996	103.209	20.199	4.497	0.484
1156.001	662.482	80.008	19.994	103.211	20.199	4.498	0.502
1158.000	663.514	80.007	19.994	103.210	20.195	4.752	0.543
1160.000	664.527	80.008	19.994	103.209	20.194	4.872	0.506
1162.000	665.541	80.009	19.995	103.203	20.197	4.631	0.505
1164.001	666.602	80.007	19.994	103.202	20.197	4.650	0.511
1166.000	667.621	80.008	19.995	103.204	20.198	4.567	0.517
1168.000	668.730	80.009	19.994	103.208	20.196	4.733	0.537
1170.000	669.764	80.007	19.994	103.208	20.194	4.845	0.514
1172.000	670.813	80.007	19.994	103.208	20.197	4.629	0.563
1174.000	671.847	80.007	19.994	103.197	20.199	4.468	0.514
1176.000	672.910	80.008	19.994	103.205	20.196	4.729	0.551
1178.000	673.945	80.008	19.994	103.204	20.203	4.246	0.552
1180.000	675.012	80.010	19.994	103.207	20.202	4.274	0.513
1182.000	676.065	80.007	19.995	103.206	20.202	4.258	0.537
1184.001	677.169	80.007	19.996	103.200	20.201	4.362	0.547
1186.001	678.152	80.007	19.995	103.192	20.201	4.359	0.507
1188.001	679.224	80.009	19.994	103.201	20.199	4.501	0.494
1190.000	680.305	80.009	19.995	103.203	20.201	4.391	0.533
1192.000	681.361	80.009	19.995	103.208	20.200	4.434	0.514
1194.001	682.433	80.011	19.995	103.197	20.202	4.277	0.535
1196.000	683.426	80.009	19.996	103.202	20.202	4.268	0.496
1198.000	684.520	80.010	19.996	103.200	20.202	4.261	0.528
1200.000	685.515	80.010	19.995	103.182	20.208	3.874	0.521
1202.000	686.568	80.010	19.995	103.198	20.197	4.636	0.538
1204.000	687.596	80.009	19.996	103.199	20.198	4.600	0.504
1206.000	688.634	80.010	19.996	103.201	20.201	4.353	0.516
1208.000	689.688	80.008	19.995	103.201	20.201	4.353	0.501
1210.000	690.736	80.009	19.995	103.195	20.200	4.455	0.518
1212.000	691.784	80.008	19.996	103.206	20.202	4.320	0.517
1214.000	692.867	80.009	19.996	103.203	20.199	4.465	0.524
1216.001	693.842	80.010	19.995	103.209	20.203	4.233	0.478
1218.000	694.841	80.009	19.994	103.202	20.207	3.936	0.498
1220.001	695.957	80.011	19.995	103.206	20.205	4.077	0.565
1222.001	696.933	80.011	19.995	103.206	20.199	4.517	0.489
1224.000	697.979	80.011	19.995	103.208	20.203	4.210	0.542
1226.000	698.958	80.009	19.994	103.198	20.197	4.619	0.480
1228.001	699.955	80.009	19.995	103.198	20.205	4.105	0.489
1230.000	701.010	80.008	19.995	103.207	20.203	4.215	0.564
1232.001	702.016	80.007	19.996	103.209	20.205	4.109	0.509
1234.001	703.045	80.007	19.998	103.204	20.205	4.055	0.510
1236.000	704.058	80.006	19.996	103.202	20.205	4.045	0.494
1238.000	705.048	80.007	19.997	103.186	20.204	4.167	0.503
1240.000	706.075	80.007	19.996	103.190	20.205	4.090	0.508
1242.000	707.067	80.006	19.994	103.195	20.204	4.137	0.496
1244.000	708.091	80.008	19.994	103.206	20.203	4.233	0.517
1246.000	709.088	80.009	19.994	103.195	20.209	3.808	0.467
1248.000	710.088	80.008	19.994	103.186	20.203	4.196	0.496
1250.000	711.092	80.010	19.995	103.192	20.203	4.198	0.501
1252.000	712.037	80.008	19.994	103.201	20.198	4.548	0.499
1254.000	713.045	80.007	19.994	103.202	20.198	4.557	0.505
1256.001	714.040	80.009	19.995	103.194	20.201	4.356	0.495
1258.000	715.022	80.008	19.996	103.200	20.197	4.617	0.512
1260.000	716.046	80.007	19.994	103.202	20.196	4.740	0.521
1262.000	717.070	80.008	19.995	103.206	20.197	4.621	0.533
1264.000	718.029	80.008	19.995	103.199	20.197	4.628	0.501
1266.000	718.990	80.008	19.995	103.202	20.198	4.552	0.461
1268.000	719.986	80.007	19.994	103.203	20.198	4.573	0.485
1270.000	721.004	80.007	19.995	103.193	20.193	4.920	0.497
1272.000	721.991	80.008	19.996	103.193	20.196	4.715	0.489
1274.000	722.998	80.008	19.995	103.189	20.197	4.644	0.513
1276.000	724.015	80.009	19.994	103.197	20.201	4.386	0.488
1278.000	725.040	80.008	19.995	103.206	20.201	4.352	0.495
1280.000	726.008	80.010	19.994	103.201	20.202	4.254	0.504
1282.000	727.066	80.008	19.994	103.188	20.202	4.311	0.532
1284.000	728.075	80.009	19.993	103.197	20.198	4.601	0.510
1286.001	729.086	80.009	19.994	103.193	20.201	4.331	0.494
1288.000	730.109	80.009	19.993	103.202	20.205	4.078	0.522
1290.001	731.171	80.008	19.994	103.190	20.205	4.084	0.522
1292.000	732.235	80.009	19.995	103.195	20.201	4.350	0.539
1294.000	733.254	80.009	19.994	103.188	20.199	4.475	0.542
1296.001	734.217	80.009	19.994	103.198	20.199	4.501	0.505
1298.000	735.241	80.010	19.994	103.179	20.202	4.317	0.504
1300.000	736.230	80.009	19.994	103.180	20.200	4.415	0.502
1302.000	737.294	80.010	19.994	103.193	20.201	4.325	0.527
1304.000	738.256	80.011	19.994	103.178	20.201	4.339	0.523
1306.001	739.275	80.011	19.994	103.193	20.202	4.298	0.496
1308.000	740.273	80.011	19.994	103.179	20.202	4.301	0.474
1310.000	741.260	80.011	19.994	103.175	20.199	4.479	0.485
1312.000	742.309	80.010	19.995	103.176	20.199	4.489	0.516
1314.001	743.320	80.008	19.994	103.190	20.202	4.261	0.506
1314.501	743.588	80.007	19.995	103.192	20.201	4.359	0.501