File: 01_Data/Standard_Gypsum/Cone/Standard_Gypsum_Cone_HF50Scan_220511_R3.csv
Names,Time,Stack TC,Smoke TC,Exh Press,Smoke Comp,Smoke Meas,CO Meter,CO2 Meter,O2 Meter,Sample Mass,Ext Coeff,Start Test,Flame Verif
Chan Gain,,500,500,1,1,1,1,1,1,1,1,1.0,1.0
Offset,,0,0,0.138628,0,0,0,0,0,0,0,0.0,0.0
Gain,,1,1,25.011,13.1256,14.6231,1,1,1,1.001,0.958019,1.0,1.0
Units,sec,C,C,Pa,%,%,%,%,%,g,/m,,
Baseline,,35.5932,36.8515,135.132,99.027,99.9248,0.000313042,0.042319,21.0024,-445.279,-0.0758111,,
2,0.25,33.1075,34.9555,134.683,99.2289,100.359,0.000221223,0.048007,20.9958,124.335,-0.0951903,0.0,0.0
4,0.75,33.1235,33.7945,138.333,99.2253,100.318,0.000250774,0.0482014,20.9963,124.495,-0.0920566,0.0,0.0
6,1.25,31.7328,33.4209,135.373,99.2485,100.082,0.000274711,0.0484037,20.9968,124.585,-0.0702523,0.0,0.0
8,1.75,30.8949,32.2867,131.845,99.2341,100.305,0.000294099,0.0485677,20.9972,124.495,-0.0901891,0.0,0.0
10,2.25,30.0314,31.5679,135.62,99.2333,100.047,0.000309804,0.0487004,20.9975,124.425,-0.0686184,0.0,0.0
12,2.75,30.3347,32.1417,131.703,99.2285,99.7582,0.000315554,0.048686,20.9977,124.295,-0.0447374,0.0,0.0
14,3.25,30.6098,32.0527,134.099,99.2417,100.489,0.000313937,0.0486743,20.9979,124.285,-0.104934,0.0,0.0
16,3.75,30.2343,32.1996,132.64,99.2337,100.125,0.000310727,0.0486648,20.9981,124.345,-0.0751795,0.0,0.0
18,4.25,30.4007,31.5882,135.302,99.2385,100.288,0.000306416,0.0485217,20.9987,124.395,-0.0884324,0.0,0.0
20,4.75,30.6468,31.9857,135.284,99.2369,100.028,0.000307359,0.0484057,20.9991,124.365,-0.0667017,0.0,0.0
22,5.25,30.9038,31.6876,133.693,99.2337,100.099,0.000312115,0.0483117,20.9995,124.365,-0.0729318,0.0,0.0
24,5.75,30.6476,32.3582,134.924,99.2377,100.609,0.000325475,0.0480731,20.9998,124.335,-0.115344,0.0,0.0
26,6.25,31.0174,32.0675,137.051,99.2401,99.8916,0.000344854,0.0478228,21,124.315,-0.0549873,0.0,0.0
28,6.75,31.1157,32.3537,132.677,99.2393,99.6935,0.000373237,0.0475687,21.0002,124.305,-0.0383691,0.0,0.0
30,7.25,31.3792,32.5838,138.879,99.2397,99.9835,0.000407643,0.0472916,21.0004,124.325,-0.0627508,0.0,0.0
32,7.75,31.1512,32.4102,132.658,99.2377,100.086,0.000435512,0.047003,21.0005,124.275,-0.0715061,0.0,0.0
34,8.25,31.358,32.4739,129.088,99.2413,99.8724,0.000480939,0.0467479,21.0006,124.254,-0.0532702,0.0,0.0
36,8.75,31.1633,32.5366,133.791,99.2421,99.5208,0.000538304,0.046522,21.0007,124.254,-0.0235607,0.0,0.0
38,9.25,31.1449,32.8114,136.443,99.2449,99.4962,0.00058477,0.0463533,21.0008,124.204,-0.0212509,0.0,0.0
40,9.75,31.2176,32.6254,134.063,99.2365,99.5667,0.00067555,0.0462294,21.0008,124.204,-0.0279158,0.0,0.0
42,10.25,31.1572,32.4659,134.886,99.2425,98.7086,0.000749083,0.0461291,21.0009,124.194,0.045337,0.0,0.0
44,10.75,31.4112,32.8444,132.248,99.2385,98.7273,0.000865497,0.0460073,21.0009,124.184,0.0434028,0.0,0.0
46,11.25,31.0763,32.3114,135.432,99.2409,99.303,0.000959793,0.0459086,21.001,124.174,-0.00525356,0.0,0.0
48,11.75,31.6266,32.8822,136.131,99.2381,98.8009,0.00106869,0.04585,21.001,124.174,0.0371037,0.0,0.0
50,12.25,31.124,32.3665,136.213,99.2429,98.6974,0.00118618,0.0458218,21.0006,124.134,0.0463214,0.0,0.0
52,12.75,31.7189,32.5354,134.709,99.2413,99.232,0.00130433,0.0457989,21.0002,124.094,0.000787375,0.0,0.0
54,13.25,31.506,32.685,134.62,99.2393,99.386,0.00142072,0.0458752,21,124.084,-0.0124109,0.0,0.0
56,13.75,31.8663,32.9156,134.003,99.2509,99.681,0.00153098,0.045937,20.9997,124.034,-0.0363319,0.0,0.0
58,14.25,31.7212,33.1569,135.573,99.2333,99.5306,0.00163467,0.0460868,20.9996,124.024,-0.0251361,0.0,0.0
60,14.75,31.6097,33.0953,136.907,99.2409,99.2173,0.00171866,0.046298,20.9994,124.014,0.00200035,0.0,0.0
62,15.25,32.1019,32.9346,135.302,99.2437,99.4453,0.00180013,0.0465332,20.9993,123.984,-0.0170543,0.0,0.0
64,15.75,31.9226,33.0666,135.476,99.2445,100.208,0.00187821,0.0467815,20.9992,123.994,-0.0811519,0.0,0.0
66,16.25,31.7262,33.3587,138.329,99.2385,99.7314,0.0019453,0.047004,20.9991,123.944,-0.0416339,0.0,0.0
68,16.75,31.8503,32.814,135.659,99.2393,99.0223,0.0020031,0.0472035,20.9991,123.924,0.0183989,0.0,0.0
70,17.25,31.4593,32.5137,133.049,99.2481,99.4355,0.00204415,0.047365,20.999,123.914,-0.0158518,0.0,0.0
72,17.75,31.9085,33.1232,133.682,99.2397,99.3052,0.00207222,0.0475366,20.999,123.904,-0.00554377,0.0,0.0
74,18.25,31.7923,33.2867,133.071,99.2429,99.8769,0.00208792,0.0476755,20.9989,123.924,-0.0535102,0.0,0.0
76,18.75,32.0026,32.9332,131.16,99.2405,99.5645,0.0020943,0.0478594,20.9985,123.904,-0.0273886,0.0,0.0
78,19.25,31.8044,32.9891,136.63,99.2377,99.7051,0.00209244,0.0480725,20.9981,123.854,-0.0394832,0.0,0.0
80,19.75,31.9782,33.047,134.779,99.2421,98.966,0.00208459,0.0482737,20.9978,123.824,0.0234104,0.0,0.0
82,20.25,32.095,32.9639,136.059,99.2369,99.4993,0.00207824,0.0484623,20.9975,123.814,-0.022193,0.0,0.0
84,20.75,32.0332,32.8481,137.572,99.2473,99.1843,0.00206823,0.0486365,20.9973,123.814,0.00534088,0.0,0.0
86,21.25,32.7034,33.8167,135.295,99.2413,99.7341,0.00206013,0.0487969,20.9972,123.794,-0.0416219,0.0,0.0
88,21.75,32.5641,33.4959,134.776,99.2445,99.2267,0.00205357,0.0489696,20.997,123.754,0.00151258,0.0,0.0
90,22.25,32.7684,33.8681,133.929,99.2353,99.8006,0.00205432,0.049148,20.9969,123.754,-0.0477317,0.0,0.0
92,22.75,32.1352,33.3738,134.034,99.2361,99.5257,0.00205494,0.0492926,20.9969,123.724,-0.0244845,0.0,0.0
94,23.25,32.1951,33.1646,136.601,99.2325,98.6336,0.00205543,0.0495995,20.9968,123.734,0.0508742,0.0,0.0
96,23.75,32.1818,33.5269,135.076,99.2405,98.6505,0.00208622,0.0498481,20.9965,123.684,0.0501084,0.0,0.0
98,24.25,32.1418,33.0963,136.711,99.2313,98.8139,0.00211116,0.0501923,20.9963,123.664,0.0354259,0.0,0.0
100,24.75,31.9647,33.289,130.252,99.2473,98.493,0.00216908,0.0505996,20.9962,123.664,0.0641152,0.0,0.0
102,25.25,32.3862,33.1302,136.143,99.2349,97.9718,0.00221599,0.0509296,20.996,123.664,0.107655,0.0,0.0
104,25.75,32.0546,33.5801,132.49,99.2445,97.6942,0.00229906,0.0511968,20.9957,123.634,0.132312,0.0,0.0
106,26.25,32.7881,33.5768,136.264,99.2457,96.7794,0.00236634,0.0517935,20.9952,123.574,0.211479,0.0,0.0
108,26.75,32.4331,33.2027,131.846,99.2449,97.1699,0.00247206,0.0522767,20.9944,123.574,0.177572,0.0,0.0
110,27.25,32.5964,33.4981,133.385,99.2385,96.8932,0.0025577,0.0528583,20.9933,123.564,0.200993,0.0,0.0
112,27.75,32.5709,33.5701,134.774,99.2509,97.2314,0.00267714,0.0533295,20.9924,123.504,0.172757,0.0,0.0
114,28.25,32.9141,33.757,135.388,99.2477,96.7276,0.00277388,0.0538605,20.9917,123.494,0.216145,0.0,0.0
116,28.75,32.2901,33.0927,131.164,99.2449,96.6491,0.00285224,0.0542907,20.9911,123.444,0.222734,0.0,0.0
118,29.25,32.0834,32.817,132.816,99.2417,96.1519,0.00298544,0.0547343,20.9904,123.434,0.2658,0.0,0.0
120,29.75,33.1949,33.3752,132.562,99.2449,96.2987,0.00309333,0.0550936,20.9896,123.394,0.25325,0.0,0.0
122,30.25,32.9361,33.7849,135.962,99.2409,95.7137,0.00319942,0.0556566,20.989,123.364,0.304121,0.0,0.0
124,30.75,32.7886,33.8355,137.623,99.2489,95.4375,0.00330218,0.0561126,20.9876,123.354,0.329088,0.0,0.0
126,31.25,32.799,34.0143,141.437,99.2357,94.0666,0.00338542,0.056482,20.9865,123.304,0.449559,0.0,0.0
128,31.75,32.7611,33.8218,138.76,99.2433,95.34375,0.00345284,0.0618689,20.9807,123.253,0.336868,0.0,0.0
130,32.25,32.8902,33.8352,131.94,99.2393,96.268,0.00350745,0.0662322,20.9761,123.153,0.255462,0.0,0.0
132,32.75,33.1269,33.8675,125.277,99.2561,102.469,0.00352351,0.0777191,20.9606,123.113,-0.267692,0.0,1.0
134,33.25,32.8074,33.44,122.756,99.2457,103.744,0.00353651,0.0941806,20.9375,122.993,-0.372528,0.0,1.0
136,33.75,33.0511,33.6008,124.458,99.2473,103.098,0.00351767,0.11771,20.9073,122.963,-0.319921,0.0,1.0
138,34.25,32.8751,34.0648,119.991,99.2373,103.667,0.00350241,0.145946,20.8724,122.503,-0.366984,0.0,1.0
140,34.75,33.3571,34.0074,119.112,99.2493,104.107,0.00346068,0.176315,20.8373,122.903,-0.401596,0.0,1.0
142,35.25,33.8275,34.5316,116.201,99.2381,103.712,0.00342689,0.207662,20.8026,122.723,-0.370533,0.0,1.0
144,35.75,34.4659,34.4974,116.817,99.2441,103.866,0.00339952,0.233053,20.7745,122.633,-0.382562,0.0,1.0
146,36.25,34.7324,35.8406,119.081,99.2261,103.725,0.00335534,0.26471,20.7474,122.523,-0.372671,0.0,1.0
148,36.75,35.5736,35.3771,116.056,99.2469,104.436,0.00331956,0.290352,20.7215,122.453,-0.42827,0.0,1.0
150,37.25,35.1745,35.7232,119.818,99.2317,104.958,0.00328569,0.312868,20.7005,122.383,-0.471433,0.0,1.0
152,37.75,35.7968,35.5481,118.303,99.2457,103.546,0.00325826,0.332677,20.6835,122.323,-0.356426,0.0,1.0
154,38.25,35.655,35.3601,118.854,99.2313,103.75,0.0032427,0.34892,20.6763,122.222,-0.374219,0.0,0.0
156,38.75,35.6413,35.7252,122.754,99.2461,103.186,0.0032161,0.362252,20.6639,122.152,-0.327185,0.0,0.0
158,39.25,36.1852,35.6525,118.161,99.2397,104.413,0.00318782,0.373052,20.6498,122.062,-0.427014,0.0,0.0
160,39.75,36.9549,36.4733,117.812,99.2481,103.915,0.00318059,0.379182,20.6462,121.992,-0.386121,0.0,0.0
162,40.25,37.7538,36.8407,115.548,99.2481,103.726,0.00316824,0.384148,20.6399,121.982,-0.370842,0.0,0.0
164,40.75,37.5032,36.9337,123.57,99.2497,103.261,0.00321203,0.385436,20.6383,121.952,-0.332984,0.0,0.0
166,41.25,38.2272,37.3027,122.063,99.2373,102.758,0.00324749,0.384691,20.6402,121.842,-0.292968,0.0,0.0
168,41.75,38.8885,38.0466,127.876,99.2461,102.877,0.00339263,0.383416,20.6455,121.822,-0.301925,0.0,0.0
170,42.25,39.2493,38.2194,124.703,99.2445,102.984,0.00351019,0.37175,20.6534,121.772,-0.310841,0.0,0.0
172,42.75,39.738,38.5592,123.825,99.2497,103.149,0.00360542,0.368612,20.6598,121.752,-0.323863,0.0,0.0
174,43.25,39.9048,39.0769,124.143,99.2277,102.206,0.0040092,0.35509,20.6698,121.672,-0.248515,0.0,0.0
176,43.75,40.144,39.0267,127.322,99.2417,101.643,0.00433627,0.344138,20.6823,121.632,-0.200931,0.0,0.0
178,44.25,40.6756,39.9092,126.791,99.2361,102.737,0.00474768,0.329982,20.6924,121.592,-0.291391,0.0,0.0
180,44.75,40.3321,40.1561,126.193,99.2485,101.076,0.00521277,0.313759,20.7102,121.542,-0.153365,0.0,0.0
182,45.25,40.7146,40.5566,132.119,99.2345,101.253,0.00589374,0.295317,20.7246,121.502,-0.169233,0.0,0.0
184,45.75,40.3353,40.4843,130.878,99.2549,100.971,0.00644532,0.275608,20.7362,121.472,-0.144061,0.0,0.0
186,46.25,40.1647,40.5701,131.603,99.2301,101.278,0.00689211,0.259644,20.7536,121.432,-0.171678,0.0,0.0
188,46.75,40.702,40.5261,131.527,99.2433,100.492,0.00747215,0.242413,20.7676,121.412,-0.105097,0.0,0.0
190,47.25,40.756,40.9035,132.707,99.2365,100.557,0.00813833,0.224586,20.788,121.402,-0.111083,0.0,0.0
192,47.75,40.269,40.4657,133.542,99.2457,100.74,0.00878452,0.208175,20.8045,121.382,-0.125581,0.0,0.0
194,48.25,40.5352,40.401,130.667,99.2421,100.398,0.00940386,0.193109,20.8213,121.322,-0.0973204,0.0,0.0
196,48.75,40.5559,41.0447,133.631,99.2405,101.068,0.00999982,0.180905,20.835,121.292,-0.153375,0.0,0.0
198,49.25,40.2419,40.9573,132.929,99.2369,100.582,0.0105674,0.169487,20.8478,121.261,-0.113138,0.0,0.0
200,49.75,40.307,40.7824,133.337,99.2365,100.405,0.0110272,0.158859,20.8582,121.211,-0.0983932,0.0,0.0
202,50.25,40.1028,40.9836,129.075,99.2361,100.379,0.0114943,0.149869,20.8673,121.181,-0.0962234,0.0,0.0
204,50.75,40.4071,40.6858,131.391,99.2341,101.037,0.0119579,0.142244,20.8752,121.151,-0.151283,0.0,0.0
206,51.25,39.9623,40.6943,133.043,99.2337,100.705,0.0123762,0.135958,20.8817,121.121,-0.123656,0.0,0.0
208,51.75,39.8992,40.4881,135.134,99.2381,100.505,0.0127536,0.130768,20.887,121.081,-0.106583,0.0,0.0
210,52.25,39.5281,40.6329,134.666,99.2233,101.14,0.0130633,0.126563,20.8912,121.061,-0.160806,0.0,0.0
212,52.75,38.8164,39.4963,132.18,99.2429,101.157,0.0133178,0.123241,20.8946,121.031,-0.160515,0.0,0.0
214,53.25,38.9015,39.7484,132.76,99.2297,100.429,0.013524,0.12055,20.8974,120.991,-0.100949,0.0,0.0
216,53.75,38.3572,39.6129,133.517,99.2365,100.548,0.0136368,0.118371,20.8997,120.961,-0.1103,0.0,0.0
218,54.25,39.1835,39.765,133.39,99.2357,100.295,0.0137281,0.116744,20.9015,120.961,-0.0892677,0.0,0.0
220,54.75,38.4312,39.6662,132.167,99.2293,100.574,0.0137648,0.115405,20.903,120.891,-0.113148,0.0,0.0
222,55.25,38.3237,39.2471,133.496,99.2337,100.622,0.013761,0.114301,20.9046,120.861,-0.116727,0.0,0.0
224,55.75,38.2397,39.3362,133.734,99.2213,100.639,0.0137166,0.113406,20.906,120.871,-0.119231,0.0,0.0
226,56.25,38.7029,39.0743,131.393,99.2309,101.077,0.0136123,0.112681,20.9075,120.801,-0.154932,0.0,0.0
228,56.75,38.8228,39.497,130.475,99.2269,100.8,0.0135843,0.112094,20.9079,120.801,-0.132198,0.0,0.0
230,57.25,38.1944,39.2342,130.347,99.2233,100.721,0.0134802,0.111545,20.9086,120.801,-0.125879,0.0,0.0
232,57.75,38.0487,39.0558,134.106,99.2317,100.435,0.0133455,0.111035,20.9096,120.751,-0.101265,0.0,0.0
234,58.25,38.1528,38.9718,127.625,99.2341,100.881,0.0131832,0.110446,20.9104,120.751,-0.138282,0.0,0.0
236,58.75,37.67,39.0025,132.313,99.2137,101.195,0.0130039,0.109811,20.9115,120.721,-0.16618,0.0,0.0
238,59.25,38.2108,39.3429,131.362,99.2237,100.449,0.0128062,0.10877,20.9124,120.721,-0.103176,0.0,0.0
240,59.75,38.2779,39.2297,134.018,99.2253,100.729,0.0125989,0.108296,20.914,120.701,-0.126379,0.0,0.0
242,60.25,38.1012,39.1291,128.903,99.2225,101.487,0.0123847,0.107486,20.9153,120.651,-0.189599,0.0,0.0
244,60.75,38.0089,39.1607,132.693,99.2173,101.132,0.0121696,0.106457,20.9172,120.621,-0.160647,0.0,0.0
246,61.25,37.9542,39.2284,132.69,99.2377,101.23,0.0119954,0.105289,20.9188,120.591,-0.167035,0.0,0.0
248,61.75,38.2804,39.1591,130.539,99.2173,100.69,0.0117438,0.104343,20.9203,120.581,-0.12378,0.0,0.0
250,62.25,38.1489,39.1187,138.845,99.2257,100.851,0.0115399,0.102981,20.9217,120.551,-0.136541,0.0,0.0
252,62.75,37.8379,39.1255,130.331,99.2133,100.825,0.0112786,0.101653,20.923,120.491,-0.135398,0.0,0.0
254,63.25,37.4615,39.2178,135.363,99.2157,101.104,0.0110669,0.100374,20.9242,120.481,-0.158446,0.0,0.0
256,63.75,37.9589,39.2823,132.102,99.2105,100.696,0.0108955,0.099105,20.9251,120.431,-0.124879,0.0,0.0
258,64.25,37.839,38.6702,131.899,99.2125,101.328,0.0106848,0.0978679,20.9266,120.411,-0.177281,0.0,0.0
260,64.75,37.9124,39.0449,134.558,99.2141,101.158,0.0104495,0.0968659,20.9284,120.371,-0.163032,0.0,0.0
262,65.25,37.5247,39.0647,134.253,99.2133,100.744,0.0101909,0.0954051,20.9301,120.361,-0.128662,0.0,0.0
264,65.75,37.9512,38.6884,133.928,99.1993,101.319,0.00998141,0.0942218,20.9317,120.341,-0.177698,0.0,0.0
266,66.25,38.0826,38.6079,132.926,99.2029,100.737,0.00977666,0.0930241,20.9329,120.341,-0.128949,0.0,0.0
268,66.75,37.5092,38.5661,133.653,99.1953,100.749,0.00957923,0.0918386,20.9348,120.331,-0.130637,0.0,0.0
270,67.25,37.1001,38.8765,134.667,99.2089,100.007,0.0093909,0.0908784,20.9364,120.301,-0.067351,0.0,0.0
272,67.75,37.7417,39.04,131.446,99.1997,100.659,0.00921277,0.0898471,20.9381,120.291,-0.122703,0.0,0.0
274,68.25,37.5281,38.9387,128.846,99.2025,100.562,0.00904142,0.0887837,20.9394,120.26,-0.114377,0.0,0.0
276,68.75,37.5539,39.0137,134.708,99.1953,100.664,0.00887828,0.0877342,20.9406,120.23,-0.123524,0.0,0.0
278,69.25,37.7843,38.7187,136.659,99.2005,100.548,0.00874613,0.0867148,20.9423,120.16,-0.113391,0.0,0.0
280,69.75,37.1619,39.0055,133.561,99.2065,100.896,0.00861207,0.0857228,20.944,120.15,-0.141924,0.0,0.0
282,70.25,37.3726,38.8341,138.465,99.1961,100.524,0.00847916,0.0847697,20.9457,120.12,-0.111787,0.0,0.0
284,70.75,37.255,38.5675,134.296,99.1776,100.619,0.0083715,0.0838821,20.947,120.09,-0.121216,0.0,0.0
286,71.25,37.0899,39.1262,132.298,99.1973,100.522,0.00830716,0.0830591,20.9476,120.08,-0.111461,0.0,0.0
288,71.75,37.5244,39.041,131.757,99.1748,100.337,0.00815026,0.0823924,20.9502,120.06,-0.0978641,0.0,0.0
290,72.25,37.7579,38.9684,133.632,99.184,100.296,0.00810805,0.0816647,20.9509,120.02,-0.0936823,0.0,0.0
292,72.75,37.6136,38.4497,135.437,99.1644,99.9023,0.00800826,0.0809064,20.9521,120,-0.0623007,0.0,0.0
294,73.25,37.2549,38.9762,131.62,99.1708,100.868,0.00792743,0.0802921,20.9531,119.99,-0.142564,0.0,0.0
296,73.75,37.0606,38.5883,129.893,99.1632,100.842,0.00783947,0.0795752,20.9539,120,-0.14109,0.0,0.0
298,74.25,36.8474,38.641,133.379,99.1692,100.86,0.00776823,0.0792695,20.9553,119.97,-0.142106,0.0,0.0
300,74.75,36.9316,37.901,134.521,99.1572,100.677,0.00769213,0.0785241,20.9565,119.98,-0.127829,0.0,0.0
302,75.25,36.5221,38.1907,132.605,99.1736,100.218,0.00761393,0.0782307,20.9574,119.95,-0.0880189,0.0,0.0
304,75.75,36.8617,38.5522,133.131,99.1532,100.87,0.00755058,0.0777291,20.9581,119.91,-0.144282,0.0,0.0
306,76.25,36.7305,38.6315,132.823,99.1704,100.609,0.00746436,0.0772074,20.9592,119.9,-0.121044,0.0,0.0
308,76.75,36.8862,38.2245,135.474,99.1636,100.687,0.00739452,0.076681,20.9605,119.87,-0.128142,0.0,0.0
310,77.25,37.0676,38.0937,133.415,99.1604,100.145,0.0073043,0.076197,20.9615,119.85,-0.0830371,0.0,0.0
312,77.75,36.7024,38.3843,133.61,99.1364,99.9648,0.00723123,0.0757531,20.9623,119.84,-0.0699316,0.0,0.0
314,78.25,36.7086,38.3889,137.723,99.1508,100.886,0.00717204,0.0753935,20.963,119.82,-0.145787,0.0,0.0
316,78.75,36.4259,38.1485,134.499,99.1504,100.762,0.00709671,0.074938,20.964,119.79,-0.135517,0.0,0.0
318,79.25,36.9612,39.0023,130.322,99.1412,100.835,0.00703569,0.074569,20.9648,119.75,-0.1424,0.0,0.0
320,79.75,36.6019,38.1988,135.147,99.1424,100.742,0.00695019,0.074188,20.9655,119.73,-0.134485,0.0,0.0
322,80.25,36.1963,38.0893,130.579,99.1384,100.252,0.00688093,0.0738795,20.966,119.73,-0.0938495,0.0,0.0
324,80.75,36.6556,37.8584,133.526,99.1496,100.085,0.00677638,0.0734999,20.9662,119.7,-0.0788965,0.0,0.0
326,81.25,36.5688,38.1778,133.164,99.1408,100.661,0.0067318,0.0730759,20.9666,119.67,-0.127879,0.0,0.0
328,81.75,36.9314,38.1397,130.45,99.1336,100.006,0.00661338,0.0727324,20.9674,119.63,-0.0736569,0.0,0.0
330,82.25,36.7326,37.9965,136.021,99.15,99.8586,0.00651747,0.0722217,20.9684,119.62,-0.0598435,0.0,0.0
332,82.75,36.8442,38.0855,135.108,99.1356,100.497,0.00641824,0.0718081,20.9692,119.6,-0.114637,0.0,0.0
334,83.25,36.3443,37.8637,132.995,99.128,100.471,0.00631849,0.0713228,20.9704,119.56,-0.113117,0.0,0.0
336,83.75,36.5506,38.3551,132.148,99.1332,100.617,0.00622142,0.0711159,20.9713,119.56,-0.124836,0.0,0.0
338,84.25,36.3277,37.8203,139.516,99.1368,100.054,0.00612817,0.0706528,20.9718,119.53,-0.077397,0.0,0.0
340,84.75,36.4678,38.3306,131.774,99.1192,100.028,0.00605263,0.0702776,20.9723,119.52,-0.0767166,0.0,0.0
342,85.25,36.4854,38.1419,132.518,99.1288,100.938,0.00599144,0.0698099,20.9727,119.51,-0.151965,0.0,0.0
344,85.75,36.4389,38.3316,134.015,99.1188,101.364,0.00590476,0.069431,20.973,119.46,-0.188258,0.0,0.0
346,86.25,36.2662,37.6618,133.513,99.1204,101.132,0.00581373,0.0690087,20.9732,119.43,-0.168862,0.0,0.0
348,86.75,35.8149,37.7457,133.009,99.1059,100.133,0.00572125,0.0685628,20.9737,119.4,-0.0866063,0.0,0.0
350,87.25,36.5786,38.2382,132.579,99.1188,100.281,0.00564635,0.0682016,20.9742,119.38,-0.0979447,0.0,0.0
352,87.75,36.5364,38.005,133.728,99.1047,101.027,0.00553752,0.0677317,20.9747,119.37,-0.16143,0.0,0.0
354,88.25,36.0123,37.5994,132.729,99.1075,100.515,0.00544937,0.067351,20.975,119.34,-0.118544,0.0,0.0
356,88.75,36.1297,38.0244,135.714,99.1111,100.278,0.00532865,0.0670427,20.9755,119.3,-0.0983278,0.0,0.0
358,89.25,35.9547,37.9512,136.314,99.118,100.418,0.00523086,0.0666701,20.9762,119.28,-0.109486,0.0,0.0
360,89.75,36.1143,38.4046,131.107,99.0943,100.191,0.00511963,0.0663684,20.9767,119.239,-0.0924582,0.0,0.0
362,90.25,35.6341,37.4548,134.475,99.0975,100.386,0.00502953,0.065974,20.9771,119.209,-0.108566,0.0,0.0
364,90.75,35.7565,37.6519,133.064,99.0779,100.732,0.00493808,0.0656545,20.9774,119.189,-0.139133,0.0,0.0
366,91.25,35.8286,37.5832,133.843,99.0851,100.613,0.00486401,0.065273,20.9777,119.179,-0.128613,0.0,0.0
368,91.75,36.4162,37.6849,132.513,99.0835,100.486,0.00480401,0.064964,20.9779,119.159,-0.118082,0.0,0.0
370,92.25,35.5395,37.7727,131.457,99.0819,100.104,0.0047136,0.0646319,20.9781,119.149,-0.0862095,0.0,0.0
372,92.75,36.0598,37.7277,133.228,99.0959,100.944,0.00464036,0.064363,20.9783,119.119,-0.155307,0.0,0.0
374,93.25,36.367,37.7015,134.412,99.0819,101,0.00458104,0.0640734,20.9784,119.079,-0.161102,0.0,0.0
376,93.75,36.0084,37.79,135.398,99.0823,100.673,0.00450066,0.0637742,20.9785,119.069,-0.13388,0.0,0.0
378,94.25,35.407,37.4133,136.753,99.0703,101.279,0.00440647,0.0634172,20.9786,119.049,-0.185337,0.0,0.0
380,94.75,35.9198,37.9163,133.806,99.0691,100.659,0.00430952,0.0630248,20.9787,119.049,-0.133773,0.0,0.0
382,95.25,35.694,37.8176,131.046,99.0599,100.578,0.00421239,0.0627069,20.9792,119.049,-0.127808,0.0,0.0
384,95.75,35.5752,37.4109,133.715,99.0611,100.362,0.00413372,0.0624495,20.9796,119.009,-0.109678,0.0,0.0
386,96.25,35.6458,37.4469,132.851,99.0603,100.646,0.00402589,0.0620475,20.9801,118.999,-0.13344,0.0,0.0
388,96.75,35.9086,37.5783,133.922,99.0603,100.438,0.00393854,0.0615477,20.9808,118.959,-0.116058,0.0,0.0
390,97.25,35.5755,37.6698,136.202,99.0483,100.619,0.00384087,0.0610498,20.9816,118.929,-0.132223,0.0,0.0
392,97.75,34.7759,36.8949,131.275,99.0663,100.734,0.00376175,0.0605628,20.9824,118.949,-0.140305,0.0,0.0
394,98.25,34.6799,37.488,133.38,99.0459,101.043,0.00366953,0.0601181,20.9831,118.919,-0.167723,0.0,0.0
396,98.75,35.4772,37.4056,137.681,99.0579,100.916,0.00359483,0.0597129,20.9836,118.899,-0.156157,0.0,0.0
398,99.25,35.7134,37.2578,133.654,99.0462,101.242,0.00353433,0.0593846,20.9841,118.889,-0.184302,0.0,0.0
400,99.75,35.4108,37.6812,131.125,99.039,100.619,0.00343156,0.0589419,20.9846,118.889,-0.133005,0.0,0.0
402,100.25,35.2827,37.2984,135.437,99.037,100.636,0.00334832,0.0585834,20.9853,118.859,-0.134628,0.0,0.0
404,100.75,35.6823,37.4927,131.385,99.0346,100.414,0.00323209,0.0581434,20.9859,118.859,-0.116216,0.0,0.0
406,101.25,35.1675,37.6479,132.629,99.0262,100.754,0.00313794,0.057787,20.9863,118.809,-0.145342,0.0,0.0
408,101.75,35.2677,37.032,131.797,99.0374,100.946,0.00302391,0.057341,20.9867,118.789,-0.16038,0.0,0.0
410,102.25,35.6923,37.4337,131.683,99.0342,100.734,0.00293154,0.0568381,20.987,118.789,-0.143024,0.0,0.0
412,102.75,35.1563,37.1524,135.577,99.0354,100.365,0.00283724,0.0564308,20.9874,118.749,-0.112039,0.0,0.0
414,103.25,34.9326,37.0397,132.087,99.0238,100.203,0.00276085,0.0558836,20.988,118.749,-0.0994504,0.0,0.0
416,103.75,34.7264,37.3195,135.544,99.0234,99.8662,0.00269168,0.0554404,20.9885,118.689,-0.0712171,0.0,0.0
418,104.25,35.0963,37.2523,133.654,99.0154,100.143,0.00263564,0.0549727,20.9893,118.649,-0.0951843,0.0,0.0
420,104.75,35.1822,37.7732,133.86,99.0146,99.9371,0.00258001,0.0545939,20.99,118.619,-0.0779339,0.0,0.0
422,105.25,35.0262,36.7938,134.353,99.0162,100.429,0.00252573,0.0541243,20.9905,118.599,-0.119087,0.0,0.0
424,105.75,35.216,37.0015,132.221,99.0166,100.255,0.00248175,0.0537438,20.991,118.569,-0.104477,0.0,0.0
426,106.25,35.199,37.3804,136.14,99.003,100.698,0.00242566,0.053205,20.9913,118.559,-0.142659,0.0,0.0
428,106.75,35.1928,37.0204,134.595,99.0134,100.088,0.0023618,0.0527686,20.992,118.549,-0.0907476,0.0,0.0
430,107.25,35.2701,36.6282,133.951,99.0042,100.24,0.00229025,0.0523365,20.9926,118.529,-0.104259,0.0,0.0
432,107.75,35.1999,36.685,137.175,99.005,100.12,0.00221446,0.0519159,20.9931,118.529,-0.0940835,0.0,0.0
434,108.25,34.9805,36.8951,133.398,98.987,100.418,0.00213519,0.0515752,20.9935,118.509,-0.120598,0.0,0.0
436,108.75,34.5078,37.1124,135.646,98.997,100.373,0.00205489,0.0512044,20.9942,118.479,-0.116013,0.0,0.0
438,109.25,34.9512,36.6821,134.677,98.9886,100.395,0.00197389,0.0509039,20.9949,118.459,-0.118557,0.0,0.0
440,109.75,35.2579,37.2737,129.434,98.989,100.458,0.00189393,0.0506606,20.9953,118.469,-0.123788,0.0,0.0
442,110.25,35.4469,36.8242,131.648,98.9657,100.814,0.00181131,0.0502873,20.9957,118.429,-0.155462,0.0,0.0
444,110.75,35.2035,36.9788,131.496,98.9734,100.176,0.00172832,0.0499849,20.9961,118.409,-0.101488,0.0,0.0
446,111.25,34.2637,36.9884,134.379,98.975,100.058,0.0016611,0.0496587,20.9963,118.429,-0.0914261,0.0,0.0
448,111.75,34.8021,37.258,135.036,98.9802,100.162,0.0015764,0.0493944,20.997,118.409,-0.09975,0.0,0.0
450,112.25,34.5046,36.4544,131.941,98.9609,100.622,0.00150779,0.0490584,20.9975,118.409,-0.139859,0.0,0.0
452,112.75,35.1253,36.5016,131.73,98.9742,100.143,0.00144203,0.0487863,20.9979,118.389,-0.0986871,0.0,0.0
454,113.25,34.8222,36.7476,131.932,98.9593,99.9246,0.00137961,0.0484439,20.9987,118.359,-0.0815762,0.0,0.0
456,113.75,34.8041,36.834,132.308,98.9681,100.312,0.00132713,0.0481666,20.9993,118.329,-0.113379,0.0,0.0
458,114.25,34.8157,36.8575,130.098,98.9589,99.8934,0.00128291,0.0478743,20.9999,118.299,-0.0789825,0.0,0.0
460,114.75,34.9262,36.917,132.194,98.9649,100.472,0.00124709,0.0476375,21.0003,118.289,-0.126987,0.0,0.0
462,115.25,34.9191,36.529,131.268,98.9409,100.123,0.00121565,0.0473886,21.0006,118.258,-0.099788,0.0,0.0
464,115.75,34.9464,36.4663,133.732,98.9569,99.9983,0.00119019,0.0471358,21.0009,118.238,-0.0879703,0.0,0.0
466,116.25,34.5545,36.2126,132.487,98.9349,100.497,0.00116957,0.046931,21.0011,118.248,-0.131628,0.0,0.0
468,116.75,34.6216,36.6084,133.615,98.9541,100.401,0.00115032,0.0466161,21.0013,118.208,-0.122006,0.0,0.0
470,117.25,34.7617,36.1742,131.168,98.9301,100.131,0.00113244,0.0463611,21.0017,118.218,-0.10138,0.0,0.0
472,117.75,34.454,36.5296,132.046,98.9341,100.422,0.00111795,0.0461261,21.002,118.198,-0.125462,0.0,0.0
474,118.25,34.6991,36.7159,133.135,98.9301,100.635,0.00110743,0.0459101,21.0022,118.188,-0.143559,0.0,0.0
476,118.75,34.6722,36.3226,130.45,98.9297,100.27,0.0010989,0.0457351,21.0025,118.158,-0.113092,0.0,0.0
478,119.25,34.5717,36.7902,135.874,98.9145,100.932,0.001092,0.0455506,21.0026,118.158,-0.169706,0.0,0.0
480,119.75,34.3109,36.6375,133.354,98.9105,100.317,0.00108641,0.0453627,21.0028,118.168,-0.118652,0.0,0.0
482,120.25,34.524,36.4287,134.861,98.9029,101.117,0.00108188,0.0452105,21.0029,118.148,-0.186062,0.0,0.0
484,120.75,34.8191,36.366,137.639,98.9093,100.625,0.00107216,0.044979,21.003,118.088,-0.144509,0.0,0.0
486,121.25,34.7564,36.6398,136.401,98.9013,99.6935,0.0010643,0.0447915,21.003,118.068,-0.067046,0.0,0.0
488,121.75,34.2167,36.4661,132.347,98.8976,100.237,0.00103618,0.044626,21.0031,118.058,-0.113047,0.0,0.0
490,122.25,33.9648,36.5689,133.665,98.9008,100.261,0.0010134,0.044492,21.0031,118.018,-0.114794,0.0,0.0
492,122.75,34.1456,36.4758,133.656,98.8932,100.348,0.000968393,0.044355,21.0032,118.008,-0.122695,0.0,0.0
494,123.25,34.4749,36.2497,138.62,98.8892,99.9309,0.000931936,0.0442184,21.0032,117.978,-0.0880563,0.0,0.0
496,123.75,34.4126,36.7199,132.983,98.8968,100.22,0.000887925,0.0441077,21.0035,117.978,-0.111655,0.0,0.0
498,124.25,34.6627,36.7618,132.077,98.8888,100.003,0.000852277,0.0439504,21.0039,117.948,-0.0941676,0.0,0.0
500,124.75,34.6285,36.2146,134.898,98.8928,100.411,0.000819782,0.043823,21.0042,117.958,-0.127996,0.0,0.0
502,125.25,34.2722,35.7661,135.563,98.8796,100.183,0.000793461,0.0436793,21.0045,117.968,-0.11005,0.0,0.0
504,125.75,33.8909,35.9972,132.541,98.8856,100.46,0.000772777,0.0435628,21.0047,117.938,-0.132754,0.0,0.0
506,126.25,34.1682,36.0093,131.776,98.8832,100.382,0.000756593,0.043455,21.0049,117.918,-0.126423,0.0,0.0
508,126.75,34.329,36.0294,132.474,98.8816,100.342,0.000743485,0.0433676,21.005,117.918,-0.123195,0.0,0.0
510,127.25,34.1289,36.5952,133.522,98.8836,100.242,0.000736677,0.0432897,21.0051,117.878,-0.11465,0.0,0.0
512,127.75,33.8746,35.9404,134.966,98.8808,100.205,0.000734591,0.0432203,21.0052,117.848,-0.111782,0.0,0.0
514,128.25,34.1788,35.8239,133.459,98.8796,99.8251,0.000732901,0.0431711,21.0053,117.858,-0.0799741,0.0,0.0
516,128.75,34.2449,36.0651,135.121,98.8876,100.355,0.000738773,0.0431377,21.0054,117.848,-0.123769,0.0,0.0
518,129.25,34.4515,36.1591,129.92,98.8752,99.8046,0.000744164,0.0431106,21.0054,117.838,-0.0786205,0.0,0.0
520,129.75,33.6363,35.7354,136.101,98.8784,100.001,0.000749103,0.0431022,21.0055,117.818,-0.0948651,0.0,0.0
522,130.25,34.0695,35.8582,131.826,98.8908,100.163,0.000753103,0.0430954,21.0055,117.798,-0.107412,0.0,0.0
524,130.75,33.8995,35.7798,134.975,98.8796,99.7974,0.000745484,0.0430899,21.0058,117.798,-0.0776452,0.0,0.0
526,131.25,34.2404,36.2102,136.245,98.88,100.44,0.000732963,0.0430719,21.0062,117.798,-0.131513,0.0,0.0
528,131.75,33.8326,36.0934,137.565,98.8672,100.745,0.000717108,0.0430573,21.0065,117.788,-0.15814,0.0,0.0
530,132.25,33.7086,35.793,134.107,98.8696,100.265,0.000704265,0.0430861,21.0068,117.748,-0.117748,0.0,0.0
532,132.75,33.909,36.1187,138.698,98.8604,100.443,0.000681803,0.0431094,21.007,117.688,-0.13348,0.0,0.0
534,133.25,33.8664,36.1915,132.01,98.8636,100.511,0.000663609,0.0430877,21.0072,117.698,-0.138844,0.0,0.0
536,133.75,33.4405,36.1368,135.31,98.8556,99.9335,0.000638087,0.0430701,21.0073,117.708,-0.0911415,0.0,0.0
538,134.25,34.2924,36.1812,130.556,98.8636,99.9331,0.000607708,0.0430288,21.0074,117.718,-0.0904225,0.0,0.0
540,134.75,33.8219,35.8309,134.696,98.8636,99.7077,0.000574859,0.0429954,21.0075,117.708,-0.07145,0.0,0.0
542,135.25,34.2502,35.9731,134.055,98.8584,99.8715,0.000540833,0.0429954,21.0076,117.668,-0.0856842,0.0,0.0
544,135.75,34.3879,36.1437,131.562,98.854,100.285,0.000513272,0.0429953,21.0077,117.628,-0.12076,0.0,0.0
546,136.25,33.6334,35.7853,135.226,98.856,99.7189,0.000481313,0.0429882,21.0075,117.588,-0.0730369,0.0,0.0
548,136.75,34.231,35.8927,134.942,98.8656,100.43,0.000455427,0.042976,21.0071,117.588,-0.131954,0.0,0.0
550,137.25,33.871,36.1571,133.496,98.8628,100.079,0.000433254,0.0429661,21.0069,117.558,-0.102716,0.0,0.0
552,137.75,33.9207,36.1034,133.659,98.8512,99.6984,0.000415294,0.042904,21.0066,117.548,-0.0717152,0.0,0.0
554,138.25,33.752,36.3323,134.675,98.8688,100.425,0.000399479,0.0428537,21.0064,117.568,-0.131271,0.0,0.0
556,138.75,33.6099,35.9758,135.137,98.8432,99.876,0.000385528,0.0428536,21.0063,117.558,-0.0873538,0.0,0.0
558,139.25,33.4584,35.5952,136.549,98.8552,99.7617,0.000374228,0.0428534,21.0062,117.538,-0.0767145,0.0,0.0
560,139.75,34.1171,35.6908,134.692,98.8448,99.8813,0.000358106,0.0428604,21.0061,117.518,-0.0876686,0.0,0.0
562,140.25,33.6422,36.1411,133.447,98.8512,100.613,0.000338775,0.0428725,21.0059,117.508,-0.148476,0.0,0.0
564,140.75,33.9969,35.6349,131.304,98.8328,100.629,0.000323116,0.0428894,21.0057,117.478,-0.151384,0.0,0.0
566,141.25,34.3384,35.5256,132.367,98.8464,100.596,0.000308533,0.0429095,21.0056,117.458,-0.147431,0.0,0.0
568,141.75,33.5862,35.7543,133.725,98.8368,99.967,0.000295009,0.0429258,21.0055,117.418,-0.0955556,0.0,0.0
570,142.25,33.6865,36.0175,132.474,98.8524,100.489,0.000285323,0.042939,21.0054,117.438,-0.138006,0.0,0.0
572,142.75,33.8317,35.8512,135.116,98.8372,100.33,0.000278617,0.0429632,21.0053,117.378,-0.126004,0.0,0.0
574,143.25,33.9608,35.8309,128.518,98.842,100.426,0.000273818,0.0429828,21.0052,117.458,-0.133627,0.0,0.0
576,143.75,33.6994,35.8197,135.906,98.8372,100.427,0.000270502,0.0429311,21.0052,117.428,-0.134073,0.0,0.0
578,144.25,33.8952,35.9643,131.365,98.8524,99.9139,0.000267182,0.0428892,21.0052,117.398,-0.0897623,0.0,0.0
580,144.75,33.8882,35.8914,131.38,98.8396,99.9362,0.000263923,0.0428552,21.0051,117.388,-0.0927286,0.0,0.0
582,145.25,33.9013,36.1395,134.248,98.8464,99.8041,0.000251784,0.0428142,21.0051,117.378,-0.0810341,0.0,0.0
584,145.75,33.9037,35.6842,133.224,98.8348,99.7243,0.000233402,0.042781,21.0051,117.318,-0.0752932,0.0,0.0
586,146.25,33.8294,35.8732,133.902,98.848,100.384,0.000218513,0.0427811,21.0051,117.267,-0.129605,0.0,0.0
588,146.75,33.9206,35.7504,131.741,98.8408,99.8224,0.000178796,0.0427812,21.0051,117.288,-0.0830512,0.0,0.0
590,147.25,33.9381,35.8694,137.188,98.8412,99.6087,0.000146625,0.0427542,21.005,117.288,-0.0650024,0.0,0.0
592,147.75,33.7782,35.5769,131.038,98.836,100.49,0.000120567,0.0427324,21.005,117.278,-0.139439,0.0,0.0
594,148.25,34.0029,35.4705,134.11,98.838,99.7751,8.38346e-05,0.0427418,21.005,117.257,-0.0793066,0.0,0.0
596,148.75,34.1817,35.5053,134.112,98.8312,99.7711,5.40813e-05,0.0427493,21.005,117.267,-0.0795473,0.0,0.0
598,149.25,34.2575,35.9027,133.505,98.8384,99.992,3.12462e-05,0.0427825,21.005,117.267,-0.0975195,0.0,0.0
600,149.75,33.6335,34.8994,135.116,98.8356,100.076,1.38884e-05,0.0428094,21.005,117.237,-0.104807,0.0,0.0
602,150.25,34.5042,36.333,132.2,98.8472,100.083,3.62424e-06,0.0428454,21.005,117.237,-0.104419,0.0,0.0
604,150.75,33.5968,35.397,134.766,98.8332,100.163,-1.27367e-06,0.0428874,21.005,117.207,-0.112352,0.0,0.0
606,151.25,33.7669,35.7107,134.544,98.8352,99.7599,2.35107e-06,0.0429214,21.005,117.147,-0.0782665,0.0,0.0
608,151.75,33.9822,35.5842,135.859,98.8352,100.367,1.21199e-05,0.0429418,21.0054,117.127,-0.129275,0.0,0.0
610,152.25,33.5065,35.5405,132.27,98.8392,99.9371,3.45922e-05,0.042952,21.0058,117.117,-0.0928375,0.0,0.0
612,152.75,33.7765,36.0359,132.347,98.8416,100.042,6.58982e-05,0.0429602,21.0061,117.097,-0.101485,0.0,0.0
614,153.25,33.9114,35.4179,132.652,98.8376,100.554,0.000107728,0.0429668,21.0063,117.067,-0.144675,0.0,0.0
616,153.75,33.3122,35.5022,134.821,98.8183,100.381,0.000156435,0.0429722,21.0065,117.107,-0.131864,0.0,0.0
618,154.25,33.6179,35.6607,135.834,98.8352,100.498,0.000195887,0.0429766,21.0067,117.087,-0.140216,0.0,0.0
620,154.75,33.4766,35.7859,134.786,98.8299,100.052,0.000272429,0.042973,21.0068,117.037,-0.103297,0.0,0.0
622,155.25,33.7204,35.3363,132.896,98.8312,100.088,0.000334428,0.0429637,21.0069,117.077,-0.106155,0.0,0.0
624,155.75,34.0272,35.4512,135.527,98.8296,100.266,0.000399118,0.042949,21.007,117.107,-0.121266,0.0,0.0
626,156.25,33.5779,34.95,134.213,98.8328,100.067,0.000451518,0.0429308,21.007,117.087,-0.104295,0.0,0.0
628,156.75,33.5798,35.7483,133.474,98.838,100.58,0.000493961,0.0428946,21.0071,117.037,-0.146842,0.0,0.0
630,157.25,33.8327,35.5115,134.433,98.8227,100.188,0.00052834,0.0428461,21.0067,117.007,-0.115335,0.0,0.0
632,157.75,33.712,35.2038,135.746,98.8175,100.092,0.000552379,0.0428068,21.0064,116.997,-0.107688,0.0,0.0
634,158.25,33.6364,35.4379,131.772,98.8215,100.129,0.000568422,0.0427892,21.0061,116.977,-0.110457,0.0,0.0
636,158.75,33.8268,35.4845,136.044,98.8324,100.412,0.000575706,0.0427878,21.0059,116.977,-0.133287,0.0,0.0
638,159.25,33.9776,35.4677,132.248,98.8239,100.065,0.000576465,0.0427866,21.0057,116.977,-0.104894,0.0,0.0
640,159.75,33.2177,35.0813,136.775,98.8215,99.6711,0.000577079,0.0427857,21.0056,116.947,-0.0719405,0.0,0.0
642,160.25,33.6854,35.7068,135.035,98.836,100.174,0.000557087,0.0427778,21.0055,116.937,-0.112975,0.0,0.0
644,160.75,33.1079,34.9103,135.078,98.8267,99.685,,0.042765,,116.927,-0.072665,0.0,0.0
646,161.25,33.5605,35.358,135.536,98.8291,100.17,,0.0427547,,116.897,-0.113217,0.0,0.0
648,161.75,33.1777,35.0653,130.744,98.8316,100.155,,0.0427463,,116.907,-0.111815,0.0,0.0
650,162.25,33.0245,35.5846,134.117,98.836,100.716,,0.0427395,,116.917,-0.158376,0.0,0.0
652,162.75,33.6332,35.3796,132.262,98.8312,100.096,,0.042734,,116.877,-0.106867,0.0,0.0
654,163.25,33.0728,35.3543,134.316,98.8316,100.086,,0.0427295,,116.837,-0.105972,0.0,0.0
656,163.75,33.6442,35.3364,137.32,98.8324,99.4837,,,,116.797,-0.0552036,0.0,0.0
658,164.25,33.3335,35.441,134.859,98.8336,100.582,,,,116.797,-0.147365,0.0,0.0
660,164.75,33.595,35.2184,133.384,98.8368,99.5948,,,,116.777,-0.0642099,0.0,0.0
662,165.25,33.2206,35.2412,133.803,98.8452,99.9572,,,,116.767,-0.0940156,0.0,0.0
664,165.75,33.5504,34.8478,130.789,98.8384,99.8822,,,,116.757,-0.0882882,0.0,0.0
666,166.25,33.4694,35.313,132.298,98.8283,99.8474,,,,116.747,-0.086211,0.0,0.0
668,166.75,33.3998,35.0477,133.664,98.8404,100.368,,,,116.767,-0.12887,0.0,0.0
670,167.25,33.9933,35.9173,134.351,98.8368,100.042,,,,116.757,-0.101856,0.0,0.0
672,167.75,33.5211,35.1449,133.944,98.856,100.37,,,,116.767,-0.127766,0.0,0.0
674,168.25,33.3373,35.2051,133.641,98.8396,100.56,,,,116.757,-0.145027,0.0,0.0
676,168.75,33.4993,35.1423,131.549,98.84,100.031,,,,116.777,-0.100684,0.0,0.0
678,169.25,33.1171,35.1289,130.756,98.8424,100.073,,,,116.727,-0.103965,0.0,0.0
680,169.75,33.2011,35.3735,137.798,98.8368,100.213,,,,116.717,-0.116239,0.0,0.0
682,170.25,33.0955,34.5682,133.162,98.8384,100.641,,,,116.697,-0.151877,0.0,0.0
684,170.75,33.6994,34.8751,132.108,98.8372,99.7903,,,,116.667,-0.0806527,0.0,0.0
686,171.25,33.8182,35.1722,133.278,98.8291,100.017,,,,116.637,-0.100403,0.0,0.0