File: 01_Data/Standard_Gypsum/Cone/Standard_Gypsum_Cone_HF75Scan_220511_R1.csv
Names,Time,Stack TC,Smoke TC,Exh Press,Smoke Comp,Smoke Meas,CO Meter,CO2 Meter,O2 Meter,Sample Mass,Ext Coeff,Start Test,Flame Verif
Chan Gain,,500,500,1,1,1,1,1,1,1,1,1.0,1.0
Offset,,0,0,0.138628,0,0,0,0,0,0,0,0.0,0.0
Gain,,1,1,25.011,13.1256,14.6231,1,1,1,1.001,0.958019,1.0,1.0
Units,sec,C,C,Pa,%,%,%,%,%,g,/m,,
Baseline,,45.0743,46.9498,130.199,99.3062,102.142,0.000418213,0.0424503,21.0031,-445.909,-0.236519,,
2,0.25,43.1348,44.8173,132.98,99.1019,101.541,0.000380394,0.0449352,21.0011,126.477,-0.204286,0.0,0.0
4,0.75,42.4446,44.2687,130.636,99.0891,102.107,0.000367662,0.044803,21.0009,126.437,-0.252112,0.0,0.0
6,1.25,41.1402,43.5603,130.984,99.0803,102.292,0.000357348,0.0446895,21.0008,126.467,-0.268124,0.0,0.0
8,1.75,40.8456,43.2571,130.017,99.0859,101.77,0.000364208,0.0445975,21.0006,126.437,-0.224644,0.0,0.0
10,2.25,41.242,43.2537,128.498,99.0823,101.014,0.000383457,0.0445366,21.0005,126.437,-0.162256,0.0,0.0
12,2.75,41.1768,42.9549,128.97,99.0807,101.056,0.000436459,0.0444872,21.0004,126.417,-0.165918,0.0,0.0
14,3.25,41.2611,43.0509,130.542,99.0663,100.977,0.000513059,0.0444879,21.0004,126.397,-0.160533,0.0,0.0
16,3.75,40.9727,43.1456,128.921,99.0743,101.298,0.000575106,0.0444884,21.0003,126.367,-0.186552,0.0,0.0
18,4.25,41.3398,43.2694,129.704,99.0679,101.087,0.000701504,0.0445457,21.0004,126.387,-0.169528,0.0,0.0
20,4.75,41.1381,43.2706,132.944,99.0667,99.6502,0.000803887,0.0446435,21.0005,126.367,-0.0493514,0.0,0.0
22,5.25,41.2267,43.1475,135.353,99.0651,100.716,0.000886817,0.0447227,21.0006,126.327,-0.13888,0.0,0.0
24,5.75,40.9449,43.1625,129.614,99.0647,100.042,0.00104727,0.04495,21.0006,126.317,-0.0825368,0.0,0.0
26,6.25,41.3181,43.1048,131.11,99.0547,99.5908,0.00117723,0.0451342,21.0007,126.337,-0.0453644,0.0,0.0
28,6.75,41.3168,43.4771,130.643,99.0643,100.495,0.00133227,0.0454187,21.0005,126.236,-0.120496,0.0,0.0
30,7.25,41.2553,43.4099,131.255,99.0627,100.827,0.00145785,0.0456492,21.0002,126.216,-0.148388,0.0,0.0
32,7.75,41.5858,43.3662,125.518,99.0631,100.918,0.00158265,0.0458858,20.9999,126.156,-0.155901,0.0,0.0
34,8.25,41.7407,43.4837,132.074,99.0394,100.479,0.00168375,0.0461224,20.9996,126.136,-0.12126,0.0,0.0
36,8.75,41.3039,43.2725,130.073,99.0499,100.32,0.00178143,0.046314,20.9994,126.106,-0.107041,0.0,0.0
38,9.25,41.4858,43.4659,128.266,99.0491,100.226,0.00186056,0.0465263,20.9993,126.076,-0.0992923,0.0,0.0
40,9.75,41.8446,43.7377,127.572,99.0459,101.247,0.00192849,0.0467495,20.9992,126.066,-0.184743,0.0,0.0
42,10.25,41.6872,43.5389,129.338,99.0406,99.7573,0.00198697,0.0470017,20.9986,126.016,-0.0605876,0.0,0.0
44,10.75,41.9299,43.3391,129.35,99.0382,100.327,0.00203563,0.0472701,20.9982,125.946,-0.108662,0.0,0.0
46,11.25,42.0111,44.1272,129.25,99.043,100.431,0.00207618,0.0475803,20.9974,125.966,-0.116959,0.0,0.0
48,11.75,42.0387,43.7141,126.57,99.0342,99.2436,0.00210904,0.047915,20.9968,125.896,-0.01775,0.0,0.0
50,12.25,42.3867,44.1004,126.067,99.0282,99.1633,0.00214416,0.0482503,20.996,125.946,-0.0114543,0.0,0.0
52,12.75,42.1789,44.0894,130.272,99.0366,98.5425,0.00217261,0.0485797,20.9952,125.886,0.0420303,0.0,0.0
54,13.25,42.816,44.1097,125.845,99.0206,98.0003,0.00221936,0.0489393,20.9945,125.846,0.0870376,0.0,0.0
56,13.75,42.1489,44.1845,131.277,99.0242,98.0512,0.00227857,0.0493141,20.9936,125.776,0.0829825,0.0,0.0
58,14.25,42.1452,44.3534,129.33,99.0158,98.0878,0.00235539,0.0497534,20.9928,125.726,0.0791328,0.0,0.0
60,14.75,42.7882,44.2768,129.711,99.0238,97.2993,0.0024436,0.0502313,20.9917,125.696,0.147644,0.0,0.0
62,15.25,42.4305,43.9255,129.649,99.0046,96.3032,0.0024812,0.0506184,20.9913,125.716,0.232484,0.0,0.0
64,15.75,42.7686,44.3703,128.28,99.0218,95.2192,0.00260044,0.0516974,20.9905,125.686,0.329073,0.0,0.0
66,16.25,42.7391,44.2962,127.924,98.9994,95.155,0.00269702,0.0532603,20.9889,125.666,0.332843,0.0,0.0
68,16.75,42.7174,44.404,130.378,99.0086,95.2322,0.00277525,0.0578156,20.9868,125.656,0.326809,0.0,0.0
70,17.25,42.7495,44.1935,128.64,99.0126,94.204,0.00288752,0.0644659,20.9807,125.516,0.418373,0.0,0.0
72,17.75,42.6768,44.6446,124.032,99.0018,102.028,0.00297845,0.0773624,20.9718,125.426,-0.253017,0.0,0.0
74,18.25,43.0298,44.649,124.701,98.9974,103.291,0.00305823,0.0864177,20.9549,125.316,-0.356811,0.0,1.0
76,18.75,42.8017,44.7069,116.832,99.0042,103.505,0.00312284,0.101902,20.9325,125.366,-0.373606,0.0,1.0
78,19.25,43.2799,44.6653,113.526,98.9986,104.195,0.00317518,0.114445,20.9144,125.115,-0.429948,0.0,1.0
80,19.75,42.9931,44.7269,117.818,99.0058,104.406,0.00320657,0.149592,20.8891,124.965,-0.446343,0.0,1.0
82,20.25,44.0675,45.3569,113.405,98.9922,105.161,0.00323199,0.178061,20.8591,124.925,-0.507985,0.0,1.0
84,20.75,43.7539,45.5298,117.636,98.9998,104.738,0.00322935,0.208345,20.8246,124.935,-0.473499,0.0,1.0
86,21.25,43.7977,45.9374,112.252,98.9926,104.447,0.00322721,0.239377,20.7876,124.795,-0.450733,0.0,1.0
88,21.75,45.4135,45.7405,111.867,99.0066,104.298,0.00319249,0.264512,20.7537,124.725,-0.437578,0.0,1.0
90,22.25,45.8898,46.2701,111.33,98.9918,105.008,0.00316437,0.294718,20.7227,124.595,-0.49585,0.0,1.0
92,22.75,46.454,46.7584,116.423,98.9966,104.904,0.00310863,0.319184,20.6976,124.475,-0.487081,0.0,1.0
94,23.25,46.4239,46.7208,111.029,98.987,104.509,0.00306348,0.342719,20.6764,124.415,-0.456163,0.0,1.0
96,23.75,45.7877,46.221,115.446,98.9962,105.25,0.00302246,0.361782,20.6592,124.405,-0.514774,0.0,0.0
98,24.25,46.49,46.4232,114.479,98.997,104.743,0.00298522,0.377269,20.6453,124.285,-0.474131,0.0,0.0
100,24.75,47.5197,47.1521,113.063,98.999,104.816,0.00295762,0.389854,20.634,124.184,-0.479795,0.0,0.0
102,25.25,47.5532,47.6687,113.289,98.9902,104.946,0.00293758,0.399197,20.6247,124.124,-0.490949,0.0,0.0
104,25.75,48.1611,48.1819,111.884,98.9962,104.87,0.00292134,0.405999,20.6172,124.054,-0.484361,0.0,0.0
106,26.25,48.5082,48.6074,114.17,98.993,104.884,0.00295092,0.409874,20.6127,124.014,-0.485813,0.0,0.0
108,26.75,48.6495,48.3666,116.539,98.9958,104.15,0.00297487,0.41154,20.6105,123.964,-0.42655,0.0,0.0
110,27.25,49.5668,49.6364,117.552,98.9906,105.183,0.00307932,0.410764,20.6088,123.884,-0.509904,0.0,0.0
112,27.75,49.7116,49.7367,114.667,98.9834,104.393,0.00324046,0.408221,20.6117,123.784,-0.447206,0.0,0.0
114,28.25,50.1527,50.447,117.458,98.989,104.026,0.00337098,0.406161,20.6141,123.704,-0.417111,0.0,0.0
116,28.75,50.3241,50.8564,117.15,98.997,104.393,0.00375869,0.397186,20.62,123.684,-0.446013,0.0,0.0
118,29.25,50.5711,51.1596,118.832,98.9874,103.787,0.00407274,0.389916,20.6282,123.574,-0.397866,0.0,0.0
120,29.75,51.7565,51.8497,124.05,98.9914,104.276,0.00467979,0.377716,20.6423,123.554,-0.437036,0.0,0.0
122,30.25,51.4877,51.7522,121.534,98.9818,103.371,0.00537873,0.362153,20.6603,123.534,-0.364634,0.0,0.0
124,30.75,51.9932,51.8395,125.406,98.9854,102.382,0.00613138,0.349547,20.6885,123.494,-0.283509,0.0,0.0
126,31.25,52.5909,52.1788,127.698,98.987,102.696,0.00693563,0.326862,20.7113,123.464,-0.309157,0.0,0.0
128,31.75,52.2227,52.3365,124.14,98.991,103.321,0.00776223,0.308488,20.7377,123.424,-0.359787,0.0,0.0
130,32.25,52.6259,52.5948,130.422,98.9826,102.388,0.00843177,0.284692,20.759,123.354,-0.284297,0.0,0.0
132,32.75,52.2504,52.9933,126.523,98.9894,102.506,0.00920573,0.265418,20.7763,123.344,-0.293346,0.0,0.0
134,33.25,51.9967,53.1044,129.219,98.9854,102.286,0.0100411,0.244216,20.7951,123.314,-0.275667,0.0,0.0
136,33.75,52.523,52.9011,126.335,98.9966,101.866,0.0107178,0.227042,20.8104,123.263,-0.240142,0.0,0.0
138,34.25,50.5784,52.0011,128.087,98.9894,102.677,0.0114942,0.210025,20.8241,123.213,-0.307384,0.0,0.0
140,34.75,51.1579,52.3675,128.208,99.0082,102.147,0.0121231,0.196241,20.8365,123.163,-0.262318,0.0,0.0
142,35.25,50.65,51.8275,127.285,98.9938,102.002,0.0127413,0.183091,20.8469,123.133,-0.251602,0.0,0.0
144,35.75,50.9471,51.6562,126.354,98.9938,103.259,0.0132421,0.172439,20.8558,123.083,-0.354502,0.0,0.0
146,36.25,50.8175,51.6848,129.098,98.997,102.763,0.0136919,0.163811,20.8644,123.033,-0.313783,0.0,0.0
148,36.75,50.6868,52.294,128.286,99.0038,102.504,0.0140562,0.155757,20.8713,123.003,-0.292012,0.0,0.0
150,37.25,50.6177,52.0255,130.683,99.0038,102.098,0.0143305,0.149233,20.8773,123.003,-0.258616,0.0,0.0
152,37.75,50.4983,52.1369,127.283,99.0118,102.781,0.0145527,0.143599,20.8826,122.973,-0.313949,0.0,0.0
154,38.25,50.2614,52.1466,127.825,99.0098,102.508,0.0146536,0.139035,20.8869,122.953,-0.291795,0.0,0.0
156,38.75,50.2108,51.7743,129.859,99.011,102.708,0.0147353,0.135017,20.8907,122.883,-0.308103,0.0,0.0
158,39.25,49.9652,51.2688,129.653,99.0122,102.579,0.0148015,0.131762,20.8939,122.843,-0.297442,0.0,0.0
160,39.75,49.9473,51.4991,128.542,99.0026,102.614,0.0148551,0.128664,20.8965,122.783,-0.30111,0.0,0.0
162,40.25,49.5073,51.785,130.037,99.021,102.792,0.0147008,0.126156,20.8981,122.773,-0.314115,0.0,0.0
164,40.75,49.8766,51.6871,132.11,99.0102,101.836,0.0145758,0.123793,20.8991,122.763,-0.236483,0.0,0.0
166,41.25,50.1651,51.4317,128.282,99.0122,102.591,0.0143857,0.121582,20.9003,122.723,-0.298356,0.0,0.0
168,41.75,49.8621,51.3639,129.13,99.0122,102.766,0.0142317,0.119791,20.9017,122.703,-0.31271,0.0,0.0
170,42.25,49.3383,51.2573,127.363,99.013,102.384,0.0140197,0.118341,20.9032,122.653,-0.281346,0.0,0.0
172,42.75,49.3116,51.5156,127.295,99.0134,102.447,0.0138479,0.116484,20.9049,122.643,-0.286512,0.0,0.0
174,43.25,49.4701,51.2146,128.111,99.0134,102.873,0.013619,0.114979,20.9068,122.603,-0.321362,0.0,0.0
176,43.75,49.318,51.0863,126.58,99.0186,102.93,0.0134336,0.113534,20.9087,122.583,-0.325585,0.0,0.0
178,44.25,49.2242,51.0251,127.624,99.0198,102.79,0.01319,0.112159,20.9107,122.533,-0.314035,0.0,0.0
180,44.75,49.2503,51.5757,122.963,99.0126,102.465,0.0129928,0.110587,20.9127,122.483,-0.288008,0.0,0.0
182,45.25,49.0762,50.9112,129.62,99.023,103.036,0.0127487,0.109314,20.9146,122.483,-0.333878,0.0,0.0
184,45.75,49.2042,50.6695,127.405,99.0294,101.977,0.0125511,0.10802,20.9163,122.493,-0.24648,0.0,0.0
186,46.25,49.6965,51.194,126.955,99.0298,102.667,0.012391,0.106735,20.9177,122.473,-0.303145,0.0,0.0
188,46.75,49.0135,50.8842,129.805,99.0158,102.187,0.0121467,0.105334,20.9191,122.413,-0.264939,0.0,0.0
190,47.25,49.1393,51.3939,126.478,99.0126,102.089,0.0119489,0.104199,20.9204,122.373,-0.25717,0.0,0.0
192,47.75,48.8698,50.6178,127.394,99.0206,103.122,0.0117035,0.103054,20.9215,122.343,-0.341068,0.0,0.0
194,48.25,48.7721,50.8958,125.002,99.0106,102.234,0.0115048,0.101924,20.9232,122.323,-0.269233,0.0,0.0
196,48.75,48.9713,50.6349,127.179,99.0098,103.477,0.0112872,0.100753,20.9246,122.283,-0.370884,0.0,0.0
198,49.25,48.7417,50.2444,130.517,99.0054,102.85,0.0110599,0.099576,20.9262,122.242,-0.320147,0.0,0.0
200,49.75,49.1962,50.9026,128.303,99.0078,102.39,0.0108333,0.0986223,20.9275,122.212,-0.282265,0.0,0.0
202,50.25,48.8676,50.9113,131.122,99.021,102.036,0.0106113,0.0973804,20.9289,122.202,-0.252047,0.0,0.0
204,50.75,49.1906,50.7389,129.395,99.0046,102.197,0.0103977,0.0963744,20.9301,122.162,-0.266662,0.0,0.0
206,51.25,49.0845,50.7362,128.799,99.0178,101.986,0.0101943,0.0953707,20.932,122.142,-0.248238,0.0,0.0
208,51.75,48.8188,50.9588,126.52,98.9998,103.009,0.0100294,0.0943879,20.9335,122.122,-0.333629,0.0,0.0
210,52.25,48.688,50.7362,128.051,99.019,101.723,0.00985058,0.0935918,20.9351,122.052,-0.226376,0.0,0.0
212,52.75,48.5563,51.0169,127.86,99.0042,102.458,0.00970572,0.0926851,20.9364,122.042,-0.288209,0.0,0.0
214,53.25,48.6734,50.2827,126.693,99.0138,101.909,0.00956255,0.0919506,20.9375,121.992,-0.242177,0.0,0.0
216,53.75,48.31,50.4299,126.773,99.0034,101.571,0.00942335,0.0911215,20.9384,121.982,-0.215194,0.0,0.0
218,54.25,48.4986,50.4719,128.615,99.0134,101.974,0.00929273,0.0904499,20.9391,121.952,-0.247583,0.0,0.0
220,54.75,48.551,50.8523,128.925,99.0018,102.919,0.00917087,0.0897269,20.9397,121.932,-0.326065,0.0,0.0
222,55.25,48.3454,50.1932,126.367,99.0086,103.031,0.00907215,0.0891412,20.9401,121.922,-0.334629,0.0,0.0
224,55.75,48.3277,50.1932,131.52,99.007,103.493,0.00894193,0.0885017,20.9411,121.852,-0.37239,0.0,0.0
226,56.25,48.15,50.5423,131.72,99.0106,101.861,0.00883645,0.0879837,20.9423,121.802,-0.238474,0.0,0.0
228,56.75,48.0489,50.6556,130.67,99.0054,102.583,0.00871464,0.0874121,20.9435,121.792,-0.298313,0.0,0.0
230,57.25,47.8019,50.1266,127.407,99.0066,101.781,0.00861598,0.0868122,20.9447,121.792,-0.232257,0.0,0.0
232,57.75,48.2711,50.1516,128.898,99.007,103.44,0.008506,0.0863263,20.9457,121.742,-0.368113,0.0,0.0
234,58.25,48.4974,49.9208,125.721,99.0158,103.096,0.00841691,0.0858463,20.9465,121.722,-0.339366,0.0,0.0
236,58.75,48.1612,49.653,127.421,99.0094,103.365,0.00832762,0.0853798,20.9472,121.702,-0.36178,0.0,0.0
238,59.25,47.442,50.6737,127.815,99.0114,102.25,0.00823988,0.0848645,20.9481,121.672,-0.270486,0.0,0.0
240,59.75,47.7155,50.1838,126.558,98.9982,103.19,0.00816881,0.0844471,20.9489,121.642,-0.348534,0.0,0.0
242,60.25,47.7663,49.6193,127.728,99.019,102.307,0.00809216,0.0838892,20.9497,121.592,-0.274534,0.0,0.0
244,60.75,48.1401,49.5429,128.174,99.005,102.275,0.00801288,0.0834373,20.9507,121.542,-0.273047,0.0,0.0
246,61.25,47.6863,49.9059,132.4,99.0042,102.919,0.00793486,0.0829412,20.9514,121.542,-0.325861,0.0,0.0
248,61.75,47.0257,49.9131,125.472,98.995,102.974,0.00785923,0.0824222,20.952,121.522,-0.331161,0.0,0.0
250,62.25,47.4908,50.1726,126.546,98.9958,101.825,0.00779797,0.0820019,20.9525,121.492,-0.236823,0.0,0.0
252,62.75,47.3427,49.8262,131.207,99.0018,102.591,0.00773192,0.0813869,20.9528,121.472,-0.299277,0.0,0.0
254,63.25,47.1812,49.6738,129.474,99.0138,103.248,0.00766363,0.0808888,20.9529,121.452,-0.35193,0.0,0.0
256,63.75,47.7098,49.857,128.701,98.9982,101.966,0.00759912,0.0804131,20.953,121.422,-0.248212,0.0,0.0
258,64.25,47.6579,49.6957,126.167,99.0118,102.622,0.00753859,0.0799629,20.9531,121.372,-0.300985,0.0,0.0
260,64.75,47.3981,50.0485,129.944,99.0106,102.305,0.00748103,0.0795982,20.9531,121.332,-0.275027,0.0,0.0
262,65.25,46.9786,49.6032,134.667,99.0126,102.805,0.00742672,0.0792378,20.9534,121.292,-0.315887,0.0,0.0
264,65.75,47.6433,49.4565,131.797,99.001,102.831,0.00738273,0.0788874,20.9538,121.261,-0.318952,0.0,0.0
266,66.25,47.4988,49.7616,128.224,98.997,102.251,0.00731475,0.0786036,20.9543,121.251,-0.271746,0.0,0.0
268,66.75,47.7815,49.8147,130.126,99.0018,102.467,0.00725968,0.0783189,20.9548,121.231,-0.289145,0.0,0.0
270,67.25,47.1005,49.7056,127.305,98.997,102.365,0.00718886,0.0780883,20.9553,121.211,-0.281131,0.0,0.0
272,67.75,47.0262,49.5575,128.964,98.9986,102.28,0.00710791,0.0777781,20.9556,121.201,-0.274031,0.0,0.0
274,68.25,46.9306,49.468,126.957,99.0006,103.101,0.00704233,0.0775269,20.9559,121.161,-0.341022,0.0,0.0
276,68.75,47.2084,49.389,126.855,99.0026,102.009,0.00695066,0.077222,20.9561,121.111,-0.251368,0.0,0.0
278,69.25,47.4034,49.6355,125.861,99.0166,102.5,0.0068764,0.0768837,20.9563,121.061,-0.290595,0.0,0.0
280,69.75,46.964,49.7249,127.017,99.0074,102.481,0.00679206,0.0764872,20.9565,121.041,-0.289803,0.0,0.0
282,70.25,47.2004,49.3794,128.692,99.005,102.452,0.00670196,0.0760557,20.9566,121.031,-0.287628,0.0,0.0
284,70.75,46.989,49.5176,130.697,99.0014,102.191,0.00660809,0.0757062,20.9567,121.001,-0.266457,0.0,0.0
286,71.25,47.6415,49.4399,128.186,99.0102,103.182,0.00651324,0.0751631,20.9572,120.961,-0.346859,0.0,0.0
288,71.75,46.9612,49.8108,127.248,99.0098,102.268,0.00641162,0.0747231,20.9576,120.961,-0.272089,0.0,0.0
290,72.25,47.1068,49.2002,131.228,99.0074,102.55,0.00630699,0.0742156,20.958,120.891,-0.295437,0.0,0.0
292,72.75,46.6639,49.2106,129.216,99.0166,102.951,0.00619488,0.0736684,20.9582,120.841,-0.327431,0.0,0.0
294,73.25,47.0184,49.1222,127.734,99.0086,102.843,0.00613412,0.0731028,20.9593,120.831,-0.319291,0.0,0.0
296,73.75,46.9919,49.4647,130.209,99.0046,102.494,0.00603022,0.0725346,20.9598,120.821,-0.291103,0.0,0.0
298,74.25,47.0874,49.2889,130.215,98.9974,102.526,0.00590769,0.0719378,20.9606,120.791,-0.294312,0.0,0.0
300,74.75,47.1764,49.1589,125.574,98.9998,101.662,0.00577389,0.0713313,20.9617,120.761,-0.222992,0.0,0.0
302,75.25,46.8887,48.9871,127.545,99.0162,102.835,0.00564214,0.0708401,20.9626,120.751,-0.318025,0.0,0.0
304,75.75,46.3335,49.0751,129.234,98.997,102.568,0.00551438,0.0701281,20.9635,120.691,-0.29782,0.0,0.0
306,76.25,46.9591,49.303,125.648,99.0114,103.729,0.00541089,0.0698246,20.9645,120.681,-0.391163,0.0,0.0
308,76.75,46.7615,49.1602,128.205,99.0018,102.499,0.00529125,0.0691548,20.9653,120.661,-0.291743,0.0,0.0
310,77.25,46.2598,48.8681,128.481,99.0078,101.956,0.00519434,0.0684764,20.9659,120.621,-0.246624,0.0,0.0
312,77.75,46.404,48.7338,133.542,99.001,101.459,0.00508874,0.0677619,20.9667,120.611,-0.206126,0.0,0.0
314,78.25,46.3259,49.2982,128.205,99.0086,102.677,0.00500321,0.0670345,20.9677,120.611,-0.305751,0.0,0.0
316,78.75,47.178,49.054,126.127,99.0146,102.236,0.00489948,0.0664454,20.9687,120.591,-0.269077,0.0,0.0
318,79.25,46.0238,49.1742,126.503,99.0146,102.362,0.00481545,0.0656419,20.9697,120.561,-0.279415,0.0,0.0
320,79.75,46.4293,49.4843,129.093,99.0162,103.126,0.00471504,0.064991,20.9705,120.521,-0.341769,0.0,0.0
322,80.25,46.7237,49.0871,127.253,99.007,103.784,0.0046046,0.0642918,20.9721,120.521,-0.39602,0.0,0.0
324,80.75,46.4585,48.9289,127.573,99.0194,103.953,0.00451514,0.0635706,20.9733,120.501,-0.408649,0.0,0.0
326,81.25,46.542,49.3644,128.573,99.0146,101.858,0.00439491,0.0628002,20.9746,120.501,-0.237949,0.0,0.0
328,81.75,46.189,48.7205,126.695,99.0202,103.202,0.00425453,0.0620086,20.9758,120.441,-0.347608,0.0,0.0
330,82.25,46.101,48.7911,129.741,99.019,102.974,0.00410088,0.0612099,20.9768,120.401,-0.329158,0.0,0.0
332,82.75,46.5447,49.2637,128.15,99.0382,101.772,0.00394049,0.0604212,20.978,120.361,-0.228835,0.0,0.0
334,83.25,46.3878,49.0286,130.067,99.0198,102.145,0.00377585,0.0597823,20.979,120.341,-0.261149,0.0,0.0
336,83.75,46.5803,49.1377,126.507,99.0274,101.958,0.00361126,0.0589115,20.9803,120.281,-0.245068,0.0,0.0
338,84.25,46.3063,49.1885,129.66,99.0274,102.272,0.00344969,0.0582061,20.9813,120.271,-0.270886,0.0,0.0
340,84.75,46.4083,49.0875,127.31,99.0282,102.4,0.0032934,0.0574703,20.9821,120.21,-0.281409,0.0,0.0
342,85.25,46.4502,49.0496,127.828,99.0162,102.052,0.00316681,0.0567264,20.9832,120.19,-0.253741,0.0,0.0
344,85.75,45.7874,48.8411,126.901,99.039,102.213,0.00306427,0.0559952,20.9841,120.19,-0.265096,0.0,0.0
346,86.25,46.2249,48.5642,130.265,99.0214,102.147,0.00289115,0.0552872,20.9852,120.16,-0.261123,0.0,0.0
348,86.75,45.927,48.8055,128.165,99.0306,103.281,0.00275092,0.054578,20.9864,120.14,-0.353191,0.0,0.0
350,87.25,46.1534,48.577,130.917,99.0206,101.89,0.0025851,0.0538815,20.9873,120.13,-0.240054,0.0,0.0
352,87.75,46.3029,48.6789,127.091,99.0274,102.81,0.00245079,0.0533173,20.9881,120.13,-0.315031,0.0,0.0
354,88.25,46.3484,48.6903,127.199,99.0282,103.503,0.00234199,0.0528603,20.9888,120.06,-0.371421,0.0,0.0
356,88.75,46.069,48.4733,129.5,99.031,101.993,0.00221383,0.0521375,20.9895,120.06,-0.247668,0.0,0.0
358,89.25,46.4084,49.042,126.173,99.0274,102.216,0.00211002,0.0515521,20.9903,120.02,-0.266338,0.0,0.0
360,89.75,45.7759,48.3497,128.893,99.0346,102.31,0.00200048,0.0509424,20.9914,120.02,-0.273428,0.0,0.0
362,90.25,45.9883,48.6729,128.788,99.0282,102.293,0.00191175,0.0503266,20.9928,120,-0.272615,0.0,0.0
364,90.75,46.0011,48.9758,130.608,99.0346,102.242,0.00181758,0.0497351,20.9938,119.96,-0.267817,0.0,0.0
366,91.25,45.8928,48.0979,129.044,99.027,102.018,0.00172122,0.0491726,20.9947,119.97,-0.25003,0.0,0.0
368,91.75,45.817,48.462,128.475,99.037,101.945,0.00162088,0.0487169,20.9954,119.98,-0.243222,0.0,0.0
370,92.25,45.747,48.2997,131.502,99.0314,102.377,0.00151956,0.0482623,20.996,119.94,-0.279196,0.0,0.0
372,92.75,46.3426,48.5603,128.845,99.0406,102.061,0.00143749,0.0478171,20.9964,119.9,-0.252476,0.0,0.0
374,93.25,46.1163,48.5269,126.646,99.0286,101.478,0.00132751,0.0473782,20.9972,119.87,-0.205332,0.0,0.0
376,93.75,46.1527,48.8841,128.557,99.0342,101.973,0.00122129,0.046952,20.9979,119.81,-0.245742,0.0,0.0
378,94.25,46.1526,48.535,129.909,99.0282,101.897,0.00111981,0.0466069,20.9984,119.84,-0.239996,0.0,0.0
380,94.75,45.7924,48.4789,130.373,99.0398,102.478,0.00103761,0.0462867,20.9989,119.78,-0.286794,0.0,0.0
382,95.25,45.9672,48.569,127.736,99.0414,103.619,0.000959601,0.0460274,20.9992,119.73,-0.37968,0.0,0.0
384,95.75,45.5367,48.4764,130.579,99.0374,101.905,0.000886134,0.0457632,20.9995,119.7,-0.239877,0.0,0.0
386,96.25,45.6915,48.3465,126.896,99.0346,102.011,0.000826626,0.0455491,20.9997,119.71,-0.248833,0.0,0.0
388,96.75,45.2811,48.3277,127.616,99.0467,102.207,0.000778424,0.0452946,20.9999,119.71,-0.263973,0.0,0.0
390,97.25,45.6114,48.9438,128.331,99.0414,103.202,0.000739381,0.0450884,21.0001,119.7,-0.345771,0.0,0.0
392,97.75,46.2842,48.1823,132.49,99.0551,101.95,0.000707756,0.0449214,21.0002,119.67,-0.242098,0.0,0.0
394,98.25,45.481,47.9634,126.605,99.0422,102.592,0.00068214,0.0447862,21.0003,119.65,-0.295917,0.0,0.0
396,98.75,45.5399,48.0636,127.372,99.0495,101.784,0.000651747,0.0446695,21.0004,119.61,-0.228842,0.0,0.0
398,99.25,45.2205,48.2332,128.971,99.0495,102.38,0.000627128,0.0445685,21.0004,119.6,-0.277924,0.0,0.0
400,99.75,45.2951,48.5178,130.866,99.0495,101.751,0.000595136,0.0444868,21.0005,119.62,-0.226152,0.0,0.0
402,100.25,45.8413,47.9114,130.218,99.0451,101.91,0.000569223,0.04438,21.0005,119.57,-0.239673,0.0,0.0
404,100.75,45.8131,47.9647,129.377,99.0595,103.045,0.000544428,0.0442935,21.0005,119.51,-0.331513,0.0,0.0
406,101.25,45.3721,47.7302,129.554,99.0426,102.363,0.000520921,0.0442369,21.0006,119.52,-0.277073,0.0,0.0
408,101.75,45.3311,48.0834,129.367,99.0438,101.648,0.000501881,0.0441911,21.0006,119.53,-0.21811,0.0,0.0
410,102.25,45.1398,47.9621,130.206,99.0467,102.074,0.000494067,0.0441398,21.0006,119.45,-0.252995,0.0,0.0
412,102.75,45.9744,48.1984,130.62,99.0487,102.718,0.000494587,0.0440854,21.0006,119.45,-0.305675,0.0,0.0
414,103.25,45.2244,47.8496,129.996,99.0462,102.462,0.000505159,0.0440548,21.0006,119.4,-0.284933,0.0,0.0
416,103.75,45.1447,47.7403,128.324,99.0475,102.703,0.000522858,0.0440301,21.0007,119.4,-0.304608,0.0,0.0
418,104.25,44.7745,47.8434,129.791,99.0607,102.516,0.000545447,0.04401,21.0007,119.42,-0.2881,0.0,0.0
420,104.75,45.5561,48.3065,126.39,99.0663,102.933,0.00057117,0.0439938,21.0007,119.42,-0.321759,0.0,0.0
422,105.25,45.3087,47.8491,128.146,99.0555,102.396,0.000594545,0.0439807,21.0007,119.37,-0.278732,0.0,0.0
424,105.75,45.2684,47.7823,130.925,99.0683,102.217,0.000615765,0.0439415,21.0007,119.37,-0.262909,0.0,0.0
426,106.25,45.4313,47.8562,128.624,99.0555,101.98,0.000631684,0.0438842,21.0007,119.3,-0.244491,0.0,0.0
428,106.75,44.9258,47.6698,128.118,99.0583,102.505,0.000643434,0.0438378,21.0007,119.3,-0.287463,0.0,0.0
430,107.25,45.3734,48.022,127.139,99.0699,103.21,0.000652952,0.0437731,21.0007,119.3,-0.344085,0.0,0.0
432,107.75,45.2984,47.7856,130.285,99.0675,102.292,0.000644983,0.0437207,21.0007,119.28,-0.269175,0.0,0.0
434,108.25,45.7085,47.8563,128.731,99.0591,102.963,0.000638528,0.0436377,21.0007,119.249,-0.324848,0.0,0.0
436,108.75,44.8241,47.342,131.86,99.0647,101.927,0.000633299,0.0435705,21.0011,119.199,-0.239333,0.0,0.0
438,109.25,44.6633,48.1235,129.705,99.0599,101.561,0.000629064,0.0434889,21.0015,119.179,-0.209516,0.0,0.0
440,109.75,45.5837,47.8025,125.944,99.0687,102.267,0.000611166,0.0434229,21.0018,119.149,-0.267057,0.0,0.0
442,110.25,45.2264,47.6147,131.173,99.0647,101.637,0.000596669,0.043383,21.002,119.159,-0.215457,0.0,0.0
444,110.75,44.9557,47.842,127.463,99.0795,102.633,0.000588542,0.0433506,21.0022,119.159,-0.296082,0.0,0.0
446,111.25,45.0347,47.6959,130.378,99.0599,102.593,0.00058196,0.0433244,21.0023,119.159,-0.294495,0.0,0.0
448,111.75,45.1403,47.4323,127.56,99.0639,102.443,0.000586147,0.043296,21.0025,119.139,-0.281863,0.0,0.0
450,112.25,45.2921,47.1883,131.41,99.0703,102.518,0.000598107,0.0432667,21.0026,119.119,-0.287467,0.0,0.0
452,112.75,44.8505,47.1474,131.325,99.0747,103.463,0.000619223,0.0432429,21.0026,119.119,-0.364218,0.0,0.0
454,113.25,44.981,47.4736,127.224,99.0647,102.428,0.000646614,0.0431695,21.0027,119.079,-0.280587,0.0,0.0
456,113.75,44.9288,47.6479,129.679,99.0771,102.431,0.000689322,0.0431101,21.0028,119.059,-0.27979,0.0,0.0
458,114.25,45.0149,47.7382,126.764,99.0939,102.228,0.000723916,0.0430619,21.0028,119.019,-0.261651,0.0,0.0
460,114.75,44.7089,47.6151,130.082,99.0691,102.562,0.00076643,0.0430229,21.0028,119.029,-0.29119,0.0,0.0
462,115.25,44.9182,47.4953,130.091,99.0679,102.351,0.000800866,0.0429985,21.0029,119.019,-0.273943,0.0,0.0
464,115.75,44.8117,47.478,126.622,99.0763,102.418,0.000828759,0.0429851,21.0029,118.949,-0.278796,0.0,0.0
466,116.25,44.966,47.325,128.822,99.0775,102.094,0.000863435,0.0429742,21.0029,118.929,-0.252068,0.0,0.0
468,116.75,45.3489,47.5194,130.794,99.0795,102.262,0.000891523,0.0429654,21.0029,118.919,-0.265699,0.0,0.0
470,117.25,45.1138,47.3526,128.465,99.0851,102.397,0.000913001,0.042944,21.0029,118.909,-0.276291,0.0,0.0
472,117.75,45.3916,47.6139,127.679,99.0987,103.057,0.000929254,0.0429139,21.003,118.889,-0.32913,0.0,0.0
474,118.25,44.8613,47.6516,127.919,99.0843,102.436,0.000929704,0.0428966,21.003,118.859,-0.279581,0.0,0.0
476,118.75,45.0817,47.87,129.477,99.0923,102.522,0.000918625,0.042889,21.003,118.839,-0.285965,0.0,0.0
478,119.25,44.7598,47.5652,129.783,99.0955,102.343,0.000896945,0.0428829,21.003,118.819,-0.271012,0.0,0.0
480,119.75,44.8333,47.6769,129.532,99.0995,101.276,0.000867949,0.0428922,21.003,118.819,-0.182597,0.0,0.0
482,120.25,45.2861,47.6093,127.376,99.0991,102.013,0.000838746,0.0429125,21.003,118.769,-0.243545,0.0,0.0
484,120.75,45.1025,47.7487,130.966,99.1075,101.935,0.000809949,0.0429289,21.003,118.749,-0.236434,0.0,0.0
486,121.25,45.2769,47.4163,125.341,99.1091,102.733,0.000786623,0.0429964,21.003,118.759,-0.301823,0.0,0.0
488,121.75,44.8652,47.8453,131.571,99.1055,101.862,0.000765316,0.043051,21.003,118.759,-0.23053,0.0,0.0
490,122.25,44.9898,47.6572,123.799,99.1135,102.582,0.000748058,0.0430682,21.003,118.759,-0.289065,0.0,0.0
492,122.75,44.2831,47.3372,131.632,99.1083,101.514,0.000734079,0.0430821,21.003,118.729,-0.201526,0.0,0.0
494,123.25,44.5131,46.898,132.146,99.1123,102.314,0.000710695,0.0431204,21.003,118.709,-0.267166,0.0,0.0
496,123.75,44.7,47.0669,127.202,99.1087,102.666,0.000700727,0.0431515,21.003,118.709,-0.296379,0.0,0.0
498,124.25,44.903,47.3986,128.521,99.1163,102.267,0.000672829,0.0431225,21.003,118.699,-0.263014,0.0,0.0
500,124.75,44.4876,47.3575,127.315,99.1131,102.8,0.000650232,0.043099,21.003,118.639,-0.30692,0.0,0.0
502,125.25,44.0595,47.1947,130.356,99.1216,102.602,0.000626853,0.0430729,21.003,118.609,-0.29003,0.0,0.0
504,125.75,44.8389,47.1048,130.587,99.1123,102.45,0.000603349,0.0430454,21.003,118.549,-0.278338,0.0,0.0
506,126.25,44.5187,47.0118,129.012,99.122,102.019,0.00058114,0.0430231,21.003,118.569,-0.242088,0.0,0.0
508,126.75,44.9658,47.261,129.079,99.1171,101.912,0.000560296,0.0430349,21.0026,118.559,-0.233669,0.0,0.0
510,127.25,44.3548,46.9946,130.133,99.1184,102.857,0.000537071,0.0430551,21.0022,118.589,-0.311111,0.0,0.0
512,127.75,43.9661,46.7608,128.898,99.1155,101.93,0.000512552,0.0430573,21.0019,118.539,-0.235313,0.0,0.0
514,128.25,45.0603,47.2431,128.286,99.1244,101.305,0.000492692,0.0430462,21.0017,118.519,-0.182861,0.0,0.0
516,128.75,44.4744,46.9959,126.651,99.1115,101.864,0.000450116,0.043023,21.0017,118.529,-0.230206,0.0,0.0
518,129.25,44.4038,46.6912,129.515,99.1216,102.067,0.000415628,0.0429914,21.002,118.519,-0.246054,0.0,0.0
520,129.75,44.3644,47.2375,130.943,99.1224,103.144,0.000387694,0.0429801,21.0022,118.479,-0.334183,0.0,0.0
522,130.25,44.9874,47.1911,128.013,99.1336,102.652,0.000349423,0.0429837,21.0023,118.469,-0.293068,0.0,0.0
524,130.75,44.8319,47.1067,129.392,99.13,102.501,0.000318423,0.0429937,21.0024,118.429,-0.281016,0.0,0.0
526,131.25,44.2045,46.6327,127.172,99.138,103.004,0.000304143,0.0430083,21.0026,118.409,-0.32147,0.0,0.0
528,131.75,44.3998,47.1077,130.933,99.1224,102.885,0.000292576,0.04302,21.0026,118.389,-0.313104,0.0,0.0
530,132.25,44.6776,47.1422,126.571,99.128,102.292,0.000283207,0.0430367,21.0027,118.399,-0.264009,0.0,0.0
532,132.75,44.8788,47.2661,128.535,99.1143,102.158,0.000290192,0.0430566,21.003,118.339,-0.254194,0.0,0.0
534,133.25,44.2474,47.1441,130.821,99.1228,101.928,0.000308967,0.0430727,21.0033,118.349,-0.234554,0.0,0.0
536,133.75,44.6709,47.0367,126.147,99.1103,102.24,0.000330515,0.0430722,21.0036,118.339,-0.261286,0.0,0.0
538,134.25,44.7392,46.8838,128.108,99.1176,101.563,0.000353676,0.0430719,21.0039,118.329,-0.204845,0.0,0.0
540,134.75,44.8065,46.9761,129.97,99.1236,102.206,0.000374338,0.0430715,21.0041,118.289,-0.257377,0.0,0.0
542,135.25,44.1935,47.0831,131.236,99.122,102.832,0.000392786,0.0430713,21.0043,118.299,-0.3088,0.0,0.0
544,135.75,44.4204,46.6245,134.747,99.1123,102.539,0.000409632,0.0430711,21.0044,118.289,-0.28562,0.0,0.0
546,136.25,44.0882,46.8711,127.938,99.1284,102.84,0.000424989,0.0430638,21.0045,118.268,-0.308876,0.0,0.0
548,136.75,44.2704,47.1347,131.137,99.1212,101.549,0.000437429,0.0430515,21.0046,118.268,-0.203358,0.0,0.0
550,137.25,44.3278,47.0836,129.246,99.136,101.941,0.000454483,0.0430487,21.0046,118.248,-0.2345,0.0,0.0
552,137.75,44.195,46.5197,128.488,99.1228,102.84,0.000474577,0.0430528,21.0047,118.238,-0.309425,0.0,0.0
554,138.25,44.7666,47.0848,127.163,99.1348,102.674,0.000498468,0.0430561,21.0047,118.228,-0.294756,0.0,0.0
556,138.75,44.4469,46.5947,130.027,99.122,103.017,0.000524674,0.0430588,21.0048,118.198,-0.323921,0.0,0.0
558,139.25,44.2621,46.5142,130.035,99.1436,101.862,0.000545901,0.043061,21.0048,118.178,-0.227305,0.0,0.0
560,139.75,43.6901,47.0697,129.219,99.1135,103.2,0.00058481,0.0430492,21.0048,118.158,-0.339546,0.0,0.0
562,140.25,44.0689,47.2906,124.488,99.1304,102.994,0.000616326,0.0430397,21.0049,118.168,-0.321278,0.0,0.0
564,140.75,44.7963,46.9423,129.357,99.1308,103.205,0.00065513,0.043032,21.0049,118.148,-0.33845,0.0,0.0
566,141.25,44.6496,46.8181,125.854,99.132,101.846,0.000686562,0.0430257,21.0049,118.088,-0.226964,0.0,0.0
568,141.75,44.6048,47.1542,128.347,99.1332,102.863,0.000710115,0.0430206,21.0049,118.078,-0.310365,0.0,0.0
570,142.25,44.3821,46.8045,130.853,99.132,102.6,,0.042976,,118.038,-0.288965,0.0,0.0
572,142.75,44.5951,46.9208,129.981,99.1228,102.463,,0.0429398,,118.038,-0.278517,0.0,0.0
574,143.25,44.5122,46.8185,128.27,99.124,101.8,,0.0429105,,118.008,-0.223849,0.0,0.0
576,143.75,44.5288,46.5759,125.803,99.1059,102.309,,0.0428867,,117.998,-0.26727,0.0,0.0
578,144.25,44.2145,46.7689,129.047,99.1196,102.099,,0.0428461,,117.988,-0.248869,0.0,0.0
580,144.75,44.5591,46.7278,130.063,99.1176,102.308,,0.0427941,,117.978,-0.266248,0.0,0.0
582,145.25,43.8348,47.0512,127.621,99.1208,102.765,,,,117.958,-0.303392,0.0,0.0
584,145.75,44.5046,46.7355,129.17,99.118,102.277,,,,117.948,-0.263685,0.0,0.0
586,146.25,44.1896,46.8731,126.163,99.116,102.263,,,,117.938,-0.262645,0.0,0.0
588,146.75,44.1546,46.761,129.956,99.1168,102.263,,,,117.938,-0.262613,0.0,0.0
590,147.25,44.3187,46.3008,128.953,99.1099,101.571,,,,117.938,-0.206155,0.0,0.0
592,147.75,44.5125,46.804,130.178,99.1035,102.232,,,,117.908,-0.261203,0.0,0.0
594,148.25,44.5076,46.6958,128.573,99.1111,102.873,,,,117.898,-0.313035,0.0,0.0
596,148.75,43.9409,46.5774,129.019,99.1143,102.101,,,,117.878,-0.249531,0.0,0.0
598,149.25,44.3736,46.4345,130.258,99.1107,102.712,,,,117.858,-0.299971,0.0,0.0
600,149.75,43.8735,46.4005,128.281,99.1027,101.476,,,,117.848,-0.198898,0.0,0.0
602,150.25,44.2982,46.8751,129.855,99.1119,102.829,,,,117.818,-0.309393,0.0,0.0
604,150.75,44.2671,46.4598,126.757,99.116,102.473,,,,117.798,-0.279899,0.0,0.0
606,151.25,44.2564,46.5204,128.316,99.12,102.343,,,,117.788,-0.26894,0.0,0.0
608,151.75,44.0627,46.6278,128.685,99.1184,102.864,,,,117.748,-0.31173,0.0,0.0
610,152.25,44.212,46.9269,124.422,99.126,102.787,,,,117.748,-0.304813,0.0,0.0
612,152.75,44.0377,46.8876,128.331,99.1216,102.358,,,,117.728,-0.270013,0.0,0.0
613,153,44.5664,46.7633,127.913,99.1356,102.861,,,,117.718,-0.310015,0.0,0.0