File: 01_Data/Lightweight_Gypsum_Wallboard/Cone/Lightweight_Gypsum_Wallboard_Cone_HF50Scan_220506_R1.csv
Names,Time,Stack TC,Smoke TC,Exh Press,Smoke Comp,Smoke Meas,CO Meter,CO2 Meter,O2 Meter,Sample Mass,Ext Coeff,Start Test,Flame Verif
Chan Gain,,500,500,1,1,1,1,1,1,1,1,1.0,1.0
Offset,,0,0,0.135316,0,0,0,0,0,0,0,0.0,0.0
Gain,,1,1,25.011,13.8443,15.4071,1,1,1,1.00079,1.02936,1.0,1.0
Units,sec,C,C,Pa,%,%,%,%,%,g,/m,,
Baseline,,29.1243,30.3238,137.001,105.25,105.119,0.000493459,0.0419306,20.9985,-446.952,0.0112523,,
2,0.25,28.462,30.5561,138.037,104.246,104.076,0.000224974,0.0441051,20.9998,109.396,0.0147356,0.0,0.0
4,0.75,28.5916,29.8371,137.705,104.255,104.116,0.000234378,0.0440948,20.9997,109.386,0.0120003,0.0,0.0
6,1.25,28.5579,28.9616,135.118,104.233,104.121,0.000243707,0.0440608,20.9997,109.426,0.00964902,0.0,0.0
8,1.75,28.3228,29.511,135.827,104.239,104.174,0.000260141,0.0440332,20.9997,109.416,0.00562886,0.0,0.0
10,2.25,27.5752,28.9775,137.166,104.233,104.223,0.000281444,0.0439838,20.9997,109.416,0.0008826,0.0,0.0
12,2.75,27.464,29.157,133.934,104.246,104.162,0.000309486,0.0439437,20.9997,109.386,0.00723693,0.0,0.0
14,3.25,27.2616,28.964,135.051,104.213,104.133,0.000341907,0.0439541,21.0002,109.356,0.00698632,0.0,0.0
16,3.75,27.9293,29.2245,137.234,104.208,104.101,0.000376421,0.0440011,21.0005,109.356,0.00932107,0.0,0.0
18,4.25,27.2356,28.9441,132.806,104.209,104.163,0.000411804,0.0441033,21.0008,109.346,0.00393444,0.0,0.0
20,4.75,28.0886,29.6065,138.244,104.216,104.162,0.000440465,0.044244,21.001,109.356,0.00471553,0.0,0.0
22,5.25,27.7466,29.4363,136.313,104.204,103.942,0.000465584,0.0444507,21.0012,109.356,0.0226716,0.0,0.0
24,5.75,27.906,29.5036,133.825,104.213,104.05,0.000487646,0.0447017,21.0014,109.346,0.0141285,0.0,0.0
26,6.25,27.8856,29.0739,136.316,104.239,104.28,0.000508056,0.044955,21.0015,109.336,-0.00353288,0.0,0.0
28,6.75,28.0609,29.0007,136.877,104.294,104.25,0.000526875,0.0452052,21.0007,109.336,0.00386666,0.0,0.0
30,7.25,28.0392,29.4984,135.285,104.329,104.145,0.000544023,0.0454079,21.0001,109.326,0.0159886,0.0,0.0
32,7.75,28.357,28.6462,135.782,104.381,104.217,0.000559628,0.0456806,20.9996,109.306,0.0142123,0.0,0.0
34,8.25,28.4016,29.5442,139.122,104.401,104.095,0.000566281,0.0459015,20.9994,109.286,0.026447,0.0,0.0
36,8.75,28.2626,29.3513,139.766,104.446,104.705,0.000566798,0.0461233,20.999,109.256,-0.0223839,0.0,0.0
38,9.25,28.1285,29.0969,135.038,104.471,104.419,0.000567216,0.0463415,20.9987,109.226,0.00445732,0.0,0.0
40,9.75,27.7069,29.6134,137.759,104.513,104.217,0.000548257,0.0465397,20.9984,109.226,0.0256087,0.0,0.0
42,10.25,28.2402,29.4298,135.316,104.54,103.998,0.0005329,0.0467195,20.9982,109.206,0.0469485,0.0,0.0
44,10.75,28.2377,28.9004,139.542,104.576,105.045,0.00052046,0.0468652,20.9981,109.206,-0.0404137,0.0,0.0
46,11.25,28.161,29.7011,134.855,104.608,104.484,0.000491355,0.0469273,20.998,109.196,0.0106672,0.0,0.0
48,11.75,28.284,29.2116,138.117,104.651,104.431,0.000450653,0.0470335,20.9974,109.156,0.0189827,0.0,0.0
50,12.25,28.4287,29.1515,136.475,104.66,104.457,0.000417685,0.0471124,20.997,109.116,0.0175497,0.0,0.0
52,12.75,28.3821,29.561,137.9,104.712,104.725,0.000383754,0.0471698,20.9966,109.086,-0.00106838,0.0,0.0
54,13.25,28.6305,29.8858,136.731,104.744,104.879,0.000356269,0.0472163,20.9963,109.036,-0.0115884,0.0,0.0
56,13.75,28.5755,29.8504,133.923,104.771,104.757,0.000342883,0.0472469,20.9961,109.036,0.00123777,0.0,0.0
58,14.25,27.998,29.8679,134.407,104.793,104.584,0.000340029,0.0472652,20.9964,109.056,0.0180535,0.0,0.0
60,14.75,28.9301,29.6104,138.382,104.832,104.529,0.000347867,0.0472801,20.9966,109.036,0.0260746,0.0,0.0
62,15.25,28.1032,29.7261,134.088,104.855,104.43,0.00036335,0.0472513,20.9963,109.016,0.0366553,0.0,0.0
64,15.75,28.6376,29.6537,133.919,104.89,104.65,0.000380968,0.0472281,20.9961,108.986,0.0207044,0.0,0.0
66,16.25,28.6403,29.6022,135.362,104.908,104.591,0.000399807,0.0472164,20.9959,108.986,0.0273045,0.0,0.0
68,16.75,28.4148,29.3723,134.479,104.942,104.584,0.000415067,0.0472133,20.9957,108.966,0.0308537,0.0,0.0
70,17.25,28.2046,29.4091,135.086,104.961,104.626,0.000427428,0.0472252,20.9956,108.916,0.0288411,0.0,0.0
72,17.75,28.0124,30.129,135.2,104.992,104.836,0.00043744,0.0472476,20.9955,108.876,0.0134137,0.0,0.0
74,18.25,28.5276,30.084,135.426,105.015,104.875,0.000447962,0.0472515,20.9954,108.816,0.0120562,0.0,0.0
76,18.75,28.6298,29.6264,136.701,105.024,104.593,0.000456485,0.0472418,20.9954,108.776,0.0371323,0.0,0.0
78,19.25,28.8414,29.8934,135.098,105.046,104.683,0.000463388,0.0472339,20.9953,108.816,0.0312345,0.0,0.0
80,19.75,28.3897,30.0288,139.695,105.066,104.602,0.000472598,0.0471733,20.9953,108.776,0.0399973,0.0,0.0
82,20.25,28.6183,29.7593,137.779,105.073,104.357,0.000480058,0.0471241,20.9953,108.746,0.0617125,0.0,0.0
84,20.75,28.6243,29.368,136.686,105.073,104.208,0.000489909,0.0470572,20.9952,108.716,0.0746902,0.0,0.0
86,21.25,28.6455,29.1664,139.376,105.089,104.601,0.000501318,0.0470029,20.9952,108.746,0.0420385,0.0,0.0
88,21.75,28.8561,29.9082,133.019,105.086,104.015,0.000516909,0.046959,20.9952,108.746,0.0925397,0.0,0.0
90,22.25,28.4067,29.9707,136.093,105.101,103.904,0.000535252,0.0469099,20.9952,108.736,0.103448,0.0,0.0
92,22.75,29.0888,30.1016,134.816,105.096,103.977,0.000556463,0.04687,20.9952,108.726,0.0966406,0.0,0.0
94,23.25,28.4888,30.1683,134.488,105.09,103.493,0.000579361,0.0468807,20.9947,108.716,0.138324,0.0,0.0
96,23.75,28.9576,29.4438,138.337,105.086,103.447,0.00060744,0.0469278,20.9944,108.696,0.14194,0.0,0.0
98,24.25,29.0482,29.8323,134.799,105.084,102.994,0.000638764,0.046966,20.9932,108.676,0.181405,0.0,0.0
100,24.75,28.8432,29.7943,138.411,105.065,102.717,0.000681942,0.0472142,20.9922,108.646,0.204088,0.0,0.0
102,25.25,28.9318,29.2554,130.851,105.061,102.242,0.000732944,0.0474153,20.991,108.636,0.245645,0.0,0.0
104,25.75,28.8527,29.6039,132.785,105.043,102.212,0.000774255,0.0477954,20.9901,108.566,0.246695,0.0,0.0
106,26.25,28.7859,30.2171,137.535,105.032,101.548,0.000851031,0.0481821,20.9893,108.536,0.304519,0.0,0.0
108,26.75,28.8957,30.2832,133.804,105.007,101.54,0.000952202,0.048566,20.9882,108.536,0.303128,0.0,0.0
110,27.25,29.1641,30.1662,136.498,104.99,101.943,0.00107181,0.048877,20.9873,108.546,0.265949,0.0,0.0
112,27.75,29.185,29.9736,129.319,104.973,100.091,0.00120259,0.0492648,20.9862,108.516,0.430006,0.0,0.0
114,28.25,29.5213,30.1306,138.662,104.948,100.315,0.00130852,0.049579,20.9853,108.496,0.407694,0.0,0.0
116,28.75,29.4211,30.369,137.59,104.913,100.437,0.00147819,0.0505929,20.9843,108.476,0.393644,0.0,0.0
118,29.25,29.1113,30.4653,135.602,104.885,99.9404,0.00161562,0.0520977,20.9833,108.406,0.435997,0.0,0.0
120,29.75,29.2055,30.1353,139.136,104.847,99.899,0.00176834,0.058916,20.9747,108.406,0.436462,0.0,0.0
122,30.25,29.1012,29.661,137.826,104.818,97.6652,0.00189204,0.0694783,20.9607,108.335,0.638189,0.0,0.0
124,30.75,29.0301,30.4834,131.494,104.769,103.754,0.00201538,0.0780337,20.937,108.255,0.0879125,0.0,0.0
126,31.25,29.5002,30.3307,126.351,104.731,107.345,0.0021153,0.101118,20.9066,108.145,-0.222579,0.0,1.0
128,31.75,29.1249,30.0895,124.119,104.691,109.779,0.00216687,0.119816,20.8937,108.085,-0.428543,0.0,1.0
130,32.25,29.5826,30.6595,116.824,104.655,109.033,0.00225507,0.15612,20.8462,107.995,-0.370019,0.0,1.0
132,32.75,29.7774,30.8061,118.422,104.587,108.995,0.00232651,0.185526,20.8078,107.935,-0.37281,0.0,1.0
134,33.25,30.3121,30.5647,118.54,104.551,109.127,0.00241366,0.223671,20.7767,107.765,-0.386814,0.0,1.0
136,33.75,30.5721,30.8501,118.265,104.518,108.294,0.00248425,0.254568,20.7515,107.745,-0.320455,0.0,1.0
138,34.25,31.1073,31.0412,116.634,104.535,108.262,0.00254143,0.284332,20.7159,107.675,-0.316368,0.0,1.0
140,34.75,31.5496,31.2823,120.936,104.543,108.593,0.00259995,0.299265,20.687,107.595,-0.34324,0.0,1.0
142,35.25,32.4962,32.5547,120.827,104.585,108.412,0.00265834,0.3248,20.6575,107.495,-0.324488,0.0,1.0
144,35.75,33.074,32.7244,118.525,104.58,108.833,0.00270756,0.349476,20.6336,107.405,-0.35991,0.0,1.0
146,36.25,33.4961,32.8484,121.685,104.606,108.46,0.00274917,0.369464,20.6142,107.315,-0.326695,0.0,1.0
148,36.75,34.3521,33.3228,117.701,104.631,108.718,0.00278673,0.385654,20.5986,107.225,-0.345935,0.0,0.0
150,37.25,34.662,34.0092,117.117,104.644,109.49,0.00282063,0.397201,20.5859,107.165,-0.408775,0.0,0.0
152,37.75,35.0865,34.374,122.041,104.661,109.121,0.00285837,0.405142,20.5756,107.104,-0.376824,0.0,0.0
154,38.25,35.423,34.9713,121.639,104.693,108.526,0.00289821,0.40904,20.5769,107.014,-0.324666,0.0,0.0
156,38.75,36.1914,35.2464,123.167,104.701,108.803,0.00293047,0.409916,20.5779,106.954,-0.347025,0.0,0.0
158,39.25,36.6382,35.9073,121.086,104.733,108.63,0.00301165,0.407323,20.5831,106.864,-0.329883,0.0,0.0
160,39.75,37.4031,36.7667,125.45,104.753,107.555,0.00307741,0.402248,20.5912,106.794,-0.238347,0.0,0.0
162,40.25,37.7782,36.8447,125.019,104.792,106.888,0.00313067,0.394067,20.5978,106.754,-0.178887,0.0,0.0
164,40.75,37.9949,37.1231,125.237,104.805,108.463,0.00334435,0.383776,20.6075,106.704,-0.309768,0.0,0.0
166,41.25,38.1045,36.8506,124.935,104.837,107.712,0.00351743,0.371398,20.6193,106.694,-0.244313,0.0,0.0
168,41.75,37.8859,37.6517,129.165,104.854,107.819,0.00378554,0.357733,20.6288,106.654,-0.251801,0.0,0.0
170,42.25,38.5314,37.9674,129.58,104.901,107.406,0.00411784,0.346664,20.6461,106.614,-0.213048,0.0,0.0
172,42.75,38.9399,37.9628,131.302,104.911,106.608,0.00453083,0.337698,20.6601,106.544,-0.144886,0.0,0.0
174,43.25,38.8469,38.2652,130.875,104.937,105.799,0.00499479,0.317865,20.6842,106.504,-0.0738702,0.0,0.0
176,43.75,38.2084,39.0512,129.548,104.967,106.23,0.00549896,0.3018,20.7036,106.474,-0.108012,0.0,0.0
178,44.25,39.3774,38.3769,136.709,105.002,105.363,0.00602285,0.280205,20.7311,106.424,-0.0309568,0.0,0.0
180,44.75,39.0261,39.3363,131.911,105.01,105.395,0.0065591,0.262713,20.7534,106.444,-0.0330065,0.0,0.0
182,45.25,38.7597,39.1221,132.031,105.048,105.24,0.00709417,0.245023,20.7785,106.434,-0.0165513,0.0,0.0
184,45.75,39.1508,39.3327,131.708,105.065,105.709,0.00760474,0.227527,20.7987,106.374,-0.0551536,0.0,0.0
186,46.25,39.4349,38.6625,133.501,105.098,105.728,0.00808774,0.211182,20.8195,106.354,-0.0540051,0.0,0.0
188,46.75,39.2155,39.0515,136.583,105.109,106.409,0.00847897,0.195987,20.8364,106.304,-0.110987,0.0,0.0
190,47.25,38.6875,38.4801,130.967,105.141,105.222,0.008876,0.183679,20.85,106.274,-0.00691579,0.0,0.0
192,47.75,38.0701,38.3207,137.964,105.161,105.756,0.0092697,0.171264,20.8632,106.234,-0.0508946,0.0,0.0
194,48.25,38.3426,38.4112,133.307,105.185,105.584,0.0096261,0.161208,20.874,106.184,-0.0341577,0.0,0.0
196,48.75,37.7282,38.3398,132.384,105.2,105.868,0.00994853,0.151608,20.8839,106.174,-0.0571465,0.0,0.0
198,49.25,38.2007,38.5154,136.297,105.233,105.766,0.0102097,0.143833,20.892,106.144,-0.0456488,0.0,0.0
200,49.75,38.0617,38.1497,134.754,105.251,105.428,0.0104569,0.136933,20.8988,106.124,-0.0152223,0.0,0.0
202,50.25,38.0251,38.483,135.127,105.267,105.885,0.0106572,0.130803,20.9045,106.124,-0.0529023,0.0,0.0
204,50.75,37.0592,38.76,130.583,105.277,105.554,0.0108232,0.125465,20.9096,106.094,-0.0236805,0.0,0.0
206,51.25,37.6714,37.922,136.543,105.312,105.506,0.0109577,0.120805,20.9141,106.054,-0.0166057,0.0,0.0
208,51.75,37.4551,38.1579,134.208,105.31,105.509,0.0110513,0.11703,20.9178,106.024,-0.0171088,0.0,0.0
210,52.25,37.4512,38.0108,133.436,105.347,105.523,0.0111272,0.113612,20.9212,105.994,-0.015053,0.0,0.0
212,52.75,37.3169,38.4255,132.443,105.336,105.882,0.0111671,0.110843,20.9239,105.984,-0.0466804,0.0,0.0
214,53.25,36.9295,38.0056,132.731,105.349,106.057,0.0111802,0.108295,20.9262,105.954,-0.0604217,0.0,0.0
216,53.75,36.755,37.6628,135.813,105.374,105.722,0.0111858,0.106232,20.9271,105.944,-0.0297386,0.0,0.0
218,54.25,37.3308,37.7876,132.366,105.354,105.881,0.0111632,0.104458,20.9288,105.894,-0.045003,0.0,0.0
220,54.75,36.7794,37.7215,136.048,105.37,105.655,0.0110959,0.102929,20.9305,105.864,-0.0243955,0.0,0.0
222,55.25,36.809,37.778,133.829,105.375,105.834,0.0110543,0.101574,20.9319,105.864,-0.0392541,0.0,0.0
224,55.75,37.142,38.1017,130.372,105.376,105.752,0.0109833,0.100372,20.9331,105.833,-0.0322028,0.0,0.0
226,56.25,36.7886,37.4814,136.119,105.378,105.733,0.0109065,0.0993977,20.934,105.803,-0.0303401,0.0,0.0
228,56.75,36.7039,37.7011,134.936,105.373,105.797,0.0108268,0.0988804,20.9348,105.793,-0.036193,0.0,0.0
230,57.25,36.4902,37.6042,136.126,105.37,105.903,0.0107622,0.0979958,20.9358,105.753,-0.0455515,0.0,0.0
232,57.75,36.8246,37.4218,133.457,105.368,105.758,0.0107099,0.0972793,20.9367,105.703,-0.0333366,0.0,0.0
234,58.25,36.0771,38.1035,136.302,105.363,105.889,0.0106334,0.0965744,20.9373,105.613,-0.0450003,0.0,0.0
236,58.75,36.35,37.4582,131.133,105.354,106.041,0.0105713,0.0960034,20.9378,105.623,-0.0586653,0.0,0.0
238,59.25,36.2323,37.8257,131.689,105.336,105.633,0.0105021,0.0954164,20.9382,105.583,-0.0254803,0.0,0.0
240,59.75,36.1411,37.2479,137.393,105.331,105.733,0.010446,0.0949409,20.9386,105.583,-0.0343954,0.0,0.0
242,60.25,36.1257,37.2549,135.755,105.312,105.384,0.0103919,0.0945557,20.9388,105.523,-0.00617846,0.0,0.0
244,60.75,36.1088,37.5187,132.365,105.294,105.675,0.0103403,0.0939671,20.9391,105.473,-0.0326425,0.0,0.0
246,61.25,36.2271,37.31,130.172,105.282,105.65,0.0102985,0.0934903,20.9392,105.463,-0.0315282,0.0,0.0
248,61.75,36.1539,37.4609,134.772,105.268,105.658,0.0102633,0.0929382,20.9394,105.413,-0.033403,0.0,0.0
250,62.25,35.914,37.1002,133.179,105.24,106.088,0.0102349,0.0924911,20.9395,105.443,-0.0724107,0.0,0.0
252,62.75,35.5776,37.0674,130.738,105.211,105.95,0.0102105,0.0920874,20.9396,105.413,-0.0632146,0.0,0.0
254,63.25,35.606,36.6207,135.785,105.199,105.648,0.0101895,0.0917604,20.9401,105.403,-0.0384277,0.0,0.0
256,63.75,36.0814,37.054,136.951,105.168,105.451,0.0101559,0.0914956,20.9405,105.373,-0.0242584,0.0,0.0
258,64.25,35.6664,37.0515,133.339,105.135,105.76,0.0101137,0.091281,20.9409,105.343,-0.0535806,0.0,0.0
260,64.75,35.4526,37.0099,132.908,105.106,105.937,0.0100542,0.0911073,20.9411,105.313,-0.0710539,0.0,0.0
262,65.25,35.7498,37.0975,134.092,105.063,105.286,0.00998328,0.0907178,20.9413,105.313,-0.0191559,0.0,0.0
264,65.75,35.5602,36.5032,137.34,105.028,105.533,0.00989858,0.0904024,20.9415,105.273,-0.0433161,0.0,0.0
266,66.25,35.373,35.7213,136.344,104.99,105.615,0.00980546,0.0900161,20.9421,105.233,-0.053546,0.0,0.0
268,66.75,35.0181,36.8531,134.568,104.956,105.188,0.00970547,0.0895854,20.9426,105.143,-0.0199159,0.0,0.0
270,67.25,35.5674,36.7033,133.652,104.899,105.145,0.00960239,0.089164,20.943,105.113,-0.0211544,0.0,0.0
272,67.75,35.3755,36.7774,133.658,104.872,105.094,0.00951888,0.0887572,20.9433,105.053,-0.0190799,0.0,0.0
274,68.25,34.8532,36.6843,133.93,104.82,105.229,0.00941679,0.0884278,20.9435,105.033,-0.0351745,0.0,0.0
276,68.75,34.9518,36.6903,135.103,104.774,105.656,0.00930308,0.0880367,20.9437,105.063,-0.0756295,0.0,0.0
278,69.25,34.7655,36.4289,134.102,104.73,105.13,0.00918252,0.0876764,20.9439,105.083,-0.0344532,0.0,0.0
280,69.75,35.0891,36.0964,135.03,104.675,105.182,0.00905926,0.0873454,20.944,105.063,-0.0436714,0.0,0.0
282,70.25,35.1407,36.4636,134.62,104.619,105.064,0.00895942,0.0870772,20.9441,105.063,-0.0383098,0.0,0.0
284,70.75,35.0908,36.2912,133.975,104.58,105.526,0.00882959,0.0867497,20.9447,105.023,-0.0813006,0.0,0.0
286,71.25,35.3935,36.3727,132.942,104.523,104.541,0.00872443,0.0864844,20.9455,104.993,-0.00153991,0.0,0.0
288,71.75,34.9354,36.5396,132.395,104.493,104.749,0.00860538,0.086168,20.9464,104.963,-0.022064,0.0,0.0
290,72.25,34.7061,36.291,132.965,104.421,104.572,0.00850895,0.0858202,20.9474,104.913,-0.0130203,0.0,0.0
292,72.75,34.9928,36.6489,132.238,104.388,104.682,0.00840077,0.0855385,20.9482,104.863,-0.0254069,0.0,0.0
294,73.25,34.4688,35.6397,133.893,104.339,104.595,0.00831315,0.0850348,20.9492,104.873,-0.0220996,0.0,0.0
296,73.75,34.5958,35.8472,129.428,104.28,105.246,0.00822833,0.0846268,20.9501,104.803,-0.0832999,0.0,0.0
298,74.25,34.5747,36.4739,135.715,104.209,104.574,0.00814717,0.0841804,20.9508,104.733,-0.0315784,0.0,0.0
300,74.75,34.9167,36.5598,136.441,104.174,104.009,0.00808143,0.0837144,20.9514,104.763,0.0143101,0.0,0.0
302,75.25,34.8353,36.6131,131.532,104.105,104.106,0.00802094,0.08325,20.9518,104.763,-6.94277e-05,0.0,0.0
304,75.75,34.2798,36.6801,138.062,104.067,104.286,0.00796542,0.0827957,20.9522,104.743,-0.0190475,0.0,0.0
306,76.25,34.8367,36.0599,134.174,104.007,104.777,0.00792308,0.0824276,20.9525,104.693,-0.0665831,0.0,0.0
308,76.75,34.2873,36.1448,137.687,103.975,104.245,0.00789116,0.0820882,20.9523,104.653,-0.0234258,0.0,0.0
310,77.25,33.8948,35.6507,136.298,103.906,104.533,0.00787321,0.0818133,20.9521,104.633,-0.0542948,0.0,0.0
312,77.75,34.2173,35.3376,132.86,103.874,104.468,0.00786578,0.0816319,20.952,104.633,-0.0515198,0.0,0.0
314,78.25,34.4498,35.7585,131.565,103.811,104.376,0.00786174,0.081485,20.9519,104.603,-0.0489474,0.0,0.0
316,78.75,34.2589,36.1553,135.721,103.784,104.158,0.00786025,0.0813732,20.9518,104.562,-0.0324793,0.0,0.0
318,79.25,34.2382,35.9688,134.052,103.73,103.646,0.00785377,0.0812892,20.9518,104.492,0.00730361,0.0,0.0
320,79.75,34.3689,35.7765,132.063,103.693,104.407,0.00784378,0.0812212,20.9517,104.522,-0.0619269,0.0,0.0
322,80.25,34.2572,35.8057,133.93,103.646,104.291,0.00783569,0.0812073,20.9517,104.462,-0.055962,0.0,0.0
324,80.75,33.7655,35.9812,133.19,103.62,103.735,0.00782913,0.0811961,20.9516,104.462,-0.0100758,0.0,0.0
326,81.25,33.8848,36.3562,133.11,103.56,104.747,0.00780592,0.0811182,20.9516,104.472,-0.102912,0.0,0.0
328,81.75,33.5112,35.8142,136.845,103.544,104.029,0.00776624,0.0810551,20.952,104.472,-0.0421703,0.0,0.0
330,82.25,33.7545,35.7265,134.33,103.487,104.084,0.00773409,0.0809352,20.9523,104.442,-0.0519192,0.0,0.0
332,82.75,33.7419,35.7916,133.142,103.47,103.866,0.00766806,0.0808381,20.9526,104.432,-0.0344921,0.0,0.0
334,83.25,34.1992,36.0409,133.74,103.43,103.763,0.00761457,0.0807595,20.9528,104.402,-0.0289578,0.0,0.0
336,83.75,34.0552,35.6575,135.784,103.417,103.614,0.00754825,0.0805857,20.953,104.402,-0.0172404,0.0,0.0
338,84.25,34.0057,35.6842,133.413,103.378,103.925,0.00747383,0.0805116,20.9531,104.382,-0.0477154,0.0,0.0
340,84.75,33.6718,35.4899,133.032,103.362,103.551,0.00739845,0.0803849,20.9532,104.342,-0.0164256,0.0,0.0
342,85.25,34.1964,36.1932,134.873,103.331,104.201,0.0073238,0.080131,20.9538,104.302,-0.0756827,0.0,0.0
344,85.75,33.5417,36.118,130.944,103.322,103.943,0.00725875,0.0799254,20.9542,104.292,-0.0541405,0.0,0.0
346,86.25,33.7754,35.6864,134.143,103.295,103.615,0.00720192,0.0797009,20.955,104.262,-0.0279525,0.0,0.0
348,86.75,33.9629,35.6416,135.727,103.299,103.833,0.00715654,0.079467,20.9556,104.212,-0.0465668,0.0,0.0
350,87.25,33.9457,36.5049,137.554,103.277,103.938,0.00712038,0.0792486,20.9561,104.202,-0.0576426,0.0,0.0
352,87.75,34.148,35.3973,132.21,103.281,103.616,0.00708734,0.0790457,20.9565,104.162,-0.0292121,0.0,0.0
354,88.25,33.7569,35.5032,132.759,103.261,103.679,0.00706059,0.0788596,20.9569,104.142,-0.0365151,0.0,0.0
356,88.75,34.2599,35.4151,132.741,103.271,104.032,0.00704918,0.0786893,20.957,104.132,-0.0662518,0.0,0.0
358,89.25,34.0934,35.8753,136.687,103.276,104,0.00703164,0.0785297,20.9573,104.112,-0.0630693,0.0,0.0
360,89.75,34.0104,36.0538,132.56,103.283,103.911,0.00701921,0.0783809,20.9579,104.102,-0.0546814,0.0,0.0
362,90.25,34.0841,35.6268,133.77,103.29,103.84,0.00700652,0.0782169,20.9584,104.102,-0.04796,0.0,0.0
364,90.75,34.0237,35.5484,135.551,103.304,103.586,0.00699387,0.0780451,20.9588,104.072,-0.0245995,0.0,0.0
366,91.25,33.9828,35.7646,135.666,103.325,103.905,0.00698363,0.0779059,20.9592,104.042,-0.0504947,0.0,0.0
368,91.75,33.6975,35.7669,138.034,103.345,103.712,0.00694667,0.0777598,20.9594,104.022,-0.0320283,0.0,0.0
370,92.25,34.2771,35.809,133.674,103.361,103.934,0.00691674,0.07751,20.9596,103.982,-0.0498901,0.0,0.0
372,92.75,34.2366,35.4098,133.358,103.387,103.878,0.00686386,0.0773076,20.9598,103.972,-0.0427802,0.0,0.0
374,93.25,33.8567,36.0068,137.433,103.415,103.522,0.00682103,0.0770064,20.96,103.942,-0.0093905,0.0,0.0
376,93.75,33.4778,35.1591,132.856,103.449,103.683,0.00676891,0.0767118,20.9601,103.932,-0.0204175,0.0,0.0
378,94.25,33.1492,35.2275,134.662,103.468,103.817,0.0067267,0.0764277,20.9606,103.912,-0.0304578,0.0,0.0
380,94.75,33.6855,35.338,136.683,103.503,104.4,0.00668926,0.0761975,20.9611,103.902,-0.0778506,0.0,0.0
382,95.25,33.8965,35.4993,133.204,103.554,103.914,0.00665603,0.0758601,20.9614,103.852,-0.0314002,0.0,0.0
384,95.75,33.5421,35.4011,135.572,103.577,104.026,0.0066291,0.0755869,20.9617,103.822,-0.0390147,0.0,0.0
386,96.25,33.7071,35.4806,136.161,103.612,103.628,0.00659859,0.0752694,20.9618,103.792,-0.00136174,0.0,0.0
388,96.75,33.4657,35.7001,134.03,103.644,103.879,0.00657387,0.0750123,20.9619,103.782,-0.0204919,0.0,0.0
390,97.25,33.4501,35.5214,134.603,103.69,104.41,0.00654012,0.0747459,20.9619,103.762,-0.0624694,0.0,0.0
392,97.75,33.9857,35.5122,132.564,103.72,104.344,0.00650041,0.0744777,20.9619,103.762,-0.0541627,0.0,0.0
394,98.25,33.2186,35.1123,133.969,103.765,104.002,0.00644406,0.0742604,20.9619,103.732,-0.0205588,0.0,0.0
396,98.75,33.2704,35.4112,133.307,103.808,104.367,0.00637665,0.0739473,20.962,103.702,-0.0484686,0.0,0.0
398,99.25,33.3713,35.193,138.034,103.854,104.284,0.00628359,0.0736937,20.9622,103.702,-0.0373786,0.0,0.0
400,99.75,33.4395,35.589,135.535,103.886,103.869,0.00620822,0.0734521,20.9626,103.692,0.00151005,0.0,0.0
402,100.25,33.411,35.0923,129.375,103.936,104.317,0.0061137,0.073224,20.9629,103.662,-0.0329903,0.0,0.0
404,100.75,33.8729,35.1721,131.972,103.97,104.219,0.00603714,0.0730104,20.9632,103.642,-0.0216221,0.0,0.0
406,101.25,33.0495,35.3762,135.25,104.015,104.254,0.00593304,0.0728114,20.9634,103.602,-0.0207881,0.0,0.0
408,101.75,33.4691,35.2115,132.913,104.072,104.374,0.00584871,0.0726141,20.964,103.562,-0.0262165,0.0,0.0
410,102.25,32.9285,34.8515,133.554,104.104,104.783,0.00578041,0.0724219,20.9645,103.522,-0.0586729,0.0,0.0
412,102.75,33.3695,35.6299,132.566,104.156,104.456,0.00569059,0.0722085,20.9649,103.482,-0.0259639,0.0,0.0
414,103.25,32.8786,34.6766,136.455,104.195,104.929,0.00558681,0.0719837,20.9652,103.462,-0.0633132,0.0,0.0
416,103.75,32.8613,34.5055,139.416,104.222,104.59,0.00550274,0.0717151,20.9655,103.452,-0.0318231,0.0,0.0
418,104.25,33.4253,34.9313,135.523,104.274,104.621,0.00543464,0.0714196,20.9657,103.442,-0.030001,0.0,0.0
420,104.75,32.7561,34.9663,134.836,104.301,104.582,0.00538222,0.0711803,20.9658,103.432,-0.0242951,0.0,0.0
422,105.25,32.4054,34.8639,132.989,104.329,104.73,0.00529258,0.0706304,20.9659,103.432,-0.0346234,0.0,0.0
424,105.75,32.586,35.0202,134.903,104.364,104.994,0.00519524,0.0701851,20.9659,103.432,-0.0543386,0.0,0.0
426,106.25,33.0118,35.1049,133.039,104.403,105.071,0.00511639,0.0698243,20.9666,103.422,-0.0575283,0.0,0.0
428,106.75,32.8592,34.9151,130.731,104.419,104.902,0.00502664,0.0693521,20.9673,103.402,-0.0416993,0.0,0.0
430,107.25,32.7239,34.6381,131.885,104.464,104.928,0.00495394,0.0688075,20.9682,103.372,-0.0400536,0.0,0.0
432,107.75,32.8969,34.6566,136.091,104.496,105.274,0.00485811,0.0685754,20.9688,103.362,-0.0670092,0.0,0.0
434,108.25,32.8306,34.1039,136.811,104.52,105.112,0.00478049,0.0680637,20.9693,103.342,-0.0509639,0.0,0.0
436,108.75,33.182,34.3472,132.324,104.537,105.289,0.00470078,0.067546,20.9702,103.322,-0.0647225,0.0,0.0
438,109.25,33.5836,34.8127,136.508,104.562,105.171,0.00462105,0.0670116,20.9714,103.301,-0.0524389,0.0,0.0
440,109.75,32.9922,35.2034,134.527,104.577,105.288,0.00455648,0.0664751,20.9723,103.301,-0.061171,0.0,0.0
442,110.25,33.0384,34.7455,137.588,104.624,105.031,0.00444887,0.0659471,20.9733,103.271,-0.0350032,0.0,0.0
444,110.75,33.0278,34.2785,133.431,104.619,105.069,0.00436171,0.0654353,20.9743,103.231,-0.0387909,0.0,0.0
446,111.25,33.3713,34.6742,134.294,104.639,105.38,0.00426334,0.0649057,20.9751,103.221,-0.0637474,0.0,0.0
448,111.75,33.264,34.899,136.519,104.639,105.147,0.00415866,0.0643733,20.9762,103.191,-0.043706,0.0,0.0
450,112.25,32.2458,34.8955,135.306,104.659,104.982,0.00407387,0.063942,20.977,103.151,-0.0278132,0.0,0.0
452,112.75,32.7166,35.1161,134.083,104.648,105.035,0.00394759,0.0632787,20.9778,103.121,-0.0332885,0.0,0.0
454,113.25,32.3306,34.85,134.136,104.663,105.372,0.00383114,0.0627415,20.9783,103.111,-0.0609478,0.0,0.0
456,113.75,32.7109,34.5577,133.346,104.659,104.866,0.00372406,0.0621843,20.9792,103.091,-0.0178508,0.0,0.0
458,114.25,33.02,34.7032,133.764,104.657,105.424,0.00362702,0.0616231,20.98,103.061,-0.0659298,0.0,0.0
460,114.75,32.5254,34.3111,136.046,104.645,105.828,0.00353915,0.0610394,20.9808,103.021,-0.101509,0.0,0.0
462,115.25,32.8274,34.8285,134.613,104.651,104.719,0.00346798,0.0604503,20.9817,103.001,-0.00590649,0.0,0.0
464,115.75,32.5328,34.3768,129.916,104.626,105.09,0.00337373,0.0599732,20.9826,102.991,-0.0399855,0.0,0.0
466,116.25,32.5667,34.6876,134.086,104.634,104.904,0.00329739,0.0593142,20.9836,102.961,-0.0232477,0.0,0.0
468,116.75,33.0819,34.9117,134.941,104.602,104.977,0.00323555,0.0587804,20.9844,102.951,-0.0323222,0.0,0.0
470,117.25,32.5382,33.9271,135.093,104.601,105.162,0.00313419,0.0581165,20.9848,102.911,-0.048316,0.0,0.0
472,117.75,32.9288,34.4671,133.889,104.569,105.081,0.00305209,0.0575787,20.9852,102.901,-0.044182,0.0,0.0
474,118.25,32.4639,34.624,137.109,104.558,104.946,0.00295023,0.0569518,20.9858,102.891,-0.03341,0.0,0.0
476,118.75,32.5054,34.3542,135.616,104.522,105.14,0.00286772,0.0564439,20.9864,102.881,-0.0532038,0.0,0.0
478,119.25,32.1303,34.7236,132.009,104.52,105.108,0.00277287,0.0559323,20.9869,102.871,-0.050677,0.0,0.0
480,119.75,32.2348,34.2156,137.769,104.502,105.776,0.00269604,0.0554277,20.9873,102.841,-0.10939,0.0,0.0
482,120.25,32.2866,34.1761,133.714,104.481,105.417,0.00260215,0.0550189,20.9886,102.821,-0.0805746,0.0,0.0
484,120.75,32.5151,34.497,136.813,104.451,105.255,0.00252611,0.0544837,20.9895,102.801,-0.0693031,0.0,0.0
486,121.25,32.6134,34.215,136.656,104.448,104.739,0.00242802,0.0540503,20.9903,102.801,-0.0251613,0.0,0.0
488,121.75,32.4717,34.006,134.366,104.413,104.861,0.00234858,0.053468,20.991,102.781,-0.0386525,0.0,0.0
490,122.25,32.428,34.2677,135.219,104.396,105.193,0.00225385,0.0529964,20.9919,102.761,-0.068726,0.0,0.0
492,122.75,32.6069,34.4631,134.161,104.368,104.612,0.00217712,0.0524512,20.9927,102.741,-0.0211155,0.0,0.0
494,123.25,32.7761,34.5586,136.177,104.351,104.539,0.00211497,0.0520097,20.9933,102.741,-0.0162493,0.0,0.0
496,123.75,32.5251,34.1073,135.425,104.315,104.499,0.00204163,0.0515705,20.9939,102.741,-0.0159404,0.0,0.0
498,124.25,32.424,34.6652,135.145,104.293,105.097,0.00196152,0.0512148,20.9943,102.731,-0.0693329,0.0,0.0
500,124.75,32.2126,34.4226,132.719,104.278,104.978,0.00188208,0.0508587,20.9946,102.691,-0.0603469,0.0,0.0
502,125.25,32.1804,33.5624,137.165,104.256,104.405,0.00181773,0.0505703,20.9949,102.681,-0.0128926,0.0,0.0
504,125.75,32.4238,34.2129,134.452,104.238,104.946,0.00176561,0.0502366,20.9951,102.681,-0.0611093,0.0,0.0
506,126.25,32.4373,34.3266,136.243,104.237,104.384,0.00172339,0.0498762,20.9953,102.661,-0.0127497,0.0,0.0
508,126.75,32.2424,34.3925,133.597,104.209,104.362,0.0016467,0.0495843,20.9954,102.651,-0.013217,0.0,0.0
510,127.25,32.626,34.3729,137.384,104.19,104.355,0.00158458,0.0492256,20.9956,102.631,-0.0143684,0.0,0.0
512,127.75,32.1896,33.6946,137.309,104.186,105,0.00149674,0.0489351,20.9957,102.591,-0.0702262,0.0,0.0
514,128.25,32.6723,34.015,137.888,104.174,104.494,0.00142558,0.0486426,20.9958,102.581,-0.0276761,0.0,0.0
516,128.75,32.4855,34.1758,133.127,104.18,104.526,0.00133408,0.0483543,20.9959,102.561,-0.0299265,0.0,0.0
518,129.25,32.0404,33.7837,136.225,104.228,104.474,0.00125997,0.0481207,20.996,102.541,-0.0212461,0.0,0.0
520,129.75,32.6497,33.8739,137.301,104.319,105.192,0.00121629,0.0478819,20.996,102.531,-0.075299,0.0,0.0
522,130.25,32.2418,34.0204,134.051,104.396,104.427,0.00114159,0.0476438,20.9961,102.521,-0.00266339,0.0,0.0
524,130.75,31.9597,33.9548,133.318,104.506,105.165,0.00106901,0.0474439,20.9961,102.511,-0.0567717,0.0,0.0
526,131.25,31.9797,33.6295,139.899,104.568,104.987,0.000999356,0.0472754,20.9962,102.501,-0.0361346,0.0,0.0
528,131.75,31.6381,33.6151,134.965,104.665,104.821,0.000943568,0.0471247,20.9962,102.471,-0.013417,0.0,0.0
530,132.25,31.6882,34.5988,133.198,104.714,105.206,0.000898951,0.0469898,20.9962,102.461,-0.0423411,0.0,0.0
532,132.75,32.1678,33.5995,137.741,104.776,105.262,0.000869803,0.0469323,20.9967,102.421,-0.0418285,0.0,0.0
534,133.25,32.5904,34.1323,139.124,104.843,105.25,0.000852486,0.0467796,20.997,102.411,-0.0349881,0.0,0.0
536,133.75,32.2167,34.3208,137.792,104.896,105.154,0.000838458,0.046656,20.9973,102.391,-0.0221357,0.0,0.0
538,134.25,32.1042,33.6334,132.188,104.915,105.519,0.000847635,0.046513,20.9976,102.381,-0.0518121,0.0,0.0
540,134.75,31.8798,34.0475,137.533,104.972,105.401,0.000855068,0.0463586,20.9978,102.361,-0.0368771,0.0,0.0
542,135.25,31.4649,33.1697,137.189,104.993,105.191,0.000873175,0.0462335,20.9979,102.341,-0.0170371,0.0,0.0
544,135.75,31.9892,33.2933,133.67,105.031,105.625,0.000887842,0.0461322,20.9981,102.301,-0.0509477,0.0,0.0
546,136.25,32.136,33.7938,133.313,105.048,105.701,0.000902904,0.0460145,20.9982,102.281,-0.055923,0.0,0.0
548,136.75,31.6157,33.6354,138.614,105.067,105.176,0.000917967,0.045887,20.9983,102.251,-0.00938888,0.0,0.0
550,137.25,31.9931,34.0452,137.398,105.068,105.586,0.000930169,0.045748,20.9983,102.231,-0.0443345,0.0,0.0
552,137.75,32.1325,33.8279,135.192,105.08,105.348,0.0009286,0.0456033,20.9984,102.221,-0.0229893,0.0,0.0
554,138.25,31.6968,34.0176,135.51,105.073,105.119,0.000917024,0.0454861,20.9989,102.251,-0.00392269,0.0,0.0
556,138.75,32.1399,33.7796,136.464,105.074,105.412,0.000895568,0.0453776,20.9993,102.251,-0.0289362,0.0,0.0
558,139.25,31.0745,33.3174,134.971,105.048,105.476,0.000867316,0.0452897,20.9996,102.241,-0.0367799,0.0,0.0
560,139.75,31.7863,33.9759,135.689,105.034,105.148,0.000846376,0.0451971,20.9997,102.211,-0.0098032,0.0,0.0
562,140.25,31.6638,33.7925,136.993,105.004,105.002,0.000810569,0.0451028,20.9999,102.201,0.000147465,0.0,0.0
564,140.75,31.8561,33.6732,134.896,104.98,105.078,0.000776483,0.0450264,21.0001,102.181,-0.0083944,0.0,0.0
566,141.25,31.924,33.3617,135.277,104.933,105.072,0.000744301,0.0449289,21.0003,102.181,-0.0119446,0.0,0.0
568,141.75,32.0067,32.9933,136.846,104.901,105.02,0.000713788,0.0448177,21.0004,102.171,-0.0102262,0.0,0.0
570,142.25,31.4344,33.145,134.911,104.839,105.103,0.000685071,0.0447135,21.0005,102.161,-0.0227583,0.0,0.0
572,142.75,31.4875,33.7645,133.976,104.789,105.459,0.000657367,0.0446622,21.0006,102.141,-0.0575836,0.0,0.0
574,143.25,31.6355,33.8736,133.237,104.708,105.028,0.000630927,0.0445746,21.0006,102.101,-0.0275077,0.0,0.0
576,143.75,31.2811,33.1994,135.8,104.653,105.05,0.000609511,0.0445037,21.0007,102.091,-0.0342177,0.0,0.0
578,144.25,31.6105,33.1655,136.749,104.563,104.942,0.00058899,0.0444462,21.0007,102.071,-0.0326489,0.0,0.0
580,144.75,31.4866,33.1632,138.489,104.523,104.665,0.000569512,0.0444132,21.0008,102.061,-0.012255,0.0,0.0
582,145.25,31.7399,33.3772,134.138,104.531,104.929,0.000553734,0.0443865,21.0008,102.051,-0.0342528,0.0,0.0
584,145.75,31.9149,33.2074,131.941,104.563,104.721,0.000549397,0.0443242,21.001,102.04,-0.0136143,0.0,0.0
586,146.25,31.7894,33.4625,138.067,104.584,104.796,0.000545884,0.0442737,21.0015,102.04,-0.0182747,0.0,0.0
588,146.75,31.8169,33.2204,139.933,104.619,105.1,0.000548075,0.0442192,21.0018,102.03,-0.0414209,0.0,0.0
590,147.25,31.7007,33.6196,134.559,104.661,105.345,0.000554383,0.0441751,21.0021,102.03,-0.0587563,0.0,0.0
592,147.75,31.9303,33.2151,133.819,104.681,105.353,0.000560762,0.0441394,21.0023,102.02,-0.0577645,0.0,0.0
594,148.25,32.263,33.3663,135.772,104.714,104.944,0.000567073,0.0440969,21.0025,102.01,-0.0197589,0.0,0.0
596,148.75,31.5901,33.9843,137.355,104.762,105.668,0.000572184,0.0440625,21.0028,101.99,-0.0777708,0.0,0.0
598,149.25,31.4062,33.0904,134.865,104.795,104.83,0.000560641,0.0440136,21.0025,101.98,-0.00300741,0.0,0.0
600,149.75,31.5096,33.438,133.92,104.836,105.012,0.000551292,0.0439551,21.0017,101.98,-0.0151727,0.0,0.0
602,150.25,31.2999,33.437,135.444,104.877,105.335,0.000534071,0.0439148,21.0011,101.96,-0.0393801,0.0,0.0
604,150.75,31.8506,33.7064,134.638,104.926,105.133,0.000520122,0.0438886,21.0006,101.94,-0.0178141,0.0,0.0
606,151.25,31.6432,33.4154,135.51,104.961,106.163,0.000508824,0.0438674,21.0001,101.92,-0.102808,0.0,0.0
608,151.75,31.4036,33.6468,138.058,105.001,105.888,0.000492438,0.043843,20.9998,101.91,-0.0760035,0.0,0.0
610,152.25,32.0764,33.5963,136.168,105.036,105.079,0.000479165,0.0438169,20.9995,101.89,-0.00364379,0.0,0.0
612,152.75,31.4165,33.3765,131.111,105.097,105.472,0.000470826,0.0437886,20.9993,101.88,-0.032206,0.0,0.0
614,153.25,31.685,33.2805,136.873,105.126,105.216,0.000464071,0.0437593,20.9991,101.86,-0.00770112,0.0,0.0
616,153.75,31.4086,33.3507,134.301,105.164,105.551,0.000456188,0.0437355,20.9992,101.84,-0.03312,0.0,0.0
618,154.25,31.3703,32.8912,136.137,105.185,105.915,0.000449803,0.0436891,20.9995,101.8,-0.0624255,0.0,0.0
620,154.75,31.3794,33.4144,132.679,105.238,105.475,0.00043575,0.0436516,20.9997,101.81,-0.0203361,0.0,0.0
622,155.25,31.3662,33.2109,137.05,105.248,105.578,0.000416374,0.0436354,20.9999,101.81,-0.0283132,0.0,0.0
624,155.75,31.6627,33.8186,135.656,105.292,105.723,,0.0436352,,101.79,-0.0369209,0.0,0.0
626,156.25,31.1247,32.8529,132.849,105.303,105.75,,0.0436493,,101.77,-0.0381915,0.0,0.0
628,156.75,31.7654,33.2245,134.08,105.339,105.828,,0.0436735,,101.76,-0.0418107,0.0,0.0
630,157.25,31.7041,33.5064,134.504,105.343,105.96,,0.0436718,,101.72,-0.0527513,0.0,0.0
632,157.75,31.3753,33.0447,138.105,105.366,105.903,,0.0436511,,101.7,-0.0459096,0.0,0.0
634,158.25,31.4968,32.7252,138.421,105.367,105.843,,0.0436343,,101.68,-0.0407045,0.0,0.0
636,158.75,31.7703,33.2472,133.198,105.375,105.395,,,,101.68,-0.00170894,0.0,0.0
638,159.25,31.3842,32.7732,132.404,105.381,105.865,,,,101.67,-0.0413625,0.0,0.0
640,159.75,31.5634,33.3449,134.05,105.392,105.967,,,,101.65,-0.0491563,0.0,0.0
642,160.25,31.3832,32.9837,135.603,105.373,106.153,,,,101.6,-0.0666731,0.0,0.0
644,160.75,31.5013,33.2141,134.309,105.382,105.858,,,,101.6,-0.0406845,0.0,0.0
646,161.25,31.287,33.2835,133.356,105.364,106.193,,,,101.56,-0.0708321,0.0,0.0
648,161.75,31.5896,33.1586,136.962,105.354,105.481,,,,101.57,-0.0108921,0.0,0.0
650,162.25,31.9053,33.469,134.874,105.34,106.177,,,,101.5,-0.0715004,0.0,0.0
652,162.75,31.8495,32.9652,135.294,105.321,105.905,,,,101.52,-0.0499848,0.0,0.0
654,163.25,31.6304,32.9697,133.901,105.31,106.147,,,,101.49,-0.0715481,0.0,0.0
656,163.75,31.3873,33.4509,134.632,105.294,105.437,,,,101.35,-0.0122512,0.0,0.0
658,164.25,30.9343,32.997,135.811,105.254,106.03,,,,101.28,-0.0663673,0.0,0.0
660,164.75,31.5134,33.5275,135,105.225,105.737,,,,101.26,-0.0438521,0.0,0.0
662,165.25,30.8468,33.1496,131.436,105.214,105.509,,,,101.27,-0.0252962,0.0,0.0
664,165.75,31.4153,33.0743,139.002,105.156,105.532,,,,101.42,-0.0322001,0.0,0.0
666,166.25,30.8366,32.8878,134.072,105.104,105.879,,,,101.38,-0.0663407,0.0,0.0
667,166.5,31.2647,33.456,132.813,105.094,106.17,,,,101.42,-0.0920026,0.0,0.0