File: 01_Data/Lightweight_Gypsum_Wallboard/Cone/Lightweight_Gypsum_Wallboard_Cone_HF50Scan_220506_R2.csv
Names,Time,Stack TC,Smoke TC,Exh Press,Smoke Comp,Smoke Meas,CO Meter,CO2 Meter,O2 Meter,Sample Mass,Ext Coeff,Start Test,Flame Verif
Chan Gain,,500,500,1,1,1,1,1,1,1,1,1.0,1.0
Offset,,0,0,0.135316,0,0,0,0,0,0,0,0.0,0.0
Gain,,1,1,25.011,13.8443,15.4071,1,1,1,1.00079,1.02936,1.0,1.0
Units,sec,C,C,Pa,%,%,%,%,%,g,/m,,
Baseline,,30.7147,31.832,136.292,103.87,104.234,0.00031159,0.041915,21.0019,-447.06,-0.0315685,,
2,0.25,30.0166,31.3368,141.099,103.861,103.853,0.000210234,0.0480771,20.9984,112.779,0.000732995,0.0,0.0
4,0.75,29.3705,30.814,137.19,103.851,103.993,0.00019525,0.0479513,20.9987,112.729,-0.0123224,0.0,0.0
6,1.25,28.7849,30.0057,134.085,103.849,104.23,0.000199969,0.0476593,20.999,112.719,-0.0330589,0.0,0.0
8,1.75,28.5369,29.9189,137.965,103.835,103.856,0.000203791,0.0474228,20.9994,112.709,-0.00178968,0.0,0.0
10,2.25,28.6974,29.846,136.077,103.847,104.402,0.000222545,0.0470955,20.9999,112.779,-0.0481385,0.0,0.0
12,2.75,28.9554,30.0707,132.941,103.824,104.639,0.000237736,0.0468305,21.0004,112.759,-0.0706352,0.0,0.0
14,3.25,29.0705,29.9961,135.709,103.829,104.462,0.00025727,0.0465443,21.0007,112.729,-0.0548855,0.0,0.0
16,3.75,28.832,29.6344,138.399,103.809,104.137,0.000273092,0.0462483,21.001,112.579,-0.0285215,0.0,0.0
18,4.25,28.973,29.968,132.759,103.812,104.12,0.000279837,0.0460086,21.0011,112.639,-0.026719,0.0,0.0
20,4.75,28.4107,30.3087,140.144,103.799,103.902,0.000301013,0.0457194,21.0014,112.719,-0.0089552,0.0,0.0
22,5.25,28.5185,29.5831,138.128,103.8,104.157,0.000318165,0.0454852,21.0015,112.619,-0.0310016,0.0,0.0
24,5.75,28.8954,29.934,136.793,103.784,104.196,0.000338086,0.0452819,21.0017,112.669,-0.035785,0.0,0.0
26,6.25,28.9211,30.1508,135.065,103.795,104.274,0.000354221,0.0451173,21.0018,112.579,-0.0415133,0.0,0.0
28,6.75,29.1193,29.9847,136.572,103.78,104.316,0.000367291,0.0449982,21.0019,112.589,-0.0465365,0.0,0.0
30,7.25,28.9663,30.3284,134.46,103.778,104.505,0.000377878,0.0449542,21.0019,112.619,-0.0629523,0.0,0.0
32,7.75,29.1292,29.5899,133.483,103.768,104.326,0.000386453,0.0448789,21.002,112.649,-0.048461,0.0,0.0
34,8.25,28.5993,29.733,137.612,103.766,103.913,0.00037773,0.0448858,21.002,112.599,-0.0128031,0.0,0.0
36,8.75,28.192,30.1507,135.758,103.763,104.245,0.000370665,0.0448985,21.0019,112.589,-0.0418226,0.0,0.0
38,9.25,29.1799,30.3251,137.762,103.751,103.906,0.000344463,0.0449152,21.0015,112.599,-0.013473,0.0,0.0
40,9.75,29.6295,29.6641,135.512,103.74,104.011,0.000323239,0.0449287,21.0012,112.599,-0.0236184,0.0,0.0
42,10.25,28.571,29.9095,135.613,103.755,103.809,0.000297176,0.0449468,21.001,112.559,-0.00468461,0.0,0.0
44,10.75,29.0713,30.0752,134.168,103.749,103.838,0.00026808,0.0449679,21.001,112.569,-0.00777545,0.0,0.0
46,11.25,29.4534,30.0267,138.163,103.742,103.893,0.000237545,0.044985,21.0012,112.599,-0.0131055,0.0,0.0
48,11.75,28.8301,30.3021,134.112,103.746,104.163,0.00020654,0.0450802,21.0014,112.559,-0.0362368,0.0,0.0
50,12.25,29.1715,30.3723,131.513,103.746,104.285,0.000181427,0.0451573,21.0016,112.549,-0.0468682,0.0,0.0
52,12.75,29.2937,30.0718,138.151,103.736,104.134,0.000157285,0.0451655,21.0017,112.499,-0.0345186,0.0,0.0
54,13.25,29.1382,30.3978,137.819,103.734,103.691,0.000134311,0.0451722,21.0015,112.489,0.003744,0.0,0.0
56,13.75,28.7663,30.1136,136.134,103.732,103.68,0.000118235,0.0451098,21.0011,112.489,0.00457997,0.0,0.0
58,14.25,28.9598,30.3715,135.775,103.733,103.68,0.000107493,0.0450592,21.0008,112.449,0.00457567,0.0,0.0
60,14.75,29.2116,29.8769,134.589,103.728,104.02,9.87917e-05,0.0449775,21.0005,112.459,-0.0254231,0.0,0.0
62,15.25,29.0474,30.265,135.428,103.739,104.108,0.00010378,0.0449114,21.0003,112.449,-0.0320591,0.0,0.0
64,15.75,29.035,30.0885,133.216,103.712,104.336,0.000118653,0.0448578,21.0001,112.449,-0.0542071,0.0,0.0
66,16.25,29.1234,30.3724,136.556,103.72,104.125,0.0001307,0.0448144,20.9999,112.439,-0.035141,0.0,0.0
68,16.75,28.9991,30.2782,138.738,103.714,104.096,0.000153705,0.0447793,20.9998,112.409,-0.0332059,0.0,0.0
70,17.25,29.2253,29.9327,137.812,103.705,104.228,0.000172339,0.0447508,20.9997,112.389,-0.0453946,0.0,0.0
72,17.75,29.5386,30.3721,136.481,103.711,103.822,0.000182615,0.0448634,20.9996,112.349,-0.00961786,0.0,0.0
74,18.25,29.354,30.1095,134.892,103.703,104.092,0.000190938,0.0449546,20.9996,112.329,-0.0338357,0.0,0.0
76,18.75,29.6692,30.0152,135.669,103.697,103.425,0.000185639,0.0451213,20.9995,112.309,0.0237109,0.0,0.0
78,19.25,29.5602,30.493,134.682,103.71,103.628,0.000181347,0.0453399,20.9993,112.329,0.0071767,0.0,0.0
80,19.75,29.2622,30.9291,134.966,103.704,104.106,0.000168241,0.0455169,20.9988,112.319,-0.0349076,0.0,0.0
82,20.25,29.6707,30.5493,134.965,103.702,103.57,0.000157626,0.0458504,20.9983,112.239,0.0114811,0.0,0.0
84,20.75,29.5298,30.6821,138.322,103.697,103.504,0.000151434,0.0461204,20.9976,112.249,0.0168546,0.0,0.0
86,21.25,29.6683,30.3468,136.719,103.693,103.866,0.000146419,0.0464886,20.997,112.249,-0.0150826,0.0,0.0
88,21.75,29.7566,30.1553,135.314,103.692,103.341,0.000142357,0.0467867,20.9966,112.189,0.0305802,0.0,0.0
90,22.25,29.6254,30.7416,136.732,103.675,102.874,0.000183627,0.0471233,20.9962,112.178,0.0699961,0.0,0.0
92,22.75,29.3262,30.5028,135.422,103.678,102.722,0.000217057,0.047396,20.996,112.189,0.0837127,0.0,0.0
94,23.25,29.5518,30.4454,135.492,103.674,103.122,0.000298407,0.0476304,20.9957,112.108,0.0481627,0.0,0.0
96,23.75,29.1528,30.6725,136.512,103.664,102.539,0.0003643,0.0478202,20.9955,112.118,0.0985115,0.0,0.0
98,24.25,29.4625,30.7848,137.03,103.66,102.254,0.000463566,0.0479455,20.9954,112.128,0.123348,0.0,0.0
100,24.75,29.7507,30.4758,134.813,103.654,101.751,0.000543972,0.0480211,20.9944,112.058,0.167369,0.0,0.0
102,25.25,29.4937,30.4521,136.232,103.644,101.499,0.000635196,0.0480824,20.9936,111.998,0.188841,0.0,0.0
104,25.75,30.2384,30.9993,136.16,103.648,101.709,0.000732574,0.0481821,20.9929,112.008,0.170489,0.0,0.0
106,26.25,29.8972,30.3801,137.01,103.639,101.741,0.000833117,0.0483079,20.9924,111.998,0.166841,0.0,0.0
108,26.75,29.5589,30.7924,136.796,103.643,101.13,0.000934058,0.0489179,20.9913,111.958,0.221661,0.0,0.0
110,27.25,29.8932,30.3686,136.129,103.628,100.793,0.00101582,0.0498692,20.9897,111.958,0.250477,0.0,0.0
112,27.75,29.6251,30.7653,139.391,103.619,100.099,0.00113539,0.0539569,20.9844,111.978,0.312016,0.0,0.0
114,28.25,29.1294,30.7318,135.427,103.612,99.3955,0.00123225,0.0602533,20.9763,111.858,0.375181,0.0,0.0
116,28.75,29.9373,30.5644,133.717,103.622,103.463,0.00135033,0.0653533,20.9698,111.808,0.0138727,0.0,0.0
118,29.25,29.7517,30.8043,127.76,103.603,106.475,0.00148165,0.0844863,20.9449,111.788,-0.246933,0.0,1.0
120,29.75,29.7941,30.5204,121.929,103.614,108.173,0.00158802,0.099984,20.9247,111.738,-0.388787,0.0,1.0
122,30.25,29.6169,30.2623,125.884,103.597,108.266,0.00172771,0.128738,20.8971,111.538,-0.398028,0.0,1.0
124,30.75,30.1536,31.1265,121.597,103.594,107.531,0.00184086,0.152028,20.8646,111.438,-0.336785,0.0,1.0
126,31.25,30.6084,31.2278,118.769,103.584,108.615,0.00196418,0.181182,20.8187,111.388,-0.428256,0.0,1.0
128,31.75,30.4288,31.4555,120.687,103.585,109.187,0.00201675,0.214056,20.7991,111.308,-0.475591,0.0,1.0
130,32.25,31.3226,31.3452,111.528,103.571,108.462,0.00212616,0.240684,20.759,111.158,-0.416685,0.0,1.0
132,32.75,32.1008,31.85,118.605,103.575,109.331,0.00221478,0.273125,20.7205,111.128,-0.488404,0.0,1.0
134,33.25,32.3262,32.7314,117.371,103.552,108.356,0.00229509,0.299402,20.6879,111.018,-0.409458,0.0,1.0
136,33.75,32.9012,32.7301,120.271,103.556,108.136,0.00236015,0.325083,20.6603,110.938,-0.390731,0.0,1.0
138,34.25,33.4767,33.1124,120.411,103.547,109.094,0.00240431,0.345884,20.638,110.817,-0.471201,0.0,1.0
140,34.75,33.6628,33.5189,114.339,103.544,108.549,0.00244008,0.355386,20.6198,110.677,-0.426168,0.0,0.0
142,35.25,34.5046,34.0762,123.375,103.547,107.771,0.00246905,0.371634,20.6052,110.717,-0.361026,0.0,0.0
144,35.75,35.0552,34.6225,116.248,103.537,108.74,0.00249252,0.384215,20.5933,110.567,-0.442776,0.0,0.0
146,36.25,35.4879,34.9281,120.18,103.522,109.092,0.00249203,0.393884,20.584,110.567,-0.473183,0.0,0.0
148,36.75,35.7303,35.4595,118.243,103.535,106.676,0.00249163,0.399999,20.5769,110.507,-0.269913,0.0,0.0
150,37.25,36.2754,35.945,118.492,103.508,107.273,0.00250837,0.403407,20.5711,110.417,-0.322675,0.0,0.0
152,37.75,37.165,35.6137,119.147,103.522,108.811,0.00252193,0.406167,20.5708,110.327,-0.449959,0.0,0.0
154,38.25,37.6447,36.9082,121.552,103.507,107.235,0.00253291,0.404002,20.5705,110.287,-0.319466,0.0,0.0
156,38.75,37.9474,37.0708,120.884,103.521,108.657,0.00259915,0.398287,20.5773,110.217,-0.437223,0.0,0.0
158,39.25,38.2468,37.3555,121.557,103.492,108.517,0.00265281,0.393659,20.5827,110.197,-0.428079,0.0,0.0
160,39.75,38.6599,37.1804,121.759,103.501,107.424,0.00278675,0.385393,20.5948,110.197,-0.33592,0.0,0.0
162,40.25,38.2409,38.0753,123.822,103.478,106.399,0.00289523,0.374635,20.6113,110.137,-0.251377,0.0,0.0
164,40.75,38.6183,39.0241,126.085,103.487,107.254,0.00313029,0.36592,20.6298,110.077,-0.322818,0.0,0.0
166,41.25,39.0007,38.6591,125.011,103.473,106.171,0.00332068,0.34964,20.6493,109.977,-0.232486,0.0,0.0
168,41.75,38.7249,39.6047,126.243,103.476,105.321,0.00367576,0.336454,20.671,109.947,-0.159526,0.0,0.0
170,42.25,39.994,38.9355,129.885,103.462,105.737,0.00396337,0.317998,20.694,109.937,-0.196424,0.0,0.0
172,42.75,40.1222,39.3174,126.361,103.469,105.245,0.00419634,0.303049,20.7126,109.927,-0.15362,0.0,0.0
174,43.25,39.483,39.7155,129.461,103.446,105.132,0.0046952,0.283218,20.7364,109.887,-0.145964,0.0,0.0
176,43.75,39.8609,39.6447,135.207,103.461,104.975,0.00509927,0.267156,20.7557,109.847,-0.131173,0.0,0.0
178,44.25,39.7344,39.9639,134.178,103.457,104.24,0.0056452,0.25052,20.7755,109.827,-0.0681051,0.0,0.0
180,44.75,40.1657,39.6411,136.206,103.45,103.677,0.00608739,0.233782,20.7952,109.777,-0.0197746,0.0,0.0
182,45.25,39.9709,39.8263,135.361,103.429,103.61,0.00663899,0.217384,20.8135,109.717,-0.0157609,0.0,0.0
184,45.75,39.6267,39.7206,136.925,103.431,103.89,0.00708578,0.201547,20.8303,109.727,-0.0399244,0.0,0.0
186,46.25,39.4555,39.1335,135.16,103.427,104.184,0.00757759,0.188719,20.844,109.697,-0.0659168,0.0,0.0
188,46.75,39.0676,39.5908,134.594,103.432,104.789,0.00797596,0.175109,20.8585,109.616,-0.117728,0.0,0.0
190,47.25,39.1358,39.1105,135.102,103.425,104.075,0.00834989,0.164084,20.8703,109.576,-0.0565653,0.0,0.0
192,47.75,39.1038,39.1813,138.805,103.422,103.783,0.00869891,0.153394,20.8807,109.556,-0.0314542,0.0,0.0
194,48.25,38.1822,38.7982,132.675,103.413,104.314,0.00898162,0.144735,20.8892,109.536,-0.0783751,0.0,0.0
196,48.75,38.9117,39.3604,136.635,103.424,103.909,0.00927018,0.136595,20.8969,109.506,-0.0421903,0.0,0.0
198,49.25,38.3546,39.215,133.478,103.413,104.073,0.00950392,0.130001,20.904,109.326,-0.0575126,0.0,0.0
200,49.75,38.4211,38.8208,134.16,103.423,104.091,0.00969324,0.124207,20.9098,109.326,-0.0581399,0.0,0.0
202,50.25,38.1945,39.4605,131.269,103.4,104.321,0.00987832,0.119106,20.9149,109.346,-0.0800506,0.0,0.0
204,50.75,38.4274,38.9434,137.58,103.415,103.546,0.0100282,0.114785,20.9195,109.306,-0.0114817,0.0,0.0
206,51.25,37.535,38.7839,132.102,103.403,103.575,0.0101674,0.111114,20.9232,109.356,-0.0149743,0.0,0.0
208,51.75,38.0331,39.0071,131.435,103.396,103.89,0.0102802,0.10814,20.9262,109.296,-0.0430647,0.0,0.0
210,52.25,37.7725,38.4559,134.252,103.394,104.012,0.0103893,0.105673,20.9288,109.256,-0.0537534,0.0,0.0
212,52.75,37.9184,38.5898,134.823,103.392,104.203,0.0104777,0.103623,20.9312,109.216,-0.0705315,0.0,0.0
214,53.25,37.3609,38.771,133.346,103.396,103.918,0.0105582,0.101962,20.9331,109.226,-0.0454379,0.0,0.0
216,53.75,37.8737,38.1379,127.841,103.397,103.952,0.0106234,0.100519,20.9346,109.246,-0.0483468,0.0,0.0
218,54.25,37.2851,38.6954,139.405,103.39,103.719,0.0106762,0.0993512,20.9359,109.206,-0.0286571,0.0,0.0
220,54.75,37.5685,37.9476,135.99,103.385,103.899,0.0107189,0.0982526,20.9369,109.156,-0.0447634,0.0,0.0
222,55.25,37.2492,38.664,133.803,103.383,103.897,0.0107409,0.0973628,20.9377,109.116,-0.0447472,0.0,0.0
224,55.75,37.3529,38.144,134.994,103.38,103.951,0.0107587,0.0964344,20.9384,109.076,-0.0496628,0.0,0.0
226,56.25,37.4734,38.1585,137.009,103.386,103.839,0.0107731,0.0956825,20.9389,109.036,-0.0394568,0.0,0.0
228,56.75,36.9694,38.4412,138.169,103.382,103.809,0.0107644,0.0949213,20.9398,108.976,-0.0372095,0.0,0.0
230,57.25,36.9828,37.7294,131.556,103.379,104.363,0.0107574,0.0943047,20.9405,108.946,-0.0854799,0.0,0.0
232,57.75,36.6075,38.2126,130.673,103.377,104.046,0.0107301,0.0937689,20.9411,108.946,-0.0582043,0.0,0.0
234,58.25,36.7981,38.1418,133.154,103.397,104.311,0.010708,0.0933021,20.9415,108.896,-0.0794544,0.0,0.0
236,58.75,37.1165,38.1584,136.446,103.383,103.934,0.0106901,0.0928876,20.9419,108.906,-0.0480119,0.0,0.0
238,59.25,36.3606,37.5093,137.004,103.389,104.642,0.0106757,0.0925192,20.9422,108.896,-0.108764,0.0,0.0
240,59.75,36.597,37.5991,133.252,103.381,103.74,0.0105638,0.0922207,20.9424,108.876,-0.03131,0.0,0.0
242,60.25,36.0807,37.8656,133.739,103.4,103.862,0.0104732,0.091899,20.9425,108.906,-0.0402055,0.0,0.0
244,60.75,36.3013,38.162,134.961,103.379,104.166,0.0103088,0.0915663,20.9426,108.836,-0.0684185,0.0,0.0
246,61.25,36.3734,37.819,135.561,103.391,104.278,0.0101756,0.0912969,20.9426,108.796,-0.0771216,0.0,0.0
248,61.75,36.5306,38.0939,136.999,103.389,104.387,0.0100318,0.0909333,20.9427,108.816,-0.0867095,0.0,0.0
250,62.25,36.479,37.5051,131.384,103.393,104.504,0.00988311,0.0905078,20.9427,108.786,-0.0964953,0.0,0.0
252,62.75,36.2582,37.2352,135.783,103.386,104.007,0.00974077,0.0901632,20.9427,108.746,-0.0540793,0.0,0.0
254,63.25,36.0087,37.4579,136.545,103.403,104.308,0.00960578,0.0897897,20.9432,108.736,-0.0786161,0.0,0.0
256,63.75,35.8769,37.6234,133.759,103.4,103.795,0.00949644,0.089402,20.9436,108.686,-0.0343959,0.0,0.0
258,64.25,36.0326,37.1219,135.687,103.414,103.557,0.00939131,0.0890881,20.9439,108.676,-0.0124986,0.0,0.0
260,64.75,36.1815,37.8857,134.132,103.399,104.63,0.00929125,0.0888337,20.9441,108.626,-0.106823,0.0,0.0
262,65.25,35.8924,37.3684,132.171,103.405,104.114,0.00920093,0.0885987,20.9443,108.636,-0.0617617,0.0,0.0
264,65.75,36.1431,37.4531,131.857,103.401,104.213,0.00911943,0.0883821,20.9449,108.596,-0.0706162,0.0,0.0
266,66.25,35.7571,37.2719,136.754,103.418,104.358,0.00904481,0.0882067,20.9454,108.586,-0.0816791,0.0,0.0
268,66.75,35.6941,36.4381,133.065,103.416,103.765,0.00897662,0.0877887,20.9458,108.576,-0.0304541,0.0,0.0
270,67.25,35.6087,36.9523,134.836,103.422,103.927,0.00892139,0.0874501,20.9461,108.506,-0.043964,0.0,0.0
272,67.75,35.8297,37.2105,132.231,103.416,103.894,0.00886785,0.087038,20.9468,108.476,-0.0415836,0.0,0.0
274,68.25,35.6396,36.8963,131.444,103.439,104.278,0.00882449,0.0865801,20.9474,108.456,-0.0729527,0.0,0.0
276,68.75,36.0334,37.0509,136.509,103.422,104.509,0.00878056,0.0861439,20.9478,108.476,-0.0943969,0.0,0.0
278,69.25,35.3924,36.8882,137.138,103.435,104.464,0.00874499,0.0857318,20.9482,108.375,-0.0893932,0.0,0.0
280,69.75,35.8871,36.7104,134.836,103.437,104.423,0.00869607,0.085398,20.9485,108.365,-0.0856685,0.0,0.0
282,70.25,35.1963,37.0514,132.114,103.447,104.204,0.00865644,0.0850587,20.9487,108.325,-0.0658175,0.0,0.0
284,70.75,35.4951,37.1346,132.591,103.452,104.078,0.00862435,0.0847839,20.9489,108.355,-0.0544529,0.0,0.0
286,71.25,35.7762,36.7134,131.057,103.459,104.403,0.00855065,0.0844374,20.9491,108.325,-0.0820468,0.0,0.0
288,71.75,34.7941,37.0488,134.342,103.449,103.977,0.00849096,0.0841567,20.9492,108.305,-0.0458955,0.0,0.0
290,72.25,35.1686,37.182,135.552,103.468,104.142,0.00842881,0.083888,20.9493,108.275,-0.058675,0.0,0.0
292,72.75,34.7908,36.8838,136.117,103.476,104.499,0.00837847,0.0836703,20.9494,108.195,-0.0887872,0.0,0.0
294,73.25,35.0124,36.34,133.519,103.49,104.167,0.00833518,0.083494,20.9497,108.165,-0.0588413,0.0,0.0
296,73.75,35.195,36.8702,137.425,103.465,104.932,0.00830012,0.0832548,20.9501,108.165,-0.127123,0.0,0.0
298,74.25,35.3405,36.6396,134.052,103.487,104.571,0.00827047,0.0830611,20.9505,108.165,-0.0940423,0.0,0.0
300,74.75,35.5197,36.6992,131.582,103.481,104.579,0.00824645,0.0828353,20.9508,108.135,-0.095322,0.0,0.0
302,75.25,35.1788,36.9428,136.964,103.496,104.135,0.00821948,0.0826524,20.951,108.125,-0.0555532,0.0,0.0
304,75.75,35.0926,36.5625,135.145,103.495,104.328,0.00819762,0.0824463,20.9512,108.105,-0.0724047,0.0,0.0
306,76.25,34.9428,36.5563,132.666,103.506,103.864,0.00815486,0.0822272,20.9514,108.085,-0.0311912,0.0,0.0
308,76.75,35.2746,36.9697,139.139,103.505,104.178,0.00812022,0.0819534,20.9515,108.045,-0.0584882,0.0,0.0
310,77.25,34.1819,36.3562,131.756,103.524,104.485,0.00809216,0.0817317,20.9521,108.015,-0.0834797,0.0,0.0
312,77.75,34.1751,36.1988,133.68,103.525,104.513,0.00800935,0.0814695,20.9525,107.995,-0.0857668,0.0,0.0
314,78.25,34.8393,36.6754,134.942,103.533,104.55,0.00794227,0.0812571,20.9528,107.965,-0.0882746,0.0,0.0
316,78.75,34.5978,37.2859,135.251,103.529,104.422,0.00785701,0.080975,20.9531,107.945,-0.0775543,0.0,0.0
318,79.25,34.686,36.6045,133.305,103.551,103.866,0.00776013,0.0807465,20.9534,107.945,-0.0274899,0.0,0.0
320,79.75,34.6409,36.2728,133.026,103.542,104.147,0.00765866,0.0804746,20.9536,107.915,-0.0525558,0.0,0.0
322,80.25,34.7642,36.3645,136.515,103.565,104.097,0.00755578,0.0801762,20.9537,107.885,-0.0462844,0.0,0.0
324,80.75,34.6472,36.7049,134.474,103.558,103.96,0.00745275,0.0799345,20.9543,107.895,-0.0349567,0.0,0.0
326,81.25,35.3758,36.2161,134.372,103.573,104.366,0.00735158,0.0796837,20.9547,107.835,-0.0689202,0.0,0.0
328,81.75,34.8994,36.0048,134.768,103.58,104.354,0.00726964,0.0794805,20.9551,107.835,-0.0672364,0.0,0.0
330,82.25,34.5255,36.1815,134.415,103.594,103.974,0.00720326,0.0792335,20.9558,107.805,-0.0330481,0.0,0.0
332,82.75,34.6249,36.4675,132.789,103.589,104.862,0.0071308,0.0790334,20.9564,107.765,-0.110259,0.0,0.0
334,83.25,34.1928,36.1826,133.335,103.611,104.196,0.00709991,0.078799,20.9569,107.735,-0.0507902,0.0,0.0
336,83.75,34.3515,36.1094,135.596,103.609,104.821,0.00705582,0.0785441,20.9576,107.735,-0.105002,0.0,0.0
338,84.25,34.7066,36.676,134.393,103.62,104.087,0.00702009,0.0783086,20.9582,107.765,-0.0405634,0.0,0.0
340,84.75,34.3856,36.7934,136.244,103.618,104.074,0.00699116,0.0780919,20.9587,107.665,-0.0396422,0.0,0.0
342,85.25,34.4517,36.1765,136.301,103.643,104.529,0.00697691,0.0779163,20.9592,107.685,-0.0767948,0.0,0.0
344,85.75,34.4518,35.8268,133.262,103.648,104.422,0.00697363,0.0777452,20.9595,107.635,-0.0671654,0.0,0.0
346,86.25,34.6063,35.9482,134.51,103.649,104.589,0.00696966,0.0776585,20.9598,107.605,-0.0815542,0.0,0.0
348,86.75,34.2513,36.4862,134.944,103.658,104.185,0.00696526,0.0775104,20.96,107.555,-0.0458446,0.0,0.0
350,87.25,34.2989,35.9029,132.799,103.681,104.485,0.00695449,0.0774048,20.9601,107.565,-0.0697413,0.0,0.0
352,87.75,34.189,35.8395,134.123,103.683,104.994,0.00693926,0.0773323,20.9603,107.505,-0.113379,0.0,0.0
354,88.25,34.5818,35.3898,135.245,103.7,104.635,0.00692693,0.0772736,20.9604,107.515,-0.0810383,0.0,0.0
356,88.75,34.3001,36.2389,136.106,103.708,105.093,0.00690075,0.0772694,20.9605,107.425,-0.119777,0.0,0.0
358,89.25,34.4825,35.7857,135.835,103.733,104.728,0.00687954,0.0773051,20.9606,107.425,-0.0862004,0.0,0.0
360,89.75,33.6223,35.8166,131.264,103.715,104.958,0.00685739,0.0772834,20.9606,107.395,-0.107583,0.0,0.0
362,90.25,34.4597,36.1487,133.715,103.738,104.237,0.00683944,0.0772202,20.9607,107.435,-0.0432593,0.0,0.0
364,90.75,33.8477,36.0623,138.561,103.737,104.681,0.00682241,0.0771184,20.961,107.405,-0.0817411,0.0,0.0
366,91.25,33.7697,36.2328,135.016,103.748,104.279,0.00680861,0.0769905,20.9614,107.325,-0.0461551,0.0,0.0
368,91.75,34.2866,36.2763,132.759,103.748,104.505,0.00679744,0.0768868,20.9617,107.335,-0.0656435,0.0,0.0
370,92.25,34.4411,35.7908,136.302,103.761,104.816,0.00678216,0.0766381,20.962,107.325,-0.0913132,0.0,0.0
372,92.75,34.048,36.0083,133.425,103.773,104.717,0.00676979,0.0764366,20.9622,107.245,-0.0817373,0.0,0.0
374,93.25,34.2793,35.7143,136.495,103.777,104.07,0.00674981,0.0761773,20.9624,107.315,-0.0254463,0.0,0.0
376,93.75,33.6902,36.273,134.5,103.792,104.994,0.00673362,0.0759673,20.9626,107.265,-0.104045,0.0,0.0
378,94.25,33.8747,36.3286,132.729,103.789,104.792,0.00670931,0.0757538,20.9627,107.185,-0.0868622,0.0,0.0
380,94.75,33.8532,35.8123,135.513,103.814,105.084,0.00668962,0.0755419,20.9628,107.145,-0.109817,0.0,0.0
382,95.25,33.6823,35.9004,133.194,103.823,104.659,0.00666247,0.0753702,20.9631,107.165,-0.0723716,0.0,0.0
384,95.75,34.0405,35.6807,135.898,103.836,104.321,0.00664048,0.0752168,20.9635,107.145,-0.0420189,0.0,0.0
386,96.25,33.7994,35.6583,136.636,103.835,104.956,0.00661148,0.0750794,20.9639,107.125,-0.0970214,0.0,0.0
388,96.75,33.9091,35.5675,132.499,103.849,104.95,0.00658798,0.0748584,20.9642,107.104,-0.0952829,0.0,0.0
390,97.25,33.3738,35.8049,136.092,103.851,104.735,0.00655979,0.0746794,20.9647,107.044,-0.0765935,0.0,0.0
392,97.75,33.2662,35.9428,131.118,103.863,104.468,0.00652871,0.074315,20.9653,107.004,-0.0523972,0.0,0.0
394,98.25,33.5467,35.5407,134.997,103.871,104.615,0.00650353,0.0740198,20.9657,106.964,-0.0644471,0.0,0.0
396,98.75,33.809,35.3375,135.034,103.893,104.891,0.00642104,0.0737085,20.9661,106.964,-0.086365,0.0,0.0
398,99.25,33.7465,35.8463,138.016,103.887,104.511,0.00635422,0.0733914,20.9664,106.984,-0.0540376,0.0,0.0
400,99.75,33.5635,35.5097,135.498,103.904,105.03,0.0062629,0.0730985,20.9667,106.944,-0.0973059,0.0,0.0
402,100.25,33.7311,35.4915,129.793,103.906,104.431,0.00615545,0.0728288,20.9669,106.914,-0.0454411,0.0,0.0
404,100.75,33.7354,35.5302,136.408,103.92,104.723,0.00606842,0.0726103,20.9671,106.984,-0.0695542,0.0,0.0
406,101.25,33.6645,35.6598,135.969,103.926,104.545,0.00592862,0.07231,20.9672,106.934,-0.0535482,0.0,0.0
408,101.75,33.5447,35.851,132.302,103.948,104.805,0.00581538,0.0720667,20.9673,106.934,-0.0741057,0.0,0.0
410,102.25,33.4348,34.9977,136.377,103.946,104.853,0.00569152,0.0718697,20.9674,106.884,-0.0785016,0.0,0.0
412,102.75,33.2076,35.4604,135.544,103.963,104.614,0.0055912,0.0715457,20.9679,106.924,-0.0563633,0.0,0.0
414,103.25,33.6059,35.148,136.109,103.96,104.715,0.00550005,0.0712833,20.9683,106.874,-0.0653779,0.0,0.0
416,103.75,33.1082,35.7969,133.489,103.981,104.851,0.00542623,0.0709474,20.9686,106.844,-0.0752122,0.0,0.0
418,104.25,33.289,35.2173,136.145,103.98,104.324,0.00536766,0.0706754,20.9689,106.814,-0.029744,0.0,0.0
420,104.75,33.1841,34.9633,129.992,104.021,104.612,0.00532022,0.0702908,20.9691,106.814,-0.0512118,0.0,0.0
422,105.25,33.353,35.4056,134.244,104.011,104.745,0.0053,0.0699072,20.9693,106.794,-0.0634926,0.0,0.0
424,105.75,33.2672,34.9311,132.927,104.036,104.426,0.00526542,0.0695316,20.9695,106.734,-0.0337655,0.0,0.0
426,106.25,33.3258,35.2558,136.546,104.04,104.681,0.0051872,0.0692274,20.9696,106.674,-0.0554113,0.0,0.0
428,106.75,32.953,35.2428,134.952,104.059,105.19,0.00516014,0.0687895,20.9697,106.654,-0.0976154,0.0,0.0
430,107.25,33.5132,35.8452,135.41,104.065,104.861,0.0050879,0.0684347,20.9699,106.594,-0.0687689,0.0,0.0
432,107.75,33.4055,35.2948,131.958,104.081,105.034,0.00500603,0.0680178,20.9701,106.584,-0.0823358,0.0,0.0
434,108.25,33.5671,35.4938,131.115,104.089,104.966,0.00490796,0.0675635,20.9706,106.604,-0.0757435,0.0,0.0
436,108.75,32.9073,35.2871,136.343,104.112,104.912,0.00479994,0.0673699,20.9711,106.594,-0.069072,0.0,0.0
438,109.25,33.6654,35.1252,132.501,104.116,105.056,0.00468657,0.0668975,20.9723,106.544,-0.0811171,0.0,0.0
440,109.75,33.718,35.2645,133.73,104.135,104.879,0.00457144,0.0665762,20.9734,106.524,-0.064297,0.0,0.0
442,110.25,33.8658,35.2445,134.973,104.151,104.918,0.00447819,0.0660268,20.9744,106.474,-0.0662643,0.0,0.0
444,110.75,33.7478,35.2853,133.972,104.168,104.864,0.00437072,0.0654021,20.9755,106.434,-0.0601481,0.0,0.0
446,111.25,33.1279,35.5788,134.594,104.168,104.849,0.00428367,0.0647344,20.9763,106.444,-0.0588115,0.0,0.0
448,111.75,33.1013,35.1649,134.92,104.191,104.623,0.00420994,0.0641001,20.977,106.504,-0.0373408,0.0,0.0
450,112.25,32.853,34.8552,134.994,104.198,104.71,0.0041473,0.0635024,20.9776,106.464,-0.0442999,0.0,0.0
452,112.75,33.1534,34.7751,133.018,104.217,104.91,0.00409657,0.0630182,20.9782,106.484,-0.0598268,0.0,0.0
454,113.25,33.6577,35.3823,133.878,104.219,105.13,0.00405547,0.0624486,20.979,106.394,-0.078564,0.0,0.0
456,113.75,33.0713,34.7369,134.255,104.245,104.727,0.00402218,0.0619872,20.9796,106.384,-0.0416193,0.0,0.0
458,114.25,33.4974,35.4676,134.077,104.249,104.489,0.00397804,0.0614498,20.9801,106.354,-0.0207541,0.0,0.0
460,114.75,33.3016,35.7209,132.371,104.271,105.37,0.00394229,0.0610146,20.9805,106.334,-0.0947118,0.0,0.0
462,115.25,33.0539,34.8842,136.245,104.278,104.728,0.00387164,0.060662,20.9809,106.334,-0.0388866,0.0,0.0
464,115.75,33.0602,34.681,131.405,104.301,105.137,0.00381441,0.0601583,20.9816,106.334,-0.0720711,0.0,0.0
466,116.25,32.5276,34.8573,132.808,104.313,105.137,0.0037154,0.0597503,20.9826,106.344,-0.0710105,0.0,0.0
468,116.75,32.7709,34.9742,136.572,104.342,105.495,0.0036352,0.0592426,20.9834,106.314,-0.0992788,0.0,0.0
470,117.25,32.894,34.8339,130.364,104.327,104.713,0.003514,0.0588314,20.984,106.264,-0.033383,0.0,0.0
472,117.75,32.7455,34.5972,133.402,104.351,104.999,0.00341582,0.0583212,20.9848,106.224,-0.0558803,0.0,0.0
474,118.25,32.6528,34.8142,132.82,104.357,105.091,0.00330931,0.057908,20.9856,106.204,-0.0632493,0.0,0.0
476,118.75,32.2245,34.6803,134.051,104.377,104.859,0.00319874,0.0574234,20.9863,106.204,-0.0416296,0.0,0.0
478,119.25,33.1704,34.9915,132.116,104.37,105.477,0.00310918,0.057031,20.9868,106.194,-0.095223,0.0,0.0
480,119.75,32.8551,34.9672,135.279,104.398,105.595,0.00301346,0.0566041,20.9873,106.194,-0.102945,0.0,0.0
482,120.25,33.1571,35.1952,140.707,104.406,104.826,0.00293593,0.0562584,20.9876,106.164,-0.0361968,0.0,0.0
484,120.75,32.9034,34.9286,133.439,104.417,104.84,0.00286992,0.0557742,20.9879,106.174,-0.0365021,0.0,0.0
486,121.25,33.1709,35.2973,136.429,104.432,105.088,0.00281357,0.055382,20.9881,106.114,-0.0564993,0.0,0.0
488,121.75,33.1562,34.8217,132.686,104.45,105.754,0.00276792,0.0549498,20.9883,106.114,-0.111994,0.0,0.0
490,122.25,32.6226,34.6782,132.535,104.465,104.986,0.00270779,0.0544965,20.9885,106.104,-0.0448786,0.0,0.0
492,122.75,32.7984,34.9031,139.389,104.48,105.783,0.00265908,0.0541294,20.9891,106.054,-0.11185,0.0,0.0
494,123.25,32.721,34.3887,134.702,104.475,104.766,0.00257458,0.053696,20.99,105.994,-0.0251737,0.0,0.0
496,123.75,32.6195,35.1689,134.168,104.505,105.444,0.00250613,0.0532226,20.9907,106.014,-0.0807891,0.0,0.0
498,124.25,32.5324,35.0356,135.039,104.52,105.118,0.00238989,0.0527605,20.9912,105.994,-0.0515652,0.0,0.0
500,124.75,32.7085,34.6037,135.404,104.531,105.411,0.00229574,0.0523153,20.9919,105.974,-0.0756301,0.0,0.0
502,125.25,32.5557,34.3494,132.723,104.54,105.008,0.00219328,0.0519547,20.9927,105.964,-0.0403212,0.0,0.0
504,125.75,32.9976,34.5796,129.476,104.551,105.073,0.00208671,0.0515267,20.9933,105.954,-0.0449105,0.0,0.0
506,126.25,32.4496,34.215,134.861,104.565,105.056,0.00200039,0.0511801,20.9939,105.954,-0.0422519,0.0,0.0
508,126.75,32.6353,34.4559,135.568,104.578,104.829,0.00189287,0.0507498,20.9943,105.944,-0.0216976,0.0,0.0
510,127.25,32.4533,34.5692,135.549,104.589,105.103,0.00180579,0.0504013,20.9948,105.884,-0.0442523,0.0,0.0
512,127.75,31.9573,34.5844,134.21,104.6,105.268,0.00172951,0.0500376,20.9955,105.874,-0.0574308,0.0,0.0
514,128.25,32.1941,34.0424,132.562,104.61,105.601,0.00166256,0.0497429,20.996,105.854,-0.0851382,0.0,0.0
516,128.75,32.2556,34.8554,134.98,104.633,105.068,0.00160833,0.0494399,20.9965,105.854,-0.03743,0.0,0.0
518,129.25,32.4454,34.0612,133.148,104.648,105.246,0.00156632,0.0491366,20.9968,105.864,-0.0513785,0.0,0.0
520,129.75,32.2178,34.7039,132.317,104.645,105.789,0.00153401,0.0488909,20.9971,105.823,-0.0981062,0.0,0.0
522,130.25,31.6312,34.3927,144.025,104.669,104.913,0.00150784,0.0485018,20.9968,105.793,-0.0210638,0.0,0.0
524,130.75,32.7852,34.592,134.03,104.675,105.211,0.00148664,0.0481867,20.9965,105.763,-0.0460967,0.0,0.0
526,131.25,32.6019,33.9969,134.088,104.69,105.655,0.00146947,0.0478228,20.9967,105.733,-0.0828344,0.0,0.0
528,131.75,31.927,34.3608,135.288,104.71,105.699,0.00143255,0.0475281,20.9969,105.713,-0.0848617,0.0,0.0
530,132.25,32.4116,33.638,135.832,104.72,104.993,0.00140264,0.0472894,20.997,105.693,-0.0234549,0.0,0.0
532,132.75,31.8322,34.2579,136.426,104.724,105.47,0.0013593,0.0470532,20.9972,105.693,-0.0640775,0.0,0.0
534,133.25,31.9731,34.1183,141.107,104.755,105.746,0.001307,0.0468233,20.9973,105.703,-0.0850561,0.0,0.0
536,133.75,32.2817,34.8993,135.09,104.74,105.235,0.00126464,0.0465943,20.9973,105.713,-0.0425801,0.0,0.0
538,134.25,32.2961,34.0289,133.598,104.771,105.228,0.00120734,0.0463702,20.9974,105.733,-0.0392801,0.0,0.0
540,134.75,32.0106,34.2256,136.417,104.781,105.337,0.00116094,0.0461886,20.9974,105.703,-0.0478382,0.0,0.0
542,135.25,31.7676,33.8798,135.439,104.79,105.315,0.00112462,0.0459602,20.9975,105.673,-0.0450668,0.0,0.0
544,135.75,31.8844,34.0189,134.566,104.793,105.736,0.00109635,0.0457752,20.9975,105.623,-0.0808998,0.0,0.0
546,136.25,32.3089,34.4924,134.029,104.812,105.308,0.00107917,0.0455611,20.9975,105.653,-0.042645,0.0,0.0
548,136.75,32.5571,33.9016,135.835,104.829,105.828,0.00107042,0.0453298,20.9976,105.623,-0.0856332,0.0,0.0
550,137.25,32.2591,34.6778,137.818,104.844,105.267,0.00106779,0.0451425,20.9976,105.633,-0.0363675,0.0,0.0
552,137.75,31.9792,34.09,137.519,104.86,105.162,0.00106966,0.044923,20.9976,105.633,-0.0259909,0.0,0.0
554,138.25,32.4559,33.9548,138.753,104.872,105.443,0.00107182,0.0447452,20.9976,105.613,-0.0489653,0.0,0.0
556,138.75,32.4613,34.095,135.249,104.878,105.906,0.00107414,0.0446011,20.9976,105.603,-0.0880692,0.0,0.0
558,139.25,32.3106,33.6147,136.238,104.907,106.371,0.00107092,0.0444845,20.9976,105.563,-0.12512,0.0,0.0
560,139.75,32.0441,34.2161,136.212,104.918,105.997,0.00106374,0.0444114,20.9976,105.553,-0.0923843,0.0,0.0
562,140.25,31.3759,33.6505,135.751,104.93,105.137,0.00105792,0.0443714,20.9976,105.513,-0.0177737,0.0,0.0
564,140.75,31.7309,33.6049,135.506,104.93,105.251,0.00104238,0.0443391,20.9976,105.493,-0.0275806,0.0,0.0
566,141.25,31.8601,33.3852,133.295,104.95,105.311,0.00102007,0.0443129,20.9976,105.503,-0.0310702,0.0,0.0
568,141.75,32.2963,33.4927,136.199,104.957,105.355,0.00100199,0.0442631,20.9977,105.533,-0.0341642,0.0,0.0
570,142.25,32.461,33.4174,132.424,104.983,105.662,0.000970427,0.0441971,20.9977,105.513,-0.0582195,0.0,0.0
572,142.75,31.8241,33.7734,134.004,104.997,105.541,0.000944863,0.0441437,20.9977,105.483,-0.0467286,0.0,0.0
574,143.25,32.051,34.0254,135.126,105.013,105.234,0.000897586,0.0440868,20.9977,105.463,-0.0189693,0.0,0.0
576,143.75,32.1102,33.5841,137.942,105.014,105.099,0.000859292,0.0440407,20.9977,105.423,-0.00731006,0.0,0.0
578,144.25,32.294,33.8216,135.732,105.035,105.926,0.000801724,0.0439963,20.9977,105.403,-0.0762716,0.0,0.0
580,144.75,32.017,33.8518,133.873,105.049,105.69,0.000755094,0.0439539,20.9977,105.383,-0.0548909,0.0,0.0
582,145.25,32.007,33.6937,135.283,105.066,105.333,0.000695615,0.0439052,20.9977,105.393,-0.0229342,0.0,0.0
584,145.75,32.4288,33.5621,135.503,105.082,105.858,0.000670258,0.043853,20.9977,105.403,-0.0664638,0.0,0.0
586,146.25,32.3609,34.1655,135.132,105.092,105.743,0.000618651,0.0438107,20.9977,105.393,-0.0557649,0.0,0.0
588,146.75,31.747,33.7729,135.517,105.083,105.577,0.000569426,0.0437357,20.9977,105.393,-0.0423357,0.0,0.0
590,147.25,31.5546,33.3006,137.487,105.106,105.456,0.000512555,0.043675,20.9977,105.333,-0.030035,0.0,0.0
592,147.75,31.7967,33.8851,134.143,105.11,105.865,0.000482283,0.0436259,20.9977,105.313,-0.0646699,0.0,0.0
594,148.25,31.9367,33.8453,135.625,105.133,105.433,0.000469378,0.043586,20.9977,105.313,-0.0257393,0.0,0.0
596,148.75,31.8559,33.1982,132.246,105.134,105.168,0.000458095,0.0435619,20.9977,105.293,-0.00289058,0.0,0.0
598,149.25,31.8948,33.6506,132.907,105.151,105.653,0.000458663,0.0435207,20.9977,105.273,-0.0430452,0.0,0.0
600,149.75,32.0066,33.3623,134.434,105.16,105.668,0.000472455,0.0434659,20.9977,105.263,-0.0435286,0.0,0.0
602,150.25,31.5997,33.696,135.344,105.175,106.131,0.000495624,0.0433751,20.9977,105.263,-0.0817155,0.0,0.0
604,150.75,32.2081,33.9516,133.934,105.174,105.947,0.000521379,0.0433287,20.9981,105.203,-0.0661298,0.0,0.0
606,151.25,31.8915,33.4241,136.142,105.199,105.702,0.000548528,0.0433018,20.9984,105.213,-0.0430117,0.0,0.0
608,151.75,31.8049,33.4725,136.086,105.197,105.882,0.000570519,0.0432557,20.9987,105.203,-0.0586041,0.0,0.0
610,152.25,31.991,33.8546,132.654,105.222,106.018,0.000588332,0.0432456,20.999,105.213,-0.0680411,0.0,0.0
612,152.75,32.3546,33.6948,132.479,105.215,105.809,0.000616041,0.0432373,20.9992,105.223,-0.0508237,0.0,0.0
614,153.25,32.1676,33.4512,133.353,105.227,105.948,0.000638484,0.0432378,20.9993,105.233,-0.0617167,0.0,0.0
616,153.75,31.5208,34.001,134.088,105.237,106.177,0.000657299,0.0432446,21.0002,105.223,-0.0803775,0.0,0.0
618,154.25,31.6413,33.4441,142.041,105.25,105.853,,0.0432501,,105.213,-0.051549,0.0,0.0
620,154.75,31.8887,32.9072,135.413,105.248,106.065,,0.0432545,,105.233,-0.0697971,0.0,0.0
622,155.25,31.5763,33.7373,133.482,105.271,105.527,,0.0432582,,105.183,-0.0218956,0.0,0.0
624,155.75,31.501,33.409,134,105.272,106.086,,0.0432611,,105.173,-0.0696084,0.0,0.0
626,156.25,31.8715,33.6813,136.036,105.282,105.802,,0.0432228,,105.123,-0.0444583,0.0,0.0
628,156.75,32.2918,33.4777,134.606,105.286,105.755,,0.0431918,,105.123,-0.0400823,0.0,0.0
630,157.25,31.9572,33.0896,133.108,105.305,106.488,,,,105.113,-0.100822,0.0,0.0
632,157.75,32.2039,34.4011,133.202,105.301,106.213,,,,105.103,-0.0779071,0.0,0.0
634,158.25,31.5005,33.5208,135.677,105.307,105.489,,,,105.083,-0.0155926,0.0,0.0
636,158.75,31.3746,33.3982,131.661,105.311,105.649,,,,105.093,-0.0289481,0.0,0.0
638,159.25,32.1246,33.4186,137.792,105.333,106.334,,,,105.073,-0.085381,0.0,0.0
640,159.75,31.8809,32.769,137.568,105.326,105.847,,,,105.033,-0.0446179,0.0,0.0
642,160.25,31.8427,33.3515,132.916,105.34,106.207,,,,105.003,-0.0739435,0.0,0.0
644,160.75,31.5045,33.4769,133.446,105.335,105.924,,,,105.023,-0.0503529,0.0,0.0
646,161.25,32.0755,33.7248,132.171,105.345,106.043,,,,105.003,-0.0596588,0.0,0.0
648,161.75,31.7235,33.5366,135.511,105.355,106.305,,,,105.013,-0.081066,0.0,0.0
650,162.25,32.0517,33.8238,138.183,105.371,106.007,,,,104.973,-0.0543305,0.0,0.0
652,162.75,31.758,33.4227,132.891,105.365,105.681,,,,104.983,-0.0270407,0.0,0.0
654,163.25,31.7404,33.2598,133.235,105.373,105.793,,,,104.913,-0.0359444,0.0,0.0
656,163.75,32.0222,33.7764,133.038,105.371,105.527,,,,104.883,-0.0133108,0.0,0.0
658,164.25,32.2488,33.0347,135.167,105.389,106.426,,,,104.873,-0.0884241,0.0,0.0
660,164.75,32.0158,33.3684,134.938,105.385,105.999,,,,104.913,-0.0524947,0.0,0.0
661,165,31.9628,33.4414,134.515,105.398,105.867,,,,104.903,-0.0400752,0.0,0.0