File: 01_Data/Lightweight_Gypsum_Wallboard/Cone/Lightweight_Gypsum_Wallboard_Cone_HF25Scan_220506_R2.csv
Names,Time,Stack TC,Smoke TC,Exh Press,Smoke Comp,Smoke Meas,CO Meter,CO2 Meter,O2 Meter,Sample Mass,Ext Coeff,Start Test,Flame Verif
Chan Gain,,500,500,1,1,1,1,1,1,1,1,1.0,1.0
Offset,,0,0,0.135316,0,0,0,0,0,0,0,0.0,0.0
Gain,,1,1,25.011,13.8443,15.4071,1,1,1,1.00079,1.02936,1.0,1.0
Units,sec,C,C,Pa,%,%,%,%,%,g,/m,,
Baseline,,18.2578,18.7871,142.135,104.634,103.652,2.21041e-05,0.0449432,21.0016,-446.387,0.0851273,,
3,0.5,18.4929,18.6876,142.097,104.478,103.558,0.000197071,0.050325,20.9971,114.13,0.079911,0.0,0.0
6,1.25,17.2468,17.9571,141.731,104.455,103.522,0.00019999,0.0499614,20.9978,114.11,0.0810547,0.0,0.0
9,2,17.3425,18.2869,141.558,104.459,103.489,0.000197048,0.0496248,20.9984,114.05,0.0842182,0.0,0.0
12,2.75,17.2179,17.8932,149.136,104.455,103.482,0.000186234,0.0492572,20.9988,114.03,0.0844634,0.0,0.0
15,3.5,17.16,18.1487,141.417,104.444,103.526,0.000157752,0.0488343,20.9995,114.1,0.0797403,0.0,0.0
18,4.25,17.1552,18.2488,142.642,104.453,103.473,0.000130971,0.048526,21.0002,114.07,0.0851022,0.0,0.0
21,5,17.2066,18.0461,141.877,104.453,103.437,0.000107617,0.0482044,21.0008,114.06,0.0882984,0.0,0.0
24,5.75,17.2003,17.7723,137.508,104.45,103.569,8.84266e-05,0.0479157,21.0005,114.06,0.076476,0.0,0.0
27,6.5,17.3119,17.9994,138.302,104.435,103.512,6.58578e-05,0.0477035,21.0004,114.05,0.0801991,0.0,0.0
30,7.25,17.5278,17.9978,141.791,104.443,103.481,4.18086e-05,0.0475854,21.0002,114.04,0.0834866,0.0,0.0
33,8,17.6574,17.4551,138.794,104.442,103.523,1.12868e-05,0.0476216,21.0001,114.04,0.0798,0.0,0.0
36,8.75,16.9957,18.0849,143.978,104.446,103.691,-1.91935e-05,0.0477643,21.0001,114.03,0.0655764,0.0,0.0
39,9.5,17.2911,18.12,141.381,104.436,103.567,-5.54865e-05,0.0479784,21,114.01,0.0754748,0.0,0.0
42,10.25,17.6158,17.9139,137.412,104.441,103.673,-9.22374e-05,0.0483088,20.9995,114.01,0.0666214,0.0,0.0
45,11,17.0471,17.4184,140.903,104.445,103.397,-0.000119029,0.0485712,20.999,114,0.0910523,0.0,0.0
48,11.75,17.6064,18.1144,141.4,104.441,103.459,-0.00013856,0.0487991,20.9986,114.01,0.0853474,0.0,0.0
51,12.5,17.605,18.3334,142.678,104.444,103.547,-0.000147651,0.0489516,20.9983,113.99,0.0778954,0.0,0.0
54,13.25,17.2998,18.1013,136.842,104.425,103.531,-0.000147062,0.0490356,20.9981,113.99,0.0776051,0.0,0.0
57,14,17.4511,18.5095,144.715,104.432,103.425,-0.000143556,0.0490602,20.998,113.97,0.0874978,0.0,0.0
60,14.75,17.0492,17.6699,140.348,104.434,103.537,-0.000141,0.0490373,20.9982,113.97,0.0779157,0.0,0.0
63,15.5,17.6411,17.8509,142.247,104.433,103.377,-0.000139137,0.0489747,20.9988,113.95,0.0917587,0.0,0.0
66,16.25,17.6596,18.4594,139.298,104.43,103.311,-0.000126954,0.0488801,20.9993,113.96,0.0972594,0.0,0.0
69,17,17.2541,17.6617,143.406,104.434,103.338,-0.000105227,0.0487254,20.9996,113.97,0.0952369,0.0,0.0
72,17.75,17.474,17.985,143.912,104.424,103.545,-7.5316e-05,0.048466,20.9999,113.97,0.0763383,0.0,0.0
75,18.5,17.2051,18.3227,142.731,104.424,103.519,-4.38865e-05,0.0481954,21,113.98,0.0785943,0.0,0.0
78,19.25,17.9012,17.9012,139.06,104.421,103.466,-1.56049e-05,0.0479634,21.0002,113.98,0.0829,0.0,0.0
81,20,17.7769,17.8027,142.501,104.432,103.614,7.17828e-06,0.0477168,21.0009,113.96,0.0710161,0.0,0.0
84,20.75,17.4281,18.0958,142.19,104.428,103.475,2.20704e-05,0.0474799,21.0014,113.95,0.0828189,0.0,0.0
87,21.5,17.1305,18.4171,140.552,104.422,103.441,2.33032e-05,0.0472095,21.0018,113.94,0.0853037,0.0,0.0
90,22.25,17.6554,18.0402,142.91,104.424,103.382,2.00991e-05,0.0469156,21.0021,113.92,0.0905813,0.0,0.0
93,23,17.0594,17.7059,138.928,104.433,103.626,1.20659e-05,0.0466471,21.0023,113.91,0.0700228,0.0,0.0
96,23.75,17.64,18.2847,141.843,104.427,103.433,-3.53287e-06,0.0464139,21.0024,113.89,0.0863976,0.0,0.0
99,24.5,17.6634,17.9736,140.473,104.435,103.59,-1.66206e-05,0.0462195,21.0025,113.89,0.0733567,0.0,0.0
102,25.25,17.4621,18.4505,140.962,104.43,103.495,-1.89448e-05,0.046042,21.0026,113.87,0.0811645,0.0,0.0
105,26,18.0283,18.2594,138.324,104.437,103.47,-8.69803e-06,0.0458516,21.0027,113.86,0.0839963,0.0,0.0
108,26.75,17.3216,18.4135,138.85,104.434,103.522,1.39303e-05,0.0456721,21.0027,113.86,0.0791513,0.0,0.0
111,27.5,17.2482,18.2807,143.276,104.431,103.488,5.7893e-05,0.0455097,21.0027,113.85,0.0818483,0.0,0.0
114,28.25,17.3848,18.133,142.444,104.425,103.422,9.81811e-05,0.0453668,21.0028,113.84,0.0871599,0.0,0.0
117,29,17.8758,18.2894,138.959,104.42,103.505,0.00014164,0.0452433,21.0028,113.81,0.0794991,0.0,0.0
120,29.75,17.0956,17.8774,139.176,104.423,103.434,0.000169519,0.0451533,21.0028,113.81,0.0859146,0.0,0.0
123,30.5,17.7408,17.9522,145.249,104.414,103.413,0.000183339,0.0450877,21.0028,113.79,0.0869946,0.0,0.0
126,31.25,17.2995,18.4082,139.786,104.421,103.582,0.000172807,0.0449818,21.0028,113.79,0.0728528,0.0,0.0
129,32,18.1887,18.1142,137.124,104.429,103.481,0.000154318,0.0448974,21.0028,113.78,0.0823592,0.0,0.0
132,32.75,17.6332,18.4741,144.292,104.426,103.42,0.000122354,0.0448238,21.0028,113.75,0.0873965,0.0,0.0
135,33.5,17.8211,18.367,146.053,104.425,103.498,9.04734e-05,0.0448107,21.003,113.75,0.0805116,0.0,0.0
138,34.25,17.6463,17.9519,139.911,104.419,103.452,7.56534e-05,0.0448115,21.0034,113.72,0.0840209,0.0,0.0
141,35,17.7829,18.6115,142.982,104.413,103.338,8.11086e-05,0.0447998,21.0041,113.74,0.0934932,0.0,0.0
144,35.75,17.6677,17.9323,145.152,104.42,103.467,0.000106749,0.0446971,21.0046,113.71,0.0827816,0.0,0.0
147,36.5,17.2844,18.0403,140.175,104.43,103.496,0.000143192,0.044582,21.005,113.7,0.0811965,0.0,0.0
150,37.25,17.8716,18.273,139.635,104.422,103.638,0.000200112,0.0444982,21.0052,113.67,0.0680819,0.0,0.0
153,38,17.5006,18.0861,143.17,104.435,103.576,0.00024351,0.0444564,21.0054,113.65,0.0745087,0.0,0.0
156,38.75,17.8597,18.4663,140.762,104.426,103.418,0.000278402,0.0444188,21.0054,113.65,0.0876023,0.0,0.0
159,39.5,18.1061,18.2581,140.101,104.423,103.44,0.000299017,0.0443791,21.0053,113.64,0.085422,0.0,0.0
162,40.25,18.1171,18.2311,140.33,104.416,103.632,0.000306917,0.0443503,21.0052,113.63,0.0681022,0.0,0.0
165,41,17.5275,18.6816,143.342,104.413,103.497,0.000295126,0.0444066,21.0052,113.61,0.0795397,0.0,0.0
168,41.75,17.495,17.6623,139.577,104.422,103.688,0.000271355,0.0444476,21.0046,113.61,0.063704,0.0,0.0
171,42.5,17.4589,18.1965,140.68,104.426,103.527,0.000237171,0.0444776,21.0041,113.59,0.0780426,0.0,0.0
174,43.25,17.4008,17.9621,141.452,104.42,103.316,0.000205066,0.044422,21.0037,113.59,0.0959676,0.0,0.0
177,44,17.79,18.7417,138.757,104.402,103.418,0.000181744,0.0443544,21.0034,113.58,0.0854423,0.0,0.0
180,44.75,18.031,18.3731,137.498,104.41,103.465,0.000164143,0.0443007,21.003,113.57,0.0820691,0.0,0.0
183,45.5,17.4832,18.1932,138.795,104.416,103.392,0.000150229,0.0442737,21.0027,113.55,0.088988,0.0,0.0
186,46.25,18.1306,18.1261,145.703,104.404,103.496,0.000130459,0.0442669,21.0025,113.53,0.0788952,0.0,0.0
189,47,17.8709,18.5125,142.445,104.408,103.532,9.8709e-05,0.0442674,21.0024,113.52,0.0761387,0.0,0.0
192,47.75,17.5809,18.1238,143.002,104.409,103.384,6.99222e-05,0.0442949,21.0023,113.5,0.0890615,0.0,0.0
195,48.5,17.4554,17.9786,142.262,104.399,103.471,4.89367e-05,0.0443193,21.0022,113.49,0.0806311,0.0,0.0
198,49.25,18.3115,18.3829,141.969,104.403,103.531,4.92783e-05,0.0443249,21.0021,113.49,0.075668,0.0,0.0
201,50,17.801,18.4092,144.77,104.417,103.625,5.6195e-05,0.0443677,21.0021,113.47,0.0687538,0.0,0.0
204,50.75,17.4418,18.158,143.255,104.395,103.44,8.16981e-05,0.0444532,21.0021,113.439,0.0830066,0.0,0.0
207,51.5,18.0273,18.5381,142.361,104.399,103.401,0.000110914,0.0445457,21.002,113.439,0.086742,0.0,0.0
210,52.25,18.124,18.6394,141.055,104.401,103.408,0.000135464,0.0446254,21.002,113.429,0.0862718,0.0,0.0
213,53,17.6847,18.4845,143.309,104.393,103.398,0.000152156,0.0446835,21.002,113.419,0.0864403,0.0,0.0
216,53.75,17.4247,18.2565,144.984,104.394,103.497,0.000163178,0.0447258,21.002,113.389,0.0778911,0.0,0.0
219,54.5,17.6657,18.3894,141.496,104.401,103.366,0.000170129,0.0447296,21.002,113.369,0.0899632,0.0,0.0
222,55.25,17.8973,18.1573,145.744,104.399,103.457,0.000176914,0.0447072,21.002,113.339,0.0818568,0.0,0.0
225,56,17.6483,18.6929,140.311,104.389,103.438,0.000186676,0.044685,21.002,113.349,0.0826579,0.0,0.0
228,56.75,17.6555,18.4599,139.42,104.388,103.386,0.000195847,0.0446109,21.002,113.339,0.0870693,0.0,0.0
231,57.5,17.7858,18.7983,140.852,104.39,103.5,0.000203736,0.0445297,21.002,113.329,0.0773202,0.0,0.0
234,58.25,17.6853,18.5018,141.601,104.391,103.417,0.000209367,0.0444661,21.002,113.329,0.0846159,0.0,0.0
237,59,18.1066,18.2327,141.97,104.406,103.488,0.000212389,0.044432,21.002,113.309,0.0797339,0.0,0.0
240,59.75,18.1391,18.1239,144.141,104.385,103.406,0.000216309,0.0444749,21.002,113.309,0.0850894,0.0,0.0
243,60.5,18.2348,18.4901,142.681,104.392,103.367,0.000219166,0.0445351,21.0026,113.299,0.0890775,0.0,0.0
246,61.25,17.8602,18.5048,142.631,104.387,103.48,0.000242933,0.0445983,21.0026,113.269,0.0788643,0.0,0.0
249,62,17.8362,18.575,142.583,104.395,103.563,0.000269502,0.0446037,21.0019,113.239,0.0722591,0.0,0.0
252,62.75,18.0559,18.1,144.567,104.378,103.39,0.000299185,0.0445903,21.0013,113.239,0.0858229,0.0,0.0
255,63.5,17.8299,18.6402,141.867,104.373,103.322,0.000329179,0.0445805,21.0009,113.229,0.0913805,0.0,0.0
258,64.25,17.7629,18.4395,143.031,104.371,103.659,0.000354607,0.044554,21.0007,113.209,0.0617799,0.0,0.0
261,65,17.8879,18.385,140.44,104.372,103.286,0.000380378,0.0445618,21.0005,113.199,0.0944317,0.0,0.0
264,65.75,18.632,18.5135,139.118,104.37,103.287,0.00040225,0.044572,21.0006,113.169,0.0941675,0.0,0.0
267,66.5,18.476,18.3453,140.034,104.368,103.298,0.000414754,0.0445672,21.0006,113.159,0.0930713,0.0,0.0
270,67.25,18.3043,18.7709,136.957,104.37,103.361,0.000415432,0.044564,21.0007,113.149,0.0877153,0.0,0.0
273,68,18.2341,19.0608,142.452,104.37,103.35,0.000401481,0.0445624,21.0007,113.129,0.0887332,0.0,0.0
276,68.75,18.1261,18.6931,141.123,104.365,103.321,0.000379078,0.0445748,21.0007,113.089,0.0908008,0.0,0.0
279,69.5,17.9836,18.2527,145.658,104.355,103.444,0.000344028,0.0445825,21.0007,113.099,0.0791684,0.0,0.0
282,70.25,17.9459,18.6468,142.038,104.364,103.189,0.000308722,0.0445759,21.0007,113.059,0.102209,0.0,0.0
285,71,17.6443,18.2252,144.173,104.364,103.281,0.000290676,0.0445711,21.0007,113.069,0.0941888,0.0,0.0
288,71.75,17.9943,18.7179,144.599,104.359,103.203,0.000266394,0.0446082,21.0007,113.039,0.10061,0.0,0.0
291,72.5,18.051,18.0008,143.377,104.355,103.307,0.00025953,0.0446662,21.0007,113.049,0.0911151,0.0,0.0
294,73.25,17.8748,18.5984,141.648,104.377,103.255,0.000259147,0.0447143,21.0007,113.019,0.0976193,0.0,0.0
297,74,17.8281,18.7524,140.521,104.366,103.219,0.000273406,0.044766,21.001,113.009,0.0997998,0.0,0.0
300,74.75,18.484,18.9338,143.415,104.361,103.205,0.000288731,0.0448257,21.0015,112.979,0.100554,0.0,0.0
303,75.5,17.9766,18.647,140.13,104.353,103.222,0.000297732,0.0448693,21.0017,112.989,0.0983784,0.0,0.0
306,76.25,17.7685,18.7506,142.294,104.365,103.079,0.00028984,0.0448875,21.0018,112.979,0.111987,0.0,0.0
309,77,18.0757,18.4999,144.509,104.361,103.038,0.000263474,0.0448949,21.0019,112.979,0.11517,0.0,0.0
312,77.75,18.1885,18.754,141.85,104.359,102.791,0.000238094,0.044938,21.002,112.969,0.136681,0.0,0.0
315,78.5,18.0018,18.9351,138.229,104.352,103.037,0.000201538,0.0449551,21.0018,112.939,0.114484,0.0,0.0
318,79.25,18.1109,18.5608,146.108,104.358,102.999,0.000165292,0.0449432,21.0013,112.909,0.11837,0.0,0.0
321,80,18.1618,18.5646,141.235,104.355,103.047,0.00013562,0.0449345,21.0009,112.909,0.113911,0.0,0.0
324,80.75,18.1628,18.4471,141.625,104.355,102.883,0.000117421,0.044996,21.0006,112.909,0.128261,0.0,0.0
327,81.5,18.2479,18.4105,142.853,104.34,102.856,0.000104788,0.0450697,21.0004,112.899,0.129302,0.0,0.0
330,82.25,17.7408,18.7442,140.001,104.364,102.865,9.66613e-05,0.0451041,21.0003,112.889,0.130642,0.0,0.0
333,83,18.2881,18.7107,144.591,104.366,102.786,0.000102752,0.0451078,21.0002,112.869,0.137762,0.0,0.0
336,83.75,17.8536,18.2444,143.545,104.385,102.722,0.000107192,0.0450738,20.9997,112.869,0.145062,0.0,0.0
339,84.5,18.2137,18.5117,137.328,104.413,102.755,0.000128808,0.0451265,20.9991,112.849,0.144504,0.0,0.0
342,85.25,18.356,18.5764,142.397,104.423,102.784,0.000175995,0.045172,21,112.829,0.14286,0.0,0.0
345,86,18.1186,19.0109,139.595,104.45,102.76,0.000234496,0.0452174,21.0007,112.839,0.147341,0.0,0.0
348,86.75,18.1228,18.5986,142.833,104.474,102.638,0.000288054,0.0452719,21.0012,112.819,0.160052,0.0,0.0
351,87.5,18.4532,18.6067,139.855,104.498,102.72,0.000328182,0.0453482,21.0015,112.779,0.154944,0.0,0.0
354,88.25,18.5959,18.7053,136.047,104.522,102.595,0.000351408,0.0453968,21.0018,112.789,0.168025,0.0,0.0
357,89,17.9405,18.1367,142.226,104.55,102.627,0.000365136,0.0454199,21.002,112.749,0.167693,0.0,0.0
360,89.75,18.1635,18.4295,138.287,104.569,102.618,0.000377865,0.045369,21.0021,112.719,0.170079,0.0,0.0
363,90.5,18.1683,18.6197,138.662,104.585,102.639,0.000393654,0.045303,21.0022,112.709,0.169573,0.0,0.0
366,91.25,18.5457,18.6187,144.001,104.602,102.503,0.000414811,0.0452548,21.0023,112.709,0.183025,0.0,0.0
369,92,18.2344,18.7923,141.689,104.644,102.712,0.000434346,0.0453358,21.0023,112.649,0.168305,0.0,0.0
372,92.75,18.5243,19.6379,141.787,104.656,102.654,0.000449793,0.0454762,21.0024,112.619,0.17437,0.0,0.0
375,93.5,18.4967,18.9602,144.557,104.668,102.671,0.000461568,0.0456348,21.0024,112.599,0.173901,0.0,0.0
378,94.25,18.3443,18.8383,139.89,104.683,102.727,0.000470152,0.045787,21.0024,112.569,0.170299,0.0,0.0
381,95,18.5973,18.9681,137.819,104.716,102.644,0.000485255,0.0458843,21.0024,112.569,0.18046,0.0,0.0
384,95.75,18.3776,19.2605,138.527,104.731,102.589,0.000511391,0.0459495,21.0024,112.559,0.18657,0.0,0.0
387,96.5,18.4388,18.8066,143.661,104.736,102.473,0.000551099,0.0460106,21.0022,112.549,0.197235,0.0,0.0
390,97.25,18.6812,19.0458,140.656,104.757,102.485,0.000580047,0.0460681,21.0019,112.529,0.197979,0.0,0.0
393,98,18.1604,18.9614,140.509,104.762,102.163,0.000603055,0.0461222,21.0016,112.539,0.226874,0.0,0.0
396,98.75,18.4985,19.2431,143.751,104.784,102.278,0.000623089,0.0461624,21.0015,112.539,0.218596,0.0,0.0
399,99.5,18.3743,18.6935,143.482,104.806,102.306,0.000652181,0.0462063,21.0014,112.529,0.217999,0.0,0.0
402,100.25,18.2291,19.1182,141.564,104.825,102.374,0.000688466,0.0462628,21.0013,112.509,0.213586,0.0,0.0
405,101,18.4021,18.6604,140.908,104.848,102.196,0.000717682,0.0462652,21.0012,112.509,0.231277,0.0,0.0
408,101.75,18.0492,19.0463,140.462,104.86,102.1,0.000761103,0.046267,21.0014,112.449,0.240847,0.0,0.0
411,102.5,18.391,18.8758,141.194,104.872,102.183,0.000796878,0.0462683,21.0019,112.449,0.234591,0.0,0.0
414,103.25,18.2602,18.8348,142.061,104.878,102.505,0.000831577,0.0463371,21.0023,112.419,0.206649,0.0,0.0
417,104,18.38,18.9468,139.691,104.899,102.552,0.000856873,0.0463925,21.0026,112.439,0.204362,0.0,0.0
420,104.75,18.8476,19.7545,143.576,104.907,102.28,0.000875314,0.0465146,21.0028,112.339,0.229056,0.0,0.0
423,105.5,18.1785,18.9962,145.333,104.929,102.752,0.000874967,0.0466172,21.0029,112.329,0.189289,0.0,0.0
426,106.25,18.4074,19.0639,142.633,104.939,102.16,0.000874714,0.0466978,21.003,112.299,0.242332,0.0,0.0
429,107,18.5876,19.083,143.454,104.953,102.563,0.000841792,0.0467566,21.0031,112.299,0.207986,0.0,0.0
432,107.75,18.6474,19.0456,139.824,104.983,102.385,0.000817792,0.0468265,21.0027,112.259,0.226265,0.0,0.0
435,108.5,18.0883,19.017,141.8,104.981,102.065,0.000788222,0.0468891,21.0021,112.249,0.254407,0.0,0.0
438,109.25,18.5662,19.0449,140.024,105.001,102.453,0.000771406,0.0469348,21.0016,112.209,0.221826,0.0,0.0
441,110,18.6104,18.9736,139.269,105.01,102.336,0.000754424,0.046968,21.0011,112.178,0.232949,0.0,0.0
444,110.75,18.5211,19.53,139.94,105.026,102.475,0.000767883,0.0470066,21.0007,112.158,0.222017,0.0,0.0
447,111.5,18.4086,19.1305,145.141,105.039,102.323,0.000800653,0.0470591,21.0003,112.178,0.236576,0.0,0.0
450,112.25,18.7691,19.0319,142.139,105.043,102.497,0.000843874,0.0470995,21.0001,112.168,0.2216,0.0,0.0
453,113,18.6975,19.129,140.981,105.045,102.025,0.000891704,0.0471598,21,112.158,0.26335,0.0,0.0
456,113.75,19.0168,19.7398,142.761,105.069,102.401,0.000926572,0.0472238,20.9998,112.128,0.232227,0.0,0.0
459,114.5,18.9991,19.183,135.993,105.08,102.005,0.000998584,0.0472949,20.9998,112.098,0.268153,0.0,0.0
462,115.25,18.659,19.285,141.03,105.074,102.448,0.00106255,0.0473603,20.9997,112.078,0.22856,0.0,0.0
465,116,18.7388,19.1597,141.701,105.087,102.067,0.0011288,0.0474138,20.9997,112.038,0.263321,0.0,0.0
468,116.75,18.4234,19.3503,145.988,105.106,102.235,0.00120658,0.0475303,20.9996,112.008,0.250069,0.0,0.0
471,117.5,18.5164,19.4099,142.239,105.108,101.996,0.00126583,0.0476294,20.9994,111.998,0.271418,0.0,0.0
474,118.25,18.3684,19.0751,142.127,105.122,101.929,0.00131339,0.0477262,20.9992,111.998,0.278565,0.0,0.0
477,119,19.1484,19.3414,138.848,105.121,101.93,0.0013446,0.0478103,20.999,111.968,0.278336,0.0,0.0
480,119.75,19.0382,19.4802,141.561,105.137,102.568,0.00136736,0.0478841,20.9989,111.948,0.223365,0.0,0.0
483,120.5,18.1284,19.3622,142.197,105.154,102.162,0.00138395,0.0479495,20.9989,111.958,0.260692,0.0,0.0
486,121.25,18.5356,18.8609,139.966,105.144,102.093,0.00140697,0.0480359,20.9988,111.928,0.265927,0.0,0.0
489,122,18.8075,18.888,137.483,105.157,101.898,0.0014425,0.0481261,20.9988,111.888,0.284248,0.0,0.0
492,122.75,18.8803,19.0186,146.827,105.146,102.057,0.00148369,0.0482034,20.9988,111.868,0.269233,0.0,0.0
495,123.5,18.7175,19.2204,140.006,105.164,101.609,0.00153794,0.0482985,20.9987,111.838,0.310488,0.0,0.0
498,124.25,18.5616,19.4217,142.471,105.181,101.932,0.00157876,0.0483471,20.9987,111.818,0.283316,0.0,0.0
501,125,18.5985,19.1486,141.149,105.17,101.908,0.00161071,0.0484807,20.9987,111.808,0.284462,0.0,0.0
504,125.75,18.5412,19.2645,143.236,105.179,101.978,0.00161496,0.0486189,20.9987,111.768,0.279095,0.0,0.0
507,126.5,18.1109,19.0776,139.898,105.18,101.666,0.00161742,0.048737,20.9987,111.768,0.306771,0.0,0.0
510,127.25,18.5234,18.762,145.876,105.185,101.722,0.00161813,0.0488812,20.9987,111.718,0.30228,0.0,0.0
513,128,19.0207,19.9031,139.944,105.189,101.647,0.00163269,0.0489999,20.9987,111.708,0.309244,0.0,0.0
516,128.75,18.7259,19.0009,141.533,105.182,101.792,0.00166733,0.049128,20.9985,111.678,0.295774,0.0,0.0
519,129.5,18.2406,19.3363,141.416,105.1875,101.483,0.00172897,0.0492825,20.9979,111.648,0.323725,0.0,0.0
522,130.25,19.072,19.1267,141.055,105.188,101.556,0.0017739,0.0493809,20.9975,111.618,0.317321,0.0,0.0
525,131,18.667,18.9542,142.777,105.19,101.719,0.00186733,0.0494281,20.9972,111.598,0.303008,0.0,0.0
528,131.75,19.2099,19.4089,143.891,105.174,101.836,0.00195722,0.0495305,20.9972,111.558,0.291278,0.0,0.0
531,132.5,18.643,19.105,143.003,105.1875,101.219,0.00205999,0.0496699,20.9968,111.518,0.347225,0.0,0.0
534,133.25,18.5554,19.6721,143.749,105.18,101.763,0.00219921,0.0498326,20.9963,111.478,0.298208,0.0,0.0
537,134,18.4006,19.1786,141.149,105.179,101.147,0.00236508,0.0500156,20.9959,111.448,0.352882,0.0,0.0
540,134.75,18.7952,19.1051,145.926,105.173,101.605,0.00248599,0.0502591,20.9957,111.418,0.311662,0.0,0.0
543,135.5,18.9617,19.2792,138.127,105.173,101.17,0.00262789,0.0505336,20.9955,111.398,0.350396,0.0,0.0
546,136.25,19.2431,19.6259,139.531,105.161,101.143,0.00275617,0.0507881,20.9953,111.378,0.351737,0.0,0.0
549,137,19.0033,19.5395,140.012,105.162,101.052,0.002853,0.0509968,20.9952,111.348,0.359956,0.0,0.0
552,137.75,18.5607,19.7199,140.28,105.147,100.683,0.00291127,0.0512305,20.9951,111.328,0.391763,0.0,0.0
555,138.5,18.5607,19.5954,139.069,105.147,101.104,0.00296964,0.0514357,20.9947,111.308,0.354067,0.0,0.0
558,139.25,18.4459,19.6917,140.017,105.143,100.329,0.00304087,0.051721,20.9944,111.258,0.423166,0.0,0.0
561,140,18.9359,19.9292,140.143,105.134,100.414,0.00310352,0.0519835,20.9942,111.258,0.414748,0.0,0.0
564,140.75,19.0008,19.6403,139.966,105.126,100.288,0.00326876,0.0522342,20.994,111.218,0.425403,0.0,0.0
567,141.5,19.0844,19.9213,140.023,105.127,100.138,0.00333956,0.0524789,20.9937,111.198,0.438984,0.0,0.0
570,142.25,18.9298,19.46,141.342,105.122,99.4815,0.00348393,0.0528125,20.9928,111.168,0.497972,0.0,0.0
573,143,18.7634,19.3043,142.089,105.109,100.553,0.00361586,0.0530403,20.9917,111.128,0.400143,0.0,0.0
576,143.75,18.8836,19.148,141.072,105.092,100.576,0.00374531,0.0534677,20.991,111.088,0.396593,0.0,0.0
579,144.5,18.9529,18.6733,138.95,105.084,99.7956,0.00385936,0.0536907,20.9902,111.048,0.466207,0.0,0.0
582,145.25,18.939,19.8595,137.592,105.073,100.302,0.00396188,0.0539483,20.9892,111.008,0.419561,0.0,0.0
585,146,19.3754,19.5319,144.632,105.061,100.718,0.00405543,0.0542994,20.9879,110.978,0.381197,0.0,0.0
588,146.75,19.5696,20.3287,137.813,105.051,100.647,0.00411871,0.0550986,20.9865,110.958,0.386735,0.0,0.0
591,147.5,19.4473,19.7784,141.175,105.03,100.45,0.00413363,0.0564907,20.9847,110.918,0.402648,0.0,0.0
594,148.25,19.0101,20.0687,140.719,105.021,102.654,0.00409474,0.0614653,20.9759,110.857,0.205851,0.0,0.0
597,149,19.2043,19.6964,134.062,105.011,104.202,0.00400706,0.069792,20.965,110.677,0.0698049,0.0,1.0
600,149.75,19.184,19.5532,138.09,104.998,104.866,0.00384167,0.0810131,20.9495,110.787,0.011408,0.0,1.0
603,150.5,19.2023,19.8873,132.131,104.97,105.575,0.00360423,0.100158,20.9286,110.657,-0.051877,0.0,1.0
606,151.25,19.0923,19.4174,130.242,104.973,105.942,0.0033762,0.118855,20.905,110.587,-0.0829349,0.0,1.0
609,152,19.8293,19.8733,130.648,104.953,105.355,0.00318656,0.14059,20.8803,110.477,-0.034491,0.0,1.0
612,152.75,20.1185,20.3781,129.888,104.945,105.707,0.00304135,0.162029,20.8623,110.437,-0.0653145,0.0,1.0
615,153.5,20.7059,20.2597,127.81,104.899,105.755,0.00293549,0.1811,20.8405,110.347,-0.073333,0.0,1.0
618,154.25,20.6211,20.1948,133.245,104.882,105.806,0.00302383,0.19681,20.8248,110.247,-0.0791949,0.0,1.0
621,155,20.9954,20.7922,131.059,104.888,105.693,0.0031592,0.207917,20.8135,110.187,-0.069091,0.0,1.0
624,155.75,21.2898,21.0654,133.772,104.854,105.079,0.00337923,0.215867,20.8052,110.157,-0.0193118,0.0,0.0
627,156.5,21.5246,21.5321,129.963,104.84,105.418,0.00363551,0.217604,20.7992,110.077,-0.0495957,0.0,0.0
630,157.25,22.2381,22.0321,137.699,104.828,104.77,0.00398629,0.21714,20.8004,110.027,0.00505333,0.0,0.0
633,158,22.1724,21.5739,134.27,104.809,104.622,0.00443066,0.212031,20.8043,109.967,0.0161122,0.0,0.0
636,158.75,22.4831,22.2059,139.497,104.786,104.264,0.00483034,0.205856,20.8122,109.907,0.0451215,0.0,0.0
639,159.5,22.7352,22.8699,137.953,104.76,104.245,0.00525123,0.197164,20.8248,109.847,0.0444156,0.0,0.0
642,160.25,22.7929,22.2978,140.17,104.739,104.234,0.00571074,0.18875,20.8383,109.757,0.0436498,0.0,0.0
645,161,22.9813,22.9934,136.915,104.719,104.08,0.00614182,0.179063,20.8524,109.727,0.0552263,0.0,0.0
648,161.75,22.7657,22.8353,139.453,104.694,103.947,0.00654643,0.166757,20.8665,109.717,0.0645911,0.0,0.0
651,162.5,23.1927,22.6447,140.867,104.657,103.895,0.00692584,0.155085,20.8812,109.687,0.0659952,0.0,0.0
654,163.25,22.6337,22.8108,140.835,104.646,103.728,0.00732162,0.144336,20.8928,109.626,0.0795653,0.0,0.0
657,164,22.4363,22.7951,138.754,104.613,103.732,0.00766095,0.134638,20.9028,109.616,0.0763127,0.0,0.0
660,164.75,22.6322,22.8849,141.204,104.593,103.938,0.00803751,0.125564,20.9114,109.566,0.0567272,0.0,0.0
663,165.5,22.3213,22.9482,140.488,104.555,103.76,0.00839776,0.117811,20.9187,109.566,0.0688649,0.0,0.0
666,166.25,23.0772,22.9833,144.503,104.573,103.617,0.00869693,0.111675,20.9248,109.526,0.0829213,0.0,0.0
669,167,22.9413,22.7475,138.229,104.573,103.745,0.0089943,0.106509,20.9297,109.486,0.0718191,0.0,0.0
672,167.75,21.8461,23.0409,140.991,104.582,103.722,0.00923636,0.102347,20.9334,109.466,0.0746282,0.0,0.0
675,168.5,22.5337,22.4096,141.865,104.591,103.721,0.0094376,0.0991382,20.9362,109.456,0.0754353,0.0,0.0
678,169.25,22.1225,22.3874,138.537,104.604,103.836,0.00960821,0.0967439,20.9382,109.426,0.0665113,0.0,0.0
681,170,22.2756,22.7358,138.997,104.606,103.876,0.00975125,0.0949894,20.9396,109.406,0.0632134,0.0,0.0
684,170.75,22.2266,22.6187,137.991,104.61,103.922,0.00988743,0.0937353,20.9407,109.366,0.0595378,0.0,0.0
687,171.5,21.6688,22.1505,139.696,104.625,103.781,0.0100156,0.0928802,20.9414,109.316,0.0731144,0.0,0.0
690,172.25,21.4948,22.2052,138.367,104.629,103.905,0.0101129,0.0923077,20.9418,109.286,0.0626543,0.0,0.0
693,173,21.3434,21.9979,142.159,104.658,103.96,0.0101821,0.0919775,20.9416,109.276,0.0604263,0.0,0.0
696,173.75,21.489,22.1358,141.591,104.672,103.977,0.0102268,0.0919026,20.9415,109.216,0.0601227,0.0,0.0
699,174.5,21.2089,22.1391,141.885,104.689,103.902,0.0102432,0.0919552,20.9414,109.176,0.0681161,0.0,0.0
702,175.25,21.4093,22.2379,141.061,104.7,103.967,0.0102399,0.0920558,20.9414,109.146,0.0634998,0.0,0.0
705,176,21.7613,22.3353,144.46,104.714,104,0.010231,0.0921094,20.9413,109.126,0.061766,0.0,0.0
708,176.75,21.3501,22.1756,136.13,104.725,103.843,0.0102245,0.0921193,20.9415,109.096,0.0764354,0.0,0.0
711,177.5,21.8869,21.8778,142.288,104.758,103.884,0.0101792,0.0920768,20.9418,109.076,0.0756797,0.0,0.0
714,178.25,21.5147,22.0192,135.921,104.772,103.985,0.0100527,0.091888,20.9421,109.056,0.068099,0.0,0.0
717,179,21.6208,22.3387,142.954,104.774,104.058,0.0099196,0.0917504,20.9423,109.016,0.0619552,0.0,0.0
720,179.75,21.5993,22.187,140.008,104.795,104.027,0.00977461,0.0914427,20.9425,108.986,0.0663543,0.0,0.0
723,180.5,21.6346,21.8619,138.875,104.831,104.053,0.00964847,0.09113,20.9426,108.966,0.0672806,0.0,0.0
726,181.25,21.6042,21.3649,140.178,104.821,103.948,0.00949719,0.0908035,20.9427,108.926,0.0755111,0.0,0.0
729,182,21.2846,22.1223,139.05,104.839,104.115,0.00935291,0.0905219,20.9427,108.916,0.0625838,0.0,0.0
732,182.75,21.2587,22.4538,140.23,104.86,104.169,0.00921271,0.090242,20.9428,108.886,0.0596789,0.0,0.0
735,183.5,21.3581,21.7611,138.279,104.88,104.083,0.00907541,0.0898015,20.943,108.866,0.0688863,0.0,0.0
738,184.25,21.3001,22.2317,141.537,104.896,104.066,0.00893895,0.0892595,20.9436,108.836,0.0717006,0.0,0.0
741,185,21.5593,22.2424,138.995,104.914,104.115,0.0087773,0.0886541,20.9445,108.796,0.0690219,0.0,0.0
744,185.75,21.2447,21.9098,141.597,104.932,104.132,0.00859146,0.0880141,20.9455,108.766,0.0690818,0.0,0.0
747,186.5,21.2216,22.07,138.324,104.939,104.359,0.00842467,0.0872441,20.9466,108.736,0.0500693,0.0,0.0
750,187.25,20.8844,21.6147,144.359,104.952,104.28,0.00828972,0.0865535,20.9479,108.706,0.0580331,0.0,0.0
753,188,21.6842,21.5812,143.739,104.977,104.27,0.00816098,0.0856962,20.949,108.686,0.0609962,0.0,0.0
756,188.75,21.2466,21.833,139.802,104.999,104.198,0.00804749,0.0849473,20.9499,108.666,0.069195,0.0,0.0
759,189.5,21.082,21.6184,140.997,105.018,104.174,0.00795353,0.0843485,20.9504,108.636,0.0728677,0.0,0.0
762,190.25,20.9717,21.4112,143.727,105.04,104.507,0.00786584,0.0837549,20.9509,108.596,0.0459847,0.0,0.0
765,191,20.5783,21.7359,141.298,105.052,104.197,0.00778678,0.0832671,20.9518,108.556,0.0737763,0.0,0.0
768,191.75,21.0086,21.4238,139.522,105.065,104.379,0.00770327,0.0828517,20.9526,108.516,0.0592245,0.0,0.0
771,192.5,20.7431,21.9128,141.862,105.079,104.548,0.00761566,0.082487,20.9533,108.496,0.0457501,0.0,0.0
774,193.25,21.1526,21.3511,137.051,105.103,104.279,0.00753555,0.0820695,20.9538,108.426,0.0710812,0.0,0.0
777,194,20.8693,21.7104,140.098,105.101,104.464,0.00746169,0.0815059,20.9546,108.396,0.0549139,0.0,0.0
780,194.75,20.4503,21.8023,140.846,105.135,104.308,0.00739324,0.0808474,20.9556,108.406,0.0713567,0.0,0.0
783,195.5,20.2103,21.1394,141.907,105.148,104.221,0.00732732,0.0801968,20.9567,108.365,0.0800145,0.0,0.0
786,196.25,21.1203,21.5264,139.783,105.165,104.347,0.00727303,0.0796112,20.9576,108.365,0.0705184,0.0,0.0
789,197,20.749,21.3642,143.142,105.154,104.335,0.00723079,0.079047,20.9582,108.315,0.0705931,0.0,0.0
792,197.75,20.5174,21.0221,142.383,105.17,104.456,0.00720919,0.0785808,20.9586,108.335,0.0615201,0.0,0.0
795,198.5,20.3609,21.4084,145.789,105.184,104.324,0.00720917,0.0781669,20.9589,108.295,0.0740635,0.0,0.0
798,199.25,20.9793,21.4476,142.904,105.193,104.298,0.00721047,0.0777786,20.9591,108.265,0.0771772,0.0,0.0
801,200,20.5553,21.3951,139.685,105.212,104.423,0.00721366,0.0774406,20.9596,108.235,0.0679515,0.0,0.0
804,200.75,20.5324,21.0449,142.607,105.219,104.475,0.00718111,0.0771708,20.9603,108.185,0.0640962,0.0,0.0
807,201.5,20.1594,21.6527,143.738,105.24,104.454,0.00712087,0.0768779,20.9606,108.175,0.0676973,0.0,0.0
810,202.25,20.6548,21.1096,142.188,105.252,104.321,0.00703994,0.0766235,20.9608,108.175,0.0802641,0.0,0.0
813,203,20.3815,21.1487,139.653,105.248,104.682,0.00691702,0.0762869,20.9609,108.135,0.0486584,0.0,0.0
816,203.75,20.707,21.2179,140.259,105.25,104.535,0.00680711,0.0759772,20.9617,108.095,0.0615789,0.0,0.0
819,204.5,20.2904,21.744,138.197,105.266,104.559,0.0066923,0.0754762,20.9626,108.065,0.0608893,0.0,0.0
822,205.25,19.7984,21.0495,143.539,105.278,104.513,0.00656512,0.0749463,20.9635,108.065,0.0659204,0.0,0.0
825,206,20.6177,21.2437,140.037,105.278,104.533,0.00644669,0.0744827,20.9641,108.045,0.0641742,0.0,0.0
828,206.75,20.6284,21.7636,139.474,105.273,104.524,0.00634806,0.0741323,20.9651,108.045,0.0644703,0.0,0.0
831,207.5,20.1112,21.1226,140.042,105.296,104.45,0.00627262,0.0738358,20.9659,108.025,0.0728111,0.0,0.0
834,208.25,20.4514,21.3519,145.029,105.306,104.497,0.00621514,0.0735082,20.9665,107.995,0.0696116,0.0,0.0
837,209,20.0665,20.9521,140.514,105.299,104.622,0.00617218,0.073109,20.967,107.975,0.0582727,0.0,0.0
840,209.75,20.224,21.205,139.716,105.317,104.441,0.00614526,0.0726421,20.9675,107.965,0.0754342,0.0,0.0
843,210.5,20.5819,21.1868,141.419,105.317,104.41,0.00611609,0.0722512,20.9681,107.935,0.0781547,0.0,0.0
846,211.25,20.7684,20.9625,143.089,105.323,104.464,0.00609811,0.0718799,20.9687,107.925,0.0739461,0.0,0.0
849,212,20.4027,20.8879,135.279,105.327,104.485,0.00607782,0.0714724,20.9692,107.915,0.0724833,0.0,0.0
852,212.75,20.006,21.3191,140.314,105.326,104.495,0.00605075,0.0711069,20.9699,107.875,0.0714817,0.0,0.0
855,213.5,20.2949,21.2152,141.435,105.337,104.632,0.00597619,0.0708996,20.9709,107.845,0.0606797,0.0,0.0
858,214.25,20.1952,21.0291,139.572,105.338,104.673,0.00587478,0.0706029,20.9722,107.835,0.0571871,0.0,0.0
861,215,20.1488,21.2481,141.157,105.345,104.395,0.00575735,0.0702887,20.9732,107.795,0.0817694,0.0,0.0
864,215.75,20.307,21.1121,138.705,105.354,104.656,0.00563167,0.0699365,20.974,107.755,0.0600232,0.0,0.0
867,216.5,20.2836,21.5479,139.367,105.346,104.614,0.00550832,0.0695839,20.9745,107.755,0.0629825,0.0,0.0
870,217.25,20.2264,21.2468,142.569,105.361,104.549,0.00540852,0.069217,20.9749,107.735,0.0698936,0.0,0.0
873,218,19.9142,20.9955,144.238,105.357,104.513,0.00533155,0.0688879,20.9752,107.735,0.0726168,0.0,0.0
876,218.75,20.191,21.266,145.634,105.365,104.4,0.00525321,0.0685385,20.9754,107.685,0.08306,0.0,0.0
879,219.5,20.215,20.2196,145.51,105.365,104.597,0.00518663,0.0681867,20.9755,107.665,0.0660423,0.0,0.0
882,220.25,19.7733,20.506,142.239,105.376,104.678,0.00512576,0.0678441,20.9756,107.675,0.0599634,0.0,0.0
885,221,20.2072,20.9654,140.446,105.373,104.545,0.00507152,0.0675163,20.9757,107.645,0.0712318,0.0,0.0
888,221.75,19.6851,20.5256,143.651,105.379,104.659,0.00502777,0.0672773,20.9758,107.655,0.0619167,0.0,0.0
891,222.5,19.8444,20.8196,136.364,105.378,104.622,0.00496797,0.0670446,20.9758,107.625,0.0650848,0.0,0.0
894,223.25,19.0276,20.5384,137.54,105.384,104.657,0.00487667,0.0667792,20.9755,107.605,0.0624715,0.0,0.0
897,224,20.0196,21.0583,137.322,105.387,104.851,0.00471461,0.0665449,20.9751,107.595,0.0460286,0.0,0.0
900,224.75,20.2388,21.1288,141.447,105.382,104.675,0.00463841,0.0662961,20.975,107.575,0.0607899,0.0,0.0
903,225.5,19.5961,20.5306,139.26,105.373,104.485,0.0045342,0.0661147,20.9748,107.555,0.0764674,0.0,0.0
906,226.25,19.558,19.9949,135.82,105.379,104.695,0.00443056,0.065768,20.9753,107.535,0.0588288,0.0,0.0
909,227,19.9903,20.6015,142.058,105.391,104.64,0.00433398,0.0652718,20.9756,107.505,0.064512,0.0,0.0
912,227.75,20.1135,20.9506,141.89,105.389,104.633,0.00424023,0.0650659,20.9761,107.485,0.0649394,0.0,0.0
915,228.5,19.8886,21.1047,138.386,105.382,104.793,0.00416195,0.0646137,20.9769,107.475,0.0505756,0.0,0.0
918,229.25,20.1896,20.4475,139.965,105.378,104.837,0.00404886,0.0642293,20.9774,107.445,0.0464826,0.0,0.0
921,230,19.758,20.5163,137.291,105.391,104.485,0.00393577,0.0639259,20.9778,107.435,0.0779477,0.0,0.0
924,230.75,19.2199,20.2605,140.188,105.386,104.602,0.00382995,0.0635293,20.9781,107.425,0.067365,0.0,0.0
927,231.5,19.4497,20.6133,144.692,105.389,104.769,0.00373516,0.0631039,20.9783,107.405,0.0533336,0.0,0.0
930,232.25,19.7599,21.0203,138.486,105.391,104.567,0.00366287,0.0627651,20.9785,107.375,0.0708794,0.0,0.0
933,233,19.8744,20.4781,143.897,105.393,104.568,0.00360473,0.0624689,20.9786,107.355,0.0710203,0.0,0.0
936,233.75,19.8192,20.7413,141.724,105.384,104.545,0.00354488,0.0621167,20.979,107.315,0.07221,0.0,0.0
939,234.5,19.8476,20.4042,137.72,105.396,104.502,0.00348778,0.06186,20.9793,107.295,0.0769594,0.0,0.0
942,235.25,20.036,21.2308,141.04,105.381,104.59,0.00343527,0.0613809,20.9796,107.255,0.068099,0.0,0.0
945,236,20.1917,20.7194,141.556,105.394,104.52,0.00338817,0.0609666,20.9798,107.235,0.0751994,0.0,0.0
948,236.75,19.7074,20.851,139.999,105.381,104.486,0.00333465,0.0605534,20.9804,107.235,0.0770331,0.0,0.0
951,237.5,19.414,20.5246,141.839,105.389,104.73,0.00326996,0.0600382,20.981,107.225,0.0566619,0.0,0.0
954,238.25,19.244,20.67,139.878,105.375,104.576,0.00321185,0.0595264,20.9814,107.185,0.0686566,0.0,0.0
957,239,19.4287,20.6136,141.69,105.384,104.56,0.00311332,0.0590449,20.9818,107.165,0.0708377,0.0,0.0
960,239.75,19.5099,20.9024,141.94,105.386,104.472,0.00298417,0.058608,20.982,107.165,0.0786146,0.0,0.0
963,240.5,18.7656,20.5215,141.75,105.376,104.496,0.00283295,0.0580952,20.9828,107.145,0.0757448,0.0,0.0
966,241.25,19.5759,20.2662,141.45,105.37,104.487,0.00263765,0.0575579,20.9834,107.155,0.0760159,0.0,0.0
969,242,19.4791,20.4001,140.49,105.382,104.532,0.00247096,0.0570965,20.9838,107.145,0.0730887,0.0,0.0
972,242.75,19.1748,20.5419,142.648,105.376,104.639,0.00230788,0.0566104,20.9847,107.135,0.0634079,0.0,0.0
975,243.5,19.2621,20.5897,142.139,105.367,104.458,0.0021734,0.0560696,20.9854,107.104,0.0783169,0.0,0.0
978,244.25,19.5343,20.6493,139.959,105.358,104.603,0.00207729,0.0556232,20.9859,107.104,0.0648946,0.0,0.0
981,245,19.5299,20.7116,137.879,105.365,104.538,0.0020105,0.0551036,20.9862,107.084,0.0711891,0.0,0.0
984,245.75,19.5812,20.7538,139.397,105.363,104.574,0.00196181,0.0546818,20.9865,107.084,0.0678821,0.0,0.0
987,246.5,19.6521,20.9564,141.246,105.356,104.481,0.00192388,0.0543009,20.9875,107.074,0.0753072,0.0,0.0
990,247.25,19.3484,20.6182,140.46,105.35,104.424,0.00188817,0.053868,20.9885,107.064,0.0796827,0.0,0.0
993,248,19.7313,20.7627,140.789,105.352,104.644,0.00185012,0.0535524,20.9899,107.054,0.0608925,0.0,0.0
996,248.75,19.4456,20.183,142.331,105.348,104.56,0.00178257,0.0531183,20.9909,107.034,0.0678319,0.0,0.0
999,249.5,19.5343,20.5872,140.369,105.341,104.568,0.00169696,0.0527149,20.9919,107.014,0.0665669,0.0,0.0
1002,250.25,19.5408,20.0704,138.292,105.333,104.522,0.00159609,0.0522463,20.993,107.004,0.0697825,0.0,0.0
1005,251,19.578,20.0226,139.127,105.357,104.573,0.00148332,0.0517688,20.9938,106.994,0.0674195,0.0,0.0
1008,251.75,19.6384,20.6608,141.369,105.343,104.451,0.0013597,0.051284,20.9943,106.974,0.0768218,0.0,0.0
1011,252.5,19.3064,20.2897,141.623,105.329,104.603,0.00126958,0.0507962,20.9948,106.964,0.0624715,0.0,0.0
1014,253.25,19.1214,20.352,142.019,105.326,104.508,0.00118808,0.0503725,20.9955,106.944,0.0704169,0.0,0.0
1017,254,19.5781,20.27,137.461,105.312,104.5,0.00113021,0.0500276,20.9962,106.944,0.0698391,0.0,0.0
1020,254.75,19.5468,19.9232,140.612,105.316,104.468,0.00110217,0.049764,20.997,106.924,0.0729691,0.0,0.0
1023,255.5,19.1232,20.3507,140.956,105.315,104.416,0.00112487,0.0495038,20.998,106.904,0.0774045,0.0,0.0
1026,256.25,19.5001,19.972,141.016,105.31,104.716,0.00116684,0.0492852,20.9989,106.904,0.0511065,0.0,0.0
1029,257,19.5033,20.2619,138.692,105.289,104.442,0.00121402,0.0488945,20.9996,106.884,0.0729585,0.0,0.0
1032,257.75,19.5425,20.113,143.783,105.295,104.432,0.00125822,0.0485282,21,106.864,0.0742834,0.0,0.0
1035,258.5,19.1,20.1806,143.335,105.305,104.474,0.00127663,0.0482193,21.0004,106.864,0.0715393,0.0,0.0
1038,259.25,19.076,20.9057,137.542,105.286,104.387,0.00129004,0.0479819,21.0006,106.844,0.0775027,0.0,0.0
1041,260,19.6053,20.3306,141.386,105.276,104.441,0.00125492,0.0477953,21.0008,106.824,0.0718811,0.0,0.0
1044,260.75,19.1537,19.9065,144.776,105.285,104.436,0.00121658,0.0476106,21.001,106.834,0.0730482,0.0,0.0
1047,261.5,19.1563,20.22,140.811,105.275,104.569,0.00116686,0.0474026,21.0011,106.794,0.0607172,0.0,0.0
1050,262.25,18.5895,19.8825,143.223,105.264,104.377,0.00109785,0.0472123,21.0011,106.764,0.0763596,0.0,0.0
1053,263,19.4367,20.3395,142.403,105.261,104.422,0.00101652,0.0470735,21.0012,106.744,0.072242,0.0,0.0
1056,263.75,19.1278,20.2295,141.771,105.266,104.503,0.000947097,0.0469917,21.0012,106.724,0.0657227,0.0,0.0
1059,264.5,18.7068,19.8787,142.565,105.258,104.542,0.000899476,0.046905,21.0013,106.724,0.0615853,0.0,0.0
1062,265.25,19.181,20.3615,138.495,105.262,104.411,0.000837217,0.046823,21.0012,106.704,0.0732863,0.0,0.0
1065,266,19.125,19.8412,142.231,105.239,104.478,0.000788742,0.046751,21.001,106.704,0.0654791,0.0,0.0
1068,266.75,18.7939,20.0336,142.776,105.248,104.541,0.000732749,0.0466588,21.0009,106.694,0.0608743,0.0,0.0
1071,267.5,18.9731,19.3632,142.016,105.239,104.537,0.000671426,0.0465617,21.0008,106.694,0.0604734,0.0,0.0
1074,268.25,19.2497,20.3923,137.406,105.231,104.474,0.000617979,0.0463853,21.0007,106.664,0.0652697,0.0,0.0
1077,269,19.0217,20.3571,141.689,105.219,104.478,0.000562138,0.0462702,21.0005,106.654,0.0637766,0.0,0.0
1080,269.75,19.2576,20.2212,143.234,105.21,104.44,0.000512966,0.0461921,21.0001,106.664,0.0663831,0.0,0.0
1083,270.5,18.9044,19.7754,140.755,105.215,104.439,0.00047495,0.0461352,21.0005,106.624,0.0668597,0.0,0.0
1086,271.25,18.8983,19.7967,138.567,105.209,104.433,0.000444827,0.0460937,21.0005,106.624,0.0669206,0.0,0.0
1089,272,19.2905,20.0507,141.22,105.198,104.48,0.00042628,0.0460441,21.0002,106.594,0.0618002,0.0,0.0
1092,272.75,18.6433,19.8942,140.866,105.198,104.367,0.000420351,0.0460273,21.0003,106.584,0.0715938,0.0,0.0
1095,273.5,19.0847,19.4126,140.195,105.196,104.354,0.00041603,0.0460151,21.0007,106.574,0.072589,0.0,0.0
1098,274.25,19.1163,20.1073,140.247,105.193,104.364,0.00046609,0.0460062,21.0009,106.584,0.0713663,0.0,0.0
1101,275,18.7012,19.8701,140.643,105.1875,104.413,0.000525517,0.0460132,21.0011,106.564,0.0667421,0.0,0.0
1104,275.75,19.1462,20.1766,141.86,105.178,104.23,0.000586879,0.0460241,21.0014,106.554,0.0817395,0.0,0.0
1107,276.5,18.8958,19.7399,139.546,105.171,104.403,,0.0460902,,106.524,0.0661822,0.0,0.0
1110,277.25,19.4409,19.5077,142.462,105.171,104.356,,0.0461458,,106.514,0.0702449,0.0,0.0
1113,278,18.8094,19.7596,143,105.173,104.461,,0.0461993,,106.504,0.0613266,0.0,0.0
1116,278.75,19.1945,20.0232,140.269,105.149,104.319,,0.0462383,,106.484,0.0714998,0.0,0.0
1119,279.5,19.175,19.6334,140.201,105.153,104.467,,,,106.474,0.0590887,0.0,0.0
1122,280.25,18.8165,20.4024,139.129,105.158,104.244,,,,106.464,0.0788536,0.0,0.0
1125,281,18.9652,19.7667,140.404,105.147,104.312,,,,106.454,0.0719291,0.0,0.0
1128,281.75,18.5785,19.8781,138.802,105.138,104.404,,,,106.444,0.0631941,0.0,0.0
1131,282.5,18.9873,19.3517,141.989,105.141,104.304,,,,106.434,0.072227,0.0,0.0
1134,283.25,19.2011,20.1116,139.84,105.137,104.647,,,,106.434,0.0421232,0.0,0.0
1137,284,18.9382,19.6881,136.968,105.121,104.256,,,,106.404,0.0745973,0.0,0.0
1140,284.75,18.3624,19.5134,140.675,105.111,104.592,,,,106.394,0.044693,0.0,0.0
1143,285.5,19.0259,20.1201,138.731,105.121,104.129,,,,106.384,0.0855617,0.0,0.0
1146,286.25,19.0041,20.1379,141.622,105.109,104.333,,,,106.374,0.0668693,0.0,0.0
1148,286.75,19.2323,19.5769,140.967,105.105,104.22,,,,106.364,0.0763543,0.0,0.0