File: 01_Data/Polyester_Felt/STA/N2/30K_min/Polyester_Felt_STA_N2_30KData_210722_R3.csv
##Temp./Â°C,Time/min,Mass loss(subtr.2)/mg,DSC(subtr.2)/(mW/mg),Sensit./(uV/mW)
50.684,10.01,0.01909,-0.004592022,0.6235
51.284,11.013,0.01778017,0.02112473,0.62349
51.884,11.2194,0.01719473,0.03765172,0.62349
52.484,11.3637,0.01921553,0.05351495,0.62348
53.084,11.47902,0.01811211,0.06880647,0.62347
53.684,11.5746,0.02009886,0.0810502,0.62346
54.284,11.65789,0.02096063,0.09356302,0.62345
54.884,11.73284,0.02058491,0.10647,0.62345
55.484,11.80156,0.02104531,0.11861,0.62344
56.084,11.86485,0.01977691,0.12708,0.62342
56.684,11.92418,0.01724037,0.13596,0.62341
57.284,11.9802,0.01676304,0.14649,0.6234
57.884,12.0337,0.01621936,0.15805,0.62339
58.484,12.08437,0.01776841,0.16596,0.62338
59.084,12.13327,0.01914926,0.17502,0.62336
59.684,12.18018,0.02084064,0.17974,0.62335
60.284,12.2257,0.02003771,0.19293,0.62333
60.884,12.2698,0.01974568,0.19994,0.62332
61.484,12.31254,0.02120533,0.20125,0.6233
62.084,12.35393,0.02241396,0.20992,0.62329
62.684,12.3988,0.02170985,0.21656,0.62327
63.284,12.44324,0.02057595,0.22366,0.62325
63.884,12.4827,0.02124703,0.23279,0.62324
64.484,12.52073,0.02223526,0.23851,0.62322
65.084,12.55762,0.02163883,0.24754,0.6232
65.684,12.5942,0.02109044,0.25226,0.62318
66.284,12.63071,0.02046779,0.25653,0.62316
66.884,12.66654,0.02057698,0.26289,0.62314
67.484,12.7019,0.02205153,0.27128,0.62312
68.084,12.73676,0.02238909,0.27721,0.6231
68.684,12.7712,0.02194934,0.28425,0.62308
69.284,12.805,0.02013479,0.29166,0.62305
69.884,12.83866,0.01926571,0.29944,0.62303
70.484,12.87166,0.01984423,0.30399,0.62301
71.084,12.90423,0.01987395,0.30951,0.62298
71.684,12.9365,0.01937929,0.31461,0.62296
72.284,12.96882,0.01959258,0.31736,0.62293
72.884,13.00106,0.01998957,0.32222,0.62291
73.484,13.0328,0.02006107,0.32681,0.62288
74.084,13.0642,0.02032266,0.33194,0.62285
74.684,13.0952,0.02045019,0.33286,0.62283
75.284,13.1261,0.02032444,0.33707,0.6228
75.884,13.15691,0.01922848,0.33878,0.62277
76.484,13.18726,0.01966677,0.34214,0.62274
77.084,13.21747,0.02009182,0.34114,0.62271
77.684,13.2475,0.02078123,0.34328,0.62268
78.284,13.27767,0.02057979,0.3431,0.62265
78.884,13.30763,0.02109007,0.34263,0.62262
79.484,13.3374,0.02079036,0.34379,0.62259
80.084,13.36695,0.02064265,0.34347,0.62256
80.684,13.39618,0.0204944,0.34332,0.62252
81.284,13.4252,0.02047437,0.34232,0.62249
81.884,13.454,0.01886569,0.34181,0.62246
82.484,13.48267,0.01833855,0.33979,0.62242
83.084,13.51119,0.01886946,0.34036,0.62239
83.684,13.53945,0.02018934,0.34145,0.62235
84.284,13.56753,0.02148742,0.34264,0.62232
84.884,13.5956,0.0212567,0.34292,0.62228
85.484,13.6235,0.02172247,0.34501,0.62224
86.084,13.6512,0.02136196,0.34661,0.62221
86.684,13.67879,0.02172871,0.3462,0.62217
87.284,13.70611,0.02268024,0.34555,0.62213
87.884,13.73335,0.02210368,0.34657,0.62209
88.484,13.76022,0.02205784,0.34547,0.62205
89.084,13.78708,0.0215495,0.34535,0.62201
89.684,13.81381,0.02225959,0.34569,0.62197
90.284,13.84061,0.02151474,0.34103,0.62193
90.884,13.8673,0.0206478,0.34559,0.62189
91.484,13.89357,0.02142155,0.34681,0.62185
92.084,13.9198,0.02150872,0.3451,0.6218
92.684,13.9459,0.02149243,0.34295,0.62176
93.284,13.97189,0.02099639,0.3421,0.62172
93.884,13.9977,0.02066896,0.3381,0.62167
94.484,14.0234,0.02119239,0.33534,0.62163
95.084,14.04911,0.02142642,0.33589,0.62158
95.684,14.0747,0.02011327,0.33408,0.62154
96.284,14.10007,0.02095333,0.3344,0.62149
96.884,14.1253,0.01987352,0.33336,0.62145
97.484,14.15035,0.02128835,0.33224,0.6214
98.084,14.1751,0.02079336,0.33255,0.62135
98.684,14.1997,0.02138707,0.33343,0.6213
99.284,14.22442,0.02280544,0.33309,0.62126
99.884,14.24911,0.02246255,0.33412,0.62121
100.484,14.27396,0.02261518,0.33662,0.62116
101.084,14.29858,0.02216715,0.33875,0.62111
101.684,14.32294,0.02141872,0.33862,0.62106
102.284,14.34706,0.0220834,0.34207,0.621
102.884,14.37106,0.02228818,0.34649,0.62095
103.484,14.39495,0.02187089,0.35058,0.6209
104.084,14.4189,0.02270807,0.35669,0.62085
104.684,14.44285,0.02294304,0.36169,0.6208
105.284,14.4667,0.02303241,0.36553,0.62074
105.884,14.49036,0.02225962,0.36857,0.62069
106.484,14.51394,0.02192838,0.37111,0.62063
107.084,14.5374,0.02120012,0.37506,0.62058
107.684,14.56061,0.02089996,0.3762,0.62052
108.284,14.5839,0.02140464,0.37871,0.62047
108.884,14.60704,0.02131636,0.38301,0.62041
109.484,14.63016,0.02096542,0.38746,0.62035
110.084,14.6534,0.02140942,0.38807,0.6203
110.684,14.67644,0.0227868,0.39194,0.62024
111.284,14.6993,0.02143371,0.40013,0.62018
111.884,14.7221,0.02138772,0.40394,0.62012
112.484,14.7448,0.02153847,0.40952,0.62006
113.084,14.7674,0.02146236,0.41052,0.62
113.684,14.78972,0.02139446,0.41624,0.61994
114.284,14.81224,0.02252309,0.42089,0.61988
114.884,14.8346,0.02269748,0.42511,0.61982
115.484,14.85685,0.02268862,0.42901,0.61976
116.084,14.87924,0.02238356,0.43457,0.61969
116.684,14.9013,0.02269928,0.44093,0.61963
117.284,14.9234,0.02255318,0.44349,0.61957
117.884,14.94534,0.02135712,0.4469,0.6195
118.484,14.9672,0.02182822,0.44939,0.61944
119.084,14.98916,0.0227482,0.45184,0.61937
119.684,15.0109,0.02138112,0.45415,0.61931
120.284,15.0327,0.02161656,0.4622,0.61924
120.884,15.0544,0.02233072,0.46396,0.61918
121.484,15.07591,0.02205483,0.46843,0.61911
122.084,15.09743,0.02129545,0.47136,0.61904
122.684,15.1189,0.02143855,0.47484,0.61897
123.284,15.1403,0.02006891,0.48125,0.61891
123.884,15.16169,0.0200801,0.48489,0.61884
124.484,15.1829,0.02148186,0.49002,0.61877
125.084,15.20406,0.02139659,0.49298,0.6187
125.684,15.22504,0.02138346,0.4969,0.61863
126.284,15.2461,0.022362,0.49906,0.61856
126.884,15.26699,0.02268258,0.50454,0.61849
127.484,15.28784,0.02251763,0.5086,0.61841
128.084,15.3087,0.02137173,0.51437,0.61834
128.684,15.3295,0.02170081,0.51858,0.61827
129.284,15.35028,0.02149429,0.52315,0.6182
129.884,15.37101,0.02149812,0.52824,0.61812
130.484,15.3916,0.02148579,0.53071,0.61805
131.084,15.4122,0.0223872,0.53504,0.61798
131.684,15.43271,0.02163566,0.5405,0.6179
132.284,15.4531,0.02212927,0.5434,0.61782
132.884,15.47345,0.02278456,0.54749,0.61775
133.484,15.4938,0.02281339,0.55341,0.61767
134.084,15.5141,0.02288807,0.55639,0.6176
134.684,15.53444,0.02158332,0.56007,0.61752
135.284,15.55466,0.02150814,0.56459,0.61744
135.884,15.5748,0.02066513,0.56706,0.61736
136.484,15.5949,0.02020449,0.57196,0.61728
137.084,15.6149,0.02018132,0.57623,0.61721
137.684,15.6348,0.02017363,0.57987,0.61713
138.284,15.6547,0.02100786,0.58206,0.61705
138.884,15.67459,0.02148074,0.5853,0.61697
139.484,15.69435,0.02071625,0.59008,0.61688
140.084,15.7142,0.02020997,0.59249,0.6168
140.684,15.7339,0.02011585,0.59762,0.61672
141.284,15.75356,0.02139324,0.5994,0.61664
141.884,15.77319,0.02149851,0.60238,0.61656
142.484,15.79282,0.0214996,0.60391,0.61647
143.084,15.8124,0.02149648,0.61258,0.61639
143.684,15.8321,0.02202855,0.61369,0.61631
144.284,15.8516,0.02280161,0.61733,0.61622
144.884,15.871,0.02281445,0.62152,0.61614
145.484,15.89037,0.02279775,0.62505,0.61605
146.084,15.9097,0.0215015,0.62594,0.61596
146.684,15.92903,0.02150876,0.6256,0.61588
147.284,15.94841,0.02206384,0.63094,0.61579
147.884,15.96773,0.02161804,0.63303,0.6157
148.484,15.98701,0.02151071,0.63644,0.61562
149.084,16.00621,0.02150099,0.63911,0.61553
149.684,16.0254,0.02150039,0.63991,0.61544
150.284,16.0445,0.02150383,0.64407,0.61535
150.884,16.0636,0.02155942,0.65007,0.61526
151.484,16.0826,0.02254307,0.65183,0.61517
152.084,16.1017,0.02246293,0.6546,0.61508
152.684,16.12061,0.02351849,0.65511,0.61499
153.284,16.13955,0.02379736,0.6597,0.6149
153.884,16.1585,0.0232749,0.66175,0.61481
154.484,16.1774,0.02233588,0.66456,0.61471
155.084,16.19624,0.02235285,0.66953,0.61462
155.684,16.21511,0.02210344,0.67301,0.61453
156.284,16.23396,0.0210079,0.67615,0.61443
156.884,16.25277,0.02105645,0.67945,0.61434
157.484,16.27151,0.02105982,0.68022,0.61425
158.084,16.29024,0.02106,0.68267,0.61415
158.684,16.309,0.02106,0.68726,0.61406
159.284,16.32762,0.02106,0.69152,0.61396
159.884,16.3462,0.02105998,0.69376,0.61386
160.484,16.36487,0.02105981,0.69645,0.61377
161.084,16.38353,0.02105795,0.70043,0.61367
161.684,16.40211,0.02161824,0.69857,0.61357
162.284,16.42053,0.02168068,0.70293,0.61347
162.884,16.43899,0.02138335,0.70339,0.61338
163.484,16.45759,0.02112176,0.70962,0.61328
164.084,16.47612,0.02204738,0.70927,0.61318
164.684,16.49462,0.02233225,0.70998,0.61308
165.284,16.51326,0.02210605,0.71663,0.61298
165.884,16.5318,0.0210659,0.71826,0.61288
166.484,16.55019,0.02106994,0.71901,0.61278
167.084,16.56852,0.02107172,0.72369,0.61268
167.684,16.5869,0.02110429,0.72447,0.61257
168.284,16.60528,0.02070793,0.72897,0.61247
168.884,16.62361,0.02073743,0.72763,0.61237
169.484,16.64184,0.02073986,0.73367,0.61227
170.084,16.65997,0.02074,0.73815,0.61216
170.684,16.67821,0.02074,0.73869,0.61206
171.284,16.6964,0.02073997,0.74228,0.61195
171.884,16.71459,0.02073958,0.74738,0.61185
172.484,16.73275,0.02073638,0.75068,0.61175
173.084,16.75113,0.02116152,0.7542,0.61164
173.684,16.76931,0.02206171,0.75497,0.61153
174.284,16.78749,0.02205301,0.75724,0.61143
174.884,16.80562,0.02204298,0.75995,0.61132
175.484,16.82377,0.02197064,0.76462,0.61121
176.084,16.8418,0.02312065,0.76709,0.61111
176.684,16.85985,0.02303975,0.76988,0.611
177.284,16.8779,0.02309817,0.77136,0.61089
177.884,16.89593,0.02232236,0.77764,0.61078
178.484,16.91391,0.0223748,0.77617,0.61067
179.084,16.93187,0.02237971,0.7784,0.61056
179.684,16.94979,0.02238,0.7813,0.61045
180.284,16.9677,0.02237998,0.7825,0.61034
180.884,16.98555,0.02237968,0.78202,0.61023
181.484,17.0034,0.02237687,0.7855,0.61012
182.084,17.02122,0.0223658,0.79085,0.61001
182.684,17.03902,0.0229789,0.79341,0.60989
183.284,17.05679,0.02232662,0.7985,0.60978
183.884,17.0746,0.0220764,0.79925,0.60967
184.484,17.09234,0.0220517,0.80148,0.60955
185.084,17.11016,0.02205001,0.80362,0.60944
185.684,17.12789,0.02204996,0.80525,0.60933
186.284,17.1456,0.02204951,0.81151,0.60921
186.884,17.16324,0.02204548,0.8144,0.6091
187.484,17.1809,0.02203449,0.81563,0.60898
188.084,17.19848,0.01994813,0.81443,0.60887
188.684,17.21611,0.01942526,0.82167,0.60875
189.284,17.23366,0.01942049,0.82309,0.60863
189.884,17.25122,0.01942002,0.82559,0.60852
190.484,17.2686,0.01941999,0.82972,0.6084
191.084,17.28602,0.01941987,0.83041,0.60828
191.684,17.3035,0.0194187,0.83611,0.60816
192.284,17.32102,0.01941492,0.83854,0.60804
192.884,17.3385,0.01820601,0.83843,0.60792
193.484,17.35608,0.01811991,0.83941,0.60781
194.084,17.3737,0.01810195,0.84254,0.60769
194.684,17.39104,0.01810029,0.84347,0.60757
195.284,17.4085,0.01809701,0.84848,0.60744
195.884,17.42589,0.01803857,0.85048,0.60732
196.484,17.44324,0.01892826,0.8556,0.6072
197.084,17.46055,0.01908961,0.85548,0.60708
197.684,17.47789,0.01906128,0.85432,0.60696
198.284,17.4952,0.01945268,0.85553,0.60684
198.884,17.51238,0.01942226,0.8579,0.60671
199.484,17.52967,0.01941996,0.8596,0.60659
200.084,17.54692,0.01941997,0.86255,0.60647
200.684,17.56417,0.01941999,0.86835,0.60634
201.284,17.58144,0.01941998,0.87017,0.60622
201.884,17.5987,0.01942019,0.87452,0.60609
202.484,17.6159,0.01942443,0.87727,0.60597
203.084,17.63307,0.01946759,0.87598,0.60584
203.684,17.65024,0.02041828,0.88233,0.60572
204.284,17.6674,0.02040129,0.88943,0.60559
204.884,17.68457,0.02040718,0.88875,0.60546
205.484,17.7017,0.02039943,0.89581,0.60534
206.084,17.71885,0.01916756,0.89831,0.60521
206.684,17.73599,0.01911067,0.90223,0.60508
207.284,17.7531,0.01909182,0.90696,0.60495
207.884,17.77016,0.01909001,0.91089,0.60482
208.484,17.78722,0.01908998,0.91364,0.60469
209.084,17.80433,0.01909,0.91582,0.60456
209.684,17.82142,0.01909,0.91984,0.60443
210.284,17.8386,0.01908998,0.9249,0.6043
210.884,17.85568,0.01908965,0.92252,0.60417
211.484,17.87275,0.01908725,0.92488,0.60404
212.084,17.88982,0.01909189,0.92974,0.60391
212.684,17.90683,0.01955277,0.9344,0.60378
213.284,17.92381,0.01972116,0.93903,0.60365
213.884,17.94077,0.01973947,0.93738,0.60352
214.484,17.95779,0.01974016,0.94326,0.60338
215.084,17.97476,0.01974003,0.94705,0.60325
215.684,17.9918,0.01974001,0.94998,0.60312
216.284,18.00868,0.01973992,0.94878,0.60298
216.884,18.02564,0.01973822,0.95757,0.60285
217.484,18.04254,0.01972175,0.95968,0.60271
218.084,18.05949,0.01845131,0.96304,0.60258
218.684,18.07637,0.01832766,0.96936,0.60244
219.284,18.09331,0.01701732,0.97552,0.60231
219.884,18.1102,0.01710909,0.97876,0.60217
220.484,18.12719,0.01711287,0.98614,0.60204
221.084,18.14406,0.01715397,0.99203,0.6019
221.684,18.16092,0.01846382,0.99983,0.60176
222.284,18.17783,0.01840904,1.00418,0.60163
222.884,18.1947,0.0184187,1.01394,0.60149
223.484,18.21153,0.01842206,1.02106,0.60135
224.084,18.22837,0.01820689,1.02365,0.60121
224.684,18.24519,0.01702306,1.0244,0.60107
225.284,18.26202,0.01710663,1.02915,0.60093
225.884,18.27881,0.01687294,1.03421,0.60079
226.484,18.2956,0.01583344,1.04083,0.60065
227.084,18.31241,0.01689634,1.04917,0.60051
227.684,18.32923,0.01711285,1.06102,0.60037
228.284,18.346,0.01711089,1.06889,0.60023
228.884,18.36272,0.0171077,1.07522,0.60009
229.484,18.37952,0.01711421,1.08199,0.59995
230.084,18.39629,0.01632384,1.09201,0.59981
230.684,18.41304,0.01613609,1.10099,0.59966
231.284,18.4298,0.01611984,1.11172,0.59952
231.884,18.44653,0.01611978,1.12289,0.59938
232.484,18.4633,0.01611998,1.13533,0.59924
233.084,18.48002,0.01612,1.14616,0.59909
233.684,18.4967,0.01612,1.16055,0.59895
234.284,18.51341,0.01612,1.17562,0.5988
234.884,18.5301,0.01612,1.18841,0.59866
235.484,18.54678,0.01612,1.20304,0.59851
236.084,18.56342,0.01612,1.21927,0.59837
236.684,18.5801,0.01612,1.23598,0.59822
237.284,18.59678,0.01612001,1.25534,0.59808
237.884,18.61348,0.01612009,1.27648,0.59793
238.484,18.63019,0.01612006,1.29735,0.59778
239.084,18.64689,0.01611322,1.32221,0.59764
239.684,18.66356,0.0160507,1.34383,0.59749
240.284,18.68025,0.01713049,1.36865,0.59734
240.884,18.6969,0.01744431,1.39413,0.59719
241.484,18.71355,0.01744086,1.42856,0.59704
242.084,18.7302,0.01744027,1.46228,0.5969
242.684,18.74687,0.01730697,1.49429,0.59675
243.284,18.76353,0.01601645,1.53052,0.5966
243.884,18.7802,0.01611591,1.57381,0.59645
244.484,18.79684,0.0157685,1.62192,0.5963
245.084,18.81342,0.01578665,1.67089,0.59615
245.684,18.83006,0.01578982,1.72509,0.596
246.284,18.8467,0.01586026,1.78297,0.59585
246.884,18.86334,0.01505929,1.84418,0.59569
247.484,18.8799,0.01513025,1.90922,0.59554
248.084,18.89655,0.01515844,1.97959,0.59539
248.684,18.91321,0.01470331,2.05182,0.59524
249.284,18.92986,0.01415204,2.12424,0.59509
249.884,18.9465,0.01521055,2.21027,0.59493
250.484,18.96312,0.01508073,2.29063,0.59478
251.084,18.9798,0.0151406,2.37983,0.59463
251.684,18.99645,0.01514459,2.4622,0.59447
252.284,19.01304,0.01517194,2.54973,0.59432
252.884,19.02967,0.01450756,2.62458,0.59416
253.484,19.0463,0.01377871,2.69289,0.59401
254.084,19.0629,0.01379554,2.75604,0.59385
254.684,19.07955,0.0141399,2.80543,0.5937
255.284,19.0962,0.01414289,2.83359,0.59354
255.884,19.11286,0.01414944,2.82726,0.59339
256.484,19.1295,0.01414988,2.78789,0.59323
257.084,19.14611,0.01414275,2.7132,0.59307
257.684,19.16275,0.01475221,2.61894,0.59291
258.284,19.1793,0.0154818,2.51184,0.59276
258.884,19.19588,0.0154762,2.39727,0.5926
259.484,19.21242,0.01547412,2.28834,0.59244
260.084,19.22898,0.01545571,2.17639,0.59228
260.684,19.24551,0.01491537,2.07252,0.59213
261.284,19.26205,0.01450339,1.98775,0.59197
261.884,19.27854,0.01447801,1.91187,0.59181
262.484,19.29501,0.01448185,1.83309,0.59165
263.084,19.31149,0.0144899,1.76795,0.59149
263.684,19.32791,0.01420744,1.70391,0.59133
264.284,19.34431,0.01415853,1.6527,0.59117
264.884,19.36075,0.01414843,1.59908,0.59101
265.484,19.37714,0.01419922,1.55792,0.59085
266.084,19.3935,0.01320306,1.51902,0.59068
266.684,19.40992,0.01282936,1.48976,0.59052
267.284,19.42635,0.01282659,1.45736,0.59036
267.884,19.4427,0.01282453,1.43137,0.5902
268.484,19.45911,0.01284594,1.40771,0.59004
269.084,19.47551,0.012469,1.38398,0.58987
269.684,19.49186,0.01249802,1.36394,0.58971
270.284,19.50818,0.01250024,1.34999,0.58955
270.884,19.52441,0.01250005,1.33157,0.58938
271.484,19.5408,0.0125,1.31868,0.58922
272.084,19.55712,0.0125,1.30728,0.58906
272.684,19.57348,0.0125,1.29377,0.58889
273.284,19.5898,0.0125,1.28774,0.58873
273.884,19.60626,0.0125,1.28108,0.58856
274.484,19.6226,0.0125,1.27686,0.5884
275.084,19.63896,0.0125,1.26901,0.58823
275.684,19.65529,0.0125,1.26063,0.58806
276.284,19.67168,0.0125,1.25537,0.5879
276.884,19.68804,0.0125,1.25202,0.58773
277.484,19.70435,0.0125,1.24603,0.58756
278.084,19.7207,0.0125,1.24605,0.5874
278.684,19.737,0.0125,1.24519,0.58723
279.284,19.75336,0.0125,1.24342,0.58706
279.884,19.76974,0.0125,1.23631,0.58689
280.484,19.78612,0.0125,1.23911,0.58673
281.084,19.80255,0.0125,1.23474,0.58656
281.684,19.81895,0.0125,1.23422,0.58639
282.284,19.83531,0.01249992,1.2298,0.58622
282.884,19.85166,0.01249962,1.22726,0.58605
283.484,19.86802,0.01250352,1.22673,0.58588
284.084,19.88435,0.01255227,1.22779,0.58571
284.684,19.9007,0.01179783,1.22277,0.58554
285.284,19.9171,0.01150032,1.22201,0.58537
285.884,19.93346,0.01150859,1.22236,0.5852
286.484,19.94984,0.01151012,1.22119,0.58503
287.084,19.96617,0.011527,1.22146,0.58486
287.684,19.9826,0.01100295,1.22342,0.58469
288.284,19.99888,0.01051767,1.22351,0.58451
288.884,20.01524,0.01052786,1.22301,0.58434
289.484,20.0316,0.01053901,1.22513,0.58417
290.084,20.04797,0.01169824,1.22975,0.584
290.684,20.06431,0.01182446,1.22585,0.58383
291.284,20.08065,0.01185015,1.22497,0.58365
291.884,20.09703,0.01171091,1.22467,0.58348
292.484,20.11338,0.0104338,1.2281,0.58331
293.084,20.12969,0.01053135,1.23287,0.58313
293.684,20.14604,0.01053123,1.23717,0.58296
294.284,20.16246,0.01052854,1.23455,0.58278
294.884,20.1788,0.01053681,1.23467,0.58261
295.484,20.19516,0.01073516,1.24293,0.58243
296.084,20.21155,0.01049932,1.23897,0.58226
296.684,20.22794,0.01053486,1.2409,0.58208
297.284,20.2443,0.0105308,1.24397,0.58191
297.884,20.2607,0.0105299,1.24286,0.58173
298.484,20.27712,0.01053354,1.24336,0.58156
299.084,20.29356,0.01056701,1.2436,0.58138
299.684,20.3099,0.00987558,1.244,0.5812
300.284,20.32633,0.009171644,1.2464,0.58103
300.884,20.34269,0.009206522,1.24663,0.58085
301.484,20.35908,0.009210161,1.24559,0.58067
302.084,20.37546,0.00920993,1.24911,0.58049
302.684,20.39185,0.009209341,1.24544,0.58032
303.284,20.40823,0.009215187,1.24375,0.58014
303.884,20.42464,0.00929566,1.24406,0.57996
304.484,20.441,0.008142332,1.24423,0.57978
305.084,20.45738,0.007886153,1.24184,0.5796
305.684,20.47381,0.007886663,1.24642,0.57942
306.284,20.49022,0.007888134,1.24452,0.57924
306.884,20.50665,0.00827619,1.2488,0.57906
307.484,20.52307,0.009260671,1.25027,0.57888
308.084,20.5395,0.009208795,1.252,0.5787
308.684,20.55584,0.00920918,1.25405,0.57852
309.284,20.57229,0.009209938,1.2506,0.57834
309.884,20.58867,0.00921,1.2505,0.57816
310.484,20.60504,0.009209933,1.2528,0.57798
311.084,20.6215,0.009209718,1.25633,0.5778
311.684,20.63795,0.009213042,1.25712,0.57762
312.284,20.6543,0.009254589,1.25994,0.57744
312.884,20.67077,0.00848576,1.26063,0.57725
313.484,20.6872,0.00786061,1.26228,0.57707
314.084,20.70359,0.007884937,1.26197,0.57689
314.684,20.71996,0.007890177,1.26364,0.57671
315.284,20.7363,0.00798549,1.26204,0.57652
315.884,20.7527,0.006734542,1.26081,0.57634
316.484,20.76906,0.00657961,1.26041,0.57616
317.084,20.7855,0.006658562,1.26308,0.57597
317.684,20.80195,0.007967131,1.2652,0.57579
318.284,20.81841,0.007959178,1.26418,0.57561
318.884,20.83482,0.00664948,1.26398,0.57542
319.484,20.85128,0.00658107,1.26848,0.57524
320.084,20.8677,0.006579781,1.27624,0.57505
320.684,20.88409,0.006579965,1.274,0.57487
321.284,20.90054,0.00658,1.26996,0.57468
321.884,20.91701,0.006579995,1.27072,0.5745
322.484,20.93345,0.006579951,1.26882,0.57431
323.084,20.94988,0.00658002,1.26497,0.57412
323.684,20.96632,0.00658369,1.26622,0.57394
324.284,20.9828,0.00660922,1.26598,0.57375
324.884,20.99907,0.005997265,1.25911,0.57357
325.484,21.01546,0.00522597,1.25868,0.57338
326.084,21.03189,0.00526711,1.26121,0.57319
326.684,21.0483,0.005270686,1.26344,0.573
327.284,21.06472,0.005276439,1.26076,0.57282
327.884,21.0813,0.005293545,1.26438,0.57263
328.484,21.09791,0.004482117,1.26469,0.57244
329.084,21.11439,0.00394328,1.26237,0.57225
329.684,21.13092,0.003949478,1.26087,0.57207
330.284,21.14744,0.003956307,1.26246,0.57188
330.884,21.16393,0.00404474,1.26246,0.57169
331.484,21.18037,0.004614127,1.25982,0.5715
332.084,21.1968,0.00467536,1.26239,0.57131
332.684,21.21325,0.003879617,1.26179,0.57112
333.284,21.2297,0.00395093,1.26373,0.57093
333.884,21.24619,0.0039509,1.26183,0.57074
334.484,21.26266,0.003949071,1.2653,0.57055
335.084,21.27919,0.003952954,1.26371,0.57036
335.684,21.29574,0.004048278,1.26426,0.57017
336.284,21.31227,0.003419512,1.26012,0.56998
336.884,21.3288,0.00430805,1.26121,0.56979
337.484,21.34531,0.00428829,1.25893,0.5696
338.084,21.36182,0.004281393,1.26283,0.56941
338.684,21.37835,0.00427312,1.26006,0.56922
339.284,21.39487,0.00411976,1.25988,0.56903
339.884,21.41141,0.00395562,1.26122,0.56883
340.484,21.42792,0.003954682,1.26251,0.56864
341.084,21.44444,0.004033365,1.26419,0.56845
341.684,21.46095,0.00288688,1.26639,0.56826
342.284,21.47749,0.002625266,1.26874,0.56807
342.884,21.49398,0.002594475,1.26397,0.56787
343.484,21.5105,0.001293368,1.25939,0.56768
344.084,21.52704,0.0006391785,1.26077,0.56749
344.684,21.54361,-5.36229e-06,1.26332,0.56729
345.284,21.56015,-2.070815e-08,1.26277,0.5671
345.884,21.57674,-1.766404e-06,1.26601,0.56691
346.484,21.59338,-1.752786e-05,1.26622,0.56671
347.084,21.60998,1.217978e-06,1.26526,0.56652
347.684,21.62653,-0.001288179,1.26456,0.56632
348.284,21.64313,-0.00131819,1.2615,0.56613
348.884,21.6597,-0.001320027,1.2636,0.56594
349.484,21.6763,-0.00132016,1.2637,0.56574
350.084,21.69289,-0.0013211,1.26905,0.56555
350.684,21.70948,-0.001318039,1.26348,0.56535
351.284,21.72609,-0.00230014,1.263,0.56516
351.884,21.7427,-0.00261569,1.26211,0.56496
352.484,21.75939,-0.00264073,1.26373,0.56476
353.084,21.776,-0.002640365,1.26389,0.56457
353.684,21.79264,-0.00263981,1.26224,0.56437
354.284,21.8093,-0.002640591,1.26208,0.56418
354.884,21.82589,-0.00272737,1.26263,0.56398
355.484,21.84248,-0.004037448,1.2617,0.56378
356.084,21.85911,-0.003946089,1.26437,0.56359
356.684,21.87569,-0.003955485,1.26631,0.56339
357.284,21.8923,-0.00399505,1.26899,0.56319
357.884,21.90896,-0.003051077,1.27171,0.56299
358.484,21.92561,-0.00355023,1.27128,0.5628
359.084,21.94226,-0.003927066,1.26948,0.5626
359.684,21.95894,-0.003951373,1.2714,0.5624
360.284,21.97561,-0.003950439,1.2721,0.5622
360.884,21.99229,-0.003950032,1.27351,0.56201
361.484,22.009,-0.003949997,1.27165,0.56181
362.084,22.02567,-0.003949965,1.27299,0.56161
362.684,22.0424,-0.00394977,1.27304,0.56141
363.284,22.05913,-0.00395079,1.27689,0.56121
363.884,22.07584,-0.004040741,1.27261,0.56101
364.484,22.0926,-0.005358365,1.27171,0.56081
365.084,22.1093,-0.00526748,1.27111,0.56061
365.684,22.126,-0.0053666,1.27366,0.56041
366.284,22.14266,-0.006668972,1.27246,0.56021
366.884,22.15932,-0.00657703,1.27371,0.56002
367.484,22.17606,-0.006580432,1.27246,0.55982
368.084,22.19275,-0.006601059,1.27538,0.55962
368.684,22.20944,-0.007865422,1.27588,0.55941
369.284,22.22625,-0.007875751,1.27866,0.55921
369.884,22.24306,-0.007865314,1.28135,0.55901
370.484,22.25981,-0.01017293,1.2788,0.55881
371.084,22.27664,-0.01051689,1.28288,0.55861
371.684,22.29342,-0.01052137,1.28211,0.55841
372.284,22.31018,-0.01052556,1.27648,0.55821
372.884,22.327,-0.01162507,1.27484,0.55801
373.484,22.34379,-0.0132197,1.27455,0.55781
374.084,22.36058,-0.01316269,1.27824,0.55761
374.684,22.3774,-0.01311153,1.27835,0.5574
375.284,22.39418,-0.01415641,1.2745,0.5572
375.884,22.41095,-0.01447344,1.27464,0.557
376.484,22.42774,-0.01448163,1.28574,0.5568
377.084,22.44456,-0.01447972,1.28416,0.55659
377.684,22.46142,-0.01447868,1.28388,0.55639
378.284,22.47823,-0.01594509,1.28546,0.55619
378.884,22.49503,-0.01608708,1.28567,0.55599
379.484,22.51182,-0.01611811,1.28908,0.55578
380.084,22.52865,-0.01611998,1.29105,0.55558
380.684,22.54545,-0.01611594,1.28967,0.55538
381.284,22.5623,-0.01668979,1.29158,0.55517
381.884,22.57911,-0.01757735,1.29305,0.55497
382.484,22.59596,-0.01915578,1.29272,0.55477
383.084,22.61286,-0.02026762,1.29506,0.55456
383.684,22.6297,-0.02059576,1.30056,0.55436
384.284,22.6466,-0.02168405,1.30158,0.55415
384.884,22.6635,-0.02046813,1.30517,0.55395
385.484,22.68048,-0.02183111,1.30752,0.55375
386.084,22.69736,-0.02222559,1.30694,0.55354
386.684,22.71426,-0.0233461,1.30724,0.55334
387.284,22.73114,-0.02456598,1.31167,0.55313
387.884,22.74806,-0.02472106,1.31563,0.55293
388.484,22.76499,-0.02374034,1.31784,0.55272
389.084,22.78194,-0.02501569,1.31848,0.55252
389.684,22.79883,-0.02598419,1.32237,0.55231
390.284,22.81576,-0.02701796,1.32546,0.5521
390.884,22.83268,-0.02844023,1.33021,0.5519
391.484,22.84959,-0.02935989,1.33191,0.55169
392.084,22.86652,-0.02981013,1.33269,0.55149
392.684,22.88345,-0.03090048,1.34093,0.55128
393.284,22.90044,-0.03273125,1.34643,0.55108
393.884,22.91735,-0.03430453,1.35046,0.55087
394.484,22.9344,-0.03604961,1.3545,0.55066
395.084,22.9513,-0.0371256,1.36306,0.55046
395.684,22.9682,-0.03847399,1.36644,0.55025
396.284,22.98522,-0.03989065,1.37425,0.55004
396.884,23.0022,-0.0410798,1.37956,0.54984
397.484,23.01926,-0.04215831,1.38956,0.54963
398.084,23.03634,-0.04373387,1.39712,0.54942
398.684,23.05351,-0.0454877,1.4028,0.54921
399.284,23.07056,-0.04748909,1.41797,0.54901
399.884,23.08761,-0.05107504,1.42178,0.5488
400.484,23.10464,-0.05270089,1.42792,0.54859
401.084,23.12165,-0.05423929,1.43946,0.54838
401.684,23.1387,-0.05586286,1.45006,0.54818
402.284,23.15579,-0.05685764,1.45613,0.54797
402.884,23.17291,-0.05868897,1.46667,0.54776
403.484,23.19,-0.06097749,1.47886,0.54755
404.084,23.20705,-0.06380148,1.489,0.54734
404.684,23.22419,-0.06621541,1.50392,0.54713
405.284,23.24129,-0.0687047,1.51402,0.54693
405.884,23.2584,-0.07190517,1.52556,0.54672
406.484,23.2755,-0.07494716,1.53632,0.54651
407.084,23.29262,-0.07760712,1.54539,0.5463
407.684,23.3097,-0.08143914,1.55456,0.54609
408.284,23.3268,-0.08502894,1.55957,0.54588
408.884,23.3439,-0.08789943,1.56711,0.54567
409.484,23.36099,-0.09196804,1.57156,0.54546
410.084,23.3781,-0.09631312,1.57937,0.54525
410.684,23.39524,-0.09938102,1.58514,0.54504
411.284,23.4123,-0.10363,1.59403,0.54483
411.884,23.42944,-0.10852,1.60287,0.54462
412.484,23.44661,-0.11211,1.6079,0.54441
413.084,23.4637,-0.11737,1.61752,0.5442
413.684,23.4809,-0.12276,1.62851,0.54399
414.284,23.49813,-0.12799,1.63852,0.54378
414.884,23.51534,-0.13373,1.64772,0.54357
415.484,23.53255,-0.13891,1.65937,0.54336
416.084,23.54984,-0.14583,1.66636,0.54315
416.684,23.56702,-0.15098,1.66935,0.54294
417.284,23.5842,-0.15861,1.67078,0.54273
417.884,23.60141,-0.16498,1.66464,0.54252
418.484,23.61862,-0.17167,1.65772,0.54231
419.084,23.63583,-0.17926,1.64997,0.5421
419.684,23.65302,-0.18589,1.64122,0.54189
420.284,23.67025,-0.19413,1.62523,0.54168
420.884,23.6875,-0.20053,1.61009,0.54146
421.484,23.70477,-0.20888,1.59728,0.54125
422.084,23.72201,-0.2166,1.59062,0.54104
422.684,23.73926,-0.225,1.58705,0.54083
423.284,23.75647,-0.2335,1.58,0.54062
423.884,23.77372,-0.24093,1.575,0.54041
424.484,23.79091,-0.25066,1.56822,0.5402
425.084,23.8081,-0.25909,1.56605,0.53998
425.684,23.82535,-0.27048,1.56418,0.53977
426.284,23.84263,-0.28036,1.56886,0.53956
426.884,23.85986,-0.29133,1.57846,0.53935
427.484,23.8771,-0.3025,1.58396,0.53913
428.084,23.8944,-0.3128,1.58892,0.53892
428.684,23.91159,-0.32633,1.5967,0.53871
429.284,23.92884,-0.33716,1.6021,0.5385
429.884,23.9461,-0.35243,1.61068,0.53828
430.484,23.96336,-0.36448,1.62044,0.53807
431.084,23.9806,-0.37869,1.63316,0.53786
431.684,23.99792,-0.39347,1.64236,0.53765
432.284,24.01521,-0.40675,1.65922,0.53743
432.884,24.03249,-0.42365,1.67639,0.53722
433.484,24.04981,-0.43759,1.69814,0.53701
434.084,24.06709,-0.45605,1.71528,0.53679
434.684,24.0844,-0.47122,1.74126,0.53658
435.284,24.10171,-0.48835,1.77442,0.53637
435.884,24.11899,-0.50553,1.80634,0.53615
436.484,24.13629,-0.52333,1.83366,0.53594
437.084,24.1536,-0.54528,1.87226,0.53573
437.684,24.17088,-0.5635,1.9138,0.53551
438.284,24.18822,-0.58738,1.95218,0.5353
438.884,24.2056,-0.60682,1.99624,0.53509
439.484,24.2229,-0.63094,2.04182,0.53487
440.084,24.24032,-0.65533,2.09583,0.53466
440.684,24.25771,-0.67963,2.15432,0.53444
441.284,24.2751,-0.70782,2.20534,0.53423
441.884,24.2925,-0.73154,2.25394,0.53402
442.484,24.3099,-0.76324,2.30795,0.5338
443.084,24.32728,-0.78938,2.36043,0.53359
443.684,24.34469,-0.82163,2.41005,0.53337
444.284,24.36215,-0.85066,2.46626,0.53316
444.884,24.3796,-0.8827,2.52438,0.53294
445.484,24.3971,-0.91748,2.58415,0.53273
446.084,24.4146,-0.94924,2.63231,0.53251
446.684,24.43218,-0.98912,2.68714,0.5323
447.284,24.4497,-1.02083,2.74279,0.53209
447.884,24.46725,-1.0616,2.80151,0.53187
448.484,24.4848,-1.09489,2.85969,0.53166
449.084,24.5024,-1.13543,2.91355,0.53144
449.684,24.52,-1.17514,2.98091,0.53123
450.284,24.5377,-1.21461,3.02797,0.53101
450.884,24.55536,-1.25915,3.06885,0.5308
451.484,24.57299,-1.29622,3.11699,0.53058
452.084,24.59069,-1.3369,3.15974,0.53036
452.684,24.60836,-1.38407,3.19923,0.53015
453.284,24.62605,-1.43616,3.23804,0.52993
453.884,24.64378,-1.49065,3.26936,0.52972
454.484,24.66156,-1.53539,3.29907,0.5295
455.084,24.67928,-1.57979,3.32216,0.52929
455.684,24.69708,-1.62235,3.35101,0.52907
456.284,24.71487,-1.66399,3.37135,0.52886
456.884,24.73268,-1.70505,3.39236,0.52864
457.484,24.75049,-1.74591,3.41205,0.52843
458.084,24.76835,-1.78588,3.42818,0.52821
458.684,24.7862,-1.81734,3.44031,0.52799
459.284,24.80404,-1.85345,3.45032,0.52778
459.884,24.82183,-1.88562,3.4525,0.52756
460.484,24.8397,-1.92842,3.45312,0.52735
461.084,24.85752,-1.96598,3.44748,0.52713
461.684,24.8754,-2.00869,3.43072,0.52691
462.284,24.8932,-2.05511,3.41621,0.5267
462.884,24.91094,-2.10329,3.38332,0.52648
463.484,24.9286,-2.22292,3.3394,0.52627
464.084,24.94635,-2.3345,3.30025,0.52605
464.684,24.964,-2.42355,3.26157,0.52583
465.284,24.98178,-2.46474,3.22802,0.52562
465.884,24.9996,-2.47795,3.18331,0.5254
466.484,25.0174,-2.50018,3.13881,0.52518
467.084,25.0352,-2.52894,3.09781,0.52497
467.684,25.0532,-2.55906,3.04829,0.52475
468.284,25.07112,-2.58946,2.99735,0.52453
468.884,25.08909,-2.60833,2.95067,0.52432
469.484,25.10706,-2.61476,2.89636,0.5241
470.084,25.125,-2.62202,2.83027,0.52388
470.684,25.1429,-2.6385,2.759,0.52367
471.284,25.1607,-2.66994,2.6828,0.52345
471.884,25.17856,-2.69893,2.60538,0.52323
472.484,25.1963,-2.73186,2.52429,0.52302
473.084,25.21397,-2.74447,2.43011,0.5228
473.684,25.23161,-3.1783,2.30357,0.52258
474.284,25.24931,-3.09979,2.2018,0.52237
474.884,25.26685,-3.07625,2.11072,0.52215
475.484,25.28451,-3.0765,2.02148,0.52193
476.084,25.30234,-3.06994,1.9335,0.52172
476.684,25.32028,-3.06306,1.84424,0.5215
477.284,25.33815,-3.06134,1.75695,0.52128
477.884,25.3561,-3.06052,1.67723,0.52106
478.484,25.37405,-3.06864,1.59323,0.52085
479.084,25.39187,-3.0882,1.50919,0.52063
479.684,25.40961,-3.12074,1.43595,0.52041
480.284,25.42747,-3.13599,1.36914,0.5202
480.884,25.44538,-3.13981,1.299,0.51998
481.484,25.4633,-3.14085,1.23488,0.51976
482.084,25.48123,-3.14414,1.17534,0.51954
482.684,25.49919,-3.14794,1.11493,0.51933
483.284,25.5171,-3.15007,1.05701,0.51911
483.884,25.53507,-3.15299,1.00219,0.51889
484.484,25.55302,-3.1576,0.95298,0.51867
485.084,25.57091,-3.16204,0.90368,0.51846
485.684,25.5888,-3.16755,0.85619,0.51824
486.284,25.6067,-3.17345,0.80885,0.51802
486.884,25.6246,-3.18101,0.76464,0.5178
487.484,25.6425,-3.18788,0.72487,0.51759
488.084,25.6603,-3.19419,0.68616,0.51737
488.684,25.6782,-3.20009,0.65054,0.51715
489.284,25.6961,-3.20534,0.61634,0.51693
489.884,25.71395,-3.2119,0.58144,0.51672
490.484,25.73174,-3.21724,0.55041,0.5165
491.084,25.74965,-3.22401,0.51921,0.51628
491.684,25.7676,-3.2296,0.49041,0.51606
492.284,25.78536,-3.24842,0.46398,0.51585
492.884,25.80302,-3.37611,0.43443,0.51563
493.484,25.82067,-3.7099,0.4019,0.51541
494.084,25.83821,-3.69633,0.38767,0.51519
494.684,25.85572,-3.67749,0.38082,0.51498
495.284,25.87331,-3.66291,0.38014,0.51476
495.884,25.89098,-3.64747,0.37515,0.51454
496.484,25.90868,-3.63033,0.3698,0.51432
497.084,25.92645,-3.61624,0.36102,0.5141
497.684,25.9443,-3.60061,0.35332,0.51389
498.284,25.9622,-3.58753,0.34499,0.51367
498.884,25.98021,-3.57116,0.33413,0.51345
499.484,25.9983,-3.55531,0.32081,0.51323
500.084,26.01632,-3.54188,0.3061,0.51302
500.684,26.03438,-3.52783,0.29139,0.5128
501.284,26.05247,-3.5171,0.28098,0.51258
501.884,26.0706,-3.50477,0.26716,0.51236
502.484,26.08877,-3.4959,0.25402,0.51214
503.084,26.1069,-3.48629,0.24358,0.51193
503.684,26.12509,-3.47959,0.23125,0.51171
504.284,26.14333,-3.47257,0.2189,0.51149
504.884,26.16156,-3.46665,0.20907,0.51127
505.484,26.17977,-3.46121,0.19778,0.51105
506.084,26.1981,-3.45638,0.19153,0.51084
506.684,26.21632,-3.45166,0.18376,0.51062
507.284,26.2345,-3.44755,0.17565,0.5104
507.884,26.25273,-3.44374,0.16557,0.51018
508.484,26.27102,-3.44097,0.15465,0.50997
509.084,26.2893,-3.4383,0.15354,0.50975
509.684,26.30759,-3.43765,0.1442,0.50953
510.284,26.3259,-3.43561,0.13998,0.50931
510.884,26.3442,-3.43397,0.13378,0.50909
511.484,26.3623,-3.43287,0.12655,0.50888
512.084,26.3805,-3.43262,0.12282,0.50866
512.684,26.3988,-3.43236,0.11734,0.50844
513.284,26.417,-3.43244,0.11437,0.50822
513.884,26.4353,-3.43261,0.11283,0.50801
514.484,26.4537,-3.43263,0.10858,0.50779
515.084,26.47195,-3.43262,0.10372,0.50757
515.684,26.4902,-3.43262,0.10327,0.50735
516.284,26.50852,-3.43132,0.10115,0.50713
516.884,26.5268,-3.43131,0.09747708,0.50692
517.484,26.54513,-3.4313,0.09476963,0.5067
518.084,26.56342,-3.43199,0.09371415,0.50648
518.684,26.58172,-3.43261,0.09311588,0.50626
519.284,26.60003,-3.43263,0.09219234,0.50605
519.884,26.6183,-3.4327,0.09126986,0.50583
520.484,26.63662,-3.43134,0.09221984,0.50561
521.084,26.6549,-3.43132,0.09377378,0.50539
521.684,26.6733,-3.43146,0.09067008,0.50517
522.284,26.6916,-3.43265,0.09553203,0.50496
522.884,26.70993,-3.43262,0.09543703,0.50474
523.484,26.7282,-3.43313,0.09473952,0.50452
524.084,26.74656,-3.43398,0.09568875,0.5043
524.684,26.76486,-3.43401,0.09483544,0.50409
525.284,26.78315,-3.43564,0.09734236,0.50387
525.884,26.8015,-3.43683,0.09757738,0.50365
526.484,26.8199,-3.43811,0.09868208,0.50343
527.084,26.83825,-3.4383,0.09904912,0.50322
527.684,26.8567,-3.43974,0.09968686,0.503
528.284,26.87507,-3.43991,0.09870029,0.50278
528.884,26.8935,-3.44125,0.10408,0.50256
529.484,26.91185,-3.44116,0.103,0.50235
530.084,26.9303,-3.44221,0.10293,0.50213
530.684,26.94871,-3.4438,0.10313,0.50191
531.284,26.96715,-3.44381,0.09964877,0.50169
531.884,26.9856,-3.44479,0.10348,0.50148
532.484,27.004,-3.44513,0.1042,0.50126
533.084,27.0224,-3.44638,0.10741,0.50104
533.684,27.04083,-3.44654,0.11012,0.50083
534.284,27.0593,-3.44715,0.11295,0.50061
534.884,27.0777,-3.44792,0.11538,0.50039
535.484,27.09607,-3.44845,0.11866,0.50017
536.084,27.11453,-3.44931,0.12119,0.49996
536.684,27.13301,-3.44932,0.11981,0.49974
537.284,27.15145,-3.45067,0.12101,0.49952
537.884,27.1699,-3.45061,0.12344,0.49931
538.484,27.18842,-3.45158,0.12056,0.49909
539.084,27.2069,-3.45099,0.12034,0.49887
539.684,27.2254,-3.45093,0.12025,0.49865
540.284,27.2439,-3.45225,0.12275,0.49844
540.884,27.26244,-3.45216,0.12076,0.49822
541.484,27.281,-3.45215,0.12203,0.498
542.084,27.2995,-3.45212,0.12051,0.49779
542.684,27.31799,-3.45345,0.12146,0.49757
543.284,27.3365,-3.45346,0.12529,0.49735
543.884,27.35503,-3.45347,0.12449,0.49714
544.484,27.37355,-3.45363,0.12598,0.49692
545.084,27.3921,-3.45482,0.12744,0.4967
545.684,27.41062,-3.45477,0.12698,0.49649
546.284,27.42915,-3.45579,0.13151,0.49627
546.884,27.4477,-3.45634,0.13146,0.49605
547.484,27.46627,-3.45692,0.13116,0.49584
548.084,27.4849,-3.45765,0.13073,0.49562
548.684,27.5035,-3.45779,0.13175,0.4954
549.284,27.5221,-3.45899,0.13719,0.49519
549.884,27.5407,-3.45895,0.13511,0.49497
550.484,27.55932,-3.45923,0.13542,0.49475
551.084,27.57794,-3.4603,0.1365,0.49454
551.684,27.59652,-3.46026,0.13854,0.49432
552.284,27.6151,-3.46025,0.13954,0.4941
552.884,27.6337,-3.46097,0.13911,0.49389
553.484,27.65235,-3.46156,0.13887,0.49367
554.084,27.671,-3.46158,0.13911,0.49346
554.684,27.68967,-3.46158,0.13999,0.49324
555.284,27.70833,-3.46159,0.13972,0.49302
555.884,27.72699,-3.46197,0.14102,0.49281
556.484,27.74565,-3.46319,0.14241,0.49259
557.084,27.7643,-3.4632,0.14074,0.49238
557.684,27.783,-3.46257,0.14123,0.49216
558.284,27.80172,-3.4631,0.13957,0.49194
558.884,27.82028,-3.46312,0.14391,0.49173
559.484,27.8389,-3.46288,0.14788,0.49151
560.084,27.8576,-3.46251,0.14729,0.4913
560.684,27.8763,-3.46313,0.14798,0.49108
561.284,27.89498,-3.46338,0.14956,0.49087
561.884,27.91377,-3.46451,0.14684,0.49065
562.484,27.9325,-3.46465,0.14538,0.49043
563.084,27.9512,-3.46712,0.1519,0.49022
563.684,27.9698,-3.46706,0.14951,0.49
564.284,27.98844,-3.46706,0.1503,0.48979
564.884,28.00712,-3.46706,0.15163,0.48957
565.484,28.02585,-3.46701,0.15644,0.48936
566.084,28.0446,-3.46808,0.15557,0.48914
566.684,28.06332,-3.46836,0.1583,0.48893
567.284,28.08199,-3.4689,0.15809,0.48871
567.884,28.1007,-3.46969,0.15982,0.4885
568.484,28.11944,-3.4697,0.15946,0.48828
569.084,28.1382,-3.46916,0.15874,0.48807
569.684,28.157,-3.46942,0.1598,0.48785
570.284,28.17584,-3.46957,0.16286,0.48764
570.884,28.1946,-3.46951,0.1634,0.48742
571.484,28.21335,-3.47089,0.16391,0.48721
572.084,28.2321,-3.47002,0.16096,0.48699
572.684,28.25086,-3.4716,0.16393,0.48678
573.284,28.2697,-3.47156,0.16546,0.48656
573.884,28.2885,-3.47253,0.16543,0.48635
574.484,28.30733,-3.47254,0.16358,0.48614
575.084,28.32612,-3.4725,0.16574,0.48592
575.684,28.3449,-3.4736,0.16873,0.48571
576.284,28.36365,-3.47386,0.1686,0.48549
576.884,28.3824,-3.47388,0.16646,0.48528
577.484,28.40117,-3.47395,0.16813,0.48506
578.084,28.42,-3.47519,0.16986,0.48485
578.684,28.43882,-3.47519,0.16864,0.48464
579.284,28.4576,-3.47511,0.17369,0.48442
579.884,28.4764,-3.47646,0.17127,0.48421
580.484,28.4952,-3.47636,0.17258,0.48399
581.084,28.51405,-3.47669,0.17245,0.48378
581.684,28.53286,-3.47746,0.17437,0.48357
582.284,28.5518,-3.47755,0.17631,0.48335
582.884,28.5706,-3.47893,0.17861,0.48314
583.484,28.58952,-3.47891,0.17862,0.48293
584.084,28.6084,-3.47943,0.17561,0.48271
584.684,28.6272,-3.48026,0.17794,0.4825
585.284,28.64605,-3.48023,0.1799,0.48229
585.884,28.665,-3.48025,0.1867,0.48207
586.484,28.6838,-3.4826,0.19144,0.48186
587.084,28.7026,-3.48285,0.19027,0.48165
587.684,28.7215,-3.48285,0.19098,0.48143
588.284,28.74039,-3.48355,0.18871,0.48122
588.884,28.7593,-3.48418,0.18947,0.48101
589.484,28.7782,-3.48417,0.19179,0.48079
590.084,28.7972,-3.48417,0.19263,0.48058
590.684,28.8161,-3.48416,0.19715,0.48037
591.284,28.83503,-3.48503,0.19591,0.48016
591.884,28.85393,-3.48547,0.19257,0.47994
592.484,28.87286,-3.48561,0.19495,0.47973
593.084,28.89173,-3.48684,0.19989,0.47952
593.684,28.9107,-3.48547,0.20191,0.47931
594.284,28.9296,-3.4855,0.20219,0.47909
594.884,28.94855,-3.48671,0.20318,0.47888
595.484,28.96755,-3.4868,0.20185,0.47867
596.084,28.98655,-3.48683,0.20293,0.47846
596.684,29.00556,-3.48732,0.21378,0.47825
597.284,29.0246,-3.48831,0.21628,0.47803
597.884,29.0436,-3.48958,0.21822,0.47782
598.484,29.06257,-3.49071,0.21935,0.47761
599.084,29.0815,-3.49086,0.22112,0.4774
599.684,29.10052,-3.49124,0.22078,0.47719
600.284,29.1195,-3.49219,0.22214,0.47698
600.884,29.13845,-3.49218,0.22533,0.47676
601.484,29.15744,-3.49218,0.22522,0.47655
602.084,29.17652,-3.49213,0.22613,0.47634
602.684,29.19557,-3.49328,0.23028,0.47613
603.284,29.21463,-3.49349,0.22942,0.47592
603.884,29.2337,-3.49354,0.23007,0.47571
604.484,29.2527,-3.49361,0.22717,0.4755
605.084,29.27177,-3.49359,0.22701,0.47529
605.684,29.29083,-3.49434,0.22931,0.47507
606.284,29.30992,-3.49493,0.23198,0.47486
606.884,29.329,-3.49621,0.22794,0.47465
607.484,29.34804,-3.49643,0.22744,0.47444
608.084,29.36712,-3.49762,0.22981,0.47423
608.684,29.38615,-3.49756,0.23029,0.47402
609.284,29.40529,-3.49747,0.2296,0.47381
609.884,29.42437,-3.49879,0.23082,0.4736
610.484,29.44349,-3.49889,0.23546,0.47339
611.084,29.46255,-3.49907,0.23635,0.47318
611.684,29.4816,-3.5002,0.24104,0.47297
612.284,29.50067,-3.50019,0.24016,0.47276
612.884,29.5197,-3.50148,0.24167,0.47255
613.484,29.5388,-3.5015,0.23987,0.47234
614.084,29.55803,-3.50199,0.24287,0.47213
614.684,29.57722,-3.50282,0.24349,0.47192
615.284,29.5964,-3.50318,0.24559,0.47171
615.884,29.61549,-3.50315,0.23833,0.4715
616.484,29.63465,-3.50321,0.22486,0.47129
617.084,29.6537,-3.50457,0.22836,0.47108
617.684,29.67285,-3.50448,0.2335,0.47088
618.284,29.69189,-3.50448,0.24511,0.47067
618.884,29.711,-3.50451,0.24971,0.47046
619.484,29.73015,-3.50579,0.2554,0.47025
620.084,29.7493,-3.50574,0.25723,0.47004
620.684,29.76847,-3.5072,0.25816,0.46983
621.284,29.78756,-3.50765,0.25969,0.46962
621.884,29.8067,-3.50881,0.258,0.46941
622.484,29.82585,-3.50931,0.26373,0.4692
623.084,29.84501,-3.51015,0.26621,0.469
623.684,29.8643,-3.50876,0.26535,0.46879
624.284,29.8835,-3.50995,0.26431,0.46858
624.884,29.90261,-3.51002,0.26794,0.46837
625.484,29.92178,-3.51118,0.27089,0.46816
626.084,29.9409,-3.51138,0.27523,0.46796
626.684,29.9599,-3.51138,0.27727,0.46775
627.284,29.97894,-3.51138,0.27831,0.46754
627.884,29.99805,-3.51138,0.27901,0.46733
628.484,30.01715,-3.51138,0.2783,0.46713
629.084,30.0364,-3.51141,0.27851,0.46692
629.684,30.05568,-3.51192,0.28165,0.46671
630.284,30.075,-3.51269,0.28279,0.4665
630.884,30.0942,-3.51414,0.28385,0.4663
631.484,30.1135,-3.51503,0.28681,0.46609
632.084,30.1327,-3.51603,0.28622,0.46588
632.684,30.15192,-3.51662,0.28797,0.46567
633.284,30.1711,-3.51664,0.29218,0.46547
633.884,30.19036,-3.51798,0.29104,0.46526
634.484,30.2096,-3.51796,0.29368,0.46505
635.084,30.22883,-3.51883,0.29365,0.46485
635.684,30.2481,-3.51927,0.29325,0.46464
636.284,30.26731,-3.51926,0.29882,0.46444
636.884,30.2866,-3.5203,0.30313,0.46423
637.484,30.30585,-3.52057,0.30787,0.46402
638.084,30.32511,-3.52058,0.31396,0.46382
638.684,30.3444,-3.52055,0.31148,0.46361
639.284,30.36362,-3.52154,0.31537,0.46341
639.884,30.38291,-3.5219,0.31536,0.4632
640.484,30.40217,-3.52191,0.31669,0.46299
641.084,30.4214,-3.5224,0.32024,0.46279
641.684,30.44067,-3.52228,0.31939,0.46258
642.284,30.46,-3.52268,0.32672,0.46238
642.884,30.4793,-3.52335,0.33009,0.46217
643.484,30.4986,-3.52334,0.32847,0.46197
644.084,30.51796,-3.52328,0.33006,0.46176
644.684,30.5373,-3.52538,0.33033,0.46156
645.284,30.5565,-3.52561,0.33231,0.46135
645.884,30.5758,-3.52554,0.33465,0.46115
646.484,30.5952,-3.5269,0.33903,0.46094
647.084,30.6145,-3.52696,0.33795,0.46074
647.684,30.63387,-3.52696,0.33981,0.46053
648.284,30.65333,-3.52699,0.34148,0.46033
648.884,30.67268,-3.52837,0.34431,0.46013
649.484,30.69207,-3.5283,0.34688,0.45992
650.084,30.71142,-3.52838,0.34898,0.45972
650.684,30.73074,-3.52959,0.35019,0.45951
651.284,30.75005,-3.52959,0.34687,0.45931
651.884,30.7694,-3.52898,0.35137,0.45911
652.484,30.7888,-3.52825,0.35263,0.4589
653.084,30.80823,-3.5282,0.35345,0.4587
653.684,30.82763,-3.52957,0.35329,0.4585
654.284,30.847,-3.52959,0.30746,0.45829
654.884,30.86642,-3.52958,0.27739,0.45809
655.484,30.8858,-3.53037,0.27524,0.45789
656.084,30.9052,-3.53105,0.26956,0.45768
656.684,30.9246,-3.53191,0.27073,0.45748
657.284,30.9441,-3.53192,0.27759,0.45728
657.884,30.96351,-3.53219,0.27376,0.45707
658.484,30.9829,-3.53321,0.27457,0.45687
659.084,31.00228,-3.53319,0.27941,0.45667
659.684,31.0217,-3.53401,0.28527,0.45647
660.284,31.04105,-3.53452,0.28407,0.45627
660.884,31.06049,-3.53453,0.27777,0.45606
661.484,31.07994,-3.53453,0.28041,0.45586
662.084,31.0993,-3.53453,0.2815,0.45566
662.684,31.11872,-3.53453,0.28538,0.45546
663.284,31.13819,-3.53451,0.28635,0.45526
663.884,31.15762,-3.53395,0.29001,0.45505
664.484,31.17708,-3.53482,0.2854,0.45485
665.084,31.1966,-3.53485,0.28227,0.45465
665.684,31.216,-3.53485,0.2858,0.45445
666.284,31.2355,-3.53485,0.2852,0.45425
666.884,31.25497,-3.53484,0.28268,0.45405
667.484,31.27445,-3.53565,0.28118,0.45385
668.084,31.2939,-3.53614,0.28281,0.45365
668.684,31.3134,-3.53617,0.28921,0.45345
669.284,31.33285,-3.53617,0.29212,0.45325
669.884,31.35233,-3.53615,0.29361,0.45305
670.484,31.3718,-3.53698,0.30079,0.45285
671.084,31.3913,-3.53753,0.3047,0.45264
671.684,31.41068,-3.53883,0.30786,0.45244
672.284,31.43018,-3.53881,0.30651,0.45224
672.884,31.4496,-3.53881,0.30622,0.45204
673.484,31.46903,-3.53881,0.31122,0.45185
674.084,31.48852,-3.54002,0.3124,0.45165
674.684,31.50808,-3.54011,0.31327,0.45145
675.284,31.52758,-3.54012,0.31392,0.45125
675.884,31.5471,-3.54008,0.31739,0.45105
676.484,31.56672,-3.54052,0.31939,0.45085
677.084,31.58625,-3.54255,0.31728,0.45065
677.684,31.6056,-3.54243,0.31544,0.45045
678.284,31.6251,-3.54242,0.31486,0.45025
678.884,31.6445,-3.54242,0.31199,0.45005
679.484,31.66409,-3.54242,0.31045,0.44985
680.084,31.6836,-3.54244,0.31176,0.44966
680.684,31.7033,-3.54269,0.31112,0.44946
681.284,31.72287,-3.54375,0.29559,0.44926
681.884,31.7424,-3.54377,0.27675,0.44906
682.484,31.76196,-3.54292,0.2746,0.44886
683.084,31.78156,-3.54245,0.27743,0.44867
683.684,31.8011,-3.54379,0.28334,0.44847
684.284,31.82068,-3.54374,0.27936,0.44827
684.884,31.8403,-3.54374,0.2767,0.44807
685.484,31.85988,-3.54374,0.28014,0.44787
686.084,31.87942,-3.54404,0.28136,0.44768
686.684,31.899,-3.54539,0.28303,0.44748
687.284,31.9185,-3.54539,0.28347,0.44728
687.884,31.93801,-3.54539,0.29072,0.44709
688.484,31.95755,-3.54539,0.28641,0.44689
689.084,31.9771,-3.54554,0.28924,0.44669
689.684,31.99666,-3.54676,0.28446,0.4465
690.284,32.0163,-3.54671,0.28626,0.4463
690.884,32.03585,-3.5467,0.28942,0.4461
691.484,32.05542,-3.54673,0.28604,0.44591
692.084,32.0749,-3.54716,0.28924,0.44571
692.684,32.09453,-3.54807,0.29153,0.44552
693.284,32.1141,-3.54703,0.29125,0.44532
693.884,32.13368,-3.54671,0.29674,0.44512
694.484,32.15323,-3.54664,0.29826,0.44493
695.084,32.17287,-3.54787,0.29634,0.44473
695.684,32.19246,-3.54797,0.29882,0.44454
696.284,32.21212,-3.54915,0.30137,0.44434
696.884,32.23178,-3.54931,0.30245,0.44415
697.484,32.25148,-3.55043,0.30684,0.44395
698.084,32.27113,-3.55065,0.31228,0.44376
698.684,32.29075,-3.55065,0.30895,0.44356
699.284,32.3104,-3.55065,0.31342,0.44337
699.884,32.33,-3.55065,0.31353,0.44317
700.484,32.34965,-3.55065,0.31526,0.44298
701.084,32.36929,-3.55092,0.3204,0.44278
701.684,32.38892,-3.55199,0.32535,0.44259
702.284,32.4086,-3.55197,0.33684,0.4424
702.884,32.4282,-3.55197,0.34218,0.4422
703.484,32.44786,-3.55197,0.35063,0.44201
704.084,32.46748,-3.55197,0.35708,0.44182
704.684,32.48715,-3.55197,0.3544,0.44162
705.284,32.5068,-3.55197,0.35059,0.44143
705.884,32.52645,-3.55202,0.35353,0.44123
706.484,32.5461,-3.55094,0.34819,0.44104
707.084,32.56578,-3.55205,0.34401,0.44085
707.684,32.58543,-3.55198,0.34178,0.44066
708.284,32.6051,-3.55223,0.33684,0.44046
708.884,32.62472,-3.55336,0.33565,0.44027
709.484,32.64438,-3.55371,0.33677,0.44008
710.084,32.66402,-3.55424,0.33374,0.43989
710.684,32.68365,-3.55427,0.32968,0.43969
711.284,32.70333,-3.55427,0.33055,0.4395
711.884,32.723,-3.55427,0.32636,0.43931
712.484,32.7427,-3.55427,0.32895,0.43912
713.084,32.7624,-3.55427,0.32294,0.43893
713.684,32.7821,-3.55427,0.31682,0.43873
714.284,32.8018,-3.55424,0.30683,0.43854
714.884,32.8215,-3.55495,0.3023,0.43835
715.484,32.84124,-3.55426,0.30353,0.43816
716.084,32.86094,-3.55427,0.30345,0.43797
716.684,32.88069,-3.55427,0.29365,0.43778
717.284,32.90038,-3.55427,0.28989,0.43759
717.884,32.92011,-3.55427,0.2907,0.4374
718.484,32.93985,-3.55427,0.29163,0.43721
719.084,32.95952,-3.55427,0.28975,0.43702
719.684,32.97923,-3.55553,0.28817,0.43682
720.284,32.99889,-3.55557,0.28376,0.43663
720.884,33.01858,-3.55558,0.27494,0.43644
721.484,33.0382,-3.55558,0.2745,0.43625
722.084,33.05793,-3.55558,0.27349,0.43606
722.684,33.07763,-3.55557,0.27592,0.43588
723.284,33.09738,-3.55669,0.27911,0.43569
723.884,33.1171,-3.5569,0.28344,0.4355
724.484,33.13698,-3.55607,0.28513,0.43531
725.084,33.15672,-3.55592,0.28226,0.43512
725.684,33.1765,-3.5559,0.2817,0.43493
726.284,33.19625,-3.5557,0.27592,0.43474
726.884,33.21607,-3.55559,0.26898,0.43455
727.484,33.23581,-3.55559,0.25767,0.43436
728.084,33.2556,-3.55588,0.25002,0.43417
728.684,33.27536,-3.55695,0.24436,0.43399
729.284,33.29508,-3.5569,0.23727,0.4338
729.884,33.3148,-3.5569,0.23897,0.43361
730.484,33.33457,-3.5569,0.23289,0.43342
730.584,33.33788,-3.5569,0.23321,0.43339