File: 01_Data/Polyester_Felt/STA/N2/30K_min/Polyester_Felt_STA_N2_30KData_210722_R2.csv
##Temp./Â°C,Time/min,Mass loss(subtr.2)/mg,DSC(subtr.2)/(mW/mg),Sensit./(uV/mW)
50.64,10.01,-0.01239,-0.0171892,0.6235
51.24,11.00411,-0.01182016,0.002741587,0.62349
51.84,11.21835,-0.01309752,0.01461802,0.62349
52.44,11.35895,-0.01524182,0.03085365,0.62348
53.04,11.47498,-0.01363673,0.04217262,0.62347
53.64,11.57199,-0.0160943,0.05450192,0.62346
54.24,11.6547,-0.01502485,0.06504982,0.62346
54.84,11.7294,-0.01702184,0.07344498,0.62345
55.44,11.79691,-0.01674868,0.08174061,0.62344
56.04,11.86277,-0.01449553,0.09173516,0.62343
56.64,11.9205,-0.0153468,0.10029,0.62341
57.24,11.9782,-0.01473162,0.10989,0.6234
57.84,12.03191,-0.01619724,0.11622,0.62339
58.44,12.08243,-0.01472047,0.12383,0.62338
59.04,12.1309,-0.01460919,0.12782,0.62336
59.64,12.1775,-0.002442726,0.13758,0.62335
60.24,12.22338,-0.02016536,0.14354,0.62334
60.84,12.2678,-0.02044263,0.15136,0.62332
61.44,12.30948,-0.01690997,0.15651,0.62331
62.04,12.35107,-0.01655568,0.16554,0.62329
62.64,12.39235,-0.01640663,0.16826,0.62327
63.24,12.43145,-0.01798835,0.17269,0.62326
63.84,12.4702,-0.01676654,0.18105,0.62324
64.44,12.50888,-0.01668966,0.18173,0.62322
65.04,12.54641,-0.01677183,0.18628,0.6232
65.64,12.5832,-0.01541268,0.19088,0.62318
66.24,12.61942,-0.01466752,0.19861,0.62316
66.84,12.65498,-0.01381065,0.20517,0.62314
67.44,12.6901,-0.01304637,0.21221,0.62312
68.04,12.7248,-0.01407575,0.21568,0.6231
68.64,12.75901,-0.01521373,0.22498,0.62308
69.24,12.79296,-0.01662133,0.22665,0.62305
69.84,12.82656,-0.0157699,0.23373,0.62303
70.44,12.85931,-0.01450585,0.23842,0.62301
71.04,12.89193,-0.01445642,0.24194,0.62298
71.64,12.92437,-0.01498489,0.2489,0.62296
72.24,12.95711,-0.01588276,0.24973,0.62293
72.84,12.98904,-0.01564134,0.24935,0.62291
73.44,13.02074,-0.01643693,0.25536,0.62288
74.04,13.05224,-0.0169389,0.25822,0.62285
74.64,13.0834,-0.01576644,0.25932,0.62283
75.24,13.11387,-0.01524567,0.26049,0.6228
75.84,13.1447,-0.01538126,0.26586,0.62277
76.44,13.1753,-0.01683559,0.26463,0.62274
77.04,13.20604,-0.01583496,0.26681,0.62271
77.64,13.23611,-0.0166941,0.26918,0.62268
78.24,13.26609,-0.01560135,0.26705,0.62265
78.84,13.29597,-0.01474671,0.26673,0.62262
79.44,13.3255,-0.01569677,0.26646,0.62259
80.04,13.35495,-0.01549363,0.26624,0.62256
80.64,13.3842,-0.01404147,0.26316,0.62253
81.24,13.41314,-0.01330267,0.2617,0.62249
81.84,13.44179,-0.01315471,0.26079,0.62246
82.44,13.4705,-0.01319262,0.2606,0.62242
83.04,13.49905,-0.0137278,0.26048,0.62239
83.64,13.5277,-0.01556895,0.25925,0.62235
84.24,13.5558,-0.01571305,0.25673,0.62232
84.84,13.58389,-0.01657782,0.25645,0.62228
85.44,13.61149,-0.01659011,0.25526,0.62225
86.04,13.63926,-0.01682785,0.25474,0.62221
86.64,13.6668,-0.01668321,0.25467,0.62217
87.24,13.6944,-0.01796561,0.25404,0.62213
87.84,13.7215,-0.01785931,0.25489,0.62209
88.44,13.7485,-0.01695498,0.25247,0.62205
89.04,13.77551,-0.01782509,0.25027,0.62201
89.64,13.8024,-0.01641045,0.25162,0.62197
90.24,13.82898,-0.01639383,0.25117,0.62193
90.84,13.85539,-0.01654214,0.25,0.62189
91.44,13.88175,-0.01636361,0.24939,0.62185
92.04,13.90797,-0.01502307,0.24965,0.62181
92.64,13.9342,-0.01634147,0.25002,0.62176
93.24,13.9602,-0.01788146,0.24806,0.62172
93.84,13.9859,-0.0188368,0.24691,0.62168
94.44,14.01167,-0.01870824,0.24484,0.62163
95.04,14.0372,-0.01788311,0.24745,0.62159
95.64,14.0627,-0.01792442,0.24987,0.62154
96.24,14.088,-0.0169547,0.24671,0.6215
96.84,14.1132,-0.01744472,0.24958,0.62145
97.44,14.1382,-0.01823544,0.25166,0.6214
98.04,14.16315,-0.01820045,0.25226,0.62136
98.64,14.188,-0.01824184,0.25698,0.62131
99.24,14.2128,-0.01684996,0.25733,0.62126
99.84,14.23753,-0.01849017,0.25646,0.62121
100.44,14.26203,-0.01895248,0.2561,0.62116
101.04,14.2866,-0.01972148,0.25935,0.62111
101.64,14.311,-0.01974822,0.26173,0.62106
102.24,14.3353,-0.01852285,0.26404,0.62101
102.84,14.35941,-0.01716712,0.26562,0.62096
103.44,14.38336,-0.01684171,0.26722,0.6209
104.04,14.40724,-0.01644304,0.26813,0.62085
104.64,14.43118,-0.01501568,0.2678,0.6208
105.24,14.45486,-0.01496488,0.26981,0.62075
105.84,14.47848,-0.01353835,0.27028,0.62069
106.44,14.50204,-0.01499116,0.27788,0.62064
107.04,14.5254,-0.01373395,0.27854,0.62058
107.64,14.5488,-0.01503988,0.28053,0.62053
108.24,14.5721,-0.01665748,0.2843,0.62047
108.84,14.5952,-0.01751155,0.28817,0.62041
109.44,14.61839,-0.01676641,0.29208,0.62036
110.04,14.64145,-0.01666289,0.29381,0.6203
110.64,14.66448,-0.01706355,0.29845,0.62024
111.24,14.6874,-0.01799608,0.30267,0.62018
111.84,14.7102,-0.01865439,0.30056,0.62012
112.44,14.73284,-0.01928671,0.30733,0.62006
113.04,14.7554,-0.01929816,0.30853,0.62
113.64,14.7779,-0.01928866,0.3134,0.61994
114.24,14.8005,-0.01861224,0.31717,0.61988
114.84,14.82288,-0.01800334,0.32262,0.61982
115.44,14.84518,-0.01798596,0.32498,0.61976
116.04,14.86744,-0.01798359,0.32645,0.6197
116.64,14.8895,-0.01799315,0.33101,0.61963
117.24,14.9116,-0.01663741,0.33325,0.61957
117.84,14.9335,-0.01675253,0.33616,0.61951
118.44,14.95539,-0.01591259,0.34132,0.61944
119.04,14.97725,-0.01666853,0.34477,0.61938
119.64,14.99903,-0.01662598,0.34557,0.61931
120.24,15.02075,-0.01810083,0.35099,0.61925
120.84,15.0424,-0.01827948,0.35581,0.61918
121.44,15.064,-0.01941616,0.35875,0.61911
122.04,15.08547,-0.0193369,0.36196,0.61905
122.64,15.10697,-0.01898023,0.36767,0.61898
123.24,15.12827,-0.01927095,0.37329,0.61891
123.84,15.14944,-0.01837114,0.37719,0.61884
124.44,15.1707,-0.01920631,0.37988,0.61877
125.04,15.1918,-0.01759852,0.38648,0.6187
125.64,15.213,-0.01764518,0.38713,0.61863
126.24,15.2341,-0.01764887,0.39379,0.61856
126.84,15.25508,-0.01763703,0.39689,0.61849
127.44,15.2761,-0.01730648,0.40121,0.61842
128.04,15.29698,-0.01633375,0.40541,0.61835
128.64,15.3178,-0.01711308,0.40932,0.61828
129.24,15.3385,-0.017662,0.412,0.6182
129.84,15.35917,-0.01766085,0.4134,0.61813
130.44,15.37977,-0.01766342,0.42079,0.61806
131.04,15.4004,-0.01867875,0.42539,0.61798
131.64,15.4209,-0.01896931,0.42739,0.61791
132.24,15.44144,-0.01896893,0.43363,0.61783
132.84,15.46186,-0.0189514,0.43413,0.61775
133.44,15.48216,-0.01980901,0.43942,0.61768
134.04,15.5025,-0.02027853,0.43954,0.6176
134.64,15.52268,-0.02031349,0.44258,0.61752
135.24,15.5428,-0.02176078,0.44988,0.61745
135.84,15.56295,-0.0202865,0.45383,0.61737
136.44,15.58296,-0.02007436,0.45597,0.61729
137.04,15.60299,-0.02006972,0.45666,0.61721
137.64,15.623,-0.02006168,0.46142,0.61713
138.24,15.64282,-0.01994498,0.46479,0.61705
138.84,15.66283,-0.01870118,0.46988,0.61697
139.44,15.6827,-0.01875905,0.47025,0.61689
140.04,15.7025,-0.02002694,0.47532,0.61681
140.64,15.72226,-0.01909314,0.48051,0.61673
141.24,15.742,-0.01880072,0.48213,0.61664
141.84,15.76164,-0.02009526,0.48191,0.61656
142.44,15.7813,-0.0186931,0.48635,0.61648
143.04,15.80088,-0.01874711,0.49038,0.6164
143.64,15.8204,-0.01875043,0.49121,0.61631
144.24,15.84,-0.01842356,0.49318,0.61623
144.84,15.8593,-0.01742871,0.49482,0.61614
145.44,15.87871,-0.01743439,0.50038,0.61606
146.04,15.8981,-0.01862677,0.5024,0.61597
146.64,15.91743,-0.01883524,0.50238,0.61588
147.24,15.9368,-0.01746684,0.50314,0.6158
147.84,15.95606,-0.01744108,0.50457,0.61571
148.44,15.97529,-0.01743654,0.50741,0.61562
149.04,15.99451,-0.01829048,0.50817,0.61553
149.64,16.01373,-0.01883602,0.51113,0.61545
150.24,16.03293,-0.01947915,0.51308,0.61536
150.84,16.05205,-0.02015982,0.51775,0.61527
151.44,16.07114,-0.01973351,0.51878,0.61518
152.04,16.0901,-0.01997281,0.52452,0.61509
152.64,16.10911,-0.01894682,0.52571,0.615
153.24,16.12803,-0.01840748,0.52765,0.6149
153.84,16.1469,-0.0183235,0.52915,0.61481
154.44,16.16587,-0.01969003,0.53272,0.61472
155.04,16.1847,-0.01972828,0.53471,0.61463
155.64,16.20364,-0.01972719,0.53653,0.61453
156.24,16.22245,-0.01970475,0.53717,0.61444
156.84,16.2412,-0.02049329,0.54298,0.61435
157.44,16.25992,-0.02105066,0.54087,0.61425
158.04,16.27867,-0.02105098,0.54855,0.61416
158.64,16.29735,-0.02105132,0.55043,0.61406
159.24,16.316,-0.02106766,0.55318,0.61397
159.84,16.33472,-0.02134097,0.55595,0.61387
160.44,16.35344,-0.02148143,0.55958,0.61377
161.04,16.37211,-0.02106484,0.56001,0.61368
161.64,16.39076,-0.02105099,0.56269,0.61358
162.24,16.40939,-0.02104552,0.56771,0.61348
162.84,16.428,-0.02056692,0.57052,0.61338
163.44,16.4465,-0.0197032,0.57008,0.61329
164.04,16.46499,-0.01973646,0.5715,0.61319
164.64,16.48343,-0.01973973,0.5761,0.61309
165.24,16.50189,-0.01974001,0.57924,0.61299
165.84,16.5203,-0.01974004,0.58141,0.61289
166.44,16.53868,-0.01973805,0.58312,0.61278
167.04,16.55708,-0.02090994,0.58561,0.61268
167.64,16.57546,-0.02143122,0.59109,0.61258
168.24,16.59381,-0.02253023,0.58872,0.61248
168.84,16.612,-0.02248289,0.58528,0.61238
169.44,16.63034,-0.02248005,0.58965,0.61227
170.04,16.64866,-0.02247998,0.59219,0.61217
170.64,16.66692,-0.02248,0.59141,0.61207
171.24,16.68517,-0.02248,0.59905,0.61196
171.84,16.70355,-0.02248001,0.60107,0.61186
172.44,16.72174,-0.02248009,0.60182,0.61175
173.04,16.7399,-0.02247995,0.60436,0.61165
173.64,16.75806,-0.0224693,0.6041,0.61154
174.24,16.7762,-0.02213449,0.60619,0.61143
174.84,16.79431,-0.02111812,0.61302,0.61133
175.44,16.81236,-0.02116749,0.61694,0.61122
176.04,16.83045,-0.02117173,0.61681,0.61111
176.64,16.8485,-0.02111076,0.6212,0.61101
177.24,16.86651,-0.0214222,0.62773,0.6109
177.84,16.8845,-0.02118353,0.62481,0.61079
178.44,16.9025,-0.02116157,0.63071,0.61068
179.04,16.92045,-0.02116,0.63129,0.61057
179.64,16.93846,-0.02116089,0.6309,0.61046
180.24,16.95632,-0.02126206,0.63267,0.61035
180.84,16.97416,-0.02333894,0.6369,0.61024
181.44,16.99196,-0.02378511,0.64014,0.61013
182.04,17.00984,-0.02380013,0.64407,0.61001
182.64,17.02751,-0.02379973,0.64397,0.6099
183.24,17.04521,-0.02379345,0.64692,0.60979
183.84,17.063,-0.02374238,0.65231,0.60968
184.44,17.08069,-0.02484483,0.65135,0.60956
185.04,17.09825,-0.02512226,0.65268,0.60945
185.64,17.11586,-0.02511942,0.65352,0.60934
186.24,17.13355,-0.02511028,0.6549,0.60922
186.84,17.15104,-0.02508269,0.6594,0.60911
187.44,17.16866,-0.02385041,0.66321,0.60899
188.04,17.18637,-0.02381019,0.66555,0.60887
188.64,17.2041,-0.023801,0.66746,0.60876
189.24,17.2218,-0.02380005,0.66568,0.60864
189.84,17.2395,-0.0238,0.67181,0.60852
190.44,17.2572,-0.02380014,0.67492,0.60841
191.04,17.2747,-0.02380183,0.67817,0.60829
191.64,17.29221,-0.02381254,0.68022,0.60817
192.24,17.3096,-0.02377792,0.68815,0.60805
192.84,17.3271,-0.02482871,0.69538,0.60793
193.44,17.3445,-0.02455959,0.70358,0.60781
194.04,17.36191,-0.02341948,0.70772,0.60769
194.64,17.3793,-0.0234617,0.70817,0.60757
195.24,17.3967,-0.02345885,0.71022,0.60745
195.84,17.41408,-0.02343958,0.71366,0.60733
196.44,17.43141,-0.02336223,0.71958,0.60721
197.04,17.4487,-0.0221572,0.72129,0.60709
197.64,17.46604,-0.022149,0.72303,0.60697
198.24,17.48337,-0.02212608,0.72558,0.60684
198.84,17.50066,-0.02249229,0.72598,0.60672
199.44,17.518,-0.02247626,0.72848,0.6066
200.04,17.5353,-0.02247939,0.73559,0.60648
200.64,17.5525,-0.02247995,0.73997,0.60635
201.24,17.5698,-0.02248,0.73804,0.60623
201.84,17.58706,-0.02248007,0.7403,0.6061
202.44,17.6043,-0.02248085,0.74052,0.60598
203.04,17.62148,-0.02248389,0.74707,0.60585
203.64,17.63869,-0.02244841,0.74917,0.60573
204.24,17.6559,-0.0235997,0.75044,0.6056
204.84,17.67309,-0.02381354,0.75463,0.60547
205.44,17.69014,-0.02511736,0.75593,0.60534
206.04,17.70726,-0.02509621,0.76029,0.60522
206.64,17.72436,-0.02510821,0.75857,0.60509
207.24,17.74149,-0.02510991,0.75522,0.60496
207.84,17.7586,-0.02511003,0.75971,0.60483
208.44,17.7757,-0.0251105,0.76254,0.6047
209.04,17.79285,-0.02511402,0.76723,0.60457
209.64,17.8099,-0.02478864,0.76994,0.60444
210.24,17.82691,-0.02372936,0.77302,0.60431
210.84,17.84394,-0.02378261,0.77368,0.60418
211.44,17.86095,-0.02378859,0.76994,0.60405
212.04,17.87797,-0.0239781,0.7788,0.60392
212.64,17.89501,-0.02520116,0.7807,0.60379
213.24,17.91208,-0.02511577,0.78503,0.60366
213.84,17.92909,-0.02510969,0.78843,0.60353
214.44,17.9461,-0.02510986,0.78784,0.60339
215.04,17.96311,-0.02510964,0.79146,0.60326
215.64,17.98007,-0.02510992,0.79394,0.60313
216.24,17.99703,-0.02525254,0.80234,0.60299
216.84,18.01398,-0.02655729,0.80684,0.60286
217.44,18.0309,-0.02778805,0.81322,0.60272
218.04,18.04786,-0.02772817,0.81206,0.60259
218.64,18.06481,-0.02773652,0.81279,0.60245
219.24,18.08169,-0.02773047,0.81949,0.60232
219.84,18.0986,-0.02651607,0.82819,0.60218
220.44,18.11543,-0.02634979,0.83491,0.60205
221.04,18.13229,-0.02757396,0.83851,0.60191
221.64,18.14913,-0.0277182,0.84466,0.60177
222.24,18.16597,-0.02886202,0.84657,0.60164
222.84,18.18283,-0.02904671,0.8496,0.6015
223.44,18.19967,-0.02906021,0.8575,0.60136
224.04,18.21651,-0.02906072,0.86141,0.60122
224.64,18.23333,-0.029065,0.86822,0.60108
225.24,18.25018,-0.0290631,0.87334,0.60094
225.84,18.267,-0.02962728,0.88089,0.6008
226.44,18.28383,-0.02938093,0.89018,0.60066
227.04,18.3006,-0.02839752,0.90026,0.60052
227.64,18.31747,-0.02840099,0.90788,0.60038
228.24,18.33425,-0.02840008,0.91579,0.60024
228.84,18.35096,-0.02839983,0.92298,0.6001
229.44,18.3677,-0.02840318,0.92645,0.59996
230.04,18.38446,-0.02844447,0.92927,0.59982
230.64,18.40117,-0.02764196,0.94059,0.59967
231.24,18.4179,-0.02707003,0.94656,0.59953
231.84,18.4346,-0.02731501,0.95574,0.59939
232.44,18.4514,-0.02843751,0.96645,0.59925
233.04,18.46816,-0.02835499,0.97839,0.5991
233.64,18.48493,-0.02945013,0.99302,0.59896
234.24,18.50163,-0.02971012,1.00515,0.59881
234.84,18.51837,-0.02972117,1.01497,0.59867
235.44,18.5351,-0.02972025,1.02679,0.59852
236.04,18.5517,-0.02972002,1.04711,0.59838
236.64,18.56833,-0.02972,1.06569,0.59823
237.24,18.585,-0.02972,1.08497,0.59809
237.84,18.6017,-0.02972,1.10755,0.59794
238.44,18.61829,-0.02972,1.12985,0.59779
239.04,18.63499,-0.02972,1.1554,0.59765
239.64,18.65162,-0.02972,1.17489,0.5975
240.24,18.66827,-0.02972,1.2051,0.59735
240.84,18.68497,-0.02971999,1.2344,0.5972
241.44,18.70141,-0.02971997,1.26658,0.59706
242.04,18.71794,-0.02972041,1.29975,0.59691
242.64,18.73457,-0.02972603,1.33362,0.59676
243.24,18.75119,-0.02928115,1.37048,0.59661
243.84,18.76782,-0.02835795,1.41403,0.59646
244.44,18.7846,-0.02839338,1.46366,0.59631
245.04,18.80134,-0.02839994,1.51301,0.59616
245.64,18.81808,-0.02839713,1.56746,0.59601
246.24,18.83474,-0.02835322,1.62356,0.59586
246.84,18.85135,-0.02917247,1.68574,0.5957
247.44,18.86797,-0.02974071,1.75376,0.59555
248.04,18.88455,-0.02972144,1.82739,0.5954
248.64,18.9011,-0.0297129,1.89659,0.59525
249.24,18.9177,-0.02998556,1.96994,0.5951
249.84,18.93421,-0.03004054,2.04507,0.59494
250.44,18.9508,-0.03004973,2.12277,0.59479
251.04,18.9675,-0.03005009,2.20088,0.59464
251.64,18.98414,-0.03005002,2.2771,0.59448
252.24,19.00081,-0.03005002,2.35051,0.59433
252.84,19.01763,-0.03004955,2.41654,0.59417
253.44,19.03436,-0.03004381,2.47498,0.59402
254.04,19.05101,-0.03047025,2.52608,0.59386
254.64,19.06762,-0.03140525,2.56282,0.59371
255.24,19.0842,-0.03136695,2.5785,0.59355
255.84,19.10067,-0.03136018,2.56795,0.5934
256.44,19.11712,-0.03135992,2.53326,0.59324
257.04,19.13363,-0.03135999,2.47049,0.59308
257.64,19.15024,-0.03136,2.38452,0.59293
258.24,19.16682,-0.03136004,2.27443,0.59277
258.84,19.18349,-0.03136034,2.16884,0.59261
259.44,19.20019,-0.03136021,2.05304,0.59245
260.04,19.21688,-0.03133522,1.9424,0.5923
260.64,19.23343,-0.03107247,1.8431,0.59214
261.24,19.25,-0.03005015,1.75441,0.59198
261.84,19.2665,-0.03020256,1.67021,0.59182
262.44,19.28292,-0.03110711,1.59881,0.59166
263.04,19.29941,-0.03102209,1.53461,0.5915
263.64,19.31585,-0.03214719,1.47692,0.59134
264.24,19.3323,-0.03233804,1.42838,0.59118
264.84,19.34864,-0.03235094,1.37739,0.59102
265.44,19.36506,-0.03235021,1.33201,0.59086
266.04,19.38148,-0.03234987,1.29281,0.5907
266.64,19.39791,-0.03235156,1.2572,0.59053
267.24,19.41424,-0.03239742,1.22499,0.59037
267.84,19.43061,-0.03369052,1.20143,0.59021
268.44,19.447,-0.03364586,1.17482,0.59005
269.04,19.46337,-0.03367101,1.15219,0.58989
269.64,19.4797,-0.03364805,1.13295,0.58972
270.24,19.496,-0.03437525,1.1134,0.58956
270.84,19.51247,-0.03432454,1.10126,0.5894
271.44,19.52881,-0.0343197,1.08841,0.58923
272.04,19.54524,-0.03431985,1.07458,0.58907
272.64,19.56161,-0.0343197,1.06593,0.5889
273.24,19.5779,-0.03432294,1.05442,0.58874
273.84,19.59431,-0.03350137,1.03927,0.58857
274.44,19.61064,-0.03373205,1.03323,0.58841
275.04,19.62699,-0.03435755,1.0285,0.58824
275.64,19.64329,-0.03433321,1.03297,0.58808
276.24,19.65965,-0.03432997,1.02573,0.58791
276.84,19.67596,-0.03433154,1.0174,0.58774
277.44,19.69229,-0.03434382,1.01365,0.58758
278.04,19.70861,-0.03554247,1.01477,0.58741
278.64,19.72495,-0.03561564,1.01192,0.58724
279.24,19.74132,-0.03563861,1.00856,0.58707
279.84,19.75767,-0.03564351,0.99918,0.58691
280.44,19.77403,-0.03568233,0.99086,0.58674
281.04,19.7904,-0.03494954,0.99701,0.58657
281.64,19.80675,-0.03429687,0.99652,0.5864
282.24,19.82313,-0.03432634,0.9951,0.58623
282.84,19.8395,-0.03433022,0.99292,0.58606
283.44,19.85587,-0.0343374,0.99121,0.58589
284.04,19.87231,-0.03377545,0.98994,0.58572
284.64,19.88866,-0.03298579,0.99182,0.58555
285.24,19.905,-0.03300528,0.98853,0.58538
285.84,19.92139,-0.03301744,0.98965,0.58521
286.44,19.9377,-0.03415624,0.99108,0.58504
287.04,19.95409,-0.03429948,0.99186,0.58487
287.64,19.97043,-0.03468698,0.99612,0.5847
288.24,19.98682,-0.03570308,0.99586,0.58453
288.84,20.00317,-0.0356469,0.99678,0.58436
289.44,20.0195,-0.03563984,0.99595,0.58418
290.04,20.03586,-0.03563991,0.99968,0.58401
290.64,20.05224,-0.03564011,0.99709,0.58384
291.24,20.0686,-0.03563936,1.00188,0.58366
291.84,20.085,-0.03562698,0.99651,0.58349
292.44,20.10138,-0.03558777,1.00438,0.58332
293.04,20.11776,-0.0344213,1.00531,0.58314
293.64,20.13413,-0.03434358,1.00691,0.58297
294.24,20.15053,-0.03433029,1.00609,0.5828
294.84,20.16687,-0.03432934,1.0031,0.58262
295.44,20.18309,-0.03432568,0.9991,0.58245
296.04,20.1995,-0.0343375,1.00026,0.58227
296.64,20.2158,-0.03487706,1.00548,0.5821
297.24,20.23215,-0.03564613,1.00268,0.58192
297.84,20.24849,-0.03563927,1.00163,0.58174
298.44,20.26497,-0.0356364,0.99566,0.58157
299.04,20.2814,-0.03562663,0.99518,0.58139
299.64,20.29782,-0.03611933,0.99773,0.58122
300.24,20.31425,-0.0370117,0.99639,0.58104
300.84,20.33066,-0.03696124,1.00083,0.58086
301.44,20.34706,-0.03696124,0.99825,0.58068
302.04,20.3635,-0.0369926,0.9965,0.58051
302.64,20.3799,-0.03826434,0.99695,0.58033
303.24,20.3963,-0.03831308,0.9954,0.58015
303.84,20.41272,-0.03746316,0.99729,0.57997
304.44,20.4291,-0.03727683,0.99809,0.57979
305.04,20.44559,-0.03720119,0.99871,0.57961
305.64,20.46199,-0.03589218,0.99443,0.57944
306.24,20.47841,-0.03597789,0.99494,0.57926
306.84,20.49482,-0.03597182,0.99503,0.57908
307.44,20.51119,-0.03597018,0.99634,0.5789
308.04,20.52758,-0.03596843,0.9975,0.57872
308.64,20.54395,-0.03595097,0.99731,0.57854
309.24,20.56035,-0.03631627,0.9956,0.57836
309.84,20.57674,-0.03655108,0.99653,0.57817
310.44,20.5931,-0.03781232,1.00069,0.57799
311.04,20.60953,-0.03794527,0.99789,0.57781
311.64,20.62591,-0.03834142,1.00008,0.57763
312.24,20.64232,-0.03858344,1.00244,0.57745
312.84,20.65867,-0.03860126,1.00644,0.57727
313.44,20.67509,-0.03860034,1.01034,0.57708
314.04,20.69148,-0.03860002,1.00695,0.5769
314.64,20.70786,-0.03859996,1.00706,0.57672
315.24,20.72428,-0.03859953,1.00625,0.57654
315.84,20.74069,-0.03859906,1.00733,0.57635
316.44,20.75712,-0.03862797,1.01092,0.57617
317.04,20.77348,-0.03892722,1.00708,0.57599
317.64,20.7899,-0.03958972,1.00984,0.5758
318.24,20.80629,-0.03995198,1.00876,0.57562
318.84,20.82268,-0.03992261,1.01231,0.57543
319.44,20.8391,-0.03992071,1.01352,0.57525
320.04,20.85549,-0.04000003,1.01199,0.57507
320.64,20.87175,-0.04131159,1.01366,0.57488
321.24,20.88811,-0.04123065,1.01347,0.57469
321.84,20.90458,-0.04123821,1.01285,0.57451
322.44,20.92099,-0.04123993,1.00856,0.57432
323.04,20.93739,-0.04124002,1.00437,0.57414
323.64,20.954,-0.04124001,1.00871,0.57395
324.24,20.97052,-0.04124001,1.00974,0.57377
324.84,20.987,-0.04123952,1.01251,0.57358
325.44,21.00347,-0.04123516,1.00759,0.57339
326.04,21.0199,-0.04124119,1.01059,0.57321
326.64,21.03634,-0.04185557,1.00814,0.57302
327.24,21.0528,-0.04256773,1.00942,0.57283
327.84,21.06919,-0.04255695,1.00752,0.57264
328.44,21.08563,-0.04246837,1.00547,0.57246
329.04,21.1021,-0.043703,1.00894,0.57227
329.64,21.11859,-0.04398464,1.00694,0.57208
330.24,21.13511,-0.04397288,1.0034,0.57189
330.84,21.15158,-0.04445061,1.00434,0.5717
331.44,21.168,-0.04541424,1.00589,0.57151
332.04,21.18453,-0.04406671,1.01005,0.57132
332.64,21.20093,-0.0439812,1.01042,0.57114
333.24,21.21735,-0.04397792,1.00932,0.57095
333.84,21.23384,-0.0439601,1.00554,0.57076
334.44,21.2503,-0.0439593,1.00675,0.57057
335.04,21.26684,-0.04268689,1.0063,0.57038
335.64,21.2833,-0.04266196,1.00579,0.57019
336.24,21.29984,-0.04265992,1.0058,0.57
336.84,21.3163,-0.04264927,1.00677,0.5698
337.44,21.3328,-0.04324081,1.00748,0.56961
338.04,21.34935,-0.04459501,1.00708,0.56942
338.64,21.36583,-0.04529615,1.00736,0.56923
339.24,21.38234,-0.04615504,1.00796,0.56904
339.84,21.39886,-0.04662047,1.01149,0.56885
340.44,21.41542,-0.04661315,1.01354,0.56866
341.04,21.43192,-0.04661019,1.01175,0.56846
341.64,21.4484,-0.04661007,1.01286,0.56827
342.24,21.46501,-0.04661171,1.01367,0.56808
342.84,21.48152,-0.04661739,1.01249,0.56789
343.44,21.4981,-0.04653573,1.01322,0.56769
344.04,21.51461,-0.04784108,1.00847,0.5675
344.64,21.53121,-0.04791843,1.00941,0.56731
345.24,21.54778,-0.04792612,1.01109,0.56711
345.84,21.5643,-0.04800124,1.01054,0.56692
346.44,21.5809,-0.04686944,1.00856,0.56673
347.04,21.59747,-0.04660622,1.00757,0.56653
347.64,21.61407,-0.04660654,1.01145,0.56634
348.24,21.63061,-0.04660458,1.00772,0.56614
348.84,21.6472,-0.04703291,1.00641,0.56595
349.44,21.66379,-0.04798287,1.00752,0.56575
350.04,21.6804,-0.04793407,1.00635,0.56556
350.64,21.69696,-0.04910232,1.00923,0.56536
351.24,21.71355,-0.04922612,1.00902,0.56517
351.84,21.73019,-0.0492399,1.00728,0.56497
352.44,21.7468,-0.04923926,1.00825,0.56478
353.04,21.76326,-0.04923161,1.01485,0.56458
353.64,21.7799,-0.04935916,1.01481,0.56439
354.24,21.7965,-0.04935042,1.01712,0.56419
354.84,21.8131,-0.04999979,1.01554,0.56399
355.44,21.8297,-0.05067453,1.0114,0.5638
356.04,21.84645,-0.05067596,1.01384,0.5636
356.64,21.86307,-0.05068006,1.0134,0.5634
357.24,21.87973,-0.05066136,1.00768,0.56321
357.84,21.8964,-0.05171036,1.00891,0.56301
358.44,21.91305,-0.05315071,1.00996,0.56281
359.04,21.9297,-0.05330057,1.01308,0.56261
359.64,21.94635,-0.05330056,1.01345,0.56242
360.24,21.96303,-0.05330005,1.01264,0.56222
360.84,21.97974,-0.0533,1.01452,0.56202
361.44,21.99641,-0.05330001,1.01741,0.56182
362.04,22.01306,-0.05330009,1.016,0.56162
362.64,22.02978,-0.05329994,1.01718,0.56142
363.24,22.04649,-0.05329269,1.0207,0.56123
363.84,22.06317,-0.05394748,1.02637,0.56103
364.44,22.07985,-0.05462366,1.02646,0.56083
365.04,22.09654,-0.05500267,1.02348,0.56063
365.64,22.11325,-0.05599282,1.0235,0.56043
366.24,22.12996,-0.05593971,1.02203,0.56023
366.84,22.14666,-0.05684496,1.02252,0.56003
367.44,22.16338,-0.0558057,1.02292,0.55983
368.04,22.18016,-0.05627379,1.014,0.55963
368.64,22.1969,-0.05742558,1.01345,0.55943
369.24,22.2136,-0.05732995,1.01065,0.55923
369.84,22.2303,-0.05804865,1.01581,0.55903
370.44,22.2471,-0.05870124,1.0137,0.55883
371.04,22.26385,-0.05869372,1.01235,0.55863
371.64,22.28061,-0.05870874,1.0162,0.55843
372.24,22.29741,-0.05997081,1.01527,0.55822
372.84,22.31419,-0.05998813,1.01655,0.55802
373.44,22.3309,-0.05998994,1.0163,0.55782
374.04,22.34765,-0.05998998,1.01884,0.55762
374.64,22.36443,-0.05998954,1.0179,0.55742
375.24,22.3812,-0.05998831,1.02117,0.55722
375.84,22.398,-0.06001208,1.02334,0.55701
376.44,22.41486,-0.06047163,1.02486,0.55681
377.04,22.4317,-0.06150728,1.03966,0.55661
377.64,22.44851,-0.06246011,1.03665,0.55641
378.24,22.4653,-0.06306767,1.03577,0.5562
378.84,22.48209,-0.06359243,1.03539,0.556
379.44,22.49894,-0.0643988,1.03283,0.5558
380.04,22.51576,-0.06438675,1.03745,0.5556
380.64,22.53262,-0.06438749,1.03453,0.55539
381.24,22.54948,-0.06436586,1.03968,0.55519
381.84,22.56631,-0.06554295,1.04236,0.55498
382.44,22.58314,-0.06593662,1.04179,0.55478
383.04,22.59999,-0.06700998,1.04292,0.55458
383.64,22.6169,-0.06700246,1.04726,0.55437
384.24,22.63371,-0.06694029,1.04976,0.55417
384.84,22.65059,-0.06805139,1.04942,0.55396
385.44,22.66751,-0.06858323,1.05473,0.55376
386.04,22.6844,-0.06999485,1.05391,0.55356
386.64,22.70129,-0.07128515,1.05518,0.55335
387.24,22.71815,-0.07283236,1.05856,0.55315
387.84,22.73507,-0.07434652,1.06026,0.55294
388.44,22.75196,-0.07577542,1.06398,0.55274
389.04,22.7689,-0.0771654,1.06622,0.55253
389.64,22.78579,-0.0777922,1.07222,0.55233
390.24,22.80274,-0.07871004,1.07333,0.55212
390.84,22.81965,-0.07970972,1.07612,0.55191
391.44,22.8366,-0.0801048,1.08363,0.55171
392.04,22.8535,-0.0796609,1.08681,0.5515
392.64,22.87046,-0.08085253,1.08871,0.5513
393.24,22.88743,-0.08236026,1.09336,0.55109
393.84,22.9044,-0.08265714,1.09831,0.55088
394.44,22.9214,-0.08269802,1.10306,0.55068
395.04,22.93844,-0.08269989,1.11087,0.55047
395.64,22.95541,-0.08269292,1.11694,0.55026
396.24,22.9724,-0.08325784,1.12361,0.55006
396.84,22.9894,-0.08402313,1.13456,0.54985
397.44,23.0064,-0.08540676,1.13768,0.54964
398.04,23.0234,-0.08674535,1.14538,0.54944
398.64,23.04041,-0.08898852,1.15507,0.54923
399.24,23.05744,-0.09164826,1.16405,0.54902
399.84,23.0745,-0.09572361,1.17363,0.54881
400.44,23.09141,-0.09836103,1.18442,0.54861
401.04,23.10841,-0.10125,1.19416,0.5484
401.64,23.12544,-0.10451,1.20208,0.54819
402.24,23.14252,-0.10663,1.21261,0.54798
402.84,23.1596,-0.10941,1.22049,0.54777
403.44,23.17667,-0.11217,1.22739,0.54757
404.04,23.19376,-0.11376,1.23844,0.54736
404.64,23.2108,-0.11447,1.24985,0.54715
405.24,23.22789,-0.11669,1.26121,0.54694
405.84,23.24495,-0.1189,1.27351,0.54673
406.44,23.26204,-0.12101,1.28265,0.54652
407.04,23.27908,-0.12384,1.29393,0.54631
407.64,23.29619,-0.12642,1.30284,0.54611
408.24,23.31332,-0.12903,1.31393,0.5459
408.84,23.33049,-0.13328,1.31934,0.54569
409.44,23.34761,-0.1373,1.32732,0.54548
410.04,23.3648,-0.14229,1.3343,0.54527
410.64,23.38195,-0.14605,1.33992,0.54506
411.24,23.3991,-0.14986,1.35307,0.54485
411.84,23.41615,-0.15378,1.35853,0.54464
412.44,23.4333,-0.15737,1.3753,0.54443
413.04,23.4504,-0.16169,1.38369,0.54422
413.64,23.46751,-0.16661,1.38727,0.54401
414.24,23.4847,-0.17139,1.3982,0.5438
414.84,23.5018,-0.17784,1.40808,0.54359
415.44,23.51896,-0.18294,1.42188,0.54338
416.04,23.53614,-0.18917,1.42746,0.54317
416.64,23.5533,-0.19447,1.42485,0.54296
417.24,23.57048,-0.20061,1.4251,0.54275
417.84,23.58768,-0.20777,1.41969,0.54254
418.44,23.60489,-0.21401,1.40862,0.54232
419.04,23.62211,-0.22077,1.40056,0.54211
419.64,23.63935,-0.22541,1.39172,0.5419
420.24,23.6566,-0.23215,1.38906,0.54169
420.84,23.6738,-0.23833,1.38167,0.54148
421.44,23.69108,-0.24666,1.37211,0.54127
422.04,23.70831,-0.255,1.36661,0.54106
422.64,23.72553,-0.2641,1.36228,0.54085
423.24,23.7427,-0.27363,1.36378,0.54063
423.84,23.75989,-0.28074,1.36202,0.54042
424.44,23.77711,-0.29045,1.35889,0.54021
425.04,23.79428,-0.29848,1.36046,0.54
425.64,23.81145,-0.30779,1.36314,0.53979
426.24,23.82871,-0.31696,1.3654,0.53957
426.84,23.846,-0.32624,1.37135,0.53936
427.44,23.8632,-0.3383,1.38302,0.53915
428.04,23.8805,-0.34801,1.38202,0.53894
428.64,23.89779,-0.36015,1.39287,0.53873
429.24,23.915,-0.36969,1.40033,0.53851
429.84,23.93224,-0.38229,1.41258,0.5383
430.44,23.94945,-0.395,1.42622,0.53809
431.04,23.96669,-0.40673,1.44008,0.53787
431.64,23.98395,-0.42109,1.45953,0.53766
432.24,24.0012,-0.43224,1.47816,0.53745
432.84,24.0184,-0.44725,1.50591,0.53724
433.44,24.03572,-0.45993,1.54028,0.53702
434.04,24.053,-0.47582,1.57316,0.53681
434.64,24.0702,-0.49179,1.60573,0.5366
435.24,24.08752,-0.5084,1.64087,0.53638
435.84,24.10483,-0.5295,1.68416,0.53617
436.44,24.1221,-0.54639,1.73087,0.53596
437.04,24.1394,-0.56792,1.77852,0.53574
437.64,24.1567,-0.58505,1.82663,0.53553
438.24,24.17399,-0.60784,1.87318,0.53532
438.84,24.1913,-0.62865,1.92222,0.5351
439.44,24.2086,-0.65065,1.97313,0.53489
440.04,24.22588,-0.67593,2.02537,0.53467
440.64,24.24328,-0.69838,2.07863,0.53446
441.24,24.26064,-0.72737,2.13234,0.53425
441.84,24.27802,-0.74977,2.18037,0.53403
442.44,24.29543,-0.77839,2.23732,0.53382
443.04,24.31288,-0.80344,2.29492,0.5336
443.64,24.3303,-0.83198,2.35465,0.53339
444.24,24.3477,-0.86238,2.41416,0.53317
444.84,24.3652,-0.89094,2.47416,0.53296
445.44,24.38267,-0.92615,2.53394,0.53274
446.04,24.4001,-0.9545,2.58978,0.53253
446.64,24.41764,-0.99192,2.6423,0.53232
447.24,24.43517,-1.0236,2.70136,0.5321
447.84,24.45275,-1.06171,2.76342,0.53189
448.44,24.47035,-1.0977,2.82122,0.53167
449.04,24.48798,-1.13489,2.87435,0.53146
449.64,24.50563,-1.17713,2.92139,0.53124
450.24,24.52325,-1.21293,2.96433,0.53103
450.84,24.5409,-1.2583,3.00835,0.53081
451.44,24.55847,-1.29407,3.04478,0.5306
452.04,24.5761,-1.33596,3.0817,0.53038
452.64,24.59374,-1.37997,3.11946,0.53017
453.24,24.6114,-1.43023,3.15132,0.52995
453.84,24.6292,-1.4858,3.18266,0.52973
454.44,24.6469,-1.52908,3.20879,0.52952
455.04,24.66468,-1.57302,3.23509,0.5293
455.64,24.6825,-1.61804,3.26145,0.52909
456.24,24.70018,-1.66329,3.28451,0.52887
456.84,24.71792,-1.70903,3.30763,0.52866
457.44,24.73568,-1.75559,3.31688,0.52844
458.04,24.75333,-1.80346,3.33013,0.52823
458.64,24.77102,-1.85184,3.3492,0.52801
459.24,24.7888,-1.89954,3.35904,0.52779
459.84,24.80657,-1.94688,3.36086,0.52758
460.44,24.8243,-1.99399,3.35666,0.52736
461.04,24.84208,-2.04138,3.35278,0.52715
461.64,24.85989,-2.08879,3.3396,0.52693
462.24,24.8777,-2.13556,3.32188,0.52671
462.84,24.89549,-2.1815,3.30435,0.5265
463.44,24.91336,-2.22654,3.27484,0.52628
464.04,24.93122,-2.27157,3.24356,0.52606
464.64,24.94905,-2.31505,3.20354,0.52585
465.24,24.96686,-2.3569,3.16322,0.52563
465.84,24.98462,-2.40268,3.11922,0.52542
466.44,25.00243,-2.43422,3.07102,0.5252
467.04,25.0202,-2.47472,3.01417,0.52498
467.64,25.03797,-2.5092,2.95515,0.52477
468.24,25.05578,-2.55049,2.89315,0.52455
468.84,25.07366,-2.58407,2.82672,0.52433
469.44,25.09149,-2.62006,2.75636,0.52412
470.04,25.10934,-2.65492,2.68334,0.5239
470.64,25.12719,-2.68571,2.60622,0.52368
471.24,25.14505,-2.71862,2.52284,0.52347
471.84,25.1629,-2.74401,2.43755,0.52325
472.44,25.18064,-2.77457,2.34803,0.52303
473.04,25.19846,-2.798,2.26087,0.52282
473.64,25.2163,-2.82502,2.1693,0.5226
474.24,25.23412,-2.84546,2.08221,0.52238
474.84,25.252,-2.86728,1.99107,0.52217
475.44,25.26998,-2.88834,1.89966,0.52195
476.04,25.28785,-2.90836,1.81083,0.52173
476.64,25.30573,-2.92904,1.72829,0.52151
477.24,25.3236,-2.94482,1.64251,0.5213
477.84,25.34143,-2.96334,1.55871,0.52108
478.44,25.35928,-2.97695,1.47882,0.52086
479.04,25.37717,-2.99298,1.40558,0.52065
479.64,25.395,-3.005,1.32649,0.52043
480.24,25.4129,-3.01771,1.25666,0.52021
480.84,25.4308,-3.02906,1.18926,0.51999
481.44,25.44866,-3.03917,1.12062,0.51978
482.04,25.46655,-3.05036,1.06357,0.51956
482.64,25.48447,-3.05991,1.00773,0.51934
483.24,25.50238,-3.07236,0.95116,0.51912
483.84,25.52024,-3.08021,0.89829,0.51891
484.44,25.53815,-3.08991,0.84898,0.51869
485.04,25.55609,-3.09712,0.80554,0.51847
485.64,25.57401,-3.10561,0.76093,0.51825
486.24,25.5919,-3.11217,0.71321,0.51804
486.84,25.6098,-3.11863,0.66874,0.51782
487.44,25.62775,-3.12536,0.63183,0.5176
488.04,25.64562,-3.13132,0.59599,0.51738
488.64,25.66355,-3.13786,0.56006,0.51717
489.24,25.6815,-3.14285,0.52675,0.51695
489.84,25.6995,-3.14934,0.49617,0.51673
490.44,25.71745,-3.15397,0.46521,0.51651
491.04,25.73545,-3.15893,0.4368,0.5163
491.64,25.7534,-3.1628,0.40975,0.51608
492.24,25.77137,-3.1675,0.3778,0.51586
492.84,25.7894,-3.17241,0.3523,0.51564
493.44,25.80734,-3.17691,0.32595,0.51543
494.04,25.82535,-3.18149,0.29974,0.51521
494.64,25.8433,-3.18453,0.27636,0.51499
495.24,25.86138,-3.18759,0.25561,0.51477
495.84,25.87943,-3.19118,0.23294,0.51456
496.44,25.89744,-3.19458,0.21248,0.51434
497.04,25.9154,-3.19579,0.19158,0.51412
497.64,25.93346,-3.19752,0.17286,0.5139
498.24,25.95149,-3.19969,0.15458,0.51368
498.84,25.96949,-3.20244,0.13525,0.51347
499.44,25.98755,-3.20528,0.11758,0.51325
500.04,26.0056,-3.20817,0.10401,0.51303
500.64,26.02361,-3.2116,0.08829549,0.51281
501.24,26.04164,-3.2149,0.07251616,0.5126
501.84,26.05968,-3.21692,0.05972992,0.51238
502.44,26.0778,-3.21919,0.04967424,0.51216
503.04,26.09591,-3.22131,0.03772794,0.51194
503.64,26.114,-3.22305,0.02592995,0.51172
504.24,26.13214,-3.22511,0.01506695,0.51151
504.84,26.15028,-3.22712,0.00942074,0.51129
505.44,26.16836,-3.22923,-4.337518e-05,0.51107
506.04,26.18645,-3.23095,-0.01169804,0.51085
506.64,26.2046,-3.23103,-0.02005725,0.51064
507.24,26.22274,-3.23128,-0.0321101,0.51042
507.84,26.2409,-3.2327,-0.03890195,0.5102
508.44,26.25892,-3.23441,-0.0456918,0.50998
509.04,26.27702,-3.23655,-0.05108141,0.50976
509.64,26.29516,-3.23873,-0.0567936,0.50955
510.24,26.3133,-3.24005,-0.06295709,0.50933
510.84,26.33147,-3.24088,-0.06970277,0.50911
511.44,26.3498,-3.24087,-0.07031758,0.50889
512.04,26.3681,-3.24245,-0.07399296,0.50867
512.64,26.38625,-3.24546,-0.07748702,0.50846
513.24,26.40441,-3.24793,-0.07766103,0.50824
513.84,26.42248,-3.25027,-0.08031432,0.50802
514.44,26.4406,-3.25159,-0.08348165,0.5078
515.04,26.45877,-3.25243,-0.09222129,0.50759
515.64,26.47703,-3.25241,-0.11452,0.50737
516.24,26.4953,-3.25242,-0.12529,0.50715
516.84,26.5137,-3.2526,-0.13376,0.50693
517.44,26.532,-3.25553,-0.13996,0.50671
518.04,26.5503,-3.25539,-0.14674,0.5065
518.64,26.56855,-3.25689,-0.14733,0.50628
519.24,26.5868,-3.25812,-0.15452,0.50606
519.84,26.6051,-3.25869,-0.15368,0.50584
520.44,26.6234,-3.26041,-0.15789,0.50563
521.04,26.6417,-3.26204,-0.15818,0.50541
521.64,26.66,-3.26261,-0.16252,0.50519
522.24,26.6783,-3.26351,-0.16754,0.50497
522.84,26.69649,-3.26359,-0.17095,0.50476
523.44,26.7148,-3.26515,-0.17052,0.50454
524.04,26.73315,-3.26581,-0.16783,0.50432
524.64,26.7515,-3.26681,-0.16742,0.5041
525.24,26.7698,-3.26831,-0.17016,0.50389
525.84,26.7882,-3.26798,-0.1698,0.50367
526.44,26.80655,-3.26859,-0.17184,0.50345
527.04,26.8249,-3.26879,-0.17141,0.50323
527.64,26.84325,-3.26987,-0.16921,0.50302
528.24,26.8616,-3.27081,-0.1731,0.5028
528.84,26.87998,-3.2716,-0.17024,0.50258
529.44,26.8984,-3.27296,-0.16944,0.50236
530.04,26.91674,-3.27304,-0.17306,0.50215
530.64,26.9351,-3.27351,-0.16692,0.50193
531.24,26.9535,-3.27434,-0.16867,0.50171
531.84,26.97195,-3.27432,-0.1678,0.50149
532.44,26.99032,-3.27503,-0.16964,0.50128
533.04,27.0087,-3.27568,-0.16945,0.50106
533.64,27.0271,-3.27608,-0.16539,0.50084
534.24,27.04556,-3.27703,-0.16703,0.50062
534.84,27.064,-3.27698,-0.16669,0.50041
535.44,27.0824,-3.27698,-0.16236,0.50019
536.04,27.1009,-3.27698,-0.16211,0.49997
536.64,27.1193,-3.27699,-0.16074,0.49976
537.24,27.1377,-3.27745,-0.16185,0.49954
537.84,27.1561,-3.27833,-0.15991,0.49932
538.44,27.1746,-3.27831,-0.15812,0.4991
539.04,27.19308,-3.27842,-0.16117,0.49889
539.64,27.2116,-3.27976,-0.15502,0.49867
540.24,27.2301,-3.27972,-0.15816,0.49845
540.84,27.2486,-3.28058,-0.15898,0.49824
541.44,27.26711,-3.28104,-0.15693,0.49802
542.04,27.28557,-3.28104,-0.15522,0.4978
542.64,27.3041,-3.28104,-0.15382,0.49759
543.24,27.3227,-3.28105,-0.15322,0.49737
543.84,27.3412,-3.28108,-0.15556,0.49715
544.44,27.35977,-3.28245,-0.15458,0.49694
545.04,27.37834,-3.28261,-0.15561,0.49672
545.64,27.39684,-3.28528,-0.15643,0.4965
546.24,27.4153,-3.2858,-0.15424,0.49628
546.84,27.4339,-3.28675,-0.1529,0.49607
547.44,27.45245,-3.28665,-0.15015,0.49585
548.04,27.4711,-3.28887,-0.15114,0.49564
548.64,27.48965,-3.28937,-0.14995,0.49542
549.24,27.50828,-3.28937,-0.14759,0.4952
549.84,27.5269,-3.28937,-0.14773,0.49499
550.44,27.54546,-3.28937,-0.15026,0.49477
551.04,27.564,-3.28939,-0.15085,0.49455
551.64,27.5826,-3.28957,-0.14833,0.49434
552.24,27.6012,-3.29069,-0.15034,0.49412
552.84,27.61972,-3.29069,-0.15151,0.4939
553.44,27.6383,-3.2912,-0.15315,0.49369
554.04,27.65687,-3.29203,-0.15197,0.49347
554.64,27.67548,-3.292,-0.15627,0.49326
555.24,27.6941,-3.29199,-0.15501,0.49304
555.84,27.7128,-3.29186,-0.1553,0.49282
556.44,27.73147,-3.29274,-0.15865,0.49261
557.04,27.75008,-3.29266,-0.15494,0.49239
557.64,27.7687,-3.29267,-0.15533,0.49218
558.24,27.7873,-3.29338,-0.15763,0.49196
558.84,27.80595,-3.29398,-0.15376,0.49174
559.44,27.8246,-3.29397,-0.15232,0.49153
560.04,27.84328,-3.29397,-0.15433,0.49131
560.64,27.862,-3.29398,-0.15723,0.4911
561.24,27.8806,-3.29532,-0.15756,0.49088
561.84,27.89932,-3.29529,-0.15656,0.49067
562.44,27.918,-3.29665,-0.1553,0.49045
563.04,27.93665,-3.29716,-0.15407,0.49024
563.64,27.9553,-3.29832,-0.15461,0.49002
564.24,27.974,-3.29992,-0.15387,0.4898
564.84,27.9927,-3.30011,-0.15562,0.48959
565.44,28.0114,-3.30012,-0.15666,0.48937
566.04,28.0301,-3.30012,-0.1526,0.48916
566.64,28.04887,-3.30012,-0.15149,0.48894
567.24,28.06761,-3.30021,-0.14974,0.48873
567.84,28.0863,-3.29884,-0.14283,0.48851
568.44,28.105,-3.2988,-0.14521,0.4883
569.04,28.1237,-3.2988,-0.14393,0.48808
569.64,28.14244,-3.2988,-0.14658,0.48787
570.24,28.16122,-3.2988,-0.14735,0.48765
570.84,28.1801,-3.2988,-0.14645,0.48744
571.44,28.19888,-3.30018,-0.14879,0.48722
572.04,28.21749,-3.30021,-0.14756,0.48701
572.64,28.23623,-3.30122,-0.14725,0.48679
573.24,28.255,-3.30154,-0.14832,0.48658
573.84,28.2737,-3.30188,-0.14615,0.48637
574.44,28.29245,-3.30306,-0.14926,0.48615
575.04,28.31137,-3.30419,-0.14859,0.48594
575.64,28.33022,-3.30418,-0.14925,0.48572
576.24,28.349,-3.30542,-0.14728,0.48551
576.84,28.36775,-3.30539,-0.14651,0.48529
577.44,28.38648,-3.307,-0.14955,0.48508
578.04,28.40513,-3.30831,-0.15302,0.48487
578.64,28.4237,-3.30944,-0.15242,0.48465
579.24,28.44254,-3.31016,-0.14868,0.48444
579.84,28.46145,-3.31102,-0.14952,0.48422
580.44,28.4804,-3.3105,-0.14903,0.48401
581.04,28.49943,-3.31021,-0.14725,0.4838
581.64,28.5184,-3.31021,-0.14935,0.48358
582.24,28.53725,-3.31021,-0.15049,0.48337
582.84,28.556,-3.31021,-0.14743,0.48316
583.44,28.57488,-3.31021,-0.14831,0.48294
584.04,28.5938,-3.31021,-0.14667,0.48273
584.64,28.61269,-3.31024,-0.14606,0.48251
585.24,28.6316,-3.30947,-0.15035,0.4823
585.84,28.65049,-3.30923,-0.14826,0.48209
586.44,28.66931,-3.30923,-0.13845,0.48188
587.04,28.68818,-3.30915,-0.13871,0.48166
587.64,28.70707,-3.31073,-0.13815,0.48145
588.24,28.72598,-3.31228,-0.13619,0.48124
588.84,28.7449,-3.31351,-0.13796,0.48102
589.44,28.7638,-3.31369,-0.13651,0.48081
590.04,28.7827,-3.31487,-0.13455,0.4806
590.64,28.80163,-3.31482,-0.13531,0.48038
591.24,28.8205,-3.31482,-0.13613,0.48017
591.84,28.83943,-3.3162,-0.13725,0.47996
592.44,28.8583,-3.31623,-0.1422,0.47975
593.04,28.8773,-3.31735,-0.14404,0.47953
593.64,28.8963,-3.31757,-0.14564,0.47932
594.24,28.9153,-3.31805,-0.14282,0.47911
594.84,28.9344,-3.31888,-0.14222,0.4789
595.44,28.95328,-3.31887,-0.14409,0.47869
596.04,28.97219,-3.31885,-0.14247,0.47847
596.64,28.9911,-3.31962,-0.1406,0.47826
597.24,29.01,-3.32019,-0.14173,0.47805
597.84,29.02895,-3.32076,-0.1408,0.47784
598.44,29.048,-3.32153,-0.13899,0.47763
599.04,29.06695,-3.32163,-0.13795,0.47741
599.64,29.08594,-3.32314,-0.13806,0.4772
600.24,29.1049,-3.32401,-0.14439,0.47699
600.84,29.12398,-3.32451,-0.14661,0.47678
601.44,29.143,-3.32548,-0.14745,0.47657
602.04,29.16194,-3.32588,-0.14599,0.47636
602.64,29.18093,-3.32589,-0.14978,0.47615
603.24,29.19995,-3.32589,-0.14466,0.47593
603.84,29.21895,-3.32589,-0.14475,0.47572
604.44,29.23803,-3.32589,-0.1424,0.47551
605.04,29.2571,-3.32589,-0.14524,0.4753
605.64,29.2762,-3.32592,-0.14876,0.47509
606.24,29.29519,-3.32636,-0.14646,0.47488
606.84,29.3142,-3.32734,-0.14265,0.47467
607.44,29.3332,-3.32729,-0.14257,0.47446
608.04,29.3522,-3.32593,-0.14859,0.47425
608.64,29.3712,-3.32645,-0.15242,0.47404
609.24,29.3903,-3.32733,-0.15687,0.47383
609.84,29.4094,-3.3273,-0.15427,0.47362
610.44,29.4285,-3.32834,-0.15422,0.47341
611.04,29.44753,-3.32829,-0.1565,0.4732
611.64,29.4666,-3.32904,-0.15768,0.47299
612.24,29.4857,-3.33,-0.16269,0.47278
612.84,29.50473,-3.32995,-0.16354,0.47257
613.44,29.5238,-3.32996,-0.16235,0.47236
614.04,29.5429,-3.33008,-0.16524,0.47215
614.64,29.562,-3.33131,-0.16493,0.47194
615.24,29.5812,-3.33126,-0.1678,0.47173
615.84,29.60025,-3.3323,-0.16839,0.47152
616.44,29.61921,-3.33403,-0.16885,0.47131
617.04,29.6384,-3.33423,-0.16522,0.4711
617.64,29.65751,-3.33538,-0.1671,0.47089
618.24,29.6766,-3.33533,-0.16797,0.47068
618.84,29.6958,-3.33531,-0.16841,0.47047
619.44,29.71511,-3.33493,-0.16728,0.47026
620.04,29.73422,-3.33541,-0.16766,0.47005
620.64,29.7534,-3.33527,-0.17296,0.46985
621.24,29.77259,-3.33648,-0.17623,0.46964
621.84,29.79172,-3.33665,-0.17507,0.46943
622.44,29.8109,-3.338,-0.17615,0.46922
623.04,29.82997,-3.33796,-0.17351,0.46901
623.64,29.8491,-3.33854,-0.17602,0.4688
624.24,29.86828,-3.33929,-0.17915,0.4686
624.84,29.88747,-3.33919,-0.17664,0.46839
625.44,29.9067,-3.34056,-0.17614,0.46818
626.04,29.9258,-3.34068,-0.17582,0.46797
626.64,29.94497,-3.342,-0.1764,0.46776
627.24,29.9641,-3.34192,-0.16993,0.46756
627.84,29.9833,-3.34194,-0.16843,0.46735
628.44,30.00249,-3.3433,-0.17136,0.46714
629.04,30.0217,-3.34319,-0.17022,0.46693
629.64,30.0409,-3.34441,-0.17193,0.46673
630.24,30.0601,-3.34477,-0.16933,0.46652
630.84,30.07933,-3.3464,-0.16591,0.46631
631.44,30.09862,-3.34663,-0.16562,0.4661
632.04,30.11785,-3.34776,-0.18062,0.4659
632.64,30.13707,-3.34772,-0.18832,0.46569
633.24,30.1563,-3.34772,-0.18372,0.46548
633.84,30.1756,-3.34772,-0.17828,0.46528
634.44,30.1948,-3.34772,-0.17917,0.46507
635.04,30.2141,-3.34772,-0.17426,0.46486
635.64,30.23333,-3.34773,-0.17534,0.46466
636.24,30.25255,-3.34783,-0.17088,0.46445
636.84,30.2718,-3.34908,-0.17155,0.46424
637.44,30.29103,-3.34904,-0.17164,0.46404
638.04,30.3103,-3.34904,-0.17232,0.46383
638.64,30.32958,-3.34967,-0.17506,0.46363
639.24,30.34892,-3.35038,-0.17624,0.46342
639.84,30.36818,-3.3504,-0.18627,0.46321
640.44,30.3875,-3.35048,-0.25119,0.46301
641.04,30.40679,-3.35108,-0.27092,0.4628
641.64,30.426,-3.35291,-0.27661,0.4626
642.24,30.4451,-3.35308,-0.28546,0.46239
642.84,30.4642,-3.35301,-0.29039,0.46219
643.44,30.4833,-3.35422,-0.29154,0.46198
644.04,30.50242,-3.35556,-0.30155,0.46178
644.64,30.52177,-3.35573,-0.30277,0.46157
645.24,30.5412,-3.35617,-0.30345,0.46137
645.84,30.5607,-3.35704,-0.30816,0.46116
646.44,30.5802,-3.35705,-0.30818,0.46096
647.04,30.5997,-3.35706,-0.31034,0.46075
647.64,30.619,-3.35634,-0.31321,0.46055
648.24,30.63836,-3.35719,-0.31245,0.46034
648.84,30.65772,-3.35792,-0.31508,0.46014
649.44,30.677,-3.3585,-0.31437,0.45994
650.04,30.6963,-3.35909,-0.31629,0.45973
650.64,30.71565,-3.3598,-0.31262,0.45953
651.24,30.73495,-3.35979,-0.3129,0.45932
651.84,30.7543,-3.35979,-0.31909,0.45912
652.44,30.7737,-3.35979,-0.31719,0.45892
653.04,30.7931,-3.35981,-0.31504,0.45871
653.64,30.81243,-3.35998,-0.31455,0.45851
654.24,30.8318,-3.36112,-0.31622,0.45831
654.84,30.85115,-3.36111,-0.32048,0.4581
655.44,30.87055,-3.36111,-0.319,0.4579
656.04,30.8899,-3.36111,-0.31713,0.4577
656.64,30.9093,-3.3624,-0.31987,0.4575
657.24,30.92868,-3.36242,-0.31894,0.45729
657.84,30.94805,-3.36242,-0.31641,0.45709
658.44,30.96745,-3.36258,-0.32022,0.45689
659.04,30.98684,-3.3638,-0.32309,0.45668
659.64,31.0063,-3.36377,-0.32681,0.45648
660.24,31.0257,-3.36428,-0.32346,0.45628
660.84,31.0451,-3.36507,-0.32079,0.45608
661.44,31.06454,-3.36509,-0.31767,0.45588
662.04,31.08397,-3.36527,-0.32034,0.45567
662.64,31.10339,-3.36595,-0.32093,0.45547
663.24,31.12283,-3.36656,-0.32368,0.45527
663.84,31.14225,-3.36713,-0.32247,0.45507
664.44,31.16157,-3.36788,-0.31582,0.45487
665.04,31.18093,-3.3679,-0.31737,0.45467
665.64,31.20038,-3.3679,-0.31732,0.45447
666.24,31.2198,-3.3679,-0.32425,0.45426
666.84,31.23935,-3.3679,-0.32025,0.45406
667.44,31.259,-3.36791,-0.31797,0.45386
668.04,31.27846,-3.36874,-0.32112,0.45366
668.64,31.2979,-3.36934,-0.32226,0.45346
669.24,31.31737,-3.36932,-0.3274,0.45326
669.84,31.3368,-3.37039,-0.32687,0.45306
670.44,31.3563,-3.37063,-0.31981,0.45286
671.04,31.3758,-3.37065,-0.31612,0.45266
671.64,31.39524,-3.37065,-0.32519,0.45246
672.24,31.41465,-3.37065,-0.32606,0.45226
672.84,31.43412,-3.37065,-0.32504,0.45206
673.44,31.4536,-3.37061,-0.32495,0.45186
674.04,31.4731,-3.37155,-0.3265,0.45166
674.64,31.4926,-3.37195,-0.33042,0.45146
675.24,31.51209,-3.37196,-0.33236,0.45126
675.84,31.5316,-3.37196,-0.33882,0.45106
676.44,31.55116,-3.37196,-0.33842,0.45086
677.04,31.5707,-3.37195,-0.34642,0.45066
677.64,31.59023,-3.37297,-0.34638,0.45046
678.24,31.6097,-3.37328,-0.35098,0.45027
678.84,31.6292,-3.37328,-0.35616,0.45007
679.44,31.6487,-3.37328,-0.35824,0.44987
680.04,31.66818,-3.37329,-0.3626,0.44967
680.64,31.68768,-3.37375,-0.36555,0.44947
681.24,31.70725,-3.37462,-0.37143,0.44927
681.84,31.7267,-3.37459,-0.36853,0.44908
682.44,31.7461,-3.37459,-0.36676,0.44888
683.04,31.76567,-3.37459,-0.37233,0.44868
683.64,31.78525,-3.37459,-0.37471,0.44848
684.24,31.80477,-3.37465,-0.37421,0.44828
684.84,31.8242,-3.37601,-0.37757,0.44809
685.44,31.84392,-3.37595,-0.37652,0.44789
686.04,31.8635,-3.37746,-0.37453,0.44769
686.64,31.883,-3.37747,-0.37694,0.44749
687.24,31.90258,-3.37882,-0.37874,0.4473
687.84,31.9223,-3.37876,-0.3781,0.4471
688.44,31.9417,-3.37876,-0.37552,0.4469
689.04,31.96129,-3.37876,-0.37595,0.44671
689.64,31.98085,-3.37876,-0.37467,0.44651
690.24,32.00042,-3.37912,-0.37738,0.44631
690.84,32.02004,-3.37975,-0.37581,0.44612
691.44,32.03969,-3.37975,-0.37743,0.44592
692.04,32.0593,-3.37974,-0.38035,0.44573
692.64,32.07893,-3.38009,-0.38691,0.44553
693.24,32.09852,-3.38008,-0.38642,0.44533
693.84,32.1181,-3.38007,-0.38957,0.44514
694.44,32.13771,-3.37961,-0.39256,0.44494
695.04,32.15733,-3.37873,-0.39322,0.44475
695.64,32.17699,-3.37876,-0.39688,0.44455
696.24,32.19656,-3.37875,-0.39446,0.44436
696.84,32.2162,-3.37852,-0.39466,0.44416
697.44,32.23584,-3.37881,-0.40028,0.44397
698.04,32.25543,-3.37877,-0.39711,0.44377
698.64,32.275,-3.37877,-0.39794,0.44358
699.24,32.29462,-3.37883,-0.39439,0.44338
699.84,32.31426,-3.38017,-0.39973,0.44319
700.44,32.33393,-3.38082,-0.40852,0.44299
701.04,32.3536,-3.38137,-0.42168,0.4428
701.64,32.3733,-3.38141,-0.42592,0.4426
702.24,32.393,-3.38164,-0.42695,0.44241
702.84,32.4127,-3.38272,-0.43749,0.44222
703.44,32.43242,-3.38271,-0.43501,0.44202
704.04,32.45211,-3.38269,-0.43808,0.44183
704.64,32.47175,-3.38352,-0.43832,0.44164
705.24,32.4914,-3.38402,-0.45781,0.44144
705.84,32.51113,-3.38403,-0.46412,0.44125
706.44,32.53075,-3.38402,-0.46507,0.44106
707.04,32.55043,-3.38473,-0.47339,0.44086
707.64,32.57007,-3.38534,-0.48024,0.44067
708.24,32.58964,-3.38534,-0.48774,0.44048
708.84,32.60929,-3.38534,-0.493,0.44028
709.44,32.6289,-3.38534,-0.49496,0.44009
710.04,32.6486,-3.38534,-0.49467,0.4399
710.64,32.66826,-3.38534,-0.49649,0.43971
711.24,32.6879,-3.38651,-0.49448,0.43952
711.84,32.7076,-3.38552,-0.4886,0.43932
712.44,32.72726,-3.3855,-0.48711,0.43913
713.04,32.747,-3.38684,-0.49122,0.43894
713.64,32.76662,-3.38669,-0.49217,0.43875
714.24,32.78631,-3.38805,-0.49731,0.43856
714.84,32.80604,-3.38809,-0.50494,0.43837
715.44,32.8258,-3.38809,-0.50401,0.43817
716.04,32.84552,-3.38809,-0.5033,0.43798
716.64,32.86523,-3.38809,-0.50794,0.43779
717.24,32.88499,-3.38809,-0.51224,0.4376
717.84,32.90473,-3.38809,-0.51117,0.43741
718.44,32.9245,-3.38809,-0.5113,0.43722
719.04,32.94425,-3.38809,-0.51497,0.43703
719.64,32.96397,-3.38809,-0.51768,0.43684
720.24,32.98368,-3.38809,-0.51685,0.43665
720.84,33.0034,-3.38809,-0.52189,0.43646
721.44,33.02319,-3.38809,-0.52236,0.43627
722.04,33.04293,-3.38809,-0.52848,0.43608
722.64,33.06272,-3.38749,-0.5328,0.43589
723.24,33.08249,-3.38737,-0.5387,0.4357
723.84,33.10223,-3.38807,-0.54283,0.43551
724.44,33.12202,-3.38809,-0.54993,0.43532
725.04,33.1418,-3.38809,-0.55349,0.43513
725.64,33.1616,-3.38809,-0.5601,0.43494
726.24,33.18139,-3.38809,-0.56795,0.43475
726.84,33.20117,-3.38804,-0.56631,0.43456
727.44,33.2209,-3.38894,-0.57406,0.43438
728.04,33.24066,-3.38929,-0.57785,0.43419
728.64,33.26048,-3.38929,-0.58151,0.434
729.24,33.2802,-3.38929,-0.58705,0.43381
729.84,33.30088,-3.38929,-0.58569,0.43362
730.44,33.3215,-3.38929,-0.58359,0.43343
730.84,33.33325,-3.38929,-0.58649,0.43331