File: 01_Data/Polyester_Felt/STA/N2/30K_min/Polyester_Felt_STA_N2_30KData_210722_R1.csv
##Temp./Â°C,Time/min,Mass loss(subtr.2)/mg,DSC(subtr.2)/(mW/mg),Sensit./(uV/mW)
50.598,10.00917,0.00186,-0.06465187,0.6235
51.198,11.00496,0.0003385047,-0.04668564,0.6235
51.798,11.2147,0.00111777,-0.03625436,0.62349
52.398,11.36256,0.001693455,-0.02769939,0.62348
52.998,11.47587,0.0009564583,-0.01681583,0.62347
53.598,11.57117,-7.84699e-05,-0.009314708,0.62346
54.198,11.6549,0.00101355,0.00150715,0.62346
54.798,11.73,0.001843834,0.01412765,0.62345
55.398,11.7986,0.001000754,0.02191169,0.62344
55.998,11.86271,-0.000411638,0.02663786,0.62343
56.598,11.92185,-0.001392255,0.03603308,0.62341
57.198,11.97756,-0.001355023,0.04288348,0.6234
57.798,12.03133,-0.001258037,0.04886224,0.62339
58.398,12.0824,-0.001275688,0.05940303,0.62338
58.998,12.13117,-0.001386181,0.06481096,0.62336
59.598,12.17802,-2.02779e-05,0.07237507,0.62335
60.198,12.22325,-0.00217576,0.0767685,0.62334
60.798,12.26717,-0.001524021,0.08194709,0.62332
61.398,12.30974,-0.00114489,0.08923117,0.62331
61.998,12.3514,-0.0009480747,0.09317218,0.62329
62.598,12.39175,-0.0010693,0.09793565,0.62327
63.198,12.43149,0.001109722,0.10211,0.62326
63.798,12.47045,0.0003037093,0.10589,0.62324
64.398,12.5086,-0.0005531354,0.11106,0.62322
64.998,12.54601,-0.001335325,0.11817,0.6232
65.598,12.58262,-0.000966784,0.12283,0.62318
66.198,12.61813,-0.0002002607,0.12883,0.62316
66.798,12.65405,-0.00125886,0.13245,0.62314
67.398,12.68947,-0.00184705,0.13709,0.62312
67.998,12.7243,-0.001698592,0.14448,0.6231
68.598,12.7585,-0.0008534303,0.14809,0.62308
69.198,12.79243,0.000311602,0.15452,0.62306
69.798,12.82616,0.0002029642,0.15774,0.62303
70.398,12.8592,-0.001973779,0.16816,0.62301
70.998,12.89152,-0.00177,0.16811,0.62299
71.598,12.92401,-0.001639979,0.16747,0.62296
72.198,12.95629,-0.001669752,0.17292,0.62294
72.798,12.9885,-0.00170405,0.17473,0.62291
73.398,13.02024,-0.00178964,0.17578,0.62288
73.998,13.05162,-0.00192513,0.17802,0.62286
74.598,13.08282,-0.00165399,0.18313,0.62283
75.198,13.1136,-0.00166419,0.18659,0.6228
75.798,13.14429,-0.002362399,0.18577,0.62277
76.398,13.17489,-0.002724302,0.18518,0.62274
76.998,13.2053,-0.00271093,0.183,0.62271
77.598,13.23567,-0.00160609,0.18436,0.62269
78.198,13.26551,-0.000118859,0.17986,0.62265
78.798,13.2953,-0.0004115122,0.18048,0.62262
79.398,13.32475,-0.0002051151,0.17966,0.62259
79.998,13.3543,0.000730368,0.17707,0.62256
80.598,13.3834,0.0008180383,0.17706,0.62253
81.198,13.41244,0.0001884745,0.17513,0.62249
81.798,13.4412,-0.001113655,0.17641,0.62246
82.398,13.4699,-0.00281083,0.17421,0.62243
82.998,13.4985,-0.003548307,0.17208,0.62239
83.598,13.5268,-0.003394775,0.171,0.62236
84.198,13.55502,-0.00362162,0.16799,0.62232
84.798,13.58314,-0.00325641,0.17104,0.62229
85.398,13.6111,-0.002418307,0.16968,0.62225
85.998,13.6389,-0.003394737,0.16763,0.62221
86.598,13.66649,-0.004696314,0.16654,0.62217
87.198,13.6939,-0.003331551,0.16629,0.62214
87.798,13.72135,-0.002926031,0.16373,0.6221
88.398,13.7485,-0.002373402,0.16184,0.62206
88.998,13.7754,-0.003261127,0.16225,0.62202
89.598,13.80225,-0.00328164,0.16185,0.62198
90.198,13.8288,-0.002660753,0.16189,0.62194
90.798,13.8553,-0.001992965,0.16168,0.62189
91.398,13.88159,-0.002877028,0.15928,0.62185
91.998,13.90784,-0.001974215,0.16354,0.62181
92.598,13.934,-0.00285885,0.16301,0.62177
93.198,13.96011,-0.00333575,0.1584,0.62172
93.798,13.98595,-0.00252367,0.16784,0.62168
94.398,14.0117,-0.00202068,0.1692,0.62164
94.998,14.0374,-0.002088366,0.17079,0.62159
95.598,14.06289,-0.003078004,0.16941,0.62155
96.198,14.08833,-0.00349968,0.16995,0.6215
96.798,14.1136,-0.00191544,0.17214,0.62145
97.398,14.1388,-0.003054642,0.17541,0.62141
97.998,14.1638,-0.002517089,0.1774,0.62136
98.598,14.18856,-0.002704056,0.17996,0.62131
99.198,14.21331,-0.003324347,0.18193,0.62126
99.798,14.23797,-0.003884742,0.18523,0.62121
100.398,14.26249,-0.003522011,0.18638,0.62116
100.998,14.2871,-0.00410241,0.18971,0.62111
101.598,14.3114,-0.003530174,0.19465,0.62106
102.198,14.33555,-0.003503595,0.1956,0.62101
102.798,14.3597,-0.004847206,0.19739,0.62096
103.398,14.3837,-0.004832645,0.19627,0.62091
103.998,14.40753,-0.004887049,0.20107,0.62086
104.598,14.43135,-0.00337183,0.20256,0.6208
105.198,14.455,-0.003243115,0.20525,0.62075
105.798,14.4787,-0.003377205,0.20693,0.6207
106.398,14.5023,-0.00342048,0.20762,0.62064
106.998,14.5257,-0.004006924,0.21292,0.62059
107.598,14.5489,-0.00374551,0.21613,0.62053
108.198,14.57228,-0.003638285,0.22094,0.62047
108.798,14.59554,-0.00377118,0.2228,0.62042
109.398,14.6187,-0.00342345,0.22205,0.62036
109.998,14.64185,-0.00349242,0.22575,0.6203
110.598,14.6647,-0.00488351,0.22374,0.62025
111.198,14.6875,-0.005100536,0.2279,0.62019
111.798,14.71023,-0.004802621,0.22966,0.62013
112.398,14.73259,-0.004816335,0.23521,0.62007
112.998,14.75504,-0.004728014,0.23352,0.62001
113.598,14.77764,-0.003472925,0.23771,0.61995
114.198,14.80016,-0.00348455,0.23939,0.61989
114.798,14.82286,-0.004785005,0.24528,0.61983
115.398,14.8454,-0.00364241,0.24558,0.61976
115.998,14.86764,-0.00484886,0.24632,0.6197
116.598,14.88981,-0.00481933,0.24661,0.61964
117.198,14.9119,-0.00481906,0.25082,0.61958
117.798,14.9339,-0.003904187,0.25361,0.61951
118.398,14.9559,-0.004995556,0.25657,0.61945
118.998,14.97785,-0.004980018,0.2602,0.61938
119.598,14.99957,-0.00636505,0.266,0.61932
120.198,15.0214,-0.005517824,0.27121,0.61925
120.798,15.0431,-0.00505348,0.27673,0.61919
121.398,15.0646,-0.005027037,0.28025,0.61912
121.998,15.0862,-0.004623938,0.28817,0.61905
122.598,15.10762,-0.003715741,0.2886,0.61898
123.198,15.129,-0.004043999,0.28955,0.61892
123.798,15.15041,-0.005097644,0.29485,0.61885
124.398,15.17169,-0.00380762,0.30039,0.61878
124.998,15.19299,-0.005244,0.30248,0.61871
125.598,15.21411,-0.00516372,0.30456,0.61864
126.198,15.23515,-0.005259813,0.31026,0.61857
126.798,15.2562,-0.004257132,0.31466,0.6185
127.398,15.27694,-0.005301013,0.3253,0.61842
127.998,15.2978,-0.005807407,0.32091,0.61835
128.598,15.3186,-0.00657473,0.3244,0.61828
129.198,15.33924,-0.006570999,0.32786,0.61821
129.798,15.36,-0.005522699,0.32799,0.61813
130.398,15.38066,-0.00388739,0.33102,0.61806
130.998,15.40125,-0.003944445,0.32822,0.61799
131.598,15.4218,-0.0039494,0.33399,0.61791
132.198,15.44227,-0.00394717,0.34115,0.61784
132.798,15.4627,-0.003940334,0.34375,0.61776
133.398,15.483,-0.003940732,0.34617,0.61768
133.998,15.5033,-0.00395054,0.3465,0.61761
134.598,15.52355,-0.004151106,0.35171,0.61753
135.198,15.5437,-0.005435082,0.35176,0.61745
135.798,15.56375,-0.006319041,0.35705,0.61737
136.398,15.58376,-0.005529558,0.36554,0.6173
136.998,15.60375,-0.005480235,0.36573,0.61722
137.598,15.6237,-0.005486024,0.37354,0.61714
138.198,15.64365,-0.005563606,0.37927,0.61706
138.798,15.66354,-0.004254862,0.38137,0.61698
139.398,15.6834,-0.00417319,0.38281,0.6169
139.998,15.70302,-0.00420525,0.38952,0.61681
140.598,15.7228,-0.00557841,0.39058,0.61673
141.198,15.7424,-0.005486684,0.39725,0.61665
141.798,15.76211,-0.00547667,0.39676,0.61657
142.398,15.78175,-0.005433846,0.404,0.61648
142.998,15.80141,-0.0066674,0.40795,0.6164
143.598,15.821,-0.005680876,0.40942,0.61632
144.198,15.8405,-0.005479831,0.4104,0.61623
144.798,15.85994,-0.00547043,0.41377,0.61615
145.398,15.8794,-0.006148285,0.4192,0.61606
145.998,15.8988,-0.00613871,0.42022,0.61598
146.598,15.9181,-0.00613974,0.41689,0.61589
147.198,15.93746,-0.00613997,0.42588,0.6158
147.798,15.9567,-0.00614,0.42963,0.61572
148.398,15.97587,-0.00614,0.43085,0.61563
148.998,15.99506,-0.00614,0.43281,0.61554
149.598,16.01417,-0.00614002,0.4332,0.61545
150.198,16.03325,-0.00614026,0.43578,0.61536
150.798,16.05237,-0.00614285,0.43737,0.61527
151.398,16.0715,-0.00616824,0.44097,0.61518
151.998,16.09042,-0.005428896,0.44602,0.61509
152.598,16.10951,-0.006172667,0.44774,0.615
153.198,16.12855,-0.007030557,0.45078,0.61491
153.798,16.14751,-0.005820861,0.45306,0.61482
154.398,16.16643,-0.005714455,0.45367,0.61473
154.998,16.1853,-0.005701626,0.45477,0.61463
155.598,16.20411,-0.00570204,0.4603,0.61454
156.198,16.22291,-0.005721362,0.45935,0.61445
156.798,16.24171,-0.005918095,0.46209,0.61435
157.398,16.2605,-0.006672302,0.46682,0.61426
157.998,16.27928,-0.00668978,0.46833,0.61416
158.598,16.29805,-0.00669879,0.4644,0.61407
159.198,16.3167,-0.005822384,0.46279,0.61397
159.798,16.33536,-0.005712536,0.46483,0.61388
160.398,16.35407,-0.00570108,0.47258,0.61378
160.998,16.3727,-0.00569973,0.47379,0.61368
161.598,16.39135,-0.005697066,0.47527,0.61359
162.198,16.41006,-0.00568485,0.47515,0.61349
162.798,16.42863,-0.00663352,0.47856,0.61339
163.398,16.44718,-0.007012845,0.47567,0.61329
163.998,16.46566,-0.00701037,0.47953,0.61319
164.598,16.48413,-0.007009958,0.48172,0.61309
165.198,16.50252,-0.007009222,0.48071,0.61299
165.798,16.521,-0.007004275,0.48652,0.61289
166.398,16.53937,-0.00700257,0.48687,0.61279
166.998,16.55777,-0.00604732,0.48635,0.61269
167.598,16.5761,-0.006032722,0.4881,0.61259
168.198,16.59443,-0.006029657,0.49201,0.61249
168.798,16.61272,-0.006038221,0.48863,0.61238
169.398,16.63099,-0.007781129,0.49238,0.61228
169.998,16.64927,-0.007680585,0.49255,0.61218
170.598,16.6676,-0.007677998,0.49484,0.61207
171.198,16.68586,-0.007655289,0.49897,0.61197
171.798,16.7041,-0.008193494,0.50095,0.61187
172.398,16.72233,-0.008321374,0.50248,0.61176
172.998,16.74055,-0.008319441,0.50243,0.61165
173.598,16.75872,-0.008653471,0.50708,0.61155
174.198,16.77683,-0.007784569,0.50777,0.61144
174.798,16.79499,-0.00759816,0.50963,0.61134
175.398,16.81308,-0.00806001,0.51104,0.61123
175.998,16.83117,-0.00700854,0.51706,0.61112
176.598,16.84926,-0.00700999,0.51995,0.61101
177.198,16.86733,-0.00701001,0.5162,0.6109
177.798,16.8854,-0.00701,0.52016,0.6108
178.398,16.90332,-0.00701,0.52392,0.61069
178.998,16.92127,-0.00701,0.52546,0.61058
179.598,16.93919,-0.00701,0.52863,0.61047
180.198,16.9571,-0.00701,0.53032,0.61036
180.798,16.97495,-0.007010001,0.52791,0.61024
181.398,16.9928,-0.00701001,0.53266,0.61013
181.998,17.0106,-0.00701004,0.53749,0.61002
182.598,17.02836,-0.007009785,0.53718,0.60991
183.198,17.0461,-0.00700297,0.54278,0.6098
183.798,17.0639,-0.0078361,0.54554,0.60968
184.398,17.08159,-0.008313878,0.55242,0.60957
184.998,17.09933,-0.008334938,0.56206,0.60946
185.598,17.11709,-0.00956514,0.56635,0.60934
186.198,17.13477,-0.009638069,0.57014,0.60923
186.798,17.15241,-0.009649016,0.57603,0.60911
187.398,17.1701,-0.00964997,0.57805,0.609
187.998,17.18773,-0.009650005,0.58216,0.60888
188.598,17.2053,-0.009649979,0.58557,0.60877
189.198,17.2228,-0.00964977,0.58746,0.60865
189.798,17.24035,-0.00964904,0.58796,0.60853
190.398,17.25781,-0.009660276,0.5888,0.60842
190.998,17.27524,-0.008879566,0.59219,0.6083
191.598,17.29256,-0.00867656,0.59892,0.60818
192.198,17.30986,-0.008660424,0.60252,0.60806
192.798,17.32739,-0.008659894,0.60206,0.60794
193.398,17.34486,-0.00866002,0.60406,0.60782
193.998,17.36231,-0.008660319,0.60324,0.6077
194.598,17.37981,-0.00866078,0.60236,0.60758
195.198,17.3974,-0.008640204,0.59464,0.60746
195.798,17.41473,-0.008124805,0.59752,0.60734
196.398,17.43205,-0.00792972,0.60223,0.60722
196.998,17.44931,-0.008990761,0.60698,0.6071
197.598,17.4666,-0.008989657,0.61358,0.60698
198.198,17.4839,-0.009002118,0.61841,0.60685
198.798,17.5012,-0.009070831,0.62114,0.60673
199.398,17.51843,-0.01027467,0.62942,0.60661
199.998,17.5357,-0.01029024,0.6501,0.60648
200.598,17.55292,-0.01029898,0.65312,0.60636
201.198,17.57013,-0.01029997,0.65881,0.60624
201.798,17.5873,-0.01030001,0.65967,0.60611
202.398,17.6045,-0.0103,0.66024,0.60599
202.998,17.62173,-0.0103,0.66015,0.60586
203.598,17.6389,-0.0103,0.66388,0.60573
204.198,17.65612,-0.01030005,0.67026,0.60561
204.798,17.67333,-0.01030056,0.66876,0.60548
205.398,17.6905,-0.01030236,0.66709,0.60535
205.998,17.70758,-0.01027532,0.67017,0.60523
206.598,17.7247,-0.0106609,0.67853,0.6051
207.198,17.74181,-0.01063237,0.68675,0.60497
207.798,17.75889,-0.01062997,0.6882,0.60484
208.398,17.77594,-0.01062997,0.69497,0.60471
208.998,17.79301,-0.01063,0.69934,0.60458
209.598,17.81007,-0.01063,0.69859,0.60445
210.198,17.82712,-0.01062998,0.70342,0.60432
210.798,17.8442,-0.01062961,0.70033,0.60419
211.398,17.86121,-0.0106277,0.70572,0.60406
211.998,17.87829,-0.01063952,0.7086,0.60393
212.598,17.8953,-0.01116021,0.72016,0.6038
213.198,17.91231,-0.01278053,0.72431,0.60367
213.798,17.9293,-0.01293972,0.72835,0.60354
214.398,17.94625,-0.01294061,0.74304,0.6034
214.998,17.96319,-0.01294008,0.7531,0.60327
215.598,17.98013,-0.01294001,0.75086,0.60314
216.198,17.997,-0.01293977,0.75699,0.603
216.798,18.01396,-0.01293662,0.75992,0.60287
217.398,18.03088,-0.01292308,0.76951,0.60273
217.998,18.04784,-0.0134885,0.77118,0.6026
218.598,18.06475,-0.01426544,0.77418,0.60246
219.198,18.08169,-0.01403753,0.77883,0.60233
219.798,18.09861,-0.01324982,0.78298,0.60219
220.398,18.11555,-0.01325371,0.79056,0.60206
220.998,18.1324,-0.01325328,0.79434,0.60192
221.598,18.1493,-0.0132572,0.79588,0.60178
222.198,18.1662,-0.01290866,0.79793,0.60164
222.798,18.18304,-0.01292722,0.80177,0.60151
223.398,18.19979,-0.01292954,0.80818,0.60137
223.998,18.21659,-0.01294269,0.81283,0.60123
224.598,18.2334,-0.01314216,0.81676,0.60109
225.198,18.25016,-0.01427536,0.82578,0.60095
225.798,18.2669,-0.01424299,0.82955,0.60081
226.398,18.28373,-0.0142368,0.83802,0.60067
226.998,18.30055,-0.01419791,0.84612,0.60053
227.598,18.31737,-0.01300151,0.85639,0.60039
228.198,18.33411,-0.01294316,0.86402,0.60025
228.798,18.35085,-0.01293075,0.87,0.60011
229.398,18.3676,-0.01292974,0.87817,0.59997
229.998,18.3844,-0.01292642,0.89013,0.59983
230.598,18.40116,-0.01290973,0.89952,0.59968
231.198,18.41789,-0.01348353,0.90832,0.59954
231.798,18.4347,-0.01429525,0.91884,0.5994
232.398,18.45149,-0.01425328,0.93141,0.59926
232.998,18.46821,-0.01424983,0.94486,0.59911
233.598,18.48493,-0.01424994,0.96218,0.59897
234.198,18.50164,-0.01425,0.97315,0.59882
234.798,18.51835,-0.01425,0.99404,0.59868
235.398,18.53506,-0.01425,1.01278,0.59853
235.998,18.55179,-0.01425,1.03362,0.59839
236.598,18.56847,-0.01425,1.05192,0.59824
237.198,18.58514,-0.01425,1.07709,0.5981
237.798,18.60179,-0.01425,1.10168,0.59795
238.398,18.61845,-0.01425,1.12481,0.5978
238.998,18.63506,-0.01424986,1.15988,0.59766
239.598,18.65168,-0.01424905,1.18896,0.59751
240.198,18.66836,-0.0142529,1.22132,0.59736
240.798,18.68506,-0.01434811,1.25778,0.59721
241.398,18.70169,-0.01310576,1.29484,0.59707
241.998,18.7183,-0.01288352,1.34253,0.59692
242.598,18.735,-0.01400066,1.39289,0.59677
243.198,18.75163,-0.01449784,1.44799,0.59662
243.798,18.76827,-0.01525538,1.51106,0.59647
244.398,18.78494,-0.01524568,1.56984,0.59632
244.998,18.80161,-0.01524044,1.63404,0.59617
245.598,18.81832,-0.01523998,1.71386,0.59602
246.198,18.83501,-0.01523999,1.78818,0.59587
246.798,18.8516,-0.01524,1.87282,0.59572
247.398,18.86825,-0.01524,1.95944,0.59556
247.998,18.88489,-0.01523991,2.04176,0.59541
248.598,18.9015,-0.01523944,2.13377,0.59526
249.198,18.91815,-0.01524225,2.21686,0.59511
249.798,18.9348,-0.01536138,2.29959,0.59495
250.398,18.95151,-0.01628413,2.38372,0.5948
250.998,18.96815,-0.01622696,2.44861,0.59465
251.598,18.98481,-0.01622899,2.51407,0.59449
252.198,19.00139,-0.01622993,2.55783,0.59434
252.798,19.0179,-0.01623001,2.57936,0.59418
253.398,19.03441,-0.01623,2.57996,0.59403
253.998,19.051,-0.01623,2.54823,0.59387
254.598,19.06756,-0.01623,2.49465,0.59372
255.198,19.08415,-0.01623,2.40577,0.59356
255.798,19.1008,-0.01623,2.30474,0.59341
256.398,19.1175,-0.01623003,2.19798,0.59325
256.998,19.1341,-0.01623046,2.08203,0.59309
257.598,19.1507,-0.016232,1.9707,0.59294
258.198,19.16726,-0.01620971,1.86983,0.59278
258.798,19.1838,-0.01674482,1.77553,0.59262
259.398,19.20024,-0.01688909,1.69007,0.59246
259.998,19.2167,-0.0168447,1.60503,0.59231
260.598,19.23317,-0.01787657,1.53138,0.59215
261.198,19.24963,-0.01821055,1.46365,0.59199
261.798,19.266,-0.01780953,1.40964,0.59183
262.398,19.28248,-0.01683752,1.35437,0.59167
262.998,19.2989,-0.01689166,1.30235,0.59151
263.598,19.31535,-0.0169879,1.25833,0.59135
264.198,19.3318,-0.01572766,1.21617,0.59119
264.798,19.34817,-0.01556875,1.17976,0.59103
265.398,19.36461,-0.01556957,1.14856,0.59087
265.998,19.38095,-0.01557002,1.12657,0.59071
266.598,19.39733,-0.01556962,1.10065,0.59055
267.198,19.41372,-0.01556396,1.07538,0.59038
267.798,19.4301,-0.0159842,1.05502,0.59022
268.398,19.44649,-0.01694211,1.03833,0.59006
268.998,19.46286,-0.01689516,1.02182,0.5899
269.598,19.47925,-0.01688956,1.00863,0.58973
270.198,19.4956,-0.01710561,0.99178,0.58957
270.798,19.51191,-0.01717714,0.98579,0.58941
271.398,19.5283,-0.01782118,0.97394,0.58924
271.998,19.54469,-0.01822447,0.96916,0.58908
272.598,19.56106,-0.01821094,0.96388,0.58891
273.198,19.57739,-0.01820989,0.95363,0.58875
273.798,19.5938,-0.01820994,0.94443,0.58858
274.398,19.6101,-0.01820991,0.93882,0.58842
274.998,19.62643,-0.0182118,0.93186,0.58825
275.598,19.64273,-0.01824404,0.9258,0.58809
276.198,19.6591,-0.01951775,0.9266,0.58792
276.798,19.6755,-0.01950118,0.91954,0.58776
277.398,19.69194,-0.01951826,0.9176,0.58759
277.998,19.70833,-0.01952007,0.91852,0.58742
278.598,19.72468,-0.01952003,0.91674,0.58725
279.198,19.74105,-0.01952,0.91457,0.58709
279.798,19.7574,-0.01952003,0.91126,0.58692
280.398,19.77374,-0.01952047,0.91458,0.58675
280.998,19.79012,-0.01952127,0.90638,0.58658
281.598,19.80651,-0.01936385,0.90679,0.58641
282.198,19.8229,-0.01811327,0.90324,0.58624
282.798,19.8392,-0.01820999,0.90153,0.58607
283.398,19.8554,-0.0182133,0.89616,0.58591
283.998,19.87173,-0.01822912,0.89845,0.58574
284.598,19.88805,-0.01944549,0.8931,0.58557
285.198,19.90436,-0.0194965,0.89535,0.5854
285.798,19.92074,-0.01951903,0.89988,0.58522
286.398,19.93719,-0.01951726,0.8962,0.58505
286.998,19.9536,-0.01947551,0.89859,0.58488
287.598,19.96985,-0.02023681,0.89385,0.58471
288.198,19.98621,-0.02087097,0.89544,0.58454
288.798,20.00254,-0.02084372,0.9043,0.58437
289.398,20.01886,-0.02083995,0.90397,0.5842
289.998,20.0352,-0.02083994,0.90129,0.58402
290.598,20.05172,-0.02084,0.90246,0.58385
291.198,20.06815,-0.02083999,0.90199,0.58368
291.798,20.08454,-0.02083969,0.8936,0.5835
292.398,20.10096,-0.02083847,0.89449,0.58333
292.998,20.11732,-0.02085272,0.9014,0.58316
293.598,20.1337,-0.02110238,0.90283,0.58298
294.198,20.15006,-0.02182682,0.90411,0.58281
294.798,20.16647,-0.02181951,0.90326,0.58263
295.398,20.18282,-0.02183891,0.89939,0.58246
295.998,20.1992,-0.02182159,0.90192,0.58228
296.598,20.21561,-0.02310017,0.90065,0.58211
297.198,20.23196,-0.02312854,0.90065,0.58193
297.798,20.24832,-0.02313006,0.90273,0.58176
298.398,20.2647,-0.02313003,0.90216,0.58158
298.998,20.28104,-0.02313,0.90357,0.5814
299.598,20.29743,-0.02313,0.90268,0.58123
300.198,20.3138,-0.02313,0.9012,0.58105
300.798,20.3302,-0.02313,0.89983,0.58087
301.398,20.34658,-0.02313,0.90136,0.5807
301.998,20.3629,-0.02313,0.90187,0.58052
302.598,20.37929,-0.02313,0.90179,0.58034
303.198,20.39568,-0.02313,0.90086,0.58016
303.798,20.41212,-0.02313,0.90121,0.57998
304.398,20.42855,-0.02313,0.90162,0.57981
304.998,20.445,-0.02313,0.89778,0.57963
305.598,20.46143,-0.02313,0.89691,0.57945
306.198,20.4779,-0.02313,0.89619,0.57927
306.798,20.49434,-0.02313,0.89307,0.57909
307.398,20.51076,-0.02313,0.89293,0.57891
307.998,20.52714,-0.02313,0.89944,0.57873
308.598,20.54358,-0.02312998,0.90152,0.57855
309.198,20.55992,-0.02312996,0.90227,0.57837
309.798,20.57635,-0.02313095,0.9026,0.57819
310.398,20.59274,-0.02314004,0.90048,0.57801
310.998,20.60914,-0.02312907,0.90061,0.57782
311.598,20.62554,-0.02427775,0.9024,0.57764
312.198,20.64191,-0.02443698,0.90305,0.57746
312.798,20.65829,-0.02445059,0.90588,0.57728
313.398,20.67465,-0.02445023,0.90614,0.5771
313.998,20.69104,-0.02445002,0.90908,0.57691
314.598,20.70746,-0.02445,0.90568,0.57673
315.198,20.72375,-0.02445,0.90689,0.57655
315.798,20.74021,-0.02445,0.91232,0.57637
316.398,20.75649,-0.02445,0.91306,0.57618
316.998,20.7728,-0.02445,0.914,0.576
317.598,20.78908,-0.02445,0.91879,0.57582
318.198,20.8055,-0.02445001,0.91782,0.57563
318.798,20.82196,-0.02445008,0.91598,0.57545
319.398,20.83841,-0.0244498,0.91589,0.57526
319.998,20.855,-0.02444298,0.91393,0.57508
320.598,20.87152,-0.02500913,0.91552,0.57489
321.198,20.88798,-0.02579134,0.92282,0.57471
321.798,20.90437,-0.02577592,0.92496,0.57452
322.398,20.92079,-0.02576823,0.92332,0.57434
322.998,20.93719,-0.02579055,0.92735,0.57415
323.598,20.95363,-0.02616641,0.92428,0.57397
324.198,20.97007,-0.02708288,0.92581,0.57378
324.798,20.9865,-0.02708781,0.92408,0.57359
325.398,21.00295,-0.02719797,0.92675,0.57341
325.998,21.01942,-0.02740872,0.93013,0.57322
326.598,21.0359,-0.02740668,0.93132,0.57303
327.198,21.05238,-0.02808246,0.93347,0.57284
327.798,21.0688,-0.02871442,0.93355,0.57266
328.398,21.08527,-0.02980631,0.93222,0.57247
328.998,21.10173,-0.02971423,0.93558,0.57228
329.598,21.1181,-0.02976867,0.935,0.57209
330.198,21.1345,-0.02845618,0.94076,0.5719
330.798,21.15099,-0.02840147,0.94119,0.57172
331.398,21.16745,-0.02839943,0.94229,0.57153
331.998,21.18392,-0.02839306,0.94395,0.57134
332.598,21.20041,-0.02837554,0.94504,0.57115
333.198,21.21694,-0.02920146,0.93559,0.57096
333.798,21.23341,-0.02933184,0.9421,0.57077
334.398,21.2499,-0.02973273,0.94513,0.57058
334.998,21.26642,-0.0297149,0.94461,0.57039
335.598,21.28292,-0.02971755,0.94241,0.5702
336.198,21.29942,-0.02971859,0.94417,0.57001
336.798,21.31588,-0.02994394,0.94596,0.56982
337.398,21.33235,-0.02997859,0.9465,0.56963
337.998,21.3487,-0.03099963,0.94894,0.56944
338.598,21.36506,-0.03137584,0.94946,0.56924
339.198,21.38146,-0.03137047,0.94797,0.56905
339.798,21.398,-0.03136982,0.94839,0.56886
340.398,21.41453,-0.03136645,0.94944,0.56867
340.998,21.43121,-0.03134986,0.94897,0.56848
341.598,21.44783,-0.03190926,0.94955,0.56829
342.198,21.4645,-0.03272721,0.95183,0.56809
342.798,21.48106,-0.03268296,0.95476,0.5679
343.398,21.49765,-0.03267971,0.9563,0.56771
343.998,21.51416,-0.03267993,0.95363,0.56751
344.598,21.53071,-0.03268,0.9558,0.56732
345.198,21.5473,-0.03268001,0.95667,0.56713
345.798,21.5639,-0.03268012,0.95079,0.56693
346.398,21.58042,-0.03268044,0.95844,0.56674
346.998,21.59703,-0.03267413,0.95284,0.56655
347.598,21.61363,-0.03347739,0.95216,0.56635
348.198,21.6302,-0.03398665,0.95312,0.56616
348.798,21.6468,-0.03400325,0.94795,0.56596
349.398,21.66337,-0.0340005,0.95105,0.56577
349.998,21.67995,-0.03400001,0.95453,0.56557
350.598,21.69651,-0.03400015,0.94919,0.56538
351.198,21.71314,-0.03400177,0.94868,0.56518
351.798,21.72973,-0.03400303,0.94921,0.56499
352.398,21.74633,-0.03388927,0.94584,0.56479
352.998,21.76296,-0.0349748,0.94784,0.5646
353.598,21.77955,-0.03465328,0.94581,0.5644
354.198,21.79615,-0.0346724,0.95314,0.5642
354.798,21.81278,-0.03495916,0.94996,0.56401
355.398,21.8294,-0.03597106,0.9464,0.56381
355.998,21.84609,-0.03596886,0.95101,0.56361
356.598,21.86272,-0.03596992,0.95362,0.56342
357.198,21.87939,-0.03597003,0.95391,0.56322
357.798,21.89599,-0.03596632,0.95411,0.56302
358.398,21.91254,-0.03593438,0.95414,0.56283
358.998,21.92918,-0.03663104,0.95327,0.56263
359.598,21.9458,-0.03731841,0.95496,0.56243
360.198,21.9624,-0.03795354,0.96023,0.56223
360.798,21.9791,-0.03861089,0.95714,0.56203
361.398,21.99578,-0.03856282,0.95584,0.56184
361.998,22.01248,-0.03953798,0.96026,0.56164
362.598,22.02916,-0.03992005,0.95813,0.56144
363.198,22.04585,-0.03991557,0.95687,0.56124
363.798,22.06251,-0.04058955,0.96033,0.56104
364.398,22.07917,-0.04123995,0.96199,0.56084
364.998,22.0959,-0.04124454,0.9609,0.56064
365.598,22.1126,-0.04124049,0.95982,0.56044
366.198,22.12929,-0.04124,0.9626,0.56024
366.798,22.146,-0.04123999,0.96327,0.56004
367.398,22.16272,-0.04124001,0.96226,0.55984
367.998,22.17943,-0.04124001,0.96281,0.55964
368.598,22.19611,-0.04123951,0.96533,0.55944
369.198,22.2129,-0.04123483,0.96744,0.55924
369.798,22.22966,-0.04123183,0.96666,0.55904
370.398,22.24643,-0.04195813,0.9685,0.55884
370.998,22.2632,-0.04256847,0.97063,0.55864
371.598,22.27996,-0.04256433,0.96867,0.55844
372.198,22.2967,-0.04246074,0.97224,0.55824
372.798,22.3135,-0.04356617,0.96899,0.55804
373.398,22.33028,-0.04251963,0.96661,0.55784
373.998,22.34711,-0.042577,0.97111,0.55763
374.598,22.3639,-0.04298157,0.97586,0.55743
375.198,22.3807,-0.04387531,0.97549,0.55723
375.798,22.3975,-0.043865,0.97461,0.55703
376.398,22.41422,-0.04474242,0.97813,0.55683
376.998,22.431,-0.04523287,0.97833,0.55662
377.598,22.4478,-0.0464499,0.98066,0.55642
378.198,22.46462,-0.04649003,0.98238,0.55622
378.798,22.48141,-0.04651073,0.986,0.55602
379.398,22.4983,-0.04645609,0.98742,0.55581
379.998,22.5151,-0.04777687,0.99248,0.55561
380.598,22.53195,-0.04781551,0.99014,0.55541
381.198,22.54876,-0.04782413,0.99011,0.5552
381.798,22.5656,-0.04828271,0.99502,0.555
382.398,22.58241,-0.0490215,0.99867,0.5548
382.998,22.5992,-0.04968628,0.99953,0.55459
383.598,22.6161,-0.0503735,1.00512,0.55439
384.198,22.63299,-0.05036359,1.00938,0.55418
384.798,22.64988,-0.05038553,1.01058,0.55398
385.398,22.66681,-0.05164427,1.01509,0.55377
385.998,22.68369,-0.05170161,1.02001,0.55357
386.598,22.70055,-0.05314618,1.02426,0.55337
387.198,22.71734,-0.05309025,1.03009,0.55316
387.798,22.73412,-0.05354703,1.03198,0.55296
388.398,22.75096,-0.0546525,1.03541,0.55275
388.998,22.7679,-0.05606107,1.03998,0.55255
389.598,22.7848,-0.0570629,1.04544,0.55234
390.198,22.80177,-0.05793025,1.04689,0.55213
390.798,22.8188,-0.05846839,1.05087,0.55193
391.398,22.8358,-0.05909718,1.06056,0.55172
391.998,22.85277,-0.05987302,1.06434,0.55152
392.598,22.86971,-0.060329,1.07054,0.55131
393.198,22.88663,-0.06081166,1.07501,0.5511
393.798,22.9036,-0.06207956,1.07942,0.5509
394.398,22.92054,-0.06366316,1.08966,0.55069
394.998,22.93746,-0.06488704,1.10159,0.55049
395.598,22.9544,-0.06655681,1.1068,0.55028
396.198,22.97137,-0.06726717,1.11674,0.55007
396.798,22.9884,-0.06823756,1.12308,0.54987
397.398,23.00538,-0.06940199,1.13121,0.54966
397.998,23.02236,-0.07015169,1.13722,0.54945
398.598,23.03935,-0.07196534,1.14368,0.54924
399.198,23.0564,-0.07287148,1.15555,0.54904
399.798,23.07337,-0.07452728,1.16301,0.54883
400.398,23.0904,-0.07598819,1.1748,0.54862
400.998,23.1075,-0.077573,1.18063,0.54841
401.598,23.1246,-0.07897346,1.18874,0.54821
402.198,23.14164,-0.080363,1.1982,0.548
402.798,23.15869,-0.08197893,1.20964,0.54779
403.398,23.1757,-0.08433485,1.21395,0.54758
403.998,23.19272,-0.0866209,1.22293,0.54737
404.598,23.20972,-0.08899846,1.23277,0.54716
405.198,23.2268,-0.09184881,1.24377,0.54696
405.798,23.24385,-0.09369152,1.25508,0.54675
406.398,23.26095,-0.09546438,1.26658,0.54654
406.998,23.27814,-0.09797545,1.27241,0.54633
407.598,23.29526,-0.10086,1.28305,0.54612
408.198,23.31241,-0.10418,1.2985,0.54591
408.798,23.3295,-0.10732,1.31022,0.5457
409.398,23.3466,-0.11,1.32371,0.54549
409.998,23.36372,-0.11198,1.33589,0.54528
410.598,23.38084,-0.11448,1.34341,0.54507
411.198,23.39794,-0.11857,1.3524,0.54486
411.798,23.415,-0.12351,1.36244,0.54465
412.398,23.43215,-0.12695,1.37562,0.54444
412.998,23.4493,-0.1311,1.38689,0.54423
413.598,23.46646,-0.13471,1.40274,0.54402
414.198,23.4836,-0.13782,1.41538,0.54381
414.798,23.5008,-0.14289,1.42543,0.5436
415.398,23.51792,-0.14738,1.44034,0.54339
415.998,23.53509,-0.15311,1.45253,0.54318
416.598,23.5522,-0.15737,1.4721,0.54297
417.198,23.5694,-0.16263,1.48336,0.54276
417.798,23.58653,-0.16853,1.49736,0.54255
418.398,23.60369,-0.17379,1.50757,0.54234
418.998,23.62085,-0.18009,1.51923,0.54213
419.598,23.63801,-0.18498,1.53165,0.54192
420.198,23.65519,-0.19175,1.54557,0.54171
420.798,23.67238,-0.19762,1.56416,0.5415
421.398,23.68956,-0.20419,1.5851,0.54128
421.998,23.70681,-0.21074,1.60752,0.54107
422.598,23.72405,-0.21721,1.61591,0.54086
423.198,23.74128,-0.22577,1.63339,0.54065
423.798,23.75855,-0.23269,1.64605,0.54044
424.398,23.77577,-0.2417,1.65406,0.54023
424.998,23.79306,-0.24965,1.66232,0.54001
425.598,23.81024,-0.25988,1.67288,0.5398
426.198,23.82744,-0.26961,1.68162,0.53959
426.798,23.8447,-0.27838,1.70239,0.53938
427.398,23.8619,-0.28876,1.72578,0.53916
427.998,23.8792,-0.29681,1.74648,0.53895
428.598,23.89646,-0.30728,1.76682,0.53874
429.198,23.91377,-0.31624,1.78535,0.53853
429.798,23.93102,-0.32747,1.81215,0.53832
430.398,23.94836,-0.33965,1.83821,0.5381
430.998,23.96562,-0.3517,1.86792,0.53789
431.598,23.98292,-0.3659,1.90098,0.53768
432.198,24.0002,-0.3771,1.93414,0.53746
432.798,24.01754,-0.39166,1.9696,0.53725
433.398,24.0348,-0.40361,2.01445,0.53704
433.998,24.0521,-0.4187,2.04872,0.53682
434.598,24.0694,-0.43287,2.08785,0.53661
435.198,24.08672,-0.44735,2.13434,0.5364
435.798,24.10405,-0.46478,2.1814,0.53618
436.398,24.12143,-0.47984,2.22292,0.53597
436.998,24.13877,-0.49931,2.26939,0.53576
437.598,24.15616,-0.51499,2.30865,0.53554
438.198,24.17355,-0.5352,2.35183,0.53533
438.798,24.19097,-0.55366,2.40082,0.53512
439.398,24.20844,-0.57344,2.44377,0.5349
439.998,24.2259,-0.59488,2.49677,0.53469
440.598,24.2434,-0.61194,2.54504,0.53447
441.198,24.26079,-0.62862,2.5913,0.53426
441.798,24.2782,-0.64461,2.64329,0.53405
442.398,24.29564,-0.67614,2.69136,0.53383
442.998,24.31307,-0.70996,2.74185,0.53362
443.598,24.33054,-0.74523,2.78837,0.5334
444.198,24.34802,-0.7693,2.8325,0.53319
444.798,24.36559,-0.78857,2.87966,0.53297
445.398,24.3831,-0.81527,2.92482,0.53276
445.998,24.40061,-0.83902,2.96252,0.53255
446.598,24.41815,-0.87155,3.00727,0.53233
447.198,24.4358,-0.89715,3.04743,0.53212
447.798,24.45332,-0.92967,3.08724,0.5319
448.398,24.47089,-0.9579,3.12445,0.53169
448.998,24.4886,-0.98888,3.16442,0.53147
449.598,24.50617,-1.02229,3.19593,0.53126
450.198,24.52375,-1.0522,3.22829,0.53104
450.798,24.54136,-1.08861,3.25286,0.53083
451.398,24.55903,-1.11711,3.28416,0.53061
451.998,24.57674,-1.15448,3.3061,0.5304
452.598,24.59442,-1.18521,3.32755,0.53018
453.198,24.61212,-1.22234,3.34186,0.52997
453.798,24.62985,-1.25659,3.3555,0.52975
454.398,24.6476,-1.2914,3.37265,0.52953
454.998,24.66527,-1.32911,3.3766,0.52932
455.598,24.683,-1.36116,3.37672,0.5291
456.198,24.70073,-1.40172,3.37488,0.52889
456.798,24.7184,-1.43424,3.36809,0.52867
457.398,24.73615,-1.47633,3.35625,0.52846
457.998,24.7539,-1.5095,3.34411,0.52824
458.598,24.77166,-1.54799,3.32447,0.52802
459.198,24.78943,-1.58375,3.30752,0.52781
459.798,24.80722,-1.61954,3.28803,0.52759
460.398,24.82497,-1.65887,3.26231,0.52738
460.998,24.8428,-1.69172,3.23378,0.52716
461.598,24.86051,-1.73263,3.20267,0.52694
462.198,24.8783,-1.76392,3.16402,0.52673
462.798,24.89607,-1.80246,3.12356,0.52651
463.398,24.9139,-1.83294,3.07651,0.5263
463.998,24.93163,-1.8681,3.02809,0.52608
464.598,24.9494,-1.90083,2.97469,0.52586
465.198,24.96711,-1.93267,2.91942,0.52565
465.798,24.98484,-1.96727,2.86003,0.52543
466.398,25.00252,-1.99514,2.79529,0.52521
466.998,25.02027,-2.02922,2.72424,0.525
467.598,25.038,-2.05388,2.65474,0.52478
468.198,25.05573,-2.08448,2.57846,0.52456
468.798,25.07351,-2.10852,2.49941,0.52435
469.398,25.09134,-2.13614,2.42055,0.52413
469.998,25.10906,-2.16091,2.33359,0.52392
470.598,25.1268,-2.18337,2.24159,0.5237
471.198,25.14459,-2.20712,2.15135,0.52348
471.798,25.16218,-2.22591,2.06435,0.52326
472.398,25.1799,-2.24869,1.97623,0.52305
472.998,25.19765,-2.26502,1.88616,0.52283
473.598,25.21546,-2.28447,1.79617,0.52261
474.198,25.23321,-2.29953,1.7058,0.5224
474.798,25.2512,-2.31587,1.61544,0.52218
475.398,25.26887,-2.33041,1.53105,0.52196
475.998,25.28659,-2.34375,1.45191,0.52175
476.598,25.30435,-2.35812,1.37193,0.52153
477.198,25.32216,-2.3691,1.29643,0.52131
477.798,25.33994,-2.38175,1.22549,0.5211
478.398,25.3579,-2.39137,1.15739,0.52088
478.998,25.37578,-2.40336,1.09186,0.52066
479.598,25.3936,-2.41277,1.0291,0.52044
480.198,25.41144,-2.4229,0.96855,0.52023
480.798,25.42923,-2.43176,0.91028,0.52001
481.398,25.447,-2.43968,0.85388,0.51979
481.998,25.46484,-2.44774,0.79864,0.51957
482.598,25.48262,-2.45414,0.75024,0.51936
483.198,25.50038,-2.46238,0.70336,0.51914
483.798,25.5182,-2.46844,0.65624,0.51892
484.398,25.536,-2.47571,0.6118,0.51871
484.998,25.55384,-2.48101,0.57436,0.51849
485.598,25.5717,-2.48682,0.53389,0.51827
486.198,25.58959,-2.49238,0.49452,0.51805
486.798,25.6075,-2.49752,0.46028,0.51784
487.398,25.62539,-2.5037,0.4297,0.51762
487.998,25.64324,-2.50956,0.39426,0.5174
488.598,25.66111,-2.51503,0.35939,0.51718
489.198,25.67888,-2.51887,0.32696,0.51697
489.798,25.69665,-2.52312,0.29463,0.51675
490.398,25.71448,-2.52471,0.26639,0.51653
490.998,25.73239,-2.52871,0.23946,0.51631
491.598,25.7503,-2.53286,0.21723,0.51609
492.198,25.76835,-2.53585,0.19151,0.51588
492.798,25.78646,-2.53901,0.16448,0.51566
493.398,25.8045,-2.54327,0.13543,0.51544
493.998,25.8224,-2.54801,0.1181,0.51522
494.598,25.8404,-2.55116,0.09023069,0.51501
495.198,25.85839,-2.5542,0.06865593,0.51479
495.798,25.87632,-2.55685,0.05183495,0.51457
496.398,25.89423,-2.55938,0.03044508,0.51435
496.998,25.91226,-2.56178,0.00713684,0.51414
497.598,25.9302,-2.56446,-0.004946287,0.51392
498.198,25.94816,-2.56689,-0.02438958,0.5137
498.798,25.96622,-2.56869,-0.04033657,0.51348
499.398,25.98435,-2.57041,-0.06022159,0.51326
499.998,26.00238,-2.57228,-0.07325072,0.51305
500.598,26.02042,-2.57414,-0.08778944,0.51283
501.198,26.0385,-2.57647,-0.10269,0.51261
501.798,26.05643,-2.57888,-0.11454,0.51239
502.398,26.07432,-2.58059,-0.12892,0.51218
502.998,26.09236,-2.58216,-0.14013,0.51196
503.598,26.11044,-2.58356,-0.15249,0.51174
504.198,26.12854,-2.58479,-0.164,0.51152
504.798,26.14677,-2.58595,-0.16826,0.5113
505.398,26.16504,-2.58783,-0.17849,0.51109
505.998,26.18318,-2.59031,-0.18906,0.51087
506.598,26.2013,-2.59152,-0.19689,0.51065
507.198,26.2194,-2.59213,-0.20533,0.51043
507.798,26.23756,-2.59336,-0.21484,0.51021
508.398,26.2557,-2.59367,-0.21916,0.51
508.998,26.2738,-2.59491,-0.22498,0.50978
509.598,26.2919,-2.59685,-0.23105,0.50956
510.198,26.3101,-2.59865,-0.2361,0.50934
510.798,26.3283,-2.60015,-0.2413,0.50913
511.398,26.3464,-2.60106,-0.25037,0.50891
511.998,26.36457,-2.6019,-0.25365,0.50869
512.598,26.3828,-2.60373,-0.25781,0.50847
513.198,26.4009,-2.60444,-0.26509,0.50825
513.798,26.419,-2.60504,-0.27163,0.50804
514.398,26.4373,-2.60586,-0.27491,0.50782
514.998,26.4555,-2.60649,-0.27929,0.5076
515.598,26.4738,-2.60554,-0.28507,0.50738
516.198,26.49203,-2.60636,-0.28788,0.50717
516.798,26.51033,-2.60634,-0.28938,0.50695
517.398,26.52855,-2.60728,-0.29333,0.50673
517.998,26.54683,-2.60792,-0.30175,0.50651
518.598,26.56509,-2.60966,-0.30093,0.50629
519.198,26.58333,-2.6104,-0.30463,0.50608
519.798,26.6016,-2.61104,-0.30754,0.50586
520.398,26.61989,-2.61289,-0.31081,0.50564
520.998,26.63813,-2.6128,-0.31097,0.50542
521.598,26.6564,-2.61402,-0.31605,0.50521
522.198,26.67475,-2.61417,-0.31607,0.50499
522.798,26.69309,-2.61662,-0.3164,0.50477
523.398,26.7114,-2.617,-0.3193,0.50455
523.998,26.7298,-2.61704,-0.32027,0.50434
524.598,26.74816,-2.61801,-0.32149,0.50412
525.198,26.7665,-2.61799,-0.32425,0.5039
525.798,26.7848,-2.618,-0.32476,0.50368
526.398,26.80317,-2.61813,-0.32706,0.50347
526.998,26.82146,-2.61839,-0.32834,0.50325
527.598,26.8398,-2.61987,-0.32819,0.50303
528.198,26.8581,-2.62042,-0.32876,0.50281
528.798,26.8765,-2.62119,-0.33175,0.5026
529.398,26.89487,-2.62108,-0.35211,0.50238
529.998,26.9133,-2.62244,-0.42527,0.50216
530.598,26.9316,-2.6226,-0.47369,0.50194
531.198,26.95,-2.62264,-0.51269,0.50173
531.798,26.96835,-2.62391,-0.53996,0.50151
532.398,26.98675,-2.62434,-0.56528,0.50129
532.998,27.0052,-2.62542,-0.5869,0.50107
533.598,27.0236,-2.62673,-0.60351,0.50086
534.198,27.0419,-2.62687,-0.61806,0.50064
534.798,27.06033,-2.62687,-0.62481,0.50042
535.398,27.0787,-2.62688,-0.63911,0.5002
535.998,27.0971,-2.62766,-0.64034,0.49999
536.598,27.11559,-2.62819,-0.64729,0.49977
537.198,27.13407,-2.62814,-0.65436,0.49955
537.798,27.15255,-2.62912,-0.66328,0.49934
538.398,27.171,-2.62949,-0.66704,0.49912
538.998,27.1895,-2.62986,-0.66729,0.4989
539.598,27.2079,-2.63218,-0.66812,0.49869
540.198,27.2263,-2.63237,-0.6753,0.49847
540.798,27.2448,-2.63364,-0.67961,0.49825
541.398,27.2632,-2.63357,-0.68167,0.49803
541.998,27.28169,-2.63356,-0.6816,0.49782
542.598,27.30022,-2.63356,-0.68348,0.4976
543.198,27.3187,-2.63356,-0.68671,0.49738
543.798,27.3372,-2.63356,-0.69021,0.49717
544.398,27.3557,-2.63356,-0.68883,0.49695
544.998,27.37418,-2.63357,-0.68969,0.49673
545.598,27.39266,-2.63372,-0.69171,0.49652
546.198,27.4112,-2.63491,-0.69536,0.4963
546.798,27.4298,-2.63486,-0.71496,0.49608
547.398,27.44831,-2.63578,-0.72786,0.49587
547.998,27.46688,-2.63619,-0.72275,0.49565
548.598,27.4855,-2.63618,-0.71667,0.49543
549.198,27.5041,-2.6361,-0.71379,0.49522
549.798,27.52267,-2.63743,-0.71217,0.495
550.398,27.54127,-2.63762,-0.71344,0.49478
550.998,27.55987,-2.63766,-0.70938,0.49457
551.598,27.5784,-2.63861,-0.7094,0.49435
552.198,27.59702,-2.6386,-0.71029,0.49414
552.798,27.61555,-2.63861,-0.71236,0.49392
553.398,27.6342,-2.63886,-0.713,0.4937
553.998,27.65278,-2.63997,-0.71511,0.49349
554.598,27.6714,-2.63992,-0.71127,0.49327
555.198,27.68998,-2.63992,-0.7151,0.49305
555.798,27.7086,-2.63992,-0.71761,0.49284
556.398,27.7273,-2.63992,-0.71861,0.49262
556.998,27.74592,-2.63992,-0.72351,0.49241
557.598,27.7646,-2.63991,-0.72911,0.49219
558.198,27.78322,-2.63984,-0.72602,0.49198
558.798,27.80183,-2.64108,-0.72689,0.49176
559.398,27.8204,-2.64123,-0.72761,0.49154
559.998,27.8391,-2.64123,-0.72867,0.49133
560.598,27.85775,-2.64254,-0.7291,0.49111
561.198,27.87645,-2.64246,-0.73103,0.4909
561.798,27.89511,-2.64383,-0.73241,0.49068
562.398,27.9138,-2.64387,-0.73308,0.49047
562.998,27.9325,-2.64387,-0.7341,0.49025
563.598,27.95117,-2.64439,-0.73547,0.49003
564.198,27.96988,-2.64517,-0.73907,0.48982
564.798,27.9886,-2.64518,-0.74197,0.4896
565.398,28.0072,-2.64518,-0.74398,0.48939
565.998,28.0259,-2.64518,-0.74638,0.48917
566.598,28.0446,-2.64519,-0.74237,0.48896
567.198,28.0633,-2.64538,-0.74421,0.48874
567.798,28.08205,-2.64655,-0.75318,0.48853
568.398,28.1008,-2.6465,-0.75305,0.48831
568.998,28.1196,-2.6465,-0.75965,0.4881
569.598,28.1384,-2.64649,-0.76051,0.48788
570.198,28.1572,-2.64579,-0.76095,0.48767
570.798,28.17597,-2.64243,-0.75911,0.48745
571.398,28.19475,-2.641,-0.76181,0.48724
571.998,28.21348,-2.6461,-0.76551,0.48702
572.598,28.2322,-2.65188,-0.76407,0.48681
573.198,28.25093,-2.65516,-0.76191,0.4866
573.798,28.26966,-2.65435,-0.76228,0.48638
574.398,28.28841,-2.65295,-0.76601,0.48617
574.998,28.3072,-2.65179,-0.77018,0.48595
575.598,28.32597,-2.65165,-0.77038,0.48574
576.198,28.34471,-2.65126,-0.77537,0.48552
576.798,28.3635,-2.65152,-0.77366,0.48531
577.398,28.38226,-2.65162,-0.77474,0.48509
577.998,28.40107,-2.65248,-0.77886,0.48488
578.598,28.41982,-2.65297,-0.7839,0.48467
579.198,28.4387,-2.65297,-0.78775,0.48445
579.798,28.45753,-2.65297,-0.79037,0.48424
580.398,28.47635,-2.65297,-0.78785,0.48403
580.998,28.4952,-2.65297,-0.78803,0.48381
581.598,28.514,-2.65303,-0.7943,0.4836
582.198,28.5329,-2.65436,-0.79353,0.48338
582.798,28.5517,-2.65466,-0.80213,0.48317
583.398,28.5706,-2.65463,-0.79757,0.48296
583.998,28.58939,-2.65606,-0.79968,0.48274
584.598,28.60828,-2.65605,-0.80243,0.48253
585.198,28.62715,-2.65653,-0.80445,0.48232
585.798,28.64609,-2.65739,-0.80432,0.4821
586.398,28.665,-2.65729,-0.8045,0.48189
586.998,28.6839,-2.65798,-0.8085,0.48168
587.598,28.70283,-2.65523,-0.80922,0.48146
588.198,28.72172,-2.65163,-0.81371,0.48125
588.798,28.7406,-2.65152,-0.81464,0.48104
589.398,28.75941,-2.65901,-0.81848,0.48083
589.998,28.77828,-2.66514,-0.81901,0.48061
590.598,28.79715,-2.66714,-0.82149,0.4804
591.198,28.81608,-2.66455,-0.82914,0.48019
591.798,28.83495,-2.66295,-0.83039,0.47997
592.398,28.85391,-2.66265,-0.83491,0.47976
592.998,28.87285,-2.66256,-0.839,0.47955
593.598,28.89175,-2.66378,-0.83576,0.47934
594.198,28.91067,-2.66395,-0.8393,0.47912
594.798,28.92962,-2.6636,-0.84357,0.47891
595.398,28.9486,-2.66361,-0.84441,0.4787
595.998,28.9676,-2.66361,-0.84645,0.47849
596.598,28.9866,-2.66361,-0.85029,0.47828
597.198,29.00553,-2.66361,-0.85127,0.47806
597.798,29.0245,-2.66361,-0.8567,0.47785
598.398,29.04345,-2.66363,-0.8645,0.47764
598.998,29.06239,-2.66388,-0.86619,0.47743
599.598,29.0814,-2.66494,-0.86713,0.47722
600.198,29.10035,-2.66493,-0.86656,0.47701
600.798,29.11934,-2.66493,-0.86697,0.47679
601.398,29.13832,-2.66494,-0.87185,0.47658
601.998,29.1574,-2.66574,-0.87645,0.47637
602.598,29.1763,-2.66637,-0.87384,0.47616
603.198,29.1953,-2.66629,-0.87535,0.47595
603.798,29.21432,-2.66701,-0.88027,0.47574
604.398,29.2334,-2.66774,-0.88425,0.47553
604.998,29.2523,-2.66764,-0.88234,0.47532
605.598,29.27135,-2.66849,-0.88984,0.47511
606.198,29.2904,-2.66975,-0.88662,0.47489
606.798,29.3095,-2.67031,-0.89052,0.47468
607.398,29.3285,-2.67031,-0.89482,0.47447
607.998,29.34753,-2.6715,-0.89114,0.47426
608.598,29.3666,-2.67154,-0.89784,0.47405
609.198,29.38565,-2.67222,-0.90069,0.47384
609.798,29.4047,-2.67171,-0.90587,0.47363
610.398,29.4238,-2.67172,-0.90946,0.47342
610.998,29.4429,-2.67166,-0.91201,0.47321
611.598,29.4619,-2.6729,-0.91473,0.473
612.198,29.4809,-2.67305,-0.9163,0.47279
612.798,29.5,-2.67305,-0.91762,0.47258
613.398,29.5191,-2.67305,-0.92373,0.47237
613.998,29.53815,-2.67305,-0.92557,0.47216
614.598,29.55722,-2.67306,-0.92575,0.47195
615.198,29.5763,-2.67347,-0.93023,0.47174
615.798,29.59538,-2.6744,-0.93233,0.47153
616.398,29.6143,-2.67436,-0.93725,0.47132
616.998,29.63343,-2.67436,-0.93534,0.47111
617.598,29.6526,-2.67436,-0.93848,0.47091
618.198,29.6717,-2.67494,-0.94136,0.4707
618.798,29.69085,-2.67566,-0.94457,0.47049
619.398,29.7101,-2.67609,-0.94906,0.47028
619.998,29.72921,-2.67699,-0.95397,0.47007
620.598,29.74827,-2.67783,-0.95913,0.46986
621.198,29.7674,-2.67981,-0.96154,0.46965
621.798,29.78649,-2.68019,-0.9645,0.46944
622.398,29.8056,-2.6811,-0.96146,0.46923
622.998,29.82475,-2.68106,-0.96095,0.46903
623.598,29.84393,-2.68106,-0.96257,0.46882
624.198,29.86293,-2.68106,-0.96732,0.46861
624.798,29.882,-2.68106,-0.96831,0.4684
625.398,29.9012,-2.68107,-0.9694,0.46819
625.998,29.92033,-2.6811,-0.97282,0.46799
626.598,29.9395,-2.68249,-0.9782,0.46778
627.198,29.9588,-2.68248,-0.97563,0.46757
627.798,29.978,-2.68304,-0.97875,0.46736
628.398,29.9972,-2.68382,-0.9812,0.46715
628.998,30.0164,-2.68388,-0.98382,0.46695
629.598,30.0355,-2.68381,-0.98819,0.46674
630.198,30.05473,-2.68517,-0.9888,0.46653
630.798,30.07392,-2.68522,-0.99064,0.46633
631.398,30.09308,-2.68523,-0.99194,0.46612
631.998,30.11225,-2.68536,-0.99459,0.46591
632.598,30.1315,-2.68658,-0.99092,0.4657
633.198,30.15067,-2.68653,-0.99359,0.4655
633.798,30.1699,-2.68726,-0.99775,0.46529
634.398,30.1891,-2.68786,-0.99651,0.46508
634.998,30.2084,-2.68786,-1.00289,0.46488
635.598,30.22764,-2.68788,-0.99784,0.46467
636.198,30.2469,-2.68861,-0.99707,0.46446
636.798,30.26608,-2.68929,-0.99962,0.46426
637.398,30.28535,-2.68918,-0.99794,0.46405
637.998,30.3046,-2.69055,-1.00308,0.46385
638.598,30.3239,-2.6906,-1.00317,0.46364
639.198,30.34321,-2.6906,-1.00347,0.46343
639.798,30.3625,-2.6906,-0.99995,0.46323
640.398,30.38175,-2.69118,-1.00353,0.46302
640.998,30.40103,-2.6919,-1.00543,0.46282
641.598,30.42025,-2.69192,-1.00469,0.46261
642.198,30.4395,-2.69336,-1.00725,0.46241
642.798,30.45885,-2.69334,-1.00474,0.4622
643.398,30.47808,-2.69334,-1.0064,0.462
643.998,30.4974,-2.69336,-1.00429,0.46179
644.598,30.5167,-2.69409,-1.00495,0.46159
645.198,30.536,-2.69466,-1.00643,0.46138
645.798,30.55531,-2.69466,-1.00814,0.46118
646.398,30.57465,-2.69466,-1.01683,0.46097
646.998,30.5939,-2.69466,-1.01289,0.46077
647.598,30.61327,-2.69466,-1.01365,0.46056
648.198,30.6326,-2.69465,-1.01256,0.46036
648.798,30.65195,-2.69526,-1.01688,0.46015
649.398,30.6712,-2.69595,-1.01178,0.45995
649.998,30.6906,-2.69597,-1.01804,0.45975
650.598,30.70995,-2.69637,-1.01506,0.45954
651.198,30.7294,-2.69729,-1.02093,0.45934
651.798,30.74877,-2.69729,-1.01947,0.45914
652.398,30.76813,-2.69729,-1.02026,0.45893
652.998,30.7875,-2.69729,-1.01903,0.45873
653.598,30.80685,-2.69729,-1.02473,0.45852
654.198,30.8262,-2.69729,-1.02483,0.45832
654.798,30.8456,-2.69729,-1.02287,0.45812
655.398,30.865,-2.69728,-1.02154,0.45792
655.998,30.8844,-2.69815,-1.02441,0.45771
656.598,30.90376,-2.69817,-1.02501,0.45751
657.198,30.92315,-2.69728,-1.02246,0.45731
657.798,30.9426,-2.69725,-1.02356,0.4571
658.398,30.96183,-2.69876,-1.0235,0.4569
658.998,30.98129,-2.69989,-1.02196,0.4567
659.598,31.0007,-2.69993,-1.02513,0.4565
660.198,31.02017,-2.69999,-1.02548,0.45629
660.798,31.0396,-2.70124,-1.02559,0.45609
661.398,31.0591,-2.69992,-1.02458,0.45589
661.998,31.07845,-2.70122,-1.02695,0.45569
662.598,31.09791,-2.70124,-1.02871,0.45549
663.198,31.1174,-2.70124,-1.02352,0.45529
663.798,31.1368,-2.70124,-1.02495,0.45508
664.398,31.15633,-2.70124,-1.02431,0.45488
664.998,31.1758,-2.70123,-1.02126,0.45468
665.598,31.1952,-2.70114,-1.02225,0.45448
666.198,31.21459,-2.70249,-1.02726,0.45428
666.798,31.234,-2.70255,-1.02592,0.45408
667.398,31.25351,-2.70257,-1.02837,0.45388
667.998,31.273,-2.70292,-1.02959,0.45368
668.598,31.29252,-2.70529,-1.02676,0.45348
669.198,31.312,-2.7052,-1.02993,0.45327
669.798,31.33145,-2.70519,-1.02823,0.45307
670.398,31.35094,-2.70519,-1.02678,0.45287
670.998,31.3705,-2.70519,-1.02336,0.45267
671.598,31.39,-2.70519,-1.02874,0.45247
672.198,31.4096,-2.70519,-1.02628,0.45227
672.798,31.429,-2.70551,-1.02267,0.45207
673.398,31.44841,-2.70651,-1.02619,0.45187
673.998,31.46785,-2.7065,-1.02327,0.45167
674.598,31.4874,-2.7065,-1.02355,0.45147
675.198,31.5068,-2.70649,-1.02524,0.45128
675.798,31.52642,-2.7076,-1.02451,0.45108
676.398,31.54598,-2.7078,-1.03134,0.45088
676.998,31.5655,-2.70782,-1.032,0.45068
677.598,31.5849,-2.70782,-1.02872,0.45048
678.198,31.60448,-2.70782,-1.02941,0.45028
678.798,31.624,-2.70777,-1.02808,0.45008
679.398,31.64351,-2.70883,-1.02511,0.44988
679.998,31.6631,-2.70912,-1.02902,0.44968
680.598,31.68272,-2.70907,-1.03237,0.44949
681.198,31.70219,-2.71031,-1.03098,0.44929
681.798,31.72172,-2.71045,-1.03078,0.44909
682.398,31.7412,-2.71045,-1.02782,0.44889
682.998,31.76077,-2.71046,-1.02924,0.44869
683.598,31.78027,-2.71052,-1.02909,0.4485
684.198,31.7998,-2.71175,-1.03357,0.4483
684.798,31.8193,-2.71045,-1.02408,0.4481
685.398,31.83881,-2.71045,-1.02487,0.4479
685.998,31.8584,-2.71043,-1.02866,0.44771
686.598,31.878,-2.71173,-1.02953,0.44751
687.198,31.8975,-2.71177,-1.03106,0.44731
687.798,31.91712,-2.71177,-1.03179,0.44711
688.398,31.9367,-2.71177,-1.03147,0.44692
688.998,31.95611,-2.7118,-1.03619,0.44672
689.598,31.9757,-2.71241,-1.02977,0.44652
690.198,31.99525,-2.7131,-1.0322,0.44633
690.798,32.01486,-2.71309,-1.03514,0.44613
691.398,32.03448,-2.71309,-1.03688,0.44594
691.998,32.05406,-2.71304,-1.04102,0.44574
692.598,32.07358,-2.71409,-1.04355,0.44554
693.198,32.0931,-2.71439,-1.04512,0.44535
693.798,32.11264,-2.7144,-1.04654,0.44515
694.398,32.1322,-2.7144,-1.04993,0.44496
694.998,32.15173,-2.7144,-1.0488,0.44476
695.598,32.1712,-2.7144,-1.04442,0.44457
696.198,32.19084,-2.71438,-1.0429,0.44437
696.798,32.21043,-2.71515,-1.04832,0.44417
697.398,32.22996,-2.7157,-1.04831,0.44398
697.998,32.24973,-2.71571,-1.04424,0.44378
698.598,32.26937,-2.71571,-1.04476,0.44359
699.198,32.289,-2.71571,-1.04418,0.4434
699.798,32.30856,-2.71571,-1.0497,0.4432
700.398,32.32824,-2.71571,-1.04858,0.44301
700.998,32.34782,-2.71571,-1.0542,0.44281
701.598,32.3675,-2.71572,-1.05575,0.44262
702.198,32.3871,-2.7162,-1.05429,0.44242
702.798,32.40667,-2.7171,-1.04897,0.44223
703.398,32.42628,-2.71585,-1.04998,0.44204
703.998,32.44592,-2.71573,-1.0544,0.44184
704.598,32.46555,-2.71572,-1.05585,0.44165
705.198,32.48516,-2.71572,-1.05619,0.44146
705.798,32.50482,-2.71572,-1.05282,0.44126
706.398,32.52445,-2.71572,-1.04334,0.44107
706.998,32.5441,-2.71574,-1.04804,0.44088
707.598,32.56377,-2.71614,-1.04477,0.44068
708.198,32.5835,-2.71704,-1.04463,0.44049
708.798,32.60318,-2.71703,-1.0506,0.4403
709.398,32.62293,-2.71703,-1.04917,0.44011
709.998,32.6426,-2.71703,-1.05106,0.43991
710.598,32.66232,-2.71703,-1.04675,0.43972
711.198,32.682,-2.71704,-1.05433,0.43953
711.798,32.70169,-2.71723,-1.05317,0.43934
712.398,32.72136,-2.71836,-1.04771,0.43914
712.998,32.74106,-2.71835,-1.03495,0.43895
713.598,32.7607,-2.71835,-1.0287,0.43876
714.198,32.7804,-2.71834,-1.03002,0.43857
714.798,32.8001,-2.71909,-1.02418,0.43838
715.398,32.81986,-2.71967,-1.01601,0.43819
715.998,32.83963,-2.71967,-1.02038,0.438
716.598,32.8594,-2.71967,-1.02217,0.43781
717.198,32.8791,-2.71967,-1.0242,0.43761
717.798,32.89885,-2.72062,-1.03132,0.43742
718.398,32.91855,-2.72098,-1.02707,0.43723
718.998,32.93825,-2.72101,-1.02651,0.43704
719.598,32.958,-2.7203,-1.03115,0.43685
720.198,32.97775,-2.72031,-1.03179,0.43666
720.798,32.9974,-2.71975,-1.04573,0.43647
721.398,33.01717,-2.71967,-1.05512,0.43628
721.998,33.03687,-2.71966,-1.05798,0.43609
722.598,33.05659,-2.7196,-1.06483,0.4359
723.198,33.07627,-2.72061,-1.06441,0.43571
723.798,33.0961,-2.72065,-1.07229,0.43552
724.398,33.11582,-2.72065,-1.06932,0.43533
724.998,33.13554,-2.72065,-1.0669,0.43514
725.598,33.15529,-2.72065,-1.07713,0.43496
726.198,33.17501,-2.72061,-1.07102,0.43477
726.798,33.1948,-2.72101,-1.07362,0.43458
727.398,33.21451,-2.72099,-1.07169,0.43439
727.998,33.23428,-2.72011,-1.0646,0.4342
728.598,33.25403,-2.71968,-1.06449,0.43401
729.198,33.27384,-2.71966,-1.06755,0.43382
729.798,33.29391,-2.71966,-1.0656,0.43364
730.398,33.3143,-2.72056,-1.06963,0.43345
730.898,33.33109,-2.72097,-1.07634,0.43329