File: 01_Data/Engineered_Wood_Furniture/Cone/Engineered_Wood_Furniture_Cone_HF25Scan_220330_R2.csv
Names,Time,Stack TC,Smoke TC,Exh Press,Smoke Comp,Smoke Meas,CO Meter,CO2 Meter,O2 Meter,Sample Mass,Ext Coeff,Start Test,Flame Verif
Chan Gain,,500,500,1,1,1,1,1,1,1,1,1.0,1.0
Offset,,0,0,0.138301,0,0,0,0,0,0,0,0.0,0.0
Gain,,1,1,25.011,13.2062,13.8682,1,1,1,1.0009,1.02317,1.0,1.0
Units,sec,C,C,Pa,%,%,%,%,%,g,/m,,
Baseline,,19.474,19.86,156.729,100.034,99.6513,0.000890777,0.0720078,20.9959,-835.928,0.0343871,,
11,2.5,18.0935,18.736,151.624,99.6655,99.2798,0.000623455,0.0794323,20.9866,-225.944,0.0347982,0.0,0.0
22,5.25,18.4536,18.0404,155.148,99.5603,98.9358,0.000574155,0.0786249,20.9874,-226.004,0.0564799,0.0,0.0
33,8,17.6551,17.9164,157.429,99.5458,99.2523,0.000608365,0.0774931,20.9879,-226.014,0.0264993,0.0,0.0
44,10.75,18.2796,18.6335,154.798,99.5736,98.7919,0.000869305,0.0763252,20.9924,-226.014,0.0707422,0.0,0.0
55,13.5,18.1092,18.7927,153.544,99.6309,98.7246,0.000993706,0.0746073,20.9957,-226.044,0.082015,0.0,0.0
66,16.25,18.0208,18.0345,156.767,99.6796,99.2837,0.000812869,0.0733777,20.9984,-226.084,0.0357232,0.0,0.0
77,19,18.3433,18.4512,155.343,99.7292,99.26,0.000667053,0.0756157,20.9948,-226.114,0.042328,0.0,0.0
88,21.75,17.9269,19.2315,157.072,99.7981,99.2832,0.000487904,0.0799722,20.9918,-226.144,0.0464237,0.0,0.0
99,24.5,18.6513,19.0795,153.636,99.8751,98.8511,0.00051788,0.0811776,20.9909,-226.184,0.0924931,0.0,0.0
110,27.25,18.709,18.9535,152.645,99.9295,98.6662,0.000729847,0.0795682,20.991,-226.214,0.114189,0.0,0.0
121,30,18.3832,19.6069,157.9,99.9944,98.8092,0.000689715,0.0772363,20.9936,-226.254,0.107011,0.0,0.0
132,32.75,18.3445,19.122,151.531,100.072,99.4758,0.000612152,0.0749159,20.9958,-226.274,0.0536098,0.0,0.0
143,35.5,18.2691,19.1711,158.971,100.142,99.403,0.000680274,0.0730885,20.9989,-226.304,0.0664675,0.0,0.0
154,38.25,18.1205,19.49,157.77,100.187,99.072,0.000759149,0.0718193,20.9999,-226.324,0.100444,0.0,0.0
165,41,17.993,19.0591,159.564,100.237,98.4804,0.000769259,0.0712145,21.0008,-226.334,0.158681,0.0,0.0
176,43.75,18.5409,18.8856,152.219,100.276,98.3818,0.000792014,0.0713485,21.0012,-226.364,0.171136,0.0,0.0
187,46.5,18.8683,19.427,154.102,100.302,98.7927,0.000793074,0.0716001,21.0006,-226.384,0.136069,0.0,0.0
198,49.25,18.5737,19.1689,157.188,100.309,98.3923,0.00087178,0.0717564,21.0004,-226.384,0.173129,0.0,0.0
209,52,18.6598,18.8663,156.251,100.306,98.2942,0.00106244,0.0715842,21.001,-226.434,0.181801,0.0,0.0
220,54.75,18.7354,19.0558,155.092,100.277,97.9078,0.00102642,0.0715821,21.0022,-226.454,0.21463,0.0,0.0
231,57.5,18.9235,19.4972,156.723,100.239,97.2602,0.000895808,0.0715295,21.0029,-226.484,0.270793,0.0,0.0
242,60.25,18.5891,19.2237,154.605,100.185,97.5514,0.00091875,0.0714911,21.0032,-226.534,0.239055,0.0,0.0
253,63,18.5964,19.0048,157.827,100.112,96.9978,0.00103898,0.0713462,21.0032,-226.544,0.283595,0.0,0.0
264,65.75,19.0679,19.5536,157.905,100.015,96.8996,0.00103016,0.0712809,21.0033,-226.544,0.283972,0.0,0.0
275,68.5,18.7969,19.4087,157.798,99.8977,97.4363,0.000939957,0.0712505,21.0033,-226.594,0.22391,0.0,0.0
286,71.25,19.319,19.4708,155.597,99.784,96.7566,0.000783223,0.0711117,21.0033,-226.574,0.276521,0.0,0.0
297,74,19.0716,19.5315,164.018,99.6393,96.7684,0.000703218,0.0713431,21.0033,-226.624,0.262398,0.0,0.0
308,76.75,18.8984,19.3704,156.25,99.4918,96.9915,0.000758418,0.0713917,21.0033,-226.644,0.228439,0.0,0.0
319,79.5,18.7688,19.9223,146.935,99.3177,96.3215,0.000793758,0.0717557,21.0047,-226.664,0.274929,0.0,0.0
330,82.25,18.7645,19.0453,157.63,99.1448,96.2254,0.000831754,0.0721789,21.0041,-226.704,0.268248,0.0,0.0
341,85,18.4343,19.5364,151.172,98.9796,93.6019,0.00114886,0.0735603,21.0014,-226.774,0.501382,0.0,0.0
352,87.75,19.0421,18.9889,148.602,98.8135,92.9129,0.00216182,0.110803,20.9387,-226.954,0.552624,0.0,1.0
363,90.5,19.7614,20.2893,139.499,98.6576,82.2066,0.0041202,0.250541,20.7719,-227.385,1.63725,0.0,1.0
374,93.25,21.0673,20.8249,135.324,98.5258,89.3125,0.00543395,0.401127,20.5799,-227.865,0.881155,0.0,1.0
385,96,23.6472,24.1504,131.215,98.3932,93.0322,0.0055887,0.473034,20.5021,-228.246,0.502841,0.0,0.0
396,98.75,25.7158,26.5708,136.934,98.3025,92.8595,0.00548242,0.496474,20.4714,-228.626,0.511239,0.0,0.0
407,101.5,27.5851,28.3392,133.922,98.234,90.211,0.0053194,0.518556,20.4589,-229.056,0.764694,0.0,0.0
418,104.25,29.5598,30.8861,138.664,98.2038,92.5015,0.00470232,0.491515,20.498,-229.397,0.536893,0.0,0.0
429,107,31.0419,32.3963,146.034,98.1913,95.0404,0.00415203,0.419953,20.5922,-229.617,0.292726,0.0,0.0
440,109.75,31.1645,32.2409,149.746,98.2215,95.6736,0.00394027,0.345686,20.6741,-229.857,0.235895,0.0,0.0
451,112.5,31.1216,33.833,147.018,98.2767,95.368,0.00379786,0.30184,20.7311,-230.057,0.26965,0.0,0.0
462,115.25,31.6473,33.5521,143.798,98.3625,95.2207,0.00375004,0.284928,20.7563,-230.297,0.291359,0.0,0.0
473,118,31.9343,34.0108,144.879,98.4786,94.9769,0.00382064,0.277204,20.7689,-230.578,0.324951,0.0,0.0
484,120.75,32.1978,33.6953,145.397,98.5967,95.2643,0.0038634,0.273839,20.7743,-230.838,0.308591,0.0,0.0
495,123.5,32.3359,34.2035,143.408,98.7462,95.6884,0.00378261,0.277441,20.772,-231.038,0.282327,0.0,0.0
506,126.25,32.1611,34.9926,145.409,98.8986,95.2114,0.00363798,0.288007,20.7625,-231.268,0.341013,0.0,0.0
517,129,32.9527,35.0975,143.974,99.0565,94.7014,0.00380641,0.30654,20.7378,-231.559,0.403543,0.0,0.0
528,131.75,33.7186,35.7573,143.55,99.1908,94.9634,0.00397647,0.323261,20.7172,-231.859,0.3909,0.0,0.0
539,134.5,33.8799,36.3993,143.395,99.302,95.0535,0.00391971,0.333897,20.7036,-232.179,0.392444,0.0,0.0
550,137.25,34.6223,37.3251,144.948,99.4241,95.7036,0.00381873,0.339679,20.6956,-232.519,0.342302,0.0,0.0
561,140,35.8948,36.7447,139.292,99.4918,95.3777,0.00379411,0.344252,20.6904,-232.76,0.379024,0.0,0.0
572,142.75,35.2754,37.7498,147.166,99.5644,95.4378,0.00390015,0.346062,20.6862,-233.21,0.379914,0.0,0.0
583,145.5,35.7223,38.5326,143.345,99.5922,95.8136,0.00395952,0.350629,20.6799,-233.45,0.347146,0.0,0.0
594,148.25,36.7664,39.2645,145.793,99.6091,95.6587,0.00406269,0.356586,20.6755,-233.801,0.363192,0.0,0.0
605,151,37.1067,39.5341,140.399,99.6159,96.0388,0.00419396,0.360293,20.6719,-234.081,0.328222,0.0,0.0
616,153.75,37.0236,39.0746,139.681,99.6333,95.054,0.00424239,0.363766,20.6678,-234.391,0.422296,0.0,0.0
627,156.5,37.8775,40.5324,140.603,99.6329,95.1754,0.00404365,0.365506,20.6659,-234.731,0.410798,0.0,0.0
638,159.25,38.6451,40.6586,144.387,99.6268,95.4268,0.00401322,0.364062,20.6653,-234.982,0.386578,0.0,0.0
649,162,38.9187,41.2441,141.729,99.6248,95.6752,0.00418167,0.361557,20.6662,-235.342,0.363061,0.0,0.0
660,164.75,39.0857,41.952,145.531,99.6022,95.2605,0.00406013,0.356878,20.6704,-235.712,0.40002,0.0,0.0
671,167.5,39.3786,42.5874,141.995,99.5849,95.3544,0.00397451,0.353333,20.6725,-236.023,0.38961,0.0,0.0
682,170.25,39.6487,42.8657,140.269,99.5486,95.3396,0.00407489,0.35094,20.6744,-236.273,0.387734,0.0,0.0
693,173,39.8167,43.2174,144.493,99.5204,95.1488,0.00413461,0.348389,20.6752,-236.613,0.403179,0.0,0.0
704,175.75,40.4185,42.9503,139.099,99.4918,95.3235,0.0039594,0.34909,20.6769,-236.903,0.384125,0.0,0.0
715,178.5,40.9724,43.0814,142.323,99.4656,95.2503,0.00364096,0.346439,20.6788,-237.204,0.388658,0.0,0.0
726,181.25,41.0291,43.8476,140.87,99.4346,95.0611,0.00326267,0.343188,20.6812,-237.474,0.4037,0.0,0.0
737,184,40.0885,43.9231,142.656,99.4221,95.5796,0.00312382,0.33972,20.6848,-237.784,0.353756,0.0,0.0
748,186.75,40.9935,43.968,145.354,99.4011,95.4425,0.00313835,0.337598,20.6864,-238.074,0.36475,0.0,0.0
759,189.5,41.2697,44.5403,141.805,99.3923,95.5144,0.00299499,0.336765,20.6857,-238.375,0.357186,0.0,0.0
770,192.25,40.7673,44.3094,139.441,99.3749,94.9405,0.00277414,0.336667,20.6851,-238.695,0.409711,0.0,0.0
781,195,41.3406,44.9994,144.103,99.3612,95.5381,0.00273238,0.335173,20.6852,-238.975,0.352156,0.0,0.0
792,197.75,41.9037,44.7352,138.419,99.3487,95.1585,0.00299081,0.333595,20.6863,-239.276,0.386763,0.0,0.0
803,200.5,41.7744,45.1237,141.533,99.3455,95.1581,0.00337622,0.332909,20.6873,-239.546,0.386512,0.0,0.0
814,203.25,41.8782,44.9693,144.638,99.3407,95.5876,0.00357154,0.332379,20.6876,-239.826,0.345649,0.0,0.0
825,206,41.9072,45.2903,144.63,99.3326,95.2317,0.00363529,0.330727,20.6893,-240.126,0.378403,0.0,0.0
836,208.75,42.1749,45.3037,136.648,99.3237,96.1463,0.00339271,0.330056,20.6898,-240.427,0.291818,0.0,0.0
847,211.5,42.0034,46.0085,143.413,99.3294,95.671,0.00314182,0.32919,20.692,-240.677,0.336805,0.0,0.0
858,214.25,42.1459,45.6957,151.654,99.3665,96.4167,0.00282763,0.326621,20.6952,-240.957,0.270468,0.0,0.0
869,217,41.9701,45.4005,145.611,99.3822,95.7696,0.00285915,0.322907,20.6984,-241.237,0.332327,0.0,0.0
880,219.75,41.7988,45.5722,144.143,99.4088,95.3853,0.00310033,0.318992,20.7033,-241.498,0.370816,0.0,0.0
891,222.5,42.1144,45.3041,147.345,99.3874,95.6321,0.00319361,0.314179,20.7082,-241.798,0.345701,0.0,0.0
902,225.25,41.8637,46.0159,144.521,99.3725,95.5978,0.00323347,0.31139,20.7101,-242.028,0.347571,0.0,0.0
913,228,42.1906,45.8679,139.077,99.3673,95.5953,0.00315202,0.308166,20.7151,-242.308,0.347336,0.0,0.0
924,230.75,42.1779,45.7959,142.91,99.3366,95.7561,0.00297523,0.304418,20.7182,-242.569,0.329484,0.0,0.0
935,233.5,42.1716,45.8341,145.912,99.3181,95.6994,0.00276967,0.300568,20.7223,-242.819,0.333125,0.0,0.0
946,236.25,42.2084,45.5715,142.953,99.3197,95.5957,0.00288872,0.297716,20.7247,-243.089,0.343001,0.0,0.0
957,239,42.0169,45.5361,144.772,99.3205,96.6334,0.0031004,0.294822,20.7271,-243.349,0.246168,0.0,0.0
968,241.75,42.1937,45.1935,143.435,99.3334,95.9224,0.00304228,0.292381,20.7291,-243.569,0.313616,0.0,0.0
979,244.5,41.7989,45.1213,143.02,99.3306,95.6947,0.00305274,0.289403,20.7326,-243.8,0.334691,0.0,0.0
990,247.25,41.7648,45.0962,142.181,99.3294,96.4946,0.00309161,0.286964,20.7356,-244.04,0.259872,0.0,0.0
1001,250,41.6274,44.7532,143.678,99.3451,95.4696,0.00310909,0.284775,20.7382,-244.33,0.357144,0.0,0.0
1012,252.75,41.3,44.7528,143.583,99.3564,95.9749,0.00318549,0.282314,20.7421,-244.58,0.310781,0.0,0.0
1023,255.5,41.3022,44.4065,149.244,99.3645,96.3169,0.00314879,0.27983,20.745,-244.781,0.279587,0.0,0.0
1034,258.25,40.9893,44.5737,143.017,99.3814,96.1086,0.0029447,0.278082,20.7482,-245.051,0.30054,0.0,0.0
1045,261,41.0077,44.4213,141.749,99.3874,96.6741,0.00281042,0.275172,20.7516,-245.311,0.248439,0.0,0.0
1056,263.75,40.7854,43.8525,147.192,99.3987,95.6575,0.00265009,0.272542,20.7538,-245.531,0.344337,0.0,0.0
1067,266.5,41.2401,43.5358,141.53,99.4326,96.363,0.00271737,0.271412,20.7554,-245.761,0.28144,0.0,0.0
1078,269.25,40.9999,43.6034,148.496,99.4354,95.8428,0.0028669,0.270212,20.7582,-245.972,0.330272,0.0,0.0
1089,272,41.3081,42.8122,143.792,99.4761,95.5026,0.00306251,0.269001,20.7608,-246.212,0.365867,0.0,0.0
1100,274.75,40.6396,43.1845,145.72,99.4789,96.0959,0.00330471,0.267845,20.7621,-246.462,0.31053,0.0,0.0
1111,277.5,40.1602,43.5034,145.924,99.495,96.4874,0.00332154,0.265604,20.7643,-246.702,0.275495,0.0,0.0
1122,280.25,40.3249,42.7767,141.879,99.5212,95.6659,0.00313792,0.262689,20.7664,-246.962,0.354597,0.0,0.0
1133,283,39.8568,43.716,148.028,99.5321,96.3977,0.00303108,0.259829,20.7699,-247.193,0.287189,0.0,0.0
1144,285.75,40.1126,42.5098,148.782,99.5543,96.1154,0.00291474,0.259741,20.7713,-247.383,0.315509,0.0,0.0
1155,288.5,39.9409,42.3281,142.931,99.5712,96.6237,0.00283612,0.259556,20.7722,-247.643,0.269696,0.0,0.0
1166,291.25,39.5264,42.8386,144.235,99.5849,95.6482,0.0029773,0.258513,20.774,-247.843,0.362007,0.0,0.0
1177,294,38.5705,43.1766,143.429,99.6055,96.5547,0.00303254,0.257997,20.7747,-248.094,0.279193,0.0,0.0
1188,296.75,39.2244,42.4797,145.846,99.6188,96.0265,0.00287586,0.257495,20.7749,-248.314,0.329623,0.0,0.0
1199,299.5,39.1711,42.3566,145.62,99.6276,96.8268,0.00264634,0.257255,20.7749,-248.554,0.25593,0.0,0.0
1210,302.25,38.8256,42.4415,150.079,99.6135,95.8763,0.00271943,0.254821,20.7775,-248.814,0.343205,0.0,0.0
1221,305,39.5382,41.8981,144.308,99.6264,96.1954,0.0026825,0.252613,20.7789,-248.994,0.314545,0.0,0.0
1232,307.75,38.8723,41.9205,148.659,99.6135,96.3786,0.00248474,0.250419,20.7803,-249.204,0.2963,0.0,0.0
1243,310.5,39.1287,41.6173,149.059,99.597,97.1079,0.00260322,0.246185,20.7847,-249.415,0.227159,0.0,0.0
1254,313.25,38.877,41.485,147.707,99.5853,96.7261,0.00277623,0.243055,20.7894,-249.615,0.261458,0.0,0.0
1265,316,38.7684,41.3379,149.441,99.5845,96.0824,0.00279956,0.241142,20.7937,-249.855,0.321317,0.0,0.0
1276,318.75,38.2702,41.1309,148.401,99.576,95.9961,0.00266869,0.237896,20.7962,-250.045,0.328623,0.0,0.0
1287,321.5,37.7444,40.4118,150.699,99.5684,96.3101,0.00242993,0.234266,20.7996,-250.255,0.29862,0.0,0.0
1298,324.25,38.2975,40.883,145.736,99.5361,96.8497,0.00256358,0.232522,20.802,-250.466,0.245567,0.0,0.0
1309,327,38.0929,40.6075,146.235,99.4886,96.2411,0.0027635,0.23033,20.8047,-250.666,0.297855,0.0,0.0
1320,329.75,37.3704,39.6726,146.915,99.4515,96.972,0.00282295,0.229471,20.806,-250.856,0.226604,0.0,0.0
1331,332.5,37.8732,40.037,150.206,99.412,96.4764,0.00279892,0.228045,20.8058,-251.086,0.269026,0.0,0.0
1342,335.25,37.2797,40.1817,148.455,99.3419,96.0735,0.00277546,0.226675,20.8065,-251.266,0.300254,0.0,0.0
1353,338,37.4783,39.3478,148.079,99.2726,96.6135,0.00288709,0.225077,20.8082,-251.467,0.24368,0.0,0.0
1364,340.75,37.2215,39.732,148.02,99.1916,96.3689,0.00311231,0.223402,20.8104,-251.627,0.259107,0.0,0.0
1375,343.5,36.6434,40.3867,145,99.1339,96.2817,0.00329535,0.221103,20.8123,-251.847,0.262014,0.0,0.0
1386,346.25,37.0541,39.0779,149.409,99.0428,96.0693,0.00335395,0.219523,20.8135,-252.057,0.273591,0.0,0.0
1397,349,37.3369,38.8624,146.449,98.9667,95.8048,0.00337142,0.218031,20.8156,-252.217,0.291432,0.0,0.0
1408,351.75,35.7877,39.5753,154.058,98.8724,96.0189,0.0034013,0.215834,20.8201,-252.367,0.262836,0.0,0.0
1419,354.5,36.0912,38.3392,149.712,98.7946,96.1958,0.00341898,0.214122,20.8228,-252.608,0.239251,0.0,0.0
1430,357.25,36.085,38.8126,147.331,98.7164,95.6638,0.00351669,0.213365,20.8251,-252.758,0.281918,0.0,0.0
1441,360,35.4249,38.5238,146.809,98.6277,96.6212,0.00360627,0.211362,20.8275,-252.988,0.184483,0.0,0.0
1452,362.75,36.0298,38.1268,140.053,98.5423,96.0062,0.00371602,0.209347,20.8287,-253.158,0.23401,0.0,0.0
1463,365.5,36.1975,38.4196,144.276,98.4605,95.522,0.00383947,0.207438,20.8332,-253.348,0.271932,0.0,0.0
1474,368.25,36.1396,38.0114,155.181,98.3964,95.6706,0.0038942,0.205468,20.8354,-253.528,0.252142,0.0,0.0
1485,371,36.0516,37.6416,146.409,98.34,95.8238,0.00401396,0.203248,20.8374,-253.719,0.232633,0.0,0.0
1496,373.75,35.5026,38.3271,151.812,98.2811,94.8368,0.00425922,0.201408,20.8411,-253.839,0.320181,0.0,0.0
1507,376.5,35.7693,37.7283,149.085,98.2473,95.5919,0.00429204,0.199583,20.8439,-254.039,0.245918,0.0,0.0
1518,379.25,35.523,37.7076,146.815,98.205,95.1369,0.00428296,0.197737,20.8452,-254.219,0.284871,0.0,0.0
1529,382,35.4454,37.0183,150.654,98.1953,95.594,0.00427544,0.195502,20.8474,-254.339,0.240969,0.0,0.0
1540,384.75,34.8873,37.0806,145.717,98.1643,95.0713,0.00414189,0.192502,20.8518,-254.499,0.287341,0.0,0.0
1551,387.5,35.0722,36.9592,148.349,98.1719,95.8433,0.00410759,0.19039,20.8542,-254.669,0.215458,0.0,0.0
1562,390.25,34.0579,37.465,149.237,98.1828,95.3062,0.00422262,0.189595,20.8537,-254.94,0.266888,0.0,0.0
1573,393,34.3498,36.3559,149.646,98.2029,94.9731,0.00454427,0.190749,20.8513,-255.05,0.300151,0.0,0.0
1584,395.75,34.5745,36.0097,154.74,98.2485,95.5745,0.00484712,0.189965,20.8503,-255.22,0.247658,0.0,0.0
1595,398.5,35.0125,35.1337,153.241,98.2985,95.2859,0.00465626,0.189377,20.8512,-255.39,0.279368,0.0,0.0
1606,401.25,34.6275,35.589,150.081,98.3468,95.3904,0.00435196,0.187587,20.8526,-255.54,0.273943,0.0,0.0
1617,404,33.7008,36.0026,147.524,98.4278,95.9977,0.00434816,0.185471,20.8569,-255.7,0.224371,0.0,0.0
1628,406.75,33.3418,35.9507,148.782,98.4996,96.0468,0.00435555,0.183775,20.8616,-255.881,0.226321,0.0,0.0
1639,409.5,33.4827,35.7954,149.32,98.579,96.087,0.00427661,0.181653,20.8648,-256.021,0.229796,0.0,0.0
1650,412.25,33.2006,35.3823,147.979,98.6656,95.6003,0.00441418,0.179453,20.8674,-256.191,0.283259,0.0,0.0
1661,415,33.3011,35.1118,153.253,98.7531,96.0282,0.00463556,0.177661,20.8698,-256.371,0.25113,0.0,0.0
1672,417.75,32.7728,35.1228,147.838,98.8647,96.476,0.00473207,0.176013,20.8708,-256.491,0.219517,0.0,0.0
1683,420.5,32.8457,35.0325,149.507,98.9618,96.3626,0.00471827,0.175438,20.8725,-256.641,0.238888,0.0,0.0
1694,423.25,32.5191,34.2474,154.322,99.0654,96.0672,0.00456049,0.173562,20.873,-256.791,0.275834,0.0,0.0
1705,426,32.4836,34.402,155.27,99.1613,96.6838,0.00458937,0.172923,20.8732,-256.941,0.227094,0.0,0.0
1716,428.75,32.6381,34.2868,149.807,99.2307,96.3173,0.00474427,0.172336,20.8744,-257.082,0.267454,0.0,0.0
1727,431.5,32.5181,34.2778,150.896,99.3181,96.1057,0.00480453,0.170714,20.8757,-257.242,0.295102,0.0,0.0
1738,434.25,32.7426,33.231,153.019,99.3778,96.9733,0.00479566,0.170686,20.8762,-257.392,0.219829,0.0,0.0
1749,437,31.761,34.3109,146.628,99.4708,96.8721,0.00487993,0.170042,20.8776,-257.532,0.237599,0.0,0.0
1760,439.75,31.1739,34.3403,153.138,99.5212,97.4435,0.004759,0.168826,20.8783,-257.682,0.189363,0.0,0.0
1771,442.5,31.9434,33.5244,149.267,99.5861,97.3186,0.00468568,0.168114,20.8799,-257.842,0.206719,0.0,0.0
1782,445.25,31.7735,33.1481,149.261,99.6413,96.9872,0.00484946,0.167882,20.8806,-257.962,0.242309,0.0,0.0
1793,448,30.9373,33.8335,149.03,99.6913,96.7803,0.00487385,0.167477,20.8803,-258.123,0.26598,0.0,0.0
1804,450.75,31.9759,33.1179,151.077,99.7743,96.8742,0.00493227,0.167348,20.8796,-258.253,0.264743,0.0,0.0
1815,453.5,31.2535,33.5858,151.79,99.8356,96.8717,0.00510933,0.167152,20.8802,-258.383,0.270487,0.0,0.0
1826,456.25,31.4326,33.0068,148.067,99.8948,97.4689,0.00519368,0.166726,20.8812,-258.533,0.220654,0.0,0.0
1837,459,31.5751,32.9333,149.926,99.9553,97.8125,0.00534556,0.165874,20.8815,-258.683,0.194495,0.0,0.0
1848,461.75,31.1835,33.3289,149.388,100.004,97.9467,0.00552307,0.165165,20.8816,-258.833,0.18657,0.0,0.0
1859,464.5,31.4362,32.2386,147.376,100.049,97.2983,0.00562425,0.165142,20.8816,-258.953,0.250232,0.0,0.0
1870,467.25,31.9598,31.5923,151.429,100.09,97.2581,0.00576414,0.164534,20.8828,-259.113,0.257591,0.0,0.0
1881,470,31.1475,32.9065,149.247,100.121,98.3077,0.00578048,0.163912,20.8836,-259.234,0.163997,0.0,0.0
1892,472.75,29.9321,33.0753,152.664,100.156,97.6593,0.00576959,0.163122,20.8871,-259.384,0.226531,0.0,0.0
1903,475.5,30.7593,32.1096,155.043,100.175,98.157,0.00585263,0.16254,20.8885,-259.514,0.182676,0.0,0.0
1914,478.25,30.6911,32.1345,151.029,100.197,97.6724,0.00593286,0.16282,20.8874,-259.674,0.229046,0.0,0.0
1925,481,30.2461,32.3379,147.861,100.231,97.8519,0.00588493,0.163027,20.887,-259.794,0.215566,0.0,0.0
1936,483.75,30.1701,32.1376,146.012,100.239,97.1595,0.00583194,0.162816,20.887,-259.944,0.280094,0.0,0.0
1947,486.5,30.7512,31.5646,148.214,100.257,97.1845,0.005939,0.162304,20.8884,-260.064,0.279339,0.0,0.0
1958,489.25,30.8232,31.3875,150.685,100.274,98.2891,0.00591443,0.162107,20.889,-260.214,0.179488,0.0,0.0
1969,492,30.2834,31.8968,150.453,100.284,98.1807,0.00571061,0.161552,20.8891,-260.355,0.190253,0.0,0.0
1980,494.75,29.9143,31.9182,147.55,100.286,97.399,0.00566261,0.161113,20.8886,-260.485,0.262178,0.0,0.0
1991,497.5,30.1607,30.8167,151.537,100.295,97.8079,0.00577224,0.1611,20.887,-260.645,0.225412,0.0,0.0
2002,500.25,29.7447,31.8628,148.076,100.289,98.1117,0.00563895,0.16123,20.8865,-260.765,0.19703,0.0,0.0
2013,503,30.167,31.284,150.568,100.286,97.9971,0.00569543,0.160725,20.8876,-260.905,0.207203,0.0,0.0
2024,505.75,30.0705,31.4397,152.937,100.267,98.7563,0.00583876,0.160287,20.8883,-261.035,0.136238,0.0,0.0
2035,508.5,30.0441,31.1493,145.966,100.246,98.6772,0.00597995,0.16055,20.8885,-261.165,0.141557,0.0,0.0
2046,511.25,30.2357,31.1381,147.67,100.235,97.8011,0.00608225,0.160997,20.8875,-261.305,0.220623,0.0,0.0
2057,514,30.0638,31.0579,151.929,100.213,97.1663,0.00614934,0.161123,20.8882,-261.426,0.277122,0.0,0.0
2068,516.75,30.1281,30.9976,148.766,100.186,98.4359,0.00613571,0.160647,20.8885,-261.586,0.158185,0.0,0.0
2079,519.5,29.8946,30.7868,150.509,100.162,98.1985,0.00605325,0.160148,20.8905,-261.716,0.177693,0.0,0.0
2090,522.25,29.812,31.5131,153.008,100.14,97.6856,0.00599291,0.159761,20.8912,-261.886,0.222711,0.0,0.0
2101,525,29.6156,30.9914,152.435,100.134,97.7529,0.0060548,0.159351,20.8924,-262.016,0.216025,0.0,0.0
2112,527.75,29.9328,30.7963,151.319,100.11,97.7016,0.00620261,0.158687,20.8934,-262.126,0.218524,0.0,0.0
2123,530.5,29.6972,30.5309,149.862,100.092,97.264,0.00624863,0.158025,20.8949,-262.246,0.257262,0.0,0.0
2134,533.25,29.1939,31.2143,151.938,100.054,98.2332,0.00633622,0.158425,20.8943,-262.406,0.164874,0.0,0.0
2145,536,28.9049,30.308,149.625,100.033,97.496,0.00633769,0.158418,20.894,-262.527,0.230572,0.0,0.0
2156,538.75,29.6438,30.6863,152.86,100.008,97.7389,0.00633309,0.158549,20.8939,-262.657,0.205958,0.0,0.0
2167,541.5,29.637,31.0173,148.814,99.9887,97.8367,0.00635153,0.158713,20.8948,-262.797,0.195284,0.0,0.0
2178,544.25,29.0537,30.9437,150.476,99.9621,97.4921,0.00628941,0.158393,20.8957,-262.917,0.224556,0.0,0.0
2189,547,29.691,30.5488,150.459,99.9408,97.6233,0.0061522,0.157884,20.896,-263.047,0.210568,0.0,0.0
2200,549.75,29.775,30.5322,152.991,99.9234,98.237,0.0060397,0.157626,20.8961,-263.207,0.152768,0.0,0.0
2211,552.5,29.5222,30.1848,148.836,99.8972,97.1146,0.00600187,0.157868,20.8967,-263.317,0.25355,0.0,0.0
2222,555.25,29.6306,30.2946,149.456,99.8856,97.1925,0.00617088,0.158585,20.8956,-263.487,0.245306,0.0,0.0
2233,558,29.0813,30.8301,148.72,99.8747,97.8265,0.00616751,0.159386,20.8955,-263.617,0.185973,0.0,0.0
2244,560.75,29.5601,30.3474,147.814,99.8678,97.4875,0.00613286,0.159188,20.8949,-263.738,0.216513,0.0,0.0
2255,563.5,29.3113,30.252,152.486,99.8791,98.1782,0.00624323,0.159407,20.8948,-263.868,0.154162,0.0,0.0
2266,566.25,28.9543,30.6192,152.09,99.8864,98.0995,0.00630588,0.160156,20.8934,-263.998,0.162014,0.0,0.0
2277,569,29.4419,30.5055,146.717,99.896,98.2556,0.0062811,0.160413,20.8916,-264.168,0.148605,0.0,0.0
2288,571.75,28.8419,30.7429,148.617,99.9198,97.7067,0.00621326,0.160498,20.8909,-264.298,0.201023,0.0,0.0
2299,574.5,29.017,30.3876,149.752,99.9488,97.7562,0.00610177,0.161237,20.8912,-264.378,0.199081,0.0,0.0
2310,577.25,30.2253,29.4199,143.745,99.9791,97.5861,0.00623013,0.161148,20.8923,-264.538,0.21743,0.0,0.0
2321,580,28.6941,29.6905,151.451,100.004,97.3906,0.0063738,0.161332,20.8915,-264.668,0.237674,0.0,0.0
2332,582.75,29.5012,30.1609,151.858,100.05,97.5036,0.00632334,0.161372,20.8908,-264.829,0.231388,0.0,0.0
2343,585.5,28.9014,30.3517,151.702,100.101,97.7943,0.00615484,0.161442,20.8906,-265.009,0.209219,0.0,0.0
2354,588.25,29.4379,29.8782,155.337,100.146,98.4364,0.00604562,0.162383,20.8893,-265.139,0.154534,0.0,0.0
2365,591,29.3178,30.1548,156.101,100.189,97.8405,0.00596487,0.163374,20.8888,-265.249,0.212897,0.0,0.0
2376,593.75,28.8734,30.7712,150.202,100.246,97.738,0.0059606,0.163162,20.89,-265.369,0.227385,0.0,0.0
2387,596.5,29.3393,30.1658,147.847,100.276,97.3817,0.00607322,0.162955,20.8906,-265.509,0.262875,0.0,0.0
2398,599.25,28.7174,29.8789,148.569,100.293,97.6013,0.00619637,0.162292,20.8908,-265.639,0.244169,0.0,0.0
2409,602,29.4477,30.4333,148.746,100.303,97.4507,0.00606789,0.16241,20.8899,-265.809,0.258935,0.0,0.0
2420,604.75,29.6275,30.2556,149.702,100.287,97.4989,0.00580769,0.164149,20.889,-265.92,0.253087,0.0,0.0
2431,607.5,29.2826,30.2954,148.774,100.243,98.0563,0.00577436,0.165296,20.8874,-266.07,0.197991,0.0,0.0
2442,610.25,29.5894,30.5284,151.858,100.178,97.4058,0.00563046,0.166051,20.8866,-266.22,0.251883,0.0,0.0
2453,613,29.424,30.7069,150.714,100.091,97.4486,0.00543129,0.166823,20.8852,-266.35,0.240106,0.0,0.0
2464,615.75,29.6131,30.6376,152.852,99.9621,97.0791,0.00555191,0.167195,20.8848,-266.46,0.262664,0.0,0.0
2475,618.5,29.3093,30.7711,151.389,99.8009,97.0643,0.00547877,0.167353,20.8842,-266.64,0.249548,0.0,0.0
2486,621.25,29.1308,31.3178,148.776,99.624,96.9623,0.00544266,0.168483,20.8829,-266.78,0.243059,0.0,0.0
2497,624,29.256,30.3064,151.019,99.3983,97.1768,0.00545167,0.168969,20.8825,-266.89,0.202863,0.0,0.0
2508,626.75,30.0944,30.0674,146.499,99.1593,97.5078,0.00556193,0.169881,20.8823,-267.081,0.150742,0.0,0.0
2519,629.5,29.8159,30.1494,155.321,98.9477,96.2424,0.00550902,0.170486,20.8817,-267.181,0.248811,0.0,0.0
2530,632.25,29.0048,30.6636,150.156,98.7128,95.9525,0.00527399,0.171682,20.8806,-267.301,0.25455,0.0,0.0
2541,635,29.6375,30.5599,153.331,98.5096,96.564,0.00514278,0.173321,20.8805,-267.431,0.179039,0.0,0.0
2552,637.75,29.3731,30.7883,152.454,98.3351,95.6177,0.00507942,0.174458,20.8782,-267.581,0.251517,0.0,0.0
2563,640.5,29.845,30.59,147.474,98.2384,94.8466,0.0050746,0.17621,20.8771,-267.741,0.31536,0.0,0.0
2574,643.25,29.8213,30.6204,152.003,98.1965,94.9875,0.00508024,0.175927,20.8768,-267.881,0.298202,0.0,0.0
2585,646,29.586,30.9588,154.32,98.2376,95.266,0.00510675,0.176177,20.8767,-268.041,0.275684,0.0,0.0
2596,648.75,30.0724,30.5275,151.145,98.3384,95.8733,0.00512914,0.177367,20.8752,-268.152,0.227849,0.0,0.0
2607,651.5,30.325,30.6734,152.255,98.4875,95.7709,0.00478073,0.178968,20.8727,-268.302,0.251042,0.0,0.0
2618,654.25,29.4821,31.4404,152.732,98.7043,95.3942,0.00453353,0.180665,20.8706,-268.452,0.306149,0.0,0.0
2629,657,29.9193,31.2016,154.683,98.9336,96.3334,0.00451843,0.181651,20.87,-268.622,0.23905,0.0,0.0
2640,659.75,29.5683,32.1772,148.298,99.1444,95.9779,0.00447101,0.182745,20.8683,-268.752,0.291334,0.0,0.0
2651,662.5,30.2906,31.5095,150.504,99.3366,96.1429,0.00447078,0.183742,20.8665,-268.882,0.293299,0.0,0.0
2662,665.25,30.0656,31.2202,150.426,99.5047,95.7662,0.00435234,0.184432,20.866,-269.032,0.343702,0.0,0.0
2673,668,30.3089,31.3162,147.064,99.6026,96.1573,0.00421966,0.184737,20.8661,-269.163,0.315957,0.0,0.0
2684,670.75,30.3309,31.8692,148.259,99.6175,95.9677,0.00423561,0.185512,20.8664,-269.283,0.335014,0.0,0.0
2695,673.5,29.8659,31.3758,147.035,99.6369,96.3249,0.00412038,0.186531,20.8644,-269.453,0.303413,0.0,0.0
2706,676.25,30.49,31.7221,154.124,99.5994,97.1083,0.00406361,0.188178,20.8627,-269.613,0.227338,0.0,0.0
2717,679,30.2295,32.0695,146.865,99.5172,95.8826,0.00404578,0.189273,20.8606,-269.773,0.333928,0.0,0.0
2728,681.75,29.6664,31.7554,148.819,99.4305,95.8911,0.00400635,0.189386,20.8611,-269.923,0.325318,0.0,0.0
2739,684.5,30.8527,31.7815,150.487,99.354,95.776,0.00383437,0.190639,20.8613,-270.073,0.329184,0.0,0.0
2750,687.25,30.7096,31.904,147.819,99.6712,96.5369,0.00380946,0.191687,20.86,-270.203,0.286763,0.0,0.0
2761,690,30.7596,32.6242,151.257,99.9911,96.3359,0.00380036,0.191811,20.8596,-270.394,0.334242,0.0,0.0
2772,692.75,30.9063,32.2264,146.163,100.128,96.8163,0.00374934,0.194106,20.858,-270.514,0.301856,0.0,0.0
2783,695.5,31.1846,32.0411,150.929,100.103,96.6614,0.00378024,0.195238,20.8565,-270.684,0.313987,0.0,0.0
2794,698.25,30.9875,32.4094,148.658,99.9037,96.9305,0.003565,0.196664,20.8553,-270.844,0.27116,0.0,0.0
2805,701,31.4777,32.7686,146.864,99.5369,96.2259,0.0032483,0.197686,20.8534,-270.984,0.303638,0.0,0.0
2816,703.75,31.4947,32.9204,148.682,99.6699,96.2678,0.00302023,0.19837,20.8523,-271.154,0.311714,0.0,0.0
2827,706.5,30.9643,32.74,151.099,99.869,96.1514,0.00312404,0.199077,20.8514,-271.304,0.340483,0.0,0.0
2838,709.25,31.0795,31.9087,153.574,100.09,97.1498,0.00336549,0.200264,20.8504,-271.475,0.267595,0.0,0.0
2849,712,31.2381,32.7871,147.639,100.25,96.8086,0.00329581,0.200853,20.8485,-271.605,0.313502,0.0,0.0
2860,714.75,31.6574,33.1534,151.158,100.32,96.6618,0.00313604,0.201508,20.8468,-271.745,0.333367,0.0,0.0
2871,717.5,31.7758,33.1758,149.493,100.235,96.9276,0.00322939,0.201923,20.8458,-271.905,0.301183,0.0,0.0
2882,720.25,31.9126,33.0592,150.134,100.006,96.5492,0.00315275,0.2028,20.8456,-272.065,0.315767,0.0,0.0
2893,723,31.6475,33.4745,150.492,99.6587,96.2212,0.00287708,0.204013,20.8445,-272.215,0.31504,0.0,0.0
2904,725.75,31.7511,33.1151,148.131,99.2387,95.3532,0.0027803,0.205339,20.8441,-272.385,0.358474,0.0,0.0
2915,728.5,31.8348,33.305,150.142,98.8321,95.5974,0.00280631,0.206494,20.8426,-272.566,0.298665,0.0,0.0
2926,731.25,31.9774,33.3921,148.756,98.481,94.7755,0.00271905,0.207914,20.841,-272.726,0.344228,0.0,0.0
2937,734,31.8845,33.6107,146.909,98.2686,94.5846,0.00237925,0.208997,20.8393,-272.876,0.342944,0.0,0.0
2948,736.75,32.2652,33.4907,144.338,98.2332,94.3125,0.002202,0.210139,20.8371,-273.046,0.365565,0.0,0.0
2959,739.5,32.1273,33.2828,147.66,98.3988,94.7006,0.0021768,0.21116,20.8358,-273.206,0.343829,0.0,0.0
2970,742.25,32.7145,33.8738,151.785,98.695,95.4827,0.00211788,0.211935,20.8344,-273.376,0.296988,0.0,0.0
2981,745,32.321,34.0166,150.213,99.04,95.0336,0.00203965,0.212066,20.834,-273.536,0.370614,0.0,0.0
2992,747.75,32.4452,34.2395,150.975,99.3616,95.2846,0.00209453,0.213904,20.8326,-273.697,0.37604,0.0,0.0
3003,750.5,32.5142,34.2964,146.825,99.5619,95.5639,0.00214276,0.215141,20.8314,-273.887,0.367843,0.0,0.0
3014,753.25,32.7487,34.4167,145.515,99.6127,95.7616,0.00214469,0.216098,20.8318,-274.037,0.353875,0.0,0.0
3025,756,32.7693,34.2368,146.357,99.5801,95.4789,0.00212703,0.217461,20.8304,-274.187,0.37747,0.0,0.0
3036,758.75,32.5663,35.1381,147.663,99.4846,95.7963,0.00213017,0.218134,20.8299,-274.367,0.339069,0.0,0.0
3047,761.5,33.2752,34.3306,150.036,99.3403,95.861,0.00209033,0.218782,20.8291,-274.517,0.319978,0.0,0.0
3058,764.25,32.9011,34.9367,150.909,99.6147,95.4082,0.00211091,0.220105,20.8275,-274.717,0.387241,0.0,0.0
3069,767,32.6439,34.3381,147.516,100.01,95.7205,0.00203626,0.221527,20.8258,-274.898,0.393493,0.0,0.0
3080,769.75,33.2042,35.1555,143.852,100.125,96.5103,0.00186826,0.222003,20.8244,-275.058,0.329978,0.0,0.0
3091,772.5,33.4554,34.7814,151.053,99.8993,96.6542,0.00173866,0.222661,20.8233,-275.218,0.296387,0.0,0.0
3102,775.25,32.8316,34.7095,150.358,99.593,95.6152,0.00171397,0.22395,20.8242,-275.398,0.365832,0.0,0.0
3113,778,33.0034,34.8002,145.688,99.8102,96.1412,0.0017331,0.224053,20.8245,-275.578,0.336141,0.0,0.0
3124,780.75,33.6213,35.5391,145.934,100.097,96.0202,0.00183938,0.225231,20.8246,-275.738,0.373214,0.0,0.0
3135,783.5,34.1336,35.0506,149.755,100.295,96.2212,0.00177172,0.226229,20.8227,-275.919,0.372132,0.0,0.0
3146,786.25,33.7819,36.0118,148.03,100.326,96.2546,0.00161804,0.227908,20.821,-276.139,0.371827,0.0,0.0
3157,789,34.3026,35.7531,150.358,100.145,95.7269,0.00156947,0.22952,20.8188,-276.269,0.404934,0.0,0.0
3168,791.75,34.1857,35.8425,152.727,99.7723,95.2808,0.00163427,0.230143,20.8178,-276.449,0.413418,0.0,0.0
3179,794.5,34.1723,35.8262,145.19,99.2911,94.9659,0.00177562,0.230676,20.8162,-276.599,0.399736,0.0,0.0
3190,797.25,33.8451,36.3555,146.692,98.8192,94.6692,0.0018819,0.232277,20.8159,-276.839,0.385058,0.0,0.0
3201,800,34.3529,35.8989,144.619,98.4617,93.9802,0.00193125,0.234425,20.8121,-277.03,0.418092,0.0,0.0
3212,802.75,34.4033,36.2973,149.08,98.2755,94.5998,0.00206114,0.236664,20.8101,-277.2,0.342125,0.0,0.0
3223,805.5,34.8491,36.4333,147.274,98.3057,94.588,0.00207334,0.237828,20.8084,-277.39,0.34601,0.0,0.0
3234,808.25,35.2031,36.1625,147.551,98.5512,94.6472,0.00194074,0.239058,20.8073,-277.58,0.362769,0.0,0.0
3245,811,34.6455,37.1795,147.824,98.8659,94.6667,0.00198776,0.240328,20.805,-277.78,0.389544,0.0,0.0
3256,813.75,35.2223,37.4314,144.769,99.1916,94.9177,0.00207141,0.242703,20.8022,-277.99,0.395294,0.0,0.0
3267,816.5,34.9163,37.5333,146.108,99.4531,96.0447,0.00188647,0.243959,20.8006,-278.211,0.312986,0.0,0.0
3278,819.25,35.851,37.2846,144.764,99.6196,95.15,0.00181937,0.245361,20.7989,-278.361,0.411995,0.0,0.0
3289,822,35.2414,37.7906,143.726,99.6341,95.635,0.00179025,0.246813,20.7968,-278.561,0.367668,0.0,0.0
3300,824.75,35.4435,37.7894,146.08,99.5462,95.2537,0.00183365,0.24963,20.793,-278.761,0.395609,0.0,0.0
3311,827.5,35.9138,37.3398,141.49,99.4531,95.533,0.00196683,0.25169,20.7897,-278.951,0.360931,0.0,0.0
3322,830.25,36.0794,37.8736,141.959,99.3326,94.8106,0.00199371,0.253475,20.7875,-279.131,0.418179,0.0,0.0
3333,833,35.8071,38.3012,143.498,99.3028,94.8254,0.00205939,0.255253,20.7854,-279.372,0.414082,0.0,0.0
3344,835.75,36.2846,38.1127,145.58,99.7759,95.4209,0.00202752,0.256928,20.783,-279.552,0.40056,0.0,0.0
3355,838.5,36.3862,38.5198,148.13,100.04,95.6566,0.00204625,0.259816,20.7811,-279.762,0.402091,0.0,0.0
3366,841.25,36.5823,38.4444,149.711,100.101,95.7375,0.00201422,0.262075,20.7788,-279.972,0.40004,0.0,0.0
3377,844,36.5644,38.6023,145.173,99.9698,95.9977,0.00192994,0.264084,20.7777,-280.192,0.363885,0.0,0.0
3388,846.75,36.0017,38.9279,145.992,99.655,95.3388,0.00201315,0.266181,20.7759,-280.413,0.397402,0.0,0.0
3399,849.5,37.1305,39.1153,143.838,99.6095,95.2334,0.00205764,0.268468,20.7742,-280.633,0.403226,0.0,0.0
3410,852.25,37.157,39.1162,146.015,99.7796,95.7078,0.0019963,0.271766,20.7696,-280.873,0.373936,0.0,0.0
3421,855,37.4287,39.4189,142.426,99.9867,96.0244,0.0019477,0.274175,20.7669,-281.083,0.362912,0.0,0.0
3432,857.75,37.4962,39.4967,144.019,100.17,95.9436,0.00203383,0.276393,20.7642,-281.313,0.386952,0.0,0.0
3443,860.5,37.2709,40.3826,139.247,100.292,95.9368,0.00218457,0.279115,20.7607,-281.534,0.398484,0.0,0.0
3454,863.25,37.8121,40.3511,146.267,100.327,95.7616,0.0022064,0.282951,20.7554,-281.774,0.418028,0.0,0.0
3465,866,37.9415,40.3401,144.472,100.258,95.6278,0.00219066,0.286517,20.7514,-281.974,0.424332,0.0,0.0
3476,868.75,38.5604,40.7495,141.922,100.104,95.7895,0.0022439,0.290025,20.7488,-282.234,0.395414,0.0,0.0
3487,871.5,38.4796,40.395,146.605,99.8972,95.1636,0.00215557,0.29426,20.7442,-282.484,0.4357,0.0,0.0
3498,874.25,38.7946,41.0324,147.128,99.6425,95.4903,0.00204185,0.296787,20.739,-282.745,0.382025,0.0,0.0
3509,877,38.8739,41.5592,145.923,99.3628,95.0518,0.00212922,0.300232,20.7343,-282.975,0.398101,0.0,0.0
3520,879.75,38.8324,40.9129,141.933,99.0791,94.7433,0.00208989,0.304141,20.7295,-283.215,0.401617,0.0,0.0
3531,882.5,39.1121,42.1014,141.985,98.8119,94.1474,0.00205823,0.308337,20.7241,-283.475,0.434009,0.0,0.0
3542,885.25,39.8418,42.0925,147.566,98.587,93.9616,0.00205052,0.313175,20.7194,-283.716,0.431288,0.0,0.0
3553,888,39.8934,42.5348,142.185,98.4206,93.6616,0.00198512,0.318095,20.7144,-284.006,0.444831,0.0,0.0
3564,890.75,40.287,42.6439,139.424,98.319,93.6742,0.00200114,0.323024,20.7103,-284.296,0.434347,0.0,0.0
3575,893.5,40.7394,43.0286,142.114,98.2787,93.7712,0.00219304,0.327868,20.7037,-284.566,0.421387,0.0,0.0
3586,896.25,40.8639,43.7215,138.727,98.319,93.6197,0.0024403,0.331228,20.6979,-284.847,0.439579,0.0,0.0
3597,899,41.1371,43.7729,140.444,98.4165,92.967,0.00250409,0.335921,20.6911,-285.117,0.511262,0.0,0.0
3608,901.75,41.456,43.9619,138.026,98.5362,93.0326,0.00236291,0.34097,20.686,-285.357,0.515842,0.0,0.0
3619,904.5,40.9128,44.0286,141.325,98.6789,93.0851,0.0022966,0.346744,20.678,-285.687,0.523765,0.0,0.0
3630,907.25,41.9866,44.6131,141.137,98.845,93.32,0.00225958,0.353059,20.6706,-285.988,0.516236,0.0,0.0
3641,910,42.5802,44.8631,145.811,99.0243,93.3471,0.00240075,0.35834,20.6636,-286.278,0.529901,0.0,0.0
3652,912.75,42.1588,44.7424,142.962,99.1863,93.375,0.00258088,0.364348,20.6583,-286.578,0.541887,0.0,0.0
3663,915.5,42.3291,45.4401,138.357,99.3395,93.6793,0.00267027,0.368964,20.6529,-286.898,0.526534,0.0,0.0
3674,918.25,43.1712,46.1926,140.029,99.4592,93.4182,0.00292912,0.374718,20.6451,-287.199,0.562395,0.0,0.0
3685,921,43.6529,46.2776,138.325,99.5579,93.2286,0.00303177,0.380263,20.6389,-287.549,0.589535,0.0,0.0
3696,923.75,43.7707,47.0291,142.156,99.6159,93.2895,0.00302592,0.38431,20.6319,-287.869,0.588901,0.0,0.0
3707,926.5,44.5012,47.0606,139.359,99.6437,93.5981,0.0030102,0.390513,20.6237,-288.19,0.561771,0.0,0.0
3718,929.25,44.7965,47.5862,137.723,99.624,93.0728,0.00294014,0.397387,20.6171,-288.52,0.610499,0.0,0.0
3729,932,45.2571,47.8757,136.128,99.5905,92.8921,0.0029891,0.40199,20.6106,-288.87,0.624928,0.0,0.0
3740,934.75,45.5837,48.4073,140.047,99.5245,92.4799,0.00307454,0.406174,20.6062,-289.181,0.658887,0.0,0.0
3751,937.5,45.8468,48.3917,141.941,99.4745,93.4829,0.00315675,0.410792,20.5997,-289.521,0.557558,0.0,0.0
3762,940.25,46.4184,49.1843,136.642,99.416,92.6708,0.00318969,0.418141,20.5912,-289.881,0.630599,0.0,0.0
3773,943,46.0456,49.2382,142.576,99.36,92.3123,0.00336571,0.422132,20.5863,-290.221,0.660326,0.0,0.0
3784,945.75,46.9701,49.921,132.342,99.3008,92.0567,0.00365257,0.426164,20.5817,-290.592,0.679861,0.0,0.0
3795,948.5,47.3305,50.6575,132.813,99.2714,92.1663,0.00369549,0.429013,20.5789,-290.972,0.666521,0.0,0.0
3806,951.25,47.0805,50.4689,141.489,99.2367,92.0901,0.00361316,0.432776,20.5748,-291.282,0.670809,0.0,0.0
3817,954,48.2475,51.0955,138.667,99.3056,92.0021,0.00362431,0.434185,20.5711,-291.673,0.685623,0.0,0.0
3828,956.75,48.6787,51.5968,138.828,99.5091,91.7202,0.00381076,0.437236,20.5676,-292.003,0.731538,0.0,0.0
3839,959.5,48.8638,52.2021,133.08,99.6699,92.4312,0.00384274,0.439539,20.5649,-292.393,0.676723,0.0,0.0
3850,962.25,49.2518,52.461,138.226,99.8086,92.3462,0.00382366,0.442701,20.5611,-292.734,0.697462,0.0,0.0
3861,965,49.7416,52.3022,140.308,99.9017,91.9902,0.00389394,0.444442,20.5581,-293.124,0.74049,0.0,0.0
3872,967.75,50.1028,53.1348,136.671,99.977,92.3314,0.00404259,0.445081,20.5572,-293.454,0.714037,0.0,0.0
3883,970.5,50.023,53.5049,137.448,100.034,92.0165,0.00407956,0.446002,20.5562,-293.835,0.749799,0.0,0.0
3894,973.25,50.1621,53.7056,135.748,100.064,91.6483,0.00412831,0.446072,20.5549,-294.195,0.78846,0.0,0.0
3905,976,50.766,53.9162,135.276,100.089,92.62,0.0041108,0.446466,20.5535,-294.605,0.696113,0.0,0.0
3916,978.75,51.1635,54.3366,135.056,100.069,93.1393,0.00421274,0.44908,20.5499,-294.966,0.644052,0.0,0.0
3927,981.5,50.9325,54.9593,140.466,100.04,93.855,0.00431655,0.452059,20.5466,-295.346,0.572785,0.0,0.0
3938,984.25,51.4585,55.0024,130.031,99.9815,91.3364,0.00432133,0.453303,20.5447,-295.696,0.811681,0.0,0.0
3949,987,50.8482,55.0877,133.134,99.9073,93.4576,0.00442287,0.454808,20.5416,-296.057,0.598965,0.0,0.0
3960,989.75,51.9708,55.7317,137.439,99.8307,92.0334,0.00459435,0.456947,20.5395,-296.457,0.729904,0.0,0.0
3971,992.5,51.8731,56.2278,142.781,99.732,92.0491,0.00461743,0.456261,20.5401,-296.797,0.719497,0.0,0.0
3982,995.25,52.3536,56.2124,138.187,99.5982,91.9809,0.00450694,0.45439,20.542,-297.178,0.714094,0.0,0.0
3993,998,52.5134,56.3439,138.419,99.5236,91.3689,0.00448686,0.452907,20.5428,-297.548,0.767286,0.0,0.0
4004,1000.75,53.022,56.1198,138.475,99.5676,92.8206,0.00447516,0.453472,20.542,-297.908,0.629772,0.0,0.0
4015,1003.5,53.3599,56.8766,136.742,99.6171,91.5251,0.00440271,0.454089,20.5412,-298.299,0.760387,0.0,0.0
4026,1006.25,53.0449,57.0008,137.075,99.672,92.9649,0.00437487,0.454146,20.5421,-298.639,0.625232,0.0,0.0
4037,1009,53.0911,57.1426,138.638,99.7501,93.1753,0.00445418,0.455614,20.5405,-299.009,0.611985,0.0,0.0
4048,1011.75,53.738,57.1569,137.875,99.7913,92.9467,0.00461097,0.456138,20.5398,-299.38,0.637725,0.0,0.0
4059,1014.5,53.787,58.0623,136.981,99.8541,92.4262,0.00460074,0.454675,20.5406,-299.74,0.693786,0.0,0.0
4070,1017.25,53.5854,58.1186,139.935,99.9061,93.1181,0.00454927,0.455351,20.5397,-300.08,0.631513,0.0,0.0
4081,1020,54.1231,58.1975,134.325,99.9557,93.3568,0.00448226,0.456218,20.5389,-300.451,0.612987,0.0,0.0
4092,1022.75,53.6497,57.9317,139.41,100.001,93.2781,0.00439371,0.455029,20.5398,-300.811,0.624647,0.0,0.0
4103,1025.5,54.0365,58.657,133.105,100.04,93.1617,0.00442616,0.453475,20.5406,-301.201,0.639361,0.0,0.0
4114,1028.25,54.5289,58.9719,136.882,100.083,93.2265,0.00443844,0.452774,20.541,-301.502,0.636992,0.0,0.0
4125,1031,54.6246,58.9482,132.719,100.106,93.3915,0.00450895,0.453127,20.5414,-301.892,0.623103,0.0,0.0
4136,1033.75,54.6005,59.1801,133.705,100.132,92.9053,0.00446221,0.452408,20.5421,-302.212,0.672343,0.0,0.0
4147,1036.5,54.8151,58.8016,138.532,100.142,93.5308,0.00428864,0.450756,20.5433,-302.593,0.61302,0.0,0.0
4158,1039.25,54.9805,59.2989,141.398,100.155,93.7635,0.00416001,0.449496,20.5437,-302.943,0.591866,0.0,0.0
4169,1042,55.1494,59.2352,138.796,100.178,93.3505,0.00403192,0.449762,20.5438,-303.273,0.633515,0.0,0.0
4180,1044.75,55.0428,59.6699,136.565,100.184,93.9307,0.00401725,0.448679,20.5438,-303.614,0.578478,0.0,0.0
4191,1047.5,55.7659,59.3065,134.944,100.187,93.4229,0.00402067,0.447781,20.5438,-303.964,0.62739,0.0,0.0
4202,1050.25,55.3624,59.8565,134.267,100.193,92.9658,0.00401617,0.446377,20.5438,-304.304,0.671988,0.0,0.0
4213,1053,55.0013,59.8829,133.737,100.2,93.7521,0.00405372,0.444525,20.5458,-304.654,0.597004,0.0,0.0
4224,1055.75,55.5426,59.7366,137.477,100.212,93.5964,0.00406033,0.441528,20.5484,-304.955,0.61301,0.0,0.0
4235,1058.5,55.5565,59.8563,133.34,100.204,93.7377,0.00415821,0.438259,20.5516,-305.315,0.598671,0.0,0.0
4246,1061.25,55.8882,59.389,140.063,100.198,92.9984,0.00432491,0.433868,20.5567,-305.605,0.66924,0.0,0.0
4257,1064,55.4762,59.7761,135.425,100.188,93.6285,0.00445003,0.426693,20.5642,-305.946,0.607759,0.0,0.0
4268,1066.75,55.3446,59.283,135.362,100.189,92.1244,0.00416556,0.421834,20.5702,-306.236,0.753153,0.0,0.0
4279,1069.5,55.4291,59.6321,134.248,100.195,92.1312,0.0038346,0.414484,20.5786,-306.536,0.75307,0.0,0.0
4290,1072.25,55.3954,59.3072,138.491,100.199,92.7093,0.00376497,0.406617,20.586,-306.816,0.697253,0.0,0.0
4301,1075,54.9089,59.4848,139.78,100.191,93.1067,0.00378458,0.398983,20.5946,-307.107,0.658175,0.0,0.0
4312,1077.75,54.4643,58.3901,147.26,100.2,93.0953,0.00381232,0.390643,20.6028,-307.377,0.660071,0.0,0.0
4323,1080.5,54.3267,58.3365,136.625,100.211,93.2134,0.00373372,0.382541,20.613,-307.657,0.649669,0.0,0.0
4334,1083.25,54.683,58.396,139.259,100.192,93.2159,0.00360757,0.371847,20.6251,-307.897,0.647728,0.0,0.0
4345,1086,53.9362,58.345,143.326,100.189,92.3013,0.00345484,0.361468,20.6368,-308.128,0.736007,0.0,0.0
4356,1088.75,53.3594,57.5858,139.406,100.166,93.4457,0.00345622,0.351674,20.6476,-308.378,0.623281,0.0,0.0
4367,1091.5,52.8246,56.7372,144.776,100.179,93.5303,0.00359679,0.339101,20.664,-308.588,0.616383,0.0,0.0
4378,1094.25,53.1471,57.0161,141.965,100.165,93.2476,0.00353377,0.325832,20.6798,-308.798,0.642254,0.0,0.0
4389,1097,52.8154,56.3509,140.879,100.157,93.951,0.00332742,0.311172,20.6946,-308.978,0.574119,0.0,0.0
4400,1099.75,52.2561,55.9634,145.388,100.147,94.4475,0.00340562,0.296949,20.708,-309.179,0.525914,0.0,0.0
4411,1102.5,51.8265,55.0588,145.273,100.131,94.0509,0.00361044,0.283665,20.7228,-309.339,0.562234,0.0,0.0
4422,1105.25,50.9575,54.8959,150.16,100.119,94.3506,0.00387538,0.267434,20.7439,-309.459,0.532601,0.0,0.0
4433,1108,50.1595,54.051,144.909,100.106,94.3535,0.00404933,0.252888,20.7597,-309.599,0.531162,0.0,0.0
4444,1110.75,49.7145,53.02,145.833,100.087,94.9744,0.00428036,0.239261,20.7754,-309.739,0.470635,0.0,0.0
4455,1113.5,48.8281,52.3479,146.819,100.085,95.1043,0.00459912,0.225455,20.7922,-309.839,0.458112,0.0,0.0
4466,1116.25,48.0194,51.2079,149.79,100.064,94.7949,0.0048666,0.212527,20.8078,-309.939,0.485548,0.0,0.0
4477,1119,47.3379,50.6602,152.924,100.049,95.1196,0.00506532,0.202276,20.82,-310.029,0.453493,0.0,0.0
4488,1121.75,46.486,50.0954,151.79,100.031,95.8272,0.00539709,0.196607,20.8246,-310.099,0.385307,0.0,0.0
4499,1124.5,45.717,48.9814,147.825,100.015,95.7116,0.00594572,0.189601,20.8331,-310.199,0.394688,0.0,0.0
4510,1127.25,45.3074,48.7646,146.54,99.9895,95.4429,0.00648053,0.183154,20.8425,-310.29,0.417682,0.0,0.0
4521,1130,44.5324,47.6054,146.225,99.9621,95.4759,0.00691513,0.177086,20.8502,-310.35,0.41212,0.0,0.0
4532,1132.75,43.9489,46.9018,153.726,99.944,95.6719,0.00738713,0.171464,20.8583,-310.44,0.392089,0.0,0.0
4543,1135.5,43.5029,46.1812,148.486,99.9279,95.7908,0.00769599,0.165358,20.8671,-310.51,0.379491,0.0,0.0
4554,1138.25,42.5166,45.154,149.414,99.9053,95.6571,0.00820164,0.160844,20.8736,-310.57,0.390003,0.0,0.0
4565,1141,41.7212,44.5959,148.498,99.8787,95.5999,0.00881792,0.158021,20.8762,-310.65,0.392975,0.0,0.0
4576,1143.75,41.2046,44.2036,153.915,99.8565,95.4996,0.00924892,0.15643,20.8786,-310.72,0.400405,0.0,0.0
4587,1146.5,40.7946,43.4088,152.835,99.8291,96.3913,0.00961161,0.152848,20.883,-310.77,0.314524,0.0,0.0
4598,1149.25,40.1832,42.2192,151.275,99.811,95.8568,0.0099658,0.150221,20.887,-310.84,0.362803,0.0,0.0
4609,1152,38.7914,41.321,146.117,99.7707,96.0447,0.0101351,0.148727,20.8888,-310.91,0.341601,0.0,0.0
4620,1154.75,38.7161,41.4494,155.314,99.7566,95.6033,0.0102614,0.147342,20.8913,-310.97,0.381678,0.0,0.0
4631,1157.5,37.916,40.7521,148.775,99.7393,95.9745,0.0104373,0.145912,20.8942,-311.03,0.345341,0.0,0.0
4642,1160.25,37.7228,40.0385,154.549,99.7239,95.9749,0.0106079,0.144692,20.8954,-311.09,0.343923,0.0,0.0
4653,1163,36.7934,39.0996,152.467,99.6969,96.0189,0.0108119,0.143416,20.8969,-311.14,0.337378,0.0,0.0
4664,1165.75,36.5002,38.7633,149.402,99.6873,96.0515,0.011239,0.1428,20.8984,-311.19,0.333461,0.0,0.0
4675,1168.5,36.3876,38.147,156.475,99.6659,95.8246,0.0116473,0.142574,20.8986,-311.25,0.352759,0.0,0.0
4686,1171.25,35.8493,37.5872,149.86,99.6365,95.4598,0.0120443,0.143283,20.8975,-311.3,0.384345,0.0,0.0
4697,1174,35.3514,37.3035,150.292,99.6248,96.0515,0.012351,0.142065,20.8989,-311.35,0.327834,0.0,0.0
4708,1176.75,35.0592,36.8983,152.598,99.5994,95.6744,0.0121697,0.14191,20.8997,-311.431,0.360852,0.0,0.0
4719,1179.5,34.7826,36.1816,150.814,99.5946,95.9927,0.0118395,0.142008,20.9,-311.471,0.330609,0.0,0.0
4730,1182.25,34.3342,35.8115,154.508,99.5611,95.8132,0.0119009,0.140909,20.9014,-311.541,0.344389,0.0,0.0
4741,1185,33.9132,35.3058,152.477,99.5567,96.1505,0.0123205,0.140239,20.9016,-311.581,0.312447,0.0,0.0
4752,1187.75,33.6773,34.8624,152.615,99.5369,95.6875,0.0128675,0.138144,20.9055,-311.631,0.353991,0.0,0.0
4763,1190.5,33.1576,34.7278,156.279,99.5228,95.6968,0.0134453,0.135262,20.909,-311.671,0.351846,0.0,0.0
4774,1193.25,33.0873,34.4482,154.045,99.5365,96.049,0.0138999,0.134555,20.9106,-311.741,0.320117,0.0,0.0
4785,1196,32.4936,34.0348,152.621,99.5954,95.9567,0.0143269,0.134013,20.9128,-311.781,0.334046,0.0,0.0
4796,1198.75,32.3552,33.5344,149.217,99.6276,95.798,0.0144749,0.133048,20.9151,-311.841,0.351809,0.0,0.0
4807,1201.5,31.8856,33.3708,153.323,99.6768,95.9093,0.014927,0.131794,20.9166,-311.881,0.345815,0.0,0.0
4818,1204.25,31.9031,32.7366,154.952,99.7239,95.8238,0.0155927,0.129663,20.9196,-311.921,0.358064,0.0,0.0
4829,1207,30.6,31.4507,156.761,99.7739,96.1243,0.0158171,0.128803,20.9202,-311.961,0.334459,0.0,0.0
4840,1209.75,30.2617,31.5086,152.255,99.8166,95.693,0.0157631,0.129181,20.9195,-312.021,0.378659,0.0,0.0
4851,1212.5,30.2153,31.1668,154.726,99.8557,96.0219,0.0154675,0.130043,20.9193,-312.071,0.351384,0.0,0.0
4862,1215.25,30.106,30.6719,153.383,99.8783,96.556,0.0151804,0.130177,20.9176,-312.111,0.303627,0.0,0.0
4873,1218,29.9628,30.5589,151.627,99.9339,96.1518,0.0153741,0.129135,20.9179,-312.151,0.346272,0.0,0.0
4884,1220.75,29.4958,30.1566,153.865,99.9509,96.2872,0.0157074,0.129644,20.9184,-312.221,0.33516,0.0,0.0
4895,1223.5,28.8034,30.1751,148.524,99.9831,96.5522,0.0155005,0.129343,20.9187,-312.271,0.313393,0.0,0.0
4906,1226.25,29.0127,30.0855,146.007,100.01,96.3562,0.0151604,0.129293,20.9186,-312.321,0.33405,0.0,0.0
4917,1229,29.5704,29.7071,151.904,100.037,96.498,0.0150021,0.129316,20.9181,-312.361,0.323313,0.0,0.0
4928,1231.75,28.1625,29.0904,149.797,100.042,96.5526,0.0150606,0.129794,20.9168,-312.401,0.31867,0.0,0.0
4939,1234.5,28.608,28.9327,154.063,100.055,97.082,0.0150079,0.130404,20.916,-312.431,0.270745,0.0,0.0
4950,1237.25,28.3468,28.9318,154.691,100.071,96.9496,0.0148693,0.130578,20.9166,-312.482,0.284374,0.0,0.0
4961,1240,28.4818,28.8457,153.746,100.077,96.6368,0.0147254,0.130956,20.9191,-312.542,0.31399,0.0,0.0
4972,1242.75,28.387,28.9374,152.245,100.089,96.9284,0.0144975,0.130925,20.9206,-312.572,0.287995,0.0,0.0
4983,1245.5,28.6981,28.1446,152.203,100.085,96.2572,0.0144552,0.13108,20.9211,-312.622,0.350004,0.0,0.0
4994,1248.25,27.8048,28.5089,149.781,100.098,96.6728,0.0146112,0.131046,20.9203,-312.682,0.312492,0.0,0.0
5005,1251,27.5783,28.0794,155.05,100.074,96.5479,0.0146607,0.131367,20.9195,-312.722,0.321959,0.0,0.0
5016,1253.75,26.8469,26.9207,152.794,100.068,96.8433,0.0146722,0.13197,20.9192,-312.772,0.293961,0.0,0.0
5027,1256.5,27.6212,27.5143,153.682,100.06,96.6262,0.0147072,0.132027,20.9185,-312.812,0.313453,0.0,0.0
5038,1259.25,27.4835,28.0569,154.88,100.035,96.6008,0.0144681,0.132218,20.9167,-312.862,0.313571,0.0,0.0
5049,1262,26.746,27.0155,149.778,100.015,96.9208,0.0142133,0.132335,20.9151,-312.902,0.282085,0.0,0.0
5060,1264.75,26.9483,27.2058,156.217,100,96.8378,0.014106,0.132506,20.9151,-312.952,0.288432,0.0,0.0
5071,1267.5,26.8587,27.5228,152.946,99.9682,96.8374,0.0141017,0.132137,20.9162,-312.992,0.285577,0.0,0.0
5082,1270.25,27.2203,27.3618,152.372,99.9291,96.2656,0.0141632,0.132504,20.917,-313.042,0.335217,0.0,0.0
5093,1273,26.6544,27.1545,155.522,99.9029,96.3224,0.0141406,0.13288,20.9159,-313.092,0.327578,0.0,0.0
5104,1275.75,26.8254,26.197,153.02,99.8529,96.5048,0.0141427,0.132963,20.9153,-313.132,0.306106,0.0,0.0
5115,1278.5,26.1996,26.8204,150.453,99.8183,96.6377,0.0141146,0.132572,20.9155,-313.182,0.29064,0.0,0.0
5126,1281.25,26.0613,26.322,154.631,99.7453,96.2517,0.014052,0.132303,20.9167,-313.222,0.319999,0.0,0.0
5137,1284,26.3164,26.7022,149.817,99.6764,96.418,0.0139383,0.132445,20.9164,-313.272,0.298299,0.0,0.0
5148,1286.75,26.5568,26.367,151.345,99.6345,96.7024,0.0137362,0.132326,20.9153,-313.302,0.268088,0.0,0.0
5159,1289.5,26.4403,26.9209,155.174,99.5583,96.0126,0.0135589,0.13287,20.9149,-313.332,0.32548,0.0,0.0
5170,1292.25,25.7513,25.5162,155.104,99.493,96.3241,0.0133775,0.132769,20.9148,-313.382,0.290522,0.0,0.0
5181,1295,26.2289,26.3962,159.134,99.4318,96.5687,0.0133344,0.132334,20.9148,-313.412,0.26223,0.0,0.0
5192,1297.75,25.9616,26.1772,158.926,99.3588,95.8839,0.0133702,0.132962,20.9142,-313.472,0.319513,0.0,0.0
5203,1300.5,26.2899,25.9704,150.256,99.3072,95.7857,0.0131668,0.133957,20.913,-313.512,0.324047,0.0,0.0
5214,1303.25,25.9787,26.5439,156.836,99.2311,96.2889,0.0129856,0.133936,20.9137,-313.552,0.270133,0.0,0.0
5225,1306,25.6473,25.6337,155.696,99.2254,95.9652,0.0128364,0.133595,20.9138,-313.613,0.299852,0.0,0.0
5236,1308.75,25.9357,25.8588,149.589,99.229,96.0549,0.0126132,0.13348,20.9143,-313.643,0.291793,0.0,0.0
5247,1311.5,25.5711,25.7129,153.586,99.2419,96.0718,0.0126985,0.133344,20.9146,-313.673,0.291378,0.0,0.0
5258,1314.25,25.7633,25.6653,158.397,99.2504,95.9038,,0.13379,,-313.693,0.307854,0.0,0.0
5269,1317,26.099,25.7659,152.794,99.2568,96.1243,,0.133735,,-313.753,0.287824,0.0,0.0
5280,1319.75,25.5414,25.4222,153.541,99.2798,95.8615,,,,-313.793,0.314475,0.0,0.0
5291,1322.5,25.4513,25.3548,156.037,99.279,95.9063,,,,-313.823,0.310203,0.0,0.0
5301,1325,25.1152,25.4275,154.263,99.2943,95.8568,,,,-313.873,0.316222,0.0,0.0