File: 01_Data/Engineered_Wood_Furniture/Cone/Engineered_Wood_Furniture_Cone_HF50Scan_220330_R1.csv
Names,Time,Stack TC,Smoke TC,Exh Press,Smoke Comp,Smoke Meas,CO Meter,CO2 Meter,O2 Meter,Sample Mass,Ext Coeff,Start Test,Flame Verif
Chan Gain,,500,500,1,1,1,1,1,1,1,1,1.0,1.0
Offset,,0,0,0.135377,0,0,0,0,0,0,0,0.0,0.0
Gain,,1,1,25.011,13.2062,13.8682,1,1,1,1.0009,1.02317,1.0,1.0
Units,sec,C,C,Pa,%,%,%,%,%,g,/m,,
Baseline,,32.5059,33.939,146.474,100.099,96.7849,0.000718081,0.0429428,21.0812,-835.37,0.302234,,
12,2.75,30.9165,32.2914,148.054,100.082,96.0384,0.000560659,0.0477572,21.0747,-229.617,0.370176,0.0,0.0
24,5.75,30.7941,32.3132,145.921,100.071,96.7553,0.000538708,0.0469512,21.0752,-229.727,0.302447,0.0,0.0
36,8.75,30.9593,32.4706,148.391,100.056,95.6388,0.000779495,0.0466431,21.0752,-229.857,0.405278,0.0,0.0
48,11.75,30.952,32.2879,143.592,100.058,94.7552,0.00117817,0.0472958,21.0748,-229.897,0.488738,0.0,0.0
60,14.75,31.1086,32.1788,147.694,100.04,93.7161,0.00133236,0.0483099,21.0747,-229.997,0.586106,0.0,0.0
72,17.75,31.3452,32.7196,146.286,100.038,92.5874,0.00135423,0.0491095,21.0747,-230.077,0.694645,0.0,0.0
84,20.75,31.4816,32.9143,149.537,100.028,92.6522,0.00153748,0.0487884,21.0714,-230.378,0.687502,0.0,0.0
96,23.75,31.507,33.3084,141.067,100.007,97.7689,0.00246632,0.066514,21.0338,-230.307,0.203126,0.0,1.0
108,26.75,32.1984,33.2881,123.782,99.9887,88.0978,0.00545072,0.230663,20.7433,-230.898,1.13635,0.0,1.0
120,29.75,36.2513,37.1339,108.247,99.9666,87.9239,0.00886214,0.542791,20.2805,-231.829,1.15209,0.0,1.0
132,32.75,41.9679,43.5095,104.496,99.94,90.2483,0.00958249,0.870012,19.9654,-232.67,0.915519,0.0,0.0
144,35.75,46.9295,49.5558,122.019,99.9182,93.5845,0.00808175,0.908847,19.9963,-233.27,0.587758,0.0,0.0
156,38.75,49.0037,52.4456,127.546,99.8839,96.4235,0.00621313,0.744317,20.2401,-233.66,0.316457,0.0,0.0
168,41.75,50.4727,53.9675,133.978,99.8404,96.4184,0.0051656,0.579211,20.4669,-234.031,0.313017,0.0,0.0
180,44.75,51.0973,54.8341,129.64,99.8122,95.9808,0.00460706,0.491535,20.5514,-234.461,0.35131,0.0,0.0
192,47.75,52.2643,56.0885,127.538,99.7957,95.4886,0.00449946,0.483135,20.5463,-234.912,0.395968,0.0,0.0
204,50.75,53.6328,57.5735,126.008,99.7606,94.4987,0.00478748,0.514105,20.5085,-235.412,0.486344,0.0,0.0
216,53.75,55.0164,59.128,124.237,99.7215,93.725,0.00504944,0.554805,20.4606,-235.993,0.556608,0.0,0.0
228,56.75,56.9323,60.7936,122.148,99.6853,94.1601,0.00529837,0.594708,20.415,-236.593,0.511776,0.0,0.0
240,59.75,58.7881,63.1357,119.344,99.6276,93.9091,0.00544217,0.622732,20.3828,-237.164,0.530541,0.0,0.0
252,62.75,60.5473,65.1698,126.111,99.5764,93.2134,0.00547193,0.642639,20.3591,-237.714,0.592674,0.0,0.0
264,65.75,61.8814,66.3759,119.991,99.5426,93.3107,0.00552949,0.648793,20.3514,-238.315,0.580254,0.0,0.0
276,68.75,63.1899,68.1436,123.145,99.5095,93.9447,0.00551864,0.645977,20.3545,-238.895,0.516498,0.0,0.0
288,71.75,64.5255,69.5541,122.961,99.5394,93.8486,0.00568335,0.638983,20.3589,-239.416,0.528371,0.0,0.0
300,74.75,65.7558,71.1457,125.371,99.539,93.0851,0.00570016,0.628155,20.3706,-239.956,0.601651,0.0,0.0
312,77.75,66.4837,72.0548,125.919,99.57,93.7699,0.00569289,0.612331,20.3847,-240.527,0.538665,0.0,0.0
324,80.75,67.5258,73.0068,123.128,99.5668,93.4715,0.00551827,0.595827,20.4026,-240.997,0.566979,0.0,0.0
336,83.75,68.0469,73.9104,128.318,99.5789,94.3933,0.00513763,0.576106,20.4266,-241.508,0.479991,0.0,0.0
348,86.75,68.6003,74.5603,125.141,99.5934,93.6785,0.00484062,0.55516,20.4542,-242.008,0.549526,0.0,0.0
360,89.75,68.643,74.8509,130.12,99.6212,94.9388,0.00466606,0.532025,20.4825,-242.468,0.432084,0.0,0.0
372,92.75,68.9538,75.2041,127.75,99.6341,94.6168,0.00415383,0.512944,20.5024,-242.929,0.463744,0.0,0.0
384,95.75,69.098,75.3717,127.137,99.6546,94.4471,0.00384154,0.492955,20.5262,-243.389,0.481709,0.0,0.0
396,98.75,69.5651,75.8797,130.722,99.6699,94.8072,0.00379523,0.475023,20.5475,-243.8,0.448928,0.0,0.0
408,101.75,68.5706,74.8575,132.208,99.6909,95.2139,0.00374322,0.45982,20.5657,-244.17,0.412394,0.0,0.0
420,104.75,68.6269,75.5796,127.478,99.7199,95.2719,0.00373701,0.444329,20.5876,-244.6,0.409541,0.0,0.0
432,107.75,68.7165,75.4316,130.885,99.728,95.178,0.00361185,0.429868,20.6053,-245.001,0.419122,0.0,0.0
444,110.75,68.9249,75.1311,131.368,99.7586,95.641,0.00335304,0.415385,20.6241,-245.391,0.378323,0.0,0.0
456,113.75,68.6291,75.1697,123.84,99.7719,95.7167,0.00331586,0.404493,20.6354,-245.751,0.372414,0.0,0.0
468,116.75,67.7379,74.5562,129.654,99.7844,96.2635,0.00344016,0.397873,20.6433,-246.162,0.32241,0.0,0.0
480,119.75,68.387,74.6418,129.748,99.8235,95.7028,0.00338109,0.391051,20.652,-246.522,0.378363,0.0,0.0
492,122.75,68.109,74.3537,130.834,99.8513,95.8153,0.00315692,0.386234,20.6561,-246.882,0.370311,0.0,0.0
504,125.75,67.6582,74.4589,129.843,99.8803,96.2352,0.00311195,0.380078,20.6652,-247.273,0.333677,0.0,0.0
516,128.75,67.6699,73.9677,129.877,99.9085,96.2276,0.00320055,0.375023,20.6713,-247.613,0.336923,0.0,0.0
528,131.75,67.2155,73.5736,130.136,99.9597,96.0041,0.00315334,0.369187,20.6814,-247.983,0.362387,0.0,0.0
540,134.75,66.2459,72.6278,129.803,100.002,96.0845,0.00298656,0.362238,20.6908,-248.344,0.358671,0.0,0.0
552,137.75,66.553,72.9569,132.184,100.05,97.0431,0.00285911,0.358732,20.6934,-248.694,0.27384,0.0,0.0
564,140.75,66.2323,72.6893,129.912,100.086,96.8036,0.00247431,0.357831,20.6945,-249.054,0.299311,0.0,0.0
576,143.75,66.1396,72.3401,132.324,100.126,96.2737,0.00233278,0.355702,20.6985,-249.425,0.352114,0.0,0.0
588,146.75,65.8739,71.8107,131.726,100.185,96.4451,0.00243671,0.35188,20.7029,-249.755,0.341495,0.0,0.0
600,149.75,65.5094,71.5682,129.266,100.191,96.5475,0.00246909,0.349742,20.704,-250.125,0.332437,0.0,0.0
612,152.75,65.0003,71.1724,132.317,100.211,96.4988,0.00246967,0.34688,20.7072,-250.436,0.338805,0.0,0.0
624,155.75,65.0718,70.9961,131.041,100.26,96.7697,0.00242808,0.344261,20.7091,-250.796,0.31805,0.0,0.0
636,158.75,64.5163,70.7109,129.788,100.279,96.4095,0.00248319,0.340028,20.7138,-251.116,0.353213,0.0,0.0
648,161.75,64.3047,70.7108,136.437,100.283,96.8891,0.00267257,0.334777,20.7206,-251.477,0.308971,0.0,0.0
660,164.75,64.1338,70.4184,129.4,100.297,96.5636,0.00272383,0.332382,20.7236,-251.827,0.340468,0.0,0.0
672,167.75,63.9322,70.1363,131.608,100.305,96.8565,0.00276866,0.330193,20.7255,-252.147,0.31401,0.0,0.0
684,170.75,63.8132,69.9016,132.705,100.314,97.1282,0.00277675,0.327058,20.7297,-252.477,0.289625,0.0,0.0
696,173.75,63.2109,69.3729,130.753,100.313,96.92,0.00269515,0.325374,20.7323,-252.818,0.30885,0.0,0.0
708,176.75,63.6411,69.3923,135.853,100.316,96.9657,0.00258126,0.322258,20.7372,-253.158,0.304835,0.0,0.0
720,179.75,63.2486,69.0957,129.061,100.311,96.8577,0.00245497,0.31987,20.7401,-253.468,0.314398,0.0,0.0
732,182.75,63.2803,68.9938,130.308,100.304,97.2606,0.00254805,0.318589,20.742,-253.779,0.276563,0.0,0.0
744,185.75,62.8673,68.7119,133.888,100.285,96.4675,0.00256637,0.317011,20.7439,-254.129,0.348284,0.0,0.0
756,188.75,63.0263,68.3001,130.483,100.275,96.3761,0.00261574,0.315072,20.746,-254.429,0.355929,0.0,0.0
768,191.75,63.0784,68.6045,131.105,100.252,96.6169,0.00270563,0.31149,20.75,-254.76,0.331474,0.0,0.0
780,194.75,62.3834,67.8883,129.357,100.241,97.2441,0.00270476,0.308701,20.7531,-255.09,0.272422,0.0,0.0
792,197.75,62.2541,67.8061,135.501,100.197,97.0613,0.00253158,0.305677,20.7571,-255.36,0.285379,0.0,0.0
804,200.75,62.1363,67.3094,131.418,100.171,96.7849,0.00243111,0.302102,20.7613,-255.7,0.30866,0.0,0.0
816,203.75,62.2394,67.8149,131.384,100.142,96.2149,0.00242853,0.298937,20.764,-255.991,0.359081,0.0,0.0
828,206.75,62.1838,67.3736,132.419,100.125,96.6453,0.00246703,0.297516,20.7662,-256.311,0.31743,0.0,0.0
840,209.75,61.5197,66.9613,132.695,100.073,96.7418,0.00240971,0.295686,20.7672,-256.581,0.303848,0.0,0.0
852,212.75,61.3322,66.369,133.33,100.044,96.3016,0.00224289,0.294134,20.7688,-256.921,0.342138,0.0,0.0
864,215.75,61.608,66.7046,133.121,100,96.3829,0.00233829,0.292242,20.7717,-257.232,0.330699,0.0,0.0
876,218.75,61.778,66.6499,133.993,99.9815,96.4387,0.00230593,0.290585,20.7751,-257.502,0.323797,0.0,0.0
888,221.75,61.3416,65.445,129.654,99.9388,97.1163,0.00230424,0.289234,20.7765,-257.842,0.257122,0.0,0.0
900,224.75,61.0745,64.9683,134.678,99.9037,96.5949,0.00240201,0.288369,20.7781,-258.173,0.30229,0.0,0.0
912,227.75,61.142,65.5524,129.461,99.8557,96.7278,0.00231961,0.286439,20.7792,-258.443,0.285641,0.0,0.0
924,230.75,59.557,66.1011,134.695,99.8041,96.1095,0.00246842,0.283101,20.7833,-258.733,0.338561,0.0,0.0
936,233.75,61.0133,65.2624,136.798,99.7461,96.0578,0.00244473,0.280952,20.7864,-259.013,0.338164,0.0,0.0
948,236.75,60.5176,65.676,132.145,99.6744,96.5141,0.00234974,0.279511,20.7881,-259.294,0.289179,0.0,0.0
960,239.75,59.89,64.6847,133.329,99.6276,96.0583,0.00231458,0.278998,20.7886,-259.624,0.327456,0.0,0.0
972,242.75,59.9332,64.7812,135.01,99.5611,96.1306,0.0021092,0.27767,20.7911,-259.904,0.314704,0.0,0.0
984,245.75,59.992,64.542,133.024,99.5168,96.0997,0.00184613,0.275866,20.7938,-260.214,0.313592,0.0,0.0
996,248.75,59.9784,64.7339,136.714,99.4503,95.8695,0.00189314,0.274286,20.7963,-260.485,0.329121,0.0,0.0
1008,251.75,59.5484,64.2855,130.373,99.3894,96.6123,0.00209064,0.272117,20.7996,-260.785,0.254358,0.0,0.0
1020,254.75,59.5183,64.2055,132.778,99.3387,95.7904,0.00224964,0.26835,20.8032,-261.065,0.326452,0.0,0.0
1032,257.75,59.3181,63.894,132.25,99.2798,95.4717,0.00235457,0.267379,20.8046,-261.335,0.351043,0.0,0.0
1044,260.75,59.2576,63.5957,135.467,99.1908,95.8492,0.0021531,0.266949,20.8047,-261.626,0.307568,0.0,0.0
1056,263.75,59.2113,63.8006,131.321,99.1251,95.6922,0.00195933,0.265318,20.8064,-261.936,0.316338,0.0,0.0
1068,266.75,58.9041,63.3617,132.872,99.0489,96.0456,0.00181515,0.265377,20.8084,-262.206,0.276353,0.0,0.0
1080,269.75,59.247,63.9537,136.88,98.9634,95.4374,0.00185041,0.263895,20.8103,-262.486,0.325622,0.0,0.0
1092,272.75,58.3821,62.9243,138.093,98.8925,95.8682,0.00200154,0.26228,20.8118,-262.737,0.27876,0.0,0.0
1104,275.75,58.5118,62.7932,135.033,98.8111,95.9749,0.0019242,0.26238,20.8123,-263.047,0.261388,0.0,0.0
1116,278.75,58.3676,62.7512,138.336,98.7337,95.6262,0.00193344,0.262056,20.8132,-263.297,0.28703,0.0,0.0
1128,281.75,58.5449,62.9282,133.78,98.6713,95.0865,0.00213443,0.261408,20.8143,-263.587,0.332138,0.0,0.0
1140,284.75,58.2762,62.516,138.101,98.5967,95.0967,0.00208171,0.260476,20.8146,-263.858,0.324395,0.0,0.0
1152,287.75,58.2173,62.3132,136.246,98.5189,95.4073,0.00189121,0.259905,20.8124,-264.148,0.288041,0.0,0.0
1164,290.75,58.4476,62.6475,140.419,98.4685,95.2668,0.00192963,0.259361,20.8127,-264.438,0.296678,0.0,0.0
1176,293.75,57.9898,62.2947,134.904,98.4319,94.8212,0.0019799,0.259178,20.8133,-264.678,0.335418,0.0,0.0
1188,296.75,57.8921,61.9959,135.033,98.3783,94.9515,0.00207319,0.25787,20.8149,-264.929,0.3182,0.0,0.0
1200,299.75,57.8065,61.7709,136.94,98.3384,94.6134,0.00227693,0.257321,20.8156,-265.219,0.34658,0.0,0.0
1212,302.75,57.3158,61.248,136.619,98.3114,94.9972,0.00211649,0.255036,20.8196,-265.479,0.307774,0.0,0.0
1224,305.75,57.6786,61.4447,132.3,98.2896,94.8931,0.00207044,0.252686,20.822,-265.759,0.31563,0.0,0.0
1236,308.75,57.3075,61.5019,133.882,98.257,94.6595,0.00215171,0.252442,20.8225,-266.03,0.334772,0.0,0.0
1248,311.75,58.0278,61.4893,130.803,98.2437,94.9439,0.00214263,0.253318,20.8219,-266.31,0.306632,0.0,0.0
1260,314.75,56.4317,60.7628,130.209,98.242,94.9168,0.00210569,0.253396,20.8217,-266.59,0.309044,0.0,0.0
1272,317.75,57.5701,60.7574,133.313,98.2384,94.8999,0.00197069,0.252546,20.8231,-266.85,0.310314,0.0,0.0
1284,320.75,57.1947,61.0278,135.719,98.2485,94.7446,0.00189127,0.252436,20.8226,-267.101,0.325937,0.0,0.0
1296,323.75,57.2167,60.8249,135.215,98.2622,95.1657,0.00199147,0.252677,20.8219,-267.361,0.287385,0.0,0.0
1308,326.75,57.2527,60.6756,134.736,98.2807,94.789,0.00190628,0.251766,20.8233,-267.621,0.324673,0.0,0.0
1320,329.75,57.0253,61.035,133.035,98.3081,94.6879,0.00190562,0.252507,20.8221,-267.841,0.336758,0.0,0.0
1332,332.75,56.6903,60.7521,128.863,98.3448,94.6265,0.00189779,0.252246,20.8232,-268.122,0.345924,0.0,0.0
1344,335.75,56.9746,60.8668,136.36,98.3904,94.9985,0.00174564,0.250469,20.8273,-268.442,0.314864,0.0,0.0
1356,338.75,56.361,60.1021,135.815,98.4448,94.7387,0.0017245,0.250415,20.8276,-268.692,0.34441,0.0,0.0
1368,341.75,56.7027,60.5424,134.913,98.5092,95.1276,0.00193081,0.250409,20.8271,-268.902,0.313515,0.0,0.0
1380,344.75,56.9921,60.164,135.571,98.5548,95.9749,0.00216634,0.251319,20.8257,-269.203,0.238076,0.0,0.0
1392,347.75,56.6113,60.1321,138.891,98.6221,94.9956,0.00229678,0.252638,20.8237,-269.463,0.336257,0.0,0.0
1404,350.75,56.6723,60.2107,136.369,98.6789,95.5225,0.00199131,0.252698,20.8227,-269.703,0.291783,0.0,0.0
1416,353.75,56.3485,59.9829,134.455,98.7398,95.1259,0.00184682,0.252095,20.8238,-269.953,0.334654,0.0,0.0
1428,356.75,57.0499,60.5715,138.067,98.8071,95.2681,0.0018782,0.250936,20.8246,-270.284,0.327363,0.0,0.0
1440,359.75,56.3822,60.3239,135.551,98.8828,95.0628,0.00165982,0.251784,20.8228,-270.544,0.353601,0.0,0.0
1452,362.75,56.4772,59.8748,138.602,98.951,95.302,0.00160371,0.254325,20.8201,-270.794,0.337233,0.0,0.0
1464,365.75,56.5378,60.5572,134.896,99.0042,95.7645,0.00180305,0.256234,20.8185,-271.054,0.298598,0.0,0.0
1476,368.75,56.3487,60.2817,135.7,99.0453,95.7954,0.00189513,0.257077,20.818,-271.324,0.299429,0.0,0.0
1488,371.75,56.9832,59.8728,134.408,99.0985,95.4814,0.00183582,0.257168,20.8179,-271.595,0.333719,0.0,0.0
1500,374.75,56.8466,60.0614,135.935,99.1428,95.6913,0.00198205,0.257145,20.8188,-271.815,0.318022,0.0,0.0
1512,377.75,56.2034,59.4406,131.586,99.1992,95.7866,0.00204911,0.256858,20.8198,-272.085,0.314202,0.0,0.0
1524,380.75,56.3449,60.247,133.038,99.2427,95.6981,0.0020009,0.256976,20.8201,-272.385,0.32643,0.0,0.0
1536,383.75,56.6045,60.002,131.594,99.2943,95.5618,0.0020271,0.258624,20.8177,-272.636,0.343886,0.0,0.0
1548,386.75,56.9051,59.833,133.782,99.3278,95.7383,0.0020925,0.260648,20.8144,-272.876,0.330347,0.0,0.0
1560,389.75,56.7323,60.4882,134.48,99.3745,95.5237,0.00216321,0.262073,20.8118,-273.176,0.354709,0.0,0.0
1572,392.75,56.7306,60.0029,134.895,99.4096,95.663,0.00215997,0.261818,20.8115,-273.446,0.344803,0.0,0.0
1584,395.75,56.3023,60.1398,132.634,99.4547,96.0117,0.00219211,0.261812,20.8118,-273.687,0.316218,0.0,0.0
1596,398.75,56.675,60.1473,136.7,99.4918,95.619,0.00212593,0.262945,20.8105,-273.947,0.356353,0.0,0.0
1608,401.75,56.1193,60.4159,136.803,99.5172,96.2199,0.00186181,0.26439,20.8093,-274.267,0.302409,0.0,0.0
1620,404.75,56.7853,59.5174,132.952,99.5494,95.6524,0.00166099,0.26614,20.8077,-274.487,0.358412,0.0,0.0
1632,407.75,57.0454,60.2776,132.392,99.5688,95.8814,0.00165671,0.268038,20.807,-274.778,0.338698,0.0,0.0
1644,410.75,56.7281,60.018,137.285,99.5893,95.7188,0.00160385,0.27044,20.8058,-275.048,0.355777,0.0,0.0
1656,413.75,56.7355,60.368,134.193,99.6083,96.0253,0.00166714,0.26961,20.8054,-275.328,0.328798,0.0,0.0
1668,416.75,56.5518,60.2046,135.163,99.6087,95.7988,0.00186543,0.27176,20.8022,-275.588,0.350023,0.0,0.0
1680,419.75,56.7303,60.3231,139.394,99.6171,95.8606,0.00210166,0.273768,20.7994,-275.849,0.344999,0.0,0.0
1692,422.75,57.0877,60.2272,136.828,99.5922,95.8907,0.00221345,0.274819,20.7986,-276.119,0.339934,0.0,0.0
1704,425.75,57.3515,60.8346,134.823,99.5982,95.6672,0.00230211,0.276999,20.7957,-276.399,0.361419,0.0,0.0
1716,428.75,57.2403,60.6912,133.534,99.5914,95.4548,0.0022423,0.279221,20.7917,-276.709,0.380756,0.0,0.0
1728,431.75,56.7022,60.3744,133.718,99.5688,95.7866,0.0021174,0.281852,20.7869,-276.97,0.347577,0.0,0.0
1740,434.75,57.3539,60.9825,130.457,99.5478,95.7599,0.00199698,0.282991,20.7853,-277.27,0.348187,0.0,0.0
1752,437.75,57.003,60.5499,134.752,99.5531,95.4243,0.00191032,0.284314,20.7839,-277.52,0.38017,0.0,0.0
1764,440.75,57.9489,61.1402,133.144,99.516,95.434,0.00191468,0.286079,20.7842,-277.82,0.375911,0.0,0.0
1776,443.75,57.1645,61.2205,129.992,99.5015,95.5373,0.00194923,0.287459,20.7822,-278.131,0.364896,0.0,0.0
1788,446.75,57.6974,61.2623,134.837,99.4837,95.4052,0.00219179,0.289944,20.778,-278.361,0.37571,0.0,0.0
1800,449.75,57.5947,61.0995,135.352,99.4713,95.2901,0.00229685,0.292791,20.7756,-278.651,0.385418,0.0,0.0
1812,452.75,58.1516,60.9502,136.612,99.4539,94.7535,0.00227945,0.294706,20.7727,-278.971,0.434544,0.0,0.0
1824,455.75,57.8575,61.5089,132.85,99.4314,95.3921,0.00222937,0.29634,20.7712,-279.252,0.372215,0.0,0.0
1836,458.75,57.9503,61.6001,133.914,99.3943,95.0569,0.0021574,0.296608,20.7679,-279.552,0.400462,0.0,0.0
1848,461.75,58.3489,61.5236,134.578,99.3778,94.5922,0.00215023,0.299656,20.7641,-279.852,0.442954,0.0,0.0
1860,464.75,58.4344,62.0336,131.511,99.3536,94.8313,0.00227151,0.302396,20.7621,-280.152,0.418109,0.0,0.0
1872,467.75,58.348,62.4189,134.526,99.3233,94.5986,0.00231223,0.303313,20.761,-280.423,0.437436,0.0,0.0
1884,470.75,58.8089,61.811,130.567,99.3068,95.2486,0.00235507,0.306045,20.7586,-280.723,0.374477,0.0,0.0
1896,473.75,58.8223,62.44,133.962,99.2935,94.861,0.00233355,0.309355,20.7571,-281.053,0.409879,0.0,0.0
1908,476.75,58.6536,62.1761,128.385,99.2786,94.7518,0.002371,0.310974,20.7559,-281.353,0.418869,0.0,0.0
1920,479.75,59.0162,62.237,131.759,99.2657,94.1825,0.00224702,0.311944,20.7547,-281.674,0.471784,0.0,0.0
1932,482.75,58.9996,62.7361,135.029,99.2544,94.409,0.00219651,0.314943,20.7511,-281.964,0.449213,0.0,0.0
1944,485.75,59.181,62.4722,130.437,99.2311,93.9857,0.00226797,0.31739,20.7482,-282.264,0.487425,0.0,0.0
1956,488.75,59.3643,62.9886,129.736,99.2633,94.6637,0.00242625,0.319351,20.7442,-282.565,0.425826,0.0,0.0
1968,491.75,59.3879,63.0784,134.471,99.3568,94.9016,0.00245268,0.32252,20.7407,-282.865,0.411754,0.0,0.0
1980,494.75,59.59,63.4374,132.95,99.4406,94.4373,0.00239687,0.323715,20.7386,-283.195,0.46334,0.0,0.0
1992,497.75,59.5357,63.1789,130.773,99.5297,95.0163,0.00240103,0.324417,20.736,-283.485,0.416518,0.0,0.0
2004,500.75,59.9678,63.4475,132.594,99.6147,94.464,0.00232962,0.32618,20.7344,-283.816,0.476507,0.0,0.0
2016,503.75,59.8132,63.6294,133.805,99.6828,94.5744,0.00239238,0.329129,20.7312,-284.096,0.472152,0.0,0.0
2028,506.75,60.3758,64.0121,136.719,99.7473,94.7526,0.00244848,0.330837,20.7293,-284.446,0.461063,0.0,0.0
2040,509.75,60.3387,64.1366,131.187,99.7985,94.9113,0.00251764,0.33283,20.7267,-284.757,0.450646,0.0,0.0
2052,512.75,60.1864,63.8288,132.849,99.8577,94.6443,0.00262744,0.333716,20.7254,-285.057,0.481262,0.0,0.0
2064,515.75,60.7024,64.3177,128.745,99.9009,94.6206,0.00254951,0.33352,20.7251,-285.407,0.487385,0.0,0.0
2076,518.75,60.4225,64.2937,133.526,99.9504,94.3167,0.00255941,0.334201,20.7259,-285.737,0.520708,0.0,0.0
2088,521.75,60.755,64.5906,130.791,99.9779,94.7213,0.00256381,0.336689,20.7226,-286.068,0.484749,0.0,0.0
2100,524.75,60.5893,64.8185,135.348,100.01,94.5478,0.00251887,0.339744,20.7181,-286.358,0.504062,0.0,0.0
2112,527.75,60.8541,64.9626,134.443,100.037,94.8838,0.00250181,0.340426,20.7165,-286.718,0.474643,0.0,0.0
2124,530.75,61.0749,64.8073,129.045,100.05,95.393,0.00259852,0.34045,20.716,-287.019,0.42784,0.0,0.0
2136,533.75,61.3151,65.2043,133.048,100.059,94.9871,0.00262225,0.341574,20.7157,-287.339,0.46687,0.0,0.0
2148,536.75,61.4165,65.2293,131.617,100.064,94.6388,0.00272338,0.341752,20.7141,-287.679,0.500276,0.0,0.0
2160,539.75,61.092,65.4629,131.692,100.075,94.0966,0.00287487,0.342037,20.7137,-287.999,0.552814,0.0,0.0
2172,542.75,61.9261,65.4169,136.06,100.067,94.2883,0.00288905,0.344099,20.712,-288.35,0.533859,0.0,0.0
2184,545.75,61.3394,64.3401,135.046,100.07,94.3954,0.00288705,0.34599,20.7102,-288.66,0.523925,0.0,0.0
2196,548.75,62.1264,65.4291,133.456,100.053,94.0962,0.00287841,0.346533,20.7097,-289.01,0.550903,0.0,0.0
2208,551.75,62.2597,65.5623,132.411,100.044,94.2147,0.00293052,0.346935,20.7091,-289.341,0.538847,0.0,0.0
2220,554.75,61.7764,65.8824,130.558,100.021,94.5681,0.00313491,0.347859,20.7069,-289.631,0.503112,0.0,0.0
2232,557.75,61.8826,65.9532,131.73,99.9968,94.1351,0.00322064,0.350905,20.7024,-289.991,0.542162,0.0,0.0
2244,560.75,62.0785,66.1812,129.262,99.9686,94.5402,0.00301108,0.352241,20.7007,-290.281,0.501096,0.0,0.0
2256,563.75,62.3402,66.2709,122.971,99.9339,94.0073,0.00288188,0.352417,20.701,-290.622,0.548712,0.0,0.0
2268,566.75,62.401,66.3859,133.81,99.888,94.0924,0.00281877,0.35369,20.7007,-291.022,0.536467,0.0,0.0
2280,569.75,62.8365,66.8048,131.544,99.8428,93.8338,0.00282361,0.354659,20.7004,-291.332,0.557111,0.0,0.0
2292,572.75,62.4897,66.5875,132.324,99.8041,94.4801,0.00297573,0.354742,20.699,-291.623,0.492029,0.0,0.0
2304,575.75,62.608,66.6,131.863,99.7437,94.2718,0.00300882,0.357792,20.6941,-291.993,0.506394,0.0,0.0
2316,578.75,62.8332,67.0187,132.195,99.6941,94.0662,0.00296056,0.360815,20.6909,-292.313,0.521535,0.0,0.0
2328,581.75,62.7553,66.7545,129.161,99.6357,93.3052,0.0030651,0.363241,20.6876,-292.664,0.589175,0.0,0.0
2340,584.75,62.4557,66.3536,128.072,99.5648,93.2426,0.00307944,0.365558,20.6826,-293.014,0.588809,0.0,0.0
2352,587.75,63.0434,67.1847,131.542,99.4886,93.816,0.00290429,0.367115,20.6817,-293.384,0.526909,0.0,0.0
2364,590.75,63.4801,67.4918,136.831,99.5091,93.7737,0.00290507,0.36643,20.683,-293.715,0.532813,0.0,0.0
2376,593.75,63.4291,67.2824,128.935,99.5378,93.8224,0.00297461,0.366644,20.6834,-294.015,0.530736,0.0,0.0
2388,596.75,63.3518,67.7656,128.358,99.5652,93.5849,0.00308545,0.368971,20.681,-294.375,0.555949,0.0,0.0
2400,599.75,63.8266,67.7104,130.355,99.6075,93.6383,0.00321618,0.370217,20.6795,-294.766,0.554649,0.0,0.0
2412,602.75,63.6544,67.7819,133.098,99.6248,94.3184,0.00322934,0.370634,20.679,-295.076,0.491257,0.0,0.0
2424,605.75,63.8955,68.1489,128.283,99.6655,93.2663,0.00330391,0.370604,20.6776,-295.386,0.595606,0.0,0.0
2436,608.75,63.638,67.965,130.235,99.703,93.3822,0.00333682,0.37162,20.6768,-295.756,0.587828,0.0,0.0
2448,611.75,64.2644,68.2798,128.115,99.7489,93.852,0.00309327,0.372729,20.6746,-296.077,0.546924,0.0,0.0
2460,614.75,63.5536,67.8789,129.39,99.784,93.5811,0.00291265,0.371509,20.6754,-296.407,0.576019,0.0,0.0
2472,617.75,64.2456,68.6234,131.558,99.8199,93.8727,0.002932,0.371452,20.6757,-296.787,0.551321,0.0,0.0
2484,620.75,64.4049,68.7018,130.555,99.869,94.0932,0.0029087,0.371733,20.677,-297.118,0.534684,0.0,0.0
2496,623.75,64.0316,68.5061,127.742,99.9162,93.5282,0.00309229,0.370312,20.6792,-297.478,0.592977,0.0,0.0
2508,626.75,64.5153,68.8826,130.19,99.9658,94.059,0.00317835,0.36996,20.6785,-297.818,0.546642,0.0,0.0
2520,629.75,64.5036,69.0469,129.174,99.9956,94.1313,0.00315727,0.369635,20.6779,-298.149,0.542417,0.0,0.0
2532,632.75,64.8374,69.3745,129.416,100.044,94.8483,0.00322643,0.370237,20.677,-298.469,0.478657,0.0,0.0
2544,635.75,64.8865,69.0202,130.051,100.08,94.4602,0.00324799,0.372068,20.6757,-298.799,0.518674,0.0,0.0
2556,638.75,65.057,69.3153,133.095,100.114,94.924,0.00310573,0.373351,20.6729,-299.129,0.477744,0.0,0.0
2568,641.75,65.1232,69.3711,129.908,100.146,94.5067,0.00297426,0.373391,20.6721,-299.5,0.520214,0.0,0.0
2580,644.75,64.5142,68.9417,127.02,100.168,94.4898,0.00279161,0.373187,20.6717,-299.83,0.523736,0.0,0.0
2592,647.75,65.2561,69.4658,124.28,100.2,95.092,0.00274719,0.376307,20.6664,-300.16,0.469601,0.0,0.0
2604,650.75,65.3536,69.7055,131.395,100.231,94.836,0.0027219,0.379385,20.6611,-300.521,0.496616,0.0,0.0
2616,653.75,65.3952,69.7661,136.015,100.264,94.9333,0.00263753,0.380919,20.6595,-300.851,0.490296,0.0,0.0
2628,656.75,65.4685,69.9039,125.685,100.291,94.927,0.00254584,0.380097,20.6623,-301.221,0.493312,0.0,0.0
2640,659.75,65.6326,70.0019,134.334,100.293,94.9029,0.0025333,0.380068,20.662,-301.542,0.49581,0.0,0.0
2652,662.75,65.4215,69.6032,128.362,100.304,95.0633,0.00263666,0.382382,20.6592,-301.882,0.481627,0.0,0.0
2664,665.75,65.9688,70.0049,127.736,100.289,95.269,0.00288763,0.384245,20.6565,-302.232,0.460858,0.0,0.0
2676,668.75,66.2641,70.5699,128.632,100.27,94.8394,0.00292013,0.386997,20.6517,-302.553,0.499723,0.0,0.0
2688,671.75,66.2326,70.5355,127.683,100.244,95.4349,0.00290997,0.388965,20.6498,-302.923,0.441237,0.0,0.0
2700,674.75,66.1494,70.5286,130.713,100.208,94.7416,0.00290379,0.387856,20.6506,-303.263,0.503423,0.0,0.0
2712,677.75,66.3028,70.8931,131.247,100.164,94.8821,0.00280515,0.389727,20.6482,-303.624,0.486186,0.0,0.0
2724,680.75,66.5503,71.095,131.038,100.106,95.0027,0.00275567,0.392187,20.6452,-303.944,0.469618,0.0,0.0
2736,683.75,66.68,70.7935,127.459,100.032,94.8931,0.0028469,0.392891,20.6432,-304.334,0.473328,0.0,0.0
2748,686.75,66.3977,70.6754,124.934,99.9734,94.7763,0.00295427,0.392473,20.6437,-304.674,0.479139,0.0,0.0
2760,689.75,66.4424,70.9355,129.419,99.9033,94.2536,0.00321267,0.388191,20.6508,-305.005,0.522475,0.0,0.0
2772,692.75,67.1556,71.5664,131.84,99.8251,94.5287,0.00344232,0.384823,20.6534,-305.325,0.489291,0.0,0.0
2784,695.75,66.6352,71.3631,128.149,99.7651,93.9836,0.00325777,0.385651,20.653,-305.645,0.535797,0.0,0.0
2796,698.75,67.2361,71.4474,130.648,99.6994,94.1686,0.00290344,0.382999,20.6555,-306.016,0.51224,0.0,0.0
2808,701.75,67.1967,71.5019,133.023,99.628,94.4729,0.00273663,0.380461,20.6575,-306.326,0.47686,0.0,0.0
2820,704.75,67.2529,71.7781,129.09,99.5607,94.6375,0.00268455,0.379496,20.6592,-306.666,0.455167,0.0,0.0
2832,707.75,66.8904,71.6064,130.592,99.4749,94.8254,0.00261362,0.379205,20.6593,-307.017,0.429621,0.0,0.0
2844,710.75,67.0607,71.6593,127.405,99.4035,94.5237,0.0026913,0.378269,20.6602,-307.317,0.45179,0.0,0.0
2856,713.75,67.0209,71.6225,131.669,99.3157,95.156,0.00274213,0.375207,20.6654,-307.637,0.384016,0.0,0.0
2868,716.75,67.1587,71.7557,130.941,99.2564,94.4098,0.00254951,0.372073,20.6685,-307.937,0.449316,0.0,0.0
2880,719.75,67.3452,72.0023,128.381,99.1883,94.7205,0.00241421,0.367473,20.6745,-308.318,0.413671,0.0,0.0
2892,722.75,67.1625,71.6393,130.914,99.1126,94.3747,0.00271458,0.363827,20.6796,-308.558,0.439636,0.0,0.0
2904,725.75,66.662,71.1521,131.086,99.0368,94.5774,0.00285526,0.36168,20.6824,-308.868,0.413513,0.0,0.0
2916,728.75,66.5362,71.0206,128.421,98.9695,94.2515,0.00296496,0.360663,20.6841,-309.199,0.43839,0.0,0.0
2928,731.75,66.8412,71.3109,133.887,98.9078,94.2295,0.00282755,0.356795,20.6889,-309.499,0.434893,0.0,0.0
2940,734.75,67.0714,71.6818,134.388,98.8292,94.0353,0.00250413,0.352844,20.6921,-309.799,0.44628,0.0,0.0
2952,737.75,65.7618,70.0445,130.825,98.7861,93.8829,0.00257114,0.35041,20.6942,-310.069,0.456918,0.0,0.0
2964,740.75,66.4856,70.9936,130.149,98.7317,94.0374,0.0027895,0.348739,20.6965,-310.35,0.437217,0.0,0.0
2976,743.75,66.6431,70.9677,126.602,98.6672,93.3259,0.00299734,0.346362,20.7002,-310.67,0.499514,0.0,0.0
2988,746.75,66.5514,70.6239,131.963,98.6177,93.4254,0.00309956,0.342426,20.7054,-310.94,0.485443,0.0,0.0
3000,749.75,66.0633,70.5042,127.639,98.5798,92.9344,0.00304481,0.340359,20.7074,-311.2,0.529283,0.0,0.0
3012,752.75,65.5655,70.0478,133.185,98.5129,93.1004,0.00297317,0.339021,20.7082,-311.491,0.507181,0.0,0.0
3024,755.75,65.9744,70.7174,128.84,98.4641,93.1164,0.00292322,0.337102,20.7103,-311.791,0.501187,0.0,0.0
3036,758.75,65.25,69.8425,133.485,98.4097,93.2057,0.00292079,0.334403,20.714,-312.041,0.487624,0.0,0.0
3048,761.75,65.7248,69.9928,132.048,98.3742,93.2671,0.00287449,0.33093,20.7176,-312.321,0.478481,0.0,0.0
3060,764.75,65.4102,69.6489,127.372,98.3432,92.584,0.00282775,0.328377,20.7199,-312.592,0.541625,0.0,0.0
3072,767.75,65.0304,69.2418,131.55,98.311,92.9192,0.00280073,0.325574,20.7238,-312.842,0.506247,0.0,0.0
3084,770.75,64.9096,69.2472,130.646,98.2884,92.9438,0.00273169,0.320478,20.7294,-313.112,0.501815,0.0,0.0
3096,773.75,65.1943,69.0946,130.743,98.2711,93.7238,0.00276639,0.317239,20.7334,-313.352,0.425225,0.0,0.0
3108,776.75,64.8168,69.1047,130.916,98.2674,93.7906,0.00283945,0.31198,20.7401,-313.623,0.418492,0.0,0.0
3120,779.75,64.5044,68.722,133.184,98.2763,93.6726,0.00261561,0.306678,20.7487,-313.853,0.430609,0.0,0.0
3132,782.75,64.402,68.7724,131.975,98.2856,93.4707,0.00242958,0.300134,20.7567,-314.033,0.45082,0.0,0.0
3144,785.75,64.3341,68.4771,132.912,98.3057,93.8283,0.00237987,0.294064,20.765,-314.293,0.418385,0.0,0.0
3156,788.75,63.8052,67.9619,133.092,98.3073,93.8698,0.0023036,0.287449,20.7718,-314.503,0.414566,0.0,0.0
3168,791.75,63.9038,68.2481,136.323,98.3613,94.26,0.00217282,0.280769,20.7805,-314.714,0.382263,0.0,0.0
3180,794.75,63.5659,67.5321,133.539,98.3928,94.3108,0.00207229,0.271088,20.7907,-314.894,0.380296,0.0,0.0
3192,797.75,62.6101,66.5375,133.662,98.429,94.2947,0.0021259,0.262722,20.7979,-315.104,0.385134,0.0,0.0
3204,800.75,63.8679,67.5946,138.682,98.4573,94.2659,0.00200711,0.253868,20.8082,-315.274,0.390446,0.0,0.0
3216,803.75,63.11,66.9504,135.339,98.5016,94.3755,0.0021261,0.245708,20.8167,-315.394,0.384057,0.0,0.0
3228,806.75,61.7711,65.5438,136.379,98.5483,94.3239,0.00233741,0.2373,20.8277,-315.594,0.393226,0.0,0.0
3240,809.75,61.433,65.1342,136.413,98.5935,94.0975,0.00239498,0.226355,20.8399,-315.744,0.418908,0.0,0.0
3252,812.75,60.8026,64.4942,137.433,98.6434,94.2981,0.00256021,0.218179,20.8488,-315.895,0.404342,0.0,0.0
3264,815.75,60.0622,63.4826,139.703,98.722,94.979,0.00272114,0.210472,20.8589,-315.995,0.346909,0.0,0.0
3276,818.75,59.584,63.5913,136.393,98.7672,95.2745,0.0028738,0.200517,20.8671,-316.115,0.32314,0.0,0.0
3288,821.75,59.0123,63.047,138.787,98.8393,95.398,0.00317758,0.192669,20.8773,-316.225,0.318058,0.0,0.0
3300,824.75,58.241,61.7068,140.218,98.9038,95.2249,0.00381709,0.187356,20.8818,-316.335,0.340212,0.0,0.0
3312,827.75,57.451,60.7512,144.406,98.9534,95.1924,0.00442014,0.183395,20.8844,-316.425,0.347781,0.0,0.0
3324,830.75,57.7581,61.1362,136.187,99.0235,94.7954,0.00489219,0.182369,20.8828,-316.535,0.391648,0.0,0.0
3336,833.75,57.5948,60.5616,139.667,99.0706,95.1725,0.00548833,0.182637,20.8792,-316.635,0.360288,0.0,0.0
3348,836.75,57.0308,60.2351,136.948,99.1247,95.5813,0.00596497,0.182734,20.8782,-316.725,0.326707,0.0,0.0
3360,839.75,56.4527,59.1239,134.826,99.1851,95.2702,0.00614229,0.181511,20.8785,-316.805,0.361436,0.0,0.0
3372,842.75,55.5939,58.9929,139.161,99.2339,95.467,0.0060509,0.179622,20.8815,-316.926,0.347327,0.0,0.0
3384,845.75,55.4388,58.7394,140.354,99.3008,95.7057,0.00621754,0.177653,20.884,-316.986,0.330964,0.0,0.0
3396,848.75,55.4214,57.5729,141.02,99.3362,95.4624,0.00646648,0.176257,20.8863,-317.066,0.357019,0.0,0.0
3408,851.75,54.823,57.4491,138.536,99.3991,95.3261,0.00655586,0.174286,20.8888,-317.146,0.375519,0.0,0.0
3420,854.75,53.7873,56.7514,140.181,99.4217,95.514,0.00662434,0.171778,20.8933,-317.266,0.359882,0.0,0.0
3432,857.75,53.4014,56.5697,138.402,99.4612,95.5402,0.00649498,0.168458,20.8995,-317.306,0.360981,0.0,0.0
3444,860.75,52.7301,55.3164,141.296,99.4894,95.6901,0.00622019,0.165764,20.9027,-317.406,0.349463,0.0,0.0
3456,863.75,53.3493,55.9052,141.181,99.5196,96.0181,0.00624734,0.163088,20.9057,-317.456,0.321478,0.0,0.0
3468,866.75,52.9972,55.3783,140.138,99.5454,95.831,0.00641721,0.160275,20.9082,-317.546,0.341307,0.0,0.0
3480,869.75,52.6213,55.1547,139.069,99.5615,95.7781,0.00655994,0.157606,20.9114,-317.616,0.347716,0.0,0.0
3492,872.75,51.9808,54.4768,138.725,99.5849,95.941,0.0065594,0.155585,20.9132,-317.676,0.334567,0.0,0.0
3504,875.75,51.8873,54.3392,137.389,99.5857,96.1408,0.00635746,0.153598,20.9172,-317.716,0.315972,0.0,0.0
3516,878.75,51.5198,54.1904,138.36,99.603,95.3866,0.00632926,0.152141,20.9191,-317.796,0.388218,0.0,0.0
3528,881.75,51.0819,53.3344,141.01,99.6167,95.919,0.00646761,0.15032,20.9212,-317.836,0.339496,0.0,0.0
3540,884.75,51.1231,53.4315,143.265,99.6155,96.1835,0.00656299,0.149321,20.9233,-317.916,0.314669,0.0,0.0
3552,887.75,50.3875,52.6128,141.225,99.6143,95.4133,0.00650748,0.148183,20.925,-317.966,0.386726,0.0,0.0
3564,890.75,50.5593,52.721,138.028,99.6091,95.8327,0.00647084,0.146599,20.9281,-318.077,0.346888,0.0,0.0
3576,893.75,49.7246,52.0173,139.828,99.6115,95.4294,0.00647917,0.14449,20.9323,-318.107,0.384959,0.0,0.0
3588,896.75,49.8213,51.6119,139.644,99.6014,95.9,0.00638261,0.143339,20.9339,-318.157,0.339898,0.0,0.0
3600,899.75,49.0157,51.11,136.484,99.5914,96.0363,0.006349,0.142213,20.9349,-318.217,0.326245,0.0,0.0
3612,902.75,49.0826,51.3053,142.555,99.5926,95.8526,0.00645746,0.141722,20.9356,-318.257,0.343535,0.0,0.0
3624,905.75,48.8432,50.7989,141.658,99.5672,96.2771,0.00653147,0.140875,20.937,-318.337,0.301588,0.0,0.0
3636,908.75,48.7727,50.4212,138.759,99.5559,95.8175,0.00660469,0.140461,20.9374,-318.417,0.34352,0.0,0.0
3648,911.75,48.2481,50.2312,143.961,99.5543,95.9999,0.00675885,0.138922,20.9412,-318.437,0.326305,0.0,0.0
3660,914.75,48.095,50.0399,140.395,99.5257,95.9059,0.00713477,0.138453,20.9429,-318.487,0.332512,0.0,0.0
3672,917.75,47.6014,49.6282,139.445,99.5112,95.3303,0.00731256,0.138292,20.9419,-318.527,0.385232,0.0,0.0
3684,920.75,47.6332,49.3658,137.496,99.5043,95.5699,0.00718626,0.138057,20.9414,-318.587,0.36209,0.0,0.0
3696,923.75,47.3897,49.1684,137.517,99.5023,95.4488,0.00723446,0.137232,20.9429,-318.647,0.373283,0.0,0.0
3708,926.75,48.0442,49.1493,146.666,99.4749,95.2326,0.00726588,0.13654,20.9442,-318.707,0.391169,0.0,0.0
3720,929.75,47.3832,48.8646,137.98,99.4769,95.7629,0.00728712,0.135458,20.9471,-318.737,0.341512,0.0,0.0
3732,932.75,46.8315,48.5754,140.707,99.4624,95.354,0.00735402,0.135047,20.9497,-318.787,0.378602,0.0,0.0
3744,935.75,46.9253,48.5641,140.66,99.4644,95.4061,0.00730772,0.134442,20.9487,-318.837,0.373885,0.0,0.0
3756,938.75,46.2329,47.9865,144.623,99.4338,95.7159,0.00728611,0.133304,20.949,-318.877,0.342023,0.0,0.0
3768,941.75,45.859,47.3925,142.254,99.4277,95.7112,0.00734442,0.132153,20.9502,-318.937,0.341914,0.0,0.0
3780,944.75,45.2225,46.6633,137.528,99.4297,96.4121,0.00750892,0.131656,20.9505,-318.977,0.276613,0.0,0.0
3792,947.75,46.2912,47.7102,143.407,99.4209,95.2838,0.00769468,0.131808,20.9517,-318.987,0.381469,0.0,0.0
3804,950.75,46.132,47.5334,141.295,99.4108,95.7976,0.00766212,0.131113,20.9526,-319.057,0.332294,0.0,0.0
3816,953.75,46.2974,47.3344,142.644,99.3971,95.3367,0.00759003,0.130329,20.9531,-319.128,0.374341,0.0,0.0
3828,956.75,44.7422,46.4854,139.319,99.3733,95.7074,0.00786438,0.129649,20.9552,-319.147,0.337359,0.0,0.0
3840,959.75,45.5365,46.8807,140.795,99.387,95.2499,0.00799079,0.129458,20.9563,-319.198,0.381604,0.0,0.0
3852,962.75,45.53,46.3675,146.101,99.3842,95.3523,0.00796772,0.129516,20.9565,-319.248,0.371703,0.0,0.0
3864,965.75,45.2924,46.3731,144.005,99.3737,96.0295,0.00802498,0.130113,20.9543,-319.268,0.307243,0.0,0.0
3876,968.75,45.188,46.4244,142.542,99.3806,95.5567,0.00824773,0.130396,20.9537,-319.358,0.352154,0.0,0.0
3888,971.75,45.1334,46.2616,140.801,99.3834,95.6122,0.00843992,0.130821,20.9546,-319.318,0.347203,0.0,0.0
3900,974.75,44.8317,46.2432,141.909,99.3717,95.8627,0.00834312,0.130079,20.9561,-319.408,0.322659,0.0,0.0
3912,977.75,44.744,46.0401,141.855,99.3705,95.4471,0.00835925,0.128907,20.9576,-319.438,0.361546,0.0,0.0
3924,980.75,44.6147,45.7004,142.434,99.3862,95.4154,0.00847497,0.128652,20.9588,-319.518,0.365951,0.0,0.0
3936,983.75,44.5292,45.5512,144.138,99.3721,95.3172,0.00865442,0.128909,20.9595,-319.518,0.373918,0.0,0.0
3948,986.75,44.1434,45.5454,141.726,99.3689,95.1949,0.00891133,0.129621,20.959,-319.578,0.385151,0.0,0.0
3960,989.75,44.3253,45.3667,142.857,99.356,95.6507,0.00899593,0.132114,20.9555,-319.568,0.341113,0.0,0.0
3972,992.75,44.1308,45.0342,146.301,99.3528,95.4666,0.00903602,0.133176,20.9549,-319.648,0.358114,0.0,0.0
3984,995.75,43.3626,44.9697,142.864,99.3532,96.1759,0.00913153,0.132534,20.9565,-319.678,0.29171,0.0,0.0
3996,998.75,43.622,44.5884,140.607,99.3383,95.0176,0.00921697,0.130159,20.9602,-319.738,0.399119,0.0,0.0
4008,1001.75,44.1087,45.2185,143.332,99.3338,95.4776,0.00913133,0.12738,20.9632,-319.788,0.355369,0.0,0.0
4020,1004.75,43.7045,44.745,141.595,99.329,95.241,0.00909187,0.126056,20.964,-319.818,0.377199,0.0,0.0
4032,1007.75,43.3158,44.5021,141.51,99.3246,95.4027,0.00937993,0.125748,20.9643,-319.858,0.361575,0.0,0.0
4044,1010.75,43.8053,45.0386,142.319,99.3141,96.1395,0.00958995,0.125311,20.9654,-319.888,0.291575,0.0,0.0
4056,1013.75,43.4503,44.5355,144.159,99.2899,95.1492,0.00956999,0.124596,20.9652,-319.948,0.382325,0.0,0.0
4068,1016.75,43.2781,44.4688,144.884,99.2891,95.3722,0.00960968,0.125423,20.9646,-319.988,0.361237,0.0,0.0
4080,1019.75,43.1195,44.1085,144.102,99.2887,95.1517,0.00980632,0.126365,20.9644,-320.028,0.381975,0.0,0.0
4092,1022.75,43.1137,44.2468,144.538,99.2681,96.5687,0.0101187,0.126563,20.9644,-320.058,0.247448,0.0,0.0
4104,1025.75,43.0585,44.0862,142.491,99.2597,95.1733,0.0100894,0.126281,20.9657,-320.108,0.377317,0.0,0.0
4116,1028.75,42.7686,43.9317,143.058,99.248,95.2402,0.0100319,0.125481,20.9682,-320.138,0.369955,0.0,0.0
4128,1031.75,42.8145,43.9418,142.784,99.2383,95.7061,0.0101672,0.124748,20.9702,-320.188,0.325275,0.0,0.0
4140,1034.75,42.3972,43.4786,143.5,99.2194,95.3989,0.0100988,0.123568,20.9731,-320.239,0.352424,0.0,0.0
4152,1037.75,42.7978,43.7618,144.19,99.2169,95.1754,0.0101296,0.122077,20.975,-320.259,0.373253,0.0,0.0
4164,1040.75,42.5575,43.5336,138.141,99.2036,95.3875,0.0102342,0.121857,20.9747,-320.299,0.352076,0.0,0.0
4176,1043.75,42.2445,43.4942,140.456,99.1948,95.0683,0.0104077,0.122644,20.9735,-320.299,0.38135,0.0,0.0
4188,1046.75,42.2543,43.394,143.405,99.1984,95.743,0.0103412,0.12229,20.9732,-320.379,0.318214,0.0,0.0
4200,1049.75,42.494,43.6914,144.783,99.1891,96.2927,0.0103118,0.122058,20.972,-320.419,0.265987,0.0,0.0
4212,1052.75,42.3667,43.4811,142.868,99.2157,95.7933,0.0102727,0.121592,20.9722,-320.449,0.315062,0.0,0.0
4224,1055.75,42.2564,43.5461,144.891,99.2685,95.1259,0.0103468,0.120533,20.9741,-320.469,0.382589,0.0,0.0
4236,1058.75,42.2593,43.5015,141.181,99.3338,96.2356,0.0105717,0.119404,20.9755,-320.499,0.284396,0.0,0.0
4248,1061.75,41.9738,43.0351,141.162,99.3818,95.0561,0.0103763,0.119275,20.9759,-320.579,0.399413,0.0,0.0
4260,1064.75,41.6503,43.2764,144.096,99.4386,95.0785,0.0102187,0.118776,20.976,-320.589,0.402427,0.0,0.0
4272,1067.75,41.8746,43.0563,140.271,99.495,96.2314,0.0104345,0.118597,20.9761,-320.639,0.299344,0.0,0.0
4284,1070.75,41.9602,42.8565,140.524,99.5515,95.861,0.0105683,0.119193,20.9763,-320.649,0.339037,0.0,0.0
4296,1073.75,41.8785,42.9279,145.148,99.5978,95.8479,0.0105891,0.118516,20.9785,-320.689,0.344444,0.0,0.0
4308,1076.75,41.5902,42.7336,143.236,99.6433,96.024,0.0109749,0.118242,20.9794,-320.729,0.332075,0.0,0.0
4320,1079.75,41.6133,42.5872,140.069,99.6736,95.8657,0.0111991,0.119586,20.9768,-320.769,0.349605,0.0,0.0
4332,1082.75,42.2997,43.0591,141.45,99.7187,96.2322,0.0111173,0.12039,20.9756,-320.819,0.31942,0.0,0.0
4344,1085.75,41.6536,42.6185,142.476,99.7687,95.9173,0.0109927,0.120555,20.9752,-320.829,0.353332,0.0,0.0
4356,1088.75,41.5051,42.479,137.942,99.8183,96.3338,0.0110357,0.120124,20.9751,-320.879,0.318906,0.0,0.0
4368,1091.75,41.6725,42.6597,140.419,99.8594,96.0007,0.0111111,0.119954,20.9751,-320.929,0.353688,0.0,0.0
4380,1094.75,41.4745,42.496,142.938,99.8618,95.517,0.010973,0.119346,20.9768,-320.969,0.399246,0.0,0.0
4392,1097.75,41.1186,42.3037,140.793,99.9101,95.8729,0.0109614,0.118914,20.9773,-320.999,0.370208,0.0,0.0
4404,1100.75,40.9674,42.2436,139.542,99.9242,96.0502,0.0112965,0.12169,20.9747,-321.049,0.354889,0.0,0.0
4416,1103.75,41.356,42.2707,144.253,99.9452,96.6237,0.0115061,0.125662,20.9705,-321.079,0.303345,0.0,0.0
4428,1106.75,41.325,42.3199,142.092,99.9573,95.7095,0.0116102,0.126981,20.9695,-321.099,0.389751,0.0,0.0
4440,1109.75,41.0291,42.0778,145.008,99.9843,96.1603,0.0115469,0.125276,20.9729,-321.129,0.350005,0.0,0.0
4452,1112.75,41.2447,42.3393,141.736,99.9895,96.5898,0.0114392,0.122685,20.9772,-321.149,0.310471,0.0,0.0
4464,1115.75,40.8713,42.0227,142.268,100.008,96.3092,0.011404,0.119905,20.9794,-321.209,0.338282,0.0,0.0
4476,1118.75,41.0547,41.8848,143.155,100.019,96.0629,0.0114308,0.118418,20.9803,-321.219,0.362243,0.0,0.0
4488,1121.75,41.2096,41.8076,144.358,100.021,95.9211,0.0114722,0.117582,20.9809,-321.269,0.37568,0.0,0.0
4500,1124.75,40.6992,42.1378,143.439,100.035,96.7583,0.0115889,0.117582,20.9809,-321.309,0.298955,0.0,0.0
4512,1127.75,40.8501,42.0223,143.206,100.049,96.3372,0.0116616,0.117481,20.9809,-321.36,0.339331,0.0,0.0
4524,1130.75,41.0031,41.7619,144.48,100.044,95.9398,0.0118374,0.117093,20.982,-321.39,0.375962,0.0,0.0
4536,1133.75,40.5363,41.6241,141.81,100.038,96.2538,0.0118601,0.117135,20.9829,-321.43,0.346127,0.0,0.0
4548,1136.75,40.201,41.7601,142.213,100.047,96.3164,0.0116605,0.116768,20.9827,-321.46,0.341047,0.0,0.0
4560,1139.75,40.7478,41.6271,143.154,100.033,96.3617,0.0114307,0.116381,20.9831,-321.51,0.335563,0.0,0.0
4572,1142.75,40.8453,41.7693,142.024,100.049,96.1641,0.0115075,0.116476,20.9836,-321.54,0.355473,0.0,0.0
4584,1145.75,40.8383,42.0061,140.767,100.032,96.0138,0.01138,0.117095,20.9825,-321.59,0.367952,0.0,0.0
4596,1148.75,40.7788,41.7326,144.112,100.032,96.3431,0.0111949,0.11744,20.9822,-321.58,0.337261,0.0,0.0
4608,1151.75,40.6429,41.6429,141.22,100.019,95.9076,0.0111002,0.117241,20.9821,-321.62,0.376694,0.0,0.0
4620,1154.75,40.7035,41.9057,141.719,100.02,96.3723,0.011227,0.116805,20.9821,-321.66,0.33342,0.0,0.0
4632,1157.75,40.6618,41.5487,141.286,100.012,96.3241,0.0114424,0.116524,20.9821,-321.72,0.337191,0.0,0.0
4644,1160.75,40.5015,41.442,143.087,100.005,96.1569,0.0116806,0.116111,20.9821,-321.72,0.352203,0.0,0.0
4656,1163.75,40.333,41.3778,140.364,99.9895,96.0612,0.01155,0.116094,20.9821,-321.76,0.359725,0.0,0.0
4668,1166.75,40.3156,41.3902,146.892,99.9839,96.0498,0.011193,0.115822,20.9818,-321.81,0.360285,0.0,0.0
4680,1169.75,40.3098,41.4722,144.953,99.9766,96.2398,0.0110582,0.11501,20.9833,-321.82,0.341895,0.0,0.0
4692,1172.75,40.2581,41.3536,145.057,99.9589,96.2707,0.0111311,0.114369,20.9839,-321.84,0.337422,0.0,0.0
4704,1175.75,39.9142,41.1897,140.758,99.9311,96.2779,0.0114884,0.11512,20.9827,-321.9,0.334255,0.0,0.0
4716,1178.75,40.1418,41.2881,141.891,99.896,96.5962,0.0114547,0.115655,20.982,-321.95,0.301484,0.0,0.0
4728,1181.75,40.1805,41.1659,144.234,99.8811,96.8129,0.0111893,0.115585,20.9818,-321.97,0.280033,0.0,0.0
4740,1184.75,39.9605,41.1961,142.696,99.8698,96.2441,0.0110732,0.115555,20.9818,-321.97,0.331907,0.0,0.0
4752,1187.75,40.1932,41.0671,142.13,99.8078,96.5822,0.0111971,0.115611,20.9815,-322.02,0.294849,0.0,0.0
4764,1190.75,39.8534,41.2648,144.435,99.763,96.0291,0.0112423,0.115584,20.9822,-322.08,0.342376,0.0,0.0
4776,1193.75,39.7159,41.0902,145.983,99.7026,96.1899,0.0112788,0.114595,20.9828,-322.11,0.321917,0.0,0.0
4788,1196.75,40.1118,41.3368,140.769,99.6812,95.8132,0.011286,0.114173,20.985,-322.14,0.355209,0.0,0.0
4800,1199.75,40.0731,41.0661,145.546,99.6159,96.3922,0.0111936,0.113625,20.9859,-322.18,0.295257,0.0,0.0
4812,1202.75,39.9515,40.97,143.522,99.5474,96.1569,0.0112714,0.112976,20.9862,-322.22,0.311019,0.0,0.0
4824,1205.75,39.9367,41.3137,143.377,99.4785,95.5343,0.0111634,0.11299,20.9861,-322.25,0.363102,0.0,0.0
4836,1208.75,40.2395,41.0553,141.442,99.4966,95.6604,0.0110844,0.113284,20.9856,-322.29,0.352897,0.0,0.0
4848,1211.75,39.451,40.8296,141.174,99.5196,95.6939,0.011031,0.113335,20.9863,-322.32,0.351832,0.0,0.0
4860,1214.75,39.4418,40.9043,143.383,99.551,95.8411,0.011189,0.112457,20.9888,-322.35,0.340864,0.0,0.0
4872,1217.75,39.6395,40.8993,141.467,99.5551,95.7095,0.01132,0.112994,20.9888,-322.38,0.353563,0.0,0.0
4884,1220.75,39.5267,40.9741,139.472,99.5688,95.7523,0.0113067,0.112894,20.9899,-322.43,0.35079,0.0,0.0
4896,1223.75,39.1856,40.4871,136.62,99.5914,95.8213,0.0111902,0.112401,20.9904,-322.47,0.346361,0.0,0.0
4908,1226.75,38.9678,40.4243,141.945,99.6147,96.3139,0.011096,0.112468,20.9897,-322.491,0.302441,0.0,0.0
4920,1229.75,38.8954,40.3535,139.373,99.6381,95.7675,0.011306,0.113028,20.988,-322.511,0.355608,0.0,0.0
4932,1232.75,39.277,40.3596,144.954,99.6437,95.8615,0.0113983,0.112886,20.9876,-322.541,0.347315,0.0,0.0
4944,1235.75,39.0684,40.6156,142.919,99.6804,96.7998,0.0112487,0.112137,20.9878,-322.581,0.263196,0.0,0.0
4956,1238.75,38.7139,39.6746,142.484,99.6953,96.5302,0.0111267,0.111177,20.9888,-322.601,0.28957,0.0,0.0
4968,1241.75,39.2787,39.785,143.621,99.7111,96.6681,0.0110089,0.110821,20.9891,-322.651,0.278166,0.0,0.0
4980,1244.75,39.2449,40.5508,144.615,99.7526,96.8895,0.0109364,0.110896,20.9876,-322.661,0.261374,0.0,0.0
4992,1247.75,38.6047,40.5053,140.169,99.7695,95.9711,0.0110545,0.111406,20.9861,-322.711,0.348376,0.0,0.0
5004,1250.75,39.0066,40.3396,147.146,99.8094,96.608,0.011,0.111658,20.9844,-322.761,0.292595,0.0,0.0
5016,1253.75,39.3369,40.0249,145.315,99.8477,96.3672,0.0108102,0.110873,20.9855,-322.751,0.318437,0.0,0.0
5028,1256.75,38.9023,40.3857,143.733,99.8839,96.2991,0.0108179,0.110408,20.9869,-322.811,0.328046,0.0,0.0
5040,1259.75,38.825,39.9408,142.864,99.915,96.5928,0.0110908,0.11079,20.9899,-322.801,0.3035,0.0,0.0
5052,1262.75,39.0765,40.2249,142.617,99.9448,96.1692,0.011042,0.111022,20.9907,-322.861,0.34563,0.0,0.0
5064,1265.75,38.7169,39.6407,142.847,99.9871,96.7562,0.0111046,0.110811,20.991,-322.891,0.294812,0.0,0.0
5076,1268.75,38.9826,40.0968,145.921,100.018,96.2652,0.0111216,0.110966,20.9918,-322.931,0.343253,0.0,0.0
5088,1271.75,38.8317,40.1143,143.316,100.054,96.366,0.010974,0.110718,20.9926,-322.961,0.337085,0.0,0.0
5100,1274.75,38.8135,40.111,137.942,100.098,96.2309,0.0110271,0.110203,20.9916,-322.981,0.353643,0.0,0.0
5112,1277.75,38.0157,39.5607,147.398,100.138,96.2758,0.0111934,0.110353,20.9912,-323.031,0.353037,0.0,0.0
5124,1280.75,38.0232,39.8139,140.823,100.165,96.5632,0.0113156,0.11131,20.9903,-323.061,0.328707,0.0,0.0
5136,1283.75,38.4899,39.822,142.216,100.194,96.4599,0.011109,0.110854,20.9905,-323.101,0.340874,0.0,0.0
5148,1286.75,38.8504,39.8798,142.628,100.22,96.2568,0.010824,0.110312,20.9914,-323.131,0.362106,0.0,0.0
5160,1289.75,38.7825,40.1246,145.542,100.227,96.8074,0.0107532,0.110255,20.9915,-323.141,0.311526,0.0,0.0
5172,1292.75,38.6528,40.0919,147.391,100.257,96.5886,0.010865,0.109762,20.9925,-323.201,0.334577,0.0,0.0
5184,1295.75,38.4945,40.2003,144.682,100.266,96.7147,0.0107526,0.109594,20.9926,-323.201,0.323695,0.0,0.0
5196,1298.75,38.7984,39.819,143.721,100.289,96.4696,0.0106326,0.109719,20.9916,-323.271,0.348448,0.0,0.0
5208,1301.75,38.5418,40.0004,140.73,100.29,96.0832,0.0106044,0.109235,20.9928,-323.281,0.384615,0.0,0.0
5220,1304.75,38.383,39.6283,143.88,100.296,96.947,0.0107872,0.109236,20.9953,-323.331,0.304792,0.0,0.0
5232,1307.75,39.0453,40.2026,139.794,100.291,96.9221,0.0109786,0.109035,20.9959,-323.331,0.306707,0.0,0.0
5244,1310.75,38.6641,39.579,142.987,100.291,97.2082,0.0110025,0.108954,20.9951,-323.361,0.280181,0.0,0.0
5256,1313.75,38.3368,39.9654,144.051,100.276,96.8573,0.0108557,0.109035,20.9946,-323.401,0.31137,0.0,0.0
5268,1316.75,38.1524,40.0753,140.415,100.266,96.3626,0.010687,0.110047,20.993,-323.431,0.35636,0.0,0.0
5280,1319.75,38.0834,39.6439,145.63,100.249,96.0168,0.0107028,0.109749,20.9941,-323.481,0.38718,0.0,0.0
5292,1322.75,38.3536,40.1817,141.425,100.229,96.7909,0.010748,0.109683,20.9949,-323.501,0.313274,0.0,0.0
5304,1325.75,38.4733,39.9364,139.817,100.207,96.3084,0.0108292,0.109589,20.9951,-323.521,0.356139,0.0,0.0
5316,1328.75,38.7781,39.8851,143.865,100.175,96.837,0.010822,0.109394,20.9934,-323.551,0.304159,0.0,0.0
5328,1331.75,37.919,39.8402,140.233,100.139,96.6631,,0.108932,,-323.582,0.317044,0.0,0.0
5340,1334.75,38.4567,39.3226,144.393,100.117,97.1879,,,,-323.632,0.266534,0.0,0.0
5352,1337.75,38.2761,39.3715,146.069,100.081,96.5628,,,,-323.622,0.32116,0.0,0.0
5364,1340.75,38.4607,39.7363,143.89,100.047,96.3291,,,,-323.662,0.339864,0.0,0.0
5365,1341,38.1828,39.548,143.914,100.044,96.4252,,,,-323.672,0.330664,0.0,0.0