File: 01_Data/Engineered_Wood_Furniture/Cone/Engineered_Wood_Furniture_Cone_HF25Scan_220330_R1.csv
Names,Time,Stack TC,Smoke TC,Exh Press,Smoke Comp,Smoke Meas,CO Meter,CO2 Meter,O2 Meter,Sample Mass,Ext Coeff,Start Test,Flame Verif
Chan Gain,,500,500,1,1,1,1,1,1,1,1,1.0,1.0
Offset,,0,0,0.138301,0,0,0,0,0,0,0,0.0,0.0
Gain,,1,1,25.011,13.2062,13.8682,1,1,1,1.0009,1.02317,1.0,1.0
Units,sec,C,C,Pa,%,%,%,%,%,g,/m,,
Baseline,,14.7268,15.4642,158.659,100.222,97.452,0.000944562,0.0723249,20.996,-835.964,0.251566,,
12,2.75,13.8578,14.1351,162.821,100.707,98.1134,0.00101912,0.0839022,20.9827,-230.908,0.234128,0.0,0.0
24,5.75,13.889,14.9494,157.658,100.786,98.2082,0.00125199,0.0811492,20.9862,-230.928,0.232497,0.0,0.0
36,8.75,13.9907,14.2542,158.289,100.777,98.2239,0.00122385,0.0800398,20.9872,-230.928,0.230313,0.0,0.0
48,11.75,13.8546,14.985,159.666,100.708,98.1134,0.0010774,0.0793863,20.9892,-230.958,0.234272,0.0,0.0
60,14.75,14.7504,15.0185,158.409,100.583,97.8955,0.00095371,0.0784644,20.9906,-230.978,0.243055,0.0,0.0
72,17.75,14.6589,14.796,157.138,100.42,97.9632,0.000862674,0.0777646,20.9908,-231.028,0.222272,0.0,0.0
84,20.75,14.549,15.14,155.13,100.247,97.7804,0.000789087,0.077278,20.9904,-231.078,0.223573,0.0,0.0
96,23.75,14.6095,15.0862,157.084,100.075,97.4731,0.000823186,0.0770637,20.9903,-231.098,0.2364,0.0,0.0
108,26.75,14.6528,15.1174,151.921,99.9589,97.2894,0.000810743,0.0773503,20.9903,-231.148,0.242949,0.0,0.0
120,29.75,14.8895,15.3921,154.91,100.168,97.719,0.000651033,0.0781107,20.9893,-231.168,0.222204,0.0,0.0
132,32.75,14.6186,15.3664,161.603,100.382,97.7558,0.000696877,0.0798499,20.9871,-231.178,0.237906,0.0,0.0
144,35.75,14.8108,15.4123,159.237,100.493,97.7118,0.000825277,0.0829507,20.9849,-231.208,0.251852,0.0,0.0
156,38.75,14.4709,15.4593,158.085,100.517,97.6149,0.000642672,0.0836447,20.985,-231.228,0.262953,0.0,0.0
168,41.75,15.1073,15.4453,161.525,100.399,97.3038,0.000707506,0.082088,20.9879,-231.248,0.281052,0.0,0.0
180,44.75,14.7883,15.6867,157.168,100.207,96.9932,0.000809548,0.0800278,20.9903,-231.268,0.292584,0.0,0.0
192,47.75,14.7678,15.1941,158.21,99.9307,96.5539,0.000736283,0.0785174,20.9925,-231.308,0.30853,0.0,0.0
204,50.75,14.787,15.457,159.711,99.6736,96.2631,0.000808215,0.0769218,20.9946,-231.328,0.312475,0.0,0.0
216,53.75,14.816,15.5271,154.679,99.7147,95.8805,0.000903448,0.0754076,20.9972,-231.348,0.351919,0.0,0.0
228,56.75,15.1905,15.6122,153.717,99.7852,96.0028,0.000945957,0.0738148,21.0002,-231.368,0.346823,0.0,0.0
240,59.75,15.2449,15.8798,157.501,99.8759,96.2525,0.000879437,0.0727132,21.0036,-231.378,0.331661,0.0,0.0
252,62.75,15.2677,15.6818,157.023,99.9251,96.1696,0.000895552,0.0720806,21.0045,-231.418,0.343818,0.0,0.0
264,65.75,15.1908,16.1802,160.372,99.9682,96.0824,0.000783057,0.0720003,21.0046,-231.438,0.355829,0.0,0.0
276,68.75,15.1609,15.4197,160.177,100.013,96.297,0.00061971,0.0720278,21.0045,-231.449,0.33986,0.0,0.0
288,71.75,15.1048,15.6848,164.379,100.028,96.6982,0.000494297,0.0724141,21.0036,-231.449,0.303881,0.0,0.0
300,74.75,14.9706,15.8414,159.195,99.9936,96.3753,0.000534611,0.072624,21.0029,-231.499,0.330794,0.0,0.0
312,77.75,15.3733,16.0354,155.491,99.9146,95.955,0.000610489,0.0726563,21.0027,-231.509,0.362923,0.0,0.0
324,80.75,15.7114,16.1101,158.989,99.7985,96.4823,0.000587915,0.0730315,21.0023,-231.549,0.303302,0.0,0.0
336,83.75,15.1462,16.157,159.879,99.6236,96.0942,0.000666842,0.0732711,21.0018,-231.579,0.323733,0.0,0.0
348,86.75,15.4626,16.1704,160.888,99.4422,95.3667,0.000650581,0.0739246,21.0017,-231.609,0.375589,0.0,0.0
360,89.75,15.6875,16.3982,157.116,99.2456,95.2685,0.000702356,0.0748342,21.0008,-231.639,0.367064,0.0,0.0
372,92.75,15.144,16.0558,160.183,99.0533,95.0091,0.000901712,0.0755936,20.9998,-231.659,0.374138,0.0,0.0
384,95.75,16.1948,16.1385,160.498,98.8828,94.403,0.00106671,0.0765204,20.9994,-231.709,0.416112,0.0,0.0
396,98.75,15.6726,16.5339,157.697,98.741,94.0772,0.00115457,0.0771602,20.998,-231.759,0.434264,0.0,0.0
408,101.75,15.6091,16.2072,157.445,98.6434,94.1834,0.00129519,0.0776538,20.9973,-231.819,0.415265,0.0,0.0
420,104.75,15.5581,16.5899,155.108,98.6136,93.5769,0.00144059,0.0781814,20.9979,-231.869,0.470533,0.0,0.0
432,107.75,15.6089,16.7623,155.4,98.6483,92.9256,0.00153942,0.0787522,20.9982,-231.929,0.536377,0.0,0.0
444,110.75,15.7282,16.5223,159.496,98.7265,92.8231,0.00163608,0.0789862,20.9983,-231.989,0.553385,0.0,0.0
456,113.75,15.8529,16.2195,156.049,98.8635,93.0602,0.00162685,0.0791435,20.9984,-232.049,0.542946,0.0,0.0
468,116.75,16.1802,16.5514,153.896,99.0662,92.6361,0.0020778,0.0828933,20.9909,-232.129,0.602324,0.0,0.0
480,119.75,16.1451,17.1384,149.323,99.2875,92.5523,0.0041861,0.145896,20.882,-232.419,0.63047,0.0,1.0
492,122.75,17.1227,17.6061,137.814,99.5192,92.1439,0.00722971,0.325162,20.6693,-232.93,0.691087,0.0,1.0
504,125.75,19.1735,19.8258,130.415,99.7538,92.6682,0.00824888,0.504247,20.4806,-233.54,0.661284,0.0,1.0
516,128.75,22.0683,23.1605,138.353,99.9911,93.8998,0.00709581,0.582936,20.3986,-234.051,0.56412,0.0,0.0
528,131.75,24.4495,25.8107,139.935,100.201,95.3045,0.00536844,0.537236,20.4565,-234.421,0.449642,0.0,0.0
540,134.75,26.2816,27.8814,145.62,100.391,96.1831,0.00445615,0.478292,20.5202,-234.771,0.384338,0.0,0.0
552,137.75,26.6803,29.4706,144.274,100.52,96.159,0.00393748,0.433691,20.5761,-235.122,0.398112,0.0,0.0
564,140.75,28.7925,30.3915,138.274,100.611,95.7624,0.00377203,0.402096,20.6145,-235.472,0.443295,0.0,0.0
576,143.75,29.4207,31.496,144.068,100.656,95.9867,0.00385095,0.392413,20.6266,-235.862,0.426322,0.0,0.0
588,146.75,30.5758,32.5619,143.281,100.65,96.5022,0.00384419,0.394162,20.6258,-236.213,0.377677,0.0,0.0
600,149.75,30.8596,32.5895,141.237,100.603,96.0951,0.00386719,0.402175,20.618,-236.613,0.411452,0.0,0.0
612,152.75,31.8583,33.8692,137.345,100.52,95.6977,0.00401785,0.410098,20.6079,-236.973,0.441238,0.0,0.0
624,155.75,33.5409,35.52,143.156,100.413,95.5792,0.00411262,0.422022,20.5928,-237.374,0.442817,0.0,0.0
636,158.75,34.1173,36.8853,135.858,100.285,95.4505,0.00417386,0.433374,20.5787,-237.794,0.443408,0.0,0.0
648,161.75,34.9265,37.691,138.775,100.162,95.4412,0.0042265,0.443214,20.5651,-238.215,0.433348,0.0,0.0
660,164.75,35.9545,38.56,143.078,100.031,95.084,0.00418124,0.452048,20.5529,-238.635,0.455221,0.0,0.0
672,167.75,37.0151,39.551,141.106,99.9291,95.0442,0.00407705,0.45672,20.5461,-239.065,0.449823,0.0,0.0
684,170.75,38.0195,40.8106,136.349,99.8509,95.2279,0.00405494,0.457395,20.5435,-239.486,0.42547,0.0,0.0
696,173.75,39.0027,41.6027,136.143,99.9823,95.2723,0.00400329,0.459065,20.5442,-239.896,0.433085,0.0,0.0
708,176.75,38.6968,42.1091,140.266,100.162,95.7768,0.00373831,0.457477,20.5455,-240.286,0.401843,0.0,0.0
720,179.75,40.5109,43.2709,137.807,100.29,95.6862,0.00352004,0.452059,20.5519,-240.717,0.421738,0.0,0.0
732,182.75,40.5217,43.9869,138.845,100.365,95.699,0.00368054,0.443434,20.5636,-241.117,0.427254,0.0,0.0
744,185.75,41.2984,44.487,136.652,100.401,96.1251,0.00366601,0.433852,20.5738,-241.498,0.390614,0.0,0.0
756,188.75,40.9432,44.5658,140.497,100.397,94.8631,0.00357924,0.425089,20.5823,-241.868,0.508908,0.0,0.0
768,191.75,41.9749,45.7827,141.202,100.36,95.8602,0.00366657,0.417189,20.5908,-242.258,0.411674,0.0,0.0
780,194.75,42.207,45.6143,141.321,100.297,95.2905,0.00375108,0.406447,20.6021,-242.639,0.459546,0.0,0.0
792,197.75,42.6807,45.608,142.703,100.194,95.2918,0.00359136,0.397258,20.6137,-242.989,0.450224,0.0,0.0
804,200.75,42.5363,46.4478,144.445,100.048,95.7612,0.00331045,0.387447,20.6269,-243.339,0.393048,0.0,0.0
816,203.75,42.2881,46.1604,145.198,99.8771,95.8166,0.00328354,0.375231,20.6426,-243.69,0.37251,0.0,0.0
828,206.75,42.1925,46.0413,144.451,99.6744,95.2563,0.00325802,0.364018,20.6548,-243.99,0.406918,0.0,0.0
840,209.75,42.5729,45.6131,139.577,99.603,95.7129,0.00317087,0.352912,20.6687,-244.34,0.357567,0.0,0.0
852,212.75,42.005,45.7432,146.7,99.6284,95.4971,0.00315085,0.343488,20.6793,-244.64,0.380118,0.0,0.0
864,215.75,42.1917,46.0315,144.845,99.6574,95.539,0.00321011,0.33443,20.6903,-244.961,0.378795,0.0,0.0
876,218.75,41.8427,45.8407,145.183,99.705,95.7193,0.00316977,0.324557,20.6992,-245.251,0.366155,0.0,0.0
888,221.75,41.8604,45.3114,150.354,99.7715,95.3405,0.00308573,0.317154,20.708,-245.541,0.407727,0.0,0.0
900,224.75,41.2408,45.1102,146.462,99.7993,95.5597,0.00295461,0.309825,20.7171,-245.831,0.389614,0.0,0.0
912,227.75,41.2818,44.945,141.381,99.8114,95.6477,0.00291886,0.303749,20.7248,-246.072,0.382437,0.0,0.0
924,230.75,41.2014,44.672,145.358,99.8408,95.5627,0.00289897,0.298593,20.731,-246.392,0.393067,0.0,0.0
936,233.75,41.0243,44.3279,147.028,99.861,95.3921,0.00295339,0.29432,20.736,-246.622,0.410913,0.0,0.0
948,236.75,40.3316,44.3759,143.216,99.8678,95.7857,0.00299726,0.291493,20.7393,-246.902,0.374572,0.0,0.0
960,239.75,40.2516,43.8629,145.119,99.8811,96.6279,0.00299124,0.288605,20.7418,-247.183,0.297196,0.0,0.0
972,242.75,39.9999,43.6624,145.321,99.8843,95.9876,0.00317437,0.285229,20.7453,-247.483,0.35716,0.0,0.0
984,245.75,39.7558,43.4458,146.304,99.8848,95.9842,0.00320788,0.283225,20.7466,-247.723,0.357513,0.0,0.0
996,248.75,39.2036,43.5961,152.938,99.8731,95.6388,0.00295532,0.280137,20.7502,-247.993,0.388813,0.0,0.0
1008,251.75,39.4338,43.0624,149.813,99.8328,95.7789,0.00295839,0.276458,20.7553,-248.224,0.372054,0.0,0.0
1020,254.75,38.615,42.5832,149.826,99.7755,95.613,0.00322443,0.2714,20.7601,-248.484,0.382468,0.0,0.0
1032,257.75,38.715,42.5478,143.351,99.7014,95.489,0.00335792,0.267779,20.7649,-248.734,0.387442,0.0,0.0
1044,260.75,38.886,41.739,143.714,99.6091,96.1433,0.00327664,0.265056,20.7671,-248.984,0.317841,0.0,0.0
1056,263.75,38.2426,42.1066,149.201,99.5031,95.7358,0.00322157,0.262815,20.7696,-249.255,0.346413,0.0,0.0
1068,266.75,38.6487,41.9408,145.618,99.4035,95.1191,0.00331596,0.260012,20.7737,-249.515,0.395427,0.0,0.0
1080,269.75,38.2856,41.3497,147.649,99.2689,95.1323,0.00325365,0.258552,20.7746,-249.725,0.382026,0.0,0.0
1092,272.75,38.0868,41.1902,147.672,99.1327,94.822,0.00322494,0.258131,20.7762,-249.965,0.399017,0.0,0.0
1104,275.75,37.6043,41.0139,149.874,99.009,95.6689,0.00305281,0.257249,20.7794,-250.225,0.308005,0.0,0.0
1116,278.75,36.7454,40.3717,145.393,98.8873,95.2596,0.00291361,0.254378,20.7836,-250.466,0.335442,0.0,0.0
1128,281.75,37.3828,41.0562,149.978,98.7906,94.9545,0.00289088,0.250356,20.7882,-250.696,0.355455,0.0,0.0
1140,284.75,36.7293,40.7025,144.287,98.7027,95.1153,0.00282033,0.247056,20.7915,-250.946,0.33228,0.0,0.0
1152,287.75,36.6725,39.9151,148.683,98.6326,95.0738,0.002695,0.244528,20.7945,-251.186,0.329817,0.0,0.0
1164,290.75,36.5634,39.921,148.985,98.5689,94.2905,0.00261627,0.243199,20.7962,-251.417,0.398281,0.0,0.0
1176,293.75,36.5884,39.7345,148.086,98.5096,94.125,0.00284617,0.241473,20.7978,-251.637,0.40865,0.0,0.0
1188,296.75,36.6362,39.2951,147.347,98.479,94.8546,0.00299344,0.240723,20.7983,-251.857,0.336553,0.0,0.0
1200,299.75,36.4448,38.6736,151.672,98.4673,94.4064,0.00319013,0.240595,20.7985,-252.117,0.377997,0.0,0.0
1212,302.75,36.3145,38.7344,144.777,98.4641,95.3853,0.0031663,0.239828,20.7985,-252.327,0.285117,0.0,0.0
1224,305.75,36.5688,39.3917,147.444,98.4976,94.2299,0.00298543,0.239787,20.7985,-252.578,0.397545,0.0,0.0
1236,308.75,35.2537,38.8342,143.762,98.5508,94.3827,0.00302205,0.239664,20.7985,-252.798,0.387851,0.0,0.0
1248,311.75,35.5422,38.0651,148.36,98.6132,94.5914,0.0032965,0.239049,20.7987,-253.028,0.373719,0.0,0.0
1260,314.75,35.8741,38.9894,146.083,98.7063,94.9663,0.00327926,0.237826,20.8011,-253.268,0.34668,0.0,0.0
1272,317.75,35.3973,37.2422,151.842,98.8123,95.6236,0.00326373,0.235637,20.804,-253.478,0.294409,0.0,0.0
1284,320.75,35.666,37.7934,148.344,98.9437,95.3705,0.00325012,0.234944,20.8041,-253.709,0.33012,0.0,0.0
1296,323.75,35.4144,38.1448,147.117,99.0848,95.2905,0.00329865,0.235262,20.8028,-253.949,0.350437,0.0,0.0
1308,326.75,35.2518,37.9185,152.076,99.2194,96.1802,0.00312403,0.233984,20.8043,-254.159,0.27922,0.0,0.0
1320,329.75,34.8032,37.7291,147.863,99.3576,95.4086,0.00308612,0.231912,20.8075,-254.389,0.364003,0.0,0.0
1332,332.75,34.7586,37.616,147.972,99.4866,96.0185,0.00338551,0.22996,20.8095,-254.579,0.318457,0.0,0.0
1344,335.75,34.6442,37.478,148.803,99.6175,96.2982,0.00337242,0.226292,20.8149,-254.82,0.304155,0.0,0.0
1356,338.75,34.3824,37.742,147.588,99.7344,96.4502,0.00306529,0.224418,20.8186,-255.04,0.300529,0.0,0.0
1368,341.75,35.0287,37.4423,143.558,99.8416,96.1239,0.00304758,0.222468,20.8212,-255.27,0.340588,0.0,0.0
1380,344.75,34.3861,37.4518,151.304,99.9601,96.1708,0.00318069,0.220918,20.8224,-255.49,0.346848,0.0,0.0
1392,347.75,33.9041,36.6711,143.752,100.067,96.2496,0.00325182,0.218883,20.8237,-255.69,0.349051,0.0,0.0
1404,350.75,33.5803,35.7958,150.839,100.183,96.7299,0.00336325,0.217851,20.8254,-255.871,0.314775,0.0,0.0
1416,353.75,33.761,36.3058,144.597,100.279,96.6241,0.00338044,0.216224,20.8272,-256.091,0.333223,0.0,0.0
1428,356.75,34.0433,37.3681,146.56,100.359,96.7701,0.00351537,0.215143,20.8292,-256.311,0.326845,0.0,0.0
1440,359.75,34.0949,36.6747,149.777,100.422,96.6461,0.00362098,0.2129,20.8317,-256.521,0.344011,0.0,0.0
1452,362.75,33.1552,35.3651,148.266,100.486,97.253,0.00356475,0.21076,20.8355,-256.741,0.293552,0.0,0.0
1464,365.75,32.9873,35.776,149.69,100.499,96.9826,0.00363013,0.209301,20.8373,-256.951,0.319624,0.0,0.0
1476,368.75,33.4242,36.2551,145.621,100.52,97.5163,0.00363781,0.208345,20.8388,-257.132,0.272241,0.0,0.0
1488,371.75,33.5748,35.9886,146.36,100.528,97.0076,0.00363368,0.206973,20.84,-257.342,0.319977,0.0,0.0
1500,374.75,33.2746,36.2016,149.557,100.505,97.6978,0.00368854,0.205271,20.8414,-257.562,0.25425,0.0,0.0
1512,377.75,33.0476,35.2533,146.852,100.48,97.0947,0.0038946,0.203759,20.8427,-257.722,0.307595,0.0,0.0
1524,380.75,32.934,34.8618,151.862,100.433,97.1172,0.00387878,0.201886,20.8451,-257.932,0.301308,0.0,0.0
1536,383.75,33.0592,35.2425,149.574,100.385,96.6563,0.00364258,0.200724,20.8475,-258.123,0.339753,0.0,0.0
1548,386.75,32.7151,35.0919,147.924,100.306,96.6106,0.00361482,0.198984,20.8512,-258.323,0.336897,0.0,0.0
1560,389.75,32.5525,34.994,150.974,100.243,97.0723,0.00370898,0.196227,20.8536,-258.503,0.288511,0.0,0.0
1572,392.75,32.4895,34.8041,152.43,100.157,96.7155,0.00410925,0.193961,20.8566,-258.703,0.313799,0.0,0.0
1584,395.75,32.4662,34.6941,145.444,100.071,96.7638,0.00448216,0.192096,20.8581,-258.863,0.301591,0.0,0.0
1596,398.75,32.433,34.067,149.51,99.9815,96.2961,0.00445951,0.191335,20.8592,-259.063,0.337081,0.0,0.0
1608,401.75,32.0243,34.6435,151.009,99.9049,96.4646,0.00432093,0.190513,20.8609,-259.254,0.314519,0.0,0.0
1620,404.75,32.2226,34.0964,151.276,99.8312,96.2538,0.00435162,0.189151,20.8612,-259.434,0.327522,0.0,0.0
1632,407.75,31.716,33.9289,147.474,99.7683,95.8225,0.00445025,0.18726,20.862,-259.614,0.362171,0.0,0.0
1644,410.75,31.777,33.912,152.43,99.7252,97.1836,0.00450053,0.185825,20.8627,-259.794,0.231703,0.0,0.0
1656,413.75,31.6035,33.7868,152.656,99.7191,95.8788,0.00438792,0.185421,20.8624,-259.984,0.352475,0.0,0.0
1668,416.75,31.6528,33.7566,146.139,99.8549,96.4497,0.00441077,0.185021,20.8633,-260.154,0.311406,0.0,0.0
1680,419.75,30.7388,32.6112,150.301,99.9867,96.0096,0.00465577,0.184663,20.8643,-260.345,0.364296,0.0,0.0
1692,422.75,31.2805,33.2083,153.862,100.079,96.8023,0.00452576,0.182757,20.866,-260.495,0.298742,0.0,0.0
1704,425.75,30.7122,33.4379,151.049,100.158,97.2429,0.00438593,0.180833,20.8693,-260.695,0.265139,0.0,0.0
1716,428.75,31.1774,32.9601,148.582,100.218,96.3672,0.00439823,0.180724,20.8709,-260.855,0.351668,0.0,0.0
1728,431.75,31.3568,33.1138,151.046,100.272,96.9822,0.0045646,0.180613,20.8714,-261.045,0.299376,0.0,0.0
1740,434.75,30.82,32.3126,151.148,100.291,96.8099,0.00448606,0.179669,20.8715,-261.185,0.317063,0.0,0.0
1752,437.75,30.6988,32.3818,152.642,100.288,97.1481,0.00432512,0.178701,20.873,-261.385,0.285516,0.0,0.0
1764,440.75,30.4506,32.6317,152.022,100.281,97.088,0.00449123,0.178184,20.8736,-261.556,0.29042,0.0,0.0
1776,443.75,30.1209,32.1288,149.38,100.251,96.8387,0.00495027,0.177405,20.8738,-261.696,0.310787,0.0,0.0
1788,446.75,30.442,32.121,148.26,100.195,97.4769,0.00527266,0.177473,20.8749,-261.906,0.246886,0.0,0.0
1800,449.75,29.8529,31.6498,152.947,100.142,96.2132,0.00521891,0.177183,20.8763,-262.086,0.35924,0.0,0.0
1812,452.75,30.1083,31.4789,151.808,100.065,96.8408,0.00505425,0.176209,20.8777,-262.216,0.293943,0.0,0.0
1824,455.75,30.0827,31.8913,150.2,99.9488,96.6732,0.0049039,0.175951,20.8778,-262.376,0.299072,0.0,0.0
1836,458.75,29.3675,30.8043,150.028,99.8263,96.5035,0.00465403,0.176551,20.8771,-262.617,0.303834,0.0,0.0
1848,461.75,30.252,31.6179,148.001,99.6792,95.9491,0.00444395,0.176291,20.8769,-262.727,0.342311,0.0,0.0
1860,464.75,29.7156,31.5697,149.717,99.4999,96.5886,0.00462377,0.176088,20.8768,-262.887,0.266528,0.0,0.0
1872,467.75,29.844,31.4715,152.274,99.4874,96.1818,0.00485478,0.176513,20.8752,-263.047,0.303273,0.0,0.0
1884,470.75,29.6635,31.0692,153.571,99.5164,95.9431,0.00486893,0.177292,20.8747,-263.247,0.328192,0.0,0.0
1896,473.75,29.7645,31.5406,150.912,99.5438,96.0003,0.00486868,0.177635,20.8743,-263.427,0.32532,0.0,0.0
1908,476.75,29.9766,31.2108,156.257,99.5704,96.0375,0.00481843,0.178484,20.8742,-263.577,0.324237,0.0,0.0
1920,479.75,29.8964,31.1546,153.391,99.6067,96.2157,0.00472347,0.178849,20.8742,-263.788,0.310869,0.0,0.0
1932,482.75,29.7829,31.4,150.932,99.6284,95.5445,0.00479006,0.178844,20.8726,-263.938,0.375664,0.0,0.0
1944,485.75,30.0231,31.0081,154.896,99.6748,96.2085,0.00492545,0.178481,20.8721,-264.118,0.317676,0.0,0.0
1956,488.75,29.5089,31.2239,153.716,99.6929,96.2737,0.00488034,0.178861,20.8719,-264.248,0.31323,0.0,0.0
1968,491.75,29.3299,30.7931,151.608,99.7163,97.0308,0.00481514,0.179383,20.8719,-264.468,0.245025,0.0,0.0
1980,494.75,29.3687,31.1064,149.966,99.7389,96.5107,0.00480829,0.179814,20.8708,-264.608,0.295298,0.0,0.0
1992,497.75,29.033,30.4267,152.092,99.755,96.2022,0.00488129,0.180008,20.8714,-264.749,0.325487,0.0,0.0
2004,500.75,29.7125,31.3057,151.502,99.7667,95.9834,0.00475732,0.179898,20.8717,-264.949,0.346976,0.0,0.0
2016,503.75,29.5312,31.0466,149.987,99.7663,96.5805,0.00471536,0.180804,20.8709,-265.109,0.291272,0.0,0.0
2028,506.75,29.4528,31.2294,152.279,99.7796,96.3351,0.00458442,0.181451,20.8697,-265.299,0.315309,0.0,0.0
2040,509.75,29.47,30.7769,150.474,99.7699,96.2838,0.00434485,0.182343,20.8687,-265.469,0.319211,0.0,0.0
2052,512.75,29.5838,30.8184,150.918,99.7574,96.9521,0.00443163,0.182816,20.8673,-265.629,0.256009,0.0,0.0
2064,515.75,29.5889,31.1027,149.262,99.7381,96.1226,0.00443353,0.184037,20.8663,-265.819,0.33139,0.0,0.0
2076,518.75,29.1719,30.4986,148.999,99.7457,96.0824,0.0044527,0.184461,20.8673,-265.95,0.335835,0.0,0.0
2088,521.75,29.616,30.8476,152.734,99.7336,96.1023,0.00451878,0.184927,20.8663,-266.17,0.332889,0.0,0.0
2100,524.75,29.5823,31.0901,150.618,99.736,96.6135,0.00453441,0.18573,20.8653,-266.31,0.285486,0.0,0.0
2112,527.75,29.7756,30.971,146.844,99.7151,96.5725,0.00432857,0.186752,20.8629,-266.51,0.287414,0.0,0.0
2124,530.75,29.9424,31.1766,149.243,99.6921,96.1167,0.00399288,0.187815,20.8609,-266.69,0.327808,0.0,0.0
2136,533.75,29.5804,31.0161,147.78,99.6695,96.6931,0.00403725,0.188305,20.8606,-266.86,0.272111,0.0,0.0
2148,536.75,29.8156,31.4655,149.569,99.6353,96.6588,0.00426864,0.188424,20.8609,-267.011,0.272208,0.0,0.0
2160,539.75,30.0138,31.1384,151.555,99.5881,96.385,0.00426955,0.188803,20.8607,-267.191,0.293421,0.0,0.0
2172,542.75,29.6385,31.6653,152.635,99.5386,96.2479,0.00410466,0.189642,20.8587,-267.361,0.30173,0.0,0.0
2184,545.75,29.1417,31.45,150.444,99.4882,96.4993,0.00399651,0.190261,20.8579,-267.531,0.273775,0.0,0.0
2196,548.75,30.0051,31.1958,147.19,99.4338,96.4705,0.00406648,0.19077,20.8569,-267.701,0.271541,0.0,0.0
2208,551.75,29.7268,31.1894,154.293,99.3826,95.8424,0.00420795,0.191135,20.8558,-267.891,0.325544,0.0,0.0
2220,554.75,30.0293,31.2244,150.968,99.3443,95.9114,0.0042585,0.191745,20.8555,-268.051,0.315628,0.0,0.0
2232,557.75,30.088,31.352,152.833,99.2621,95.8924,0.00406151,0.192177,20.8544,-268.272,0.309979,0.0,0.0
2244,560.75,29.7723,30.2303,148.441,99.1932,95.5618,0.0038554,0.192579,20.8534,-268.422,0.334737,0.0,0.0
2256,563.75,30.0857,31.2072,148.011,99.1226,96.1653,0.00367678,0.193385,20.8545,-268.582,0.271848,0.0,0.0
2268,566.75,30,31.2596,150.758,99.0598,95.5157,0.00365658,0.193875,20.8551,-268.802,0.326992,0.0,0.0
2280,569.75,29.9319,31.4617,145.294,98.9921,95.4911,0.00366308,0.193764,20.8553,-268.942,0.323162,0.0,0.0
2292,572.75,29.9693,31.3536,149.194,98.936,95.409,0.00370826,0.194192,20.8553,-269.152,0.325802,0.0,0.0
2304,575.75,30.0151,31.5238,147.805,98.8736,95.3879,0.00365299,0.194234,20.8545,-269.283,0.322124,0.0,0.0
2316,578.75,30.1192,31.6847,149.604,98.822,96.2627,0.00360575,0.19479,20.8528,-269.493,0.235504,0.0,0.0
2328,581.75,30.4941,31.7367,147.814,98.7764,95.503,0.0037209,0.195226,20.8524,-269.623,0.302478,0.0,0.0
2340,584.75,30.0557,31.6258,150.52,98.722,95.8183,0.00381839,0.195185,20.8522,-269.843,0.267951,0.0,0.0
2352,587.75,29.6355,31.3674,154.122,98.6725,94.8965,0.00379565,0.195754,20.8524,-269.993,0.350203,0.0,0.0
2364,590.75,30.3055,31.6953,149.582,98.6201,95.4315,0.00375171,0.196083,20.8527,-270.143,0.294982,0.0,0.0
2376,593.75,30.3918,31.855,144.463,98.5705,95.2444,0.00377624,0.196254,20.8528,-270.344,0.30808,0.0,0.0
2388,596.75,30.456,31.6851,146.06,98.5362,95.2474,0.00366866,0.19696,20.8517,-270.544,0.304682,0.0,0.0
2400,599.75,29.9166,31.6375,150.52,98.4955,95.4459,0.00353734,0.197912,20.8503,-270.724,0.282289,0.0,0.0
2412,602.75,30.5199,31.6604,148.427,98.4657,95.3125,0.00330642,0.198223,20.8487,-270.904,0.292115,0.0,0.0
2424,605.75,30.5413,32.0012,148.817,98.4347,94.9431,0.00326092,0.199115,20.8478,-271.044,0.324146,0.0,0.0
2436,608.75,30.512,31.8821,150.152,98.4049,96.0964,0.00319373,0.199272,20.8481,-271.234,0.213061,0.0,0.0
2448,611.75,30.4052,32.2342,146.185,98.3783,94.8842,0.00317228,0.200258,20.8477,-271.395,0.324563,0.0,0.0
2460,614.75,30.8516,32.0083,147.766,98.3738,95.1818,0.00318707,0.200923,20.8469,-271.625,0.296059,0.0,0.0
2472,617.75,30.9115,32.1266,148.005,98.3412,94.8804,0.00316397,0.200907,20.8467,-271.775,0.32154,0.0,0.0
2484,620.75,30.8481,31.8803,150.935,98.3263,94.7103,0.00331833,0.201425,20.8457,-271.925,0.336287,0.0,0.0
2496,623.75,30.771,32.2996,149.794,98.3118,95.4467,0.00327863,0.202204,20.8447,-272.135,0.265447,0.0,0.0
2508,626.75,30.2293,31.5105,144.848,98.2989,95.2478,0.00326781,0.202615,20.8444,-272.315,0.282994,0.0,0.0
2520,629.75,31.1188,32.0578,149.209,98.2924,95.6109,0.00326908,0.20253,20.8443,-272.485,0.248253,0.0,0.0
2532,632.75,30.7535,32.456,148.504,98.2823,95.0176,0.00303256,0.203156,20.8433,-272.616,0.303207,0.0,0.0
2544,635.75,30.9423,32.7074,153.994,98.2848,95.3307,0.00297934,0.202934,20.8436,-272.846,0.273893,0.0,0.0
2556,638.75,31.3925,32.0809,150.772,98.2739,95.9558,0.00306499,0.20187,20.8447,-273.046,0.214239,0.0,0.0
2568,641.75,30.8783,32.3198,147.95,98.2747,95.2965,0.00308031,0.202901,20.8433,-273.186,0.276201,0.0,0.0
2580,644.75,30.6964,32.4784,153.557,98.2775,94.8931,0.00310247,0.203594,20.8423,-273.376,0.314526,0.0,0.0
2592,647.75,31.063,32.744,145.422,98.2835,94.9884,0.00308757,0.202792,20.842,-273.526,0.306075,0.0,0.0
2604,650.75,31.0349,32.8268,147.679,98.2969,95.3422,0.0031022,0.203397,20.8423,-273.717,0.273921,0.0,0.0
2616,653.75,31.1107,32.3751,149.953,98.2977,94.6735,0.00281817,0.204603,20.8419,-273.897,0.337165,0.0,0.0
2628,656.75,30.9643,32.5211,144.141,98.313,94.8466,0.00276647,0.205137,20.8423,-274.097,0.322168,0.0,0.0
2640,659.75,30.8877,32.7009,143.565,98.3194,95.2207,0.00302945,0.205722,20.8424,-274.307,0.287423,0.0,0.0
2652,662.75,30.6279,31.9326,147.332,98.3239,94.7154,0.0027869,0.20557,20.8424,-274.477,0.335585,0.0,0.0
2664,665.75,31.0923,32.8362,148.998,98.3432,94.935,0.00255657,0.205292,20.8422,-274.667,0.316561,0.0,0.0
2676,668.75,31.4154,32.4726,149.666,98.3412,94.9685,0.00267818,0.206083,20.8407,-274.818,0.313216,0.0,0.0
2688,671.75,31.1697,33.1157,149.971,98.3492,95.299,0.0029304,0.206724,20.8403,-274.978,0.282769,0.0,0.0
2700,674.75,31.0701,32.6124,150.825,98.3625,94.7433,0.00283329,0.20688,20.8402,-275.148,0.33647,0.0,0.0
2712,677.75,31.4803,32.8925,152.612,98.3847,95.2275,0.00262999,0.207309,20.8401,-275.338,0.292743,0.0,0.0
2724,680.75,31.3219,32.9067,147.964,98.4032,94.8114,0.00254885,0.207599,20.8401,-275.508,0.33373,0.0,0.0
2736,683.75,31.2527,33.0427,155.801,98.4359,95.1212,0.00251608,0.207906,20.8396,-275.718,0.307429,0.0,0.0
2748,686.75,31.5565,33.4299,149.243,98.4472,95.58,0.00255317,0.208625,20.8394,-275.879,0.265273,0.0,0.0
2760,689.75,31.2844,32.9966,151.232,98.477,95.8276,0.00251473,0.209216,20.8382,-276.069,0.244774,0.0,0.0
2772,692.75,31.5523,33.1352,151.923,98.4911,95.3786,0.00248127,0.210465,20.8375,-276.239,0.288214,0.0,0.0
2784,695.75,31.6168,33.0183,149.31,98.5121,95.481,0.00234695,0.211003,20.8371,-276.459,0.280492,0.0,0.0
2796,698.75,31.5043,33.0243,148.571,98.5366,95.2275,0.00199287,0.212508,20.836,-276.639,0.306592,0.0,0.0
2808,701.75,31.4648,33.0508,149.003,98.5757,95.737,0.00200485,0.212716,20.8356,-276.809,0.262255,0.0,0.0
2820,704.75,31.5413,33.2065,148.899,98.6035,95.9592,0.00219572,0.214268,20.8343,-276.99,0.24398,0.0,0.0
2832,707.75,31.4449,33.3035,149.985,98.641,96.4383,0.00221549,0.215721,20.8324,-277.17,0.202693,0.0,0.0
2844,710.75,31.7813,32.9849,151.793,98.664,95.1505,0.00218629,0.216386,20.8313,-277.37,0.325448,0.0,0.0
2856,713.75,31.8704,33.5097,147.695,98.7047,95.1695,0.00225293,0.217943,20.8298,-277.55,0.327354,0.0,0.0
2868,716.75,31.9462,33.6558,147.807,98.749,95.2685,0.00213889,0.218496,20.8294,-277.74,0.322049,0.0,0.0
2880,719.75,31.8459,33.2396,147.233,98.7595,95.0861,0.002004,0.218941,20.8293,-277.91,0.340204,0.0,0.0
2892,722.75,32.0247,33.4047,150.313,98.8123,96.3363,0.00211609,0.219564,20.8278,-278.111,0.227762,0.0,0.0
2904,725.75,31.8163,33.4429,146.968,98.8353,95.8505,0.00215814,0.220999,20.8269,-278.301,0.275228,0.0,0.0
2916,728.75,31.7427,33.6134,145.812,98.8615,95.5881,0.00197897,0.221741,20.8253,-278.491,0.30221,0.0,0.0
2928,731.75,32.0652,33.8374,143.729,98.8873,94.6777,0.00186373,0.223279,20.8234,-278.681,0.390439,0.0,0.0
2940,734.75,32.1055,33.9451,149.39,98.9155,95.8335,0.00191674,0.224567,20.8223,-278.881,0.284093,0.0,0.0
2952,737.75,32.7988,33.9803,146.995,98.9663,95.1555,0.00197593,0.225765,20.8191,-279.051,0.352423,0.0,0.0
2964,740.75,32.5317,34.2612,152.482,98.9997,95.8386,0.00193559,0.227381,20.816,-279.282,0.291257,0.0,0.0
2976,743.75,32.6915,34.1186,148.965,99.0388,95.6736,0.00192989,0.228602,20.815,-279.482,0.310272,0.0,0.0
2988,746.75,32.9745,34.4326,147.48,99.0831,96.4663,0.00207727,0.229754,20.8149,-279.682,0.240231,0.0,0.0
3000,749.75,32.5593,34.2604,146.961,99.1601,95.947,0.00206906,0.231903,20.8121,-279.892,0.295646,0.0,0.0
3012,752.75,32.6091,34.2772,146.413,99.2065,96.2745,0.0018868,0.233099,20.8097,-280.102,0.26925,0.0,0.0
3024,755.75,32.9694,34.5622,148.533,99.2444,95.6714,0.00169581,0.234906,20.8081,-280.313,0.329077,0.0,0.0
3036,758.75,32.9174,34.624,144.354,99.2818,95.9571,0.00182615,0.238214,20.8043,-280.493,0.305706,0.0,0.0
3048,761.75,33.0827,34.8398,146.221,99.3443,96.0456,0.0020472,0.240174,20.8013,-280.683,0.303082,0.0,0.0
3060,764.75,32.8101,34.7068,146.679,99.3806,96.1565,0.00209863,0.241326,20.7998,-280.893,0.296002,0.0,0.0
3072,767.75,32.968,34.6243,146.062,99.4156,95.9542,0.0021172,0.244144,20.7961,-281.123,0.318071,0.0,0.0
3084,770.75,33.7613,35.5606,148.787,99.4588,96.1713,0.00207036,0.24568,20.7953,-281.343,0.301679,0.0,0.0
3096,773.75,33.5517,35.5218,146.693,99.4894,95.8048,0.0018749,0.247586,20.7932,-281.554,0.338712,0.0,0.0
3108,776.75,34.0359,35.1353,146.478,99.5539,95.5902,0.00173295,0.249094,20.7922,-281.774,0.364652,0.0,0.0
3120,779.75,33.6779,35.5357,150.345,99.5905,95.9114,0.0018225,0.252665,20.7876,-281.964,0.337847,0.0,0.0
3132,782.75,34.0019,35.8098,146.95,99.6429,95.9774,0.001771,0.255049,20.7841,-282.184,0.336391,0.0,0.0
3144,785.75,34.4105,36.2596,149.068,99.6889,96.2982,0.00194149,0.256929,20.7816,-282.424,0.31058,0.0,0.0
3156,788.75,34.2223,36.124,149.638,99.7276,95.7057,0.0020147,0.25999,20.7788,-282.685,0.369457,0.0,0.0
3168,791.75,34.9277,37.6161,143.665,99.757,96.4125,0.00194502,0.263066,20.7752,-282.905,0.306066,0.0,0.0
3180,794.75,35.1115,36.1965,147.808,99.7908,96.3778,0.0017957,0.266235,20.7712,-283.125,0.312343,0.0,0.0
3192,797.75,35.2101,36.9833,146.277,99.809,95.754,0.0018084,0.268701,20.7676,-283.365,0.372256,0.0,0.0
3204,800.75,35.2139,37.1796,142.888,99.8336,96.305,0.00177089,0.273044,20.7622,-283.615,0.322965,0.0,0.0
3216,803.75,34.8451,36.6866,145.828,99.8602,96.7193,0.00163651,0.276559,20.7574,-283.856,0.286824,0.0,0.0
3228,806.75,35.4675,37.5027,141.767,99.8924,95.9059,0.00163358,0.279059,20.7542,-284.096,0.365526,0.0,0.0
3240,809.75,35.7804,37.7272,142.501,99.9214,96.9326,0.00179442,0.282663,20.75,-284.356,0.272557,0.0,0.0
3252,812.75,36.1315,37.9926,142.259,99.9363,95.7028,0.00181639,0.285855,20.7461,-284.606,0.388503,0.0,0.0
3264,815.75,36.2711,38.3066,147.376,99.9799,96.1912,0.00190576,0.289125,20.7431,-284.877,0.346725,0.0,0.0
3276,818.75,35.6098,39.2311,142.001,100.013,96.0773,0.00174518,0.292624,20.7382,-285.107,0.360356,0.0,0.0
3288,821.75,37.9867,37.8554,144.984,100.055,96.5983,0.00169713,0.296453,20.7336,-285.397,0.315579,0.0,0.0
3300,824.75,37.1978,39.0468,147.817,100.095,96.5132,0.00201351,0.300604,20.7272,-285.647,0.327065,0.0,0.0
3312,827.75,37.0065,39.5367,147.055,100.119,96.2373,0.00232383,0.304444,20.7226,-285.928,0.354859,0.0,0.0
3324,830.75,37.7445,39.6046,142.213,100.158,96.0587,0.00240078,0.30717,20.7202,-286.208,0.375071,0.0,0.0
3336,833.75,37.9398,40.7298,143.251,100.202,95.539,0.0023695,0.310792,20.715,-286.468,0.427697,0.0,0.0
3348,836.75,37.5983,39.6677,145.931,100.23,95.8009,0.0021499,0.313925,20.7111,-286.748,0.405647,0.0,0.0
3360,839.75,38.3085,41.8409,144.412,100.249,96.2606,0.00208902,0.317177,20.7091,-287.029,0.364349,0.0,0.0
3372,842.75,38.8748,39.974,141.704,100.29,95.5466,0.00214102,0.320853,20.706,-287.329,0.434884,0.0,0.0
3384,845.75,39.103,40.9802,140.827,100.306,95.8433,0.00226148,0.324218,20.7028,-287.619,0.408429,0.0,0.0
3396,848.75,38.7675,41.6433,143.962,100.319,95.5995,0.00231042,0.32693,20.6988,-287.919,0.432476,0.0,0.0
3408,851.75,39.5349,41.6434,140.782,100.338,95.8615,0.00234519,0.331057,20.6937,-288.22,0.409609,0.0,0.0
3420,854.75,39.5766,42.0016,141.946,100.346,95.7434,0.00232773,0.333812,20.6902,-288.51,0.421393,0.0,0.0
3432,857.75,40.069,42.3148,142.244,100.347,95.3418,0.00226197,0.336677,20.6866,-288.81,0.459266,0.0,0.0
3444,860.75,40.2049,42.3895,141.798,100.358,95.5051,0.0022594,0.339606,20.6827,-289.13,0.444873,0.0,0.0
3456,863.75,40.1892,42.5804,147.429,100.37,95.7281,0.00245087,0.342593,20.6817,-289.441,0.425019,0.0,0.0
3468,866.75,40.4768,43.2565,141.37,100.358,94.8588,0.00258785,0.346916,20.6768,-289.741,0.505778,0.0,0.0
3480,869.75,40.3135,43.1339,143.194,100.358,94.9922,0.00265139,0.350995,20.6716,-290.061,0.493209,0.0,0.0
3492,872.75,41.9043,44.5191,138.345,100.35,95.0082,0.00276971,0.354776,20.6671,-290.392,0.490933,0.0,0.0
3504,875.75,41.2982,43.1059,141.559,100.344,94.9951,0.00301682,0.35841,20.6622,-290.732,0.491632,0.0,0.0
3516,878.75,42.3727,45.2548,140.934,100.338,94.7742,0.00324151,0.361712,20.6578,-291.032,0.512023,0.0,0.0
3528,881.75,41.9941,44.7259,145.443,100.32,94.866,0.00333682,0.363683,20.6557,-291.352,0.501745,0.0,0.0
3540,884.75,42.2515,44.9233,149.532,100.321,94.5419,0.0031819,0.366136,20.6539,-291.703,0.53254,0.0,0.0
3552,887.75,42.9019,45.4509,136.787,100.328,94.5469,0.0031434,0.369773,20.6495,-292.033,0.532635,0.0,0.0
3564,890.75,43.1674,44.7731,139.787,100.31,94.5325,0.00339338,0.371648,20.6468,-292.363,0.532451,0.0,0.0
3576,893.75,43.1669,46.1006,140.855,100.313,94.8639,0.00355837,0.373259,20.644,-292.704,0.501296,0.0,0.0
3588,896.75,41.8879,46.9925,140.705,100.286,94.9071,0.00338545,0.376507,20.6388,-293.054,0.494796,0.0,0.0
3600,899.75,43.787,46.4869,146.121,100.291,94.0717,0.00333339,0.380645,20.6335,-293.394,0.574585,0.0,0.0
3612,902.75,43.972,47.3585,140.718,100.276,93.968,0.0032983,0.383061,20.6296,-293.735,0.583113,0.0,0.0
3624,905.75,44.2959,47.692,141.354,100.264,93.8863,0.00340823,0.384803,20.6274,-294.085,0.589836,0.0,0.0
3636,908.75,43.3309,47.2357,144.354,100.245,94.1952,0.00354305,0.386189,20.6261,-294.435,0.558653,0.0,0.0
3648,911.75,42.5381,47.9182,141.272,100.22,94.0975,0.00341979,0.388494,20.6237,-294.776,0.565808,0.0,0.0
3660,914.75,43.7818,48.1145,140.874,100.201,93.8342,0.00344677,0.390599,20.6213,-295.126,0.589184,0.0,0.0
3672,917.75,46.2387,47.2842,145.735,100.171,93.546,0.00363099,0.392014,20.6188,-295.496,0.614121,0.0,0.0
3684,920.75,45.4361,48.4892,141.918,100.143,93.4525,0.00350609,0.395122,20.616,-295.837,0.620573,0.0,0.0
3696,923.75,46.1297,48.3043,135.635,100.121,93.7322,0.00324906,0.396035,20.6148,-296.197,0.591794,0.0,0.0
3708,926.75,45.8478,48.7758,140.956,100.101,93.6268,0.00332225,0.397752,20.6121,-296.557,0.600084,0.0,0.0
3720,929.75,46.1871,48.8202,139.228,100.077,92.6462,0.00358321,0.401213,20.6068,-296.917,0.692414,0.0,0.0
3732,932.75,45.9439,49.837,137.757,100.06,92.6653,0.00366836,0.402275,20.6054,-297.278,0.689051,0.0,0.0
3744,935.75,47.3621,49.359,140.422,100.052,93.2117,0.00369126,0.404753,20.6022,-297.628,0.635636,0.0,0.0
3756,938.75,46.8856,50.2992,138.038,100.042,92.8934,0.00383456,0.406281,20.6008,-297.988,0.665357,0.0,0.0
3768,941.75,47.0585,50.3268,137.538,100.033,93.6501,0.00388791,0.407602,20.6004,-298.359,0.591744,0.0,0.0
3780,944.75,46.8445,50.056,138.204,100.024,93.2942,0.00379887,0.409948,20.5973,-298.739,0.625125,0.0,0.0
3792,947.75,47.0327,50.7013,138.763,100.03,93.8507,0.00373754,0.410265,20.5966,-299.069,0.572286,0.0,0.0
3804,950.75,47.5354,50.8661,132.109,100.031,93.5706,0.00377961,0.411799,20.5944,-299.44,0.599192,0.0,0.0
3816,953.75,47.6525,51.1824,137.876,100.037,93.5134,0.00380111,0.413494,20.5928,-299.8,0.605216,0.0,0.0
3828,956.75,48.1166,51.7074,138.868,100.036,93.5062,0.0038341,0.412693,20.5925,-300.18,0.605835,0.0,0.0
3840,959.75,48.169,51.5118,135.532,100.036,93.1351,0.00391029,0.411705,20.5923,-300.551,0.641533,0.0,0.0
3852,962.75,48.4813,51.788,135.706,100.048,93.3573,0.00382111,0.412524,20.5911,-300.901,0.621194,0.0,0.0
3864,965.75,48.6237,52.1424,144.28,100.055,93.3801,0.0037366,0.413237,20.5903,-301.221,0.619684,0.0,0.0
3876,968.75,48.8389,52.2333,141.077,100.068,92.7004,0.00354007,0.413086,20.5901,-301.602,0.686372,0.0,0.0
3888,971.75,48.9716,52.6062,137.44,100.081,93.2079,0.00365339,0.412844,20.59,-301.942,0.638604,0.0,0.0
3900,974.75,48.5791,52.3624,137.598,100.083,92.6839,0.00378337,0.412263,20.59,-302.342,0.689309,0.0,0.0
3912,977.75,49.4815,52.6695,137.849,100.08,93.4233,0.00367691,0.412949,20.5894,-302.683,0.617741,0.0,0.0
3924,980.75,49.3386,53.0372,144.63,100.077,94.7543,0.00361716,0.413828,20.5875,-303.043,0.490554,0.0,0.0
3936,983.75,49.4182,53.3556,135.715,100.081,92.5764,0.00372744,0.414342,20.586,-303.403,0.69958,0.0,0.0
3948,986.75,49.5942,53.3041,140.134,100.099,92.9869,0.00396267,0.415056,20.5846,-303.764,0.661494,0.0,0.0
3960,989.75,49.9375,53.3841,137.39,100.105,93.6163,0.00401631,0.415992,20.5836,-304.134,0.60146,0.0,0.0
3972,992.75,50.0991,53.5292,139.035,100.111,92.3233,0.00387576,0.416316,20.5832,-304.504,0.72686,0.0,0.0
3984,995.75,50.1306,53.6079,141.15,100.11,93.6861,0.00383407,0.415103,20.5831,-304.845,0.595273,0.0,0.0
3996,998.75,50.0591,54.1984,139.183,100.102,93.0221,0.00387349,0.415531,20.5821,-305.205,0.658393,0.0,0.0
4008,1001.75,50.1714,54.0391,135.039,100.102,92.8799,0.00397263,0.416244,20.5821,-305.575,0.672087,0.0,0.0
4020,1004.75,50.1514,54.6958,136.287,100.106,92.8231,0.00419808,0.415556,20.5833,-305.906,0.677894,0.0,0.0
4032,1007.75,50.8128,53.8818,141.236,100.103,93.4093,0.00440175,0.416154,20.584,-306.256,0.621179,0.0,0.0
4044,1010.75,49.1775,54.0282,137.838,100.114,93.3801,0.00448062,0.415309,20.5843,-306.616,0.624925,0.0,0.0
4056,1013.75,50.3591,54.3768,143.209,100.116,92.5603,0.00443846,0.413448,20.5845,-306.967,0.704283,0.0,0.0
4068,1016.75,50.8376,54.6185,143.266,100.131,93.4372,0.00418557,0.409888,20.5883,-307.317,0.620988,0.0,0.0
4080,1019.75,50.8052,54.4315,136.349,100.137,93.1566,0.00389487,0.407073,20.5909,-307.647,0.648524,0.0,0.0
4092,1022.75,50.5675,54.5745,138.583,100.143,92.6251,0.00387819,0.403293,20.5951,-307.997,0.700462,0.0,0.0
4104,1025.75,50.9471,54.3504,139.567,100.164,93.4939,0.00381101,0.399484,20.6005,-308.318,0.618541,0.0,0.0
4116,1028.75,50.968,54.5924,141.922,100.168,93.2062,0.00387042,0.39599,20.6041,-308.668,0.646572,0.0,0.0
4128,1031.75,50.7891,54.1706,136.895,100.172,92.5688,0.00403721,0.393379,20.6069,-308.968,0.708482,0.0,0.0
4140,1034.75,50.4413,54.3896,141.274,100.192,93.7568,0.00395831,0.390043,20.6114,-309.309,0.595837,0.0,0.0
4152,1037.75,49.9442,53.7023,137.005,100.212,93.637,0.00391952,0.386677,20.6146,-309.609,0.609042,0.0,0.0
4164,1040.75,50.6301,54.3214,136.759,100.215,93.3137,0.00382935,0.382531,20.6183,-309.909,0.640378,0.0,0.0
4176,1043.75,50.6279,54.2472,137.592,100.228,93.951,0.00368228,0.379573,20.6199,-310.239,0.580436,0.0,0.0
4188,1046.75,50.5413,54.1431,145.152,100.232,93.8118,0.00364666,0.376335,20.6244,-310.54,0.594109,0.0,0.0
4200,1049.75,49.5955,53.5607,144.534,100.249,93.1981,0.00370498,0.372508,20.6306,-310.83,0.654528,0.0,0.0
4212,1052.75,49.9606,53.9188,141.936,100.266,93.8279,0.00369479,0.368503,20.6348,-311.11,0.595673,0.0,0.0
4224,1055.75,50.1671,53.5823,144.49,100.283,94.0446,0.00357764,0.364527,20.639,-311.421,0.576413,0.0,0.0
4236,1058.75,49.8833,53.4805,139.743,100.297,93.9836,0.00341647,0.361129,20.6421,-311.701,0.583493,0.0,0.0
4248,1061.75,49.4352,53.2796,141.209,100.31,94.1927,0.00333658,0.359278,20.6439,-311.991,0.564704,0.0,0.0
4260,1064.75,49.7314,53.2714,145.574,100.319,94.3789,0.00329248,0.356296,20.6465,-312.261,0.547806,0.0,0.0
4272,1067.75,49.502,52.7652,142.704,100.319,94.37,0.00311669,0.352881,20.6487,-312.532,0.548687,0.0,0.0
4284,1070.75,49.4633,52.9596,141.815,100.318,94.425,0.00310017,0.349107,20.6536,-312.792,0.543384,0.0,0.0
4296,1073.75,49.0342,52.8472,140.076,100.316,94.2168,0.00314245,0.34685,20.6566,-313.062,0.562945,0.0,0.0
4308,1076.75,49.2297,52.4005,141.107,100.318,94.858,0.00305792,0.339063,20.6668,-313.332,0.502326,0.0,0.0
4320,1079.75,48.4608,52.7295,144.522,100.321,94.4648,0.00304696,0.331584,20.6748,-313.573,0.539856,0.0,0.0
4332,1082.75,48.4215,52.4439,144.51,100.308,94.5977,0.00317903,0.323146,20.6851,-313.793,0.526049,0.0,0.0
4344,1085.75,48.0586,51.0875,140.895,100.332,93.8592,0.00317752,0.316516,20.6925,-314.023,0.598521,0.0,0.0
4356,1088.75,47.8297,51.6514,148.893,100.32,94.8614,0.00307596,0.309026,20.7003,-314.233,0.502149,0.0,0.0
4368,1091.75,47.9134,51.3363,143.636,100.321,94.6625,0.00328164,0.29994,20.7114,-314.433,0.521097,0.0,0.0
4380,1094.75,47.4939,50.9607,150.871,100.317,94.6159,0.0034744,0.288364,20.7216,-314.623,0.525114,0.0,0.0
4392,1097.75,46.9116,50.4654,142.288,100.318,95.1462,0.00362939,0.276226,20.7363,-314.804,0.475096,0.0,0.0
4404,1100.75,46.6862,49.9361,151.158,100.31,96.3511,0.00388889,0.26082,20.7537,-314.954,0.361428,0.0,0.0
4416,1103.75,46.5154,49.2159,147.646,100.316,96.399,0.00419873,0.245423,20.7742,-315.094,0.357479,0.0,0.0
4428,1106.75,45.5315,48.685,147.385,100.315,96.1857,0.00437057,0.228235,20.79,-315.224,0.377253,0.0,0.0
4440,1109.75,44.977,47.9941,147.93,100.318,96.4857,0.00477733,0.214942,20.8083,-315.314,0.349621,0.0,0.0
4452,1112.75,43.8062,46.6529,151.787,100.307,97.0524,0.00515416,0.202733,20.8203,-315.414,0.296051,0.0,0.0
4464,1115.75,43.3732,46.4664,146.705,100.304,96.9288,0.00532142,0.193918,20.8294,-315.504,0.307198,0.0,0.0
4476,1118.75,43.0413,45.7146,146.49,100.309,97.377,0.00576813,0.186403,20.8375,-315.594,0.266226,0.0,0.0
4488,1121.75,42.3346,44.6697,149.226,100.308,96.3939,0.00642956,0.182319,20.8405,-315.664,0.35723,0.0,0.0
4500,1124.75,40.8868,43.5783,145.967,100.309,96.8954,0.00702399,0.18118,20.8433,-315.754,0.310764,0.0,0.0
4512,1127.75,41.1248,43.6907,151.334,100.304,97.5019,0.00736771,0.177979,20.8477,-315.835,0.254293,0.0,0.0
4524,1130.75,40.3348,42.9826,147.366,100.303,97.4921,0.00763361,0.174553,20.8525,-315.935,0.255153,0.0,0.0
4536,1133.75,39.9624,42.1311,151.418,100.283,97.5438,0.00787519,0.170655,20.8585,-315.995,0.248525,0.0,0.0
4548,1136.75,39.0899,41.5963,151.721,100.298,97.6479,0.00817698,0.167861,20.863,-316.065,0.240322,0.0,0.0
4560,1139.75,38.3562,40.5968,149.201,100.285,97.7829,0.00867981,0.166004,20.8645,-316.135,0.226767,0.0,0.0
4572,1142.75,38.0759,40.3195,156.259,100.262,97.3169,0.00870278,0.162937,20.8675,-316.215,0.267583,0.0,0.0
4584,1145.75,37.8421,39.7601,154.424,100.282,97.2937,0.00875706,0.162201,20.8689,-316.275,0.271497,0.0,0.0
4596,1148.75,37.6924,39.2323,152.492,100.272,97.975,0.00910552,0.161061,20.8697,-316.355,0.208029,0.0,0.0
4608,1151.75,36.8696,39.2854,150.131,100.266,97.4926,0.00913336,0.16058,20.8715,-316.415,0.251724,0.0,0.0
4620,1154.75,36.2003,38.5683,147.76,100.265,98.2501,0.00924412,0.160189,20.8724,-316.485,0.182214,0.0,0.0
4632,1157.75,35.9399,37.9088,147.372,100.26,98.3081,0.0091923,0.159688,20.8726,-316.555,0.176487,0.0,0.0
4644,1160.75,35.6503,37.3124,153.57,100.25,97.5285,0.00921973,0.159688,20.873,-316.625,0.247005,0.0,0.0
4656,1163.75,34.7689,37.319,149.363,100.254,97.9196,0.00938435,0.161715,20.8721,-316.685,0.21145,0.0,0.0
4668,1166.75,34.3315,36.387,149.952,100.248,97.3893,0.0094681,0.166609,20.8672,-316.745,0.259684,0.0,0.0
4680,1169.75,34.7403,36.0946,148.324,100.252,98.16,0.00967983,0.169341,20.863,-316.805,0.189299,0.0,0.0
4692,1172.75,34.4509,35.9057,150.491,100.249,97.7727,0.00983264,0.169939,20.863,-316.895,0.224524,0.0,0.0
4704,1175.75,33.4094,35.0965,153.165,100.251,97.4439,0.00969264,0.168333,20.8646,-316.966,0.254906,0.0,0.0
4716,1178.75,33.0251,34.8518,150.039,100.248,98.2078,0.00945066,0.166034,20.8675,-317.046,0.184567,0.0,0.0
4728,1181.75,33.3626,34.9684,148.441,100.243,97.6013,0.00938685,0.16477,20.8694,-317.096,0.239695,0.0,0.0
4740,1184.75,33.4489,34.7315,148.991,100.242,97.8464,0.00936238,0.16412,20.8705,-317.166,0.217081,0.0,0.0
4752,1187.75,32.9753,34.3018,149.076,100.243,97.8908,0.009249,0.163877,20.8709,-317.236,0.213078,0.0,0.0
4764,1190.75,32.5166,34.2987,154.956,100.247,97.5853,0.00925966,0.163721,20.8712,-317.296,0.241571,0.0,0.0
4776,1193.75,32.5766,33.983,151.297,100.246,97.3453,0.00941212,0.164281,20.8701,-317.356,0.26356,0.0,0.0
4788,1196.75,32.4743,33.3717,154.663,100.235,97.7901,0.00950378,0.164677,20.8697,-317.436,0.221596,0.0,0.0
4800,1199.75,32.3049,33.5275,151.36,100.233,98.146,0.0093916,0.16528,20.8696,-317.476,0.18888,0.0,0.0
4812,1202.75,32.2381,33.3035,152.625,100.245,98.2137,0.0090888,0.166087,20.8696,-317.546,0.183737,0.0,0.0
4824,1205.75,31.9548,33.0759,147.972,100.245,97.7372,0.00886779,0.165871,20.8709,-317.616,0.227427,0.0,0.0
4836,1208.75,31.7979,32.7664,153.223,100.217,97.6758,0.00892624,0.16551,20.8698,-317.676,0.230539,0.0,0.0
4848,1211.75,31.5816,32.5413,151.949,100.226,97.9145,0.00912107,0.164809,20.8703,-317.736,0.209389,0.0,0.0
4860,1214.75,30.5334,31.6869,150.144,100.219,97.9145,0.00931691,0.164656,20.8707,-317.806,0.208812,0.0,0.0
4872,1217.75,31.395,32.3158,147.589,100.222,98.1122,0.00921513,0.164358,20.8708,-317.866,0.190967,0.0,0.0
4884,1220.75,30.6458,32.434,152.652,100.217,97.7677,0.00899154,0.164867,20.8694,-317.916,0.222103,0.0,0.0
4896,1223.75,31.636,31.9329,155.477,100.228,98.0859,0.00908921,0.164927,20.8703,-317.986,0.193873,0.0,0.0
4908,1226.75,30.8235,31.5423,152.923,100.229,98.1723,0.00928377,0.164407,20.8713,-318.047,0.186119,0.0,0.0
4920,1229.75,30.4797,31.7989,149.414,100.233,97.7909,0.00941319,0.164171,20.8725,-318.127,0.221375,0.0,0.0
4932,1232.75,30.6572,31.2472,149.818,100.243,97.5019,0.00930598,0.163732,20.8742,-318.167,0.24881,0.0,0.0
4944,1235.75,30.8088,31.2545,152.383,100.252,97.9094,0.00910506,0.163371,20.8756,-318.217,0.212165,0.0,0.0
4956,1238.75,30.4065,31.7963,154.373,100.283,98.3496,0.0091304,0.162602,20.8761,-318.297,0.17472,0.0,0.0
4968,1241.75,30.2655,31.1183,152.937,100.273,98.4689,0.00897254,0.162381,20.877,-318.347,0.162934,0.0,0.0
4980,1244.75,29.8043,30.9277,153.641,100.285,98.6002,0.00896064,0.162265,20.8776,-318.377,0.152102,0.0,0.0
4992,1247.75,29.8711,30.7857,150.968,100.295,98.6002,0.00907136,0.161541,20.8783,-318.447,0.152967,0.0,0.0
5004,1250.75,29.4146,29.5723,152.635,100.278,98.9523,0.00897444,0.160812,20.8785,-318.527,0.119421,0.0,0.0
5016,1253.75,29.2677,30.0653,153.162,100.28,98.4076,0.00921559,0.160339,20.8784,-318.577,0.169179,0.0,0.0
5028,1256.75,29.6557,30.6352,154.85,100.287,98.3843,0.0107622,0.156535,20.8856,-318.627,0.171952,0.0,0.0
5040,1259.75,29.5312,30.5648,150.745,100.289,98.6323,0.0123376,0.151048,20.8922,-318.677,0.1495,0.0,0.0
5052,1262.75,29.6231,30.0003,159.71,100.277,98.6861,0.0131986,0.14808,20.8948,-318.747,0.143563,0.0,0.0
5064,1265.75,28.8669,29.6486,156.873,100.301,98.1989,0.013753,0.147061,20.897,-318.777,0.190068,0.0,0.0
5076,1268.75,27.9816,28.8193,155.456,100.291,98.044,0.0139765,0.146226,20.8978,-318.817,0.203335,0.0,0.0
5088,1271.75,27.459,28.4024,152.27,100.319,97.8316,0.0139578,0.147099,20.8964,-318.907,0.22533,0.0,0.0
5100,1274.75,27.6408,28.3224,151.975,100.292,98.6869,0.0138706,0.146845,20.896,-318.967,0.144784,0.0,0.0
5112,1277.75,27.4367,27.7197,152.843,100.303,98.8685,0.0139348,0.147627,20.894,-319.017,0.129334,0.0,0.0
5124,1280.75,27.5809,28.1572,151.194,100.298,98.7593,0.0138389,0.147996,20.8932,-319.057,0.138747,0.0,0.0
5136,1283.75,26.8067,27.7943,152.779,100.302,98.7453,0.0134703,0.147207,20.8943,-319.117,0.140376,0.0,0.0
5148,1286.75,27.1821,27.6608,154.151,100.287,98.5379,0.0133132,0.146806,20.8947,-319.168,0.157947,0.0,0.0
5160,1289.75,27.0933,27.3748,151.979,100.288,98.6361,0.0132888,0.147409,20.8948,-319.208,0.149044,0.0,0.0
5172,1292.75,26.6891,27.0415,158.991,100.284,98.6395,0.013284,0.146911,20.8948,-319.258,0.148412,0.0,0.0
5184,1295.75,26.6618,27.6149,155.859,100.281,98.4939,0.0130694,0.145977,20.8948,-319.718,0.16138,0.0,0.0
5196,1298.75,26.7924,26.8361,153.543,100.263,99.174,0.0127475,0.14216,20.9004,-319.338,0.0980297,0.0,0.0
5208,1301.75,26.6079,27.6348,156.872,100.26,98.6831,0.0125282,0.138709,20.9074,-319.378,0.142318,0.0,0.0
5220,1304.75,26.2861,26.7501,157.729,100.244,99.0293,0.0124811,0.137528,20.9102,-319.438,0.109407,0.0,0.0
5232,1307.75,25.8058,27.0293,158.187,100.235,98.7931,0.0124101,0.13665,20.9114,-319.488,0.130042,0.0,0.0
5244,1310.75,25.6693,26.7936,155.454,100.24,98.1837,0.0121535,0.136707,20.9128,-319.528,0.18605,0.0,0.0
5256,1313.75,26.0093,26.4162,153.625,100.223,98.3725,0.0118162,0.136995,20.9137,-319.548,0.167296,0.0,0.0
5268,1316.75,25.6227,26.286,151.871,100.204,98.5367,0.0117073,0.13765,20.9131,-319.588,0.150594,0.0,0.0
5280,1319.75,24.5831,25.4245,153.547,100.199,98.243,0.0115035,0.138319,20.9122,-319.618,0.176917,0.0,0.0
5292,1322.75,25.465,25.943,157.258,100.172,98.496,0.0113526,0.137932,20.9121,-319.668,0.151407,0.0,0.0
5304,1325.75,24.6827,25.2723,150.171,100.156,98.5519,0.0112554,0.137564,20.9131,-319.728,0.144945,0.0,0.0
5316,1328.75,25.4234,25.5576,151.994,100.144,98.0648,0.011032,0.137138,20.9131,-319.758,0.188334,0.0,0.0
5328,1331.75,25.1689,26.0496,155.219,100.115,99.0987,0.0110208,0.136622,20.9145,-319.808,0.0915644,0.0,0.0
5340,1334.75,25.3115,25.4669,152.786,100.094,98.5536,0.0109635,0.13666,20.914,-319.838,0.139155,0.0,0.0
5352,1337.75,25.4774,25.4457,153.031,100.087,98.8824,0.0108313,0.136926,20.9148,-319.878,0.108715,0.0,0.0
5364,1340.75,25.1428,25.1729,155.477,100.057,99.0517,0.0107433,0.136309,20.9156,-319.908,0.0906514,0.0,0.0
5376,1343.75,24.7258,25.0849,153.029,100.024,98.739,0.0105971,0.137066,20.9145,-319.948,0.116072,0.0,0.0
5388,1346.75,25.4197,25.1723,149.167,100.004,98.7288,0.0104514,0.138109,20.9132,-319.998,0.115186,0.0,0.0
5400,1349.75,24.8786,25.111,152.227,99.9831,98.3479,0.0102476,0.138204,20.9125,-320.018,0.148,0.0,0.0
5412,1352.75,24.764,25.0236,154.276,99.9722,98.75,0.0101978,0.137741,20.9123,-320.058,0.110405,0.0,0.0
5424,1355.75,23.533,23.9089,150.582,99.9658,98.2434,0.0101711,0.13853,20.9109,-320.098,0.155989,0.0,0.0
5436,1358.75,24.8206,25.0273,153.823,99.9428,98.3538,0.010023,0.140232,20.9096,-320.138,0.14384,0.0,0.0
5448,1361.75,24.296,24.6644,151.079,99.9621,98.3953,0.0100971,0.140863,20.9076,-320.178,0.141793,0.0,0.0
5460,1364.75,24.4155,24.7536,153.344,99.9593,98.51,0.00993088,0.139727,20.9082,-320.208,0.131084,0.0,0.0
5472,1367.75,24.9528,24.7898,151.119,99.965,97.7592,0.00962289,0.138473,20.9103,-320.249,0.200258,0.0,0.0
5484,1370.75,24.2845,24.8581,154.803,99.9682,99.0648,0.00963501,0.137445,20.9123,-320.289,0.08147,0.0,0.0
5496,1373.75,24.7813,24.6379,153.721,99.9674,98.5917,0.00988935,0.136996,20.9129,-320.319,0.124368,0.0,0.0
5508,1376.75,24.6163,24.8427,151.438,99.9678,98.3471,,0.136741,,-320.349,0.146701,0.0,0.0
5520,1379.75,24.0947,24.2729,152.683,99.9831,98.342,,,,-320.399,0.148541,0.0,0.0
5532,1382.75,24.3857,24.2634,157.769,99.9891,98.5511,,,,-320.429,0.130022,0.0,0.0
5544,1385.75,23.9152,24.4981,154.724,100.003,98.8477,,,,-320.459,0.10431,0.0,0.0
5550,1387.25,24.0124,24.5166,156.7,100.017,98.9726,,,,-320.449,0.0942095,0.0,0.0