File: 01_Data/Engineered_Wood_Furniture/Cone/Engineered_Wood_Furniture_Cone_HF25Scan_220330_R3.csv
Names,Time,Stack TC,Smoke TC,Exh Press,Smoke Comp,Smoke Meas,CO Meter,CO2 Meter,O2 Meter,Sample Mass,Ext Coeff,Start Test,Flame Verif
Chan Gain,,500,500,1,1,1,1,1,1,1,1,1.0,1.0
Offset,,0,0,0.138301,0,0,0,0,0,0,0,0.0,0.0
Gain,,1,1,25.011,13.2062,13.8682,1,1,1,1.0009,1.02317,1.0,1.0
Units,sec,C,C,Pa,%,%,%,%,%,g,/m,,
Baseline,,19.7685,20.1634,156.227,99.3501,97.6164,0.000972582,0.0725806,20.9946,-835.874,0.15803,,
12,2.75,18.806,18.5129,153.405,98.4431,96.8074,0.000902963,0.083812,20.9808,-230.177,0.150389,0.0,0.0
24,5.75,18.5994,18.4976,156.509,98.5012,97.3614,0.000883507,0.081491,20.9842,-230.137,0.104462,0.0,0.0
36,8.75,18.6541,18.8652,158.449,98.5745,97.0304,0.000791514,0.077834,20.9885,-230.167,0.141704,0.0,0.0
48,11.75,18.2923,19.3279,152.574,98.6543,97.1015,0.000749213,0.0754398,20.9923,-230.207,0.142393,0.0,0.0
60,14.75,18.5056,19.034,154.468,98.7337,97.0088,0.000775391,0.074194,20.9933,-230.237,0.158185,0.0,0.0
72,17.75,18.7603,19.1034,156.9,98.8353,97.2107,0.000897447,0.0737419,20.9942,-230.277,0.148755,0.0,0.0
84,20.75,18.2904,18.8948,153.618,98.9356,97.1015,0.000897721,0.0731383,20.9948,-230.307,0.16795,0.0,0.0
96,23.75,18.9073,19.4613,155.436,99.0328,97.592,0.000874446,0.0729456,20.995,-230.348,0.131531,0.0,0.0
108,26.75,18.8034,18.7822,157.812,99.1436,97.3576,0.000999096,0.0732887,20.9948,-230.368,0.163159,0.0,0.0
120,29.75,18.6472,18.5212,155.924,99.2371,97.6597,0.00098812,0.0743737,20.9921,-230.398,0.143805,0.0,0.0
132,32.75,18.7587,19.6923,158.912,99.3294,97.73,0.000954105,0.0753196,20.9909,-230.428,0.145694,0.0,0.0
144,35.75,18.9301,19.3324,154.434,99.4342,98.2201,0.000840603,0.0762041,20.9898,-230.458,0.110261,0.0,0.0
156,38.75,18.1472,18.6771,146.063,99.5253,97.8722,0.000792811,0.0770398,20.9886,-230.478,0.150326,0.0,0.0
168,41.75,19.1338,19.448,153.413,99.6224,97.8358,0.000877032,0.0769671,20.9892,-230.488,0.162417,0.0,0.0
180,44.75,18.8783,19.4399,158.713,99.7082,97.7156,0.000965512,0.075566,20.9913,-230.508,0.181182,0.0,0.0
192,47.75,19.2817,19.5003,156.04,99.8005,97.6382,0.00107223,0.074041,20.9935,-230.548,0.196602,0.0,0.0
204,50.75,19.0774,19.2959,157.231,99.8686,97.3821,0.00106137,0.0731174,20.9948,-230.558,0.226293,0.0,0.0
216,53.75,18.9272,19.3522,157.69,99.9464,97.5637,0.0010656,0.0725657,20.9962,-230.558,0.216562,0.0,0.0
228,56.75,19.0079,19.1582,157.973,100,97.4155,0.000891133,0.0725556,20.9966,-230.568,0.235012,0.0,0.0
240,59.75,18.6386,19.3899,155.921,100.07,97.2166,0.000726371,0.0728462,20.9954,-230.618,0.25965,0.0,0.0
252,62.75,19.297,19.6566,158.93,100.114,97.0685,0.000812736,0.0730454,20.9947,-230.648,0.27731,0.0,0.0
264,65.75,18.6386,19.5737,158.139,100.156,97.7101,0.000963442,0.0728384,20.9945,-230.658,0.221901,0.0,0.0
276,68.75,18.5193,18.8913,156.89,100.185,97.755,0.000950575,0.0726565,20.9958,-230.678,0.220382,0.0,0.0
288,71.75,19.1152,19.3975,156.341,100.222,97.6606,0.00104089,0.0727791,20.9965,-230.698,0.232372,0.0,0.0
300,74.75,19.2675,19.0595,156.911,100.257,98.0584,0.00109855,0.0727933,20.9966,-230.718,0.198988,0.0,0.0
312,77.75,19.5039,20.082,157.133,100.266,97.8849,0.00103278,0.0728541,20.9967,-230.738,0.21575,0.0,0.0
324,80.75,19.004,19.382,154.528,100.288,97.4816,0.000979538,0.0732313,20.9967,-230.748,0.25472,0.0,0.0
336,83.75,19.4654,19.3986,157.641,100.293,98.3331,0.000874211,0.0744059,20.9951,-230.788,0.177166,0.0,0.0
348,86.75,19.5033,19.6823,157.416,100.308,97.4934,0.000843529,0.0761608,20.9947,-230.828,0.255433,0.0,0.0
360,89.75,19.6871,19.8631,156.74,100.33,97.2645,0.000924758,0.077564,20.994,-230.858,0.278555,0.0,0.0
372,92.75,19.1785,20.3043,154.279,100.32,96.9318,0.00116489,0.0783169,20.9936,-230.888,0.308367,0.0,0.0
384,95.75,19.405,20.3546,160.196,100.316,96.2453,0.00125845,0.0780533,20.9934,-230.938,0.37183,0.0,0.0
396,98.75,19.1074,19.7538,154.774,100.315,95.8606,0.00123242,0.0777638,20.9942,-230.988,0.407633,0.0,0.0
408,101.75,19.5357,19.7102,160.847,100.299,96.2178,0.00130403,0.0778549,20.9953,-231.018,0.372882,0.0,0.0
420,104.75,19.6001,20.169,156.873,100.284,95.3959,0.00144276,0.07879,20.9944,-231.098,0.448508,0.0,0.0
432,107.75,19.3694,19.3163,157.246,100.272,95.8589,0.00158481,0.0794425,20.9937,-231.168,0.403969,0.0,0.0
444,110.75,19.6328,20.1623,154.037,100.243,95.6723,0.00174968,0.0798288,20.9933,-231.218,0.4189,0.0,0.0
456,113.75,19.468,20.2448,154.966,100.2,94.3865,0.00192983,0.0813539,20.9912,-231.278,0.536439,0.0,0.0
468,116.75,19.7525,20.0605,149.537,100.178,95.4497,0.00264024,0.114659,20.9431,-231.489,0.433961,0.0,1.0
480,119.75,20.1032,20.9538,139.146,100.12,91.5547,0.0038645,0.262658,20.7851,-231.799,0.802685,0.0,1.0
492,122.75,21.9198,22.6084,126.062,100.067,94.1428,0.00472363,0.461414,20.5334,-232.409,0.547692,0.0,1.0
504,125.75,25.4411,25.6538,130.47,100.023,94.6104,0.00486645,0.578518,20.3893,-232.97,0.499312,0.0,1.0
516,128.75,28.2674,28.9308,139.363,99.9686,94.4149,0.00463509,0.580006,20.3769,-233.43,0.512998,0.0,1.0
528,131.75,30.1735,31.4704,133.178,99.9013,95.2211,0.00435223,0.529624,20.4365,-233.871,0.430635,0.0,0.0
540,134.75,31.9167,33.3553,137.5,99.8356,95.6477,0.00394035,0.464124,20.5136,-234.191,0.384612,0.0,0.0
552,137.75,32.102,33.7788,144.177,99.7715,96.4608,0.00337079,0.399294,20.602,-234.491,0.302881,0.0,0.0
564,140.75,33.2305,35.137,146.973,99.7199,95.9554,0.00314915,0.367367,20.6457,-234.842,0.345381,0.0,0.0
576,143.75,33.6685,35.6131,142.675,99.6687,95.5174,0.00309837,0.357636,20.6622,-235.162,0.381839,0.0,0.0
588,146.75,34.8882,36.8844,142.731,99.6111,96.3075,0.00311912,0.360291,20.6609,-235.502,0.302707,0.0,0.0
600,149.75,35.5425,37.412,144.115,99.5764,95.4895,0.0031179,0.373425,20.6465,-235.862,0.376148,0.0,0.0
612,152.75,36.3303,38.1122,140.219,99.5458,96.3249,0.00332015,0.39807,20.6128,-236.303,0.295205,0.0,0.0
624,155.75,36.939,38.8046,140.614,99.5333,95.5051,0.00363503,0.430388,20.5779,-236.703,0.37079,0.0,0.0
636,158.75,38.0575,40.3977,135.464,99.653,95.3781,0.00370383,0.454076,20.5516,-237.114,0.393516,0.0,0.0
648,161.75,39.5308,42.3038,139.666,99.757,95.059,0.00380442,0.468574,20.5319,-237.544,0.432956,0.0,0.0
660,164.75,40.7954,42.5838,135.457,99.8074,95.9017,0.00409298,0.475659,20.5229,-238.024,0.358278,0.0,0.0
672,167.75,40.9644,44.4041,138.849,99.8868,95.5978,0.00418195,0.475182,20.5221,-238.445,0.393898,0.0,0.0
684,170.75,40.9652,44.558,137.579,99.9307,95.2245,0.00402428,0.470712,20.5266,-238.865,0.432959,0.0,0.0
696,173.75,43.0505,45.8669,134.468,99.973,95.7895,0.00388346,0.46602,20.5302,-239.306,0.383663,0.0,0.0
708,176.75,43.4155,46.2054,146.683,100.006,95.704,0.00373591,0.458887,20.5385,-239.686,0.394607,0.0,0.0
720,179.75,44.5366,47.5548,138.49,100.037,94.9024,0.00375216,0.44978,20.5479,-240.096,0.472882,0.0,0.0
732,182.75,44.8925,48.0771,141.824,100.062,95.8225,0.00379211,0.439949,20.5574,-240.497,0.388562,0.0,0.0
744,185.75,45.2302,48.3176,136.773,100.072,96.0236,0.00367357,0.431563,20.5682,-240.917,0.370657,0.0,0.0
756,188.75,45.4153,48.8334,141.146,100.1,95.7341,0.00371137,0.420305,20.5806,-241.267,0.400285,0.0,0.0
768,191.75,45.7282,49.1504,135.846,100.107,95.6829,0.00357477,0.412978,20.5884,-241.638,0.405702,0.0,0.0
780,194.75,45.5844,49.2505,136.713,100.115,95.7104,0.00341836,0.402621,20.6016,-241.988,0.403845,0.0,0.0
792,197.75,45.6468,50.1129,138.647,100.114,95.8458,0.00337086,0.391319,20.6134,-242.338,0.39108,0.0,0.0
804,200.75,46.7424,49.5712,136.652,100.127,95.4696,0.00336075,0.381403,20.6264,-242.689,0.427504,0.0,0.0
816,203.75,45.5872,49.9594,137.545,100.119,95.7425,0.00324998,0.371927,20.6348,-243.019,0.401118,0.0,0.0
828,206.75,46.1614,49.6709,141.434,100.081,96.7244,0.00311549,0.364802,20.6446,-243.329,0.306182,0.0,0.0
840,209.75,45.7089,49.7254,146.035,100.056,96.4548,0.00297448,0.35259,20.6587,-243.639,0.329028,0.0,0.0
852,212.75,45.6953,49.6423,145.006,100.016,96.0959,0.00296899,0.341281,20.672,-243.95,0.35887,0.0,0.0
864,215.75,45.9837,49.3211,144.933,99.9625,96.4938,0.00307666,0.332561,20.682,-244.26,0.316977,0.0,0.0
876,218.75,46.0892,49.7942,145.57,99.9093,96.1653,0.00286176,0.322305,20.694,-244.54,0.3428,0.0,0.0
888,221.75,44.8491,48.8912,146.174,99.8642,96.291,0.00270152,0.314939,20.7054,-244.811,0.327021,0.0,0.0
900,224.75,45.1055,48.816,147.409,99.8223,96.1755,0.00276972,0.308352,20.7128,-245.121,0.334028,0.0,0.0
912,227.75,45.4096,48.6606,146.327,99.7659,95.7607,0.0030235,0.303264,20.7165,-245.391,0.367743,0.0,0.0
924,230.75,44.4352,48.4222,140.424,99.7102,96.1158,0.00312634,0.299911,20.7201,-245.651,0.32952,0.0,0.0
936,233.75,44.3434,48.1975,145.302,99.6401,95.8775,0.00334185,0.295348,20.7248,-245.912,0.345484,0.0,0.0
948,236.75,44.1927,48.0579,143.28,99.568,96.6504,0.00360376,0.293448,20.7296,-246.172,0.266929,0.0,0.0
960,239.75,44.0037,47.9275,148.007,99.4999,96.0942,0.00361343,0.28992,20.734,-246.452,0.312579,0.0,0.0
972,242.75,43.5386,47.5566,141.982,99.412,95.8792,0.00343851,0.287056,20.7384,-246.732,0.324754,0.0,0.0
984,245.75,43.6727,47.2911,145.698,99.3169,95.6477,0.00349675,0.284866,20.7409,-247.013,0.33786,0.0,0.0
996,248.75,42.8334,46.5443,146.037,99.2992,95.5144,0.00378246,0.280763,20.7436,-247.263,0.348775,0.0,0.0
1008,251.75,43.2829,46.9008,144.222,99.3137,96.0629,0.00400849,0.277303,20.7453,-247.523,0.298693,0.0,0.0
1020,254.75,43.1125,46.3797,145.534,99.3133,96.0909,0.0041477,0.274568,20.7482,-247.773,0.296048,0.0,0.0
1032,257.75,42.4995,45.8184,144.848,99.3322,96.2335,0.00406259,0.27322,20.7498,-248.043,0.284447,0.0,0.0
1044,260.75,42.1632,46.0755,144.334,99.3536,96.0875,0.00397642,0.27309,20.7508,-248.304,0.300005,0.0,0.0
1056,263.75,42.1146,45.5888,146.904,99.3713,95.7734,0.00414949,0.272384,20.7511,-248.574,0.330987,0.0,0.0
1068,266.75,41.9231,45.5218,148.658,99.385,95.9753,0.00414921,0.271017,20.7526,-248.824,0.313327,0.0,0.0
1080,269.75,41.814,45.5172,147.316,99.4035,95.7277,0.00401108,0.269597,20.7553,-249.054,0.338184,0.0,0.0
1092,272.75,41.4706,44.8126,143.813,99.4342,96.5699,0.00392846,0.268575,20.7582,-249.305,0.26233,0.0,0.0
1104,275.75,41.4888,44.7197,146.873,99.4451,96.3638,0.00377125,0.265649,20.762,-249.585,0.282489,0.0,0.0
1116,278.75,41.377,44.8593,145.256,99.4616,96.4582,0.00355749,0.262469,20.7658,-249.835,0.275193,0.0,0.0
1128,281.75,41.1194,44.779,148.25,99.4934,95.9398,0.00336913,0.261429,20.7677,-250.075,0.326437,0.0,0.0
1140,284.75,41.1426,44.6624,148.157,99.5007,96.2534,0.00319948,0.25987,20.7704,-250.305,0.2978,0.0,0.0
1152,287.75,40.8952,44.2542,146.244,99.518,96.1484,0.00301316,0.257107,20.7732,-250.556,0.309156,0.0,0.0
1164,290.75,40.6071,44.0544,143.638,99.5321,95.5868,0.00301672,0.255143,20.778,-250.806,0.363008,0.0,0.0
1176,293.75,40.2274,43.6724,146.018,99.5527,96.2627,0.00328032,0.250241,20.7824,-251.046,0.301622,0.0,0.0
1188,296.75,40.2446,43.5222,145.261,99.5813,96.6178,0.00367209,0.247093,20.7869,-251.296,0.271155,0.0,0.0
1200,299.75,39.9622,43.1346,148.792,99.5708,96.3422,0.00362473,0.246007,20.7889,-251.527,0.295841,0.0,0.0
1212,302.75,39.834,43.1336,146.555,99.5785,96.181,0.00348456,0.243516,20.7925,-251.737,0.311565,0.0,0.0
1224,305.75,39.7212,42.4886,146.741,99.5829,96.0358,0.00336571,0.239875,20.7966,-251.967,0.325521,0.0,0.0
1236,308.75,39.2766,42.7303,147.495,99.5837,96.5505,0.00334959,0.236927,20.7994,-252.217,0.277626,0.0,0.0
1248,311.75,38.8673,42.3358,148.539,99.5853,95.9707,0.00342276,0.235024,20.8021,-252.437,0.331832,0.0,0.0
1260,314.75,39.7991,41.6946,144.184,99.6022,96.3198,0.00341132,0.233388,20.8042,-252.658,0.300764,0.0,0.0
1272,317.75,39.2172,41.8466,142.591,99.603,96.0743,0.00330894,0.230493,20.8078,-252.878,0.323738,0.0,0.0
1284,320.75,38.5154,41.9208,147.784,99.6167,96.377,0.00335943,0.228433,20.811,-253.078,0.296749,0.0,0.0
1296,323.75,38.1876,41.1344,143.98,99.6091,97.4799,0.00353821,0.226226,20.8128,-253.308,0.193931,0.0,0.0
1308,326.75,38.2947,41.5285,145.975,99.6119,96.3033,0.00353172,0.224371,20.8149,-253.558,0.303173,0.0,0.0
1320,329.75,38.4931,40.6643,147.369,99.5869,96.2449,0.00358291,0.22273,20.8158,-253.729,0.306366,0.0,0.0
1332,332.75,37.3127,40.8813,145.838,99.5914,96.159,0.00371098,0.220081,20.8189,-253.939,0.314781,0.0,0.0
1344,335.75,38.1127,40.7415,145.293,99.5615,96.8747,0.00377018,0.217406,20.8216,-254.149,0.245542,0.0,0.0
1356,338.75,37.8817,40.4085,147.665,99.5531,96.8781,0.00376873,0.216911,20.8215,-254.359,0.244465,0.0,0.0
1368,341.75,37.2432,40.422,145.769,99.5236,97.0042,0.00370957,0.216619,20.8195,-254.579,0.230136,0.0,0.0
1380,344.75,36.9797,39.9368,151.438,99.5051,97.0203,0.00368785,0.215492,20.8202,-254.77,0.226975,0.0,0.0
1392,347.75,36.5014,40.149,151.507,99.4789,96.4112,0.00374185,0.215529,20.8204,-254.97,0.28113,0.0,0.0
1404,350.75,36.7671,38.7158,150.138,99.4418,95.7857,0.00384106,0.215885,20.8204,-255.19,0.336205,0.0,0.0
1416,353.75,36.4877,39.1476,147.105,99.4084,96.1107,0.0039092,0.214853,20.8219,-255.41,0.30278,0.0,0.0
1428,356.75,36.328,38.9877,143.527,99.3532,96.2267,0.00398539,0.213853,20.8242,-255.61,0.286972,0.0,0.0
1440,359.75,36.5672,38.9822,147.388,99.3237,96.4489,0.00377053,0.210995,20.8269,-255.81,0.263614,0.0,0.0
1452,362.75,36.2798,38.9144,152.241,99.2951,96.0765,0.00355062,0.208635,20.8294,-255.981,0.295753,0.0,0.0
1464,365.75,35.9339,38.4471,152.335,99.2399,96.7672,0.00342262,0.206805,20.8312,-256.211,0.226468,0.0,0.0
1476,368.75,35.8528,38.3557,146.783,99.1895,95.9292,0.0034821,0.204245,20.8352,-256.411,0.299972,0.0,0.0
1488,371.75,35.5189,38.3292,146.414,99.1343,96.0989,0.00384108,0.201602,20.8382,-256.591,0.279111,0.0,0.0
1500,374.75,35.3861,38.0223,147.028,99.0759,96.3964,0.00403385,0.199925,20.841,-256.781,0.246073,0.0,0.0
1512,377.75,35.0549,37.5199,150.763,99.0368,96.2927,0.00395992,0.197771,20.8437,-256.971,0.252191,0.0,0.0
1524,380.75,35.5231,37.9642,148.157,98.9812,95.7696,0.00383991,0.195168,20.8468,-257.162,0.296038,0.0,0.0
1536,383.75,35.0348,37.5004,149.292,98.9155,96.1349,0.00377417,0.19252,20.8496,-257.342,0.255916,0.0,0.0
1548,386.75,35.4332,37.5553,149.149,98.8506,95.8395,0.00394029,0.191376,20.852,-257.512,0.277649,0.0,0.0
1560,389.75,34.1597,36.4667,154.6,98.8071,96.0219,0.00418609,0.189951,20.8536,-257.682,0.256631,0.0,0.0
1572,392.75,34.8567,37.2871,150.223,98.7478,96.167,0.0042277,0.188702,20.8547,-257.872,0.237689,0.0,0.0
1584,395.75,34.8662,36.5354,148.627,98.6979,95.7671,0.00430657,0.187192,20.8578,-258.062,0.27055,0.0,0.0
1596,398.75,33.9885,36.6088,147.927,98.6463,96.2132,0.00449078,0.185327,20.8589,-258.243,0.224149,0.0,0.0
1608,401.75,34.6998,36.7114,153.205,98.5915,96.1383,0.00451175,0.184522,20.8605,-258.433,0.226151,0.0,0.0
1620,404.75,34.2424,36.2802,148.482,98.5439,96.2373,0.00427019,0.183131,20.8627,-258.583,0.21258,0.0,0.0
1632,407.75,33.4568,36.3563,148.481,98.4951,96.5162,0.0042242,0.181514,20.8637,-258.743,0.182163,0.0,0.0
1644,410.75,33.1484,36.0353,151.304,98.4488,95.3125,0.00432044,0.180658,20.866,-258.923,0.290573,0.0,0.0
1656,413.75,33.7362,36.0483,148.724,98.4016,96.2944,0.00447158,0.179569,20.867,-259.073,0.194286,0.0,0.0
1668,416.75,33.3873,34.9751,148.304,98.3549,96.0401,0.00453666,0.179114,20.8672,-259.274,0.21376,0.0,0.0
1680,419.75,32.8329,35.5281,148.236,98.3226,95.8445,0.00468262,0.178546,20.8685,-259.464,0.229108,0.0,0.0
1692,422.75,33.6833,34.08,148.975,98.2848,95.3379,0.00474799,0.177542,20.8693,-259.614,0.273215,0.0,0.0
1704,425.75,33.1728,35.2559,146.26,98.2622,95.878,0.00471865,0.177035,20.8702,-259.794,0.220458,0.0,0.0
1716,428.75,33.0223,34.5506,143.023,98.2485,95.0573,0.00477661,0.175985,20.8715,-259.974,0.296357,0.0,0.0
1728,431.75,32.8702,34.2583,150.065,98.2348,95.2939,0.00471294,0.175698,20.8721,-260.104,0.272796,0.0,0.0
1740,434.75,32.5052,34.3186,151.588,98.2231,95.5534,0.00471506,0.17481,20.8735,-260.305,0.247326,0.0,0.0
1752,437.75,32.4423,33.9279,150.648,98.2134,95.2795,0.0047736,0.173639,20.8747,-260.455,0.272199,0.0,0.0
1764,440.75,32.433,34.3081,150.093,98.209,95.4175,0.00490663,0.173518,20.8753,-260.605,0.258807,0.0,0.0
1776,443.75,32.5009,33.6886,151.352,98.2275,95.8699,0.00502136,0.173354,20.8755,-260.795,0.218044,0.0,0.0
1788,446.75,32.2044,34.3981,147.334,98.2122,95.3528,0.00515622,0.172658,20.8756,-260.955,0.265193,0.0,0.0
1800,449.75,32.1775,33.6545,148.537,98.2058,95.0874,0.00516213,0.172274,20.8762,-261.095,0.289617,0.0,0.0
1812,452.75,31.8468,33.5963,150.883,98.211,95.4878,0.00513087,0.171201,20.8789,-261.265,0.252384,0.0,0.0
1824,455.75,32.0017,33.7802,151.05,98.2207,95.5352,0.00506978,0.170845,20.879,-261.436,0.248814,0.0,0.0
1836,458.75,31.8682,33.6544,153.586,98.2183,95.8505,0.00513416,0.171495,20.8787,-261.596,0.21902,0.0,0.0
1848,461.75,31.7682,33.5905,149.75,98.2348,95.6697,0.00524431,0.170649,20.8788,-261.766,0.237468,0.0,0.0
1860,464.75,31.8956,33.0512,153.105,98.2352,95.7468,0.00531329,0.169853,20.88,-261.926,0.230282,0.0,0.0
1872,467.75,31.5246,33.0385,149.225,98.2332,96.0456,0.00536024,0.169901,20.8784,-262.096,0.202132,0.0,0.0
1884,470.75,31.7222,33.0353,153.009,98.2432,95.1505,0.00549039,0.170916,20.8779,-262.256,0.287092,0.0,0.0
1896,473.75,31.5351,32.9141,146.893,98.2364,95.6003,0.00554216,0.170607,20.8777,-262.416,0.24413,0.0,0.0
1908,476.75,30.5093,32.2696,156.804,98.2521,96.2982,0.00551753,0.170397,20.8777,-262.607,0.180283,0.0,0.0
1920,479.75,31.1239,32.6604,150.67,98.2541,95.7891,0.00556169,0.169491,20.8794,-262.757,0.228046,0.0,0.0
1932,482.75,31.8642,32.7127,155.257,98.2557,95.6846,0.00550863,0.169636,20.88,-262.907,0.237993,0.0,0.0
1944,485.75,31.1092,32.5487,151.529,98.2594,96.3558,0.00568027,0.169441,20.8801,-263.027,0.175583,0.0,0.0
1956,488.75,31.2124,32.2801,150.022,98.2582,95.059,0.00592092,0.16916,20.8802,-263.227,0.29708,0.0,0.0
1968,491.75,31.2516,32.5848,145.87,98.2646,95.3659,0.0058776,0.168424,20.8802,-263.397,0.268746,0.0,0.0
1980,494.75,30.8178,32.5711,148.936,98.2682,95.8048,0.00593223,0.168124,20.8802,-263.547,0.227867,0.0,0.0
1992,497.75,31.156,32.3019,147.105,98.263,95.5804,0.0058495,0.168573,20.8802,-263.698,0.248427,0.0,0.0
2004,500.75,30.6624,32.302,152.215,98.2711,95.2558,0.00580102,0.168802,20.8798,-263.878,0.279696,0.0,0.0
2016,503.75,30.8688,32.1753,150.542,98.2674,95.6528,0.00573565,0.169064,20.8796,-264.028,0.242038,0.0,0.0
2028,506.75,30.6561,32.4785,145.731,98.2747,96.0379,0.0061845,0.167188,20.8804,-264.168,0.206636,0.0,0.0
2040,509.75,30.5811,32.1023,152.27,98.2759,95.7789,0.00655473,0.163804,20.8844,-264.328,0.230986,0.0,0.0
2052,512.75,30.3577,32.0141,150.079,98.2707,95.7806,0.00654227,0.164481,20.885,-264.488,0.230348,0.0,0.0
2064,515.75,30.4467,32.0823,150.505,98.2739,95.8987,0.00622283,0.166247,20.8832,-264.638,0.219585,0.0,0.0
2076,518.75,30.0506,31.2572,144.895,98.2686,96.3761,0.00588067,0.167538,20.8827,-264.829,0.174538,0.0,0.0
2088,521.75,30.5091,31.8177,152.775,98.2662,95.7366,0.00609515,0.165243,20.8837,-264.969,0.234068,0.0,0.0
2100,524.75,30.275,31.5252,150.968,98.2771,95.9804,0.00621135,0.165512,20.8852,-265.109,0.212237,0.0,0.0
2112,527.75,30.2252,31.6511,153.242,98.2775,96.2982,0.00617418,0.165583,20.8845,-265.299,0.182602,0.0,0.0
2124,530.75,30.2368,31.7391,152.835,98.2993,95.6642,0.00624603,0.166499,20.8836,-265.479,0.243874,0.0,0.0
2136,533.75,30.184,31.7945,151.837,98.3057,95.7887,0.00630178,0.167695,20.8821,-265.639,0.232797,0.0,0.0
2148,536.75,30.1961,31.4059,154.035,98.3106,95.9419,0.00623314,0.168059,20.8817,-265.769,0.218894,0.0,0.0
2160,539.75,30.5128,31.2497,154.634,98.3178,96.0007,0.00614071,0.169131,20.8816,-265.93,0.214055,0.0,0.0
2172,542.75,30.5765,31.7606,150.497,98.342,95.2867,0.00613851,0.169306,20.8815,-266.11,0.283262,0.0,0.0
2184,545.75,30.152,31.3559,148.121,98.3521,95.7722,0.00614324,0.169391,20.8814,-266.25,0.238575,0.0,0.0
2196,548.75,30.2386,31.4034,149.927,98.3775,96.4015,0.00603005,0.169376,20.881,-266.41,0.182107,0.0,0.0
2208,551.75,30.0267,31.4002,146.643,98.4093,96.567,0.00587542,0.170066,20.8796,-266.59,0.169617,0.0,0.0
2220,554.75,30.3419,31.7377,153.099,98.419,95.5051,0.00611755,0.170849,20.8788,-266.73,0.269739,0.0,0.0
2232,557.75,30.2908,31.3686,152.86,98.4423,95.9757,0.00614843,0.170985,20.8782,-266.89,0.22775,0.0,0.0
2244,560.75,30.3275,31.3859,151.038,98.4762,96.7113,0.00586228,0.172127,20.8773,-267.031,0.162312,0.0,0.0
2256,563.75,30.1326,31.6458,148.943,98.5169,96.0659,0.00570895,0.172926,20.8767,-267.211,0.22612,0.0,0.0
2268,566.75,30.3896,31.2257,151.297,98.5701,96.7739,0.00578375,0.17391,20.8753,-267.351,0.165055,0.0,0.0
2280,569.75,30.3206,31.4794,152.984,98.5947,96.6021,0.00572239,0.173646,20.8767,-267.531,0.183244,0.0,0.0
2292,572.75,30.3168,31.3467,150.49,98.6467,96.9767,0.00594523,0.174596,20.8759,-267.671,0.153244,0.0,0.0
2304,575.75,30.0595,31.8215,151.988,98.6805,96.7515,0.00609694,0.175358,20.8748,-267.831,0.177186,0.0,0.0
2316,578.75,29.7445,31.8023,145.212,98.7273,96.2081,0.00590601,0.175878,20.8729,-268.011,0.231991,0.0,0.0
2328,581.75,30.2928,31.4156,152.124,98.7571,96.5213,0.0059341,0.178074,20.871,-268.212,0.205532,0.0,0.0
2340,584.75,30.2718,31.5909,151.325,98.8107,96.8577,0.00605908,0.179237,20.8701,-268.342,0.179168,0.0,0.0
2352,587.75,30.1921,31.5054,150.113,98.8393,96.3511,0.00610366,0.179095,20.8698,-268.542,0.228834,0.0,0.0
2364,590.75,30.0358,31.3265,149.715,98.8736,96.4307,0.00597674,0.179515,20.8698,-268.652,0.224536,0.0,0.0
2376,593.75,30.5884,31.6509,148.81,98.9163,96.1565,0.00585035,0.180512,20.8685,-268.822,0.253975,0.0,0.0
2388,596.75,30.3968,31.9049,147.869,98.9453,96.2788,0.00561587,0.183031,20.8655,-269.002,0.245198,0.0,0.0
2400,599.75,30.7641,31.8715,150.548,98.9727,96.0803,0.00542257,0.184742,20.8635,-269.142,0.266206,0.0,0.0
2412,602.75,30.5475,31.8335,150.717,99.0042,96.5881,0.00525771,0.18521,20.8618,-269.323,0.221739,0.0,0.0
2424,605.75,30.6047,32.1546,151.773,99.0291,96.8273,0.00522036,0.185684,20.8603,-269.483,0.201812,0.0,0.0
2436,608.75,30.6426,32.0769,154.997,99.0622,96.9568,0.00513142,0.186984,20.8589,-269.703,0.192811,0.0,0.0
2448,611.75,30.7141,31.8933,143.852,99.0719,96.7227,0.0050109,0.188231,20.8578,-269.853,0.215379,0.0,0.0
2460,614.75,30.6869,32.2848,155.31,99.086,96.3312,0.0046607,0.189972,20.8569,-270.023,0.253057,0.0,0.0
2472,617.75,30.958,31.8085,146.862,99.1037,96.958,0.00425386,0.191423,20.854,-270.183,0.196453,0.0,0.0
2484,620.75,30.7068,31.6728,147.786,99.1186,97.0922,0.0042898,0.192863,20.8517,-270.314,0.185393,0.0,0.0
2496,623.75,30.9718,32.4193,148.173,99.1392,97.0677,0.00446239,0.194452,20.8508,-270.534,0.189523,0.0,0.0
2508,626.75,31.0642,32.6854,149.539,99.1545,96.8044,0.00429217,0.194664,20.8489,-270.684,0.215284,0.0,0.0
2520,629.75,31.4472,32.4234,150.407,99.1823,96.6923,0.00424227,0.195053,20.8479,-270.904,0.228205,0.0,0.0
2532,632.75,31.1095,32.6812,145.822,99.2069,96.247,0.00419088,0.196963,20.8458,-271.084,0.271852,0.0,0.0
2544,635.75,31.3337,32.4359,148.756,99.2302,96.3283,0.00424248,0.198795,20.8425,-271.224,0.266392,0.0,0.0
2556,638.75,31.4472,32.6421,146.938,99.2705,96.564,0.00445271,0.199613,20.8421,-271.374,0.248099,0.0,0.0
2568,641.75,31.2205,33.1321,145.149,99.2955,96.41,0.00439832,0.199147,20.8439,-271.585,0.264687,0.0,0.0
2580,644.75,31.815,32.8449,150.642,99.3407,96.6901,0.00441821,0.199356,20.8445,-271.755,0.242722,0.0,0.0
2592,647.75,31.6262,32.7595,146.986,99.3725,97.4405,0.00417884,0.199998,20.8447,-271.875,0.176214,0.0,0.0
2604,650.75,31.3423,32.966,149.467,99.4164,96.7299,0.00408151,0.200953,20.8432,-272.085,0.245874,0.0,0.0
2616,653.75,30.9236,32.0002,151.213,99.4596,97.3152,0.00404936,0.201997,20.8412,-272.295,0.19562,0.0,0.0
2628,656.75,31.9906,33.1851,146.705,99.4938,96.6944,0.00387155,0.20383,20.8388,-272.455,0.256155,0.0,0.0
2640,659.75,31.6327,32.6803,154.003,99.5321,96.9627,0.00381103,0.204457,20.8381,-272.656,0.234738,0.0,0.0
2652,662.75,31.9021,33.2645,148.03,99.5563,96.7109,0.00379781,0.204166,20.8383,-272.776,0.260257,0.0,0.0
2664,665.75,31.943,33.2543,149.637,99.603,96.8514,0.00362293,0.205392,20.8384,-272.976,0.251441,0.0,0.0
2676,668.75,31.8352,33.1091,146.06,99.6405,97.0224,0.00324837,0.206511,20.8377,-273.146,0.238986,0.0,0.0
2688,671.75,32.1949,33.4985,150.625,99.6885,97.0169,0.00327465,0.207459,20.836,-273.326,0.243814,0.0,0.0
2700,674.75,32.0159,33.6399,147.788,99.7405,96.3291,0.0034541,0.208155,20.8344,-273.506,0.312344,0.0,0.0
2712,677.75,32.3837,33.6375,146.041,99.7997,96.4413,0.00341512,0.209123,20.8332,-273.697,0.307229,0.0,0.0
2724,680.75,32.0678,34.2324,151.695,99.8384,97.6881,0.00334879,0.210421,20.832,-273.867,0.195418,0.0,0.0
2736,683.75,32.246,33.6631,146.624,99.8819,96.8226,0.00315327,0.210765,20.8309,-274.067,0.279204,0.0,0.0
2748,686.75,32.4008,33.7592,145.887,99.9158,97.3775,0.00302247,0.211987,20.8289,-274.247,0.230958,0.0,0.0
2760,689.75,32.6489,33.7289,148.707,99.9589,96.6601,0.00305445,0.212902,20.8269,-274.387,0.301195,0.0,0.0
2772,692.75,32.7959,34.0554,153.629,99.9831,96.9991,0.00269707,0.214007,20.8253,-274.587,0.271944,0.0,0.0
2784,695.75,32.8471,34.1903,146.572,100.01,97.6399,0.00246084,0.214908,20.8239,-274.768,0.21531,0.0,0.0
2796,698.75,33.0832,34.1044,151.819,100.05,98.2294,0.00240179,0.215587,20.8241,-274.988,0.164824,0.0,0.0
2808,701.75,32.5911,34.3281,146.147,100.077,97.8925,0.00229959,0.217087,20.8225,-275.178,0.198044,0.0,0.0
2820,704.75,32.8218,34.6199,146.534,100.107,97.1976,0.00241102,0.217548,20.822,-275.338,0.264732,0.0,0.0
2832,707.75,33.1158,34.2908,145.214,100.129,97.573,0.00247531,0.218492,20.8217,-275.508,0.232049,0.0,0.0
2844,710.75,33.0783,34.6531,150.318,100.15,97.2577,0.00234487,0.219695,20.8215,-275.698,0.26305,0.0,0.0
2856,713.75,32.8131,34.7844,144.486,100.187,97.2251,0.00219781,0.220987,20.8198,-275.919,0.269308,0.0,0.0
2868,716.75,33.8984,34.4208,146.671,100.204,97.5002,0.0022232,0.221398,20.8182,-276.079,0.245537,0.0,0.0
2880,719.75,32.9171,35.0376,144.935,100.215,97.0275,0.00206502,0.221782,20.8178,-276.289,0.290098,0.0,0.0
2892,722.75,33.0377,35.1715,149.24,100.258,97.2577,0.00191491,0.22235,20.8164,-276.459,0.272688,0.0,0.0
2904,725.75,33.4739,34.3524,147.41,100.271,98.1223,0.00192812,0.224006,20.8145,-276.669,0.194403,0.0,0.0
2916,728.75,33.664,34.8805,144.827,100.272,97.1388,0.00195468,0.224934,20.8135,-276.859,0.284932,0.0,0.0
2928,731.75,33.4786,35.0857,147.08,100.296,97.4532,0.00219219,0.226115,20.8118,-277.04,0.258054,0.0,0.0
2940,734.75,34.0515,35.456,146.381,100.289,97.5429,0.00231022,0.226875,20.8103,-277.24,0.249181,0.0,0.0
2952,737.75,33.9077,35.5634,146.923,100.289,97.6792,0.00206172,0.226486,20.8115,-277.44,0.23665,0.0,0.0
2964,740.75,33.4939,35.5537,147.922,100.295,98.2413,0.00191971,0.228266,20.8095,-277.61,0.185696,0.0,0.0
2976,743.75,33.6927,35.8283,147.574,100.282,97.5781,0.00193958,0.229959,20.808,-277.82,0.245336,0.0,0.0
2988,746.75,33.6475,35.5634,147.36,100.284,97.5383,0.00186705,0.230866,20.806,-278.05,0.24914,0.0,0.0
3000,749.75,34.3072,35.2375,145.112,100.274,97.6191,0.00186952,0.23231,20.8038,-278.221,0.240838,0.0,0.0
3012,752.75,34.216,35.7593,149.025,100.282,97.9873,0.00197775,0.233786,20.803,-278.421,0.207735,0.0,0.0
3024,755.75,34.0549,35.7685,147.702,100.266,97.8426,0.0021015,0.234705,20.8039,-278.621,0.219596,0.0,0.0
3036,758.75,34.2381,35.8438,149.32,100.264,97.3783,0.00219972,0.234657,20.8043,-278.811,0.262104,0.0,0.0
3048,761.75,33.7112,35.3827,152.339,100.242,97.7605,0.00212339,0.23666,20.8024,-279.011,0.225001,0.0,0.0
3060,764.75,34.0444,35.9754,153.239,100.229,97.8764,0.00202477,0.238153,20.8005,-279.212,0.213207,0.0,0.0
3072,767.75,34.7767,36.1893,145.912,100.2,97.7232,0.00200076,0.240048,20.8,-279.452,0.224632,0.0,0.0
3084,770.75,34.7944,36.1665,142.987,100.186,96.8328,0.00204942,0.240507,20.7983,-279.652,0.305526,0.0,0.0
3096,773.75,34.4046,36.7599,150.2,100.156,97.3851,0.00203037,0.242181,20.7969,-279.862,0.251807,0.0,0.0
3108,776.75,35.3258,36.3942,145.333,100.13,97.0308,0.00192375,0.243403,20.7937,-280.052,0.282167,0.0,0.0
3120,779.75,35.4679,36.3866,148.853,100.089,97.289,0.00199297,0.245312,20.7906,-280.262,0.254633,0.0,0.0
3132,782.75,34.8424,36.8205,143.044,100.055,96.6749,0.00184902,0.246825,20.7879,-280.463,0.308428,0.0,0.0
3144,785.75,35.9449,36.9172,145.398,100.016,96.8916,0.00169787,0.24877,20.7861,-280.693,0.284862,0.0,0.0
3156,788.75,35.612,37.0711,146.119,99.9855,97.2374,0.00180723,0.250969,20.7836,-280.913,0.25014,0.0,0.0
3168,791.75,35.6081,37.5553,142.665,99.944,96.396,0.00184324,0.253047,20.7814,-281.123,0.324412,0.0,0.0
3180,794.75,35.8596,37.1019,145.383,99.9118,96.2458,0.00187687,0.255444,20.7766,-281.323,0.335516,0.0,0.0
3192,797.75,35.6612,37.2051,147.923,99.8771,96.9352,0.00185992,0.257855,20.7732,-281.554,0.268339,0.0,0.0
3204,800.75,35.8798,37.3231,144.894,99.8549,96.7807,0.00195357,0.259622,20.7725,-281.794,0.280661,0.0,0.0
3216,803.75,36.0358,38.0551,146.141,99.8146,95.9279,0.0019868,0.261414,20.7716,-282.024,0.356475,0.0,0.0
3228,806.75,36.4649,38.1437,147.572,99.7925,97.1493,0.0018873,0.263423,20.7697,-282.274,0.240924,0.0,0.0
3240,809.75,36.1579,38.4081,143.91,99.7634,96.823,0.00186199,0.264792,20.7678,-282.464,0.26851,0.0,0.0
3252,812.75,36.9761,37.673,147.214,99.7376,96.5941,0.00179512,0.266798,20.7648,-282.705,0.287439,0.0,0.0
3264,815.75,37.2037,38.5179,152.093,99.7187,96.1679,0.00185423,0.269539,20.7616,-282.945,0.325421,0.0,0.0
3276,818.75,36.6469,38.0448,145.597,99.7002,96.4256,0.00203403,0.272249,20.7576,-283.175,0.299731,0.0,0.0
3288,821.75,37.2998,38.8117,143.442,99.6828,96.3198,0.00208761,0.274501,20.7555,-283.385,0.308024,0.0,0.0
3300,824.75,36.5533,38.8873,147.169,99.6522,96.5551,0.0020126,0.277814,20.7529,-283.656,0.283366,0.0,0.0
3312,827.75,37.2501,38.7363,145.546,99.6321,96.0274,0.00190817,0.279137,20.7516,-283.896,0.330743,0.0,0.0
3324,830.75,37.1751,39.9506,147.809,99.6155,96.046,0.00203912,0.282337,20.7473,-284.156,0.327514,0.0,0.0
3336,833.75,37.274,39.7426,149.33,99.5942,95.7531,0.00210064,0.285741,20.7432,-284.416,0.352999,0.0,0.0
3348,836.75,37.9041,39.5732,143.516,99.5692,95.8835,0.00186591,0.287393,20.7408,-284.656,0.338536,0.0,0.0
3360,839.75,37.3822,39.4847,142.14,99.5519,95.9905,0.00170782,0.289726,20.7382,-284.907,0.326958,0.0,0.0
3372,842.75,38.1023,40.2772,143.474,99.5345,97.2374,0.00163863,0.293318,20.7346,-285.157,0.209567,0.0,0.0
3384,845.75,38.5812,40.398,143.397,99.5257,95.2986,0.00176639,0.295864,20.7321,-285.437,0.38953,0.0,0.0
3396,848.75,38.3867,40.9212,141.506,99.5027,95.919,0.00209997,0.297429,20.73,-285.687,0.329214,0.0,0.0
3408,851.75,38.7291,40.6022,142.52,99.5402,95.9275,0.00236223,0.301011,20.7259,-285.938,0.331801,0.0,0.0
3420,854.75,38.9928,40.69,142.306,99.6059,96.7883,0.00253099,0.304824,20.7215,-286.238,0.25754,0.0,0.0
3432,857.75,38.6627,41.3969,142.28,99.6832,95.9385,0.00249349,0.306771,20.7183,-286.498,0.343663,0.0,0.0
3444,860.75,39.2682,41.4467,141.831,99.7421,95.9804,0.00229974,0.310569,20.7135,-286.788,0.34504,0.0,0.0
3456,863.75,39.3326,41.8187,143.089,99.8243,96.3122,0.00215502,0.31473,20.7094,-287.039,0.321461,0.0,0.0
3468,866.75,39.9329,42.0764,144.615,99.8884,95.4823,0.00225022,0.317807,20.7041,-287.319,0.404897,0.0,0.0
3480,869.75,39.9243,42.4273,143.397,99.923,96.3236,0.00249123,0.321236,20.7009,-287.599,0.32927,0.0,0.0
3492,872.75,39.9358,42.929,141.141,99.9783,96.0697,0.00257262,0.324035,20.6977,-287.899,0.357921,0.0,0.0
3504,875.75,40.637,43.1402,142.441,100.006,96.0176,0.00238283,0.328202,20.6929,-288.15,0.365245,0.0,0.0
3516,878.75,40.6604,43.4632,142.669,100.034,94.9617,0.00226181,0.329789,20.6898,-288.48,0.467026,0.0,0.0
3528,881.75,40.9361,43.0389,143.425,100.057,95.5288,0.00235995,0.332845,20.6865,-288.77,0.415682,0.0,0.0
3540,884.75,41.4926,43.4433,145.33,100.076,95.8936,0.0025113,0.335798,20.6835,-289.07,0.383171,0.0,0.0
3552,887.75,41.7289,43.9241,142.953,100.095,95.6012,0.00250944,0.338116,20.6798,-289.371,0.412284,0.0,0.0
3564,890.75,40.8862,43.6798,139.553,100.101,94.7933,0.00241974,0.342661,20.6745,-289.681,0.488961,0.0,0.0
3576,893.75,42.014,44.8334,145.235,100.098,95.8348,0.00235892,0.346342,20.6709,-290.001,0.390595,0.0,0.0
3588,896.75,42.2223,44.6213,137.44,100.099,95.4751,0.00239981,0.349671,20.6676,-290.292,0.424456,0.0,0.0
3600,899.75,42.3408,44.7304,141.968,100.093,95.1052,0.00266144,0.352016,20.6643,-290.592,0.458791,0.0,0.0
3612,902.75,42.0368,44.6143,140.928,100.093,95.2135,0.0030085,0.35541,20.6598,-290.912,0.448536,0.0,0.0
3624,905.75,43.139,45.4045,142.348,100.091,95.255,0.00301704,0.359552,20.6548,-291.222,0.444447,0.0,0.0
3636,908.75,43.257,45.946,142.327,100.078,95.0849,0.00284407,0.360858,20.6519,-291.553,0.459371,0.0,0.0
3648,911.75,43.577,46.113,138.791,100.072,95.2008,0.0025566,0.363492,20.6485,-291.883,0.44789,0.0,0.0
3660,914.75,43.676,46.536,137.091,100.065,94.5634,0.0024885,0.366809,20.6434,-292.203,0.50753,0.0,0.0
3672,917.75,44.1814,46.3012,139.53,100.055,94.7882,0.00274054,0.369914,20.6408,-292.534,0.485359,0.0,0.0
3684,920.75,44.5085,46.8072,142.591,100.039,94.6836,0.00306942,0.372278,20.6377,-292.874,0.493816,0.0,0.0
3696,923.75,45.0001,46.8123,140.015,100.028,94.7272,0.00302348,0.375516,20.6332,-293.194,0.488708,0.0,0.0
3708,926.75,44.6158,47.4497,140.802,100.019,95.0688,0.00287823,0.378504,20.6287,-293.524,0.455538,0.0,0.0
3720,929.75,44.5224,47.2895,139.876,99.9976,95.0455,0.00300271,0.381454,20.624,-293.865,0.455855,0.0,0.0
3732,932.75,45.1892,48.1971,137.232,99.9936,94.0446,0.003223,0.383921,20.6211,-294.215,0.550513,0.0,0.0
3744,935.75,45.3171,48.0416,139.766,99.9779,94.8745,0.00337303,0.386637,20.6177,-294.575,0.470243,0.0,0.0
3756,938.75,45.4803,48.4309,138.212,99.9492,94.3743,0.00360831,0.389589,20.6147,-294.936,0.515123,0.0,0.0
3768,941.75,46.2011,48.4303,137.028,99.9384,94.1322,0.00366755,0.392387,20.6121,-295.266,0.537198,0.0,0.0
3780,944.75,45.9151,49.3261,137.058,99.9057,93.5557,0.00360885,0.393844,20.6102,-295.616,0.589396,0.0,0.0
3792,947.75,46.2397,49.3352,140.221,99.8852,94.1318,0.00352951,0.396229,20.6072,-295.957,0.53246,0.0,0.0
3804,950.75,46.6515,49.9412,139.647,99.861,94.5101,0.0035652,0.399566,20.6023,-296.307,0.494283,0.0,0.0
3816,953.75,47.1957,50.5269,139.091,99.8211,93.4787,0.00348689,0.400833,20.6002,-296.667,0.589182,0.0,0.0
3828,956.75,47.437,50.6363,138.145,99.8098,93.5786,0.00341834,0.401031,20.5997,-297.028,0.578583,0.0,0.0
3840,959.75,47.5247,50.4121,139.834,99.755,93.7343,0.00347794,0.401931,20.5978,-297.358,0.558728,0.0,0.0
3852,962.75,47.2813,51.005,138.083,99.734,93.7246,0.00368622,0.402602,20.5979,-297.708,0.557774,0.0,0.0
3864,965.75,48.14,51.0355,143.552,99.6865,94.5994,0.00371524,0.402722,20.5975,-298.059,0.470109,0.0,0.0
3876,968.75,48.284,51.594,138.723,99.6611,93.262,0.00347599,0.404086,20.597,-298.429,0.595615,0.0,0.0
3888,971.75,48.5677,51.7974,137.952,99.6309,93.422,0.00339601,0.402314,20.5974,-298.779,0.577509,0.0,0.0
3900,974.75,48.8507,51.6457,139.79,99.6228,93.6531,0.00346892,0.401629,20.5986,-299.129,0.55461,0.0,0.0
3912,977.75,48.3975,52.2341,138.067,99.6002,92.4723,0.0036342,0.400999,20.5989,-299.45,0.666457,0.0,0.0
3924,980.75,48.3254,52.5577,138.572,99.5857,93.0441,0.00382439,0.399868,20.599,-299.81,0.609824,0.0,0.0
3936,983.75,49.2976,51.7983,145.322,99.5696,92.5392,0.00403681,0.399744,20.599,-300.13,0.657208,0.0,0.0
3948,986.75,49.1485,51.7082,131.758,99.5603,93.1981,0.00406166,0.399116,20.5996,-300.491,0.592688,0.0,0.0
3960,989.75,49.284,52.2936,140.361,99.5446,93.9002,0.00390156,0.397727,20.602,-300.841,0.523907,0.0,0.0
3972,992.75,49.4918,53.1032,137.843,99.5091,92.9188,0.00394913,0.395769,20.6046,-301.191,0.615013,0.0,0.0
3984,995.75,49.2732,53.0012,141.665,99.4975,93.6142,0.0039096,0.394201,20.6065,-301.522,0.547043,0.0,0.0
3996,998.75,49.2375,52.9745,140.292,99.4624,93.2781,0.00381383,0.39123,20.6099,-301.862,0.576155,0.0,0.0
4008,1001.75,49.5074,52.9845,136.8,99.4406,93.0314,0.00377856,0.388953,20.6124,-302.192,0.597963,0.0,0.0
4020,1004.75,49.3834,53.1086,138.681,99.4068,93.2608,0.00360791,0.387132,20.6143,-302.513,0.572805,0.0,0.0
4032,1007.75,49.7025,53.0111,136.201,99.3729,93.2625,0.00322308,0.386511,20.6157,-302.883,0.569585,0.0,0.0
4044,1010.75,49.5825,52.9974,139.852,99.3181,94.0814,0.00310505,0.385357,20.6159,-303.173,0.486165,0.0,0.0
4056,1013.75,49.4794,53.0817,139.209,99.3181,93.2544,0.00325565,0.384952,20.6153,-303.493,0.565407,0.0,0.0
4068,1016.75,49.7746,52.9915,140.107,99.3056,94.1686,0.00358522,0.381675,20.6168,-303.834,0.476723,0.0,0.0
4080,1019.75,49.6864,53.2811,142.95,99.3205,93.3725,0.00369468,0.381424,20.6172,-304.164,0.554268,0.0,0.0
4092,1022.75,49.3582,52.9237,141.545,99.3056,93.651,0.003528,0.381759,20.6173,-304.464,0.526192,0.0,0.0
4104,1025.75,49.6582,53.0785,138.741,99.3125,93.2472,0.00328252,0.38085,20.618,-304.805,0.565589,0.0,0.0
4116,1028.75,49.6468,53.327,140.55,99.3221,93.7839,0.00328667,0.379728,20.6192,-305.145,0.514959,0.0,0.0
4128,1031.75,48.7414,52.2067,136.255,99.3278,93.8173,0.0033486,0.380232,20.6188,-305.445,0.512268,0.0,0.0
4140,1034.75,49.8727,53.6146,137.713,99.3507,92.9472,0.00330984,0.381858,20.6207,-305.765,0.597976,0.0,0.0
4152,1037.75,49.3338,52.7874,141.985,99.3306,94.0344,0.00319426,0.380239,20.6214,-306.066,0.491778,0.0,0.0
4164,1040.75,49.3408,53.1792,144.915,99.335,94.2354,0.0033874,0.379811,20.6216,-306.376,0.473011,0.0,0.0
4176,1043.75,49.5232,53.1772,142.585,99.3475,93.9371,0.00342837,0.380064,20.6216,-306.706,0.502603,0.0,0.0
4188,1046.75,50.0303,53.0581,139.193,99.356,94.3768,0.00334261,0.380125,20.6217,-307.027,0.46145,0.0,0.0
4200,1049.75,49.7708,53.1736,141.128,99.3483,94.0353,0.0033248,0.379271,20.6227,-307.357,0.493299,0.0,0.0
4212,1052.75,49.6584,53.0965,141.779,99.3495,93.2701,0.00314315,0.378551,20.6243,-307.657,0.56674,0.0,0.0
4224,1055.75,49.7881,53.4107,140.411,99.3415,93.8186,0.00304399,0.377471,20.6249,-307.967,0.513386,0.0,0.0
4236,1058.75,49.7083,53.4299,138.717,99.335,93.855,0.00312644,0.376566,20.6236,-308.238,0.509321,0.0,0.0
4248,1061.75,49.6075,52.9011,141.069,99.325,94.1208,0.0032176,0.378312,20.6217,-308.568,0.48303,0.0,0.0
4260,1064.75,49.5486,53.0914,139.178,99.3181,93.1321,0.00320219,0.377391,20.622,-308.878,0.577186,0.0,0.0
4272,1067.75,49.5776,53.0484,140.184,99.3157,93.2933,0.00332497,0.376125,20.6239,-309.179,0.561442,0.0,0.0
4284,1070.75,49.3363,52.4986,140.695,99.3121,93.7881,0.00343268,0.375552,20.623,-309.439,0.513642,0.0,0.0
4296,1073.75,49.7621,53.137,138.295,99.3161,92.9797,0.00351925,0.375232,20.6226,-309.769,0.5917,0.0,0.0
4308,1076.75,49.4086,53.0535,146.541,99.4015,94.2799,0.00359719,0.373239,20.6239,-310.049,0.474786,0.0,0.0
4320,1079.75,49.6363,53.1218,138.464,99.4688,92.708,0.00360246,0.372837,20.6245,-310.34,0.631758,0.0,0.0
4332,1082.75,49.6298,53.1848,140.347,99.5805,92.5519,0.00350611,0.373705,20.6238,-310.64,0.656958,0.0,0.0
4344,1085.75,49.7218,53.3975,140.062,99.6965,93.8575,0.00344034,0.371408,20.6255,-310.97,0.541683,0.0,0.0
4356,1088.75,49.6297,53.4454,142.08,99.7925,92.4249,0.0033021,0.369528,20.6272,-311.24,0.688365,0.0,0.0
4368,1091.75,49.4044,53.1748,140.958,99.8412,94.2062,0.00306805,0.367079,20.6294,-311.551,0.521412,0.0,0.0
4380,1094.75,50.0698,52.9247,140.625,99.9118,93.7255,0.00296629,0.366181,20.63,-311.821,0.573673,0.0,0.0
4392,1097.75,49.7003,52.827,140.08,99.9541,92.9357,0.00308886,0.363013,20.6325,-312.121,0.653418,0.0,0.0
4404,1100.75,49.8499,52.9854,140.136,99.9952,93.6544,0.00318824,0.360259,20.6352,-312.371,0.587974,0.0,0.0
4416,1103.75,49.785,52.6106,140.897,100.035,93.2345,0.00325135,0.35408,20.6427,-312.642,0.631917,0.0,0.0
4428,1106.75,49.9841,52.9618,142.194,100.061,93.1643,0.00307045,0.343372,20.6541,-312.862,0.640997,0.0,0.0
4440,1109.75,48.6505,51.9438,142.138,100.087,94.0712,0.00278953,0.331253,20.6674,-313.102,0.556357,0.0,0.0
4452,1112.75,49.2654,52.3357,139.984,100.094,95.1665,0.00266415,0.315518,20.687,-313.312,0.45311,0.0,0.0
4464,1115.75,48.4714,52.1277,141.111,100.088,95.1365,0.0028942,0.299711,20.7049,-313.512,0.455366,0.0,0.0
4476,1118.75,48.6292,51.7451,142.766,100.061,95.8031,0.00310035,0.284926,20.7224,-313.653,0.390278,0.0,0.0
4488,1121.75,48.1995,51.0638,141.011,100.013,96.5585,0.00325194,0.267882,20.7402,-313.823,0.315443,0.0,0.0
4500,1124.75,47.8712,50.528,145.499,99.9218,95.8653,0.00337762,0.24849,20.7595,-313.983,0.371971,0.0,0.0
4512,1127.75,46.9836,50.2476,148.221,99.7755,96.0841,0.0035833,0.23258,20.7766,-314.103,0.338359,0.0,0.0
4524,1130.75,46.4374,49.6198,143.088,99.5809,95.3544,0.00394805,0.220324,20.7928,-314.223,0.389247,0.0,0.0
4536,1133.75,45.6874,49.1778,153.292,99.5337,96.2758,0.00432537,0.207106,20.8101,-314.313,0.29869,0.0,0.0
4548,1136.75,45.079,48.1279,145.895,99.6135,96.3816,0.00474332,0.19609,20.8234,-314.433,0.296025,0.0,0.0
4560,1139.75,44.3512,47.3993,145.986,99.6994,96.4866,0.00522449,0.189085,20.8321,-314.503,0.293987,0.0,0.0
4572,1142.75,44.0212,46.885,147.997,99.8199,96.7312,0.00591098,0.183144,20.8394,-314.603,0.282103,0.0,0.0
4584,1145.75,43.2938,46.0199,147.743,99.9283,97.5831,0.00649725,0.177039,20.8476,-314.694,0.213143,0.0,0.0
4596,1148.75,42.7844,45.4064,144.732,100.057,97.8477,0.00677194,0.171939,20.8527,-314.754,0.200423,0.0,0.0
4608,1151.75,41.6505,44.5278,150.122,100.142,97.5493,0.00723451,0.167632,20.8599,-314.854,0.235458,0.0,0.0
4620,1154.75,41.4105,44.1895,150.799,100.23,97.8218,0.00785262,0.163987,20.865,-314.914,0.218251,0.0,0.0
4632,1157.75,40.4947,43.5589,150.014,100.284,98.2946,0.00814511,0.160707,20.8697,-315.024,0.179852,0.0,0.0
4644,1160.75,40.4823,42.5356,152.266,100.289,97.6026,0.00868795,0.15621,20.8764,-315.074,0.243655,0.0,0.0
4656,1163.75,39.4761,41.7422,149.562,100.26,97.7427,0.00918675,0.153801,20.8796,-315.114,0.228257,0.0,0.0
4668,1166.75,38.5554,41.4104,152.289,100.183,97.2044,0.00960383,0.151898,20.8823,-315.184,0.270934,0.0,0.0
4680,1169.75,38.6353,40.726,148.007,100.053,97.005,0.00966078,0.150379,20.8844,-315.244,0.277688,0.0,0.0
4692,1172.75,37.3124,39.5593,152.867,99.8763,97.9382,0.00995022,0.148175,20.8866,-315.334,0.175872,0.0,0.0
4704,1175.75,37.3836,39.3869,153.508,99.655,96.8603,0.0104911,0.145604,20.8892,-315.394,0.2553,0.0,0.0
4716,1178.75,36.3731,38.6608,148.788,99.3906,97.6136,0.0111054,0.144123,20.8917,-315.454,0.161921,0.0,0.0
4728,1181.75,36.3751,38.2493,151.32,99.1101,96.6487,0.0112375,0.143765,20.8935,-315.504,0.225721,0.0,0.0
4740,1184.75,35.8951,37.7746,147.96,98.8268,97.1142,0.0112596,0.142432,20.8947,-315.554,0.156898,0.0,0.0
4752,1187.75,35.5575,36.9226,150.484,98.5677,95.6384,0.0116013,0.141167,20.8968,-315.604,0.270771,0.0,0.0
4764,1190.75,35.033,36.6555,151.767,98.3617,95.9592,0.0118713,0.14061,20.8982,-315.664,0.221942,0.0,0.0
4776,1193.75,34.2481,35.9718,150.491,98.2207,95.2922,0.0122456,0.139317,20.8998,-315.734,0.271667,0.0,0.0
4788,1196.75,34.0863,35.7731,150.02,98.2038,95.605,0.0123731,0.138352,20.9012,-315.774,0.240709,0.0,0.0
4800,1199.75,33.7688,35.2169,150.429,98.2634,94.8923,0.0123174,0.138555,20.9016,-315.865,0.313317,0.0,0.0
4812,1202.75,33.6414,34.6397,155.543,98.4125,95.936,0.0122576,0.139121,20.9001,-315.915,0.228753,0.0,0.0
4824,1205.75,33.0632,34.2593,149.924,98.6289,96.9716,0.012502,0.138982,20.9013,-315.945,0.1521,0.0,0.0
4836,1208.75,32.663,34.1456,153.578,98.8699,96.7972,0.0128314,0.13831,20.9024,-315.985,0.190158,0.0,0.0
4848,1211.75,31.8868,33.1767,150.185,99.1114,96.8472,0.0128172,0.138295,20.9037,-316.045,0.207418,0.0,0.0
4860,1214.75,31.8757,33.1931,151.342,99.329,96.7265,0.0125415,0.138147,20.9046,-316.085,0.238288,0.0,0.0
4872,1217.75,31.8113,32.8486,152.364,99.5023,96.969,0.0127671,0.135414,20.9065,-316.145,0.231461,0.0,0.0
4884,1220.75,30.692,31.8098,150.995,99.6059,97.2742,0.0135367,0.133019,20.909,-316.215,0.212599,0.0,0.0
4896,1223.75,30.496,31.7067,160.03,99.5881,97.2306,0.0140767,0.131895,20.9113,-316.225,0.215024,0.0,0.0
4908,1226.75,29.881,31.4628,152.004,99.5704,96.9504,0.0142176,0.131575,20.912,-316.295,0.239325,0.0,0.0
4920,1229.75,29.5669,30.714,151.848,99.5265,97.1261,0.0141669,0.132899,20.91,-316.355,0.21912,0.0,0.0
4932,1232.75,29.2676,30.4419,150.555,99.4156,96.9479,0.013905,0.135478,20.9073,-316.395,0.225599,0.0,0.0
4944,1235.75,29.5512,30.2526,149.23,99.3153,97.1976,0.0139018,0.136206,20.9062,-316.455,0.193448,0.0,0.0
4956,1238.75,28.9763,29.9213,151.841,99.4366,96.9703,0.0140267,0.134626,20.908,-316.525,0.225414,0.0,0.0
4968,1241.75,29.093,29.7842,151.784,99.8344,97.515,0.0137974,0.132647,20.9106,-316.565,0.210974,0.0,0.0
4980,1244.75,28.536,29.0305,149.607,100.037,97.038,0.0134342,0.131088,20.9126,-316.575,0.273188,0.0,0.0
4992,1247.75,28.6501,29.6511,149.702,100.102,97.4591,0.0132402,0.131247,20.9131,-316.615,0.240143,0.0,0.0
5004,1250.75,27.5713,27.8631,154.427,99.9525,98.0398,0.0130296,0.132375,20.9132,-316.665,0.173411,0.0,0.0
5016,1253.75,27.6227,28.993,152.862,99.6232,96.8742,0.0130551,0.133227,20.912,-316.715,0.251138,0.0,0.0
5028,1256.75,27.7407,28.4808,152.754,99.6091,97.2441,0.0132272,0.133641,20.9113,-316.765,0.215662,0.0,0.0
5040,1259.75,27.6471,28.303,150.913,99.8203,97.0935,0.0131999,0.133421,20.9119,-316.825,0.248587,0.0,0.0
5052,1262.75,27.3755,28.3988,157.261,100.063,96.8442,0.0130383,0.132585,20.9129,-316.825,0.293484,0.0,0.0
5064,1265.75,27.4128,28.1982,150.89,100.239,97.3982,0.0128224,0.132336,20.9162,-316.875,0.257999,0.0,0.0
5076,1268.75,27.162,27.3683,153.188,100.295,97.0757,0.0127321,0.131707,20.9184,-316.915,0.29278,0.0,0.0
5088,1271.75,26.6443,27.7448,154.537,100.217,97.7152,0.0127223,0.131394,20.919,-316.966,0.226887,0.0,0.0
5100,1274.75,26.9009,27.6492,157.245,99.9686,96.6961,0.0126388,0.130961,20.9192,-317.036,0.298723,0.0,0.0
5112,1277.75,26.9462,27.3513,152.18,99.5966,97.2035,0.012437,0.130312,20.9192,-317.036,0.218287,0.0,0.0
5124,1280.75,26.5907,26.9793,150.124,99.1823,96.4773,0.0124511,0.130694,20.9192,-317.116,0.248184,0.0,0.0
5136,1283.75,26.5804,26.8771,156.139,98.7446,96.1912,0.0123308,0.130459,20.9192,-317.136,0.235145,0.0,0.0
5148,1286.75,26.0352,26.5111,153.924,98.4149,95.944,0.0121833,0.130692,20.9202,-317.166,0.228221,0.0,0.0
5160,1289.75,26.4937,27.0617,152.387,98.2614,95.5064,0.0120904,0.130698,20.9183,-317.186,0.255237,0.0,0.0
5172,1292.75,26.1108,26.7256,154.727,98.3077,95.7709,0.0120731,0.130935,20.918,-317.266,0.234646,0.0,0.0
5184,1295.75,26.2721,26.6337,154.974,98.5318,95.9791,0.0120984,0.131199,20.9173,-317.336,0.235588,0.0,0.0
5196,1298.75,26.3286,26.1507,155.956,98.8599,95.5119,0.0121526,0.13081,20.917,-317.356,0.309219,0.0,0.0
5208,1301.75,26.0489,26.825,152.777,99.2226,96.2047,0.012013,0.130947,20.9178,-317.386,0.277221,0.0,0.0
5220,1304.75,26.1323,26.6792,150.487,99.4862,96.4777,0.01201,0.130841,20.9184,-317.426,0.275601,0.0,0.0
5232,1307.75,26.4081,26.5859,146.47,99.6151,96.8264,0.0121648,0.13095,20.9194,-317.466,0.254844,0.0,0.0
5244,1310.75,25.7298,26.3343,149.899,99.593,96.1133,0.0121791,0.13064,20.9193,-317.526,0.319194,0.0,0.0
5256,1313.75,25.4962,26.0238,150.223,99.5099,96.5991,0.0120514,0.130754,20.9188,-317.566,0.266453,0.0,0.0
5268,1316.75,26.6198,26.338,154.568,99.3975,96.7121,0.0118091,0.13026,20.9184,-317.586,0.245813,0.0,0.0
5280,1319.75,26.0446,26.4561,150.777,99.2766,96.2678,0.0117195,0.129688,20.9179,-317.636,0.276224,0.0,0.0
5292,1322.75,25.3783,25.8397,156.346,99.4987,96.6753,0.0115211,0.129759,20.9178,-317.656,0.25836,0.0,0.0
5304,1325.75,25.7685,25.8092,152.228,99.8972,96.997,0.0113728,0.129953,20.9178,-317.726,0.26443,0.0,0.0
5316,1328.75,25.7586,26.1958,150.194,100.073,97.1845,0.0112941,0.130397,20.9177,-317.776,0.262871,0.0,0.0
5328,1331.75,25.6437,25.8381,152.584,100.034,96.9995,,0.130238,,-317.826,0.276461,0.0,0.0
5340,1334.75,26.0384,26.049,154.398,99.7961,96.5496,,,,-317.876,0.296826,0.0,0.0
5352,1337.75,25.3314,26.1954,150.988,99.5196,95.9855,,,,-317.906,0.324525,0.0,0.0
5362,1340.25,24.9899,25.4754,156.586,99.6691,96.4413,,,,-317.916,0.295478,0.0,0.0