File: 01_Data/Engineered_Wood_Furniture/Cone/Engineered_Wood_Furniture_Cone_HF50Scan_220330_R2.csv
Names,Time,Stack TC,Smoke TC,Exh Press,Smoke Comp,Smoke Meas,CO Meter,CO2 Meter,O2 Meter,Sample Mass,Ext Coeff,Start Test,Flame Verif
Chan Gain,,500,500,1,1,1,1,1,1,1,1,1.0,1.0
Offset,,0,0,0.135377,0,0,0,0,0,0,0,0.0,0.0
Gain,,1,1,25.011,13.2062,13.8682,1,1,1,1.0009,1.02317,1.0,1.0
Units,sec,C,C,Pa,%,%,%,%,%,g,/m,,
Baseline,,33.3477,34.6656,146.351,100.196,96.5928,0.000842767,0.0433646,21.073,-835.471,0.328759,,
11,2.5,32.0706,33.0711,150.294,100.264,96.738,0.000651114,0.0494312,21.0665,-229.827,0.321319,0.0,0.0
22,5.25,32.3526,33.1131,140.888,100.273,96.2419,0.000725361,0.0476044,21.0684,-229.957,0.368286,0.0,0.0
33,8,32.0714,32.8545,150.645,100.263,95.9165,0.000666796,0.045971,21.0708,-230.067,0.397751,0.0,0.0
44,10.75,32.4247,33.5988,141.217,100.281,95.4683,0.000607812,0.0446964,21.0725,-230.137,0.441376,0.0,0.0
55,13.5,31.6368,33.4475,147.756,100.277,94.6917,0.000759085,0.0443989,21.0731,-230.187,0.514398,0.0,0.0
66,16.25,32.3175,33.3629,144.051,100.278,93.8935,0.000970168,0.0449969,21.0733,-230.277,0.590446,0.0,0.0
77,19,32.0183,33.1147,148.348,100.283,93.6061,0.00119457,0.0461437,21.0741,-230.338,0.618391,0.0,0.0
88,21.75,32.608,33.3953,146.74,100.28,94.2828,0.00128166,0.0464562,21.0746,-230.368,0.553448,0.0,0.0
99,24.5,32.6829,34.0081,144.715,100.293,94.0141,0.0012651,0.0467247,21.0738,-230.428,0.580295,0.0,0.0
110,27.25,32.2177,33.5075,145.468,100.295,92.0935,0.0015018,0.0485095,21.0676,-230.508,0.76569,0.0,0.0
121,30,32.7073,34.0669,133.447,100.283,94.5342,0.00251522,0.0946338,21.0047,-230.728,0.529801,0.0,1.0
132,32.75,33.802,35.031,122.343,100.287,94.001,0.00441012,0.249774,20.7814,-231.148,0.581006,0.0,1.0
143,35.5,36.8747,37.8541,118.336,100.297,89.8669,0.00719025,0.463871,20.4549,-231.819,0.985533,0.0,0.0
154,38.25,40.7739,42.1634,109.402,100.297,88.0331,0.00941679,0.790963,20.0861,-232.72,1.17054,0.0,0.0
165,41,45.9375,47.8115,111.544,100.285,94.5258,0.00940101,0.99469,19.9087,-233.47,0.530821,0.0,0.0
176,43.75,49.2407,52.1308,122.066,100.296,94.8021,0.00792038,0.921035,19.9647,-234.021,0.505628,0.0,0.0
187,46.5,51.7894,55.1614,123.953,100.289,95.5766,0.00676854,0.776102,20.1585,-234.501,0.431918,0.0,0.0
198,49.25,53.5847,57.2509,120.786,100.306,93.9206,0.00612375,0.700017,20.2646,-235.042,0.59031,0.0,0.0
209,52,55.0163,59.0108,120.279,100.299,93.2874,0.00605544,0.678302,20.295,-235.612,0.650478,0.0,0.0
220,54.75,57.835,61.2294,120.595,100.305,94.1724,0.00598405,0.67487,20.302,-236.123,0.566207,0.0,0.0
231,57.5,59.1701,63.1666,120.695,100.297,94.188,0.0059912,0.670315,20.3083,-236.653,0.564029,0.0,0.0
242,60.25,60.384,65.4814,124.94,100.292,93.3479,0.00618697,0.657232,20.3242,-237.134,0.643972,0.0,0.0
253,63,62.2472,66.7667,119.93,100.322,93.6836,0.00615934,0.642356,20.3414,-237.674,0.614502,0.0,0.0
264,65.75,63.2991,68.3792,122.403,100.319,94.5884,0.00598471,0.626558,20.3545,-238.145,0.527906,0.0,0.0
275,68.5,64.3607,69.4074,129.635,100.296,93.3755,0.00583956,0.6079,20.3809,-238.645,0.641689,0.0,0.0
286,71.25,65.3931,70.2965,128.776,100.297,93.4842,0.00562308,0.589235,20.4038,-239.085,0.631312,0.0,0.0
297,74,65.8246,71.1604,126.131,100.291,92.7757,0.0054469,0.572753,20.4219,-239.556,0.699086,0.0,0.0
308,76.75,66.8448,72.4599,123.265,100.314,93.3348,0.00529907,0.559802,20.4379,-239.986,0.647181,0.0,0.0
319,79.5,67.5027,73.069,126.603,100.291,94.0467,0.00527513,0.544197,20.454,-240.427,0.576967,0.0,0.0
330,82.25,67.8777,73.8705,126.247,100.296,93.0974,0.00530777,0.525652,20.4784,-240.847,0.668491,0.0,0.0
341,85,67.9918,73.8232,126.743,100.297,93.8706,0.00518356,0.506323,20.5042,-241.247,0.59429,0.0,0.0
352,87.75,67.9591,74.5325,129.472,100.299,93.8406,0.00497996,0.490421,20.5185,-241.668,0.597416,0.0,0.0
363,90.5,68.3469,74.008,127.681,100.301,93.9379,0.00475763,0.477299,20.5343,-242.048,0.58822,0.0,0.0
374,93.25,68.6415,74.7013,126.746,100.303,94.7293,0.00451637,0.46306,20.5545,-242.418,0.513101,0.0,0.0
385,96,67.7914,74.5584,128.026,100.293,95.6507,0.00439052,0.449428,20.5735,-242.819,0.425398,0.0,0.0
396,98.75,68.804,73.8563,130.551,100.287,94.8957,0.00422466,0.436092,20.5913,-243.159,0.495985,0.0,0.0
407,101.5,68.404,74.1999,128.217,100.295,94.9562,0.00406885,0.426271,20.6009,-243.529,0.490948,0.0,0.0
418,104.25,67.9358,74.2526,130.187,100.315,95.172,0.00410308,0.417266,20.614,-243.87,0.472372,0.0,0.0
429,107,68.0139,74.2295,130.405,100.291,95.3515,0.00420402,0.407142,20.6253,-244.19,0.453303,0.0,0.0
440,109.75,67.5761,73.7654,126.556,100.289,95.8403,0.00417191,0.399495,20.6334,-244.58,0.407227,0.0,0.0
451,112.5,67.937,73.8095,131.205,100.294,95.3663,0.00386622,0.392846,20.639,-244.931,0.45216,0.0,0.0
462,115.25,67.2435,73.4258,130.654,100.293,95.8255,0.00369204,0.386278,20.6487,-245.261,0.40894,0.0,0.0
473,118,67.7428,73.7899,128.118,100.291,94.8804,0.00358909,0.38134,20.6565,-245.581,0.497751,0.0,0.0
484,120.75,66.9685,73.2859,131.198,100.284,95.3574,0.00338696,0.377832,20.6606,-245.932,0.452095,0.0,0.0
495,123.5,67.1796,73.3883,128.968,100.285,95.7684,0.00341463,0.37534,20.6642,-246.252,0.413607,0.0,0.0
506,126.25,67.2082,73.2307,129.557,100.28,95.6452,0.0033486,0.372431,20.6668,-246.592,0.424723,0.0,0.0
517,129,67.0219,73.4214,133.994,100.28,95.2524,0.00324064,0.369702,20.6703,-246.952,0.461619,0.0,0.0
528,131.75,66.4775,72.7469,131.205,100.28,95.605,0.00327626,0.36781,20.6724,-247.273,0.428461,0.0,0.0
539,134.5,66.7381,72.8299,128.112,100.266,95.6566,0.00340032,0.366082,20.6745,-247.603,0.422425,0.0,0.0
550,137.25,66.3031,72.8468,125.998,100.258,95.2982,0.00340319,0.363303,20.6791,-247.943,0.455401,0.0,0.0
561,140,66.3816,72.6364,127.339,100.254,95.6558,0.00332785,0.3599,20.6836,-248.274,0.421387,0.0,0.0
572,142.75,65.8902,72.4241,128.145,100.239,95.5521,0.00319582,0.356701,20.6887,-248.594,0.429821,0.0,0.0
583,145.5,66.4949,72.1894,129.335,100.238,96.5611,0.0032356,0.354745,20.6914,-248.914,0.335402,0.0,0.0
594,148.25,65.7622,71.4805,134.497,100.219,95.9478,0.00327154,0.353391,20.693,-249.255,0.390888,0.0,0.0
605,151,65.669,72.2749,128.897,100.211,96.1873,0.00326074,0.351406,20.6949,-249.575,0.367787,0.0,0.0
616,153.75,66.0248,71.554,134.643,100.213,96.1205,0.00324065,0.348323,20.6979,-249.865,0.374209,0.0,0.0
627,156.5,64.917,71.079,131.998,100.195,96.2352,0.00295759,0.346913,20.699,-250.195,0.361917,0.0,0.0
638,159.25,65.2313,70.8621,135.867,100.179,96.0261,0.00292077,0.345377,20.702,-250.556,0.38003,0.0,0.0
649,162,65.4818,71.271,129.516,100.175,95.4658,0.00304267,0.342841,20.7053,-250.876,0.432123,0.0,0.0
660,164.75,65.3285,71.2,131.042,100.151,96.0688,0.00304646,0.340407,20.7078,-251.206,0.373471,0.0,0.0
671,167.5,65.0735,70.894,132.396,100.154,95.7882,0.00307638,0.337135,20.7125,-251.527,0.400013,0.0,0.0
682,170.25,64.8462,70.708,129.877,100.141,95.9127,0.00310888,0.336157,20.714,-251.867,0.387243,0.0,0.0
693,173,64.807,70.6306,126.27,100.12,96.1548,0.00311906,0.335266,20.7154,-252.177,0.362666,0.0,0.0
704,175.75,64.3396,70.9939,132.66,100.108,96.0244,0.00300849,0.332397,20.7194,-252.467,0.373758,0.0,0.0
715,178.5,64.7004,70.2338,133.22,100.093,96.2915,0.00283043,0.328795,20.7236,-252.788,0.347531,0.0,0.0
726,181.25,64.6114,70.029,128.667,100.075,95.4052,0.0029372,0.324285,20.7299,-253.088,0.428928,0.0,0.0
737,184,63.5212,69.7024,134.332,100.045,95.5902,0.00316868,0.320431,20.7351,-253.408,0.408798,0.0,0.0
748,186.75,64.23,69.6084,132.655,100.025,95.7442,0.00321465,0.319046,20.737,-253.689,0.392574,0.0,0.0
759,189.5,63.9823,69.4857,130.675,99.9706,95.7662,0.00302685,0.320227,20.7345,-253.999,0.385627,0.0,0.0
770,192.25,63.6051,68.9662,136.928,99.967,95.8924,0.0027642,0.319815,20.735,-254.339,0.373489,0.0,0.0
781,195,63.3166,68.5258,132.441,99.9384,96.5255,0.00253879,0.317383,20.7371,-254.629,0.311855,0.0,0.0
792,197.75,63.687,69.2464,131.086,99.9093,95.5881,0.00260807,0.316379,20.7377,-254.91,0.39684,0.0,0.0
803,200.5,63.0125,68.8999,133.491,99.8723,96.0168,0.00266011,0.315774,20.7389,-255.23,0.353344,0.0,0.0
814,203.25,63.2256,68.8456,131.508,99.8376,95.9728,0.00261851,0.31262,20.7431,-255.55,0.354343,0.0,0.0
825,206,63.2954,68.6675,130.409,99.8005,96.076,0.00271014,0.311118,20.7453,-255.82,0.341357,0.0,0.0
836,208.75,62.8852,68.4266,131.15,99.763,95.958,0.00276083,0.309309,20.7482,-256.141,0.349023,0.0,0.0
847,211.5,62.6558,68.4175,132.053,99.7223,95.8204,0.00275554,0.306779,20.7502,-256.421,0.358235,0.0,0.0
858,214.25,62.7902,67.8504,131.765,99.6828,95.547,0.0028309,0.305929,20.7508,-256.721,0.380325,0.0,0.0
869,217,62.3355,67.7514,132.355,99.6619,96.0236,0.00286666,0.305006,20.7521,-256.992,0.333785,0.0,0.0
880,219.75,62.3366,67.8023,130.209,99.6123,95.4679,0.002742,0.302999,20.7547,-257.312,0.381411,0.0,0.0
891,222.5,62.129,67.3114,134.682,99.5692,95.3202,0.00254016,0.300688,20.7594,-257.592,0.391421,0.0,0.0
902,225.25,62.0601,67.205,134.339,99.5212,95.4878,0.00232492,0.298918,20.7623,-257.892,0.37133,0.0,0.0
913,228,61.9476,67.2599,133.372,99.4817,95.7506,0.00232868,0.298393,20.7627,-258.223,0.343099,0.0,0.0
924,230.75,62.1992,67.2308,131.692,99.46,95.5804,0.00247158,0.29563,20.7642,-258.453,0.357096,0.0,0.0
935,233.5,62.1297,67.427,131.974,99.4201,95.4865,0.00251584,0.294126,20.7657,-258.763,0.362322,0.0,0.0
946,236.25,61.8325,66.6635,128.697,99.381,95.7125,0.00250805,0.293735,20.7662,-259.033,0.337574,0.0,0.0
957,239,61.695,66.4706,134.299,99.3512,95.2207,0.00243684,0.291064,20.7689,-259.294,0.381116,0.0,0.0
968,241.75,61.4266,66.6926,133.023,99.327,95.2719,0.00226313,0.289531,20.7714,-259.594,0.374105,0.0,0.0
979,244.5,61.2992,66.338,133.281,99.3125,96.082,0.00220449,0.288541,20.7728,-259.864,0.296806,0.0,0.0
990,247.25,61.6538,66.3956,133.68,99.31,95.8894,0.00218868,0.287244,20.774,-260.164,0.314592,0.0,0.0
1001,250,61.2383,66.0566,130.424,99.2826,95.5995,0.00224301,0.284938,20.7761,-260.445,0.339291,0.0,0.0
1012,252.75,60.8441,66.139,136.464,99.2633,95.6549,0.00234298,0.283009,20.7783,-260.725,0.332339,0.0,0.0
1023,255.5,61.4997,66.1595,131.564,99.254,95.9558,0.00231655,0.281067,20.7804,-261.025,0.303311,0.0,0.0
1034,258.25,61.1404,65.8331,133.272,99.2323,95.7307,0.0023171,0.2794,20.781,-261.305,0.322428,0.0,0.0
1045,261,60.7863,65.5015,130.531,99.2016,95.8373,0.00236696,0.279173,20.7818,-261.506,0.309663,0.0,0.0
1056,263.75,61.1115,65.0966,132.089,99.1666,95.489,0.0022997,0.278549,20.7843,-261.806,0.339169,0.0,0.0
1067,266.5,60.4212,65.724,130.314,99.1533,95.4738,0.00220023,0.277219,20.7861,-262.066,0.339397,0.0,0.0
1078,269.25,60.8806,65.368,131.671,99.1206,95.7023,0.00226606,0.276358,20.7867,-262.356,0.314984,0.0,0.0
1089,272,60.6707,65.3919,134.739,99.0952,95.9249,0.00220848,0.275583,20.7874,-262.607,0.291831,0.0,0.0
1100,274.75,60.5542,65.1933,135.958,99.0549,95.5305,0.00204398,0.274267,20.789,-262.857,0.325162,0.0,0.0
1111,277.5,60.6624,65.0298,130.966,99.0102,95.8424,0.00193691,0.274,20.7892,-263.137,0.291851,0.0,0.0
1122,280.25,60.3248,64.6765,131.754,98.9667,94.9206,0.00200939,0.274096,20.788,-263.407,0.374643,0.0,0.0
1133,283,60.0942,64.571,134.328,98.9344,95.1852,0.00209163,0.27435,20.7889,-263.688,0.346741,0.0,0.0
1144,285.75,59.9783,64.2772,134.215,98.9042,95.4704,0.00208994,0.272797,20.7905,-263.968,0.317142,0.0,0.0
1155,288.5,59.8572,64.1802,129.779,98.8663,94.8643,0.00199481,0.271906,20.7928,-264.228,0.370861,0.0,0.0
1166,291.25,60.3439,64.1333,135.699,98.8139,95.1902,0.00201187,0.270529,20.7946,-264.508,0.335325,0.0,0.0
1177,294,60.1826,64.6036,127.183,98.7615,95.4674,0.00208113,0.268736,20.7974,-264.749,0.304465,0.0,0.0
1188,296.75,60.0203,64.23,132.205,98.7446,95.3307,0.00208373,0.267659,20.7991,-265.029,0.315787,0.0,0.0
1199,299.5,59.7445,64.1352,133.01,98.7091,95.0413,0.00223048,0.267718,20.7988,-265.259,0.339859,0.0,0.0
1210,302.25,59.7015,64.4315,138.107,98.6487,95.1521,0.00225988,0.266367,20.8005,-265.519,0.323895,0.0,0.0
1221,305,59.8522,64.0548,132.258,98.6064,94.8669,0.0020553,0.264961,20.8031,-265.749,0.346992,0.0,0.0
1232,307.75,59.6749,63.8558,136.585,98.585,95.0722,0.00190248,0.26494,20.8035,-266,0.325648,0.0,0.0
1243,310.5,59.7125,63.5745,131.669,98.5645,94.971,0.00191818,0.264653,20.8034,-266.27,0.333331,0.0,0.0
1254,313.25,59.325,63.5005,132.974,98.5322,94.8119,0.00194394,0.264511,20.8025,-266.53,0.345445,0.0,0.0
1265,316,59.3928,63.4198,128.899,98.4972,95.2414,0.00204345,0.265122,20.8015,-266.77,0.301679,0.0,0.0
1276,318.75,59.2696,63.7433,132.649,98.4621,95.2224,0.00207057,0.265416,20.8008,-267.071,0.300278,0.0,0.0
1287,321.5,59.2398,63.1217,134.352,98.4456,95.1204,0.00213393,0.264869,20.8001,-267.361,0.30839,0.0,0.0
1298,324.25,59.0973,63.4905,133.887,98.4298,95.0049,0.00224905,0.264469,20.8003,-267.571,0.317866,0.0,0.0
1309,327,59.3495,63.3649,137.498,98.4153,94.4708,0.00223125,0.263816,20.802,-267.831,0.367142,0.0,0.0
1320,329.75,58.7026,63.118,131.125,98.392,95.0662,0.00212156,0.26335,20.8038,-268.082,0.308615,0.0,0.0
1331,332.5,58.7042,62.8879,132.657,98.3803,95.015,0.00200988,0.262681,20.8048,-268.312,0.312384,0.0,0.0
1342,335.25,59.0644,62.7555,134.76,98.375,94.9655,0.00208984,0.262171,20.8052,-268.562,0.316586,0.0,0.0
1353,338,59.2696,63.3879,130.605,98.3577,94.8652,0.00222875,0.262354,20.8039,-268.802,0.32449,0.0,0.0
1364,340.75,59.3011,63.1226,130.117,98.3537,95.0434,0.00220964,0.263156,20.8033,-269.112,0.30728,0.0,0.0
1375,343.5,58.8285,63.0386,131.221,98.3492,94.7615,0.00203746,0.263223,20.8034,-269.383,0.333533,0.0,0.0
1386,346.25,58.966,62.788,132.541,98.3504,94.7285,0.00196143,0.263655,20.8034,-269.553,0.33677,0.0,0.0
1397,349,59.1724,62.8663,136.527,98.3472,95.0971,0.00196076,0.264039,20.8034,-269.803,0.301618,0.0,0.0
1408,351.75,59.1764,62.7088,132.462,98.3416,94.8749,0.00183582,0.263485,20.8034,-270.063,0.322097,0.0,0.0
1419,354.5,58.887,62.3389,135.664,98.3408,94.8,0.00183011,0.263539,20.8043,-270.324,0.329114,0.0,0.0
1430,357.25,58.7949,62.7744,132.634,98.3319,94.6108,0.00195542,0.263917,20.8047,-270.554,0.346232,0.0,0.0
1441,360,58.3572,62.422,135.997,98.34,94.5884,0.0018507,0.263147,20.8048,-270.824,0.349096,0.0,0.0
1452,362.75,58.8318,62.278,133.42,98.3392,95.3667,0.00178544,0.262182,20.8049,-271.034,0.275473,0.0,0.0
1463,365.5,58.3562,62.354,134.901,98.3291,94.7962,0.00187679,0.263482,20.8034,-271.304,0.328407,0.0,0.0
1474,368.25,58.5278,62.3162,132.514,98.3299,94.7446,0.00199204,0.265552,20.8005,-271.565,0.33337,0.0,0.0
1485,371,58.5554,62.638,132.747,98.3339,94.5783,0.00197551,0.267451,20.7985,-271.825,0.349508,0.0,0.0
1496,373.75,58.701,62.6101,134.95,98.3432,95.0188,0.00199296,0.268238,20.7979,-272.045,0.308643,0.0,0.0
1507,376.5,58.5386,62.1114,136.138,98.3355,94.822,0.00217752,0.269353,20.7968,-272.295,0.326551,0.0,0.0
1518,379.25,58.6981,62.8363,136,98.3404,94.946,0.0021783,0.269149,20.7951,-272.586,0.315262,0.0,0.0
1529,382,58.7482,62.3869,131.313,98.34,94.7806,0.00205849,0.269953,20.7938,-272.786,0.330882,0.0,0.0
1540,384.75,58.7661,62.6383,134.514,98.3537,94.726,0.00199942,0.271742,20.7917,-273.056,0.337304,0.0,0.0
1551,387.5,59.1237,62.6267,129.29,98.3694,95.1962,0.00211986,0.273987,20.7887,-273.336,0.294298,0.0,0.0
1562,390.25,59.3125,62.8682,130.745,98.3839,94.8487,0.00231713,0.27595,20.7875,-273.566,0.328441,0.0,0.0
1573,393,58.8846,62.6025,131.151,98.3718,95.1052,0.00232492,0.27701,20.7863,-273.857,0.303102,0.0,0.0
1584,395.75,58.8333,62.181,133.886,98.3916,94.9244,0.00225378,0.279227,20.7836,-274.067,0.321973,0.0,0.0
1595,398.5,59.0279,62.9012,134.227,98.4117,94.4695,0.00214255,0.281225,20.7811,-274.367,0.366933,0.0,0.0
1606,401.25,59.3738,63.1365,131.588,98.4339,94.855,0.00198811,0.281478,20.7788,-274.637,0.332398,0.0,0.0
1617,404,58.8023,62.557,130.973,98.4633,94.6519,0.0019373,0.283354,20.7771,-274.888,0.354323,0.0,0.0
1628,406.75,58.7719,62.794,136.416,98.4758,94.3205,0.00194636,0.284778,20.7758,-275.138,0.386939,0.0,0.0
1639,409.5,58.9217,62.7335,134.793,98.4947,94.6121,0.00196008,0.286475,20.774,-275.398,0.360961,0.0,0.0
1650,412.25,58.4192,62.1289,128.014,98.5362,94.748,0.00201672,0.288993,20.7718,-275.668,0.351865,0.0,0.0
1661,415,59.5172,63.5191,136.55,98.5491,94.7746,0.00208485,0.290926,20.7703,-275.959,0.350513,0.0,0.0
1672,417.75,58.8625,62.5495,130.927,98.5616,94.6942,0.00214394,0.293442,20.7679,-276.199,0.359271,0.0,0.0
1683,420.5,59.8728,63.5101,132.389,98.5745,95.1987,0.00222148,0.294899,20.7665,-276.469,0.312756,0.0,0.0
1694,423.25,59.0689,63.1845,136.208,98.6007,94.7488,0.00232376,0.297244,20.7643,-276.759,0.357657,0.0,0.0
1705,426,59.4272,63.0293,130.628,98.6245,94.511,0.00244153,0.298981,20.7629,-277.03,0.38238,0.0,0.0
1716,428.75,59.751,63.3267,132.247,98.6499,94.7103,0.00241676,0.300961,20.761,-277.29,0.365779,0.0,0.0
1727,431.5,59.7929,63.8414,129.521,98.6668,94.4407,0.00247171,0.30306,20.7579,-277.57,0.392904,0.0,0.0
1738,434.25,59.7482,63.6466,131.33,98.6971,94.2778,0.00242988,0.305065,20.7555,-277.84,0.411152,0.0,0.0
1749,437,60.4375,64.0402,129.551,98.7224,94.3171,0.00228983,0.306021,20.7536,-278.121,0.409714,0.0,0.0
1760,439.75,60.1048,63.8519,131.657,98.7394,94.869,0.00232127,0.306785,20.7517,-278.421,0.358888,0.0,0.0
1771,442.5,59.5048,63.846,133.018,98.7591,94.7793,0.00240473,0.310492,20.7464,-278.681,0.369176,0.0,0.0
1782,445.25,60.1731,64.0111,136.03,98.7704,94.6252,0.00245684,0.314477,20.7426,-278.961,0.384801,0.0,0.0
1793,448,60.2672,64.1345,134.7,98.8147,94.6269,0.00267487,0.317546,20.7386,-279.212,0.388668,0.0,0.0
1804,450.75,60.6682,64.0959,131.46,98.8365,94.0729,0.00279172,0.319836,20.7365,-279.562,0.443345,0.0,0.0
1815,453.5,60.3245,64.5,136.458,98.8566,94.1897,0.00249218,0.320547,20.7358,-279.822,0.434036,0.0,0.0
1826,456.25,60.9756,64.4089,131.103,98.878,94.3218,0.00223168,0.322553,20.7334,-280.092,0.423403,0.0,0.0
1837,459,60.5374,64.3438,131.074,98.8982,93.8097,0.00222933,0.326284,20.7295,-280.403,0.474093,0.0,0.0
1848,461.75,61.0429,64.4189,134.605,98.9401,93.8448,0.00239121,0.329573,20.7254,-280.703,0.474536,0.0,0.0
1859,464.5,61.2816,64.7688,127.699,98.9659,93.882,0.00263201,0.332379,20.7216,-281.003,0.473314,0.0,0.0
1870,467.25,60.8959,64.689,132.763,98.9864,93.3044,0.00283706,0.334367,20.7193,-281.303,0.530577,0.0,0.0
1881,470,60.9268,64.765,133.687,99.0042,93.7885,0.00278321,0.33575,20.7174,-281.594,0.485733,0.0,0.0
1892,472.75,61.8565,65.3461,133.861,99.0199,93.4144,0.00260441,0.336901,20.7158,-281.934,0.523031,0.0,0.0
1903,475.5,61.1273,65.2387,128.868,99.0493,93.8067,0.00257867,0.337623,20.7153,-282.204,0.488082,0.0,0.0
1914,478.25,61.6001,65.501,129.904,99.0642,93.5917,0.00262243,0.339542,20.7121,-282.545,0.510026,0.0,0.0
1925,481,61.8804,65.7633,131.653,99.063,93.9074,0.00278219,0.342946,20.7065,-282.805,0.479692,0.0,0.0
1936,483.75,61.7002,65.5864,128.973,99.0767,93.7034,0.00300859,0.345925,20.7027,-283.085,0.500451,0.0,0.0
1947,486.5,62.4904,66.11,130.603,99.0981,94.0272,0.00310573,0.347849,20.7003,-283.435,0.471427,0.0,0.0
1958,489.25,62.2606,66.1608,128.507,99.1251,93.2028,0.00308711,0.3501,20.698,-283.786,0.552916,0.0,0.0
1969,492,62.2896,66.2236,135.686,99.1541,93.298,0.00322242,0.351881,20.696,-284.076,0.546378,0.0,0.0
1980,494.75,62.479,66.4582,131.266,99.1694,93.397,0.00338766,0.354062,20.693,-284.386,0.53824,0.0,0.0
1991,497.5,62.2012,66.4317,129.467,99.1811,93.2134,0.00348133,0.35517,20.6908,-284.666,0.556967,0.0,0.0
2002,500.25,62.2533,67.1338,128.038,99.1996,92.9861,0.00353924,0.355994,20.6902,-285.027,0.580555,0.0,0.0
2013,503,62.3552,66.8512,129.278,99.2258,92.8468,0.00339232,0.356636,20.6899,-285.297,0.596375,0.0,0.0
2024,505.75,62.2523,66.6424,133.021,99.2302,93.2781,0.00324598,0.356818,20.6888,-285.607,0.555183,0.0,0.0
2035,508.5,63.1552,66.8828,136.756,99.2403,93.2036,0.00339516,0.359242,20.6865,-285.928,0.563264,0.0,0.0
2046,511.25,62.584,67.6109,132.015,99.248,93.5079,0.00347655,0.360661,20.6856,-286.228,0.534701,0.0,0.0
2057,514,62.828,67.2809,130.122,99.2593,93.4402,0.00330605,0.361362,20.6845,-286.558,0.542224,0.0,0.0
2068,516.75,63.1482,67.2925,130.584,99.2766,93.1702,0.00328905,0.36309,20.6817,-286.888,0.569764,0.0,0.0
2079,519.5,64.0311,67.8151,129.909,99.2818,92.9404,0.00340512,0.362547,20.6821,-287.199,0.592403,0.0,0.0
2090,522.25,63.831,67.4523,135.065,99.2855,93.0487,0.00360149,0.362801,20.6815,-287.499,0.582274,0.0,0.0
2101,525,63.5192,67.7909,127.559,99.2903,92.9315,0.00370456,0.362806,20.6808,-287.829,0.594027,0.0,0.0
2112,527.75,63.424,67.4272,129.951,99.2955,93.2451,0.00373991,0.362583,20.6814,-288.16,0.564264,0.0,0.0
2123,530.5,63.6223,67.8704,130.195,99.3056,92.6039,0.00368979,0.362434,20.6836,-288.42,0.627103,0.0,0.0
2134,533.25,64.0724,67.9915,129.3,99.3096,92.8096,0.00357973,0.361484,20.6852,-288.8,0.607554,0.0,0.0
2145,536,63.9467,67.9039,132.505,99.3225,93.0923,0.00363725,0.361094,20.6852,-289.1,0.581422,0.0,0.0
2156,538.75,64.0537,67.9243,135.495,99.3366,92.6225,0.003673,0.362758,20.6833,-289.421,0.628103,0.0,0.0
2167,541.5,63.9209,68.1291,132.177,99.3548,92.7385,0.00358624,0.363906,20.6827,-289.741,0.618513,0.0,0.0
2178,544.25,64.3572,68.5283,129.867,99.3653,92.7614,0.00353326,0.364716,20.6825,-290.031,0.617246,0.0,0.0
2189,547,63.7892,68.0474,126.855,99.3765,92.6983,0.00358487,0.365481,20.6809,-290.352,0.624369,0.0,0.0
2200,549.75,64.444,68.9318,127.034,99.3689,92.9603,0.00361148,0.36569,20.6803,-290.652,0.598349,0.0,0.0
2211,552.5,64.2554,68.2329,128.31,99.3915,93.2751,0.00364176,0.365121,20.6801,-290.962,0.570037,0.0,0.0
2222,555.25,64.1796,68.763,130.393,99.3967,92.8739,0.00364055,0.365741,20.6801,-291.282,0.609199,0.0,0.0
2233,558,64.3724,68.6814,131.377,99.4108,92.3868,0.00370441,0.364442,20.6807,-291.603,0.657672,0.0,0.0
2244,560.75,64.501,68.6747,129.896,99.4164,92.2112,0.00366989,0.363738,20.6815,-291.933,0.675261,0.0,0.0
2255,563.5,64.4098,68.6159,127.861,99.4354,92.7097,0.00342239,0.362742,20.6812,-292.203,0.628576,0.0,0.0
2266,566.25,64.7116,68.9161,132.237,99.4434,92.8033,0.00338668,0.363721,20.681,-292.534,0.620253,0.0,0.0
2277,569,64.5681,68.5219,133.286,99.46,93.1088,0.0035254,0.364998,20.6809,-292.834,0.592241,0.0,0.0
2288,571.75,64.8328,68.8331,134.457,99.4664,92.3889,0.00369214,0.36519,20.6809,-293.214,0.662487,0.0,0.0
2299,574.5,64.8658,68.8854,130.563,99.4696,92.9391,0.00376854,0.36397,20.681,-293.484,0.609488,0.0,0.0
2310,577.25,64.2516,69.5905,129.27,99.4713,92.9645,0.00366959,0.364364,20.6803,-293.815,0.607181,0.0,0.0
2321,580,64.5135,68.8649,132.656,99.5047,92.9797,0.00346769,0.364507,20.6794,-294.105,0.608728,0.0,0.0
2332,582.75,65.3731,69.36,131.151,99.5047,93.0102,0.00344412,0.362637,20.6826,-294.465,0.605787,0.0,0.0
2343,585.5,64.7297,68.9988,134.926,99.5152,93.5583,0.00342968,0.36095,20.6841,-294.776,0.554,0.0,0.0
2354,588.25,65.3282,69.1669,127.746,99.5301,92.8883,0.00337718,0.361265,20.6818,-295.066,0.619846,0.0,0.0
2365,591,65.0797,69.1989,130.089,99.5402,92.8138,0.00347935,0.361838,20.6811,-295.336,0.627955,0.0,0.0
2376,593.75,65.0195,69.0932,130.077,99.5535,93.0572,0.00363167,0.360612,20.6823,-295.666,0.605652,0.0,0.0
2387,596.5,65.0575,69.341,129.838,99.57,92.755,0.00361664,0.360661,20.6827,-295.927,0.636334,0.0,0.0
2398,599.25,64.5896,68.5078,128.929,99.568,93.1054,0.00362275,0.358846,20.685,-296.277,0.602308,0.0,0.0
2409,602,65.4714,69.0285,130.725,99.5676,93.2442,0.00353412,0.358285,20.6868,-296.577,0.588901,0.0,0.0
2420,604.75,64.6565,69.2601,131.604,99.5881,93.8757,0.00346501,0.357416,20.6874,-296.867,0.530178,0.0,0.0
2431,607.5,64.9815,69.0492,130.636,99.5954,93.7212,0.00359591,0.357561,20.6875,-297.148,0.545612,0.0,0.0
2442,610.25,64.5577,68.6066,132.282,99.5994,92.6128,0.00363057,0.358024,20.6854,-297.508,0.652757,0.0,0.0
2453,613,65.0122,69.281,133.064,99.5974,93.5879,0.00366548,0.357087,20.6863,-297.788,0.55857,0.0,0.0
2464,615.75,64.9559,69.5621,134.794,99.6111,94.1313,0.0036828,0.3561,20.6873,-298.089,0.507842,0.0,0.0
2475,618.5,65.4101,69.4865,133.611,99.6264,94.1732,0.00351879,0.355681,20.6872,-298.399,0.505228,0.0,0.0
2486,621.25,65.4346,69.332,128.774,99.6288,93.783,0.00334149,0.356175,20.687,-298.679,0.542711,0.0,0.0
2497,624,65.345,69.2982,128.474,99.6296,93.458,0.00333271,0.354883,20.6883,-299.009,0.573944,0.0,0.0
2508,626.75,65.305,69.4166,128.984,99.6292,93.7538,0.00336103,0.353194,20.6902,-299.29,0.545542,0.0,0.0
2519,629.5,64.8113,69.5628,128.797,99.6357,93.7005,0.00339963,0.355001,20.6872,-299.6,0.551231,0.0,0.0
2530,632.25,64.3822,68.9479,129.074,99.6454,93.8952,0.00341979,0.356871,20.6848,-299.9,0.533472,0.0,0.0
2541,635,65.6378,69.6787,130.618,99.6437,93.4398,0.0033952,0.357033,20.6847,-300.2,0.576962,0.0,0.0
2552,637.75,65.1125,69.7347,133.321,99.6433,93.9667,0.00346072,0.355625,20.6865,-300.491,0.526457,0.0,0.0
2563,640.5,65.5711,69.0033,137.257,99.6538,93.7534,0.00342412,0.353759,20.6894,-300.791,0.547798,0.0,0.0
2574,643.25,65.0769,69.661,131.257,99.6574,94.0259,0.00348304,0.354432,20.6897,-301.101,0.522069,0.0,0.0
2585,646,65.4091,69.5204,129.607,99.6478,94.3726,0.00340951,0.354674,20.6894,-301.382,0.488173,0.0,0.0
2596,648.75,64.9618,68.9636,128.046,99.6325,94.1246,0.00324553,0.355343,20.6894,-301.672,0.510411,0.0,0.0
2607,651.5,65.32,69.6531,128.008,99.6256,94.2799,0.00313891,0.355814,20.6893,-301.972,0.494996,0.0,0.0
2618,654.25,65.248,69.6105,131.886,99.6232,94.1478,0.00311754,0.354924,20.6893,-302.272,0.507356,0.0,0.0
2629,657,65.3082,69.5606,126.872,99.6175,94.4052,0.00311005,0.354198,20.6918,-302.573,0.482351,0.0,0.0
2640,659.75,65.4911,69.8343,124.647,99.6248,94.3806,0.00307043,0.352556,20.6933,-302.873,0.485338,0.0,0.0
2651,662.5,65.8965,69.9768,130.547,99.6123,94.6908,0.00311955,0.352807,20.6924,-303.143,0.454762,0.0,0.0
2662,665.25,65.4649,69.6674,132.731,99.5905,94.8762,0.00317436,0.352596,20.6919,-303.433,0.435246,0.0,0.0
2673,668,65.5259,69.5581,129.268,99.5905,94.3882,0.00300664,0.352546,20.6914,-303.844,0.481528,0.0,0.0
2684,670.75,65.4472,69.6746,128.831,99.591,94.2211,0.00293865,0.352981,20.6918,-304.034,0.497474,0.0,0.0
2695,673.5,65.6291,69.8358,134.056,99.595,94.4009,0.00292822,0.351377,20.6929,-304.304,0.480719,0.0,0.0
2706,676.25,65.5336,69.2285,129.591,99.5712,94.2431,0.00290649,0.349886,20.6932,-304.534,0.493599,0.0,0.0
2717,679,65.2611,69.7013,126.44,99.5543,94.0674,0.00298086,0.350798,20.6924,-304.835,0.508815,0.0,0.0
2728,681.75,65.6825,69.5312,133.331,99.5656,94.3776,0.00310385,0.352079,20.6914,-305.185,0.480281,0.0,0.0
2739,684.5,65.4516,69.8961,131.892,99.5474,93.7631,0.00324494,0.349744,20.6942,-305.455,0.537278,0.0,0.0
2750,687.25,65.6141,69.7064,133.374,99.543,94.3518,0.0033957,0.349175,20.694,-305.725,0.480702,0.0,0.0
2761,690,65.6158,69.8211,131.843,99.52,94.6434,0.00336908,0.348505,20.6942,-306.046,0.450936,0.0,0.0
2772,692.75,65.6735,69.5956,133.224,99.5144,94.3569,0.00324757,0.34706,20.6957,-306.296,0.477639,0.0,0.0
2783,695.5,65.7898,69.5461,130.579,99.5075,94.4361,0.00299938,0.346358,20.6962,-306.546,0.469496,0.0,0.0
2794,698.25,65.2732,69.69,136.091,99.487,94.6659,0.00284851,0.345788,20.6963,-306.846,0.445827,0.0,0.0
2805,701,65.6044,69.6586,129.058,99.4636,94.8826,0.00281273,0.345558,20.6972,-307.117,0.423197,0.0,0.0
2816,703.75,65.4787,69.7002,129.617,99.4515,94.6803,0.00282737,0.344927,20.6982,-307.397,0.441263,0.0,0.0
2827,706.5,65.6198,70.0333,128.668,99.4305,94.4212,0.00277579,0.344016,20.6986,-307.677,0.463959,0.0,0.0
2838,709.25,65.8137,69.831,128.407,99.431,93.9857,0.00287515,0.343852,20.6987,-307.967,0.505487,0.0,0.0
2849,712,65.7036,69.7723,128.462,99.4108,94.4462,0.00293532,0.343741,20.6987,-308.238,0.459803,0.0,0.0
2860,714.75,65.4255,70.0431,128.922,99.3906,94.2845,0.00305078,0.342692,20.7001,-308.468,0.47336,0.0,0.0
2871,717.5,65.5724,70.0094,129.86,99.3697,94.2418,0.00325187,0.34247,20.7019,-308.738,0.475537,0.0,0.0
2882,720.25,65.335,69.7635,129.939,99.362,94.6654,0.00317597,0.341475,20.7036,-309.008,0.43459,0.0,0.0
2893,723,65.3532,69.6701,132.959,99.3471,93.9366,0.00310966,0.340565,20.7047,-309.279,0.502606,0.0,0.0
2904,725.75,65.2981,69.508,134.54,99.3185,94.0585,0.0031624,0.34054,20.7032,-309.559,0.488382,0.0,0.0
2915,728.5,65.4543,69.6157,130.969,99.2919,94.2045,0.00309438,0.342047,20.6998,-309.869,0.472056,0.0,0.0
2926,731.25,65.4275,69.8163,129.266,99.2754,94.3438,0.00312278,0.342748,20.6985,-310.109,0.457306,0.0,0.0
2937,734,65.7036,69.4511,131.618,99.2544,93.1698,0.00327138,0.341932,20.6994,-310.39,0.567801,0.0,0.0
2948,736.75,64.9274,69.1066,130.958,99.2395,93.9688,0.00332208,0.341132,20.702,-310.67,0.489807,0.0,0.0
2959,739.5,65.5542,69.5439,130.109,99.2214,93.4715,0.00318794,0.339881,20.7041,-310.86,0.535791,0.0,0.0
2970,742.25,65.639,69.6227,133.731,99.2117,94.3103,0.00317035,0.338356,20.7048,-311.14,0.454729,0.0,0.0
2981,745,65.7424,69.7158,131.218,99.2049,93.8249,0.00318551,0.335915,20.7078,-311.371,0.500426,0.0,0.0
2992,747.75,65.4764,69.3708,131.511,99.1964,93.8122,0.00313299,0.331637,20.7129,-311.651,0.500876,0.0,0.0
3003,750.5,65.5487,69.3991,131.624,99.1887,94.081,0.00298037,0.328622,20.7162,-311.881,0.474508,0.0,0.0
3014,753.25,65.2276,69.5417,136.692,99.1775,93.6781,0.00282064,0.326522,20.7173,-312.101,0.512006,0.0,0.0
3025,756,65.2294,69.7694,131.754,99.1807,94.001,0.00292035,0.323821,20.7195,-312.361,0.481412,0.0,0.0
3036,758.75,64.9125,69.2621,132.619,99.1706,94.067,0.00283066,0.320944,20.7217,-312.592,0.474198,0.0,0.0
3047,761.5,65.2879,68.9785,134.967,99.1654,94.0259,0.00269005,0.319813,20.7228,-312.862,0.477642,0.0,0.0
3058,764.25,65.113,69.103,127.367,99.1553,93.5723,0.0028294,0.319706,20.7231,-313.052,0.520142,0.0,0.0
3069,767,64.9192,68.8873,131.521,99.1416,94.0717,0.00307319,0.319684,20.724,-313.292,0.471128,0.0,0.0
3080,769.75,65.0135,69.1033,129.822,99.1424,93.9476,0.00320831,0.317521,20.7267,-313.532,0.48304,0.0,0.0
3091,772.5,64.7661,68.9295,132.918,99.1388,94.2092,0.0031558,0.311991,20.7322,-313.743,0.457759,0.0,0.0
3102,775.25,64.6544,68.5961,128.414,99.1557,93.6637,0.00290181,0.306256,20.7386,-313.933,0.511415,0.0,0.0
3113,778,64.2493,68.2209,128.471,99.2226,93.4999,0.00267478,0.300832,20.7459,-314.133,0.533177,0.0,0.0
3124,780.75,64.4912,68.3101,134.646,99.2516,93.8296,0.00269363,0.292623,20.7543,-314.353,0.50421,0.0,0.0
3135,783.5,63.9079,67.7109,135.667,99.3233,94.238,0.00289561,0.282104,20.7674,-314.533,0.471712,0.0,0.0
3146,786.25,63.6922,67.5587,133.284,99.3947,94.078,0.00283693,0.269184,20.7836,-314.684,0.493405,0.0,0.0
3157,789,63.4746,67.7404,132.969,99.431,94.3992,0.00265327,0.256488,20.7991,-314.864,0.466087,0.0,0.0
3168,791.75,63.0332,66.8167,133.907,99.4862,94.9486,0.002565,0.242431,20.8173,-314.984,0.418991,0.0,0.0
3179,794.5,62.7259,66.498,135.038,99.5075,94.5736,0.00238281,0.225285,20.8375,-315.094,0.456434,0.0,0.0
3190,797.25,61.9179,65.66,137.413,99.5486,94.3286,0.00236392,0.207904,20.8572,-315.204,0.483426,0.0,0.0
3201,800,61.6904,65.1127,139.479,99.5664,95.2838,0.00257562,0.192091,20.8787,-315.284,0.394594,0.0,0.0
3212,802.75,60.3787,64.2607,135.803,99.5934,95.0971,0.0027502,0.177912,20.8933,-315.394,0.414626,0.0,0.0
3223,805.5,59.8915,63.5273,138.043,99.6309,94.8656,0.0028504,0.167549,20.9015,-315.464,0.439879,0.0,0.0
3234,808.25,59.7206,62.8558,139.633,99.6784,95.2668,0.00293191,0.161351,20.9074,-315.554,0.406283,0.0,0.0
3245,811,58.6285,62.129,141.53,99.7239,95.3701,0.00292492,0.156055,20.913,-315.644,0.400659,0.0,0.0
3256,813.75,58.5209,61.6706,140.153,99.7534,96.0659,0.00277512,0.15038,20.921,-315.664,0.338065,0.0,0.0
3267,816.5,57.3124,60.896,137.067,99.7832,95.9135,0.00278881,0.145449,20.9277,-315.734,0.354994,0.0,0.0
3278,819.25,56.808,60.385,139.272,99.8118,95.3595,0.00297817,0.141722,20.9324,-315.784,0.409559,0.0,0.0
3289,822,56.5217,59.2815,138.092,99.8549,95.9736,0.00311144,0.139242,20.9355,-315.875,0.355822,0.0,0.0
3300,824.75,55.8338,58.9063,140.363,99.8686,96.112,0.00340072,0.137081,20.939,-315.915,0.34412,0.0,0.0
3311,827.5,54.9884,57.8797,138.047,99.9101,95.6063,0.00370611,0.133986,20.9429,-315.965,0.395203,0.0,0.0
3322,830.25,55.0733,57.8717,141.774,99.915,95.8128,0.0039176,0.131984,20.9459,-316.025,0.37627,0.0,0.0
3333,833,54.2637,57.4461,142.107,99.9375,95.9698,0.00398588,0.130744,20.9489,-316.095,0.363601,0.0,0.0
3344,835.75,53.647,56.1514,139.441,99.9533,95.4941,0.00405934,0.128883,20.9518,-316.155,0.409613,0.0,0.0
3355,838.5,53.4242,56.004,144.611,99.9843,95.7375,0.00421039,0.127306,20.9528,-316.155,0.389555,0.0,0.0
3366,841.25,52.8174,55.3195,141.775,99.9932,95.8496,0.00415371,0.127251,20.9526,-316.205,0.379843,0.0,0.0
3377,844,52.2776,54.5775,142.461,100.005,95.875,0.0041243,0.126649,20.9542,-316.265,0.378515,0.0,0.0
3388,846.75,52.0969,54.3911,134.601,100.017,95.7548,0.00427555,0.125747,20.9547,-316.335,0.390822,0.0,0.0
3399,849.5,51.6349,54.3899,138.776,100.024,95.9139,0.00455078,0.124921,20.9548,-316.365,0.37657,0.0,0.0
3410,852.25,51.2765,53.7001,139.871,100.026,96.2585,0.00476386,0.124483,20.9562,-316.415,0.344571,0.0,0.0
3421,855,50.8345,53.2514,137.961,100.032,95.9461,0.00487439,0.123796,20.9587,-316.475,0.374319,0.0,0.0
3432,857.75,51.1517,52.9352,141.665,100.023,95.8382,0.0049259,0.122901,20.9614,-316.515,0.383553,0.0,0.0
3443,860.5,50.3969,52.7334,143.061,100.015,95.7836,0.00488105,0.121835,20.9639,-316.565,0.38798,0.0,0.0
3454,863.25,49.7114,51.9012,138.614,100.033,96.6059,0.00481322,0.121266,20.9648,-316.635,0.312918,0.0,0.0
3465,866,49.7548,51.7555,144.63,100.028,96.5065,0.00501682,0.12107,20.965,-316.645,0.321658,0.0,0.0
3476,868.75,49.1604,51.5238,137.673,100.015,96.0253,0.00541019,0.120762,20.9651,-316.715,0.365365,0.0,0.0
3487,871.5,49.0827,50.7578,140.397,99.9944,95.9533,0.00562094,0.120662,20.9651,-316.725,0.370248,0.0,0.0
3498,874.25,49.1062,50.8019,140.22,100.005,96.0557,0.00564397,0.120724,20.9652,-316.775,0.361649,0.0,0.0
3509,877,48.3486,50.2179,143.947,99.9972,95.4607,0.00557067,0.120519,20.9652,-316.815,0.416699,0.0,0.0
3520,879.75,48.5891,50.3741,143.269,99.9662,95.726,0.00550837,0.120003,20.9652,-316.845,0.388998,0.0,0.0
3531,882.5,48.2757,50.0329,140.978,99.9432,95.7057,0.00568047,0.119216,20.968,-316.936,0.388841,0.0,0.0
3542,885.25,48.0127,49.6636,137.528,99.9263,95.4107,0.00570899,0.118265,20.9693,-316.936,0.415027,0.0,0.0
3553,888,48.0406,49.4566,138.658,99.9041,95.685,0.00575186,0.117501,20.9697,-316.946,0.387274,0.0,0.0
3564,890.75,47.7463,49.4347,141.488,99.8888,95.8661,0.00600067,0.116856,20.9709,-317.006,0.368924,0.0,0.0
3575,893.5,47.4732,48.6456,138.203,99.8799,95.3777,0.0059408,0.115895,20.9729,-317.056,0.413968,0.0,0.0
3586,896.25,47.3038,48.4823,140.814,99.8469,95.8373,0.00578962,0.115488,20.9743,-317.106,0.367852,0.0,0.0
3597,899,46.8422,48.4947,139.947,99.8162,95.4531,0.00590687,0.115589,20.9752,-317.156,0.401158,0.0,0.0
3608,901.75,47.0332,48.4103,142.674,99.8183,95.864,0.00594226,0.115143,20.9755,-317.186,0.362782,0.0,0.0
3619,904.5,46.406,48.0427,140.782,99.8037,96.1632,0.00572203,0.114081,20.9762,-317.216,0.333507,0.0,0.0
3630,907.25,46.4509,47.8419,139.845,99.7735,95.7751,0.00567326,0.114002,20.9764,-317.266,0.367084,0.0,0.0
3641,910,46.5737,47.8002,139.646,99.759,95.6604,0.00596118,0.113966,20.9764,-317.276,0.376533,0.0,0.0
3652,912.75,45.821,47.1471,147.388,99.7372,96.1175,0.00608835,0.11413,20.9762,-317.306,0.331792,0.0,0.0
3663,915.5,45.7284,47.4784,143.64,99.7127,95.4683,0.00631116,0.114102,20.9758,-317.356,0.390408,0.0,0.0
3674,918.25,45.715,47.1008,141.729,99.6691,95.3561,0.00634466,0.114191,20.9756,-317.386,0.397039,0.0,0.0
3685,921,45.69,46.7187,141.357,99.6417,95.7599,0.00635225,0.113898,20.9764,-317.416,0.356648,0.0,0.0
3696,923.75,45.4741,46.7727,145.349,99.5974,95.7146,0.00638661,0.113562,20.9788,-317.466,0.3569,0.0,0.0
3707,926.5,45.245,46.5912,142.081,99.5752,95.8729,0.00640508,0.113943,20.9788,-317.496,0.340072,0.0,0.0
3718,929.25,45.1918,46.4062,144.754,99.539,96.1213,0.00655946,0.115081,20.9781,-317.546,0.313575,0.0,0.0
3729,932,44.9744,46.2468,144.029,99.5136,96.1306,0.006758,0.115002,20.9793,-317.586,0.310416,0.0,0.0
3740,934.75,45.1735,46.1537,141.121,99.5051,95.5948,0.00657708,0.1144,20.9797,-317.606,0.359817,0.0,0.0
3751,937.5,44.543,46.0382,143.261,99.52,95.3477,0.00635388,0.113284,20.9802,-317.656,0.384398,0.0,0.0
3762,940.25,44.8133,46.2282,140.7,99.5293,95.5775,0.00643628,0.113511,20.9796,-317.676,0.363628,0.0,0.0
3773,943,44.3697,45.7672,141.653,99.5373,95.7599,0.00660226,0.114903,20.9787,-317.716,0.347241,0.0,0.0
3784,945.75,44.6163,45.5761,143.133,99.547,95.7248,0.00664139,0.116187,20.9772,-317.736,0.351406,0.0,0.0
3795,948.5,44.4901,45.5479,143.198,99.5539,95.5986,0.00659254,0.116078,20.9768,-317.796,0.363857,0.0,0.0
3806,951.25,44.1473,45.3804,142.81,99.5583,95.4404,0.00663047,0.114992,20.9797,-317.806,0.379129,0.0,0.0
3817,954,44.1101,44.9991,143.306,99.5688,95.7497,0.0066765,0.113707,20.9824,-317.846,0.351028,0.0,0.0
3828,956.75,44.062,45.0682,142.277,99.5809,95.8031,0.00662804,0.11294,20.9838,-317.876,0.34712,0.0,0.0
3839,959.5,43.9613,45.2287,142.018,99.5849,95.4717,0.00665646,0.111916,20.9859,-317.926,0.378582,0.0,0.0
3850,962.25,44.2136,44.9201,138.573,99.5772,95.5699,0.00668997,0.111508,20.9872,-317.936,0.368667,0.0,0.0
3861,965,43.6588,44.9413,139.995,99.6002,95.5309,0.00676107,0.111198,20.9867,-317.976,0.374394,0.0,0.0
3872,967.75,43.7406,44.8509,145.085,99.603,95.5017,0.00685431,0.110872,20.9853,-318.017,0.377392,0.0,0.0
3883,970.5,43.7381,44.8588,141.924,99.6123,96.0672,0.00665796,0.110678,20.9848,-318.037,0.325246,0.0,0.0
3894,973.25,43.64,44.6258,143.865,99.6143,95.6164,0.00647682,0.110404,20.9847,-318.067,0.367637,0.0,0.0
3905,976,43.5056,44.4707,140.809,99.6248,96.0591,0.00657966,0.11042,20.9847,-318.117,0.327123,0.0,0.0
3916,978.75,42.9965,44.4189,143.367,99.6482,95.7472,0.00673317,0.110285,20.9846,-318.137,0.358419,0.0,0.0
3927,981.5,43.5319,44.3115,142.101,99.6651,95.649,0.00695427,0.110127,20.9846,-318.197,0.369153,0.0,0.0
3938,984.25,43.5073,44.3893,139.844,99.6752,96.7782,0.00708544,0.109989,20.986,-318.217,0.264726,0.0,0.0
3949,987,43.0785,44.2132,136.437,99.6812,95.7984,0.00705343,0.10946,20.986,-318.247,0.356597,0.0,0.0
3960,989.75,43.1431,44.1515,140.54,99.7006,95.3557,0.00703922,0.109846,20.9847,-318.267,0.39991,0.0,0.0
3971,992.5,43.0368,43.683,145.27,99.7308,95.7392,0.00710909,0.109603,20.9844,-318.287,0.366611,0.0,0.0
3982,995.25,43.1418,44.0315,138.392,99.7433,95.732,0.00712028,0.109972,20.9843,-318.327,0.368411,0.0,0.0
3993,998,42.6068,43.6692,145.012,99.7667,95.4319,0.00722672,0.110324,20.9847,-318.357,0.398691,0.0,0.0
4004,1000.75,42.9665,43.6959,139.945,99.7828,95.9584,0.00752264,0.110248,20.985,-318.387,0.350761,0.0,0.0
4015,1003.5,42.8486,43.3523,145.047,99.811,95.5013,0.00745851,0.109923,20.9851,-318.407,0.396151,0.0,0.0
4026,1006.25,42.492,43.3183,140.554,99.8408,95.7662,0.00734811,0.109524,20.9866,-318.457,0.373968,0.0,0.0
4037,1009,42.3517,43.3846,146.437,99.859,96.17,0.00727141,0.109217,20.9866,-318.477,0.337839,0.0,0.0
4048,1011.75,41.8233,42.9084,141.826,99.8759,96.3605,0.00728114,0.108867,20.9865,-318.497,0.321603,0.0,0.0
4059,1014.5,42.3294,43.1912,149.739,99.9037,96.06,0.00744771,0.108462,20.9864,-318.567,0.352134,0.0,0.0
4070,1017.25,42.4565,43.2976,145.447,99.9351,96.523,0.00757378,0.108164,20.9865,-318.587,0.311801,0.0,0.0
4081,1020,42.3598,43.1787,139.285,99.9597,95.6676,0.00771269,0.108618,20.987,-318.607,0.393897,0.0,0.0
4092,1022.75,41.9869,42.9292,145.36,99.9819,96.5052,0.00771119,0.109326,20.9871,-318.647,0.317652,0.0,0.0
4103,1025.5,42.2145,43.1361,143.654,99.994,96.2415,0.00770484,0.109558,20.9865,-318.677,0.343292,0.0,0.0
4114,1028.25,42.146,42.8863,137.699,100.019,96.7595,0.00790973,0.109671,20.9854,-318.707,0.297391,0.0,0.0
4125,1031,42.0577,43.4028,142.223,100.057,96.0803,0.00796252,0.109444,20.986,-318.737,0.363984,0.0,0.0
4136,1033.75,41.8712,43.1051,144.241,100.065,95.8911,0.00789196,0.108665,20.9869,-318.747,0.382397,0.0,0.0
4147,1036.5,41.9592,42.8764,139.119,100.073,95.8433,0.00802999,0.108175,20.9889,-318.787,0.387561,0.0,0.0
4158,1039.25,41.7454,43.1725,143.196,100.082,96.1543,0.00811214,0.107485,20.99,-318.827,0.35931,0.0,0.0
4169,1042,41.8501,42.8581,144.195,100.095,96.2432,0.0080047,0.107143,20.9906,-318.837,0.35221,0.0,0.0
4180,1044.75,42.1021,42.7488,142.458,100.12,96.0832,0.00802221,0.107643,20.9908,-318.887,0.369381,0.0,0.0
4191,1047.5,42.0063,42.8061,145.31,100.129,96.6085,0.00803117,0.107526,20.9908,-318.907,0.321285,0.0,0.0
4202,1050.25,42.0668,42.7744,140.93,100.132,96.2034,0.00815473,0.107356,20.9909,-318.957,0.359209,0.0,0.0
4213,1053,41.8075,42.2922,144.949,100.145,95.9372,0.00819532,0.10762,20.9893,-318.977,0.385234,0.0,0.0
4224,1055.75,41.3759,43.0547,143.078,100.162,95.9029,0.00816085,0.10745,20.9888,-318.997,0.389996,0.0,0.0
4235,1058.5,41.3036,42.4622,140.004,100.162,95.9643,0.00810862,0.107488,20.9893,-319.017,0.38429,0.0,0.0
4246,1061.25,41.2551,42.2024,142.205,100.164,96.5213,0.00806349,0.106987,20.9911,-319.037,0.332531,0.0,0.0
4257,1064,41.5211,42.5546,141.249,100.16,96.2369,0.00807944,0.10685,20.9917,-319.057,0.358618,0.0,0.0
4268,1066.75,41.0086,42.9465,141.382,100.193,96.2889,0.00799212,0.10714,20.9919,-319.097,0.356761,0.0,0.0
4279,1069.5,40.7692,42.0086,143.306,100.202,95.98,0.00787423,0.1072,20.992,-319.117,0.386363,0.0,0.0
4290,1072.25,41.33,42.2671,140.046,100.212,96.1924,0.0076602,0.107014,20.9933,-319.158,0.367458,0.0,0.0
4301,1075,41.6441,42.4308,143.712,100.214,96.3689,0.00770191,0.106346,20.9935,-319.168,0.351113,0.0,0.0
4312,1077.75,41.1224,42.3927,140.417,100.215,95.9588,0.00804991,0.106246,20.9929,-319.228,0.389535,0.0,0.0
4323,1080.5,41.2198,42.093,143.954,100.239,96.3672,0.0083796,0.105824,20.9935,-319.268,0.353581,0.0,0.0
4334,1083.25,41.5699,42.2273,142.56,100.24,95.8687,0.00860598,0.105724,20.9916,-319.278,0.400208,0.0,0.0
4345,1086,41.1881,42.103,142.333,100.237,96.3232,0.00871359,0.106106,20.9905,-319.308,0.357464,0.0,0.0
4356,1088.75,40.956,42.234,143.216,100.233,96.3689,0.00849589,0.105953,20.9902,-319.328,0.352883,0.0,0.0
4367,1091.5,40.8896,42.2374,141.959,100.237,96.633,0.00826033,0.105224,20.9911,-319.358,0.328608,0.0,0.0
4378,1094.25,41.0155,42.0807,142.078,100.246,96.2369,0.00815463,0.105119,20.9904,-319.388,0.366306,0.0,0.0
4389,1097,41.0921,41.9416,144.526,100.259,96.2948,0.00800667,0.105251,20.9895,-319.428,0.362056,0.0,0.0
4400,1099.75,41.0241,42.0551,141.581,100.259,96.443,0.00806125,0.105076,20.9893,-319.438,0.348261,0.0,0.0
4411,1102.5,40.6362,42.0097,138.775,100.247,96.0663,0.00814737,0.104986,20.9892,-319.468,0.382373,0.0,0.0
4422,1105.25,41.0929,41.514,142.869,100.247,96.4472,0.00823404,0.104712,20.9899,-319.498,0.34682,0.0,0.0
4433,1108,41.1853,42.231,142.908,100.262,96.7037,0.00842455,0.104379,20.9925,-319.508,0.324355,0.0,0.0
4444,1110.75,40.617,41.6691,140.293,100.259,96.5585,0.00846637,0.104035,20.9946,-319.558,0.337515,0.0,0.0
4455,1113.5,40.9372,42.0991,142.355,100.259,96.0164,0.00857092,0.103757,20.9955,-319.578,0.38805,0.0,0.0
4466,1116.25,40.5297,41.9434,141.781,100.26,96.0773,0.00883289,0.104421,20.9943,-319.618,0.382499,0.0,0.0
4477,1119,39.9659,41.8574,145.545,100.259,96.6652,0.00888147,0.104176,20.9939,-319.638,0.327607,0.0,0.0
4488,1121.75,40.5607,41.4731,143.448,100.26,96.2051,0.0088321,0.104423,20.9937,-319.668,0.370495,0.0,0.0
4499,1124.5,39.9439,41.1693,144.08,100.255,96.1137,0.00877525,0.103853,20.9942,-319.698,0.378631,0.0,0.0
4510,1127.25,40.4921,41.3793,138.826,100.249,96.2957,0.00873238,0.103521,20.9944,-319.728,0.361111,0.0,0.0
4521,1130,40.2117,41.6645,142.268,100.245,96.1869,0.0088072,0.10343,20.9974,-319.758,0.370857,0.0,0.0
4532,1132.75,40.1595,41.5543,142.042,100.252,96.6381,0.00888821,0.103666,20.9987,-319.778,0.329545,0.0,0.0
4543,1135.5,40.7828,41.5566,142.294,100.252,96.9331,0.00891754,0.103705,20.9986,-319.818,0.302117,0.0,0.0
4554,1138.25,40.0652,41.1655,140.112,100.255,95.988,0.00895934,0.104175,20.9985,-319.828,0.390376,0.0,0.0
4565,1141,40.0794,41.6603,141.968,100.238,96.6275,0.00907037,0.105044,20.9985,-319.858,0.329264,0.0,0.0
4576,1143.75,39.8008,41.5234,141.223,100.266,96.1006,0.00910967,0.104909,20.9986,-319.878,0.380831,0.0,0.0
4587,1146.5,40.1785,41.2177,143.185,100.249,96.2644,0.00938325,0.104626,20.9991,-319.908,0.364031,0.0,0.0
4598,1149.25,40.3293,41.4368,144.617,100.253,96.9631,0.00947948,0.104239,20.9993,-319.948,0.299443,0.0,0.0
4609,1152,40.201,41.4618,144.963,100.234,96.0583,0.00922958,0.103516,20.9981,-319.968,0.381933,0.0,0.0
4620,1154.75,39.9562,41.4227,145.31,100.227,96.3219,0.0090555,0.103314,20.9971,-319.998,0.356717,0.0,0.0
4631,1157.5,39.9035,41.3433,141.6,100.25,96.7583,0.00903753,0.103,20.9978,-320.018,0.318172,0.0,0.0
4642,1160.25,40.1438,41.2589,142.181,100.243,95.9647,0.00898102,0.102543,20.9973,-320.038,0.39147,0.0,0.0
4653,1163,40.1885,41.122,143.843,100.246,96.3736,0.00899644,0.10238,20.9985,-320.058,0.353567,0.0,0.0
4664,1165.75,39.6269,40.8541,141.415,100.245,96.749,0.0089864,0.102307,20.9984,-320.108,0.318566,0.0,0.0
4675,1168.5,40.0239,41.3147,141.484,100.238,96.3376,0.00909102,0.10194,20.9982,-320.118,0.356197,0.0,0.0
4686,1171.25,39.9457,41.0834,140.769,100.249,96.0917,0.00929035,0.101818,20.9982,-320.158,0.380109,0.0,0.0
4697,1174,40.1086,40.999,140.097,100.256,96.0625,0.00941783,0.102266,20.998,-320.178,0.383486,0.0,0.0
4708,1176.75,39.9012,41.0597,143.086,100.255,96.4023,0.00953399,0.102234,20.9976,-320.228,0.351681,0.0,0.0
4719,1179.5,39.5192,41.1351,142.998,100.25,96.1878,0.009549,0.102006,20.9976,-320.228,0.371283,0.0,0.0
4730,1182.25,39.9384,41.1311,144.978,100.265,96.3647,0.00942492,0.101754,20.9976,-320.228,0.356091,0.0,0.0
4741,1185,39.9176,40.9228,142.425,100.277,96.8302,0.00924673,0.101151,20.9976,-320.299,0.313954,0.0,0.0
4752,1187.75,39.2762,40.4782,143.768,100.284,96.2195,0.00932281,0.101659,20.9966,-320.309,0.371353,0.0,0.0
4763,1190.5,39.0865,40.5538,142.438,100.282,96.3507,0.00969903,0.101457,20.995,-320.319,0.358943,0.0,0.0
4774,1193.25,39.2898,40.2638,144.22,100.272,96.2525,0.0100507,0.101209,20.9946,-320.359,0.367229,0.0,0.0
4785,1196,39.5764,40.4207,140.063,100.286,97.6669,0.0101084,0.10174,20.9944,-320.379,0.237489,0.0,0.0
4796,1198.75,38.6954,40.0239,140.353,100.3,96.2682,0.00997199,0.102636,20.9956,-320.409,0.368221,0.0,0.0
4807,1201.5,38.9868,40.3349,136.599,100.294,97.4024,0.0100567,0.102283,20.9966,-320.449,0.262551,0.0,0.0
4818,1204.25,39.1837,40.2562,140.088,100.288,96.925,0.0102423,0.101591,20.9983,-320.459,0.306145,0.0,0.0
4829,1207,39.2014,40.1414,142.926,100.289,96.4299,0.010269,0.100989,21.0001,-320.489,0.352187,0.0,0.0
4840,1209.75,39.2028,39.6363,143.444,100.293,96.5386,0.0101465,0.100262,21.001,-320.509,0.342393,0.0,0.0
4851,1212.5,39.1193,40.3019,143.493,100.31,96.6106,0.0100278,0.100021,21.0013,-320.539,0.337222,0.0,0.0
4862,1215.25,39.1418,40.0981,145.062,100.31,96.589,0.00992791,0.100306,21.0003,-320.569,0.339299,0.0,0.0
4873,1218,39.4757,39.8526,144.782,100.293,96.4849,0.0100005,0.100298,21.001,-320.569,0.347464,0.0,0.0
4884,1220.75,38.7535,39.9916,142.283,100.302,96.5407,0.0101711,0.100133,21.0005,-320.609,0.343063,0.0,0.0
4895,1223.5,38.7022,40.2993,144.91,100.313,96.1675,0.0102297,0.100201,20.999,-320.649,0.378807,0.0,0.0
4906,1226.25,39.1063,39.9897,144.07,100.317,96.6804,0.0101216,0.100315,20.9986,-320.669,0.331385,0.0,0.0
4917,1229,38.91,40.0765,143.947,100.32,96.6542,0.00979421,0.0997731,20.9984,-320.689,0.33411,0.0,0.0
4928,1231.75,39.4516,39.8881,146.801,100.323,96.6474,0.00981769,0.0995746,20.9984,-320.709,0.334992,0.0,0.0
4939,1234.5,38.7915,40.0683,141.513,100.317,96.192,0.00982213,0.0989636,20.9984,-320.749,0.37684,0.0,0.0
4950,1237.25,38.7075,40.1124,144.657,100.329,95.9918,0.00958502,0.0987846,20.9984,-320.769,0.396619,0.0,0.0
4961,1240,38.21,39.9314,144.926,100.312,96.8975,0.00955623,0.099093,20.9984,-320.779,0.310856,0.0,0.0
4972,1242.75,38.2655,39.4192,145.64,100.314,96.3329,0.00957762,0.0992969,20.999,-320.819,0.363484,0.0,0.0
4983,1245.5,38.6661,39.809,143.837,100.303,96.2347,0.00948968,0.0992895,20.9998,-320.829,0.371626,0.0,0.0
4994,1248.25,38.0398,39.9714,141.268,100.33,96.3981,0.00941518,0.0991602,20.9993,-320.859,0.358856,0.0,0.0
5005,1251,38.504,39.7692,142.042,100.312,97.2755,0.00941318,0.0987988,20.9997,-320.899,0.275881,0.0,0.0
5016,1253.75,38.654,39.6688,148.364,100.311,96.4806,0.00946911,0.0978836,20.9999,-320.919,0.349408,0.0,0.0
5027,1256.5,37.9083,38.7938,148.271,100.305,96.3524,0.00959838,0.0984398,20.9992,-320.959,0.360805,0.0,0.0
5038,1259.25,38.4908,39.9646,141.159,100.293,96.3621,0.00941967,0.099333,20.9984,-320.939,0.358852,0.0,0.0
5049,1262,37.9145,39.3199,139.226,100.311,96.5225,0.00910269,0.0990984,20.9995,-321.019,0.345547,0.0,0.0
5060,1264.75,38.1799,39.3904,142.718,100.302,96.2868,0.0090599,0.0984331,20.9999,-321.019,0.366666,0.0,0.0
5071,1267.5,38.1134,39.4104,140.36,100.299,96.9453,0.0091549,0.0987168,21.001,-321.049,0.305237,0.0,0.0
5082,1270.25,37.7918,39.3753,141.562,100.29,96.6774,0.00934511,0.0984205,21.0021,-321.059,0.329281,0.0,0.0
5093,1273,38.3592,39.5352,141.517,100.289,95.9956,0.00932639,0.098287,21.0018,-321.099,0.392658,0.0,0.0
5104,1275.75,38.304,39.8376,145.441,100.291,96.3507,0.00926901,0.0986075,21.0016,-321.109,0.3597,0.0,0.0
5115,1278.5,37.9772,39.2654,144.749,100.292,96.112,0.00931958,0.0985668,21.0016,-321.139,0.382107,0.0,0.0
5126,1281.25,38.4241,39.2514,145.624,100.283,96.5962,0.00930261,0.0984192,21.0031,-321.159,0.336178,0.0,0.0
5137,1284,38.1692,39.557,146.513,100.268,96.7375,0.00930931,0.0982628,21.0028,-321.179,0.321719,0.0,0.0
5148,1286.75,38.0782,39.5034,139.582,100.271,96.3118,0.0093919,0.0989072,21.0025,-321.199,0.361597,0.0,0.0
5159,1289.5,38.2253,39.1869,141.322,100.266,96.3211,0.00934767,0.0991556,21.0027,-321.209,0.360223,0.0,0.0
5170,1292.25,38.0965,38.8388,144.863,100.287,96.4379,0.00930884,0.098525,21.0038,-321.259,0.351257,0.0,0.0
5181,1295,38.0169,39.5703,144.255,100.273,96.7841,0.00925632,0.0980079,21.0041,-321.299,0.317834,0.0,0.0
5192,1297.75,37.5974,39.4806,141.947,100.28,96.2132,0.00928702,0.0973947,21.0046,-321.319,0.371548,0.0,0.0
5203,1300.5,37.6462,38.8762,138.901,100.277,96.2072,,0.097674,,-321.37,0.371849,0.0,0.0
5214,1303.25,37.8918,39.2427,144.632,100.281,96.4404,,0.0981244,,-321.37,0.35048,0.0,0.0
5225,1306,37.6999,39.4414,142.183,100.278,96.2491,,,,-321.38,0.368012,0.0,0.0
5236,1308.75,38.0805,39.4222,141.13,100.287,96.5098,,,,-321.4,0.344601,0.0,0.0
5246,1311.25,37.5715,39.1091,144.227,100.306,96.2665,,,,-321.43,0.368955,0.0,0.0