File: 01_Data/Engineered_Wood_Furniture/Cone/Engineered_Wood_Furniture_Cone_HF75Scan_220330_R3.csv
Names,Time,Stack TC,Smoke TC,Exh Press,Smoke Comp,Smoke Meas,CO Meter,CO2 Meter,O2 Meter,Sample Mass,Ext Coeff,Start Test,Flame Verif
Chan Gain,,500,500,1,1,1,1,1,1,1,1,1.0,1.0
Offset,,0,0,0.135377,0,0,0,0,0,0,0,0.0,0.0
Gain,,1,1,25.011,13.2062,13.8682,1,1,1,1.0009,1.02317,1.0,1.0
Units,sec,C,C,Pa,%,%,%,%,%,g,/m,,
Baseline,,45.1891,47.2438,141.027,100.043,95.4417,0.000867039,0.0433281,21.0698,-836.396,0.422634,,
9,2,43.116,44.6936,139.661,100.051,95.7269,0.000522733,0.0470286,21.0655,-228.085,0.396551,0.0,0.0
18,4.25,42.9037,45.313,139.959,100.027,94.4331,0.000877973,0.0471951,21.0658,-228.105,0.516477,0.0,0.0
27,6.5,43.3347,45.1007,141.637,100.03,88.1419,0.0016243,0.0563867,21.0452,-228.296,1.13559,0.0,0.0
36,8.75,43.3272,45.9776,136.879,100.028,96.7011,0.00244336,0.098383,20.9937,-228.436,0.303606,0.0,1.0
45,11,43.8458,45.6639,130.737,100.029,94.486,0.00429148,0.159425,20.9246,-228.756,0.511667,0.0,1.0
54,13.25,45.5744,47.6597,114.668,100.019,85.7744,0.00778783,0.366951,20.6691,-229.287,1.37898,0.0,1.0
63,15.5,49.4676,51.63,98.2701,100.027,86.5362,0.0108877,0.773063,20.1914,-230.147,1.30035,0.0,1.0
72,17.75,55.1459,57.5323,102.484,100.027,91.3795,0.0116364,1.07285,19.8506,-230.798,0.811528,0.0,0.0
81,20,59.8881,63.1394,115.497,100.025,92.7216,0.0103436,1.10574,19.7816,-231.358,0.680454,0.0,0.0
90,22.25,62.0959,66.8861,123.528,100.014,96.2601,0.00850999,0.932587,19.9156,-231.729,0.343365,0.0,0.0
99,24.5,63.3754,68.3708,123.52,100.016,96.8861,0.00692485,0.739017,20.1067,-232.049,0.285372,0.0,0.0
108,26.75,64.4708,69.3227,120.666,100.011,95.5732,0.0060069,0.64673,20.2641,-232.429,0.40735,0.0,0.0
117,29,65.8439,70.5889,117.428,100.009,94.4052,0.00601652,0.64045,20.3052,-232.88,0.517576,0.0,0.0
126,31.25,67.5513,72.6588,115.5,100.006,93.9895,0.00661266,0.687981,20.273,-233.35,0.556851,0.0,0.0
135,33.5,68.6786,74.476,111.767,100.019,92.9865,0.0072379,0.756898,20.1956,-233.861,0.654305,0.0,0.0
144,35.75,71.7245,77.2529,110.825,100.017,92.0702,0.0076737,0.821866,20.1214,-234.411,0.743002,0.0,0.0
153,38,73.7616,79.648,112.836,100.008,91.09,0.00798952,0.86595,20.0687,-235.022,0.838306,0.0,0.0
162,40.25,76.0419,82.3006,106.992,100.008,91.4781,0.00807207,0.885388,20.0439,-235.552,0.800185,0.0,0.0
171,42.5,77.4866,83.9725,110.672,100.014,90.5834,0.00803626,0.887716,20.0358,-236.053,0.888867,0.0,0.0
180,44.75,79.4583,86.5439,112.602,100.006,91.3706,0.00803142,0.883003,20.034,-236.603,0.810484,0.0,0.0
189,47,80.9876,88.368,117.366,100.01,90.6372,0.00805398,0.87136,20.0419,-237.174,0.883255,0.0,0.0
198,49.25,82.2215,90.0775,107.619,100.023,91.7067,0.00812732,0.853684,20.0638,-237.684,0.779091,0.0,0.0
207,51.5,83.6438,91.4837,108.796,100.029,91.5124,0.0081489,0.830625,20.0878,-238.135,0.798629,0.0,0.0
216,53.75,84.4548,92.944,113.787,100.025,91.832,0.00802724,0.804416,20.1169,-238.665,0.766983,0.0,0.0
225,56,85.6047,93.9188,116.079,100.034,91.2009,0.00785655,0.777347,20.1492,-239.115,0.829701,0.0,0.0
234,58.25,86.6104,95.1675,110.659,100.037,91.4997,0.00774258,0.748142,20.1831,-239.576,0.800598,0.0,0.0
243,60.5,87.2984,95.84,115.326,100.032,93.0673,0.0076319,0.715621,20.2238,-240.006,0.647698,0.0,0.0
252,62.75,87.5641,95.8735,117.694,100.042,92.1426,0.00751325,0.685083,20.2614,-240.427,0.738228,0.0,0.0
261,65,87.5358,96.2996,113.383,100.039,93.469,0.00725545,0.661281,20.2872,-240.867,0.6097,0.0,0.0
270,67.25,88.3436,97.018,114.314,100.037,92.3487,0.00687892,0.641194,20.3124,-241.287,0.717777,0.0,0.0
279,69.5,88.3074,97.2809,117.351,100.053,93.2498,0.00657057,0.623432,20.3343,-241.678,0.63204,0.0,0.0
288,71.75,88.5083,97.6183,118.004,100.063,94.0336,0.00636393,0.605531,20.3529,-242.068,0.557819,0.0,0.0
297,74,88.3436,96.9547,116.065,100.066,94.4712,0.00617273,0.585118,20.3788,-242.448,0.516364,0.0,0.0
306,76.25,88.2563,97.105,118.113,100.055,94.194,0.00592729,0.568934,20.4012,-242.799,0.541799,0.0,0.0
315,78.5,89.0497,97.5716,120.049,100.055,94.8597,0.0056353,0.556845,20.4159,-243.199,0.478588,0.0,0.0
324,80.75,88.8209,97.0132,124.45,100.056,93.852,0.00533236,0.543699,20.4366,-243.549,0.574479,0.0,0.0
333,83,88.6377,97.7451,124.949,100.058,94.8411,0.00523021,0.532983,20.4483,-243.91,0.48064,0.0,0.0
342,85.25,88.5888,97.7978,123.261,100.063,94.6434,0.00521308,0.523501,20.4588,-244.29,0.499798,0.0,0.0
351,87.5,88.6037,96.8278,119.498,100.054,95.037,0.00512903,0.515755,20.4691,-244.63,0.461681,0.0,0.0
360,89.75,87.8381,96.9501,118.137,100.071,94.6231,0.00500865,0.508435,20.4784,-244.951,0.502446,0.0,0.0
369,92,88.2431,97.2444,119.395,100.061,95.5826,0.00507775,0.501345,20.4887,-245.321,0.41096,0.0,0.0
378,94.25,88.0281,96.5791,124.453,100.048,94.5474,0.00513264,0.496046,20.4971,-245.651,0.507575,0.0,0.0
387,96.5,87.7424,96.832,122.859,100.058,95.5559,0.00496618,0.489538,20.5063,-246.012,0.413247,0.0,0.0
396,98.75,87.3295,96.5636,124.861,100.058,95.4937,0.0047203,0.484076,20.5137,-246.352,0.41902,0.0,0.0
405,101,87.7971,96.228,122.367,100.06,95.3578,0.00457333,0.48007,20.519,-246.672,0.432014,0.0,0.0
414,103.25,87.4565,96.4838,123.451,100.049,95.5085,0.00467699,0.477263,20.523,-247.043,0.416868,0.0,0.0
423,105.5,87.0722,95.8944,120.392,100.051,96.404,0.00471574,0.473976,20.526,-247.373,0.333249,0.0,0.0
432,107.75,86.7453,95.7565,126.015,100.044,95.6456,0.00464572,0.471069,20.5296,-247.693,0.403521,0.0,0.0
441,110,86.8034,95.6792,121.506,100.044,94.8999,0.00452777,0.468507,20.5342,-248.053,0.473809,0.0,0.0
450,112.25,86.8047,95.7497,122.723,100.045,96.0921,0.00441746,0.465503,20.539,-248.374,0.361829,0.0,0.0
459,114.5,86.917,95.7489,123.362,100.048,95.9013,0.00437879,0.459672,20.5444,-248.694,0.379891,0.0,0.0
468,116.75,86.1133,95.0066,123.202,100.043,96.0092,0.00436905,0.453288,20.5514,-248.994,0.369399,0.0,0.0
477,119,86.3485,95.2582,121.829,100.022,94.9833,0.00430774,0.450833,20.5551,-249.315,0.463902,0.0,0.0
486,121.25,85.9789,94.6194,127.812,100.02,96.1565,0.00434353,0.448766,20.5579,-249.645,0.353544,0.0,0.0
495,123.5,85.7642,94.3173,121.935,100.012,95.754,0.00445057,0.44351,20.5648,-249.975,0.390468,0.0,0.0
504,125.75,85.4753,94.5504,122.631,100.008,95.6355,0.00449174,0.438955,20.5717,-250.296,0.401221,0.0,0.0
513,128,85.8633,94.424,120.737,99.9964,96.5602,0.00446441,0.436497,20.5745,-250.606,0.313839,0.0,0.0
522,130.25,84.9803,93.4269,125.708,100.002,95.8369,0.00442559,0.434604,20.5769,-250.966,0.381791,0.0,0.0
531,132.5,85.2097,93.4713,125.93,99.9738,95.3015,0.0043919,0.428715,20.5851,-251.286,0.429574,0.0,0.0
540,134.75,84.8685,93.8594,121.883,99.9722,95.4509,0.00426706,0.423508,20.5905,-251.537,0.415371,0.0,0.0
549,137,84.4254,92.9955,124.646,99.973,96.0477,0.00409959,0.420704,20.5934,-251.887,0.359506,0.0,0.0
558,139.25,84.6367,92.9487,125.563,99.9541,96.4057,0.00396713,0.418658,20.5952,-252.197,0.32441,0.0,0.0
567,141.5,84.3769,92.6353,124.525,99.9327,96.4375,0.00387223,0.416438,20.5976,-252.527,0.319537,0.0,0.0
576,143.75,83.8813,92.5192,127.017,99.9275,97.0249,0.00382179,0.411224,20.6049,-252.788,0.264562,0.0,0.0
585,146,83.5412,91.9104,122.538,99.9101,96.3579,0.00380519,0.407176,20.6117,-253.078,0.324918,0.0,0.0
594,148.25,83.6066,91.9201,124.095,99.896,96.7756,0.00369193,0.4029,20.6169,-253.388,0.284826,0.0,0.0
603,150.5,83.7453,92.0857,124.086,99.8807,96.49,0.00360202,0.399751,20.6215,-253.709,0.309984,0.0,0.0
612,152.75,83.6151,91.6844,120.516,99.8743,96.3757,0.00366478,0.396565,20.625,-253.999,0.32004,0.0,0.0
621,155,83.2778,91.1978,121.087,99.8396,96.8002,0.00379184,0.395089,20.6275,-254.289,0.27748,0.0,0.0
630,157.25,83.1636,91.4098,124.844,99.8336,96.7646,0.00394975,0.391233,20.6308,-254.599,0.280233,0.0,0.0
639,159.5,82.9452,90.4968,121.234,99.8203,96.0968,0.00406256,0.388725,20.6351,-254.9,0.341197,0.0,0.0
648,161.75,82.8195,90.687,123.841,99.8227,96.5742,0.00400157,0.385443,20.6389,-255.16,0.296937,0.0,0.0
657,164,82.6467,90.6432,123.473,99.7989,96.0138,0.00370986,0.383234,20.642,-255.46,0.347027,0.0,0.0
666,166.25,82.1613,90.1279,127.757,99.7727,96.7287,0.00343254,0.381244,20.6447,-255.75,0.278097,0.0,0.0
675,168.5,82.355,90.4024,125.609,99.7739,96.528,0.00329247,0.378074,20.6483,-256.021,0.296839,0.0,0.0
684,170.75,81.8858,90.0135,125.818,99.7441,95.8547,0.00317602,0.375018,20.6509,-256.291,0.356983,0.0,0.0
693,173,82.0771,89.8637,125.343,99.7195,97.3775,0.00301762,0.372889,20.6546,-256.601,0.21331,0.0,0.0
702,175.25,81.7709,89.6848,121.174,99.7046,96.3841,0.00286826,0.37073,20.6581,-256.881,0.303992,0.0,0.0
711,177.5,81.6581,89.0691,126.256,99.6945,95.9821,0.0028425,0.368431,20.6617,-257.182,0.340602,0.0,0.0
720,179.75,80.8464,88.5189,123.986,99.6792,97.0275,0.00295524,0.366455,20.6633,-257.412,0.242001,0.0,0.0
729,182,80.9368,88.7623,126.354,99.6526,97.4409,0.00315403,0.364027,20.6649,-257.692,0.201438,0.0,0.0
738,184.25,81.3386,88.7107,123.989,99.6357,96.6601,0.00319397,0.361337,20.6687,-258.012,0.272126,0.0,0.0
747,186.5,81.0107,88.6042,123.752,99.618,97.0101,0.00309753,0.359353,20.6711,-258.293,0.238088,0.0,0.0
756,188.75,80.6427,87.7697,126.437,99.599,97.1963,0.00314095,0.358626,20.6724,-258.573,0.21917,0.0,0.0
765,191,80.745,88.0853,126.662,99.5833,96.4747,0.00326686,0.358487,20.6728,-258.843,0.284635,0.0,0.0
774,193.25,80.5757,87.9994,124.826,99.5756,96.2288,0.00327102,0.356897,20.675,-259.123,0.306849,0.0,0.0
783,195.5,80.531,87.7019,124.118,99.5603,97.4714,0.00317422,0.354282,20.6779,-259.354,0.190315,0.0,0.0
792,197.75,80.2247,87.4745,127.386,99.5543,96.6444,0.00303583,0.351766,20.6818,-259.624,0.266244,0.0,0.0
801,200,80.4891,87.6085,121.794,99.5446,96.8937,0.00295198,0.348854,20.6852,-259.894,0.242252,0.0,0.0
810,202.25,79.9679,87.019,130.321,99.5498,96.1188,0.00287416,0.347768,20.6865,-260.184,0.314792,0.0,0.0
819,204.5,80.0689,87.0849,122.837,99.522,96.272,0.00281123,0.345638,20.6885,-260.415,0.297991,0.0,0.0
828,206.75,79.3816,86.5112,129.484,99.5059,97.5963,0.00290088,0.345706,20.6892,-260.675,0.173921,0.0,0.0
837,209,79.1155,86.151,126.964,99.5031,96.8184,0.00297338,0.345939,20.69,-260.965,0.245489,0.0,0.0
846,211.25,79.8205,86.4924,125.956,99.4934,96.7989,0.00291159,0.344379,20.6925,-261.205,0.246422,0.0,0.0
855,213.5,79.0981,85.7782,129.05,99.4999,96.4083,0.00281865,0.342561,20.6945,-261.496,0.283296,0.0,0.0
864,215.75,79.1977,86.1684,126.112,99.4793,96.5052,0.00270434,0.341127,20.6965,-261.776,0.272424,0.0,0.0
873,218,78.9792,86.1054,128.819,99.4793,97.0063,0.0025783,0.339424,20.6975,-262.046,0.225941,0.0,0.0
882,220.25,78.6445,85.5998,123.296,99.4652,96.5852,0.00261415,0.338431,20.6979,-262.286,0.263715,0.0,0.0
891,222.5,78.671,85.39,124.303,99.458,96.4349,0.00277694,0.338689,20.698,-262.527,0.277033,0.0,0.0
900,224.75,78.6698,85.2714,128.584,99.46,97.3461,0.00278844,0.339544,20.6981,-262.767,0.192807,0.0,0.0
909,227,78.3479,85.0239,125.933,99.46,96.8417,0.00269637,0.338902,20.6993,-263.097,0.239441,0.0,0.0
918,229.25,78.3999,84.9953,125.114,99.4447,96.6004,0.00281644,0.337084,20.7013,-263.307,0.260445,0.0,0.0
927,231.5,78.5957,84.8991,129.047,99.4479,96.9932,0.00292493,0.335749,20.7021,-263.587,0.224319,0.0,0.0
936,233.75,78.3003,84.6533,126.47,99.4596,96.771,0.00286762,0.334813,20.7039,-263.868,0.245957,0.0,0.0
945,236,78.2764,84.6515,123.959,99.4499,96.768,0.00279175,0.334122,20.7057,-264.158,0.245359,0.0,0.0
954,238.25,78.048,84.6782,127.169,99.4576,96.8962,0.00268801,0.33229,20.7083,-264.378,0.234164,0.0,0.0
963,240.5,77.8478,84.0668,128.399,99.4535,96.8946,0.00253732,0.331259,20.7093,-264.648,0.233958,0.0,0.0
972,242.75,77.8059,83.9003,128.507,99.4696,96.7727,0.00239082,0.330341,20.7121,-264.899,0.24671,0.0,0.0
981,245,77.6813,83.9368,123.498,99.4567,96.3169,0.00234487,0.328314,20.7136,-265.169,0.28792,0.0,0.0
990,247.25,77.6834,83.9771,128.145,99.4632,97.6644,0.00244821,0.327706,20.7134,-265.419,0.163803,0.0,0.0
999,249.5,77.4774,84.0059,128.853,99.4717,97.2496,0.00256557,0.329431,20.7113,-265.669,0.202763,0.0,0.0
1008,251.75,77.7104,83.8515,123.242,99.4567,97.5878,0.00258972,0.330728,20.7104,-265.92,0.170263,0.0,0.0
1017,254,77.55,83.6851,128.113,99.4616,97.1519,0.00251399,0.330811,20.7101,-266.16,0.210881,0.0,0.0
1026,256.25,78.2418,83.5041,128.687,99.4535,97.2035,0.00233733,0.329917,20.71,-266.4,0.205385,0.0,0.0
1035,258.5,77.4169,83.4873,129.018,99.4571,96.4079,0.00234116,0.329129,20.7099,-266.69,0.27948,0.0,0.0
1044,260.75,77.4265,83.4705,127.865,99.4418,96.8886,0.0024155,0.328089,20.711,-266.961,0.233451,0.0,0.0
1053,263,77.4721,83.4471,122.558,99.433,97.1917,0.00249304,0.327172,20.7117,-267.151,0.204624,0.0,0.0
1062,265.25,77.1522,82.9714,122.675,99.433,97.0393,0.00251927,0.327826,20.7121,-267.421,0.218705,0.0,0.0
1071,267.5,77.4459,83.1523,127.6,99.4471,96.3858,0.00241566,0.32858,20.7122,-267.691,0.280621,0.0,0.0
1080,269.75,77.3113,83.2084,126.524,99.4334,96.5856,0.00238131,0.327897,20.7127,-267.901,0.260802,0.0,0.0
1089,272,77.048,82.7587,125.763,99.4112,96.4938,0.00239889,0.326689,20.7139,-268.192,0.267339,0.0,0.0
1098,274.25,76.769,82.6202,125.873,99.4221,96.8218,0.00241001,0.326082,20.7143,-268.452,0.237865,0.0,0.0
1107,276.5,76.7126,82.7825,127.093,99.4176,96.3605,0.00241446,0.326718,20.7145,-268.672,0.28033,0.0,0.0
1116,278.75,76.8827,83.1185,122.568,99.4426,97.8214,0.00249977,0.329262,20.7114,-268.922,0.14753,0.0,0.0
1125,281,77.0335,82.9143,125.914,99.4656,97.5006,0.00261927,0.330193,20.7101,-269.163,0.179085,0.0,0.0
1134,283.25,76.8278,82.6982,123.13,99.4975,96.3613,0.00250655,0.330192,20.7096,-269.473,0.287452,0.0,0.0
1143,285.5,76.9454,82.5502,122.959,99.518,96.6199,0.00234786,0.329582,20.7094,-269.733,0.265253,0.0,0.0
1152,287.75,76.8181,82.5505,125.785,99.5361,96.9161,0.00236636,0.331771,20.708,-270.003,0.239411,0.0,0.0
1161,290,76.7768,82.3683,126.559,99.5857,96.9271,0.00241554,0.332287,20.706,-270.253,0.242861,0.0,0.0
1170,292.25,76.672,82.3397,126.688,99.618,97.3834,0.00239844,0.333777,20.704,-270.474,0.203619,0.0,0.0
1179,294.5,76.7153,82.2627,127.525,99.6482,96.9902,0.00231715,0.335532,20.7014,-270.734,0.242651,0.0,0.0
1188,296.75,77.2068,82.8954,129.139,99.7034,97.5226,0.00226234,0.33598,20.7004,-270.994,0.198489,0.0,0.0
1197,299,76.8397,82.5105,127.186,99.7473,96.4464,0.00230525,0.3385,20.6986,-271.224,0.302044,0.0,0.0
1206,301.25,76.8581,82.3454,124.676,99.7759,97.8697,0.00238711,0.339845,20.6982,-271.505,0.173136,0.0,0.0
1215,303.5,76.6967,82.4246,124.647,99.7876,96.9999,0.00234496,0.339593,20.6993,-271.745,0.254302,0.0,0.0
1224,305.75,76.6896,82.2179,127.027,99.8162,97.1684,0.00227544,0.340103,20.6993,-272.005,0.241303,0.0,0.0
1233,308,76.8866,82.6322,124.147,99.8529,97.8701,0.00236863,0.341353,20.6974,-272.245,0.180018,0.0,0.0
1242,310.25,76.9917,82.6728,127.365,99.8815,97.1582,0.00259971,0.34246,20.6961,-272.505,0.24811,0.0,0.0
1251,312.5,76.6472,82.6128,129.543,99.9021,96.5628,0.00273104,0.342188,20.6956,-272.756,0.305134,0.0,0.0
1260,314.75,76.9206,82.5415,126.427,99.938,97.0918,0.00271934,0.342898,20.6955,-273.036,0.259318,0.0,0.0
1269,317,76.8027,82.3076,123.819,99.9335,97.2987,0.0026883,0.343453,20.6943,-273.336,0.23981,0.0,0.0
1278,319.25,76.9245,82.4853,127.617,99.9476,97.1002,0.00272177,0.34514,20.693,-273.576,0.259405,0.0,0.0
1287,321.5,77.0933,82.9888,125.788,99.9646,97.2429,0.00276091,0.34699,20.6916,-273.837,0.247752,0.0,0.0
1296,323.75,77.0772,82.4854,125.552,99.9851,97.7939,0.00285184,0.349231,20.6902,-274.097,0.198882,0.0,0.0
1305,326,77.2241,82.5987,125.93,100,97.1091,0.00295616,0.35177,20.6863,-274.337,0.263323,0.0,0.0
1314,328.25,76.8239,82.678,127.658,100.014,97.6627,0.00303371,0.351803,20.6846,-274.627,0.213535,0.0,0.0
1323,330.5,77.2899,82.6938,124.959,100.04,97.7935,0.00296407,0.351971,20.6839,-274.908,0.203839,0.0,0.0
1332,332.75,77.8416,82.4711,123.696,100.035,96.6546,0.00277832,0.353503,20.6829,-275.128,0.30858,0.0,0.0
1341,335,77.2527,82.661,129.1,100.046,96.782,0.00261624,0.354632,20.6812,-275.388,0.297698,0.0,0.0
1350,337.25,77.4217,82.7568,125.972,100.07,97.3851,0.00248011,0.355276,20.6797,-275.668,0.244111,0.0,0.0
1359,339.5,77.0168,82.899,126.267,100.091,96.6504,0.00252825,0.35732,20.6783,-275.939,0.313961,0.0,0.0
1368,341.75,77.3997,82.9299,124.619,100.098,96.2051,0.0027048,0.360626,20.6751,-276.219,0.356016,0.0,0.0
1377,344,77.2177,83.0662,125.153,100.1,96.4121,0.00292883,0.363032,20.6718,-276.479,0.336874,0.0,0.0
1386,346.25,77.3695,82.7648,125.109,100.129,96.6275,0.00312014,0.363795,20.6691,-276.739,0.319479,0.0,0.0
1395,348.5,77.7415,82.9169,124.908,100.156,96.9678,0.00313531,0.365156,20.6689,-276.98,0.290313,0.0,0.0
1404,350.75,77.595,82.9626,121.618,100.149,96.8315,0.00306693,0.367632,20.6668,-277.31,0.302322,0.0,0.0
1413,353,77.4734,83.0683,126.229,100.162,96.3723,0.0032343,0.369349,20.6648,-277.56,0.346177,0.0,0.0
1422,355.25,77.785,82.9912,127.239,100.193,96.939,0.00335532,0.371468,20.6621,-277.81,0.296371,0.0,0.0
1431,357.5,77.7641,83.5133,127.519,100.195,96.7447,0.00338904,0.37265,20.6609,-278.081,0.314484,0.0,0.0
1440,359.75,78.3023,83.3313,122.506,100.199,97.3855,0.00332028,0.37376,20.6596,-278.351,0.255632,0.0,0.0
1449,362,78.0886,83.4624,129.661,100.214,96.1239,0.00320903,0.376022,20.6572,-278.611,0.374037,0.0,0.0
1458,364.25,78.1636,83.5947,127.706,100.233,96.4332,0.00301101,0.37892,20.6542,-278.851,0.346893,0.0,0.0
1467,366.5,78.5794,83.8052,125.356,100.241,96.36,0.00298873,0.382067,20.6514,-279.121,0.354396,0.0,0.0
1476,368.75,78.3339,83.9118,122.848,100.242,95.7612,0.00313343,0.384339,20.6483,-279.432,0.410458,0.0,0.0
1485,371,78.3088,83.8882,120.636,100.257,96.969,0.0032053,0.385276,20.6469,-279.682,0.299292,0.0,0.0
1494,373.25,78.8612,84.4704,124.801,100.262,96.3541,0.00321769,0.385511,20.6454,-279.992,0.35686,0.0,0.0
1503,375.5,79.2436,84.4451,125.33,100.258,96.7557,0.00322806,0.388057,20.6432,-280.283,0.319129,0.0,0.0
1512,377.75,78.83,84.5126,127.942,100.269,96.2627,0.00326166,0.387431,20.6424,-280.543,0.365956,0.0,0.0
1521,380,78.5829,84.029,127.432,100.275,96.1154,0.00333951,0.385893,20.6421,-280.833,0.380277,0.0,0.0
1530,382.25,78.9746,84.0334,125.38,100.271,95.8678,0.00339359,0.390015,20.6357,-281.133,0.403065,0.0,0.0
1539,384.5,78.9428,84.2981,125.508,100.263,95.9275,0.00348146,0.394508,20.6315,-281.384,0.396722,0.0,0.0
1548,386.75,78.9082,84.5631,125.823,100.278,96.2246,0.00348309,0.396944,20.6292,-281.704,0.370338,0.0,0.0
1557,389,78.9095,84.7992,128.757,100.267,95.4793,0.00347035,0.398464,20.6273,-282.014,0.439115,0.0,0.0
1566,391.25,79.0325,84.658,127.488,100.257,95.787,0.00351628,0.39954,20.6261,-282.194,0.409372,0.0,0.0
1575,393.5,79.4727,84.8623,126.92,100.25,96.6224,0.00356303,0.400181,20.6257,-282.535,0.330782,0.0,0.0
1584,395.75,79.273,84.8473,125.544,100.247,96.5073,0.00359833,0.399752,20.6255,-282.785,0.341192,0.0,0.0
1593,398,79.3609,85.2921,124.823,100.228,95.7188,0.00364156,0.401517,20.6245,-283.115,0.413162,0.0,0.0
1602,400.25,79.1875,85.0172,125.862,100.203,95.5868,0.00375325,0.404913,20.621,-283.375,0.423278,0.0,0.0
1611,402.5,79.6697,85.265,124.493,100.195,95.0984,0.00389439,0.406694,20.6194,-283.646,0.468604,0.0,0.0
1620,404.75,79.2724,85.4972,119.029,100.171,95.5893,0.00383553,0.405753,20.6202,-283.926,0.420224,0.0,0.0
1629,407,79.7168,85.8304,125.493,100.148,95.7015,0.00385496,0.404035,20.6219,-284.246,0.407568,0.0,0.0
1638,409.25,79.7348,85.4947,123.023,100.123,95.6596,0.00399162,0.403838,20.6226,-284.556,0.409259,0.0,0.0
1647,411.5,79.775,85.7155,123.242,100.116,95.6922,0.00406134,0.40448,20.6212,-284.867,0.405587,0.0,0.0
1656,413.75,80.1509,85.7307,123.137,100.064,95.0789,0.00402888,0.407232,20.6183,-285.107,0.458665,0.0,0.0
1665,416,80.0887,86.1924,123.384,100.042,95.131,0.00400741,0.410095,20.6159,-285.387,0.451728,0.0,0.0
1674,418.25,80.4514,86.1151,126.547,100.008,95.1708,0.00404641,0.41045,20.6139,-285.687,0.44501,0.0,0.0
1683,420.5,80.1191,85.5798,123.331,99.9879,94.5537,0.00411776,0.41088,20.6122,-285.998,0.501548,0.0,0.0
1692,422.75,80.3282,85.5042,127.05,99.9613,95.4603,0.00419847,0.410791,20.6116,-286.218,0.413519,0.0,0.0
1701,425,80.4294,86.1268,127.724,99.9251,94.1893,0.00431888,0.410088,20.6113,-286.538,0.530558,0.0,0.0
1710,427.25,80.2836,85.6431,127.596,99.9005,95.6037,0.00432443,0.412437,20.6099,-286.788,0.394574,0.0,0.0
1719,429.5,80.5573,85.8832,128.363,99.8582,94.0928,0.00411014,0.413323,20.6092,-287.109,0.533747,0.0,0.0
1728,431.75,80.2016,86.6801,124.621,99.8142,94.8373,0.0040005,0.41294,20.6103,-287.379,0.459066,0.0,0.0
1737,434,80.9219,86.9474,126.595,99.7832,93.6501,0.0040634,0.412347,20.6104,-287.669,0.569333,0.0,0.0
1746,436.25,80.377,85.9069,121.436,99.8106,94.5664,0.00434025,0.41241,20.6091,-288.009,0.484411,0.0,0.0
1755,438.5,80.3328,86.0697,120.781,99.8275,94.8462,0.00452015,0.414632,20.607,-288.27,0.459421,0.0,0.0
1764,440.75,80.5916,86.8106,120.768,99.8344,94.1419,0.00443506,0.414025,20.607,-288.57,0.526927,0.0,0.0
1773,443,80.4008,86.0893,124.757,99.8549,95.04,0.00431994,0.412205,20.6108,-288.88,0.443561,0.0,0.0
1782,445.25,80.4576,86.7249,128.063,99.8819,94.4475,0.00426204,0.410242,20.6133,-289.1,0.502117,0.0,0.0
1791,447.5,81.1474,86.6532,121.268,99.892,94.3142,0.00433311,0.411611,20.6134,-289.391,0.515699,0.0,0.0
1800,449.75,80.4634,86.4193,122.028,99.921,93.7394,0.00443971,0.413868,20.6114,-289.691,0.573168,0.0,0.0
1809,452,80.2061,85.5143,126.337,99.938,93.8643,0.00453821,0.41358,20.6106,-289.981,0.562742,0.0,0.0
1818,454.25,81.4097,87.0613,127.923,99.9581,94.7412,0.00459044,0.410356,20.6124,-290.241,0.48109,0.0,0.0
1827,456.5,81.413,87.0278,122.215,99.973,95.1107,0.00459938,0.406855,20.6159,-290.542,0.447497,0.0,0.0
1836,458.75,80.48,86.104,123.582,99.9948,93.4669,0.00448524,0.406127,20.6176,-290.792,0.605924,0.0,0.0
1845,461,81.2417,86.7947,121.01,100.016,94.767,0.00434628,0.407649,20.617,-291.102,0.483818,0.0,0.0
1854,463.25,81.1024,87.2031,124.905,100.03,94.5698,0.00425605,0.410942,20.6143,-291.413,0.503782,0.0,0.0
1863,465.5,81.1933,87.1957,124.382,100.034,93.9096,0.00427687,0.413269,20.6122,-291.673,0.567059,0.0,0.0
1872,467.75,80.5715,86.2588,126.893,100.061,96.0291,0.00443357,0.414609,20.61,-291.973,0.369131,0.0,0.0
1881,470,81.0571,87.0695,124.811,100.058,94.9964,0.00451688,0.414538,20.609,-292.263,0.465917,0.0,0.0
1890,472.25,81.0069,86.912,126.395,100.069,93.8258,0.00444408,0.414475,20.6087,-292.564,0.578218,0.0,0.0
1899,474.5,81.2663,87.1175,124.045,100.095,94.7107,0.0043611,0.414443,20.6085,-292.834,0.496237,0.0,0.0
1908,476.75,81.621,87.2434,126.366,100.122,94.1554,0.00426825,0.412516,20.6097,-293.124,0.551469,0.0,0.0
1917,479,80.8541,86.6169,126.362,100.126,94.7361,0.00423134,0.411149,20.6104,-293.404,0.496614,0.0,0.0
1926,481.25,81.2044,87.0158,128.733,100.136,94.3226,0.00421392,0.411472,20.6106,-293.655,0.536775,0.0,0.0
1935,483.5,80.3128,86.7196,125.396,100.172,94.3967,0.00410213,0.410716,20.6121,-293.965,0.532946,0.0,0.0
1944,485.75,80.8954,86.9869,127.571,100.174,94.8174,0.00395475,0.410517,20.6127,-294.235,0.493252,0.0,0.0
1953,488,80.8904,86.9144,125.394,100.194,94.6146,0.00391897,0.410882,20.6136,-294.545,0.514231,0.0,0.0
1962,490.25,81.8887,87.2926,125.217,100.226,94.2194,0.00393753,0.410428,20.6141,-294.806,0.554695,0.0,0.0
1971,492.5,80.9068,86.3859,120.462,100.232,94.8694,0.00402265,0.410206,20.6143,-295.106,0.493524,0.0,0.0
1980,494.75,81.1133,86.8247,128,100.235,95.0586,0.00407796,0.409927,20.6144,-295.366,0.475933,0.0,0.0
1989,497,81.157,86.9728,126.205,100.247,95.1729,0.004106,0.409533,20.615,-295.666,0.466233,0.0,0.0
1998,499.25,81.3112,86.9392,127.578,100.272,95.5707,0.00420579,0.411087,20.6129,-295.927,0.431032,0.0,0.0
2007,501.5,81.8157,87.1387,127.165,100.282,95.5927,0.00434098,0.416205,20.6057,-296.207,0.42983,0.0,0.0
2016,503.75,81.4984,87.6525,123.348,100.297,95.0184,0.00461682,0.419105,20.6016,-296.487,0.485286,0.0,0.0
2025,506,81.9571,87.3934,125.197,100.311,94.6028,0.00468368,0.420772,20.5996,-296.757,0.525855,0.0,0.0
2034,508.25,82.213,87.7304,127.654,100.335,95.2292,0.00456475,0.421763,20.5971,-297.038,0.468788,0.0,0.0
2043,510.5,81.7621,87.6007,120.559,100.343,94.6235,0.00441858,0.422906,20.5962,-297.348,0.526772,0.0,0.0
2052,512.75,81.8167,87.5305,124.06,100.36,96.0676,0.00442071,0.424175,20.5962,-297.648,0.39228,0.0,0.0
2061,515,81.754,88.0495,121.583,100.392,95.839,0.00443738,0.425712,20.595,-297.918,0.416575,0.0,0.0
2070,517.25,82.2048,87.7371,122.87,100.403,94.9621,0.0044353,0.426466,20.5945,-298.219,0.500049,0.0,0.0
2079,519.5,81.9764,88.046,123.47,100.435,94.4208,0.00439102,0.42611,20.5938,-298.529,0.554237,0.0,0.0
2088,521.75,82.1025,87.9621,124.125,100.439,94.8762,0.00426097,0.425907,20.5929,-298.789,0.511377,0.0,0.0
2097,524,82.5161,88.3367,124.789,100.456,94.3417,0.00424833,0.426227,20.5932,-299.109,0.563599,0.0,0.0
2106,526.25,82.3808,88.5332,124.967,100.459,94.7488,0.00429551,0.426186,20.5927,-299.4,0.525237,0.0,0.0
2115,528.5,82.1584,88.4516,126.64,100.468,94.351,0.00439053,0.427958,20.5902,-299.65,0.563758,0.0,0.0
2124,530.75,82.5254,88.3415,120.765,100.484,94.5376,0.00453332,0.429102,20.5876,-299.89,0.547461,0.0,0.0
2133,533,82.4282,88.7277,121.652,100.501,95.5377,0.00447838,0.430508,20.5856,-300.21,0.454598,0.0,0.0
2142,535.25,82.6559,88.6221,122.637,100.497,94.4225,0.00427675,0.43142,20.584,-300.461,0.55962,0.0,0.0
2151,537.5,82.5841,88.265,127.275,100.504,94.7281,0.00423518,0.432195,20.5832,-300.771,0.531234,0.0,0.0
2160,539.75,83.1466,88.533,124.703,100.53,94.7552,0.0043306,0.432546,20.5829,-301.041,0.530971,0.0,0.0
2169,542,82.4984,88.9125,127.342,100.538,94.2333,0.00443929,0.431934,20.5819,-301.361,0.581256,0.0,0.0
2178,544.25,82.8168,88.9185,124.849,100.542,93.9409,0.00458102,0.431607,20.581,-301.642,0.609476,0.0,0.0
2187,546.5,82.8832,88.7309,125.305,100.565,94.2905,0.00471655,0.433696,20.5786,-301.962,0.578189,0.0,0.0
2196,548.75,83.0317,88.6854,124.664,100.582,94.5148,0.00476261,0.436582,20.574,-302.232,0.558374,0.0,0.0
2205,551,82.9831,88.8866,122.999,100.594,94.4183,0.00463334,0.438952,20.5706,-302.503,0.568621,0.0,0.0
2214,553.25,83.2761,89.0066,120.511,100.595,94.5931,0.00437418,0.440828,20.5672,-302.793,0.552129,0.0,0.0
2223,555.5,82.9317,88.9985,126.519,100.615,94.5228,0.00425472,0.442357,20.5651,-303.103,0.560631,0.0,0.0
2232,557.75,83.3555,89.3007,114.919,100.62,94.3984,0.00423535,0.443249,20.5637,-303.403,0.572885,0.0,0.0
2241,560,83.5019,89.4297,120.718,100.627,94.5732,0.00420816,0.445684,20.5611,-303.724,0.556893,0.0,0.0
2250,562.25,83.8052,89.5203,124.981,100.643,94.731,0.00422809,0.447663,20.5585,-304.014,0.543326,0.0,0.0
2259,564.5,83.5096,89.6005,124.708,100.661,94.4957,0.00422456,0.448459,20.556,-304.284,0.567229,0.0,0.0
2268,566.75,83.6434,89.8477,121.126,100.663,94.4238,0.0042368,0.450465,20.5531,-304.594,0.574317,0.0,0.0
2277,569,84.1158,89.6006,126.999,100.664,94.1165,0.004337,0.452291,20.5508,-304.895,0.603606,0.0,0.0
2286,571.25,83.9666,89.9142,123.791,100.7,94.4775,0.00448052,0.450316,20.5512,-305.165,0.572442,0.0,0.0
2295,573.5,83.9712,90.1438,125.914,100.683,94.4606,0.00451058,0.45036,20.5511,-305.465,0.572542,0.0,0.0
2304,575.75,84.2329,90.5765,122.087,100.682,94.5211,0.00434015,0.453668,20.5486,-305.725,0.566686,0.0,0.0
2313,578,84.4944,90.8855,121.26,100.674,94.8093,0.00413934,0.454226,20.5476,-306.026,0.538713,0.0,0.0
2322,580.25,84.483,90.5167,127.296,100.683,94.7052,0.00417096,0.453474,20.5481,-306.326,0.549365,0.0,0.0
2331,582.5,84.717,90.6041,126.402,100.67,94.048,0.00431078,0.452817,20.5494,-306.606,0.610686,0.0,0.0
2340,584.75,84.9144,90.9327,123.164,100.663,95.2321,0.00426498,0.450391,20.5514,-306.886,0.497807,0.0,0.0
2349,587,84.2181,90.8441,124.586,100.661,94.5761,0.00417644,0.448597,20.5521,-307.177,0.559594,0.0,0.0
2358,589.25,84.7146,90.424,123.258,100.65,95.856,0.00420121,0.448497,20.5538,-307.437,0.43802,0.0,0.0
2367,591.5,84.5156,91.0024,127.891,100.633,94.7691,0.00421078,0.447409,20.5558,-307.767,0.538819,0.0,0.0
2376,593.75,84.7007,90.4836,125.072,100.622,94.5452,0.00419661,0.445744,20.558,-308.027,0.559113,0.0,0.0
2385,596,84.857,90.9238,122.7,100.618,94.0484,0.00422419,0.443029,20.5617,-308.318,0.606009,0.0,0.0
2394,598.25,84.7616,90.7458,121.357,100.594,94.4576,0.00429326,0.440751,20.5648,-308.578,0.564917,0.0,0.0
2403,600.5,85.0873,90.5294,125,100.564,95.3456,0.00422333,0.438924,20.5667,-308.878,0.478243,0.0,0.0
2412,602.75,84.6349,90.8174,123.76,100.558,95.2575,0.00419397,0.435855,20.5687,-309.138,0.485995,0.0,0.0
2421,605,84.5564,90.4639,122.268,100.52,94.8292,0.00415384,0.432744,20.5719,-309.389,0.523058,0.0,0.0
2430,607.25,84.6357,90.7697,123.538,100.476,95.0332,0.00403647,0.431591,20.5731,-309.669,0.499813,0.0,0.0
2439,609.5,84.4749,90.5116,126.511,100.468,94.031,0.00400492,0.43082,20.5738,-309.909,0.594318,0.0,0.0
2448,611.75,84.7157,90.7454,126.424,100.441,95.2766,0.00406565,0.428132,20.5771,-310.199,0.473798,0.0,0.0
2457,614,84.5155,90.7317,127.984,100.397,94.249,0.00407723,0.425451,20.5797,-310.44,0.567198,0.0,0.0
2466,616.25,84.5266,90.2208,125.979,100.361,95.277,0.0039957,0.422062,20.5836,-310.7,0.466589,0.0,0.0
2475,618.5,84.1903,90.0826,125.317,100.318,94.0784,0.0038918,0.417372,20.5892,-310.99,0.576355,0.0,0.0
2484,620.75,84.2235,89.9085,123.505,100.293,94.3836,0.00374828,0.414332,20.5922,-311.2,0.545056,0.0,0.0
2493,623,84.16,90.4255,118.969,100.231,94.0492,0.00362323,0.412165,20.5953,-311.471,0.571386,0.0,0.0
2502,625.25,84.124,90.1792,124.518,100.185,95.3811,0.00361168,0.406592,20.5998,-311.681,0.440987,0.0,0.0
2511,627.5,83.9654,90.1027,124.773,100.142,94.778,0.00363245,0.400577,20.6074,-311.941,0.49409,0.0,0.0
2520,629.75,83.9228,90.2202,126.901,100.089,93.6946,0.00363531,0.393782,20.6165,-312.171,0.592547,0.0,0.0
2529,632,83.7561,89.4065,123.251,100.049,94.6455,0.00356246,0.387073,20.6249,-312.421,0.498295,0.0,0.0
2538,634.25,84.1118,89.548,124.115,99.9883,94.3776,0.00349478,0.38197,20.6313,-312.632,0.51831,0.0,0.0
2547,636.5,83.6332,89.2539,126.401,99.948,94.8381,0.00352942,0.376593,20.6372,-312.862,0.47101,0.0,0.0
2556,638.75,83.1626,88.9017,126.244,99.8876,94.6587,0.00344057,0.371023,20.6444,-313.012,0.482578,0.0,0.0
2565,641,82.8888,88.5408,125.031,99.8392,95.376,0.0032283,0.36544,20.651,-313.252,0.410469,0.0,0.0
2574,643.25,82.8553,88.7953,123.469,99.7792,94.1525,0.00293873,0.360301,20.6569,-313.482,0.520954,0.0,0.0
2583,645.5,82.7764,88.0579,124.663,99.7231,94.2549,0.00281457,0.354776,20.6648,-313.703,0.506156,0.0,0.0
2592,647.75,82.4742,88.2403,127.404,99.6554,95.1217,0.00282162,0.348252,20.6712,-313.893,0.417901,0.0,0.0
2601,650,82.1827,87.7426,126.665,99.5958,94.2414,0.0028361,0.339856,20.6793,-314.083,0.495976,0.0,0.0
2610,652.25,82.1503,87.7102,126.859,99.5579,95.1602,0.00285961,0.331378,20.6906,-314.243,0.405479,0.0,0.0
2619,654.5,81.9891,87.2168,125.601,99.5249,94.318,0.00289097,0.321588,20.7008,-314.423,0.482289,0.0,0.0
2628,656.75,80.7906,86.8601,128.023,99.4596,95.3257,0.00282069,0.312616,20.711,-314.583,0.381016,0.0,0.0
2637,659,80.9698,86.3389,126.517,99.4201,95.4099,0.00262823,0.301722,20.7255,-314.724,0.369525,0.0,0.0
2646,661.25,80.1459,85.8151,126.648,99.3967,95.1737,0.00252025,0.290984,20.7403,-314.914,0.389658,0.0,0.0
2655,663.5,80.6583,85.726,128.181,99.352,94.996,0.00248101,0.280986,20.752,-315.064,0.402396,0.0,0.0
2664,665.75,79.5123,84.7991,126.325,99.3193,94.9439,0.00246667,0.271564,20.7629,-315.184,0.404366,0.0,0.0
2673,668,79.3695,84.718,130.498,99.3117,95.5572,0.00244767,0.262187,20.7757,-315.284,0.345888,0.0,0.0
2682,670.25,78.702,84.1496,128.923,99.2705,95.7176,0.00232581,0.252911,20.786,-315.434,0.32712,0.0,0.0
2691,672.5,78.3667,83.3811,128.472,99.2431,95.3434,0.00220466,0.243549,20.7957,-315.534,0.359792,0.0,0.0
2700,674.75,77.6612,82.9363,133.19,99.2097,95.2753,0.00210361,0.23353,20.8073,-315.654,0.363183,0.0,0.0
2709,677,78.0153,82.5803,131.07,99.1928,95.9465,0.0020478,0.22224,20.8209,-315.734,0.298641,0.0,0.0
2718,679.25,76.459,81.5147,133.861,99.1702,96.0244,0.0020801,0.212384,20.8351,-315.865,0.289316,0.0,0.0
2727,681.5,76.8851,81.4143,130.942,99.1529,96.6656,0.00219758,0.201528,20.8494,-315.905,0.228017,0.0,0.0
2736,683.75,75.6425,80.1859,130.944,99.1476,95.883,0.00233308,0.192386,20.8595,-315.995,0.300496,0.0,0.0
2745,686,74.797,79.5602,131.939,99.1275,95.503,0.00250378,0.185604,20.8687,-316.065,0.334318,0.0,0.0
2754,688.25,74.9585,79.3067,128.702,99.1049,96.0507,0.00261941,0.179888,20.8748,-316.145,0.280953,0.0,0.0
2763,690.5,73.8468,78.5423,134.836,99.0884,95.6909,0.00266686,0.175277,20.8801,-316.235,0.313135,0.0,0.0
2772,692.75,73.6041,77.8948,130.201,99.0912,95.6676,0.00281874,0.171705,20.8846,-316.265,0.315573,0.0,0.0
2781,695,72.6517,77.3735,136.271,99.0864,95.7455,0.00301382,0.169211,20.8873,-316.305,0.307833,0.0,0.0
2790,697.25,72.9266,77.1278,134.675,99.0694,95.8551,0.00328644,0.167576,20.8889,-316.355,0.296031,0.0,0.0
2799,699.5,71.5566,76.2037,136.003,99.0457,95.8602,0.00334464,0.165844,20.8913,-316.445,0.2934,0.0,0.0
2808,701.75,70.8628,75.2578,133.049,99.0312,95.2884,0.00332262,0.163608,20.8934,-316.495,0.34578,0.0,0.0
2817,704,71.5098,75.2491,134.938,99.0086,95.5885,0.00343832,0.164073,20.8925,-316.555,0.315516,0.0,0.0
2826,706.25,70.293,74.3861,135.126,99.0066,95.9732,0.00361226,0.164949,20.891,-316.595,0.279283,0.0,0.0
2835,708.5,70.1227,74.314,134.292,98.9973,95.7582,0.00370233,0.164957,20.8904,-316.665,0.298571,0.0,0.0
2844,710.75,70.0903,73.9605,133.865,98.9824,95.6862,0.00368512,0.164851,20.8902,-316.685,0.303967,0.0,0.0
2853,713,69.8434,73.5934,129.976,98.9675,95.9258,0.003641,0.16417,20.8913,-316.805,0.280173,0.0,0.0
2862,715.25,68.896,72.5701,134.603,98.984,95.7108,0.00366059,0.16449,20.8912,-316.815,0.30181,0.0,0.0
2871,717.5,68.9241,72.173,136.109,98.9743,96.2479,0.00366694,0.16557,20.8902,-316.855,0.25071,0.0,0.0
2880,719.75,68.4201,72.0813,131.374,98.9505,96.0532,0.00373607,0.166058,20.8881,-316.946,0.266726,0.0,0.0
2889,722,67.4368,71.2714,135.947,98.9356,95.8496,0.00379905,0.166801,20.887,-316.976,0.284416,0.0,0.0
2898,724.25,67.5843,71.0126,131.85,98.9401,95.492,0.00376811,0.166117,20.8858,-316.976,0.318368,0.0,0.0
2907,726.5,66.7355,70.5734,131.017,98.9381,96.0621,0.00385332,0.165745,20.8859,-317.036,0.264763,0.0,0.0
2916,728.75,67.9406,71.0285,131.129,98.934,95.8852,0.00395118,0.166577,20.8835,-317.096,0.280941,0.0,0.0
2925,731,67.6703,70.8712,134.317,98.9324,95.7442,0.00391841,0.167611,20.8824,-317.156,0.293997,0.0,0.0
2934,733.25,67.05,70.4141,135.389,98.9429,95.9101,0.00389015,0.168205,20.8819,-317.226,0.279408,0.0,0.0
2943,735.5,66.3545,69.7982,134.264,98.9111,95.6638,0.00389555,0.169555,20.879,-317.306,0.2996,0.0,0.0
2952,737.75,66.2337,69.7611,133.697,98.9062,95.3235,0.0039261,0.170517,20.8777,-317.306,0.331142,0.0,0.0
2961,740,65.8292,69.3099,133.412,98.9107,95.6545,0.00398067,0.170113,20.8785,-317.376,0.300437,0.0,0.0
2970,742.25,66.268,69.3069,132.84,98.9078,95.7125,0.00401695,0.169189,20.8792,-317.386,0.294741,0.0,0.0
2979,744.5,65.4981,68.7032,135.055,98.901,95.8869,0.00395638,0.167594,20.8821,-317.416,0.277784,0.0,0.0
2988,746.75,65.0843,68.0256,136.88,98.9018,95.6465,0.00392458,0.165143,20.885,-317.496,0.300386,0.0,0.0
2997,749,65.0573,67.896,137.029,98.9002,95.1885,0.00390824,0.164004,20.8876,-317.546,0.343314,0.0,0.0
3006,751.25,65.0141,67.9599,135.198,98.8982,96.3414,0.00392366,0.163238,20.8887,-317.626,0.235083,0.0,0.0
3015,753.5,64.8717,67.753,133.076,98.9018,95.5318,0.00393261,0.161711,20.8905,-317.606,0.311155,0.0,0.0
3024,755.75,64.0675,67.5406,131.94,98.9199,95.3862,0.00397361,0.161361,20.8912,-317.676,0.32649,0.0,0.0
3033,758,64.2235,67.0187,132.278,98.9123,95.732,0.0041446,0.160905,20.8915,-317.696,0.293319,0.0,0.0
3042,760.25,64.4185,67.1593,133.14,98.9062,95.4632,0.00420605,0.160403,20.8917,-317.746,0.318002,0.0,0.0
3051,762.5,63.7916,66.7486,132.473,98.8994,95.9829,0.00419103,0.160453,20.8917,-317.816,0.26865,0.0,0.0
3060,764.75,64.5594,66.8378,136.977,98.9195,95.3371,0.00424709,0.15993,20.8914,-317.856,0.331074,0.0,0.0
3069,767,63.8434,66.6022,132.524,98.9151,96.2017,0.00426874,0.159763,20.8908,-317.876,0.24964,0.0,0.0
3078,769.25,63.993,66.2585,131.651,98.9264,95.4327,0.00424975,0.160168,20.8906,-317.896,0.322696,0.0,0.0
3087,771.5,63.6856,66.2625,135.251,98.9328,95.6697,0.00427728,0.16012,20.8913,-317.966,0.301019,0.0,0.0
3096,773.75,63.2409,65.7799,133.081,98.9461,95.9546,0.00433433,0.160665,20.8917,-318.057,0.275543,0.0,0.0
3105,776,63.2194,66.0491,133.434,98.9381,95.7286,0.00437872,0.160913,20.8918,-318.047,0.295976,0.0,0.0
3114,778.25,63.1123,65.8334,131.972,98.9453,95.6418,0.00447491,0.160006,20.8932,-318.107,0.304772,0.0,0.0
3123,780.5,62.9016,65.5965,136.284,98.9691,95.4488,0.00455572,0.15909,20.8943,-318.147,0.325058,0.0,0.0
3132,782.75,63.1989,65.481,132.04,98.9804,95.4463,0.00459644,0.158236,20.8961,-318.197,0.32632,0.0,0.0
3141,785,62.8167,65.5218,134.792,98.9876,95.4035,0.00464916,0.15757,20.8974,-318.207,0.330998,0.0,0.0
3150,787.25,62.8116,65.1145,133.197,98.9989,95.5432,0.00463661,0.157429,20.8989,-318.277,0.318892,0.0,0.0
3159,789.5,62.4017,64.9619,131.092,99.0183,95.1763,0.00451635,0.157424,20.8987,-318.327,0.355182,0.0,0.0
3168,791.75,62.7055,65.1083,132.474,99.0199,95.5796,0.00448936,0.158173,20.8986,-318.357,0.317374,0.0,0.0
3177,794,62.2357,64.7652,135.977,99.0239,95.1001,0.00455331,0.15854,20.8986,-318.357,0.362879,0.0,0.0
3186,796.25,61.994,64.7719,131.131,99.0485,95.4865,0.00462735,0.158747,20.8986,-318.407,0.328714,0.0,0.0
3195,798.5,62.3216,64.4575,134.797,99.0602,95.4107,0.00467629,0.159418,20.8972,-318.477,0.336896,0.0,0.0
3204,800.75,62.1448,64.6876,135.156,99.0739,95.7315,0.00478297,0.16127,20.8958,-318.507,0.308011,0.0,0.0
3213,803,62.0255,64.6388,130.521,99.0892,95.5669,0.0049128,0.162652,20.8946,-318.537,0.324847,0.0,0.0
3222,805.25,61.8018,63.8982,134.836,99.1081,95.7574,0.00494013,0.162345,20.8943,-318.567,0.308693,0.0,0.0
3231,807.5,61.9747,63.4322,135.007,99.1118,95.4878,0.00499881,0.161366,20.8963,-318.647,0.334326,0.0,0.0
3240,809.75,61.5086,63.6612,135.762,99.1331,95.2931,0.00517171,0.160576,20.8977,-318.657,0.354578,0.0,0.0
3249,812,61.3104,63.9405,132.873,99.1513,95.2795,0.00526906,0.161115,20.8975,-318.727,0.357495,0.0,0.0
3258,814.25,61.269,63.4129,135.437,99.1646,95.6482,0.00519782,0.161617,20.8973,-318.737,0.324042,0.0,0.0
3267,816.5,61.6717,63.3056,135.41,99.1766,96.0011,0.00510024,0.161312,20.8973,-318.737,0.292076,0.0,0.0
3276,818.75,60.9337,63.5362,134.002,99.1964,95.6769,0.00510389,0.16079,20.8979,-318.877,0.324223,0.0,0.0
3285,821,60.8464,63.1552,130.696,99.2298,95.8225,0.00511897,0.159985,20.9003,-318.847,0.313602,0.0,0.0
3294,823.25,61.0837,63.0999,132.656,99.2282,95.7032,0.00510372,0.159961,20.9013,-318.917,0.324642,0.0,0.0
3303,825.5,60.8366,62.9118,133.278,99.2383,95.9444,0.00513595,0.160007,20.9017,-318.937,0.302958,0.0,0.0
3312,827.75,61.0241,62.9684,134.71,99.2734,95.6499,0.00526446,0.159657,20.9023,-318.997,0.333726,0.0,0.0
3321,830,60.9808,63.0603,135.097,99.2871,95.5288,0.0055022,0.159047,20.9042,-319.017,0.34633,0.0,0.0
3330,832.25,60.2397,62.5049,135.587,99.3229,95.5597,0.0056865,0.158442,20.9056,-319.047,0.34667,0.0,0.0
3339,834.5,60.5616,62.7751,137.434,99.3362,95.456,0.00585296,0.158866,20.9065,-319.077,0.357617,0.0,0.0
3348,836.75,60.2423,62.3899,134.515,99.3544,95.5085,0.00595426,0.160617,20.905,-319.117,0.354321,0.0,0.0
3357,839,59.8949,61.9826,134.077,99.3753,95.9656,0.00599405,0.163121,20.9027,-319.147,0.313364,0.0,0.0
3366,841.25,60.427,62.4423,133.313,99.4027,95.6791,0.00610928,0.166463,20.8973,-319.218,0.342676,0.0,0.0
3375,843.5,59.8638,62.2058,139.411,99.4322,95.9211,0.00620976,0.169107,20.8948,-319.258,0.322652,0.0,0.0
3384,845.75,59.9322,62.1478,135.404,99.4543,96.0371,0.00621929,0.170477,20.8938,-319.268,0.313808,0.0,0.0
3393,848,60.0092,61.7985,136.699,99.4741,95.8175,0.00617125,0.170175,20.8934,-319.308,0.336141,0.0,0.0
3402,850.25,59.3218,62.374,136.048,99.4942,95.7667,0.00625043,0.170299,20.8945,-319.368,0.342718,0.0,0.0
3411,852.5,59.6174,61.8832,137.183,99.5172,95.7006,0.00641095,0.169166,20.8965,-319.418,0.350979,0.0,0.0
3420,854.75,59.5997,61.6789,136.224,99.5402,96.0849,0.00657736,0.168041,20.8978,-319.448,0.317082,0.0,0.0
3429,857,59.688,61.2409,133.346,99.5571,95.6617,0.00666822,0.167596,20.8993,-319.478,0.358229,0.0,0.0
3438,859.25,59.6752,61.5484,134.193,99.5672,95.8208,0.00669266,0.166665,20.8999,-319.538,0.344219,0.0,0.0
3447,861.5,59.0714,61.3494,133.369,99.6055,95.7641,0.00680393,0.166461,20.9005,-319.548,0.352985,0.0,0.0
3456,863.75,59.1754,60.9799,135.298,99.6171,96.0134,0.0067821,0.166918,20.8996,-319.648,0.330705,0.0,0.0
3465,866,59.0719,61.6777,132.734,99.6389,95.7442,0.00678576,0.167153,20.8992,-319.648,0.357862,0.0,0.0
3474,868.25,59.1508,61.0436,135.501,99.6635,96.5467,0.00700177,0.166995,20.899,-319.658,0.285168,0.0,0.0
3483,870.5,59.6799,61.2121,134.465,99.6881,96.0062,0.00715638,0.169538,20.897,-319.718,0.337766,0.0,0.0
3492,872.75,59.2708,61.3076,133.088,99.6973,96.0316,0.0072245,0.171777,20.8939,-319.768,0.336227,0.0,0.0
3501,875,59.4724,61.3209,136.424,99.7022,95.8991,0.00724831,0.172592,20.8926,-319.798,0.349052,0.0,0.0
3510,877.25,59.0461,61.0536,132.476,99.7155,95.922,0.00715419,0.171799,20.8937,-319.848,0.348109,0.0,0.0
3519,879.5,58.45,61.3328,137.295,99.7111,95.9029,0.00696322,0.17081,20.897,-319.878,0.349494,0.0,0.0
3528,881.75,58.9819,60.9115,138.922,99.7223,95.5601,0.00693295,0.16925,20.8988,-319.898,0.382648,0.0,0.0
3537,884,59.0882,60.9193,136.048,99.736,95.9512,0.00699016,0.16816,20.8995,-319.928,0.347228,0.0,0.0
3546,886.25,58.7569,60.7308,136.626,99.7332,96.1459,0.00706693,0.167088,20.9009,-319.968,0.328781,0.0,0.0
3555,888.5,59.01,60.875,133.723,99.7284,96.1281,0.00726153,0.167356,20.9014,-320.058,0.330006,0.0,0.0
3564,890.75,58.394,59.9298,133.406,99.7445,95.8373,0.00753625,0.166173,20.9024,-320.088,0.358645,0.0,0.0
3573,893,58.1183,60.0204,137.591,99.7618,96.0714,0.00766575,0.166074,20.903,-320.118,0.338312,0.0,0.0
3582,895.25,57.9805,60.0253,131.721,99.7663,96.0172,0.00767543,0.167254,20.902,-320.168,0.343774,0.0,0.0
3591,897.5,57.7321,59.8845,137.809,99.7751,96.1192,0.00772013,0.167359,20.9017,-320.138,0.335042,0.0,0.0
3600,899.75,58.0842,60.226,133.681,99.8005,95.947,0.00779011,0.166882,20.903,-320.188,0.353424,0.0,0.0
3609,902,57.266,59.4921,140.601,99.8102,95.9724,0.00793838,0.167041,20.904,-320.259,0.35192,0.0,0.0
3618,904.25,57.714,59.4884,132.804,99.8142,95.6786,0.00819832,0.16719,20.9051,-320.279,0.379792,0.0,0.0
3627,906.5,57.157,59.1643,137.458,99.8239,96.2335,0.00837516,0.167152,20.9052,-320.349,0.328764,0.0,0.0
3636,908.75,57.7125,59.712,130.969,99.838,96.5445,0.00840673,0.167451,20.9062,-320.369,0.301067,0.0,0.0
3645,911,57.593,59.4823,135.19,99.8461,96.3524,0.00841776,0.167246,20.9063,-320.419,0.319671,0.0,0.0
3654,913.25,57.2419,58.8725,137.027,99.861,95.9165,0.00832447,0.165512,20.9086,-320.469,0.361711,0.0,0.0
3663,915.5,57.5882,59.248,139.542,99.8751,95.9575,0.00830933,0.164642,20.9102,-320.479,0.359138,0.0,0.0
3672,917.75,57.4765,59.5851,134.68,99.8952,95.9068,0.00826483,0.165532,20.9093,-320.539,0.3657,0.0,0.0
3681,920,56.8022,59.5292,133.969,99.8856,96.415,0.00807461,0.166267,20.909,-320.569,0.317389,0.0,0.0
3690,922.25,57.1604,59.1868,133.172,99.9013,96.206,0.00803791,0.166432,20.9089,-320.569,0.338284,0.0,0.0
3699,924.5,56.7576,59.3463,138.66,99.9061,95.8272,0.00817666,0.166429,20.9089,-320.629,0.374126,0.0,0.0
3708,926.75,57.438,59.4657,136.208,99.915,96.3186,0.00836461,0.166654,20.9096,-320.659,0.329019,0.0,0.0
3717,929,57.2425,59.4792,140.744,99.9174,95.7527,0.00848743,0.166053,20.911,-320.729,0.382119,0.0,0.0
3726,931.25,56.9868,59.2605,135.287,99.9182,96.3084,0.00858994,0.166211,20.9121,-320.729,0.330256,0.0,0.0
3735,933.5,57.2426,59.1645,136.464,99.9359,95.7006,0.00873667,0.165916,20.9119,-320.759,0.388665,0.0,0.0
3744,935.75,56.8593,59.3229,135.751,99.9311,96.2398,0.00890288,0.16623,20.9115,-320.819,0.337805,0.0,0.0
3753,938,56.3626,58.3866,137.225,99.9416,96.104,0.00895423,0.167435,20.91,-320.829,0.351426,0.0,0.0
3762,940.25,57.0156,58.8025,134.743,99.95,95.9042,0.00888927,0.167902,20.9093,-320.929,0.37086,0.0,0.0
3771,942.5,57.0584,58.6966,140.17,99.9593,95.8103,0.00876855,0.166753,20.9115,-320.929,0.38049,0.0,0.0
3780,944.75,56.8631,59.2223,131.457,99.9674,96.1116,0.00878218,0.165468,20.914,-320.979,0.353029,0.0,0.0
3789,947,56.8245,58.2524,135.878,99.9654,95.9199,0.00889585,0.164318,20.9152,-321.019,0.37077,0.0,0.0
3798,949.25,57.0261,58.4216,141.031,99.9799,95.7239,0.00894712,0.16327,20.9156,-321.069,0.390427,0.0,0.0
3807,951.5,56.7593,58.8068,139.853,99.9726,96.44,0.00892917,0.163262,20.9149,-321.099,0.322884,0.0,0.0
3816,953.75,56.7705,58.8076,131.631,99.975,96.6237,0.00891799,0.16546,20.9118,-321.109,0.306023,0.0,0.0
3825,956,56.7005,58.3375,138.679,99.9916,96.366,0.00895475,0.167031,20.91,-321.159,0.331479,0.0,0.0
3834,958.25,56.4951,58.0498,137.743,100.005,96.4654,0.00911755,0.166993,20.9097,-321.189,0.32345,0.0,0.0
3843,960.5,56.4016,58.2449,133.053,99.9976,96.3774,0.00940599,0.166589,20.9106,-321.259,0.330958,0.0,0.0
3852,962.75,56.2926,58.1771,136.605,100.013,96.1785,0.00961453,0.16578,20.9117,-321.269,0.350876,0.0,0.0
3861,965,56.6757,58.0331,135.8,100.013,96.2017,0.00963341,0.164925,20.9128,-321.349,0.348704,0.0,0.0
3870,967.25,55.9608,57.9557,137.139,100.006,96.3533,0.00953338,0.164038,20.9133,-321.339,0.333928,0.0,0.0
3879,969.5,56.2437,57.9634,134.565,100.001,96.2288,0.00932839,0.16536,20.911,-321.39,0.345127,0.0,0.0
3888,971.75,56.1737,58.2968,136.582,100.006,96.0354,0.00923553,0.166782,20.909,-321.39,0.363584,0.0,0.0
3897,974,55.9315,58.0592,135.587,100.015,96.5539,0.00942642,0.16751,20.907,-321.47,0.316057,0.0,0.0
3906,976.25,55.9016,57.9072,134.858,100.017,96.0113,0.00954707,0.167718,20.9076,-321.47,0.366851,0.0,0.0
3915,978.5,56.211,58.4208,136.077,100.003,95.8403,0.00950442,0.165924,20.9119,-321.56,0.381619,0.0,0.0
3924,980.75,56.4522,57.9481,133.414,100.01,95.7836,0.00954001,0.164646,20.914,-321.58,0.38751,0.0,0.0
3933,983,56.1312,57.5493,139.296,100.021,96.0684,0.00962674,0.164947,20.9135,-321.6,0.361873,0.0,0.0
3942,985.25,56.1247,57.8563,131.624,100.022,95.955,0.00966151,0.164704,20.9138,-321.64,0.372585,0.0,0.0
3951,987.5,55.7213,57.9817,139.479,100.019,95.8577,0.00966658,0.164057,20.9142,-321.71,0.381405,0.0,0.0
3960,989.75,55.7954,57.6804,135.478,100.035,96.3541,0.00968308,0.165247,20.912,-321.72,0.336489,0.0,0.0
3969,992,55.9464,57.8002,134.465,100.024,96.1556,0.00966999,0.165083,20.9113,-321.75,0.354021,0.0,0.0
3978,994.25,56.0377,58.1476,135.252,100.032,96.2466,0.00973828,0.163755,20.912,-321.79,0.346219,0.0,0.0
3987,996.5,55.8032,57.738,136.905,100.044,96.2081,0.00987712,0.162984,20.9137,-321.81,0.350932,0.0,0.0
3996,998.75,55.7876,57.9051,138.453,100.059,96.2259,0.0100777,0.162369,20.9152,-321.86,0.350576,0.0,0.0
4005,1001,55.5667,57.8714,137.628,100.048,96.1353,,0.162606,,-321.89,0.358086,0.0,0.0
4014,1003.25,55.7748,57.6613,134.525,100.062,96.137,,,,-321.93,0.359158,0.0,0.0
4023,1005.5,55.4741,57.4565,137.77,100.07,96.1831,,,,-321.95,0.355575,0.0,0.0
4032,1007.75,55.3105,57.7435,134.724,100.058,96.4798,,,,-322.01,0.326813,0.0,0.0
4041,1010,55.4526,57.9606,137.323,100.069,95.9427,,,,-322.08,0.377927,0.0,0.0
4042,1010.25,55.3721,57.5784,133.257,100.075,95.9563,,,,-322.07,0.377238,0.0,0.0