File: 01_Data/Engineered_Wood_Furniture/Cone/Engineered_Wood_Furniture_Cone_HF50Scan_220330_R3.csv
Names,Time,Stack TC,Smoke TC,Exh Press,Smoke Comp,Smoke Meas,CO Meter,CO2 Meter,O2 Meter,Sample Mass,Ext Coeff,Start Test,Flame Verif
Chan Gain,,500,500,1,1,1,1,1,1,1,1,1.0,1.0
Offset,,0,0,0.135377,0,0,0,0,0,0,0,0.0,0.0
Gain,,1,1,25.011,13.2062,13.8682,1,1,1,1.0009,1.02317,1.0,1.0
Units,sec,C,C,Pa,%,%,%,%,%,g,/m,,
Baseline,,33.3792,34.8395,145.804,100.039,96.2779,0.000709151,0.0428405,21.0738,-835.642,0.343982,,
12,2.75,32.0344,33.6574,149.003,100.213,96.396,0.000602262,0.0436034,21.0732,-227.415,0.348555,0.0,0.0
24,5.75,32.0434,33.8178,143.136,100.215,95.9702,0.000557095,0.043467,21.0729,-227.455,0.388429,0.0,0.0
36,8.75,32.3253,33.6961,139.797,100.235,95.93,0.000640857,0.0433453,21.0711,-227.555,0.394031,0.0,0.0
48,11.75,32.705,33.7575,146.72,100.208,95.0379,0.000958742,0.0433289,21.0712,-227.645,0.475402,0.0,0.0
60,14.75,32.3503,34.1497,147.487,100.21,92.562,0.00154935,0.0446269,21.0735,-227.765,0.712533,0.0,0.0
72,17.75,32.4864,33.8615,143.3125,100.215,96.0811,0.00232015,0.0613921,21.0447,-227.865,0.378065,0.0,1.0
84,20.75,32.4089,34.459,139.843,100.208,96.1082,0.00295297,0.114222,20.985,-228.085,0.374886,0.0,1.0
96,23.75,34.3565,35.8334,119.266,100.202,91.2098,0.00518581,0.252952,20.747,-228.626,0.843929,0.0,0.0
108,26.75,37.9858,39.8424,108.101,100.208,88.9566,0.00789967,0.588648,20.3032,-229.457,1.06894,0.0,0.0
120,29.75,43.729,45.903,113.242,100.214,93.2544,0.00879311,0.823073,20.052,-230.177,0.646042,0.0,0.0
132,32.75,47.5716,50.5953,120.446,100.216,92.3741,0.00770776,0.809757,20.13,-230.728,0.731314,0.0,0.0
144,35.75,49.5989,52.8251,131.716,100.22,95.743,0.00610574,0.639146,20.3102,-231.118,0.410214,0.0,0.0
156,38.75,49.8411,53.9854,135.396,100.217,96.2102,0.00459488,0.484677,20.5168,-231.428,0.366195,0.0,0.0
168,41.75,51.0715,54.2462,130.697,100.227,96.4624,0.00396542,0.409339,20.6188,-231.799,0.343562,0.0,0.0
180,44.75,51.5246,55.5033,128.303,100.226,95.8086,0.00393075,0.413003,20.617,-232.169,0.404536,0.0,0.0
192,47.75,52.9631,56.4157,127.126,100.226,95.591,0.00424408,0.461167,20.5605,-232.66,0.424974,0.0,0.0
204,50.75,54.172,57.8488,129.685,100.237,94.9206,0.00472403,0.515417,20.5022,-233.19,0.48915,0.0,0.0
216,53.75,55.6033,60.1707,123.597,100.227,94.6959,0.00491312,0.561266,20.4469,-233.731,0.509522,0.0,0.0
228,56.75,57.2676,62.2534,121.681,100.237,94.2943,0.00512214,0.594106,20.4075,-234.301,0.548501,0.0,0.0
240,59.75,59.2988,63.4158,118.624,100.227,94.4974,0.00529767,0.618393,20.3832,-234.852,0.528355,0.0,0.0
252,62.75,60.962,65.52,120.382,100.238,92.4744,0.00545112,0.629705,20.3678,-235.432,0.723559,0.0,0.0
264,65.75,62.5745,67.264,119.81,100.227,93.4047,0.00559994,0.630461,20.3644,-235.993,0.632713,0.0,0.0
276,68.75,63.7768,68.9241,120.32,100.224,92.8045,0.00575137,0.621672,20.3725,-236.563,0.690277,0.0,0.0
288,71.75,64.7049,70.2532,120.94,100.224,93.8994,0.00573283,0.610073,20.3821,-237.094,0.585046,0.0,0.0
300,74.75,65.9944,71.3052,121.171,100.236,93.1926,0.0056914,0.596043,20.3995,-237.634,0.653941,0.0,0.0
312,77.75,66.7217,72.6127,117.686,100.226,93.4944,0.00555101,0.577464,20.4203,-238.115,0.624023,0.0,0.0
324,80.75,67.1823,73.268,125.578,100.218,93.7932,0.00529867,0.558945,20.441,-238.655,0.594663,0.0,0.0
336,83.75,67.7126,74.2305,119.633,100.237,94.0247,0.00505689,0.545414,20.4555,-239.105,0.574234,0.0,0.0
348,86.75,68.3248,74.6708,126.153,100.227,94.8449,0.0047196,0.528077,20.4774,-239.566,0.495341,0.0,0.0
360,89.75,69.37,74.7551,125.907,100.234,94.9888,0.00449621,0.511472,20.4992,-240.056,0.482421,0.0,0.0
372,92.75,68.8962,75.2933,125.785,100.243,94.5897,0.00437336,0.497741,20.5139,-240.497,0.521004,0.0,0.0
384,95.75,68.9932,75.5398,124.441,100.231,95.0231,0.00425014,0.485123,20.5283,-240.927,0.478929,0.0,0.0
396,98.75,69.4897,76.2429,124.735,100.226,94.7958,0.00409434,0.474599,20.5407,-241.327,0.499952,0.0,0.0
408,101.75,69.7653,75.7339,127.394,100.214,95.3862,0.00395142,0.461642,20.5581,-241.808,0.443181,0.0,0.0
420,104.75,69.7703,76.1583,126.811,100.212,95.8729,0.00389895,0.446552,20.5728,-242.208,0.397285,0.0,0.0
432,107.75,69.3843,76.2372,131.631,100.207,95.7095,0.00388382,0.433141,20.5899,-242.589,0.412158,0.0,0.0
444,110.75,69.2699,75.9879,127.855,100.201,95.784,0.00370696,0.41979,20.6078,-243.009,0.404598,0.0,0.0
456,113.75,69.5533,75.5102,129.22,100.188,96.1349,0.00351895,0.408504,20.62,-243.389,0.370662,0.0,0.0
468,116.75,68.5256,76.1678,129.309,100.161,95.8242,0.00330472,0.401024,20.6304,-243.75,0.397256,0.0,0.0
480,119.75,68.6198,75.7208,127.082,100.159,95.7074,0.00309253,0.396028,20.6363,-244.16,0.408024,0.0,0.0
492,122.75,68.4796,75.5573,127.441,100.143,96.3846,0.00312097,0.390039,20.6442,-244.49,0.3433,0.0,0.0
504,125.75,67.8557,75.5085,127.61,100.132,96.4887,0.00318416,0.383217,20.6535,-244.891,0.332635,0.0,0.0
516,128.75,68.63,74.6298,135.09,100.117,96.2402,0.0032441,0.37603,20.6622,-245.261,0.354474,0.0,0.0
528,131.75,68.1478,74.5922,127.808,100.093,96.2618,0.00336674,0.370969,20.6679,-245.621,0.350293,0.0,0.0
540,134.75,68.2511,73.7041,124.633,100.083,96.3397,0.00315617,0.366947,20.6724,-246.002,0.342096,0.0,0.0
552,137.75,67.2969,74.1846,129.803,100.069,96.3092,0.00291537,0.363796,20.6769,-246.362,0.343742,0.0,0.0
564,140.75,67.0988,73.2592,129.951,100.054,96.2119,0.00298808,0.359889,20.6818,-246.732,0.351445,0.0,0.0
576,143.75,67.1729,73.9125,132.386,100.044,96.5395,0.00297888,0.356689,20.686,-247.083,0.32007,0.0,0.0
588,146.75,67.1463,73.1866,132.676,100.023,96.0413,0.00283291,0.353154,20.6889,-247.423,0.364622,0.0,0.0
600,149.75,66.9391,72.8798,130.78,100.015,95.7743,0.00272706,0.349274,20.6945,-247.793,0.388853,0.0,0.0
612,152.75,66.2407,72.8814,131.853,99.9911,96.0303,0.00283196,0.345395,20.7,-248.134,0.362756,0.0,0.0
624,155.75,66.1915,72.4964,136.887,99.9754,96.1497,0.00282993,0.342037,20.7037,-248.494,0.350197,0.0,0.0
636,158.75,66.1762,72.3785,132.543,99.9484,96.3858,0.00280374,0.33919,20.7074,-248.824,0.325756,0.0,0.0
648,161.75,66.0044,71.9429,133.175,99.9242,95.7129,0.00282727,0.336756,20.7115,-249.174,0.386465,0.0,0.0
660,164.75,65.6064,71.7917,130.068,99.913,96.0557,0.00277057,0.333726,20.716,-249.545,0.353362,0.0,0.0
672,167.75,65.5133,71.4802,129.391,99.8989,96.0473,0.0027627,0.331594,20.7181,-249.825,0.352886,0.0,0.0
684,170.75,65.1956,71.2713,129.49,99.8997,95.7971,0.00278088,0.329472,20.7209,-250.235,0.376362,0.0,0.0
696,173.75,64.8017,70.568,126.615,99.8723,96.2237,0.00275887,0.328606,20.722,-250.516,0.33402,0.0,0.0
708,176.75,64.7218,70.8845,134.264,99.8586,95.9389,0.00275457,0.324712,20.726,-250.846,0.359394,0.0,0.0
720,179.75,64.2669,70.3697,131.363,99.8412,95.7929,0.00267514,0.321824,20.7287,-251.216,0.371506,0.0,0.0
732,182.75,64.5461,70.1898,131.035,99.8312,95.9669,0.00257316,0.321285,20.7294,-251.527,0.354319,0.0,0.0
744,185.75,64.3368,70.1568,134.391,99.8154,96.2259,0.00250047,0.320213,20.7313,-251.867,0.328713,0.0,0.0
756,188.75,64.1077,69.9954,129.905,99.8046,96.0934,0.00257743,0.31824,20.7333,-252.167,0.3401,0.0,0.0
768,191.75,64.1681,69.6641,130.457,99.7929,96.3533,0.00284617,0.315957,20.7354,-252.507,0.314809,0.0,0.0
780,194.75,63.8019,69.7501,127.326,99.7659,96.4497,0.00278613,0.311805,20.7401,-252.818,0.303397,0.0,0.0
792,197.75,63.9846,69.0437,128.231,99.7268,96.352,0.00257866,0.309698,20.7431,-253.158,0.308982,0.0,0.0
804,200.75,63.7745,69.1477,132.467,99.6889,96.1086,0.00257035,0.308391,20.7457,-253.468,0.328269,0.0,0.0
816,203.75,63.2887,69.0718,134.432,99.6635,96.1201,0.00258723,0.304937,20.7493,-253.779,0.324915,0.0,0.0
828,206.75,63.4183,69.0194,129.851,99.624,95.7362,0.00251648,0.304071,20.7506,-254.119,0.357273,0.0,0.0
840,209.75,62.9448,68.793,133.111,99.5966,95.9999,0.00257583,0.302209,20.7521,-254.399,0.330119,0.0,0.0
852,212.75,62.3331,68.594,128.898,99.5502,96.2068,0.00271441,0.300808,20.7547,-254.709,0.306613,0.0,0.0
864,215.75,63.7863,67.7174,133.509,99.4954,95.9309,0.00252443,0.299674,20.7563,-255.08,0.32745,0.0,0.0
876,218.75,62.5075,68.0243,132.682,99.4584,96.0794,0.00236845,0.296943,20.7589,-255.38,0.310217,0.0,0.0
888,221.75,62.7339,67.7651,130.109,99.4152,95.9567,0.00232399,0.294059,20.7628,-255.65,0.317797,0.0,0.0
900,224.75,62.7747,67.5255,134.372,99.379,96.1531,0.00248065,0.29125,20.7672,-255.961,0.296173,0.0,0.0
912,227.75,62.7024,67.4182,134.619,99.3403,95.7849,0.00261242,0.28959,20.7687,-256.271,0.327113,0.0,0.0
924,230.75,62.0828,67.6637,132.753,99.2903,95.8496,0.00249731,0.288713,20.7706,-256.571,0.316532,0.0,0.0
936,233.75,62.158,67.2853,132.203,99.2593,96.1154,0.00243814,0.286929,20.7735,-256.871,0.288873,0.0,0.0
948,236.75,62.8681,67.0216,133.347,99.2351,95.5343,0.00255094,0.284218,20.7762,-257.162,0.341112,0.0,0.0
960,239.75,61.8382,67.0115,133.867,99.2069,96.2161,0.00244327,0.282403,20.7774,-257.462,0.274733,0.0,0.0
972,242.75,61.753,66.4891,132.768,99.167,95.8801,0.00234491,0.281787,20.7784,-257.762,0.302524,0.0,0.0
984,245.75,61.8114,66.7353,130.495,99.1384,95.5453,0.00217858,0.280513,20.7788,-258.092,0.331327,0.0,0.0
996,248.75,61.5563,66.6654,131.915,99.1214,95.5953,0.00203432,0.277977,20.7818,-258.363,0.325104,0.0,0.0
1008,251.75,61.5891,65.9114,131.064,99.0739,95.7658,0.00215926,0.277072,20.7837,-258.663,0.304798,0.0,0.0
1020,254.75,61.5025,66.3108,131.809,99.0569,95.3121,0.00232588,0.274158,20.7881,-258.913,0.345886,0.0,0.0
1032,257.75,61.0321,65.9526,131.508,99.0259,95.4861,0.00246521,0.271299,20.7923,-259.173,0.326708,0.0,0.0
1044,260.75,60.859,65.7652,137.097,98.9945,95.2524,0.0024877,0.271038,20.793,-259.504,0.345845,0.0,0.0
1056,263.75,60.6595,65.8125,134.191,98.9663,95.8585,0.00230094,0.2704,20.792,-259.764,0.286362,0.0,0.0
1068,266.75,60.8414,65.4187,130.115,98.9296,95.3058,0.002061,0.269587,20.7941,-260.064,0.334937,0.0,0.0
1080,269.75,60.4432,64.9682,133.234,98.8965,95.2922,0.00185771,0.268368,20.7966,-260.345,0.333213,0.0,0.0
1092,272.75,60.7616,64.6122,136.938,98.8703,95.3879,0.00202582,0.268292,20.7977,-260.625,0.321831,0.0,0.0
1104,275.75,60.3836,64.5446,134.5,98.8288,95.1073,0.0021166,0.266459,20.7997,-260.895,0.344502,0.0,0.0
1116,278.75,60.2492,64.428,137.449,98.7885,95.1949,0.00191228,0.265392,20.8009,-261.205,0.332578,0.0,0.0
1128,281.75,59.4863,64.801,134.821,98.747,95.1323,0.00186864,0.264259,20.8006,-261.456,0.334713,0.0,0.0
1140,284.75,59.8815,64.2018,139.11,98.714,95.0188,0.00197606,0.263567,20.8012,-261.756,0.342417,0.0,0.0
1152,287.75,60.5145,63.7267,133.619,98.6797,95.3553,0.00202715,0.262282,20.8024,-262.036,0.307577,0.0,0.0
1164,290.75,59.0435,64.888,135.584,98.6604,95.4069,0.00191526,0.261231,20.8038,-262.286,0.30096,0.0,0.0
1176,293.75,58.9693,64.9871,135.967,98.6261,94.8284,0.00177505,0.261287,20.8042,-262.567,0.352433,0.0,0.0
1188,296.75,59.9842,63.548,136.825,98.604,95.0061,0.0019166,0.260407,20.8052,-262.857,0.333607,0.0,0.0
1200,299.75,59.4664,63.3908,132.293,98.5753,95.3371,0.00203641,0.258854,20.8054,-263.137,0.299791,0.0,0.0
1212,302.75,59.5468,63.7076,132.192,98.5495,94.8237,0.00203601,0.258367,20.8054,-263.387,0.345903,0.0,0.0
1224,305.75,58.9803,63.7412,134.548,98.5487,94.9913,0.00194819,0.258064,20.8068,-263.638,0.32998,0.0,0.0
1236,308.75,59.5004,62.9958,133.234,98.5169,94.7873,0.00195996,0.257295,20.808,-263.928,0.346375,0.0,0.0
1248,311.75,59.8766,62.5254,131.77,98.5056,94.8885,0.00199112,0.256346,20.81,-264.218,0.335774,0.0,0.0
1260,314.75,59.1544,63.113,133.6,98.4963,94.9934,0.00190154,0.256465,20.811,-264.468,0.325008,0.0,0.0
1272,317.75,58.7349,62.963,132.488,98.4883,95.1136,0.001847,0.257186,20.8115,-264.779,0.312922,0.0,0.0
1284,320.75,58.4858,62.6963,133.894,98.4706,95.0116,0.00189467,0.257238,20.8116,-265.009,0.320937,0.0,0.0
1296,323.75,58.7657,62.8321,135.005,98.471,95.084,0.00214501,0.257506,20.8119,-265.309,0.31414,0.0,0.0
1308,326.75,58.0532,62.6306,134.658,98.4657,94.9689,0.00216263,0.256142,20.8133,-265.559,0.324535,0.0,0.0
1320,329.75,58.6713,62.6776,133.154,98.4568,94.8038,0.00216352,0.255846,20.8132,-265.799,0.339339,0.0,0.0
1332,332.75,58.6671,62.4487,134.785,98.4468,94.5571,0.00222904,0.25674,20.8116,-266.08,0.36181,0.0,0.0
1344,335.75,58.4272,62.5882,136.221,98.4327,95.167,0.00217248,0.257178,20.811,-266.34,0.302824,0.0,0.0
1356,338.75,58.7969,61.964,133.288,98.4367,94.6282,0.00212489,0.257434,20.8103,-266.62,0.354146,0.0,0.0
1368,341.75,58.5744,62.168,134.733,98.4355,94.7717,0.00227677,0.258361,20.8086,-266.86,0.340437,0.0,0.0
1380,344.75,57.9477,61.8112,135.788,98.4347,94.8868,0.00226542,0.258165,20.8077,-267.161,0.329469,0.0,0.0
1392,347.75,58.1705,62.2834,133.385,98.4323,94.5033,0.00208947,0.259007,20.8075,-267.391,0.365591,0.0,0.0
1404,350.75,58.0584,62.1877,133.724,98.4306,94.9325,0.00204564,0.260101,20.8051,-267.701,0.324779,0.0,0.0
1416,353.75,58.3094,62.0577,134.968,98.4331,95.2601,0.00213622,0.261315,20.8037,-267.941,0.294083,0.0,0.0
1428,356.75,58.3455,62.1716,138.654,98.4331,95.0611,0.00209366,0.262278,20.803,-268.222,0.312844,0.0,0.0
1440,359.75,57.6372,62.0988,135.354,98.4375,94.9596,0.00188445,0.263409,20.8027,-268.472,0.322844,0.0,0.0
1452,362.75,58.0217,62.4654,133.407,98.4456,95.2694,0.00179092,0.263279,20.8024,-268.752,0.294345,0.0,0.0
1464,365.75,58.7596,61.4947,133.478,98.4427,95.5229,0.00187459,0.263962,20.8012,-269.032,0.270236,0.0,0.0
1476,368.75,58.651,61.4598,140.271,98.4568,94.7171,0.00203768,0.265696,20.7988,-269.293,0.347557,0.0,0.0
1488,371.75,58.3994,61.6964,137.784,98.4681,94.8483,0.0019525,0.267695,20.7969,-269.573,0.336162,0.0,0.0
1500,374.75,58.3424,62.1568,129.871,98.4661,94.6722,0.00194271,0.268538,20.7963,-269.833,0.352653,0.0,0.0
1512,377.75,58.5167,61.9179,138.924,98.4794,94.8038,0.00223035,0.268839,20.7961,-270.123,0.341396,0.0,0.0
1524,380.75,57.6704,62.6452,134.523,98.4863,94.7488,0.00214599,0.270287,20.7961,-270.384,0.347231,0.0,0.0
1536,383.75,58.5067,61.8447,136.683,98.5064,94.596,0.00178933,0.270727,20.796,-270.674,0.363552,0.0,0.0
1548,386.75,58.972,61.5421,132.841,98.5238,95.0781,0.00173698,0.2713,20.7953,-270.914,0.31951,0.0,0.0
1560,389.75,58.6828,62.2071,133.081,98.5467,95.1767,0.00174574,0.272848,20.7936,-271.174,0.312298,0.0,0.0
1572,392.75,58.4154,62.3442,133.324,98.562,95.1581,0.00168961,0.274996,20.7902,-271.465,0.315449,0.0,0.0
1584,395.75,58.3689,62.3786,132.326,98.5907,95.175,0.00179754,0.275874,20.7887,-271.735,0.316459,0.0,0.0
1596,398.75,58.927,62.2277,131.835,98.6112,95.1437,0.00182077,0.27778,20.7856,-272.025,0.321283,0.0,0.0
1608,401.75,58.638,62.637,136.953,98.6322,94.9122,0.00178622,0.27968,20.784,-272.295,0.345055,0.0,0.0
1620,404.75,58.8168,62.2823,132.667,98.66,95.0269,0.00174433,0.281119,20.7818,-272.546,0.336746,0.0,0.0
1632,407.75,58.9318,62.4661,133.816,98.7039,94.4559,0.00171391,0.282365,20.7817,-272.846,0.394829,0.0,0.0
1644,410.75,58.7883,62.5932,134.857,98.7249,95.081,0.00188616,0.284454,20.78,-273.156,0.337532,0.0,0.0
1656,413.75,58.9712,62.4952,132.272,98.7688,94.6447,0.00189209,0.284766,20.7769,-273.446,0.382807,0.0,0.0
1668,416.75,58.8722,62.4948,132.498,98.7994,94.7975,0.00187256,0.286896,20.7745,-273.747,0.371114,0.0,0.0
1680,419.75,58.8814,62.5496,133.47,98.8361,95.0019,0.00191475,0.288036,20.773,-274.037,0.355113,0.0,0.0
1692,422.75,58.601,62.6233,136.658,98.8546,94.8,0.00195441,0.289353,20.773,-274.307,0.375888,0.0,0.0
1704,425.75,59.0102,62.8882,130.26,98.8869,94.7044,0.00204055,0.292286,20.7703,-274.587,0.387875,0.0,0.0
1716,428.75,58.9232,62.8088,133.233,98.9211,95.1369,0.00207551,0.29384,20.768,-274.888,0.350085,0.0,0.0
1728,431.75,59.1633,62.9178,128.973,98.9364,94.9693,0.00210602,0.295775,20.7661,-275.178,0.3673,0.0,0.0
1740,434.75,59.7536,62.8771,131.893,98.9538,94.7171,0.00204175,0.297535,20.7642,-275.478,0.392742,0.0,0.0
1752,437.75,59.6106,63.739,135.497,98.9514,95.0209,0.00196448,0.298675,20.762,-275.738,0.363774,0.0,0.0
1764,440.75,60.1578,62.8841,131.368,98.8857,94.833,0.00210083,0.300295,20.7607,-276.029,0.375581,0.0,0.0
1776,443.75,60.2308,63.2611,134.195,98.8619,94.9355,0.00227,0.302344,20.7581,-276.339,0.363734,0.0,0.0
1788,446.75,59.6901,63.6641,132.617,98.8716,94.403,0.00230719,0.306012,20.7536,-276.639,0.415089,0.0,0.0
1800,449.75,59.3929,63.3083,135.597,98.8978,94.4094,0.00230171,0.308788,20.75,-276.929,0.416862,0.0,0.0
1812,452.75,59.5292,63.7692,133.451,98.9372,94.6532,0.00229986,0.310055,20.7486,-277.24,0.397301,0.0,0.0
1824,455.75,60.3879,63.8382,129.832,98.963,94.3793,0.00216323,0.311276,20.7474,-277.56,0.425644,0.0,0.0
1836,458.75,60.4442,64.1309,131.3,98.9796,94.7353,0.00214828,0.313292,20.7446,-277.87,0.393357,0.0,0.0
1848,461.75,60.3024,64.4547,128.621,99.0191,94.5457,0.0022025,0.315262,20.7428,-278.141,0.414919,0.0,0.0
1860,464.75,60.7003,64.112,131.312,99.0574,94.7636,0.00227462,0.314854,20.7423,-278.461,0.397721,0.0,0.0
1872,467.75,60.6815,64.3047,129.913,99.0936,94.822,0.00233922,0.315964,20.7416,-278.791,0.395477,0.0,0.0
1884,470.75,60.5677,64.6168,130.872,99.1295,94.4191,0.00245185,0.317788,20.74,-279.081,0.436943,0.0,0.0
1896,473.75,60.4997,65.0042,130.641,99.1722,94.6938,0.00233299,0.32228,20.7356,-279.392,0.414738,0.0,0.0
1908,476.75,60.7693,65.2117,127.036,99.219,94.6218,0.00218197,0.324272,20.7327,-279.692,0.425791,0.0,0.0
1920,479.75,61.1683,64.8482,130.476,99.2339,94.3577,0.00213433,0.325224,20.731,-280.052,0.452225,0.0,0.0
1932,482.75,61.5997,65.0413,134.217,99.2629,94.4792,0.00205635,0.327419,20.7283,-280.293,0.443302,0.0,0.0
1944,485.75,60.879,65.0934,131.04,99.2971,94.4382,0.00216668,0.329216,20.726,-280.673,0.450301,0.0,0.0
1956,488.75,60.9331,65.0079,130.115,99.3294,94.4394,0.00229023,0.332206,20.7228,-280.963,0.453092,0.0,0.0
1968,491.75,61.4517,65.2737,132.608,99.3693,94.4022,0.00246485,0.333809,20.7208,-281.283,0.460238,0.0,0.0
1980,494.75,61.5012,65.4024,131.896,99.3975,94.3984,0.0026523,0.332548,20.7207,-281.624,0.463147,0.0,0.0
1992,497.75,61.4626,65.7558,131.295,99.4382,94.1902,0.00281171,0.335243,20.7175,-281.894,0.486642,0.0,0.0
2004,500.75,61.7818,65.6108,133.514,99.4503,94.5232,0.00269261,0.338226,20.7137,-282.294,0.456051,0.0,0.0
2016,503.75,61.9804,66.1129,129.819,99.4777,94.3688,0.00245918,0.341014,20.7109,-282.575,0.473203,0.0,0.0
2028,506.75,62.7231,65.4575,127.327,99.4854,94.2803,0.00246378,0.342684,20.7085,-282.875,0.482311,0.0,0.0
2040,509.75,62.6734,65.7748,127.623,99.491,94.1292,0.00267975,0.342932,20.709,-283.235,0.497215,0.0,0.0
2052,512.75,62.02,66.5679,129.441,99.5124,94.3341,0.00273946,0.341324,20.7095,-283.565,0.479631,0.0,0.0
2064,515.75,62.9157,66.2312,132.239,99.5136,94.0124,0.0029448,0.340902,20.7081,-283.856,0.510395,0.0,0.0
2076,518.75,62.5513,65.9582,131.857,99.5107,94.1106,0.00308004,0.343276,20.7048,-284.226,0.500773,0.0,0.0
2088,521.75,62.4438,66.9178,134.985,99.5249,94.0755,0.00313176,0.346903,20.7002,-284.526,0.505396,0.0,0.0
2100,524.75,62.7164,67.0654,131.14,99.5043,94.5262,0.0030032,0.347929,20.7016,-284.827,0.460642,0.0,0.0
2112,527.75,62.7525,66.9532,130.28,99.5063,94.1808,0.00275612,0.346212,20.7042,-285.177,0.493674,0.0,0.0
2124,530.75,62.4546,66.9858,131.891,99.5128,94.1474,0.00256109,0.34541,20.7043,-285.527,0.497443,0.0,0.0
2136,533.75,62.3564,67.4056,131.927,99.5107,93.7686,0.00268802,0.348106,20.7028,-285.837,0.533445,0.0,0.0
2148,536.75,62.2936,67.3236,131.118,99.5128,94.1703,0.00297176,0.350963,20.6994,-286.168,0.495264,0.0,0.0
2160,539.75,63.1041,67.454,128.842,99.5112,94.6015,0.00293364,0.352661,20.697,-286.468,0.45411,0.0,0.0
2172,542.75,63.2075,67.1435,130.188,99.5148,94.1453,0.00276354,0.352689,20.6964,-286.828,0.497826,0.0,0.0
2184,545.75,63.0414,67.5323,128.068,99.5204,94.2037,0.00286156,0.353116,20.6963,-287.139,0.492769,0.0,0.0
2196,548.75,63.9237,67.2193,130.206,99.5349,94.282,0.00303381,0.355625,20.6932,-287.439,0.486621,0.0,0.0
2208,551.75,63.4107,67.5723,134.897,99.545,94.2359,0.00291598,0.354459,20.695,-287.789,0.491922,0.0,0.0
2220,554.75,63.6775,67.7143,131.22,99.5627,94.1512,0.0028459,0.354237,20.6961,-288.14,0.501586,0.0,0.0
2232,557.75,64.0278,67.6153,129.999,99.5732,94.0027,0.00296102,0.354312,20.6949,-288.51,0.516703,0.0,0.0
2244,560.75,63.3251,68.3366,127.869,99.5692,94.0209,0.00285411,0.355438,20.6934,-288.82,0.514602,0.0,0.0
2256,563.75,63.7338,68.1388,129.209,99.5877,94.1825,0.00287246,0.357089,20.6923,-289.13,0.500852,0.0,0.0
2268,566.75,63.398,68.785,135.385,99.6063,93.8228,0.00301213,0.356925,20.691,-289.511,0.536871,0.0,0.0
2280,569.75,63.7419,68.7617,130.106,99.6155,93.7166,0.00320084,0.358844,20.6892,-289.811,0.547874,0.0,0.0
2292,572.75,63.8331,68.7589,130.951,99.6184,93.4741,0.00343128,0.360971,20.6867,-290.161,0.571383,0.0,0.0
2304,575.75,64.6267,68.5233,127.891,99.6345,93.3831,0.00363153,0.362151,20.6836,-290.462,0.581577,0.0,0.0
2316,578.75,64.4588,68.5419,128.845,99.6393,93.8931,0.00345373,0.363685,20.6818,-290.782,0.53313,0.0,0.0
2328,581.75,64.3904,68.8564,132.923,99.6542,93.8647,0.00347906,0.363296,20.6807,-291.112,0.537184,0.0,0.0
2340,584.75,64.9215,68.4364,130.948,99.6437,93.9337,0.00348636,0.366078,20.6767,-291.473,0.529646,0.0,0.0
2352,587.75,64.5483,69.1506,126.622,99.6482,94.1288,0.00336513,0.369152,20.6727,-291.843,0.511423,0.0,0.0
2364,590.75,64.7685,68.4946,127.906,99.6514,94.519,0.00326465,0.369151,20.6717,-292.173,0.474585,0.0,0.0
2376,593.75,64.7961,68.873,129.554,99.6474,93.5735,0.00314011,0.368953,20.6716,-292.483,0.564453,0.0,0.0
2388,596.75,65.0775,68.7669,132.261,99.6647,93.8804,0.0032407,0.370237,20.6711,-292.864,0.536631,0.0,0.0
2400,599.75,65.3485,69.1697,131.265,99.678,93.5947,0.00334168,0.371577,20.6691,-293.194,0.565182,0.0,0.0
2412,602.75,65.774,69.2033,129.755,99.6587,93.8211,0.00341886,0.370082,20.6695,-293.514,0.541753,0.0,0.0
2424,605.75,65.3023,69.942,129.318,99.6663,93.469,0.00355723,0.367925,20.6722,-293.835,0.576191,0.0,0.0
2436,608.75,65.4383,69.7685,129.825,99.6768,94.108,0.00364162,0.365919,20.6736,-294.195,0.515978,0.0,0.0
2448,611.75,65.4131,69.7022,126.246,99.6804,94.1554,0.00378642,0.367929,20.6722,-294.515,0.511785,0.0,0.0
2460,614.75,65.2216,69.8042,127.287,99.6986,93.5879,0.00397679,0.367947,20.6713,-294.876,0.567682,0.0,0.0
2472,617.75,66.1742,69.4286,129.749,99.6917,94.0145,0.00392023,0.367105,20.6739,-295.186,0.526245,0.0,0.0
2484,620.75,65.2439,69.8368,126.696,99.699,93.4982,0.00384155,0.36477,20.6771,-295.516,0.576326,0.0,0.0
2496,623.75,65.2456,69.9717,133.003,99.7135,93.8211,0.00361912,0.362979,20.6798,-295.837,0.546688,0.0,0.0
2508,626.75,65.6786,69.746,127.382,99.7183,94.238,0.0035506,0.362063,20.6809,-296.167,0.507332,0.0,0.0
2520,629.75,65.8493,69.4324,130.635,99.7276,93.9726,0.00352493,0.361985,20.6803,-296.517,0.533475,0.0,0.0
2532,632.75,65.613,70.0765,127.778,99.7219,94.7395,0.00332272,0.361859,20.679,-296.827,0.46002,0.0,0.0
2544,635.75,65.8469,69.7645,126.971,99.728,93.6709,0.00335833,0.362909,20.6787,-297.178,0.562378,0.0,0.0
2556,638.75,65.6721,70.0549,129.913,99.7268,94.2875,0.00347894,0.362971,20.6792,-297.468,0.503379,0.0,0.0
2568,641.75,65.9694,69.8459,127.713,99.7308,94.2642,0.0034719,0.362773,20.6797,-297.838,0.505958,0.0,0.0
2580,644.75,66.2119,69.9841,129.388,99.7312,94.5016,0.00346007,0.363123,20.6782,-298.169,0.483416,0.0,0.0
2592,647.75,66.1436,70.1872,128.045,99.7336,94.4009,0.00350555,0.365387,20.6753,-298.499,0.493205,0.0,0.0
2604,650.75,65.8843,70.4283,132.418,99.7288,93.9912,0.00359034,0.367304,20.6735,-298.809,0.531805,0.0,0.0
2616,653.75,66.0842,70.2408,131.487,99.7308,94.3379,0.0036149,0.367243,20.6727,-299.139,0.498949,0.0,0.0
2628,656.75,66.7695,70.2964,128.387,99.7272,94.7446,0.00322234,0.368231,20.6714,-299.44,0.460011,0.0,0.0
2640,659.75,65.931,70.8767,131.186,99.7316,94.6392,0.00302293,0.36994,20.6685,-299.78,0.470399,0.0,0.0
2652,662.75,66.1587,70.5235,130.099,99.7211,94.7099,0.00295821,0.370684,20.6666,-300.11,0.462754,0.0,0.0
2664,665.75,65.9639,70.0192,131.125,99.7284,94.4843,0.00285224,0.374391,20.6642,-300.481,0.48481,0.0,0.0
2676,668.75,66.8869,70.5736,131.976,99.7219,94.5165,0.00285365,0.374928,20.6632,-300.761,0.481175,0.0,0.0
2688,671.75,66.9842,70.7647,129.184,99.7191,93.9472,0.00300087,0.372579,20.6662,-301.091,0.535138,0.0,0.0
2700,674.75,66.0464,71.344,130.909,99.7252,94.2795,0.00297017,0.369479,20.6682,-301.432,0.504,0.0,0.0
2712,677.75,66.5421,71.0826,125.353,99.7175,93.5409,0.00313082,0.371529,20.6656,-301.782,0.573893,0.0,0.0
2724,680.75,66.5365,71.2017,128.434,99.7195,94.3789,0.00314297,0.370988,20.6647,-302.102,0.494028,0.0,0.0
2736,683.75,66.8542,70.9046,127.034,99.7167,94.657,0.003364,0.371,20.6644,-302.412,0.46737,0.0,0.0
2748,686.75,66.9508,71.2021,131.234,99.7195,94.511,0.00369181,0.370351,20.6629,-302.743,0.48148,0.0,0.0
2760,689.75,67.1518,71.0335,130.171,99.7252,94.7501,0.00367723,0.370932,20.6624,-303.073,0.459308,0.0,0.0
2772,692.75,66.8663,71.6941,129.003,99.7147,94.5854,0.00356589,0.373079,20.661,-303.383,0.473974,0.0,0.0
2784,695.75,67.1113,71.342,131.954,99.7106,94.2773,0.00357391,0.37478,20.6586,-303.704,0.502895,0.0,0.0
2796,698.75,67.125,71.2148,129.64,99.7115,94.4145,0.00352318,0.373514,20.66,-304.024,0.489923,0.0,0.0
2808,701.75,67.3914,71.5838,126.436,99.7106,94.7577,0.00341098,0.372073,20.6615,-304.334,0.457281,0.0,0.0
2820,704.75,67.1854,71.9894,132.383,99.7147,94.5076,0.00339006,0.371099,20.663,-304.664,0.481366,0.0,0.0
2832,707.75,67.1436,71.5561,130.386,99.7131,94.574,0.00342133,0.368545,20.6657,-304.955,0.474914,0.0,0.0
2844,710.75,67.4356,71.7262,130.472,99.7078,94.7886,0.00330168,0.364164,20.6678,-305.265,0.4541,0.0,0.0
2856,713.75,67.6336,71.4372,132.254,99.7159,94.1601,0.00327764,0.365871,20.6663,-305.595,0.514533,0.0,0.0
2868,716.75,67.5407,71.6421,127.429,99.7223,94.0759,0.00333134,0.366039,20.6666,-305.856,0.523146,0.0,0.0
2880,719.75,67.535,71.3724,129.238,99.6969,93.827,0.00321435,0.36268,20.6716,-306.196,0.544634,0.0,0.0
2892,722.75,66.4881,72.152,128.955,99.6913,94.5702,0.00315403,0.356236,20.6796,-306.486,0.473315,0.0,0.0
2904,725.75,67.5492,71.0347,134.908,99.6703,93.9362,0.00294491,0.349161,20.6876,-306.776,0.5318,0.0,0.0
2916,728.75,66.8451,71.6479,128.123,99.6804,93.896,0.00293204,0.344554,20.6944,-307.057,0.536549,0.0,0.0
2928,731.75,66.4157,71.0309,131.408,99.6824,94.1423,0.00309716,0.341892,20.6984,-307.337,0.513217,0.0,0.0
2940,734.75,66.6768,71.3477,132.361,99.6494,93.9163,0.00320463,0.338309,20.7045,-307.617,0.531813,0.0,0.0
2952,737.75,66.7691,71.3022,129.888,99.6385,93.6383,0.00326421,0.336258,20.7084,-307.927,0.557445,0.0,0.0
2964,740.75,66.4435,70.5705,133.066,99.6208,93.6222,0.00323523,0.332896,20.712,-308.178,0.55739,0.0,0.0
2976,743.75,66.1123,71.011,130.344,99.6095,94.0827,0.00299728,0.328481,20.7171,-308.478,0.512338,0.0,0.0
2988,746.75,66.4807,70.1941,133.56,99.5861,93.9096,0.00293203,0.325595,20.7212,-308.718,0.526759,0.0,0.0
3000,749.75,66.0057,70.2049,131.012,99.566,93.8135,0.00317645,0.322969,20.7245,-308.988,0.53413,0.0,0.0
3012,752.75,65.8361,70.3155,129.416,99.5591,93.7864,0.00308157,0.318306,20.7296,-309.259,0.536104,0.0,0.0
3024,755.75,65.8728,69.8843,133.923,99.5426,93.7428,0.00282291,0.315149,20.7327,-309.509,0.538788,0.0,0.0
3036,758.75,65.7919,69.2725,131.945,99.518,93.4724,0.0025502,0.313534,20.7339,-309.749,0.5625,0.0,0.0
3048,761.75,65.3227,69.6779,134.654,99.4942,93.8698,0.00239947,0.311422,20.7367,-310.029,0.522277,0.0,0.0
3060,764.75,64.8288,69.4969,135.316,99.4797,93.7352,0.00237014,0.308682,20.7395,-310.27,0.533845,0.0,0.0
3072,767.75,65.1459,68.9379,130.699,99.4531,94.5287,0.00234579,0.306143,20.7431,-310.53,0.455784,0.0,0.0
3084,770.75,64.6037,68.5676,133.246,99.4374,93.9934,0.00219809,0.30154,20.7487,-310.76,0.505342,0.0,0.0
3096,773.75,64.3539,69.1089,134.021,99.4112,94.3501,0.00195504,0.295843,20.7552,-310.99,0.468973,0.0,0.0
3108,776.75,65.0437,68.0729,133.746,99.3842,94.1673,0.0019727,0.291781,20.7596,-311.21,0.483944,0.0,0.0
3120,779.75,63.658,68.6338,131.15,99.3685,94.0467,0.00233155,0.288369,20.763,-311.441,0.494028,0.0,0.0
3132,782.75,63.7762,68.1357,130.444,99.3391,94.5503,0.00250086,0.285103,20.7671,-311.651,0.443436,0.0,0.0
3144,785.75,64.0929,67.3722,135.092,99.3165,94.0132,0.00245167,0.278911,20.775,-311.861,0.492523,0.0,0.0
3156,788.75,63.3562,67.6135,135.142,99.2826,93.8452,0.00236326,0.271902,20.7838,-312.071,0.505517,0.0,0.0
3168,791.75,63.5605,66.5761,137.84,99.2613,94.0725,0.00214976,0.266551,20.7898,-312.271,0.481876,0.0,0.0
3180,794.75,63.115,66.3174,131.456,99.2367,94.9219,0.0019891,0.261081,20.7959,-312.461,0.398977,0.0,0.0
3192,797.75,62.6259,66.3072,134.964,99.2089,94.3349,0.00200894,0.253533,20.8052,-312.632,0.452138,0.0,0.0
3204,800.75,62.6009,65.7317,136.446,99.1855,94.6845,0.00202293,0.244991,20.8136,-312.792,0.416824,0.0,0.0
3216,803.75,61.9256,65.5577,137.425,99.1754,94.7103,0.00213693,0.236602,20.825,-312.942,0.413466,0.0,0.0
3228,806.75,61.389,65.0391,138.196,99.2633,95.117,0.00201612,0.227365,20.8356,-313.112,0.382953,0.0,0.0
3240,809.75,60.9298,64.2135,139.643,99.3749,94.9223,0.00189423,0.219307,20.8444,-313.252,0.411431,0.0,0.0
3252,812.75,60.6867,64.0837,141.418,99.4954,95.0637,0.0020147,0.209663,20.8556,-313.402,0.408952,0.0,0.0
3264,815.75,60.4257,63.61,134.836,99.5841,95.536,0.00214625,0.199901,20.8681,-313.542,0.372464,0.0,0.0
3276,818.75,59.4648,63.4068,139.621,99.6667,95.274,0.00225746,0.191065,20.8799,-313.653,0.404552,0.0,0.0
3288,821.75,58.8474,62.5303,139.466,99.7264,95.7028,0.00234872,0.183923,20.8864,-313.753,0.369625,0.0,0.0
3300,824.75,58.1829,62.0622,140.423,99.7836,95.1263,0.00257594,0.175534,20.8936,-313.833,0.428997,0.0,0.0
3312,827.75,57.9004,61.495,138.13,99.8436,95.2575,0.00301948,0.16668,20.9028,-313.953,0.422027,0.0,0.0
3324,830.75,57.9534,60.3954,138.177,99.9021,95.6359,0.00380991,0.160838,20.9082,-314.083,0.391699,0.0,0.0
3336,833.75,56.6146,59.7553,139.167,99.9367,95.7294,0.00437083,0.157361,20.9123,-314.133,0.386038,0.0,0.0
3348,836.75,56.2022,59.3744,139.801,99.9807,95.5254,0.0047619,0.153786,20.9184,-314.193,0.409129,0.0,0.0
3360,839.75,55.8369,58.5594,140.846,100.027,95.4319,0.00495391,0.14965,20.9252,-314.283,0.422081,0.0,0.0
3372,842.75,55.0719,58.2369,136.959,100.033,95.9724,0.00519898,0.146573,20.929,-314.353,0.371902,0.0,0.0
3384,845.75,55.0727,57.3383,140.275,100.058,95.6554,0.0054362,0.143893,20.9314,-314.403,0.403837,0.0,0.0
3396,848.75,54.0712,56.7563,138.528,100.068,95.8107,0.00547135,0.142058,20.9315,-314.473,0.390216,0.0,0.0
3408,851.75,53.368,56.4135,139.863,100.075,95.7451,0.00550341,0.140771,20.933,-314.523,0.396978,0.0,0.0
3420,854.75,53.1503,56.0563,138.903,100.078,95.5246,0.0054364,0.139511,20.9348,-314.583,0.41796,0.0,0.0
3432,857.75,52.6327,55.3126,144.678,100.089,95.9592,0.00535457,0.138047,20.9367,-314.663,0.378155,0.0,0.0
3444,860.75,52.229,54.7664,142.275,100.086,95.8979,0.00537102,0.137164,20.9378,-314.734,0.383642,0.0,0.0
3456,863.75,51.8767,54.3719,142.208,100.091,96.2504,0.00564446,0.137437,20.9382,-314.794,0.351178,0.0,0.0
3468,866.75,51.6724,53.7269,142.177,100.086,95.5694,0.00578205,0.137983,20.937,-314.834,0.414433,0.0,0.0
3480,869.75,51.2991,53.6241,143.096,100.072,95.7764,0.00591159,0.137435,20.9368,-314.874,0.393753,0.0,0.0
3492,872.75,50.6393,52.9117,140.285,100.066,95.6583,0.00596718,0.136272,20.9397,-314.934,0.404283,0.0,0.0
3504,875.75,50.7951,52.8182,142.518,100.042,95.8433,0.00610159,0.135556,20.9411,-315.014,0.384814,0.0,0.0
3516,878.75,50.3954,52.5062,141.385,100.035,96.1713,0.00613702,0.135836,20.9415,-315.054,0.353536,0.0,0.0
3528,881.75,49.872,52.6581,140.715,100.016,95.8115,0.00610668,0.135356,20.9421,-315.114,0.385472,0.0,0.0
3540,884.75,50.2444,51.5963,139.401,99.9992,95.5741,0.00618841,0.134304,20.9435,-315.174,0.406222,0.0,0.0
3552,887.75,48.9236,52.1838,140.311,99.9903,95.7019,0.00603704,0.133587,20.942,-315.214,0.393431,0.0,0.0
3564,890.75,48.9361,51.5687,137.266,99.9714,95.8847,0.0059952,0.132974,20.9395,-315.294,0.374601,0.0,0.0
3576,893.75,49.7481,50.4665,141.097,99.9343,95.5682,0.0062908,0.132715,20.943,-315.344,0.400952,0.0,0.0
3588,896.75,49.0743,50.5662,138.587,99.9335,95.4306,0.00654733,0.132401,20.9445,-315.394,0.413807,0.0,0.0
3600,899.75,48.3973,50.62,137.948,99.9049,95.4294,0.00664421,0.13258,20.9435,-315.444,0.411357,0.0,0.0
3612,902.75,48.8784,50.1296,144.657,99.9061,95.3642,0.00665952,0.131959,20.9454,-315.504,0.417596,0.0,0.0
3624,905.75,47.7246,50.7126,138.432,99.8856,95.6363,0.00673984,0.13122,20.948,-315.534,0.390175,0.0,0.0
3636,908.75,48.2713,49.8261,140.875,99.8682,95.6033,0.0067932,0.130865,20.9496,-315.574,0.391716,0.0,0.0
3648,911.75,48.0339,49.2279,137.746,99.8654,95.6181,0.00682063,0.131479,20.9502,-315.634,0.390072,0.0,0.0
3660,914.75,47.4865,49.5466,141.736,99.8166,95.7307,0.00677228,0.13113,20.9508,-315.694,0.375127,0.0,0.0
3672,917.75,47.8076,49.465,139.784,99.7969,95.9283,0.0068427,0.130603,20.9498,-315.734,0.35484,0.0,0.0
3684,920.75,47.9661,48.7387,139.924,99.7465,95.4306,0.00682961,0.130702,20.9504,-315.784,0.396996,0.0,0.0
3696,923.75,47.0022,49.0659,138.364,99.7514,95.3858,0.00692273,0.130667,20.9506,-315.825,0.401651,0.0,0.0
3708,926.75,47.8107,48.3924,140.459,99.7102,95.2334,0.00707512,0.130575,20.9507,-315.885,0.4123,0.0,0.0
3720,929.75,47.1622,48.7211,142.771,99.6861,95.3654,0.00701685,0.130595,20.9507,-315.915,0.397687,0.0,0.0
3732,932.75,46.8112,48.5689,141.539,99.6788,95.365,0.00702708,0.130578,20.9512,-315.955,0.397074,0.0,0.0
3744,935.75,46.7132,47.9603,136.153,99.6808,95.2745,0.00712722,0.129871,20.9514,-316.025,0.405784,0.0,0.0
3756,938.75,46.4416,48.1686,139.128,99.6691,95.6444,0.00719542,0.129618,20.9509,-316.075,0.369952,0.0,0.0
3768,941.75,46.6013,47.7686,138.478,99.6707,96.0054,0.00743303,0.129738,20.9508,-316.125,0.336284,0.0,0.0
3780,944.75,46.0148,47.4966,142.232,99.655,95.6278,0.00764226,0.129385,20.9507,-316.175,0.370231,0.0,0.0
3792,947.75,45.4797,47.8162,140.152,99.6566,95.8522,0.00750062,0.129615,20.9507,-316.235,0.349348,0.0,0.0
3804,950.75,46.5381,47.23,136.193,99.651,95.0654,0.00743022,0.129483,20.9502,-316.285,0.422815,0.0,0.0
3816,953.75,46.2673,47.2898,140.973,99.6317,95.365,0.0072588,0.129494,20.95,-316.335,0.392827,0.0,0.0
3828,956.75,46.3296,46.8839,141.616,99.626,95.4729,0.00721684,0.129392,20.9499,-316.365,0.382168,0.0,0.0
3840,959.75,45.9289,47.4138,141.596,99.6115,95.2021,0.00726977,0.12839,20.9514,-316.395,0.406359,0.0,0.0
3852,962.75,45.7458,46.9272,137.503,99.6361,95.343,0.0074058,0.128118,20.9517,-316.425,0.395298,0.0,0.0
3864,965.75,45.9274,46.6537,141.175,99.6433,95.2338,0.00745634,0.127963,20.9522,-316.465,0.406236,0.0,0.0
3876,968.75,45.4967,46.6976,137.494,99.6595,95.2931,0.00762898,0.127799,20.9527,-316.525,0.402105,0.0,0.0
3888,971.75,45.764,46.1999,135.939,99.6546,95.3621,0.00784351,0.127359,20.9542,-316.575,0.395175,0.0,0.0
3900,974.75,44.9952,46.4929,139.414,99.672,95.5064,0.00788951,0.127445,20.9543,-316.595,0.383163,0.0,0.0
3912,977.75,45.2248,46.1709,143.368,99.6691,95.277,0.00796177,0.128843,20.9516,-316.635,0.404492,0.0,0.0
3924,980.75,44.6323,46.5588,139.462,99.6562,95.3422,0.00800177,0.129141,20.9507,-316.665,0.397193,0.0,0.0
3936,983.75,44.8917,46.0323,142.594,99.6534,95.2089,0.00778482,0.128583,20.9497,-316.725,0.409497,0.0,0.0
3948,986.75,44.9207,45.821,136.876,99.6385,95.5301,0.00775119,0.127338,20.95,-316.785,0.377923,0.0,0.0
3960,989.75,44.6977,46.1587,139.61,99.6337,95.6109,0.00805551,0.12677,20.95,-316.825,0.369896,0.0,0.0
3972,992.75,44.333,45.9902,141.551,99.6325,95.153,0.00814111,0.127802,20.9491,-316.875,0.412877,0.0,0.0
3984,995.75,44.1604,46.1381,141.081,99.628,95.098,0.00822401,0.12897,20.9481,-316.936,0.417669,0.0,0.0
3996,998.75,44.1797,46.2136,144.365,99.6357,95.5479,0.00822681,0.129257,20.9478,-316.976,0.375999,0.0,0.0
4008,1001.75,44.1978,45.2409,139.195,99.6284,95.4636,0.00813988,0.128745,20.9485,-317.026,0.383261,0.0,0.0
4020,1004.75,44.5045,45.5327,139.147,99.6284,95.4349,0.00806339,0.127654,20.9496,-317.066,0.385967,0.0,0.0
4032,1007.75,44.7066,45.2719,142.866,99.6127,95.2199,0.00787957,0.12732,20.953,-317.086,0.404794,0.0,0.0
4044,1010.75,44.4142,45.171,138.506,99.6304,95.3401,0.00785848,0.127054,20.9545,-317.146,0.395068,0.0,0.0
4056,1013.75,44.0336,45.6704,138.265,99.6292,95.6951,0.00794077,0.127469,20.9529,-317.176,0.361594,0.0,0.0
4068,1016.75,43.8879,45.5397,139.326,99.6159,95.3087,0.00800325,0.127861,20.9524,-317.216,0.396709,0.0,0.0
4080,1019.75,44.0417,45.0258,141.612,99.6204,95.5394,0.00815261,0.127431,20.9523,-317.256,0.375415,0.0,0.0
4092,1022.75,44.1129,45.0895,143.658,99.6135,95.1864,0.00843963,0.127135,20.9522,-317.286,0.408018,0.0,0.0
4104,1025.75,43.5752,45.3831,144.829,99.6167,95.3189,0.00867013,0.128016,20.9528,-317.336,0.395827,0.0,0.0
4116,1028.75,44.1117,45.0957,140.493,99.6466,95.5487,0.0086508,0.12815,20.953,-317.396,0.3769,0.0,0.0
4128,1031.75,43.7271,44.7871,141.541,99.6248,95.5127,0.0084922,0.127583,20.9514,-317.426,0.378319,0.0,0.0
4140,1034.75,43.7102,44.7094,142.385,99.6288,95.4594,0.00856031,0.126787,20.9517,-317.476,0.383695,0.0,0.0
4152,1037.75,43.2328,44.8718,136.757,99.6377,95.3341,0.00865261,0.126127,20.9521,-317.496,0.39628,0.0,0.0
4164,1040.75,43.0569,44.794,140.47,99.6699,94.9562,0.00890209,0.127087,20.9507,-317.536,0.434836,0.0,0.0
4176,1043.75,43.9854,44.2541,145.265,99.6583,95.2719,0.00918037,0.128095,20.9503,-317.596,0.40399,0.0,0.0
4188,1046.75,43.7675,44.3763,138.844,99.6695,95.4933,0.0092136,0.127551,20.951,-317.626,0.384178,0.0,0.0
4200,1049.75,43.5111,44.6307,140.249,99.6703,95.1183,0.00928541,0.125915,20.954,-317.666,0.419563,0.0,0.0
4212,1052.75,43.3175,44.4744,139.706,99.699,95.4488,0.00938568,0.126334,20.9555,-317.696,0.391005,0.0,0.0
4224,1055.75,43.216,44.5214,141.144,99.6945,95.3257,0.00958537,0.127457,20.9564,-317.766,0.402193,0.0,0.0
4236,1058.75,43.3456,44.8216,138.858,99.6978,95.3045,0.00989397,0.127137,20.9565,-317.796,0.404477,0.0,0.0
4248,1061.75,43.2199,44.4377,137.978,99.6973,95.5665,0.00980948,0.125885,20.958,-317.846,0.379803,0.0,0.0
4260,1064.75,43.5475,43.7926,138.157,99.7046,95.0937,0.00965962,0.124514,20.9588,-317.876,0.424964,0.0,0.0
4272,1067.75,42.8082,44.3753,136.424,99.7171,95.4734,0.00965517,0.125159,20.9595,-317.906,0.390329,0.0,0.0
4284,1070.75,42.8096,44.1184,142.887,99.7421,95.7188,0.00977375,0.126178,20.958,-317.966,0.369532,0.0,0.0
4296,1073.75,42.8336,44.0399,139.276,99.7578,95.3866,0.00988115,0.126734,20.9576,-317.996,0.402152,0.0,0.0
4308,1076.75,42.8384,43.5514,142.029,99.7578,95.2469,0.0100359,0.125735,20.9594,-318.047,0.415302,0.0,0.0
4320,1079.75,42.7359,44.3699,141.682,99.7973,95.3464,0.0101059,0.125213,20.96,-318.077,0.409489,0.0,0.0
4332,1082.75,42.2917,44.253,141.447,99.8001,95.8788,0.0102213,0.125745,20.9596,-318.127,0.359764,0.0,0.0
4344,1085.75,42.8268,43.6262,145.336,99.8058,95.1636,0.0104658,0.125443,20.9611,-318.177,0.427477,0.0,0.0
4356,1088.75,42.7007,42.9147,138.486,99.8227,95.5936,0.0107812,0.125168,20.9616,-318.187,0.388536,0.0,0.0
4368,1091.75,42.1098,43.5902,142.69,99.8332,95.597,0.0110818,0.124706,20.9617,-318.237,0.389161,0.0,0.0
4380,1094.75,42.1779,43.7116,143.473,99.8344,95.3853,0.0110848,0.124423,20.963,-318.287,0.409159,0.0,0.0
4392,1097.75,42.226,43.9172,141.326,99.8428,95.4759,0.0108597,0.122997,20.9643,-318.317,0.401402,0.0,0.0
4404,1100.75,42.6731,43.4607,139.704,99.8453,95.6346,0.0107552,0.12306,20.963,-318.377,0.386711,0.0,0.0
4416,1103.75,42.629,43.739,139.193,99.8594,95.6905,0.0107896,0.123778,20.9619,-318.457,0.382738,0.0,0.0
4428,1106.75,42.4753,43.2363,138.135,99.8731,96.0016,0.010875,0.123921,20.9618,-318.467,0.35484,0.0,0.0
4440,1109.75,42.231,43.4215,141.339,99.886,95.5593,0.0111329,0.124243,20.9622,-318.487,0.397442,0.0,0.0
4452,1112.75,41.6588,42.9582,143.635,99.8997,95.3701,0.0113691,0.127324,20.9597,-318.527,0.41646,0.0,0.0
4464,1115.75,42.2082,43.4983,141.19,99.9089,95.6554,0.0114525,0.129193,20.9592,-318.587,0.390487,0.0,0.0
4476,1118.75,42.3697,43.2437,143.228,99.9174,95.8479,0.0115058,0.127918,20.9611,-318.607,0.373198,0.0,0.0
4488,1121.75,42.0615,43.1052,143.645,99.9202,95.9072,0.0114142,0.126285,20.9617,-318.697,0.367905,0.0,0.0
4500,1124.75,42.1867,43.3714,142.519,99.9408,95.8124,0.0114084,0.124891,20.9629,-318.687,0.378628,0.0,0.0
4512,1127.75,41.4659,43.28,142.112,99.9488,95.8293,0.0117668,0.124834,20.9627,-318.737,0.377765,0.0,0.0
4524,1130.75,41.5985,43.4301,143.568,99.969,95.2262,0.0120578,0.125139,20.9628,-318.767,0.436238,0.0,0.0
4536,1133.75,41.684,43.2734,140.627,99.9879,95.7188,0.0120431,0.12501,20.9635,-318.787,0.391626,0.0,0.0
4548,1136.75,41.8507,43.0164,144.096,99.9952,95.6486,0.0118551,0.124591,20.9624,-318.837,0.398868,0.0,0.0
4560,1139.75,42.1745,43.1928,139.884,100.011,95.6922,0.0120188,0.125711,20.96,-318.867,0.396188,0.0,0.0
4572,1142.75,41.5971,43.0496,137.983,100.02,95.6968,0.0121087,0.125868,20.9594,-318.917,0.396583,0.0,0.0
4584,1145.75,42.1978,42.6781,144.471,100.023,96.0282,0.0118533,0.12478,20.9612,-318.967,0.365847,0.0,0.0
4596,1148.75,41.5369,43.4785,145.186,100.042,95.6211,0.011746,0.125296,20.9619,-319.027,0.405608,0.0,0.0
4608,1151.75,41.4127,43.0559,142.778,100.044,96.3562,0.0119975,0.126102,20.962,-319.077,0.337124,0.0,0.0
4620,1154.75,41.453,43.0323,139.911,100.053,95.7548,0.0120116,0.126274,20.9621,-319.117,0.394113,0.0,0.0
4632,1157.75,42.1908,42.8776,143.95,100.059,96.1328,0.0119797,0.125607,20.9621,-319.158,0.3593,0.0,0.0
4644,1160.75,41.496,43.0455,138.425,100.071,95.597,0.0123196,0.125678,20.9616,-319.178,0.410476,0.0,0.0
4656,1163.75,41.8034,42.9037,138.402,100.075,95.5868,0.012538,0.128093,20.9591,-319.218,0.411863,0.0,0.0
4668,1166.75,41.4614,43.1551,143.252,100.08,95.6109,0.012334,0.128897,20.9573,-319.238,0.409996,0.0,0.0
4680,1169.75,41.6576,42.8294,138.276,100.083,95.8695,0.0119038,0.128768,20.958,-319.288,0.38608,0.0,0.0
4692,1172.75,41.6458,42.5337,139.043,100.075,96.0968,0.0119499,0.129398,20.9587,-319.328,0.364033,0.0,0.0
4704,1175.75,41.2597,42.7216,142.655,100.083,95.5148,0.0122431,0.129322,20.9595,-319.358,0.419272,0.0,0.0
4716,1178.75,41.2294,42.9159,144.532,100.097,95.4615,0.0124183,0.12732,20.9622,-319.428,0.42555,0.0,0.0
4728,1181.75,41.5279,42.5301,140.608,100.084,95.5669,0.0124711,0.125839,20.9649,-319.428,0.414527,0.0,0.0
4740,1184.75,41.5905,42.8901,149.226,100.076,96.1924,0.0123849,0.124822,20.9657,-319.478,0.355212,0.0,0.0
4752,1187.75,41.5761,42.7122,142.044,100.084,96.5788,0.0123124,0.124329,20.9659,-319.528,0.319954,0.0,0.0
4764,1190.75,41.5458,42.9168,137.119,100.085,95.7286,0.0122905,0.124461,20.9677,-319.548,0.399392,0.0,0.0
4776,1193.75,41.5538,42.736,139.744,100.09,96.1179,0.0122012,0.122813,20.9688,-319.598,0.363466,0.0,0.0
4788,1196.75,41.4915,42.7169,137.893,100.081,95.8488,0.0120689,0.122511,20.9686,-319.608,0.387805,0.0,0.0
4800,1199.75,41.3505,42.6311,143.425,100.083,95.6067,0.0121219,0.123853,20.9658,-319.678,0.410682,0.0,0.0
4812,1202.75,41.7065,42.7742,141.749,100.075,96.1323,0.0123436,0.124171,20.9648,-319.708,0.360785,0.0,0.0
4824,1205.75,41.1901,42.7979,142.44,100.076,95.9876,0.0123498,0.123119,20.9652,-319.748,0.374382,0.0,0.0
4836,1208.75,41.0091,42.4997,142.144,100.094,95.7726,0.0124083,0.122163,20.9664,-319.788,0.396061,0.0,0.0
4848,1211.75,40.3891,41.993,139.992,100.075,96.0375,0.01256,0.123107,20.965,-319.838,0.369641,0.0,0.0
4860,1214.75,40.2492,41.4111,144.363,100.081,95.2338,0.0125755,0.124286,20.9652,-319.868,0.445573,0.0,0.0
4872,1217.75,40.023,41.551,142.534,100.079,95.6659,0.0125002,0.124531,20.9659,-319.888,0.404797,0.0,0.0
4884,1220.75,40.2438,42.0084,143.121,100.067,95.9694,0.0123274,0.124449,20.9663,-319.958,0.375215,0.0,0.0
4896,1223.75,40.4909,41.711,142.173,100.06,95.6799,0.0122649,0.123476,20.9685,-319.968,0.401788,0.0,0.0
4908,1226.75,40.5993,41.8565,145.288,100.087,95.5496,0.0123911,0.122624,20.9702,-319.998,0.416373,0.0,0.0
4920,1229.75,40.6858,41.7585,143.728,100.055,96.0866,0.0124434,0.122681,20.9707,-320.038,0.363246,0.0,0.0
4932,1232.75,40.5972,42.0833,140.891,100.047,95.3265,0.0125681,0.123575,20.9696,-320.098,0.433769,0.0,0.0
4944,1235.75,40.1844,41.6398,141.188,100.052,95.7912,0.0124895,0.123034,20.9688,-320.118,0.390629,0.0,0.0
4956,1238.75,40.4521,41.4908,144.38,100.033,95.7866,0.0123186,0.122901,20.9677,-320.158,0.389367,0.0,0.0
4968,1241.75,40.4428,41.9782,140.346,100.034,95.5677,0.0123767,0.121924,20.9686,-320.188,0.409964,0.0,0.0
4980,1244.75,40.818,41.6928,144.732,100.042,95.9838,0.0125317,0.120751,20.9705,-320.218,0.371701,0.0,0.0
4992,1247.75,40.5552,41.7767,144.086,100.035,95.6774,0.0127612,0.120901,20.9706,-320.299,0.399748,0.0,0.0
5004,1250.75,39.9605,42.0615,142.72,100.031,95.751,0.0126807,0.121332,20.9696,-320.309,0.392517,0.0,0.0
5016,1253.75,40.7053,41.3258,142.988,100.031,96.1924,0.0125975,0.121309,20.9693,-320.349,0.3512,0.0,0.0
5028,1256.75,40.032,41.6601,142.665,100.033,95.5047,0.0124072,0.121263,20.9692,-320.399,0.415816,0.0,0.0
5040,1259.75,40.5414,41.3331,143.469,100.023,96.0748,0.0122275,0.120344,20.9692,-320.429,0.361497,0.0,0.0
5052,1262.75,40.0766,41.2599,143.261,100.027,95.28,0.0122727,0.120563,20.972,-320.479,0.436417,0.0,0.0
5064,1265.75,40.433,41.4896,143.512,100.026,96.151,0.0124175,0.120698,20.9714,-320.509,0.354599,0.0,0.0
5076,1268.75,39.8154,41.4289,142.065,100.034,96.1945,0.0127313,0.121213,20.9719,-320.529,0.351291,0.0,0.0
5088,1271.75,40.2651,41.3783,142.316,100.013,95.5898,0.012916,0.121199,20.9731,-320.549,0.406017,0.0,0.0
5100,1274.75,39.9542,41.2076,143.049,100.019,95.448,0.0127659,0.121166,20.9734,-320.609,0.419882,0.0,0.0
5112,1277.75,39.957,41.5139,147.801,100.04,95.9444,0.0126165,0.121554,20.9719,-320.649,0.375165,0.0,0.0
5124,1280.75,39.804,41.196,146,100.018,95.8716,0.0124362,0.121646,20.9714,-320.699,0.379988,0.0,0.0
5136,1283.75,38.9291,41.2784,142.231,100.025,96.0117,0.0121832,0.121119,20.9727,-320.709,0.367571,0.0,0.0
5148,1286.75,40.0527,41.5782,141.517,100.038,95.6181,0.012065,0.120215,20.9713,-320.759,0.405598,0.0,0.0
5160,1289.75,39.2523,40.9033,140.061,100.044,96.2546,0.0122114,0.121026,20.9704,-320.789,0.346517,0.0,0.0
5172,1292.75,39.5025,41.179,140.598,100.061,95.8957,0.0122555,0.122038,20.9713,-320.819,0.3816,0.0,0.0
5184,1295.75,40.0379,40.8894,143.98,100.052,95.9389,0.0123071,0.120752,20.9729,-320.859,0.376765,0.0,0.0
5196,1298.75,39.3721,41.2839,137.551,100.04,95.6211,0.0124199,0.119663,20.9732,-320.899,0.405464,0.0,0.0
5208,1301.75,39.5673,41.2556,143.58,100.055,95.7938,0.0126605,0.12092,20.972,-320.939,0.390608,0.0,0.0
5220,1304.75,39.4598,40.9102,146.171,100.036,95.7789,0.0126014,0.121392,20.9702,-320.979,0.390333,0.0,0.0
5232,1307.75,39.5318,41.1978,144.726,100.033,95.6782,0.0124638,0.121047,20.9711,-321.019,0.399525,0.0,0.0
5244,1310.75,39.8987,40.9855,143.615,100.035,95.6854,0.0124916,0.121131,20.9714,-321.059,0.398994,0.0,0.0
5256,1313.75,39.0738,40.8372,137.733,100.038,96.1374,0.0125037,0.12151,20.9699,-321.089,0.356986,0.0,0.0
5268,1316.75,39.8943,41.1835,143.932,100.031,96.1361,0.0125227,0.121364,20.9686,-321.119,0.35649,0.0,0.0
5280,1319.75,39.4149,40.968,142.416,100.032,95.663,,0.121834,,-321.149,0.400809,0.0,0.0
5292,1322.75,39.5904,40.6281,142.933,100.024,95.8881,,,,-321.189,0.379022,0.0,0.0
5304,1325.75,39.6166,41.3926,145.089,100.033,95.8716,,,,-321.229,0.381363,0.0,0.0
5316,1328.75,39.7173,41.1748,142.49,100.016,95.3739,,,,-321.279,0.426559,0.0,0.0
5323,1330.5,39.5885,40.945,140.4,100.01,95.7159,,,,-321.289,0.39393,0.0,0.0