File: 01_Data/Engineered_Wood_Furniture/Cone/Engineered_Wood_Furniture_Cone_HF75Scan_220330_R2.csv
Names,Time,Stack TC,Smoke TC,Exh Press,Smoke Comp,Smoke Meas,CO Meter,CO2 Meter,O2 Meter,Sample Mass,Ext Coeff,Start Test,Flame Verif
Chan Gain,,500,500,1,1,1,1,1,1,1,1,1.0,1.0
Offset,,0,0,0.135377,0,0,0,0,0,0,0,0.0,0.0
Gain,,1,1,25.011,13.2062,13.8682,1,1,1,1.0009,1.02317,1.0,1.0
Units,sec,C,C,Pa,%,%,%,%,%,g,/m,,
Baseline,,44.2378,46.2173,141.187,98.9612,94.6703,0.000662808,0.0427143,21.0731,-835.955,0.397885,,
8,1.75,42.2103,43.9316,142.824,98.5584,94.285,0.000817757,0.0477474,21.0682,-229.337,0.397851,0.0,0.0
16,3.75,42.1977,44.2857,141.315,98.5701,93.4351,0.000886228,0.0479309,21.0678,-229.417,0.480179,0.0,0.0
24,5.75,42.6034,44.5378,141.621,98.5645,91.7012,0.00103064,0.0478416,21.0676,-229.487,0.647789,0.0,0.0
32,7.75,42.3664,44.1987,143.198,98.5653,89.8098,0.00124656,0.0482882,21.0663,-229.517,0.834917,0.0,0.0
40,9.75,42.3305,44.7301,141.513,98.5657,90.2355,0.00154395,0.0490262,21.0603,-229.617,0.792506,0.0,0.0
48,11.75,42.824,44.2369,144.302,98.5697,92.2366,0.00228211,0.0608274,21.0386,-229.767,0.596019,0.0,1.0
56,13.75,43.7534,45.692,125.983,98.5544,90.3862,0.00421012,0.173956,20.9,-230.077,0.776504,0.0,1.0
64,15.75,44.4881,46.1981,115.508,98.5665,83.7323,0.00726419,0.467091,20.4497,-230.788,1.46391,0.0,1.0
72,17.75,49.151,50.9589,94.4873,98.579,87.7017,0.00985838,0.926449,19.9218,-231.589,1.04935,0.0,0.0
80,19.75,54.1908,56.8236,99.9348,98.5749,89.5745,0.0108031,1.19517,19.6567,-232.249,0.859345,0.0,0.0
88,21.75,58.7168,62.5143,113.422,98.5705,92.2145,0.010161,1.21504,19.5751,-232.73,0.598235,0.0,0.0
96,23.75,61.0756,65.7258,119.252,98.5604,94.9033,0.00867653,1.03821,19.8178,-233.06,0.339365,0.0,0.0
104,25.75,62.5053,67.1639,121.513,98.5685,94.4073,0.00739827,0.846747,20.0617,-233.37,0.387132,0.0,0.0
112,27.75,63.8932,68.7321,118.914,98.5649,92.0601,0.0066972,0.741592,20.1772,-233.741,0.612768,0.0,0.0
120,29.75,65.1106,70.3943,114.031,98.5681,92.1252,0.00667247,0.716408,20.2193,-234.161,0.60671,0.0,0.0
128,31.75,66.8197,71.8908,116.171,98.5568,90.1255,0.00697532,0.734571,20.2009,-234.641,0.80265,0.0,0.0
136,33.75,68.484,73.9105,116.566,98.5653,90.4645,0.00744168,0.766773,20.1707,-235.102,0.769724,0.0,0.0
144,35.75,70.1252,75.8678,112.457,98.5552,89.1809,0.00800587,0.801504,20.1306,-235.582,0.897071,0.0,0.0
152,37.75,71.8197,77.9801,111.16,98.5673,88.772,0.00842947,0.83326,20.0887,-236.083,0.939412,0.0,0.0
160,39.75,73.8292,79.77,116.286,98.5653,87.6298,0.00869666,0.856305,20.0626,-236.563,1.05547,0.0,0.0
168,41.75,75.4114,81.887,114.378,98.5624,87.2142,0.00884807,0.865179,20.0523,-237.004,1.09788,0.0,0.0
176,43.75,77.2513,82.9549,112.857,98.5701,89.0624,0.0089561,0.863091,20.0532,-237.494,0.910363,0.0,0.0
184,45.75,77.6859,85.2307,112.189,98.5645,88.8647,0.00898412,0.850669,20.0684,-237.924,0.929789,0.0,0.0
192,47.75,78.9662,86.0535,113.864,98.5685,89.6028,0.00889773,0.829915,20.0921,-238.385,0.855917,0.0,0.0
200,49.75,80.6226,87.8441,114.758,98.5584,88.6425,0.00869086,0.802262,20.1222,-238.805,0.951708,0.0,0.0
208,51.75,81.2763,88.8081,116.905,98.5689,88.4292,0.00850871,0.776116,20.1547,-239.226,0.974286,0.0,0.0
216,53.75,81.9447,89.5067,112.933,98.5632,88.8647,0.00834391,0.752988,20.1824,-239.616,0.92968,0.0,0.0
224,55.75,82.6875,90.0839,117.744,98.5705,87.8515,0.00822681,0.736944,20.1998,-240.066,1.03326,0.0,0.0
232,57.75,83.6922,91.3033,118.817,98.5693,88.1749,0.00809487,0.718519,20.2226,-240.457,1.00018,0.0,0.0
240,59.75,83.7061,91.6071,118.645,98.579,89.1817,0.00780978,0.700595,20.2494,-240.837,0.899152,0.0,0.0
248,61.75,84.7117,92.5254,116.991,98.579,90.0172,0.00750062,0.678505,20.2718,-241.217,0.815464,0.0,0.0
256,63.75,85.2105,93.1475,118.281,98.5975,89.6854,0.00736442,0.656946,20.2987,-241.608,0.850296,0.0,0.0
264,65.75,85.3467,93.4357,119.516,98.606,90.0104,0.00725076,0.638524,20.3218,-241.968,0.818597,0.0,0.0
272,67.75,86.2382,94.1588,117.167,98.604,91.3245,0.0069703,0.620552,20.3453,-242.328,0.688328,0.0,0.0
280,69.75,85.4703,93.6465,118.041,98.5959,90.8624,0.00666078,0.602751,20.3659,-242.699,0.733129,0.0,0.0
288,71.75,85.7034,94.3029,123.707,98.6035,90.8022,0.00650342,0.589095,20.3815,-243.039,0.739765,0.0,0.0
296,73.75,85.8294,94.8991,117.977,98.6197,91.3143,0.00639422,0.580083,20.3944,-243.349,0.690757,0.0,0.0
304,75.75,86.549,94.3349,120.412,98.6249,92.4029,0.00625326,0.568214,20.4097,-243.73,0.584875,0.0,0.0
312,77.75,86.7472,94.5381,123.827,98.6414,92.237,0.0060469,0.55734,20.4235,-244.05,0.602508,0.0,0.0
320,79.75,85.7848,95.5306,119.042,98.6551,91.3914,0.00577847,0.548734,20.4356,-244.38,0.686416,0.0,0.0
328,81.75,86.5784,95.1495,122.139,98.6781,92.0232,0.00551521,0.540976,20.4442,-244.73,0.626665,0.0,0.0
336,83.75,86.3128,94.6011,126.839,98.6854,92.3483,0.005287,0.531607,20.4552,-245.041,0.59568,0.0,0.0
344,85.75,86.6386,94.9785,121.327,98.7112,92.5764,0.00520065,0.522185,20.4683,-245.371,0.575883,0.0,0.0
352,87.75,86.0953,94.5215,121.912,98.7212,92.4973,0.00525088,0.515307,20.4776,-245.681,0.584474,0.0,0.0
360,89.75,86.4819,94.8302,118.496,98.7426,92.7372,0.00523663,0.509151,20.4837,-246.012,0.563161,0.0,0.0
368,91.75,85.6156,94.7194,123.98,98.7627,93.4918,0.00505629,0.502816,20.4898,-246.312,0.492257,0.0,0.0
376,93.75,86.6399,94.5777,123.242,98.7914,94.0996,0.00487294,0.497046,20.4971,-246.652,0.436702,0.0,0.0
384,95.75,85.9346,94.4324,124.302,98.8079,92.5544,0.00477118,0.496004,20.5026,-246.942,0.586806,0.0,0.0
392,97.75,86.2069,94.5942,122.905,98.8401,93.7018,0.0048249,0.493229,20.507,-247.243,0.479156,0.0,0.0
400,99.75,85.9801,94.4934,123.129,98.8643,93.3729,0.00489121,0.489144,20.5113,-247.543,0.512906,0.0,0.0
408,101.75,86.081,94.2323,124.396,98.8982,94.1813,0.0048364,0.486101,20.5153,-247.883,0.438611,0.0,0.0
416,103.75,86.0573,94.3603,121.604,98.9364,93.4174,0.00468656,0.481891,20.5188,-248.204,0.515182,0.0,0.0
424,105.75,85.9311,94.2823,122.92,98.9767,93.8435,0.00446714,0.477929,20.5239,-248.504,0.477984,0.0,0.0
432,107.75,85.4997,94.156,119.469,99.0211,93.9244,0.00435845,0.475571,20.5271,-248.814,0.474275,0.0,0.0
440,109.75,85.6979,94.1854,123.44,99.0533,94.4619,0.00435363,0.473232,20.5308,-249.094,0.425981,0.0,0.0
448,111.75,85.2353,94.0631,124.806,99.096,94.1999,0.00440403,0.467446,20.5374,-249.395,0.454778,0.0,0.0
456,113.75,85.4298,93.5175,121.52,99.1251,94.7378,0.00441988,0.464159,20.5434,-249.695,0.4063,0.0,0.0
464,115.75,85.4052,93.7137,122.016,99.1803,94.1127,0.00437723,0.46203,20.5464,-249.995,0.470714,0.0,0.0
472,117.75,84.9665,93.7258,120.457,99.2258,94.5694,0.00428674,0.460028,20.5487,-250.305,0.43139,0.0,0.0
480,119.75,85.0334,93.7473,121.047,99.2633,95.2774,0.00422392,0.457733,20.5518,-250.636,0.36783,0.0,0.0
488,121.75,85.4156,93.5975,122.145,99.2814,93.7411,0.00416407,0.452921,20.5583,-250.916,0.515372,0.0,0.0
496,123.75,84.9843,93.3594,121.94,99.2609,94.3201,0.00405587,0.449216,20.5618,-251.176,0.458251,0.0,0.0
504,125.75,84.7065,93.0942,120.642,99.2572,94.712,0.00394275,0.447916,20.5643,-251.537,0.420707,0.0,0.0
512,127.75,84.9314,92.9678,123.565,99.2778,94.4716,0.0038681,0.44669,20.5667,-251.787,0.445373,0.0,0.0
520,129.75,84.8672,93.0329,120.101,99.3121,94.8572,0.00384012,0.443858,20.5711,-252.087,0.411915,0.0,0.0
528,131.75,84.3551,92.7903,130.858,99.3524,94.7395,0.00378366,0.435168,20.5788,-252.357,0.426697,0.0,0.0
536,133.75,84.4486,92.7118,124.072,99.383,94.42,0.00375411,0.428982,20.5855,-252.688,0.459785,0.0,0.0
544,135.75,84.1857,92.5248,121.738,99.4201,94.7704,0.00378136,0.42848,20.5879,-252.948,0.429884,0.0,0.0
552,137.75,84.0766,92.1623,123.551,99.4507,94.839,0.00386428,0.428953,20.588,-253.268,0.426158,0.0,0.0
560,139.75,84.0373,91.83,123.905,99.4785,94.7497,0.00392054,0.429399,20.5883,-253.548,0.437123,0.0,0.0
568,141.75,84.0321,91.9911,124.342,99.5099,95.66,0.00386241,0.429318,20.5895,-253.869,0.354137,0.0,0.0
576,143.75,83.8884,91.8412,124.724,99.5555,95.1331,0.00377528,0.427839,20.5909,-254.119,0.407816,0.0,0.0
584,145.75,83.688,91.4967,123.82,99.5696,94.9079,0.00369924,0.425404,20.5936,-254.389,0.430355,0.0,0.0
592,147.75,83.245,91.8642,123.515,99.6059,95.459,0.00374592,0.42245,20.5976,-254.669,0.381665,0.0,0.0
600,149.75,83.5647,91.2158,121.944,99.6333,95.4429,0.00390805,0.418682,20.6026,-254.95,0.385646,0.0,0.0
608,151.75,83.5715,91.3838,125.394,99.6647,95.6384,0.00391985,0.415183,20.6069,-255.23,0.370109,0.0,0.0
616,153.75,82.8327,90.9499,125.296,99.7006,95.4382,0.00373555,0.413291,20.6091,-255.52,0.392145,0.0,0.0
624,155.75,83.3828,91.2594,123.261,99.7207,95.5161,0.00364318,0.411591,20.6114,-255.78,0.386639,0.0,0.0
632,157.75,82.7784,90.6925,126.746,99.7364,95.2055,0.00363559,0.408272,20.6146,-256.051,0.417291,0.0,0.0
640,159.75,83.0616,90.9743,122.691,99.7542,96.0604,0.00361092,0.405593,20.6165,-256.321,0.338652,0.0,0.0
648,161.75,82.7654,90.5319,127.601,99.778,96.0147,0.00352937,0.402011,20.6202,-256.621,0.345062,0.0,0.0
656,163.75,82.4267,90.363,125.779,99.7965,96.0278,0.00348933,0.398585,20.6238,-256.871,0.345504,0.0,0.0
664,165.75,82.6939,90.372,120.33,99.8114,95.4243,0.00350749,0.397082,20.6253,-257.152,0.40343,0.0,0.0
672,167.75,82.4323,90.1201,124.618,99.8195,95.85,0.00347156,0.396298,20.626,-257.392,0.364199,0.0,0.0
680,169.75,82.5858,89.7549,125.106,99.832,95.5796,0.00339752,0.396126,20.6275,-257.682,0.390681,0.0,0.0
688,171.75,82.1244,89.888,125.415,99.8384,96.6817,0.00340515,0.395713,20.6283,-257.922,0.288364,0.0,0.0
696,173.75,82.342,89.9855,128.566,99.8473,96.6271,0.00345828,0.394337,20.6308,-258.213,0.294232,0.0,0.0
704,175.75,81.9542,89.5484,125.547,99.8545,96.432,0.00350919,0.39122,20.6349,-258.503,0.313025,0.0,0.0
712,177.75,81.9567,89.7009,124.983,99.8622,95.9364,0.0035151,0.388143,20.6382,-258.733,0.359957,0.0,0.0
720,179.75,82.037,89.5255,126.872,99.8666,96.1624,0.00342476,0.385501,20.6407,-259.023,0.339238,0.0,0.0
728,181.75,81.8153,89.3151,126.121,99.869,96.3406,0.00332655,0.383305,20.6445,-259.284,0.32284,0.0,0.0
736,183.75,81.5378,89.2327,120.833,99.8787,96.3418,0.00327747,0.380789,20.6491,-259.564,0.323592,0.0,0.0
744,185.75,81.4466,88.8503,121.957,99.8658,96.0782,0.00326875,0.378181,20.6516,-259.804,0.34703,0.0,0.0
752,187.75,81.405,88.8893,128.203,99.8634,96.6322,0.00332203,0.377292,20.6531,-260.114,0.295209,0.0,0.0
760,189.75,81.478,88.7582,121.76,99.8517,95.6786,0.00333291,0.37742,20.6538,-260.315,0.383161,0.0,0.0
768,191.75,80.7722,88.2363,124.534,99.8477,96.9128,0.00332534,0.376779,20.6551,-260.595,0.267771,0.0,0.0
776,193.75,81.006,88.4309,123.96,99.8384,96.2449,0.00326063,0.376434,20.656,-260.875,0.329002,0.0,0.0
784,195.75,81.1624,88.442,128.608,99.8175,96.5919,0.00315851,0.376008,20.6564,-261.105,0.294814,0.0,0.0
792,197.75,80.7368,88.1789,123.244,99.8029,96.44,0.00308918,0.374681,20.6572,-261.355,0.307639,0.0,0.0
800,199.75,80.8926,87.7662,125.136,99.7868,96.3435,0.00303441,0.372791,20.6584,-261.616,0.315173,0.0,0.0
808,201.75,80.8283,88.1412,126.361,99.7606,96.6512,0.00300733,0.371418,20.6596,-261.886,0.284199,0.0,0.0
816,203.75,80.448,87.9263,123.38,99.7429,96.5729,0.00297891,0.37104,20.6602,-262.136,0.289877,0.0,0.0
824,205.75,80.6189,87.6493,129.68,99.7203,96.845,0.00280396,0.371322,20.66,-262.386,0.262591,0.0,0.0
832,207.75,80.9112,87.5071,124.258,99.6933,96.9348,0.00262103,0.3705,20.6615,-262.627,0.251848,0.0,0.0
840,209.75,80.5463,87.4723,128.049,99.68,96.6051,0.00251589,0.368881,20.6633,-262.907,0.281229,0.0,0.0
848,211.75,80.2561,87.1802,125.967,99.6389,96.647,0.00252165,0.366591,20.6652,-263.157,0.273634,0.0,0.0
856,213.75,80.1867,87.2694,126.62,99.6079,96.5175,0.00261879,0.366221,20.6662,-263.447,0.282874,0.0,0.0
864,215.75,79.8487,86.8368,131.344,99.593,95.9884,0.00283098,0.365188,20.6667,-263.658,0.330861,0.0,0.0
872,217.75,80.0871,86.9139,128.652,99.5498,95.9233,0.00302842,0.364024,20.6668,-263.898,0.33307,0.0,0.0
880,219.75,79.8899,86.6504,126.011,99.5232,96.3736,0.00308312,0.363347,20.6673,-264.158,0.288636,0.0,0.0
888,221.75,79.9396,86.4872,127.216,99.4966,96.3376,0.00306147,0.362859,20.6689,-264.428,0.289588,0.0,0.0
896,223.75,80.0128,86.4165,122.293,99.4809,96.4019,0.00307573,0.361957,20.6697,-264.678,0.282179,0.0,0.0
904,225.75,79.4916,86.4822,124.137,99.4551,95.6664,0.00306479,0.362534,20.67,-264.949,0.348596,0.0,0.0
912,227.75,79.7493,85.9324,127.461,99.4297,95.4179,0.00299442,0.362607,20.67,-265.149,0.369642,0.0,0.0
920,229.75,79.6099,86.0645,124.279,99.4003,96.013,0.00288916,0.362385,20.6705,-265.429,0.311188,0.0,0.0
928,231.75,79.3482,86.4531,122.693,99.3802,95.999,0.00280803,0.361693,20.6709,-265.679,0.310674,0.0,0.0
936,233.75,79.3366,86.0405,125.057,99.3588,96.0523,0.00272802,0.360675,20.671,-265.88,0.303761,0.0,0.0
944,235.75,79.2139,86.041,128.419,99.3395,95.7425,0.00270205,0.359587,20.6724,-266.15,0.331007,0.0,0.0
952,237.75,79.4819,85.675,126.051,99.3181,95.9211,0.0027507,0.35851,20.6744,-266.39,0.31235,0.0,0.0
960,239.75,79.2658,85.7347,125.814,99.3068,96.1357,0.00289928,0.357609,20.676,-266.61,0.291275,0.0,0.0
968,241.75,78.874,85.4864,124.108,99.2931,95.8682,0.00298344,0.356532,20.6772,-266.87,0.315043,0.0,0.0
976,243.75,78.9626,85.4928,127.084,99.2818,96.2026,0.00295112,0.356981,20.6756,-267.101,0.282776,0.0,0.0
984,245.75,79.0086,85.7107,123.285,99.3455,95.7586,0.00294442,0.357989,20.6733,-267.361,0.330046,0.0,0.0
992,247.75,79.0161,85.3261,129.806,99.4124,96.3643,0.00295047,0.35894,20.672,-267.601,0.279502,0.0,0.0
1000,249.75,78.9775,85.565,123.504,99.5128,95.7277,0.00286049,0.359293,20.6715,-267.841,0.348039,0.0,0.0
1008,251.75,78.9634,85.4275,129.676,99.5644,96.01,0.00267791,0.35805,20.6736,-268.132,0.326263,0.0,0.0
1016,253.75,78.8834,85.2901,126.303,99.6276,96.5386,0.00255283,0.357424,20.6748,-268.372,0.282686,0.0,0.0
1024,255.75,79.3798,85.4024,122.247,99.6844,96.4248,0.00253295,0.358045,20.6753,-268.612,0.298394,0.0,0.0
1032,257.75,78.8292,85.2888,127.926,99.7465,96.5759,0.00264712,0.358484,20.676,-268.862,0.289928,0.0,0.0
1040,259.75,78.1137,85.3095,124.772,99.7788,96.5382,0.0027795,0.356887,20.6785,-269.072,0.296329,0.0,0.0
1048,261.75,78.9476,84.961,124.952,99.8408,96.5005,0.00280898,0.354857,20.6811,-269.313,0.305414,0.0,0.0
1056,263.75,78.6378,84.965,124.215,99.8896,96.8357,0.00282197,0.353969,20.6821,-269.543,0.278675,0.0,0.0
1064,265.75,78.6477,84.9117,127.353,99.9242,96.8383,0.00279551,0.355229,20.6805,-269.803,0.281553,0.0,0.0
1072,267.75,78.3843,84.6319,124.607,99.9589,96.4883,0.00271483,0.356949,20.6796,-270.033,0.317164,0.0,0.0
1080,269.75,78.7889,85.0428,130.284,99.9984,96.6161,0.00268083,0.355942,20.6798,-270.303,0.308829,0.0,0.0
1088,271.75,78.5703,84.7212,126.62,100.035,96.2978,0.00274724,0.35432,20.6814,-270.534,0.341733,0.0,0.0
1096,273.75,78.6926,84.6939,126.969,100.068,96.6571,0.00280866,0.354278,20.6823,-270.794,0.311272,0.0,0.0
1104,275.75,78.5144,84.7431,125.808,100.091,96.7959,0.00286273,0.355678,20.6794,-271.004,0.300452,0.0,0.0
1112,277.75,78.3356,84.1927,127.014,100.106,96.5623,0.00290091,0.357577,20.6775,-271.254,0.323512,0.0,0.0
1120,279.75,78.4985,84.5715,128.937,100.125,96.9733,0.00298649,0.358184,20.6767,-271.505,0.287095,0.0,0.0
1128,281.75,78.0308,84.513,124.796,100.14,96.7342,0.00307696,0.359406,20.6744,-271.775,0.31059,0.0,0.0
1136,283.75,78.4099,84.4784,127.195,100.159,96.534,0.00311766,0.361952,20.6714,-272.015,0.33088,0.0,0.0
1144,285.75,77.8489,84.6773,124.684,100.173,96.9762,0.00306001,0.363855,20.6689,-272.265,0.291118,0.0,0.0
1152,287.75,78.3121,83.9446,125.285,100.177,96.8687,0.00296777,0.364801,20.6676,-272.475,0.301362,0.0,0.0
1160,289.75,78.5107,84.4869,122.535,100.185,96.3114,0.00286255,0.366641,20.6654,-272.696,0.353949,0.0,0.0
1168,291.75,78.67,84.523,130.943,100.176,96.1518,0.00278727,0.367782,20.6637,-272.976,0.368,0.0,0.0
1176,293.75,78.789,84.6348,123.927,100.17,96.184,0.00284412,0.367624,20.6631,-273.236,0.364492,0.0,0.0
1184,295.75,78.6361,84.7886,122.735,100.152,96.0849,0.00298644,0.367747,20.6629,-273.456,0.372077,0.0,0.0
1192,297.75,78.7421,84.4704,130.724,100.145,96.5678,0.00302105,0.367863,20.6648,-273.717,0.326433,0.0,0.0
1200,299.75,78.3288,85.1578,129.494,100.123,96.0663,0.00291647,0.367849,20.667,-273.977,0.37118,0.0,0.0
1208,301.75,78.705,84.0619,121.197,100.098,96.1869,0.00292317,0.368096,20.6679,-274.217,0.357714,0.0,0.0
1216,303.75,78.4433,84.7585,129.091,100.056,96.749,0.0029645,0.369221,20.6679,-274.477,0.301699,0.0,0.0
1224,305.75,78.4278,84.3525,124.092,100.034,95.6266,0.00305334,0.372225,20.6633,-274.748,0.404441,0.0,0.0
1232,307.75,78.6476,84.527,123.704,99.9916,96.5898,0.00316577,0.373689,20.6608,-274.948,0.310651,0.0,0.0
1240,309.75,78.681,84.6676,125.988,99.9464,95.431,0.00328813,0.373988,20.6595,-275.208,0.414925,0.0,0.0
1248,311.75,78.7642,84.9813,126.511,99.8852,96.2242,0.00329816,0.374763,20.6583,-275.458,0.335139,0.0,0.0
1256,313.75,78.613,85.0928,121.971,99.8348,96.2889,0.00319931,0.376411,20.6576,-275.708,0.324573,0.0,0.0
1264,315.75,79.0241,84.7409,125.992,99.7759,95.9199,0.00320255,0.376419,20.6573,-275.969,0.353748,0.0,0.0
1272,317.75,78.8167,84.7901,127.617,99.7119,96.1027,0.00322342,0.376116,20.6571,-276.219,0.330889,0.0,0.0
1280,319.75,78.8957,84.8179,128.842,99.6937,95.8399,0.00320658,0.377902,20.6556,-276.469,0.353836,0.0,0.0
1288,321.75,78.7391,84.8391,124.492,99.7187,95.437,0.00319123,0.377756,20.6546,-276.699,0.393897,0.0,0.0
1296,323.75,79.1845,84.8192,121.649,99.7308,94.9295,0.00317092,0.374842,20.657,-276.96,0.442834,0.0,0.0
1304,325.75,78.4101,84.4216,126.269,99.7651,96.104,0.00317864,0.373364,20.6582,-277.24,0.335559,0.0,0.0
1312,327.75,78.7818,84.8154,124.594,99.7925,95.412,0.00332523,0.375074,20.6556,-277.47,0.402881,0.0,0.0
1320,329.75,78.7932,84.4351,121.886,99.8175,94.9456,0.00352928,0.379848,20.6497,-277.67,0.449109,0.0,0.0
1328,331.75,78.8762,84.6603,126.752,99.861,94.8246,0.0036204,0.384502,20.6443,-277.95,0.46447,0.0,0.0
1336,333.75,78.7469,84.4548,121.707,99.8904,95.6655,0.00362652,0.388424,20.6407,-278.191,0.38787,0.0,0.0
1344,335.75,79.0765,85.2367,129.997,99.9319,94.676,0.00358064,0.389844,20.6391,-278.481,0.484915,0.0,0.0
1352,337.75,78.9364,85.0084,124.386,99.9512,96.2343,0.00350734,0.38988,20.6385,-278.691,0.340127,0.0,0.0
1360,339.75,79.3727,85.1412,123.648,99.9799,95.1521,0.00345549,0.390167,20.6382,-278.951,0.444198,0.0,0.0
1368,341.75,79.3114,85.071,123.819,100.021,95.3007,0.00345491,0.390581,20.6374,-279.232,0.433886,0.0,0.0
1376,343.75,79.4633,84.953,125.166,100.06,94.7505,0.00352748,0.391228,20.638,-279.482,0.48936,0.0,0.0
1384,345.75,79.1389,85.239,123.205,100.087,94.968,0.00358685,0.392461,20.6377,-279.722,0.471199,0.0,0.0
1392,347.75,79.4099,84.9245,127.221,100.117,94.621,0.00357357,0.39246,20.637,-279.972,0.506731,0.0,0.0
1400,349.75,79.3425,85.1477,126.872,100.145,95.3477,0.00356976,0.392814,20.6359,-280.242,0.440595,0.0,0.0
1408,351.75,79.6789,85.2246,123.549,100.175,95.1462,0.00361467,0.394994,20.6335,-280.503,0.462287,0.0,0.0
1416,353.75,79.6614,85.1512,125.892,100.203,96.0126,0.00367295,0.396395,20.6325,-280.763,0.383426,0.0,0.0
1424,355.75,79.4435,85.4015,128.735,100.245,94.4847,0.00371599,0.396861,20.632,-281.023,0.531185,0.0,0.0
1432,357.75,79.6712,85.6265,122.401,100.265,95.2224,0.00374196,0.39732,20.6319,-281.263,0.463153,0.0,0.0
1440,359.75,79.6784,85.5353,126.189,100.289,94.9333,0.00375286,0.398358,20.6304,-281.514,0.492568,0.0,0.0
1448,361.75,79.4535,84.9066,127.159,100.312,94.9278,0.00371855,0.398648,20.629,-281.784,0.495144,0.0,0.0
1456,363.75,79.8405,85.7754,126.908,100.343,94.7518,0.00372884,0.399357,20.6279,-282.034,0.514545,0.0,0.0
1464,365.75,79.486,85.0846,125.624,100.372,95.4983,0.00374053,0.400316,20.6273,-282.294,0.446735,0.0,0.0
1472,367.75,80.2067,85.167,126.205,100.409,94.5194,0.00386503,0.400074,20.6269,-282.565,0.542527,0.0,0.0
1480,369.75,79.4616,85.4874,124.363,100.405,95.0887,0.00412178,0.400744,20.6256,-282.825,0.488312,0.0,0.0
1488,371.75,80.0328,85.7168,123.788,100.441,94.6862,0.00430808,0.401963,20.6246,-283.105,0.529517,0.0,0.0
1496,373.75,79.8795,86.0553,129.43,100.454,94.6874,0.00434297,0.403813,20.6231,-283.365,0.530584,0.0,0.0
1504,375.75,79.9887,85.9737,123.55,100.464,94.7221,0.00425845,0.403698,20.6227,-283.615,0.528232,0.0,0.0
1512,377.75,80.2074,85.6317,125.059,100.483,94.4428,0.00412427,0.402759,20.624,-283.866,0.556394,0.0,0.0
1520,379.75,80.1383,85.9149,124.341,100.498,95.1538,0.00414556,0.402624,20.6237,-284.146,0.490408,0.0,0.0
1528,381.75,80.461,85.6506,122.928,100.503,94.3776,0.00422067,0.403402,20.6231,-284.386,0.564354,0.0,0.0
1536,383.75,80.1386,85.9476,124.382,100.532,96.002,0.00409834,0.403852,20.6219,-284.666,0.413787,0.0,0.0
1544,385.75,79.9428,86.0879,127.024,100.541,94.7526,0.00392976,0.404367,20.6211,-284.897,0.532183,0.0,0.0
1552,387.75,80.1989,86.3178,122.413,100.538,94.0518,0.00389358,0.405548,20.6207,-285.157,0.598529,0.0,0.0
1560,389.75,80.4976,86.1454,122.872,100.544,94.5897,0.00402612,0.406363,20.621,-285.427,0.547954,0.0,0.0
1568,391.75,80.6917,85.9858,124.228,100.551,95.0929,0.00409336,0.405729,20.6211,-285.647,0.500944,0.0,0.0
1576,393.75,80.6349,86.0274,126.811,100.549,95.1479,0.00407254,0.404841,20.6223,-285.908,0.495538,0.0,0.0
1584,395.75,80.1262,85.956,124.031,100.548,95.8873,0.00401688,0.403312,20.6238,-286.168,0.425991,0.0,0.0
1592,397.75,80.5071,86.4252,126.909,100.542,94.3341,0.00395279,0.401805,20.6246,-286.428,0.572027,0.0,0.0
1600,399.75,80.5643,85.6115,122.064,100.526,94.635,0.00380518,0.403682,20.6224,-286.688,0.541968,0.0,0.0
1608,401.75,80.4521,86.9974,121.913,100.511,94.891,0.00373542,0.405464,20.6212,-286.969,0.516421,0.0,0.0
1616,403.75,80.5663,86.3744,127.992,100.511,94.2511,0.00387424,0.405029,20.62,-287.209,0.577188,0.0,0.0
1624,405.75,80.7486,86.4966,129.199,100.495,94.3975,0.00400582,0.40635,20.6202,-287.469,0.561742,0.0,0.0
1632,407.75,80.618,86.5803,124.974,100.479,94.9786,0.00410623,0.404382,20.6214,-287.709,0.505259,0.0,0.0
1640,409.75,80.7039,86.5327,126.542,100.449,95.23,0.00425978,0.401235,20.6238,-287.969,0.478869,0.0,0.0
1648,411.75,80.7082,86.2432,123.408,100.434,94.0683,0.00428907,0.401284,20.6243,-288.18,0.587666,0.0,0.0
1656,413.75,80.5914,86.3157,125.969,100.407,94.6701,0.00415248,0.403138,20.6222,-288.45,0.528051,0.0,0.0
1664,415.75,80.6971,86.5508,123.768,100.354,94.9295,0.00403715,0.404467,20.6201,-288.74,0.498732,0.0,0.0
1672,417.75,80.5801,86.5879,123.784,100.333,94.4458,0.00400473,0.404692,20.6189,-288.98,0.542747,0.0,0.0
1680,419.75,80.6887,86.5556,124.96,100.29,94.6532,0.00397352,0.403389,20.6194,-289.251,0.519203,0.0,0.0
1688,421.75,80.3622,86.236,126.346,100.257,93.6789,0.00390536,0.401256,20.622,-289.461,0.609105,0.0,0.0
1696,423.75,80.5791,86.1773,128.122,100.214,95.026,0.00394983,0.399954,20.6235,-289.691,0.477134,0.0,0.0
1704,425.75,81.0479,86.4555,123.249,100.177,93.8088,0.00410155,0.399622,20.6234,-289.961,0.589483,0.0,0.0
1712,427.75,80.5552,86.2945,125.402,100.13,93.5697,0.00420269,0.400363,20.6229,-290.231,0.6082,0.0,0.0
1720,429.75,80.6496,86.4944,123.266,100.091,94.7048,0.00421493,0.40066,20.6231,-290.422,0.49651,0.0,0.0
1728,431.75,80.4852,86.3889,126.323,100.052,94.1986,0.00420931,0.398517,20.6256,-290.702,0.541102,0.0,0.0
1736,433.75,80.6968,86.4256,127.32,100.008,94.6303,0.00426486,0.396445,20.6283,-290.962,0.496087,0.0,0.0
1744,435.75,80.8626,86.6005,123.541,99.9525,93.5219,0.00429941,0.39793,20.629,-291.232,0.596843,0.0,0.0
1752,437.75,80.6935,86.3357,125.405,99.9065,93.5189,0.00425215,0.398512,20.6292,-291.473,0.593002,0.0,0.0
1760,439.75,80.6866,86.4507,129.372,99.8436,94.1411,0.00423665,0.396799,20.6312,-291.733,0.527842,0.0,0.0
1768,441.75,80.469,87.0495,126.986,99.8046,93.979,0.00425924,0.395728,20.6322,-291.983,0.539793,0.0,0.0
1776,443.75,80.9544,85.7803,125.398,99.7606,93.5312,0.00421508,0.395855,20.6327,-292.213,0.578707,0.0,0.0
1784,445.75,80.5125,86.6186,128.528,99.7098,94.2672,0.00410358,0.395155,20.6329,-292.423,0.503789,0.0,0.0
1792,447.75,80.7223,86.3087,124.674,99.6615,93.4588,0.00397739,0.39442,20.6326,-292.714,0.576731,0.0,0.0
1800,449.75,80.7075,86.1279,124.549,99.624,94.0217,0.00397373,0.395548,20.6306,-292.984,0.519461,0.0,0.0
1808,451.75,80.8687,86.3054,125.232,99.5736,94.3269,0.00412801,0.397053,20.6293,-293.164,0.48584,0.0,0.0
1816,453.75,80.4311,86.5444,123.447,99.5289,93.2451,0.004238,0.397081,20.6294,-293.474,0.585331,0.0,0.0
1824,455.75,80.6867,86.6402,119.517,99.4934,94.1605,0.00424577,0.395949,20.6315,-293.705,0.494447,0.0,0.0
1832,457.75,80.9643,85.99,123.69,99.4499,93.5786,0.00429286,0.393739,20.6337,-293.955,0.546161,0.0,0.0
1840,459.75,80.6019,86.1897,124.185,99.4064,92.6488,0.00435014,0.39122,20.6367,-294.205,0.631858,0.0,0.0
1848,461.75,80.6107,86.5303,124.757,99.3798,94.1326,0.00431987,0.390548,20.638,-294.405,0.486852,0.0,0.0
1856,463.75,80.6645,86.2523,123.204,99.329,93.6125,0.0042477,0.390935,20.6386,-294.645,0.531996,0.0,0.0
1864,465.75,80.3324,86.0167,124.879,99.2782,94.059,0.00414887,0.390936,20.6389,-294.886,0.484699,0.0,0.0
1872,467.75,80.6392,85.9303,127.257,99.2294,92.9311,0.00416991,0.387743,20.6417,-295.126,0.588564,0.0,0.0
1880,469.75,80.0853,86.4964,122.853,99.175,93.8448,0.00427458,0.386968,20.6424,-295.346,0.495825,0.0,0.0
1888,471.75,80.1802,86.2712,124.476,99.1412,93.94,0.00428728,0.389003,20.64,-295.606,0.483658,0.0,0.0
1896,473.75,80.817,86.0892,128.908,99.1057,93.3581,0.00418292,0.39031,20.6373,-295.857,0.536218,0.0,0.0
1904,475.75,80.2899,85.4969,125.984,99.0569,93.488,0.00406318,0.390554,20.6361,-296.087,0.519319,0.0,0.0
1912,477.75,80.3195,86.0625,122.898,99.0066,93.2574,0.00394419,0.391002,20.6356,-296.327,0.536924,0.0,0.0
1920,479.75,80.7573,86.1352,124.135,98.9526,93.0445,0.00387915,0.391603,20.6354,-296.567,0.55254,0.0,0.0
1928,481.75,80.3861,86.1513,123.91,98.9155,94.2735,0.0039168,0.392549,20.6351,-296.797,0.431397,0.0,0.0
1936,483.75,80.6179,86.0103,128.719,98.8965,93.7238,0.00400902,0.391468,20.6362,-297.028,0.48217,0.0,0.0
1944,485.75,80.1975,86.1387,129.752,98.8514,94.3032,0.0040219,0.389251,20.639,-297.288,0.422761,0.0,0.0
1952,487.75,80.1636,86.1899,123.035,98.8305,93.6294,0.0040427,0.388869,20.6397,-297.518,0.485213,0.0,0.0
1960,489.75,80.4429,86.0819,123.201,98.797,93.1274,0.00400672,0.391054,20.6378,-297.738,0.53042,0.0,0.0
1968,491.75,80.4621,86.1701,126.772,98.7773,93.7022,0.00383048,0.391333,20.6372,-297.978,0.473405,0.0,0.0
1976,493.75,80.0876,86.249,131.137,98.7543,93.4563,0.00367539,0.391736,20.6376,-298.209,0.494902,0.0,0.0
1984,495.75,80.2528,86.2132,122.117,98.7329,94.1068,0.00355754,0.391104,20.6377,-298.459,0.430704,0.0,0.0
1992,497.75,80.375,85.7628,120.369,98.7204,94.3721,0.00349868,0.391931,20.6361,-298.679,0.404297,0.0,0.0
2000,499.75,80.4485,86.0052,126.009,98.7136,93.3209,0.00346404,0.392861,20.6344,-298.939,0.504216,0.0,0.0
2008,501.75,80.4146,86.1783,121.618,98.6995,93.6827,0.00341788,0.393647,20.6337,-299.2,0.4682,0.0,0.0
2016,503.75,80.3516,85.6644,124.588,98.7047,93.6924,0.00339412,0.395471,20.6325,-299.4,0.467743,0.0,0.0
2024,505.75,80.3725,86.0731,124.341,98.7035,94.4716,0.00347183,0.396016,20.6311,-299.68,0.393303,0.0,0.0
2032,507.75,80.2308,85.8768,124.073,98.6922,93.5621,0.00350884,0.394784,20.6315,-299.9,0.479104,0.0,0.0
2040,509.75,80.264,85.6137,121.16,98.693,94.0509,0.0035522,0.39399,20.6319,-300.11,0.432406,0.0,0.0
2048,511.75,80.5839,85.941,124.948,98.6983,94.4864,0.0036354,0.393863,20.6321,-300.351,0.39142,0.0,0.0
2056,513.75,80.6486,85.9897,125.522,98.6934,93.5177,0.00376737,0.393874,20.6326,-300.571,0.483476,0.0,0.0
2064,515.75,80.236,85.8835,125.152,98.7039,94.1364,0.00387215,0.393248,20.6329,-300.831,0.425242,0.0,0.0
2072,517.75,80.2945,85.8966,125.394,98.7091,93.8456,0.00382274,0.392409,20.6344,-301.021,0.453482,0.0,0.0
2080,519.75,80.4121,85.7823,127.29,98.7265,94.0606,0.00364173,0.390154,20.6363,-301.231,0.43452,0.0,0.0
2088,521.75,80.2968,86.3101,124.25,98.745,94.2325,0.0034527,0.389929,20.6364,-301.452,0.419824,0.0,0.0
2096,523.75,80.5381,85.857,125.488,98.7498,94.2443,0.00333343,0.391455,20.6356,-301.692,0.419134,0.0,0.0
2104,525.75,80.1224,86.2456,124.396,98.7619,94.6561,0.00333306,0.391234,20.635,-301.942,0.381101,0.0,0.0
2112,527.75,80.7564,85.7025,124.747,98.7841,93.5075,0.00329562,0.390412,20.6349,-302.132,0.492695,0.0,0.0
2120,529.75,80.1289,86.092,128.895,98.801,94.0175,0.003153,0.389156,20.6356,-302.392,0.445415,0.0,0.0
2128,531.75,80.8928,85.4044,128.629,98.8026,94.8643,0.00308377,0.386398,20.639,-302.643,0.365079,0.0,0.0
2136,533.75,79.6302,86.3861,127.593,98.8308,93.7927,0.00308668,0.383605,20.643,-302.863,0.469603,0.0,0.0
2144,535.75,79.5976,85.8764,129.342,98.8558,94.1724,0.0031603,0.382212,20.6456,-303.063,0.435618,0.0,0.0
2152,537.75,80.4733,85.8847,123.628,98.878,94.5833,0.00337653,0.382158,20.6457,-303.293,0.39855,0.0,0.0
2160,539.75,79.7013,86.0605,125.216,98.9102,94.5283,0.00351961,0.383825,20.6438,-303.573,0.406698,0.0,0.0
2168,541.75,79.8394,86.118,126.166,98.9389,94.5795,0.00346148,0.388638,20.6375,-303.774,0.404433,0.0,0.0
2176,543.75,80.4009,85.1456,124.425,98.9711,94.7954,0.00340221,0.391747,20.6331,-303.994,0.386898,0.0,0.0
2184,545.75,80.3881,85.3236,125.495,99.005,94.7763,0.00340824,0.393632,20.6303,-304.234,0.391771,0.0,0.0
2192,547.75,80.2537,86.0129,129.004,99.0263,94.4699,0.00343132,0.392601,20.6306,-304.464,0.422771,0.0,0.0
2200,549.75,80.4705,85.0229,126.76,99.0759,94.5639,0.00342569,0.391759,20.6319,-304.684,0.41834,0.0,0.0
2208,551.75,79.952,85.6418,126.097,99.0787,93.9895,0.00336477,0.391465,20.6332,-304.925,0.473271,0.0,0.0
2216,553.75,80.4269,85.6414,123.644,99.1198,93.6408,0.00335553,0.391177,20.6333,-305.105,0.510358,0.0,0.0
2224,555.75,80.5778,85.7249,127.316,99.1537,94.1191,0.00347877,0.392964,20.6313,-305.355,0.467701,0.0,0.0
2232,557.75,80.2789,85.7238,120.818,99.1899,93.4089,0.0035825,0.394378,20.6289,-305.555,0.538962,0.0,0.0
2240,559.75,80.4541,85.5894,128.437,99.2427,93.725,0.00355424,0.394149,20.6279,-305.816,0.513412,0.0,0.0
2248,561.75,80.3978,85.8972,123.759,99.2637,93.6281,0.00346913,0.394016,20.6275,-306.026,0.524594,0.0,0.0
2256,563.75,80.4117,85.9919,130.978,99.3012,93.9476,0.00335834,0.393821,20.6273,-306.236,0.497403,0.0,0.0
2264,565.75,80.0479,85.406,129.3,99.3439,93.5337,0.00327378,0.394711,20.6266,-306.466,0.540893,0.0,0.0
2272,567.75,80.5621,85.9427,125.896,99.3733,94.3878,0.00320665,0.39653,20.6244,-306.706,0.46197,0.0,0.0
2280,569.75,80.4777,85.9155,124.393,99.4031,94.6637,0.00313022,0.396449,20.6242,-306.927,0.438463,0.0,0.0
2288,571.75,80.456,85.9175,127.374,99.4386,94.059,0.00307474,0.394218,20.6267,-307.137,0.499188,0.0,0.0
2296,573.75,80.4072,86.2283,128.749,99.464,94.7289,0.00306263,0.39152,20.63,-307.387,0.437778,0.0,0.0
2304,575.75,80.4131,85.9742,123.061,99.5007,94.3421,0.00305402,0.389566,20.6322,-307.617,0.477812,0.0,0.0
2312,577.75,80.4546,85.9673,122.918,99.5321,94.1584,0.003124,0.389217,20.6333,-307.837,0.498138,0.0,0.0
2320,579.75,80.7187,86.1142,123.057,99.5563,93.8749,0.00321995,0.389764,20.6338,-308.058,0.527389,0.0,0.0
2328,581.75,80.4871,85.8647,128.234,99.5857,94.001,0.00314614,0.390178,20.6333,-308.248,0.51799,0.0,0.0
2336,583.75,80.2216,85.762,123.142,99.6119,93.8558,0.00313511,0.390096,20.6338,-308.458,0.534222,0.0,0.0
2344,585.75,80.6413,85.8517,126.699,99.6454,94.1876,0.00310643,0.389906,20.6349,-308.698,0.505561,0.0,0.0
2352,587.75,80.734,86.2,123.687,99.6671,94.4238,0.00300528,0.388939,20.6363,-308.908,0.485047,0.0,0.0
2360,589.75,80.2668,86.2405,120.429,99.6978,93.6387,0.00302164,0.386276,20.6391,-309.148,0.56274,0.0,0.0
2368,591.75,80.5831,85.3794,128.356,99.7135,94.1686,0.00321551,0.382597,20.6429,-309.329,0.51351,0.0,0.0
2376,593.75,80.6815,85.9638,126.212,99.7461,95.0387,0.00338487,0.378456,20.646,-309.549,0.433895,0.0,0.0
2384,595.75,80.7023,86.1962,123.184,99.7703,94.1821,0.00338196,0.378271,20.6474,-309.779,0.517333,0.0,0.0
2392,597.75,80.6463,86.0961,124.521,99.8013,94.1626,0.00332243,0.381487,20.6449,-309.979,0.521979,0.0,0.0
2400,599.75,80.4356,85.5153,122.493,99.8158,94.1038,0.0033488,0.383384,20.642,-310.189,0.528893,0.0,0.0
2408,601.75,80.5909,85.9202,120.214,99.8436,93.5879,0.00337711,0.381972,20.6419,-310.37,0.580733,0.0,0.0
2416,603.75,80.1717,85.5859,125.053,99.861,95.1263,0.00336759,0.379393,20.6446,-310.61,0.435955,0.0,0.0
2424,605.75,80.4359,85.7488,125.603,99.8783,93.9464,0.00329501,0.376053,20.6484,-310.84,0.549536,0.0,0.0
2432,607.75,80.195,84.5917,127.024,99.8888,94.1064,0.00318799,0.373032,20.652,-311.02,0.535208,0.0,0.0
2440,609.75,80.0943,85.432,123.585,99.9093,94.5499,0.00310213,0.370402,20.6552,-311.24,0.494852,0.0,0.0
2448,611.75,80.5772,85.1076,128.991,99.9335,93.808,0.00308559,0.367434,20.6593,-311.451,0.567728,0.0,0.0
2456,613.75,80.1518,85.4277,123.095,99.9287,94.2812,0.00309472,0.364445,20.6625,-311.631,0.522137,0.0,0.0
2464,615.75,80.4762,85.2664,126.525,99.9428,94.475,0.00315613,0.363181,20.6639,-311.801,0.50497,0.0,0.0
2472,617.75,80.5272,84.5613,125.568,99.9597,94.3252,0.00317996,0.362573,20.6644,-312.051,0.520735,0.0,0.0
2480,619.75,79.4321,85.2638,124.787,99.9637,94.1076,0.00319897,0.36111,20.6647,-312.241,0.541819,0.0,0.0
2488,621.75,79.7234,84.7493,127.749,99.9779,94.1127,0.00315717,0.360539,20.6654,-312.411,0.542602,0.0,0.0
2496,623.75,79.3163,85.0627,124.906,99.9686,94.6341,0.00306789,0.360137,20.6665,-312.632,0.492182,0.0,0.0
2504,625.75,79.743,85.0699,126.841,99.9883,94.3231,0.00301411,0.359004,20.6669,-312.802,0.523505,0.0,0.0
2512,627.75,79.7827,84.907,127.082,99.9714,94.045,0.00300488,0.357664,20.6683,-313.022,0.548482,0.0,0.0
2520,629.75,79.5726,84.6307,126.871,99.9674,94.1677,0.00306256,0.35546,20.6699,-313.172,0.536414,0.0,0.0
2528,631.75,79.3699,84.601,126.405,99.9646,94.2414,0.00316631,0.352776,20.6738,-313.332,0.529146,0.0,0.0
2536,633.75,79.3358,84.3261,129.451,99.9722,94.5499,0.00319765,0.35153,20.6753,-313.552,0.500497,0.0,0.0
2544,635.75,78.9549,83.9143,127.188,99.9714,95.5813,0.00325234,0.350909,20.6761,-313.743,0.40305,0.0,0.0
2552,637.75,79.3073,84.1875,126.423,99.9637,94.2079,0.00327454,0.349501,20.6764,-313.963,0.532258,0.0,0.0
2560,639.75,78.5928,83.7281,125.804,99.9549,94.1368,0.00317418,0.349187,20.6766,-314.133,0.538238,0.0,0.0
2568,641.75,79.121,84.4107,126.387,99.948,94.5905,0.00304606,0.350015,20.6762,-314.323,0.494471,0.0,0.0
2576,643.75,78.4544,83.6115,123.81,99.9323,94.1783,0.0029604,0.352192,20.6751,-314.453,0.532258,0.0,0.0
2584,645.75,78.5798,83.8161,124.618,99.9416,95.026,0.00287619,0.352615,20.6741,-314.643,0.452664,0.0,0.0
2592,647.75,79.0462,84.0055,128.294,99.9283,94.406,0.00293531,0.351565,20.6763,-314.884,0.510223,0.0,0.0
2600,649.75,78.9549,83.9566,125.373,99.917,94.7357,0.00315449,0.34998,20.6773,-315.054,0.47792,0.0,0.0
2608,651.75,78.6655,83.5335,126.694,99.8956,95.0899,0.0032808,0.349778,20.6769,-315.234,0.442504,0.0,0.0
2616,653.75,78.9561,84.0474,125.114,99.888,94.1525,0.0032383,0.35032,20.6762,-315.384,0.530736,0.0,0.0
2624,655.75,78.7807,83.8382,125.937,99.8694,94.7975,0.00318038,0.350844,20.6759,-315.614,0.467795,0.0,0.0
2632,657.75,78.6834,83.7319,128.232,99.8505,94.7928,0.00312697,0.35004,20.6757,-315.764,0.466534,0.0,0.0
2640,659.75,77.9616,83.1079,120.971,99.8408,94.8169,0.00304539,0.349142,20.6759,-315.945,0.46338,0.0,0.0
2648,661.75,78.7991,83.585,122.971,99.8243,94.3129,0.00297205,0.346136,20.6787,-316.145,0.509736,0.0,0.0
2656,663.75,78.6003,83.4315,127.105,99.7985,94.938,0.00287823,0.340843,20.6839,-316.285,0.448125,0.0,0.0
2664,665.75,78.1347,83.2312,128.346,99.7921,94.4513,0.00282387,0.335521,20.6893,-316.445,0.493676,0.0,0.0
2672,667.75,78.135,83.1698,125.459,99.7759,95.2084,0.00278832,0.330917,20.6955,-316.625,0.420565,0.0,0.0
2680,669.75,77.9589,82.756,131.199,99.7514,94.7408,0.00280341,0.323776,20.7046,-316.765,0.462548,0.0,0.0
2688,671.75,78.0007,82.7758,130.403,99.7256,95.2766,0.00283061,0.314475,20.7148,-316.885,0.409611,0.0,0.0
2696,673.75,77.8363,82.7888,131.367,99.703,95.1043,0.00276138,0.304685,20.7265,-317.026,0.42382,0.0,0.0
2704,675.75,77.5119,82.426,123.738,99.6804,95.1826,0.00259981,0.294079,20.74,-317.166,0.414402,0.0,0.0
2712,677.75,77.4789,82.3989,134.916,99.6558,95.1208,0.00243106,0.28216,20.7522,-317.306,0.418017,0.0,0.0
2720,679.75,76.8438,81.5609,128.768,99.6486,95.9889,0.00234352,0.272113,20.7653,-317.416,0.335832,0.0,0.0
2728,681.75,76.6809,81.4683,133.372,99.6038,96.0054,0.00230856,0.262678,20.776,-317.546,0.330257,0.0,0.0
2736,683.75,76.4699,81.1546,130.953,99.6026,95.9148,0.00225925,0.252963,20.7864,-317.616,0.33862,0.0,0.0
2744,685.75,76.3699,80.8418,132.35,99.5748,96.9813,0.00227199,0.243946,20.7959,-317.696,0.236866,0.0,0.0
2752,687.75,75.7848,80.4677,130.486,99.5627,96.3736,0.00235303,0.235463,20.8042,-317.806,0.292197,0.0,0.0
2760,689.75,75.1879,79.96,126.252,99.5523,97.1586,0.00248014,0.229184,20.8079,-317.866,0.218435,0.0,0.0
2768,691.75,74.7709,79.5356,130.028,99.5357,96.8036,0.00262182,0.225151,20.81,-317.946,0.249806,0.0,0.0
2776,693.75,74.8549,79.2705,131.432,99.5245,96.9314,0.00275,0.220403,20.8139,-318.007,0.236946,0.0,0.0
2784,695.75,75.1149,78.8515,132.742,99.5128,96.5534,0.00278849,0.214797,20.8196,-318.057,0.270955,0.0,0.0
2792,697.75,74.0653,78.4587,134.875,99.5007,96.6559,0.00278455,0.209691,20.8249,-318.157,0.260349,0.0,0.0
2800,699.75,73.4725,77.9084,132.914,99.4813,96.1184,0.00272229,0.205673,20.8285,-318.227,0.308654,0.0,0.0
2808,701.75,72.9907,76.7198,128.462,99.4668,96.6025,0.00265112,0.20127,20.8339,-318.287,0.262248,0.0,0.0
2816,703.75,72.6757,77.0191,135.274,99.4644,96.6686,0.00265112,0.197677,20.8381,-318.377,0.255897,0.0,0.0
2824,705.75,72.3295,76.3357,129.949,99.4511,96.6673,0.0026421,0.195198,20.8405,-318.397,0.254816,0.0,0.0
2832,707.75,72.3988,76.3024,133.604,99.433,96.3186,0.00256185,0.193184,20.842,-318.457,0.285616,0.0,0.0
2840,709.75,71.4676,75.4357,132.349,99.4185,96.4413,0.0024954,0.191489,20.8435,-318.487,0.272877,0.0,0.0
2848,711.75,71.227,75.4914,133.465,99.4052,96.2771,0.00250735,0.188545,20.847,-318.607,0.286972,0.0,0.0
2856,713.75,70.9601,74.9825,133.216,99.3951,96.0896,0.0026357,0.184313,20.8521,-318.647,0.303556,0.0,0.0
2864,715.75,70.6055,74.6368,133.466,99.3834,96.3219,0.00277887,0.179713,20.8587,-318.707,0.280825,0.0,0.0
2872,717.75,70.4842,74.2413,132.276,99.3814,96.3676,0.00290545,0.175672,20.8647,-318.747,0.276384,0.0,0.0
2880,719.75,69.7522,73.64,131.956,99.3737,96.3367,0.00299288,0.171886,20.8701,-318.787,0.278571,0.0,0.0
2888,721.75,70.0195,73.6331,133.043,99.3532,96.3122,0.00295414,0.168757,20.8752,-318.817,0.279001,0.0,0.0
2896,723.75,69.4298,72.7355,134.433,99.3592,96.0824,0.00286007,0.166362,20.8791,-318.887,0.30099,0.0,0.0
2904,725.75,69.4263,72.6704,136.373,99.3552,96.3588,0.00285153,0.165144,20.8807,-318.957,0.274846,0.0,0.0
2912,727.75,69.1842,72.5576,135.345,99.3693,95.9296,0.00293745,0.164046,20.8831,-318.967,0.316183,0.0,0.0
2920,729.75,67.6869,72.0566,133.934,99.3935,95.9939,0.00306686,0.162388,20.8862,-318.987,0.31235,0.0,0.0
2928,731.75,67.4221,71.1144,137.339,99.4185,96.0143,0.00311852,0.160793,20.8904,-319.037,0.312706,0.0,0.0
2936,733.75,67.9849,71.4027,132.279,99.4551,95.6803,0.00310052,0.159241,20.8925,-319.087,0.347285,0.0,0.0
2944,735.75,67.2761,70.3862,134.283,99.487,96.0752,0.00308555,0.157249,20.8932,-319.128,0.313194,0.0,0.0
2952,737.75,66.9651,70.4596,130.847,99.5357,95.8386,0.00309591,0.156179,20.8944,-319.168,0.33972,0.0,0.0
2960,739.75,67.0152,70.1034,134.299,99.5692,96.4176,0.00310893,0.155427,20.8952,-319.218,0.28868,0.0,0.0
2968,741.75,66.3591,69.7396,135.041,99.6337,96.057,0.00316374,0.154335,20.8975,-319.258,0.328119,0.0,0.0
2976,743.75,65.6252,69.0018,129.672,99.6881,96.371,0.00331617,0.153206,20.8993,-319.308,0.303726,0.0,0.0
2984,745.75,65.7904,68.9746,135.994,99.7413,96.1061,0.00341342,0.152725,20.9001,-319.338,0.333222,0.0,0.0
2992,747.75,65.0871,68.5636,136.791,99.7767,96.4315,0.00328633,0.15223,20.9004,-319.378,0.306069,0.0,0.0
3000,749.75,65.66,68.5245,133.589,99.8408,96.6072,0.00330381,0.152719,20.9005,-319.418,0.295499,0.0,0.0
3008,751.75,64.8599,67.5178,132.449,99.8843,96.3731,0.00344153,0.153508,20.8995,-319.428,0.321181,0.0,0.0
3016,753.75,64.4649,67.641,135.255,99.915,96.5881,0.00352276,0.154078,20.8988,-319.488,0.303933,0.0,0.0
3024,755.75,64.4869,66.5522,133.579,99.9557,96.5763,0.00353332,0.154475,20.8985,-319.528,0.308689,0.0,0.0
3032,757.75,63.934,67.0195,130.392,99.9891,96.1979,0.00354897,0.15489,20.8982,-319.548,0.346925,0.0,0.0
3040,759.75,63.9012,66.611,132.42,100.035,97.0109,0.00358617,0.155502,20.8961,-319.598,0.275514,0.0,0.0
3048,761.75,63.6035,66.9078,135.152,100.067,96.5801,0.00364422,0.156556,20.8949,-319.618,0.318281,0.0,0.0
3056,763.75,63.5359,66.4779,134.682,100.099,96.7447,0.00376649,0.156518,20.8951,-319.658,0.305887,0.0,0.0
3064,765.75,63.1993,65.591,134.958,100.11,96.928,0.0038929,0.155645,20.8962,-319.708,0.289878,0.0,0.0
3072,767.75,63.3539,66.3268,133.808,100.129,96.724,0.00400821,0.154626,20.8976,-319.738,0.310521,0.0,0.0
3080,769.75,62.9821,65.6794,132.538,100.148,96.7113,0.00409414,0.153619,20.8994,-319.768,0.313361,0.0,0.0
3088,771.75,62.923,65.5909,132.355,100.176,96.9661,0.0042071,0.152474,20.9008,-319.818,0.292276,0.0,0.0
3096,773.75,62.666,65.1492,131.224,100.181,96.6575,0.00427671,0.151802,20.9022,-319.838,0.321384,0.0,0.0
3104,775.75,62.536,64.9473,136.85,100.205,96.5086,0.00428203,0.151372,20.9029,-319.918,0.337322,0.0,0.0
3112,777.75,61.9673,65.0896,133.356,100.216,96.4108,0.00425859,0.150583,20.9055,-319.898,0.347465,0.0,0.0
3120,779.75,62.147,64.9578,135.249,100.22,97.044,0.00423962,0.150127,20.9072,-319.938,0.289042,0.0,0.0
3128,781.75,61.9503,64.5103,134.904,100.223,96.6965,0.00424193,0.150128,20.9068,-319.978,0.321523,0.0,0.0
3136,783.75,61.8694,64.177,130.722,100.227,96.7062,0.00440088,0.150377,20.9066,-319.988,0.320945,0.0,0.0
3144,785.75,61.5271,64.0053,133.175,100.228,96.5678,0.00463767,0.150667,20.9065,-320.038,0.333906,0.0,0.0
3152,787.75,61.2731,63.7485,134.8,100.222,97.033,0.00481148,0.150441,20.9074,-320.068,0.290275,0.0,0.0
3160,789.75,61.13,64.1547,131.073,100.224,96.0405,0.00489631,0.150118,20.9095,-320.108,0.382656,0.0,0.0
3168,791.75,61.4421,64.0128,136.526,100.214,96.5886,0.00491341,0.150266,20.9104,-320.138,0.330752,0.0,0.0
3176,793.75,61.1397,63.2172,135.422,100.209,96.4599,0.00493773,0.150458,20.9108,-320.198,0.342209,0.0,0.0
3184,795.75,60.6317,63.1003,135.233,100.205,96.4866,0.0050153,0.150701,20.911,-320.228,0.339405,0.0,0.0
3192,797.75,60.5895,63.4796,136.644,100.182,96.771,0.00513247,0.150969,20.9111,-320.259,0.310894,0.0,0.0
3200,799.75,60.7265,62.8072,138.977,100.181,96.1814,0.00521968,0.150522,20.9123,-320.309,0.365668,0.0,0.0
3208,801.75,60.2522,62.586,134.077,100.168,96.3444,0.005256,0.150129,20.9132,-320.349,0.349357,0.0,0.0
3216,803.75,60.9084,63.0198,136.071,100.152,96.2496,0.00532647,0.150142,20.9143,-320.389,0.356748,0.0,0.0
3224,805.75,60.3467,62.2411,135.311,100.144,96.2009,0.00543744,0.150327,20.9166,-320.399,0.36053,0.0,0.0
3232,807.75,59.1548,61.7213,138.537,100.142,96.1662,0.00550373,0.150172,20.9183,-320.429,0.363623,0.0,0.0
3240,809.75,59.7716,62.2908,135.194,100.131,96.5848,0.00555275,0.149772,20.9185,-320.439,0.323631,0.0,0.0
3248,811.75,59.2926,61.9559,133.116,100.108,96.2288,0.00561969,0.149521,20.9186,-320.419,0.354707,0.0,0.0
3256,813.75,59.6373,61.6292,134.434,100.105,96.3469,0.00566931,0.14986,20.9182,-320.519,0.343413,0.0,0.0
3264,815.75,59.2672,60.7094,136.961,100.11,96.1188,0.00573371,0.150419,20.9171,-320.579,0.365122,0.0,0.0
3272,817.75,58.9116,61.3581,135.97,100.065,96.2682,0.00585766,0.15119,20.9166,-320.609,0.347171,0.0,0.0
3280,819.75,59.2785,60.8456,133.849,100.046,96.1802,0.00605379,0.15136,20.9164,-320.619,0.353646,0.0,0.0
3288,821.75,59.0648,61.0762,135.768,100.032,96.1378,0.00618708,0.151762,20.9168,-320.629,0.356403,0.0,0.0
3296,823.75,58.6334,61.3536,137.541,100.027,96.1573,0.00617704,0.152163,20.9179,-320.669,0.35408,0.0,0.0
3304,825.75,58.745,60.8522,136.324,100.007,96.0092,0.00616099,0.152256,20.9183,-320.689,0.366181,0.0,0.0
3312,827.75,58.7929,60.8383,131.712,99.992,96.2106,0.00623382,0.151545,20.9185,-320.719,0.345994,0.0,0.0
3320,829.75,58.2989,60.9871,131.68,99.9561,96.5716,0.00635363,0.150928,20.9198,-320.779,0.309158,0.0,0.0
3328,831.75,58.8395,60.7585,132.903,99.9283,96.2542,0.00645823,0.15092,20.9206,-320.779,0.33621,0.0,0.0
3336,833.75,58.0094,60.6862,139.337,99.8956,96.7917,0.00657149,0.151155,20.921,-320.819,0.283299,0.0,0.0
3344,835.75,58.461,60.2406,130.98,99.8747,96.0278,0.00667772,0.15107,20.9211,-320.869,0.352533,0.0,0.0
3352,837.75,57.9728,60.0336,138.268,99.8453,95.9076,0.00679832,0.150928,20.9212,-320.879,0.361129,0.0,0.0
3360,839.75,57.8927,60.3021,135.164,99.8054,95.9042,0.00696158,0.15107,20.9218,-320.899,0.357859,0.0,0.0
3368,841.75,58.0328,60.0466,137.07,99.7731,95.8255,0.00710664,0.150955,20.9226,-320.959,0.362329,0.0,0.0
3376,843.75,58.4548,60.1358,137.105,99.7546,95.9296,0.00715137,0.151321,20.9237,-320.999,0.350916,0.0,0.0
3384,845.75,57.8598,60.1457,134.765,99.7429,96.2978,0.00716005,0.151581,20.9241,-320.989,0.315479,0.0,0.0
3392,847.75,57.8504,59.676,137.313,99.7522,95.9271,0.00723306,0.151427,20.9243,-321.049,0.350935,0.0,0.0
3400,849.75,57.9524,59.6221,135.316,99.7606,96.0159,0.00737343,0.151038,20.9244,-321.069,0.343384,0.0,0.0
3408,851.75,57.4983,59.5551,139.535,99.7659,95.9808,0.00762987,0.151914,20.9227,-321.099,0.347141,0.0,0.0
3416,853.75,57.7011,59.6533,137.141,99.7651,96.0088,0.00788309,0.152799,20.9208,-321.119,0.344456,0.0,0.0
3424,855.75,57.887,59.5391,133.753,99.7824,95.7811,0.00792703,0.15341,20.9201,-321.159,0.367326,0.0,0.0
3432,857.75,57.5196,59.7485,137.335,99.7848,95.9186,0.00781735,0.153075,20.9207,-321.169,0.354664,0.0,0.0
3440,859.75,57.5565,59.378,135.266,99.8013,95.9068,0.00774159,0.152634,20.921,-321.209,0.357259,0.0,0.0
3448,861.75,57.2608,59.3163,131.646,99.8158,96.2889,,0.152169,,-321.269,0.322869,0.0,0.0
3456,863.75,57.4373,59.4604,136.972,99.8223,95.6837,,,,-321.299,0.38004,0.0,0.0
3464,865.75,57.5115,59.336,136.236,99.8376,96.0181,,,,-321.339,0.35011,0.0,0.0
3472,867.75,57.2016,58.8939,139.345,99.8493,96.1091,,,,-321.37,0.342659,0.0,0.0
3480,869.75,57.0072,59.1174,133.465,99.8569,95.9905,,,,-321.38,0.35442,0.0,0.0
3486,871.25,56.7929,59.174,135.033,99.8807,95.9986,,,,-321.41,0.355806,0.0,0.0