File: 01_Data/Engineered_Wood_Furniture/Cone/Engineered_Wood_Furniture_Cone_HF75Scan_220330_R1.csv
Names,Time,Stack TC,Smoke TC,Exh Press,Smoke Comp,Smoke Meas,CO Meter,CO2 Meter,O2 Meter,Sample Mass,Ext Coeff,Start Test,Flame Verif
Chan Gain,,500,500,1,1,1,1,1,1,1,1,1.0,1.0
Offset,,0,0,0.135377,0,0,0,0,0,0,0,0.0,0.0
Gain,,1,1,25.011,13.2062,13.8682,1,1,1,1.0009,1.02317,1.0,1.0
Units,sec,C,C,Pa,%,%,%,%,%,g,/m,,
Baseline,,33.5661,35.8157,146.206,100.004,95.6721,0.000815929,0.0430681,21.0688,-835.568,0.397529,,
9,2,33.3523,35.0326,142.17,99.3544,94.996,0.000752121,0.0490976,21.0631,-232.98,0.402615,0.0,0.0
18,4.25,33.3953,35.303,141.468,99.2548,94.144,0.000833489,0.0480214,21.0638,-233.08,0.474472,0.0,0.0
27,6.5,33.4464,35.8461,144.35,99.1513,91.8066,0.00130437,0.0474791,21.0616,-233.16,0.690756,0.0,0.0
36,8.75,33.6734,36.0127,142.44,99.042,92.033,0.00215106,0.0542126,21.0468,-233.26,0.658756,0.0,0.0
45,11,33.8133,36.3183,136.528,98.9514,94.9922,0.00313034,0.0869426,20.9974,-233.41,0.366493,0.0,1.0
54,13.25,35.2511,37.4064,129.719,98.8534,91.4701,0.00521159,0.214439,20.7935,-233.811,0.69671,0.0,1.0
63,15.5,37.218,38.9962,108.271,98.776,83.1791,0.00840331,0.510096,20.4621,-234.471,1.54246,0.0,1.0
72,17.75,42.3896,44.2698,106.244,98.7095,89.4263,0.0103795,0.858266,20.0958,-235.322,0.886447,0.0,0.0
81,20,47.1589,50.1634,117.79,98.6491,93.4229,0.0100045,0.985043,19.9438,-235.802,0.488548,0.0,0.0
90,22.25,49.6992,53.4158,115.986,98.5725,92.6594,0.00888818,0.910326,20.0348,-236.273,0.555229,0.0,0.0
99,24.5,52.2539,56.1093,119.128,98.5173,91.6813,0.00827079,0.829601,20.0968,-236.713,0.645442,0.0,0.0
108,26.75,54.3885,58.6472,115.907,98.479,89.9647,0.00827951,0.820641,20.0934,-237.284,0.811594,0.0,0.0
117,29,56.9759,61.0196,112.259,98.4427,89.0734,0.00844855,0.871879,20.0314,-237.884,0.897651,0.0,0.0
126,31.25,59.1505,64.85,110.407,98.4004,87.9963,0.00880963,0.930696,19.9709,-238.505,1.00299,0.0,0.0
135,33.5,62.4774,67.8987,108.356,98.3891,86.1121,0.00939385,0.97231,19.9249,-239.115,1.19622,0.0,0.0
144,35.75,65.4921,71.5583,108.812,98.3758,84.9131,0.00979898,0.989479,19.9067,-239.726,1.32085,0.0,0.0
153,38,68.214,74.268,115.074,98.3686,84.4547,0.0100032,0.985291,19.9101,-240.316,1.36877,0.0,0.0
162,40.25,70.4697,76.6639,110.79,98.369,85.3934,0.0100044,0.967046,19.9254,-240.907,1.2696,0.0,0.0
171,42.5,71.6994,78.7956,118.439,98.3859,86.672,0.00981849,0.939648,19.9628,-241.428,1.13776,0.0,0.0
180,44.75,73.4908,80.6022,118.079,98.3996,86.876,0.00955997,0.903035,20.0049,-241.978,1.11791,0.0,0.0
189,47,74.8196,83.0237,114.717,98.4125,86.523,0.00930177,0.868528,20.0551,-242.518,1.15562,0.0,0.0
198,49.25,76.1369,83.9784,114.991,98.4464,88.3649,0.00912208,0.826348,20.1078,-243.059,0.969654,0.0,0.0
207,51.5,77.5149,85.4094,115.192,98.498,89.6413,0.00889506,0.789564,20.1462,-243.519,0.845635,0.0,0.0
216,53.75,77.9166,86.4903,121.091,98.5254,88.5164,0.00841201,0.759812,20.184,-244.02,0.961477,0.0,0.0
225,56,78.2337,86.9599,118.322,98.5733,89.4221,0.00797386,0.728061,20.2269,-244.46,0.874477,0.0,0.0
234,58.25,79.7039,87.9971,123.022,98.6338,89.6413,0.0076921,0.699487,20.2583,-244.901,0.858003,0.0,0.0
243,60.5,79.2207,87.8356,122.641,98.685,90.2622,0.00737789,0.670715,20.2914,-245.291,0.80071,0.0,0.0
252,62.75,80.0577,88.7896,124.423,98.7559,89.8149,0.00709214,0.644282,20.3199,-245.761,0.851752,0.0,0.0
261,65,80.3801,88.8819,120.072,98.8224,90.5813,0.00683509,0.623286,20.3441,-246.172,0.781526,0.0,0.0
270,67.25,80.505,89.1445,124.089,98.8933,91.3304,0.00651141,0.605079,20.3664,-246.572,0.714046,0.0,0.0
279,69.5,80.8832,89.4639,123.661,98.9453,92.7444,0.00613066,0.586694,20.3926,-246.962,0.580872,0.0,0.0
288,71.75,81.022,89.8545,125.372,99.0126,92.6636,0.00588029,0.569387,20.4121,-247.353,0.594801,0.0,0.0
297,74,80.7197,89.4706,123.664,99.0827,92.6255,0.00582623,0.556007,20.4269,-247.733,0.604846,0.0,0.0
306,76.25,80.8141,89.6549,122.009,99.1468,92.402,0.00579487,0.544361,20.4439,-248.124,0.632328,0.0,0.0
315,78.5,81.2766,89.8361,125.585,99.2036,92.3208,0.00563191,0.532826,20.4572,-248.444,0.645367,0.0,0.0
324,80.75,80.7702,89.7506,126.717,99.2633,93.7741,0.0053579,0.523625,20.4684,-248.874,0.510571,0.0,0.0
333,83,80.8112,89.727,119.567,99.3395,93.6264,0.00521633,0.515949,20.4775,-249.184,0.531604,0.0,0.0
342,85.25,80.9829,89.2403,123.86,99.4015,92.7063,0.00514205,0.509482,20.4844,-249.545,0.625847,0.0,0.0
351,87.5,80.3904,89.3582,123.827,99.4406,93.119,0.00504992,0.503986,20.4904,-249.935,0.589516,0.0,0.0
360,89.75,80.3268,89.2886,118.192,99.5051,93.2582,0.00495606,0.500057,20.4966,-250.305,0.581923,0.0,0.0
369,92,80.207,88.7634,125.113,99.551,93.5155,0.00500374,0.495397,20.5033,-250.646,0.561336,0.0,0.0
378,94.25,79.9061,89.2712,125.812,99.5938,93.2062,0.0052118,0.490612,20.51,-251.016,0.594929,0.0,0.0
387,96.5,80.1618,89.0761,122.898,99.6317,93.48,0.00517879,0.487383,20.514,-251.316,0.572013,0.0,0.0
396,98.75,80.3532,88.9107,126.198,99.6792,93.979,0.00493986,0.483666,20.5187,-251.707,0.528515,0.0,0.0
405,101,80.2531,89.1118,125.407,99.701,93.6163,0.00477314,0.479966,20.5261,-252.047,0.56518,0.0,0.0
414,103.25,80.0005,88.6139,123.573,99.7147,93.7183,0.00477395,0.475634,20.5317,-252.407,0.55664,0.0,0.0
423,105.5,79.8722,88.7962,126.391,99.7368,94.086,0.00482725,0.469238,20.5404,-252.728,0.523482,0.0,0.0
432,107.75,79.9939,88.877,133.242,99.7481,93.2773,0.00489514,0.46267,20.5478,-253.098,0.601984,0.0,0.0
441,110,79.42,88.2299,123.927,99.7522,93.8253,0.00487792,0.460026,20.5505,-253.428,0.549765,0.0,0.0
450,112.25,79.1364,88.1574,123.371,99.734,93.9595,0.00473933,0.460191,20.5498,-253.789,0.535309,0.0,0.0
459,114.5,79.3469,88.1229,125.957,99.7348,93.356,0.00462811,0.460656,20.5487,-254.119,0.593215,0.0,0.0
468,116.75,78.8286,87.8887,127.258,99.7062,93.9324,0.00457044,0.45909,20.551,-254.469,0.535393,0.0,0.0
477,119,78.9129,87.8086,128.98,99.6929,93.3699,0.00449497,0.454256,20.5584,-254.84,0.5881,0.0,0.0
486,121.25,78.0847,86.8966,130.288,99.6768,93.7056,0.00453851,0.448769,20.5634,-255.15,0.554446,0.0,0.0
495,123.5,78.7853,87.4471,129.468,99.6712,93.1249,0.00469509,0.445678,20.5669,-255.5,0.609727,0.0,0.0
504,125.75,78.8336,87.253,123.073,99.6421,93.819,0.00468825,0.442851,20.5714,-255.82,0.540468,0.0,0.0
513,128,78.4517,86.963,124.077,99.6184,93.7614,0.00451246,0.439142,20.5751,-256.171,0.543833,0.0,0.0
522,130.25,77.7655,86.5407,124.35,99.5978,94.5296,0.00435539,0.435874,20.5795,-256.501,0.468751,0.0,0.0
531,132.5,78.3475,86.9703,126.173,99.5869,93.4618,0.00422881,0.433757,20.5827,-256.811,0.56973,0.0,0.0
540,134.75,78.2752,86.5218,129.716,99.5539,94.0365,0.00406621,0.430454,20.5861,-257.152,0.511727,0.0,0.0
549,137,77.7575,86.4499,125.037,99.5196,94.6358,0.00396097,0.427591,20.5892,-257.462,0.451621,0.0,0.0
558,139.25,77.8695,86.1581,133.897,99.5063,93.4868,0.00390597,0.424002,20.5956,-257.792,0.560065,0.0,0.0
567,141.5,77.6654,86.2372,125.419,99.4672,94.2151,0.00391123,0.419042,20.6034,-258.143,0.486882,0.0,0.0
576,143.75,76.8484,85.5277,127.831,99.443,94.6646,0.0039377,0.41353,20.6103,-258.463,0.441984,0.0,0.0
585,146,77.2662,85.4761,124.347,99.4173,94.9363,0.00382251,0.410434,20.6134,-258.773,0.413931,0.0,0.0
594,148.25,77.6236,86.0175,127.555,99.4116,94.3798,0.00368106,0.408196,20.6156,-259.083,0.466192,0.0,0.0
603,150.5,77.0073,85.1199,131.682,99.3778,94.1191,0.00357106,0.405833,20.6179,-259.394,0.487961,0.0,0.0
612,152.75,77.0855,85.0704,129.803,99.3725,94.7103,0.00351838,0.403752,20.6213,-259.704,0.431283,0.0,0.0
621,155,76.5581,84.6378,130.907,99.4995,94.53,0.00356353,0.400984,20.6238,-260.024,0.459844,0.0,0.0
630,157.25,76.7734,84.6977,131.459,99.6042,95.5013,0.00362483,0.398932,20.6263,-260.315,0.377541,0.0,0.0
639,159.5,76.3997,84.6363,127.083,99.7268,94.4229,0.00350101,0.397355,20.6282,-260.655,0.490496,0.0,0.0
648,161.75,76.0381,84.1216,127.855,99.8392,94.9122,0.00336416,0.396177,20.6296,-260.945,0.454226,0.0,0.0
657,164,75.9389,83.9372,126.633,99.9371,95.3807,0.0033489,0.393996,20.6323,-261.265,0.418831,0.0,0.0
666,166.25,75.8134,84.1095,124.418,100.002,95.4721,0.00337114,0.392191,20.6349,-261.586,0.416058,0.0,0.0
675,168.5,75.2543,83.3417,126.832,100.06,94.3882,0.00340476,0.390314,20.6389,-261.896,0.523778,0.0,0.0
684,170.75,75.6626,83.5006,126.624,100.131,95.1157,0.00343615,0.387314,20.6418,-262.176,0.461225,0.0,0.0
693,173,75.4852,83.3039,129.677,100.175,95.3265,0.00340585,0.38648,20.6429,-262.506,0.445259,0.0,0.0
702,175.25,75.2975,83.2716,127.045,100.202,95.1598,0.00323162,0.386111,20.6433,-262.807,0.463357,0.0,0.0
711,177.5,75.535,83.2247,126.76,100.2,95.732,0.00305738,0.385072,20.6439,-263.097,0.409442,0.0,0.0
720,179.75,75.3236,82.8824,129.751,100.222,96.0388,0.00318196,0.382403,20.6468,-263.417,0.382705,0.0,0.0
729,182,75.0422,82.7974,128.497,100.206,94.8982,0.00335145,0.380065,20.649,-263.698,0.48842,0.0,0.0
738,184.25,74.9472,82.8021,130.67,100.17,95.6841,0.00339601,0.37719,20.6536,-263.988,0.411218,0.0,0.0
747,186.5,74.9097,82.5518,123.836,100.147,95.8619,0.00340808,0.375149,20.6568,-264.268,0.392501,0.0,0.0
756,188.75,74.7658,82.1627,126.112,100.085,96.0964,0.00340635,0.373102,20.659,-264.578,0.364976,0.0,0.0
765,191,74.487,82.1229,127.979,100.014,95.4124,0.00338502,0.371313,20.6602,-264.879,0.422754,0.0,0.0
774,193.25,73.9821,81.6956,128.512,99.9101,95.6465,0.00331357,0.369884,20.6613,-265.159,0.39143,0.0,0.0
783,195.5,74.2816,81.7354,127.797,99.807,95.1636,0.00333644,0.369714,20.6628,-265.459,0.427585,0.0,0.0
792,197.75,74.1648,81.8256,127.519,99.6643,95.8594,0.0033898,0.368669,20.6637,-265.749,0.349364,0.0,0.0
801,200,74.6276,81.6296,128.055,99.6707,95.39,0.00326405,0.367818,20.6641,-266.04,0.393998,0.0,0.0
810,202.25,74.3262,81.5716,126.455,99.7207,96.2661,0.00309159,0.366935,20.6649,-266.31,0.316444,0.0,0.0
819,204.5,74.0033,81.2735,127.539,99.7602,95.8018,0.00298649,0.364611,20.6673,-266.6,0.363389,0.0,0.0
828,206.75,73.9847,81.0083,128.561,99.811,95.8767,0.00294348,0.363389,20.6698,-266.9,0.360941,0.0,0.0
837,209,73.9121,81.1309,127.897,99.8751,95.9905,0.00285019,0.363029,20.6709,-267.191,0.35605,0.0,0.0
846,211.25,73.662,80.8396,128.532,99.9492,96.1213,0.00272337,0.362061,20.6719,-267.481,0.350493,0.0,0.0
855,213.5,73.7428,81.2975,125.338,100.008,95.7366,0.00270999,0.361035,20.6732,-267.751,0.391732,0.0,0.0
864,215.75,73.5918,80.7018,123.764,100.067,95.6422,0.00280287,0.359805,20.6736,-268.051,0.405936,0.0,0.0
873,218,73.7515,80.7926,126.846,100.153,96.8031,0.00281663,0.35982,20.6738,-268.352,0.305311,0.0,0.0
882,220.25,73.6357,80.5638,128.619,100.222,96.6961,0.00274687,0.359542,20.6739,-268.602,0.321489,0.0,0.0
891,222.5,73.7463,80.7683,128.268,100.276,96.9999,0.00271663,0.357858,20.6766,-268.872,0.298165,0.0,0.0
900,224.75,73.4923,80.3265,127.865,100.324,96.7744,0.00277929,0.356449,20.678,-269.163,0.323316,0.0,0.0
909,227,73.6133,80.3448,131.078,100.383,96.4874,0.00285526,0.355258,20.6798,-269.423,0.355268,0.0,0.0
918,229.25,73.0671,80.1167,126.337,100.411,96.6673,0.0027372,0.353838,20.6817,-269.723,0.341037,0.0,0.0
927,231.5,73.5255,80.1308,125.77,100.433,96.975,0.00250193,0.353681,20.6825,-270.013,0.314496,0.0,0.0
936,233.75,73.2643,80.0528,128.764,100.441,96.2377,0.0023913,0.353799,20.6828,-270.284,0.383712,0.0,0.0
945,236,72.9699,79.6558,126.498,100.455,97.2331,0.00240766,0.353201,20.6838,-270.564,0.292544,0.0,0.0
954,238.25,73.1897,80.3172,130.254,100.436,96.6394,0.00240792,0.352253,20.6847,-270.834,0.345828,0.0,0.0
963,240.5,72.99,79.3973,126.64,100.401,96.589,0.00251868,0.352362,20.6851,-271.094,0.347409,0.0,0.0
972,242.75,73.105,79.8084,127.91,100.371,96.3825,0.00277005,0.353099,20.685,-271.405,0.363955,0.0,0.0
981,245,73.1922,79.6375,133.309,100.32,96.6351,0.0028792,0.353354,20.6837,-271.695,0.335915,0.0,0.0
990,247.25,73.2825,79.7851,127.904,100.252,96.145,0.00280014,0.353778,20.6832,-271.935,0.375382,0.0,0.0
999,249.5,73.4496,79.7997,125.536,100.169,96.5839,0.00279091,0.354132,20.6831,-272.235,0.327105,0.0,0.0
1008,251.75,73.1418,79.5915,128.907,100.097,96.0858,0.00292003,0.353542,20.683,-272.505,0.367085,0.0,0.0
1017,254,72.8908,79.3727,125.871,99.9706,96.55,0.00300112,0.352672,20.6841,-272.786,0.312468,0.0,0.0
1026,256.25,73.4275,79.8494,127.011,99.8606,95.9059,0.0030342,0.352533,20.6835,-273.066,0.362664,0.0,0.0
1035,258.5,72.852,79.1505,126.316,99.7409,95.9512,0.00295436,0.354434,20.6817,-273.346,0.347663,0.0,0.0
1044,260.75,73.128,79.7463,122.663,99.6284,96.3003,0.00280869,0.355246,20.681,-273.627,0.304939,0.0,0.0
1053,263,72.7838,79.5825,128.52,99.495,95.8471,0.0025965,0.356073,20.6808,-273.867,0.335258,0.0,0.0
1062,265.25,73.1299,79.6367,125.834,99.3584,95.5999,0.00243582,0.35605,20.6807,-274.177,0.346098,0.0,0.0
1071,267.5,72.6132,78.8223,129.781,99.2403,95.1069,0.0024637,0.355582,20.6813,-274.447,0.381834,0.0,0.0
1080,269.75,72.8915,79.2003,126.259,99.0973,95.5326,0.00258725,0.354757,20.6823,-274.707,0.328797,0.0,0.0
1089,272,73.2464,79.2443,128.217,98.9755,95.6033,0.00268059,0.354634,20.6832,-275.008,0.311128,0.0,0.0
1098,274.25,72.9932,79.1818,124.685,98.8639,95.0353,0.00272481,0.356498,20.681,-275.258,0.354479,0.0,0.0
1107,276.5,72.8839,79.1384,131.88,98.7773,94.5469,0.00281326,0.356995,20.6811,-275.558,0.392853,0.0,0.0
1116,278.75,73.1691,79.1025,128.013,98.6572,95.4776,0.00289446,0.35731,20.6811,-275.839,0.294019,0.0,0.0
1125,281,72.5878,79.181,129.664,98.5822,95.0142,0.00286954,0.359539,20.6777,-276.119,0.330867,0.0,0.0
1134,283.25,72.934,79.1328,131.004,98.5213,94.0264,0.00284916,0.360865,20.676,-276.399,0.419122,0.0,0.0
1143,285.5,72.7616,78.8136,127.168,98.4685,94.8356,0.00284985,0.361608,20.6753,-276.649,0.3374,0.0,0.0
1152,287.75,73.1098,79.1957,130.965,98.4379,94.0979,0.0026167,0.361753,20.6742,-276.95,0.404694,0.0,0.0
1161,290,73.1276,79.347,125.321,98.4182,94.3958,0.00247226,0.362778,20.6731,-277.23,0.37452,0.0,0.0
1170,292.25,73.1285,79.3537,126.852,98.4194,94.7192,0.00254895,0.363548,20.6727,-277.48,0.343939,0.0,0.0
1179,294.5,73.3661,79.3538,128.806,98.4242,93.5972,0.0026868,0.364024,20.6729,-277.79,0.451327,0.0,0.0
1188,296.75,73.1256,79.1528,125.034,98.444,94.194,0.0027939,0.36404,20.6728,-278.04,0.396088,0.0,0.0
1197,299,73.1551,79.3026,126.875,98.4923,94.1728,0.00292088,0.365745,20.672,-278.321,0.402512,0.0,0.0
1206,301.25,73.5152,79.5191,128.645,98.5423,94.4555,0.00308363,0.367056,20.6703,-278.591,0.380161,0.0,0.0
1215,303.5,73.6517,79.6996,123.946,98.6116,93.9764,0.00318966,0.367766,20.6696,-278.891,0.432111,0.0,0.0
1224,305.75,72.9862,78.7949,126.013,98.6829,94.6286,0.00329949,0.368738,20.6678,-279.161,0.37653,0.0,0.0
1233,308,73.6318,79.6474,125.031,98.7789,94.4652,0.00326784,0.370547,20.6651,-279.452,0.400757,0.0,0.0
1242,310.25,73.4877,79.5033,127.253,98.8566,94.5664,0.0030913,0.373174,20.6619,-279.712,0.398217,0.0,0.0
1251,312.5,73.7579,79.4479,126.472,98.953,94.6265,0.00317953,0.374817,20.6605,-279.992,0.401254,0.0,0.0
1260,314.75,73.6848,79.523,126.625,99.0465,95.2118,0.00330645,0.376457,20.66,-280.272,0.354387,0.0,0.0
1269,317,73.3671,79.4326,126.787,99.1553,94.1495,0.00331574,0.377055,20.6595,-280.583,0.464941,0.0,0.0
1278,319.25,73.2823,79.4695,127.323,99.2577,94.2435,0.00322611,0.37841,20.6568,-280.863,0.465251,0.0,0.0
1287,321.5,73.7944,79.8336,128.33,99.3483,94.3848,0.00315833,0.379453,20.6553,-281.153,0.459995,0.0,0.0
1296,323.75,73.5252,79.4455,126.105,99.4366,94.833,0.0032036,0.379509,20.6547,-281.424,0.425446,0.0,0.0
1305,326,73.9561,79.8618,122.682,99.5107,94.8978,0.0033016,0.379851,20.6535,-281.694,0.42601,0.0,0.0
1314,328.25,73.6604,79.5044,127.536,99.5825,95.0446,0.00325867,0.381349,20.6525,-281.984,0.418599,0.0,0.0
1323,330.5,73.7771,79.7077,128.323,99.6538,94.7014,0.00317305,0.381795,20.6522,-282.274,0.457498,0.0,0.0
1332,332.75,73.8377,79.7962,128.428,99.7038,94.9786,0.00319074,0.383274,20.6502,-282.575,0.435763,0.0,0.0
1341,335,74.0871,80.0779,120.201,99.7316,93.9096,0.00324315,0.386448,20.6469,-282.865,0.539863,0.0,0.0
1350,337.25,74.3432,80.142,127.802,99.7602,94.6193,0.00326202,0.387988,20.6443,-283.135,0.474859,0.0,0.0
1359,339.5,74.41,80.2088,122.887,99.7675,94.1385,0.00329827,0.39027,20.6406,-283.415,0.521233,0.0,0.0
1368,341.75,74.3937,79.8317,129.725,99.7655,93.6683,0.00348865,0.391599,20.6392,-283.716,0.565993,0.0,0.0
1377,344,74.4312,80.0584,128.968,99.7372,93.3704,0.00371606,0.392381,20.6388,-283.986,0.592051,0.0,0.0
1386,346.25,74.3592,80.3502,126.317,99.7135,94.1017,0.0039645,0.393105,20.6386,-284.306,0.519885,0.0,0.0
1395,348.5,74.3547,80.3457,130.418,99.6949,93.9667,0.00424292,0.392902,20.6373,-284.596,0.531102,0.0,0.0
1404,350.75,74.2389,80.0905,126.413,99.649,94.0391,0.00434215,0.394592,20.6352,-284.877,0.520056,0.0,0.0
1413,353,74.807,80.7028,124.73,99.6184,94.2837,0.00427778,0.396069,20.6329,-285.187,0.493979,0.0,0.0
1422,355.25,74.7599,80.5413,128.822,99.5809,94.2596,0.00417622,0.396407,20.632,-285.457,0.492898,0.0,0.0
1431,357.5,74.9299,80.6849,122.387,99.5349,93.455,0.00409224,0.397921,20.6304,-285.767,0.565692,0.0,0.0
1440,359.75,74.9309,81.1363,127.222,99.5059,93.1816,0.00407984,0.399437,20.6285,-286.018,0.589372,0.0,0.0
1449,362,75.3681,81.3772,126.026,99.4576,93.5105,0.00421416,0.400234,20.6274,-286.358,0.55339,0.0,0.0
1458,364.25,75.233,80.9075,125.757,99.4487,93.1837,0.00426795,0.40054,20.6291,-286.618,0.584004,0.0,0.0
1467,366.5,75.2231,80.9782,125.511,99.4052,93.794,0.00420773,0.399272,20.6308,-286.918,0.521485,0.0,0.0
1476,368.75,75.0337,80.7888,125.086,99.3733,93.0047,0.00414056,0.400897,20.6307,-287.199,0.594459,0.0,0.0
1485,371,75.4966,81.2461,125.469,99.3524,92.8214,0.00407765,0.401811,20.63,-287.489,0.610269,0.0,0.0
1494,373.25,74.8299,80.6613,126.185,99.3556,93.0458,0.00397711,0.40226,20.6297,-287.809,0.588897,0.0,0.0
1503,375.5,75.5132,81.3785,130.541,99.4676,93.1795,0.00388786,0.402833,20.6296,-288.12,0.586121,0.0,0.0
1512,377.75,74.8356,80.9678,132.231,99.6405,92.4981,0.0039037,0.402343,20.6296,-288.32,0.667582,0.0,0.0
1521,380,75.1788,81.0941,127.757,99.7925,93.1004,0.00405559,0.40118,20.6296,-288.65,0.62301,0.0,0.0
1530,382.25,75.34,81.2009,126.384,99.917,92.9797,0.00421844,0.402002,20.6279,-288.88,0.645839,0.0,0.0
1539,384.5,75.4283,81.3303,128.23,100,94.2117,0.00433626,0.404267,20.6252,-289.251,0.535151,0.0,0.0
1548,386.75,75.5885,81.5171,123.953,100.079,94.3891,0.00439994,0.405629,20.6232,-289.571,0.525324,0.0,0.0
1557,389,75.5786,81.4895,123.863,100.146,93.8397,0.00438005,0.406246,20.622,-289.841,0.583746,0.0,0.0
1566,391.25,75.6094,81.692,117.502,100.177,94.4576,0.0043562,0.405627,20.6221,-290.091,0.527622,0.0,0.0
1575,393.5,75.7564,81.6131,126.071,100.193,93.6649,0.00439097,0.403343,20.6257,-290.392,0.604741,0.0,0.0
1584,395.75,76.206,81.9486,129.335,100.187,93.6971,0.004371,0.401907,20.6274,-290.672,0.601118,0.0,0.0
1593,398,76.4139,81.2997,127.317,100.143,94.0907,0.00443099,0.401575,20.6264,-290.992,0.559558,0.0,0.0
1602,400.25,75.9054,82.0205,127.377,100.083,92.9649,0.0045388,0.402672,20.6244,-291.262,0.662172,0.0,0.0
1611,402.5,76.47,82.3595,127.836,100.017,93.1418,0.00444485,0.403662,20.6235,-291.553,0.639144,0.0,0.0
1620,404.75,75.9788,81.8826,126.392,99.9291,92.8278,0.00435757,0.404144,20.6236,-291.843,0.661604,0.0,0.0
1629,407,76.1003,82.4371,126.211,99.7792,92.9628,0.00442455,0.403671,20.6246,-292.143,0.635084,0.0,0.0
1638,409.25,75.9038,82.6088,127.519,99.6248,92.8549,0.00439698,0.403567,20.625,-292.423,0.631615,0.0,0.0
1647,411.5,76.1999,82.0481,129.019,99.6683,92.7605,0.00422573,0.403015,20.6265,-292.734,0.644662,0.0,0.0
1656,413.75,76.0385,81.8264,124.44,99.7082,92.5768,0.00427592,0.402039,20.6276,-293.004,0.666043,0.0,0.0
1665,416,75.5434,81.6438,126.466,99.7824,92.6598,0.00430852,0.400787,20.6288,-293.264,0.664678,0.0,0.0
1674,418.25,76.3028,82.1907,125.53,99.8412,93.1257,0.00427925,0.399484,20.6299,-293.544,0.624948,0.0,0.0
1683,420.5,76.3637,82.1959,123.38,99.9222,92.744,0.00418726,0.399634,20.6303,-293.855,0.669094,0.0,0.0
1692,422.75,76.5127,82.1352,128.788,100.01,93.2206,0.00411014,0.399587,20.6305,-294.135,0.630947,0.0,0.0
1701,425,76.3659,82.4226,124.904,100.091,94.0116,0.00415595,0.399582,20.6306,-294.415,0.562414,0.0,0.0
1710,427.25,76.559,82.3458,131.18,100.174,94.2685,0.00418429,0.400228,20.6306,-294.695,0.545326,0.0,0.0
1719,429.5,76.0856,81.8971,127.391,100.244,94.0979,0.00415848,0.400336,20.6306,-294.976,0.567861,0.0,0.0
1728,431.75,76.3714,82.4883,127.206,100.296,94.6058,0.00411012,0.399526,20.6306,-295.266,0.524239,0.0,0.0
1737,434,76.6845,82.4773,123.297,100.358,94.0327,0.00417001,0.399095,20.6323,-295.546,0.584287,0.0,0.0
1746,436.25,74.8354,80.7855,128.085,100.395,94.2676,0.00415684,0.397891,20.6335,-295.796,0.565209,0.0,0.0
1755,438.5,76.3479,82.2549,126.415,100.426,93.8681,0.00404121,0.397326,20.634,-296.117,0.606066,0.0,0.0
1764,440.75,76.6845,82.7355,132.688,100.437,93.6294,0.00398994,0.396717,20.6343,-296.367,0.629927,0.0,0.0
1773,443,76.5611,82.2675,130.686,100.444,93.3454,0.00398064,0.39677,20.6348,-296.667,0.657839,0.0,0.0
1782,445.25,76.6095,82.4756,125.973,100.43,93.6137,0.00407076,0.396455,20.635,-296.938,0.630853,0.0,0.0
1791,447.5,76.5383,82.6494,126.281,100.394,94.0357,0.00412151,0.395648,20.6351,-297.218,0.58721,0.0,0.0
1800,449.75,77.1339,82.7553,127.546,100.322,94.2989,0.00405089,0.395534,20.6351,-297.488,0.55574,0.0,0.0
1809,452,77.0071,82.6798,127.69,100.256,94.646,0.004041,0.394747,20.6348,-297.798,0.516856,0.0,0.0
1818,454.25,76.6873,82.5711,127.362,100.162,94.1682,0.00409035,0.394715,20.634,-298.048,0.553798,0.0,0.0
1827,456.5,77.0137,82.5222,127.056,100.051,93.9625,0.0041708,0.395665,20.6338,-298.309,0.563487,0.0,0.0
1836,458.75,76.9005,82.7184,135.592,99.9279,94.7433,0.00418786,0.396786,20.6325,-298.589,0.478176,0.0,0.0
1845,461,76.882,82.4651,124.908,99.8098,93.7559,0.00420138,0.397478,20.6319,-298.879,0.561591,0.0,0.0
1854,463.25,77.5043,82.5228,124.731,99.657,93.9273,0.00417723,0.397852,20.6317,-299.18,0.531451,0.0,0.0
1863,465.5,77.2535,82.9954,128.195,99.5164,92.6636,0.00410836,0.398322,20.6316,-299.42,0.640351,0.0,0.0
1872,467.75,76.795,82.4866,130.17,99.3532,92.9552,0.00405862,0.398394,20.6316,-299.71,0.59742,0.0,0.0
1881,470,76.8523,82.8462,125.848,99.2302,93.9959,0.0040715,0.39871,20.6299,-300.01,0.486382,0.0,0.0
1890,472.25,77.0932,82.3124,126.038,99.0779,93.3526,0.00420806,0.399687,20.628,-300.291,0.534229,0.0,0.0
1899,474.5,77.0847,82.6973,128.773,98.9534,94.1411,0.00431985,0.400322,20.6273,-300.521,0.447453,0.0,0.0
1908,476.75,77.0433,82.8466,122.08,98.8373,92.4846,0.00428922,0.399707,20.627,-300.811,0.596253,0.0,0.0
1917,479,76.2613,82.7526,127.012,98.7083,93.1579,0.00412779,0.398219,20.628,-301.061,0.519425,0.0,0.0
1926,481.25,76.5402,82.6634,130.544,98.616,93.2828,0.00397362,0.398067,20.6291,-301.341,0.499009,0.0,0.0
1935,483.5,77.0146,82.7944,128.17,98.5508,92.6175,0.00391133,0.396756,20.6308,-301.612,0.557306,0.0,0.0
1944,485.75,76.8801,82.0244,126.545,98.4911,92.5218,0.00394156,0.396439,20.6316,-301.902,0.561146,0.0,0.0
1953,488,77.1361,82.668,126.017,98.448,92.5138,0.00388695,0.396963,20.6315,-302.172,0.557996,0.0,0.0
1962,490.25,77.033,82.5956,125.681,98.4379,92.1726,0.00384608,0.397411,20.6298,-302.462,0.590232,0.0,0.0
1971,492.5,75.4332,81.0814,130.32,98.4484,92.9222,0.00386173,0.397868,20.6284,-302.713,0.518498,0.0,0.0
1980,494.75,76.851,82.6864,127.33,98.4605,92.8041,0.00384005,0.397294,20.6278,-303.023,0.531013,0.0,0.0
1989,497,77.5712,83.2634,125.162,98.4939,93.6002,0.00378315,0.396418,20.6287,-303.263,0.4574,0.0,0.0
1998,499.25,76.7263,82.4002,126.611,98.5544,92.6746,0.00376556,0.395788,20.6292,-303.503,0.552102,0.0,0.0
2007,501.5,77.1661,82.7919,123.904,98.6447,93.1884,0.00367547,0.396379,20.6289,-303.784,0.510697,0.0,0.0
2016,503.75,77.129,82.2911,123.484,98.7184,93.1668,0.00372503,0.39795,20.6279,-304.064,0.519485,0.0,0.0
2025,506,76.9967,82.7268,126.593,98.7881,92.9514,0.00397083,0.398718,20.6274,-304.324,0.546598,0.0,0.0
2034,508.25,78.2568,83.9291,123.264,98.899,92.8701,0.00403302,0.398224,20.6272,-304.614,0.564512,0.0,0.0
2043,510.5,76.639,82.3616,126.524,98.9969,93.2277,0.00388433,0.39831,20.6271,-304.875,0.538899,0.0,0.0
2052,512.75,77.2096,83.5972,123.877,99.0928,93.9912,0.003625,0.398189,20.6271,-305.125,0.474388,0.0,0.0
2061,515,76.0287,81.6846,129.315,99.196,93.863,0.00339532,0.398182,20.6271,-305.385,0.495981,0.0,0.0
2070,517.25,77.4696,83.1353,124.071,99.2951,93.6903,0.00338685,0.398826,20.6266,-305.655,0.521474,0.0,0.0
2079,519.5,77.1758,82.9161,126.387,99.3987,93.7098,0.0034097,0.399319,20.6264,-305.956,0.528966,0.0,0.0
2088,521.75,77.4606,83.5255,125.548,99.4809,93.8867,0.00345086,0.399161,20.6263,-306.196,0.519459,0.0,0.0
2097,524,76.933,82.6349,127.9,99.5583,93.8291,0.00363805,0.398778,20.6262,-306.486,0.531941,0.0,0.0
2106,526.25,77.5938,83.1642,129.439,99.6107,94.4085,0.00390686,0.401129,20.6254,-306.746,0.481412,0.0,0.0
2115,528.5,77.9953,83.5719,124.672,99.6687,93.3492,0.0040319,0.402136,20.6238,-306.987,0.587917,0.0,0.0
2124,530.75,76.5081,82.113,121.026,99.7207,94.1825,0.00406317,0.40309,20.6207,-307.267,0.512832,0.0,0.0
2133,533,77.9307,83.5894,127.602,99.755,94.1957,0.0040651,0.404999,20.6179,-307.537,0.514665,0.0,0.0
2142,535.25,77.9,83.6262,127.207,99.7675,94.825,0.0039482,0.40653,20.6154,-307.817,0.456023,0.0,0.0
2151,537.5,78.022,83.4783,123.635,99.7566,93.8503,0.00373753,0.407101,20.6142,-308.098,0.547776,0.0,0.0
2160,539.75,77.73,83.4899,129.352,99.7622,94.3345,0.0036481,0.407929,20.6137,-308.358,0.5021,0.0,0.0
2169,542,78.2162,83.7754,128.156,99.7227,94.1508,0.00365903,0.408243,20.6131,-308.638,0.516039,0.0,0.0
2178,544.25,78.1234,83.8484,126.175,99.6865,94.7171,0.00367833,0.409917,20.6107,-308.928,0.458953,0.0,0.0
2187,546.5,78.0087,83.7571,124.515,99.6276,94.3954,0.0036653,0.411755,20.6082,-309.179,0.484185,0.0,0.0
2196,548.75,77.7175,83.401,128.733,99.6014,93.386,0.00364217,0.413099,20.6059,-309.459,0.578315,0.0,0.0
2205,551,78.2023,84.039,127.462,99.5543,93.4961,0.00364754,0.415686,20.6018,-309.739,0.563495,0.0,0.0
2214,553.25,78.1419,83.967,130.128,99.4995,93.5959,0.00354018,0.417228,20.5991,-310.029,0.54897,0.0,0.0
2223,555.5,78.4424,84.1266,126.414,99.4608,94.398,0.00350175,0.418478,20.598,-310.3,0.4689,0.0,0.0
2232,557.75,78.1487,84.1235,124.09,99.406,94.6388,0.00359511,0.418256,20.5981,-310.53,0.441085,0.0,0.0
2241,560,78.8637,84.1768,125.486,99.3681,92.9696,0.00365305,0.417284,20.5995,-310.78,0.597377,0.0,0.0
2250,562.25,78.6206,84.302,125.321,99.3362,92.7432,0.00353657,0.4158,20.6011,-311.05,0.616386,0.0,0.0
2259,564.5,78.102,83.8505,126.937,99.3322,92.7872,0.00344121,0.415481,20.6017,-311.31,0.611764,0.0,0.0
2268,566.75,78.7124,84.454,125.531,99.2971,93.1016,0.00346069,0.414924,20.6019,-311.601,0.57823,0.0,0.0
2277,569,78.8266,84.5919,125.249,99.4322,93.8211,0.00352726,0.413575,20.6032,-311.851,0.521331,0.0,0.0
2286,571.25,78.5317,84.235,124.646,99.6091,93.9113,0.00358988,0.410899,20.6049,-312.121,0.528668,0.0,0.0
2295,573.5,78.634,84.4021,125.024,99.7671,93.7483,0.00366336,0.407999,20.6075,-312.381,0.558477,0.0,0.0
2304,575.75,78.6234,84.8583,124.214,99.8981,93.6624,0.00360971,0.40422,20.6121,-312.632,0.578482,0.0,0.0
2313,578,78.6902,84.7373,122.364,100,94.439,0.00338354,0.401354,20.6168,-312.872,0.513526,0.0,0.0
2322,580.25,78.8299,84.5952,126.437,100.075,94.4691,0.00326731,0.398977,20.6188,-313.132,0.517432,0.0,0.0
2331,582.5,79.2066,85.0193,128.422,100.134,94.26,0.00327635,0.396078,20.6221,-313.372,0.542593,0.0,0.0
2340,584.75,79.2973,84.2218,124.446,100.148,94.5867,0.00323981,0.393435,20.6252,-313.633,0.512729,0.0,0.0
2349,587,79.1866,84.6821,128.261,100.167,95.4035,0.00318005,0.39218,20.6264,-313.843,0.437323,0.0,0.0
2358,589.25,78.8923,84.6136,121.41,100.157,94.3641,0.00310253,0.390658,20.6279,-314.123,0.534744,0.0,0.0
2367,591.5,79.0721,84.6248,123.832,100.106,94.8517,0.0031615,0.389461,20.6294,-314.333,0.483868,0.0,0.0
2376,593.75,77.9662,84.0217,126.775,100.048,94.811,0.00336179,0.386563,20.6316,-314.563,0.48258,0.0,0.0
2385,596,78.7122,84.5081,127.268,99.9774,94.4805,0.00340329,0.383553,20.6358,-314.794,0.50756,0.0,0.0
2394,598.25,78.9907,84.4478,127.936,99.8682,94.5402,0.00334508,0.381025,20.6385,-315.024,0.492081,0.0,0.0
2403,600.5,78.1386,84.2188,127.871,99.7538,93.1274,0.00334148,0.377107,20.6436,-315.244,0.616919,0.0,0.0
2412,602.75,78.5625,84.0779,125.507,99.6188,93.9853,0.00331919,0.37305,20.6492,-315.484,0.522464,0.0,0.0
2421,605,78.2109,83.7349,129.707,99.6595,94.0128,0.00329131,0.369684,20.6523,-315.694,0.523504,0.0,0.0
2430,607.25,78.8178,83.5232,126.852,99.7018,94.3658,0.00315091,0.36628,20.6548,-315.905,0.493681,0.0,0.0
2439,609.5,78.5385,83.4653,126.03,99.7667,94.1559,0.0030261,0.362103,20.6608,-316.095,0.519507,0.0,0.0
2448,611.75,77.9659,83.5381,124.762,99.8473,93.8516,0.00293451,0.357725,20.6663,-316.305,0.555809,0.0,0.0
2457,614,78.1662,83.6006,128.086,99.9218,94.3899,0.00280037,0.352824,20.671,-316.495,0.511174,0.0,0.0
2466,616.25,77.9718,83.0643,126.412,100.015,94.3633,0.00271903,0.347065,20.6769,-316.705,0.522067,0.0,0.0
2475,618.5,77.199,82.6519,131.121,100.088,94.3006,0.00274558,0.340832,20.6824,-316.885,0.534606,0.0,0.0
2484,620.75,77.0742,82.5238,130.668,100.158,94.0361,0.0028235,0.332451,20.6915,-317.066,0.566068,0.0,0.0
2493,623,76.893,82.2897,129.103,100.228,93.8397,0.0027438,0.323935,20.7029,-317.256,0.591075,0.0,0.0
2502,625.25,77.2743,82.1944,125.547,100.29,94.2414,0.00254943,0.312665,20.7189,-317.416,0.5583,0.0,0.0
2511,627.5,76.5369,81.8659,129.225,100.345,95.1441,0.00251651,0.300555,20.7323,-317.576,0.477711,0.0,0.0
2520,629.75,76.1364,81.8246,133.356,100.396,94.4077,0.00258957,0.288309,20.7483,-317.706,0.551954,0.0,0.0
2529,632,75.5583,81.076,132.894,100.411,95.3159,0.00255913,0.272797,20.7678,-317.846,0.467426,0.0,0.0
2538,634.25,75.7351,80.6058,132.171,100.428,96.0798,0.0023902,0.257377,20.7848,-317.966,0.397294,0.0,0.0
2547,636.5,75.0704,80.2284,130.832,100.446,96.0858,0.00217246,0.242071,20.8058,-318.057,0.398289,0.0,0.0
2556,638.75,74.7921,79.5863,131.878,100.437,96.6013,0.00209273,0.224996,20.8249,-318.167,0.34951,0.0,0.0
2565,641,73.9899,78.9847,134.913,100.406,96.7168,0.00209971,0.211921,20.8381,-318.247,0.335973,0.0,0.0
2574,643.25,73.1109,78.063,133.579,100.369,96.4087,0.00216765,0.199927,20.8499,-318.327,0.361295,0.0,0.0
2583,645.5,72.8898,77.597,131.486,100.328,97.1231,0.00227699,0.190338,20.8619,-318.377,0.291392,0.0,0.0
2592,647.75,71.8708,76.4416,135.238,100.258,96.509,0.00247177,0.182756,20.8717,-318.457,0.342009,0.0,0.0
2601,650,71.6527,76.4698,134.576,100.19,96.7223,0.002644,0.176331,20.8793,-318.517,0.316167,0.0,0.0
2610,652.25,70.7979,75.4949,131.737,100.108,96.9906,0.00278694,0.170618,20.8869,-318.557,0.283899,0.0,0.0
2619,654.5,70.2171,74.5095,136.199,100.009,96.2246,0.0028991,0.165115,20.8932,-318.637,0.346245,0.0,0.0
2628,656.75,69.7408,74.2283,132.149,99.8964,96.6711,0.00283314,0.160187,20.8987,-318.687,0.294562,0.0,0.0
2637,659,69.1424,73.6799,133.229,99.7808,96.6825,0.00272537,0.155806,20.9054,-318.747,0.283105,0.0,0.0
2646,661.25,68.7118,72.9313,135.055,99.6691,96.7223,0.00267709,0.151465,20.9098,-318.777,0.269364,0.0,0.0
2655,663.5,68.3906,72.3624,133.244,99.5462,95.5419,0.00260331,0.148155,20.9133,-318.837,0.368493,0.0,0.0
2664,665.75,67.2695,71.6965,131.729,99.3983,95.547,0.00236974,0.145578,20.9174,-318.887,0.35467,0.0,0.0
2673,668,66.8945,71.1999,136.074,99.2778,95.3464,0.00209484,0.143213,20.9225,-318.957,0.362647,0.0,0.0
2682,670.25,66.4277,70.3756,134.035,99.1444,95.3202,0.00207068,0.141425,20.9257,-318.957,0.353049,0.0,0.0
2691,672.5,65.7672,69.8109,139.581,99.0142,95.4615,0.00236228,0.140168,20.9281,-319.017,0.327957,0.0,0.0
2700,674.75,65.7351,69.2801,138.041,98.9034,95.2351,0.00260127,0.139119,20.93,-319.067,0.339219,0.0,0.0
2709,677,65.0858,68.9422,136.053,98.8067,94.9934,0.00261123,0.138218,20.9312,-319.087,0.353241,0.0,0.0
2718,679.25,64.5123,68.2122,141.994,98.7172,95.0442,0.00261681,0.137545,20.9326,-319.138,0.340313,0.0,0.0
2727,681.5,64.4008,68.5689,133.474,98.6249,94.7501,0.00273359,0.136146,20.9348,-319.178,0.359736,0.0,0.0
2736,683.75,64.0732,67.6649,136.797,98.5717,94.6904,0.00278063,0.134595,20.9381,-319.228,0.360548,0.0,0.0
2745,686,63.1622,66.7779,134.365,98.5177,94.8216,0.00284188,0.133378,20.9402,-319.278,0.343203,0.0,0.0
2754,688.25,63.07,66.4321,135.918,98.4738,94.4919,0.00301811,0.13276,20.9407,-319.308,0.370461,0.0,0.0
2763,690.5,62.4389,65.6707,137.901,98.4613,94.6117,0.003246,0.132964,20.9399,-319.348,0.357953,0.0,0.0
2772,692.75,62.2271,65.7514,132.948,98.4766,94.789,0.00330524,0.133236,20.94,-319.408,0.342543,0.0,0.0
2781,695,62.1463,65.4124,137.808,98.4955,94.8136,0.00322966,0.132688,20.9411,-319.418,0.341943,0.0,0.0
2790,697.25,61.6708,64.9653,135.997,98.5298,94.7111,0.00317937,0.131242,20.9428,-319.478,0.354765,0.0,0.0
2799,699.5,61.2796,64.7624,137.714,98.5842,95.5191,0.00330752,0.129797,20.9451,-319.508,0.283482,0.0,0.0
2808,701.75,60.9956,64.0778,138.476,98.6576,94.516,0.00344413,0.128813,20.9459,-319.548,0.384904,0.0,0.0
2817,704,60.7714,64.0683,132.743,98.7394,95.0226,0.00347761,0.128156,20.9462,-319.568,0.344365,0.0,0.0
2826,706.25,60.5053,63.6277,140.346,98.8159,94.7065,0.00345074,0.128319,20.9464,-319.588,0.381235,0.0,0.0
2835,708.5,60.1871,63.1322,140.898,98.9183,94.8995,0.00354223,0.129409,20.9458,-319.648,0.372255,0.0,0.0
2844,710.75,59.986,62.8137,132.725,99.009,94.8948,0.00377941,0.13128,20.9437,-319.668,0.380921,0.0,0.0
2853,713,59.8434,62.7124,138.512,99.0924,95.3841,0.00381514,0.132519,20.9429,-319.678,0.342325,0.0,0.0
2862,715.25,59.645,62.3982,139.199,99.1871,95.2558,0.00372267,0.132702,20.9432,-319.738,0.362975,0.0,0.0
2871,717.5,59.4,62.4046,134.616,99.281,95.4861,0.00375593,0.131954,20.9442,-319.778,0.3498,0.0,0.0
2880,719.75,59.4592,62.1817,139.142,99.3572,95.4818,0.00381115,0.130553,20.9456,-319.818,0.357082,0.0,0.0
2889,722,58.9922,61.771,138.576,99.4451,95.2677,0.00379397,0.129319,20.9478,-319.838,0.385167,0.0,0.0
2898,724.25,58.9168,61.39,136.816,99.52,95.8737,0.00391958,0.128592,20.9489,-319.868,0.335014,0.0,0.0
2907,726.5,58.3944,61.1279,135.185,99.5861,95.5098,0.00412775,0.128794,20.9488,-319.958,0.375112,0.0,0.0
2916,728.75,58.4109,61.2168,138.499,99.6413,95.2736,0.00422135,0.128549,20.9486,-319.938,0.402306,0.0,0.0
2925,731,58.0945,60.5759,135.039,99.6913,96.0697,0.00422934,0.128219,20.9491,-319.978,0.332123,0.0,0.0
2934,733.25,57.8212,60.5881,137.454,99.7219,96.3164,0.00431252,0.127791,20.9507,-320.028,0.311859,0.0,0.0
2943,735.5,57.9424,60.3886,141.41,99.755,95.7552,0.00439073,0.127542,20.9518,-320.058,0.367281,0.0,0.0
2952,737.75,57.853,60.4522,135.716,99.7602,95.9918,0.00441774,0.127957,20.9515,-320.058,0.345603,0.0,0.0
2961,740,57.9187,60.0576,134.884,99.7731,96.1865,0.00444244,0.128493,20.9512,-320.098,0.32858,0.0,0.0
2970,742.25,57.2186,59.6656,137.217,99.778,95.9004,0.00443562,0.128891,20.9522,-320.108,0.35575,0.0,0.0
2979,744.5,57.0512,59.3718,136.45,99.7614,95.9169,0.00445223,0.129024,20.9529,-320.168,0.352719,0.0,0.0
2988,746.75,58.0097,59.0308,139.469,99.7385,96.1192,0.00445967,0.128634,20.9531,-320.208,0.331742,0.0,0.0
2997,749,57.0666,59.4369,135.183,99.7119,96.3511,0.00455319,0.128285,20.9527,-320.239,0.307718,0.0,0.0
3006,751.25,56.7702,59.4927,137.947,99.6776,95.4289,0.0047196,0.128391,20.9526,-320.249,0.390952,0.0,0.0
3015,753.5,55.878,58.8248,135.88,99.63,95.9262,0.00477309,0.128721,20.9514,-320.289,0.34002,0.0,0.0
3024,755.75,56.4244,58.553,136.718,99.5982,95.8941,0.0047588,0.129182,20.9519,-320.299,0.340161,0.0,0.0
3033,758,56.5859,58.6054,136.906,99.5555,95.7404,0.00481872,0.12912,20.9527,-320.329,0.350701,0.0,0.0
3042,760.25,56.3952,58.0912,135.535,99.5156,95.4319,0.0048334,0.129432,20.953,-320.369,0.376074,0.0,0.0
3051,762.5,56.355,58.132,136.462,99.4785,95.5534,0.004831,0.129711,20.9531,-320.419,0.361313,0.0,0.0
3060,764.75,56.1593,58.4692,135.221,99.4773,95.4861,0.00486917,0.129198,20.9541,-320.449,0.367526,0.0,0.0
3069,767,56.1673,58.1446,137.986,99.4185,95.1818,0.00494207,0.128738,20.955,-320.459,0.390864,0.0,0.0
3078,769.25,55.8745,57.609,140.619,99.3886,95.4243,0.00509226,0.128129,20.9557,-320.509,0.365333,0.0,0.0
3087,771.5,55.852,57.9782,135.594,99.3624,95.7789,0.00525884,0.127802,20.9561,-320.529,0.329671,0.0,0.0
3096,773.75,55.5834,57.8365,133.772,99.3306,95.3574,0.00526472,0.127786,20.9563,-320.589,0.366382,0.0,0.0
3105,776,55.776,57.6918,135.554,99.2959,95.1602,0.00523309,0.127707,20.9563,-320.569,0.381832,0.0,0.0
3114,778.25,55.2639,57.2862,138.157,99.2794,95.3096,0.00529395,0.127981,20.9552,-320.589,0.366258,0.0,0.0
3123,780.5,55.266,57.1911,135.282,99.2697,95.5665,0.00553307,0.128103,20.9536,-320.649,0.341225,0.0,0.0
3132,782.75,55.9441,57.081,135.005,99.2705,95.4755,0.00566165,0.128204,20.9526,-320.659,0.349848,0.0,0.0
3141,785,55.3479,57.2686,137.04,99.2516,95.5919,0.00575816,0.129421,20.951,-320.689,0.337201,0.0,0.0
3150,787.25,55.2105,57.3286,137.711,99.3665,95.5225,0.00582497,0.130758,20.9503,-320.719,0.354102,0.0,0.0
3159,789.5,54.8731,56.8178,142.406,99.4833,95.1813,0.00577583,0.13117,20.9501,-320.749,0.39676,0.0,0.0
3168,791.75,55.3979,57.0977,141.813,99.5418,95.4865,0.00566366,0.131546,20.95,-320.759,0.373302,0.0,0.0
3177,794,54.4904,57.0642,131.48,99.6341,96.0088,0.00567359,0.13158,20.95,-320.789,0.332664,0.0,0.0
3186,796.25,55.3801,57.2448,140.111,99.7235,95.7734,0.00591743,0.13138,20.9499,-320.859,0.362745,0.0,0.0
3195,798.5,54.7951,56.9769,139.631,99.8013,95.4772,0.00623589,0.130569,20.9499,-320.869,0.39755,0.0,0.0
3204,800.75,54.7094,56.6498,141.181,99.8561,95.8373,0.00646306,0.130391,20.9499,-320.909,0.368685,0.0,0.0
3213,803,54.4858,56.5957,137.854,99.9122,95.9931,0.00667248,0.131397,20.9498,-320.919,0.359144,0.0,0.0
3222,805.25,54.2782,56.4208,140.142,99.9795,95.7413,0.00676655,0.132546,20.9496,-320.929,0.388763,0.0,0.0
3231,807.5,54.8048,56.5346,138.308,100.004,95.8644,0.00667604,0.133576,20.9484,-320.979,0.379433,0.0,0.0
3240,809.75,54.411,56.0762,137.825,100.04,96.0765,0.00657446,0.134979,20.9476,-321.009,0.362821,0.0,0.0
3249,812,54.3286,56.0278,136.843,100.081,96.6165,0.00654433,0.135589,20.9476,-321.049,0.316201,0.0,0.0
3258,814.25,54.3519,56.163,139.508,100.12,95.9876,0.00652103,0.134846,20.9487,-321.069,0.378284,0.0,0.0
3267,816.5,54.0211,56.2863,139.495,100.117,95.9508,0.00660659,0.134062,20.9492,-321.079,0.38151,0.0,0.0
3276,818.75,54.302,55.8097,138.234,100.136,96.1882,0.00667874,0.133081,20.9494,-321.129,0.361027,0.0,0.0
3285,821,53.72,55.4169,142.513,100.146,96.0172,0.00669956,0.132505,20.9502,-321.159,0.377899,0.0,0.0
3294,823.25,53.7402,55.2732,139.9,100.158,96.1395,0.00666412,0.13195,20.9524,-321.179,0.367556,0.0,0.0
3303,825.5,53.8474,55.5117,134.728,100.132,96.2246,0.00668808,0.131463,20.9533,-321.209,0.357234,0.0,0.0
3312,827.75,53.8609,55.5794,136.664,100.12,95.9931,0.00674652,0.130642,20.9537,-321.239,0.377806,0.0,0.0
3321,830,54.3021,56.0617,134.952,100.103,95.999,0.00681803,0.129752,20.9548,-321.279,0.375735,0.0,0.0
3330,832.25,53.9515,55.548,141.863,100.076,96.3761,0.00679576,0.129318,20.9552,-321.319,0.338127,0.0,0.0
3339,834.5,54.1507,55.3889,137.612,100.039,96.1912,0.00677356,0.130087,20.9543,-321.319,0.352005,0.0,0.0
3348,836.75,53.4829,55.3759,140.198,99.9988,95.8818,0.00694507,0.130587,20.9536,-321.349,0.377338,0.0,0.0
3357,839,53.4905,55.4248,141.858,99.9464,96.0913,0.00709508,0.130905,20.9533,-321.38,0.353045,0.0,0.0
3366,841.25,53.0223,55.7145,138.363,99.8759,95.7332,0.00720293,0.131471,20.9532,-321.44,0.380214,0.0,0.0
3375,843.5,53.5159,55.6741,136.893,99.805,95.7472,0.00741019,0.131155,20.9543,-321.42,0.372528,0.0,0.0
3384,845.75,53.1962,54.8007,139.68,99.7179,95.5542,0.00756952,0.13053,20.9544,-321.48,0.382806,0.0,0.0
3393,848,54.2952,54.5812,138.032,99.6067,95.4171,0.00762824,0.130822,20.9538,-321.49,0.385678,0.0,0.0
3402,850.25,53.2345,55.5271,138.226,99.6353,95.5157,0.00757566,0.131173,20.9545,-321.53,0.378985,0.0,0.0
3411,852.5,53.671,55.5962,138.543,99.6651,95.6681,0.00756822,0.132581,20.9524,-321.55,0.367366,0.0,0.0
3420,854.75,53.5856,55.1234,138.994,99.7119,95.9867,0.00772802,0.133905,20.9497,-321.58,0.341726,0.0,0.0
3429,857,52.318,55.223,137.148,99.7417,95.8378,0.00780642,0.134176,20.9485,-321.63,0.358352,0.0,0.0
3438,859.25,53.1291,55.5176,134.359,99.7884,95.7298,0.00770173,0.133828,20.9502,-321.64,0.37267,0.0,0.0
3447,861.5,52.9993,55.0668,138.457,99.8364,95.4154,0.00757169,0.132792,20.9531,-321.7,0.406513,0.0,0.0
3456,863.75,52.4718,54.5777,136.513,99.8747,95.7417,0.00751819,0.131699,20.9547,-321.71,0.379313,0.0,0.0
3465,866,52.9692,54.1256,138.116,99.9214,96.0625,0.00765594,0.130929,20.9562,-321.72,0.35349,0.0,0.0
3474,868.25,52.7392,54.4221,141.241,99.9754,95.9084,0.0078562,0.13127,20.9559,-321.76,0.372744,0.0,0.0
3483,870.5,53.0511,54.6276,133.464,100.033,96.1459,0.00795553,0.132115,20.9553,-321.82,0.355689,0.0,0.0
3492,872.75,52.41,54.3189,137.927,100.068,95.889,0.00807832,0.13189,20.9538,-321.85,0.382847,0.0,0.0
3501,875,53.4877,54.8074,138.697,100.126,95.8255,0.00814006,0.131841,20.953,-321.85,0.394031,0.0,0.0
3510,877.25,52.5157,54.4377,142.262,100.174,95.7933,0.00819128,0.132923,20.9515,-321.87,0.401342,0.0,0.0
3519,879.5,52.7883,54.5258,141.131,100.229,95.955,0.00827826,0.134022,20.9496,-321.9,0.391117,0.0,0.0
3528,881.75,52.6699,53.8118,137.431,100.256,96.2208,0.00828743,0.134173,20.9497,-321.97,0.368709,0.0,0.0
3537,884,52.5222,54.4103,136.898,100.287,96.3253,0.00824523,0.133771,20.95,-321.96,0.361741,0.0,0.0
3546,886.25,51.9285,53.6887,138.662,100.338,96.2559,0.00819779,0.133319,20.9501,-322.02,0.37279,0.0,0.0
3555,888.5,51.821,54.5548,140.465,100.355,96.3825,0.00823406,0.132908,20.9501,-322.02,0.362513,0.0,0.0
3564,890.75,52.3058,54.1201,139.301,100.379,96.2263,0.00820469,0.133051,20.9501,-322.07,0.37923,0.0,0.0
3573,893,52.5519,54.2232,136.37,100.403,96.1285,0.00814887,0.133179,20.9501,-322.1,0.390515,0.0,0.0
3582,895.25,52.5662,53.9762,140.084,100.42,96.5767,0.00819787,0.134098,20.9493,-322.11,0.350207,0.0,0.0
3591,897.5,52.2759,54.2999,140.365,100.429,96.3456,0.00845331,0.13419,20.9499,-322.14,0.372536,0.0,0.0
3600,899.75,52.4917,54.1439,132.554,100.443,96.225,0.00864613,0.133222,20.9514,-322.19,0.385004,0.0,0.0
3609,902,52.7302,54.0106,139.108,100.445,96.1785,0.008697,0.132581,20.9521,-322.22,0.389527,0.0,0.0
3618,904.25,51.964,54.4189,139.998,100.445,96.2563,0.0087716,0.132635,20.9533,-322.27,0.382263,0.0,0.0
3627,906.5,52.2668,54.2362,138.097,100.455,96.1518,0.00900773,0.132288,20.9543,-322.26,0.392952,0.0,0.0
3636,908.75,52.2471,53.8892,140.324,100.431,95.8712,0.00918509,0.131893,20.9546,-322.31,0.417058,0.0,0.0
3645,911,52.414,53.7227,140.728,100.422,96.6305,0.00923673,0.13226,20.9538,-322.33,0.345393,0.0,0.0
3654,913.25,52.5956,54.2035,140.166,100.397,96.5856,0.00920028,0.132022,20.9532,-322.38,0.347399,0.0,0.0
3663,915.5,52.6796,54.4157,137.797,100.381,96.1704,0.00907528,0.131284,20.9542,-322.39,0.384586,0.0,0.0
3672,917.75,52.3951,54.1934,140.758,100.366,96.4845,0.00901038,0.131795,20.9542,-322.41,0.353993,0.0,0.0
3681,920,52.2557,54.2665,137.792,100.324,96.531,0.0091127,0.132604,20.9535,-322.461,0.345878,0.0,0.0
3690,922.25,52.0975,54.0982,140.27,100.292,96.1505,0.00923691,0.132837,20.9533,-322.481,0.378512,0.0,0.0
3699,924.5,52.0455,54.1819,139.947,100.255,96.1217,0.00927652,0.132629,20.9546,-322.541,0.377843,0.0,0.0
3708,926.75,52.2443,54.3037,138.315,100.223,96.4066,0.00933264,0.132048,20.9552,-322.541,0.348473,0.0,0.0
3717,929,52.0378,53.4261,140.204,100.176,96.1454,0.00933843,0.132568,20.9538,-322.571,0.368556,0.0,0.0
3726,931.25,52.0472,53.9078,136.832,100.127,96.2508,0.00925894,0.133401,20.952,-322.611,0.354391,0.0,0.0
3735,933.5,51.7816,53.85,135.79,100.089,96.1793,0.00923547,0.134837,20.95,-322.641,0.357594,0.0,0.0
3744,935.75,52.0285,53.5071,138.794,100.036,95.9233,0.0092165,0.135467,20.9491,-322.651,0.37682,0.0,0.0
3753,938,51.9797,54.2002,136.418,99.9803,95.9503,0.00912407,0.135649,20.9495,-322.681,0.369259,0.0,0.0
3762,940.25,52.1182,53.8504,140.549,99.9299,95.732,0.00909643,0.135388,20.9494,-322.751,0.385186,0.0,0.0
3771,942.5,51.8908,53.8636,135.52,99.8666,95.726,0.00916784,0.135122,20.9503,-322.791,0.380056,0.0,0.0
3780,944.75,52.1255,54.0686,138.228,99.8021,95.5982,0.00923425,0.134867,20.951,-322.781,0.386251,0.0,0.0
3789,947,52.2256,53.8737,139.84,99.7429,95.2605,0.00918226,0.134986,20.9513,-322.821,0.412686,0.0,0.0
3798,949.25,51.8818,53.6614,137.462,99.6744,95.6325,0.00906303,0.135657,20.9496,-322.871,0.371537,0.0,0.0
3807,951.5,52.2988,53.8568,137.668,99.6067,95.7874,0.0090996,0.135127,20.9499,-322.871,0.350912,0.0,0.0
3816,953.75,51.7707,53.9221,140.295,99.5567,95.2965,0.00924094,0.134789,20.9503,-322.911,0.392527,0.0,0.0
3825,956,52.1375,53.908,138.995,99.493,95.3684,0.00934381,0.135846,20.9485,-322.941,0.380011,0.0,0.0
3834,958.25,51.0854,53.1486,137.384,99.4314,95.5072,0.00943379,0.13931,20.9443,-322.991,0.361392,0.0,0.0
3843,960.5,50.8807,52.9171,136.608,99.3568,95.5288,0.00947352,0.141701,20.942,-323.031,0.352631,0.0,0.0
3852,962.75,51.0686,53.446,142.98,99.2887,95.2245,0.00945861,0.142181,20.9411,-323.041,0.375111,0.0,0.0
3861,965,51.6969,53.3436,139.55,99.2331,95.3697,0.00960198,0.141567,20.9418,-323.041,0.35641,0.0,0.0
3870,967.25,51.594,53.462,136.676,99.1867,95.0645,0.00977256,0.141068,20.9436,-323.081,0.38098,0.0,0.0
3879,969.5,51.5666,53.4272,136.932,99.1142,95.051,0.00972176,0.139482,20.9454,-323.091,0.375692,0.0,0.0
3888,971.75,51.6586,53.2345,139.876,99.0654,94.8102,0.00958712,0.138159,20.9472,-323.131,0.394043,0.0,0.0
3897,974,51.0142,53.048,138.355,99.0352,95.3985,0.00960357,0.138279,20.948,-323.171,0.335787,0.0,0.0
3906,976.25,50.8919,53.2018,137.375,98.9868,95.0455,0.00966584,0.138026,20.9483,-323.221,0.364672,0.0,0.0
3915,978.5,50.9475,53.0595,135.767,98.9409,95.5153,0.00974018,0.137837,20.9477,-323.251,0.316254,0.0,0.0
3924,980.75,51.1792,53.0831,139.043,98.9062,94.6176,0.00987797,0.138458,20.9468,-323.301,0.397857,0.0,0.0
3933,983,51.3206,52.9086,137.28,98.8909,94.4686,0.00999405,0.139399,20.9464,-323.331,0.410609,0.0,0.0
3942,985.25,51.162,53.234,138.826,98.8325,94.9553,0.0100162,0.13956,20.9463,-323.331,0.359182,0.0,0.0
3951,987.5,51.044,53.1118,140.272,98.8091,94.5643,0.0100484,0.139191,20.946,-323.381,0.394099,0.0,0.0
3960,989.75,51.5243,53.4351,140.801,98.7837,95.0531,0.0101965,0.138808,20.9458,-323.421,0.345516,0.0,0.0
3969,992,51.0748,53.1956,138.897,98.7361,94.748,0.0102641,0.138984,20.9458,-323.441,0.370054,0.0,0.0
3978,994.25,50.9591,53.2319,141.518,98.7047,94.5165,0.010216,0.13941,20.9446,-323.471,0.389151,0.0,0.0
3987,996.5,51.2235,53.1672,138.011,98.6696,94.5816,0.0101057,0.139529,20.9439,-323.521,0.379777,0.0,0.0
3996,998.75,51.3106,53.0285,137.854,98.6527,95.073,0.0101907,0.139796,20.9436,-323.551,0.331731,0.0,0.0
4005,1001,51.201,53.2052,136.887,98.6193,94.3933,0.0103809,0.139732,20.9435,-323.592,0.393082,0.0,0.0
4014,1003.25,50.8439,52.3615,140.638,98.5935,94.6345,0.0104829,0.139992,20.9434,-323.592,0.367826,0.0,0.0
4023,1005.5,51.4477,53.7155,139.173,98.5955,94.296,0.0105083,0.139989,20.9434,-323.632,0.400179,0.0,0.0
4032,1007.75,51.0606,53.0118,134.936,98.556,94.4509,0.0105307,0.140533,20.9434,-323.692,0.381851,0.0,0.0
4041,1010,51.1618,53.0274,140.13,98.5362,94.4724,0.0104332,0.140882,20.9434,-323.702,0.378002,0.0,0.0
4050,1012.25,51.0305,52.7502,137.83,98.5233,94.5605,0.0102891,0.140253,20.9434,-323.732,0.368467,0.0,0.0
4059,1014.5,50.6068,53.3551,138.774,98.5213,94.7353,0.0102987,0.14046,20.9434,-323.762,0.351709,0.0,0.0
4068,1016.75,51.5627,53.4057,137.015,98.5185,94.544,0.0104994,0.140843,20.9434,-323.802,0.369593,0.0,0.0
4077,1019,51.0391,52.8797,136.728,98.4988,94.563,0.0105702,0.141622,20.9434,-323.832,0.365987,0.0,0.0
4086,1021.25,50.2564,52.7834,137.318,98.5137,94.5986,0.0105338,0.141361,20.9434,-323.852,0.363972,0.0,0.0
4095,1023.5,51.1131,52.871,140.369,98.5028,94.8009,0.0106248,0.140837,20.9434,-323.892,0.343807,0.0,0.0
4104,1025.75,50.8939,53.1359,138.976,98.5233,94.0949,0.0106707,0.140756,20.9434,-323.942,0.412763,0.0,0.0
4113,1028,51.3399,52.9073,137.93,98.5262,94.4386,0.0106489,0.140782,20.9427,-323.952,0.3803,0.0,0.0
4122,1030.25,50.7446,53.5488,140.552,98.5544,94.624,0.0106629,0.141864,20.9418,-323.992,0.365271,0.0,0.0
4131,1032.5,51.2662,53.0033,136.425,98.556,94.7598,0.0107049,0.142379,20.9413,-324.052,0.352541,0.0,0.0
4140,1034.75,51.8569,52.7778,138.205,98.5882,94.5148,0.0107175,0.14272,20.9425,-324.072,0.378716,0.0,0.0
4149,1037,51.227,53.3079,137.006,98.61,94.4877,0.0108857,0.142094,20.9439,-324.092,0.38327,0.0,0.0
4158,1039.25,51.2643,52.8981,137.575,98.6197,94.9037,0.0110832,0.141498,20.9444,-324.122,0.344719,0.0,0.0
4167,1041.5,50.9277,52.8156,135.408,98.6547,95.0133,0.0111216,0.141256,20.9452,-324.172,0.337549,0.0,0.0
4176,1043.75,50.625,52.9662,140.53,98.6926,94.5406,0.0110456,0.141163,20.9463,-324.202,0.385763,0.0,0.0
4185,1046,51.4594,53.2435,135.767,98.72,94.748,0.0109778,0.141378,20.9463,-324.222,0.368589,0.0,0.0
4194,1048.25,50.8795,53.2734,138.963,98.743,94.6726,0.0110267,0.142128,20.9453,-324.252,0.377816,0.0,0.0
4203,1050.5,50.8396,53.0404,138.972,98.7724,94.9316,0.0110811,0.142683,20.9449,-324.282,0.355968,0.0,0.0
4212,1052.75,51.0347,53.0848,138.9,98.8111,94.7492,0.0111221,0.142827,20.9446,-324.312,0.376745,0.0,0.0
4221,1055,51.1708,53.1824,140.328,98.8703,94.5816,0.0110908,0.14254,20.9432,-324.372,0.398014,0.0,0.0
4230,1057.25,50.8466,53.3321,138.328,98.8845,95.0717,0.0110264,0.14289,20.9421,-324.382,0.352908,0.0,0.0
4239,1059.5,50.7892,52.9901,136.714,98.9143,94.9528,0.0110561,0.143289,20.9415,-324.402,0.366848,0.0,0.0
4248,1061.75,50.6198,53.2383,138.422,98.9659,95.0121,0.0111561,0.143632,20.9412,-324.482,0.36593,0.0,0.0
4257,1064,51.0833,53.0581,132.618,98.9977,94.8169,0.0111799,0.143588,20.9416,-324.512,0.387266,0.0,0.0
4266,1066.25,50.6875,53.1437,135.253,99.0477,95.164,,0.142007,,-324.522,0.359005,0.0,0.0
4275,1068.5,51.0942,53.0793,137.505,99.1013,95.1598,,,,-324.562,0.36426,0.0,0.0
4284,1070.75,50.8749,52.8751,140.843,99.1307,95.321,,,,-324.602,0.351728,0.0,0.0
4293,1073,50.7469,52.6867,146.15,99.167,95.1712,,,,-324.622,0.369129,0.0,0.0
4302,1075.25,50.6809,53.0855,139.792,99.2169,95.2529,,,,-324.672,0.365953,0.0,0.0
4306,1076.25,50.3989,52.5377,139.34,99.2315,95.1174,,,,-324.693,0.380035,0.0,0.0