File: 01_Data/HDPE/STA/N2/30K_min/HDPE_STA_N2_30KData_21109_R2.csv
##Temp./Â°C,Time/min,Mass loss(subtr.2)/mg,DSC(subtr.2)/(mW/mg),Sensit./(uV/mW)
49.333,10.01,-0.02446,-0.01248635,1.05401
49.833,10.97981,-0.0269847,0.02349941,1.05402
50.333,11.18806,-0.02425802,0.05202766,1.05403
50.833,11.33158,-0.02544558,0.08043392,1.05404
51.333,11.44558,-0.02662721,0.10335,1.05404
51.833,11.5394,-0.02836672,0.12762,1.05405
52.333,11.62275,-0.02136519,0.14741,1.05405
52.833,11.69857,-0.02245299,0.16846,1.05406
53.333,11.7667,-0.02424927,0.18652,1.05406
53.833,11.82956,-0.02741535,0.20683,1.05406
54.333,11.8886,-0.024201,0.22171,1.05406
54.833,11.9446,-0.0265055,0.24118,1.05406
55.333,11.99732,-0.02364882,0.25446,1.05406
55.833,12.04831,-0.02786024,0.27239,1.05405
56.333,12.0967,-0.02789414,0.28659,1.05405
56.833,12.1434,-0.02675542,0.30006,1.05404
57.333,12.18876,-0.0271934,0.31537,1.05404
57.833,12.23283,-0.02481641,0.32831,1.05403
58.333,12.27581,-0.02455017,0.34267,1.05402
58.833,12.3171,-0.02264222,0.35404,1.05401
59.333,12.35717,-0.02373849,0.36795,1.05399
59.833,12.39639,-0.0222232,0.37857,1.05398
60.333,12.4351,-0.02475208,0.3893,1.05397
60.833,12.47343,-0.02398064,0.40037,1.05395
61.333,12.50964,-0.02757664,0.41004,1.05393
61.833,12.5464,-0.03284386,0.42028,1.05392
62.333,12.5831,-0.03546058,0.42874,1.0539
62.833,12.61888,-0.03021742,0.4401,1.05388
63.333,12.65405,-0.02732069,0.44695,1.05385
63.833,12.68853,-0.02717159,0.45423,1.05383
64.333,12.7225,-0.0267252,0.46327,1.05381
64.833,12.75586,-0.02809737,0.46892,1.05378
65.333,12.78887,-0.02838984,0.47786,1.05375
65.833,12.82152,-0.02985274,0.48384,1.05373
66.333,12.8542,-0.0298643,0.48817,1.0537
66.833,12.88653,-0.02975996,0.49539,1.05367
67.333,12.91883,-0.03009532,0.49973,1.05364
67.833,12.95042,-0.0287374,0.50818,1.0536
68.333,12.9816,-0.02723182,0.5122,1.05357
68.833,13.0123,-0.02626594,0.51892,1.05353
69.333,13.04305,-0.0263566,0.52327,1.0535
69.833,13.07369,-0.02819258,0.52702,1.05346
70.333,13.10411,-0.03006717,0.53036,1.05342
70.833,13.13406,-0.03008143,0.53397,1.05338
71.333,13.1637,-0.02912494,0.54109,1.05334
71.833,13.19316,-0.02582117,0.5465,1.0533
72.333,13.22251,-0.02327333,0.54997,1.05326
72.833,13.2515,-0.02529663,0.55727,1.05321
73.333,13.2803,-0.02622866,0.55911,1.05317
73.833,13.3088,-0.03039177,0.56277,1.05312
74.333,13.33748,-0.03231636,0.56604,1.05307
74.833,13.36594,-0.03215596,0.57001,1.05302
75.333,13.3942,-0.03170983,0.57618,1.05297
75.833,13.42225,-0.03109365,0.57985,1.05292
76.333,13.45014,-0.03005791,0.58483,1.05287
76.833,13.4778,-0.029761,0.5903,1.05281
77.333,13.5053,-0.02977424,0.59422,1.05276
77.833,13.5327,-0.02972291,0.60009,1.0527
78.333,13.5598,-0.0297319,0.60335,1.05264
78.833,13.58664,-0.02783059,0.61093,1.05259
79.333,13.6134,-0.02574713,0.61677,1.05253
79.833,13.6401,-0.02565173,0.62146,1.05246
80.333,13.6666,-0.02499611,0.62618,1.0524
80.833,13.6928,-0.02592386,0.63113,1.05234
81.333,13.7187,-0.02781606,0.63601,1.05227
81.833,13.7445,-0.02918536,0.64288,1.05221
82.333,13.7703,-0.02992867,0.64682,1.05214
82.833,13.79582,-0.03053594,0.65237,1.05207
83.333,13.8213,-0.02895277,0.65587,1.05201
83.833,13.84671,-0.02694327,0.66368,1.05194
84.333,13.8717,-0.02591509,0.66694,1.05186
84.833,13.89683,-0.02602126,0.67349,1.05179
85.333,13.92169,-0.02681572,0.67957,1.05172
85.833,13.94639,-0.02765156,0.68554,1.05164
86.333,13.97088,-0.02894284,0.68922,1.05157
86.833,13.9954,-0.03040317,0.69662,1.05149
87.333,14.01961,-0.02946939,0.70195,1.05141
87.833,14.04385,-0.02909158,0.70795,1.05133
88.333,14.068,-0.0296412,0.71265,1.05125
88.833,14.0917,-0.03099365,0.71749,1.05117
89.333,14.11546,-0.03032632,0.72414,1.05109
89.833,14.13895,-0.0311228,0.73043,1.051
90.333,14.1623,-0.03147922,0.73616,1.05092
90.833,14.1857,-0.03141124,0.7434,1.05083
91.333,14.20899,-0.03190755,0.74718,1.05075
91.833,14.23196,-0.03168759,0.7525,1.05066
92.333,14.25487,-0.03082206,0.76181,1.05057
92.833,14.27767,-0.02952252,0.7662,1.05048
93.333,14.3004,-0.02940989,0.77076,1.05039
93.833,14.32311,-0.02927126,0.7789,1.05029
94.333,14.3457,-0.03055691,0.78694,1.0502
94.833,14.3681,-0.0296352,0.79437,1.0501
95.333,14.39037,-0.03084575,0.80033,1.05001
95.833,14.41245,-0.02985711,0.80634,1.04991
96.333,14.43449,-0.03095164,0.81389,1.04981
96.833,14.45646,-0.03094967,0.81966,1.04971
97.333,14.4783,-0.03088728,0.82544,1.04961
97.833,14.50015,-0.02950809,0.83332,1.04951
98.333,14.5219,-0.03030977,0.83918,1.04941
98.833,14.54333,-0.03068045,0.84626,1.0493
99.333,14.5648,-0.03145914,0.85305,1.0492
99.833,14.5861,-0.0321675,0.86085,1.04909
100.333,14.60726,-0.03214567,0.86757,1.04898
100.833,14.62841,-0.03094468,0.87467,1.04887
101.333,14.6495,-0.02942282,0.88144,1.04876
101.833,14.67066,-0.03017789,0.8901,1.04865
102.333,14.6917,-0.02915905,0.89756,1.04854
102.833,14.7126,-0.03069734,0.90405,1.04843
103.333,14.7333,-0.03036837,0.91171,1.04832
103.833,14.75397,-0.03012933,0.9201,1.0482
104.333,14.7745,-0.02944032,0.92704,1.04808
104.833,14.795,-0.02999457,0.93557,1.04797
105.333,14.81543,-0.03062641,0.94304,1.04785
105.833,14.83585,-0.03188095,0.95167,1.04773
106.333,14.85621,-0.0328249,0.95838,1.04761
106.833,14.8764,-0.03246076,0.96973,1.04749
107.333,14.89671,-0.03234381,0.97779,1.04736
107.833,14.9168,-0.03088059,0.9858,1.04724
108.333,14.9368,-0.03082141,0.99633,1.04711
108.833,14.9568,-0.03069178,1.00484,1.04699
109.333,14.9766,-0.02943539,1.01392,1.04686
109.833,14.9964,-0.02951898,1.0264,1.04673
110.333,15.01627,-0.0289281,1.03511,1.0466
110.833,15.03599,-0.02873399,1.04621,1.04647
111.333,15.05574,-0.028272,1.05552,1.04634
111.833,15.0754,-0.02756778,1.06699,1.04621
112.333,15.09506,-0.02847156,1.07724,1.04608
112.833,15.1145,-0.02894441,1.08853,1.04594
113.333,15.13405,-0.02940405,1.10079,1.04581
113.833,15.1535,-0.0305526,1.1116,1.04567
114.333,15.1729,-0.03036931,1.12389,1.04553
114.833,15.1921,-0.03120534,1.13768,1.04539
115.333,15.2114,-0.03280425,1.14815,1.04525
115.833,15.23059,-0.03435954,1.16515,1.04511
116.333,15.24966,-0.03338231,1.17961,1.04497
116.833,15.2687,-0.03240148,1.19372,1.04483
117.333,15.28771,-0.03084888,1.20952,1.04468
117.833,15.3066,-0.03082192,1.22782,1.04454
118.333,15.3254,-0.03081116,1.24364,1.04439
118.833,15.3442,-0.0306866,1.26227,1.04424
119.333,15.3631,-0.03051497,1.28201,1.0441
119.833,15.3818,-0.03062489,1.30342,1.04395
120.333,15.40058,-0.03180531,1.32521,1.0438
120.833,15.4192,-0.03175549,1.34927,1.04364
121.333,15.43789,-0.03311787,1.37626,1.04349
121.833,15.45643,-0.03268463,1.40166,1.04334
122.333,15.475,-0.03369675,1.43033,1.04318
122.833,15.49346,-0.03234491,1.45938,1.04303
123.333,15.51193,-0.03246106,1.49449,1.04287
123.833,15.5303,-0.03206808,1.53037,1.04271
124.333,15.54868,-0.03349186,1.56907,1.04256
124.833,15.56696,-0.03460989,1.61073,1.0424
125.333,15.5852,-0.0348558,1.65827,1.04223
125.833,15.60346,-0.03489421,1.70918,1.04207
126.333,15.62166,-0.03446954,1.76585,1.04191
126.833,15.63975,-0.03454345,1.82854,1.04175
127.333,15.6578,-0.03321033,1.89505,1.04158
127.833,15.67591,-0.03398533,1.97171,1.04141
128.333,15.6939,-0.03411817,2.05258,1.04125
128.833,15.7119,-0.03297362,2.14149,1.04108
129.333,15.7299,-0.03268898,2.23986,1.04091
129.833,15.7478,-0.03263614,2.34758,1.04074
130.333,15.7657,-0.03247866,2.46425,1.04057
130.833,15.7837,-0.03188644,2.59133,1.0404
131.333,15.80149,-0.03255868,2.7285,1.04022
131.833,15.8193,-0.03258157,2.87736,1.04005
132.333,15.8372,-0.03260378,3.03816,1.03988
132.833,15.855,-0.03302894,3.20748,1.0397
133.333,15.8728,-0.03401543,3.38643,1.03952
133.833,15.89054,-0.0339945,3.57456,1.03934
134.333,15.9082,-0.03454773,3.75951,1.03917
134.833,15.92591,-0.03416316,3.95514,1.03899
135.333,15.94356,-0.03373072,4.14359,1.0388
135.833,15.96115,-0.03209406,4.3258,1.03862
136.333,15.97889,-0.03070449,4.4973,1.03844
136.833,15.9966,-0.03084265,4.66231,1.03826
137.333,16.01415,-0.03010032,4.81495,1.03807
137.833,16.03155,-0.02969127,4.96082,1.03788
138.333,16.0491,-0.02883479,5.10746,1.0377
138.833,16.06653,-0.02885828,5.24873,1.03751
139.333,16.08399,-0.02871931,5.3781,1.03732
139.833,16.10139,-0.0287424,5.49271,1.03713
140.333,16.11889,-0.02885258,5.59494,1.03694
140.833,16.1361,-0.02996894,5.67677,1.03675
141.333,16.1535,-0.03035319,5.74434,1.03655
141.833,16.17077,-0.02998142,5.79053,1.03636
142.333,16.18807,-0.02900099,5.8212,1.03617
142.833,16.2054,-0.02851943,5.83436,1.03597
143.333,16.22279,-0.02810681,5.82102,1.03577
143.833,16.23994,-0.0277563,5.78097,1.03557
144.333,16.25706,-0.02746296,5.72312,1.03538
144.833,16.27405,-0.02823366,5.64747,1.03518
145.333,16.29105,-0.0293799,5.54911,1.03498
145.833,16.30789,-0.02914793,5.42215,1.03477
146.333,16.32467,-0.02813229,5.27422,1.03457
146.833,16.3414,-0.02771747,5.10275,1.03437
147.333,16.35803,-0.02671861,4.90217,1.03416
147.833,16.37464,-0.02675261,4.68321,1.03396
148.333,16.3912,-0.02676076,4.45465,1.03375
148.833,16.40767,-0.02807395,4.2283,1.03354
149.333,16.42408,-0.02835714,4.00754,1.03334
149.833,16.44047,-0.02883908,3.79129,1.03313
150.333,16.4568,-0.02886808,3.59359,1.03292
150.833,16.47287,-0.03012531,3.40771,1.0327
151.333,16.4891,-0.03002232,3.23008,1.03249
151.833,16.50529,-0.03112481,3.06848,1.03228
152.333,16.52144,-0.03136075,2.91677,1.03207
152.833,16.53752,-0.03137212,2.7808,1.03185
153.333,16.55368,-0.03137299,2.65575,1.03163
153.833,16.56982,-0.03136855,2.54196,1.03142
154.333,16.5858,-0.0310444,2.43453,1.0312
154.833,16.60175,-0.03000076,2.34133,1.03098
155.333,16.61766,-0.02891803,2.25464,1.03076
155.833,16.63355,-0.02877024,2.17361,1.03054
156.333,16.64945,-0.02870859,2.10218,1.03032
156.833,16.66526,-0.03048294,2.03776,1.0301
157.333,16.68114,-0.03137271,1.97797,1.02987
157.833,16.69689,-0.03137211,1.9249,1.02965
158.333,16.71272,-0.03205297,1.87498,1.02942
158.833,16.72842,-0.0330339,1.82957,1.0292
159.333,16.74417,-0.03418257,1.78983,1.02897
159.833,16.75992,-0.03356807,1.75227,1.02874
160.333,16.77563,-0.03322875,1.71986,1.02852
160.833,16.79138,-0.03322993,1.68999,1.02829
161.333,16.80704,-0.03323002,1.6628,1.02805
161.833,16.82274,-0.03323,1.6391,1.02782
162.333,16.8384,-0.03323,1.61641,1.02759
162.833,16.8541,-0.03322997,1.59605,1.02736
163.333,16.86973,-0.03323002,1.57894,1.02712
163.833,16.8854,-0.03323179,1.56325,1.02689
164.333,16.901,-0.03323477,1.54917,1.02665
164.833,16.91668,-0.03313451,1.5358,1.02641
165.333,16.93226,-0.03437561,1.52445,1.02618
165.833,16.9478,-0.03454793,1.51547,1.02594
166.333,16.9633,-0.03521422,1.50852,1.0257
166.833,16.9788,-0.03476447,1.4989,1.02546
167.333,16.99434,-0.0346931,1.48932,1.02522
167.833,17.00979,-0.03465968,1.48339,1.02497
168.333,17.0253,-0.03460885,1.47896,1.02473
168.833,17.04075,-0.03308317,1.47419,1.02449
169.333,17.05612,-0.03315472,1.47024,1.02424
169.833,17.0716,-0.03313097,1.46667,1.024
170.333,17.087,-0.03313727,1.46558,1.02375
170.833,17.10241,-0.03318294,1.46059,1.0235
171.333,17.1178,-0.03225929,1.45972,1.02325
171.833,17.1331,-0.03211941,1.45723,1.023
172.333,17.14858,-0.0315778,1.45697,1.02275
172.833,17.164,-0.0323229,1.45673,1.0225
173.333,17.17932,-0.03302193,1.45402,1.02225
173.833,17.19465,-0.03387933,1.455,1.022
174.333,17.21,-0.03443008,1.45532,1.02174
174.833,17.22542,-0.0347182,1.45611,1.02149
175.333,17.2407,-0.0358823,1.45577,1.02123
175.833,17.25593,-0.03584615,1.45715,1.02098
176.333,17.27117,-0.0358599,1.45685,1.02072
176.833,17.2864,-0.03702789,1.45621,1.02046
177.333,17.30155,-0.03742951,1.46028,1.0202
177.833,17.31673,-0.03871898,1.46118,1.01994
178.333,17.33191,-0.03891428,1.46403,1.01968
178.833,17.34704,-0.03893562,1.46506,1.01942
179.333,17.36213,-0.03894534,1.46579,1.01916
179.833,17.37724,-0.03855456,1.46774,1.0189
180.333,17.39234,-0.03661493,1.47124,1.01863
180.833,17.40738,-0.0360252,1.47321,1.01837
181.333,17.42245,-0.03479128,1.47321,1.0181
181.833,17.43744,-0.03488867,1.47788,1.01784
182.333,17.45244,-0.03484422,1.48022,1.01757
182.833,17.4674,-0.03541267,1.47991,1.0173
183.333,17.4823,-0.03509697,1.48315,1.01703
183.833,17.4973,-0.03486853,1.48452,1.01676
184.333,17.51206,-0.03487874,1.4906,1.01649
184.833,17.52686,-0.03488027,1.49177,1.01622
185.333,17.54165,-0.03488007,1.49478,1.01595
185.833,17.5566,-0.03487946,1.49578,1.01568
186.333,17.57151,-0.03487784,1.49719,1.0154
186.833,17.58638,-0.03490842,1.5011,1.01513
187.333,17.6014,-0.03498236,1.50432,1.01485
187.833,17.61637,-0.03634725,1.5068,1.01458
188.333,17.63138,-0.03689778,1.51053,1.0143
188.833,17.64619,-0.03818772,1.51292,1.01402
189.333,17.66094,-0.0381256,1.51869,1.01374
189.833,17.67569,-0.03931869,1.51936,1.01346
190.333,17.6905,-0.03936976,1.52192,1.01318
190.833,17.70524,-0.03935661,1.52267,1.0129
191.333,17.71996,-0.03937124,1.52775,1.01262
191.833,17.73465,-0.03836592,1.5305,1.01234
192.333,17.74925,-0.03801696,1.53309,1.01205
192.833,17.76397,-0.03931644,1.53757,1.01177
193.333,17.77867,-0.03884038,1.54073,1.01148
193.833,17.7933,-0.03789264,1.54293,1.0112
194.333,17.80798,-0.03776827,1.5448,1.01091
194.833,17.82264,-0.03654264,1.54773,1.01062
195.333,17.8374,-0.03664336,1.55199,1.01034
195.833,17.852,-0.03663171,1.55501,1.01005
196.333,17.86657,-0.0366275,1.55564,1.00976
196.833,17.88117,-0.03662292,1.55909,1.00947
197.333,17.89572,-0.03576674,1.56287,1.00918
197.833,17.9102,-0.03675818,1.56539,1.00888
198.333,17.9248,-0.03670568,1.56878,1.00859
198.833,17.93937,-0.03674103,1.56853,1.0083
199.333,17.95393,-0.03674002,1.57508,1.008
199.833,17.96844,-0.03674217,1.57613,1.00771
200.333,17.98299,-0.03676693,1.58028,1.00741
200.833,17.99757,-0.03630513,1.58259,1.00711
201.333,18.0121,-0.03515735,1.58638,1.00682
201.833,18.02664,-0.03484536,1.58829,1.00652
202.333,18.0411,-0.03374118,1.5925,1.00622
202.833,18.05564,-0.03388975,1.59196,1.00592
203.333,18.07013,-0.03277921,1.59666,1.00562
203.833,18.08461,-0.03244711,1.59926,1.00532
204.333,18.09906,-0.03247193,1.60557,1.00502
204.833,18.11345,-0.03274553,1.60696,1.00471
205.333,18.12785,-0.03444247,1.60891,1.00441
205.833,18.14219,-0.03547999,1.60937,1.0041
206.333,18.1566,-0.03541898,1.61335,1.0038
206.833,18.1709,-0.0354294,1.61603,1.00349
207.333,18.18528,-0.0354321,1.61999,1.00319
207.833,18.19966,-0.03542867,1.62186,1.00288
208.333,18.21404,-0.0353508,1.62646,1.00257
208.833,18.22844,-0.03627825,1.62736,1.00226
209.333,18.2427,-0.03680915,1.63307,1.00195
209.833,18.25708,-0.03605307,1.63727,1.00164
210.333,18.2714,-0.03543227,1.63731,1.00133
210.833,18.28571,-0.03533683,1.64006,1.00102
211.333,18.3,-0.03641026,1.64412,1.00071
211.833,18.31431,-0.03675274,1.64515,1.0004
212.333,18.3286,-0.03672407,1.64679,1.00008
212.833,18.3429,-0.03652732,1.64885,0.99977
213.333,18.35719,-0.0365435,1.65466,0.99945
213.833,18.37148,-0.03673379,1.65456,0.99914
214.333,18.38574,-0.03675547,1.6562,0.99882
214.833,18.4,-0.03675001,1.65922,0.9985
215.333,18.41429,-0.03674987,1.66193,0.99818
215.833,18.4285,-0.03675001,1.66334,0.99787
216.333,18.44279,-0.03675,1.6664,0.99755
216.833,18.45704,-0.03674999,1.66779,0.99723
217.333,18.47129,-0.03674997,1.67242,0.9969
217.833,18.48548,-0.03675045,1.67577,0.99658
218.333,18.4997,-0.03674968,1.67859,0.99626
218.833,18.51383,-0.03673149,1.6801,0.99594
219.333,18.52794,-0.03682383,1.68242,0.99561
219.833,18.54205,-0.0355801,1.68632,0.99529
220.333,18.5562,-0.0360002,1.68746,0.99496
220.833,18.57033,-0.03685106,1.68947,0.99464
221.333,18.58449,-0.03704371,1.69384,0.99431
221.833,18.59866,-0.03855764,1.69199,0.99398
222.333,18.61288,-0.04015494,1.69769,0.99366
222.833,18.62708,-0.04129515,1.70011,0.99333
223.333,18.6413,-0.04183674,1.70416,0.993
223.833,18.65543,-0.04326409,1.70647,0.99267
224.333,18.66955,-0.04308365,1.71047,0.99234
224.833,18.6836,-0.04430393,1.71075,0.99201
225.333,18.69771,-0.04442882,1.714,0.99168
225.833,18.71177,-0.044449,1.71604,0.99134
226.333,18.72583,-0.04391316,1.71713,0.99101
226.833,18.7399,-0.04245789,1.72197,0.99068
227.333,18.75395,-0.04173973,1.72519,0.99034
227.833,18.76802,-0.04179436,1.72708,0.99001
228.333,18.78216,-0.04178485,1.72968,0.98967
228.833,18.7962,-0.04184254,1.73184,0.98933
229.333,18.81031,-0.04110443,1.73556,0.989
229.833,18.82426,-0.04041928,1.73447,0.98866
230.333,18.83831,-0.04047354,1.73786,0.98832
230.833,18.85241,-0.04107897,1.7411,0.98798
231.333,18.8664,-0.04211383,1.74317,0.98764
231.833,18.88046,-0.04203045,1.74656,0.9873
232.333,18.89445,-0.04282845,1.74954,0.98696
232.833,18.90842,-0.04180313,1.75058,0.98662
233.333,18.9224,-0.04175456,1.75323,0.98628
233.833,18.9364,-0.04099302,1.75583,0.98593
234.333,18.9503,-0.04014849,1.75682,0.98559
234.833,18.96426,-0.03919423,1.7618,0.98524
235.333,18.97823,-0.03835317,1.76212,0.9849
235.833,18.99223,-0.03789697,1.76454,0.98455
236.333,19.0062,-0.03735529,1.76653,0.98421
236.833,19.02015,-0.03739964,1.77118,0.98386
237.333,19.0341,-0.03740113,1.77225,0.98351
237.833,19.0481,-0.03739989,1.77577,0.98317
238.333,19.06204,-0.03739998,1.77532,0.98282
238.833,19.07595,-0.0374,1.77765,0.98247
239.333,19.08989,-0.0374,1.7805,0.98212
239.833,19.1038,-0.03740011,1.78093,0.98177
240.333,19.11768,-0.03739952,1.78457,0.98142
240.833,19.13156,-0.03739776,1.78732,0.98106
241.333,19.14547,-0.03742753,1.78937,0.98071
241.833,19.15934,-0.0373636,1.7904,0.98036
242.333,19.17322,-0.03874544,1.79456,0.98001
242.833,19.1871,-0.03894921,1.79638,0.97965
243.333,19.201,-0.03894065,1.79822,0.9793
243.833,19.2149,-0.03893755,1.80033,0.97894
244.333,19.22881,-0.03894499,1.80397,0.97859
244.833,19.2426,-0.03900511,1.80435,0.97823
245.333,19.2565,-0.03820847,1.80638,0.97787
245.833,19.27042,-0.03863226,1.80828,0.97751
246.333,19.2843,-0.03891754,1.81255,0.97716
246.833,19.29814,-0.03900303,1.8151,0.9768
247.333,19.31195,-0.03781291,1.81465,0.97644
247.833,19.32576,-0.03761418,1.81877,0.97608
248.333,19.33962,-0.03762012,1.82169,0.97572
248.833,19.35345,-0.03762011,1.82208,0.97535
249.333,19.36725,-0.03762012,1.82501,0.97499
249.833,19.38104,-0.03762038,1.82473,0.97463
250.333,19.39489,-0.03761304,1.82674,0.97427
250.833,19.4087,-0.03763696,1.83121,0.9739
251.333,19.42246,-0.03782972,1.83289,0.97354
251.833,19.43623,-0.03909204,1.83407,0.97318
252.333,19.45,-0.03915993,1.83812,0.97281
252.833,19.4638,-0.03917542,1.83769,0.97244
253.333,19.47757,-0.03909706,1.84185,0.97208
253.833,19.49139,-0.03986879,1.84248,0.97171
254.333,19.50521,-0.03975292,1.84408,0.97134
254.833,19.51904,-0.04040084,1.84766,0.97098
255.333,19.53286,-0.04117893,1.84837,0.97061
255.833,19.5467,-0.04112091,1.8509,0.97024
256.333,19.56052,-0.04112972,1.8508,0.96987
256.833,19.57431,-0.04113028,1.85354,0.9695
257.333,19.5881,-0.04112992,1.85627,0.96913
257.833,19.60187,-0.04112964,1.85934,0.96876
258.333,19.61562,-0.04113359,1.85823,0.96838
258.833,19.6294,-0.04112556,1.86184,0.96801
259.333,19.64312,-0.04099111,1.86305,0.96764
259.833,19.65685,-0.03996407,1.86595,0.96726
260.333,19.67062,-0.0398246,1.86795,0.96689
260.833,19.6843,-0.03981636,1.86692,0.96652
261.333,19.69799,-0.03981999,1.86929,0.96614
261.833,19.71171,-0.03981776,1.87137,0.96576
262.333,19.72542,-0.03989795,1.87483,0.96539
262.833,19.73912,-0.04107267,1.87704,0.96501
263.333,19.7528,-0.04110286,1.87753,0.96463
263.833,19.76653,-0.04115342,1.8806,0.96426
264.333,19.78029,-0.04114258,1.88108,0.96388
264.833,19.794,-0.04184997,1.88248,0.9635
265.333,19.80767,-0.04177175,1.88472,0.96312
265.833,19.8214,-0.04178094,1.8899,0.96274
266.333,19.83514,-0.04175603,1.88925,0.96236
266.833,19.8489,-0.04183221,1.89199,0.96198
267.333,19.8626,-0.04062946,1.89399,0.9616
267.833,19.8763,-0.04046463,1.89421,0.96122
268.333,19.88997,-0.04047001,1.89754,0.96083
268.833,19.9037,-0.04047014,1.89947,0.96045
269.333,19.91734,-0.04046998,1.90216,0.96007
269.833,19.931,-0.04047,1.90389,0.95968
270.333,19.94466,-0.04047001,1.90449,0.9593
270.833,19.95831,-0.04046997,1.90729,0.95891
271.333,19.972,-0.0404698,1.90945,0.95853
271.833,19.9857,-0.04047192,1.9113,0.95814
272.333,19.99933,-0.04046744,1.91217,0.95776
272.833,20.01298,-0.04109616,1.91346,0.95737
273.333,20.02665,-0.04184629,1.91663,0.95698
273.833,20.04032,-0.04178266,1.91755,0.9566
274.333,20.05396,-0.04251854,1.92009,0.95621
274.833,20.06762,-0.04314598,1.91948,0.95582
275.333,20.08124,-0.04310407,1.92149,0.95543
275.833,20.0949,-0.04309826,1.92365,0.95504
276.333,20.10857,-0.04310005,1.92661,0.95465
276.833,20.12221,-0.04309922,1.92747,0.95426
277.333,20.1359,-0.04310686,1.92898,0.95387
277.833,20.14947,-0.04309258,1.93134,0.95348
278.333,20.1631,-0.04284659,1.93284,0.95308
278.833,20.17675,-0.04179447,1.93174,0.95269
279.333,20.1904,-0.04176831,1.93533,0.9523
279.833,20.20399,-0.04080802,1.93776,0.95191
280.333,20.2176,-0.04044497,1.93863,0.95151
280.833,20.23121,-0.0404679,1.94111,0.95112
281.333,20.24494,-0.04047094,1.94124,0.95072
281.833,20.25856,-0.04046992,1.94234,0.95033
282.333,20.27219,-0.04046995,1.94589,0.94993
282.833,20.2858,-0.04047026,1.94684,0.94954
283.333,20.29952,-0.04046975,1.948,0.94914
283.833,20.31319,-0.0404613,1.95204,0.94874
284.333,20.32678,-0.04052016,1.95382,0.94834
284.833,20.34038,-0.03978879,1.95506,0.94795
285.333,20.35405,-0.03910765,1.95592,0.94755
285.833,20.3677,-0.0391664,1.95786,0.94715
286.333,20.38126,-0.03916059,1.96033,0.94675
286.833,20.39489,-0.03915986,1.96246,0.94635
287.333,20.4085,-0.03915969,1.96104,0.94595
287.833,20.42223,-0.039157,1.96821,0.94555
288.333,20.43586,-0.03918577,1.96366,0.94515
288.833,20.4495,-0.03913198,1.96876,0.94475
289.333,20.46312,-0.04033487,1.96902,0.94435
289.833,20.47682,-0.04047447,1.97108,0.94394
290.333,20.49043,-0.04046962,1.97278,0.94354
290.833,20.5041,-0.04049092,1.97516,0.94314
291.333,20.5177,-0.040385,1.97785,0.94274
291.833,20.53136,-0.04156029,1.97807,0.94233
292.333,20.54499,-0.0417785,1.97968,0.94193
292.833,20.5586,-0.04179729,1.98143,0.94152
293.333,20.57219,-0.0419586,1.9838,0.94112
293.833,20.5858,-0.04326712,1.98492,0.94071
294.333,20.59941,-0.04328886,1.9865,0.94031
294.833,20.613,-0.04513658,1.9888,0.9399
295.333,20.62663,-0.04602999,1.99149,0.93949
295.833,20.6402,-0.04596092,1.98941,0.93909
296.333,20.65381,-0.04595812,1.99429,0.93868
296.833,20.66741,-0.04595978,1.99448,0.93827
297.333,20.681,-0.04595868,1.99464,0.93786
297.833,20.69452,-0.0460153,1.99776,0.93745
298.333,20.70809,-0.04712528,1.99922,0.93704
298.833,20.72165,-0.04722433,2.00029,0.93664
299.333,20.73525,-0.04772795,2.00097,0.93623
299.833,20.74885,-0.04874111,2.00268,0.93582
300.333,20.7624,-0.04741016,2.00719,0.93541
300.833,20.776,-0.04715847,2.00741,0.93499
301.333,20.78966,-0.04717023,2.00777,0.93458
301.833,20.80324,-0.04717045,2.00992,0.93417
302.333,20.8169,-0.04716897,2.01402,0.93376
302.833,20.83045,-0.04716892,2.01138,0.93335
303.333,20.84403,-0.04721162,2.01324,0.93293
303.833,20.85765,-0.04670411,2.01457,0.93252
304.333,20.87124,-0.0458198,2.01641,0.93211
304.833,20.88484,-0.04586148,2.0182,0.93169
305.333,20.89839,-0.04585379,2.0211,0.93128
305.833,20.91197,-0.04588717,2.02312,0.93086
306.333,20.92557,-0.04532333,2.02222,0.93045
306.833,20.93914,-0.0445341,2.02554,0.93003
307.333,20.95265,-0.04453791,2.02509,0.92962
307.833,20.96621,-0.04561949,2.02704,0.9292
308.333,20.9798,-0.04488287,2.02857,0.92879
308.833,20.99338,-0.04452989,2.02879,0.92837
309.333,21.00696,-0.04452955,2.03081,0.92795
309.833,21.02056,-0.04452933,2.03182,0.92754
310.333,21.03419,-0.0445515,2.03307,0.92712
310.833,21.0478,-0.04444747,2.03495,0.9267
311.333,21.06148,-0.04562865,2.03875,0.92628
311.833,21.0751,-0.04585604,2.03804,0.92586
312.333,21.0887,-0.04585029,2.04083,0.92544
312.833,21.10231,-0.04525555,2.038,0.92502
313.333,21.11586,-0.0441858,2.0408,0.9246
313.833,21.12943,-0.04434259,2.0405,0.92418
314.333,21.14302,-0.04313171,2.04351,0.92376
314.833,21.1566,-0.04299744,2.04492,0.92334
315.333,21.17016,-0.04300062,2.04617,0.92292
315.833,21.18374,-0.04292823,2.0462,0.9225
316.333,21.1973,-0.04371844,2.04864,0.92208
316.833,21.21095,-0.04431222,2.0508,0.92166
317.333,21.22455,-0.04436235,2.05293,0.92123
317.833,21.23817,-0.04549594,2.0518,0.92081
318.333,21.25176,-0.04561067,2.05321,0.92039
318.833,21.26538,-0.04563601,2.05317,0.91997
319.333,21.27899,-0.04562995,2.0566,0.91954
319.833,21.29261,-0.04563409,2.05908,0.91912
320.333,21.30619,-0.04552147,2.05889,0.91869
320.833,21.3198,-0.0443247,2.0601,0.91827
321.333,21.33338,-0.04448537,2.06209,0.91784
321.833,21.34698,-0.0455697,2.06298,0.91742
322.333,21.36055,-0.0457342,2.06517,0.91699
322.833,21.3741,-0.04578712,2.06558,0.91657
323.333,21.3877,-0.04688079,2.06704,0.91614
323.833,21.4013,-0.04705002,2.06843,0.91572
324.333,21.41491,-0.04774277,2.06936,0.91529
324.833,21.42847,-0.04805717,2.06833,0.91486
325.333,21.4421,-0.04804276,2.06896,0.91444
325.833,21.45569,-0.0480458,2.07025,0.91401
326.333,21.46932,-0.04803097,2.07235,0.91358
326.833,21.4829,-0.04781088,2.07123,0.91315
327.333,21.49651,-0.04675739,2.07049,0.91273
327.833,21.51013,-0.04672828,2.07439,0.9123
328.333,21.52374,-0.04702504,2.07285,0.91187
328.833,21.5373,-0.04816952,2.07661,0.91144
329.333,21.55099,-0.04745179,2.07286,0.91101
329.833,21.56462,-0.04756486,2.07559,0.91058
330.333,21.57826,-0.04868175,2.07496,0.91015
330.833,21.59187,-0.04879207,2.07548,0.90972
331.333,21.6055,-0.04879067,2.07539,0.90929
331.833,21.61916,-0.04885118,2.07468,0.90886
332.333,21.6328,-0.04763639,2.07365,0.90843
332.833,21.64639,-0.04748326,2.07628,0.908
333.333,21.66005,-0.04748975,2.07722,0.90757
333.833,21.6737,-0.0467832,2.07435,0.90713
334.333,21.6874,-0.04612829,2.07517,0.9067
334.833,21.701,-0.0461729,2.07582,0.90627
335.333,21.7147,-0.04628446,2.0761,0.90584
335.833,21.7283,-0.04685856,2.07527,0.9054
336.333,21.74194,-0.04612048,2.07565,0.90497
336.833,21.75558,-0.04617677,2.0751,0.90454
337.333,21.76921,-0.04621168,2.07446,0.90411
337.833,21.78285,-0.04485991,2.07584,0.90367
338.333,21.79651,-0.04391536,2.07446,0.90324
338.833,21.81017,-0.04386766,2.07212,0.9028
339.333,21.8238,-0.04420126,2.07428,0.90237
339.833,21.83748,-0.04517133,2.07258,0.90194
340.333,21.85112,-0.04518715,2.0757,0.9015
340.833,21.86477,-0.04522092,2.07189,0.90107
341.333,21.8784,-0.0449056,2.07305,0.90063
341.833,21.89206,-0.04490707,2.07149,0.90019
342.333,21.9057,-0.04431158,2.07178,0.89976
342.833,21.9194,-0.04354267,2.07168,0.89932
343.333,21.93313,-0.04354199,2.07164,0.89889
343.833,21.94681,-0.04353917,2.07289,0.89845
344.333,21.96046,-0.04353945,2.0717,0.89801
344.833,21.97415,-0.04356144,2.07493,0.89758
345.333,21.9878,-0.04345727,2.072,0.89714
345.833,22.00153,-0.04464026,2.07527,0.8967
346.333,22.01517,-0.04489092,2.07432,0.89627
346.833,22.02886,-0.04480665,2.07552,0.89583
347.333,22.04254,-0.04601901,2.07513,0.89539
347.833,22.05622,-0.04618533,2.07777,0.89495
348.333,22.06991,-0.04617997,2.07664,0.89451
348.833,22.08357,-0.0461798,2.07783,0.89408
349.333,22.09723,-0.04618034,2.07997,0.89364
349.833,22.11091,-0.04618077,2.07921,0.8932
350.333,22.1246,-0.04619657,2.08347,0.89276
350.833,22.1383,-0.04767852,2.0796,0.89232
351.333,22.15198,-0.04798966,2.08591,0.89188
351.833,22.16565,-0.04952878,2.085,0.89144
352.333,22.1793,-0.05038823,2.08473,0.891
352.833,22.193,-0.05142562,2.08862,0.89056
353.333,22.20672,-0.05235521,2.08906,0.89012
353.833,22.22036,-0.05263464,2.09139,0.88968
354.333,22.23411,-0.05264708,2.09109,0.88924
354.833,22.24785,-0.05263959,2.09413,0.8888
355.333,22.26164,-0.05264203,2.09433,0.88836
355.833,22.27542,-0.05266745,2.09581,0.88792
356.333,22.2891,-0.05448566,2.09867,0.88748
356.833,22.30288,-0.0553044,2.09854,0.88704
357.333,22.3167,-0.05527894,2.10077,0.88659
357.833,22.33041,-0.05491172,2.10274,0.88615
358.333,22.34415,-0.0537416,2.10384,0.88571
358.833,22.35791,-0.05386217,2.101,0.88527
359.333,22.37169,-0.05385308,2.10426,0.88483
359.833,22.38544,-0.05383197,2.10552,0.88438
360.333,22.3992,-0.05387753,2.10753,0.88394
360.833,22.41296,-0.05241874,2.10597,0.8835
361.333,22.42674,-0.05147744,2.10832,0.88306
361.833,22.44054,-0.0515502,2.1103,0.88261
362.333,22.4543,-0.05146481,2.1134,0.88217
362.833,22.46807,-0.05237436,2.11328,0.88173
363.333,22.4818,-0.05298336,2.11575,0.88128
363.833,22.49559,-0.05430138,2.11609,0.88084
364.333,22.50935,-0.05316818,2.11598,0.8804
364.833,22.52309,-0.05252072,2.11711,0.87995
365.333,22.53685,-0.05117251,2.11522,0.87951
365.833,22.55065,-0.0507989,2.11909,0.87907
366.333,22.56448,-0.05055409,2.11862,0.87862
366.833,22.57824,-0.0495165,2.11881,0.87818
367.333,22.59204,-0.04929495,2.12174,0.87773
367.833,22.60584,-0.04870313,2.1231,0.87729
368.333,22.6196,-0.04959363,2.12345,0.87684
368.833,22.6334,-0.04832678,2.12659,0.8764
369.333,22.64724,-0.04927665,2.12882,0.87595
369.833,22.6611,-0.0481653,2.12934,0.87551
370.333,22.67493,-0.04818262,2.12637,0.87506
370.833,22.68875,-0.04920506,2.12956,0.87462
371.333,22.70257,-0.04925673,2.13081,0.87417
371.833,22.71647,-0.05027105,2.13569,0.87373
372.333,22.73026,-0.05056599,2.13499,0.87328
372.833,22.74406,-0.05058829,2.13794,0.87283
373.333,22.75783,-0.0505247,2.14059,0.87239
373.833,22.7717,-0.0513701,2.13959,0.87194
374.333,22.78557,-0.05192406,2.14296,0.8715
374.833,22.79939,-0.05187854,2.14462,0.87105
375.333,22.8132,-0.05187903,2.1452,0.8706
375.833,22.82712,-0.05188015,2.14698,0.87016
376.333,22.84102,-0.05188002,2.14615,0.86971
376.833,22.8549,-0.05187975,2.1497,0.86926
377.333,22.86867,-0.05188062,2.15122,0.86882
377.833,22.88254,-0.05188705,2.15435,0.86837
378.333,22.89641,-0.05182781,2.15408,0.86792
378.833,22.91028,-0.05256371,2.15813,0.86748
379.333,22.9241,-0.05325163,2.15923,0.86703
379.833,22.938,-0.05319472,2.15906,0.86658
380.333,22.95196,-0.05319921,2.16064,0.86613
380.833,22.9659,-0.05320022,2.16363,0.86569
381.333,22.9798,-0.0532,2.16474,0.86524
381.833,22.99371,-0.05319999,2.16547,0.86479
382.333,23.0076,-0.05320003,2.1661,0.86434
382.833,23.02148,-0.05320015,2.16956,0.8639
383.333,23.03535,-0.05319801,2.17233,0.86345
383.833,23.04925,-0.05320295,2.17326,0.863
384.333,23.06317,-0.0532682,2.17439,0.86255
384.833,23.07706,-0.0524689,2.17581,0.86211
385.333,23.09102,-0.05222427,2.17609,0.86166
385.833,23.10494,-0.05220236,2.17981,0.86121
386.333,23.1189,-0.0522114,2.17886,0.86076
386.833,23.13287,-0.05222503,2.18394,0.86031
387.333,23.1468,-0.05211491,2.18276,0.85986
387.833,23.16075,-0.05325869,2.1886,0.85942
388.333,23.17465,-0.0535368,2.18826,0.85897
388.833,23.1886,-0.05352935,2.1895,0.85852
389.333,23.2026,-0.05352812,2.19333,0.85807
389.833,23.21649,-0.05354278,2.19548,0.85762
390.333,23.23038,-0.05354131,2.19869,0.85717
390.833,23.2443,-0.05457221,2.19818,0.85672
391.333,23.25829,-0.05497102,2.20244,0.85627
391.833,23.2723,-0.05495373,2.20424,0.85583
392.333,23.28623,-0.05495114,2.20381,0.85538
392.833,23.30017,-0.05495077,2.20629,0.85493
393.333,23.31417,-0.05486264,2.20998,0.85448
393.833,23.32819,-0.05579474,2.2102,0.85403
394.333,23.34219,-0.05591578,2.21087,0.85358
394.833,23.35623,-0.05594718,2.21499,0.85313
395.333,23.37019,-0.05594066,2.21785,0.85268
395.833,23.38425,-0.05587961,2.21786,0.85223
396.333,23.3983,-0.05651326,2.22061,0.85178
396.833,23.41232,-0.05660753,2.2209,0.85133
397.333,23.42633,-0.0562403,2.22279,0.85088
397.833,23.44034,-0.05526872,2.22595,0.85044
398.333,23.45435,-0.055376,2.22579,0.84999
398.833,23.4683,-0.05444595,2.22666,0.84954
399.333,23.48232,-0.05395369,2.22744,0.84909
399.833,23.4963,-0.05396094,2.23042,0.84864
400.333,23.5103,-0.05395968,2.23511,0.84819
400.833,23.52432,-0.05400845,2.23564,0.84774
401.333,23.53839,-0.05516466,2.23804,0.84729
401.833,23.55249,-0.05587843,2.24323,0.84684
402.333,23.56653,-0.05690145,2.24625,0.84639
402.833,23.58063,-0.05720785,2.24907,0.84594
403.333,23.59469,-0.05821939,2.25029,0.84549
403.833,23.6088,-0.05812455,2.25058,0.84504
404.333,23.62285,-0.05812978,2.25095,0.84459
404.833,23.63685,-0.05812077,2.25584,0.84414
405.333,23.65093,-0.05810698,2.2541,0.84369
405.833,23.66499,-0.05677255,2.25901,0.84324
406.333,23.67908,-0.05530904,2.25775,0.84279
406.833,23.69311,-0.05527634,2.25996,0.84234
407.333,23.7072,-0.05536861,2.26176,0.84189
407.833,23.72117,-0.05421279,2.26509,0.84144
408.333,23.73515,-0.05394987,2.26491,0.84099
408.833,23.74921,-0.05399109,2.26695,0.84054
409.333,23.7633,-0.05303975,2.27127,0.84009
409.833,23.7774,-0.05262465,2.2718,0.83964
410.333,23.79149,-0.05265473,2.27567,0.83919
410.833,23.80565,-0.05261735,2.27862,0.83875
411.333,23.81989,-0.0551527,2.2814,0.8383
411.833,23.83411,-0.05549982,2.28392,0.83785
412.333,23.84819,-0.05687047,2.28624,0.8374
412.833,23.86232,-0.05701422,2.28661,0.83695
413.333,23.87641,-0.0581156,2.29306,0.8365
413.833,23.8905,-0.05844294,2.29206,0.83605
414.333,23.90464,-0.05892599,2.29638,0.8356
414.833,23.91875,-0.05998325,2.29827,0.83515
415.333,23.93287,-0.06010122,2.3016,0.8347
415.833,23.947,-0.06133358,2.30057,0.83425
416.333,23.96118,-0.06150407,2.30809,0.8338
416.833,23.97533,-0.06292816,2.30765,0.83335
417.333,23.9894,-0.06417697,2.31113,0.8329
417.833,24.00357,-0.06417524,2.30999,0.83245
418.333,24.01773,-0.0641685,2.31419,0.832
418.833,24.03184,-0.06416261,2.31827,0.83155
419.333,24.04603,-0.06312909,2.3179,0.8311
419.833,24.06018,-0.06274294,2.32241,0.83065
420.333,24.07434,-0.06273233,2.32347,0.83021
420.833,24.08855,-0.06274055,2.326,0.82976
421.333,24.10268,-0.06273987,2.32845,0.82931
421.833,24.11691,-0.06274178,2.3296,0.82886
422.333,24.13109,-0.06274519,2.33409,0.82841
422.833,24.14529,-0.06264666,2.33672,0.82796
423.333,24.1595,-0.06368671,2.33852,0.82751
423.833,24.1737,-0.0640642,2.33919,0.82706
424.333,24.1879,-0.06407021,2.34312,0.82661
424.833,24.2021,-0.06414298,2.34546,0.82617
425.333,24.21634,-0.06520852,2.34965,0.82572
425.833,24.2306,-0.06538597,2.35376,0.82527
426.333,24.24484,-0.06641368,2.35541,0.82482
426.833,24.2591,-0.06668867,2.35798,0.82437
427.333,24.2733,-0.06669274,2.35769,0.82392
427.833,24.28755,-0.06663313,2.36255,0.82347
428.333,24.3018,-0.06748859,2.36513,0.82303
428.833,24.31602,-0.06803338,2.36814,0.82258
429.333,24.33023,-0.06765399,2.36965,0.82213
429.833,24.34451,-0.0661493,2.37248,0.82168
430.333,24.35875,-0.06571026,2.37492,0.82123
430.833,24.37302,-0.06476732,2.37927,0.82078
431.333,24.3873,-0.06479362,2.38427,0.82034
431.833,24.4016,-0.06567671,2.38621,0.81989
432.333,24.4159,-0.06761122,2.38943,0.81944
432.833,24.43017,-0.06823724,2.39552,0.81899
433.333,24.4445,-0.06978212,2.39838,0.81855
433.833,24.45883,-0.0696377,2.40696,0.8181
434.333,24.47314,-0.06973693,2.40949,0.81765
434.833,24.48736,-0.06857082,2.41472,0.8172
435.333,24.5017,-0.06875254,2.4186,0.81676
435.833,24.516,-0.06779578,2.42395,0.81631
436.333,24.53035,-0.06643646,2.43126,0.81586
436.833,24.54465,-0.06585539,2.43226,0.81541
437.333,24.559,-0.06446743,2.43741,0.81497
437.833,24.57337,-0.06444379,2.4394,0.81452
438.333,24.58773,-0.06551852,2.44509,0.81407
438.833,24.60203,-0.06566098,2.4464,0.81363
439.333,24.61639,-0.0660398,2.45294,0.81318
439.833,24.63072,-0.06724156,2.45394,0.81273
440.333,24.64506,-0.06783811,2.45371,0.81229
440.833,24.6594,-0.06907549,2.45409,0.81184
441.333,24.6738,-0.07031882,2.45603,0.81139
441.833,24.68815,-0.07079856,2.45777,0.81095
442.333,24.70254,-0.07215711,2.45699,0.8105
442.833,24.7169,-0.07241936,2.45891,0.81006
443.333,24.7313,-0.07246406,2.46111,0.80961
443.833,24.74569,-0.07438652,2.4624,0.80916
444.333,24.76003,-0.07612297,2.46579,0.80872
444.833,24.77445,-0.0771038,2.46643,0.80827
445.333,24.7888,-0.07822934,2.46888,0.80783
445.833,24.80323,-0.0798377,2.47103,0.80738
446.333,24.81764,-0.07973823,2.47661,0.80694
446.833,24.83205,-0.08036535,2.47947,0.80649
447.333,24.84648,-0.08267297,2.48135,0.80605
447.833,24.8609,-0.08326236,2.48619,0.8056
448.333,24.8753,-0.08545348,2.49091,0.80516
448.833,24.88976,-0.08672897,2.49066,0.80471
449.333,24.90418,-0.08816781,2.49625,0.80427
449.833,24.91862,-0.08958616,2.50065,0.80383
450.333,24.9331,-0.0901499,2.50487,0.80338
450.833,24.9476,-0.09060227,2.511,0.80294
451.333,24.962,-0.09121807,2.51175,0.80249
451.833,24.97648,-0.09164672,2.51958,0.80205
452.333,24.99099,-0.09219234,2.52756,0.80161
452.833,25.00545,-0.09379457,2.53294,0.80116
453.333,25.01993,-0.09388612,2.53783,0.80072
453.833,25.03438,-0.09513742,2.54472,0.80027
454.333,25.04887,-0.09518719,2.55356,0.79983
454.833,25.06328,-0.09621214,2.55877,0.79939
455.333,25.07777,-0.09688212,2.56601,0.79895
455.833,25.09224,-0.09881672,2.5744,0.7985
456.333,25.10669,-0.09948493,2.58107,0.79806
456.833,25.12115,-0.10036,2.59138,0.79762
457.333,25.13565,-0.10145,2.59692,0.79718
457.833,25.1502,-0.10191,2.60811,0.79673
458.333,25.16469,-0.10355,2.61665,0.79629
458.833,25.1792,-0.1051,2.6255,0.79585
459.333,25.19371,-0.10691,2.6351,0.79541
459.833,25.20823,-0.10889,2.64637,0.79497
460.333,25.22273,-0.111,2.65795,0.79452
460.833,25.23722,-0.11313,2.66461,0.79408
461.333,25.25178,-0.11514,2.67854,0.79364
461.833,25.26634,-0.11823,2.68964,0.7932
462.333,25.2809,-0.11976,2.70125,0.79276
462.833,25.2954,-0.1212,2.71571,0.79232
463.333,25.3099,-0.12131,2.72961,0.79188
463.833,25.3245,-0.12171,2.74336,0.79144
464.333,25.33906,-0.12439,2.75499,0.791
464.833,25.35365,-0.12561,2.77169,0.79056
465.333,25.36824,-0.12767,2.78874,0.79012
465.833,25.3829,-0.12981,2.80352,0.78968
466.333,25.39752,-0.13219,2.82213,0.78924
466.833,25.4121,-0.13507,2.83779,0.7888
467.333,25.42669,-0.13669,2.85593,0.78836
467.833,25.4413,-0.13925,2.87278,0.78792
468.333,25.45589,-0.14241,2.8967,0.78748
468.833,25.4705,-0.14508,2.91722,0.78704
469.333,25.4851,-0.14876,2.93346,0.7866
469.833,25.49977,-0.15143,2.95492,0.78617
470.333,25.51437,-0.15582,2.97794,0.78573
470.833,25.52897,-0.16071,3.00004,0.78529
471.333,25.54354,-0.16544,3.02343,0.78485
471.833,25.55815,-0.17007,3.05009,0.78441
472.333,25.57276,-0.17312,3.07797,0.78398
472.833,25.5873,-0.17612,3.10244,0.78354
473.333,25.602,-0.17957,3.12857,0.7831
473.833,25.61661,-0.18316,3.15741,0.78266
474.333,25.63127,-0.18583,3.18488,0.78223
474.833,25.64591,-0.19002,3.21664,0.78179
475.333,25.66055,-0.19308,3.2453,0.78136
475.833,25.67523,-0.19804,3.28129,0.78092
476.333,25.68989,-0.20343,3.31329,0.78048
476.833,25.70455,-0.20804,3.34936,0.78005
477.333,25.7192,-0.21377,3.38523,0.77961
477.833,25.7338,-0.21939,3.42699,0.77918
478.333,25.74849,-0.22497,3.46527,0.77874
478.833,25.76315,-0.23191,3.50322,0.77831
479.333,25.77785,-0.2381,3.54513,0.77787
479.833,25.79249,-0.24335,3.58655,0.77744
480.333,25.80723,-0.25036,3.62936,0.777
480.833,25.8219,-0.2565,3.67823,0.77657
481.333,25.83662,-0.26384,3.72897,0.77613
481.833,25.8513,-0.27341,3.7787,0.7757
482.333,25.86597,-0.28082,3.82685,0.77527
482.833,25.88066,-0.29042,3.87966,0.77483
483.333,25.89529,-0.30134,3.93638,0.7744
483.833,25.90994,-0.31092,3.99895,0.77397
484.333,25.9246,-0.32365,4.05572,0.77353
484.833,25.93923,-0.33491,4.10986,0.7731
485.333,25.95386,-0.34628,4.16016,0.77267
485.833,25.96846,-0.36054,4.21177,0.77224
486.333,25.98311,-0.37185,4.26891,0.7718
486.833,25.99772,-0.38533,4.3261,0.77137
487.333,26.01233,-0.40212,4.38277,0.77094
487.833,26.02693,-0.41557,4.45513,0.77051
488.333,26.04155,-0.43225,4.51664,0.77008
488.833,26.0562,-0.44953,4.57888,0.76965
489.333,26.07079,-0.46478,4.64878,0.76922
489.833,26.0854,-0.48513,4.72316,0.76878
490.333,26.09996,-0.50177,4.80168,0.76835
490.833,26.11457,-0.51856,4.87132,0.76792
491.333,26.1292,-0.53955,4.94042,0.76749
491.833,26.14378,-0.55644,5.01893,0.76706
492.333,26.1584,-0.57786,5.10169,0.76664
492.833,26.17294,-0.60266,5.18345,0.76621
493.333,26.18751,-0.62252,5.28427,0.76578
493.833,26.20206,-0.6478,5.3669,0.76535
494.333,26.21658,-0.67362,5.45164,0.76492
494.833,26.2311,-0.69691,5.56205,0.76449
495.333,26.2456,-0.72698,5.65607,0.76406
495.833,26.2601,-0.75295,5.75946,0.76364
496.333,26.27457,-0.78062,5.85645,0.76321
496.833,26.2891,-0.81654,5.95758,0.76278
497.333,26.30347,-0.84448,6.03802,0.76235
497.833,26.31788,-0.87937,6.14091,0.76193
498.333,26.3323,-0.91208,6.26582,0.7615
498.833,26.3467,-0.95187,6.37457,0.76107
499.333,26.3611,-0.99657,6.4657,0.76065
499.833,26.37548,-1.05968,6.55814,0.76022
500.333,26.3899,-1.10844,6.63715,0.7598
500.833,26.40427,-1.15372,6.71995,0.75937
501.333,26.41866,-1.19809,6.83809,0.75894
501.833,26.433,-1.24592,6.92374,0.75852
502.333,26.4474,-1.29421,7.02754,0.7581
502.833,26.4618,-1.34517,7.12188,0.75767
503.333,26.47627,-1.39892,7.18878,0.75725
503.833,26.4907,-1.45488,7.25917,0.75682
504.333,26.50524,-1.51189,7.32044,0.7564
504.833,26.5198,-1.57042,7.38477,0.75598
505.333,26.53442,-1.62918,7.43892,0.75555
505.833,26.5491,-1.68938,7.49999,0.75513
506.333,26.56379,-1.75023,7.54431,0.75471
506.833,26.5785,-1.81318,7.59207,0.75428
507.333,26.5933,-1.87644,7.62896,0.75386
507.833,26.6081,-1.94164,7.68022,0.75344
508.333,26.62278,-2.00896,7.71444,0.75302
508.833,26.63744,-2.07754,7.73391,0.7526
509.333,26.652,-2.14801,7.75798,0.75218
509.833,26.6666,-2.22037,7.74873,0.75175
510.333,26.68119,-2.29416,7.76431,0.75133
510.833,26.6958,-2.36973,7.74644,0.75091
511.333,26.7104,-2.4462,7.70705,0.75049
511.833,26.72496,-2.52253,7.66087,0.75007
512.333,26.73965,-2.59947,7.61135,0.74965
512.833,26.75423,-2.67645,7.54275,0.74923
513.333,26.7687,-2.75271,7.45512,0.74882
513.833,26.7832,-2.82784,7.35387,0.7484
514.333,26.79767,-2.90212,7.2379,0.74798
514.833,26.81213,-2.97588,7.10513,0.74756
515.333,26.82657,-3.0491,6.96165,0.74714
515.833,26.841,-3.11995,6.80425,0.74672
516.333,26.85544,-3.18867,6.6264,0.74631
516.833,26.86988,-3.25211,6.42537,0.74589
517.333,26.88438,-3.31159,6.20701,0.74547
517.833,26.89902,-3.36709,5.96422,0.74506
518.333,26.9138,-3.41842,5.70383,0.74464
518.833,26.92868,-3.46717,5.43696,0.74422
519.333,26.94383,-3.51632,5.15632,0.74381
519.833,26.95917,-3.56429,4.86442,0.74339
520.333,26.97465,-3.61356,4.56357,0.74298
520.833,26.99025,-3.66006,4.2496,0.74256
521.333,27.0059,-3.70613,3.93722,0.74215
521.833,27.0216,-3.74063,3.62401,0.74173
522.333,27.03728,-3.77542,3.32127,0.74132
522.833,27.05305,-3.80663,3.0302,0.7409
523.333,27.0689,-3.84138,2.7515,0.74049
523.833,27.0847,-3.86772,2.49192,0.74008
524.333,27.1006,-3.8944,2.25206,0.73966
524.833,27.1165,-3.919,2.03165,0.73925
525.333,27.1325,-3.93853,1.83098,0.73884
525.833,27.14837,-3.95981,1.65416,0.73843
526.333,27.1643,-3.97428,1.49189,0.73802
526.833,27.1802,-3.98823,1.34981,0.7376
527.333,27.19602,-3.99758,1.22216,0.73719
527.833,27.2119,-4.00528,1.10897,0.73678
528.333,27.22771,-4.0136,1.00815,0.73637
528.833,27.24346,-4.02054,0.91454,0.73596
529.333,27.25917,-4.02674,0.83388,0.73555
529.833,27.2749,-4.03101,0.76021,0.73514
530.333,27.29056,-4.03403,0.69214,0.73473
530.833,27.30613,-4.03766,0.63157,0.73432
531.333,27.32167,-4.04082,0.57247,0.73391
531.833,27.33718,-4.04364,0.51958,0.7335
532.333,27.35268,-4.04629,0.47354,0.7331
532.833,27.36807,-4.04773,0.42933,0.73269
533.333,27.3835,-4.04726,0.38559,0.73228
533.833,27.39888,-4.04683,0.3481,0.73187
534.333,27.4143,-4.04809,0.31471,0.73147
534.833,27.4296,-4.04881,0.28075,0.73106
535.333,27.4449,-4.05037,0.25392,0.73065
535.833,27.46017,-4.05095,0.22411,0.73025
536.333,27.4754,-4.05161,0.20413,0.72984
536.833,27.49065,-4.05358,0.18049,0.72943
537.333,27.5059,-4.0548,0.1599,0.72903
537.833,27.5211,-4.05756,0.14296,0.72862
538.333,27.5363,-4.05785,0.12889,0.72822
538.833,27.5515,-4.05794,0.11819,0.72782
539.333,27.56672,-4.05912,0.1097,0.72741
539.833,27.5819,-4.05915,0.1027,0.72701
540.333,27.59715,-4.05913,0.09681813,0.7266
540.833,27.6124,-4.0596,0.08694073,0.7262
541.333,27.62759,-4.05936,0.08262801,0.7258
541.833,27.64282,-4.05844,0.07943431,0.7254
542.333,27.658,-4.05849,0.07618709,0.72499
542.833,27.67322,-4.05849,0.07169134,0.72459
543.333,27.68845,-4.05871,0.07021132,0.72419
543.833,27.7037,-4.05991,0.06638815,0.72379
544.333,27.719,-4.05981,0.06698507,0.72339
544.833,27.73433,-4.05981,0.06662264,0.72299
545.333,27.7496,-4.05951,0.06467015,0.72259
545.833,27.7649,-4.0584,0.06349541,0.72219
546.333,27.78016,-4.05849,0.06526661,0.72179
546.833,27.7954,-4.05849,0.06251899,0.72139
547.333,27.81062,-4.05849,0.06267874,0.72099
547.833,27.82589,-4.05844,0.05921285,0.72059
548.333,27.84115,-4.05896,0.05909505,0.72019
548.833,27.85646,-4.0587,0.05855332,0.71979
549.333,27.87173,-4.06007,0.05800205,0.7194
549.833,27.88703,-4.06036,0.05361069,0.719
550.333,27.9023,-4.0605,0.05496641,0.7186
550.833,27.9176,-4.06058,0.05485899,0.71821
551.333,27.93283,-4.06056,0.04986121,0.71781
551.833,27.9481,-4.06106,0.04855287,0.71741
552.333,27.9634,-4.06212,0.04983636,0.71702
552.833,27.9787,-4.06314,0.04847346,0.71662
553.333,27.99403,-4.06346,0.04472738,0.71623
553.833,28.00941,-4.06403,0.04845269,0.71583
554.333,28.02475,-4.06405,0.05059918,0.71544
554.833,28.0401,-4.06419,0.04881529,0.71504
555.333,28.05534,-4.06539,0.04803501,0.71465
555.833,28.0707,-4.06572,0.0517962,0.71426
556.333,28.08597,-4.0657,0.05250884,0.71386
556.833,28.1013,-4.06562,0.05433998,0.71347
557.333,28.11673,-4.06409,0.05639716,0.71308
557.833,28.1321,-4.06309,0.05949259,0.71269
558.333,28.1476,-4.0623,0.06053337,0.7123
558.833,28.1629,-4.06205,0.06166015,0.7119
559.333,28.17833,-4.06181,0.06267007,0.71151
559.833,28.19367,-4.06035,0.06130126,0.71112
560.333,28.209,-4.06048,0.06854546,0.71073
560.833,28.2244,-4.06047,0.06907892,0.71034
561.333,28.2398,-4.06047,0.07149779,0.70995
561.833,28.2553,-4.06058,0.07319815,0.70956
562.333,28.27072,-4.06057,0.07323786,0.70917
562.833,28.28609,-4.06048,0.07549605,0.70879
563.333,28.30145,-4.0592,0.07738216,0.7084
563.833,28.31686,-4.05928,0.07934793,0.70801
564.333,28.3322,-4.05926,0.08337648,0.70762
564.833,28.3476,-4.05926,0.08364267,0.70723
565.333,28.36295,-4.05927,0.08337169,0.70685
565.833,28.37838,-4.05921,0.08913939,0.70646
566.333,28.3938,-4.05999,0.08746781,0.70607
566.833,28.4092,-4.05993,0.08926057,0.70569
567.333,28.4245,-4.06036,0.09088653,0.7053
567.833,28.4399,-4.06145,0.09387099,0.70492
568.333,28.45523,-4.06198,0.09465863,0.70453
568.833,28.47062,-4.063,0.09371005,0.70415
569.333,28.48607,-4.06298,0.09446513,0.70376
569.833,28.5016,-4.06295,0.09581121,0.70338
570.333,28.517,-4.06266,0.09490377,0.703
570.833,28.53248,-4.0621,0.09764624,0.70261
571.333,28.54795,-4.06131,0.0972153,0.70223
571.833,28.56335,-4.06133,0.09824278,0.70185
572.333,28.5788,-4.06141,0.09465706,0.70147
572.833,28.5941,-4.06012,0.09655804,0.70109
573.333,28.6096,-4.06003,0.09451926,0.7007
573.833,28.6251,-4.05993,0.09563813,0.70032
574.333,28.64048,-4.06105,0.09398138,0.69994
574.833,28.65594,-4.06189,0.09583595,0.69956
575.333,28.6714,-4.06256,0.09354681,0.69918
575.833,28.6869,-4.06117,0.092478,0.6988
576.333,28.70236,-4.06052,0.09430652,0.69842
576.833,28.7178,-4.05954,0.09326165,0.69805
577.333,28.7333,-4.05955,0.09147993,0.69767
577.833,28.7487,-4.05836,0.09261205,0.69729
578.333,28.76414,-4.05753,0.09188671,0.69691
578.833,28.7796,-4.05696,0.0889924,0.69653
579.333,28.79503,-4.0559,0.09015739,0.69616
579.833,28.8105,-4.05565,0.09059693,0.69578
580.333,28.8259,-4.05565,0.09105002,0.6954
580.833,28.84142,-4.05565,0.09034359,0.69503
581.333,28.85688,-4.05568,0.09456523,0.69465
581.833,28.87237,-4.05585,0.0918684,0.69428
582.333,28.8879,-4.05711,0.09046957,0.6939
582.833,28.90332,-4.05833,0.09372967,0.69353
583.333,28.91876,-4.05969,0.09303366,0.69315
583.833,28.9342,-4.06134,0.09365249,0.69278
584.333,28.9497,-4.06297,0.0928493,0.69241
584.833,28.96515,-4.06406,0.09358001,0.69203
585.333,28.9805,-4.06511,0.09494457,0.69166
585.833,28.99598,-4.06614,0.09440177,0.69129
586.333,29.01152,-4.06555,0.09242601,0.69092
586.833,29.02706,-4.06455,0.09404273,0.69055
587.333,29.0426,-4.06456,0.09268344,0.69017
587.833,29.0581,-4.06395,0.08841129,0.6898
588.333,29.07378,-4.06394,0.09132916,0.68943
588.833,29.08935,-4.0627,0.09150832,0.68906
589.333,29.1048,-4.06269,0.09051947,0.68869
589.833,29.12037,-4.0623,0.09009334,0.68832
590.333,29.1359,-4.06126,0.09102188,0.68796
590.833,29.15144,-4.06134,0.09277824,0.68759
591.333,29.16695,-4.06134,0.09205483,0.68722
591.833,29.18253,-4.06134,0.09316635,0.68685
592.333,29.19813,-4.06132,0.09220026,0.68648
592.833,29.21371,-4.06099,0.08912887,0.68612
593.333,29.2293,-4.05982,0.09045996,0.68575
593.833,29.24489,-4.0598,0.09061189,0.68538
594.333,29.26045,-4.0598,0.09059604,0.68502
594.833,29.27607,-4.05862,0.09145008,0.68465
595.333,29.2917,-4.05839,0.08897831,0.68429
595.833,29.3072,-4.05744,0.09108938,0.68392
596.333,29.32276,-4.05849,0.08984761,0.68356
596.833,29.3384,-4.05837,0.09294962,0.68319
597.333,29.35404,-4.05838,0.08911739,0.68283
597.833,29.3696,-4.05838,0.09117863,0.68247
598.333,29.38516,-4.05838,0.08843688,0.6821
598.833,29.40076,-4.05838,0.08824727,0.68174
599.333,29.4164,-4.05836,0.08880388,0.68138
599.833,29.43192,-4.05829,0.08670398,0.68102
600.333,29.4475,-4.05726,0.08880214,0.68066
600.833,29.4631,-4.0559,0.09172079,0.68029
601.333,29.4787,-4.05576,0.08656508,0.67993
601.833,29.49428,-4.05572,0.09002825,0.67957
602.333,29.5099,-4.0564,0.09210143,0.67921
602.833,29.52553,-4.05725,0.09180858,0.67885
603.333,29.5411,-4.05862,0.09019712,0.6785
603.833,29.5568,-4.05895,0.09370215,0.67814
604.333,29.5724,-4.06046,0.09180661,0.67778
604.833,29.588,-4.06069,0.09800985,0.67742
605.333,29.6037,-4.06069,0.0943937,0.67706
605.833,29.6193,-4.06069,0.0970257,0.67671
606.333,29.635,-4.06069,0.09538477,0.67635
606.833,29.65062,-4.06069,0.0941103,0.67599
607.333,29.66628,-4.06069,0.09616235,0.67564
607.833,29.682,-4.06069,0.09555167,0.67528
608.333,29.69766,-4.06069,0.09643383,0.67492
608.833,29.7133,-4.06069,0.09923138,0.67457
609.333,29.72893,-4.06069,0.0982944,0.67422
609.833,29.74457,-4.06069,0.09929691,0.67386
610.333,29.7602,-4.06069,0.09910811,0.67351
610.833,29.7759,-4.06201,0.09870755,0.67315
611.333,29.7915,-4.06265,0.10363,0.6728
611.833,29.80726,-4.06405,0.0993862,0.67245
612.333,29.82302,-4.06409,0.09876211,0.6721
612.833,29.8387,-4.06409,0.09933438,0.67174
613.333,29.8544,-4.06418,0.09858593,0.67139
613.833,29.87,-4.06299,0.09692146,0.67104
614.333,29.8857,-4.0626,0.09948434,0.67069
614.833,29.90138,-4.06178,0.10278,0.67034
615.333,29.91703,-4.06135,0.10082,0.66999
615.833,29.9328,-4.06264,0.09841291,0.66964
616.333,29.94851,-4.06254,0.10032,0.66929
616.833,29.9642,-4.06255,0.09842525,0.66894
617.333,29.97999,-4.06222,0.09899089,0.6686
617.833,29.99564,-4.06112,0.0975914,0.66825
617.933,29.99873,-4.06119,0.098202,0.66818