File: 01_Data/HDPE/STA/N2/30K_min/HDPE_STA_N2_30KData_21109_R1.csv
##Temp./Â°C,Time/min,Mass loss(subtr.2)/mg,DSC(subtr.2)/(mW/mg),Sensit./(uV/mW)
49.321,10.00917,-0.03686,0.006333656,1.05401
49.821,10.96574,-0.03826747,0.04410529,1.05402
50.321,11.1812,-0.03973114,0.07640619,1.05403
50.821,11.3255,-0.04042793,0.10429,1.05404
51.321,11.44086,-0.03719971,0.12934,1.05404
51.821,11.5357,-0.04002615,0.15509,1.05405
52.321,11.62124,-0.04081473,0.17572,1.05405
52.821,11.69586,-0.03870203,0.19796,1.05406
53.321,11.76412,-0.04031749,0.21605,1.05406
53.821,11.82678,-0.04276957,0.23599,1.05406
54.321,11.8873,-0.04048641,0.25423,1.05406
54.821,11.9442,-0.04081151,0.27144,1.05406
55.321,11.99742,-0.0413213,0.28813,1.05406
55.821,12.04775,-0.04087791,0.30367,1.05405
56.321,12.09625,-0.04322723,0.31922,1.05405
56.821,12.14308,-0.04347926,0.33355,1.05404
57.321,12.1885,-0.04268654,0.34891,1.05404
57.821,12.23231,-0.0422675,0.36382,1.05403
58.321,12.27492,-0.04103755,0.37585,1.05402
58.821,12.31656,-0.04218842,0.38979,1.05401
59.321,12.35717,-0.04132465,0.40238,1.054
59.821,12.3965,-0.0407582,0.41234,1.05398
60.321,12.43487,-0.0411453,0.42359,1.05397
60.821,12.47283,-0.04164191,0.43374,1.05395
61.321,12.51021,-0.04133053,0.44389,1.05393
61.821,12.54707,-0.0389154,0.45565,1.05392
62.321,12.5832,-0.03978216,0.46489,1.0539
62.821,12.6187,-0.04161773,0.47291,1.05388
63.321,12.65356,-0.04252389,0.48146,1.05385
63.821,12.68776,-0.04200317,0.48823,1.05383
64.321,12.72176,-0.04197035,0.49829,1.05381
64.821,12.75558,-0.04304001,0.50037,1.05378
65.321,12.789,-0.04322854,0.50805,1.05375
65.821,12.8217,-0.04267596,0.5145,1.05373
66.321,12.85426,-0.04236867,0.52203,1.0537
66.821,12.8865,-0.04224031,0.52793,1.05367
67.321,12.9187,-0.039941,0.53612,1.05364
67.821,12.9503,-0.04108794,0.54146,1.0536
68.321,12.98142,-0.04185668,0.54622,1.05357
68.821,13.0124,-0.04282021,0.55161,1.05353
69.321,13.04295,-0.04330796,0.55709,1.0535
69.821,13.07338,-0.04281883,0.56291,1.05346
70.321,13.1034,-0.04245813,0.5663,1.05342
70.821,13.1333,-0.04233157,0.57138,1.05338
71.321,13.1631,-0.04225567,0.57436,1.05334
71.821,13.19266,-0.04211934,0.58022,1.0533
72.321,13.222,-0.0423076,0.58353,1.05326
72.821,13.2512,-0.04379053,0.58879,1.05321
73.321,13.28015,-0.04398022,0.59284,1.05317
73.821,13.30897,-0.04386877,0.59728,1.05312
74.321,13.33761,-0.04386373,0.60124,1.05307
74.821,13.36595,-0.04386867,0.60705,1.05302
75.321,13.39414,-0.04409112,0.61188,1.05297
75.821,13.42206,-0.04415413,0.61386,1.05292
76.321,13.45015,-0.04552738,0.62015,1.05287
76.821,13.4778,-0.04601421,0.62434,1.05281
77.321,13.50535,-0.0445823,0.62988,1.05276
77.821,13.53254,-0.04298127,0.63481,1.0527
78.321,13.55971,-0.04264966,0.64087,1.05265
78.821,13.5866,-0.04274943,0.6429,1.05259
79.321,13.6132,-0.0425812,0.6491,1.05253
79.821,13.63974,-0.04335942,0.65546,1.05247
80.321,13.6662,-0.04445551,0.65896,1.0524
80.821,13.6927,-0.04460695,0.66466,1.05234
81.321,13.719,-0.04364191,0.67003,1.05228
81.821,13.74509,-0.04360236,0.67329,1.05221
82.321,13.77087,-0.0453264,0.67919,1.05214
82.821,13.79662,-0.04489832,0.68527,1.05208
83.321,13.82211,-0.04374289,0.68992,1.05201
83.821,13.84735,-0.04250105,0.69473,1.05194
84.321,13.87241,-0.0423205,0.7028,1.05187
84.821,13.89732,-0.04251119,0.70537,1.05179
85.321,13.92215,-0.04433198,0.71304,1.05172
85.821,13.94697,-0.04438455,0.71729,1.05165
86.321,13.9717,-0.04495351,0.72514,1.05157
86.821,13.9961,-0.04565849,0.73014,1.05149
87.321,14.0203,-0.04458356,0.73509,1.05141
87.821,14.04396,-0.04588483,0.74237,1.05133
88.321,14.06775,-0.04524768,0.74937,1.05125
88.821,14.0915,-0.04529178,0.75609,1.05117
89.321,14.11549,-0.04539398,0.76228,1.05109
89.821,14.1394,-0.0460514,0.76573,1.05101
90.321,14.1629,-0.04569898,0.77512,1.05092
90.821,14.1863,-0.04538063,0.78046,1.05084
91.321,14.2095,-0.04499566,0.78506,1.05075
91.821,14.2327,-0.04451646,0.79161,1.05066
92.321,14.25562,-0.04475614,0.79808,1.05057
92.821,14.27847,-0.04467136,0.80494,1.05048
93.321,14.30114,-0.04411487,0.81135,1.05039
93.821,14.32355,-0.04338325,0.8179,1.05029
94.321,14.3461,-0.04333749,0.82434,1.0502
94.821,14.36844,-0.04434191,0.83127,1.05011
95.321,14.3908,-0.04535245,0.83749,1.05001
95.821,14.4131,-0.04504498,0.84239,1.04991
96.321,14.4352,-0.04525076,0.84973,1.04981
96.821,14.45703,-0.04542359,0.8573,1.04971
97.321,14.47843,-0.04504581,0.86545,1.04961
97.821,14.5002,-0.04634628,0.87142,1.04951
98.321,14.5219,-0.04581358,0.8762,1.04941
98.821,14.5435,-0.04516524,0.88359,1.0493
99.321,14.5655,-0.04471253,0.89171,1.0492
99.821,14.587,-0.04506329,0.89879,1.04909
100.321,14.6082,-0.04588227,0.90591,1.04899
100.821,14.6294,-0.04639997,0.91225,1.04888
101.321,14.6505,-0.04774237,0.91937,1.04877
101.821,14.67146,-0.04631083,0.92627,1.04866
102.321,14.6923,-0.04593178,0.93418,1.04854
102.821,14.71325,-0.04623811,0.94258,1.04843
103.321,14.7341,-0.04565227,0.95107,1.04832
103.821,14.75482,-0.04568369,0.95717,1.0482
104.321,14.7752,-0.0446342,0.96764,1.04809
104.821,14.7957,-0.04603654,0.97464,1.04797
105.321,14.8161,-0.04570995,0.98114,1.04785
105.821,14.83644,-0.04581981,0.9911,1.04773
106.321,14.8569,-0.04538362,0.99797,1.04761
106.821,14.8772,-0.04605609,1.0064,1.04749
107.321,14.8975,-0.04516167,1.01231,1.04737
107.821,14.9176,-0.04545618,1.02383,1.04724
108.321,14.9377,-0.04572045,1.0332,1.04712
108.821,14.95761,-0.04579627,1.04017,1.04699
109.321,14.97749,-0.04627202,1.05157,1.04686
109.821,14.9973,-0.04601141,1.05972,1.04674
110.321,15.01705,-0.04750739,1.06953,1.04661
110.821,15.03674,-0.049062,1.07993,1.04648
111.321,15.05652,-0.04842247,1.09159,1.04635
111.821,15.0761,-0.04922282,1.09884,1.04621
112.321,15.09573,-0.04929845,1.11171,1.04608
112.821,15.1153,-0.04811801,1.12218,1.04595
113.321,15.13478,-0.04770236,1.13612,1.04581
113.821,15.15419,-0.04689232,1.14568,1.04567
114.321,15.17351,-0.04631333,1.15969,1.04554
114.821,15.19275,-0.04608516,1.17066,1.0454
115.321,15.21194,-0.04608771,1.18466,1.04526
115.821,15.23109,-0.0463982,1.19952,1.04512
116.321,15.25017,-0.04788225,1.21315,1.04497
116.821,15.26932,-0.04782878,1.22891,1.04483
117.321,15.28844,-0.04715533,1.24286,1.04469
117.821,15.3075,-0.04784304,1.26152,1.04454
118.321,15.32652,-0.04744851,1.28119,1.0444
118.821,15.3454,-0.04774736,1.30159,1.04425
119.321,15.3642,-0.04733168,1.32018,1.0441
119.821,15.3828,-0.0465936,1.34207,1.04395
120.321,15.40153,-0.0473514,1.36453,1.0438
120.821,15.42022,-0.04751877,1.38854,1.04365
121.321,15.4389,-0.04725812,1.41401,1.0435
121.821,15.4575,-0.04761307,1.44257,1.04334
122.321,15.4762,-0.04640793,1.47058,1.04319
122.821,15.4947,-0.04735392,1.50332,1.04303
123.321,15.51309,-0.04757216,1.53621,1.04288
123.821,15.53139,-0.04786,1.57478,1.04272
124.321,15.5497,-0.04785997,1.61257,1.04256
124.821,15.5679,-0.04924075,1.65714,1.0424
125.321,15.58601,-0.04911798,1.7057,1.04224
125.821,15.60421,-0.04774473,1.76082,1.04208
126.321,15.62248,-0.04896536,1.81798,1.04191
126.821,15.64069,-0.04790568,1.88137,1.04175
127.321,15.65881,-0.0479357,1.95291,1.04158
127.821,15.67695,-0.04716505,2.03398,1.04142
128.321,15.695,-0.04661352,2.11999,1.04125
128.821,15.71295,-0.04582028,2.21356,1.04108
129.321,15.7309,-0.04656966,2.3177,1.04092
129.821,15.74895,-0.04683952,2.43049,1.04075
130.321,15.76685,-0.0467617,2.55466,1.04057
130.821,15.78471,-0.04819746,2.68808,1.0404
131.321,15.8026,-0.0469727,2.83062,1.04023
131.821,15.82046,-0.04845548,2.98596,1.04006
132.321,15.83828,-0.04836016,3.15086,1.03988
132.821,15.8561,-0.04876577,3.32259,1.0397
133.321,15.87385,-0.04835379,3.50223,1.03953
133.821,15.89163,-0.0484223,3.68981,1.03935
134.321,15.9094,-0.04736735,3.87838,1.03917
134.821,15.92715,-0.04744102,4.06682,1.03899
135.321,15.9449,-0.04730581,4.25675,1.03881
135.821,15.9626,-0.04685671,4.43375,1.03863
136.321,15.98032,-0.04523662,4.60651,1.03844
136.821,15.99797,-0.04506667,4.76806,1.03826
137.321,16.01553,-0.04392372,4.92091,1.03807
137.821,16.0331,-0.04400157,5.07044,1.03789
138.321,16.0507,-0.04408935,5.20583,1.0377
138.821,16.06801,-0.04535807,5.32782,1.03751
139.321,16.08555,-0.04401868,5.43996,1.03732
139.821,16.10301,-0.0447549,5.54817,1.03713
140.321,16.12047,-0.04539594,5.64168,1.03694
140.821,16.13779,-0.0453787,5.72285,1.03675
141.321,16.15533,-0.04654348,5.78667,1.03656
141.821,16.17258,-0.04671623,5.83315,1.03636
142.321,16.18989,-0.04673044,5.8605,1.03617
142.821,16.20713,-0.04654378,5.87505,1.03597
143.321,16.22427,-0.04605735,5.86984,1.03578
143.821,16.24136,-0.04643998,5.84465,1.03558
144.321,16.25839,-0.04529528,5.79556,1.03538
144.821,16.27538,-0.04651141,5.71761,1.03518
145.321,16.29222,-0.0466841,5.60169,1.03498
145.821,16.30905,-0.04573721,5.43555,1.03478
146.321,16.32582,-0.04681207,5.23441,1.03458
146.821,16.34262,-0.04673636,5.00139,1.03437
147.321,16.35926,-0.04672925,4.75876,1.03417
147.821,16.37585,-0.04711666,4.50213,1.03396
148.321,16.39241,-0.04807277,4.25898,1.03376
148.821,16.4089,-0.04675392,4.02431,1.03355
149.321,16.42529,-0.04673517,3.80082,1.03334
149.821,16.4416,-0.04656794,3.59394,1.03313
150.321,16.45782,-0.04664352,3.40212,1.03292
150.821,16.47405,-0.04670068,3.22432,1.03271
151.321,16.49023,-0.04671095,3.06219,1.0325
151.821,16.50636,-0.04742863,2.91315,1.03228
152.321,16.52238,-0.04817359,2.77808,1.03207
152.821,16.53847,-0.04816884,2.65413,1.03186
153.321,16.55455,-0.04866322,2.54116,1.03164
153.821,16.57058,-0.04948839,2.43656,1.03142
154.321,16.5866,-0.04902237,2.34228,1.03121
154.821,16.60256,-0.04811608,2.25687,1.03099
155.321,16.61853,-0.04811909,2.18076,1.03077
155.821,16.63446,-0.04941296,2.10857,1.03055
156.321,16.65031,-0.04946901,2.04523,1.03033
156.821,16.66614,-0.04947023,1.98768,1.0301
157.321,16.6819,-0.0494695,1.93562,1.02988
157.821,16.6978,-0.04947228,1.886,1.02966
158.321,16.71357,-0.04951314,1.84396,1.02943
158.821,16.7293,-0.04880633,1.80432,1.0292
159.321,16.74514,-0.0481192,1.76916,1.02898
159.821,16.76088,-0.04815988,1.73953,1.02875
160.321,16.7766,-0.04813349,1.70776,1.02852
160.821,16.79234,-0.04786404,1.68269,1.02829
161.321,16.80805,-0.04741192,1.6571,1.02806
161.821,16.82378,-0.04821195,1.63601,1.02783
162.321,16.83948,-0.04816068,1.61634,1.0276
162.821,16.8552,-0.04815925,1.60055,1.02736
163.321,16.8708,-0.04816027,1.58239,1.02713
163.821,16.88645,-0.04815648,1.56941,1.02689
164.321,16.9021,-0.04812943,1.55737,1.02666
164.821,16.91766,-0.04869007,1.54717,1.02642
165.321,16.93319,-0.0495994,1.53493,1.02618
165.821,16.94878,-0.0485124,1.52567,1.02594
166.321,16.9644,-0.04815464,1.51763,1.0257
166.821,16.98,-0.04816173,1.50878,1.02546
167.321,16.99549,-0.04810818,1.504,1.02522
167.821,17.011,-0.04897207,1.49817,1.02498
168.321,17.02657,-0.04950733,1.49481,1.02474
168.821,17.04208,-0.04948363,1.49061,1.02449
169.321,17.05754,-0.04947965,1.48677,1.02425
169.821,17.07297,-0.04947946,1.4839,1.024
170.321,17.08846,-0.04974571,1.47857,1.02376
170.821,17.10389,-0.05076056,1.47778,1.02351
171.321,17.1193,-0.04957698,1.47683,1.02326
171.821,17.13472,-0.04953942,1.47501,1.02301
172.321,17.1501,-0.0503204,1.47489,1.02276
172.821,17.16554,-0.05093965,1.47393,1.02251
173.321,17.18085,-0.05091116,1.47302,1.02226
173.821,17.19615,-0.05080562,1.47212,1.022
174.321,17.2115,-0.05204631,1.47379,1.02175
174.821,17.22673,-0.05222346,1.47291,1.0215
175.321,17.24201,-0.05222045,1.47607,1.02124
175.821,17.25725,-0.05222016,1.47577,1.02098
176.321,17.27251,-0.05222245,1.47562,1.02073
176.821,17.2877,-0.05221087,1.47575,1.02047
177.321,17.30286,-0.05204416,1.48124,1.02021
177.821,17.31802,-0.05094216,1.48134,1.01995
178.321,17.33315,-0.05091254,1.48205,1.01969
178.821,17.34831,-0.05090249,1.48324,1.01943
179.321,17.3634,-0.05012796,1.4868,1.01917
179.821,17.37859,-0.04958262,1.48866,1.0189
180.321,17.3937,-0.04966804,1.4897,1.01864
180.821,17.4088,-0.04863013,1.49284,1.01838
181.321,17.42387,-0.04826019,1.49435,1.01811
181.821,17.43896,-0.0482717,1.49535,1.01784
182.321,17.454,-0.04852305,1.49818,1.01758
182.821,17.46903,-0.0495759,1.49952,1.01731
183.321,17.48409,-0.04956712,1.5049,1.01704
183.821,17.49909,-0.04958005,1.50804,1.01677
184.321,17.5141,-0.04958022,1.50731,1.0165
184.821,17.52901,-0.04958001,1.51124,1.01623
185.321,17.54395,-0.04958163,1.51344,1.01596
185.821,17.55884,-0.04957878,1.51652,1.01568
186.321,17.57367,-0.04949777,1.51785,1.01541
186.821,17.5885,-0.05050923,1.52046,1.01513
187.321,17.6034,-0.05102881,1.52295,1.01486
187.821,17.61822,-0.05100913,1.52502,1.01458
188.321,17.633,-0.05100964,1.52856,1.01431
188.821,17.64786,-0.05101003,1.53043,1.01403
189.321,17.66253,-0.05101001,1.53349,1.01375
189.821,17.6773,-0.05101,1.53814,1.01347
190.321,17.69203,-0.05101003,1.53893,1.01319
190.821,17.7068,-0.05100986,1.5419,1.01291
191.321,17.7215,-0.05100895,1.54437,1.01263
191.821,17.73615,-0.05101807,1.54785,1.01234
192.321,17.75098,-0.05051559,1.55129,1.01206
192.821,17.76574,-0.05072876,1.55264,1.01178
193.321,17.78047,-0.05109845,1.55453,1.01149
193.821,17.79513,-0.05112137,1.55675,1.01121
194.321,17.80985,-0.05110974,1.55955,1.01092
194.821,17.82461,-0.05155251,1.56132,1.01063
195.321,17.83923,-0.05111659,1.56598,1.01034
195.821,17.85388,-0.05114329,1.57004,1.01005
196.321,17.8685,-0.05111924,1.57255,1.00976
196.821,17.88309,-0.05111974,1.57615,1.00947
197.321,17.89763,-0.05111936,1.57795,1.00918
197.821,17.91222,-0.05111157,1.57934,1.00889
198.321,17.92684,-0.05116513,1.58059,1.0086
198.821,17.9414,-0.05027736,1.585,1.0083
199.321,17.95591,-0.04976599,1.58767,1.00801
199.821,17.97044,-0.04979779,1.58865,1.00771
200.321,17.98498,-0.04980096,1.59257,1.00742
200.821,17.9995,-0.04980012,1.5943,1.00712
201.321,18.014,-0.04979347,1.599,1.00682
201.821,18.02854,-0.0500808,1.60138,1.00653
202.321,18.043,-0.05121709,1.60362,1.00623
202.821,18.05751,-0.05111177,1.60618,1.00593
203.321,18.07198,-0.05111824,1.60903,1.00563
203.821,18.08643,-0.05112028,1.612,1.00532
204.321,18.1009,-0.05112003,1.61459,1.00502
204.821,18.11534,-0.05112,1.61488,1.00472
205.321,18.12978,-0.05112001,1.61779,1.00442
205.821,18.14402,-0.05111972,1.62184,1.00411
206.321,18.15841,-0.05112044,1.62421,1.00381
206.821,18.1728,-0.05114748,1.62736,1.0035
207.321,18.1872,-0.05237375,1.62873,1.00319
207.821,18.2015,-0.0525147,1.63293,1.00289
208.321,18.21586,-0.0525446,1.63299,1.00258
208.821,18.23035,-0.05253881,1.63496,1.00227
209.321,18.24479,-0.05256559,1.63748,1.00196
209.821,18.25911,-0.05253675,1.64122,1.00165
210.321,18.27346,-0.05377303,1.64366,1.00134
210.821,18.2878,-0.05386182,1.64852,1.00103
211.321,18.30206,-0.05386047,1.64994,1.00072
211.821,18.31636,-0.05385996,1.65083,1.0004
212.321,18.33066,-0.05386014,1.65427,1.00009
212.821,18.34495,-0.05385812,1.65578,0.99977
213.321,18.35924,-0.05385971,1.65781,0.99946
213.821,18.37351,-0.05307611,1.66168,0.99914
214.321,18.3878,-0.05251534,1.66183,0.99883
214.821,18.40211,-0.05253331,1.66685,0.99851
215.321,18.4163,-0.05254111,1.66967,0.99819
215.821,18.43054,-0.05254026,1.67352,0.99787
216.321,18.44481,-0.05253753,1.67299,0.99755
216.821,18.45894,-0.05254119,1.67656,0.99723
217.321,18.47316,-0.05184215,1.67915,0.99691
217.821,18.48734,-0.0523831,1.6794,0.99659
218.321,18.50157,-0.05252086,1.68039,0.99627
218.821,18.51578,-0.05255602,1.68531,0.99595
219.321,18.52994,-0.05255032,1.6864,0.99562
219.821,18.54416,-0.0525481,1.69096,0.9953
220.321,18.55838,-0.05255283,1.6936,0.99497
220.821,18.57258,-0.05187238,1.69432,0.99465
221.321,18.58675,-0.05118496,1.69863,0.99432
221.821,18.6009,-0.05123358,1.69742,0.99399
222.321,18.61506,-0.0511348,1.7016,0.99366
222.821,18.6292,-0.0522221,1.70316,0.99334
223.321,18.64331,-0.05255779,1.70645,0.99301
223.821,18.65739,-0.05254656,1.70929,0.99268
224.321,18.67144,-0.05252644,1.71118,0.99235
224.821,18.68551,-0.0529131,1.71349,0.99202
225.321,18.6996,-0.05388218,1.71492,0.99168
225.821,18.71366,-0.05385623,1.7176,0.99135
226.321,18.7277,-0.05387135,1.7206,0.99102
226.821,18.7418,-0.05387389,1.72335,0.99068
227.321,18.7559,-0.05384449,1.72501,0.99035
227.821,18.7699,-0.05382174,1.72701,0.99001
228.321,18.78396,-0.05262179,1.72815,0.98968
228.821,18.79805,-0.05254854,1.7313,0.98934
229.321,18.8121,-0.05254951,1.73357,0.989
229.821,18.82615,-0.05255008,1.73698,0.98867
230.321,18.84023,-0.05255,1.7399,0.98833
230.821,18.85424,-0.05255,1.74049,0.98799
231.321,18.86828,-0.05255,1.74355,0.98765
231.821,18.8823,-0.05255005,1.74661,0.98731
232.321,18.89633,-0.05254971,1.74763,0.98697
232.821,18.91039,-0.05254904,1.75172,0.98663
233.321,18.92434,-0.05256522,1.75352,0.98628
233.821,18.93833,-0.05252465,1.75478,0.98594
234.321,18.95228,-0.05336697,1.75796,0.9856
234.821,18.9663,-0.05350596,1.75953,0.98525
235.321,18.98021,-0.05387858,1.76359,0.98491
235.821,18.99417,-0.05385083,1.76554,0.98456
236.321,19.00814,-0.05386049,1.76865,0.98422
236.821,19.02211,-0.05386011,1.77022,0.98387
237.321,19.0361,-0.05386044,1.76913,0.98352
237.821,19.05001,-0.05386101,1.77293,0.98317
238.321,19.06396,-0.05380095,1.7746,0.98283
238.821,19.07784,-0.05262957,1.77889,0.98248
239.321,19.0917,-0.05253692,1.77995,0.98213
239.821,19.1056,-0.05290677,1.78142,0.98178
240.321,19.11948,-0.05386894,1.78414,0.98142
240.821,19.13343,-0.0538465,1.78704,0.98107
241.321,19.14735,-0.0538613,1.78677,0.98072
241.821,19.1613,-0.05386033,1.78815,0.98037
242.321,19.1752,-0.05385894,1.7934,0.98001
242.821,19.18917,-0.05385999,1.79314,0.97966
243.321,19.20307,-0.05390056,1.79578,0.9793
243.821,19.217,-0.05337789,1.79974,0.97895
244.321,19.23086,-0.05251316,1.80089,0.97859
244.821,19.24472,-0.05256172,1.80339,0.97824
245.321,19.25856,-0.05254962,1.80672,0.97788
245.821,19.27241,-0.05254973,1.80517,0.97752
246.321,19.2863,-0.05255012,1.80823,0.97716
246.821,19.30012,-0.05255019,1.81117,0.9768
247.321,19.314,-0.05254621,1.81089,0.97645
247.821,19.3278,-0.05255963,1.81448,0.97609
248.321,19.34166,-0.05266773,1.81802,0.97572
248.821,19.3555,-0.05358832,1.81795,0.97536
249.321,19.3693,-0.05485996,1.82168,0.975
249.821,19.38306,-0.05517982,1.82088,0.97464
250.321,19.3967,-0.05516872,1.82371,0.97428
250.821,19.41038,-0.05516989,1.8241,0.97391
251.321,19.42406,-0.05517005,1.82965,0.97355
251.821,19.4378,-0.05516999,1.83105,0.97318
252.321,19.4516,-0.05516994,1.83276,0.97282
252.821,19.4654,-0.05517043,1.83468,0.97245
253.321,19.47934,-0.05517017,1.83439,0.97209
253.821,19.49329,-0.05512963,1.83693,0.97172
254.321,19.50721,-0.05400606,1.83889,0.97135
254.821,19.5211,-0.05388361,1.84283,0.97098
255.321,19.53489,-0.05376517,1.84398,0.97062
255.821,19.54864,-0.05258247,1.84608,0.97025
256.321,19.5624,-0.05257546,1.84776,0.96988
256.821,19.57611,-0.05254568,1.84847,0.96951
257.321,19.58983,-0.05254976,1.85294,0.96914
257.821,19.60357,-0.0525519,1.85375,0.96876
258.321,19.61735,-0.05254413,1.85457,0.96839
258.821,19.63109,-0.0530601,1.85772,0.96802
259.321,19.64488,-0.05437652,1.85888,0.96765
259.821,19.65868,-0.05526186,1.86264,0.96727
260.321,19.67246,-0.05526442,1.86005,0.9669
260.821,19.6862,-0.05528251,1.86394,0.96652
261.321,19.69993,-0.05528012,1.86534,0.96615
261.821,19.71363,-0.05527992,1.86776,0.96577
262.321,19.7273,-0.05528001,1.86885,0.9654
262.821,19.74103,-0.05528005,1.8701,0.96502
263.321,19.75476,-0.05527952,1.87096,0.96464
263.821,19.7685,-0.05528062,1.87537,0.96427
264.321,19.78223,-0.05530529,1.87648,0.96389
264.821,19.79595,-0.05633319,1.87769,0.96351
265.321,19.80971,-0.0565926,1.87982,0.96313
265.821,19.82341,-0.05660115,1.88135,0.96275
266.321,19.8371,-0.05662042,1.8823,0.96237
266.821,19.85079,-0.05671642,1.88397,0.96199
267.321,19.8645,-0.05786725,1.8877,0.96161
267.821,19.8782,-0.05791343,1.88935,0.96123
268.321,19.89187,-0.0577821,1.89277,0.96084
268.821,19.90557,-0.05699348,1.89328,0.96046
269.321,19.9192,-0.05659543,1.89647,0.96008
269.821,19.9329,-0.05538919,1.89915,0.95969
270.321,19.94652,-0.05551705,1.90006,0.95931
270.821,19.96021,-0.05550514,1.89893,0.95892
271.321,19.9739,-0.05539293,1.90067,0.95854
271.821,19.9876,-0.05463051,1.90152,0.95815
272.321,20.00123,-0.053815,1.90584,0.95777
272.821,20.0149,-0.05388468,1.90571,0.95738
273.321,20.02855,-0.05384426,1.9091,0.95699
273.821,20.04216,-0.05478422,1.90991,0.9566
274.321,20.0558,-0.05532254,1.91206,0.95622
274.821,20.06945,-0.05563966,1.91432,0.95583
275.321,20.08311,-0.05693919,1.91702,0.95544
275.821,20.09678,-0.05680534,1.91705,0.95505
276.321,20.11047,-0.05682026,1.91699,0.95466
276.821,20.1241,-0.05679705,1.92125,0.95427
277.321,20.13781,-0.05687922,1.92125,0.95388
277.821,20.15139,-0.05567297,1.92513,0.95349
278.321,20.16504,-0.05633018,1.92349,0.95309
278.821,20.17868,-0.05671861,1.92583,0.9527
279.321,20.1923,-0.05672005,1.92943,0.95231
279.821,20.20594,-0.05669183,1.93119,0.95191
280.321,20.21955,-0.05669435,1.92994,0.95152
280.821,20.23321,-0.05590267,1.93307,0.95113
281.321,20.24686,-0.05682334,1.93663,0.95073
281.821,20.26047,-0.05737499,1.93726,0.95034
282.321,20.27409,-0.05736876,1.93942,0.94994
282.821,20.28774,-0.05736791,1.94326,0.94955
283.321,20.3014,-0.05734885,1.94243,0.94915
283.821,20.31504,-0.05768491,1.94553,0.94875
284.321,20.3287,-0.05877998,1.94646,0.94835
284.821,20.34234,-0.05878366,1.94647,0.94796
285.321,20.35598,-0.05880045,1.94958,0.94756
285.821,20.36961,-0.05879742,1.95206,0.94716
286.321,20.3832,-0.05892851,1.9519,0.94676
286.821,20.39684,-0.05914634,1.95453,0.94636
287.321,20.41054,-0.0591316,1.95737,0.94596
287.821,20.42418,-0.05912937,1.95847,0.94556
288.321,20.43781,-0.05913005,1.95918,0.94516
288.821,20.45141,-0.05913001,1.96022,0.94476
289.321,20.46499,-0.05913006,1.96466,0.94436
289.821,20.47856,-0.05912993,1.96468,0.94395
290.321,20.49217,-0.05912807,1.96642,0.94355
290.821,20.5057,-0.059142,1.96767,0.94315
291.321,20.5192,-0.0587976,1.96672,0.94274
291.821,20.53275,-0.05749327,1.97068,0.94234
292.321,20.54636,-0.05712461,1.9714,0.94194
292.821,20.56011,-0.05714879,1.97288,0.94153
293.321,20.57372,-0.05714466,1.97401,0.94113
293.821,20.58735,-0.05716983,1.97477,0.94072
294.321,20.601,-0.05728796,1.97596,0.94032
294.821,20.6148,-0.05841963,1.97933,0.93991
295.321,20.62845,-0.05847091,1.98123,0.9395
295.821,20.64206,-0.0584705,1.98326,0.9391
296.321,20.65565,-0.0584699,1.98482,0.93869
296.821,20.66924,-0.05847,1.98301,0.93828
297.321,20.68285,-0.05847,1.98604,0.93787
297.821,20.69647,-0.05847,1.98828,0.93746
298.321,20.71005,-0.05847,1.98867,0.93705
298.821,20.72371,-0.05847,1.99207,0.93665
299.321,20.7373,-0.05847,1.99181,0.93624
299.821,20.75091,-0.05847,1.99457,0.93583
300.321,20.7645,-0.05847,1.99679,0.93541
300.821,20.77808,-0.05847,1.99946,0.935
301.321,20.79169,-0.05847004,1.99895,0.93459
301.821,20.80528,-0.05846973,1.99958,0.93418
302.321,20.81888,-0.05847016,2.00102,0.93377
302.821,20.8325,-0.05847933,2.00181,0.93336
303.321,20.84614,-0.0584199,2.0046,0.93294
303.821,20.85977,-0.05918015,2.00528,0.93253
304.321,20.8734,-0.05984182,2.00768,0.93212
304.821,20.88702,-0.0597841,2.01038,0.9317
305.321,20.90063,-0.05978934,2.01051,0.93129
305.821,20.91422,-0.05979027,2.01166,0.93087
306.321,20.9278,-0.05978994,2.01282,0.93046
306.821,20.94139,-0.05978956,2.01193,0.93004
307.321,20.95501,-0.05979371,2.01556,0.92963
307.821,20.96862,-0.05978592,2.01679,0.92921
308.321,20.98222,-0.05965217,2.01623,0.9288
308.821,20.9958,-0.05862572,2.01923,0.92838
309.321,21.00939,-0.05847175,2.02171,0.92796
309.821,21.02301,-0.0584667,2.02121,0.92755
310.321,21.0366,-0.05846863,2.02118,0.92713
310.821,21.05015,-0.05846494,2.02365,0.92671
311.321,21.06371,-0.05856419,2.02413,0.92629
311.821,21.0773,-0.05763112,2.02615,0.92587
312.321,21.0909,-0.05749842,2.02735,0.92545
312.821,21.10455,-0.05755123,2.02722,0.92503
313.321,21.11812,-0.05872138,2.02825,0.92461
313.821,21.13175,-0.05876667,2.02987,0.92419
314.321,21.14536,-0.05879549,2.03317,0.92377
314.821,21.15895,-0.05878978,2.03097,0.92335
315.321,21.17249,-0.0587783,2.03417,0.92293
315.821,21.18608,-0.05885296,2.03301,0.92251
316.321,21.19962,-0.05811757,2.03714,0.92209
316.821,21.2133,-0.05841853,2.03834,0.92167
317.321,21.22687,-0.05882619,2.03825,0.92124
317.821,21.2405,-0.05878808,2.0397,0.92082
318.321,21.25415,-0.05909188,2.04231,0.9204
318.821,21.26776,-0.05977742,2.04571,0.91998
319.321,21.28135,-0.05982788,2.043,0.91955
319.821,21.295,-0.05923423,2.04237,0.91913
320.321,21.30857,-0.05847328,2.04545,0.9187
320.821,21.32214,-0.05848735,2.04619,0.91828
321.321,21.3357,-0.05837253,2.04763,0.91786
321.821,21.34935,-0.05947546,2.04905,0.91743
322.321,21.36299,-0.05979689,2.04795,0.917
322.821,21.37659,-0.05978978,2.05287,0.91658
323.321,21.3902,-0.05979209,2.05144,0.91615
323.821,21.40383,-0.05975182,2.05371,0.91573
324.321,21.41747,-0.06028349,2.0554,0.9153
324.821,21.4311,-0.06149792,2.05447,0.91487
325.321,21.44463,-0.06140964,2.05466,0.91445
325.821,21.45823,-0.06143104,2.05795,0.91402
326.321,21.47182,-0.06143039,2.05657,0.91359
326.821,21.48547,-0.06143004,2.06057,0.91316
327.321,21.4991,-0.06142998,2.05901,0.91274
327.821,21.51274,-0.06142507,2.06044,0.91231
328.321,21.5264,-0.06145417,2.06001,0.91188
328.821,21.54006,-0.06148801,2.05843,0.91145
329.321,21.55371,-0.06266019,2.05974,0.91102
329.821,21.5673,-0.06274238,2.06092,0.91059
330.321,21.58096,-0.06273907,2.05963,0.91016
330.821,21.59456,-0.06275366,2.06071,0.90973
331.321,21.60816,-0.06271377,2.05902,0.9093
331.821,21.6218,-0.06360826,2.06009,0.90887
332.321,21.63542,-0.06415127,2.06067,0.90844
332.821,21.64909,-0.06340638,2.06091,0.90801
333.321,21.66274,-0.0626982,2.06148,0.90758
333.821,21.6764,-0.06275768,2.06077,0.90714
334.321,21.69003,-0.06275012,2.06358,0.90671
334.821,21.70372,-0.06275644,2.06019,0.90628
335.321,21.7174,-0.06272871,2.06243,0.90585
335.821,21.73108,-0.06259504,2.05997,0.90542
336.321,21.74475,-0.0616681,2.06225,0.90498
336.821,21.75836,-0.06176412,2.06076,0.90455
337.321,21.772,-0.06176253,2.05811,0.90412
337.821,21.78568,-0.06175592,2.05929,0.90368
338.321,21.79934,-0.06175857,2.05991,0.90325
338.821,21.81296,-0.06194261,2.06104,0.90281
339.321,21.82658,-0.06296824,2.05938,0.90238
339.821,21.84025,-0.06307273,2.06025,0.90195
340.321,21.85396,-0.0630838,2.05939,0.90151
340.821,21.8676,-0.06307901,2.06102,0.90108
341.321,21.8813,-0.06307399,2.05951,0.90064
341.821,21.895,-0.06313193,2.05874,0.90021
342.321,21.9087,-0.06245862,2.05965,0.89977
342.821,21.92238,-0.06169844,2.06051,0.89933
343.321,21.93604,-0.0618287,2.06066,0.8989
343.821,21.9497,-0.0610676,2.06105,0.89846
344.321,21.9634,-0.06076477,2.06307,0.89802
344.821,21.97701,-0.06072807,2.06129,0.89759
345.321,21.9907,-0.06155652,2.06572,0.89715
345.821,22.0044,-0.06213893,2.06323,0.89671
346.321,22.01802,-0.06208297,2.06718,0.89628
346.821,22.03173,-0.06203598,2.06554,0.89584
347.321,22.04542,-0.06274749,2.06936,0.8954
347.821,22.0591,-0.06361941,2.06856,0.89496
348.321,22.0727,-0.06364804,2.07022,0.89452
348.821,22.08641,-0.06471946,2.0703,0.89409
349.321,22.10011,-0.06492782,2.07193,0.89365
349.821,22.11382,-0.06494677,2.07166,0.89321
350.321,22.1275,-0.06493943,2.07545,0.89277
350.821,22.14122,-0.06494009,2.07569,0.89233
351.321,22.15498,-0.06493823,2.07708,0.89189
351.821,22.1687,-0.06494172,2.07799,0.89145
352.321,22.1824,-0.06428318,2.07893,0.89101
352.821,22.19613,-0.06356068,2.0798,0.89057
353.321,22.2099,-0.06361744,2.08041,0.89013
353.821,22.22361,-0.0636227,2.08171,0.88969
354.321,22.23736,-0.06361701,2.08467,0.88925
354.821,22.2512,-0.06359984,2.08405,0.88881
355.321,22.26493,-0.06393909,2.08403,0.88837
355.821,22.27867,-0.06492347,2.08659,0.88793
356.321,22.2924,-0.06492878,2.08805,0.88749
356.821,22.30612,-0.06492865,2.08663,0.88705
357.321,22.31981,-0.0649181,2.09094,0.88661
357.821,22.33352,-0.0639339,2.09065,0.88616
358.321,22.34727,-0.0636114,2.09252,0.88572
358.821,22.36101,-0.06362722,2.09243,0.88528
359.321,22.37479,-0.06363083,2.09408,0.88484
359.821,22.3886,-0.06362997,2.09363,0.8844
360.321,22.40236,-0.06362998,2.097,0.88395
360.821,22.41615,-0.06363,2.09461,0.88351
361.321,22.42991,-0.06363,2.09942,0.88307
361.821,22.44365,-0.06362998,2.101,0.88262
362.321,22.4574,-0.06363006,2.10221,0.88218
362.821,22.47113,-0.0636304,2.10331,0.88174
363.321,22.4849,-0.06362613,2.10513,0.8813
363.821,22.4986,-0.06390657,2.10792,0.88085
364.321,22.51241,-0.06569026,2.10827,0.88041
364.821,22.52618,-0.06629221,2.11005,0.87996
365.321,22.53999,-0.06625216,2.11079,0.87952
365.821,22.5538,-0.06624704,2.11021,0.87908
366.321,22.56757,-0.06625496,2.11068,0.87863
366.821,22.58136,-0.06629177,2.11384,0.87819
367.321,22.59521,-0.0656765,2.11412,0.87774
367.821,22.60898,-0.0649408,2.11476,0.8773
368.321,22.62281,-0.06494186,2.11756,0.87685
368.821,22.63664,-0.06493975,2.11896,0.87641
369.321,22.65046,-0.06493997,2.12052,0.87596
369.821,22.66434,-0.06494007,2.12221,0.87552
370.321,22.67821,-0.06493988,2.12415,0.87507
370.821,22.69205,-0.06493798,2.12601,0.87463
371.321,22.7059,-0.06495289,2.12886,0.87418
371.821,22.7197,-0.06495754,2.12948,0.87374
372.321,22.73356,-0.06599931,2.13119,0.87329
372.821,22.74737,-0.06639215,2.13294,0.87285
373.321,22.76122,-0.06637435,2.13177,0.8724
373.821,22.775,-0.06636341,2.1355,0.87195
374.321,22.78885,-0.06637371,2.13691,0.87151
374.821,22.80273,-0.06738599,2.13873,0.87106
375.321,22.81656,-0.06876542,2.14094,0.87061
375.821,22.83041,-0.06866843,2.14117,0.87017
376.321,22.8443,-0.06865642,2.14516,0.86972
376.821,22.85812,-0.0686602,2.14523,0.86927
377.321,22.87197,-0.06866007,2.14661,0.86883
377.821,22.88583,-0.06865999,2.15039,0.86838
378.321,22.89967,-0.06866,2.14938,0.86793
378.821,22.9135,-0.06866,2.15233,0.86749
379.321,22.92736,-0.06866,2.15453,0.86704
379.821,22.94125,-0.06866,2.15622,0.86659
380.321,22.95515,-0.06866,2.15571,0.86615
380.821,22.96903,-0.06866,2.15895,0.8657
381.321,22.9829,-0.06866,2.15986,0.86525
381.821,22.99679,-0.06866,2.16128,0.8648
382.321,23.01069,-0.06866,2.1633,0.86436
382.821,23.0246,-0.06866,2.16699,0.86391
383.321,23.03849,-0.06866,2.16611,0.86346
383.821,23.0524,-0.06866,2.17059,0.86301
384.321,23.0663,-0.06866001,2.17082,0.86256
384.821,23.08028,-0.06866003,2.17234,0.86212
385.321,23.09424,-0.06865954,2.17496,0.86167
385.821,23.10817,-0.06866089,2.17658,0.86122
386.321,23.12207,-0.06867481,2.17966,0.86077
386.821,23.13599,-0.06846575,2.18088,0.86032
387.321,23.14995,-0.06799688,2.18152,0.85987
387.821,23.1639,-0.06807946,2.18558,0.85943
388.321,23.17781,-0.06742743,2.18709,0.85898
388.821,23.19175,-0.06737711,2.18912,0.85853
389.321,23.2057,-0.06735608,2.19135,0.85808
389.821,23.21966,-0.06735932,2.19218,0.85763
390.321,23.2336,-0.06738212,2.19557,0.85718
390.821,23.2475,-0.06729212,2.19782,0.85673
391.321,23.26144,-0.06849371,2.20068,0.85629
391.821,23.2754,-0.06867573,2.20716,0.85584
392.321,23.28941,-0.06867015,2.20575,0.85539
392.821,23.30331,-0.06866413,2.20971,0.85494
393.321,23.3173,-0.06868984,2.21097,0.85449
393.821,23.3313,-0.06883081,2.21227,0.85404
394.321,23.34535,-0.06993357,2.21499,0.85359
394.821,23.35934,-0.07032431,2.22051,0.85314
395.321,23.37332,-0.07139825,2.2223,0.85269
395.821,23.3873,-0.07128785,2.22346,0.85224
396.321,23.40135,-0.07127599,2.22531,0.85179
396.821,23.4153,-0.07164934,2.23076,0.85134
397.321,23.42933,-0.07262482,2.23536,0.8509
397.821,23.44333,-0.07260615,2.23615,0.85045
398.321,23.45736,-0.0726215,2.23747,0.85
398.821,23.47138,-0.07262185,2.24085,0.84955
399.321,23.4854,-0.072606,2.24376,0.8491
399.821,23.4994,-0.07261257,2.24392,0.84865
400.321,23.51341,-0.07161847,2.24774,0.8482
400.821,23.52745,-0.07128278,2.24991,0.84775
401.321,23.54147,-0.07129675,2.252,0.8473
401.821,23.55552,-0.07130073,2.2555,0.84685
402.321,23.56955,-0.07130002,2.25867,0.8464
402.821,23.58362,-0.07129998,2.2602,0.84595
403.321,23.5977,-0.0713,2.26411,0.8455
403.821,23.61174,-0.07130004,2.26777,0.84505
404.321,23.62578,-0.07129971,2.26935,0.8446
404.821,23.63982,-0.07129955,2.27362,0.84415
405.321,23.65389,-0.07131346,2.2745,0.8437
405.821,23.6679,-0.07126791,2.28307,0.84325
406.321,23.68202,-0.07240144,2.28623,0.8428
406.821,23.69612,-0.07538437,2.29055,0.84235
407.321,23.7102,-0.07806238,2.29119,0.8419
407.821,23.72428,-0.07933418,2.28812,0.84145
408.321,23.73834,-0.07603803,2.28953,0.841
408.821,23.75243,-0.06942603,2.29028,0.84055
409.321,23.76654,-0.06507247,2.29062,0.8401
409.821,23.78065,-0.06285022,2.29399,0.83966
410.321,23.79479,-0.0643949,2.2923,0.83921
410.821,23.8089,-0.06655692,2.2913,0.83876
411.321,23.82304,-0.06833098,2.29523,0.83831
411.821,23.8371,-0.06992894,2.29629,0.83786
412.321,23.8512,-0.07140495,2.29953,0.83741
412.821,23.86519,-0.07233003,2.29872,0.83696
413.321,23.8792,-0.07273031,2.30065,0.83651
413.821,23.89329,-0.07372644,2.30542,0.83606
414.321,23.9074,-0.07405609,2.30834,0.83561
414.821,23.92158,-0.07403941,2.30768,0.83516
415.321,23.93571,-0.07406804,2.30974,0.83471
415.821,23.95001,-0.07409949,2.3113,0.83426
416.321,23.96431,-0.07513713,2.31368,0.83381
416.821,23.97852,-0.07501471,2.31423,0.83336
417.321,23.9927,-0.07539342,2.31818,0.83291
417.821,24.00686,-0.07535593,2.31868,0.83246
418.321,24.0211,-0.07535962,2.31759,0.83201
418.821,24.03527,-0.07535895,2.32223,0.83156
419.321,24.04942,-0.0753593,2.32223,0.83111
419.821,24.0635,-0.07543943,2.32543,0.83067
420.321,24.07759,-0.07627621,2.32875,0.83022
420.821,24.0917,-0.07630819,2.33283,0.82977
421.321,24.10586,-0.07674305,2.33703,0.82932
421.821,24.12005,-0.07769332,2.34091,0.82887
422.321,24.1342,-0.07765691,2.34702,0.82842
422.821,24.14851,-0.0776706,2.35358,0.82797
423.321,24.16281,-0.07767534,2.35521,0.82752
423.821,24.1771,-0.07748259,2.35862,0.82707
424.321,24.19143,-0.07626978,2.36447,0.82662
424.821,24.20564,-0.07633314,2.36469,0.82618
425.321,24.21987,-0.07669357,2.3705,0.82573
425.821,24.2342,-0.07667115,2.36945,0.82528
426.321,24.24842,-0.07667962,2.37111,0.82483
426.821,24.26267,-0.07667571,2.37156,0.82438
427.321,24.2769,-0.07829733,2.37181,0.82393
427.821,24.29115,-0.07932026,2.37401,0.82348
428.321,24.3054,-0.07939864,2.37621,0.82304
428.821,24.3197,-0.07827522,2.3749,0.82259
429.321,24.33391,-0.07786275,2.37268,0.82214
429.821,24.34819,-0.07787974,2.37652,0.82169
430.321,24.3625,-0.07858337,2.37368,0.82124
430.821,24.37679,-0.07834103,2.37643,0.8208
431.321,24.3911,-0.07812702,2.37423,0.82035
431.821,24.40535,-0.07809495,2.37515,0.8199
432.321,24.41967,-0.07810228,2.37684,0.81945
432.821,24.434,-0.07892971,2.37931,0.819
433.321,24.44829,-0.07944762,2.3809,0.81856
433.821,24.46258,-0.07973782,2.38019,0.81811
434.321,24.47683,-0.08093865,2.38172,0.81766
434.821,24.4911,-0.0810336,2.3834,0.81721
435.321,24.50543,-0.08219597,2.38607,0.81677
435.821,24.51974,-0.08360583,2.38993,0.81632
436.321,24.53407,-0.08355242,2.39231,0.81587
436.821,24.54841,-0.08385119,2.3928,0.81542
437.321,24.5627,-0.08499665,2.39875,0.81498
437.821,24.57712,-0.08489118,2.39844,0.81453
438.321,24.59147,-0.08491076,2.40276,0.81408
438.821,24.60582,-0.08479989,2.40732,0.81364
439.321,24.62021,-0.08640181,2.40803,0.81319
439.821,24.63455,-0.08773452,2.41036,0.81274
440.321,24.64894,-0.08764223,2.41105,0.8123
440.821,24.66333,-0.08800527,2.41485,0.81185
441.321,24.6777,-0.08895266,2.41636,0.81141
441.821,24.6921,-0.08897551,2.41931,0.81096
442.321,24.70645,-0.09014459,2.42613,0.81051
442.821,24.7209,-0.0903522,2.42665,0.81007
443.321,24.73528,-0.09073496,2.4316,0.80962
443.821,24.7497,-0.09171446,2.43422,0.80918
444.321,24.7641,-0.09168676,2.43546,0.80873
444.821,24.7785,-0.09170036,2.43938,0.80828
445.321,24.79291,-0.09169765,2.44422,0.80784
445.821,24.80729,-0.09171017,2.44862,0.80739
446.321,24.82167,-0.09180162,2.45117,0.80695
446.821,24.8361,-0.0929614,2.45722,0.8065
447.321,24.8505,-0.09312317,2.46052,0.80606
447.821,24.8649,-0.09308063,2.46849,0.80561
448.321,24.87935,-0.0941531,2.47058,0.80517
448.821,24.89376,-0.09617363,2.47937,0.80472
449.321,24.90819,-0.09591691,2.48514,0.80428
449.821,24.9226,-0.09749698,2.48726,0.80384
450.321,24.93706,-0.09789271,2.49444,0.80339
450.821,24.95147,-0.09958899,2.5033,0.80295
451.321,24.96591,-0.09991538,2.50881,0.8025
451.821,24.98038,-0.10135,2.51625,0.80206
452.321,24.99485,-0.10259,2.52101,0.80162
452.821,25.00928,-0.10378,2.53001,0.80117
453.321,25.02373,-0.10533,2.53867,0.80073
453.821,25.03826,-0.10678,2.54273,0.80029
454.321,25.05273,-0.10766,2.55147,0.79984
454.821,25.0672,-0.10861,2.55984,0.7994
455.321,25.0817,-0.10942,2.56928,0.79896
455.821,25.09621,-0.10906,2.57522,0.79851
456.321,25.11074,-0.11079,2.58458,0.79807
456.821,25.12521,-0.11096,2.59663,0.79763
457.321,25.13971,-0.11223,2.60464,0.79719
457.821,25.15423,-0.11215,2.61465,0.79674
458.321,25.16873,-0.11283,2.62401,0.7963
458.821,25.18326,-0.11373,2.63389,0.79586
459.321,25.1978,-0.1148,2.6478,0.79542
459.821,25.2123,-0.11539,2.65449,0.79498
460.321,25.2269,-0.1169,2.66726,0.79453
460.821,25.24146,-0.11722,2.67988,0.79409
461.321,25.25602,-0.11877,2.69111,0.79365
461.821,25.27054,-0.12015,2.7032,0.79321
462.321,25.2851,-0.12256,2.71526,0.79277
462.821,25.2997,-0.12585,2.73165,0.79233
463.321,25.31426,-0.12877,2.74505,0.79189
463.821,25.32885,-0.13133,2.75932,0.79145
464.321,25.3434,-0.13494,2.77551,0.79101
464.821,25.35801,-0.13844,2.792,0.79057
465.321,25.37259,-0.14238,2.80971,0.79013
465.821,25.3872,-0.14461,2.82432,0.78969
466.321,25.40181,-0.1479,2.8448,0.78925
466.821,25.41639,-0.14939,2.85932,0.78881
467.321,25.431,-0.15243,2.87985,0.78837
467.821,25.44558,-0.15567,2.90183,0.78793
468.321,25.46019,-0.15825,2.92166,0.78749
468.821,25.47476,-0.16202,2.94333,0.78705
469.321,25.48935,-0.16481,2.96357,0.78661
469.821,25.50395,-0.16902,2.98592,0.78618
470.321,25.51855,-0.17185,3.00777,0.78574
470.821,25.5332,-0.17562,3.03158,0.7853
471.321,25.54778,-0.17825,3.05489,0.78486
471.821,25.56242,-0.18162,3.08004,0.78442
472.321,25.57708,-0.18496,3.10548,0.78399
472.821,25.59173,-0.18885,3.12967,0.78355
473.321,25.6064,-0.19274,3.15805,0.78311
473.821,25.621,-0.19624,3.18403,0.78268
474.321,25.6357,-0.201,3.21228,0.78224
474.821,25.65032,-0.20437,3.2444,0.7818
475.321,25.665,-0.20794,3.27587,0.78137
475.821,25.67969,-0.21341,3.3063,0.78093
476.321,25.69435,-0.21698,3.33793,0.78049
476.821,25.709,-0.22173,3.37469,0.78006
477.321,25.72372,-0.2274,3.4098,0.77962
477.821,25.73847,-0.23197,3.44428,0.77919
478.321,25.75313,-0.23772,3.47976,0.77875
478.821,25.76784,-0.2431,3.51914,0.77832
479.321,25.78249,-0.24867,3.55956,0.77788
479.821,25.7972,-0.25706,3.60451,0.77745
480.321,25.81189,-0.26247,3.64788,0.77701
480.821,25.8265,-0.26898,3.69571,0.77658
481.321,25.84121,-0.27731,3.747,0.77614
481.821,25.85587,-0.28429,3.79469,0.77571
482.321,25.8706,-0.29346,3.84166,0.77528
482.821,25.88526,-0.30398,3.88562,0.77484
483.321,25.89989,-0.31353,3.92937,0.77441
483.821,25.91453,-0.32465,3.98849,0.77398
484.321,25.92918,-0.33445,4.04459,0.77354
484.821,25.9438,-0.34487,4.11159,0.77311
485.321,25.95843,-0.35868,4.18148,0.77268
485.821,25.97307,-0.36983,4.25108,0.77225
486.321,25.98773,-0.38329,4.29151,0.77181
486.821,26.00238,-0.39987,4.34058,0.77138
487.321,26.017,-0.41226,4.38638,0.77095
487.821,26.03164,-0.42748,4.44506,0.77052
488.321,26.04629,-0.4424,4.50967,0.77009
488.821,26.06095,-0.45607,4.58594,0.76966
489.321,26.0756,-0.47439,4.65984,0.76923
489.821,26.09023,-0.49013,4.71411,0.76879
490.321,26.1049,-0.50829,4.7812,0.76836
490.821,26.11952,-0.52981,4.84925,0.76793
491.321,26.1341,-0.54629,4.92463,0.7675
491.821,26.14871,-0.56677,4.99281,0.76708
492.321,26.16328,-0.58915,5.06602,0.76665
492.821,26.17785,-0.60788,5.13561,0.76622
493.321,26.1924,-0.6317,5.22788,0.76579
493.821,26.20705,-0.65475,5.32354,0.76536
494.321,26.22157,-0.67667,5.40615,0.76493
494.821,26.23613,-0.70417,5.4834,0.7645
495.321,26.2507,-0.72659,5.58172,0.76407
495.821,26.2652,-0.75126,5.66857,0.76365
496.321,26.2797,-0.7846,5.75215,0.76322
496.821,26.2941,-0.81117,5.85082,0.76279
497.321,26.3087,-0.84409,5.9637,0.76236
497.821,26.3231,-0.88175,6.05586,0.76194
498.321,26.33754,-0.91505,6.1659,0.76151
498.821,26.352,-0.94943,6.27279,0.76108
499.321,26.36642,-0.99717,6.3677,0.76066
499.821,26.38085,-1.06396,6.4625,0.76023
500.321,26.3953,-1.09826,6.56357,0.75981
500.821,26.40969,-1.13439,6.65147,0.75938
501.321,26.4241,-1.17751,6.74502,0.75896
501.821,26.4386,-1.24539,6.85769,0.75853
502.321,26.45304,-1.29597,6.94889,0.75811
502.821,26.4676,-1.34861,7.02108,0.75768
503.321,26.48214,-1.40278,7.1022,0.75726
503.821,26.49675,-1.4599,7.18595,0.75683
504.321,26.51137,-1.51862,7.28001,0.75641
504.821,26.52605,-1.58048,7.34518,0.75599
505.321,26.5407,-1.64475,7.43773,0.75556
505.821,26.55535,-1.71146,7.50948,0.75514
506.321,26.57,-1.78115,7.57476,0.75472
506.821,26.5846,-1.85207,7.64039,0.75429
507.321,26.5991,-1.92351,7.68928,0.75387
507.821,26.61358,-1.99425,7.73581,0.75345
508.321,26.628,-2.06575,7.77948,0.75303
508.821,26.64237,-2.13853,7.81524,0.75261
509.321,26.65666,-2.2134,7.83485,0.75219
509.821,26.6709,-2.28855,7.83713,0.75176
510.321,26.68498,-2.36117,7.85285,0.75134
510.821,26.69912,-2.43228,7.85599,0.75092
511.321,26.7133,-2.50066,7.81414,0.7505
511.821,26.72751,-2.56539,7.75198,0.75008
512.321,26.74182,-2.62752,7.69563,0.74966
512.821,26.75627,-2.68941,7.60254,0.74924
513.321,26.771,-2.75419,7.48674,0.74883
513.821,26.78605,-2.82337,7.36209,0.74841
514.321,26.80116,-2.898,7.22663,0.74799
514.821,26.81642,-2.97402,7.0864,0.74757
515.321,26.83176,-3.05113,6.92112,0.74715
515.821,26.8471,-3.1279,6.74254,0.74673
516.321,26.86236,-3.2022,6.52717,0.74632
516.821,26.87755,-3.27495,6.29589,0.7459
517.321,26.89263,-3.34351,6.04338,0.74548
517.821,26.90761,-3.40787,5.77826,0.74507
518.321,26.92247,-3.46781,5.50655,0.74465
518.821,26.9373,-3.52408,5.22939,0.74423
519.321,26.9521,-3.57758,4.95228,0.74382
519.821,26.9668,-3.62659,4.66426,0.7434
520.321,26.98165,-3.67217,4.37703,0.74299
520.821,26.99652,-3.70294,4.07936,0.74257
521.321,27.0116,-3.72943,3.78823,0.74216
521.821,27.0268,-3.76078,3.50899,0.74174
522.321,27.0422,-3.78407,3.24179,0.74133
522.821,27.0577,-3.81295,2.98664,0.74091
523.321,27.0734,-3.84622,2.74371,0.7405
523.821,27.0892,-3.87136,2.50904,0.74009
524.321,27.105,-3.90008,2.29156,0.73967
524.821,27.1209,-3.92069,2.09014,0.73926
525.321,27.13673,-3.94045,1.90012,0.73885
525.821,27.15258,-3.95934,1.73628,0.73844
526.321,27.1685,-3.97178,1.58151,0.73803
526.821,27.18432,-3.98565,1.44128,0.73761
527.321,27.2002,-3.99587,1.31417,0.7372
527.821,27.21596,-4.00548,1.20408,0.73679
528.321,27.2317,-4.01495,1.09878,0.73638
528.821,27.2475,-4.02096,1.01122,0.73597
529.321,27.26316,-4.02722,0.92555,0.73556
529.821,27.2788,-4.03188,0.85636,0.73515
530.321,27.29441,-4.03599,0.78226,0.73474
530.821,27.31,-4.04035,0.71826,0.73433
531.321,27.32555,-4.04317,0.65918,0.73392
531.821,27.34105,-4.04671,0.60599,0.73351
532.321,27.35649,-4.04788,0.55723,0.73311
532.821,27.3719,-4.04913,0.50973,0.7327
533.321,27.38728,-4.05077,0.46637,0.73229
533.821,27.40268,-4.05374,0.42921,0.73188
534.321,27.418,-4.05517,0.38969,0.73148
534.821,27.43334,-4.05578,0.35555,0.73107
535.321,27.44865,-4.05683,0.32562,0.73066
535.821,27.46392,-4.05607,0.29701,0.73026
536.321,27.47922,-4.05598,0.27328,0.72985
536.821,27.49444,-4.05598,0.2489,0.72944
537.321,27.5097,-4.05598,0.22863,0.72904
537.821,27.52487,-4.05597,0.21131,0.72863
538.321,27.54012,-4.05596,0.19509,0.72823
538.821,27.55537,-4.05658,0.18324,0.72783
539.321,27.57062,-4.0573,0.16992,0.72742
539.821,27.5858,-4.0573,0.16032,0.72702
540.321,27.601,-4.05732,0.15142,0.72661
540.821,27.6161,-4.05714,0.14874,0.72621
541.321,27.63128,-4.05933,0.14393,0.72581
541.821,27.64648,-4.06264,0.13862,0.72541
542.321,27.6617,-4.06319,0.13127,0.725
542.821,27.677,-4.06243,0.12883,0.7246
543.321,27.69231,-4.0578,0.12731,0.7242
543.821,27.70768,-4.05336,0.12766,0.7238
544.321,27.7229,-4.05194,0.12292,0.7234
544.821,27.73821,-4.05205,0.12222,0.723
545.321,27.7534,-4.05248,0.11806,0.7226
545.821,27.76857,-4.05378,0.1184,0.7222
546.321,27.7838,-4.0538,0.11594,0.7218
546.821,27.79905,-4.05585,0.11344,0.7214
547.321,27.8143,-4.05942,0.11399,0.721
547.821,27.8295,-4.06593,0.11296,0.7206
548.321,27.84475,-4.07086,0.10677,0.7202
548.821,27.8601,-4.06603,0.10769,0.7198
549.321,27.8753,-4.05722,0.10422,0.71941
549.821,27.8906,-4.04715,0.10303,0.71901
550.321,27.9059,-4.04608,0.10238,0.71861
550.821,27.9212,-4.05095,0.10074,0.71822
551.321,27.93648,-4.05301,0.10135,0.71782
551.821,27.95178,-4.05606,0.10075,0.71742
552.321,27.96704,-4.05585,0.10231,0.71703
552.821,27.98235,-4.05587,0.10297,0.71663
553.321,27.99757,-4.05587,0.1048,0.71624
553.821,28.0129,-4.05587,0.1073,0.71584
554.321,28.0283,-4.05588,0.10565,0.71545
554.821,28.0436,-4.05627,0.1071,0.71505
555.321,28.05903,-4.05718,0.10784,0.71466
555.821,28.0743,-4.05718,0.11246,0.71427
556.321,28.0897,-4.05718,0.11537,0.71387
556.821,28.10509,-4.05718,0.11652,0.71348
557.321,28.12048,-4.05718,0.11998,0.71309
557.821,28.13584,-4.05713,0.12326,0.7127
558.321,28.15118,-4.05803,0.12679,0.7123
558.821,28.16658,-4.05864,0.13154,0.71191
559.321,28.18197,-4.05856,0.13515,0.71152
559.821,28.19738,-4.05942,0.13601,0.71113
560.321,28.2128,-4.05993,0.1379,0.71074
560.821,28.2281,-4.05992,0.14194,0.71035
561.321,28.2435,-4.05992,0.14178,0.70996
561.821,28.25885,-4.05992,0.14828,0.70957
562.321,28.27423,-4.0599,0.14804,0.70918
562.821,28.2896,-4.05989,0.14693,0.70879
563.321,28.30498,-4.05866,0.15094,0.70841
563.821,28.3204,-4.05861,0.1521,0.70802
564.321,28.3358,-4.0585,0.15115,0.70763
564.821,28.35122,-4.0571,0.15567,0.70724
565.321,28.36662,-4.05721,0.15391,0.70686
565.821,28.382,-4.0572,0.15642,0.70647
566.321,28.39742,-4.05715,0.15486,0.70608
566.821,28.4128,-4.05814,0.1558,0.7057
567.321,28.42827,-4.05851,0.15552,0.70531
567.821,28.44371,-4.05851,0.15705,0.70493
568.321,28.45915,-4.0585,0.15728,0.70454
568.821,28.4746,-4.0594,0.15829,0.70416
569.321,28.48997,-4.05981,0.15631,0.70377
569.821,28.5054,-4.05983,0.15687,0.70339
570.321,28.5208,-4.05982,0.15501,0.70301
570.821,28.53622,-4.05982,0.16042,0.70262
571.321,28.55162,-4.05982,0.1571,0.70224
571.821,28.5671,-4.05982,0.15362,0.70186
572.321,28.58251,-4.05982,0.15658,0.70148
572.821,28.5979,-4.05982,0.15579,0.70109
573.321,28.61341,-4.05981,0.15793,0.70071
573.821,28.6288,-4.05983,0.16075,0.70033
574.321,28.64426,-4.06029,0.15669,0.69995
574.821,28.65973,-4.06114,0.1579,0.69957
575.321,28.67519,-4.06114,0.1602,0.69919
575.821,28.6906,-4.06113,0.16179,0.69881
576.321,28.70603,-4.06123,0.16041,0.69843
576.821,28.72155,-4.05997,0.15853,0.69805
577.321,28.737,-4.05969,0.15751,0.69768
577.821,28.7525,-4.05955,0.16126,0.6973
578.321,28.76795,-4.05843,0.15848,0.69692
578.821,28.7834,-4.0584,0.16027,0.69654
579.321,28.7989,-4.05839,0.15861,0.69617
579.821,28.81438,-4.05839,0.16304,0.69579
580.321,28.82984,-4.05838,0.16232,0.69541
580.821,28.8453,-4.05877,0.16287,0.69504
581.321,28.86078,-4.05939,0.16645,0.69466
581.821,28.87623,-4.05938,0.1648,0.69429
582.321,28.8917,-4.05938,0.16937,0.69391
582.821,28.90711,-4.05938,0.17009,0.69354
583.321,28.92261,-4.05938,0.17421,0.69316
583.821,28.9381,-4.05938,0.1706,0.69279
584.321,28.9536,-4.05938,0.17044,0.69242
584.821,28.9691,-4.05938,0.17281,0.69204
585.321,28.98459,-4.05938,0.17091,0.69167
585.821,29.00007,-4.05939,0.17313,0.6913
586.321,29.01557,-4.05895,0.17012,0.69093
586.821,29.0311,-4.05874,0.17016,0.69055
587.321,29.04665,-4.05873,0.16639,0.69018
587.821,29.06216,-4.05873,0.16668,0.68981
588.321,29.0777,-4.05873,0.1693,0.68944
588.821,29.09324,-4.05873,0.16962,0.68907
589.321,29.10877,-4.05873,0.16712,0.6887
589.821,29.1243,-4.05873,0.16583,0.68833
590.321,29.1397,-4.05873,0.16615,0.68796
590.821,29.1553,-4.05873,0.16336,0.6876
591.321,29.1708,-4.05873,0.16264,0.68723
591.821,29.18635,-4.05873,0.16373,0.68686
592.321,29.2019,-4.05873,0.16461,0.68649
592.821,29.2175,-4.05873,0.16102,0.68613
593.321,29.233,-4.05873,0.16302,0.68576
593.821,29.24858,-4.059,0.16345,0.68539
594.321,29.2641,-4.06015,0.16215,0.68503
594.821,29.27965,-4.05968,0.16339,0.68466
595.321,29.29518,-4.05879,0.15978,0.6843
595.821,29.31076,-4.0592,0.16167,0.68393
596.321,29.3263,-4.06009,0.16403,0.68357
596.821,29.34194,-4.06005,0.15915,0.6832
597.321,29.3576,-4.06004,0.16181,0.68284
597.821,29.37313,-4.0593,0.16289,0.68248
598.321,29.38877,-4.05871,0.15965,0.68211
598.821,29.40434,-4.05871,0.16469,0.68175
599.321,29.4199,-4.05872,0.15958,0.68139
599.821,29.4355,-4.05872,0.16515,0.68103
600.321,29.45106,-4.05872,0.1596,0.68066
600.821,29.46664,-4.05872,0.1614,0.6803
601.321,29.4822,-4.05872,0.16382,0.67994
601.821,29.4978,-4.05872,0.16379,0.67958
602.321,29.51342,-4.05872,0.16413,0.67922
602.821,29.529,-4.05872,0.16383,0.67886
603.321,29.5446,-4.05871,0.16196,0.6785
603.821,29.5603,-4.05915,0.16241,0.67814
604.321,29.57589,-4.0601,0.16432,0.67779
604.821,29.59157,-4.06005,0.16599,0.67743
605.321,29.60721,-4.06002,0.16472,0.67707
605.821,29.62286,-4.0597,0.16568,0.67671
606.321,29.63849,-4.05904,0.16569,0.67636
606.821,29.65413,-4.05905,0.16519,0.676
607.321,29.66977,-4.05867,0.1644,0.67564
607.821,29.68532,-4.05765,0.16606,0.67529
608.321,29.7009,-4.05773,0.16808,0.67493
608.821,29.7165,-4.05772,0.16795,0.67458
609.321,29.73217,-4.05761,0.16678,0.67422
609.821,29.74786,-4.05947,0.16589,0.67387
610.321,29.76349,-4.06041,0.16911,0.67352
610.821,29.7793,-4.06038,0.16941,0.67316
611.321,29.795,-4.06163,0.16825,0.67281
611.821,29.81069,-4.06162,0.17323,0.67246
612.321,29.82638,-4.06048,0.17019,0.67211
612.821,29.84204,-4.06037,0.16845,0.67175
613.321,29.8577,-4.06036,0.16693,0.6714
613.821,29.8734,-4.06044,0.17102,0.67105
614.321,29.88908,-4.05939,0.17033,0.6707
614.821,29.9048,-4.05904,0.17095,0.67035
615.321,29.9205,-4.05904,0.17219,0.67
615.821,29.9362,-4.05797,0.17157,0.66965
616.321,29.9519,-4.05776,0.17357,0.6693
616.821,29.96756,-4.05772,0.17422,0.66895
617.321,29.9832,-4.05847,0.17101,0.6686
617.821,29.99897,-4.05906,0.17179,0.66826