File: 01_Data/HDPE/STA/N2/30K_min/HDPE_STA_N2_30KData_21109_R3.csv
##Temp./Â°C,Time/min,Mass loss(subtr.2)/mg,DSC(subtr.2)/(mW/mg),Sensit./(uV/mW)
49.382,10.01,-0.01326,0.005942016,1.05401
49.882,10.98369,-0.01246788,0.0433924,1.05402
50.382,11.19486,-0.01470752,0.07561913,1.05403
50.882,11.33796,-0.01226591,0.10051,1.05404
51.382,11.45152,-0.01050932,0.12571,1.05404
51.882,11.5459,-0.01116018,0.1487,1.05405
52.382,11.62791,-0.01379542,0.16798,1.05406
52.882,11.70279,-0.01328278,0.1916,1.05406
53.382,11.7719,-0.01454509,0.21027,1.05406
53.882,11.83498,-0.01342405,0.22639,1.05406
54.382,11.89354,-0.01255789,0.24533,1.05406
54.882,11.94929,-0.01241259,0.2642,1.05406
55.382,12.00108,-0.01083344,0.28142,1.05406
55.882,12.052,-0.01207342,0.29723,1.05405
56.382,12.1022,-0.01592599,0.31485,1.05405
56.882,12.14901,-0.0141623,0.32828,1.05404
57.382,12.1942,-0.01620605,0.34292,1.05404
57.882,12.2382,-0.01513468,0.35772,1.05403
58.382,12.28006,-0.01568354,0.36896,1.05402
58.882,12.32121,-0.0148384,0.38117,1.05401
59.382,12.36207,-0.01537465,0.39408,1.05399
59.882,12.40204,-0.01703902,0.40564,1.05398
60.382,12.44064,-0.01657938,0.41921,1.05397
60.882,12.4787,-0.01379274,0.42932,1.05395
61.382,12.5159,-0.01302536,0.44052,1.05393
61.882,12.55227,-0.0120925,0.45128,1.05391
62.382,12.58806,-0.01361691,0.46223,1.05389
62.882,12.62355,-0.01432826,0.46881,1.05387
63.382,12.65865,-0.01331703,0.47638,1.05385
63.882,12.69305,-0.01278308,0.48644,1.05383
64.382,12.72701,-0.01519126,0.49508,1.0538
64.882,12.76045,-0.01554099,0.50064,1.05378
65.382,12.79363,-0.01399006,0.50953,1.05375
65.882,12.8268,-0.01264067,0.5157,1.05372
66.382,12.85934,-0.01420865,0.52071,1.05369
66.882,12.8913,-0.01416041,0.52617,1.05366
67.382,12.92297,-0.01313619,0.53406,1.05363
67.882,12.9544,-0.01341477,0.53936,1.0536
68.382,12.9857,-0.01442438,0.54448,1.05357
68.882,13.0169,-0.0142715,0.54919,1.05353
69.382,13.04756,-0.01437171,0.55402,1.05349
69.882,13.0779,-0.01356202,0.55845,1.05346
70.382,13.1082,-0.01408877,0.56418,1.05342
70.882,13.13836,-0.01398023,0.56957,1.05338
71.382,13.1681,-0.01487146,0.57443,1.05334
71.882,13.19735,-0.01395633,0.57965,1.05329
72.382,13.22647,-0.0132531,0.58346,1.05325
72.882,13.2556,-0.01310061,0.58855,1.05321
73.382,13.28454,-0.01374574,0.59071,1.05316
73.882,13.3134,-0.01501132,0.59609,1.05311
74.382,13.342,-0.01502266,0.60088,1.05307
74.882,13.37036,-0.0154383,0.60491,1.05302
75.382,13.3987,-0.01530591,0.60883,1.05297
75.882,13.4268,-0.01556528,0.61458,1.05291
76.382,13.45476,-0.01591297,0.62012,1.05286
76.882,13.48231,-0.01662452,0.6211,1.05281
77.382,13.5096,-0.01547949,0.62736,1.05275
77.882,13.5367,-0.01521598,0.63329,1.0527
78.382,13.5637,-0.01476194,0.63842,1.05264
78.882,13.59061,-0.01389407,0.64206,1.05258
79.382,13.61728,-0.01554152,0.64652,1.05252
79.882,13.64391,-0.01638942,0.65415,1.05246
80.382,13.67053,-0.01568507,0.65625,1.0524
80.882,13.69675,-0.01672383,0.66431,1.05233
81.382,13.723,-0.01758647,0.66872,1.05227
81.882,13.74896,-0.0172599,0.67204,1.0522
82.382,13.77481,-0.0155087,0.67994,1.05214
82.882,13.80056,-0.01403322,0.68634,1.05207
83.382,13.82608,-0.01240443,0.69032,1.052
83.882,13.8514,-0.01209183,0.69589,1.05193
84.382,13.87655,-0.01321496,0.70145,1.05186
84.882,13.90134,-0.01453654,0.70681,1.05178
85.382,13.9261,-0.01624765,0.71176,1.05171
85.882,13.9508,-0.01655173,0.71756,1.05164
86.382,13.97533,-0.01667454,0.72277,1.05156
86.882,13.99983,-0.01677635,0.73131,1.05148
87.382,14.02405,-0.01618791,0.73489,1.0514
87.882,14.0483,-0.01507437,0.7392,1.05133
88.382,14.07216,-0.01475786,0.74769,1.05124
88.882,14.09593,-0.01448198,0.7539,1.05116
89.382,14.1196,-0.01470266,0.75924,1.05108
89.882,14.14325,-0.01432049,0.76488,1.051
90.382,14.1668,-0.01457355,0.77242,1.05091
90.882,14.19021,-0.01656109,0.77864,1.05082
91.382,14.2135,-0.01567565,0.78278,1.05074
91.882,14.2367,-0.01515528,0.78933,1.05065
92.382,14.25965,-0.01532077,0.79459,1.05056
92.882,14.2824,-0.01640433,0.79949,1.05047
93.382,14.3051,-0.01704459,0.80838,1.05038
93.882,14.32756,-0.01629149,0.8149,1.05028
94.382,14.35004,-0.01457633,0.82065,1.05019
94.882,14.37253,-0.01399495,0.82729,1.05009
95.382,14.39476,-0.01329801,0.83496,1.05
95.882,14.4169,-0.01332344,0.8408,1.0499
96.382,14.4389,-0.012006,0.84631,1.0498
96.882,14.4608,-0.01311736,0.85342,1.0497
97.382,14.4827,-0.01297532,0.8623,1.0496
97.882,14.50438,-0.01401522,0.86956,1.0495
98.382,14.5261,-0.01546496,0.87577,1.0494
98.882,14.5476,-0.01493619,0.88355,1.04929
99.382,14.5692,-0.01505182,0.89128,1.04919
99.882,14.5906,-0.01505056,0.89669,1.04908
100.382,14.6119,-0.01505526,0.90433,1.04897
100.882,14.63313,-0.01582153,0.91217,1.04886
101.382,14.6542,-0.0153667,0.91927,1.04875
101.882,14.6752,-0.01526843,0.92701,1.04864
102.382,14.6961,-0.01567413,0.93534,1.04853
102.882,14.71699,-0.01612083,0.9404,1.04842
103.382,14.73771,-0.01703821,0.94934,1.0483
103.882,14.75844,-0.01749107,0.95458,1.04819
104.382,14.77922,-0.018245,0.96193,1.04807
104.882,14.7997,-0.01864147,0.97109,1.04795
105.382,14.82015,-0.02006673,0.97773,1.04784
105.882,14.84066,-0.0196722,0.9852,1.04772
106.382,14.8609,-0.01840652,0.99491,1.0476
106.882,14.88125,-0.01681326,1.00542,1.04747
107.382,14.9015,-0.01563716,1.01142,1.04735
107.882,14.92155,-0.01472516,1.02014,1.04723
108.382,14.94164,-0.01447904,1.02999,1.0471
108.882,14.96163,-0.01457995,1.03786,1.04698
109.382,14.98153,-0.01385744,1.0483,1.04685
109.882,15.0015,-0.01424135,1.05865,1.04672
110.382,15.02125,-0.013727,1.06963,1.04659
110.882,15.04111,-0.01261371,1.08292,1.04646
111.382,15.06076,-0.01132143,1.0927,1.04633
111.882,15.08035,-0.0109395,1.10109,1.0462
112.382,15.1,-0.009650166,1.11395,1.04606
112.882,15.1195,-0.009649994,1.12436,1.04593
113.382,15.1389,-0.009645207,1.13536,1.04579
113.882,15.15825,-0.01082346,1.14848,1.04566
114.382,15.1776,-0.0102055,1.16125,1.04552
114.882,15.1968,-0.01084087,1.17489,1.04538
115.382,15.21594,-0.01122611,1.18812,1.04524
115.882,15.23504,-0.01246977,1.20414,1.0451
116.382,15.25412,-0.01109335,1.21882,1.04496
116.882,15.2731,-0.009671111,1.23533,1.04481
117.382,15.29207,-0.00970523,1.2493,1.04467
117.882,15.311,-0.009249726,1.26669,1.04452
118.382,15.32993,-0.01009283,1.28525,1.04438
118.882,15.3488,-0.01096081,1.30231,1.04423
119.382,15.3677,-0.01189222,1.3239,1.04408
119.882,15.3865,-0.0126883,1.34521,1.04393
120.382,15.4052,-0.01378574,1.36538,1.04378
120.882,15.42394,-0.01300565,1.39151,1.04363
121.382,15.44258,-0.01446992,1.41543,1.04348
121.882,15.4611,-0.01368279,1.44391,1.04332
122.382,15.4796,-0.01447483,1.47525,1.04317
122.882,15.49809,-0.01495938,1.50677,1.04301
123.382,15.5165,-0.01605526,1.54087,1.04286
123.882,15.53483,-0.01592806,1.58012,1.0427
124.382,15.5532,-0.01722154,1.62164,1.04254
124.882,15.5715,-0.01745603,1.66635,1.04238
125.382,15.5897,-0.01896937,1.71334,1.04222
125.882,15.60794,-0.01906089,1.76914,1.04206
126.382,15.626,-0.01806376,1.82633,1.04189
126.882,15.6441,-0.01862355,1.89487,1.04173
127.382,15.6622,-0.0171183,1.96658,1.04156
127.882,15.68025,-0.0172078,2.04645,1.0414
128.382,15.6983,-0.01602184,2.13222,1.04123
128.882,15.71635,-0.01591786,2.22558,1.04106
129.382,15.73434,-0.01586278,2.32913,1.04089
129.882,15.7523,-0.01457476,2.43886,1.04072
130.382,15.7702,-0.01492166,2.55833,1.04055
130.882,15.78805,-0.01598141,2.68432,1.04038
131.382,15.8059,-0.01670498,2.81447,1.04021
131.882,15.82368,-0.01724928,2.95626,1.04003
132.382,15.8415,-0.01730406,3.10057,1.03986
132.882,15.85926,-0.01733317,3.25625,1.03968
133.382,15.8769,-0.01856433,3.41856,1.03951
133.882,15.89471,-0.01720123,3.59881,1.03933
134.382,15.9124,-0.01733596,3.78664,1.03915
134.882,15.9301,-0.01599725,3.9768,1.03897
135.382,15.9478,-0.01507823,4.16281,1.03879
135.882,15.96551,-0.01346375,4.33902,1.0386
136.382,15.9831,-0.01275336,4.5075,1.03842
136.882,16.00076,-0.01296168,4.66528,1.03824
137.382,16.01836,-0.0129906,4.80939,1.03805
137.882,16.03596,-0.01166164,4.94028,1.03787
138.382,16.05355,-0.01162048,5.05835,1.03768
138.882,16.07108,-0.01161498,5.16904,1.03749
139.382,16.08857,-0.01189054,5.27202,1.0373
139.882,16.1061,-0.01230065,5.36124,1.03711
140.382,16.12349,-0.01228197,5.4419,1.03692
140.882,16.14088,-0.01228036,5.51053,1.03673
141.382,16.1582,-0.01227453,5.56995,1.03654
141.882,16.17547,-0.01218156,5.61342,1.03634
142.382,16.1926,-0.01340543,5.63069,1.03615
142.882,16.20976,-0.01424172,5.6281,1.03595
143.382,16.22679,-0.01462056,5.60488,1.03575
143.882,16.24382,-0.01571237,5.56372,1.03556
144.382,16.2609,-0.01643823,5.50908,1.03536
144.882,16.27792,-0.0166769,5.43625,1.03516
145.382,16.29491,-0.01732664,5.34677,1.03496
145.882,16.31176,-0.01661225,5.23681,1.03475
146.382,16.32861,-0.01599479,5.10169,1.03455
146.882,16.34539,-0.01499657,4.95476,1.03435
147.382,16.36209,-0.01454826,4.79521,1.03414
147.882,16.37869,-0.01352465,4.62202,1.03394
148.382,16.39525,-0.01318322,4.43255,1.03373
148.882,16.4117,-0.01416255,4.23475,1.03352
149.382,16.42812,-0.01293157,4.03177,1.03332
149.882,16.44443,-0.01285232,3.83597,1.03311
150.382,16.46076,-0.01359284,3.6444,1.0329
150.882,16.47699,-0.012884,3.46192,1.03268
151.382,16.49323,-0.01292441,3.29121,1.03247
151.882,16.50946,-0.01295558,3.13162,1.03226
152.382,16.52554,-0.01187224,2.98446,1.03204
152.882,16.54164,-0.01174746,2.84574,1.03183
153.382,16.5577,-0.01292278,2.72267,1.03161
153.882,16.5737,-0.01293786,2.60753,1.0314
154.382,16.5897,-0.01294006,2.50185,1.03118
154.882,16.60567,-0.01398212,2.40686,1.03096
155.382,16.6216,-0.01441755,2.31704,1.03074
155.882,16.63748,-0.01521655,2.23808,1.03052
156.382,16.65333,-0.01579753,2.1657,1.0303
156.882,16.66919,-0.01578971,2.09655,1.03008
157.382,16.68499,-0.01579,2.03776,1.02985
157.882,16.70074,-0.01579026,1.98212,1.02963
158.382,16.71656,-0.01578256,1.93382,1.0294
158.882,16.73235,-0.01574145,1.88937,1.02918
159.382,16.7482,-0.01668132,1.8477,1.02895
159.882,16.7639,-0.01733196,1.81196,1.02872
160.382,16.77972,-0.01732277,1.77921,1.02849
160.882,16.79541,-0.01872909,1.7487,1.02826
161.382,16.81113,-0.01993701,1.72021,1.02803
161.882,16.82687,-0.02040204,1.69708,1.0278
162.382,16.84254,-0.02055444,1.67278,1.02757
162.882,16.85823,-0.01993258,1.65103,1.02733
163.382,16.87389,-0.0199597,1.63566,1.0271
163.882,16.88959,-0.01966338,1.61738,1.02686
164.382,16.90524,-0.01856769,1.60451,1.02663
164.882,16.9208,-0.01865785,1.5911,1.02639
165.382,16.9364,-0.01819926,1.58069,1.02615
165.882,16.952,-0.01828924,1.56934,1.02591
166.382,16.96754,-0.01852938,1.56076,1.02568
166.882,16.9831,-0.01839133,1.55283,1.02543
167.382,16.99856,-0.01727036,1.5457,1.02519
167.882,17.014,-0.01732154,1.53997,1.02495
168.382,17.02956,-0.01624474,1.53287,1.02471
168.882,17.04499,-0.01714764,1.52673,1.02446
169.382,17.06043,-0.01721992,1.52488,1.02422
169.882,17.0759,-0.01719558,1.52152,1.02397
170.382,17.09134,-0.01713007,1.51873,1.02373
170.882,17.10678,-0.01587595,1.51609,1.02348
171.382,17.12215,-0.0167376,1.51372,1.02323
171.882,17.13755,-0.01723432,1.51131,1.02298
172.382,17.15299,-0.01721352,1.5098,1.02273
172.882,17.16829,-0.01720968,1.50996,1.02248
173.382,17.18365,-0.01720993,1.50729,1.02223
173.882,17.19899,-0.01721,1.50898,1.02197
174.382,17.21435,-0.01721,1.5078,1.02172
174.882,17.2297,-0.01721,1.50955,1.02147
175.382,17.24495,-0.01721,1.5131,1.02121
175.882,17.26024,-0.01721,1.51179,1.02095
176.382,17.2755,-0.01721,1.51254,1.0207
176.882,17.29073,-0.01721,1.51694,1.02044
177.382,17.30584,-0.01721004,1.51603,1.02018
177.882,17.32099,-0.01721009,1.51622,1.01992
178.382,17.33614,-0.01720805,1.51801,1.01966
178.882,17.35128,-0.01720284,1.52012,1.0194
179.382,17.3664,-0.01620424,1.52161,1.01914
179.882,17.38157,-0.01592144,1.52528,1.01887
180.382,17.39678,-0.01584927,1.52767,1.01861
180.882,17.41187,-0.01673542,1.52814,1.01834
181.382,17.42698,-0.01730859,1.53201,1.01808
181.882,17.44199,-0.0181487,1.53331,1.01781
182.382,17.45702,-0.01867038,1.53659,1.01754
182.882,17.472,-0.01864296,1.53833,1.01728
183.382,17.48698,-0.01863938,1.53994,1.01701
183.882,17.50185,-0.01863985,1.54132,1.01674
184.382,17.51683,-0.01864098,1.54562,1.01647
184.882,17.53181,-0.01864483,1.54775,1.0162
185.382,17.54668,-0.01858797,1.549,1.01592
185.882,17.56158,-0.01943163,1.55315,1.01565
186.382,17.57641,-0.01998341,1.5573,1.01538
186.882,17.5913,-0.01991391,1.5593,1.0151
187.382,17.6061,-0.01893706,1.56127,1.01483
187.882,17.6209,-0.02001115,1.56509,1.01455
188.382,17.6358,-0.01993051,1.56789,1.01427
188.882,17.65067,-0.02035074,1.57088,1.01399
189.382,17.66553,-0.02157891,1.57221,1.01372
189.882,17.68046,-0.02036463,1.57412,1.01344
190.382,17.6952,-0.02005173,1.57765,1.01316
190.882,17.71,-0.02007073,1.58087,1.01287
191.382,17.72471,-0.01980333,1.58518,1.01259
191.882,17.73937,-0.01995349,1.58679,1.01231
192.382,17.75406,-0.01995224,1.59022,1.01203
192.882,17.7687,-0.01995004,1.59364,1.01174
193.382,17.78339,-0.01995291,1.59462,1.01146
193.882,17.79804,-0.01993716,1.59837,1.01117
194.382,17.8127,-0.02005735,1.59953,1.01088
194.882,17.82741,-0.02049141,1.6046,1.0106
195.382,17.84208,-0.02166521,1.60662,1.01031
195.882,17.85673,-0.02165993,1.60851,1.01002
196.382,17.8714,-0.02087763,1.61356,1.00973
196.882,17.88601,-0.0204034,1.61479,1.00944
197.382,17.9006,-0.02029275,1.61876,1.00915
197.882,17.91516,-0.02028102,1.61894,1.00885
198.382,17.92971,-0.02029438,1.62446,1.00856
198.882,17.94432,-0.01890901,1.62513,1.00827
199.382,17.95883,-0.01754444,1.62759,1.00797
199.882,17.97341,-0.01754091,1.63201,1.00768
200.382,17.98797,-0.01754132,1.63439,1.00738
200.882,18.00248,-0.01755226,1.63815,1.00708
201.382,18.01698,-0.01722947,1.64218,1.00679
201.882,18.03141,-0.01510295,1.64276,1.00649
202.382,18.04591,-0.01491549,1.64686,1.00619
202.882,18.06034,-0.0149101,1.64834,1.00589
203.382,18.07479,-0.01490944,1.6507,1.00559
203.882,18.08922,-0.01491072,1.65525,1.00529
204.382,18.10366,-0.01492834,1.65778,1.00499
204.882,18.11811,-0.01483682,1.65886,1.00468
205.382,18.13253,-0.01609312,1.66545,1.00438
205.882,18.1469,-0.01634807,1.6663,1.00407
206.382,18.1613,-0.01632815,1.66951,1.00377
206.882,18.1757,-0.01665641,1.67248,1.00346
207.382,18.19013,-0.01766407,1.67381,1.00316
207.882,18.20453,-0.01759248,1.67767,1.00285
208.382,18.21892,-0.01641376,1.67942,1.00254
208.882,18.23325,-0.01636565,1.68323,1.00223
209.382,18.24761,-0.01633753,1.68517,1.00192
209.882,18.26193,-0.01634481,1.68948,1.00161
210.382,18.2762,-0.01628801,1.68988,1.0013
210.882,18.29051,-0.0170425,1.69344,1.00099
211.382,18.3048,-0.01770933,1.69619,1.00068
211.882,18.31914,-0.017658,1.69855,1.00037
212.382,18.3335,-0.0176618,1.7018,1.00005
212.882,18.34778,-0.01764731,1.70571,0.99974
213.382,18.36205,-0.01757578,1.70539,0.99942
213.882,18.37633,-0.01899969,1.71012,0.99911
214.382,18.3906,-0.02072703,1.71152,0.99879
214.882,18.4049,-0.02178501,1.7117,0.99847
215.382,18.41911,-0.0224735,1.71601,0.99815
215.882,18.43326,-0.02398603,1.71792,0.99783
216.382,18.4475,-0.02520921,1.72172,0.99751
216.882,18.46173,-0.02521653,1.72401,0.99719
217.382,18.47597,-0.0241267,1.72801,0.99687
217.882,18.49014,-0.02369267,1.72944,0.99655
218.382,18.50435,-0.0227817,1.73219,0.99623
218.882,18.51861,-0.02218032,1.73453,0.99591
219.382,18.53281,-0.02096906,1.7374,0.99558
219.882,18.547,-0.02082712,1.73944,0.99526
220.382,18.56111,-0.02082982,1.7416,0.99493
220.882,18.57526,-0.02083008,1.74679,0.99461
221.382,18.58941,-0.02083,1.74546,0.99428
221.882,18.60355,-0.02083009,1.74963,0.99395
222.382,18.61766,-0.02082956,1.75066,0.99362
222.882,18.63177,-0.02082762,1.75303,0.9933
223.382,18.64592,-0.02092432,1.75744,0.99297
223.882,18.66001,-0.02215054,1.75861,0.99264
224.382,18.67418,-0.02212459,1.76107,0.99231
224.882,18.68829,-0.02215097,1.76309,0.99197
225.382,18.70232,-0.02213877,1.76732,0.99164
225.882,18.71643,-0.02224319,1.76803,0.99131
226.382,18.7305,-0.02111286,1.76998,0.99098
226.882,18.74466,-0.02070176,1.77305,0.99064
227.382,18.75872,-0.02072113,1.77462,0.99031
227.882,18.77277,-0.02071931,1.77709,0.98997
228.382,18.78687,-0.02072664,1.78171,0.98964
228.882,18.80098,-0.02073709,1.78242,0.9893
229.382,18.81498,-0.02026295,1.78637,0.98896
229.882,18.82901,-0.01941898,1.78654,0.98863
230.382,18.84307,-0.01878086,1.79104,0.98829
230.882,18.85707,-0.01790061,1.79291,0.98795
231.382,18.87107,-0.01672299,1.79522,0.98761
231.882,18.8851,-0.01587791,1.79635,0.98727
232.382,18.89912,-0.0153349,1.79879,0.98693
232.882,18.91315,-0.01469455,1.80198,0.98658
233.382,18.9271,-0.01397454,1.80336,0.98624
233.882,18.94107,-0.01402627,1.80522,0.9859
234.382,18.95509,-0.01403516,1.80868,0.98555
234.882,18.96904,-0.01426691,1.81092,0.98521
235.382,18.98301,-0.01578797,1.81273,0.98487
235.882,18.99694,-0.01721609,1.81428,0.98452
236.382,19.01091,-0.01781234,1.81588,0.98417
236.882,19.02492,-0.01886193,1.81945,0.98383
237.382,19.0389,-0.02059564,1.82248,0.98348
237.882,19.05285,-0.02143491,1.82318,0.98313
238.382,19.0668,-0.02269901,1.82541,0.98278
238.882,19.08075,-0.02259524,1.82905,0.98243
239.382,19.09469,-0.02257223,1.83176,0.98208
239.882,19.10859,-0.02262917,1.83156,0.98173
240.382,19.1225,-0.02158732,1.8357,0.98138
240.882,19.13641,-0.01886562,1.83732,0.98103
241.382,19.15029,-0.01640075,1.83755,0.98068
241.882,19.16422,-0.01466129,1.84196,0.98032
242.382,19.17807,-0.01477449,1.8431,0.97997
242.882,19.19196,-0.01581464,1.84713,0.97962
243.382,19.20583,-0.01719815,1.84773,0.97926
243.882,19.21968,-0.01862884,1.85074,0.97891
244.382,19.23357,-0.01766222,1.85042,0.97855
244.882,19.24745,-0.01729975,1.85408,0.97819
245.382,19.26129,-0.01732865,1.85328,0.97784
245.882,19.27519,-0.01716374,1.8579,0.97748
246.382,19.28905,-0.01875222,1.85943,0.97712
246.882,19.3029,-0.01881554,1.86081,0.97676
247.382,19.31679,-0.01888137,1.86288,0.9764
247.882,19.33061,-0.01888095,1.86534,0.97604
248.382,19.3445,-0.0198799,1.86771,0.97568
248.882,19.35836,-0.02019652,1.86984,0.97532
249.382,19.37216,-0.02018318,1.87142,0.97496
249.882,19.38598,-0.02017918,1.87298,0.97459
250.382,19.3997,-0.02018002,1.87617,0.97423
250.882,19.41346,-0.02018036,1.87742,0.97387
251.382,19.42729,-0.02017828,1.88022,0.9735
251.882,19.44108,-0.02017496,1.88072,0.97314
252.382,19.45492,-0.0202683,1.88089,0.97277
252.882,19.46876,-0.01930824,1.88386,0.97241
253.382,19.48256,-0.01890427,1.88492,0.97204
253.882,19.4965,-0.01822886,1.88797,0.97167
254.382,19.51032,-0.01753749,1.8912,0.97131
254.882,19.52411,-0.01762061,1.89173,0.97094
255.382,19.5379,-0.01675833,1.89443,0.97057
255.882,19.55164,-0.01670952,1.89609,0.9702
256.382,19.5654,-0.01763064,1.89786,0.96983
256.882,19.57914,-0.01755714,1.89949,0.96946
257.382,19.59291,-0.01778197,1.90256,0.96909
257.882,19.60669,-0.01883024,1.90519,0.96872
258.382,19.6204,-0.01885956,1.90686,0.96835
258.882,19.63419,-0.01886051,1.90904,0.96797
259.382,19.64794,-0.01885994,1.91076,0.9676
259.882,19.6617,-0.01885999,1.91426,0.96723
260.382,19.67546,-0.01886,1.91606,0.96685
260.882,19.68918,-0.01886,1.91759,0.96648
261.382,19.70289,-0.01886,1.91674,0.9661
261.882,19.71661,-0.01886,1.91946,0.96573
262.382,19.73035,-0.01886,1.92037,0.96535
262.882,19.7441,-0.01886001,1.92369,0.96498
263.382,19.75777,-0.01885997,1.92523,0.9646
263.882,19.7715,-0.01885984,1.92768,0.96422
264.382,19.78519,-0.01886192,1.93076,0.96384
264.882,19.7989,-0.01885611,1.9305,0.96346
265.382,19.81269,-0.019455,1.93198,0.96308
265.882,19.82634,-0.02025781,1.93549,0.9627
266.382,19.84004,-0.01984707,1.93625,0.96232
266.882,19.85376,-0.01876183,1.93773,0.96194
267.382,19.86745,-0.01886736,1.94117,0.96156
267.882,19.88117,-0.01884078,1.94276,0.96118
268.382,19.89484,-0.01929368,1.944,0.9608
268.882,19.90854,-0.02026012,1.94534,0.96041
269.382,19.92223,-0.0202771,1.94783,0.96003
269.882,19.9359,-0.02140156,1.95013,0.95965
270.382,19.9496,-0.02180392,1.95325,0.95926
270.882,19.96322,-0.02316969,1.9521,0.95888
271.382,19.97687,-0.02404675,1.95591,0.95849
271.882,19.9905,-0.02670275,1.95584,0.95811
272.382,20.00414,-0.02660412,1.95771,0.95772
272.882,20.0178,-0.02663201,1.96082,0.95733
273.382,20.03143,-0.02702992,1.95934,0.95695
273.882,20.0451,-0.02648519,1.96116,0.95656
274.382,20.0588,-0.02614733,1.96434,0.95617
274.882,20.0724,-0.0246823,1.96782,0.95578
275.382,20.08609,-0.02394218,1.96741,0.95539
275.882,20.09976,-0.02250166,1.96835,0.955
276.382,20.11342,-0.02132876,1.96953,0.95461
276.882,20.12707,-0.02061484,1.97214,0.95422
277.382,20.14072,-0.01819896,1.97102,0.95383
277.882,20.15438,-0.01753644,1.97515,0.95344
278.382,20.16805,-0.01751734,1.97483,0.95305
278.882,20.18168,-0.01836902,1.97853,0.95265
279.382,20.19537,-0.01914961,1.98097,0.95226
279.882,20.20905,-0.01907295,1.98016,0.95187
280.382,20.22273,-0.01902082,1.98224,0.95147
280.882,20.23637,-0.01975927,1.98391,0.95108
281.382,20.25001,-0.02062008,1.98412,0.95068
281.882,20.26364,-0.02062477,1.98828,0.95029
282.382,20.27724,-0.0205774,1.98984,0.94989
282.882,20.2909,-0.02136476,1.98831,0.9495
283.382,20.30445,-0.02221669,1.99282,0.9491
283.882,20.31808,-0.02233722,1.99425,0.9487
284.382,20.33172,-0.02353961,1.99524,0.94831
284.882,20.3454,-0.02344788,1.99807,0.94791
285.382,20.35901,-0.02346999,1.99949,0.94751
285.882,20.37268,-0.0234516,2.0002,0.94711
286.382,20.38631,-0.02368463,2.00125,0.94671
286.882,20.39997,-0.0236911,2.00273,0.94631
287.382,20.4136,-0.02320867,2.00277,0.94591
287.882,20.42727,-0.02325345,2.0051,0.94551
288.382,20.4409,-0.02324391,2.0071,0.94511
288.882,20.45456,-0.02337983,2.0107,0.94471
289.382,20.46815,-0.02192884,2.01078,0.94431
289.882,20.48177,-0.02056564,2.01039,0.9439
290.382,20.49534,-0.02062421,2.01379,0.9435
290.882,20.50895,-0.02060918,2.01411,0.9431
291.382,20.52246,-0.02060973,2.01482,0.9427
291.882,20.53608,-0.02061006,2.01628,0.94229
292.382,20.54968,-0.02061,2.01715,0.94189
292.882,20.56331,-0.02060999,2.0199,0.94148
293.382,20.57688,-0.02061005,2.02165,0.94108
293.882,20.5905,-0.02061006,2.02132,0.94067
294.382,20.6042,-0.02060792,2.02183,0.94027
294.882,20.61786,-0.02061792,2.02449,0.93986
295.382,20.6315,-0.02064933,2.02173,0.93945
295.882,20.6451,-0.02097247,2.02536,0.93905
296.382,20.65878,-0.02093788,2.0277,0.93864
296.882,20.6724,-0.02093962,2.03114,0.93823
297.382,20.68599,-0.02093839,2.02997,0.93782
297.882,20.69957,-0.02094152,2.0303,0.93741
298.382,20.7132,-0.02030721,2.03296,0.937
298.882,20.72671,-0.01944077,2.03613,0.9366
299.382,20.74033,-0.01829109,2.03493,0.93619
299.882,20.75393,-0.01833751,2.03826,0.93578
300.382,20.76756,-0.0183076,2.03977,0.93536
300.882,20.78118,-0.01831438,2.04018,0.93495
301.382,20.79476,-0.0191652,2.04202,0.93454
301.882,20.80837,-0.01959121,2.04397,0.93413
302.382,20.82199,-0.02076361,2.0447,0.93372
302.882,20.83557,-0.02094482,2.04761,0.93331
303.382,20.84917,-0.02093745,2.04689,0.93289
303.882,20.8628,-0.0215568,2.04866,0.93248
304.382,20.87637,-0.0222591,2.05208,0.93207
304.882,20.88995,-0.02291795,2.05135,0.93165
305.382,20.90352,-0.02291766,2.05184,0.93124
305.882,20.91712,-0.02283011,2.05648,0.93082
306.382,20.93073,-0.02396722,2.0563,0.93041
306.882,20.9443,-0.02425714,2.05657,0.92999
307.382,20.95787,-0.0242011,2.05881,0.92958
307.882,20.97146,-0.02504565,2.06106,0.92916
308.382,20.9851,-0.02513446,2.05983,0.92875
308.882,20.9987,-0.02413311,2.06335,0.92833
309.382,21.01233,-0.02410707,2.06051,0.92791
309.882,21.0259,-0.02316418,2.0628,0.92749
310.382,21.03954,-0.02280267,2.06694,0.92708
310.882,21.0532,-0.0228039,2.0659,0.92666
311.382,21.0668,-0.02280749,2.06627,0.92624
311.882,21.0804,-0.02280645,2.0668,0.92582
312.382,21.094,-0.02300721,2.07174,0.9254
312.882,21.10762,-0.02399702,2.06906,0.92498
313.382,21.12115,-0.02403955,2.0731,0.92456
313.882,21.13474,-0.02280573,2.07497,0.92414
314.382,21.1483,-0.02361754,2.07393,0.92372
314.882,21.16188,-0.02399653,2.07657,0.9233
315.382,21.17549,-0.02286001,2.07662,0.92288
315.882,21.18908,-0.02281112,2.07923,0.92246
316.382,21.20265,-0.02285057,2.07798,0.92204
316.882,21.21624,-0.02357865,2.07973,0.92162
317.382,21.22983,-0.02380687,2.08102,0.92119
317.882,21.2435,-0.02286254,2.08201,0.92077
318.382,21.25703,-0.02244488,2.08165,0.92035
318.882,21.27061,-0.02247394,2.08578,0.91992
319.382,21.28422,-0.02267173,2.08566,0.9195
319.882,21.2978,-0.02388877,2.08873,0.91908
320.382,21.31144,-0.02400577,2.08998,0.91865
320.882,21.325,-0.02408045,2.09114,0.91823
321.382,21.33859,-0.02533897,2.09326,0.9178
321.882,21.3522,-0.0254223,2.09228,0.91738
322.382,21.3658,-0.02548194,2.09523,0.91695
322.882,21.37941,-0.02541991,2.09513,0.91653
323.382,21.39299,-0.02662147,2.09649,0.9161
323.882,21.40646,-0.02676475,2.09643,0.91567
324.382,21.4201,-0.02676002,2.09578,0.91525
324.882,21.4337,-0.0267599,2.09967,0.91482
325.382,21.44729,-0.02675989,2.10029,0.91439
325.882,21.46089,-0.0267597,2.09783,0.91397
326.382,21.47446,-0.02676621,2.1005,0.91354
326.882,21.488,-0.02673899,2.10001,0.91311
327.382,21.5017,-0.02663546,2.09938,0.91268
327.882,21.5153,-0.02550383,2.10091,0.91225
328.382,21.52894,-0.02449622,2.10058,0.91183
328.882,21.5426,-0.02270576,2.09987,0.9114
329.382,21.55619,-0.02246786,2.10216,0.91097
329.882,21.56997,-0.02248016,2.10101,0.91054
330.382,21.58375,-0.02337075,2.09983,0.91011
330.882,21.5974,-0.02421642,2.10078,0.90968
331.382,21.61103,-0.02558004,2.10024,0.90925
331.882,21.62463,-0.0255903,2.09916,0.90882
332.382,21.63824,-0.02467379,2.1015,0.90839
332.882,21.6519,-0.02518126,2.10109,0.90795
333.382,21.66545,-0.02604899,2.09981,0.90752
333.882,21.67904,-0.02603288,2.09904,0.90709
334.382,21.69271,-0.02482875,2.09832,0.90666
334.882,21.70635,-0.02334638,2.09847,0.90623
335.382,21.72002,-0.02291937,2.09524,0.9058
335.882,21.7337,-0.02155707,2.0974,0.90536
336.382,21.74737,-0.02102764,2.09666,0.90493
336.882,21.76106,-0.01897147,2.09728,0.9045
337.382,21.77465,-0.01875692,2.09776,0.90406
337.882,21.78826,-0.01875084,2.0962,0.90363
338.382,21.80191,-0.01876053,2.09744,0.9032
338.882,21.8155,-0.01864505,2.09662,0.90276
339.382,21.82919,-0.01968203,2.09879,0.90233
339.882,21.84271,-0.01972065,2.09556,0.90189
340.382,21.85625,-0.01969285,2.0988,0.90146
340.882,21.87,-0.02039794,2.0983,0.90102
341.382,21.88353,-0.02107505,2.09935,0.90059
341.882,21.8972,-0.02128927,2.09964,0.90015
342.382,21.91088,-0.02137318,2.09829,0.89972
342.882,21.92451,-0.02148832,2.1008,0.89928
343.382,21.93833,-0.02377841,2.09958,0.89884
343.882,21.95211,-0.02397592,2.10162,0.89841
344.382,21.96582,-0.02403339,2.10155,0.89797
344.882,21.9797,-0.02401847,2.10434,0.89753
345.382,21.99331,-0.02395245,2.10452,0.8971
345.882,22.00701,-0.02471663,2.10359,0.89666
346.382,22.02073,-0.02535765,2.10333,0.89622
346.882,22.03439,-0.02634097,2.10366,0.89579
347.382,22.0481,-0.02666921,2.1068,0.89535
347.882,22.0618,-0.02665241,2.10667,0.89491
348.382,22.0754,-0.02665344,2.10893,0.89447
348.882,22.08914,-0.0266429,2.10966,0.89403
349.382,22.10284,-0.02650369,2.10967,0.89359
349.882,22.11658,-0.02580936,2.11432,0.89316
350.382,22.13026,-0.02720608,2.11152,0.89272
350.882,22.14395,-0.02735698,2.11509,0.89228
351.382,22.15764,-0.02838368,2.11253,0.89184
351.882,22.17137,-0.0283724,2.11118,0.8914
352.382,22.18511,-0.02683728,2.11277,0.89096
352.882,22.19878,-0.02537648,2.11546,0.89052
353.382,22.2125,-0.02455367,2.11451,0.89008
353.882,22.22625,-0.0242119,2.11678,0.88964
354.382,22.23988,-0.02324361,2.11684,0.8892
354.882,22.25364,-0.02325355,2.11884,0.88876
355.382,22.26735,-0.02323808,2.11904,0.88832
355.882,22.28107,-0.02323987,2.1198,0.88788
356.382,22.29482,-0.02324008,2.1207,0.88743
356.882,22.3085,-0.02323997,2.12137,0.88699
357.382,22.3223,-0.02323978,2.12277,0.88655
357.882,22.3361,-0.02324182,2.12236,0.88611
358.382,22.34986,-0.02323944,2.12488,0.88567
358.882,22.36361,-0.02317204,2.12476,0.88523
359.382,22.3774,-0.02395959,2.12829,0.88478
359.882,22.39115,-0.02468032,2.12468,0.88434
360.382,22.4049,-0.02466612,2.1276,0.8839
360.882,22.41864,-0.02466803,2.1281,0.88346
361.382,22.43241,-0.02464528,2.13165,0.88301
361.882,22.44613,-0.02501636,2.13007,0.88257
362.382,22.4599,-0.02598655,2.13554,0.88213
362.882,22.47363,-0.02597607,2.13409,0.88168
363.382,22.48741,-0.02599193,2.13775,0.88124
363.882,22.5012,-0.02599014,2.13723,0.8808
364.382,22.515,-0.02599004,2.14052,0.88035
364.882,22.52877,-0.02621226,2.1435,0.87991
365.382,22.54256,-0.02759869,2.1426,0.87947
365.882,22.55636,-0.02788652,2.14493,0.87902
366.382,22.57014,-0.02885225,2.14629,0.87858
366.882,22.58391,-0.03004631,2.14521,0.87813
367.382,22.59773,-0.03016303,2.14907,0.87769
367.882,22.6115,-0.03015225,2.14976,0.87724
368.382,22.62536,-0.03026125,2.15072,0.8768
368.882,22.63917,-0.02914557,2.15027,0.87635
369.382,22.65302,-0.02860731,2.15074,0.87591
369.882,22.66684,-0.0286071,2.15439,0.87546
370.382,22.68068,-0.02859341,2.15419,0.87502
370.882,22.6945,-0.02680146,2.15795,0.87457
371.382,22.70833,-0.02594239,2.1569,0.87413
371.882,22.72204,-0.02598136,2.15693,0.87368
372.382,22.7359,-0.02599231,2.1598,0.87324
372.882,22.74969,-0.02598996,2.15989,0.87279
373.382,22.76353,-0.02598992,2.16196,0.87235
373.882,22.77733,-0.02599011,2.1647,0.8719
374.382,22.7912,-0.02599035,2.16523,0.87145
374.882,22.80506,-0.02598448,2.16541,0.87101
375.382,22.8189,-0.02622917,2.16714,0.87056
375.882,22.83277,-0.02739354,2.16923,0.87011
376.382,22.8466,-0.02726859,2.17227,0.86967
376.882,22.86051,-0.02766557,2.17133,0.86922
377.382,22.87434,-0.02910422,2.1714,0.86877
377.882,22.88818,-0.02991965,2.17684,0.86833
378.382,22.9021,-0.02993696,2.17583,0.86788
378.882,22.91592,-0.02994049,2.17802,0.86743
379.382,22.9298,-0.02994014,2.17747,0.86699
379.882,22.9436,-0.02995204,2.17891,0.86654
380.382,22.9575,-0.02988453,2.18348,0.86609
380.882,22.9714,-0.03068074,2.18418,0.86564
381.382,22.98529,-0.03093384,2.18472,0.8652
381.882,22.9992,-0.03091934,2.18411,0.86475
382.382,23.01309,-0.03091812,2.18592,0.8643
382.882,23.02698,-0.03092931,2.19043,0.86385
383.382,23.04091,-0.03094191,2.1912,0.86341
383.882,23.05482,-0.03128225,2.19367,0.86296
384.382,23.06873,-0.03125188,2.19631,0.86251
384.882,23.08265,-0.03130063,2.19256,0.86206
385.382,23.09659,-0.0306112,2.19558,0.86161
385.882,23.11052,-0.02993445,2.19756,0.86116
386.382,23.12443,-0.03007031,2.19675,0.86072
386.882,23.13833,-0.02858596,2.19769,0.86027
387.382,23.15229,-0.02725156,2.20136,0.85982
387.882,23.1662,-0.02728622,2.19991,0.85937
388.382,23.18018,-0.02728945,2.20209,0.85892
388.882,23.19415,-0.02608289,2.2055,0.85847
389.382,23.20809,-0.02598737,2.20373,0.85803
389.882,23.22203,-0.02598984,2.20562,0.85758
390.382,23.236,-0.02598773,2.21242,0.85713
390.882,23.25,-0.02632029,2.21206,0.85668
391.382,23.26397,-0.02744127,2.21668,0.85623
391.882,23.27792,-0.02840812,2.21972,0.85578
392.382,23.29191,-0.0307903,2.22101,0.85533
392.882,23.3059,-0.03135589,2.22142,0.85488
393.382,23.31989,-0.03234934,2.2265,0.85443
393.882,23.33386,-0.03234647,2.22844,0.85399
394.382,23.3478,-0.03235403,2.22677,0.85354
394.882,23.36182,-0.03237179,2.2269,0.85309
395.382,23.3758,-0.03199288,2.23063,0.85264
395.882,23.3898,-0.03136221,2.23572,0.85219
396.382,23.4038,-0.03137011,2.23432,0.85174
396.882,23.4178,-0.03133587,2.23574,0.85129
397.382,23.43177,-0.03121988,2.2395,0.85084
397.882,23.44579,-0.0299122,2.24191,0.85039
398.382,23.45983,-0.02982956,2.24185,0.84994
398.882,23.47382,-0.02982885,2.24546,0.84949
399.382,23.48781,-0.02983013,2.24692,0.84904
399.882,23.5018,-0.02983002,2.24959,0.84859
400.382,23.51588,-0.02982999,2.25226,0.84814
400.882,23.52991,-0.02983,2.25208,0.84769
401.382,23.54391,-0.02983,2.25532,0.84724
401.882,23.55796,-0.02983,2.25672,0.84679
402.382,23.572,-0.02983,2.26011,0.84635
402.882,23.5861,-0.02983,2.26129,0.8459
403.382,23.6002,-0.02983,2.26325,0.84545
403.882,23.61423,-0.02983,2.26599,0.845
404.382,23.6283,-0.02983,2.26783,0.84455
404.882,23.64237,-0.02983,2.26978,0.8441
405.382,23.65642,-0.02983,2.27176,0.84365
405.882,23.67043,-0.02983,2.27371,0.8432
406.382,23.6845,-0.02983,2.27454,0.84275
406.882,23.69855,-0.02983,2.27788,0.8423
407.382,23.71262,-0.02983,2.28003,0.84185
407.882,23.7267,-0.02982996,2.28011,0.8414
408.382,23.74076,-0.02982993,2.28209,0.84095
408.882,23.75486,-0.02983171,2.28609,0.8405
409.382,23.76896,-0.02982647,2.28665,0.84005
409.882,23.7831,-0.02977022,2.28999,0.8396
410.382,23.79714,-0.03053519,2.29145,0.83915
410.882,23.81125,-0.03115412,2.29717,0.8387
411.382,23.82537,-0.03114832,2.29498,0.83825
411.882,23.83951,-0.03115004,2.29763,0.8378
412.382,23.85364,-0.03115001,2.30044,0.83735
412.882,23.86776,-0.03115012,2.30024,0.8369
413.382,23.88189,-0.03115076,2.30445,0.83645
413.882,23.8961,-0.0311423,2.30725,0.836
414.382,23.91021,-0.0314973,2.30846,0.83555
414.882,23.92435,-0.03257748,2.31415,0.8351
415.382,23.9385,-0.03238634,2.31145,0.83465
415.882,23.95263,-0.03362018,2.32073,0.83421
416.382,23.96677,-0.03377402,2.31775,0.83376
416.882,23.98095,-0.03377021,2.3209,0.83331
417.382,23.9951,-0.03376989,2.32205,0.83286
417.882,24.00921,-0.03376999,2.3254,0.83241
418.382,24.0234,-0.03376981,2.32892,0.83196
418.882,24.0376,-0.03377094,2.33056,0.83151
419.382,24.0518,-0.03377688,2.33219,0.83106
419.882,24.0659,-0.03479778,2.33427,0.83061
420.382,24.08011,-0.03519773,2.3378,0.83016
420.882,24.09436,-0.035271,2.33912,0.82971
421.382,24.1085,-0.03460486,2.3423,0.82926
421.882,24.12276,-0.03489874,2.34581,0.82881
422.382,24.13695,-0.03506511,2.34951,0.82837
422.882,24.1511,-0.03599612,2.35164,0.82792
423.382,24.16536,-0.03681533,2.35365,0.82747
423.882,24.17952,-0.0380035,2.35982,0.82702
424.382,24.19375,-0.03863028,2.36013,0.82657
424.882,24.20794,-0.03861847,2.36402,0.82612
425.382,24.22208,-0.03869139,2.36685,0.82567
425.882,24.23634,-0.03981755,2.37113,0.82522
426.382,24.25059,-0.04001983,2.37466,0.82478
426.882,24.26484,-0.04027616,2.37371,0.82433
427.382,24.27909,-0.04142069,2.37611,0.82388
427.882,24.29337,-0.04144792,2.37789,0.82343
428.382,24.3077,-0.04128946,2.37607,0.82298
428.882,24.32195,-0.04006334,2.38176,0.82253
429.382,24.33621,-0.04015962,2.38371,0.82208
429.882,24.35047,-0.04014048,2.3852,0.82164
430.382,24.36475,-0.04013952,2.38839,0.82119
430.882,24.379,-0.04014002,2.38977,0.82074
431.382,24.39327,-0.04013992,2.39132,0.82029
431.882,24.40758,-0.04014043,2.3922,0.81984
432.382,24.4219,-0.04014249,2.39327,0.8194
432.882,24.43618,-0.04003669,2.39481,0.81895
433.382,24.45052,-0.03879323,2.39837,0.8185
433.882,24.4649,-0.03883239,2.39789,0.81805
434.382,24.47922,-0.03883893,2.39753,0.81761
434.882,24.49354,-0.03785598,2.40025,0.81716
435.382,24.5078,-0.03624817,2.40264,0.81671
435.882,24.5222,-0.03614909,2.40127,0.81626
436.382,24.5365,-0.03539355,2.40421,0.81582
436.882,24.5508,-0.0356264,2.40969,0.81537
437.382,24.56515,-0.03702707,2.41069,0.81492
437.882,24.57949,-0.03834917,2.41504,0.81448
438.382,24.5939,-0.04028392,2.41895,0.81403
438.882,24.6082,-0.0415516,2.41935,0.81358
439.382,24.62257,-0.04286489,2.42384,0.81314
439.882,24.6369,-0.04470346,2.42738,0.81269
440.382,24.6512,-0.04678223,2.42905,0.81224
440.882,24.66555,-0.04962953,2.43537,0.8118
441.382,24.6799,-0.05283396,2.43524,0.81135
441.882,24.6942,-0.05602524,2.44123,0.8109
442.382,24.70857,-0.05861413,2.44418,0.81046
442.882,24.7229,-0.06093831,2.45061,0.81001
443.382,24.73733,-0.06277649,2.45557,0.80957
443.882,24.75173,-0.06509088,2.45818,0.80912
444.382,24.76611,-0.06600055,2.46202,0.80868
444.882,24.78051,-0.06645381,2.46713,0.80823
445.382,24.79492,-0.06676832,2.4672,0.80778
445.882,24.80935,-0.06554936,2.47356,0.80734
446.382,24.82378,-0.06436406,2.4783,0.80689
446.882,24.8382,-0.06266461,2.48378,0.80645
447.382,24.85264,-0.06091398,2.48798,0.806
447.882,24.8671,-0.06062289,2.49089,0.80556
448.382,24.88155,-0.05944478,2.49768,0.80511
448.882,24.89602,-0.05922514,2.50058,0.80467
449.382,24.91046,-0.05922996,2.50651,0.80423
449.882,24.92492,-0.0592267,2.51014,0.80378
450.382,24.9394,-0.05923419,2.51688,0.80334
450.882,24.9539,-0.05941875,2.51911,0.80289
451.382,24.96831,-0.06048442,2.5259,0.80245
451.882,24.98282,-0.06053861,2.53144,0.80201
452.382,24.9973,-0.06054138,2.53831,0.80156
452.882,25.01182,-0.06049359,2.54284,0.80112
453.382,25.0262,-0.06146679,2.55207,0.80067
453.882,25.0408,-0.06156725,2.5606,0.80023
454.382,25.05536,-0.0636447,2.56292,0.79979
454.882,25.0699,-0.06535913,2.57319,0.79935
455.382,25.08434,-0.06594827,2.57987,0.7989
455.882,25.09887,-0.06622415,2.5882,0.79846
456.382,25.11349,-0.06647456,2.59509,0.79802
456.882,25.128,-0.06647933,2.60458,0.79757
457.382,25.14256,-0.06696888,2.61475,0.79713
457.882,25.15713,-0.06868397,2.62544,0.79669
458.382,25.1717,-0.07217548,2.63369,0.79625
458.882,25.1862,-0.07521544,2.64663,0.79581
459.382,25.20075,-0.07842301,2.65815,0.79536
459.882,25.2153,-0.08220604,2.66933,0.79492
460.382,25.22981,-0.08454385,2.68209,0.79448
460.882,25.2443,-0.08635067,2.6904,0.79404
461.382,25.2589,-0.0877668,2.70544,0.7936
461.882,25.27347,-0.08783887,2.71633,0.79316
462.382,25.2881,-0.08920758,2.73029,0.79272
462.882,25.30272,-0.08996104,2.74326,0.79228
463.382,25.3173,-0.09075999,2.75697,0.79184
463.882,25.33193,-0.09247932,2.77136,0.79139
464.382,25.34654,-0.09447096,2.78912,0.79095
464.882,25.36112,-0.09733678,2.80566,0.79051
465.382,25.37567,-0.09972583,2.81764,0.79007
465.882,25.39025,-0.10379,2.83684,0.78964
466.382,25.40485,-0.10716,2.85309,0.7892
466.882,25.41946,-0.11001,2.86993,0.78876
467.382,25.4341,-0.11431,2.88659,0.78832
467.882,25.44876,-0.11647,2.90617,0.78788
468.382,25.46347,-0.11977,2.92432,0.78744
468.882,25.4782,-0.12218,2.94514,0.787
469.382,25.49296,-0.12538,2.96254,0.78656
469.882,25.5077,-0.12846,2.98592,0.78612
470.382,25.52251,-0.13072,3.00636,0.78568
470.882,25.53729,-0.13444,3.02974,0.78525
471.382,25.55208,-0.1372,3.05268,0.78481
471.882,25.5669,-0.14023,3.07757,0.78437
472.382,25.58169,-0.14302,3.10431,0.78393
472.882,25.5965,-0.14786,3.12961,0.7835
473.382,25.61134,-0.15225,3.15454,0.78306
473.882,25.6262,-0.15704,3.18135,0.78262
474.382,25.64104,-0.16082,3.21688,0.78219
474.882,25.6559,-0.16577,3.2424,0.78175
475.382,25.67077,-0.16934,3.27254,0.78131
475.882,25.68572,-0.17457,3.30632,0.78088
476.382,25.70062,-0.1811,3.34134,0.78044
476.882,25.71549,-0.18613,3.37553,0.78
477.382,25.73036,-0.19223,3.41166,0.77957
477.882,25.7453,-0.19938,3.44758,0.77913
478.382,25.7602,-0.20474,3.48972,0.7787
478.882,25.77505,-0.21196,3.53092,0.77826
479.382,25.78989,-0.21921,3.57392,0.77783
479.882,25.80483,-0.22712,3.61724,0.77739
480.382,25.8198,-0.23625,3.66117,0.77696
480.882,25.8346,-0.2425,3.70951,0.77652
481.382,25.8495,-0.25013,3.763,0.77609
481.882,25.86438,-0.25867,3.8201,0.77566
482.382,25.87921,-0.26616,3.87791,0.77522
482.882,25.89397,-0.27691,3.9396,0.77479
483.382,25.90871,-0.2882,3.99868,0.77436
483.882,25.92345,-0.30009,4.05329,0.77392
484.382,25.93814,-0.31367,4.12102,0.77349
484.882,25.95284,-0.32333,4.16897,0.77306
485.382,25.96754,-0.3345,4.20751,0.77262
485.882,25.98225,-0.34933,4.24676,0.77219
486.382,25.99697,-0.35999,4.29732,0.77176
486.882,26.0117,-0.37392,4.35678,0.77133
487.382,26.02637,-0.38884,4.40977,0.7709
487.882,26.04106,-0.40146,4.47364,0.77047
488.382,26.05576,-0.41799,4.54239,0.77003
488.882,26.0704,-0.4324,4.61517,0.7696
489.382,26.08504,-0.4463,4.69211,0.76917
489.882,26.09966,-0.46553,4.77064,0.76874
490.382,26.11426,-0.47971,4.83906,0.76831
490.882,26.12889,-0.49763,4.91035,0.76788
491.382,26.14344,-0.51914,4.99277,0.76745
491.882,26.158,-0.53663,5.06754,0.76702
492.382,26.17253,-0.55945,5.15844,0.76659
492.882,26.18702,-0.58266,5.23544,0.76616
493.382,26.2015,-0.60439,5.30335,0.76574
493.882,26.216,-0.63281,5.39326,0.76531
494.382,26.23043,-0.65666,5.49298,0.76488
494.882,26.2449,-0.6817,5.57202,0.76445
495.382,26.25934,-0.71446,5.65969,0.76402
495.882,26.27375,-0.73933,5.74189,0.76359
496.382,26.2881,-0.76949,5.82345,0.76317
496.882,26.30255,-0.80602,5.90532,0.76274
497.382,26.317,-0.83405,5.99137,0.76231
497.882,26.3314,-0.86935,6.06837,0.76188
498.382,26.3457,-0.90251,6.16796,0.76146
498.882,26.36008,-0.94384,6.25597,0.76103
499.382,26.3745,-0.99242,6.31439,0.76061
499.882,26.3888,-1.05775,6.38938,0.76018
500.382,26.4031,-1.10226,6.45607,0.75975
500.882,26.4175,-1.14749,6.51662,0.75933
501.382,26.43185,-1.19473,6.57177,0.7589
501.882,26.4463,-1.2439,6.62771,0.75848
502.382,26.46068,-1.2949,6.68561,0.75805
502.882,26.47509,-1.3477,6.73427,0.75763
503.382,26.48958,-1.40151,6.77512,0.75721
503.882,26.50409,-1.45745,6.84126,0.75678
504.382,26.5186,-1.51332,6.87446,0.75636
504.882,26.53313,-1.57237,6.89528,0.75593
505.382,26.5476,-1.63523,6.93374,0.75551
505.882,26.56202,-1.70073,6.95884,0.75509
506.382,26.5765,-1.76851,6.96491,0.75466
506.882,26.59098,-1.83603,6.99836,0.75424
507.382,26.60545,-1.90378,7.01337,0.75382
507.882,26.61983,-1.97245,7.01149,0.7534
508.382,26.63425,-2.04269,6.9979,0.75298
508.882,26.64879,-2.1145,6.98228,0.75256
509.382,26.6632,-2.18706,6.96595,0.75213
509.882,26.67752,-2.26062,6.92138,0.75171
510.382,26.69187,-2.33374,6.88706,0.75129
510.882,26.7062,-2.40673,6.85007,0.75087
511.382,26.7205,-2.4812,6.79448,0.75045
511.882,26.7348,-2.55506,6.71336,0.75003
512.382,26.7492,-2.63007,6.62067,0.74961
512.882,26.76345,-2.70415,6.51922,0.74919
513.382,26.77774,-2.7766,6.40855,0.74877
513.882,26.79205,-2.84954,6.28705,0.74836
514.382,26.8063,-2.92211,6.1555,0.74794
514.882,26.8206,-2.99395,6.01094,0.74752
515.382,26.83482,-3.0643,5.85735,0.7471
515.882,26.8491,-3.13331,5.68722,0.74668
516.382,26.86342,-3.19714,5.50328,0.74627
516.882,26.8779,-3.25632,5.29233,0.74585
517.382,26.8925,-3.31079,5.06061,0.74543
517.882,26.90735,-3.36282,4.81495,0.74501
518.382,26.92247,-3.41528,4.55515,0.7446
518.882,26.93781,-3.46882,4.28868,0.74418
519.382,26.95335,-3.52341,4.02716,0.74377
519.882,26.969,-3.57424,3.76088,0.74335
520.382,26.9847,-3.62312,3.49565,0.74294
520.882,27.00037,-3.65611,3.23882,0.74252
521.382,27.016,-3.69105,2.98763,0.74211
521.882,27.0315,-3.72878,2.74938,0.74169
522.382,27.04696,-3.76593,2.52134,0.74128
522.882,27.0624,-3.80212,2.31017,0.74086
523.382,27.07783,-3.83448,2.11238,0.74045
523.882,27.09334,-3.85507,1.93336,0.74004
524.382,27.1089,-3.87788,1.76985,0.73962
524.882,27.1245,-3.89232,1.62611,0.73921
525.382,27.1402,-3.90664,1.49481,0.7388
525.882,27.156,-3.92,1.37284,0.73839
526.382,27.17178,-3.93029,1.26377,0.73797
526.882,27.18765,-3.94253,1.16475,0.73756
527.382,27.2035,-3.95096,1.06863,0.73715
527.882,27.2195,-3.95916,0.98169,0.73674
528.382,27.2354,-3.96672,0.90924,0.73633
528.882,27.2512,-3.97227,0.83767,0.73592
529.382,27.26694,-3.97765,0.77315,0.73551
529.882,27.2827,-3.98148,0.71362,0.7351
530.382,27.2984,-3.98567,0.65726,0.73469
530.882,27.3141,-3.99145,0.60638,0.73428
531.382,27.32965,-3.99503,0.5596,0.73387
531.882,27.3452,-3.99813,0.51613,0.73346
532.382,27.36075,-3.99972,0.47124,0.73306
532.882,27.3762,-3.9997,0.43471,0.73265
533.382,27.3917,-3.99972,0.3973,0.73224
533.882,27.4071,-3.99927,0.36258,0.73183
534.382,27.42253,-3.99891,0.33046,0.73143
534.882,27.438,-3.99975,0.30153,0.73102
535.382,27.45337,-4.00047,0.27153,0.73061
535.882,27.46875,-4.00117,0.24775,0.73021
536.382,27.48405,-4.00349,0.22784,0.7298
536.882,27.4994,-4.00399,0.20676,0.72939
537.382,27.5147,-4.00486,0.18289,0.72899
537.882,27.52996,-4.00464,0.17169,0.72858
538.382,27.54518,-4.00401,0.16079,0.72818
538.882,27.5604,-4.00531,0.15145,0.72778
539.382,27.57566,-4.00518,0.14164,0.72737
539.882,27.59086,-4.00635,0.13274,0.72697
540.382,27.60608,-4.00674,0.1267,0.72656
540.882,27.6213,-4.00673,0.11778,0.72616
541.382,27.63652,-4.00774,0.11489,0.72576
541.882,27.6517,-4.00802,0.112,0.72536
542.382,27.6668,-4.00804,0.1083,0.72495
542.882,27.68215,-4.00804,0.10728,0.72455
543.382,27.6974,-4.00803,0.10415,0.72415
543.882,27.7127,-4.00792,0.10111,0.72375
544.382,27.72808,-4.00672,0.09893796,0.72335
544.882,27.7435,-4.00679,0.09800648,0.72295
545.382,27.7588,-4.00788,0.09742196,0.72255
545.882,27.77406,-4.00774,0.09769862,0.72215
546.382,27.7893,-4.0066,0.09428462,0.72175
546.882,27.8046,-4.00786,0.09184268,0.72135
547.382,27.81989,-4.00792,0.09475425,0.72095
547.882,27.83519,-4.00753,0.09084754,0.72055
548.382,27.8505,-4.00571,0.09010289,0.72015
548.882,27.86583,-4.0057,0.08792962,0.71976
549.382,27.8811,-4.00414,0.08293053,0.71936
549.882,27.89647,-4.00417,0.08306354,0.71896
550.382,27.9118,-4.005,0.08249512,0.71856
550.882,27.92708,-4.00555,0.07740744,0.71817
551.382,27.9424,-4.0056,0.0741706,0.71777
551.882,27.95767,-4.00691,0.07612914,0.71737
552.382,27.973,-4.00702,0.07325201,0.71698
552.882,27.98832,-4.00708,0.06914018,0.71658
553.382,28.00367,-4.00757,0.07335797,0.71619
553.882,28.01898,-4.00933,0.07139691,0.71579
554.382,28.0343,-4.00937,0.07351664,0.7154
554.882,28.0496,-4.01086,0.07477359,0.71501
555.382,28.0649,-4.01084,0.07413313,0.71461
555.882,28.0803,-4.01124,0.07577874,0.71422
556.382,28.0956,-4.01193,0.07851143,0.71383
556.882,28.11096,-4.01188,0.079199,0.71343
557.382,28.1263,-4.01188,0.07956655,0.71304
557.882,28.14173,-4.01085,0.08127119,0.71265
558.382,28.1571,-4.00878,0.08746029,0.71226
558.882,28.1724,-4.0089,0.08994273,0.71187
559.382,28.1878,-4.00891,0.09128894,0.71147
559.882,28.20307,-4.00889,0.09469259,0.71108
560.382,28.2184,-4.00899,0.09809983,0.71069
560.882,28.23377,-4.00785,0.1009,0.7103
561.382,28.2491,-4.00909,0.10138,0.70991
561.882,28.26445,-4.00949,0.1052,0.70952
562.382,28.2798,-4.01055,0.10947,0.70914
562.882,28.2952,-4.01081,0.11115,0.70875
563.382,28.3106,-4.012,0.11596,0.70836
563.882,28.32589,-4.01224,0.11528,0.70797
564.382,28.34127,-4.01346,0.12134,0.70758
564.882,28.35667,-4.01237,0.12306,0.7072
565.382,28.37205,-4.0133,0.12597,0.70681
565.882,28.38745,-4.01189,0.126,0.70642
566.382,28.40287,-4.01111,0.12571,0.70604
566.882,28.4183,-4.01021,0.12824,0.70565
567.382,28.43372,-4.01025,0.12963,0.70527
567.882,28.44915,-4.00967,0.13043,0.70488
568.382,28.4645,-4.00967,0.13013,0.7045
568.882,28.47993,-4.00968,0.1299,0.70411
569.382,28.4954,-4.00968,0.13573,0.70373
569.882,28.51077,-4.00967,0.13448,0.70334
570.382,28.52618,-4.01002,0.13146,0.70296
570.882,28.5416,-4.01116,0.13595,0.70258
571.382,28.55705,-4.01105,0.13752,0.70219
571.882,28.57252,-4.01199,0.13669,0.70181
572.382,28.58792,-4.01263,0.13955,0.70143
572.882,28.60335,-4.01134,0.13862,0.70105
573.382,28.61883,-4.01232,0.14001,0.70067
573.882,28.6342,-4.01202,0.13828,0.70029
574.382,28.6497,-4.01111,0.13718,0.69991
574.882,28.66514,-4.01115,0.13807,0.69953
575.382,28.6807,-4.01037,0.13628,0.69915
575.882,28.69619,-4.00861,0.13841,0.69877
576.382,28.71173,-4.00848,0.13841,0.69839
576.882,28.7273,-4.00847,0.13855,0.69801
577.382,28.7428,-4.00847,0.13926,0.69763
577.882,28.75835,-4.00845,0.14147,0.69725
578.382,28.7739,-4.00807,0.14039,0.69687
578.882,28.7894,-4.0062,0.14392,0.6965
579.382,28.8049,-4.00624,0.14221,0.69612
579.882,28.8205,-4.00547,0.14334,0.69574
580.382,28.83604,-4.00482,0.14312,0.69537
580.882,28.8516,-4.00486,0.14356,0.69499
581.382,28.86709,-4.00486,0.14604,0.69462
581.882,28.8826,-4.00546,0.14067,0.69424
582.382,28.8982,-4.00592,0.14497,0.69387
582.882,28.91367,-4.00586,0.14232,0.69349
583.382,28.92918,-4.00584,0.14226,0.69312
583.882,28.94465,-4.00584,0.143,0.69274
584.382,28.96017,-4.00549,0.14218,0.69237
584.882,28.9756,-4.00433,0.14145,0.692
585.382,28.99107,-4.00442,0.14623,0.69162
585.882,29.0066,-4.0042,0.14353,0.69125
586.382,29.022,-4.0041,0.14486,0.69088
586.882,29.0375,-4.00411,0.14325,0.69051
587.382,29.053,-4.0043,0.14626,0.69014
587.882,29.06849,-4.00593,0.1486,0.68977
588.382,29.0839,-4.00738,0.14566,0.6894
588.882,29.09931,-4.00854,0.14282,0.68903
589.382,29.11482,-4.00987,0.14233,0.68866
589.882,29.1303,-4.01146,0.13949,0.68829
590.382,29.14572,-4.01268,0.14131,0.68792
590.882,29.16122,-4.01274,0.13999,0.68755
591.382,29.1768,-4.01288,0.14127,0.68718
591.882,29.1924,-4.01126,0.14234,0.68681
592.382,29.20787,-4.00938,0.13851,0.68645
592.882,29.22343,-4.00712,0.14071,0.68608
593.382,29.239,-4.0053,0.13527,0.68571
593.882,29.2545,-4.00275,0.13659,0.68535
594.382,29.26998,-4.00474,0.13687,0.68498
594.882,29.2855,-4.00712,0.13799,0.68462
595.382,29.30094,-4.00835,0.13523,0.68425
595.882,29.31643,-4.0108,0.13551,0.68389
596.382,29.33195,-4.01095,0.14007,0.68352
596.882,29.34747,-4.01173,0.13811,0.68316
597.382,29.36301,-4.01232,0.14065,0.68279
597.882,29.3786,-4.01231,0.14064,0.68243
598.382,29.3942,-4.01231,0.14382,0.68207
598.882,29.4098,-4.01231,0.13676,0.68171
599.382,29.42535,-4.01231,0.14399,0.68134
599.882,29.44094,-4.01232,0.14366,0.68098
600.382,29.4565,-4.01322,0.14195,0.68062
600.882,29.4721,-4.01222,0.14239,0.68026
601.382,29.48769,-4.01234,0.1456,0.6799
601.882,29.5033,-4.01234,0.14331,0.67954
602.382,29.51897,-4.01204,0.14494,0.67918
602.882,29.53462,-4.01196,0.14881,0.67882
603.382,29.55035,-4.01241,0.14379,0.67846
603.882,29.566,-4.01124,0.14832,0.6781
604.382,29.58165,-4.01101,0.14594,0.67774
604.882,29.5973,-4.00954,0.14253,0.67738
605.382,29.61297,-4.00913,0.14118,0.67703
605.882,29.6286,-4.00766,0.14157,0.67667
606.382,29.64425,-4.0076,0.14151,0.67631
606.882,29.65992,-4.00759,0.14263,0.67596
607.382,29.6756,-4.00812,0.1405,0.6756
607.882,29.6912,-4.0089,0.14255,0.67525
608.382,29.7069,-4.0093,0.14425,0.67489
608.882,29.72257,-4.01076,0.14416,0.67454
609.382,29.7383,-4.01226,0.14768,0.67418
609.882,29.754,-4.01386,0.14733,0.67383
610.382,29.7696,-4.0156,0.14591,0.67347
610.882,29.7854,-4.01561,0.14916,0.67312
611.382,29.8011,-4.01564,0.14627,0.67277
611.882,29.81675,-4.01473,0.14812,0.67241
612.382,29.83243,-4.01365,0.14592,0.67206
612.882,29.84817,-4.01331,0.14795,0.67171
613.382,29.8639,-4.01153,0.14699,0.67136
613.882,29.8796,-4.01058,0.14694,0.67101
614.382,29.8954,-4.01079,0.15213,0.67066
614.882,29.91109,-4.01119,0.15058,0.67031
615.382,29.92677,-4.01285,0.1501,0.66996
615.882,29.94245,-4.01404,0.15017,0.66961
616.382,29.9581,-4.01486,0.14891,0.66926
616.882,29.9738,-4.01508,0.14781,0.66891
617.382,29.98953,-4.01505,0.1487,0.66856
617.682,29.999,-4.01505,0.14909,0.66835