File: 01_Data/Polyolefin_Carpet_LowPile/Cone/Polyolefin_Carpet_Low_Pile_Cone_HF50Scan_220411_R3.csv
Names,Time,Stack TC,Smoke TC,Exh Press,Smoke Comp,Smoke Meas,CO Meter,CO2 Meter,O2 Meter,Sample Mass,Ext Coeff,Start Test,Flame Verif
Chan Gain,,500,500,1,1,1,1,1,1,1,1,1.0,1.0
Offset,,0,0,0.133936,0,0,0,0,0,0,0,0.0,0.0
Gain,,1,1,25.011,13.0656,13.5076,1,1,1,1.00089,1.01037,1.0,1.0
Units,sec,C,C,Pa,%,%,%,%,%,g,/m,,
Baseline,,31.4214,32.4933,148.292,97.1967,92.3781,0.00101046,0.0517908,21.0074,-835.45,0.450685,,
2,0.25,30.1109,31.5402,145.498,97.5738,92.6057,0.000907848,0.0577938,20.9999,194.804,0.463165,0.0,0.0
4,0.75,30.1383,31.6801,148.763,97.5682,92.9082,0.000907842,0.0577929,21.0003,194.564,0.433747,0.0,0.0
6,1.25,30.0298,30.8819,147.02,97.5674,93.1292,0.000917512,0.0577536,21.0006,194.774,0.412623,0.0,0.0
8,1.75,29.7444,31.106,150.332,97.5714,92.8934,0.000925345,0.057686,21.0009,194.624,0.435452,0.0,0.0
10,2.25,30.3252,31.0885,149.668,97.563,93.0047,0.000935317,0.057599,21.0011,194.704,0.42408,0.0,0.0
12,2.75,29.5014,31.1548,149.414,97.5754,92.6725,0.000943395,0.0575357,21.0012,194.674,0.456921,0.0,0.0
14,3.25,29.4312,30.6867,147.849,97.5678,93.3312,0.000949938,0.0574909,21.0014,194.644,0.393457,0.0,0.0
16,3.75,30.4028,31.1766,148.353,97.579,93.1271,0.000940727,0.0575333,21.0012,194.704,0.413869,0.0,0.0
18,4.25,30.0941,31.0544,149.166,97.5642,92.4618,0.000933265,0.0576385,21.0009,194.624,0.476076,0.0,0.0
20,4.75,29.841,31.0134,150.422,97.5738,92.7821,0.000926267,0.0578239,21.0008,194.704,0.446295,0.0,0.0
22,5.25,30.0965,30.842,148.967,97.5726,92.8938,0.000914299,0.0580642,21.0002,194.634,0.435522,0.0,0.0
24,5.75,29.9458,31.0264,147.946,97.5642,92.8934,0.000910968,0.0583019,20.9996,194.694,0.434801,0.0,0.0
26,6.25,30.1456,31.4182,147.485,97.5531,91.8913,0.000913997,0.0585331,20.9992,194.664,0.529916,0.0,0.0
28,6.75,30.1718,31.4128,146.544,97.5622,92.0335,0.000935553,0.0587203,20.9988,194.674,0.517043,0.0,0.0
30,7.25,30.1002,31.1265,147.203,97.5607,92.0475,0.000970206,0.0588175,20.9983,194.664,0.515548,0.0,0.0
32,7.75,29.7149,31.5497,146.253,97.5559,91.7211,0.00102633,0.058859,20.9977,194.644,0.546605,0.0,0.0
34,8.25,30.2246,31.5362,148.905,97.5615,92.1036,0.00109703,0.0589299,20.9958,194.654,0.510225,0.0,0.0
36,8.75,30.0537,31.5592,149.556,97.5599,91.6444,0.0011543,0.0594364,20.993,194.634,0.55438,0.0,0.0
38,9.25,29.996,30.8948,151.465,97.5519,91.6951,0.00125528,0.0609168,20.9908,194.664,0.548753,0.0,0.0
40,9.75,30.1941,30.8208,147.432,97.5415,91.4882,0.00133707,0.0630789,20.986,194.584,0.567836,0.0,0.0
42,10.25,30.1611,31.3031,146.162,97.5451,92.3753,0.00140332,0.0648303,20.9793,194.534,0.482638,0.0,1.0
44,10.75,29.9065,31.0397,144.147,97.5479,92.8699,0.00145699,0.0705782,20.974,194.604,0.435558,0.0,1.0
46,11.25,30.4265,31.364,143.342,97.5447,92.2194,0.00157945,0.075234,20.9659,194.564,0.497564,0.0,1.0
48,11.75,30.0654,31.1174,143.059,97.5371,92.0092,0.00167865,0.0845146,20.9558,194.644,0.517103,0.0,1.0
50,12.25,30.0449,31.3297,141.428,97.5535,91.6448,0.0018467,0.0920319,20.9477,194.494,0.553759,0.0,1.0
52,12.75,30.774,32.0594,140.539,97.5463,91.118,0.00198282,0.0981209,20.9311,194.504,0.604204,0.0,1.0
54,13.25,30.4203,31.5064,137.423,97.5495,89.413,0.00223727,0.103053,20.9123,194.483,0.771901,0.0,1.0
56,13.75,30.9535,32.0181,141.323,97.5415,88.8067,0.00244337,0.116581,20.8923,194.453,0.831488,0.0,1.0
58,14.25,30.8108,31.6338,141.298,97.5363,88.3462,0.00278457,0.127538,20.8647,194.494,0.877088,0.0,1.0
60,14.75,30.6229,32.1426,135.336,97.5379,85.4306,0.00306095,0.140802,20.8323,194.433,1.17466,0.0,1.0
62,15.25,31.079,32.0024,137.326,97.5419,84.1296,0.00342971,0.155495,20.806,194.443,1.31103,0.0,1.0
64,15.75,31.4056,31.9489,138.219,97.5387,82.1683,0.00385882,0.171342,20.7715,194.383,1.51981,0.0,1.0
66,16.25,30.6611,31.5649,137.359,97.5371,79.6826,0.00435631,0.187728,20.7436,194.373,1.79192,0.0,1.0
68,16.75,31.252,32.3503,133.877,97.5343,79.4324,0.00489418,0.204878,20.707,194.293,1.81954,0.0,1.0
70,17.25,32.1116,33.4593,129.316,97.5451,75.4599,0.00532986,0.22226,20.6773,194.303,2.27524,0.0,1.0
72,17.75,32.0262,32.7175,130.631,97.522,74.2719,0.00591803,0.240666,20.6532,194.263,2.41378,0.0,1.0
74,18.25,32.2257,33.1447,133.042,97.5355,72.1011,0.00660618,0.259471,20.6202,194.213,2.67791,0.0,1.0
76,18.75,32.738,33.9037,130.461,97.53,69.7094,0.00716358,0.274703,20.5934,194.183,2.97638,0.0,0.0
78,19.25,32.9829,33.7919,130.297,97.5339,69.4382,0.00805577,0.296941,20.5622,194.123,3.0113,0.0,0.0
80,19.75,33.4147,34.2818,126.284,97.5343,68.2576,0.00877843,0.314954,20.5285,194.093,3.16332,0.0,0.0
82,20.25,33.7907,34.8117,131.373,97.5284,65.6932,0.00973588,0.339709,20.4928,194.033,3.50217,0.0,0.0
84,20.75,34.4456,35.258,125.199,97.5184,64.3831,0.0105114,0.359761,20.4564,194.013,3.67979,0.0,0.0
86,21.25,34.8313,35.5164,126.854,97.5331,63.2256,0.0114813,0.376003,20.4147,193.953,3.84192,0.0,0.0
88,21.75,35.2979,36.1904,124.273,97.516,58.8829,0.012267,0.401201,20.37,193.923,4.47104,0.0,0.0
90,22.25,35.8054,36.7124,125.956,97.5252,60.2882,0.0132113,0.42161,20.3238,193.863,4.26284,0.0,0.0
92,22.75,36.0973,37.2938,121.026,97.5104,57.4855,0.0139762,0.443409,20.2774,193.773,4.6834,0.0,0.0
94,23.25,36.6031,37.8214,116.806,97.524,59.1459,0.0148638,0.465807,20.2332,193.723,4.43227,0.0,0.0
96,23.75,37.5379,38.2347,119.531,97.508,56.5292,0.0155828,0.488107,20.1913,193.703,4.83187,0.0,0.0
98,24.25,37.9456,39.1788,115.998,97.5168,58.0783,0.0163226,0.509913,20.1574,193.583,4.59306,0.0,0.0
100,24.75,38.4507,39.5553,116.953,97.5088,57.3998,0.0170634,0.534692,20.1172,193.523,4.69649,0.0,0.0
102,25.25,38.3949,39.2892,118.477,97.5128,58.2695,0.0176635,0.554762,20.0847,193.493,4.56356,0.0,0.0
104,25.75,39.2396,40.3981,122.036,97.5044,58.9604,0.0183799,0.579412,20.0505,193.413,4.45833,0.0,0.0
106,26.25,39.8365,41.7788,121.293,97.5176,57.8017,0.0189602,0.599378,20.0157,193.383,4.63544,0.0,0.0
108,26.75,40.6437,42.3751,116.016,97.4993,60.1975,0.0196176,0.621317,19.9792,193.292,4.27383,0.0,0.0
110,27.25,41.4528,42.8325,114.549,97.516,58.5783,0.0198979,0.644276,19.9596,193.242,4.51701,0.0,0.0
112,27.75,42.744,43.1853,112.564,97.4957,55.8387,0.020479,0.662874,19.9261,193.162,4.93967,0.0,0.0
114,28.25,43.1351,44.593,119.686,97.5108,56.8037,0.0210414,0.689407,19.8767,193.142,4.78919,0.0,0.0
116,28.75,43.5334,45.1688,107.647,97.5152,55.4112,0.0214969,0.710899,19.8366,193.052,5.00956,0.0,0.0
118,29.25,44.2161,45.8576,111.493,97.5112,57.793,0.0220509,0.733569,19.7892,193.002,4.63619,0.0,0.0
120,29.75,44.8182,46.2011,113.038,97.4909,61.1093,0.0224996,0.756667,19.7509,192.912,4.13982,0.0,0.0
122,30.25,45.9886,47.9008,109.926,97.506,58.8903,0.0230434,0.766514,19.7198,192.842,4.46902,0.0,0.0
124,30.75,47.4258,48.669,107.228,97.4849,58.3969,0.0234838,0.791572,19.6824,192.722,4.54167,0.0,0.0
126,31.25,47.9029,50.0387,109.207,97.504,56.9612,0.0238406,0.811869,19.652,192.682,4.76404,0.0,0.0
128,31.75,48.5224,50.9956,104.11,97.5036,58.5292,0.0242725,0.835234,19.6219,192.622,4.52331,0.0,0.0
130,32.25,49.2351,51.5388,108.436,97.4969,56.7336,0.0246224,0.854159,19.5925,192.542,4.79886,0.0,0.0
132,32.75,50.5735,52.3264,103.937,97.4925,59.3021,0.0249685,0.873004,19.5687,192.472,4.40602,0.0,0.0
134,33.25,51.1109,53.3377,108.275,97.5016,58.7003,0.0252489,0.891433,19.5451,192.392,4.49726,0.0,0.0
136,33.75,51.9046,54.0862,115.676,97.4853,57.1866,0.025476,0.90636,19.522,192.302,4.72732,0.0,0.0
138,34.25,53.228,55.5896,109.906,97.4945,58.6475,0.0257125,0.924458,19.5032,192.231,4.50458,0.0,0.0
140,34.75,54.196,56.4622,109.434,97.4809,57.6335,0.0259513,0.939117,19.481,192.151,4.65794,0.0,0.0
142,35.25,55.1847,57.6603,106.793,97.4873,60.1629,0.0261714,0.956218,19.463,192.031,4.27784,0.0,0.0
144,35.75,56.1333,58.4003,106.382,97.4761,60.3953,0.0263737,0.970069,19.4384,192.011,4.24264,0.0,0.0
146,36.25,56.5664,59.4919,112.834,97.4877,60.9646,0.0265483,0.981288,19.4184,191.901,4.16054,0.0,0.0
148,36.75,57.5663,60.5317,111.805,97.4689,60.4576,0.0266995,0.993008,19.3974,191.841,4.23286,0.0,0.0
150,37.25,57.9221,61.1923,111.974,97.4757,59.9032,0.0268098,1.00487,19.3804,191.761,4.31513,0.0,0.0
152,37.75,59.2252,62.2941,106.736,97.4594,59.2762,0.026888,1.01555,19.3639,191.691,4.4069,0.0,0.0
154,38.25,59.9833,63.6847,104.615,97.4781,60.2696,0.0269514,1.02515,19.3506,191.651,4.26129,0.0,0.0
156,38.75,60.729,64.4486,107.915,97.4634,61.6555,0.026953,1.03339,19.3399,191.571,4.05846,0.0,0.0
158,39.25,62.0401,65.4222,104.994,97.4761,61.8088,0.0269096,1.04048,19.3311,191.481,4.0376,0.0,0.0
160,39.75,62.9225,66.6119,98.6634,97.4693,61.8468,0.0268091,1.04615,19.3241,191.391,4.03155,0.0,0.0
162,40.25,63.4961,67.722,110.787,97.4737,60.9539,0.0266688,1.05069,19.3183,191.351,4.16083,0.0,0.0
164,40.75,64.535,68.5897,114.214,97.4725,62.4008,0.0265552,1.05437,19.3137,191.291,3.9528,0.0,0.0
166,41.25,65.3351,69.6885,105.383,97.4697,61.0603,0.026323,1.056,19.3118,191.201,4.14502,0.0,0.0
168,41.75,66.4954,70.3273,101.616,97.4622,63.4903,0.0261349,1.05733,19.3119,191.151,3.79845,0.0,0.0
170,42.25,67.1411,71.6223,104.725,97.4729,62.4853,0.0258672,1.05702,19.3155,191.08,3.94084,0.0,0.0
172,42.75,67.865,72.7183,104.373,97.467,65.6821,0.0256504,1.05551,19.3215,191,3.49809,0.0,0.0
174,43.25,68.7717,73.0204,106.327,97.4666,65.4553,0.0253787,1.05429,19.3296,190.93,3.5287,0.0,0.0
176,43.75,69.2916,74.42,112.477,97.4574,65.6074,0.0251586,1.05021,19.339,190.85,3.50729,0.0,0.0
178,44.25,70.1141,74.9343,106.455,97.4705,64.4301,0.0248857,1.04691,19.3495,190.79,3.66897,0.0,0.0
180,44.75,70.7056,75.8454,106.413,97.4566,64.2075,0.0246648,1.04108,19.3604,190.74,3.69838,0.0,0.0
182,45.25,71.8967,76.7021,110.731,97.4614,64.3823,0.0245706,1.03635,19.3651,190.64,3.67472,0.0,0.0
184,45.75,72.3029,77.4794,107.872,97.455,65.2364,0.0242748,1.02956,19.3759,190.6,3.55733,0.0,0.0
186,46.25,73.0603,78.5507,102.052,97.4466,64.9607,0.0240352,1.02406,19.3871,190.54,3.59412,0.0,0.0
188,46.75,73.3942,78.9345,106.054,97.451,64.7307,0.0237627,1.01637,19.3962,190.48,3.62596,0.0,0.0
190,47.25,74.4497,79.6632,111.351,97.443,64.7781,0.0234714,1.01015,19.4092,190.42,3.61874,0.0,0.0
192,47.75,75.0061,80.4282,108.329,97.453,65.3477,0.0231559,1.00257,19.4198,190.32,3.54204,0.0,0.0
194,48.25,75.262,81.2447,107.208,97.4506,65.7633,0.0228288,0.99813,19.4364,190.29,3.48565,0.0,0.0
196,48.75,75.806,81.9034,108.115,97.4367,65.065,0.0224894,0.990545,19.4499,190.22,3.57899,0.0,0.0
198,49.25,77.038,82.5508,120.466,97.4402,64.0484,0.0221476,0.980833,19.4762,190.19,3.71888,0.0,0.0
200,49.75,76.8397,83.0744,112.563,97.4442,64.034,0.0218029,0.969757,19.4974,190.13,3.72124,0.0,0.0
202,50.25,77.4328,83.6871,113.369,97.4414,66.7926,0.0214627,0.956892,19.5216,190.07,3.34717,0.0,0.0
204,50.75,77.9999,84.3576,109.323,97.4458,64.5291,0.0211871,0.94297,19.5474,190.04,3.65313,0.0,0.0
206,51.25,78.1678,85.1409,110.463,97.4347,65.6305,0.0208089,0.928181,19.5748,189.939,3.50211,0.0,0.0
208,51.75,78.7855,84.9312,113.857,97.4351,67.3408,0.0205026,0.913041,19.6028,189.889,3.27414,0.0,0.0
210,52.25,79.3589,85.6932,116.461,97.4211,64.7026,0.0202545,0.896979,19.6255,189.829,3.62707,0.0,0.0
212,52.75,79.4392,86.2583,120.245,97.4299,67.4517,0.019865,0.880549,19.651,189.799,3.25908,0.0,0.0
214,53.25,80.2269,86.0512,112.947,97.4267,64.1354,0.0195494,0.86724,19.6782,189.709,3.70562,0.0,0.0
216,53.75,80.2024,87.1562,121.246,97.4351,69.6006,0.019152,0.847084,19.7087,189.669,2.9816,0.0,0.0
218,54.25,80.602,87.198,124.603,97.4187,66.9006,0.0188301,0.830758,19.7411,189.639,3.33078,0.0,0.0
220,54.75,80.6295,87.3474,123.044,97.4175,68.0296,0.0183941,0.812079,19.7757,189.609,3.18235,0.0,0.0
222,55.25,81.1644,87.9875,115.374,97.4183,66.5498,0.0180408,0.79204,19.8112,189.559,3.37734,0.0,0.0
224,55.75,81.1446,87.9471,121.443,97.4231,69.1356,0.0175698,0.775809,19.8399,189.549,3.03992,0.0,0.0
226,56.25,81.3883,88.2589,125.395,97.4151,67.7419,0.0171882,0.75166,19.8745,189.459,3.21969,0.0,0.0
228,56.75,81.4758,88.4627,121.818,97.4255,67.0218,0.0168792,0.7321,19.9127,189.429,3.31536,0.0,0.0
230,57.25,81.3671,88.4919,117.658,97.4139,68.4958,0.0164409,0.711874,19.9437,189.399,3.12149,0.0,0.0
232,57.75,81.2514,88.0468,119.785,97.4251,69.8141,0.0159167,0.691548,19.9816,189.349,2.95355,0.0,0.0
234,58.25,81.5685,88.5937,128,97.4147,66.5737,0.0153813,0.666669,20.0122,189.329,3.37383,0.0,0.0
236,58.75,81.7068,88.4941,124.825,97.4183,69.7243,0.0151005,0.646516,20.0326,189.319,2.96435,0.0,0.0
238,59.25,81.5961,88.8845,125.665,97.4131,70.2268,0.0146203,0.630193,20.0675,189.289,2.90023,0.0,0.0
240,59.75,81.4462,88.7284,127.179,97.4163,71.1951,0.0142314,0.610602,20.0957,189.239,2.77915,0.0,0.0
242,60.25,81.6826,88.4228,133.554,97.4155,73.6144,0.0136469,0.589,20.1348,189.209,2.48291,0.0,0.0
244,60.75,81.2472,88.1351,136.152,97.4187,73.8098,0.0131734,0.566872,20.1664,189.139,2.4597,0.0,0.0
246,61.25,81.1939,88.3169,127.257,97.4036,72.1456,0.0126744,0.544781,20.1921,189.119,2.66044,0.0,0.0
248,61.75,81.0971,88.3536,132.054,97.4123,75.1276,0.0121661,0.535363,20.2309,189.119,2.30227,0.0,0.0
250,62.25,80.1574,88.0728,129.342,97.4071,76.429,0.011668,0.515106,20.2622,189.079,2.14959,0.0,0.0
252,62.75,80.2657,87.4392,135.143,97.4059,77.103,0.0111868,0.494962,20.3,189.059,2.07167,0.0,0.0
254,63.25,80.9116,87.4199,132.131,97.394,76.3861,0.0107195,0.478645,20.3305,189.029,2.15337,0.0,0.0
256,63.75,80.4063,87.3297,128.805,97.4111,78.2485,0.0102713,0.461297,20.368,189.019,1.94143,0.0,0.0
258,64.25,80.1892,87.2504,135.955,97.398,78.0267,0.00982976,0.443527,20.3983,188.989,1.96539,0.0,0.0
260,64.75,79.8529,87.128,136.51,97.4163,78.934,0.00940148,0.42642,20.433,188.959,1.86459,0.0,0.0
262,65.25,79.5753,86.7544,134.508,97.3996,79.0878,0.0088948,0.410122,20.465,188.949,1.84582,0.0,0.0
264,65.75,79.2445,86.5099,135.515,97.4075,79.4118,0.00848439,0.394673,20.4944,188.929,1.81031,0.0,0.0
266,66.25,78.9981,86.5598,133.215,97.3904,80.1043,0.00815196,0.380136,20.5183,188.909,1.73179,0.0,0.0
268,66.75,78.4745,85.7314,133.753,97.4067,81.0079,0.0076864,0.366295,20.5413,188.889,1.63387,0.0,0.0
270,67.25,78.2122,85.6348,138.635,97.3912,82.1337,0.0073093,0.353223,20.5633,188.868,1.51013,0.0,0.0
272,67.75,78.0412,85.1052,140.302,97.4075,84.25,0.00693158,0.340566,20.5727,188.878,1.28614,0.0,0.0
274,68.25,77.7315,84.9067,136.118,97.3836,83.3209,0.00673632,0.32845,20.5948,188.868,1.38225,0.0,0.0
276,68.75,77.4767,84.7162,141.073,97.404,85.1392,0.00635376,0.318636,20.6128,188.828,1.19277,0.0,0.0
278,69.25,77.2982,84.1161,140.525,97.39,85.3243,0.00584929,0.306731,20.6416,188.808,1.17225,0.0,0.0
280,69.75,76.5043,84.3785,139.844,97.4008,85.6594,0.00567215,0.297088,20.6494,188.788,1.13849,0.0,0.0
282,70.25,76.7715,83.7078,141.967,97.3844,86.0382,0.00536923,0.287152,20.6697,188.808,1.09789,0.0,0.0
284,70.75,75.7198,83.2216,141.761,97.396,87.1244,0.00504529,0.277192,20.6861,188.788,0.987753,0.0,0.0
286,71.25,75.9399,83.1323,141.401,97.3888,87.394,0.00478289,0.272946,20.7047,188.778,0.959718,0.0,0.0
288,71.75,75.2713,82.8139,142.678,97.4004,87.8268,0.00453102,0.262486,20.7198,188.748,0.916985,0.0,0.0
290,72.25,74.6629,82.1524,140.493,97.3832,87.6797,0.0042916,0.247999,20.7359,188.738,0.930287,0.0,0.0
292,72.75,74.1463,81.3214,138.503,97.4063,88.1644,0.00409767,0.243724,20.749,188.728,0.883525,0.0,0.0
294,73.25,74.4682,81.8648,140.232,97.3876,88.7584,0.00391484,0.235235,20.7596,188.718,0.822305,0.0,0.0
296,73.75,74.0307,81.3214,142.511,97.3868,88.5037,0.00374357,0.227299,20.7712,188.698,0.847708,0.0,0.0
298,74.25,73.9984,80.758,139.911,97.3816,88.8743,0.00360484,0.220871,20.7807,188.698,0.810202,0.0,0.0
300,74.75,73.3519,80.296,143.262,97.39,89.3125,0.00346192,0.213095,20.7902,188.668,0.767373,0.0,0.0
302,75.25,73.2656,80.2522,139.966,97.384,89.7869,0.00327817,0.206796,20.7995,188.668,0.719871,0.0,0.0
304,75.75,72.5729,79.6399,137.406,97.4036,89.9329,0.00321699,0.19946,20.8087,188.678,0.707256,0.0,0.0
306,76.25,72.5645,79.5494,140.069,97.3964,90.2927,0.00304657,0.193518,20.8214,188.678,0.671208,0.0,0.0
308,76.75,71.8584,79.1482,139.267,97.392,90.6118,0.00298737,0.188706,20.8262,188.678,0.639547,0.0,0.0
310,77.25,72.0677,78.6184,143.424,97.3756,90.8566,0.00288612,0.183003,20.8344,188.668,0.614141,0.0,0.0
312,77.75,70.8706,78.1882,141.068,97.376,90.9795,0.00271529,0.178384,20.8424,188.658,0.602203,0.0,0.0
314,78.25,70.8144,77.6656,143.594,97.382,91.3562,0.00266934,0.170873,20.8502,188.668,0.566119,0.0,0.0
316,78.75,70.3013,77.3637,145.334,97.3824,91.1522,0.00257725,0.168852,20.8564,188.658,0.585974,0.0,0.0
318,79.25,70.385,77.3564,142.192,97.3721,91.9045,0.00249052,0.162203,20.8615,188.648,0.512182,0.0,0.0
320,79.75,70.2944,77.1192,142.965,97.3784,91.193,0.00242026,0.160415,20.8674,188.658,0.581643,0.0,0.0
322,80.25,69.4274,76.1233,146.67,97.3633,91.7586,0.00236335,0.156168,20.8722,188.638,0.525467,0.0,0.0
324,80.75,69.5869,76.2212,143.251,97.3776,92.1865,0.00229805,0.151263,20.876,188.628,0.485542,0.0,0.0
326,81.25,68.8226,75.6141,144.11,97.3748,91.7742,0.00222788,0.149254,20.8798,188.598,0.525007,0.0,0.0
328,81.75,68.2273,75.5132,140.35,97.3713,91.9849,0.00217104,0.145818,20.8828,188.608,0.504362,0.0,0.0
330,82.25,68.1716,75.0895,141.895,97.386,92.1024,0.00210556,0.143036,20.8862,188.578,0.494391,0.0,0.0
332,82.75,67.7907,74.4726,141.759,97.3689,91.651,0.00205251,0.140782,20.8897,188.568,0.536374,0.0,0.0
334,83.25,67.5812,74.3541,142.768,97.3681,92.1638,0.00199012,0.137062,20.8938,188.568,0.48685,0.0,0.0
336,83.75,67.3831,73.6474,145.509,97.3669,92.1535,0.00193957,0.134049,20.8981,188.568,0.487733,0.0,0.0
338,84.25,66.7745,73.6418,145.651,97.3661,91.7231,0.00188285,0.131609,20.9027,188.588,0.529146,0.0,0.0
340,84.75,66.1248,73.7464,144.242,97.3581,92.3567,0.00183691,0.128486,20.9075,188.568,0.46741,0.0,0.0
342,85.25,66.1346,73.1183,141.709,97.3601,91.8711,0.00179363,0.125957,20.9121,188.568,0.514314,0.0,0.0
344,85.75,65.9306,72.693,144.379,97.3545,92.1469,0.00175857,0.1231,20.9164,188.558,0.487242,0.0,0.0
346,86.25,65.441,72.1644,146.854,97.3601,92.0813,0.00173988,0.120786,20.9204,188.568,0.494055,0.0,0.0
348,86.75,64.8136,72.353,143.283,97.3553,92.3781,0.00172474,0.11823,20.924,188.568,0.4651,0.0,0.0
350,87.25,64.9354,71.5155,146.905,97.3553,92.4206,0.00171248,0.11616,20.927,188.558,0.461026,0.0,0.0
352,87.75,64.8672,70.918,147.988,97.3617,92.2462,0.00171469,0.113844,20.9296,188.548,0.478345,0.0,0.0
354,88.25,64.1557,70.7969,147.054,97.3709,92.1432,0.00171648,0.111968,20.9319,188.548,0.489086,0.0,0.0
356,88.75,64.0545,70.5799,143.461,97.3585,92.3501,0.00171286,0.110157,20.9338,188.558,0.46808,0.0,0.0
358,89.25,63.3707,70.1082,143.982,97.3589,91.9581,0.00170538,0.108427,20.9362,188.538,0.505818,0.0,0.0
360,89.75,63.2845,69.9341,143.499,97.3525,92.0747,0.00169931,0.107026,20.9382,188.538,0.494,0.0,0.0
362,90.25,63.1667,69.3031,143.738,97.3553,92.7648,0.00167256,0.105255,20.9405,188.528,0.42808,0.0,0.0
364,90.75,62.9795,68.739,142.842,97.3529,92.7957,0.00163748,0.103819,20.9423,188.528,0.424909,0.0,0.0
366,91.25,62.0536,68.5724,145.964,97.3553,92.381,0.001597,0.102388,20.944,188.528,0.464823,0.0,0.0
368,91.75,61.9581,67.8477,144.566,97.3493,92.7924,0.0015521,0.100986,20.9457,188.528,0.424897,0.0,0.0
370,92.25,62.0189,68.019,145.541,97.3517,92.6069,0.00150482,0.0998505,20.9474,188.508,0.44285,0.0,0.0
372,92.75,61.5255,67.6026,144.261,97.3501,91.9099,0.00146652,0.0984467,20.9493,188.518,0.50967,0.0,0.0
374,93.25,61.6365,67.9203,145.377,97.3589,92.2256,0.00142218,0.0973095,20.951,188.508,0.480071,0.0,0.0
376,93.75,60.7719,67.1232,145.106,97.3477,92.6452,0.00138626,0.0959334,20.9526,188.508,0.43882,0.0,0.0
378,94.25,60.4356,66.6848,143.69,97.3469,92.2264,0.00135716,0.0948187,20.9539,188.508,0.478903,0.0,0.0
380,94.75,60.2707,67.2422,144.074,97.3461,92.6246,0.00133238,0.0936265,20.9554,188.488,0.440645,0.0,0.0
382,95.25,59.7396,66.1112,144.796,97.3577,92.2376,0.00131805,0.0926608,20.9566,188.478,0.478814,0.0,0.0
384,95.75,59.3838,65.878,142.277,97.3493,92.6057,0.0013116,0.0916757,20.9578,188.478,0.44275,0.0,0.0
386,96.25,59.5461,65.7514,146.351,97.3621,92.4128,0.00130638,0.0906951,20.959,188.478,0.462395,0.0,0.0
388,96.75,59.2774,65.4965,142.828,97.3433,92.6102,0.00133488,0.089662,20.9604,188.478,0.441772,0.0,0.0
390,97.25,58.6999,64.8996,143.865,97.3565,92.7772,0.00135796,0.0886102,20.9615,188.468,0.427007,0.0,0.0
392,97.75,58.7797,64.972,147.87,97.3561,92.3015,0.00141183,0.0877583,20.9629,188.478,0.472531,0.0,0.0
394,98.25,58.9354,64.8249,144.486,97.3489,92.5224,0.00145547,0.0866835,20.9645,188.478,0.450688,0.0,0.0
396,98.75,58.6665,63.7254,145.727,97.3421,92.4593,0.00151632,0.0858129,20.9657,188.508,0.456113,0.0,0.0
398,99.25,57.8,63.832,146.541,97.3453,92.4181,0.0015656,0.0848469,20.9667,188.478,0.460356,0.0,0.0
400,99.75,57.1349,63.9012,148.744,97.335,93.3407,0.00160488,0.0840644,20.9678,188.478,0.371379,0.0,0.0
402,100.25,57.611,63.3109,148.566,97.3509,92.3827,0.00162133,0.0831974,20.9683,188.468,0.464265,0.0,0.0
404,100.75,57.4655,63.3229,143.708,97.3354,92.5851,0.00164945,0.082495,20.9693,188.468,0.443453,0.0,0.0
406,101.25,57.1091,62.8028,145.543,97.3553,92.5562,0.00166775,0.0817746,20.97,188.468,0.44803,0.0,0.0
408,101.75,56.6106,63.0501,145.335,97.3314,92.5323,0.00167855,0.0810546,20.9707,188.478,0.448142,0.0,0.0
410,102.25,56.2648,61.9853,148.726,97.3457,92.7805,0.00168793,0.0803272,20.9712,188.468,0.425712,0.0,0.0
412,102.75,56.4585,61.9949,147.271,97.3338,92.219,0.00169611,0.0796081,20.9716,188.458,0.478418,0.0,0.0
414,103.25,56.0787,61.998,143.033,97.3342,92.1865,0.00170273,0.0793016,20.9721,188.458,0.481584,0.0,0.0
416,103.75,55.752,61.7486,145.612,97.3322,92.137,0.0017081,0.0785309,20.9728,188.468,0.486161,0.0,0.0
418,104.25,55.4089,61.471,145,97.3426,92.2705,0.00171851,0.0779066,20.9736,188.468,0.474266,0.0,0.0
420,104.75,54.9355,61.7822,146.852,97.3354,92.3621,0.00172695,0.0772568,20.9746,188.468,0.464827,0.0,0.0
422,105.25,54.6917,61.1012,146.131,97.3406,92.9078,0.0017265,0.0766008,20.9756,188.448,0.41308,0.0,0.0
424,105.75,54.996,60.2874,143.633,97.319,92.5612,0.00172614,0.0760695,20.9767,188.448,0.444254,0.0,0.0
426,106.25,54.5301,60.3152,147.017,97.335,92.3114,0.00171945,0.0756391,20.9775,188.438,0.469657,0.0,0.0
428,106.75,54.5723,60.4308,146.31,97.3186,92.395,0.00170828,0.0752185,20.9782,188.448,0.460138,0.0,0.0
430,107.25,53.8379,59.6749,144.79,97.3278,92.4754,0.00169605,0.074813,20.979,188.418,0.453266,0.0,0.0
432,107.75,54.1445,59.9204,145.316,97.3142,92.8068,0.00167781,0.0744125,20.9802,188.408,0.420324,0.0,0.0
434,108.25,53.6359,59.4264,144.054,97.3274,92.5232,0.00166849,0.0740233,20.9808,188.398,0.448648,0.0,0.0
436,108.75,53.3894,59.4218,147.588,97.3158,92.489,0.00166387,0.0736433,20.981,188.398,0.450872,0.0,0.0
438,109.25,52.8897,58.9412,146.219,97.3214,92.3518,0.00165598,0.0732773,20.9815,188.388,0.464545,0.0,0.0
440,109.75,52.4382,59.2134,145.113,97.3087,92.2879,0.00164704,0.07288,20.9819,188.408,0.469517,0.0,0.0
442,110.25,53.0163,58.8674,149.868,97.3262,92.7178,0.0016375,0.0724676,20.9826,188.408,0.42992,0.0,0.0
444,110.75,52.4576,58.7694,147.839,97.2971,92.8893,0.0016221,0.0719048,20.9832,188.418,0.410893,0.0,0.0
446,111.25,52.4768,58.0338,146.509,97.3238,92.0731,0.00160274,0.0715137,20.9837,188.408,0.491546,0.0,0.0
448,111.75,52.6796,57.4632,142.382,97.3007,92.5764,0.00157748,0.071347,20.984,188.428,0.441123,0.0,0.0
450,112.25,52.0326,57.6894,148.126,97.3234,92.0611,0.0015484,0.0709828,20.9848,188.428,0.49266,0.0,0.0
452,112.75,51.9348,57.4801,152.332,97.2999,91.9964,0.00151656,0.0706167,20.9854,188.418,0.496751,0.0,0.0
454,113.25,51.8181,57.3873,148.668,97.3246,92.334,0.0014833,0.0703201,20.9859,188.418,0.466536,0.0,0.0
456,113.75,51.4644,57.2319,143.288,97.2971,92.3699,0.00145636,0.069916,20.9863,188.428,0.460589,0.0,0.0
458,114.25,51.2082,56.8676,145.748,97.3258,92.5067,0.00142243,0.0695887,20.9866,188.408,0.450082,0.0,0.0
460,114.75,51.0211,56.5824,143.235,97.3019,92.1065,0.00139494,0.0692416,20.9869,188.388,0.486335,0.0,0.0
462,115.25,51.1791,56.3835,146.764,97.3154,92.4433,0.0013714,0.0688744,20.9871,188.378,0.455222,0.0,0.0
464,115.75,50.7117,56.1606,147.306,97.2967,92.2965,0.00135118,0.0684993,20.9877,188.388,0.467597,0.0,0.0
466,116.25,50.5058,55.7196,145.802,97.3178,92.3996,0.00133417,0.0681955,20.9882,188.388,0.45963,0.0,0.0
468,116.75,50.0932,56.2864,144.081,97.2947,92.5669,0.00131981,0.0675948,20.9888,188.368,0.441485,0.0,0.0
470,117.25,50.1917,55.5361,147.279,97.3119,91.9119,0.00130691,0.0671082,20.9896,188.368,0.505986,0.0,0.0
472,117.75,50.078,55.2989,146.255,97.2915,91.7981,0.00129531,0.0665491,20.9906,188.368,0.515111,0.0,0.0
474,118.25,50.0579,55.3394,145.067,97.3019,92.2903,0.00128592,0.0659477,20.9914,188.358,0.468662,0.0,0.0
476,118.75,49.9184,54.7493,144.826,97.3051,92.2145,0.00127226,0.0654606,20.9923,188.378,0.476239,0.0,0.0
478,119.25,49.5028,54.8169,146.476,97.2995,91.7466,0.00126119,0.0648345,20.9932,188.378,0.520813,0.0,0.0
480,119.75,49.4929,54.4031,145.899,97.2935,92.158,0.00125343,0.0643273,20.994,188.368,0.480615,0.0,0.0
482,120.25,49.1756,54.3242,147.544,97.3047,92.2516,0.00124715,0.0637531,20.9946,188.378,0.472637,0.0,0.0
484,120.75,49.0436,54.2516,145.855,97.2907,91.874,0.00124712,0.063288,20.9951,188.368,0.507718,0.0,0.0
486,121.25,48.6754,54.1485,146.028,97.3007,92.494,0.00125163,0.0627751,20.996,188.358,0.449019,0.0,0.0
488,121.75,48.657,54.055,146.354,97.2875,91.9853,0.00125529,0.0623597,20.9966,188.368,0.496697,0.0,0.0
490,122.25,48.8278,53.5174,142.34,97.3035,92.1118,0.00125462,0.0619144,20.9973,188.368,0.485965,0.0,0.0
492,122.75,48.4688,53.3188,144.65,97.2871,91.9445,0.00125408,0.0615536,20.9979,188.358,0.500593,0.0,0.0
494,123.25,48.1343,53.2494,146.219,97.2931,92.6354,0.00124153,0.0612042,20.9984,188.358,0.434791,0.0,0.0
496,123.75,48.2623,52.6747,145.825,97.2927,92.5991,0.00123136,0.0608695,20.9988,188.358,0.438226,0.0,0.0
498,124.25,47.9913,52.9047,148.276,97.278,92.2417,0.00121294,0.0605985,20.9991,188.338,0.471155,0.0,0.0
500,124.75,47.5742,52.7162,148.279,97.2859,92.1807,0.00118883,0.0602437,20.9993,188.358,0.477746,0.0,0.0
502,125.25,47.8003,52.5387,145.975,97.278,91.9338,0.00116294,0.0599563,20.9995,188.348,0.500791,0.0,0.0
504,125.75,47.4421,52.4339,150.234,97.2792,92.0595,0.00113624,0.0596304,20.9997,188.348,0.488788,0.0,0.0
506,126.25,46.8478,52.1532,143.922,97.2772,91.841,0.00111461,0.0592828,21.0003,188.348,0.509665,0.0,0.0
508,126.75,47.2293,51.7705,145.756,97.2652,91.7936,0.00108436,0.0589082,21.0007,188.348,0.513151,0.0,0.0
510,127.25,46.104,51.2214,148.684,97.2895,91.7441,0.0010484,0.058521,21.0009,188.338,0.520145,0.0,0.0
512,127.75,46.4377,51.3357,147.349,97.2795,91.7866,0.00101673,0.0581431,21.0011,188.348,0.515136,0.0,0.0
514,128.25,45.8308,50.874,147.39,97.2652,91.6605,0.00098878,0.057779,21.0013,188.358,0.526016,0.0,0.0
516,128.75,46.4585,50.8322,144.684,97.2776,91.8274,0.000966143,0.0574841,21.0014,188.368,0.511015,0.0,0.0
518,129.25,45.9945,50.8451,146.661,97.264,92.165,0.000951626,0.0571809,21.0015,188.368,0.477254,0.0,0.0
520,129.75,45.9347,50.8739,144.464,97.2716,91.644,0.000943302,0.0568774,21.0015,188.358,0.528191,0.0,0.0
522,130.25,45.0456,50.0837,148.468,97.2648,91.7957,0.000941016,0.0566315,21.0016,188.368,0.512915,0.0,0.0
524,130.75,44.8756,49.6305,146.238,97.2688,91.606,0.000943173,0.0564324,21.0017,188.368,0.531606,0.0,0.0
526,131.25,45.5302,50.2331,150.342,97.2628,91.7833,0.000944921,0.0562711,21.0017,188.378,0.513927,0.0,0.0
528,131.75,45.1172,50.2293,146.642,97.2604,91.5516,0.000963271,0.0560997,21.0017,188.378,0.536109,0.0,0.0
530,132.25,45.1629,49.7841,144.776,97.2616,91.5331,0.000978135,0.0559608,21.0018,188.358,0.538013,0.0,0.0
532,132.75,45.1319,50.1642,148.308,97.2708,91.8435,0.00100591,0.0558269,21.0018,188.368,0.508845,0.0,0.0
534,133.25,44.735,49.6371,150.004,97.26,91.8464,0.0010284,0.0556992,21.0018,188.348,0.507585,0.0,0.0
536,133.75,44.5709,49.166,147.743,97.2696,91.9061,0.00105389,0.0555957,21.002,188.358,0.502692,0.0,0.0
538,134.25,44.3456,48.8305,148.805,97.2568,92.2965,0.00107453,0.0554711,21.0024,188.358,0.463963,0.0,0.0
540,134.75,44.294,48.331,147.492,97.272,92.1073,0.0010887,0.0553702,21.0028,188.358,0.483531,0.0,0.0
542,135.25,44.4584,48.8025,144.392,97.262,91.9061,0.00109789,0.0552342,21.0026,188.358,0.502001,0.0,0.0
544,135.75,44.4005,48.6058,148.47,97.274,91.8991,0.00110533,0.055124,21.0025,188.368,0.503767,0.0,0.0
546,136.25,43.7941,48.6773,145.219,97.2612,91.7994,0.00109441,0.0550204,21.0026,188.348,0.51223,0.0,0.0
548,136.75,44.2668,48.2668,145.329,97.2664,91.7285,0.00108557,0.0549237,21.0029,188.338,0.519551,0.0,0.0
550,137.25,43.4849,48.2402,144.573,97.2644,91.7483,0.00106631,0.054831,21.0031,188.328,0.517456,0.0,0.0
552,137.75,43.0455,48.073,144.906,97.2728,92.2714,0.00105071,0.0547431,21.0033,188.338,0.467831,0.0,0.0
554,138.25,43.5798,48.2419,146.73,97.2652,91.9552,0.0010417,0.0546719,21.0035,188.338,0.497562,0.0,0.0
556,138.75,43.3574,47.838,143.195,97.2732,91.8814,0.0010344,0.0545871,21.0036,188.328,0.505404,0.0,0.0
558,139.25,43.4495,47.5556,146.093,97.2616,91.9643,0.00103938,0.0545184,21.0037,188.318,0.496361,0.0,0.0
560,139.75,43.1731,47.3393,147.372,97.2811,92.515,0.00104341,0.0544699,21.0038,188.328,0.445224,0.0,0.0
562,140.25,43.4526,47.3692,143.182,97.2544,91.8431,0.00105999,0.054437,21.0041,188.328,0.507394,0.0,0.0
564,140.75,43.0932,47.5305,150.211,97.2596,91.961,0.00107342,0.0543961,21.0046,188.328,0.496497,0.0,0.0
566,141.25,43.108,47.406,148.845,97.2552,91.7973,0.00108813,0.0543501,21.0049,188.328,0.511884,0.0,0.0
568,141.75,42.934,47.021,146.567,97.264,91.9684,0.0010962,0.0542914,21.0051,188.318,0.496182,0.0,0.0
570,142.25,42.7972,46.9467,147.501,97.2596,92.6725,0.00111002,0.0542246,21.0053,188.308,0.42819,0.0,0.0
572,142.75,42.8225,46.6818,149.308,97.2612,92.3179,0.0011238,0.0541919,21.0056,188.318,0.462305,0.0,0.0
574,143.25,42.8126,46.7163,145.74,97.2481,91.7301,0.00113731,0.0541847,21.0056,188.318,0.51772,0.0,0.0
576,143.75,42.5553,46.3561,146.785,97.2572,91.7969,0.00115207,0.0541517,21.0056,188.318,0.512106,0.0,0.0
578,144.25,42.3549,46.5267,146.572,97.2473,91.5117,0.00116747,0.054125,21.0056,188.318,0.538781,0.0,0.0
580,144.75,42.3528,46.3912,145.837,97.2644,91.9684,0.00117994,0.0541136,21.0056,188.318,0.496218,0.0,0.0
582,145.25,42.3719,45.7939,147.366,97.2481,92.2244,0.00118642,0.0540723,21.0056,188.318,0.470094,0.0,0.0
584,145.75,42.2531,46.3645,146.209,97.2624,91.909,0.00119166,0.0540192,21.0056,188.318,0.501759,0.0,0.0
586,146.25,42.2609,46.0463,148.863,97.252,92.4012,0.00118743,0.0539905,21.0056,188.308,0.453478,0.0,0.0
588,146.75,41.9586,46.0264,146.238,97.256,92.3423,0.001184,0.0539801,21.0056,188.308,0.459498,0.0,0.0
590,147.25,41.6553,45.8041,148.195,97.2469,91.963,0.00117517,0.0539717,21.0056,188.318,0.495137,0.0,0.0
592,147.75,41.687,45.6223,149.639,97.266,92.097,0.00116802,0.0539377,21.0056,188.298,0.483978,0.0,0.0
594,148.25,41.7243,45.412,145.154,97.2425,92.3518,0.00116586,0.0539102,21.0056,188.308,0.457353,0.0,0.0
596,148.75,41.4585,45.5189,148.002,97.2552,91.9606,0.00116411,0.0539015,21.0056,188.298,0.496138,0.0,0.0
598,149.25,41.7306,45.3886,147.75,97.2449,92.1382,0.00116269,0.0538944,21.0056,188.298,0.478086,0.0,0.0
600,149.75,41.4867,45.135,143.681,97.2516,92.0739,0.00116154,0.0538751,21.0056,188.298,0.484892,0.0,0.0
602,150.25,41.1275,44.9489,145.844,97.2449,91.8983,0.00119331,0.0538595,21.0058,188.298,0.501193,0.0,0.0
604,150.75,41.2442,44.8828,144.455,97.2584,91.8521,0.00121905,0.0538326,21.006,188.308,0.506883,0.0,0.0
606,151.25,41.4892,45.0529,146.127,97.2369,91.8505,0.00125444,0.0537979,21.0062,188.298,0.505079,0.0,0.0
608,151.75,41.0572,44.7541,143.322,97.2552,92.0273,0.0012831,0.0537698,21.0064,188.308,0.489704,0.0,0.0
610,152.25,40.8408,44.841,145.98,97.2457,92.2231,0.00130632,0.0537327,21.0065,188.308,0.469995,0.0,0.0
612,152.75,40.5467,44.7065,151.181,97.264,91.6551,0.00132513,0.0536899,21.0067,188.298,0.526424,0.0,0.0
614,153.25,40.4978,44.4753,148.909,97.2524,92.8365,0.00133335,0.0536552,21.0067,188.308,0.411859,0.0,0.0
616,153.75,40.9713,44.2265,148.673,97.258,92.5698,0.00133369,0.0536406,21.0068,188.288,0.437866,0.0,0.0
618,154.25,40.4532,44.4487,148.173,97.2496,91.8352,0.00132249,0.0536288,21.0069,188.298,0.507715,0.0,0.0
620,154.75,40.5735,44.0003,146.822,97.2508,92.2405,0.00130309,0.0536121,21.0069,188.278,0.468802,0.0,0.0
622,155.25,40.6548,44.0814,144.29,97.2433,92.1757,0.00128036,0.0535922,21.007,188.278,0.474333,0.0,0.0
624,155.75,40.6996,44.1276,145.592,97.26,91.7458,0.00125564,0.053576,21.007,188.278,0.517297,0.0,0.0
626,156.25,40.228,44.2985,148.715,97.2473,91.8422,0.00123562,0.0535629,21.007,188.278,0.506821,0.0,0.0
628,156.75,40.4167,43.4818,147.615,97.2481,92.076,0.0012246,0.0535666,21.007,188.268,0.484366,0.0,0.0
630,157.25,40.3103,43.8893,146.444,97.2469,92.3155,0.00122354,0.0535825,21.0071,188.278,0.461234,0.0,0.0
632,157.75,40.2584,43.8078,145.898,97.2572,92.5113,0.00122173,0.0536096,21.0071,188.278,0.4434,0.0,0.0
634,158.25,40.3575,43.151,143.739,97.2485,91.6864,0.00123843,0.0536444,21.0069,188.278,0.521979,0.0,0.0
636,158.75,40.4717,43.7044,146.625,97.264,91.7796,0.00125196,0.0536726,21.0065,188.268,0.514395,0.0,0.0
638,159.25,40.2346,43.266,146.225,97.2469,92.0414,0.00127625,0.0536526,21.0062,188.268,0.487591,0.0,0.0
640,159.75,39.915,43.2116,144.231,97.2508,92.346,0.00129592,0.0535978,21.0059,188.268,0.458669,0.0,0.0
642,160.25,39.7657,43.707,146.933,97.2485,92.1366,0.00131549,0.0535535,21.0059,188.268,0.478572,0.0,0.0
644,160.75,39.7787,43.0148,146.868,97.2417,92.0855,0.00133134,0.0534904,21.0062,188.268,0.482873,0.0,0.0
646,161.25,39.3948,42.8592,141.201,97.2441,91.9494,0.00132843,0.0534393,21.0061,188.268,0.496194,0.0,0.0
648,161.75,39.5867,42.7966,147.176,97.2496,91.9453,0.00132607,0.0533979,21.0059,188.248,0.4971,0.0,0.0
650,162.25,39.8228,42.9147,149.042,97.2588,92.3645,0.00129146,0.0533644,21.0057,188.258,0.457616,0.0,0.0
652,162.75,39.1789,43.0048,146.65,97.2628,92.3291,0.00126342,0.0533508,21.0055,188.268,0.461381,0.0,0.0
654,163.25,39.1164,42.3752,145.992,97.2492,92.2903,0.00124071,0.0533398,21.0054,188.268,0.463866,0.0,0.0
656,163.75,39.177,42.2114,146.16,97.2341,91.9119,0.00119319,0.053358,21.0054,188.258,0.498901,0.0,0.0
658,164.25,39.415,42.9758,147.492,97.2516,92.4185,0.00115469,0.0533728,21.0054,188.248,0.451781,0.0,0.0
660,164.75,39.3406,42.9225,145.568,97.2429,91.9342,0.00112592,0.0533576,21.0055,188.258,0.497554,0.0,0.0
662,165.25,38.9933,42.1065,148.115,97.2552,92.4144,0.00110263,0.0533453,21.0055,188.258,0.452504,0.0,0.0
664,165.75,38.6102,42.2878,146.009,97.2441,92.2598,0.00108948,0.0533353,21.0055,188.268,0.466325,0.0,0.0
666,166.25,38.5964,42.2964,144.571,97.2564,91.8418,0.001084,0.0533415,21.0056,188.258,0.507696,0.0,0.0
668,166.75,38.7389,41.8174,147.308,97.2473,92.5937,0.00108337,0.0533466,21.0056,188.268,0.434596,0.0,0.0
670,167.25,39.3301,41.7187,145.061,97.2532,92.3629,0.00108631,0.0533778,21.0056,188.268,0.457265,0.0,0.0
672,167.75,39.2677,41.8467,148.118,97.2473,92.6218,0.00109187,0.0534031,21.0056,188.258,0.431914,0.0,0.0
674,168.25,39.0872,42.1766,147.586,97.2449,92.7318,0.00109925,0.0533879,21.0056,188.258,0.42117,0.0,0.0
676,168.75,38.8264,41.9506,146.164,97.2425,92.17,0.00110968,0.0533434,21.0056,188.258,0.474815,0.0,0.0
678,169.25,38.7925,42.0089,149.454,97.25,92.1477,0.00112214,0.0532931,21.0056,188.248,0.477646,0.0,0.0
680,169.75,39.4926,42.022,145.598,97.2465,92.2673,0.00113224,0.0532395,21.0057,188.248,0.465829,0.0,0.0
682,170.25,38.4332,41.5838,148.292,97.2616,92.1572,0.00114042,0.0531961,21.0057,188.238,0.477788,0.0,0.0
684,170.75,38.3769,40.6251,146.634,97.2421,92.2062,0.00114704,0.0531609,21.0057,188.238,0.471292,0.0,0.0
686,171.25,38.457,41.2133,144.723,97.2449,92.1885,0.00114667,0.0531181,21.0057,188.238,0.473249,0.0,0.0
688,171.75,38.7813,41.815,142.088,97.2429,92.6605,0.00114121,0.0530706,21.0057,188.238,0.427807,0.0,0.0
690,172.25,38.7065,41.8354,145.65,97.25,92.1028,0.00113679,0.0530322,21.0057,188.238,0.481969,0.0,0.0
692,172.75,38.8451,41.6094,146.063,97.2377,92.717,0.00113321,0.0529874,21.0057,188.238,0.421935,0.0,0.0
694,173.25,38.3706,41.4499,151.238,97.2616,92.5743,0.00112425,0.0529512,21.0055,188.248,0.43776,0.0,0.0
696,173.75,38.4321,41.0666,145.38,97.2441,92.5352,0.001117,0.052929,21.0053,188.248,0.439911,0.0,0.0
698,174.25,37.807,40.5816,143.02,97.2516,92.0949,0.00111355,0.0529174,21.0051,188.248,0.482869,0.0,0.0
700,174.75,38.1263,40.3958,147.476,97.2381,92.4239,0.00111075,0.0529081,21.0049,188.228,0.450032,0.0,0.0
702,175.25,38.0164,41.4179,146.909,97.27,92.3142,0.00110001,0.0529005,21.0047,188.228,0.46346,0.0,0.0
704,175.75,38.1162,40.8317,146.183,97.2512,92.6205,0.00109132,0.052935,21.0046,188.228,0.432396,0.0,0.0
706,176.25,38.2625,40.9241,148.384,97.2584,91.8723,0.00107345,0.052963,21.0045,188.238,0.504934,0.0,0.0
708,176.75,38.2365,40.8015,145.574,97.2413,92.4387,0.00104923,0.0529857,21.0049,188.228,0.4489,0.0,0.0
710,177.25,37.6282,40.4163,146.342,97.2477,91.855,0.00102962,0.0530041,21.0052,188.218,0.505623,0.0,0.0
712,177.75,37.8387,41.1619,147.802,97.2544,92.144,0.00100419,0.053019,21.0052,188.218,0.478403,0.0,0.0
714,178.25,37.4082,40.804,148.306,97.2457,92.2775,0.000974997,0.053031,21.005,188.228,0.464767,0.0,0.0
716,178.75,37.7081,40.6031,146.713,97.2425,92.4668,0.000953898,0.0530479,21.0049,188.228,0.446322,0.0,0.0
718,179.25,37.6367,40.5781,146.993,97.2457,92.1263,0.000939098,0.053068,21.0047,188.238,0.479309,0.0,0.0
720,179.75,38.1179,40.8706,149.501,97.2325,92.1902,0.000935573,0.0530843,21.0046,188.218,0.471964,0.0,0.0
722,180.25,37.4962,40.6389,147.202,97.2465,92.2495,0.000932718,0.0530568,21.0045,188.208,0.467532,0.0,0.0
724,180.75,38.0975,40.8279,148.105,97.2337,92.3876,0.000931615,0.0530345,21.0045,188.218,0.453111,0.0,0.0
726,181.25,37.0919,39.7205,145.426,97.2461,91.9181,0.000930721,0.0530236,21.0044,188.208,0.499395,0.0,0.0
728,181.75,37.8456,40.2016,148.402,97.2285,92.2231,0.00092637,0.0530212,21.0044,188.218,0.468432,0.0,0.0
730,182.25,37.3905,40.2075,143.759,97.2461,92.6898,0.000922845,0.0530193,21.0043,188.228,0.425299,0.0,0.0
732,182.75,37.8024,40.5811,145.129,97.2273,92.1254,0.000906693,0.0530177,21.0043,188.238,0.477717,0.0,0.0
734,183.25,37.3536,40.0441,142.498,97.2381,92.0826,0.00089361,0.0530093,21.0043,188.228,0.482824,0.0,0.0
736,183.75,37.6183,40.2337,147.979,97.2309,91.8942,0.000883012,0.052996,21.0043,188.228,0.50032,0.0,0.0
738,184.25,37.1314,39.6512,145.232,97.2488,92.3299,0.000852861,0.052971,21.0042,188.218,0.46003,0.0,0.0
740,184.75,37.4411,40.2549,146.81,97.2305,92.7178,0.000809028,0.0529379,21.0042,188.198,0.421202,0.0,0.0
742,185.25,37.4003,40.0833,148.643,97.2333,92.2491,0.000777003,0.0529111,21.0042,188.208,0.466373,0.0,0.0
744,185.75,37.3216,40.0792,143.817,97.2257,92.7957,0.00072224,0.0528893,21.0041,188.218,0.413321,0.0,0.0
746,186.25,37.5161,39.6166,148.279,97.2457,92.4284,0.000677882,0.0528717,21.004,188.208,0.450288,0.0,0.0
748,186.75,36.9107,39.8495,147.618,97.2401,92.1972,0.000627479,0.0528575,21.0038,188.228,0.471981,0.0,0.0
750,187.25,36.9125,39.6741,145.155,97.2465,92.7351,0.000586651,0.0528459,21.0037,188.228,0.421001,0.0,0.0
752,187.75,37.2484,39.7605,148.316,97.2337,92.6057,0.00055117,0.0528434,21.0037,188.218,0.432217,0.0,0.0
754,188.25,37.428,39.2262,147.966,97.2508,92.4132,0.00052243,0.0528454,21.0036,188.208,0.452223,0.0,0.0
756,188.75,37.1813,39.4135,147.146,97.2417,92.7434,0.000499785,0.052849,21.0035,188.208,0.419776,0.0,0.0
758,189.25,37.0902,39.4864,145.141,97.2496,92.5941,0.000482014,0.0528384,21.0035,188.208,0.434776,0.0,0.0
760,189.75,37.13,39.4442,147.46,97.2381,92.6667,0.000471428,0.0528297,21.0035,188.228,0.426779,0.0,0.0
762,190.25,37.0012,39.7268,145.177,97.2421,92.5904,0.000466281,0.0528084,21.0034,188.218,0.43444,0.0,0.0
764,190.75,37.0111,39.0648,148.405,97.2253,92.5088,0.000462112,0.0527783,21.0034,188.218,0.440731,0.0,0.0
766,191.25,37.2642,39.5812,144.526,97.2544,92.1774,0.000464766,0.052754,21.0034,188.208,0.475192,0.0,0.0
768,191.75,36.5941,39.4502,148.073,97.2397,92.0727,0.000466915,0.0527342,21.0034,188.198,0.483921,0.0,0.0
770,192.25,36.5899,39.2554,145.658,97.2469,92.4672,0.000468657,0.0527325,21.0034,188.198,0.446682,0.0,0.0
772,192.75,36.9643,39.1567,147.527,97.2325,92.7351,0.000470067,0.052744,21.0038,188.198,0.419729,0.0,0.0
774,193.25,36.8014,39.301,149.892,97.2564,92.4235,0.000466385,0.0527533,21.0041,188.208,0.451743,0.0,0.0
776,193.75,37.211,38.8978,146.551,97.2389,92.8291,0.000463402,0.0527472,21.0044,188.198,0.411333,0.0,0.0
778,194.25,36.7297,39.1476,144.557,97.2492,91.9329,0.000457367,0.0527423,21.0047,188.198,0.498254,0.0,0.0
780,194.75,36.5268,38.6068,144.972,97.2437,92.2046,0.000452479,0.0527241,21.0048,188.188,0.471596,0.0,0.0
782,195.25,36.7726,38.633,144.383,97.2488,92.6601,0.00044852,0.0526965,21.005,188.188,0.428391,0.0,0.0
784,195.75,36.4409,39.077,144.686,97.2277,92.3847,0.000442724,0.0526812,21.0051,188.178,0.452843,0.0,0.0
786,196.25,36.317,38.8117,145.193,97.2317,92.5315,0.0004357,0.0526753,21.0057,188.178,0.439139,0.0,0.0
788,196.75,36.6318,39.0424,147.534,97.2345,92.2623,0.000430011,0.0526705,21.0061,188.188,0.465215,0.0,0.0
790,197.25,36.5124,38.6505,147.141,97.2425,92.1535,0.000424196,0.0526666,21.0066,188.198,0.476402,0.0,0.0
792,197.75,36.6187,38.3601,144.768,97.2253,92.3649,0.000419487,0.0526635,21.0071,188.188,0.454524,0.0,0.0
794,198.25,36.4974,38.719,148.124,97.2369,92.0611,0.000415672,0.0526613,21.0074,188.198,0.484777,0.0,0.0
796,198.75,36.7325,38.6765,144.156,97.2249,92.5624,0.000441535,0.0526599,21.0077,188.198,0.435561,0.0,0.0
798,199.25,36.2345,38.8159,145.853,97.2365,92.4849,0.000462483,0.0526659,21.008,188.188,0.444039,0.0,0.0
800,199.75,37.0336,38.7684,144.43,97.2389,92.5245,0.00050722,0.0526772,21.0082,188.198,0.440465,0.0,0.0
802,200.25,36.2225,38.3239,146.749,97.2429,92.3662,0.000543456,0.0526863,21.0083,188.198,0.456004,0.0,0.0
804,200.75,36.7116,38.0472,148.148,97.2492,92.7809,0.000600596,0.0526937,21.0084,188.188,0.416883,0.0,0.0
806,201.25,35.8995,37.8082,147.03,97.2409,92.4527,0.000652606,0.0526997,21.0086,188.198,0.44752,0.0,0.0
808,201.75,35.5698,37.6834,142.556,97.2385,92.3905,0.000699888,0.0527046,21.0086,188.188,0.453271,0.0,0.0
810,202.25,35.9977,38.1293,147.825,97.2309,92.8584,0.000740731,0.0526678,21.0087,188.188,0.407812,0.0,0.0
812,202.75,36.4702,38.422,146.676,97.2453,92.0603,0.000776105,0.052638,21.0088,188.188,0.485621,0.0,0.0
814,203.25,36.4592,37.9786,146.803,97.2357,92.0954,0.000805395,0.0525732,21.0088,188.178,0.481375,0.0,0.0
816,203.75,35.9935,38.2251,146.931,97.2365,92.5814,0.000829692,0.0525207,21.0088,188.188,0.4348,0.0,0.0
818,204.25,36.3253,38.252,145.926,97.2265,92.3307,0.000849373,0.0525189,21.0089,188.168,0.457917,0.0,0.0
820,204.75,36.371,38.2604,146.411,97.2369,92.3295,0.000868497,0.0525174,21.0089,188.168,0.45898,0.0,0.0
822,205.25,36.7035,37.9377,146.932,97.2345,92.4214,0.000886851,0.0525298,21.0089,188.168,0.449942,0.0,0.0
824,205.75,35.7961,37.7611,146.096,97.2357,92.2574,0.000904265,0.0525398,21.0089,188.178,0.465798,0.0,0.0
826,206.25,36.3148,37.9179,146.889,97.2329,92.644,0.000920662,0.0525886,21.0089,188.178,0.428477,0.0,0.0
828,206.75,36.0176,37.8896,148.456,97.2457,92.0727,0.000933943,0.0526282,21.0089,188.178,0.484466,0.0,0.0
830,207.25,36.1031,37.5812,147,97.2365,92.435,0.000943491,0.052633,21.009,188.168,0.44882,0.0,0.0
832,207.75,36.2386,37.4196,148.244,97.2552,92.7524,0.000951225,0.052637,21.009,188.178,0.420146,0.0,0.0
834,208.25,36.2622,37.8684,143.716,97.2269,92.0805,0.000951125,0.0526331,21.009,188.188,0.482004,0.0,0.0
836,208.75,35.8938,37.9391,149.539,97.2397,92.6704,0.000945315,0.0526235,21.009,188.188,0.426571,0.0,0.0
838,209.25,35.0817,37.6915,148.129,97.2293,92.285,0.000930937,0.0526157,21.009,188.178,0.462564,0.0,0.0
840,209.75,35.4767,37.4562,143.552,97.2433,92.1807,0.000919291,0.0526772,21.009,188.178,0.473857,0.0,0.0
842,210.25,36.0955,38.0465,145.606,97.2281,92.3456,0.000909857,0.0527271,21.009,188.178,0.456637,0.0,0.0
844,210.75,35.6627,37.7771,144.481,97.2437,92.4598,0.000902216,0.0527674,21.009,188.168,0.447103,0.0,0.0
846,211.25,35.5957,37.1402,146.864,97.2349,93.2046,0.000896027,0.0528001,21.009,188.178,0.375186,0.0,0.0
848,211.75,35.9998,37.3691,148.955,97.2461,92.3818,0.000912779,0.0528123,21.0088,188.168,0.454792,0.0,0.0
850,212.25,36.1044,37.593,146.651,97.2337,92.3583,0.000926349,0.0528094,21.0084,188.168,0.45592,0.0,0.0
852,212.75,35.8386,37.9004,149.325,97.2548,92.3802,0.000953068,0.0528141,21.008,188.158,0.455749,0.0,0.0
854,213.25,35.3331,37.0608,145.238,97.2405,92.7421,0.000964459,0.0528244,21.0079,188.158,0.419786,0.0,0.0
856,213.75,35.1307,37.4614,149.48,97.2536,92.6865,0.00099413,0.0528327,21.0077,188.168,0.426305,0.0,0.0
858,214.25,35.5078,37.4494,145.642,97.2449,92.8225,0.00102734,0.0528394,21.0075,188.168,0.412508,0.0,0.0
860,214.75,35.6432,37.3682,148.482,97.2477,92.2809,0.00105997,0.0528449,21.0073,188.158,0.464631,0.0,0.0
862,215.25,35.6979,37.6451,145.634,97.2405,92.1696,0.00109157,0.0528629,21.0076,188.158,0.474674,0.0,0.0
864,215.75,35.6324,37.3171,144.178,97.2532,92.5875,0.00111716,0.0528774,21.0079,188.168,0.435734,0.0,0.0
866,216.25,35.6708,37.6569,149.275,97.2317,92.0653,0.00113062,0.0528765,21.0081,188.158,0.483908,0.0,0.0
868,216.75,35.8187,37.0987,146.976,97.2512,92.0092,0.00114153,0.0528749,21.0083,188.158,0.491087,0.0,0.0
870,217.25,35.509,37.1103,151.284,97.2369,92.6696,0.00113463,0.0528594,21.0084,188.168,0.426395,0.0,0.0
872,217.75,35.573,37.5533,145.298,97.2504,91.9787,0.00112903,0.0528339,21.0085,188.168,0.493954,0.0,0.0
874,218.25,35.4527,37.4407,147.299,97.2377,92.6836,0.0011245,0.0528133,21.0086,188.168,0.425128,0.0,0.0
876,218.75,35.619,37.2694,152.005,97.2576,92.2326,0.00112084,0.0527965,21.0087,188.158,0.470174,0.0,0.0
878,219.25,35.5031,37.2954,147.271,97.2457,92.1452,0.00106948,0.052783,21.0087,188.158,0.477484,0.0,0.0
880,219.75,35.2066,37.0428,150.288,97.2516,92.339,0.00102789,0.0528128,21.0086,188.158,0.459415,0.0,0.0
882,220.25,35.6621,37.093,143.574,97.2365,92.4062,0.000973651,0.0528368,21.0085,188.158,0.451586,0.0,0.0
884,220.75,35.2989,37.3707,146.329,97.2516,92.5014,0.00092972,0.0528564,21.0084,188.158,0.44384,0.0,0.0
886,221.25,35.6821,37.1652,146.407,97.2377,92.6127,0.000874813,0.052865,21.0084,188.158,0.43191,0.0,0.0
888,221.75,35.7211,36.7743,146.736,97.2393,92.0648,0.000830338,0.0528656,21.0083,188.138,0.484638,0.0,0.0
890,222.25,35.3816,37.2145,146.663,97.2381,92.6279,0.000785863,0.0528661,21.0081,188.148,0.430487,0.0,0.0
892,222.75,35.7937,37.1722,146.592,97.25,92.5991,0.000749838,0.0528258,21.0076,188.148,0.434339,0.0,0.0
894,223.25,35.1649,37.41,146.596,97.2369,92.5636,0.000740834,0.0527931,21.0074,188.138,0.436533,0.0,0.0
896,223.75,35.426,36.5601,147.782,97.2588,92.8522,0.000725438,0.0527524,21.0071,188.148,0.410945,0.0,0.0
898,224.25,34.9923,36.8198,147.961,97.2329,93.2665,0.000726954,0.0527065,21.0069,188.158,0.369128,0.0,0.0
900,224.75,35.6527,36.5402,143.32,97.2516,92.9099,0.000740769,0.0526837,21.0067,188.138,0.404784,0.0,0.0
902,225.25,35.361,36.9296,147.375,97.2365,92.6263,0.00075196,0.052678,21.0065,188.148,0.430499,0.0,0.0
904,225.75,35.3646,36.6003,147.044,97.2401,92.6824,0.000777568,0.0526734,21.0064,188.158,0.425463,0.0,0.0
906,226.25,35.0499,36.8893,141.922,97.2361,92.5859,0.000813199,0.0526715,21.0063,188.148,0.434329,0.0,0.0
908,226.75,35.1844,36.7026,147.887,97.2425,92.2718,0.000842061,0.052661,21.0062,188.148,0.46503,0.0,0.0
910,227.25,34.8768,36.8912,146.198,97.2409,92.6016,0.000872788,0.0526461,21.0061,188.158,0.433266,0.0,0.0
912,227.75,35.2241,36.672,147.942,97.2477,92.562,0.000897677,0.052634,21.0061,188.148,0.437672,0.0,0.0
914,228.25,35.1117,36.486,143.676,97.2405,92.6881,0.000915418,0.0526649,21.0062,188.148,0.424948,0.0,0.0
916,228.75,35.1611,35.7961,145.411,97.2477,93.2772,0.000929788,0.05269,21.0064,188.148,0.369453,0.0,0.0
918,229.25,34.7156,36.7363,140.884,97.2345,92.6185,0.000934171,0.0527102,21.0065,188.148,0.431068,0.0,0.0
920,229.75,35.2497,36.5453,147.046,97.2473,92.4631,0.000937721,0.0527267,21.0067,188.148,0.447113,0.0,0.0
922,230.25,35.0748,36.1973,144.546,97.2413,92.2932,0.000936778,0.05274,21.0068,188.128,0.462863,0.0,0.0
924,230.75,34.9614,36.6711,144.593,97.252,92.1893,0.000932578,0.0527093,21.0069,188.138,0.473824,0.0,0.0
926,231.25,35.0577,36.4626,146.185,97.2437,92.301,0.000926757,0.0526845,21.007,188.128,0.462329,0.0,0.0
928,231.75,35.1786,36.6833,147.639,97.2516,92.947,0.000922043,0.0526373,21.007,188.128,0.401246,0.0,0.0
930,232.25,34.6607,36.1386,147.897,97.2381,92.5678,0.000918224,0.052599,21.0071,188.128,0.436247,0.0,0.0
932,232.75,34.9072,35.8114,143.455,97.2421,92.2112,0.000901834,0.0525966,21.0069,188.128,0.470816,0.0,0.0
934,233.25,35.0274,36.7489,143.794,97.2512,92.5739,0.000888558,0.0526203,21.0065,188.118,0.436855,0.0,0.0
936,233.75,35.0758,36.6285,151.926,97.2648,92.2157,0.00086572,0.0526324,21.0062,188.128,0.472452,0.0,0.0
938,234.25,34.725,36.4784,149.378,97.256,92.7751,0.000847222,0.0526357,21.006,188.128,0.418053,0.0,0.0
940,234.75,34.9374,36.6575,147.572,97.2465,92.4078,0.000818951,0.0526385,21.0058,188.118,0.452337,0.0,0.0
942,235.25,34.8866,36.6382,144.258,97.2381,92.2099,,0.0526407,,188.118,0.470572,0.0,0.0
944,235.75,34.9016,36.3142,146.574,97.2381,93.1412,,0.0526424,,188.118,0.381517,0.0,0.0
946,236.25,35.0911,36.6229,146.525,97.2405,92.6832,,0.0526439,,188.138,0.425421,0.0,0.0
948,236.75,35.095,36.1578,147.03,97.2417,92.6572,,0.0526451,,188.138,0.428014,0.0,0.0
950,237.25,34.9294,36.2672,147.513,97.2429,92.4494,,0.0526389,,188.138,0.448018,0.0,0.0
952,237.75,35.0365,36.4518,146.112,97.2516,92.1378,,0.0526274,,188.128,0.478744,0.0,0.0
954,238.25,34.7328,35.8029,147.196,97.2373,92.0883,,,,188.128,0.482194,0.0,0.0
956,238.75,34.8413,36.0263,146.122,97.2516,92.7157,,,,188.108,0.423325,0.0,0.0
958,239.25,34.9099,36.5584,146.983,97.2369,92.496,,,,188.118,0.443007,0.0,0.0
960,239.75,34.905,36.428,147.076,97.2425,92.8229,,,,188.118,0.41225,0.0,0.0
962,240.25,35.0424,36.3293,147.164,97.2516,92.7796,,,,188.108,0.41722,0.0,0.0
964,240.75,35.072,36.2319,147.696,97.2349,92.7833,,,,188.118,0.415338,0.0,0.0
966,241.25,35.014,36.6086,146.733,97.2401,92.7359,,,,188.118,0.42034,0.0,0.0
968,241.75,34.5944,36.463,144.826,97.2313,92.3633,,,,188.118,0.455227,0.0,0.0
970,242.25,35.1566,36.4732,147.546,97.2381,92.2734,,,,188.108,0.464472,0.0,0.0
972,242.75,34.9427,36.1102,147.492,97.2301,92.4053,,,,188.118,0.451084,0.0,0.0
974,243.25,34.4053,36.2533,144.922,97.2381,92.7549,,,,188.098,0.418347,0.0,0.0
976,243.75,35.0716,36.4152,149.271,97.2285,92.6605,,,,188.108,0.426499,0.0,0.0
978,244.25,35.3701,35.6496,143.698,97.2405,92.6325,,,,188.108,0.430271,0.0,0.0
980,244.75,34.8531,36.5017,146.175,97.2409,92.1395,,,,188.098,0.477604,0.0,0.0
982,245.25,34.9849,36.2539,146.53,97.2265,91.8344,,,,188.108,0.505686,0.0,0.0
984,245.75,34.9355,35.8803,150.442,97.2305,92.7949,,,,188.128,0.413837,0.0,0.0
985,246,34.9632,35.9618,145.628,97.2321,92.7302,,,,188.118,0.420165,0.0,0.0