File: 01_Data/Polyolefin_Carpet_LowPile/Cone/Polyolefin_Carpet_Low_Pile_Cone_HF25Scan_220406_R1.csv
Names,Time,Stack TC,Smoke TC,Exh Press,Smoke Comp,Smoke Meas,CO Meter,CO2 Meter,O2 Meter,Sample Mass,Ext Coeff,Start Test,Flame Verif
Chan Gain,,500,500,1,1,1,1,1,1,1,1,1.0,1.0
Offset,,0,0,0.132524,0,0,0,0,0,0,0,0.0,0.0
Gain,,1,1,25.011,13.2301,13.3727,1,1,1,1.0009,1.0066,1.0,1.0
Units,sec,C,C,Pa,%,%,%,%,%,g,/m,,
Baseline,,18.5234,19.0902,162.436,98.668,95.1083,0.00116674,0.0701335,20.9977,-833.663,0.324478,,
3,0.5,18.0509,17.9764,160.714,98.6906,95.4835,0.00111658,0.0830668,20.989,201.31,0.291706,0.0,0.0
6,1.25,17.8799,18.6824,162.676,98.6951,95.7818,0.00114333,0.0815339,20.9906,201.4,0.264559,0.0,0.0
9,2,17.8836,17.7133,160.49,98.6878,94.611,0.00118624,0.0802614,20.9917,200.89,0.372511,0.0,0.0
12,2.75,17.3402,17.8328,161.652,98.6918,95.4484,0.00124225,0.079015,20.9925,201.05,0.295061,0.0,0.0
15,3.5,17.3726,18.3378,165.836,98.6991,95.097,0.00129176,0.0781358,20.9931,201.13,0.328276,0.0,0.0
18,4.25,17.3571,18.1019,159.703,98.6983,95.2782,0.00132895,0.0775451,20.9935,201.03,0.311396,0.0,0.0
21,5,17.1157,17.8058,160.819,98.7064,95.3949,0.00135159,0.0775198,20.9932,201.15,0.301308,0.0,0.0
24,5.75,17.1769,17.9916,162.312,98.7039,94.8003,0.00135396,0.0779317,20.992,201.15,0.356302,0.0,0.0
27,6.5,17.627,18.0784,159.382,98.71,95.1317,0.00134577,0.0786725,20.9908,201.05,0.326031,0.0,0.0
30,7.25,17.547,18.0865,163.809,98.71,95.0187,0.00133558,0.0796519,20.99,201.11,0.336529,0.0,0.0
33,8,17.5527,17.9388,164.782,98.7052,95.4737,0.00127518,0.0803939,20.9893,201.09,0.293912,0.0,0.0
36,8.75,17.7918,18.1231,160.53,98.7092,95.4819,0.00120901,0.0809025,20.9889,201.08,0.293518,0.0,0.0
39,9.5,17.8678,18.3009,161.435,98.7116,95.3309,0.00112293,0.0811977,20.9885,201.11,0.307711,0.0,0.0
42,10.25,17.4801,18.1747,163.289,98.7169,94.9562,0.00103176,0.0813569,20.9883,201.1,0.342948,0.0,0.0
45,11,18.1521,18.1096,161.787,98.714,94.9399,0.000952538,0.081449,20.9881,201.09,0.344213,0.0,0.0
48,11.75,17.2758,18.0024,161.473,98.7245,95.2109,0.00089367,0.0815761,20.988,201.1,0.319986,0.0,0.0
51,12.5,17.418,17.9577,161.247,98.7322,94.7803,0.000870136,0.0817056,20.9883,201.1,0.360691,0.0,0.0
54,13.25,17.2328,17.8759,162.532,98.7342,95.1803,0.000881406,0.081863,20.9888,201.09,0.323692,0.0,0.0
57,14,17.3171,18.3644,159.948,98.731,95.5516,0.000901741,0.0818798,20.9891,201.09,0.289018,0.0,0.0
60,14.75,17.9439,18.187,163.495,98.7439,95.0305,0.000954914,0.0816822,20.9893,201.1,0.338463,0.0,0.0
63,15.5,17.3839,18.3612,161.21,98.7585,94.8999,0.00101003,0.0814666,20.9901,201.1,0.351906,0.0,0.0
66,16.25,17.763,18.1247,161.207,98.7677,94.5636,0.00109436,0.08101,20.9907,201.09,0.38408,0.0,0.0
69,17,17.8219,18.138,162.207,98.7657,95.0166,0.00115583,0.0804114,20.9914,201.08,0.341702,0.0,0.0
72,17.75,17.9816,18.018,161.525,98.7863,95.2088,0.00120065,0.0798618,20.9923,201.07,0.325698,0.0,0.0
75,18.5,17.9146,18.3051,168.173,98.7956,94.5314,0.00120153,0.0792552,20.9934,201.08,0.38958,0.0,0.0
78,19.25,17.6249,18.4577,159.25,98.7871,94.8628,0.00116505,0.0784608,20.9943,201.08,0.357924,0.0,0.0
81,20,17.6977,18.2357,165.494,98.7912,95.0056,0.00111026,0.0775231,20.9957,201.07,0.345,0.0,0.0
84,20.75,17.3957,18.2195,161.955,98.8101,94.5783,0.00104918,0.0765604,20.9967,201.06,0.386497,0.0,0.0
87,21.5,17.8902,19.0902,160.193,98.8142,94.5542,0.00100465,0.0756368,20.9974,201.08,0.389106,0.0,0.0
90,22.25,18.0452,18.4904,160.42,98.8206,94.762,0.000973957,0.0747877,20.9979,201.08,0.370307,0.0,0.0
93,23,18.2292,18.3158,162.758,98.8295,94.8138,0.000967651,0.0741269,20.9983,201.06,0.366272,0.0,0.0
96,23.75,17.9906,18.3112,166.304,98.8404,95.0354,0.000969905,0.0736274,20.9986,201.05,0.346634,0.0,0.0
99,24.5,17.5984,18.5892,158.416,98.844,95.5316,0.000999774,0.0734024,20.9988,201.05,0.30097,0.0,0.0
102,25.25,17.7167,17.855,163.188,98.8525,95.1452,0.00104259,0.0732752,20.9987,201.03,0.337521,0.0,0.0
105,26,17.9628,18.2561,156.687,98.861,95.0778,0.00109124,0.0732452,20.9982,201.04,0.34453,0.0,0.0
108,26.75,17.6487,18.3417,159.746,98.8772,94.8285,0.00114119,0.0732791,20.9979,201.02,0.36916,0.0,0.0
111,27.5,17.5847,18.6955,161.221,98.8828,94.746,0.00118114,0.073335,20.9976,201.02,0.377343,0.0,0.0
114,28.25,17.67,18.3401,159.092,98.884,94.5873,0.00121027,0.0733883,20.9974,201.03,0.392259,0.0,0.0
117,29,17.5668,18.5606,157.884,98.8969,94.9795,0.0012103,0.0731883,20.9973,201.02,0.356877,0.0,0.0
120,29.75,17.8742,18.28,162.657,98.9034,94.2302,0.00120414,0.0729171,20.9972,201.04,0.427387,0.0,0.0
123,30.5,17.3789,17.7908,160.284,98.9236,94.5049,0.00119766,0.0726658,20.9972,201.04,0.40349,0.0,0.0
126,31.25,17.8526,18.4058,163.981,98.9252,95.1211,0.00119405,0.072423,20.9971,201.04,0.346245,0.0,0.0
129,32,17.4441,18.3801,159.923,98.9284,94.4171,0.00119761,0.0722753,20.9971,201.05,0.412124,0.0,0.0
132,32.75,17.8792,18.0858,159.235,98.9208,94.9579,0.00120284,0.0722179,20.997,201.05,0.361014,0.0,0.0
135,33.5,17.9836,18.3924,164.426,98.9438,94.182,0.00122432,0.072355,20.997,201.05,0.435505,0.0,0.0
138,34.25,17.5765,18.0265,164.126,98.9688,94.3796,0.0012536,0.072455,20.9968,201.04,0.419239,0.0,0.0
141,35,17.7143,18.2811,160.873,98.9583,94.5591,0.00128076,0.0727667,20.9962,201.04,0.401519,0.0,0.0
144,35.75,18.037,18.2847,163.245,98.9551,94.2792,0.00132162,0.0731474,20.9953,201.04,0.427412,0.0,0.0
147,36.5,17.7633,18.7494,156.655,98.9595,94.5322,0.00137527,0.0736741,20.9939,201.03,0.404142,0.0,0.0
150,37.25,18.2592,18.4962,156.831,98.9866,93.8237,0.00142073,0.0743722,20.9915,201.04,0.47298,0.0,0.0
153,38,17.77,18.4523,160.143,98.9841,94.3424,0.00146448,0.0760701,20.9884,201.01,0.424084,0.0,0.0
156,38.75,18.1382,18.553,165.712,98.9841,94.5359,0.00150421,0.0778147,20.9838,201.27,0.405997,0.0,0.0
159,39.5,17.8657,18.4067,161.077,98.9963,94.7591,0.00154657,0.0833563,20.9742,201.01,0.386251,0.0,1.0
162,40.25,17.8705,18.2048,159.038,99.0051,94.8007,0.00159979,0.0905396,20.9641,201.03,0.383166,0.0,1.0
165,41,17.7687,17.9496,155.168,99.016,94.342,0.00166642,0.0971163,20.9516,200.93,0.426967,0.0,1.0
168,41.75,17.3867,18.3091,156.068,99.0035,93.9874,0.0017463,0.107482,20.9353,200.93,0.459104,0.0,1.0
171,42.5,18.082,18.6381,157.647,99.0064,93.1859,0.00180453,0.119445,20.9205,200.95,0.534979,0.0,1.0
174,43.25,18.1239,19.3025,152.086,99.0128,92.2693,0.00195522,0.13164,20.8977,200.89,0.622838,0.0,1.0
177,44,18.6343,19.1202,151.694,99.0209,90.8283,0.00213488,0.147006,20.8775,200.87,0.762545,0.0,1.0
180,44.75,18.176,18.8943,148.469,99.0213,89.797,0.00234162,0.158207,20.8568,200.86,0.863409,0.0,0.0
183,45.5,18.6141,18.7872,157.529,99.0282,88.3335,0.00257103,0.172813,20.8329,200.82,1.00911,0.0,0.0
186,46.25,18.8256,19.2354,151.572,99.0419,88.5388,0.0028422,0.185735,20.8075,200.8,0.989838,0.0,0.0
189,47,19.1782,19.5682,153.349,99.0427,85.6462,0.00321735,0.199045,20.7823,200.78,1.2832,0.0,0.0
192,47.75,19.48,19.6014,154.029,99.0463,85.4503,0.00354759,0.213529,20.7583,200.76,1.30375,0.0,0.0
195,48.5,19.0996,19.9538,147.841,99.0516,81.9745,0.00397712,0.227431,20.7333,200.73,1.67089,0.0,0.0
198,49.25,20.0182,20.3458,151.714,99.0705,82.3703,0.00439351,0.240729,20.715,200.679,1.63004,0.0,0.0
201,50,20.0732,20.5311,147.265,99.0714,80.7065,0.00487365,0.253397,20.6941,200.659,1.8103,0.0,0.0
204,50.75,20.171,20.694,151.96,99.0701,80.0009,0.00539666,0.265813,20.6761,200.609,1.88773,0.0,0.0
207,51.5,21.0595,21.0019,146.334,99.0621,77.8914,0.00592965,0.278025,20.6581,200.579,2.12296,0.0,0.0
210,52.25,20.9573,20.9634,147.599,99.0774,79.1638,0.00645153,0.290012,20.6397,200.509,1.98125,0.0,0.0
213,53,20.9398,21.5261,153.803,99.077,78.4387,0.00698198,0.300852,20.6199,200.449,2.06247,0.0,0.0
216,53.75,21.6349,21.8711,150.389,99.0863,74.4384,0.00743262,0.312346,20.5982,200.449,2.52549,0.0,0.0
219,54.5,22.0685,22.3819,145.049,99.0815,76.3369,0.00792626,0.326759,20.5716,200.409,2.30268,0.0,0.0
222,55.25,22.4591,22.7874,146.452,99.0976,76.0517,0.00842041,0.337267,20.5486,200.369,2.33718,0.0,0.0
225,56,23.176,23.7928,139.032,99.0915,74.4837,0.00878064,0.351149,20.5253,200.299,2.52058,0.0,0.0
228,56.75,23.0663,24.135,142.843,99.1045,74.2625,0.00924066,0.364556,20.5027,200.249,2.548,0.0,0.0
231,57.5,23.7741,24.593,145.365,99.1012,73.4369,0.0096772,0.3775,20.4809,200.239,2.64642,0.0,0.0
234,58.25,24.3139,24.8033,136.279,99.1073,73.2929,0.0100837,0.38996,20.4602,200.159,2.6643,0.0,0.0
237,59,24.5253,25.4025,143.765,99.1238,74.2899,0.0104574,0.402986,20.4363,200.109,2.54647,0.0,0.0
240,59.75,25.0961,26.2414,144.721,99.1279,70.5957,0.0108356,0.416155,20.4122,200.069,2.9972,0.0,0.0
243,60.5,25.2129,26.1962,141.942,99.1299,73.1039,0.011161,0.429162,20.3918,199.999,2.68911,0.0,0.0
246,61.25,26.1145,26.9512,135.532,99.1368,70.7218,0.0114193,0.442428,20.3769,199.939,2.98223,0.0,0.0
249,62,26.9182,27.6775,134.809,99.1485,71.3152,0.0116077,0.454868,20.3585,199.889,2.9095,0.0,0.0
252,62.75,27.9296,27.7715,135.026,99.157,67.659,0.0118587,0.465116,20.3441,199.839,3.37495,0.0,0.0
255,63.5,28.0402,29.1627,136.816,99.1598,71.3226,0.0120416,0.47673,20.3322,199.779,2.90959,0.0,0.0
258,64.25,28.3209,29.3659,141.437,99.1582,68.7417,0.0122983,0.485197,20.3186,199.719,3.23488,0.0,0.0
261,65,29.8744,30.4889,144.195,99.167,72.0816,0.0125222,0.495393,20.3038,199.649,2.81676,0.0,0.0
264,65.75,29.6689,31.237,139.226,99.1775,70.0313,0.0127079,0.504541,20.2882,199.599,3.0725,0.0,0.0
267,66.5,30.1834,31.8841,135.414,99.1775,71.0087,0.0128111,0.514354,20.2745,199.528,2.95011,0.0,0.0
270,67.25,31.1237,32.4049,127.309,99.1925,69.8032,0.0129278,0.522847,20.2563,199.458,3.10264,0.0,0.0
273,68,31.0864,32.514,136.705,99.2034,70.0419,0.0130169,0.532494,20.239,199.418,3.07346,0.0,0.0
276,68.75,31.5741,33.4922,133.007,99.2042,70.6631,0.0130938,0.541476,20.2214,199.338,2.99557,0.0,0.0
279,69.5,32.923,34.2978,133.77,99.1989,70.2774,0.0131664,0.54748,20.2047,199.278,3.04343,0.0,0.0
282,70.25,33.65,35.2467,137.741,99.205,69.0306,0.0132346,0.555484,20.1926,199.218,3.20202,0.0,0.0
285,71,33.8683,35.7604,135.575,99.2163,71.8776,0.0133102,0.562955,20.1812,199.128,2.84618,0.0,0.0
288,71.75,34.7999,36.383,131.268,99.2199,69.2706,0.0133904,0.568977,20.1727,199.088,3.17271,0.0,0.0
291,72.5,35.6093,37.1435,132.1,99.2353,70.5672,0.0134754,0.573612,20.166,199.028,3.01033,0.0,0.0
294,73.25,35.9587,38.116,131.37,99.2276,70.559,0.0135646,0.576991,20.1606,198.958,3.01067,0.0,0.0
297,74,36.7463,38.9482,135.338,99.2345,70.2239,0.0136573,0.579707,20.1557,198.898,3.05331,0.0,0.0
300,74.75,37.2378,39.2273,138.003,99.249,71.9988,0.0137401,0.582119,20.1505,198.818,2.83421,0.0,0.0
303,75.5,37.7683,40.0204,128.611,99.2591,70.3888,0.0138064,0.585443,20.1436,198.768,3.0348,0.0,0.0
306,76.25,38.49,40.7988,133.914,99.247,71.5201,0.0138247,0.588355,20.1381,198.698,2.89294,0.0,0.0
309,77,39.1466,41.4898,129.851,99.2563,71.6335,0.0138117,0.591312,20.1339,198.638,2.87977,0.0,0.0
312,77.75,39.5841,42.2846,138.631,99.2534,73.0562,0.0137572,0.593579,20.1308,198.568,2.70587,0.0,0.0
315,78.5,40.2014,42.9154,139.148,99.2765,73.9948,0.0136768,0.595192,20.1286,198.518,2.5952,0.0,0.0
318,79.25,40.5589,43.6463,130.272,99.2732,70.3807,0.0135856,0.596352,20.1269,198.457,3.03708,0.0,0.0
321,80,41.1246,44.2684,129.737,99.2668,72.1441,0.0134931,0.597059,20.1257,198.397,2.81799,0.0,0.0
324,80.75,41.9409,44.7119,132.339,99.2781,72.4493,0.0133826,0.59732,20.1253,198.307,2.78172,0.0,0.0
327,81.5,42.1046,45.2964,134.247,99.2825,72.7766,0.0132575,0.597076,20.1252,198.257,2.74231,0.0,0.0
330,82.25,42.8118,46.2419,132.342,99.2765,72.24,0.0131473,0.596567,20.1258,198.177,2.80713,0.0,0.0
333,83,43.4744,46.411,128.166,99.2849,71.6694,0.0129978,0.596157,20.1262,198.107,2.87789,0.0,0.0
336,83.75,43.6701,47.1763,128.063,99.295,72.5816,0.0128889,0.59569,20.1264,198.067,2.76712,0.0,0.0
339,84.5,44.4557,48.0664,126.886,99.3055,74.0785,0.0127815,0.595089,20.1267,197.987,2.5878,0.0,0.0
342,85.25,44.5259,48.601,127.752,99.2999,75.242,0.0127032,0.594296,20.1287,197.957,2.4497,0.0,0.0
345,86,45.4852,48.8626,132.956,99.2962,72.5852,0.0126405,0.593111,20.1311,197.907,2.76679,0.0,0.0
348,86.75,45.8687,49.3842,133.786,99.3059,72.7158,0.0125948,0.590795,20.1345,197.827,2.75178,0.0,0.0
351,87.5,45.5771,50.3643,129.111,99.3011,74.3058,0.0125636,0.589107,20.1389,197.767,2.56036,0.0,0.0
354,88.25,46.6308,50.5566,134.334,99.3092,75.5868,0.0125443,0.58654,20.1478,197.717,2.41014,0.0,0.0
357,89,47.4645,51.0381,134.144,99.2995,74.6388,0.0125284,0.582383,20.1547,197.607,2.52073,0.0,0.0
360,89.75,47.3468,51.6677,142.769,99.3176,75.2187,0.0125155,0.578432,20.16,197.577,2.454,0.0,0.0
363,90.5,48.2738,51.8012,133.638,99.3088,74.5413,0.0125037,0.575229,20.1645,197.517,2.5331,0.0,0.0
366,91.25,48.1386,52.3718,133.286,99.3245,73.4965,0.012482,0.572378,20.1691,197.477,2.65913,0.0,0.0
369,92,48.4692,53.1426,140.109,99.3253,72.1865,0.0124606,0.569653,20.1749,197.397,2.81801,0.0,0.0
372,92.75,49.5993,53.0752,132.861,99.3273,75.8815,0.0124096,0.565917,20.1809,197.336,2.37741,0.0,0.0
375,93.5,49.6125,53.4408,135.627,99.3273,74.8298,0.0123319,0.562649,20.1865,197.296,2.50064,0.0,0.0
378,94.25,49.5193,53.7946,138.723,99.3225,73.6814,0.012258,0.559337,20.1914,197.236,2.63677,0.0,0.0
381,95,49.4702,53.8167,133.571,99.3237,74.5417,0.0121111,0.55593,20.1976,197.186,2.53438,0.0,0.0
384,95.75,49.7008,54.3402,133.632,99.3524,75.2346,0.0119753,0.552375,20.2032,197.136,2.45522,0.0,0.0
387,96.5,50.2639,55.0988,134.295,99.3338,77.551,0.0118024,0.548675,20.2112,197.056,2.18581,0.0,0.0
390,97.25,50.6578,54.9345,134.055,99.3415,76.2373,0.0116342,0.544641,20.2195,196.996,2.33735,0.0,0.0
393,98,51.2052,56.045,133.27,99.3358,76.6507,0.0115115,0.54113,20.2255,196.946,2.2891,0.0,0.0
396,98.75,51.7366,55.8623,136.564,99.3217,76.028,0.0113277,0.537171,20.2312,196.866,2.35987,0.0,0.0
399,99.5,50.9165,55.8709,140.84,99.3394,76.3467,0.0111404,0.53353,20.2363,196.846,2.32451,0.0,0.0
402,100.25,51.8777,56.7259,145.039,99.3382,76.3957,0.0109567,0.530552,20.2416,196.796,2.31874,0.0,0.0
405,101,52.4528,57.2379,132.445,99.3403,76.7201,0.0107808,0.525998,20.2499,196.736,2.2815,0.0,0.0
408,101.75,52.3181,57.8054,133.688,99.3439,77.2911,0.0106083,0.521544,20.2608,196.696,2.21636,0.0,0.0
411,102.5,52.5679,57.731,141.043,99.3411,77.4412,0.0104631,0.51636,20.2709,196.646,2.19897,0.0,0.0
414,103.25,52.0079,58.0512,139.47,99.3512,78.3093,0.010349,0.511021,20.2813,196.576,2.10144,0.0,0.0
417,104,53.488,58.1588,140.063,99.3455,78.6998,0.0102456,0.505219,20.2912,196.536,2.05701,0.0,0.0
420,104.75,53.4066,57.9789,135.087,99.3403,78.4876,0.0101702,0.499609,20.2993,196.516,2.08039,0.0,0.0
423,105.5,53.0314,58.7567,137.968,99.3471,77.6004,0.0100857,0.494065,20.3088,196.476,2.18138,0.0,0.0
426,106.25,53.0627,58.5191,136.048,99.3427,77.9085,0.00999827,0.487528,20.3196,196.426,2.14599,0.0,0.0
429,107,53.3732,58.5798,137.643,99.3455,79.101,0.00990316,0.481699,20.3314,196.366,2.01212,0.0,0.0
432,107.75,53.5715,58.5378,137.888,99.3399,78.6407,0.00979899,0.473344,20.34,196.336,2.06315,0.0,0.0
435,108.5,53.7012,58.9982,138.703,99.3455,79.3442,0.00972304,0.467254,20.352,196.276,1.98501,0.0,0.0
438,109.25,53.6608,59.4961,141.179,99.3431,78.4595,0.00953354,0.45766,20.3676,196.205,2.08381,0.0,0.0
441,110,53.756,58.8395,139.587,99.3407,79.8613,0.0093521,0.448077,20.3819,196.175,1.92722,0.0,0.0
444,110.75,54.0707,59.249,142.558,99.331,80.8252,0.00904572,0.439987,20.404,196.145,1.82042,0.0,0.0
447,111.5,53.8502,59.0967,140.499,99.3382,80.7102,0.00887463,0.431827,20.4173,196.115,1.83365,0.0,0.0
450,112.25,53.563,58.9133,146.012,99.3322,81.0354,0.00867695,0.42201,20.4327,196.095,1.7976,0.0,0.0
453,113,53.796,58.8471,147.214,99.3294,80.7008,0.00840506,0.411488,20.4521,196.035,1.83389,0.0,0.0
456,113.75,53.8157,59.3638,145.632,99.3233,81.148,0.00814171,0.397444,20.4691,196.015,1.78455,0.0,0.0
459,114.5,53.7005,59.0166,146.456,99.3209,82.2781,0.0078951,0.391713,20.4862,195.965,1.66222,0.0,0.0
462,115.25,53.6597,59.1788,144.266,99.3189,81.7325,0.0076694,0.380382,20.5057,195.935,1.72079,0.0,0.0
465,116,53.4529,58.6696,149.382,99.3257,83.3212,0.00744119,0.37037,20.5232,195.895,1.55141,0.0,0.0
468,116.75,53.2774,58.6755,143.781,99.3148,83.209,0.00720953,0.360075,20.5415,195.885,1.56234,0.0,0.0
471,117.5,53.1143,58.7745,149.382,99.3116,83.1616,0.00697543,0.348313,20.5631,195.825,1.56708,0.0,0.0
474,118.25,53.4004,58.704,149.776,99.3314,84.6394,0.00668894,0.338317,20.5824,195.805,1.41331,0.0,0.0
477,119,53.0846,58.617,155.826,99.3108,84.5345,0.00642878,0.3286,20.5979,195.795,1.42243,0.0,0.0
480,119.75,52.9193,58.0578,147.263,99.2999,83.8472,0.00615139,0.317792,20.6162,195.765,1.49354,0.0,0.0
483,120.5,52.6113,57.683,152.339,99.2999,85.0589,0.00589611,0.307652,20.6317,195.755,1.36686,0.0,0.0
486,121.25,52.5933,57.9946,149.341,99.3096,84.2835,0.00566149,0.299297,20.6466,195.715,1.44858,0.0,0.0
489,122,52.3776,57.4454,147.328,99.2979,85.5805,0.00544616,0.289807,20.6624,195.685,1.3127,0.0,0.0
492,122.75,51.9729,57.1743,154.261,99.287,87.0374,0.00522087,0.281703,20.678,195.675,1.16268,0.0,0.0
495,123.5,51.8699,57.0774,149.14,99.2882,87.5769,0.00500127,0.273764,20.6927,195.645,1.10822,0.0,0.0
498,124.25,51.588,56.309,152.398,99.2898,87.5569,0.00478186,0.26546,20.7062,195.615,1.11038,0.0,0.0
501,125,51.1092,56.8798,154.579,99.2809,89.4713,0.00456084,0.257728,20.7192,195.595,0.91861,0.0,0.0
504,125.75,51.0287,56.4934,149.684,99.2862,88.7604,0.00439972,0.250546,20.7299,195.605,0.989516,0.0,0.0
507,126.5,50.7846,56.1147,154.163,99.2688,89.013,0.00404873,0.243889,20.7437,195.565,0.962878,0.0,0.0
510,127.25,50.292,55.6396,150.045,99.2639,89.0281,0.00389188,0.237331,20.7492,195.545,0.960949,0.0,0.0
513,128,50.5866,55.7639,155.786,99.2648,89.9851,0.00367263,0.231823,20.7595,195.535,0.866612,0.0,0.0
516,128.75,49.809,55.0741,151.718,99.2599,89.5684,0.00346292,0.22558,20.7701,195.535,0.907163,0.0,0.0
519,129.5,49.8128,54.6845,157.553,99.2385,91.0633,0.00328506,0.218901,20.7797,195.525,0.759107,0.0,0.0
522,130.25,49.3617,54.649,154.279,99.2466,90.9499,0.00313229,0.215262,20.7899,195.505,0.770832,0.0,0.0
525,131,48.6794,53.6297,149.353,99.2434,92.1828,0.00299959,0.209853,20.7984,195.485,0.651656,0.0,0.0
528,131.75,48.4714,53.5713,150.918,99.2401,92.7231,0.00287596,0.204726,20.8067,195.465,0.599764,0.0,0.0
531,132.5,48.5185,53.7493,155.046,99.2224,92.3452,0.00273984,0.199843,20.8126,195.465,0.634243,0.0,0.0
534,133.25,48.0837,53.2643,156.608,99.2329,93.1606,0.00260825,0.194641,20.818,195.445,0.557554,0.0,0.0
537,134,47.6623,52.7162,158.552,99.2284,93.1202,0.00249852,0.190849,20.824,195.425,0.56099,0.0,0.0
540,134.75,47.0189,52.4246,157.382,99.2111,92.9663,0.00242208,0.18603,20.8301,195.425,0.574046,0.0,0.0
543,135.5,47.4446,52.2599,154.931,99.2123,93.1944,0.00237618,0.181886,20.8365,195.425,0.552512,0.0,0.0
546,136.25,47.4558,51.9494,155.196,99.1973,93.4875,0.00235952,0.177784,20.8432,195.405,0.523464,0.0,0.0
549,137,47.1989,52.1923,157.475,99.1965,93.6078,0.00237047,0.17354,20.8502,195.405,0.512028,0.0,0.0
552,137.75,46.6829,51.3605,153.933,99.1973,94.1245,0.00237595,0.169911,20.8573,195.385,0.463499,0.0,0.0
555,138.5,45.9148,50.7146,155.333,99.188,93.5879,0.00237889,0.165669,20.864,195.385,0.513161,0.0,0.0
558,139.25,45.7645,51.2633,151.782,99.1771,93.9625,0.00234907,0.162043,20.8702,195.375,0.476914,0.0,0.0
561,140,45.794,50.7064,157.325,99.188,93.8376,0.00232733,0.158487,20.8753,195.375,0.489628,0.0,0.0
564,140.75,45.2184,50.2268,161.822,99.1816,93.5352,0.00226534,0.15474,20.8804,195.365,0.517554,0.0,0.0
567,141.5,45.2636,49.7609,156.953,99.1763,94.4408,0.00219653,0.151245,20.886,195.335,0.43201,0.0,0.0
570,142.25,44.4268,49.4636,159.597,99.1674,94.4281,0.00212714,0.14837,20.8911,195.325,0.432403,0.0,0.0
573,143,44.9322,49.2044,157.614,99.1618,94.1841,0.0020609,0.144982,20.8956,195.335,0.454748,0.0,0.0
576,143.75,44.4829,49.039,159.677,99.1614,94.2559,0.00200906,0.142082,20.9002,195.335,0.447982,0.0,0.0
579,144.5,43.8985,48.6326,161.357,99.1396,94.3563,0.00198494,0.139231,20.9049,195.315,0.43664,0.0,0.0
582,145.25,44.1357,48.1796,159.584,99.1351,94.4922,0.00197318,0.136356,20.9094,195.305,0.423536,0.0,0.0
585,146,43.7006,48.3081,158.397,99.1509,94.5249,0.00198411,0.133802,20.9134,195.295,0.421888,0.0,0.0
588,146.75,43.4699,48.1256,158.556,99.136,93.7103,0.00199208,0.131505,20.9163,195.275,0.496979,0.0,0.0
591,147.5,42.7734,47.5189,155.085,99.1206,94.6408,0.00200676,0.129419,20.919,195.285,0.408371,0.0,0.0
594,148.25,42.4231,47.5651,160.785,99.1029,94.3698,0.00201994,0.127313,20.9224,195.275,0.432107,0.0,0.0
597,149,42.2517,47.0124,159.592,99.0996,94.1796,0.00203127,0.125528,20.9254,195.275,0.44963,0.0,0.0
600,149.75,41.9394,46.2597,158.336,99.1033,94.4012,0.00204064,0.123394,20.9282,195.275,0.429204,0.0,0.0
603,150.5,41.7676,45.8232,159.348,99.0774,94.8877,0.00204925,0.121561,20.9311,195.275,0.381516,0.0,0.0
606,151.25,41.191,45.96,160.202,99.0641,94.7465,0.00205304,0.119751,20.9341,195.275,0.393478,0.0,0.0
609,152,41.1189,45.6391,160.368,99.0649,94.4845,0.00205343,0.117945,20.9364,195.255,0.418001,0.0,0.0
612,152.75,41.1753,45.556,159.339,99.0649,94.7138,0.00205148,0.116161,20.9394,195.265,0.396594,0.0,0.0
615,153.5,40.7406,44.8455,158.288,99.056,94.4743,0.00205333,0.114406,20.9416,195.255,0.418163,0.0,0.0
618,154.25,40.1849,44.7782,161.08,99.0504,94.4812,0.00206027,0.112693,20.9434,195.235,0.417011,0.0,0.0
621,155,40.0828,44.3605,159.834,99.0334,94.9277,0.00206861,0.110899,20.9451,195.245,0.373873,0.0,0.0
624,155.75,39.8325,44.154,157.882,99.0318,94.4673,0.00208028,0.109405,20.947,195.245,0.416652,0.0,0.0
627,156.5,39.7038,43.6562,157.798,99.0261,94.822,0.00209376,0.107997,20.9488,195.245,0.383062,0.0,0.0
630,157.25,39.6542,43.1642,157.245,99.0072,94.8611,0.0021031,0.106971,20.9503,195.225,0.377722,0.0,0.0
633,158,39.1434,42.9951,160.03,98.9975,94.198,0.00210542,0.105678,20.9521,195.225,0.438803,0.0,0.0
636,158.75,38.7143,42.866,159.445,98.995,94.8628,0.00208583,0.10455,20.9536,195.215,0.37649,0.0,0.0
639,159.5,38.4878,42.6461,158.63,98.9817,94.7363,0.0020554,0.10341,20.9553,195.205,0.387085,0.0,0.0
642,160.25,38.4316,42.559,161.402,98.9724,94.3175,0.00202632,0.102257,20.957,195.205,0.42537,0.0,0.0
645,161,37.9319,42.3211,155.232,98.9462,94.2159,0.00199394,0.101238,20.9584,195.205,0.432546,0.0,0.0
648,161.75,38.1409,41.7669,159.344,98.9523,94.7305,0.00196753,0.10019,20.9599,195.225,0.384989,0.0,0.0
651,162.5,37.6964,41.6258,160.024,98.9446,94.6579,0.00195163,0.0990048,20.9616,195.195,0.391077,0.0,0.0
654,163.25,37.5328,41.2618,162.559,98.9296,94.7163,0.00194998,0.0980143,20.9628,195.195,0.384301,0.0,0.0
657,164,37.1796,40.9736,161.299,98.9115,94.5738,0.00196047,0.0970768,20.9639,195.215,0.395968,0.0,0.0
660,164.75,36.788,40.5715,160.333,98.9272,94.7367,0.0019713,0.0960521,20.9651,195.175,0.382183,0.0,0.0
663,165.5,36.416,40.0058,159.687,98.8981,94.1616,0.00198806,0.0952014,20.966,195.125,0.433345,0.0,0.0
666,166.25,36.6097,40.2226,161.208,98.8816,94.5587,0.0020042,0.0944039,20.9669,195.155,0.394709,0.0,0.0
669,167,36.392,39.7703,159.928,98.8723,93.7976,0.00202269,0.0936621,20.968,195.155,0.46524,0.0,0.0
672,167.75,36.2707,39.4887,162.473,98.8574,93.8192,0.00204611,0.093065,20.9687,195.185,0.46187,0.0,0.0
675,168.5,35.5853,39.2626,157.94,98.8525,94.4028,0.00206743,0.0926058,20.9699,195.195,0.406683,0.0,0.0
678,169.25,35.7241,39.1537,155.644,98.8461,94.1094,0.00207055,0.0921307,20.9708,195.185,0.433593,0.0,0.0
681,170,35.2305,38.4099,161.642,98.8279,94.2143,0.00204921,0.0916955,20.9714,195.185,0.422135,0.0,0.0
684,170.75,34.7403,38.5995,160.615,98.8113,93.9396,0.00201246,0.0912265,20.9719,195.165,0.446435,0.0,0.0
687,171.5,34.8257,38.2579,160.007,98.8053,93.4691,0.00196667,0.0908181,20.9722,195.165,0.490233,0.0,0.0
690,172.25,34.6698,38.3487,156.857,98.7956,94.0992,0.00192707,0.0904065,20.9724,195.165,0.430041,0.0,0.0
693,173,34.6153,38.108,164.363,98.7891,94.7607,0.00189621,0.0901866,20.9726,195.165,0.367606,0.0,0.0
696,173.75,34.1966,38.0637,156.291,98.775,94.604,0.00187484,0.0900825,20.9728,195.175,0.380957,0.0,0.0
699,174.5,34.102,37.587,164.769,98.7694,94.7334,0.00186422,0.0901194,20.9726,195.175,0.368387,0.0,0.0
702,175.25,34.2299,37.688,157.57,98.7564,94.6832,0.00185598,0.090298,20.9721,195.165,0.371911,0.0,0.0
705,176,34.0199,37.1757,158.302,98.7492,94.4436,0.00184551,0.0906889,20.9718,195.165,0.39363,0.0,0.0
708,176.75,33.2846,37.0394,159.781,98.7193,93.9221,0.0018266,0.0910628,20.9715,195.165,0.439854,0.0,0.0
711,177.5,33.7919,37.0677,157.254,98.7358,94.362,0.00180802,0.0914872,20.9713,195.155,0.400072,0.0,0.0
714,178.25,32.8565,36.0698,160.658,98.7132,94.5436,0.00179186,0.0918951,20.9711,195.165,0.381073,0.0,0.0
717,179,33.4358,36.2856,159.552,98.6991,94.4257,0.0017756,0.0922344,20.9709,195.155,0.39083,0.0,0.0
720,179.75,32.8891,36.3947,160.037,98.67,94.0845,0.00177615,0.0926638,20.9707,195.145,0.42019,0.0,0.0
723,180.5,32.8651,36.1438,159.607,98.6745,93.838,0.00178028,0.0929767,20.9705,195.155,0.443751,0.0,0.0
726,181.25,32.3988,35.9614,159.779,98.6624,94.4257,0.00178487,0.093466,20.9704,195.155,0.387543,0.0,0.0
729,182,32.5454,35.6935,158.765,98.6511,94.1584,0.00178574,0.0937781,20.9703,195.145,0.411563,0.0,0.0
732,182.75,32.226,35.3376,157.35,98.6292,93.8556,0.00178139,0.0939297,20.9703,195.145,0.438053,0.0,0.0
735,183.5,32.3229,35.4313,165.403,98.6284,94.0009,0.00177151,0.0936186,20.9715,195.145,0.424323,0.0,0.0
738,184.25,31.8962,35.1763,158.577,98.6115,93.714,0.00173953,0.0931106,20.9728,195.135,0.449796,0.0,0.0
741,185,31.7258,35.0633,153.86,98.5913,93.6189,0.00169885,0.0922594,20.9744,195.135,0.456952,0.0,0.0
744,185.75,31.5044,34.8455,159.211,98.5723,93.4532,0.00165461,0.0907576,20.9764,195.125,0.470893,0.0,0.0
747,186.5,31.6777,35.0154,157.198,98.5618,93.03,0.00161008,0.0891159,20.9783,195.125,0.51003,0.0,0.0
750,187.25,30.9442,34.341,161.046,98.557,93.2863,0.0015616,0.0874206,20.9801,195.125,0.485304,0.0,0.0
753,188,30.68,33.5928,166.283,98.5372,93.9417,0.00151943,0.0857309,20.9818,195.145,0.421711,0.0,0.0
756,188.75,30.3456,33.442,156.297,98.5138,92.9781,0.00145864,0.0838805,20.9838,195.135,0.510645,0.0,0.0
759,189.5,30.2191,33.3053,160.474,98.5045,93.6674,0.00140586,0.0823104,20.9856,195.115,0.444595,0.0,0.0
762,190.25,30.1761,33.1875,158.303,98.5037,93.8976,0.00135289,0.0807877,20.9868,195.125,0.422852,0.0,0.0
765,191,29.8052,32.9106,160.969,98.4795,93.2083,0.00130015,0.0793424,20.9882,195.125,0.485737,0.0,0.0
768,191.75,29.3914,32.3031,158.488,98.4722,93.685,0.00126418,0.0781459,20.9896,195.125,0.440044,0.0,0.0
771,192.5,29.9072,32.5343,159.726,98.4669,93.1255,0.00124488,0.0769949,20.9911,195.125,0.492466,0.0,0.0
774,193.25,29.6465,32.6039,161.451,98.4589,93.9874,0.00124083,0.0760722,20.9921,195.125,0.410395,0.0,0.0
777,194,29.6902,31.9701,158.825,98.4468,93.4532,0.00125201,0.075305,20.9933,195.115,0.459638,0.0,0.0
780,194.75,29.5783,31.8598,162.847,98.4318,93.3128,0.00126016,0.0746454,20.9944,195.115,0.471572,0.0,0.0
783,195.5,29.2708,31.6505,159.926,98.4189,92.983,0.00128377,0.0740053,20.9952,195.115,0.501671,0.0,0.0
786,196.25,29.6919,32.0138,160.513,98.4165,93.1214,0.00129975,0.0734132,20.9957,195.115,0.488325,0.0,0.0
789,197,28.3623,30.8253,163.231,98.4076,93.6984,0.00131086,0.0729281,20.9961,195.115,0.432981,0.0,0.0
792,197.75,28.5842,30.9566,158.146,98.383,94.1237,0.00129233,0.0723955,20.9964,195.115,0.390789,0.0,0.0
795,198.5,28.6154,30.9125,159.833,98.3539,94.1506,0.00125283,0.0718972,20.997,195.115,0.385653,0.0,0.0
798,199.25,28.1767,31.1908,160.1,98.3519,93.7609,0.00121295,0.0713458,20.9979,195.104,0.422098,0.0,0.0
801,200,29.2243,31.0535,160.466,98.3268,93.5654,0.00116447,0.0709168,20.9986,195.104,0.438279,0.0,0.0
804,200.75,28.3975,30.8709,160.65,98.3071,93.332,0.00112912,0.0705779,20.9991,195.104,0.458559,0.0,0.0
807,201.5,27.5944,30.0143,160.819,98.2844,93.6785,0.00115102,0.0703057,20.9999,195.104,0.423809,0.0,0.0
810,202.25,27.6175,30.2607,160.348,98.28,94.0172,0.00116698,0.0699682,21.0007,195.094,0.391541,0.0,0.0
813,203,27.8173,30.3927,161.942,98.2626,93.896,0.00122101,0.0697222,21.0013,195.094,0.401372,0.0,0.0
816,203.75,27.8626,30.3596,158.672,98.2396,93.9584,0.00126907,0.0694769,21.0017,195.094,0.393434,0.0,0.0
819,204.5,27.1276,30.1793,162.193,98.2279,93.5825,0.0013052,0.0691853,21.002,195.094,0.427774,0.0,0.0
822,205.25,27.8479,30.1527,159.345,98.2227,93.5185,0.00132707,0.0689131,21.0022,195.084,0.433351,0.0,0.0
825,206,27.8692,30.0659,163.432,98.2025,93.4364,0.00134054,0.0687147,21.0024,195.084,0.439283,0.0,0.0
828,206.75,27.4103,29.3315,165.663,98.1948,93.5842,0.0013493,0.06857,21.0025,195.084,0.424644,0.0,0.0
831,207.5,26.982,28.8051,158.136,98.1867,93.5434,0.00135569,0.0683393,21.0026,195.074,0.427769,0.0,0.0
834,208.25,26.9761,29.561,160.245,98.154,93.4381,0.00135695,0.068081,21.0026,195.074,0.434771,0.0,0.0
837,209,26.8327,29.5727,159.72,98.1641,93.1055,0.00135759,0.0678301,21.0027,195.074,0.467167,0.0,0.0
840,209.75,27.03,29.0812,160.244,98.1456,93.5291,0.00135833,0.0677664,21.0025,195.074,0.425413,0.0,0.0
843,210.5,26.9416,28.8666,164.33,98.1322,93.5785,0.00135627,0.0677469,21.0024,195.064,0.419554,0.0,0.0
846,211.25,26.9941,28.7852,159.658,98.1161,93.8384,0.0013503,0.0677442,21.0022,195.074,0.393605,0.0,0.0
849,212,26.7187,28.6725,161.054,98.1145,93.8723,0.00133232,0.0676594,21.0022,195.074,0.390273,0.0,0.0
852,212.75,26.9311,28.8426,158.221,98.0955,92.9937,0.00129113,0.0675613,21.0021,195.074,0.471601,0.0,0.0
855,213.5,26.6596,28.7716,161.582,98.0947,93.7948,0.00124118,0.0674481,21.002,195.074,0.395788,0.0,0.0
858,214.25,26.2913,28.1453,154.724,98.068,93.1936,0.00118694,0.0673697,21.002,195.064,0.450162,0.0,0.0
861,215,26.3453,28.5362,163.099,98.0725,93.916,0.00113859,0.0673502,21.002,195.064,0.382387,0.0,0.0
864,215.75,26.1647,28.0174,166.27,98.0676,94.1669,0.00110334,0.0672962,21.002,195.054,0.358385,0.0,0.0
867,216.5,26.7212,28.2676,159.674,98.0656,93.7176,0.0010847,0.0672429,21.0024,195.064,0.400435,0.0,0.0
870,217.25,25.9963,27.8403,161.036,98.0329,93.3716,0.00107234,0.0672121,21.0029,195.074,0.430156,0.0,0.0
873,218,26.4029,28.2778,162.744,98.043,93.4879,0.00106386,0.0671956,21.0033,195.074,0.420074,0.0,0.0
876,218.75,25.7415,28.0421,156.961,98.0277,94.2065,0.00104534,0.0672113,21.0035,195.074,0.351074,0.0,0.0
879,219.5,25.5161,27.6364,162.395,98.0059,93.5226,0.00101823,0.0672274,21.0037,195.074,0.413452,0.0,0.0
882,220.25,25.5597,27.8381,162.151,97.9921,93.6511,0.000992668,0.0672265,21.0039,195.064,0.400087,0.0,0.0
885,221,25.4996,27.3896,159.579,97.9816,94.0217,0.000968745,0.0671842,21.004,195.064,0.364272,0.0,0.0
888,221.75,25.4888,27.6559,161.166,97.978,93.2255,0.000952541,0.0671355,21.0041,195.074,0.439037,0.0,0.0
891,222.5,25.1654,27.3256,156.721,97.9804,93.6344,0.000941255,0.0671,21.0041,195.074,0.400609,0.0,0.0
894,223.25,25.1118,26.8006,158.626,97.9505,93.92,0.000931792,0.067088,21.0042,195.074,0.371018,0.0,0.0
897,224,25.5939,27.6599,159.227,97.9461,93.5564,0.000924366,0.0670853,21.0042,195.064,0.40487,0.0,0.0
900,224.75,24.9809,26.6111,160.666,97.9437,93.8086,0.000915245,0.0671428,21.0042,195.064,0.38088,0.0,0.0
903,225.5,25.277,26.851,159.565,97.9271,93.3793,0.000905063,0.0671708,21.0042,195.074,0.419891,0.0,0.0
906,226.25,24.9925,27.1198,162.977,97.9134,93.3112,0.000894304,0.0671853,21.0041,195.064,0.4251,0.0,0.0
909,227,24.8917,27.084,161.47,97.8928,93.0353,0.000889986,0.0671666,21.0041,195.064,0.449387,0.0,0.0
912,227.75,24.6729,26.733,159.052,97.8815,93.2736,0.000894254,0.0671028,21.0041,195.064,0.425776,0.0,0.0
915,228.5,25.2803,26.7353,161.026,97.865,94.0829,0.000900527,0.0670424,21.0041,195.054,0.348004,0.0,0.0
918,229.25,24.539,26.0477,160.335,97.8561,93.4793,0.000936847,0.0670071,21.0041,195.064,0.404032,0.0,0.0
921,230,24.9228,26.2879,161.358,97.848,93.0341,0.000963324,0.0670064,21.0041,195.054,0.445459,0.0,0.0
924,230.75,24.4364,26.1594,160.08,97.85,93.0463,0.00101969,0.0670853,21.0041,195.054,0.44448,0.0,0.0
927,231.5,24.6836,26.3505,163.477,97.8306,93.4687,0.00106534,0.0671289,21.0041,195.044,0.402739,0.0,0.0
930,232.25,23.6057,25.0743,161.477,97.8088,93.7678,0.00110642,0.0671548,21.0041,195.054,0.372557,0.0,0.0
933,233,24.7466,25.9234,162.226,97.8104,94.0176,0.00113813,0.067114,21.0041,195.054,0.349215,0.0,0.0
936,233.75,24.4345,25.9842,160.883,97.806,93.2593,0.00115506,0.0670844,21.0041,195.054,0.420315,0.0,0.0
939,234.5,24.0756,26.054,163.105,97.8008,93.7486,0.00115629,0.0670032,21.0041,195.044,0.373634,0.0,0.0
942,235.25,23.7834,25.1423,159.421,97.7648,93.3997,0.00114271,0.0669718,21.0041,195.044,0.403315,0.0,0.0
945,236,23.6428,25.1339,158.946,97.7487,93.3263,0.00109399,0.0669682,21.0041,195.044,0.408803,0.0,0.0
948,236.75,23.6808,25.3273,162.376,97.7479,93.0271,0.00105848,0.066978,21.0041,195.044,0.437078,0.0,0.0
951,237.5,24.4105,25.6133,161.364,97.7362,93.8854,0.000990284,0.0669654,21.0041,195.054,0.354933,0.0,0.0
954,238.25,23.779,25.4639,163.259,97.7301,93.0806,0.000928234,0.0669701,21.0041,195.054,0.4304,0.0,0.0
957,239,24.0592,25.4842,160.466,97.7075,93.4336,0.000881049,0.0669794,21.0041,195.054,0.394933,0.0,0.0
960,239.75,23.9431,24.9307,160.335,97.7131,94.0674,0.000843316,0.0669862,21.0041,195.054,0.335751,0.0,0.0
963,240.5,23.3664,24.8218,163.222,97.7014,93.1573,0.000808763,0.0669838,21.0041,195.054,0.420535,0.0,0.0
966,241.25,24.06,25.411,159.125,97.6849,93.0859,0.000774931,0.0669696,21.0041,195.044,0.42581,0.0,0.0
969,242,23.6527,25.024,160.174,97.6627,93.6168,0.000737487,0.0669592,21.0041,195.044,0.373582,0.0,0.0
972,242.75,23.2039,25.1809,160.98,97.6554,93.2361,0.000694639,0.0669517,21.0041,195.034,0.408911,0.0,0.0
975,243.5,24.4815,24.483,161.155,97.6498,93.2328,0.000658208,0.0669388,21.0041,195.034,0.40871,0.0,0.0
978,244.25,22.6678,23.9249,162.257,97.6308,93.4173,0.000633359,0.0669169,21.0041,195.024,0.38954,0.0,0.0
981,245,23.2751,25.0363,157.413,97.611,93.4793,0.000616989,0.066901,21.0041,195.024,0.38189,0.0,0.0
984,245.75,23.7569,24.6299,166.182,97.611,93.6703,0.000641182,0.0668747,21.0041,195.014,0.363867,0.0,0.0
987,246.5,23.6501,24.6335,162.801,97.6049,93.4193,0.000671976,0.0668305,21.0041,195.024,0.387011,0.0,0.0
990,247.25,23.749,24.8319,163.058,97.5948,93.1679,0.000719795,0.0668006,21.0041,195.024,0.40989,0.0,0.0
993,248,23.6499,24.7631,159.872,97.5823,92.772,0.000807153,0.0667566,21.0047,195.014,0.446356,0.0,0.0
996,248.75,23.226,24.5797,164.967,97.573,93.8148,0.000862729,0.0666849,21.0051,195.014,0.346827,0.0,0.0
999,249.5,23.6893,24.4899,159.42,97.5678,93.2532,0.00092824,0.0666326,21.0054,195.004,0.399364,0.0,0.0
1002,250.25,23.5348,24.2283,164.282,97.565,92.9524,0.000978225,0.066654,21.0057,195.004,0.427633,0.0,0.0
1005,251,23.1074,24.7209,161.064,97.5436,93.4622,0.00100229,0.0666696,21.0059,195.014,0.377408,0.0,0.0
1008,251.75,23.1526,24.1455,164.021,97.5371,93.1646,0.00101456,0.0666776,21.006,195.024,0.404975,0.0,0.0
1011,252.5,23.3843,24.771,159.152,97.5399,92.9149,0.00101645,0.066667,21.0062,195.024,0.428934,0.0,0.0
1014,253.25,22.8971,23.6484,157.411,97.5282,93.2418,0.00102154,0.0666226,21.0062,195.034,0.396864,0.0,0.0
1017,254,23.472,23.9677,160.408,97.5161,93.0667,0.00102943,0.0665277,21.0063,195.024,0.412361,0.0,0.0
1020,254.75,22.8284,24.1917,162.15,97.508,93.5487,0.00103964,0.0664724,21.0063,195.024,0.366021,0.0,0.0
1023,255.5,23.5036,24.3058,160.221,97.5088,93.2022,0.00104002,0.0664453,21.0064,195.024,0.398858,0.0,0.0
1026,256.25,22.5672,23.7873,166.243,97.4927,93.4666,0.00102917,0.0664381,21.0064,195.014,0.372377,0.0,0.0
1029,257,22.8423,23.5816,160.07,97.4887,93.3295,0.00101652,0.0664328,21.0064,195.014,0.384976,0.0,0.0
1032,257.75,22.847,23.97,169.593,97.477,93.1944,0.00100853,0.0664151,21.0064,195.014,0.396704,0.0,0.0
1035,258.5,22.4127,23.71,160.905,97.4858,93.3875,0.00101104,0.0663962,21.0064,195.014,0.379238,0.0,0.0
1038,259.25,22.7719,23.9419,158.652,97.477,93.8641,0.00102624,0.0663626,21.0064,195.014,0.33348,0.0,0.0
1041,260,22.7916,23.4493,163.603,97.4765,92.841,0.00106321,0.0663162,21.0064,195.004,0.430216,0.0,0.0
1044,260.75,22.7088,23.8592,161.696,97.4616,92.9688,0.00110967,0.0662447,21.0064,195.014,0.416723,0.0,0.0
1047,261.5,22.3156,23.0325,159.076,97.4713,93.483,0.00115803,0.0662205,21.0067,195.004,0.368897,0.0,0.0
1050,262.25,22.5449,23.8647,159.862,97.4806,93.2181,0.00120035,0.0662224,21.0068,195.004,0.394791,0.0,0.0
1053,263,22.5074,23.868,162.744,97.4547,93.5042,0.00122338,0.066237,21.007,195.004,0.365394,0.0,0.0
1056,263.75,22.1836,23.7818,164.309,97.4665,93.6625,0.00122679,0.0662676,21.0071,194.994,0.351514,0.0,0.0
1059,264.5,22.6398,23.6452,161.541,97.437,92.9088,0.00122341,0.0662825,21.0071,195.004,0.42019,0.0,0.0
1062,265.25,22.6039,23.4023,159.954,97.4483,92.9973,0.00121092,0.0662808,21.0072,195.004,0.412802,0.0,0.0
1065,266,22.0718,23.3921,154.852,97.4446,92.9443,0.00119829,0.0662796,21.0072,194.994,0.417511,0.0,0.0
1068,266.75,22.7077,23.2913,157.841,97.4297,93.2414,0.00117423,0.0662861,21.0072,195.004,0.387979,0.0,0.0
1071,267.5,22.2624,23.2212,159.763,97.4386,93.4577,0.00113668,0.0663033,21.0072,194.994,0.368324,0.0,0.0
1074,268.25,21.807,23.5327,156.448,97.4305,93.8131,0.00108594,0.0663437,21.0073,194.994,0.334073,0.0,0.0
1077,269,21.7552,22.7684,160.342,97.4305,93.1218,0.00101064,0.0663777,21.0073,194.994,0.399383,0.0,0.0
1080,269.75,21.553,22.5875,157.583,97.4188,93.352,0.000939411,0.0663899,21.0073,194.984,0.376523,0.0,0.0
1083,270.5,22.516,22.9546,163.616,97.4224,92.7692,0.000861502,0.0663849,21.0073,194.994,0.432147,0.0,0.0
1086,271.25,21.6625,22.9812,160.795,97.4204,92.7292,0.00076027,0.0663827,21.0074,195.004,0.435772,0.0,0.0
1089,272,22.5,23.3014,160.463,97.4204,93.6091,0.000676606,0.0663936,21.0075,194.994,0.352385,0.0,0.0
1092,272.75,22.2246,22.6769,162.015,97.4136,93.3348,0.000611408,0.0664015,21.0076,194.994,0.377669,0.0,0.0
1095,273.5,21.5713,22.8211,162.54,97.4019,93.5446,0.000576194,0.0664073,21.0076,194.994,0.356786,0.0,0.0
1098,274.25,22.2153,23.0789,160.593,97.4241,92.9528,0.000557016,0.0664115,21.0077,194.974,0.414832,0.0,0.0
1101,275,21.5248,21.9212,158.939,97.4208,93.3736,0.000561931,0.0664146,21.0077,194.974,0.374661,0.0,0.0
1104,275.75,21.2796,22.4657,161.78,97.4128,93.2499,0.000578842,0.0663751,21.0077,194.984,0.385631,0.0,0.0
1107,276.5,21.8193,22.6757,159.382,97.4071,93.2267,0.000615825,0.0663285,21.0077,194.984,0.38732,0.0,0.0
1110,277.25,22.1049,22.8023,163.652,97.4305,93.4483,0.000663784,0.0662747,21.0077,194.984,0.368479,0.0,0.0
1113,278,22.0759,22.8187,162.406,97.4216,93.4352,0.000707699,0.0662633,21.0077,194.984,0.368909,0.0,0.0
1116,278.75,22.2226,22.386,161.648,97.4289,92.5892,0.000774973,0.0662595,21.0077,194.984,0.44988,0.0,0.0
1119,279.5,21.0604,22.2483,157.598,97.4148,93.6005,0.000826489,0.0662443,21.0077,194.984,0.352681,0.0,0.0
1122,280.25,21.9636,22.7004,160.49,97.42,93.2079,0.000865098,0.0661935,21.0077,194.984,0.390269,0.0,0.0
1125,281,22.187,22.5592,157.261,97.4261,92.9022,0.000878504,0.0661842,21.0077,194.984,0.419823,0.0,0.0
1128,281.75,22.2739,22.4449,159.068,97.4241,93.7058,0.00087614,0.0661894,21.0077,194.984,0.343595,0.0,0.0
1131,282.5,21.6966,22.2157,160.99,97.4253,93.443,0.000864405,0.066213,21.0075,194.974,0.368506,0.0,0.0
1134,283.25,21.193,21.8604,158.087,97.4269,93.5748,0.000841754,0.0662163,21.0073,194.974,0.356205,0.0,0.0
1137,284,21.6905,22.1158,162.544,97.4479,93.3152,0.00081289,0.0662127,21.0072,194.984,0.382632,0.0,0.0
1140,284.75,21.9943,22.0942,156.629,97.4362,93.0777,0.000786583,0.0661693,21.0071,194.984,0.404075,0.0,0.0
1143,285.5,21.7736,22.5106,159.629,97.4434,93.2606,0.000756292,0.0661516,21.0071,194.974,0.387406,0.0,0.0
1146,286.25,21.8238,22.4261,163.671,97.4576,93.656,0.000732722,0.0661373,21.007,194.974,0.351325,0.0,0.0
1149,287,21.5764,22.8369,161.007,97.4572,93.2826,0.000721096,0.0661143,21.007,194.974,0.386564,0.0,0.0
1152,287.75,21.5022,22.1652,161.342,97.464,93.4034,0.00072744,0.0660903,21.007,194.974,0.375758,0.0,0.0
1155,288.5,22.2661,22.4385,157.585,97.4604,93.8172,0.000759388,0.0660602,21.0069,194.964,0.336396,0.0,0.0
1158,289.25,21.8309,22.6934,161.315,97.4644,93.5364,0.000791632,0.0660383,21.0069,194.964,0.363227,0.0,0.0
1161,290,20.99,22.2542,159.503,97.4761,93.1504,0.000843351,0.0660077,21.0074,194.954,0.400808,0.0,0.0
1164,290.75,21.5166,22.57,156.857,97.4854,93.1904,0.000904556,0.0659604,21.0079,194.964,0.397858,0.0,0.0
1167,291.5,21.5457,22.4841,160.01,97.5105,93.3593,0.000959194,0.0660052,21.0082,194.964,0.384132,0.0,0.0
1170,292.25,21.3706,22.4346,159.339,97.4951,93.5173,0.000999025,0.0660796,21.0085,194.964,0.367817,0.0,0.0
1173,293,21.5861,22.4851,160.854,97.5117,93.1226,0.00102352,0.0661517,21.0087,194.974,0.406656,0.0,0.0
1176,293.75,21.2337,22.4189,166.871,97.5193,92.9124,0.00102015,0.0662042,21.0089,194.974,0.427303,0.0,0.0
1179,294.5,21.7358,22.2821,156.872,97.527,93.305,0.00100288,0.0661868,21.0092,194.964,0.390766,0.0,0.0
1182,295.25,21.6051,22.3421,158.706,97.5258,93.132,0.000953278,0.0661505,21.0093,194.974,0.407046,0.0,0.0
1185,296,21.3636,22.057,158.55,97.5403,93.3259,,0.0661239,,194.954,0.390002,0.0,0.0
1188,296.75,21.5077,22.5655,159.802,97.5512,93.3977,,0.0661244,,194.964,0.384197,0.0,0.0
1191,297.5,21.2403,22.1183,163.321,97.5529,93.3809,,0.0661526,,194.964,0.385925,0.0,0.0
1194,298.25,20.8254,21.5751,165.588,97.565,93.7527,,0.066185,,194.964,0.351936,0.0,0.0
1197,299,21.2439,22.2642,159.911,97.5678,93.0324,,,,194.954,0.420293,0.0,0.0
1200,299.75,20.995,21.9776,161.596,97.5775,93.3067,,,,194.954,0.39518,0.0,0.0
1203,300.5,21.2952,21.6496,162.341,97.5722,93.6368,,,,194.954,0.363516,0.0,0.0
1206,301.25,21.4459,22.003,161.947,97.5888,93.7784,,,,194.954,0.351671,0.0,0.0
1209,302,21.2085,21.6809,160.934,97.6005,93.2687,,,,194.954,0.400853,0.0,0.0
1212,302.75,21.772,21.8628,159.152,97.6102,93.3691,,,,194.954,0.392231,0.0,0.0
1215,303.5,21.2189,21.7837,161.045,97.6199,93.9303,,,,194.944,0.340199,0.0,0.0
1218,304.25,21.5297,21.7734,164.407,97.6259,93.4111,,,,194.944,0.389681,0.0,0.0
1221,305,21.1825,21.7443,156.243,97.628,92.9728,,,,194.964,0.431392,0.0,0.0
1224,305.75,21.8534,21.8852,159.874,97.6453,93.7927,,,,194.954,0.355438,0.0,0.0
1226,306.25,21.7948,21.7752,159.023,97.6498,94.3192,,,,194.954,0.306418,0.0,0.0