File: 01_Data/Polyolefin_Carpet_LowPile/Cone/Polyolefin_Carpet_Low_Pile_Cone_HF50Scan_220411_R2.csv
Names,Time,Stack TC,Smoke TC,Exh Press,Smoke Comp,Smoke Meas,CO Meter,CO2 Meter,O2 Meter,Sample Mass,Ext Coeff,Start Test,Flame Verif
Chan Gain,,500,500,1,1,1,1,1,1,1,1,1.0,1.0
Offset,,0,0,0.133936,0,0,0,0,0,0,0,0.0,0.0
Gain,,1,1,25.011,13.0656,13.5076,1,1,1,1.00089,1.01037,1.0,1.0
Units,sec,C,C,Pa,%,%,%,%,%,g,/m,,
Baseline,,30.6088,31.6027,148.505,98.4192,95.4949,0.000996698,0.0536386,21.005,-835.199,0.267397,,
4,0.75,29.5984,30.5383,148.786,98.5387,95.7983,0.000957203,0.0570819,21.002,198.067,0.249976,0.0,0.0
8,1.75,29.478,30.1276,148.888,98.5336,96.1067,0.000993756,0.0563521,21.0027,198.097,0.221029,0.0,0.0
12,2.75,28.6589,30.2171,149.272,98.5423,95.1454,0.00100383,0.0557021,21.0033,198.147,0.310915,0.0,0.0
16,3.75,28.7828,29.6973,144.925,98.5355,94.8828,0.00100163,0.0552054,21.0038,198.157,0.334798,0.0,0.0
20,4.75,29.2307,29.542,146.341,98.5391,95.652,0.000976101,0.0547933,21.0042,198.187,0.263562,0.0,0.0
24,5.75,29.1242,29.8672,146.14,98.5363,95.2587,0.000974675,0.0544984,21.0045,198.187,0.299824,0.0,0.0
28,6.75,29.0574,30.3127,145.73,98.5196,95.2521,0.00102526,0.0543049,21.0034,198.157,0.29893,0.0,0.0
32,7.75,28.8643,30.1291,147.527,98.5383,94.7748,0.00108798,0.0542852,21.0017,198.167,0.345144,0.0,0.0
36,8.75,29.0764,30.0312,146.057,98.5164,93.9689,0.00118614,0.0552811,20.9957,198.137,0.418857,0.0,0.0
40,9.75,29.1832,30.2058,152.009,98.5244,93.2187,0.00132956,0.0597883,20.9824,198.087,0.490618,0.0,1.0
44,10.75,29.0164,29.9367,146.356,98.5112,94.0225,0.00150506,0.0713913,20.9658,198.057,0.413337,0.0,0.0
48,11.75,29.2044,30.4058,143.613,98.5029,94.412,0.00168613,0.091288,20.942,197.997,0.37594,0.0,1.0
52,12.75,29.4851,30.2923,141.723,98.5001,91.4197,0.00205635,0.110346,20.9108,198.027,0.661138,0.0,1.0
56,13.75,29.5813,30.486,146.775,98.4961,89.7795,0.00260266,0.138958,20.8686,198.007,0.821238,0.0,1.0
60,14.75,29.9853,31.0309,135.474,98.4841,84.2793,0.00331494,0.173807,20.8087,197.937,1.38048,0.0,1.0
64,15.75,30.6901,31.3239,133.815,98.4765,79.6113,0.00418509,0.211102,20.7345,197.877,1.88481,0.0,1.0
68,16.75,30.0718,31.4317,132.346,98.4706,78.0692,0.00518151,0.25102,20.6622,197.786,2.05763,0.0,1.0
72,17.75,31.4622,32.1747,132.432,98.4542,75.4141,0.00618874,0.289213,20.6053,197.726,2.36283,0.0,1.0
76,18.75,31.7123,32.9178,129.493,98.4315,73.4961,0.00765527,0.32448,20.537,197.646,2.58912,0.0,1.0
80,19.75,32.7218,33.6088,125.195,98.4311,72.9552,0.00855758,0.355293,20.5032,197.566,2.65454,0.0,1.0
84,20.75,33.1402,33.9546,127.928,98.4243,69.5701,0.00950846,0.383855,20.4583,197.526,3.07502,0.0,0.0
88,21.75,34.5918,35.4308,127.917,98.396,67.6665,0.0107227,0.420676,20.4123,197.416,3.31836,0.0,0.0
92,22.75,35.3356,36.1023,120.822,98.3844,65.5477,0.0117887,0.445148,20.3662,197.376,3.59928,0.0,0.0
96,23.75,36.0289,37.1774,125.654,98.3541,65.1276,0.012937,0.473071,20.3225,197.256,3.65353,0.0,0.0
100,24.75,36.4801,37.7619,121.24,98.3505,64.2125,0.0138774,0.508658,20.2682,197.116,3.77862,0.0,0.0
104,25.75,38.8208,39.4363,123.806,98.3306,62.9882,0.0150448,0.54268,20.1908,197.066,3.94744,0.0,0.0
108,26.75,39.1984,41.0997,118.172,98.3206,62.4799,0.016086,0.582496,20.1412,196.956,4.01835,0.0,0.0
112,27.75,40.5032,41.711,125.562,98.2947,61.1563,0.0171424,0.62262,20.0719,196.786,4.20579,0.0,0.0
116,28.75,42.3281,43.1362,120.203,98.282,60.6019,0.0182035,0.657301,19.9979,196.655,4.28536,0.0,0.0
120,29.75,43.6289,44.7419,109.445,98.2752,61.7017,0.0192678,0.695575,19.9203,196.555,4.12534,0.0,0.0
124,30.75,44.7737,46.3673,115.098,98.2457,58.5672,0.0202344,0.735634,19.8495,196.415,4.58477,0.0,0.0
128,31.75,46.614,47.6652,118.898,98.2249,60.2086,0.0211237,0.776758,19.7856,196.315,4.33791,0.0,0.0
132,32.75,47.4944,49.4159,110.166,98.1982,61.4824,0.0219541,0.813815,19.7262,196.135,4.14996,0.0,0.0
136,33.75,49.2874,51.3484,109.486,98.1735,58.6323,0.0227165,0.849942,19.6711,195.985,4.5684,0.0,0.0
140,34.75,51.1588,52.9876,116.03,98.1448,60.1357,0.0233892,0.881289,19.6179,195.885,4.34142,0.0,0.0
144,35.75,52.7673,55.2442,103.806,98.1129,61.3587,0.023925,0.90613,19.5681,195.725,4.1601,0.0,0.0
148,36.75,54.2178,56.9829,113.878,98.0938,59.6212,0.0242995,0.927837,19.5268,195.615,4.41296,0.0,0.0
152,37.75,56.0043,58.9875,107.897,98.0631,60.3434,0.0244953,0.945916,19.496,195.464,4.30347,0.0,0.0
156,38.75,57.3435,60.2749,111.073,98.0379,62.9709,0.0245271,0.957716,19.4746,195.314,3.92346,0.0,0.0
160,39.75,59.2681,62.4588,105.147,98.0013,62.0145,0.024378,0.965501,19.4605,195.134,4.05578,0.0,0.0
164,40.75,60.9345,64.3321,113.531,97.9777,59.7412,0.0241534,0.971341,19.4529,195.024,4.38466,0.0,0.0
168,41.75,62.4283,66.2119,112.15,97.951,63.4313,0.0239126,0.973173,19.4487,194.934,3.85103,0.0,0.0
172,42.75,63.704,67.5611,114.085,97.9335,62.0937,0.02364,0.971404,19.4522,194.784,4.03834,0.0,0.0
176,43.75,65.0195,69.1088,111.349,97.902,59.7329,0.0233322,0.966626,19.4576,194.604,4.37903,0.0,0.0
180,44.75,66.6354,70.863,111.002,97.8888,60.4794,0.0230816,0.95989,19.4645,194.514,4.26775,0.0,0.0
184,45.75,67.679,72.1304,112.447,97.8573,65.6161,0.0227983,0.950917,19.4788,194.373,3.54242,0.0,0.0
188,46.75,69.2018,73.9415,115.817,97.8274,63.7211,0.0224292,0.942829,19.4944,194.263,3.79944,0.0,0.0
192,47.75,70.1304,75.0297,110.57,97.8027,64.2323,0.0219324,0.92886,19.5177,194.123,3.72638,0.0,0.0
196,48.75,70.9045,75.9783,116.287,97.7692,66.7971,0.0213293,0.904994,19.5585,193.973,3.37633,0.0,0.0
200,49.75,72.5722,77.7326,121.63,97.7305,66.1788,0.0206285,0.879033,19.6133,193.923,3.45525,0.0,0.0
204,50.75,73.4754,78.765,110.933,97.7496,68.77,0.0198527,0.848595,19.6801,193.843,3.11658,0.0,0.0
208,51.75,74.5112,80.0123,115.469,97.7389,67.9084,0.019018,0.816563,19.7404,193.753,3.22734,0.0,0.0
212,52.75,74.6618,80.2349,117.722,97.7441,69.575,0.018184,0.782924,19.7956,193.613,3.01292,0.0,0.0
216,53.75,75.1348,80.893,122.827,97.7568,70.5957,0.0173702,0.74769,19.8476,193.543,2.88501,0.0,0.0
220,54.75,75.8376,81.7181,124.522,97.7437,69.777,0.0165292,0.714788,19.9048,193.463,2.98719,0.0,0.0
224,55.75,76.2994,82.2492,120.75,97.7441,71.1691,0.0156867,0.677267,19.9664,193.403,2.81215,0.0,0.0
228,56.75,76.6425,82.7291,125.79,97.7516,69.9085,0.014932,0.640348,20.0369,193.322,2.97123,0.0,0.0
232,57.75,76.3186,82.3419,127.633,97.7457,73.5542,0.0141579,0.601986,20.1014,193.212,2.52014,0.0,0.0
236,58.75,76.8409,82.9613,122.666,97.7576,72.3629,0.0133859,0.563778,20.1667,193.152,2.66595,0.0,0.0
240,59.75,75.8851,82.2283,130.361,97.7624,74.0406,0.0126806,0.529078,20.2208,193.052,2.46324,0.0,0.0
244,60.75,76.4281,82.7714,131.309,97.754,73.8844,0.0119249,0.494399,20.2779,193.032,2.4812,0.0,0.0
248,61.75,76.3547,82.7521,135.044,97.7664,77.1582,0.0111957,0.466528,20.3341,193.002,2.09806,0.0,0.0
252,62.75,76.1772,82.6302,132.089,97.7716,74.5398,0.0104812,0.436583,20.3884,192.922,2.40452,0.0,0.0
256,63.75,75.9247,82.2293,132.598,97.7772,76.1479,0.00983282,0.408787,20.4392,192.892,2.21586,0.0,0.0
260,64.75,75.5963,81.9638,137.086,97.7744,76.6829,0.00916152,0.382662,20.4861,192.832,2.15354,0.0,0.0
264,65.75,74.6975,81.2493,131.932,97.7808,78.6241,0.00854612,0.358618,20.5268,192.772,1.93256,0.0,0.0
268,66.75,74.6439,81.1105,138.638,97.7863,78.711,0.00796782,0.336278,20.5562,192.732,1.92327,0.0,0.0
272,67.75,74.1502,80.555,140.488,97.7883,81.4127,0.00744704,0.316128,20.5838,192.712,1.62434,0.0,0.0
276,68.75,73.5276,79.8045,139.226,97.7935,80.7907,0.00679537,0.297321,20.6115,192.682,1.69279,0.0,0.0
280,69.75,73.2643,79.8345,138.569,97.7967,83.2129,0.0061664,0.279489,20.6415,192.662,1.43126,0.0,0.0
284,70.75,71.9081,78.4074,137.997,97.7947,83.9342,0.00557744,0.263334,20.6733,192.642,1.35458,0.0,0.0
288,71.75,71.8794,78.2584,136.936,97.8031,84.9087,0.00497127,0.246924,20.7078,192.592,1.25303,0.0,0.0
292,72.75,71.3072,77.7433,138.297,97.8079,87.0053,0.00446647,0.232156,20.7376,192.582,1.03728,0.0,0.0
296,73.75,71.3523,77.6667,140.291,97.8063,87.5086,0.00402005,0.218689,20.7602,192.532,0.986015,0.0,0.0
300,74.75,69.5359,75.8181,134.959,97.8166,88.6307,0.0036546,0.206509,20.7789,192.512,0.874034,0.0,0.0
304,75.75,69.8418,76.2164,138.512,97.8246,89.4893,0.00335301,0.1961,20.7945,192.492,0.789306,0.0,0.0
308,76.75,68.8935,75.2449,140.87,97.8162,89.7931,0.00311305,0.185876,20.8106,192.482,0.758509,0.0,0.0
312,77.75,67.3742,73.7365,142.829,97.8298,91.942,0.00289197,0.176887,20.8276,192.462,0.550132,0.0,0.0
316,78.75,67.527,73.7936,142.267,97.8326,91.9119,0.00269277,0.167921,20.8434,192.452,0.553286,0.0,0.0
320,79.75,66.6857,73.069,140.674,97.831,92.1832,0.00252926,0.159632,20.8586,192.432,0.527025,0.0,0.0
324,80.75,66.2505,72.4831,138.751,97.839,92.5546,0.00236251,0.151793,20.871,192.422,0.49211,0.0,0.0
328,81.75,65.4982,71.8708,146.372,97.8398,93.2693,0.00222449,0.144712,20.8847,192.442,0.423999,0.0,0.0
332,82.75,64.4706,70.9068,142.346,97.8517,93.5018,0.00212007,0.138508,20.8924,192.412,0.403018,0.0,0.0
336,83.75,64.6642,70.5638,143.444,97.8601,93.1688,0.00203463,0.13243,20.9019,192.382,0.435403,0.0,0.0
340,84.75,63.536,69.8916,140.253,97.8709,93.2788,0.00194998,0.125818,20.9101,192.392,0.425915,0.0,0.0
344,85.75,62.5338,68.8756,145.909,97.8792,93.48,0.00184769,0.122169,20.9172,192.372,0.40758,0.0,0.0
348,86.75,62.5925,68.8159,144.174,97.8729,93.5451,0.00174056,0.117162,20.9228,192.362,0.400829,0.0,0.0
352,87.75,62.3493,68.2972,145.792,97.8749,93.6952,0.00156261,0.112525,20.9306,192.342,0.386804,0.0,0.0
356,88.75,61.3485,67.3565,142.73,97.8828,93.8621,0.00148195,0.108854,20.9345,192.332,0.371749,0.0,0.0
360,89.75,61.2735,67.2598,142.118,97.8964,93.6981,0.00140734,0.104917,20.9391,192.322,0.388481,0.0,0.0
364,90.75,60.4781,66.3131,145.186,97.9004,94.1552,0.00138258,0.100491,20.943,192.332,0.345706,0.0,0.0
368,91.75,60.1451,66.1919,143.882,97.89,93.9042,0.00138668,0.09808,20.9459,192.332,0.368429,0.0,0.0
372,92.75,59.5057,65.0694,145.298,97.9016,94.795,0.00139793,0.0955737,20.9498,192.332,0.285795,0.0,0.0
376,93.75,58.5998,64.6142,143.655,97.9048,94.0946,0.00140733,0.0925829,20.9534,192.312,0.351808,0.0,0.0
380,94.75,58.0864,64.0636,141.898,97.9052,94.2224,0.00140692,0.0899733,20.9565,192.292,0.339817,0.0,0.0
384,95.75,57.4162,63.3406,144.852,97.9159,94.5378,0.00140198,0.087863,20.9586,192.292,0.311177,0.0,0.0
388,96.75,57.1686,62.857,145.756,97.9187,94.3696,0.00140474,0.0860865,20.9609,192.292,0.327211,0.0,0.0
392,97.75,56.755,62.4519,146.655,97.9279,94.5637,0.00142113,0.0844042,20.9633,192.272,0.309826,0.0,0.0
396,98.75,56.0628,61.9241,147.453,97.9351,93.6758,0.00145047,0.0828597,20.9654,192.272,0.394088,0.0,0.0
400,99.75,55.6004,61.1147,149.661,97.9335,94.1391,0.00147816,0.0817422,20.9667,192.262,0.350214,0.0,0.0
404,100.75,55.1161,60.7963,144.383,97.9394,94.2006,0.00151098,0.0804735,20.9689,192.262,0.344974,0.0,0.0
408,101.75,54.6045,60.5241,141.06,97.9387,94.3749,0.00153024,0.0789606,20.9704,192.242,0.328513,0.0,0.0
412,102.75,54.3949,59.9461,147.388,97.9482,94.4384,0.00153162,0.0781479,20.9713,192.231,0.323419,0.0,0.0
416,103.75,53.9009,59.4476,146.165,97.9526,94.2405,0.00153168,0.077103,20.9728,192.252,0.342404,0.0,0.0
420,104.75,53.4744,58.9275,149.938,97.9542,94.3333,0.00154234,0.0761882,20.9737,192.262,0.333831,0.0,0.0
424,105.75,52.992,58.638,144.558,97.959,93.8547,0.00155245,0.0753702,20.9751,192.242,0.379343,0.0,0.0
428,106.75,52.5696,58.0213,144.339,97.9642,94.5588,0.00153274,0.0745998,20.9766,192.231,0.313573,0.0,0.0
432,107.75,52.0462,57.6504,146.197,97.9721,94.41,0.00149807,0.0738573,20.9778,192.231,0.328253,0.0,0.0
436,108.75,51.935,57.1542,147.209,97.9682,94.1074,0.00140573,0.0731809,20.9789,192.242,0.356341,0.0,0.0
440,109.75,51.5247,56.9839,145.703,97.9666,94.7999,0.00129263,0.0726124,20.9796,192.242,0.291215,0.0,0.0
444,110.75,50.2479,55.8211,143.26,97.9841,94.4504,0.00118383,0.0722053,20.9801,192.221,0.325543,0.0,0.0
448,111.75,50.1901,55.7512,147.138,97.9933,94.3881,0.00110193,0.0718408,20.9804,192.211,0.332216,0.0,0.0
452,112.75,50.2084,55.6348,149.428,97.9865,94.2896,0.00105285,0.0713805,20.981,192.191,0.340859,0.0,0.0
456,113.75,49.485,54.9934,143.483,97.9885,94.4978,0.00101203,0.0708896,20.9818,192.201,0.321493,0.0,0.0
460,114.75,49.7571,54.9104,146.784,97.9933,94.2467,0.000967657,0.070414,20.9823,192.211,0.345503,0.0,0.0
464,115.75,49.3415,54.3443,144.729,97.9989,93.9615,0.000904486,0.0700704,20.9834,192.231,0.372873,0.0,0.0
468,116.75,49.3427,54.5404,149.523,97.9949,94.6053,0.000870795,0.0697709,20.9841,192.211,0.311986,0.0,0.0
472,117.75,48.3648,53.4656,144.507,97.9997,94.2731,0.000899016,0.0694964,20.9846,192.211,0.343598,0.0,0.0
476,118.75,48.2894,53.2367,143.27,97.9993,94.539,0.000934783,0.0692408,20.9849,192.211,0.318601,0.0,0.0
480,119.75,47.7269,52.7667,146.109,98.0092,94.3964,0.000957715,0.0690001,20.9852,192.201,0.332884,0.0,0.0
484,120.75,47.9461,52.7632,141.68,98.006,94.5105,0.000962743,0.0687433,20.9853,192.191,0.32188,0.0,0.0
488,121.75,46.9765,51.7996,146.484,98.0116,94.1416,0.000961812,0.0684832,20.9854,192.181,0.357052,0.0,0.0
492,122.75,46.9526,51.7352,146.43,98.014,94.485,0.000958454,0.0682599,20.9854,192.191,0.324999,0.0,0.0
496,123.75,46.6425,51.5405,148.127,98.014,94.0295,0.000963285,0.0680888,20.9855,192.191,0.36783,0.0,0.0
500,124.75,46.2693,50.9001,144.766,98.0164,94.1334,0.000969085,0.0679375,20.9855,192.171,0.35826,0.0,0.0
504,125.75,46.5526,51.1791,147.515,98.018,93.8469,0.000950778,0.0677459,20.9855,192.181,0.385419,0.0,0.0
508,126.75,46.0759,50.6981,145.583,98.0216,93.5051,0.000907729,0.0675266,20.9855,192.171,0.418076,0.0,0.0
512,127.75,45.661,50.2964,144.434,98.0359,94.1029,0.00083575,0.0673606,20.9855,192.161,0.362899,0.0,0.0
516,128.75,45.5328,50.1299,147.678,98.0272,94.0254,0.000790941,0.0672108,20.9855,192.171,0.369408,0.0,0.0
520,129.75,45.4105,49.996,148.493,98.0228,94.0917,0.000776216,0.067052,20.9855,192.141,0.362757,0.0,0.0
524,130.75,45.0156,49.2804,147.479,98.0375,95.2682,0.000803936,0.0668898,20.9855,192.151,0.253962,0.0,0.0
528,131.75,44.5637,49.0307,143.758,98.0355,94.8659,0.000840823,0.0666959,20.9863,192.161,0.291289,0.0,0.0
532,132.75,44.2987,48.7946,144.779,98.0288,94.464,0.000870875,0.0664519,20.9869,192.161,0.328305,0.0,0.0
536,133.75,43.9688,48.3119,146.368,98.0415,95.4492,0.000884664,0.0663382,20.9872,192.151,0.237502,0.0,0.0
540,134.75,43.7955,48.1184,147.479,98.0355,94.8729,0.000890606,0.066343,20.9874,192.131,0.290635,0.0,0.0
544,135.75,43.7935,48.0193,145.358,98.0411,94.3172,0.000911753,0.0663618,20.9876,192.131,0.343202,0.0,0.0
548,136.75,43.5162,47.7558,147.063,98.0535,94.3539,0.000937907,0.0663352,20.9877,192.131,0.340873,0.0,0.0
552,137.75,43.5254,47.6588,144.074,98.0503,94.5415,0.0009737,0.0662664,20.9882,192.151,0.322984,0.0,0.0
556,138.75,43.0122,47.2405,142.164,98.0415,94.5625,0.00100156,0.0661881,20.9885,192.141,0.320221,0.0,0.0
560,139.75,43.0535,47.2699,149.398,98.0264,94.4174,0.0010089,0.066195,20.9887,192.131,0.33246,0.0,0.0
564,140.75,42.5838,46.6676,148.481,98.0375,94.384,0.00101026,0.0663245,20.9884,192.151,0.336605,0.0,0.0
568,141.75,42.3414,46.14,146.631,98.0427,94.2471,0.00103266,0.066607,20.9879,192.121,0.349934,0.0,0.0
572,142.75,41.9989,46.0964,145.342,98.0399,94.6837,0.00106741,0.0669238,20.9875,192.121,0.308724,0.0,0.0
576,143.75,42.0075,45.9982,146.954,98.0359,94.1717,0.0011295,0.067244,20.9873,192.111,0.356418,0.0,0.0
580,144.75,41.8851,45.5857,144.977,98.0355,94.1012,0.00118267,0.0674717,20.9871,192.111,0.363018,0.0,0.0
584,145.75,41.8719,45.7701,145.903,98.0395,95.2501,0.00121473,0.0674728,20.987,192.111,0.255829,0.0,0.0
588,146.75,41.5419,45.2486,143.194,98.0403,93.9462,0.00123867,0.0673762,20.987,192.111,0.378061,0.0,0.0
592,147.75,41.4397,45.0957,147.063,98.0395,94.6144,0.00126527,0.067232,20.9877,192.101,0.315174,0.0,0.0
596,148.75,41.5177,44.9116,146.206,98.0423,93.9326,0.00132221,0.0669977,20.9882,192.101,0.379525,0.0,0.0
600,149.75,41.0598,44.5266,146.405,98.0375,94.7076,0.0013826,0.0666712,20.9888,192.081,0.306271,0.0,0.0
604,150.75,40.8824,44.4925,145.678,98.0479,94.5419,0.00143834,0.0663387,20.9897,192.081,0.322729,0.0,0.0
608,151.75,40.5934,44.0765,143.763,98.0607,94.7224,0.00146421,0.0660659,20.9903,192.071,0.306972,0.0,0.0
612,152.75,40.6344,44.2904,147.591,98.0527,94.722,0.00145817,0.0658344,20.9907,192.081,0.30629,0.0,0.0
616,153.75,40.2783,43.6464,149.451,98.0459,94.3329,0.00143927,0.0656047,20.991,192.091,0.342163,0.0,0.0
620,154.75,40.4763,43.8932,148.494,98.0507,94.5357,0.00140869,0.0653553,20.9911,192.101,0.323561,0.0,0.0
624,155.75,40.0117,43.7981,145.688,98.0523,94.4652,0.00137462,0.0650346,20.9912,192.101,0.330316,0.0,0.0
628,156.75,40.1527,43.7166,145.89,98.0635,93.8733,0.00132636,0.0647098,20.9918,192.091,0.387038,0.0,0.0
632,157.75,39.5133,43.0691,143.197,98.0487,94.3531,0.00127563,0.0644758,20.9925,192.071,0.340517,0.0,0.0
636,158.75,39.6718,42.7953,144.476,98.0551,93.8831,0.00124272,0.0643151,20.9929,192.051,0.385347,0.0,0.0
640,159.75,39.8068,42.8529,144.876,98.0503,93.7925,0.00122408,0.0642066,20.9932,192.081,0.393479,0.0,0.0
644,160.75,40.0565,43.1809,150.02,98.0539,94.5184,0.00126008,0.0641703,20.9931,192.071,0.325473,0.0,0.0
648,161.75,39.2544,42.6818,144.661,98.0495,94.7707,0.00130099,0.0641218,20.9925,192.061,0.301452,0.0,0.0
652,162.75,39.9969,42.7042,148.782,98.0547,94.6293,0.00131,0.0639402,20.9917,192.061,0.315153,0.0,0.0
656,163.75,39.4471,42.441,145.348,98.0467,94.6738,0.00129012,0.0637067,20.9912,192.041,0.310264,0.0,0.0
660,164.75,39.682,42.7408,146.142,98.0487,94.7171,0.0012136,0.0635711,20.9916,192.051,0.306392,0.0,0.0
664,165.75,38.7391,42.2206,147.521,98.0455,94.6214,0.00111657,0.0635561,20.9919,192.061,0.315057,0.0,0.0
668,166.75,38.5173,41.5656,147.742,98.0435,94.4001,0.00102327,0.0634879,20.9921,192.061,0.335637,0.0,0.0
672,167.75,39.3407,42.1325,145.354,98.0419,93.8378,0.000944,0.0633498,20.9922,192.061,0.38844,0.0,0.0
676,168.75,39.0162,42.1197,148.26,98.0371,94.5501,0.000885785,0.0631799,20.9923,192.061,0.320984,0.0,0.0
680,169.75,38.3978,41.2515,147.511,98.0339,94.5678,0.0008629,0.0629945,20.9924,192.061,0.319032,0.0,0.0
684,170.75,38.7823,41.4876,147.556,98.0284,94.863,0.000885368,0.0628378,20.9924,192.031,0.290911,0.0,0.0
688,171.75,38.035,41.08,147.006,98.0391,95.1598,0.000955884,0.0626326,20.9924,192.041,0.264198,0.0,0.0
692,172.75,38.7975,41.6172,146.735,98.0272,94.4879,0.00102783,0.0624647,20.9924,192.041,0.325918,0.0,0.0
696,173.75,39.0126,41.4603,145.182,98.012,94.689,0.00108365,0.062337,20.9924,192.031,0.305699,0.0,0.0
700,174.75,38.285,40.8995,146.768,98.0148,94.7414,0.00110457,0.0622338,20.9932,192.041,0.301054,0.0,0.0
704,175.75,38.032,40.9861,149.399,98.0076,94.2624,0.00109767,0.0622386,20.9938,192.051,0.345327,0.0,0.0
708,176.75,38.1568,40.779,148.079,98.008,94.3106,0.00108071,0.0622627,20.9941,192.041,0.340829,0.0,0.0
712,177.75,37.6922,40.4534,144.508,98.0072,94.7908,0.00104198,0.0622396,20.9943,192.041,0.295742,0.0,0.0
716,178.75,37.7848,40.592,152.335,97.9997,95.0258,0.000993619,0.0622528,20.9945,192.041,0.273115,0.0,0.0
720,179.75,37.764,40.4938,145.375,97.9921,93.9854,0.000952786,0.0622447,20.9944,192.011,0.370005,0.0,0.0
724,180.75,37.4362,39.9796,147.802,97.9865,95.0159,0.000926841,0.0622174,20.9938,192.021,0.272847,0.0,0.0
728,181.75,37.6065,40.2518,150.11,97.9857,94.21,0.000927036,0.0622137,20.9936,192.011,0.348268,0.0,0.0
732,182.75,37.2739,39.6266,145.153,97.9829,93.8407,0.000937937,0.0622463,20.9935,191.991,0.38283,0.0,0.0
736,183.75,37.114,39.4566,147.373,97.9765,94.9673,0.000997647,0.0621952,20.9942,191.991,0.276484,0.0,0.0
740,184.75,37.4518,39.9738,148.695,97.9729,95.499,0.00104893,0.0621123,20.9948,191.991,0.226671,0.0,0.0
744,185.75,36.9167,39.655,148.535,97.9642,94.2888,0.00108126,0.0620866,20.9952,192.001,0.338917,0.0,0.0
748,186.75,36.7987,39.0688,147.953,97.967,94.5011,0.00110001,0.0621396,20.9955,192.001,0.319235,0.0,0.0
752,187.75,37.2473,39.754,147.286,97.9474,94.7834,0.00108758,0.0621991,20.9957,192.001,0.291026,0.0,0.0
756,188.75,37.2326,39.4772,148.395,97.9502,94.9438,0.00105378,0.0622493,20.9958,192.001,0.276297,0.0,0.0
760,189.75,37.4126,39.694,146.836,97.9426,94.6495,0.00100944,0.0624122,20.9959,191.981,0.303128,0.0,0.0
764,190.75,36.6827,39.0024,143.533,97.9335,94.3568,0.000967926,0.0626088,20.996,191.981,0.329747,0.0,0.0
768,191.75,36.7557,38.9908,147.253,97.9211,94.7962,0.000929905,0.0626952,20.9958,191.971,0.287449,0.0,0.0
772,192.75,36.7004,38.993,147.564,97.9163,94.837,0.000895013,0.0626973,20.9956,191.981,0.283202,0.0,0.0
776,193.75,36.7178,39.0303,144.497,97.9091,94.1268,0.000875976,0.0626807,20.9955,191.981,0.349177,0.0,0.0
780,194.75,36.4755,38.8017,148.039,97.8996,94.548,0.000868674,0.0626513,20.9954,191.961,0.308731,0.0,0.0
784,195.75,36.6609,38.7365,143.5,97.8912,94.6321,0.000866351,0.0626903,20.9953,191.961,0.300095,0.0,0.0
788,196.75,36.2486,38.4571,146.489,97.8916,94.7035,0.000862638,0.0627316,20.9945,191.951,0.293453,0.0,0.0
792,197.75,36.1772,38.4027,146.031,97.884,94.3576,0.00085865,0.0627975,20.994,191.951,0.325194,0.0,0.0
796,198.75,36.566,38.6195,147.652,97.8776,94.356,0.000858222,0.0628512,20.9942,191.931,0.324771,0.0,0.0
800,199.75,36.4287,38.5776,141.568,97.8617,94.2661,0.000877635,0.0628476,20.9946,191.921,0.331771,0.0,0.0
804,200.75,36.3863,38.5816,145.064,97.8513,94.6449,0.00091107,0.062862,20.9948,191.941,0.295286,0.0,0.0
808,201.75,36.4184,38.4437,144.166,97.84375,95.5349,0.000964461,0.0629079,20.9949,191.931,0.211648,0.0,0.0
812,202.75,36.3956,38.3272,146.92,97.8314,94.2776,0.00102098,0.0629945,20.995,191.931,0.327942,0.0,0.0
816,203.75,36.1818,38.3672,143.426,97.8186,94.1193,0.00106637,0.0630966,20.9951,191.941,0.341679,0.0,0.0
820,204.75,36.3976,38.4469,148.205,97.8142,94.534,0.00108758,0.0631246,20.9951,191.931,0.302317,0.0,0.0
824,205.75,36.1035,37.9711,149.469,97.8019,94.4087,0.00108285,0.0630905,20.9952,191.911,0.312954,0.0,0.0
828,206.75,35.8371,37.8977,145.181,97.7911,94.4582,0.00107612,0.0631174,20.9951,191.901,0.307335,0.0,0.0
832,207.75,36.0332,37.9695,147.726,97.7764,94.405,0.00107723,0.0631545,20.9949,191.911,0.310989,0.0,0.0
836,208.75,36.2021,38.0191,146.132,97.7684,94.4623,0.00109572,0.0631841,20.9947,191.921,0.304889,0.0,0.0
840,209.75,35.9876,38.0299,144.709,97.7572,93.677,0.00111909,0.0632775,20.9946,191.921,0.377863,0.0,0.0
844,210.75,36.1736,38.0042,143.408,97.7437,94.9314,0.00113193,0.0633388,20.9945,191.901,0.258742,0.0,0.0
848,211.75,35.5898,37.2278,145.908,97.7389,93.8291,0.00112947,0.0634036,20.9943,191.891,0.36182,0.0,0.0
852,212.75,36.1027,38.0227,147.309,97.7221,94.1272,0.0011175,0.0634462,20.9935,191.901,0.332194,0.0,0.0
856,213.75,35.8276,37.9467,147.718,97.7114,94.3374,0.00110324,0.0635234,20.993,191.901,0.311444,0.0,0.0
860,214.75,36.2193,37.8588,145.399,97.6994,94.1412,0.00109698,0.0635605,20.9927,191.901,0.328813,0.0,0.0
864,215.75,34.9987,36.824,151.106,97.6946,93.2986,0.00111473,0.0635738,20.9925,191.911,0.40806,0.0,0.0
868,216.75,35.705,37.415,142.052,97.6779,93.9285,0.00115585,0.0633852,20.9924,191.901,0.346907,0.0,0.0
872,217.75,35.7772,37.5917,150.239,97.6587,94.2513,0.00120406,0.0631875,20.9929,191.891,0.314768,0.0,0.0
876,218.75,35.7838,37.7686,146.879,97.6464,94.1614,0.00124256,0.0631071,20.9934,191.901,0.322099,0.0,0.0
880,219.75,35.1437,37.0765,144.959,97.6256,94.3881,0.00123493,0.063079,20.9938,191.891,0.298903,0.0,0.0
884,220.75,35.6573,37.4064,141.558,97.6097,94.0934,0.00117734,0.0631099,20.994,191.881,0.325174,0.0,0.0
888,221.75,35.5035,37.2454,145.163,97.6037,94.2756,0.00109576,0.0631055,20.9941,191.871,0.307485,0.0,0.0
892,222.75,35.7154,37.394,147.283,97.5806,94.1292,0.00103534,0.0630832,20.9942,191.871,0.319153,0.0,0.0
896,223.75,35.5937,37.5129,145.502,97.569,93.661,0.000999888,0.0631216,20.9943,191.861,0.362305,0.0,0.0
900,224.75,35.5823,37.263,145.872,97.5507,94.6078,0.000986363,0.0631761,20.9943,191.861,0.271488,0.0,0.0
904,225.75,35.1598,37.06,148.02,97.5463,94.882,0.000981407,0.0632086,20.9944,191.871,0.245447,0.0,0.0
908,226.75,35.4478,37.2646,147.83,97.5391,94.8267,0.000951252,0.0631806,20.9939,191.851,0.249956,0.0,0.0
912,227.75,35.3228,36.9097,141.711,97.524,94.6165,0.0008751,0.0631272,20.9933,191.861,0.268251,0.0,0.0
916,228.75,35.6543,37.3857,145.701,97.5092,93.2557,0.000794367,0.0629936,20.9937,191.851,0.395297,0.0,0.0
920,229.75,35.2099,37.1167,146.906,97.4969,94.2191,0.000703091,0.0629532,20.9937,191.851,0.303087,0.0,0.0
924,230.75,35.4835,37.0539,145.978,97.4825,93.9689,0.000670848,0.062978,20.9937,191.841,0.325351,0.0,0.0
928,231.75,35.4975,36.9872,145.826,97.4821,94.3786,0.000686891,0.0629943,20.9937,191.841,0.286752,0.0,0.0
932,232.75,35.5626,37.0909,143.145,97.4634,93.9681,0.000769603,0.0629662,20.9938,191.831,0.323688,0.0,0.0
936,233.75,35.8571,37.4924,149.872,97.4546,94.1342,0.000849745,0.0629178,20.9938,191.831,0.307235,0.0,0.0
940,234.75,35.4959,37.5141,147.243,97.4382,93.8547,0.000905658,0.0628536,20.9938,191.831,0.332103,0.0,0.0
944,235.75,35.3511,37.0753,146.892,97.4299,94.6589,0.000936984,0.0627751,20.9938,191.841,0.255718,0.0,0.0
948,236.75,35.4288,36.8291,149.885,97.4227,94.2764,0.00094953,0.0626886,20.9938,191.831,0.290955,0.0,0.0
952,237.75,35.2336,36.5235,144.495,97.4143,93.9202,0.000935935,0.0624839,20.9938,191.821,0.323739,0.0,0.0
956,238.75,34.902,36.4745,148.021,97.4055,93.5138,0.000906308,0.0623108,20.9938,191.821,0.361379,0.0,0.0
960,239.75,35.2222,36.8748,150.896,97.4048,93.527,0.000869803,0.0621375,20.9938,191.811,0.360056,0.0,0.0
964,240.75,35.186,36.8013,147.523,97.3904,93.8419,0.000837235,0.0619745,20.9938,191.831,0.328956,0.0,0.0
968,241.75,35.0279,36.4808,147.053,97.3824,94.0897,0.000816996,0.0618093,20.9938,191.831,0.304862,0.0,0.0
972,242.75,35.069,36.7295,147.988,97.3764,94.0315,0.000803344,0.061658,20.9938,191.831,0.309796,0.0,0.0
976,243.75,35.413,36.6923,145.397,97.3689,94.2537,0.000793332,0.061551,20.9938,191.821,0.288188,0.0,0.0
980,244.75,34.7171,36.5362,146.43,97.3717,93.5068,0.00079376,0.0615157,20.9941,191.811,0.358958,0.0,0.0
984,245.75,35.0742,36.6479,147.057,97.3701,94.5254,0.000825741,0.0613941,20.9943,191.801,0.26279,0.0,0.0
988,246.75,35.0566,36.4678,150.385,97.3729,94.2323,0.000882423,0.061217,20.9952,191.801,0.290567,0.0,0.0
992,247.75,35.1927,36.3945,147.812,97.3697,93.6016,0.00096967,0.0611502,20.9958,191.801,0.349795,0.0,0.0
996,248.75,34.8383,36.0881,154.835,97.3756,93.825,0.00106629,0.0610869,20.9962,191.811,0.329209,0.0,0.0
1000,249.75,35.2167,36.6426,146.121,97.3828,93.3617,0.00114011,0.0609313,20.9969,191.791,0.373738,0.0,0.0
1004,250.75,34.6416,36.3919,141.406,97.3848,94.297,0.00118099,0.0607338,20.9977,191.791,0.285571,0.0,0.0
1008,251.75,34.9422,36.4114,148.115,97.39,93.7995,0.00120095,0.0605868,20.9982,191.791,0.33293,0.0,0.0
1012,252.75,35.0934,36.5611,145.603,97.4052,94.4648,0.00119431,0.0604903,20.9985,191.811,0.271666,0.0,0.0
1016,253.75,35.0792,36.7278,145.14,97.4155,94.351,0.00119009,0.0604763,20.9987,191.811,0.283291,0.0,0.0
1020,254.75,34.7935,36.0387,149.626,97.4382,93.9038,0.00117079,0.0604398,20.9987,191.821,0.327471,0.0,0.0
1024,255.75,35.0758,36.5241,147.939,97.4518,93.9998,0.00110246,0.0603939,20.9985,191.811,0.319644,0.0,0.0
1028,256.75,34.8874,35.907,147.786,97.4606,94.0757,0.00102038,0.060387,20.9984,191.811,0.313292,0.0,0.0
1032,257.75,34.7548,36.1245,148.023,97.4741,94.7373,0.000920588,0.060481,20.9983,191.811,0.252413,0.0,0.0
1036,258.75,34.4197,35.7713,145.939,97.4996,94.5233,0.000826701,0.0605836,20.9977,191.811,0.274771,0.0,0.0
1040,259.75,34.2202,35.6053,146.24,97.5188,94.1503,0.000760732,0.0606703,20.997,191.791,0.311559,0.0,0.0
1044,260.75,34.4154,35.7868,142.307,97.5331,94.6383,0.00073712,0.0607298,20.9966,191.791,0.267037,0.0,0.0
1048,261.75,34.7603,36.0671,145.066,97.5575,94.4755,0.000769882,0.060739,20.9964,191.781,0.284509,0.0,0.0
1052,262.75,34.4276,35.6404,143.578,97.5794,94.6874,0.000828542,0.0606847,20.996,191.781,0.266646,0.0,0.0
1056,263.75,34.5776,35.9131,151.934,97.6065,94.1165,0.000909517,0.0606343,20.9951,191.781,0.32271,0.0,0.0
1060,264.75,34.584,35.921,147.745,97.6324,94.2162,0.000988455,0.0606186,20.9949,191.791,0.315673,0.0,0.0
1064,265.75,34.7097,36.1452,148.461,97.6627,94.6251,0.0010474,0.0606576,20.9955,191.771,0.28004,0.0,0.0
1068,266.75,34.5316,35.8791,149.911,97.6767,94.3378,0.00108919,0.0606455,20.996,191.791,0.308259,0.0,0.0
1072,267.75,34.7162,36.0022,148.397,97.7213,93.9664,0.00111879,0.0606079,20.9962,191.781,0.347273,0.0,0.0
1076,268.75,34.5258,35.7746,145.653,97.7189,94.0175,0.00113649,0.0605587,20.9964,191.791,0.342235,0.0,0.0
1080,269.75,34.5005,35.9108,148.846,97.7381,95.0547,0.00114246,0.0604803,20.9961,191.771,0.246737,0.0,0.0
1084,270.75,34.288,35.7121,146.73,97.7616,94.046,0.00114135,0.06036,20.9955,191.781,0.343423,0.0,0.0
1088,271.75,34.6221,35.6886,150.465,97.7943,94.4899,0.00112558,0.0601938,20.9951,191.771,0.304647,0.0,0.0
1092,272.75,34.4696,35.7079,145.618,97.819,93.9619,0.00109453,0.06006,20.9949,191.751,0.356556,0.0,0.0
1096,273.75,34.5315,35.7803,144.081,97.8505,95.0477,0.00106026,0.0600462,20.9947,191.751,0.257581,0.0,0.0
1100,274.75,34.289,35.6576,148.28,97.8788,93.9697,0.00102534,0.0600617,20.9946,191.771,0.361234,0.0,0.0
1104,275.75,34.4448,35.737,150.12,97.898,94.6466,0.00102551,0.060072,20.9951,191.791,0.299356,0.0,0.0
1108,276.75,34.5609,35.8515,146.387,97.9219,94.2603,0.00105133,0.0600786,20.9967,191.801,0.337765,0.0,0.0
1112,277.75,34.5382,35.8425,143.478,97.9343,94.2776,0.00108536,0.060083,20.9977,191.801,0.337257,0.0,0.0
1116,278.75,34.332,35.7082,145.34,97.943,95.0233,0.00112613,0.0600599,20.9984,191.811,0.268224,0.0,0.0
1120,279.75,34.2957,35.6719,150.06,97.9678,94.6824,0.00114149,0.0600059,20.9988,191.801,0.302314,0.0,0.0
1124,280.75,34.3489,35.6549,145.03,97.9753,94.7463,0.00111481,0.0599873,20.9991,191.801,0.29702,0.0,0.0
1128,281.75,34.3075,35.6269,146.825,97.9901,93.5814,0.00105693,0.0599971,20.9993,191.781,0.408003,0.0,0.0
1132,282.75,34.3599,35.54,143.623,98.0156,94.5852,0.000941388,0.0599083,20.9999,191.781,0.315752,0.0,0.0
1136,283.75,34.4625,35.5664,149.651,98.0224,94.3782,0.000820613,0.0596777,21.0006,191.781,0.335777,0.0,0.0
1140,284.75,34.3379,35.5119,148.076,98.0284,94.6602,0.000750581,0.0592724,21.0011,191.761,0.309879,0.0,0.0
1144,285.75,34.0828,35.3334,147.691,98.0367,94.6449,0.000736669,0.0587632,21.0016,191.741,0.312064,0.0,0.0
1148,286.75,34.4054,35.3898,150.169,98.0471,94.4648,0.000749554,0.0581848,21.0026,191.771,0.329886,0.0,0.0
1152,287.75,33.2586,34.0918,149.968,98.0511,94.2768,0.000772247,0.0576085,21.0032,191.741,0.347901,0.0,0.0
1156,288.75,34.0845,35.0928,145.268,98.0551,95.2727,0.000784033,0.0570829,21.0036,191.751,0.255125,0.0,0.0
1160,289.75,33.824,35.4216,147.709,98.0567,94.1189,0.000786595,0.0566411,21.0038,191.721,0.363259,0.0,0.0
1164,290.75,33.4787,34.4436,146.934,98.0527,94.0398,0.00079126,0.056209,21.0046,191.761,0.370355,0.0,0.0
1168,291.75,33.1871,34.9258,146.039,98.0507,93.83,0.000805257,0.0558263,21.0053,191.771,0.389971,0.0,0.0
1172,292.75,33.9466,35.1774,143.554,98.0447,94.5637,0.000821335,0.0555345,21.0058,191.761,0.320394,0.0,0.0
1176,293.75,33.6715,35.042,148.517,98.0331,95.0444,0.000828568,0.0553779,21.006,191.761,0.274413,0.0,0.0
1180,294.75,33.4632,34.5388,146.891,98.0339,93.9858,0.000822255,0.0552608,21.0062,191.741,0.373751,0.0,0.0
1184,295.75,34.1067,35.1864,145.574,98.028,94.6058,0.000803288,0.0551492,21.0064,191.751,0.314938,0.0,0.0
1188,296.75,33.7622,34.9649,146.032,98.0148,94.7459,0.000773785,0.055076,21.0065,191.741,0.300629,0.0,0.0
1192,297.75,33.8902,34.5486,145.763,98.0216,94.1676,0.000755085,0.0549542,21.0065,191.721,0.355508,0.0,0.0
1196,298.75,33.5927,34.221,148.605,98.0248,94.445,0.000742236,0.0548549,21.0065,191.691,0.329724,0.0,0.0
1200,299.75,33.8807,34.5914,146.887,98.032,94.0208,0.000745296,0.0548117,21.0066,191.701,0.370267,0.0,0.0
1204,300.75,33.9839,34.9084,146.531,98.0132,94.4574,0.000748219,0.0548067,21.0066,191.691,0.327518,0.0,0.0
1208,301.75,33.7906,34.995,148.642,98.0032,94.7455,0.000748585,0.0547633,21.0074,191.711,0.299621,0.0,0.0
1212,302.75,33.6028,35.0287,149.858,97.9969,95.0543,0.000755386,0.0546857,21.0071,191.711,0.27021,0.0,0.0
1216,303.75,33.6079,34.8034,148.43,97.9925,94.2731,0.000759848,0.054638,21.0069,191.711,0.342949,0.0,0.0
1220,304.75,34.0627,35.0007,149.323,97.9793,94.6763,0.000751903,0.0545769,21.0068,191.721,0.303938,0.0,0.0
1224,305.75,33.3046,34.4719,146.539,97.9773,95.6087,0.000726446,0.054511,21.0068,191.731,0.216897,0.0,0.0
1228,306.75,34.0326,35.0019,150.654,97.955,95.0411,0.000684257,0.0544852,21.0067,191.721,0.267652,0.0,0.0
1232,307.75,33.7924,34.4373,147.516,97.949,94.1964,0.000673787,0.0544191,21.0067,191.691,0.346229,0.0,0.0
1236,308.75,33.3306,34.5578,146.523,97.9283,93.346,0.000718755,0.0543951,21.0067,191.701,0.42473,0.0,0.0
1240,309.75,33.5241,34.9365,143.553,97.9155,94.1066,0.000783942,0.0544039,21.0066,191.721,0.351657,0.0,0.0
1244,310.75,33.4867,34.6719,147.353,97.9044,94.4887,0.000859487,0.0543762,21.0066,191.701,0.31473,0.0,0.0
1248,311.75,34.1597,34.8598,146.389,97.8948,94.0637,0.000923046,0.0544057,21.0066,191.711,0.353818,0.0,0.0
1252,312.75,33.2522,34.484,147.969,97.8804,93.9623,0.000962689,0.0544543,21.0066,191.691,0.362079,0.0,0.0
1256,313.75,33.4513,34.4196,147.826,97.8741,94.3362,0.000987769,0.0544757,21.0066,191.681,0.326304,0.0,0.0
1260,314.75,33.8865,34.8065,148.021,97.8398,93.6791,0.00101803,0.0544374,21.0066,191.681,0.385148,0.0,0.0
1264,315.75,33.7856,34.1657,148.005,97.8166,94.2904,0.0010416,0.0544123,21.0066,191.681,0.325404,0.0,0.0
1268,316.75,33.5447,34.8569,150.368,97.8051,94.0563,0.00105707,0.0543959,21.0066,191.671,0.346392,0.0,0.0
1272,317.75,33.6524,34.7161,146.588,97.7995,93.8143,0.00103436,0.0543605,21.0066,191.671,0.368716,0.0,0.0
1276,318.75,33.4602,34.2953,144.476,97.782,94.4038,0.00100049,0.0542882,21.0066,191.681,0.311611,0.0,0.0
1280,319.75,33.6919,34.7976,149.848,97.7624,94.3877,0.000967994,0.0542407,21.0066,191.661,0.31135,0.0,0.0
1284,320.75,34.1449,34.7583,147.717,97.7505,94.2026,0.000955627,0.0542167,21.0066,191.661,0.327662,0.0,0.0
1288,321.75,32.9713,34.4174,147.161,97.7433,94.1902,0.000950296,0.0542184,21.0066,191.651,0.328174,0.0,0.0
1292,322.75,33.4981,34.5889,143.701,97.7329,94.37,0.000970881,0.0542338,21.0066,191.651,0.310338,0.0,0.0
1296,323.75,33.8906,34.6148,144.191,97.7221,93.8275,0.000984387,0.0542787,21.0066,191.661,0.360457,0.0,0.0
1300,324.75,32.9,34.2201,144.956,97.8186,94.187,0.000993248,0.0542675,21.0066,191.631,0.335315,0.0,0.0
1304,325.75,33.5371,34.9467,144.888,97.9303,94.0423,0.000993885,0.0542,21.0066,191.651,0.359051,0.0,0.0
1308,326.75,34.2984,34.5363,153.6,98.0132,95.1021,0.000983235,0.054148,21.0066,191.681,0.267231,0.0,0.0
1312,327.75,33.7264,34.4806,146.089,98.0961,95.0163,0.000969619,0.054163,21.0066,191.651,0.282721,0.0,0.0
1316,328.75,33.6143,34.5392,148.491,98.1679,94.6305,0.000966759,0.0542077,21.0066,191.651,0.325267,0.0,0.0
1320,329.75,33.2015,34.4898,145.481,98.2365,95.2369,0.000986217,0.0542371,21.0066,191.661,0.274845,0.0,0.0
1324,330.75,33.4856,34.62,145.252,98.3075,94.3255,0.00102073,0.0542072,21.0058,191.671,0.366473,0.0,0.0
1328,331.75,33.4864,34.323,149.021,98.3509,94.1997,0.00106582,0.0542367,21.0053,191.681,0.382211,0.0,0.0
1332,332.75,33.7518,34.4072,146.634,98.4008,94.4116,0.00110143,0.0542018,21.0054,191.661,0.36679,0.0,0.0
1336,333.75,32.6697,34.0751,147.195,98.4462,94.6878,0.00111617,0.0541349,21.0058,191.661,0.344994,0.0,0.0
1340,334.75,33.326,34.5607,146.03,98.4765,94.7974,0.00111316,0.054091,21.0061,191.651,0.337463,0.0,0.0
1344,335.75,33.661,34.7562,146.694,98.5021,94.1152,0.00110839,0.0541604,21.0063,191.641,0.403774,0.0,0.0
1348,336.75,33.3624,34.5777,144.457,98.532,94.8424,0.001104,0.0542552,21.0064,191.621,0.338251,0.0,0.0
1352,337.75,33.0403,34.239,142.917,98.5411,94.1342,0.001098,0.0542928,21.0065,191.621,0.405503,0.0,0.0
1356,338.75,33.4595,34.4383,145.958,98.5379,94.4862,0.00105903,0.0542683,21.0065,191.631,0.372133,0.0,0.0
1360,339.75,33.4354,34.5863,144.771,98.5403,94.6655,0.00101104,0.0543259,21.0065,191.621,0.355545,0.0,0.0
1364,340.75,33.2442,34.4385,144.973,98.5232,94.8407,0.000963178,0.0543502,21.0066,191.631,0.337615,0.0,0.0
1368,341.75,33.2159,34.7887,146.475,98.4953,95.0406,0.000934164,0.0543265,21.0066,191.621,0.316441,0.0,0.0
1372,342.75,33.313,33.9881,148.194,98.4686,94.5629,0.000921692,0.0542413,21.0066,191.631,0.358702,0.0,0.0
1376,343.75,33.2137,34.5636,144.907,98.4235,94.903,0.000908003,0.0541362,21.0066,191.621,0.322829,0.0,0.0
1380,344.75,32.717,34.4415,146.41,98.3697,94.9009,0.000897167,0.0541656,21.0066,191.601,0.318173,0.0,0.0
1384,345.75,33.8619,33.9905,142.743,98.3278,93.5769,0.000838356,0.054234,21.0064,191.591,0.438925,0.0,0.0
1388,346.75,33.1503,34.3194,144.881,98.2377,93.886,0.000756588,0.0542789,21.0061,191.611,0.401565,0.0,0.0
1392,347.75,33.6576,34.3191,146.258,98.1496,94.3333,0.000685411,0.0543083,21.006,191.601,0.351491,0.0,0.0
1396,348.75,33.0892,34.5741,145.221,98.0607,94.2006,0.000636926,0.0543348,21.0058,191.601,0.355938,0.0,0.0
1400,349.75,33.3631,34.339,147.195,97.9821,94.3073,0.000614449,0.0543696,21.0058,191.601,0.338795,0.0,0.0
1404,350.75,33.1938,34.4853,146.814,97.9925,93.7368,0.000605465,0.054417,21.0057,191.611,0.393511,0.0,0.0
1408,351.75,33.0659,34.2112,143.322,98.0232,93.9846,0.000587176,0.0543989,21.0057,191.601,0.372894,0.0,0.0
1412,352.75,32.4684,33.7123,143.729,98.0615,94.0307,0.000530443,0.0543677,21.0057,191.591,0.372003,0.0,0.0
1416,353.75,33.0395,34.261,149.901,98.1009,94.2113,0.000457184,0.0543227,21.0056,191.581,0.358567,0.0,0.0
1420,354.75,33.1384,34.0918,146.204,98.1448,94.1457,0.000410838,0.0542743,21.0056,191.581,0.368697,0.0,0.0
1424,355.75,33.4267,34.256,146.596,98.1898,94.6948,0.000391209,0.0542388,21.0056,191.571,0.321225,0.0,0.0
1428,356.75,32.2836,33.7161,145.885,98.2521,94.2286,0.000396382,0.0542329,21.0056,191.571,0.370581,0.0,0.0
1432,357.75,33.3401,34.1947,145.711,98.3007,94.1161,0.000408507,0.0542361,21.0056,191.571,0.38556,0.0,0.0
1436,358.75,33.1693,34.1932,144.988,98.3557,94.3176,0.000417098,0.0542557,21.0056,191.551,0.371558,0.0,0.0
1440,359.75,33.3321,34.0475,144.38,98.4147,94.4875,0.000423013,0.0542471,21.0056,191.571,0.360929,0.0,0.0
1444,360.75,33.4566,34.0973,147.126,98.4686,94.518,0.000423631,0.0541892,21.0056,191.561,0.362915,0.0,0.0
1448,361.75,32.6846,33.5425,147.476,98.5208,95.1948,0.000411107,0.0542495,21.0056,191.571,0.304371,0.0,0.0
1452,362.75,33.2548,34.168,144.996,98.5702,93.7022,0.000422535,0.0542697,21.0056,191.561,0.448889,0.0,0.0
1456,363.75,33.3899,34.3808,149.777,98.6053,94.5913,0.000467893,0.0542831,21.0056,191.561,0.368338,0.0,0.0
1460,364.75,33.5118,34.4458,146.839,98.648,94.3881,0.000561235,0.0543247,21.0056,191.551,0.391233,0.0,0.0
1464,365.75,33.4244,34.321,148.234,98.6827,95.3519,0.000669477,0.0543558,21.0056,191.541,0.304312,0.0,0.0
1468,366.75,32.8676,34.1672,148.331,98.6978,94.6734,0.000771769,0.0543302,21.0056,191.561,0.368966,0.0,0.0
1472,367.75,33.3369,33.7636,144.187,98.7261,94.56,0.000842802,0.0542437,21.0056,191.541,0.382126,0.0,0.0
1476,368.75,33.3203,34.416,142.559,98.7373,95.3696,0.000861811,0.0541378,21.0064,191.561,0.307569,0.0,0.0
1480,369.75,33.1399,34.2208,149.47,98.7369,93.9165,0.000853068,0.054049,21.0072,191.561,0.44361,0.0,0.0
1484,370.75,33.2557,34.1209,146.886,98.7397,95.7122,0.000847069,0.0539998,21.0076,191.541,0.276007,0.0,0.0
1488,371.75,32.9324,34.1377,144.992,98.7273,94.8613,0.000848896,0.0540166,21.008,191.541,0.354035,0.0,0.0
1492,372.75,33.19,34.3366,144.22,98.7106,94.6247,0.000854011,0.0540768,21.0082,191.531,0.374666,0.0,0.0
1496,373.75,32.8137,34.2347,145.916,98.6795,94.8247,0.000850803,0.0541512,21.0083,191.541,0.353167,0.0,0.0
1500,374.75,33.3882,34.2654,142.172,98.6512,94.6853,0.000853073,0.0542245,21.0084,191.561,0.363657,0.0,0.0
1504,375.75,33.3925,34.3116,149.925,98.6093,94.9652,0.000874256,0.0542339,21.0085,191.521,0.333734,0.0,0.0
1508,376.75,33.1821,34.1088,144.853,98.5603,94.7941,0.000916611,0.0542025,21.0079,191.541,0.345306,0.0,0.0
1512,377.75,32.4714,34.0676,143.262,98.4989,94.4767,0.000966299,0.0541871,21.0073,191.521,0.369507,0.0,0.0
1516,378.75,32.9525,34.3745,145.003,98.441,94.5031,0.0010208,0.0541632,21.007,191.511,0.361829,0.0,0.0
1520,379.75,32.7979,34.3159,147.6,98.3741,94.3057,0.00105777,0.0540876,21.0067,191.511,0.374334,0.0,0.0
1524,380.75,33.1017,34.2229,147.539,98.2923,94.8325,0.00107333,0.0540871,21.0066,191.511,0.317593,0.0,0.0
1528,381.75,33.1447,34.4589,149.613,98.2142,94.5175,0.0010655,0.0541088,21.0065,191.521,0.340026,0.0,0.0
1532,382.75,32.9351,34.5204,143.36,98.1348,93.7624,0.00102852,0.054123,21.0064,191.511,0.403961,0.0,0.0
1536,383.75,33.1417,33.85,145.586,98.0331,94.1189,0.000983361,0.0540549,21.0064,191.511,0.361133,0.0,0.0
1540,384.75,33.0795,33.5662,144.281,97.9422,93.6131,0.000944421,0.0540087,21.0063,191.521,0.400667,0.0,0.0
1544,385.75,32.457,33.8168,146.331,97.8446,93.7896,0.000903559,0.0539972,21.0063,191.521,0.375135,0.0,0.0
1548,386.75,33.3989,34.4766,147.736,97.7337,93.9561,0.000859513,0.0540278,21.0063,191.521,0.349365,0.0,0.0
1552,387.75,32.3752,33.7287,150.449,97.6284,93.4235,0.000819939,0.0540156,21.0058,191.501,0.390197,0.0,0.0
1556,388.75,33.1185,34.2695,147.329,97.5188,94.1062,0.000792528,0.053985,21.0052,191.501,0.315712,0.0,0.0
1560,389.75,33.092,34.1098,147.036,97.4155,92.9515,0.00077547,0.0540172,21.0048,191.511,0.415736,0.0,0.0
1564,390.75,33.4735,34.2159,145.027,97.3254,93.3914,0.000764279,0.0540138,21.0045,191.501,0.365694,0.0,0.0
1568,391.75,32.4846,33.5252,151.8,97.2189,93.1947,0.000763828,0.0540361,21.0045,191.501,0.374674,0.0,0.0
1572,392.75,33.469,34.2563,146.681,97.1129,93.562,0.000778679,0.0540262,21.005,191.481,0.330139,0.0,0.0
1576,393.75,32.9932,33.9378,145.175,97.0204,93.2248,0.000795374,0.0540125,21.0053,191.461,0.353692,0.0,0.0
1580,394.75,33.1455,34.3401,149.015,96.9466,93.2108,0.000787769,0.0539861,21.0055,191.481,0.348283,0.0,0.0
1584,395.75,32.7413,33.8131,146.802,96.884,93.5575,,0.0540179,,191.461,0.309657,0.0,0.0
1588,396.75,33.4045,34.0079,148.896,96.8246,92.7883,,0.0540634,,191.431,0.377389,0.0,0.0
1592,397.75,32.965,34.004,143.404,96.7704,93.1976,,0.0541005,,191.451,0.333411,0.0,0.0
1596,398.75,33.1274,34.0871,146.034,96.7441,92.5756,,,,191.451,0.390354,0.0,0.0
1600,399.75,32.5834,33.2856,149.434,96.7229,93.1717,,,,191.461,0.331535,0.0,0.0
1604,400.75,33.1302,33.8983,141.801,96.7185,92.4301,,,,191.471,0.401958,0.0,0.0
1608,401.75,33.1602,34.5118,148.82,96.7094,92.2491,,,,191.471,0.418486,0.0,0.0
1612,402.75,32.865,34.4219,147.828,96.7281,93.8716,,,,191.461,0.265676,0.0,0.0
1616,403.75,32.6629,34.2831,151.697,96.7568,92.536,,,,191.471,0.395312,0.0,0.0
1620,404.75,32.8746,33.7597,149.707,96.7879,93.2764,,,,191.461,0.327533,0.0,0.0
1624,405.75,32.9566,34.5569,146.46,96.8286,92.0389,,,,191.461,0.449627,0.0,0.0
1625,406,32.8868,33.9394,147.06,96.8489,92.7467,,,,191.441,0.383592,0.0,0.0