File: 01_Data/Polyolefin_Carpet_LowPile/Cone/Polyolefin_Carpet_Low_Pile_Cone_HF25Scan_220406_R2.csv
Names,Time,Stack TC,Smoke TC,Exh Press,Smoke Comp,Smoke Meas,CO Meter,CO2 Meter,O2 Meter,Sample Mass,Ext Coeff,Start Test,Flame Verif
Chan Gain,,500,500,1,1,1,1,1,1,1,1,1.0,1.0
Offset,,0,0,0.132524,0,0,0,0,0,0,0,0.0,0.0
Gain,,1,1,25.011,13.2301,13.3727,1,1,1,1.0009,1.0066,1.0,1.0
Units,sec,C,C,Pa,%,%,%,%,%,g,/m,,
Baseline,,19.0989,19.5009,161.951,98.7003,95.2591,0.00103591,0.0662785,21.0056,-833.737,0.313378,,
3,0.5,18.5115,19.0812,164.179,98.7084,95.2166,0.00107427,0.0757587,20.9971,206.224,0.318011,0.0,0.0
6,1.25,18.7168,18.8156,161.213,98.7165,95.0399,0.00111456,0.0761921,20.9967,206.285,0.335136,0.0,0.0
9,2,18.2007,18.4893,162.53,98.7326,95.2762,0.00114393,0.0762489,20.9971,206.054,0.314655,0.0,0.0
12,2.75,18.2262,18.8582,159.421,98.7197,95.0174,0.00114409,0.076158,20.9973,206.164,0.33751,0.0,0.0
15,3.5,17.7511,18.248,166.175,98.727,95.2696,0.00112929,0.0758655,20.9975,206.124,0.314754,0.0,0.0
18,4.25,18.0902,18.4472,161.202,98.7447,95.4566,0.0010929,0.0754929,20.9983,206.084,0.299036,0.0,0.0
21,5,17.9175,18.7456,159.067,98.7399,95.65,0.001017,0.075012,20.9989,206.174,0.280728,0.0,0.0
24,5.75,18.5452,18.6318,165.104,98.7362,95.1648,0.000946066,0.0747037,20.9993,206.144,0.325311,0.0,0.0
27,6.5,17.9107,18.8054,161.242,98.7455,95.7671,0.00086768,0.0740291,21.0003,206.134,0.270428,0.0,0.0
30,7.25,18.0798,18.7938,163.621,98.7524,95.628,0.000824627,0.0733142,21.001,206.164,0.283882,0.0,0.0
33,8,18.0052,18.3714,157.891,98.754,94.8554,0.000793241,0.072698,21.0019,206.134,0.355649,0.0,0.0
36,8.75,18.6574,19.034,162.19,98.7629,95.1537,0.000805048,0.0718712,21.0028,206.144,0.328716,0.0,0.0
39,9.5,17.8501,18.9243,163.954,98.7613,95.1721,0.000831697,0.0711584,21.0036,206.144,0.326868,0.0,0.0
42,10.25,18.3799,18.582,159.509,98.7641,95.2541,0.000856688,0.0704508,21.0039,206.144,0.319514,0.0,0.0
45,11,18.599,18.9818,159.448,98.7799,94.9856,0.000874905,0.069935,21.0041,206.144,0.345848,0.0,0.0
48,11.75,18.1243,18.4586,162.726,98.769,95.5606,0.000886234,0.0692798,21.0043,206.124,0.291582,0.0,0.0
51,12.5,17.938,19.3188,159.001,98.7609,95.1178,0.000891154,0.0687604,21.0044,206.114,0.331868,0.0,0.0
54,13.25,18.4071,18.8158,159.765,98.7742,95.0619,0.000883685,0.068342,21.0045,206.114,0.338252,0.0,0.0
57,14,18.5846,18.7684,162.257,98.777,95.468,0.000859333,0.0679994,21.0046,206.114,0.300868,0.0,0.0
60,14.75,18.2518,19.0676,158.642,98.7936,95.0346,0.000823962,0.0677079,21.0046,206.104,0.342524,0.0,0.0
63,15.5,18.6754,18.8956,160.135,98.7782,95.3925,0.000808059,0.0674776,21.0047,206.104,0.307962,0.0,0.0
66,16.25,18.3391,19.0546,159.394,98.7859,94.9248,0.000814987,0.0672105,21.0047,206.104,0.352043,0.0,0.0
69,17,18.491,18.7022,165.802,98.7944,95.195,0.000844505,0.0669865,21.0047,206.104,0.327708,0.0,0.0
72,17.75,18.4807,19.3252,158,98.7924,95.0705,0.000904829,0.0667731,21.005,206.114,0.339079,0.0,0.0
75,18.5,18.1725,18.601,160.916,98.7839,95.6198,0.000960479,0.0666175,21.0055,206.104,0.287451,0.0,0.0
78,19.25,18.3023,18.8689,158.105,98.8069,95.1399,0.00102101,0.0664624,21.006,206.094,0.333937,0.0,0.0
81,20,18.7188,19.1045,158.488,98.8008,95.3345,0.00107361,0.0663461,21.0063,206.094,0.315348,0.0,0.0
84,20.75,18.7859,19.1808,161.039,98.8117,95.0129,0.00112644,0.0662864,21.0067,206.094,0.346157,0.0,0.0
87,21.5,18.5804,18.8614,159.261,98.8033,95.2219,0.00116619,0.0662298,21.0071,206.094,0.326004,0.0,0.0
90,22.25,18.5692,18.9884,159.571,98.8222,95.3713,0.00118983,0.0661829,21.0073,206.074,0.313859,0.0,0.0
93,23,18.5516,18.8341,163.64,98.8239,94.8105,0.00119704,0.0661487,21.0075,206.084,0.366071,0.0,0.0
96,23.75,18.8954,18.7724,158.024,98.8299,95.3194,0.00117581,0.0661384,21.0076,206.084,0.319344,0.0,0.0
99,24.5,18.2462,18.913,161.598,98.8182,94.9423,0.00115043,0.066156,21.0077,206.084,0.353299,0.0,0.0
102,25.25,17.9508,18.437,163.107,98.8352,95.3051,0.00112772,0.0660894,21.0078,206.084,0.321137,0.0,0.0
105,26,18.2879,18.7892,165.738,98.8384,94.6493,0.00111116,0.066027,21.0072,206.084,0.382395,0.0,0.0
108,26.75,18.0597,18.8057,164.772,98.8331,94.8293,0.00112012,0.0659755,21.0068,206.074,0.365152,0.0,0.0
111,27.5,18.2307,19.1906,159.252,98.8259,94.8024,0.00113562,0.0659777,21.0065,206.074,0.367011,0.0,0.0
114,28.25,18.1384,18.8752,157.845,98.8311,94.2355,0.00116988,0.0659654,21.0062,206.084,0.420435,0.0,0.0
117,29,18.4799,19.3455,161.745,98.8424,94.9921,0.00118876,0.0659578,21.0061,206.084,0.350834,0.0,0.0
120,29.75,18.3468,18.8906,161.819,98.844,94.9889,0.0011921,0.0659648,21.0059,206.064,0.351282,0.0,0.0
123,30.5,18.5461,19.4845,157.57,98.8436,95.1317,0.00118117,0.0659977,21.0058,206.064,0.337977,0.0,0.0
126,31.25,18.1869,18.7353,158.64,98.8396,94.6877,0.0011732,0.0660335,21.0055,206.064,0.378925,0.0,0.0
129,32,18.7595,19.0602,161.806,98.8493,94.5714,0.00111975,0.0662173,21.0051,206.064,0.390644,0.0,0.0
132,32.75,17.881,19.1996,164.65,98.8489,95.0219,0.00107461,0.0664306,21.0048,206.084,0.348641,0.0,0.0
135,33.5,18.436,18.8233,160.01,98.8461,94.5171,0.00103906,0.0665862,21.0046,206.084,0.395424,0.0,0.0
138,34.25,18.2014,19.4104,164.146,98.8465,94.0278,0.00102798,0.0668944,21.0042,206.325,0.441291,0.0,0.0
141,35,18.3215,18.4111,162.943,98.8598,94.3343,0.001036,0.0672828,21.0035,209.718,0.413747,0.0,0.0
144,35.75,18.0391,19.0278,162.028,98.8622,94.5571,0.00105855,0.0677038,21.0023,209.417,0.393131,0.0,0.0
147,36.5,18.772,19.3308,159.958,98.8562,94.3367,0.0011156,0.0680386,21.0015,207.466,0.413193,0.0,0.0
150,37.25,18.9582,18.6286,159.738,98.8513,94.1078,0.00118692,0.0682945,21.0007,205.914,0.434216,0.0,0.0
153,38,18.7204,18.8829,161.973,98.8662,93.7429,0.00126137,0.0685406,20.9997,205.234,0.469849,0.0,0.0
156,38.75,18.5384,19.1277,161.025,98.8695,93.7156,0.00133239,0.069152,20.9971,205.564,0.472714,0.0,0.0
159,39.5,18.5282,19.0338,162.095,98.865,93.6527,0.00139036,0.0697819,20.9925,206.204,0.47824,0.0,0.0
162,40.25,18.484,19.424,164.215,98.8582,94.9264,0.00143526,0.072951,20.9854,205.744,0.35835,0.0,0.0
165,41,18.3977,18.7577,158.21,98.8747,94.1776,0.00150646,0.078606,20.9771,206.034,0.429762,0.0,1.0
168,41.75,18.124,19.0641,154.109,98.8691,93.5421,0.00157477,0.0868151,20.9654,206.024,0.489033,0.0,1.0
171,42.5,18.683,19.38,155.641,98.8662,92.5509,0.00172737,0.0973492,20.9479,205.904,0.582851,0.0,1.0
174,43.25,18.3758,18.8967,154.519,98.8626,90.5585,0.00192205,0.110762,20.9277,205.864,0.774683,0.0,1.0
177,44,18.8158,19.6539,154.65,98.8646,88.8057,0.00214815,0.122985,20.9066,206.024,0.947445,0.0,1.0
180,44.75,19.128,19.6775,152.368,98.8788,88.1886,0.00239611,0.137253,20.8792,205.964,1.01027,0.0,1.0
183,45.5,18.7712,19.1796,153.699,98.8788,87.3071,0.00273754,0.152048,20.853,205.864,1.09898,0.0,1.0
186,46.25,19.2556,19.4817,153.081,98.8784,86.1734,0.00310193,0.166443,20.8289,205.904,1.21435,0.0,1.0
189,47,19.2443,19.9954,151.659,98.8711,84.4423,0.00341681,0.181048,20.8073,205.834,1.39289,0.0,1.0
192,47.75,19.5155,19.8933,151.307,98.8937,83.5322,0.00387818,0.194331,20.7872,205.794,1.49059,0.0,1.0
195,48.5,19.4792,20.494,148.138,98.8772,83.795,0.00428441,0.206416,20.7706,205.814,1.46137,0.0,1.0
198,49.25,19.8785,20.2713,145.834,98.878,82.4907,0.00470007,0.217412,20.7528,205.774,1.59997,0.0,0.0
201,50,20.3902,20.7647,146.104,98.8731,81.4068,0.00512745,0.228016,20.7377,205.744,1.71633,0.0,0.0
204,50.75,20.5063,21.0201,148.78,98.8844,81.2248,0.00553756,0.23685,20.7167,205.724,1.7371,0.0,0.0
207,51.5,21.0214,21.5107,151.115,98.8691,80.3788,0.0060547,0.24737,20.7008,205.674,1.82818,0.0,0.0
210,52.25,21.3728,21.8136,149.735,98.88,79.8711,0.00629461,0.256377,20.6906,205.644,1.8851,0.0,0.0
213,53,21.4208,21.9706,144.171,98.8763,77.4457,0.00661211,0.26523,20.6762,205.634,2.15705,0.0,0.0
216,53.75,21.9025,22.3764,147.337,98.8804,77.0531,0.00691256,0.27766,20.663,205.594,2.20229,0.0,0.0
219,54.5,22.1585,22.6943,151.704,98.8917,77.4641,0.00713159,0.287432,20.6491,205.544,2.15633,0.0,0.0
222,55.25,22.4196,22.8962,151.757,98.9026,78.8459,0.00742273,0.292426,20.6371,205.514,2.00118,0.0,0.0
225,56,22.7152,23.337,141.376,98.8743,76.736,0.0076613,0.302376,20.6276,205.464,2.23816,0.0,0.0
228,56.75,23.2168,23.7762,142.182,98.8937,75.5187,0.00781479,0.30963,20.6179,205.414,2.38109,0.0,0.0
231,57.5,23.2412,24.2011,147.71,98.8828,77.931,0.00805249,0.317846,20.6031,205.374,2.10248,0.0,0.0
234,58.25,23.8659,24.6153,147.493,98.901,74.9273,0.00830553,0.325084,20.5887,205.334,2.45116,0.0,0.0
237,59,24.1827,24.8745,143.862,98.8921,74.2658,0.00853675,0.332372,20.5746,205.294,2.52867,0.0,0.0
240,59.75,24.7887,25.3972,148.276,98.8981,74.4192,0.00874587,0.33679,20.5617,205.274,2.51098,0.0,0.0
243,60.5,24.8648,25.6753,146.229,98.9026,72.9811,0.00894473,0.342785,20.5476,205.214,2.68369,0.0,0.0
246,61.25,25.4614,26.2564,144.39,98.899,74.7265,0.00910949,0.349471,20.5358,205.174,2.47467,0.0,0.0
249,62,25.8613,26.7932,140.126,98.9074,73.0427,0.00930509,0.357054,20.524,205.123,2.67667,0.0,0.0
252,62.75,26.1166,26.875,143.73,98.9002,73.2455,0.00947081,0.363677,20.5142,205.083,2.65153,0.0,0.0
255,63.5,26.4398,27.3441,147.977,98.9062,73.2317,0.00963116,0.370378,20.5019,205.023,2.65375,0.0,0.0
258,64.25,25.9282,26.7802,138.816,98.9034,70.9895,0.00979604,0.377866,20.4908,204.983,2.92806,0.0,0.0
261,65,28.028,29.0107,141.667,98.8973,71.9237,0.00994472,0.384319,20.4796,204.943,2.81208,0.0,0.0
264,65.75,27.5795,28.6589,140.196,98.8917,71.3581,0.0100748,0.390722,20.4678,204.903,2.88129,0.0,0.0
267,66.5,28.5742,29.2632,140.161,98.901,73.0847,0.0101859,0.396845,20.4561,204.853,2.67101,0.0,0.0
270,67.25,28.8469,29.8874,139.881,98.8957,72.0449,0.0102799,0.401928,20.4471,204.803,2.79707,0.0,0.0
273,68,28.7631,29.9069,144.714,98.8994,73.0949,0.0103484,0.406369,20.4403,204.763,2.66963,0.0,0.0
276,68.75,29.1777,30.3962,142.505,98.8961,72.6322,0.0103909,0.410219,20.4345,204.713,2.72543,0.0,0.0
279,69.5,29.8413,31.7004,140.694,98.9082,72.4008,0.0103999,0.413595,20.4295,204.673,2.75468,0.0,0.0
282,70.25,30.2188,31.5097,141.373,98.8977,72.4963,0.0103971,0.416298,20.4249,204.613,2.74211,0.0,0.0
285,71,30.9956,32.3939,135.407,98.903,73.7965,0.0103469,0.419106,20.421,204.563,2.58562,0.0,0.0
288,71.75,31.4587,32.726,138.978,98.8981,71.8943,0.0102961,0.42128,20.4178,204.523,2.81576,0.0,0.0
291,72.5,31.7275,33.3271,137.339,98.9062,73.492,0.0102557,0.423083,20.4148,204.443,2.62241,0.0,0.0
294,73.25,32.2122,33.7887,140.628,98.909,72.4693,0.010231,0.424553,20.412,204.403,2.7464,0.0,0.0
297,74,32.2113,33.6615,134.397,98.9131,71.1867,0.0102478,0.425948,20.4092,204.363,2.90444,0.0,0.0
300,74.75,32.7734,34.3665,139.226,98.9086,72.8578,0.010275,0.427404,20.406,204.323,2.69915,0.0,0.0
303,75.5,33.4317,35.3549,142.443,98.9135,72.18,0.0103725,0.429084,20.4032,204.263,2.78212,0.0,0.0
306,76.25,33.7563,35.6923,143.73,98.9204,72.6048,0.0104545,0.430601,20.401,204.213,2.73091,0.0,0.0
309,77,34.1969,35.8782,139.991,98.9143,72.5881,0.0105329,0.432208,20.3984,204.163,2.73241,0.0,0.0
312,77.75,34.6125,36.4993,135.002,98.9119,72.1033,0.0105901,0.433901,20.3949,204.133,2.79136,0.0,0.0
315,78.5,34.5103,36.4353,137.789,98.9167,73.6108,0.0106429,0.435359,20.3924,204.093,2.60909,0.0,0.0
318,79.25,34.9643,36.9818,139.181,98.9256,75.3497,0.010698,0.437193,20.3906,204.022,2.40372,0.0,0.0
321,80,35.6004,37.9137,137.343,98.9349,73.5843,0.0107473,0.43853,20.389,203.982,2.61389,0.0,0.0
324,80.75,36.0483,38.313,138.32,98.9232,72.7979,0.0107871,0.439417,20.3875,203.932,2.70772,0.0,0.0
327,81.5,36.2758,38.449,139.023,98.922,73.2729,0.0108143,0.439835,20.3859,203.892,2.65018,0.0,0.0
330,82.25,37.0012,39.0359,138.394,98.9264,70.7361,0.0108341,0.440085,20.3846,203.842,2.96169,0.0,0.0
333,83,37.3927,39.6278,140.957,98.9317,71.7054,0.0108171,0.440314,20.3834,203.792,2.84199,0.0,0.0
336,83.75,37.4894,39.9299,135.725,98.9244,72.08,0.0107866,0.440581,20.3825,203.732,2.79533,0.0,0.0
339,84.5,37.6863,40.0817,139.261,98.9349,74.2034,0.0107566,0.440776,20.3819,203.682,2.53991,0.0,0.0
342,85.25,38.2977,40.9061,136.009,98.9333,75.253,0.0107181,0.440765,20.3814,203.652,2.41574,0.0,0.0
345,86,38.3949,41.079,141.618,98.9309,74.2935,0.0106816,0.440527,20.3819,203.582,2.52883,0.0,0.0
348,86.75,38.8919,41.5704,138.096,98.9401,73.9785,0.0106292,0.439962,20.3833,203.542,2.56718,0.0,0.0
351,87.5,39.373,41.8587,139.983,98.9236,73.523,0.0105734,0.439027,20.3862,203.502,2.62023,0.0,0.0
354,88.25,39.3199,41.9335,136.437,98.9397,75.8994,0.0105051,0.437977,20.3884,203.462,2.34079,0.0,0.0
357,89,39.9586,42.663,139.999,98.9365,74.858,0.0104362,0.437265,20.3899,203.392,2.46251,0.0,0.0
360,89.75,40.226,42.9579,136.435,98.9531,74.9763,0.0103534,0.436393,20.3917,203.332,2.45003,0.0,0.0
363,90.5,40.5293,43.2174,139.64,98.9276,75.3918,0.0102543,0.43574,20.393,203.322,2.39897,0.0,0.0
366,91.25,40.6715,43.4128,137.336,98.9393,74.183,0.0101588,0.435256,20.394,203.272,2.54274,0.0,0.0
369,92,41.0153,43.8791,139.49,98.9563,73.563,0.0100792,0.434284,20.3953,203.202,2.61835,0.0,0.0
372,92.75,41.4164,44.2821,140.588,98.9409,75.91,0.00999535,0.432918,20.3976,203.162,2.33967,0.0,0.0
375,93.5,41.556,44.5684,139.763,98.9345,75.5403,0.00991226,0.431641,20.3998,203.122,2.3822,0.0,0.0
378,94.25,41.6422,44.9317,137.997,98.9414,74.8008,0.00984233,0.430119,20.4023,203.082,2.46968,0.0,0.0
381,95,41.7698,44.8379,140.164,98.9434,76.1933,0.00974718,0.428631,20.405,203.022,2.307,0.0,0.0
384,95.75,42.3241,45.4591,137.204,98.9478,76.5606,0.00967782,0.427386,20.4074,203.002,2.26494,0.0,0.0
387,96.5,42.2317,45.5225,149.685,98.9361,77.8236,0.00959232,0.42606,20.4091,202.941,2.11941,0.0,0.0
390,97.25,42.6843,45.8436,146.525,98.9482,77.6637,0.00951914,0.424976,20.4103,202.891,2.13866,0.0,0.0
393,98,42.7477,46.0315,134.804,98.9535,76.5785,0.00944723,0.423984,20.4119,202.851,2.26337,0.0,0.0
396,98.75,43.2136,46.4991,136.13,98.9377,76.8744,0.0093746,0.422504,20.4148,202.821,2.22791,0.0,0.0
399,99.5,43.2424,46.4878,140.451,98.9462,77.0544,0.00931522,0.421102,20.4177,202.751,2.20802,0.0,0.0
402,100.25,43.88,47.2408,144.964,98.949,78.5648,0.00926919,0.418833,20.4215,202.731,2.03687,0.0,0.0
405,101,44.0958,47.5169,142.357,98.9349,76.4524,0.00922953,0.416836,20.4255,202.681,2.27626,0.0,0.0
408,101.75,43.6426,47.2084,144.239,98.9357,78.0122,0.00919019,0.41492,20.429,202.651,2.09801,0.0,0.0
411,102.5,44.6662,47.8622,145.934,98.93,78.6035,0.00913592,0.412985,20.4333,202.601,2.03082,0.0,0.0
414,103.25,44.2939,47.7055,142.06,98.9248,79.0753,0.00909635,0.411575,20.4372,202.561,1.97752,0.0,0.0
417,104,44.1074,47.8273,145.385,98.9405,77.4861,0.00904549,0.409089,20.4408,202.511,2.15818,0.0,0.0
420,104.75,45.0143,48.183,143.87,98.9276,78.4758,0.00900571,0.40641,20.4437,202.481,2.04497,0.0,0.0
423,105.5,43.7188,47.5691,143.805,98.93,78.2624,0.00897207,0.404089,20.4484,202.431,2.06923,0.0,0.0
426,106.25,44.9629,48.3773,145.939,98.9147,79.3238,0.00892372,0.401227,20.4535,202.411,1.94891,0.0,0.0
429,107,45.0327,49.145,145.964,98.9292,78.3215,0.00885249,0.398642,20.459,202.341,2.06248,0.0,0.0
432,107.75,45.571,49.2324,146.985,98.9119,78.5721,0.00878523,0.395699,20.4646,202.301,2.03273,0.0,0.0
435,108.5,45.1412,48.8451,141.376,98.924,78.5635,0.00866298,0.392882,20.4699,202.281,2.03478,0.0,0.0
438,109.25,45.0063,48.6337,144.333,98.9046,79.3038,0.00849891,0.390541,20.4747,202.231,1.95023,0.0,0.0
441,110,45.5831,49.0358,141.754,98.9183,78.5321,0.00837931,0.387686,20.4799,202.201,2.0378,0.0,0.0
444,110.75,45.8683,49.4181,144.384,98.9191,79.2879,0.00824281,0.384174,20.4849,202.171,1.9533,0.0,0.0
447,111.5,46.0872,50.0251,142.377,98.9187,79.1157,0.00814714,0.381088,20.4901,202.141,1.97247,0.0,0.0
450,112.25,46.3753,50.3286,142.444,98.8961,77.8143,0.00807904,0.377938,20.4955,202.081,2.1169,0.0,0.0
453,113,45.8286,49.751,140.721,98.9191,79.2018,0.00803293,0.374994,20.4999,202.051,1.9629,0.0,0.0
456,113.75,46.0988,49.8298,145.229,98.9014,78.8835,0.00799865,0.372572,20.5032,202.001,1.99687,0.0,0.0
459,114.5,46.1498,49.8777,144.707,98.9026,78.5941,0.00797251,0.370073,20.5078,201.961,2.02943,0.0,0.0
462,115.25,46.8377,50.6304,142.565,98.8868,80.016,0.00795345,0.367293,20.5134,201.931,1.86971,0.0,0.0
465,116,46.183,50.3379,143.302,98.8933,80.0682,0.00793686,0.364857,20.5184,201.901,1.86452,0.0,0.0
468,116.75,46.6073,50.5099,144.859,98.901,79.6311,0.00792016,0.361158,20.5246,201.861,1.91354,0.0,0.0
471,117.5,46.1191,50.1619,147.087,98.8981,78.9545,0.00788981,0.357461,20.53,201.831,1.98864,0.0,0.0
474,118.25,46.0076,50.0936,144.142,98.8933,80.7473,0.0078366,0.35434,20.5356,201.79,1.78995,0.0,0.0
477,119,45.8679,50.1523,142.788,98.9006,80.0123,0.00772855,0.350178,20.5419,201.75,1.87134,0.0,0.0
480,119.75,46.888,50.9109,143.138,98.8893,80.1127,0.00759364,0.346374,20.5486,201.71,1.85926,0.0,0.0
483,120.5,46.9162,51.1533,140.007,98.8872,80.8652,0.00743916,0.342285,20.5555,201.68,1.77652,0.0,0.0
486,121.25,46.7802,51.0738,152.122,98.8864,79.8282,0.0072715,0.337945,20.5643,201.65,1.89041,0.0,0.0
489,122,46.405,51.0157,142.001,98.8739,80.8142,0.00710983,0.333728,20.5716,201.63,1.7809,0.0,0.0
492,122.75,46.9572,51.2267,146.974,98.8699,82.5176,0.00697515,0.329842,20.5786,201.59,1.59636,0.0,0.0
495,123.5,46.0424,50.3825,142.524,98.8707,83.2898,0.00684251,0.325917,20.5846,201.57,1.5142,0.0,0.0
498,124.25,46.2432,50.4053,146.862,98.8699,82.145,0.00674582,0.322111,20.5906,201.53,1.63632,0.0,0.0
501,125,46.9697,50.6571,144.635,98.861,80.8705,0.00667537,0.318516,20.5956,201.49,1.7736,0.0,0.0
504,125.75,46.8095,50.9242,147.27,98.8602,81.4672,0.00662409,0.314191,20.6003,201.46,1.70862,0.0,0.0
507,126.5,46.2172,50.5728,148.418,98.8667,81.5749,0.00658851,0.311038,20.6064,201.44,1.69753,0.0,0.0
510,127.25,46.0452,50.1531,149.466,98.8545,83.9636,0.00654479,0.307405,20.6134,201.42,1.44161,0.0,0.0
513,128,46.2552,50.667,148.009,98.8449,82.2618,0.00648394,0.302475,20.6209,201.38,1.62155,0.0,0.0
516,128.75,46.2542,50.36,146.986,98.8477,81.8532,0.006403,0.29767,20.6308,201.35,1.66576,0.0,0.0
519,129.5,46.3649,50.3478,147.48,98.8566,82.3446,0.00627345,0.293651,20.6403,201.33,1.61371,0.0,0.0
522,130.25,45.6213,50.1561,148.833,98.8449,82.9972,0.00612833,0.289223,20.6493,201.31,1.54296,0.0,0.0
525,131,45.8893,50.014,144.244,98.8348,84.4015,0.00600094,0.284348,20.6578,201.29,1.39391,0.0,0.0
528,131.75,45.708,50.2336,150.525,98.8331,84.7847,0.00585873,0.28014,20.6658,201.26,1.35377,0.0,0.0
531,132.5,45.885,50.3601,150.495,98.8311,83.2029,0.0057267,0.275423,20.6724,201.24,1.51988,0.0,0.0
534,133.25,45.6593,49.6145,147.346,98.8279,83.0037,0.00561794,0.271079,20.6791,201.22,1.54075,0.0,0.0
537,134,45.8741,50.1199,152.013,98.8109,84.35,0.00553234,0.267016,20.6847,201.19,1.39717,0.0,0.0
540,134.75,45.7882,50.1097,149.453,98.819,83.8525,0.00545926,0.263673,20.69,201.16,1.45012,0.0,0.0
543,135.5,45.4934,49.6487,144.154,98.8121,83.833,0.00539234,0.259809,20.697,201.14,1.45157,0.0,0.0
546,136.25,45.3566,49.1457,147.709,98.8081,81.7875,0.00529133,0.256118,20.7035,201.1,1.66932,0.0,0.0
549,137,45.0619,49.353,149.94,98.7972,84.0219,0.00516095,0.253055,20.7099,201.08,1.43035,0.0,0.0
552,137.75,44.8338,49.3577,151.628,98.8033,85.0495,0.00504171,0.249317,20.7166,201.06,1.32356,0.0,0.0
555,138.5,44.9363,49.0208,153.406,98.792,85.3397,0.00488931,0.245632,20.7222,201.04,1.29248,0.0,0.0
558,139.25,44.9916,48.9477,147.381,98.7891,83.7089,0.00473045,0.242536,20.7274,201.03,1.46259,0.0,0.0
561,140,45.1415,49.0481,151.421,98.7815,85.6874,0.00458069,0.238742,20.7332,201,1.25564,0.0,0.0
564,140.75,45.2551,49.1733,147.854,98.7786,86.2138,0.00443886,0.234916,20.7385,200.97,1.2013,0.0,0.0
567,141.5,44.4431,48.6,151.081,98.7827,86.6803,0.0043037,0.231675,20.7444,200.97,1.15402,0.0,0.0
570,142.25,44.4986,48.7162,153.44,98.775,85.2066,0.00417468,0.227464,20.7525,200.95,1.30474,0.0,0.0
573,143,44.3492,48.7167,152.724,98.7782,85.7588,0.00403232,0.223824,20.7598,200.93,1.24799,0.0,0.0
576,143.75,44.3434,48.3085,151.002,98.7625,87.0925,0.00390725,0.220198,20.7656,200.92,1.11032,0.0,0.0
579,144.5,44.0314,48.175,153.693,98.7698,87.8201,0.00380699,0.216082,20.7731,200.9,1.03751,0.0,0.0
582,145.25,43.6977,47.7683,151.409,98.7633,87.4067,0.00370885,0.212539,20.7794,200.89,1.07859,0.0,0.0
585,146,43.4793,47.6261,155.767,98.7738,86.9631,0.00361346,0.20903,20.7856,200.87,1.12446,0.0,0.0
588,146.75,43.5011,47.4894,156.944,98.7548,86.9815,0.00352139,0.205199,20.7902,200.84,1.1209,0.0,0.0
591,147.5,43.2685,47.2827,154.126,98.7524,87.9597,0.00345427,0.201829,20.796,200.82,1.02193,0.0,0.0
594,148.25,43.5438,47.4624,154.644,98.7496,86.9403,0.00334659,0.198384,20.8012,200.82,1.12462,0.0,0.0
597,149,43.2228,47.3156,154.019,98.7528,89.1097,0.00322924,0.194524,20.8066,200.79,0.907273,0.0,0.0
600,149.75,42.7301,46.7697,154.598,98.7326,89.1979,0.00310827,0.19171,20.8125,200.76,0.896737,0.0,0.0
603,150.5,42.9682,47.1314,154.813,98.7512,87.9438,0.00299987,0.188216,20.8194,200.78,1.02342,0.0,0.0
606,151.25,42.2495,45.9571,154.446,98.7387,89.0934,0.00290712,0.185053,20.8262,200.76,0.907627,0.0,0.0
609,152,42.2514,46.4554,153.133,98.7225,88.92,0.00283366,0.181512,20.8319,200.73,0.923388,0.0,0.0
612,152.75,42.4394,46.2724,153.06,98.7245,88.6992,0.00276588,0.178126,20.8373,200.73,0.945519,0.0,0.0
615,153.5,41.9238,45.8161,155.134,98.7136,90.4691,0.00270401,0.174953,20.8424,200.73,0.770087,0.0,0.0
618,154.25,41.562,45.3279,160.874,98.7221,89.839,0.00265359,0.172022,20.8468,200.719,0.832559,0.0,0.0
621,155,41.2032,45.4522,154.966,98.7023,90.5083,0.00259004,0.169055,20.8514,200.71,0.765252,0.0,0.0
624,155.75,41.3695,45.1168,155.541,98.7128,90.8687,0.00252877,0.166117,20.8561,200.689,0.731105,0.0,0.0
627,156.5,41.0667,45.0418,158.394,98.6963,90.6854,0.00246922,0.163255,20.8609,200.669,0.747448,0.0,0.0
630,157.25,41.1449,44.9077,154.565,98.6939,91.1286,0.00241123,0.160502,20.8663,200.659,0.704183,0.0,0.0
633,158,40.9826,44.6909,151.733,98.6898,90.4899,0.00236364,0.157815,20.8715,200.659,0.765924,0.0,0.0
636,158.75,40.4727,44.334,152.462,98.6769,90.847,0.00232894,0.155179,20.8759,200.639,0.729992,0.0,0.0
639,159.5,40.0998,44.2484,152.626,98.6789,90.976,0.00231361,0.152636,20.8805,200.639,0.717647,0.0,0.0
642,160.25,40.0535,43.7289,153.293,98.6821,91.6432,0.00230864,0.150042,20.8844,200.619,0.653412,0.0,0.0
645,161,40.0299,43.6057,158.308,98.6825,91.3074,0.00230846,0.147947,20.8868,200.609,0.685868,0.0,0.0
648,161.75,39.9415,43.4598,156.637,98.668,92.284,0.00230292,0.1457,20.8905,200.589,0.590629,0.0,0.0
651,162.5,39.4686,43.2867,156.086,98.6595,92.3721,0.00228643,0.143755,20.894,200.599,0.58144,0.0,0.0
654,163.25,39.4507,42.9942,153.458,98.6628,92.3778,0.00225798,0.14164,20.8974,200.579,0.581184,0.0,0.0
657,164,39.2101,42.6325,154.607,98.67,91.4473,0.0022182,0.14034,20.9011,200.559,0.671223,0.0,0.0
660,164.75,38.5774,42.7239,157.58,98.6474,92.5513,0.00215019,0.138556,20.9043,200.569,0.563248,0.0,0.0
663,165.5,38.7019,42.2818,157.187,98.6345,92.9471,0.00210061,0.136683,20.907,200.559,0.524404,0.0,0.0
666,166.25,38.7137,41.8193,158.358,98.649,92.3333,0.00201612,0.134786,20.9094,200.549,0.584207,0.0,0.0
669,167,37.9724,41.8547,152.774,98.6438,93.1569,0.00192477,0.133031,20.9115,200.529,0.505331,0.0,0.0
672,167.75,38.2411,41.7867,153.405,98.6397,93.3605,0.00184254,0.131593,20.914,200.529,0.485689,0.0,0.0
675,168.5,38.1594,41.6281,153.811,98.6361,93.4544,0.00176844,0.130029,20.9162,200.519,0.47649,0.0,0.0
678,169.25,37.8775,41.6741,152.55,98.6442,93.0271,0.00171442,0.128459,20.918,200.519,0.517676,0.0,0.0
681,170,37.5452,41.1481,157.598,98.6389,93.1104,0.00167256,0.126954,20.9197,200.519,0.509308,0.0,0.0
684,170.75,37.2915,40.7552,154.857,98.6288,93.6001,0.00165712,0.125389,20.9219,200.519,0.462085,0.0,0.0
687,171.5,37.2917,40.952,158.961,98.6179,94.0368,0.00165273,0.123863,20.9239,200.489,0.420011,0.0,0.0
690,172.25,37.3336,40.6186,160.316,98.6333,94.5306,0.00168848,0.122586,20.9255,200.499,0.375138,0.0,0.0
693,173,37.2088,40.6149,155.711,98.6284,93.6556,0.00172108,0.121296,20.928,200.499,0.456814,0.0,0.0
696,173.75,36.7296,39.9761,157.204,98.6228,93.161,0.00175602,0.11974,20.9303,200.489,0.503065,0.0,0.0
699,174.5,36.5615,39.9381,153.849,98.622,93.9857,0.00177972,0.118079,20.9327,200.499,0.425164,0.0,0.0
702,175.25,36.1021,39.8825,153.502,98.6446,93.6846,0.00179451,0.116652,20.9352,200.489,0.455528,0.0,0.0
705,176,35.7665,39.1817,156.753,98.6696,93.4654,0.00180424,0.11524,20.9374,200.469,0.478449,0.0,0.0
708,176.75,35.8465,39.2421,158.053,98.7035,93.9258,0.0018131,0.113743,20.9392,200.469,0.438101,0.0,0.0
711,177.5,35.7221,38.8792,154.175,98.691,94.3057,0.00182453,0.112229,20.9418,200.459,0.401335,0.0,0.0
714,178.25,35.6658,38.6025,164.27,98.706,93.947,0.00184021,0.110742,20.9445,200.459,0.436322,0.0,0.0
717,179,35.3926,38.7162,160.529,98.7253,94.5359,0.00186059,0.109304,20.9469,200.449,0.38288,0.0,0.0
720,179.75,35.1347,38.6246,156.54,98.7467,94.2951,0.00187544,0.107905,20.9491,200.429,0.407313,0.0,0.0
723,180.5,35.3181,38.6077,159.58,98.7669,94.0196,0.00188095,0.106541,20.9509,200.429,0.43495,0.0,0.0
726,181.25,35.0431,38.2112,157.677,98.7823,94.7587,0.00187255,0.105022,20.9522,200.429,0.367183,0.0,0.0
729,182,34.8701,37.6702,158.829,98.8073,95.024,0.00184519,0.103722,20.954,200.439,0.344737,0.0,0.0
732,182.75,34.8032,37.6063,161.126,98.8174,94.762,0.00178806,0.102444,20.956,200.419,0.370018,0.0,0.0
735,183.5,34.6528,37.7862,158.21,98.8182,94.0041,0.00172534,0.10123,20.9578,200.439,0.440989,0.0,0.0
738,184.25,34.3597,37.1744,158.21,98.8428,94.7701,0.00166866,0.0998632,20.9611,200.429,0.37153,0.0,0.0
741,185,34.4243,37.3404,162.214,98.8521,94.9693,0.00162399,0.0983243,20.9639,200.419,0.353823,0.0,0.0
744,185.75,33.728,37.0192,156.683,98.8864,94.6171,0.00161443,0.0968365,20.9661,200.409,0.389694,0.0,0.0
747,186.5,33.7876,36.562,156.77,98.8994,94.4881,0.00160745,0.0954257,20.9681,200.409,0.402891,0.0,0.0
750,187.25,33.2188,36.2099,158.094,98.9159,95.1101,0.0016537,0.0941062,20.9703,200.409,0.346439,0.0,0.0
753,188,33.4904,36.8302,158.962,98.9288,94.9452,0.00169134,0.0927635,20.9723,200.419,0.362913,0.0,0.0
756,188.75,33.5405,36.6007,159.719,98.9442,94.8171,0.00172548,0.0915482,20.9741,200.409,0.376207,0.0,0.0
759,189.5,32.6349,35.9475,158.136,98.9571,95.2843,0.00175037,0.0902579,20.9764,200.409,0.333952,0.0,0.0
762,190.25,32.5645,35.6634,156.726,98.9716,94.6567,0.0017659,0.0893173,20.9784,200.409,0.393605,0.0,0.0
765,191,32.608,35.8758,157.036,98.9902,94.3845,0.00177276,0.0875718,20.9805,200.399,0.42069,0.0,0.0
768,191.75,32.7331,35.6328,158.843,99.008,94.671,0.00176358,0.0857953,20.982,200.409,0.395514,0.0,0.0
771,192.5,32.2524,35.1952,160.494,99.0169,94.309,0.0017569,0.0840719,20.9836,200.409,0.430133,0.0,0.0
774,193.25,32.6094,35.454,158.446,99.0209,94.9219,0.00171728,0.0824505,20.9856,200.399,0.373289,0.0,0.0
777,194,32.3589,34.6476,158.296,99.0391,94.3082,0.00167359,0.0810406,20.9873,200.399,0.432189,0.0,0.0
780,194.75,31.5598,35.3109,159.397,99.0496,94.9432,0.00161344,0.0796228,20.9891,200.399,0.37387,0.0,0.0
783,195.5,30.8738,34.2037,167.553,99.0734,93.7548,0.00155472,0.0783983,20.9908,200.389,0.487213,0.0,0.0
786,196.25,31.1713,33.9453,159.719,99.079,94.7885,0.00150101,0.0771789,20.9924,200.399,0.390893,0.0,0.0
789,197,31.2175,33.364,160.891,99.0972,94.162,0.00145405,0.0760947,20.994,200.399,0.451061,0.0,0.0
792,197.75,30.8968,33.7747,157.168,99.1133,94.422,0.00142477,0.0751183,20.9954,200.399,0.428156,0.0,0.0
795,198.5,30.4512,33.8289,166.352,99.1202,95.0285,0.00141076,0.0742307,20.9964,200.399,0.372237,0.0,0.0
798,199.25,30.2582,33.0659,163.224,99.1279,94.8011,0.00140946,0.0734443,20.9978,200.399,0.394068,0.0,0.0
801,200,30.4878,32.6087,163.298,99.1404,94.7363,0.00140675,0.0727675,20.9988,200.389,0.401229,0.0,0.0
804,200.75,30.3374,32.6326,159.407,99.1594,94.8342,0.00140478,0.0721989,20.9995,200.389,0.393794,0.0,0.0
807,201.5,29.847,32.3845,161.248,99.1723,94.8375,0.00137484,0.0717049,21,200.379,0.394641,0.0,0.0
810,202.25,29.8528,32.7591,159.877,99.1683,94.5979,0.00131678,0.0712934,21.0004,200.379,0.416614,0.0,0.0
813,203,28.9457,31.586,162.042,99.1767,94.7097,0.00123324,0.0709057,21.0007,200.369,0.406937,0.0,0.0
816,203.75,28.6902,31.814,157.055,99.1832,95.0534,0.00110358,0.0705236,21.0013,200.369,0.375533,0.0,0.0
819,204.5,29.5017,31.7132,158.62,99.1905,94.8534,0.000979437,0.0702452,21.002,200.359,0.394776,0.0,0.0
822,205.25,28.8094,31.6345,158.835,99.1901,94.6999,0.000871105,0.0699428,21.0025,200.359,0.409037,0.0,0.0
825,206,29.075,31.5139,158.255,99.1993,94.9068,0.000783246,0.0696806,21.0028,200.359,0.390593,0.0,0.0
828,206.75,29.1241,31.227,162.694,99.2094,94.7473,0.000755619,0.0694863,21.003,200.359,0.406349,0.0,0.0
831,207.5,28.7318,30.4877,161.237,99.2195,94.9579,0.0007237,0.0693697,21.0032,200.369,0.387643,0.0,0.0
834,208.25,28.8517,31.135,162.223,99.2353,94.5914,0.000764676,0.0692151,21.0034,200.369,0.423189,0.0,0.0
837,209,29.1881,30.8046,159.523,99.2183,94.6036,0.000867622,0.0690361,21.0036,200.359,0.420537,0.0,0.0
840,209.75,28.4743,30.8365,159.052,99.2292,94.6444,0.000962146,0.0689007,21.0039,200.359,0.417698,0.0,0.0
843,210.5,28.6689,31.2754,159.481,99.2377,95.6451,0.00106462,0.0686606,21.0041,200.349,0.325587,0.0,0.0
846,211.25,27.4004,30.2442,154.328,99.2458,95.4708,0.00113189,0.0684501,21.0042,200.359,0.342407,0.0,0.0
849,212,28.2782,30.3752,162.188,99.2434,94.9762,0.00116081,0.0683175,21.0043,200.349,0.388056,0.0,0.0
852,212.75,27.8047,30.0964,157.262,99.2438,94.4163,0.00115293,0.0681792,21.0044,200.349,0.440301,0.0,0.0
855,213.5,27.1902,29.2971,155.973,99.2567,94.7567,0.00110131,0.0680532,21.0045,200.359,0.409677,0.0,0.0
858,214.25,27.9756,29.8494,162.086,99.2522,94.9579,0.00106368,0.0679488,21.0045,200.349,0.390553,0.0,0.0
861,215,26.9717,29.8349,161.374,99.2603,95.61,0.000986887,0.0678588,21.0046,200.349,0.330838,0.0,0.0
864,215.75,27.2626,29.7584,166.85,99.2502,95.2109,0.000930907,0.0677726,21.0046,200.379,0.366878,0.0,0.0
867,216.5,27.9857,29.8911,161.135,99.2696,94.9113,0.000868957,0.0676847,21.0043,200.369,0.396425,0.0,0.0
870,217.25,27.7558,29.938,163.669,99.2781,95.3513,0.000823795,0.0676008,21.004,200.379,0.356346,0.0,0.0
873,218,27.1843,29.6455,160.68,99.2753,94.9228,0.000790872,0.0675396,21.0044,200.389,0.395866,0.0,0.0
876,218.75,27.0147,29.5697,160.684,99.2797,94.7407,0.000787242,0.0674803,21.0047,200.369,0.413207,0.0,0.0
879,219.5,27.0901,29.2676,159.114,99.2817,95.6994,0.000805792,0.0674121,21.0049,200.349,0.324491,0.0,0.0
882,220.25,27.3694,28.8292,158.862,99.2849,95.0913,0.000827224,0.0673226,21.0048,200.359,0.381063,0.0,0.0
885,221,26.9685,29.0471,160.918,99.2938,94.8207,0.000872825,0.0672713,21.0047,200.339,0.407012,0.0,0.0
888,221.75,26.2818,28.6039,161.245,99.291,95.248,0.000906068,0.0672237,21.0047,200.339,0.367061,0.0,0.0
891,222.5,26.3083,28.6274,160.416,99.3039,95.0027,0.000917957,0.067196,21.0047,200.349,0.390976,0.0,0.0
894,223.25,26.1976,28.7245,157.296,99.3011,95.3729,0.000895727,0.06715,21.0047,200.359,0.35639,0.0,0.0
897,224,26.5855,28.5069,161.27,99.3071,95.6333,0.000866349,0.0671106,21.0046,200.369,0.332856,0.0,0.0
900,224.75,26.0301,27.9013,161.544,99.3071,94.9497,0.0007921,0.067062,21.0046,200.359,0.396196,0.0,0.0
903,225.5,26.5142,28.4477,161.323,99.3116,94.8673,0.000725633,0.0670266,21.0046,200.349,0.404261,0.0,0.0
906,226.25,25.788,27.9125,159.555,99.318,95.7402,0.000681011,0.0670603,21.0046,200.329,0.323957,0.0,0.0
909,227,25.9523,28.1232,164.233,99.3378,94.8656,0.000664029,0.0671127,21.0046,200.329,0.406745,0.0,0.0
912,227.75,26.0819,27.9109,161.319,99.316,95.3203,0.000692156,0.0671848,21.0042,200.329,0.362594,0.0,0.0
915,228.5,26.1292,27.788,158.821,99.3411,95.0158,0.000712661,0.0672749,21.0036,200.349,0.393066,0.0,0.0
918,229.25,25.7365,27.1202,160.42,99.3334,95.3786,0.000784017,0.0673545,21.0033,200.349,0.358732,0.0,0.0
921,230,25.6012,27.2547,164.251,99.3411,95.3864,0.000844598,0.0674324,21.0031,200.339,0.358696,0.0,0.0
924,230.75,25.6443,27.1456,160.674,99.3386,95.3227,0.000889156,0.0674951,21.0031,200.329,0.364376,0.0,0.0
927,231.5,25.8334,27.4895,160.677,99.3411,95.6814,0.000916074,0.0675607,21.0031,200.329,0.331425,0.0,0.0
930,232.25,25.6354,27.6488,160.312,99.3588,95.63,0.000929514,0.0676309,21.0031,200.339,0.337751,0.0,0.0
933,233,25.2288,27.1345,161.763,99.352,94.611,0.000941232,0.0677204,21.0031,200.349,0.431737,0.0,0.0
936,233.75,25.3758,27.4062,161.854,99.3516,95.4966,0.000957564,0.0677856,21.0031,200.339,0.349436,0.0,0.0
939,234.5,25.4321,27.0527,160.903,99.358,95.3741,0.000988879,0.0678258,21.0031,200.339,0.361337,0.0,0.0
942,235.25,25.3685,27.5314,161.317,99.3637,94.5685,0.00101171,0.0678426,21.0031,200.339,0.436739,0.0,0.0
945,236,24.6743,26.9923,156.053,99.3693,95.2141,0.00103894,0.0678152,21.0031,200.339,0.377165,0.0,0.0
948,236.75,24.8379,26.4414,160.276,99.3734,95.8063,0.00105013,0.0677732,21.0031,200.329,0.322779,0.0,0.0
951,237.5,25.2506,26.0848,160.822,99.3786,95.5961,0.00104418,0.067705,21.0031,200.319,0.342637,0.0,0.0
954,238.25,24.988,26.7887,160.828,99.3774,95.0309,0.00102203,0.0677347,21.0031,200.319,0.394892,0.0,0.0
957,239,24.8517,26.3933,160.495,99.3931,94.9783,0.00100588,0.067727,21.0031,200.329,0.401183,0.0,0.0
960,239.75,24.637,26.3432,161.05,99.3742,95.4872,0.000943128,0.0676713,21.0033,200.329,0.352312,0.0,0.0
963,240.5,24.7985,25.7597,161.87,99.3713,95.7643,0.000891531,0.0676307,21.0037,200.319,0.326474,0.0,0.0
966,241.25,24.6176,26.0344,159.186,99.3798,95.3774,0.000843912,0.0676011,21.0038,200.309,0.362972,0.0,0.0
969,242,24.2646,25.4142,161.857,99.3863,95.5741,0.000802153,0.0675656,21.0038,200.319,0.345354,0.0,0.0
972,242.75,24.0577,25.7264,157.954,99.394,95.7528,0.000771711,0.0675338,21.0038,200.329,0.329537,0.0,0.0
975,243.5,24.2023,25.9108,161.293,99.3762,95.7357,0.000761847,0.0674102,21.0039,200.319,0.32954,0.0,0.0
978,244.25,24.3811,25.5599,164.641,99.3887,95.3072,0.000758362,0.0673341,21.0039,200.319,0.370262,0.0,0.0
981,245,24.7397,25.6678,159.785,99.3972,95.308,0.000758701,0.0672845,21.0039,200.309,0.370939,0.0,0.0
984,245.75,24.0272,25.6093,161.456,99.3984,95.1668,0.000761172,0.0672483,21.0039,200.319,0.384138,0.0,0.0
987,246.5,24.1952,25.4672,163.997,99.3911,95.6549,0.00077707,0.0672366,21.0039,200.319,0.338323,0.0,0.0
990,247.25,24.0957,25.6626,161.374,99.3984,96.1671,0.000796073,0.0672531,21.0039,200.309,0.291816,0.0,0.0
993,248,24.291,25.6163,162.241,99.4077,95.9773,0.000813762,0.0672512,21.0039,200.309,0.310083,0.0,0.0
996,248.75,23.9569,25.1618,156.718,99.4065,94.9534,0.000814916,0.0672293,21.0039,200.309,0.404682,0.0,0.0
999,249.5,24.2635,25.3052,164.794,99.4012,95.812,0.000801947,0.0671882,21.0039,200.309,0.324727,0.0,0.0
1002,250.25,23.4589,24.6473,160.607,99.4008,95.2337,0.000768038,0.0670988,21.0039,200.309,0.378146,0.0,0.0
1005,251,24.1028,25.5506,158.724,99.4057,95.7328,0.000733443,0.0669763,21.0039,200.309,0.332422,0.0,0.0
1008,251.75,23.6856,25.2667,157.025,99.4141,95.9504,0.00071051,0.066926,21.0039,200.309,0.313134,0.0,0.0
1011,252.5,23.5296,25.1291,161.42,99.4089,95.5569,0.000704903,0.0669274,21.0039,200.309,0.348947,0.0,0.0
1014,253.25,23.6966,25.0121,161.697,99.3972,95.7177,0.000730763,0.0669431,21.0039,200.309,0.333061,0.0,0.0
1017,254,23.554,24.6749,157.778,99.4032,95.9757,0.000760736,0.0669796,21.0039,200.319,0.309839,0.0,0.0
1020,254.75,23.7046,25.1907,159.767,99.4077,95.3349,0.000786026,0.0670261,21.0039,200.309,0.369378,0.0,0.0
1023,255.5,22.8243,24.9804,156.844,99.4077,95.1566,0.000802237,0.06706,21.0039,200.329,0.385911,0.0,0.0
1026,256.25,23.0844,24.8038,163.195,99.404,94.984,0.000810523,0.0670846,21.0039,200.319,0.40162,0.0,0.0
1029,257,23.3829,24.2805,155.679,99.4061,95.4717,0.000811284,0.0670629,21.0039,200.319,0.356581,0.0,0.0
1032,257.75,23.5881,24.9143,160.056,99.4174,95.7471,0.000825939,0.067061,21.0039,200.319,0.332144,0.0,0.0
1035,258.5,23.6694,24.242,160.11,99.4065,95.3305,0.000844429,0.0670656,21.0039,200.299,0.369686,0.0,0.0
1038,259.25,23.479,23.8326,157.828,99.4032,95.4198,0.000871259,0.0670679,21.0039,200.299,0.361125,0.0,0.0
1041,260,23.2414,24.3717,165.014,99.4133,95.7463,0.000896108,0.0670559,21.0039,200.299,0.331861,0.0,0.0
1044,260.75,24.0012,24.477,162.695,99.4145,95.2937,0.000909668,0.0670222,21.0039,200.299,0.373804,0.0,0.0
1047,261.5,23.8108,24.2716,155.659,99.4198,95.0403,0.000911764,0.0669975,21.0039,200.289,0.397785,0.0,0.0
1050,262.25,23.5415,23.877,159.227,99.398,95.6578,0.000912641,0.0669935,21.0039,200.289,0.338669,0.0,0.0
1053,263,23.5892,24.1347,154.038,99.404,95.8296,0.000912168,0.0669745,21.0037,200.289,0.323362,0.0,0.0
1056,263.75,23.6073,24.3536,161.654,99.4121,95.1986,0.000912474,0.0669231,21.0035,200.289,0.382406,0.0,0.0
1059,264.5,22.4889,24.1654,159.902,99.4137,95.3317,0.00091381,0.0668857,21.0041,200.289,0.370218,0.0,0.0
1062,265.25,23.5987,24.0127,160.88,99.3923,95.5876,0.00091302,0.0668385,21.004,200.299,0.344649,0.0,0.0
1065,266,22.7427,23.8297,161.61,99.4097,95.8463,0.000908737,0.0667895,21.0038,200.299,0.322323,0.0,0.0
1068,266.75,22.6218,24.0775,166.981,99.4186,95.6688,0.000901431,0.0667287,21.0036,200.299,0.33948,0.0,0.0
1071,267.5,23.1612,24.1963,161.815,99.4089,95.6271,0.000891656,0.0666624,21.0035,200.299,0.342462,0.0,0.0
1074,268.25,23.1836,23.9528,160.538,99.3927,95.9226,0.000888238,0.0665765,21.0034,200.309,0.313788,0.0,0.0
1077,269,22.9575,23.9113,155.643,99.4105,95.441,0.000893833,0.0665139,21.0033,200.299,0.359806,0.0,0.0
1080,269.75,22.7939,24.0591,159.282,99.4004,95.5794,0.000909038,0.0665239,21.0033,200.299,0.346119,0.0,0.0
1083,270.5,22.2544,23.8436,167.001,99.4061,95.6214,0.000923375,0.0665476,21.0035,200.299,0.342739,0.0,0.0
1086,271.25,22.5836,23.7538,157.404,99.3948,95.6782,0.000939392,0.0665524,21.004,200.299,0.336498,0.0,0.0
1089,272,22.8233,24.0204,166.874,99.396,95.7039,0.000952304,0.0665558,21.0044,200.289,0.334234,0.0,0.0
1092,272.75,22.5185,23.4001,158.346,99.4097,95.7879,0.000964197,0.0665584,21.0047,200.289,0.3277,0.0,0.0
1095,273.5,22.3723,23.6818,164.566,99.4238,95.6663,0.000976207,0.0665602,21.0049,200.299,0.340172,0.0,0.0
1098,274.25,22.2483,23.5987,162.052,99.3996,95.3913,0.000983725,0.0665689,21.005,200.289,0.363445,0.0,0.0
1101,275,22.0059,23.3037,157.475,99.3927,95.5802,0.000978917,0.0665877,21.0052,200.299,0.345363,0.0,0.0
1104,275.75,22.3111,23.8367,159.074,99.4,95.8447,0.00095872,0.0666213,21.0052,200.289,0.321612,0.0,0.0
1107,276.5,22.1917,23.0766,166.366,99.4,95.6998,0.000891132,0.0666319,21.0049,200.299,0.334969,0.0,0.0
1110,277.25,21.7933,22.9956,159.115,99.4,95.6018,0.00084186,0.0666336,21.0044,200.299,0.344011,0.0,0.0
1113,278,22.3429,23.2655,162.783,99.396,95.7843,0.00078833,0.0665952,21.004,200.289,0.326819,0.0,0.0
1116,278.75,22.4586,22.9895,158.643,99.3915,95.2872,0.000765359,0.0665394,21.0038,200.289,0.372366,0.0,0.0
1119,279.5,22.537,22.9726,163.046,99.3988,94.8689,0.000763907,0.0664869,21.0036,200.289,0.411859,0.0,0.0
1122,280.25,22.3389,23.0891,157.949,99.4004,95.7859,0.000777301,0.0664764,21.0041,200.289,0.327063,0.0,0.0
1125,281,22.4986,23.1641,157.678,99.3827,95.6222,0.000797639,0.0664586,21.0045,200.289,0.340583,0.0,0.0
1128,281.75,22.3485,23.0655,160.299,99.4004,96.1969,0.000811815,0.0664081,21.0047,200.289,0.28926,0.0,0.0
1131,282.5,21.9743,23.0651,162.944,99.4137,95.5059,0.000821038,0.0663911,21.0049,200.289,0.354091,0.0,0.0
1134,283.25,22.3183,23.1729,160.923,99.3996,95.2578,0.000834812,0.0664205,21.0051,200.279,0.375807,0.0,0.0
1137,284,21.9802,23.2781,162.921,99.4028,95.3268,0.000844854,0.0664597,21.0052,200.289,0.369703,0.0,0.0
1140,284.75,22.3394,22.3183,156.853,99.3968,95.1729,0.000887441,0.0664684,21.0053,200.289,0.383428,0.0,0.0
1143,285.5,22.627,22.6406,162.264,99.3952,95.7745,0.000918487,0.066447,21.0053,200.269,0.32765,0.0,0.0
1146,286.25,22.0799,22.6987,161.598,99.3968,94.8746,0.000978239,0.0664195,21.0055,200.279,0.411148,0.0,0.0
1149,287,22.0273,23.2314,159.163,99.3867,95.2701,0.00104675,0.0663796,21.0058,200.269,0.373524,0.0,0.0
1152,287.75,22.3644,22.9075,161.8,99.3956,95.3525,0.00111229,0.0663505,21.0061,200.269,0.366676,0.0,0.0
1155,288.5,22.0567,22.5485,157.038,99.3944,95.4431,0.00116184,0.066322,21.0063,200.269,0.358183,0.0,0.0
1158,289.25,21.7274,22.4599,152.231,99.3911,95.8475,0.00118929,0.0662887,21.0066,200.259,0.32056,0.0,0.0
1161,290,21.8997,22.511,155.407,99.4004,95.3737,0.00119844,0.0662842,21.0073,200.259,0.365141,0.0,0.0
1164,290.75,21.8219,22.6587,159.006,99.396,95.2452,0.00119285,0.0662949,21.0072,200.269,0.376657,0.0,0.0
1167,291.5,21.6436,22.5895,160.094,99.398,96.3842,0.00117966,0.0662793,21.0071,200.259,0.271869,0.0,0.0
1170,292.25,21.6068,22.9641,160.821,99.3887,95.6794,0.00115445,0.0662179,21.007,200.269,0.335846,0.0,0.0
1173,293,21.18,22.6271,159.842,99.3867,95.2035,0.00111124,0.0661929,21.0072,200.269,0.379692,0.0,0.0
1176,293.75,21.4799,22.6377,158.5,99.3895,95.6373,0.001062,0.0661821,21.0077,200.259,0.339799,0.0,0.0
1179,294.5,22.08,22.5521,158.303,99.3891,95.3345,0.00101386,0.0661867,21.0083,200.269,0.367765,0.0,0.0
1182,295.25,21.8301,22.7698,155.228,99.3988,95.5745,0.000968195,0.0661754,21.0088,200.269,0.346428,0.0,0.0
1185,296,21.9425,22.6915,162.452,99.3919,95.2027,0.000934252,0.0661421,21.0091,200.269,0.380234,0.0,0.0
1188,296.75,21.7559,22.446,159.02,99.3895,95.4374,0.000908396,0.0660793,21.0093,200.279,0.358281,0.0,0.0
1191,297.5,21.8126,22.6524,155.827,99.402,95.7565,0.000903647,0.0660335,21.0095,200.269,0.329916,0.0,0.0
1194,298.25,21.8621,23.0377,162.541,99.3956,96.0475,0.000900186,0.0660001,21.0096,200.259,0.302551,0.0,0.0
1197,299,21.4168,22.5399,163.434,99.3859,95.8855,0.000915296,0.065956,21.0097,200.269,0.316598,0.0,0.0
1200,299.75,21.7003,22.4252,160.734,99.3911,96.0491,0.000928784,0.0659377,21.0098,200.269,0.302007,0.0,0.0
1203,300.5,21.8287,22.6867,162.702,99.3964,95.4512,0.000940322,0.0659303,21.0099,200.269,0.357608,0.0,0.0
1206,301.25,21.6369,21.9109,160.046,99.3964,95.5198,0.000949846,0.065905,21.0093,200.269,0.351267,0.0,0.0
1209,302,21.43,22.7286,164.511,99.3883,95.6994,0.000949735,0.0659013,21.0088,200.259,0.333965,0.0,0.0
1212,302.75,21.2314,21.9248,159.24,99.3774,95.6549,0.000946451,0.0659236,21.0085,200.259,0.337104,0.0,0.0
1215,303.5,21.27,21.9619,165.555,99.3855,96.0132,,0.065912,,200.269,0.304807,0.0,0.0
1218,304.25,21.5899,21.9109,161.022,99.3895,96.5854,,0.0659064,,200.259,0.252703,0.0,0.0
1221,305,21.4874,21.8901,162.221,99.3907,95.7275,,0.0659273,,200.259,0.331583,0.0,0.0
1224,305.75,21.4255,21.8191,159.476,99.3855,96.0536,,0.0659822,,200.259,0.301091,0.0,0.0
1227,306.5,21.1104,21.8448,160.701,99.3847,96.2381,,,,200.269,0.284079,0.0,0.0
1230,307.25,21.6361,22.0569,157.172,99.3895,96.0259,,,,200.259,0.304002,0.0,0.0
1233,308,21.3169,21.7802,162.419,99.3879,95.679,,,,200.259,0.335814,0.0,0.0
1236,308.75,20.9135,21.9644,163.514,99.3746,95.8634,,,,200.259,0.317622,0.0,0.0
1239,309.5,20.7559,22.0552,156.794,99.381,95.177,,,,200.269,0.381651,0.0,0.0
1242,310.25,21.4323,21.7517,161.695,99.3883,96.0769,,,,200.249,0.299204,0.0,0.0
1245,311,21.6286,21.6513,155.586,99.3887,95.9471,,,,200.249,0.311175,0.0,0.0
1248,311.75,21.2155,21.5592,158.556,99.3625,95.4068,,,,200.249,0.358709,0.0,0.0
1251,312.5,21.1351,21.5758,159.729,99.3726,95.9051,,,,200.239,0.313611,0.0,0.0
1254,313.25,20.7322,20.923,156.641,99.3875,95.6378,,,,200.249,0.339582,0.0,0.0
1257,314,20.9207,21.5448,164.691,99.3677,95.7908,,,,200.249,0.323707,0.0,0.0