File: 01_Data/Nylon/Cone/Nylon_Cone_HF75Scan_220225_R1.csv
Names,Time,Stack TC,Smoke TC,Exh Press,Smoke Comp,Smoke Meas,CO Meter,CO2 Meter,O2 Meter,Sample Mass,Ext Coeff,Start Test,Flame Verif
Chan Gain,,500,500,1,1,1,1,1,1,1,1,1.0,1.0
Offset,,0,0,0.134422,0,0,0,0,0,0,0,0.0,0.0
Gain,,1,1,25.011,15.3125,15.3273,1,1,1,1.00096,1.02035,1.0,1.0
Units,sec,C,C,Pa,%,%,%,%,%,g,/m,,
Baseline,,41.6199,43.7664,153.072,115.901,110.298,0.000534508,0.0638545,21.0243,-868.69,0.44354,,
3,0.5,39.9353,42.054,154.002,115.83,110.098,0.00101729,0.0718556,21.0163,39.668,0.454314,0.0,0.0
6,1.25,39.5923,41.823,157.102,115.82,110.855,0.00100945,0.0713202,21.0169,39.7281,0.392092,0.0,0.0
9,2,39.4848,41.0677,152.144,115.828,110.232,0.000976155,0.0706971,21.0173,39.638,0.443225,0.0,0.0
12,2.75,39.3766,41.4372,153.828,115.825,109.96,0.000932558,0.0701785,21.0177,39.668,0.465142,0.0,0.0
15,3.5,39.1672,41.4278,155.003,115.821,110.187,0.000884278,0.0696903,21.0179,39.608,0.446406,0.0,0.0
18,4.25,39.5617,41.1623,153.897,115.814,108.878,0.000834958,0.069218,21.0181,48.4664,0.552776,0.0,0.0
21,5,39.3248,41.1684,150.042,115.826,110.112,0.000793839,0.0688094,21.0182,87.1735,0.452812,0.0,0.0
24,5.75,39.7163,41.3451,155.655,115.823,110.845,0.000763863,0.0684014,21.0183,121.146,0.393214,0.0,0.0
27,6.5,39.5571,41.2709,152.988,115.809,111.027,0.000760948,0.068104,21.0183,141.155,0.377449,0.0,0.0
30,7.25,39.2689,41.2465,153.273,115.831,110.353,0.000756409,0.0679279,21.0182,149.443,0.433612,0.0,0.0
33,8,39.8061,41.5077,151.329,115.842,110.561,0.000752071,0.067817,21.0176,146.971,0.417612,0.0,0.0
36,8.75,39.5635,41.4333,150.839,115.834,110.336,0.000723087,0.0677555,21.0172,137.322,0.43523,0.0,0.0
39,9.5,39.7013,41.7065,152.842,115.816,109.741,0.000681452,0.0677106,21.017,126.381,0.482292,0.0,0.0
42,10.25,39.5681,41.6658,154.313,115.818,110.349,0.000642358,0.0677361,21.0167,113.899,0.432905,0.0,0.0
45,11,39.9474,41.6619,153.367,115.845,109.688,0.00060515,0.0677682,21.0166,105.251,0.488768,0.0,0.0
48,11.75,39.85,41.724,153.887,115.825,109.196,0.000578026,0.067776,21.0167,97.9038,0.527495,0.0,0.0
51,12.5,40.2017,42.0813,153.486,115.828,110.042,0.000563076,0.067745,21.0168,92.4686,0.458662,0.0,0.0
54,13.25,40.0246,41.1753,152.086,115.836,110.568,0.000554233,0.067696,21.017,87.7341,0.416613,0.0,0.0
57,14,39.786,42.0261,155.933,115.857,109.924,0.000552611,0.0676491,21.0171,84.4209,0.47049,0.0,0.0
60,14.75,39.7252,41.745,157.311,115.84,108.808,0.000552215,0.0675934,21.0172,81.7383,0.560531,0.0,0.0
63,15.5,39.5933,41.7724,151.732,115.852,110.712,0.000549755,0.0675161,21.0172,76.3031,0.406147,0.0,0.0
66,16.25,39.8929,41.5213,152.061,115.854,110.171,0.000542801,0.067419,21.0173,71.1682,0.450151,0.0,0.0
69,17,39.6765,41.698,155.171,115.862,110.134,0.000529293,0.0673308,21.0173,60.7883,0.453841,0.0,0.0
72,17.75,39.9904,41.33,152.611,115.88,108.415,0.000510137,0.0672666,21.0173,56.1738,0.596015,0.0,0.0
75,18.5,39.9532,42.0846,153.163,115.875,109.592,0.00048641,0.0671925,21.0173,49.8177,0.498943,0.0,0.0
78,19.25,39.8102,41.4579,150.726,115.869,109.897,0.000463955,0.0671341,21.0169,44.0222,0.473677,0.0,0.0
81,20,40.136,41.8874,152.737,115.894,109.662,0.000447586,0.0671038,21.0164,39.658,0.494771,0.0,0.0
84,20.75,39.6215,41.5356,151.696,115.889,108.815,0.00046338,0.0671088,21.016,38.597,0.563707,0.0,0.0
87,21.5,40.2863,42.1643,152.335,115.893,108.712,0.000501359,0.0671599,21.0158,38.4769,0.572573,0.0,0.0
90,22.25,40.0473,41.7558,148.472,115.893,107.976,0.000554088,0.0672582,21.0153,38.8873,0.633285,0.0,0.0
93,23,40.3205,41.9366,150.219,115.906,108.677,0.000615466,0.0674794,21.015,39.0374,0.576399,0.0,0.0
96,23.75,40.1051,41.8565,153.33,115.934,107.632,0.000677618,0.0677044,21.0148,39.1775,0.66508,0.0,0.0
99,24.5,39.4945,42.0594,153.711,115.936,108.015,0.000735973,0.0683134,21.0127,39.2276,0.633385,0.0,0.0
102,25.25,40.2613,42.0233,154.915,115.919,108.003,0.000809541,0.0690295,21.0108,39.2776,0.633058,0.0,0.0
105,26,40.0506,41.8269,153.183,115.926,107.865,0.000897036,0.0696676,21.0083,39.2977,0.64508,0.0,0.0
108,26.75,40.0009,41.7302,151.542,115.932,108.092,0.000975258,0.070696,21.0062,39.3077,0.626742,0.0,0.0
111,27.5,40.4544,42.1745,149.092,115.944,107.528,0.00111,0.0720729,21.0032,39.3277,0.674473,0.0,0.0
114,28.25,40.3831,42.0052,150.416,115.938,109.302,0.00123733,0.0740776,21.0006,39.3077,0.527571,0.0,0.0
117,29,40.0084,41.9596,149.028,115.956,109.453,0.00134255,0.0767935,20.9936,39.3077,0.516578,0.0,0.0
120,29.75,40.8289,42.1679,147.473,115.961,109.628,0.00144695,0.082403,20.9785,39.2576,0.502681,0.0,1.0
123,30.5,40.4625,42.3056,147.69,115.978,108.998,0.00153883,0.0880397,20.96,39.2376,0.555528,0.0,1.0
126,31.25,40.3748,42.8382,146.377,115.974,110.073,0.00162532,0.101168,20.9339,39.1976,0.467406,0.0,1.0
129,32,40.4134,43.0002,142.141,115.992,109.248,0.00171023,0.117278,20.8973,39.1275,0.536122,0.0,1.0
132,32.75,41.4051,43.2635,140.15,115.999,108.212,0.0018068,0.135486,20.8601,39.0274,0.621953,0.0,1.0
135,33.5,41.2857,43.1531,135.749,116.003,107.992,0.00187719,0.155044,20.8284,38.9473,0.640442,0.0,1.0
138,34.25,41.6453,43.591,139.734,115.997,107.637,0.00192851,0.178467,20.7975,38.9473,0.669446,0.0,1.0
141,35,42.1329,43.7613,137.875,116.013,107.224,0.00206086,0.204056,20.7614,38.9173,0.705119,0.0,1.0
144,35.75,42.21,44.2386,134.269,116.028,106.458,0.00223506,0.230586,20.7252,38.8572,0.770422,0.0,1.0
147,36.5,42.8128,44.6788,127.698,116.041,106.996,0.00242573,0.262445,20.6879,38.7672,0.726317,0.0,1.0
150,37.25,43.2869,45.2324,131.923,116.037,106.673,0.00266934,0.291008,20.6492,38.8272,0.753111,0.0,0.0
153,38,43.5907,46.1727,122.263,116.042,106.404,0.00291428,0.31183,20.599,38.9273,0.776063,0.0,0.0
156,38.75,44.4609,47.1408,126.86,116.059,105.237,0.00315125,0.349201,20.5404,39.0474,0.876147,0.0,0.0
159,39.5,45.0239,47.8299,127.644,116.077,105.008,0.0033748,0.385909,20.4804,39.2676,0.896991,0.0,0.0
162,40.25,45.5765,48.2479,123.972,116.061,104.363,0.00362362,0.421948,20.4232,39.3177,0.950916,0.0,0.0
165,41,46.979,49.6526,122.047,116.069,104.891,0.00380502,0.457186,20.3679,40.3987,0.906316,0.0,0.0
168,41.75,47.5017,50.8181,124.368,116.103,105.238,0.00404809,0.496253,20.315,40.6089,0.879414,0.0,0.0
171,42.5,48.3576,51.9984,122.632,116.097,104.805,0.00431216,0.534125,20.2649,37.9664,0.915864,0.0,0.0
174,43.25,49.6578,53.0806,117.027,116.094,103.881,0.00457245,0.565738,20.2103,37.8062,0.994889,0.0,0.0
177,44,50.5175,54.0797,119.787,116.112,104.909,0.00483393,0.604818,20.163,37.7962,0.90815,0.0,0.0
180,44.75,51.2908,55.2169,118.603,116.116,103.533,0.00508579,0.633307,20.1158,37.606,1.02658,0.0,0.0
183,45.5,52.6666,56.9709,119.739,116.128,103.106,0.00532181,0.670914,20.0695,37.4759,1.06451,0.0,0.0
186,46.25,54.1582,58.289,116.349,116.123,103.672,0.0055682,0.701916,20.0244,37.4159,1.01515,0.0,0.0
189,47,54.8648,59.7366,119.054,116.125,102.776,0.00579751,0.730648,19.9819,37.3658,1.09297,0.0,0.0
192,47.75,56.4382,61.4568,110.74,116.133,103.129,0.00598587,0.762082,19.9468,37.3258,1.06292,0.0,0.0
195,48.5,57.9818,63.2943,118.402,116.151,101.676,0.00623147,0.791766,19.9101,37.2657,1.19132,0.0,0.0
198,49.25,58.8142,64.2671,120.038,116.178,101.352,0.00646911,0.819851,19.8729,37.1056,1.22198,0.0,0.0
201,50,59.0484,64.8736,112.074,116.155,102.182,0.00670084,0.846412,19.8359,37.0055,1.1472,0.0,0.0
204,50.75,60.1832,66.7113,112.075,116.164,103.206,0.0069271,0.873208,19.7983,36.8253,1.05864,0.0,0.0
207,51.5,60.9131,67.4549,113.05,116.175,100.566,0.00717231,0.89591,19.7636,36.7352,1.29139,0.0,0.0
210,52.25,63.3999,69.9288,117.258,116.182,100.253,0.0073913,0.924031,19.7261,36.6051,1.31983,0.0,0.0
213,53,64.69,71.5164,113.561,116.182,101.852,0.00761972,0.952845,19.678,36.4449,1.17822,0.0,0.0
216,53.75,65.4689,73.0408,110.999,116.186,103.059,0.00789366,0.981985,19.6298,36.2948,1.07312,0.0,0.0
219,54.5,66.8569,74.5113,108.547,116.204,100.708,0.00809337,1.01108,19.5889,36.1246,1.28094,0.0,0.0
222,55.25,66.8736,74.8974,108.78,116.21,100.229,0.00833013,1.04675,19.5604,36.0345,1.32417,0.0,0.0
225,56,69.2354,77.6984,104.48,116.214,100.186,0.00867812,1.0777,19.5177,35.8644,1.32825,0.0,0.0
228,56.75,71.1106,79.7586,107.926,116.222,100.953,0.00905913,1.10869,19.4789,35.6742,1.26071,0.0,0.0
231,57.5,72.2434,81.2294,104.698,116.23,99.918,0.00946651,1.14578,19.4375,35.464,1.35349,0.0,0.0
234,58.25,74.0134,83.2402,102.319,116.239,98.7785,0.00998513,1.16907,19.3883,35.2738,1.45687,0.0,0.0
237,59,75.1835,84.8319,103.722,116.238,97.6559,0.0105306,1.22153,19.3164,35.1036,1.55906,0.0,0.0
240,59.75,76.5761,86.5382,98.3276,116.243,96.5796,0.0110062,1.25976,19.2311,34.9735,1.65862,0.0,0.0
243,60.5,78.2396,89.1126,89.7041,116.244,97.3397,0.0113996,1.3134,19.1392,34.7933,1.58856,0.0,0.0
246,61.25,79.9258,90.9669,98.7611,116.266,98.119,0.0117095,1.36839,19.0722,34.5531,1.51891,0.0,0.0
249,62,81.6375,92.8261,98.868,116.262,98.9857,0.0119353,1.41685,19.0234,34.423,1.43987,0.0,0.0
252,62.75,83.4559,95.5041,99.9709,116.258,100.711,0.0121402,1.45729,18.9859,34.1627,1.28487,0.0,0.0
255,63.5,84.8751,97.335,105.469,116.265,99.6818,0.012355,1.48759,18.9562,34.0426,1.37737,0.0,0.0
258,64.25,86.4623,99.613,96.3217,116.28,99.3136,0.0125394,1.51151,18.9306,33.8424,1.41164,0.0,0.0
261,65,88.4506,101.859,92.0664,116.271,98.757,0.0128315,1.53145,18.912,33.6522,1.4613,0.0,0.0
264,65.75,89.5206,103.299,99.4809,116.264,99.9096,0.0131463,1.54978,18.891,33.4821,1.35691,0.0,0.0
267,66.5,90.9007,104.936,96.6407,116.273,98.2065,0.0134593,1.56962,18.863,33.2919,1.51148,0.0,0.0
270,67.25,92.4461,106.713,98.5673,116.294,97.445,0.013756,1.59351,18.8249,33.1217,1.58273,0.0,0.0
273,68,94.0236,108.992,93.4686,116.296,98.5713,0.014024,1.61516,18.788,33.0116,1.48005,0.0,0.0
276,68.75,95.6513,110.761,95.4004,116.288,99.7468,0.0142193,1.63816,18.7571,32.8215,1.3733,0.0,0.0
279,69.5,96.9124,112.973,102.609,116.316,99.6935,0.0143156,1.66221,18.7289,32.6113,1.38028,0.0,0.0
282,70.25,98.7094,114.83,95.5775,116.304,98.2018,0.0143458,1.68415,18.7058,32.4911,1.51428,0.0,0.0
285,71,100.064,116.64,99.787,116.314,98.561,0.0143411,1.70202,18.6846,32.2809,1.48239,0.0,0.0
288,71.75,101.017,118.14,96.1423,116.307,99.1831,0.0143215,1.72133,18.6641,32.0507,1.42553,0.0,0.0
291,72.5,102.94,120.444,99.4962,116.321,100.765,0.0143459,1.73683,18.6487,31.9106,1.28498,0.0,0.0
294,73.25,104.064,121.955,103.941,116.324,99.425,0.0144242,1.75055,18.6367,31.6704,1.40499,0.0,0.0
297,74,105.318,123.767,96.1584,116.335,99.6266,0.014585,1.76554,18.616,31.4902,1.38769,0.0,0.0
300,74.75,106.891,125.627,99.5481,116.322,99.8923,0.0149448,1.78554,18.5879,31.2399,1.36292,0.0,0.0
303,75.5,108.402,127.465,106.215,116.326,98.2851,0.0152071,1.80399,18.5452,31.0397,1.50835,0.0,0.0
306,76.25,109.14,128.436,98.0574,116.33,96.6549,0.0158584,1.84432,18.4749,30.9096,1.6584,0.0,0.0
309,77,110.542,130.402,82.9651,116.327,97.9413,0.0165239,1.89365,18.3904,30.6494,1.53982,0.0,0.0
312,77.75,112.305,132.361,90.0117,116.339,97.4815,0.017198,1.93811,18.3007,30.3491,1.58283,0.0,0.0
315,78.5,113.796,134.311,84.6688,116.328,95.9744,0.0178737,1.99921,18.1868,30.1589,1.72143,0.0,0.0
318,79.25,115.612,136.804,84.6879,116.351,97.0787,0.0186634,2.06729,18.1039,29.9587,1.62083,0.0,0.0
321,80,117.738,139.274,86.1068,116.337,95.8368,0.0192392,2.13626,17.995,29.7085,1.73502,0.0,0.0
324,80.75,119.11,141.54,82.7064,116.346,93.6758,0.0201659,2.21014,17.8959,29.4682,1.9398,0.0,0.0
327,81.5,120.987,143.923,92.9999,116.34,92.4288,0.0210688,2.28234,17.8008,29.2881,2.05932,0.0,0.0
330,82.25,123.043,146.06,78.1222,116.34,92.1496,0.021824,2.34278,17.7069,28.8977,2.0864,0.0,0.0
333,83,124.832,148.569,80.3731,116.364,89.3636,0.0227781,2.40429,17.5978,28.6475,2.36297,0.0,0.0
336,83.75,126.649,151.142,87.109,116.374,90.6462,0.0235948,2.49058,17.501,28.4272,2.23625,0.0,0.0
339,84.5,128.551,153.592,79.8594,116.343,91.6383,0.0243972,2.57338,17.37,28.0969,2.13645,0.0,0.0
342,85.25,130.252,156.193,87.7173,116.346,89.0259,0.0252731,2.65819,17.2599,27.9268,2.39553,0.0,0.0
345,86,132.514,158.949,88.621,116.363,89.8674,0.0260434,2.73044,17.1546,27.6065,2.31258,0.0,0.0
348,86.75,134.412,161.773,75.8094,116.364,88.7649,0.0268304,2.8228,17.0218,27.3162,2.42314,0.0,0.0
351,87.5,136.715,164.661,74.6538,116.345,88.8613,0.0277277,2.90268,16.8848,27.136,2.41203,0.0,0.0
354,88.25,138.265,167.399,77.2482,116.35,89.0965,0.0286448,2.98239,16.7442,26.6756,2.38872,0.0,0.0
357,89,140.884,170.723,77.9321,116.373,88.1465,0.0294255,3.07063,16.6012,26.5254,2.48643,0.0,0.0
360,89.75,142.413,173.313,79.2717,116.371,86.5318,0.0303942,3.15828,16.4869,26.2452,2.65176,0.0,0.0
363,90.5,144.936,176.801,75.7865,116.359,88.7434,0.0314322,3.2401,16.3866,25.8648,2.42495,0.0,0.0
366,91.25,147.002,179.63,76.0987,116.364,85.4523,0.0324648,3.32526,16.2788,25.4544,2.76355,0.0,0.0
369,92,149.395,182.902,75.0836,116.368,86.6034,0.033595,3.41434,16.1622,25.2242,2.64411,0.0,0.0
372,92.75,152.209,187.035,85.2015,116.364,86.2652,0.0346478,3.49079,16.0358,24.9739,2.6788,0.0,0.0
375,93.5,154.015,189.528,79.7632,116.366,88.3098,0.0355128,3.59251,15.9004,24.5936,2.46933,0.0,0.0
378,94.25,155.837,192.682,73.6112,116.359,87.7929,0.0364407,3.68763,15.7712,24.0631,2.52133,0.0,0.0
381,95,158.023,195.783,71.1206,116.366,85.1763,0.0372672,3.77515,15.6554,24.0931,2.79269,0.0,0.0
384,95.75,160.558,199.475,78.6939,116.365,84.0616,0.0379337,3.85473,15.5563,23.4525,2.91055,0.0,0.0
387,96.5,163.368,203.157,71.9419,116.379,84.5032,0.0385978,3.93599,15.4736,23.3724,2.86467,0.0,0.0
390,97.25,165.707,206.702,73.1418,116.36,86.2255,0.0392136,4.00765,15.3955,22.8919,2.68268,0.0,0.0
393,98,167.835,209.534,65.2366,116.382,86.3246,0.0397581,4.0811,15.2984,22.7418,2.67408,0.0,0.0
396,98.75,170.551,213.543,65.0274,116.372,84.1248,0.0403212,4.16194,15.1725,22.2713,2.90437,0.0,0.0
399,99.5,171.273,215.161,72.0297,116.369,84.0074,0.040888,4.23251,15.0646,21.881,2.91658,0.0,0.0
402,100.25,174.146,219.19,65.1205,116.364,88.4337,0.0415,4.30677,14.9563,21.5507,2.45667,0.0,0.0
405,101,176.573,222.847,92.255,116.368,81.1129,0.042172,4.3787,14.8628,21.2303,3.23037,0.0,0.0
408,101.75,178.593,225.955,72.8334,116.375,83.5691,0.0430662,4.44494,14.7695,20.89,2.96391,0.0,0.0
411,102.5,180.874,229.463,65.1289,116.376,80.5605,0.0437181,4.53413,14.7016,20.5397,3.29211,0.0,0.0
414,103.25,183.28,232.648,68.5217,116.359,79.1339,0.0441933,4.61658,14.5879,20.1893,3.45074,0.0,0.0
417,104,185.872,236.164,57.0871,116.357,79.5198,0.045373,4.70428,14.4525,19.779,3.40706,0.0,0.0
420,104.75,187.235,238.88,57.6969,116.365,83.237,0.046516,4.77998,14.3168,19.4086,2.99879,0.0,0.0
423,105.5,190.325,243.22,65.8456,116.382,84.0602,0.0475486,4.87399,14.1929,19.1183,2.91196,0.0,0.0
426,106.25,192.341,246.171,63.7573,116.358,82.5831,0.048436,4.94253,14.0263,18.778,3.06881,0.0,0.0
429,107,195.08,249.99,53.4699,116.354,91.2814,0.0491997,5.01581,13.8876,18.3776,2.1722,0.0,0.0
432,107.75,196.838,252.77,64.4466,116.368,84.5037,0.0498478,5.10909,13.7571,18.0473,2.86379,0.0,0.0
435,108.5,199.721,256.822,67.418,116.368,86.8466,0.0503914,5.19181,13.6399,17.6769,2.61904,0.0,0.0
438,109.25,201.551,260.113,68.2217,116.359,81.5105,0.0508984,5.26147,13.5483,17.3466,3.18592,0.0,0.0
441,110,203.696,263.787,64.7305,116.36,84.8638,0.0512679,5.31752,13.4789,16.9963,2.82511,0.0,0.0
444,110.75,206.928,267.422,60.5058,116.358,79.7494,0.0516613,5.36356,13.4185,16.5358,3.38131,0.0,0.0
447,111.5,208.5,270.517,70.3131,116.366,76.1978,0.0520015,5.40049,13.3578,16.1855,3.78972,0.0,0.0
450,112.25,210.862,274.033,65.7861,116.363,80.6938,0.0522723,5.43315,13.2921,15.8252,3.27631,0.0,0.0
453,113,212.819,276.93,58.7854,116.349,83.3764,0.0525395,5.46986,13.2203,15.5449,2.98252,0.0,0.0
456,113.75,214.376,279.786,66.7272,116.36,82.0391,0.052771,5.50035,13.1607,15.0845,3.12814,0.0,0.0
459,114.5,216.448,282.876,73.4059,116.365,80.8201,0.0529716,5.52898,13.105,14.8042,3.26252,0.0,0.0
462,115.25,218.423,286.102,63.7375,116.353,80.1255,0.0531453,5.55441,13.0643,14.4639,3.33881,0.0,0.0
465,116,220.156,288.552,61.166,116.356,80.5596,0.0533334,5.57641,13.0347,14.0234,3.29067,0.0,0.0
468,116.75,222.791,291.704,64.0016,116.355,83.8928,0.0534705,5.59502,13.0131,13.6231,2.92776,0.0,0.0
471,117.5,223.911,294.282,66.0319,116.363,82.3244,0.0537741,5.60063,13.0014,13.2327,3.09728,0.0,0.0
474,118.25,225.982,297.028,63.3078,116.373,77.1646,0.0541325,5.59528,13.0138,12.8924,3.67737,0.0,0.0
477,119,227.665,300.026,71.2786,116.351,73.8333,0.0544522,5.57522,13.0554,12.5821,4.07071,0.0,0.0
480,119.75,229.481,302.303,72.7014,116.35,71.3795,0.0549321,5.54501,13.0863,12.1316,4.37312,0.0,0.0
483,120.5,231.171,304.905,63.4726,116.365,80.5984,0.0555431,5.52298,13.1115,11.8013,3.28708,0.0,0.0
486,121.25,231.905,306.272,65.6037,116.363,77.116,0.0562035,5.49819,13.1536,11.5411,3.68226,0.0,0.0
489,122,233.2,307.615,78.0206,116.35,75.3591,0.0568812,5.46575,13.2228,11.0906,3.88749,0.0,0.0
492,122.75,234.612,309.886,72.0648,116.35,76.68,0.0573529,5.42719,13.2772,10.7903,3.73196,0.0,0.0
495,123.5,235.804,311.747,71.5015,116.37,70.1928,0.0578979,5.38403,13.34,10.5401,4.52469,0.0,0.0
498,124.25,237.47,313.495,72.4999,116.358,75.6168,0.0585687,5.33592,13.3934,10.1798,3.85757,0.0,0.0
501,125,238.084,314.748,72.3312,116.358,75.0822,0.0590466,5.28822,13.4354,9.8094,3.92112,0.0,0.0
504,125.75,239.295,316.048,74.9553,116.338,73.9624,0.0593904,5.26007,13.4908,9.39901,4.05403,0.0,0.0
507,126.5,239.94,317.209,75.7171,116.356,76.3718,0.0594618,5.2028,13.5418,9.24886,3.76848,0.0,0.0
510,127.25,241.539,318.737,63.0406,116.364,72.9984,0.0592076,5.13051,13.6275,8.90854,4.17347,0.0,0.0
513,128,242.101,319.885,76.5094,116.35,75.0724,0.0584651,5.04364,13.7654,8.62827,3.92161,0.0,0.0
516,128.75,243.148,321.14,77.3986,116.346,75.3348,0.0576965,4.98031,13.8982,8.29795,3.89012,0.0,0.0
519,129.5,243.525,321.991,77.7016,116.35,74.6449,0.0570311,4.83584,14.0508,8.02769,3.97272,0.0,0.0
522,130.25,244.123,322.148,79.4793,116.364,74.3539,0.0557372,4.68405,14.2886,7.79747,4.00883,0.0,0.0
525,131,244.964,323.169,77.7268,116.376,73.4591,0.0545701,4.55359,14.5673,7.41711,4.11806,0.0,0.0
528,131.75,245.217,323.163,81.8531,116.343,76.5865,0.0531219,4.37881,14.8141,7.22693,3.74234,0.0,0.0
531,132.5,244.612,322.632,82.7484,116.356,76.0378,0.0515769,4.25811,15.0687,7.04675,3.80774,0.0,0.0
534,133.25,244.6,322.22,79.3953,116.376,76.8564,0.0500494,4.0784,15.384,6.76648,3.71341,0.0,0.0
537,134,244.402,320.981,91.2146,116.36,73.634,0.0483354,3.88311,15.6963,6.58631,4.09558,0.0,0.0
540,134.75,243.783,319.898,81.763,116.351,74.8165,0.046695,3.71335,16.0024,6.3661,3.95231,0.0,0.0
543,135.5,243.061,318.262,95.8729,116.356,73.9292,0.0451804,3.51058,16.2995,6.13588,4.05945,0.0,0.0
546,136.25,242.015,317.173,91.8962,116.364,71.9459,0.043816,3.32529,16.5872,6.03578,4.30349,0.0,0.0
549,137,240.953,314.868,93.1266,116.369,75.7941,0.0426219,3.15679,16.8157,5.85561,3.83748,0.0,0.0
552,137.75,240.026,312.884,94.6967,116.344,73.1892,0.0416664,3.00413,17.0145,5.62539,4.14859,0.0,0.0
555,138.5,238.765,310.923,98.1055,116.35,72.6499,0.0407713,2.85635,17.1742,5.37515,4.21526,0.0,0.0
558,139.25,237.952,309.089,89.9087,116.358,72.823,0.0399301,2.72611,17.3159,5.29507,4.19457,0.0,0.0
561,140,236.619,306.899,98.9466,116.358,71.0427,0.039139,2.62158,17.4651,5.07486,4.41606,0.0,0.0
564,140.75,235.336,304.917,102.588,116.37,71.8355,0.0380629,2.50865,17.6225,4.92472,4.31763,0.0,0.0
567,141.5,234.283,302.973,100.401,116.35,73.0358,0.036785,2.41068,17.796,4.75456,4.16784,0.0,0.0
570,142.25,232.751,300.554,107.58,116.366,70.3406,0.035643,2.28177,17.9876,4.5944,4.50561,0.0,0.0
573,143,231.323,298.562,104.217,116.369,73.5531,0.033927,2.15874,18.178,4.44426,4.10611,0.0,0.0
576,143.75,229.062,295.381,108.837,116.354,74.9695,0.0318282,2.05667,18.3866,4.40422,3.93424,0.0,0.0
579,144.5,227.748,292.96,114.817,116.355,76.8185,0.0302982,1.93826,18.5592,4.2741,3.71621,0.0,0.0
582,145.25,225.627,289.975,112.887,116.357,80.1896,0.0279396,1.81883,18.7318,4.16399,3.33198,0.0,0.0
585,146,224.784,287.873,116.779,116.365,78.9496,0.0256828,1.70233,18.9033,4.05389,3.47211,0.0,0.0
588,146.75,222.358,284.539,118.583,116.365,81.3426,0.0243686,1.59119,19.0219,4.00384,3.20481,0.0,0.0
591,147.5,220.641,281.794,120.718,116.348,86.5075,0.0223212,1.46111,19.2022,3.98382,2.65248,0.0,0.0
594,148.25,218.385,278.223,118.921,116.357,90.2523,0.020217,1.34799,19.352,3.92376,2.27393,0.0,0.0
597,149,215.669,275.432,125.312,116.382,91.9175,0.0185185,1.23426,19.4911,3.84368,2.1122,0.0,0.0
600,149.75,213.628,271.719,126.556,116.365,95.2372,0.0169858,1.15129,19.6434,3.85369,1.79332,0.0,0.0
603,150.5,211.691,268.984,127.963,116.357,99.4512,0.015365,1.05544,19.8019,3.83367,1.40515,0.0,0.0
606,151.25,209.629,266.149,133.938,116.351,105.378,0.0138364,0.949539,19.9541,3.80365,0.886676,0.0,0.0
609,152,206.738,262.205,136.158,116.374,106.678,0.0127221,0.872336,20.0806,3.80365,0.778625,0.0,0.0
612,152.75,205.033,259.463,136.595,116.364,107.644,0.0115201,0.784722,20.2046,3.82366,0.697162,0.0,0.0
615,153.5,202.008,255.279,136.746,116.355,107.843,0.0104636,0.693608,20.3195,3.82366,0.68,0.0,0.0
618,154.25,200.279,252.427,134.958,116.369,108.288,0.00954973,0.621266,20.4218,3.82366,0.644197,0.0,0.0
621,155,197.377,248.614,139.902,116.395,109.248,0.00876906,0.550201,20.5122,3.82366,0.567189,0.0,0.0
624,155.75,195.365,245.907,136.514,116.368,108.995,0.008067,0.493033,20.5836,3.81365,0.585897,0.0,0.0
627,156.5,192.962,242.391,136.261,116.362,109.236,0.0075069,0.442187,20.6452,3.83367,0.565671,0.0,0.0
630,157.25,189.394,239.039,137.462,116.367,108.819,0.00701601,0.398709,20.6989,3.83367,0.600206,0.0,0.0
633,158,188.746,236.23,136.86,116.367,109.283,0.00656545,0.36146,20.7402,3.82366,0.56212,0.0,0.0
636,158.75,185.282,232.158,138.267,116.37,109.015,0.00619747,0.329483,20.7738,3.81365,0.584315,0.0,0.0
639,159.5,183.498,229.264,138.841,116.364,108.663,0.00587532,0.30048,20.7999,3.81365,0.612923,0.0,0.0
642,160.25,181.068,226.607,142.543,116.369,108.887,0.00551529,0.276174,20.8215,3.77362,0.594772,0.0,0.0
645,161,179.339,224.286,139.478,116.376,109.466,0.00519632,0.257106,20.8404,3.80365,0.547875,0.0,0.0
648,161.75,177.582,220.588,138.999,116.371,108.739,0.00488141,0.239741,20.8564,3.7536,0.607112,0.0,0.0
651,162.5,175.882,218.55,141.373,116.368,108.868,0.00460153,0.225604,20.8699,3.77362,0.596312,0.0,0.0
654,163.25,173.758,215.935,142.53,116.365,108.851,0.00435669,0.212719,20.8814,3.76361,0.59752,0.0,0.0
657,164,171.022,211.652,135.763,116.372,108.983,0.00414511,0.201397,20.8923,3.79364,0.587183,0.0,0.0
660,164.75,169.447,209.381,145.409,116.375,108.922,0.00396641,0.191725,20.9011,3.80365,0.592395,0.0,0.0
663,165.5,167.695,207.723,143.429,116.362,108.787,0.00383613,0.182804,20.9078,3.7536,0.602465,0.0,0.0
666,166.25,165.883,205.002,138.35,116.36,109.031,0.00373942,0.17498,20.9137,3.73358,0.58233,0.0,0.0
669,167,164.034,202.402,139.154,116.359,109.057,0.00367014,0.168118,20.919,3.73358,0.580107,0.0,0.0
672,167.75,162.141,200.027,138.999,116.368,109.017,0.00362015,0.162096,20.9241,3.73358,0.584092,0.0,0.0
675,168.5,160.508,197.584,137.977,116.356,109.124,0.00355054,0.156098,20.9287,3.7536,0.574329,0.0,0.0
678,169.25,159.644,195.388,139.269,116.357,108.898,0.00346554,0.151148,20.9324,3.7536,0.592986,0.0,0.0
681,170,157.515,193.02,139.699,116.353,108.883,0.00338898,0.146553,20.9363,3.74359,0.593857,0.0,0.0
684,170.75,155.945,191.074,141.318,116.376,108.672,0.00326346,0.141984,20.9401,3.73358,0.613089,0.0,0.0
687,171.5,154.03,188.181,140.88,116.355,109.197,0.00313168,0.138653,20.9432,3.71356,0.568277,0.0,0.0
690,172.25,152.777,186.365,139.925,116.354,108.944,0.00301844,0.134789,20.9457,3.72357,0.589006,0.0,0.0
693,173,151.639,184.543,139.393,116.351,108.85,0.00293589,0.131598,20.948,3.76361,0.596519,0.0,0.0
696,173.75,150.239,182.22,142.694,116.364,108.51,0.00280657,0.128631,20.9479,3.72357,0.625457,0.0,0.0
699,174.5,148.74,180.651,139.696,116.354,108.698,0.00276334,0.125496,20.9476,3.73358,0.609207,0.0,0.0
702,175.25,147.063,178.499,140.141,116.335,108.556,0.00270956,0.12321,20.9484,3.71356,0.619373,0.0,0.0
705,176,146.792,176.822,140.098,116.344,108.624,0.00266377,0.120405,20.9497,3.72357,0.61454,0.0,0.0
708,176.75,144.32,174.599,142.549,116.354,108.72,0.00259042,0.116852,20.9519,3.71356,0.607398,0.0,0.0
711,177.5,142.888,172.93,141.46,116.341,108.646,0.00253116,0.115102,20.9535,3.69354,0.612513,0.0,0.0
714,178.25,141.546,170.557,143.355,116.33,109.115,0.00243474,0.112541,20.9552,3.71356,0.573083,0.0,0.0
717,179,140.93,168.674,140.638,116.319,108.608,0.00229683,0.110182,20.957,3.68353,0.613945,0.0,0.0
720,179.75,138.996,167.332,138.344,116.331,108.781,0.0021963,0.108015,20.9591,3.70355,0.60059,0.0,0.0
723,180.5,138.356,165.676,140.98,116.338,108.442,0.00209265,0.106507,20.9611,3.68353,0.62904,0.0,0.0
726,181.25,136.795,163.554,141.198,116.334,108.541,0.00200032,0.10454,20.9633,3.66351,0.620535,0.0,0.0
729,182,135.351,162.212,143.478,116.328,108.625,0.00192646,0.102722,20.9649,3.67352,0.613204,0.0,0.0
732,182.75,134.735,160.259,138.715,116.334,108.276,0.00185185,0.100956,20.9665,3.66351,0.64247,0.0,0.0
735,183.5,133.269,158.653,142.366,116.33,108.558,0.00178048,0.0994805,20.9682,3.66351,0.618934,0.0,0.0
738,184.25,132.107,157.486,148.499,116.318,108.36,0.00171484,0.0977577,20.97,3.66351,0.634326,0.0,0.0
741,185,130.83,155.638,143.365,116.307,108.47,0.00165607,0.0962407,20.9717,3.69354,0.624314,0.0,0.0
744,185.75,129.855,154.174,146.214,116.32,108.776,0.00161669,0.0948789,20.9729,3.66351,0.600189,0.0,0.0
747,186.5,128.55,152.822,143.662,116.314,108.352,0.00159436,0.0936391,20.9738,3.67352,0.634696,0.0,0.0
750,187.25,128.038,151.362,145.649,116.297,108.854,0.00158899,0.0924025,20.9751,3.66351,0.592001,0.0,0.0
753,188,127.174,150.185,145.011,116.294,108.237,0.00159357,0.0913364,20.976,3.69354,0.642621,0.0,0.0
756,188.75,125.872,148.687,145.48,116.3,108.382,0.00159861,0.0904891,20.9767,3.68353,0.631109,0.0,0.0
759,189.5,124.922,146.915,141.617,116.295,108.574,0.00159901,0.0894803,20.9779,3.68353,0.61489,0.0,0.0
762,190.25,123.621,145.51,144.014,116.284,108.778,0.00158346,0.0886223,20.9787,3.70355,0.59723,0.0,0.0
765,191,123.007,144.314,143.23,116.281,108.354,0.00156538,0.0877872,20.9801,3.70355,0.631951,0.0,0.0
768,191.75,122.188,143.047,141.239,116.275,108.35,0.00152109,0.0869636,20.9812,3.71356,0.631829,0.0,0.0
771,192.5,120.516,141.193,142.098,116.286,108.099,0.00147669,0.0862771,20.982,3.70355,0.653466,0.0,0.0
774,193.25,120.304,140.49,140.676,116.272,108.322,0.00143916,0.0856297,20.9826,3.71356,0.633931,0.0,0.0
777,194,119.546,139.04,141.611,116.273,108.366,0.00138417,0.0849935,20.9834,3.66351,0.63041,0.0,0.0
780,194.75,118.479,138.13,145.828,116.254,107.895,0.00133198,0.0843733,20.9842,3.68353,0.667925,0.0,0.0
783,195.5,117.531,136.984,147.473,116.266,108.49,0.00128877,0.0837734,20.9848,3.68353,0.619602,0.0,0.0
786,196.25,116.37,135.091,141.363,116.248,108.573,0.00125473,0.0832131,20.9852,3.68353,0.611331,0.0,0.0
789,197,116.095,134.501,141.501,116.242,108.286,0.00122556,0.0827521,20.9844,3.67352,0.634571,0.0,0.0
792,197.75,114.87,133.071,144.513,116.241,108.535,0.00121637,0.0822211,20.9838,3.69354,0.613917,0.0,0.0
795,198.5,114.658,132.56,143.467,116.248,108.263,0.00121451,0.081834,20.9837,3.70355,0.636936,0.0,0.0
798,199.25,112.776,131.188,145.105,116.239,108.367,0.00120949,0.0813569,20.9839,3.71356,0.627668,0.0,0.0
801,200,112.029,129.454,141.99,116.221,107.973,0.00119603,0.0809271,20.9841,3.69354,0.658853,0.0,0.0
804,200.75,111.863,128.828,139.825,116.202,108.472,0.00117539,0.0805357,20.9842,3.69354,0.616175,0.0,0.0
807,201.5,111.138,128.043,141.561,116.224,107.858,0.00114184,0.0801766,20.9849,3.71356,0.668649,0.0,0.0
810,202.25,110.352,127.118,144.91,116.217,108.229,0.00110771,0.0798174,20.9855,3.71356,0.637419,0.0,0.0
813,203,109.165,125.596,141.165,116.204,108.103,0.00107235,0.0795556,20.9859,3.68353,0.646749,0.0,0.0
816,203.75,108.886,124.21,141.578,116.186,108.098,0.00103569,0.0791505,20.9861,3.68353,0.645807,0.0,0.0
819,204.5,108.21,124.002,144.424,116.184,107.757,0.000995174,0.0787833,20.9863,3.68353,0.673942,0.0,0.0
822,205.25,107.703,123.296,150.37,116.19,107.928,0.000968057,0.0783928,20.9865,3.67352,0.660165,0.0,0.0
825,206,106.593,122.219,144.172,116.17,108.472,0.000949318,0.0780497,20.9866,3.67352,0.613655,0.0,0.0
828,206.75,106.565,121.021,145.87,116.16,108.118,0.000954618,0.0777314,20.9867,3.69354,0.642125,0.0,0.0
831,207.5,105.657,120.366,145.834,116.161,107.841,0.000972482,0.0774703,20.9867,3.70355,0.665187,0.0,0.0
834,208.25,104.997,119.313,141.534,116.164,108.03,0.00100945,0.0772021,20.9874,3.68353,0.649808,0.0,0.0
837,209,104.124,118.482,145.878,116.153,108.265,0.0010502,0.0769383,20.9879,3.69354,0.629509,0.0,0.0
840,209.75,103.828,117.523,142.741,116.139,108.271,0.00107608,0.076717,20.9883,3.67352,0.62789,0.0,0.0
843,210.5,102.629,116.367,141.524,116.137,108.193,0.00108842,0.0764584,20.9885,3.66351,0.634243,0.0,0.0
846,211.25,102.58,116.343,141.805,116.137,108.052,0.0010682,0.0762289,20.9885,3.66351,0.645898,0.0,0.0
849,212,101.443,115.138,143.786,116.132,108.235,0.00103374,0.0760442,20.9887,3.68353,0.630328,0.0,0.0
852,212.75,101.254,114.174,138.477,116.119,108.294,0.000974913,0.0757929,20.9893,3.64349,0.624444,0.0,0.0
855,213.5,100.537,113.059,139.905,116.116,107.781,0.000901031,0.0755679,20.9896,3.66351,0.666664,0.0,0.0
858,214.25,100.054,112.793,146.45,116.119,107.906,0.000840819,0.0753861,20.9899,3.67352,0.656555,0.0,0.0
861,215,99.9247,111.854,142.978,116.112,107.811,0.000786064,0.0751952,20.9901,3.67352,0.663928,0.0,0.0
864,215.75,98.9402,110.984,145.305,116.092,107.619,0.000737543,0.0749743,20.9903,3.64349,0.678279,0.0,0.0
867,216.5,98.313,110.224,139.594,116.086,107.914,0.00069614,0.0747784,20.9904,3.6535,0.653369,0.0,0.0
870,217.25,97.5022,109.355,143.52,116.097,108.117,0.000661482,0.074519,20.9905,3.66351,0.637341,0.0,0.0
873,218,97.3055,108.796,143.097,116.088,108.278,0.00063296,0.0743226,20.9905,3.68353,0.623346,0.0,0.0
876,218.75,96.8222,108.193,141.421,116.07,108.316,0.000612168,0.0741673,20.9906,3.67352,0.618809,0.0,0.0
879,219.5,96.5383,107.452,141.256,116.057,108.129,0.000595289,0.0740346,20.9904,3.66351,0.633307,0.0,0.0
882,220.25,95.4415,106.531,143.27,116.057,108.09,0.000588063,0.0739106,20.9902,3.64349,0.636563,0.0,0.0
885,221,95.4334,105.568,145.342,116.071,107.701,0.000591481,0.0738086,20.99,3.66351,0.66985,0.0,0.0
888,221.75,94.5941,105.356,146.364,116.052,108.176,0.000595178,0.073707,20.9899,3.64349,0.629043,0.0,0.0
891,222.5,94.1596,104.467,142.657,116.051,108.02,0.000598387,0.0735783,20.9898,3.67352,0.641865,0.0,0.0
894,223.25,93.9236,103.683,143.832,116.044,107.895,0.000590404,0.0734109,20.9897,3.68353,0.651718,0.0,0.0
897,224,93.2929,103.564,142.434,116.05,107.805,0.000583378,0.0732315,20.9897,3.6535,0.659677,0.0,0.0
900,224.75,93.2676,102.796,139.353,116.023,107.35,0.000579647,0.0730027,20.9897,3.63348,0.695453,0.0,0.0
903,225.5,92.4091,102.195,142.864,116.031,108.225,0.000587168,0.0728223,20.9896,3.66351,0.623355,0.0,0.0
906,226.25,92.3284,101.381,142.152,116.032,108.109,0.000604594,0.0727064,20.9896,3.6535,0.633026,0.0,0.0
909,227,91.2562,100.818,139.954,116.031,107.946,0.000636232,0.0726588,20.9896,3.68353,0.646443,0.0,0.0
912,227.75,91.3546,100.642,148.085,116.009,107.733,0.000662473,0.0724881,20.9896,3.67352,0.662449,0.0,0.0
915,228.5,89.7285,98.8577,143.448,116.019,108.54,0.000687035,0.07235,20.9896,3.67352,0.596424,0.0,0.0
918,229.25,90.3589,98.9477,149.35,116.017,107.635,0.000696491,0.0722579,20.9896,3.67352,0.671152,0.0,0.0
921,230,89.7767,98.9591,144.35,116.022,108.322,0.000690256,0.0722152,20.9896,3.69354,0.61463,0.0,0.0
924,230.75,89.9418,98.0793,144.097,116,107.814,0.000669421,0.072087,20.9896,3.70355,0.655043,0.0,0.0
927,231.5,89.2959,97.3158,140.786,115.983,108.006,0.00061639,0.0719721,20.9896,3.69354,0.637802,0.0,0.0
930,232.25,87.9342,96.3974,147.384,115.994,107.339,0.000546401,0.0718515,20.9896,3.67352,0.694079,0.0,0.0
933,233,88.4038,96.0514,145.715,116.002,107.591,0.000482023,0.0717248,20.9896,3.67352,0.67369,0.0,0.0
936,233.75,87.7554,95.7689,143.124,115.984,107.983,0.000392162,0.0716038,20.9896,3.67352,0.639775,0.0,0.0
939,234.5,87.642,95.6161,146.852,115.976,107.856,0.000337424,0.0714379,20.9896,3.69354,0.649638,0.0,0.0
942,235.25,87.2422,94.7494,146.318,115.977,108.022,0.000315938,0.071268,20.9902,3.68353,0.635978,0.0,0.0
945,236,86.7136,93.7124,143.433,115.981,107.884,0.000337621,0.0711169,20.9911,3.67352,0.647781,0.0,0.0
948,236.75,85.9731,92.9261,144.85,115.975,108.093,0.000384581,0.0709951,20.992,3.69354,0.629948,0.0,0.0
951,237.5,86.6413,93.0583,147.86,115.967,108.035,0.000444862,0.0708676,20.9926,3.68353,0.634098,0.0,0.0
954,238.25,86.075,93.2992,143.498,115.969,107.875,0.000506017,0.0707889,20.993,3.69354,0.647506,0.0,0.0
957,239,85.5242,92.4587,143.623,115.973,107.888,0.000557484,0.0707561,20.9933,3.69354,0.646783,0.0,0.0
960,239.75,85.0077,91.4537,143.363,115.957,107.616,0.000595003,0.0706933,20.9936,3.6535,0.668205,0.0,0.0
963,240.5,84.3647,90.9108,145.129,115.954,107.439,0.000622355,0.0706067,20.9938,3.66351,0.682671,0.0,0.0
966,241.25,84.6312,90.8367,145.247,115.945,107.498,0.000642294,0.070519,20.9939,3.6535,0.677002,0.0,0.0
969,242,84.2808,90.1562,143.98,115.946,107.747,0.000677277,0.0704429,20.994,3.70355,0.656418,0.0,0.0
972,242.75,83.6218,89.9871,140.096,115.957,108.147,0.000711497,0.0702903,20.994,3.71356,0.624123,0.0,0.0
975,243.5,83.2511,89.6598,146.729,115.941,107.885,0.000745057,0.0701791,20.9943,3.67352,0.644526,0.0,0.0
978,244.25,83.1082,88.9814,142.771,115.945,108.207,0.000757463,0.0700436,20.9945,3.67352,0.618193,0.0,0.0
981,245,83.1557,88.1118,141.794,115.939,107.58,0.000761424,0.0699217,20.9947,3.68353,0.66972,0.0,0.0
984,245.75,82.9463,88.6151,147.295,115.954,107.85,0.000755619,0.0698728,20.9948,3.68353,0.648484,0.0,0.0
987,246.5,82.0256,88.1912,145.589,115.944,107.861,0.000758275,0.0698514,20.9944,3.69354,0.646795,0.0,0.0
990,247.25,82.0559,87.4926,144.351,115.942,108.088,0.000763833,0.0698603,20.994,3.6535,0.627812,0.0,0.0
993,248,81.5623,87.1451,144.833,115.959,108.037,0.000769429,0.0699056,20.9936,3.6535,0.633331,0.0,0.0
996,248.75,81.3617,86.6239,144.715,115.952,108.265,0.000767472,0.0699523,20.9934,3.6535,0.613974,0.0,0.0
999,249.5,81.2386,86.4082,143.35,115.952,108.323,0.000763471,0.0699921,20.9932,3.6535,0.60918,0.0,0.0
1002,250.25,80.9012,86.0967,145.954,115.932,107.692,0.000765721,0.0700211,20.9927,3.63348,0.659919,0.0,0.0
1005,251,80.7638,85.7052,144.945,115.936,108.153,0.000785476,0.0700709,20.9921,3.6535,0.622032,0.0,0.0
1008,251.75,80.775,84.7735,142.965,115.941,107.779,0.000817141,0.0701562,20.9916,3.6535,0.653376,0.0,0.0
1011,252.5,80.5472,85.0784,142.952,115.939,108.027,0.000856536,0.0703408,20.9913,3.6535,0.632669,0.0,0.0
1014,253.25,79.6214,83.8716,143.313,115.927,107.857,0.000885255,0.0705491,20.9911,3.66351,0.645773,0.0,0.0
1017,254,79.3719,83.8039,139.789,115.925,107.933,0.000895316,0.0707377,20.9907,3.66351,0.639305,0.0,0.0
1020,254.75,79.2649,83.6616,139.861,115.92,107.965,0.000898015,0.0709141,20.99,3.6535,0.636309,0.0,0.0
1023,255.5,78.8182,83.1455,146.035,115.916,107.676,0.000879447,0.0710497,20.9895,3.64349,0.659978,0.0,0.0
1026,256.25,79.1147,83.269,145.223,115.924,108.008,0.000849531,0.0711609,20.9891,3.63348,0.633028,0.0,0.0
1029,257,78.8669,82.8271,143.622,115.913,108.369,0.000814683,0.0712808,20.9888,3.6535,0.602363,0.0,0.0
1032,257.75,78.3449,82.7291,144.631,115.923,108.202,0.000766901,0.0713818,20.9886,3.63348,0.616959,0.0,0.0
1035,258.5,77.7651,82.1312,147.823,115.913,107.623,0.00072572,0.0714613,20.9885,3.62347,0.664196,0.0,0.0
1038,259.25,77.8867,81.3459,144.806,115.912,108.217,0.000684842,0.0714803,20.9884,3.64349,0.61478,0.0,0.0
1041,260,77.3619,81.5619,144.528,115.898,107.819,0.00064644,0.0714871,20.9883,3.63348,0.646756,0.0,0.0
1044,260.75,77.2597,80.9579,145.545,115.9,107.795,0.000625681,0.0714797,20.988,3.64349,0.648917,0.0,0.0
1047,261.5,77.239,81.2013,143.813,115.9,107.271,0.000613633,0.0715132,20.9874,3.6535,0.692522,0.0,0.0
1050,262.25,77.0124,80.3964,143.65,115.881,107.869,0.000637433,0.0715785,20.987,3.6535,0.641228,0.0,0.0
1053,263,76.4348,80.3907,140.887,115.87,107.885,0.000679478,0.0716506,20.9867,3.64349,0.639078,0.0,0.0
1056,263.75,76.3118,80.0725,143.615,115.889,107.729,0.000728606,0.0717155,20.9864,3.6535,0.653489,0.0,0.0
1059,264.5,76.1868,78.8386,147.299,115.863,108.106,0.00076442,0.0717491,20.9863,3.6535,0.620239,0.0,0.0
1062,265.25,76.5981,79.8821,145.899,115.86,107.502,0.000795361,0.0717679,20.986,3.6535,0.670123,0.0,0.0
1065,266,75.8932,78.7472,145.78,115.845,107.782,0.000819977,0.0717407,20.9855,3.67352,0.645746,0.0,0.0
1068,266.75,75.8007,78.7486,145.076,115.863,107.595,,0.0717035,,3.6535,0.662629,0.0,0.0
1071,267.5,75.3956,78.0502,147.619,115.847,107.732,,0.071662,,3.6535,0.649972,0.0,0.0
1074,268.25,75.6356,78.6465,147.517,115.832,107.978,,0.0716072,,3.68353,0.628435,0.0,0.0
1077,269,75.2596,77.8246,142.324,115.848,107.78,,0.0714315,,3.66351,0.646078,0.0,0.0
1080,269.75,74.8017,77.5969,146.351,115.838,108.089,,,,3.63348,0.619684,0.0,0.0
1083,270.5,74.5027,77.7407,148.382,115.836,107.953,,,,3.63348,0.630854,0.0,0.0
1086,271.25,73.9675,76.8609,145.87,115.828,107.466,,,,3.6535,0.670631,0.0,0.0
1089,272,74.4555,76.5613,144.007,115.814,107.587,,,,3.63348,0.659503,0.0,0.0
1092,272.75,74.3175,76.9732,144.574,115.814,107.917,,,,3.63348,0.63211,0.0,0.0
1095,273.5,73.8895,76.2739,144.887,115.822,107.872,,,,3.62347,0.636446,0.0,0.0
1098,274.25,73.7528,76.3249,142.852,115.801,107.45,,,,3.6535,0.669897,0.0,0.0
1101,275,73.2192,75.5611,143.168,115.791,107.587,,,,3.64349,0.657732,0.0,0.0
1104,275.75,73.0895,75.2319,148.953,115.787,108.045,,,,3.62347,0.619426,0.0,0.0
1107,276.5,73.3344,75.578,147.895,115.787,108.364,,,,3.64349,0.593002,0.0,0.0
1109,277,73.3415,75.1964,141.697,115.779,108.269,,,,3.63348,0.600308,0.0,0.0