File: 01_Data/Nylon/Cone/Nylon_Cone_HF75Scan_220225_R2.csv
Names,Time,Stack TC,Smoke TC,Exh Press,Smoke Comp,Smoke Meas,CO Meter,CO2 Meter,O2 Meter,Sample Mass,Ext Coeff,Start Test,Flame Verif
Chan Gain,,500,500,1,1,1,1,1,1,1,1,1.0,1.0
Offset,,0,0,0.134422,0,0,0,0,0,0,0,0.0,0.0
Gain,,1,1,25.011,15.3125,15.3273,1,1,1,1.00096,1.02035,1.0,1.0
Units,sec,C,C,Pa,%,%,%,%,%,g,/m,,
Baseline,,49.5013,52.1416,148.774,115.107,110.48,0.000813634,0.0683524,20.9959,-869.283,0.367314,,
3,0.5,47.8208,50.5761,154.756,115.388,111.307,0.000695804,0.0743343,20.9874,39.3077,0.322327,0.0,0.0
6,1.25,47.9669,50.2705,147.414,115.397,109.881,0.000728448,0.0744064,20.9874,39.2977,0.438439,0.0,0.0
9,2,47.6455,50.5852,146.151,115.4,110.125,0.000752246,0.0744823,20.9874,39.2676,0.418753,0.0,0.0
12,2.75,47.8676,49.9953,145.258,115.416,111.437,0.000838543,0.0745375,20.9874,39.2776,0.314051,0.0,0.0
15,3.5,47.9699,49.3699,153.964,115.408,111.277,0.000909729,0.0746751,20.9874,39.2476,0.326294,0.0,0.0
18,4.25,47.7114,50.1099,149.465,115.401,110.424,0.000975776,0.0747753,20.9869,39.2576,0.394603,0.0,0.0
21,5,48.0957,49.7721,150.698,115.427,111.586,0.00102047,0.0748095,20.9864,39.2676,0.302909,0.0,0.0
24,5.75,47.774,50.2863,149.567,115.428,110.996,0.0010458,0.0747627,20.9861,39.2676,0.350419,0.0,0.0
27,6.5,48.0334,50.1061,151.638,115.426,111.159,0.00104908,0.0746059,20.9864,39.2576,0.337156,0.0,0.0
30,7.25,48.1861,49.8536,150.966,115.43,110.023,0.00103041,0.0743944,20.9867,39.2176,0.429437,0.0,0.0
33,8,48.0562,50.4454,151.062,115.434,111.343,0.000989601,0.0741585,20.9869,39.2076,0.322946,0.0,0.0
36,8.75,47.928,50.4918,148.603,115.435,110.593,0.00094206,0.0739015,20.987,39.2176,0.38357,0.0,0.0
39,9.5,47.6773,50.6791,150.916,115.443,111.813,0.000876972,0.0736283,20.9871,39.1876,0.285998,0.0,0.0
42,10.25,48.2446,50.3585,147.88,115.451,110.376,0.00081059,0.0732737,20.9872,39.1876,0.402422,0.0,0.0
45,11,48.0493,50.2167,148.531,115.463,111.188,0.000756165,0.0729722,20.9879,39.1575,0.337609,0.0,0.0
48,11.75,47.997,50.1287,145.354,115.476,111.116,0.000713918,0.0726789,20.9884,39.1575,0.344461,0.0,0.0
51,12.5,48.0872,50.3918,144.527,115.461,110.783,0.000700012,0.0724243,20.9887,39.1675,0.370168,0.0,0.0
54,13.25,48.1742,50.5484,148.771,115.471,111.114,0.000716142,0.0721925,20.989,39.1275,0.344215,0.0,0.0
57,14,48.3931,50.3206,145.864,115.485,110.724,0.000760503,0.0719746,20.9892,39.1475,0.376854,0.0,0.0
60,14.75,48.2376,50.7255,151.255,115.487,110.465,0.000792842,0.0717341,20.9893,39.1675,0.397931,0.0,0.0
63,15.5,48.1496,50.6673,148.304,115.496,110.329,0.000861238,0.0714809,20.9894,39.1475,0.409655,0.0,0.0
66,16.25,48.3035,50.4968,147.613,115.492,109.811,0.000907917,0.0712229,20.99,39.0975,0.451435,0.0,0.0
69,17,48.4703,50.9327,150.587,115.499,108.823,0.000936506,0.0709668,20.9907,39.0975,0.53294,0.0,0.0
72,17.75,48.5369,51.1086,149.344,115.505,110.856,0.000947676,0.0707511,20.9916,39.1275,0.36768,0.0,0.0
75,18.5,48.5392,51.0043,145.932,115.517,110.796,0.00094928,0.0705294,20.9922,39.0975,0.373496,0.0,0.0
78,19.25,48.3037,50.8563,147.496,115.522,110.568,0.000949418,0.0702575,20.9927,39.0774,0.392278,0.0,0.0
81,20,48.0246,50.6455,145.187,115.531,110.316,0.000956416,0.0700458,20.9931,39.1075,0.413397,0.0,0.0
84,20.75,48.0924,50.7503,149.091,115.517,110.019,0.000962725,0.0698856,20.9933,39.0774,0.436517,0.0,0.0
87,21.5,48.4583,50.554,148.124,115.522,109.678,0.000960207,0.0697301,20.9935,39.0274,0.464699,0.0,0.0
90,22.25,48.6227,51.1514,149.091,115.524,109.781,0.00094532,0.0695779,20.9936,39.0574,0.456374,0.0,0.0
93,23,48.912,51.3028,144.455,115.538,109.368,0.000921117,0.0694669,20.9931,39.0574,0.491161,0.0,0.0
96,23.75,48.4432,51.1095,143.585,115.543,109.643,0.000880644,0.069386,20.9927,39.0474,0.469043,0.0,0.0
99,24.5,48.1882,51.1382,147.547,115.541,108.153,0.000858385,0.0693659,20.9924,39.0274,0.591422,0.0,0.0
102,25.25,48.1038,51.248,148.435,115.552,108.12,0.000857328,0.0693727,20.9922,39.0374,0.595042,0.0,0.0
105,26,48.6775,51.2531,147.031,115.551,108.132,0.000877214,0.0694143,20.9921,39.0274,0.593924,0.0,0.0
108,26.75,48.641,51.4193,146.699,115.55,108.609,0.000946896,0.0694948,20.9915,39.0174,0.554522,0.0,0.0
111,27.5,48.5047,51.3483,144.253,115.555,109.125,0.00104975,0.0696392,20.9905,39.0174,0.51243,0.0,0.0
114,28.25,48.6029,51.3502,145.072,115.569,107.823,0.00117244,0.0700574,20.9889,38.9774,0.620967,0.0,0.0
117,29,48.9534,51.152,148.487,115.558,107.755,0.00130553,0.0710194,20.984,38.9473,0.625764,0.0,0.0
120,29.75,48.729,51.3387,147.493,115.565,109.684,0.0014313,0.0726161,20.9804,38.9673,0.467496,0.0,0.0
123,30.5,49.5446,51.7248,147.029,115.571,110.145,0.00157215,0.077215,20.969,38.9974,0.430447,0.0,1.0
126,31.25,49.1072,51.542,143.523,115.566,109.909,0.00171991,0.0848583,20.9563,38.9673,0.449226,0.0,1.0
129,32,49.4561,51.558,141.511,115.567,110.227,0.00184043,0.0922594,20.9395,38.9173,0.423434,0.0,1.0
132,32.75,49.5632,51.2085,140.102,115.577,108.57,0.00195018,0.108068,20.9149,38.7772,0.559748,0.0,1.0
135,33.5,49.7147,51.9581,138.331,115.572,108.714,0.00206838,0.124684,20.8728,38.7772,0.547517,0.0,1.0
138,34.25,49.5319,52.5168,136.927,115.569,108.104,0.0021725,0.145502,20.834,38.7171,0.597623,0.0,1.0
141,35,50.1707,52.809,134.424,115.569,107.917,0.00227911,0.172414,20.7851,38.637,0.613127,0.0,1.0
144,35.75,50.0821,52.5797,139.653,115.562,107.94,0.002409,0.19706,20.7339,38.577,0.61072,0.0,1.0
147,36.5,51.0458,53.5434,131.276,115.565,107.4,0.00250369,0.223624,20.6901,38.5169,0.655883,0.0,0.0
150,37.25,51.0734,53.8866,129.439,115.563,107.203,0.00265631,0.254991,20.6505,38.3968,0.672129,0.0,0.0
153,38,51.4003,54.5742,133.639,115.561,106.016,0.00276757,0.283349,20.6085,38.3968,0.771614,0.0,0.0
156,38.75,52.4313,55.4928,129.246,115.563,105.726,0.00297956,0.313413,20.5637,38.2867,0.796241,0.0,0.0
159,39.5,52.5906,55.6164,125.509,115.587,106.255,0.00320398,0.350334,20.5169,38.2166,0.753447,0.0,0.0
162,40.25,53.0632,57.0499,125.343,115.579,106.944,0.00343036,0.377249,20.4689,38.1966,0.694981,0.0,0.0
165,41,54.4893,57.568,126.543,115.567,105.126,0.00365176,0.412274,20.4031,38.1065,0.847476,0.0,0.0
168,41.75,54.7048,58.7868,116.669,115.556,105.527,0.00390969,0.448618,20.3375,38.0164,0.812618,0.0,0.0
171,42.5,55.6308,60.0771,126.126,115.554,105.118,0.00415565,0.482371,20.2822,37.9163,0.84718,0.0,0.0
174,43.25,56.5912,60.4669,119.927,115.552,104.612,0.00435965,0.519248,20.2198,37.8062,0.890192,0.0,0.0
177,44,57.9056,62.2053,120.251,115.561,104.654,0.00454996,0.555927,20.1744,37.6461,0.887358,0.0,0.0
180,44.75,58.4779,62.7987,117.141,115.55,104.911,0.00475982,0.592166,20.118,37.576,0.864474,0.0,0.0
183,45.5,59.3703,64.3475,113.363,115.573,104.138,0.00496599,0.62769,20.0681,37.4959,0.932533,0.0,0.0
186,46.25,60.4802,65.3881,121.787,115.555,104.811,0.00516309,0.660031,20.0166,37.3558,0.873493,0.0,0.0
189,47,61.695,66.7083,113.225,115.537,102.71,0.00537869,0.694626,19.9565,37.2957,1.05333,0.0,0.0
192,47.75,62.8343,67.8212,122.718,115.539,104.1,0.00558833,0.726151,19.8881,37.0956,0.933149,0.0,0.0
195,48.5,64.1629,69.757,113.195,115.543,103.47,0.00583862,0.759917,19.8229,36.9754,0.987735,0.0,0.0
198,49.25,64.4906,70.9346,110.169,115.54,102.504,0.00608953,0.796017,19.7609,36.8853,1.07154,0.0,0.0
201,50,65.7077,72.4074,113.057,115.528,102.582,0.00630163,0.831108,19.7022,36.7752,1.06382,0.0,0.0
204,50.75,66.95,73.8524,103.588,115.524,102.26,0.00653605,0.864787,19.6524,36.555,1.09161,0.0,0.0
207,51.5,67.8987,74.8048,109.448,115.533,101.151,0.00676595,0.896787,19.6042,36.4649,1.18994,0.0,0.0
210,52.25,69.1907,76.3354,109.226,115.513,101.849,0.00697627,0.932568,19.549,36.3148,1.12681,0.0,0.0
213,53,71.1531,78.5206,106.615,115.515,100.389,0.00718087,0.964154,19.502,36.1747,1.25617,0.0,0.0
216,53.75,71.8436,79.9255,105.983,115.499,101.512,0.00739342,0.996588,19.4563,36.0045,1.15533,0.0,0.0
219,54.5,73.313,81.13,110.651,115.495,101.616,0.0076194,1.03642,19.3921,35.8644,1.14589,0.0,0.0
222,55.25,73.9543,82.535,110.008,115.501,101.558,0.00793101,1.07041,19.3377,35.6942,1.15146,0.0,0.0
225,56,75.6359,84.4808,101.573,115.49,100.322,0.00822978,1.10365,19.2849,35.5341,1.26022,0.0,0.0
228,56.75,77.2743,86.2051,106.164,115.485,99.6172,0.00857001,1.13871,19.2226,35.434,1.32289,0.0,0.0
231,57.5,78.4245,87.9716,103.042,115.482,99.9793,0.00890189,1.1744,19.1771,35.2338,1.29024,0.0,0.0
234,58.25,79.791,89.9509,101.827,115.483,100.141,0.00928722,1.20987,19.1182,35.0336,1.2758,0.0,0.0
237,59,80.9918,90.6525,97.0109,115.47,98.9193,0.00972737,1.25116,19.0471,34.9335,1.38466,0.0,0.0
240,59.75,81.9396,92.3967,107.311,115.456,98.4843,0.0101156,1.29542,18.9832,34.7033,1.42306,0.0,0.0
243,60.5,83.7216,94.853,101.848,115.457,98.6719,0.0104274,1.34061,18.9194,34.453,1.40613,0.0,0.0
246,61.25,85.6735,97.0571,95.6096,115.466,98.7243,0.0106654,1.37947,18.8625,34.2428,1.40204,0.0,0.0
249,62,87.1008,99.1355,99.4519,115.44,98.7084,0.0108573,1.41788,18.8157,34.1127,1.40148,0.0,0.0
252,62.75,88.7486,101.032,100.264,115.443,101.252,0.0109935,1.45234,18.7815,33.9525,1.17402,0.0,0.0
255,63.5,90.0247,102.245,99.4183,115.44,100.938,0.0110966,1.47746,18.7566,33.7523,1.20159,0.0,0.0
258,64.25,91.9181,104.713,94.0441,115.438,98.6953,0.0111734,1.4959,18.7385,33.6623,1.40253,0.0,0.0
261,65,93.3319,106.175,110.242,115.425,98.5283,0.0112434,1.50813,18.7266,33.4721,1.41663,0.0,0.0
264,65.75,94.626,107.772,103.129,115.431,98.9348,0.0112991,1.51634,18.7204,33.2819,1.38025,0.0,0.0
267,66.5,95.57,109.957,97.2567,115.416,99.3815,0.0113374,1.522,18.7183,33.0417,1.33877,0.0,0.0
270,67.25,97.0604,111.093,105.475,115.415,100.877,0.0113576,1.52549,18.7178,33.0116,1.20498,0.0,0.0
273,68,98.3824,112.798,102.058,115.418,99.9044,0.0113712,1.52695,18.719,32.8615,1.29194,0.0,0.0
276,68.75,99.121,114.392,99.0145,115.406,98.7416,0.0113845,1.52516,18.7293,32.6713,1.39583,0.0,0.0
279,69.5,100.446,115.98,100.46,115.399,97.9478,0.0114214,1.52128,18.7368,32.4911,1.46753,0.0,0.0
282,70.25,101.523,117.751,100.664,115.395,98.0727,0.011479,1.5161,18.7422,32.311,1.45583,0.0,0.0
285,71,102.63,118.888,104.383,115.386,96.8575,0.011534,1.51239,18.7462,32.1308,1.56674,0.0,0.0
288,71.75,103.402,119.938,98.668,115.374,97.8243,0.0116157,1.51192,18.7418,31.9706,1.4769,0.0,0.0
291,72.5,104.364,121.355,94.0517,115.381,96.6147,0.0117356,1.51534,18.7283,31.7604,1.58877,0.0,0.0
294,73.25,105.425,122.072,96.5179,115.373,96.6643,0.0118667,1.52789,18.697,31.6203,1.58356,0.0,0.0
297,74,106.371,123.373,100.632,115.37,96.8289,0.0120573,1.54551,18.6655,31.5002,1.56811,0.0,0.0
300,74.75,107.989,124.603,103.531,115.362,98.3178,0.0122731,1.55705,18.6336,31.32,1.43088,0.0,0.0
303,75.5,108.925,126.488,98.1192,115.35,97.4328,0.0124632,1.57983,18.6016,31.1398,1.51087,0.0,0.0
306,76.25,109.855,128.759,96.3744,115.354,97.3856,0.0127117,1.60117,18.5708,30.8796,1.51554,0.0,0.0
309,77,111.623,129.699,101.704,115.349,97.0432,0.0130023,1.61873,18.544,30.7395,1.54666,0.0,0.0
312,77.75,112.398,131.314,92.1657,115.344,97.0815,0.0132608,1.63737,18.5224,30.5393,1.54276,0.0,0.0
315,78.5,113.742,133.098,109.768,115.334,96.1432,0.0136146,1.65614,18.5012,30.3991,1.62889,0.0,0.0
318,79.25,114.214,134.282,96.9926,115.329,94.5276,0.0140263,1.67203,18.4761,30.1789,1.78021,0.0,0.0
321,80,115.333,135.835,94.2036,115.327,95.5763,0.0144688,1.69916,18.4252,30.0188,1.68132,0.0,0.0
324,80.75,116.852,136.457,100.989,115.316,96.32,0.0150199,1.73625,18.3589,29.7986,1.61107,0.0,0.0
327,81.5,117.899,137.894,100.153,115.315,94.9434,0.0155758,1.77067,18.2839,29.5483,1.73988,0.0,0.0
330,82.25,119.049,139.219,91.3284,115.323,93.1178,0.0161297,1.81915,18.2045,29.3381,1.91424,0.0,0.0
333,83,120.385,141.183,84.9542,115.325,93.9083,0.0166753,1.8615,18.1364,29.228,1.83876,0.0,0.0
336,83.75,121.789,143.113,102.471,115.321,91.1836,0.0171742,1.90435,18.0694,28.9277,2.10192,0.0,0.0
339,84.5,123.164,145.015,89.0401,115.318,95.7765,0.0177111,1.95531,18.0026,28.7275,1.6619,0.0,0.0
342,85.25,124.438,146.571,84.5428,115.313,93.7235,0.0181024,2.00718,17.9198,28.4673,1.8554,0.0,0.0
345,86,125.6,148.243,84.9817,115.314,94.4916,0.0185784,2.05127,17.8482,28.3372,1.7825,0.0,0.0
348,86.75,126.99,149.839,84.7314,115.308,94.4013,0.0190066,2.108,17.7563,28.0869,1.79058,0.0,0.0
351,87.5,128.988,152.968,84.6879,115.299,93.115,0.0195558,2.15983,17.6744,27.8467,1.91262,0.0,0.0
354,88.25,130.15,154.47,87.8135,115.297,92.4222,0.0201297,2.22595,17.5894,27.5464,1.97931,0.0,0.0
357,89,132.376,156.901,92.9503,115.293,92.6402,0.0207173,2.27414,17.4902,27.4263,1.95797,0.0,0.0
360,89.75,133.406,158.451,80.2975,115.3,89.801,0.0213086,2.33983,17.3826,27.156,2.23713,0.0,0.0
363,90.5,134.33,160.679,90.4758,115.278,90.7238,0.0219815,2.41042,17.2726,26.8858,2.14387,0.0,0.0
366,91.25,136.659,162.497,79.2556,115.286,90.721,0.0226315,2.48073,17.1642,26.6255,2.1448,0.0,0.0
369,92,138.458,165.198,82.2255,115.284,89.3809,0.0231734,2.54768,17.0653,26.4253,2.27782,0.0,0.0
372,92.75,139.903,167.343,88.3752,115.289,88.0039,0.0237882,2.61776,16.9848,26.1551,2.41719,0.0,0.0
375,93.5,142.061,170.035,75.4141,115.279,89.3734,0.0244113,2.68358,16.8921,25.7747,2.27821,0.0,0.0
378,94.25,143.136,172.316,77.2444,115.283,90.1265,0.0250042,2.73785,16.7994,25.6646,2.20339,0.0,0.0
381,95,145.511,174.045,88.766,115.283,88.5867,0.0256746,2.80684,16.721,25.3643,2.35764,0.0,0.0
384,95.75,146.822,177.519,75.8873,115.274,89.3823,0.0263749,2.86796,16.623,25.084,2.27692,0.0,0.0
387,96.5,148.836,179.842,75.898,115.273,88.5436,0.0269756,2.93104,16.5205,24.9239,2.36119,0.0,0.0
390,97.25,150.658,182.318,67.144,115.266,88.3486,0.0277427,3.00074,16.4326,24.4735,2.38038,0.0,0.0
393,98,152.474,185.032,88.6187,115.277,90.4801,0.0286313,3.06185,16.3319,24.2833,2.16784,0.0,0.0
396,98.75,154.057,187.19,77.2322,115.271,87.6446,0.0294197,3.12402,16.2446,23.9229,2.45242,0.0,0.0
399,99.5,156.388,190.17,76.9406,115.278,88.532,0.0303714,3.19538,16.1572,23.6927,2.36277,0.0,0.0
402,100.25,158.014,192.742,76.1529,115.264,87.5997,0.0313598,3.26152,16.0572,23.4124,2.45639,0.0,0.0
405,101,159.637,195.777,73.7578,115.269,87.8448,0.032309,3.33388,15.9296,23.1522,2.43178,0.0,0.0
408,101.75,162.292,198.027,69.6269,115.263,87.567,0.0333432,3.41365,15.7985,22.9019,2.45966,0.0,0.0
411,102.5,163.657,200.819,81.3943,115.265,86.9687,0.0344208,3.48331,15.6664,22.5516,2.5212,0.0,0.0
414,103.25,165.695,204.076,81.4928,115.25,86.4491,0.0350764,3.57537,15.5446,22.2413,2.57372,0.0,0.0
417,104,167.471,206.574,64.1077,115.248,85.9121,0.0359686,3.67192,15.3818,21.931,2.62927,0.0,0.0
420,104.75,170.203,210.007,71.7694,115.256,86.5725,0.0368655,3.78085,15.2254,21.5206,2.56138,0.0,0.0
423,105.5,172.058,212.874,68.9316,115.262,86.1974,0.0375194,3.88501,15.1113,21.2904,2.60072,0.0,0.0
426,106.25,174.325,215.611,73.8364,115.254,84.6,0.037996,3.95462,14.9978,20.9,2.76749,0.0,0.0
429,107,176.835,219.733,66.3563,115.261,88.9932,0.0386665,4.06385,14.902,20.5897,2.31496,0.0,0.0
432,107.75,179.245,223.065,66.8974,115.269,86.9154,0.0392929,4.15577,14.7956,20.2294,2.52698,0.0,0.0
435,108.5,181.004,226.309,73.9539,115.283,85.1899,0.0399988,4.2758,14.6766,19.8891,2.70755,0.0,0.0
438,109.25,183.512,229.657,72.2953,115.276,85.2736,0.0406581,4.3633,14.5459,19.5187,2.69822,0.0,0.0
441,110,185.749,233.19,64.9022,115.275,85.2656,0.0412783,4.42708,14.3813,19.2084,2.69898,0.0,0.0
444,110.75,188.538,237.025,67.1699,115.285,83.839,0.0419225,4.53544,14.2334,18.9181,2.85077,0.0,0.0
447,111.5,191.19,240.927,56.4161,115.307,87.6385,0.0424927,4.64651,14.0778,18.5878,2.4558,0.0,0.0
450,112.25,192.926,243.837,58.3022,115.301,85.9359,0.0431208,4.75531,13.9096,18.0773,2.63096,0.0,0.0
453,113,195.332,247.198,71.1993,115.309,83.6725,0.0436839,4.85881,13.7637,17.8071,2.87045,0.0,0.0
456,113.75,197.67,251.098,62.4163,115.314,85.9832,0.0442742,4.9639,13.6175,17.3767,2.62702,0.0,0.0
459,114.5,200.01,254.568,66.9967,115.325,81.75,0.0448761,5.05709,13.4975,17.0864,3.07976,0.0,0.0
462,115.25,202.032,258.136,79.148,115.34,88.8814,0.0454192,5.1321,13.3853,16.686,2.3323,0.0,0.0
465,116,204.307,261.783,61.4034,115.329,84.0167,0.0458595,5.20307,13.3008,16.3457,2.83526,0.0,0.0
468,116.75,206.792,265.03,81.2913,115.345,82.9718,0.0463423,5.25487,13.2382,15.9753,2.94851,0.0,0.0
471,117.5,209.268,268.51,75.8583,115.358,80.0904,0.0468228,5.29276,13.1885,15.655,3.26591,0.0,0.0
474,118.25,210.898,271.618,71.5504,115.371,81.7154,0.047228,5.32166,13.1457,15.2046,3.08711,0.0,0.0
477,119,213.106,274.363,63.0765,115.363,82.6972,0.0477696,5.35008,13.1017,14.8042,2.97955,0.0,0.0
480,119.75,214.982,277.781,59.6097,115.403,81.6214,0.0481645,5.37393,13.0642,14.4539,3.09987,0.0,0.0
483,120.5,216.616,279.9,64.0069,115.379,79.2293,0.0487663,5.41269,13.0223,14.1335,3.36429,0.0,0.0
486,121.25,218.512,282.875,64.3649,115.4,79.9889,0.0493762,5.44856,12.9855,13.7932,3.28045,0.0,0.0
489,122,220.374,285.518,61.2187,115.4,79.0759,0.0498938,5.47796,12.9561,13.4329,3.3832,0.0,0.0
492,122.75,222.448,288.559,75.6079,115.411,78.3972,0.0505617,5.49587,12.9347,13.0825,3.46126,0.0,0.0
495,123.5,224.366,291.781,76.0522,115.421,78.4669,0.0512924,5.50892,12.9201,12.7322,3.45407,0.0,0.0
498,124.25,225.679,293.671,64.4076,115.433,78.5337,0.051901,5.51542,12.9128,12.3919,3.44738,0.0,0.0
501,125,227.693,296.244,70.6138,115.443,79.7401,0.0524742,5.51741,12.9107,12.1717,3.3117,0.0,0.0
504,125.75,228.861,298.156,63.8459,115.455,75.7127,0.0529862,5.51069,12.9533,11.7413,3.77648,0.0,0.0
507,126.5,230.871,301.137,69.546,115.449,80.6326,0.0533595,5.49383,12.9844,11.451,3.21252,0.0,0.0
510,127.25,232.443,303.391,60.3478,115.479,79.6058,0.0535004,5.44458,13.0618,11.0005,3.32958,0.0,0.0
513,128,233.835,305.971,68.0775,115.494,74.882,0.0534318,5.37515,13.1698,10.7703,3.87827,0.0,0.0
516,128.75,235.554,307.761,67.8172,115.485,75.2875,0.0533086,5.31024,13.2968,10.3799,3.8292,0.0,0.0
519,129.5,235.994,309.334,79.232,115.509,74.5396,0.0528342,5.19618,13.3894,10.0997,3.92048,0.0,0.0
522,130.25,237.329,310.609,77.1765,115.526,75.8362,0.0524884,5.11303,13.5508,9.81941,3.7674,0.0,0.0
525,131,238.156,311.539,75.6446,115.542,75.5981,0.0516454,4.96034,13.7732,9.55916,3.79681,0.0,0.0
528,131.75,238.262,311.727,72.9991,115.537,76.1515,0.0507203,4.80438,13.9799,9.11874,3.73117,0.0,0.0
531,132.5,239.075,312.143,79.016,115.542,79.0885,0.0499135,4.67165,14.2289,8.93857,3.39278,0.0,0.0
534,133.25,239.364,312.411,73.4723,115.55,77.8709,0.0487458,4.53604,14.5314,8.71836,3.53234,0.0,0.0
537,134,239.615,312.42,95.1714,115.563,78.0211,0.0476424,4.37074,14.7519,8.39805,3.51607,0.0,0.0
540,134.75,240.031,312.232,76.817,115.557,79.2789,0.0464069,4.19437,15.0148,8.22789,3.37246,0.0,0.0
543,135.5,239.513,311.37,82.4507,115.571,77.8649,0.04511,4.0285,15.2537,7.88756,3.53463,0.0,0.0
546,136.25,239.502,311.346,91.2154,115.577,78.3986,0.0439379,3.89168,15.4645,7.63732,3.47392,0.0,0.0
549,137,239.06,310.501,92.1481,115.598,77.0669,0.0429867,3.74917,15.6464,7.48718,3.62893,0.0,0.0
552,137.75,239.12,309.658,77.3665,115.581,77.0037,0.0421116,3.63416,15.8019,7.18689,3.63492,0.0,0.0
555,138.5,238.434,308.242,83.8895,115.568,76.6085,0.0414028,3.53132,15.9335,6.96668,3.67997,0.0,0.0
558,139.25,237.983,307.737,81.3157,115.56,78.1114,0.0408559,3.43753,16.0438,6.72645,3.50547,0.0,0.0
561,140,237.596,306.76,84.091,115.571,78.0286,0.0402221,3.35408,16.1835,6.50624,3.51583,0.0,0.0
564,140.75,237.545,306.321,81.676,115.549,78.5782,0.0399924,3.27566,16.2398,6.30604,3.45127,0.0,0.0
567,141.5,236.721,305.21,86.3487,115.534,78.8317,0.0394725,3.19942,16.3398,6.12587,3.42128,0.0,0.0
570,142.25,235.722,303.977,86.2465,115.524,76.2516,0.0388488,3.11282,16.4475,5.80556,3.71836,0.0,0.0
573,143,235.941,303.166,92.5588,115.513,74.7828,0.0381205,3.01243,16.5602,5.7355,3.89158,0.0,0.0
576,143.75,234.909,301.634,91.8207,115.49,75.4026,0.0373002,2.9487,16.7155,5.43521,3.81593,0.0,0.0
579,144.5,234.344,300.922,93.2839,115.458,77.4785,0.0361748,2.85601,16.8923,5.30508,3.57042,0.0,0.0
582,145.25,233.706,299.315,91.7253,115.437,76.1506,0.0349738,2.75584,17.0706,5.02482,3.72353,0.0,0.0
585,146,232.415,297.367,95.1745,115.422,78.1464,0.0337228,2.64193,17.2388,4.87467,3.4908,0.0,0.0
588,146.75,231.901,296.06,97.9635,115.404,79.4678,0.0324464,2.53153,17.4212,4.71452,3.33931,0.0,0.0
591,147.5,230.914,294.039,100.846,115.379,79.4028,0.0312659,2.42395,17.5543,4.55436,3.34471,0.0,0.0
594,148.25,229.574,292.219,100.075,115.36,80.2022,0.0299778,2.31912,17.718,4.35417,3.25357,0.0,0.0
597,149,227.849,289.745,103.743,115.346,81.4371,0.0286826,2.20893,17.8653,4.29412,3.11568,0.0,0.0
600,149.75,226.539,287.92,102.948,115.314,78.6825,0.0275865,2.11419,18.0204,4.16399,3.42124,0.0,0.0
603,150.5,225.75,286.42,107.726,115.292,80.4221,0.0262894,1.99349,18.1811,4.11394,3.22373,0.0,0.0
606,151.25,224.087,283.852,107.221,115.271,79.2223,0.0249814,1.88597,18.3501,4.00384,3.35671,0.0,0.0
609,152,222.73,281.385,111.667,115.26,80.8613,0.0236566,1.77419,18.5269,3.88372,3.17255,0.0,0.0
612,152.75,220.767,278.728,110.649,115.227,81.1405,0.0223201,1.65419,18.6783,3.78363,3.13912,0.0,0.0
615,153.5,218.701,276.005,113.856,115.197,83.57,0.0213457,1.55006,18.8273,3.70355,2.87274,0.0,0.0
618,154.25,217.862,274.272,118.673,115.182,85.5528,0.0197658,1.44568,19.0039,3.6535,2.6617,0.0,0.0
621,155,216.264,271.429,117.99,115.157,91.4966,0.0183403,1.33146,19.1327,3.57342,2.05852,0.0,0.0
624,155.75,213.953,268.729,121.465,115.136,92.1196,0.0168332,1.2482,19.2902,3.53339,1.99618,0.0,0.0
627,156.5,212.322,265.655,124.61,115.113,94.1389,0.0152991,1.15204,19.4465,3.51337,1.80032,0.0,0.0
630,157.25,209.757,262.363,124.53,115.093,94.7418,0.0139284,1.06683,19.5974,3.45331,1.74162,0.0,0.0
633,158,207.873,259.991,123.025,115.087,97.4506,0.012726,0.971698,19.7404,3.48334,1.48884,0.0,0.0
636,158.75,206.005,257.199,123.633,115.071,98.7411,0.011686,0.883003,19.89,3.40326,1.36985,0.0,0.0
639,159.5,204.398,254.414,127.739,115.046,100.013,0.0107258,0.80354,20.0088,3.37323,1.25334,0.0,0.0
642,160.25,202.202,252.08,126.46,115.049,101.182,0.00985231,0.734395,20.112,3.38324,1.14962,0.0,0.0
645,161,199.589,248.433,128.635,115.035,102.498,0.00906601,0.66923,20.2069,3.32318,1.03278,0.0,0.0
648,161.75,197.712,245.558,131.058,115.092,103.103,0.00841034,0.616255,20.276,3.32318,0.98455,0.0,0.0
651,162.5,195.596,242.92,128.456,115.2,103.22,0.00779132,0.568283,20.344,3.32318,0.98283,0.0,0.0
654,163.25,194.08,240.508,128.772,115.295,103.862,0.00721629,0.523461,20.4029,3.29316,0.934721,0.0,0.0
657,164,191.962,237.261,131.509,115.412,104.401,0.00671793,0.490785,20.4551,3.21308,0.897394,0.0,0.0
660,164.75,190.203,234.758,131.151,115.505,103.909,0.00627865,0.455104,20.5023,3.25312,0.946889,0.0,0.0
663,165.5,188.477,231.778,131.519,115.587,104.73,0.00588621,0.422,20.5537,3.19306,0.882903,0.0,0.0
666,166.25,186.662,229.853,131.122,115.663,106.285,0.00548944,0.394843,20.5995,3.17304,0.756786,0.0,0.0
669,167,184.169,226.57,133.775,115.734,107.301,0.0051375,0.367786,20.6396,3.19306,0.677093,0.0,0.0
672,167.75,182.535,224.308,133.644,115.807,107.185,0.0048542,0.343337,20.6739,3.17304,0.69245,0.0,0.0
675,168.5,180.641,221.486,135.307,115.851,107.435,0.00458508,0.319483,20.7047,3.18305,0.675083,0.0,0.0
678,169.25,179.238,219.351,132.508,115.912,107.445,0.00434544,0.298611,20.7296,3.14301,0.678957,0.0,0.0
681,170,177.392,217.003,136.27,115.959,107.769,0.00414205,0.280365,20.754,3.14301,0.655599,0.0,0.0
684,170.75,175.72,214.683,133.506,115.988,108.642,0.00396933,0.263456,20.7739,3.16303,0.585639,0.0,0.0
687,171.5,174.066,211.87,133.1,116.011,108.368,0.00383632,0.249592,20.792,3.17304,0.609975,0.0,0.0
690,172.25,172.231,209.696,137.901,116.035,108.255,0.00372723,0.234711,20.8121,3.15302,0.621243,0.0,0.0
693,173,170.619,207.635,134.007,116.042,108.496,0.003632,0.222386,20.8303,3.14301,0.601854,0.0,0.0
696,173.75,169.05,204.876,133.898,116.045,108.639,0.00354299,0.210875,20.8467,3.15302,0.590305,0.0,0.0
699,174.5,167.449,202.911,135.651,116.031,108.532,0.00346976,0.200086,20.8614,3.15302,0.598053,0.0,0.0
702,175.25,165.651,200.833,134.522,116.009,108.351,0.00336581,0.189503,20.8722,3.17304,0.6113,0.0,0.0
705,176,164.337,198.308,136.004,115.981,108.341,0.00329002,0.180287,20.8822,3.14301,0.609948,0.0,0.0
708,176.75,162.69,196.593,133.016,115.946,108.222,0.00320302,0.17224,20.8901,3.14301,0.617024,0.0,0.0
711,177.5,161.57,193.917,132.918,115.885,108.648,0.00311834,0.164778,20.8954,3.15302,0.577202,0.0,0.0
714,178.25,159.374,192.052,137.13,115.842,108.577,0.00304342,0.158657,20.9018,3.12299,0.57974,0.0,0.0
717,179,157.941,190.397,136.929,115.761,108.853,0.00296619,0.153196,20.9086,3.15302,0.550732,0.0,0.0
720,179.75,156.966,187.991,135.853,115.675,108.684,0.00289255,0.147508,20.9155,3.15302,0.557979,0.0,0.0
723,180.5,155.582,186.289,135.994,115.59,108.29,0.00280924,0.141963,20.922,3.12299,0.583851,0.0,0.0
726,181.25,154.222,184.677,139.908,115.508,108.525,0.00270853,0.137097,20.9277,3.11298,0.558205,0.0,0.0
729,182,153.168,182.453,136.831,115.42,108.38,0.00263512,0.132824,20.9322,3.10297,0.563251,0.0,0.0
732,182.75,151.639,180.529,135.14,115.445,108.762,0.00256596,0.12907,20.9364,3.11298,0.533777,0.0,0.0
735,183.5,150.079,178.309,137.191,115.493,108.535,0.00252286,0.12561,20.9403,3.11298,0.556086,0.0,0.0
738,184.25,149.013,177.115,138.854,115.523,108.088,0.00250288,0.122779,20.9439,3.11298,0.595467,0.0,0.0
741,185,147.559,174.92,140.272,115.57,108.134,0.00250257,0.119745,20.9466,3.11298,0.595217,0.0,0.0
744,185.75,146.019,173.149,139.753,115.617,108.571,0.00251973,0.117264,20.9494,3.09296,0.562783,0.0,0.0
747,186.5,145.351,171.939,139.741,115.689,108.475,0.00253467,0.114993,20.9518,3.08295,0.5763,0.0,0.0
750,187.25,143.789,169.899,136.194,115.742,108.5,0.00254661,0.112845,20.9548,3.09296,0.578262,0.0,0.0
753,188,142.069,167.991,137.035,115.783,108.742,0.00253097,0.110877,20.9575,3.08295,0.561588,0.0,0.0
756,188.75,140.489,165.877,137.196,115.844,109.014,0.00250163,0.109272,20.9596,3.06294,0.543904,0.0,0.0
759,189.5,140.317,164.95,142.192,115.901,108.62,0.00244955,0.107431,20.9618,3.07294,0.580742,0.0,0.0
762,190.25,138.912,163.493,137.983,115.95,108.96,0.00238239,0.105662,20.9636,3.09296,0.556589,0.0,0.0
765,191,137.276,161.696,135.53,116.02,108.956,0.00230882,0.10419,20.9653,3.11298,0.562231,0.0,0.0
768,191.75,136.522,160.62,135.159,116.072,108.441,0.0022344,0.102487,20.9674,3.08295,0.608673,0.0,0.0
771,192.5,135.486,158,139.09,116.125,108.681,0.00216677,0.101044,20.9694,3.07294,0.592924,0.0,0.0
774,193.25,134.499,157.492,138.89,116.187,108.599,0.00211498,0.0996439,20.9708,3.08295,0.604495,0.0,0.0
777,194,133.711,156.278,136.466,116.224,108.763,0.00208269,0.0982796,20.9724,3.05293,0.593818,0.0,0.0
780,194.75,132.905,154.494,136.497,116.262,109.08,0.00206608,0.0969649,20.9741,3.06294,0.57071,0.0,0.0
783,195.5,131.957,153.534,136.268,116.307,108.797,0.00205397,0.0957095,20.9755,3.07294,0.597375,0.0,0.0
786,196.25,130.062,152.02,136.735,116.341,109.085,0.00204688,0.0943633,20.9769,3.09296,0.576404,0.0,0.0
789,197,130.505,150.878,139.051,116.35,108.977,0.00204292,0.0931212,20.9784,3.11298,0.585992,0.0,0.0
792,197.75,129.104,149.048,138.864,116.371,108.858,0.00203608,0.0921045,20.9799,3.11298,0.5973,0.0,0.0
795,198.5,128.306,148.501,134.07,116.366,109.06,0.00202344,0.0909721,20.981,3.10297,0.58038,0.0,0.0
798,199.25,126.529,146.484,139.024,116.369,109.12,0.00199824,0.0900239,20.9818,3.11298,0.575683,0.0,0.0
801,200,126.609,145.93,138.134,116.359,109.433,0.00195254,0.0891229,20.9811,3.09296,0.549221,0.0,0.0
804,200.75,125.672,144.965,136.991,116.336,109.276,0.00189374,0.0882511,20.9808,3.06294,0.560398,0.0,0.0
807,201.5,124.313,143.229,140.853,116.309,109.106,0.00183489,0.0876156,20.981,3.05293,0.572194,0.0,0.0
810,202.25,123.639,142.071,136.594,116.286,109.016,0.00178327,0.0868099,20.9816,3.06294,0.577838,0.0,0.0
813,203,123.182,141.279,139.043,116.253,108.679,0.00174818,0.0859686,20.9823,3.07294,0.602941,0.0,0.0
816,203.75,122.359,140.183,137.453,116.174,109.514,0.00172697,0.0851706,20.9833,3.07294,0.528398,0.0,0.0
819,204.5,121.499,139.311,137.076,116.119,109.157,0.00171758,0.084452,20.9841,3.05293,0.553326,0.0,0.0
822,205.25,120.37,137.578,137.378,116.065,108.907,0.00171714,0.0838698,20.9847,3.07294,0.569801,0.0,0.0
825,206,120.081,136.881,139.379,115.979,108.537,0.00172338,0.0831919,20.9851,3.08295,0.593552,0.0,0.0
828,206.75,119.059,135.652,142.42,115.902,108.423,0.00173139,0.0826185,20.9859,3.09296,0.597017,0.0,0.0
831,207.5,118.446,135.091,136.916,115.797,108.369,0.00171903,0.0820652,20.9866,3.10297,0.593335,0.0,0.0
834,208.25,117.886,134.464,136.115,115.696,108.483,0.00169013,0.0815449,20.9871,3.09296,0.576186,0.0,0.0
837,209,116.897,132.58,136.292,115.613,108.119,0.00164833,0.0810837,20.9875,3.07294,0.599859,0.0,0.0
840,209.75,116.75,132.046,137.873,115.494,108.299,0.00159873,0.0806046,20.9878,3.05293,0.575771,0.0,0.0
843,210.5,115.532,130.952,136.327,115.378,108.179,0.00152985,0.080071,20.988,3.03291,0.576614,0.0,0.0
846,211.25,115.184,130.121,134.313,115.279,108.17,0.00144856,0.0796001,20.9886,3.05293,0.569734,0.0,0.0
849,212,113.905,129.212,137.495,115.161,108.064,0.00138687,0.0792219,20.9892,3.07294,0.569265,0.0,0.0
852,212.75,114.112,128.388,141.112,115.051,107.628,0.00134087,0.0788098,20.9897,3.04292,0.596944,0.0,0.0
855,213.5,113.322,126.977,137.568,114.942,107.79,0.00132806,0.0784664,20.9904,3.03291,0.575019,0.0,0.0
858,214.25,112.453,126.323,137.223,114.838,107.465,0.00132961,0.0781423,20.9912,3.03291,0.593937,0.0,0.0
861,215,111.926,125.897,137.24,114.76,108.289,0.00133858,0.0777893,20.9917,3.03291,0.519471,0.0,0.0
864,215.75,110.763,124.785,141.355,114.644,107.357,0.00135057,0.0774091,20.9921,3.03291,0.587815,0.0,0.0
867,216.5,110.512,123.975,140.728,114.552,107.562,0.00136568,0.0770797,20.9924,3.04292,0.563559,0.0,0.0
870,217.25,110.78,123.943,140.385,114.485,107.25,0.00138761,0.0766839,20.9933,3.03291,0.584295,0.0,0.0
873,218,109.563,122.789,140.189,114.399,107.081,0.00142087,0.0762862,20.9939,3.03291,0.591675,0.0,0.0
876,218.75,108.764,122.045,138.716,114.334,106.801,0.00145361,0.0759283,20.9943,3.05293,0.610003,0.0,0.0
879,219.5,108.075,120.836,138.374,114.259,107.18,0.00148237,0.0756306,20.9947,3.07294,0.572415,0.0,0.0
882,220.25,107.444,120.408,137.827,114.204,106.585,0.00150552,0.0753045,20.9949,3.03291,0.617959,0.0,0.0
885,221,106.866,119.581,136.801,114.17,107.257,0.00150683,0.0750204,20.9951,3.0229,0.559055,0.0,0.0
888,221.75,106.714,118.486,138.488,114.131,106.457,0.00150779,0.0746771,20.9952,3.04292,0.623049,0.0,0.0
891,222.5,106.083,117.99,142.318,114.1,106.64,0.00147819,0.074386,20.9951,3.0229,0.605267,0.0,0.0
894,223.25,105.326,116.958,140.428,114.086,106.7,0.00144371,0.0741492,20.9947,3.00288,0.599067,0.0,0.0
897,224,104.802,116.129,141.173,114.089,107.108,0.00140137,0.0739643,20.9944,3.01289,0.565098,0.0,0.0
900,224.75,104.455,115.545,139.948,114.086,106.851,0.00134108,0.0738295,20.9944,3.05293,0.586364,0.0,0.0
903,225.5,104.407,114.919,137.887,114.104,106.866,0.00127471,0.0736147,20.9948,3.01289,0.586618,0.0,0.0
906,226.25,103.423,113.795,139.957,114.133,106.352,0.00121785,0.0734222,20.9951,3.03291,0.631933,0.0,0.0
909,227,102.412,113.522,136.046,114.149,106.636,0.0011728,0.0732206,20.9953,3.05293,0.609353,0.0,0.0
912,227.75,102.41,113.33,141.561,114.212,106.631,0.00113995,0.0730055,20.9955,3.06294,0.614733,0.0,0.0
915,228.5,102.293,112.723,140.813,114.223,107.094,0.00112084,0.0727911,20.9956,3.06294,0.576786,0.0,0.0
918,229.25,101.313,112.042,136.789,114.293,107.19,0.00111407,0.0725857,20.9957,3.09296,0.574268,0.0,0.0
921,230,101.384,111.366,141.244,114.35,107.417,0.00111784,0.0723583,20.996,3.07294,0.559807,0.0,0.0
924,230.75,100.233,110.932,140.986,114.409,107.05,0.0011244,0.07207,20.9966,3.06294,0.5951,0.0,0.0
927,231.5,100.713,110.011,141.034,114.482,107.453,0.00113573,0.0717718,20.997,3.07294,0.567191,0.0,0.0
930,232.25,100.029,109.325,140.944,114.549,107.64,0.00113017,0.0714932,20.9973,3.07294,0.556767,0.0,0.0
933,233,99.3956,109.022,140.179,114.634,107.007,0.00110831,0.0712356,20.9976,3.08295,0.616265,0.0,0.0
936,233.75,99.2113,108.824,140.466,114.711,107.116,0.0010619,0.0710247,20.998,3.08295,0.613133,0.0,0.0
939,234.5,98.5691,108.11,140.073,114.778,107.965,0.000981557,0.0708709,20.9987,3.05293,0.547762,0.0,0.0
942,235.25,97.7529,106.792,136.612,114.859,107.031,0.000916631,0.0707588,20.9992,3.05293,0.631803,0.0,0.0
945,236,97.7626,107.126,141.284,114.942,107.802,0.000858434,0.070677,20.9995,3.04292,0.574012,0.0,0.0
948,236.75,97.4808,106.069,141.7,115.036,107.77,0.000829783,0.0705494,20.9998,3.0229,0.584,0.0,0.0
951,237.5,97.445,105.669,138.671,115.118,107.668,0.000808897,0.0704274,21,3.00288,0.598836,0.0,0.0
954,238.25,96.2442,104.826,140.122,115.18,107.502,0.000812615,0.0702996,21.0001,3.00288,0.617479,0.0,0.0
957,239,96.0149,104.436,136.686,115.246,108.235,0.000805619,0.0701793,21.0002,3.01289,0.561817,0.0,0.0
960,239.75,96.1286,104.091,139.917,115.314,107.653,0.000786115,0.07008,21.0003,3.05293,0.615327,0.0,0.0
963,240.5,95.6696,103.811,138.861,115.366,107.854,0.000737472,0.0699493,21.0004,3.03291,0.602682,0.0,0.0
966,241.25,95.1064,103.148,142.212,115.435,107.788,0.000689949,0.0698112,21.0004,3.0229,0.613484,0.0,0.0
969,242,94.8826,102.455,141.435,115.473,107.527,0.000652703,0.069689,21.0004,3.01289,0.638154,0.0,0.0
972,242.75,94.7293,102.441,141.705,115.512,107.546,0.000629892,0.0694664,21.0005,3.01289,0.639603,0.0,0.0
975,243.5,94.2762,101.29,143.638,115.551,107.939,0.000627739,0.0692335,21.0005,3.00288,0.610003,0.0,0.0
978,244.25,93.3627,101.265,139.712,115.576,108.354,0.000632341,0.0690025,21.0005,3.04292,0.57747,0.0,0.0
981,245,93.6343,100.949,139.886,115.583,108.167,0.000635696,0.0688536,21.0005,3.05293,0.59352,0.0,0.0
984,245.75,93.0981,100.195,142.531,115.591,108.124,0.000643859,0.068745,20.9999,3.03291,0.597695,0.0,0.0
987,246.5,93.3011,99.9368,138.337,115.591,107.959,0.000659584,0.0686658,20.9994,3.05293,0.611413,0.0,0.0
990,247.25,92.5641,98.9762,140.528,115.584,107.51,0.000653834,0.0686081,20.9991,3.05293,0.648175,0.0,0.0
993,248,92.2313,98.9245,137.164,115.559,108.135,0.000639992,0.0685231,20.9989,3.03291,0.594382,0.0,0.0
996,248.75,92.2455,98.7276,137.118,115.535,108.181,0.000628199,0.0683877,20.9987,3.0229,0.588593,0.0,0.0
999,249.5,91.8197,97.9792,141.069,115.509,107.97,0.000627616,0.0682696,20.9986,3.0229,0.604147,0.0,0.0
1002,250.25,91.2145,97.9475,140.978,115.469,108.262,0.000639135,0.0681764,20.9985,3.03291,0.57683,0.0,0.0
1005,251,91.1369,97.2354,139.476,115.414,108.278,0.000671636,0.0680962,20.9984,3.04292,0.571277,0.0,0.0
1008,251.75,90.6564,96.9205,140.812,115.365,107.355,0.00069533,0.0680377,20.9983,3.04292,0.644048,0.0,0.0
1011,252.5,90.8295,96.6676,141.146,115.337,107.57,0.000740161,0.0679543,20.9983,3.03291,0.624027,0.0,0.0
1014,253.25,90.786,96.2717,141.704,115.284,107.872,0.000766805,0.0678475,20.9985,3.05293,0.594787,0.0,0.0
1017,254,90.0453,95.861,139.799,115.244,107.708,0.000783653,0.0677208,20.9991,3.06294,0.605258,0.0,0.0
1020,254.75,89.3356,95.4444,138.774,115.198,107.54,0.000780433,0.0675896,20.9995,3.04292,0.615704,0.0,0.0
1023,255.5,89.7216,95.0075,135.321,115.153,107.527,0.000778721,0.0674939,20.9998,3.05293,0.613233,0.0,0.0
1026,256.25,89.2942,94.5497,138.619,115.116,108.275,0.00077856,0.0674242,21,3.04292,0.548361,0.0,0.0
1029,257,88.4588,94.1516,140.744,115.07,107.516,0.000788778,0.0673326,21.0001,3.05293,0.60774,0.0,0.0
1032,257.75,88.8209,94.1978,140.72,115.034,107.347,0.000805889,0.0672485,21.0002,3.04292,0.619009,0.0,0.0
1035,258.5,88.6558,93.6659,142.985,115.006,107.195,0.000822482,0.0671872,21.0003,3.04292,0.629508,0.0,0.0
1038,259.25,87.9927,93.8583,140.662,114.999,107.248,0.000841828,0.0671153,21.0004,3.04292,0.62455,0.0,0.0
1041,260,87.9512,92.4549,137.132,115.008,107.574,0.000862201,0.0670298,21.0004,3.04292,0.59811,0.0,0.0
1044,260.75,87.998,93.1539,142.41,115.164,107.758,0.000882491,0.0669308,21.0005,3.0229,0.59493,0.0,0.0
1047,261.5,87.838,92.4091,141.553,115.325,107.664,0.000895558,0.0668515,21.0005,3.03291,0.615225,0.0,0.0
1050,262.25,86.641,91.6849,139.693,115.456,107.977,0.000897835,0.0667815,21.0007,3.04292,0.599361,0.0,0.0
1053,263,87.0724,91.4908,136.497,115.584,108.286,0.000896404,0.0666917,21.0013,3.05293,0.583804,0.0,0.0
1056,263.75,86.6016,91.3757,140.325,115.692,107.855,0.000872963,0.0665991,21.0017,3.04292,0.627799,0.0,0.0
1059,264.5,86.2721,91.4367,142.859,115.78,108.437,0.000830523,0.0665199,21.002,3.0229,0.58651,0.0,0.0
1062,265.25,86.258,90.7783,142.833,115.85,108.371,0.000788776,0.0663848,21.0023,3.00288,0.597298,0.0,0.0
1065,266,85.9356,90.8319,138.957,115.922,107.89,0.000739039,0.0662455,21.0024,3.0229,0.642657,0.0,0.0
1068,266.75,85.5784,90.2257,140.643,115.979,108.028,0.000695821,0.0661266,21.0025,3.01289,0.635618,0.0,0.0
1071,267.5,85.3739,89.9311,140.649,115.992,108.715,0.000666487,0.0660593,21.0026,3.00288,0.579842,0.0,0.0
1074,268.25,85.5876,89.4804,139.807,116.002,108.68,0.000645102,0.0659966,21.0027,3.0229,0.583598,0.0,0.0
1077,269,85.0919,89.3621,140.441,116.004,108.205,0.00064672,0.0659452,21.0036,3.0229,0.622967,0.0,0.0
1080,269.75,85.1272,89.4576,139.573,115.978,108.392,0.000653933,0.0658805,21.0047,3.03291,0.605482,0.0,0.0
1083,270.5,84.7557,88.9253,139.913,115.928,108.351,0.000665575,0.0658218,21.0054,3.0229,0.605021,0.0,0.0
1086,271.25,84.7118,88.6638,144.339,115.885,108.355,0.000680579,0.0657382,21.0066,3.04292,0.601281,0.0,0.0
1089,272,85.0278,88.1952,141.308,115.788,108.157,0.000701849,0.0656457,21.0075,3.04292,0.610243,0.0,0.0
1092,272.75,83.8036,87.9809,139.721,115.701,108.046,0.000717354,0.0655537,21.0081,3.03291,0.612701,0.0,0.0
1095,273.5,84.355,88.4448,136.891,115.591,107.873,0.000735546,0.065448,21.0086,3.01289,0.618514,0.0,0.0
1098,274.25,83.8001,87.6233,139.857,115.466,107.868,0.000748132,0.0653981,21.0089,3.01289,0.609197,0.0,0.0
1101,275,83.5927,87.448,140.144,115.401,108.223,0.000756154,0.0653732,21.0092,3.04292,0.574751,0.0,0.0
1104,275.75,83.2839,86.8142,146.26,115.445,108.297,0.000744782,0.065297,21.0095,3.04292,0.572083,0.0,0.0
1107,276.5,83.2408,86.821,139.54,115.489,108.194,0.000721885,0.0652486,21.0098,3.00288,0.583997,0.0,0.0
1110,277.25,83.4435,86.9196,140.876,115.557,108.147,0.000680217,0.0652256,21.0101,3.01289,0.593193,0.0,0.0
1113,278,82.8444,86.0688,141.634,115.619,107.961,0.000598257,0.065196,21.0102,3.0229,0.613352,0.0,0.0
1116,278.75,83.0553,85.895,141.275,115.674,108.094,0.00053355,0.0651476,21.0103,2.98286,0.606614,0.0,0.0
1119,279.5,82.4592,85.7817,141.014,115.744,108.256,0.000429503,0.0650756,21.0104,3.00288,0.598643,0.0,0.0
1122,280.25,82.5124,85.428,142.631,115.839,107.997,0.0003332,0.0649824,21.0105,3.0229,0.627464,0.0,0.0
1125,281,81.9338,85.3161,141.24,115.883,108.419,0.000254909,0.0649185,21.0105,2.98286,0.595884,0.0,0.0
1128,281.75,82.0439,84.5452,140.112,115.967,108.843,0.000198917,0.0649116,21.0106,2.97285,0.56746,0.0,0.0
1131,282.5,81.5236,84.5781,141.518,116.024,108.615,0.000164962,0.0649393,21.0106,3.01289,0.590611,0.0,0.0
1134,283.25,81.8195,84.2384,143.546,116.108,108.985,0.000143375,0.0650206,21.0106,2.99287,0.566623,0.0,0.0
1137,284,81.8867,84.6301,137.374,116.149,109.003,0.000133051,0.0650663,21.0106,3.01289,0.568336,0.0,0.0
1140,284.75,81.756,84.1015,143.223,116.205,108.852,0.000124401,0.0650938,21.0107,2.99287,0.585105,0.0,0.0
1143,285.5,81.4079,84.0189,141.063,116.247,108.711,0.000113182,0.0651139,21.0107,3.01289,0.599929,0.0,0.0
1146,286.25,80.7287,84.3832,141.402,116.297,109.596,9.74249e-05,0.0650704,21.0098,2.98286,0.53121,0.0,0.0
1149,287,80.8627,83.9637,143.115,116.31,109,8.78372e-05,0.0650115,21.0092,3.00288,0.580978,0.0,0.0
1152,287.75,80.7024,83.8372,138.467,116.336,109.368,8.40958e-05,0.0649571,21.0093,2.98286,0.552744,0.0,0.0
1155,288.5,80.2608,83.2162,138.615,116.338,108.719,0.000113979,0.0649162,21.009,2.98286,0.606252,0.0,0.0
1158,289.25,79.918,82.8805,139.073,116.338,109.149,0.000155414,0.0648864,21.0086,2.96284,0.570968,0.0,0.0
1161,290,79.7841,82.0144,144.9,116.332,109.418,0.000219223,0.0648647,21.0083,2.99287,0.548361,0.0,0.0
1164,290.75,79.769,82.1901,140.357,116.325,109.421,0.000312165,0.064856,21.0081,2.97285,0.547627,0.0,0.0
1167,291.5,79.8794,82.6746,141.263,116.264,108.72,0.000379919,0.0648619,21.0079,2.98286,0.600457,0.0,0.0
1170,292.25,80.1586,82.3009,138.973,116.229,108.252,0.000430518,0.0648275,21.0077,2.98286,0.636383,0.0,0.0
1173,293,79.8206,81.612,144.932,116.175,108.658,0.000462207,0.0647616,21.0074,3.00288,0.598665,0.0,0.0
1176,293.75,79.2195,82.1979,142.731,116.107,108.741,0.00047554,0.0646963,21.0071,2.99287,0.586665,0.0,0.0
1179,294.5,78.6775,81.2743,140.415,116.039,108.106,0.00048526,0.0646415,21.0072,2.97285,0.633763,0.0,0.0
1182,295.25,79.2678,81.8236,145.993,115.963,108.604,0.000492346,0.0645894,21.0076,2.97285,0.586775,0.0,0.0
1185,296,79.0356,81.3374,140.321,115.868,107.806,0.000521594,0.0645513,21.0079,2.96284,0.645459,0.0,0.0
1188,296.75,78.9025,81.5079,139.538,115.783,107.949,,0.0645379,,2.96284,0.62701,0.0,0.0
1191,297.5,78.6752,81.1119,142.079,115.667,108.506,,0.0645526,,2.97285,0.572014,0.0,0.0
1194,298.25,78.8845,80.7535,137.95,115.568,108.036,,0.0645361,,2.95283,0.603167,0.0,0.0
1197,299,78.7963,80.7092,144.528,115.475,107.699,,0.0644911,,2.96284,0.623983,0.0,0.0
1200,299.75,78.3346,80.8284,139.616,115.361,107.91,,,,2.99287,0.597551,0.0,0.0
1203,300.5,77.8346,80.0598,141.111,115.251,107.767,,,,2.98286,0.600906,0.0,0.0
1206,301.25,78.0987,80.4824,140.097,115.121,107.471,,,,2.98286,0.615401,0.0,0.0
1209,302,78.6173,80.1957,142.106,115.026,107.634,,,,3.00288,0.594475,0.0,0.0
1212,302.75,77.5743,79.7157,141.712,114.89,107.129,,,,2.99287,0.625996,0.0,0.0
1215,303.5,78.2317,80.0491,142.459,114.778,107.697,,,,2.98286,0.569973,0.0,0.0
1218,304.25,77.6571,79.7326,138.825,114.671,106.913,,,,3.00288,0.627012,0.0,0.0
1221,305,77.8143,79.7872,143.749,114.577,106.823,,,,2.98286,0.627126,0.0,0.0
1224,305.75,77.091,79.4319,139.515,114.47,107.581,,,,3.01289,0.555497,0.0,0.0
1227,306.5,77.4981,78.9076,139.129,114.38,106.819,,,,3.0229,0.612137,0.0,0.0
1230,307.25,77.6025,79.2995,138.98,114.306,106.677,,,,3.01289,0.618204,0.0,0.0
1231,307.5,77.4133,79.0838,142.042,114.284,107.168,,,,2.99287,0.575447,0.0,0.0