File: 01_Data/Nylon/Cone/Nylon_Cone_HF25Scan_220225_R2.csv
Names,Time,Stack TC,Smoke TC,Exh Press,Smoke Comp,Smoke Meas,CO Meter,CO2 Meter,O2 Meter,Sample Mass,Ext Coeff,Start Test,Flame Verif
Chan Gain,,500,500,1,1,1,1,1,1,1,1,1.0,1.0
Offset,,0,0,0.136092,0,0,0,0,0,0,0,0.0,0.0
Gain,,1,1,25.011,15.4219,15.1528,1,1,1,1.00089,1.02113,1.0,1.0
Units,sec,C,C,Pa,%,%,%,%,%,g,/m,,
Baseline,,23.4382,24.6506,161.034,115.723,115.758,-0.00947113,0.0767725,20.8877,-0.0163478,-0.00271603,,
9,2,20.8073,21.2514,159.997,115.806,115.668,-0.00986644,0.080783,20.8811,907.213,0.0106832,0.0,0.0
18,4.25,20.8422,22.1694,158.962,115.818,115.988,-0.00973949,0.0799648,20.8819,907.254,-0.0131878,0.0,0.0
27,6.5,21.2056,21.7177,161.448,115.834,115.63,-0.00953425,0.0794372,20.8835,907.233,0.0158042,0.0,0.0
36,8.75,21.4122,22.0196,161.564,115.822,115.954,-0.00942552,0.0790043,20.8843,907.273,-0.0102176,0.0,0.0
45,11,21.1612,22.1868,159.295,115.825,115.975,-0.00948926,0.0785714,20.8847,907.264,-0.0116063,0.0,0.0
54,13.25,21.053,21.5379,162.09,115.837,115.937,-0.00961777,0.0782178,20.8844,907.143,-0.00776778,0.0,0.0
63,15.5,21.027,22.2389,157.314,115.838,116.214,-0.00964159,0.0780291,20.8832,907.203,-0.0290331,0.0,0.0
72,17.75,21.5434,22.3128,163.028,115.817,115.82,-0.00949447,0.077818,20.883,907.244,-0.000179924,0.0,0.0
81,20,21.2143,22.1778,155.396,115.836,115.678,-0.00932982,0.07771,20.8837,907.264,0.0122615,0.0,0.0
90,22.25,21.4173,22.5365,158.171,115.828,116.231,-0.00932605,0.0776468,20.884,907.193,-0.0310805,0.0,0.0
99,24.5,21.4345,22.2053,164.474,115.824,116.002,-0.00932323,0.077457,20.8841,907.203,-0.0137139,0.0,0.0
108,26.75,21.444,22.884,161.726,115.816,115.867,-0.00937434,0.0772364,20.8841,907.193,-0.00393673,0.0,0.0
117,29,21.0693,22.2779,162.19,115.834,116.341,-0.00962007,0.0770232,20.8841,907.183,-0.039085,0.0,0.0
126,31.25,21.548,22.3066,163.859,115.822,115.879,-0.00976268,0.0769632,20.8841,907.133,-0.00442867,0.0,0.0
135,33.5,21.8469,22.2043,166.284,115.817,115.998,-0.00974371,0.0769602,20.8859,907.203,-0.0139738,0.0,0.0
144,35.75,21.2767,22.4335,162.219,115.798,116.168,-0.00968685,0.0768662,20.8894,907.223,-0.0285987,0.0,0.0
153,38,21.5113,23.1949,166.217,115.799,115.85,-0.00966496,0.0765017,20.8907,907.203,-0.00392444,0.0,0.0
162,40.25,22.3032,22.3229,158.856,115.792,116.145,-0.00962128,0.0764327,20.8926,907.193,-0.0272518,0.0,0.0
171,42.5,22.0477,22.5428,160.494,115.774,115.898,-0.00948169,0.0762881,20.8934,907.203,-0.00960829,0.0,0.0
180,44.75,21.904,22.9348,158.346,115.768,116.08,-0.00947182,0.076061,20.8939,907.143,-0.0241512,0.0,0.0
189,47,21.6837,23.0581,160.966,115.756,115.92,-0.00968608,0.0760337,20.8951,907.163,-0.0127429,0.0,0.0
198,49.25,21.8087,23.0226,160.098,115.738,115.681,-0.00980541,0.0761511,20.8962,907.163,0.0044014,0.0,0.0
207,51.5,22.3186,23.2432,160.2,115.715,115.593,-0.00981441,0.0761231,20.8968,907.153,0.00949399,0.0,0.0
216,53.75,21.9483,23.0397,161.806,115.71,115.914,-0.00974417,0.0762298,20.8959,907.153,-0.0158124,0.0,0.0
225,56,21.423,23.2108,159.491,115.685,115.573,-0.00971294,0.0763333,20.8952,907.163,0.0086673,0.0,0.0
234,58.25,22.0604,23.2968,166.073,115.661,115.589,-0.00972731,0.0766925,20.8923,907.203,0.00555504,0.0,0.0
243,60.5,21.993,22.9631,157.998,115.639,115.814,-0.00968382,0.0769651,20.8901,907.183,-0.0134845,0.0,0.0
252,62.75,21.9278,22.9296,155.66,115.609,115.666,-0.00959699,0.0768537,20.8892,907.153,-0.0044025,0.0,0.0
261,65,22.147,22.9295,158.85,115.59,115.714,-0.00946426,0.0766861,20.8888,907.143,-0.00962058,0.0,0.0
270,67.25,22.0773,23.3864,161.887,115.553,115.707,-0.00937951,0.07662,20.8887,907.123,-0.0118929,0.0,0.0
279,69.5,22.0209,23.0729,162.967,115.503,115.344,-0.00942466,0.0766733,20.8887,907.133,0.012349,0.0,0.0
288,71.75,21.5873,23.3323,163.979,115.468,115.391,-0.00949135,0.0768049,20.8873,907.103,0.00591252,0.0,0.0
297,74,22.2373,22.7654,166.184,115.403,115.616,-0.00935104,0.0768112,20.8867,907.123,-0.01652,0.0,0.0
306,76.25,22.2064,23.1145,166.204,115.374,115.575,-0.00912017,0.0766807,20.8876,907.123,-0.0155952,0.0,0.0
315,78.5,22.5729,23.5866,155.192,115.298,115.401,-0.00915101,0.0765128,20.8881,907.123,-0.00799435,0.0,0.0
324,80.75,22.8421,23.2596,156.303,115.211,115.225,-0.00944235,0.0760225,20.8913,907.073,-0.00114794,0.0,0.0
333,83,22.4256,23.5725,164.306,115.15,115.388,-0.00965763,0.075653,20.8934,907.043,-0.0185137,0.0,0.0
342,85.25,21.8896,23.5496,163.909,115.081,115.308,-0.0097587,0.0753315,20.8943,907.043,-0.0176481,0.0,0.0
351,87.5,22.4799,23.6449,160.426,115.019,115.145,-0.00967152,0.0750374,20.8964,907.083,-0.00986804,0.0,0.0
360,89.75,21.7494,23.5973,156.538,114.949,115.016,-0.00961161,0.0744176,20.8986,907.033,-0.00521552,0.0,0.0
369,92,22.0134,23.4739,159.814,114.897,115.132,-0.00971369,0.0739026,20.9005,907.013,-0.0183586,0.0,0.0
378,94.25,22.5365,23.3172,163.038,114.837,114.944,-0.0099296,0.0735232,20.9019,907.023,-0.00840155,0.0,0.0
387,96.5,22.7224,23.3518,160.544,114.771,114.819,-0.0100631,0.0734332,20.9024,907.023,-0.00373483,0.0,0.0
396,98.75,21.6091,23.4599,161.765,114.695,114.827,-0.010013,0.0733779,20.9026,907.023,-0.0102994,0.0,0.0
405,101,22.1992,24.0661,164.151,114.654,114.763,-0.0099195,0.0734145,20.9027,907.003,-0.00851858,0.0,0.0
414,103.25,22.4762,23.9753,159.978,114.588,114.717,-0.00983887,0.0734845,20.9026,907.023,-0.0100214,0.0,0.0
423,105.5,23.0745,23.805,163.731,114.522,114.289,-0.00973074,0.0736668,20.9014,906.993,0.0182875,0.0,0.0
432,107.75,22.5434,23.5586,157.634,114.479,114.361,-0.00962025,0.073914,20.9004,906.963,0.00924759,0.0,0.0
441,110,22.9534,23.7414,160.52,114.44,114.322,-0.00961043,0.0741364,20.8993,906.943,0.00919746,0.0,0.0
450,112.25,22.6651,23.5499,159.979,114.37,114.189,-0.00971502,0.0744755,20.8979,906.963,0.0142212,0.0,0.0
459,114.5,23.0029,23.6865,157.55,114.314,114.175,-0.00978345,0.0746885,20.8974,906.903,0.0108859,0.0,0.0
468,116.75,21.7702,24.088,159.471,114.294,114.161,-0.0097085,0.074684,20.8972,906.963,0.0103878,0.0,0.0
477,119,22.9299,23.8448,162.158,114.235,114.081,-0.00958916,0.0746584,20.8971,906.933,0.0120195,0.0,0.0
486,121.25,23.2466,23.6701,161.147,114.181,113.76,-0.00964522,0.0745923,20.8971,906.953,0.0330446,0.0,0.0
495,123.5,23.0319,24.0361,158.282,114.16,113.785,-0.00977787,0.0747721,20.8971,906.943,0.0294534,0.0,0.0
504,125.75,22.629,24.1308,162.052,114.142,113.867,-0.00975967,0.0750604,20.8966,906.873,0.0216094,0.0,0.0
513,128,22.551,23.8259,161.469,114.099,113.778,-0.0097106,0.0751326,20.897,906.903,0.0252347,0.0,0.0
522,130.25,22.7427,23.8559,158.513,114.055,114.05,-0.00969373,0.0753402,20.8976,906.803,0.000343821,0.0,0.0
531,132.5,22.7892,23.7888,162.496,114.029,113.839,-0.00962107,0.0755293,20.8979,906.893,0.0149227,0.0,0.0
540,134.75,22.7967,23.7101,155.593,114.009,113.656,-0.00962338,0.0755785,20.898,906.853,0.0277174,0.0,0.0
549,137,23.2835,23.7206,159.234,113.967,113.314,-0.00975911,0.0754422,20.8981,906.833,0.0514357,0.0,0.0
558,139.25,22.8906,24.2818,160.645,113.948,113.531,-0.00985001,0.0753962,20.897,906.873,0.0328648,0.0,0.0
567,141.5,23.1136,24.3384,161.116,113.946,113.566,-0.00973644,0.0754752,20.8963,906.793,0.0299078,0.0,0.0
576,143.75,23.0908,24.0829,162.4,113.934,113.532,-0.00957977,0.0756422,20.896,906.863,0.0316455,0.0,0.0
585,146,23.012,23.552,160.633,113.912,113.235,-0.0095779,0.075728,20.8959,906.693,0.0534325,0.0,0.0
594,148.25,22.903,24.7793,159.835,113.914,113.393,-0.00964112,0.0757499,20.8955,906.833,0.0410051,0.0,0.0
603,150.5,22.8391,24.1004,159.093,113.9,112.806,-0.00963768,0.0758344,20.8944,906.823,0.0865178,0.0,0.0
612,152.75,23.1442,24.8645,165.017,113.883,113.236,-0.0096426,0.0760997,20.8933,906.623,0.0510652,0.0,0.0
621,155,23.7912,23.9243,157.482,113.886,113.455,-0.00960691,0.0763458,20.8929,906.653,0.0339276,0.0,0.0
630,157.25,23.144,25.0361,162.199,113.885,113.545,-0.00958749,0.0766206,20.8927,906.793,0.0268477,0.0,0.0
639,159.5,23.9403,25.0781,160.49,113.892,113.243,-0.00960359,0.0768907,20.8919,906.653,0.051183,0.0,0.0
648,161.75,22.9134,24.7037,161.707,113.885,113.2,-0.00959344,0.0769834,20.8907,906.623,0.0541044,0.0,0.0
657,164,22.0984,24.5912,163.815,113.899,113.37,-0.0095475,0.0770036,20.8899,906.703,0.0416481,0.0,0.0
666,166.25,22.9363,24.2713,166.926,113.894,113.507,-0.00960086,0.0770987,20.8896,906.663,0.030507,0.0,0.0
675,168.5,22.7109,24.1304,160.772,113.881,112.697,-0.00964671,0.0772403,20.8895,906.713,0.0935962,0.0,0.0
684,170.75,23.4743,24.011,159.278,113.875,113.182,-0.00958068,0.0772554,20.8895,906.603,0.0546796,0.0,0.0
693,173,23.0901,24.7788,160.148,113.891,113.275,-0.00957953,0.0772844,20.89,906.643,0.0485857,0.0,0.0
702,175.25,23.4284,24.6766,158.815,113.887,113.138,-0.00966668,0.0773568,20.8903,906.593,0.0590457,0.0,0.0
711,177.5,23.0967,24.536,160.44,113.89,113.382,-0.00976696,0.0772846,20.8904,906.543,0.0399953,0.0,0.0
720,179.75,23.3326,24.8638,162.477,113.879,113.027,-0.00980226,0.0769854,20.8905,906.633,0.0672439,0.0,0.0
729,182,23.7908,24.4121,160.687,113.904,113.896,-0.00970526,0.076734,20.8919,906.623,0.000647055,0.0,0.0
738,184.25,23.5858,25.2479,162.043,113.907,113.096,-0.00964475,0.0767325,20.8919,906.613,0.0639696,0.0,0.0
747,186.5,23.346,24.3437,161.315,113.891,112.952,-0.00957117,0.0771156,20.891,906.563,0.0741829,0.0,0.0
756,188.75,23.2372,24.7517,164.22,113.911,113.346,-0.00949915,0.0777461,20.8902,906.523,0.0445843,0.0,0.0
765,191,23.9046,25.195,162.499,113.91,113.465,-0.0095662,0.0781707,20.8898,906.513,0.0351232,0.0,0.0
774,193.25,23.3588,25.3098,160.1,113.917,113.241,-0.00966938,0.078132,20.8897,906.513,0.0533285,0.0,0.0
783,195.5,23.5419,25.0922,159.824,113.911,113.305,-0.00964878,0.0780791,20.89,906.583,0.0477998,0.0,0.0
792,197.75,23.5999,24.8255,160.278,113.917,113.172,-0.00950355,0.0781721,20.8902,906.443,0.0587424,0.0,0.0
801,200,23.0609,24.6867,162.428,113.91,112.813,-0.00933718,0.0784078,20.8895,906.423,0.0866342,0.0,0.0
810,202.25,23.4375,25.1241,159.903,113.899,113.261,-0.00924391,0.0783549,20.8885,906.423,0.0503113,0.0,0.0
819,204.5,23.2823,25.0655,158.913,113.919,113.06,-0.00929259,0.0782731,20.8886,906.353,0.0677886,0.0,0.0
828,206.75,23.4095,24.8394,159.236,113.938,113.018,-0.00939078,0.0782425,20.8906,906.413,0.0725667,0.0,0.0
837,209,23.8725,25.0692,157.583,113.909,112.572,-0.00937779,0.0778442,20.8924,906.353,0.105783,0.0,0.0
846,211.25,23.0382,24.4908,162.591,113.884,113.238,-0.00933291,0.0771931,20.8942,906.253,0.0509558,0.0,0.0
855,213.5,24.2226,24.3979,164.467,113.888,113.507,-0.0093616,0.0764984,20.8952,906.243,0.0300249,0.0,0.0
864,215.75,23.1568,24.9147,159.494,113.875,113.745,-0.00949873,0.0765805,20.8956,906.293,0.0101788,0.0,0.0
873,218,23.6143,25.056,158.832,113.87,113.199,-0.00958604,0.0776438,20.8951,906.343,0.0529549,0.0,0.0
882,220.25,23.4126,24.4723,161.569,113.855,113.108,-0.00951424,0.0776384,20.8953,906.363,0.0589078,0.0,0.0
891,222.5,23.7218,24.7903,161.422,113.858,113.264,-0.00941212,0.0773713,20.8968,906.283,0.0468715,0.0,0.0
900,224.75,23.4946,24.9455,159.18,113.847,113.017,-0.00944459,0.0770792,20.8978,906.243,0.0655321,0.0,0.0
909,227,23.6743,24.9211,162.991,113.832,112.003,-0.00955774,0.0767028,20.8983,906.183,0.145047,0.0,0.0
918,229.25,23.2975,25.0342,160.976,113.859,113.212,-0.00952601,0.0762424,20.8999,906.263,0.0510418,0.0,0.0
927,231.5,22.6649,24.4595,158.238,113.869,113.541,-0.00942227,0.0765223,20.9005,906.253,0.0258448,0.0,0.0
936,233.75,23.5629,24.9849,158.725,113.86,112.382,-0.00932851,0.0763342,20.9017,906.143,0.117068,0.0,0.0
945,236,23.2271,24.6271,159.523,113.885,113.418,-0.00927841,0.0764001,20.9026,906.173,0.0367758,0.0,0.0
954,238.25,23.7971,24.465,157.481,113.907,113.378,-0.00923843,0.0760547,20.9043,906.313,0.0416928,0.0,0.0
963,240.5,23.5798,24.5878,160.561,113.926,112.252,-0.00913474,0.0753829,20.9055,906.343,0.132577,0.0,0.0
972,242.75,23.0039,24.759,159.667,113.928,112.849,-0.00910468,0.0746868,20.9085,906.433,0.0852508,0.0,0.0
981,245,23.3112,24.7578,165.701,113.966,113.826,-0.00914212,0.0733355,20.9111,906.373,0.0109872,0.0,0.0
990,247.25,23.4751,24.642,156.805,114.002,110.058,-0.00908787,0.0735005,20.913,906.002,0.315356,0.0,0.0
999,249.5,23.5774,25.2743,160.793,114.014,113.624,-0.00908828,0.0735535,20.9137,906.183,0.0306751,0.0,0.0
1008,251.75,23.2149,24.778,159.875,114.051,113.696,-0.00916645,0.0727583,20.9146,906.203,0.0278739,0.0,0.0
1017,254,23.5647,24.6136,160.987,114.106,113.164,-0.00922159,0.0720959,20.917,906.122,0.0742655,0.0,0.0
1026,256.25,23.3629,24.9424,156.672,114.151,113.922,-0.00922491,0.0716826,20.9179,906.112,0.0179837,0.0,0.0
1035,258.5,23.4555,24.63,162.634,114.1875,113.77,-0.00928782,0.0710659,20.9179,906.283,0.0327967,0.0,0.0
1044,260.75,23.5398,24.9679,154.424,114.252,112.925,-0.00942285,0.07496,20.9094,905.922,0.104617,0.0,0.0
1053,263,23.4448,25.1629,164.995,114.324,114.211,-0.00958935,0.0800081,20.9047,906.163,0.00879424,0.0,0.0
1062,265.25,23.3589,24.8245,158.604,114.379,114.421,-0.00971693,0.0782124,20.9064,905.862,-0.00330648,0.0,0.0
1071,267.5,23.5924,25.2753,161.258,114.426,114.421,-0.00979764,0.0737861,20.9126,906.213,0.000415359,0.0,0.0
1080,269.75,23.474,24.9199,159.855,114.526,114.697,-0.00988816,0.0708322,20.9166,905.822,-0.0133626,0.0,0.0
1089,272,23.653,25.1833,157.801,114.606,114.437,-0.00990613,0.0690062,20.9194,906.042,0.0132841,0.0,0.0
1098,274.25,23.5767,25.2992,161.09,114.686,114.149,-0.0098572,0.0678254,20.922,906.062,0.0420042,0.0,0.0
1107,276.5,23.3779,24.8452,160.869,114.797,114.491,-0.00986389,0.0672888,20.9234,905.992,0.0238983,0.0,0.0
1116,278.75,23.3209,24.6904,163.122,114.9,112.935,-0.0098863,0.0675981,20.9239,906.062,0.154438,0.0,0.0
1125,281,24.0251,24.7866,160.824,114.984,113.792,-0.00976927,0.0686078,20.9241,906.052,0.0933711,0.0,0.0
1134,283.25,23.5107,24.478,162.753,115.07,113.66,-0.00968263,0.0692922,20.9242,905.922,0.110495,0.0,0.0
1143,285.5,23.8184,25.2251,155.4,115.18,113.2,-0.00970581,0.0693169,20.9256,905.942,0.155324,0.0,0.0
1152,287.75,24.0352,25.2437,155.994,115.283,113.366,-0.00961309,0.0689505,20.9264,905.992,0.150137,0.0,0.0
1161,290,23.6155,25.5296,157.73,115.366,114.504,-0.00952728,0.0684618,20.9283,906.143,0.067246,0.0,0.0
1170,292.25,23.4774,25.1654,162.564,115.47,115.144,-0.00949699,0.0673386,20.9304,905.982,0.025356,0.0,0.0
1179,294.5,23.5506,25.1433,163.895,115.55,114.098,-0.00945415,0.0666623,20.9312,906.153,0.113266,0.0,0.0
1188,296.75,24.0346,25.0784,159.055,115.646,114.632,-0.00944613,0.0666334,20.9315,905.962,0.078874,0.0,0.0
1197,299,23.763,25.171,154.077,115.711,114.96,-0.00937334,0.0664944,20.9324,905.802,0.0583944,0.0,0.0
1206,301.25,23.3897,24.8117,160.23,115.798,115.18,-0.00939689,0.066205,20.9328,905.782,0.0479974,0.0,0.0
1215,303.5,23.6804,25.2124,159.975,115.876,115.534,-0.00948429,0.0657834,20.9341,905.942,0.0264623,0.0,0.0
1224,305.75,23.1554,24.2043,158.827,115.934,115.106,-0.00950868,0.0656741,20.9354,906.042,0.0641954,0.0,0.0
1233,308,24.0748,24.8425,159.131,116.001,115.53,-0.00944254,0.0654663,20.9367,905.872,0.0364919,0.0,0.0
1242,310.25,23.6766,25.2931,160.406,116.083,115.446,-0.00932415,0.0652182,20.9387,905.812,0.0492325,0.0,0.0
1251,312.5,23.9691,25.6187,160.948,116.153,115.674,-0.00930342,0.0647293,20.9398,906.012,0.0370789,0.0,0.0
1260,314.75,23.798,25.2924,164.585,116.159,115.835,-0.00931995,0.0642626,20.9395,905.762,0.0249897,0.0,0.0
1269,317,23.5766,25.1135,161.893,116.228,115.793,-0.00942392,0.0639898,20.9405,905.892,0.0335787,0.0,0.0
1278,319.25,23.4764,25.1993,160.682,116.272,115.968,-0.00963768,0.0638446,20.9426,906.062,0.0234755,0.0,0.0
1287,321.5,24.0131,25.2052,158.484,116.29,115.785,-0.00973183,0.0637115,20.9434,905.932,0.0389364,0.0,0.0
1296,323.75,23.9682,25.0667,162.861,116.325,115.984,-0.00968219,0.0634125,20.9448,905.882,0.0262855,0.0,0.0
1305,326,23.3237,25.2944,164.76,116.369,116.06,-0.00969745,0.0629728,20.9457,905.712,0.0238716,0.0,0.0
1314,328.25,23.313,25.0467,161.205,116.375,115.598,-0.00970604,0.0628604,20.946,905.942,0.0600672,0.0,0.0
1323,330.5,23.3997,24.5699,160.15,116.375,115.575,-0.00975613,0.062844,20.9462,905.932,0.0617153,0.0,0.0
1332,332.75,23.5254,24.7376,159.204,116.383,116.319,-0.00983429,0.0626203,20.9465,905.862,0.00492221,0.0,0.0
1341,335,24.0319,25.638,163.544,116.383,115.99,-0.00983761,0.0622939,20.947,905.872,0.0302409,0.0,0.0
1350,337.25,24.1284,25.3567,161.328,116.357,115.958,-0.00969977,0.0618982,20.9474,905.922,0.0307134,0.0,0.0
1359,339.5,24.0792,24.8921,157.724,116.351,116.413,-0.00959366,0.0615627,20.9487,905.962,-0.00472994,0.0,0.0
1368,341.75,24.238,25.5732,165.536,116.333,116.049,-0.00958217,0.0611798,20.9492,905.892,0.0219034,0.0,0.0
1377,344,23.2566,25.0865,161.316,116.279,115.769,-0.00965442,0.0612407,20.9497,905.872,0.0394276,0.0,0.0
1386,346.25,24.2451,25.2995,159.448,116.26,115.99,-0.00963356,0.0612047,20.951,905.782,0.0207828,0.0,0.0
1395,348.5,23.533,25.1075,163.564,116.224,115.735,-0.00955304,0.0611016,20.9516,905.792,0.0377244,0.0,0.0
1404,350.75,23.5593,25.4872,158.554,116.178,116.008,-0.00964146,0.0607849,20.9518,905.862,0.0131508,0.0,0.0
1413,353,24.1618,25.2723,161.014,116.129,115.88,-0.0096967,0.0606396,20.9518,905.722,0.0192358,0.0,0.0
1422,355.25,23.9876,25.3037,158.049,116.088,115.957,-0.00962749,0.0606733,20.9514,905.832,0.0101457,0.0,0.0
1431,357.5,24.2066,25.5646,160.553,116.033,115.972,-0.00962243,0.0606106,20.9501,905.852,0.00471731,0.0,0.0
1440,359.75,23.6205,25.6874,161.403,115.968,116.035,-0.00971851,0.0603912,20.95,905.802,-0.00515462,0.0,0.0
1449,362,23.8242,25.3668,157.012,115.938,115.435,-0.00964027,0.0603682,20.951,905.732,0.0389375,0.0,0.0
1458,364.25,23.5224,25.1695,161.391,115.894,115.603,-0.00953645,0.0601629,20.9501,905.822,0.0225393,0.0,0.0
1467,366.5,23.9466,25.0873,160.405,115.854,115.781,-0.00951038,0.0600357,20.9501,905.682,0.00566282,0.0,0.0
1476,368.75,23.9632,25.0239,162.67,115.818,115.759,-0.0094983,0.0598478,20.951,905.742,0.0045775,0.0,0.0
1485,371,23.3099,24.4573,164.386,115.789,115.831,-0.00949864,0.0596133,20.952,905.652,-0.00322316,0.0,0.0
1494,373.25,23.9358,25.513,165.771,115.758,115.791,-0.00963106,0.0591341,20.9532,905.732,-0.00251446,0.0,0.0
1503,375.5,23.2899,25.0732,156.837,115.718,115.838,-0.00975145,0.0587501,20.9536,905.752,-0.00925822,0.0,0.0
1512,377.75,23.7124,25.5451,161.932,115.702,115.509,-0.00974985,0.058685,20.9553,905.482,0.0149259,0.0,0.0
1521,380,23.5015,25.3173,156.917,115.674,114.747,-0.00969047,0.0589851,20.9571,905.752,0.0720678,0.0,0.0
1530,382.25,23.3962,24.6779,160.093,115.664,115.278,-0.00970873,0.0590646,20.9578,905.862,0.0299227,0.0,0.0
1539,384.5,23.0655,25.1043,160.402,115.638,115.488,-0.00982351,0.0586846,20.9587,905.852,0.0116558,0.0,0.0
1548,386.75,23.3859,25.2023,160.126,115.631,115.373,-0.00999643,0.058348,20.9607,905.742,0.0200445,0.0,0.0
1557,389,23.9931,25.3484,161.924,115.61,115.427,-0.0100506,0.0579502,20.9615,905.622,0.0142031,0.0,0.0
1566,391.25,24.1235,25.2129,162.107,115.604,115.286,-0.00993685,0.0575596,20.9618,905.602,0.024682,0.0,0.0
1575,393.5,24.1545,25.5639,161.638,115.615,115.378,-0.00988573,0.0574324,20.962,905.642,0.01841,0.0,0.0
1584,395.75,23.9307,25.5216,161,115.608,115.508,-0.00996505,0.0573658,20.9625,905.732,0.00777972,0.0,0.0
1593,398,24.0712,25.4958,161.422,115.601,115.539,-0.0100203,0.0571713,20.9627,905.702,0.0048315,0.0,0.0
1602,400.25,24.0496,25.1572,159.861,115.587,115.162,-0.00992577,0.0570448,20.9636,905.662,0.0330393,0.0,0.0
1611,402.5,24.1918,24.8763,158.164,115.597,115.297,-0.00987086,0.0568919,20.9649,905.642,0.0232731,0.0,0.0
1620,404.75,23.8529,25.3878,157.616,115.601,115.279,-0.00984288,0.0565337,20.9667,905.712,0.0250015,0.0,0.0
1629,407,23.9633,25.3033,163.009,115.597,115.353,-0.00973873,0.0561589,20.9676,905.672,0.0188906,0.0,0.0
1638,409.25,23.7997,25.4979,157.853,115.608,115.039,-0.00971984,0.0560732,20.9679,905.692,0.0442156,0.0,0.0
1647,411.5,23.7909,25.178,160.743,115.628,115.455,-0.00981387,0.0560156,20.968,905.832,0.0134003,0.0,0.0
1656,413.75,23.4513,25.3582,165.373,115.628,115.562,-0.00992953,0.0559253,20.9681,905.762,0.00511751,0.0,0.0
1665,416,23.6365,25.1673,162.857,115.62,115.77,-0.00995421,0.0556036,20.9676,905.682,-0.0115807,0.0,0.0
1674,418.25,24.1227,25.2951,160.129,115.625,115.651,-0.00980392,0.055231,20.9682,905.772,-0.00201621,0.0,0.0
1683,420.5,23.7219,24.9669,162.054,115.644,115.217,-0.00963229,0.0550787,20.969,905.762,0.033135,0.0,0.0
1692,422.75,23.632,25.3637,162.512,115.666,115.29,-0.00958697,0.0550641,20.9693,905.672,0.0291341,0.0,0.0
1701,425,23.5148,24.5866,164.313,115.661,115.315,-0.00967328,0.0551602,20.9701,905.612,0.0268296,0.0,0.0
1710,427.25,23.5258,24.7695,162.351,115.679,115.393,-0.0097536,0.0550876,20.9708,905.542,0.0221825,0.0,0.0
1719,429.5,23.785,24.9803,162.411,115.687,115.507,-0.00977235,0.0550192,20.9711,905.632,0.0139398,0.0,0.0
1728,431.75,24.056,25.2346,159.253,115.686,115.402,-0.00978383,0.0549091,20.9725,905.472,0.0219748,0.0,0.0
1737,434,23.2869,24.8801,160.515,115.691,115.57,-0.00982589,0.0547376,20.9732,905.462,0.0093564,0.0,0.0
1746,436.25,23.3724,25.1572,158.873,115.718,115.207,-0.0098316,0.054598,20.9735,905.422,0.0395754,0.0,0.0
1755,438.5,23.7843,25.4645,159.788,115.718,114.805,-0.00973878,0.0545659,20.9749,905.512,0.0709831,0.0,0.0
1764,440.75,23.9305,25.0503,162.793,115.705,115.238,-0.00966495,0.0545266,20.9755,905.472,0.0361835,0.0,0.0
1773,443,23.3173,24.9649,161.011,115.712,115.378,-0.00975416,0.0543819,20.9758,905.522,0.025882,0.0,0.0
1782,445.25,23.6399,24.8987,163.778,115.711,115.561,-0.00974538,0.0542528,20.9759,905.382,0.0116761,0.0,0.0
1791,447.5,23.1685,25.2437,160.86,115.697,115.201,-0.0097113,0.0541219,20.9748,905.382,0.0385122,0.0,0.0
1800,449.75,23.3012,24.7733,157.783,115.695,115.112,-0.00974881,0.0538818,20.9738,905.522,0.0452366,0.0,0.0
1809,452,23.2006,24.9418,162.346,115.698,115.087,-0.00976572,0.0536642,20.9736,905.572,0.0474345,0.0,0.0
1818,454.25,23.3789,25.02,155.451,115.71,115.401,-0.00991557,0.0536416,20.9747,905.562,0.0239771,0.0,0.0
1827,456.5,22.9754,25.5171,158.31,115.706,115.316,-0.0100921,0.0534351,20.9752,905.402,0.030292,0.0,0.0
1836,458.75,24.1281,24.3654,152.288,115.727,114.662,-0.0101236,0.0533167,20.9753,905.492,0.0827946,0.0,0.0
1845,461,23.6283,25.2544,159.994,115.733,115.507,-0.00994416,0.0531886,20.9765,905.562,0.0175106,0.0,0.0
1854,463.25,23.332,25.4537,161.584,115.745,114.462,-0.00973448,0.0528852,20.9773,905.472,0.0997979,0.0,0.0
1863,465.5,23.5923,25.1473,163.698,115.761,115.311,-0.00959374,0.0527658,20.9776,905.462,0.0349136,0.0,0.0
1872,467.75,23.5356,24.8807,160.716,115.771,114.942,-0.00964028,0.0525649,20.9777,905.452,0.0643523,0.0,0.0
1881,470,23.8105,25.1388,163.48,115.783,115.318,-0.00979632,0.0523979,20.9783,905.362,0.0360857,0.0,0.0
1890,472.25,23.1855,24.978,156.986,115.778,115.236,-0.00988666,0.0522413,20.979,905.562,0.0420456,0.0,0.0
1899,474.5,23.7834,24.7687,161.473,115.813,115.945,-0.00989633,0.0520258,20.9792,905.422,-0.0101588,0.0,0.0
1908,476.75,23.516,24.7706,158.987,115.846,115.088,-0.00986843,0.0518659,20.9793,905.472,0.0587965,0.0,0.0
1917,479,23.2734,24.6791,157.376,115.865,115.343,-0.00985237,0.0517619,20.9806,905.282,0.0404428,0.0,0.0
1926,481.25,23.8872,25.0869,158.204,115.886,115.615,-0.00965761,0.0516828,20.9808,905.332,0.0209532,0.0,0.0
1935,483.5,23.4576,24.8691,159.035,115.932,115.959,-0.00944462,0.0513124,20.9814,905.292,-0.00213369,0.0,0.0
1944,485.75,23.3696,24.7937,159.968,115.977,115.591,-0.00943669,0.0511806,20.9816,905.352,0.0299068,0.0,0.0
1953,488,23.752,24.5681,161.427,116.011,115.02,-0.00954259,0.0510519,20.9817,905.432,0.0768162,0.0,0.0
1962,490.25,22.8612,24.8792,162.038,116.049,115.621,-0.00967964,0.0509322,20.983,905.422,0.0331021,0.0,0.0
1971,492.5,23.4202,24.7246,162.44,116.102,115.415,-0.00971833,0.0509776,20.9837,905.422,0.0531258,0.0,0.0
1980,494.75,23.8076,25.1494,162.783,116.145,115.021,-0.00966165,0.0510564,20.9839,905.422,0.0870952,0.0,0.0
1989,497,23.2252,24.9198,160.09,116.173,115.424,-0.00970435,0.0511307,20.984,905.362,0.0579244,0.0,0.0
1998,499.25,23.9288,24.7025,157.504,116.235,115.91,-0.0097884,0.0509071,20.9851,905.542,0.0250409,0.0,0.0
2007,501.5,23.2758,25.3388,160.617,116.283,116.26,-0.00980115,0.0506738,20.9859,905.352,0.00172751,0.0,0.0
2016,503.75,23.5313,24.9611,162.299,116.31,115.745,-0.00973874,0.0506077,20.9862,905.452,0.0435717,0.0,0.0
2025,506,23.3921,25.0351,160.855,116.351,116.058,-0.00972748,0.0503717,20.9863,905.332,0.0225659,0.0,0.0
2034,508.25,23.7353,24.8537,157.964,116.373,116.059,-0.00979896,0.0502059,20.987,905.352,0.0241975,0.0,0.0
2043,510.5,23.6624,25.0059,162.897,116.398,115.897,-0.00999615,0.0502019,20.9879,905.352,0.0386175,0.0,0.0
2052,512.75,23.0471,25.1647,156.935,116.393,115.372,-0.0101288,0.0504345,20.988,905.292,0.078947,0.0,0.0
2061,515,23.4305,24.6351,157.866,116.402,115.386,-0.0100303,0.0504669,20.9871,905.202,0.0784866,0.0,0.0
2070,517.25,23.9711,25.1874,158.288,116.412,115.802,-0.00990765,0.0502869,20.987,905.222,0.0470691,0.0,0.0
2079,519.5,23.3622,24.795,158.475,116.389,115.822,-0.00987823,0.050375,20.987,905.212,0.0436843,0.0,0.0
2088,521.75,23.5472,24.4829,158.625,116.366,115.85,-0.00980205,0.0502762,20.987,905.312,0.0397997,0.0,0.0
2097,524,23.7622,25.2129,159.455,116.359,115.762,-0.00973373,0.0503766,20.987,905.162,0.0460886,0.0,0.0
2106,526.25,24.1336,25.306,159.304,116.37,115.676,-0.00979858,0.0504524,20.987,905.342,0.05358,0.0,0.0
2115,528.5,23.7629,24.8919,160.679,116.294,115.56,-0.00989493,0.0503194,20.987,905.262,0.0567022,0.0,0.0
2124,530.75,23.8737,24.8334,159.22,116.239,115.914,-0.00991742,0.0504012,20.987,905.352,0.0251527,0.0,0.0
2133,533,22.9527,25.2761,159.495,116.17,115.757,-0.00987876,0.0503333,20.987,905.202,0.03187,0.0,0.0
2142,535.25,24.1628,25.2747,158.485,116.093,115.818,-0.00976473,0.0502078,20.987,905.202,0.0212664,0.0,0.0
2151,537.5,23.7103,25.4417,157.739,115.972,116.157,-0.00971895,0.0525114,20.9831,905.312,-0.0142823,0.0,0.0
2160,539.75,24.224,25.5548,161.49,115.881,116.018,-0.00967427,0.0567864,20.9757,905.112,-0.0105249,0.0,0.0
2169,542,23.7095,25.2115,157.073,115.725,115.587,-0.00973048,0.0598602,20.9713,905.242,0.0106896,0.0,0.0
2178,544.25,23.643,25.0106,159.407,115.55,115.595,-0.00986383,0.0618846,20.9686,905.192,-0.00348113,0.0,0.0
2187,546.5,23.6574,24.8724,159.466,115.394,115.286,-0.00989932,0.063731,20.9663,905.092,0.00836754,0.0,0.0
2196,548.75,23.7731,25.3461,158.289,115.245,115.302,-0.00979167,0.0653412,20.9642,905.262,-0.00437045,0.0,0.0
2205,551,24.0947,25.0149,160.278,115.083,115.149,-0.00964115,0.0666973,20.961,905.062,-0.00510013,0.0,0.0
2214,553.25,24.3062,25.6986,159.702,114.909,114.397,-0.00953902,0.0680642,20.9599,905.042,0.0400548,0.0,0.0
2223,555.5,24.1833,25.8519,160.139,114.761,114.474,-0.00940606,0.0689901,20.9595,905.132,0.0224818,0.0,0.0
2232,557.75,24.3695,25.8569,161.475,114.619,114.371,-0.00927575,0.0696988,20.9575,905.172,0.0193818,0.0,0.0
2241,560,23.9202,26.1988,163.757,114.482,114.691,-0.00920046,0.0711347,20.9557,905.172,-0.0163542,0.0,0.0
2250,562.25,24.571,26.5331,159.539,114.372,114.458,-0.00915856,0.0725582,20.9541,905.112,-0.00675362,0.0,0.0
2259,564.5,24.9006,26.0643,161.869,114.264,113.532,-0.00920892,0.0742208,20.9527,904.931,0.0575818,0.0,0.0
2268,566.75,25.1003,26.261,157.979,114.185,113.67,-0.00928371,0.0759283,20.9499,905.021,0.0405161,0.0,0.0
2277,569,25.1208,26.847,158.972,114.087,113.427,-0.00939668,0.0777712,20.9473,904.901,0.0519846,0.0,0.0
2286,571.25,24.9691,26.5041,155.506,114.023,112.45,-0.00941439,0.0802688,20.9423,904.861,0.124417,0.0,0.0
2295,573.5,25.495,27.2856,156.596,113.984,111.765,-0.00940545,0.0845562,20.9356,905.052,0.176104,0.0,1.0
2304,575.75,25.2859,27.1009,155.748,113.93,112.341,-0.00940175,0.0887233,20.9283,905.132,0.125754,0.0,1.0
2313,578,25.228,26.9853,158.514,113.898,112.103,-0.0092778,0.0925683,20.922,904.841,0.142284,0.0,1.0
2322,580.25,24.9377,27.2815,154.835,113.883,111.432,-0.00911851,0.0981612,20.9115,904.821,0.194872,0.0,0.0
2331,582.5,25.6678,27.4272,153.453,113.874,111.945,-0.00914018,0.107051,20.8968,904.761,0.153078,0.0,0.0
2340,584.75,26.2642,27.8239,154.061,113.867,111.684,-0.0091681,0.116304,20.8853,904.791,0.173341,0.0,0.0
2349,587,26.2213,27.9286,152.441,113.856,111.046,-0.00901797,0.124102,20.8735,904.831,0.223853,0.0,0.0
2358,589.25,26.47,28.493,156.21,113.861,110.613,-0.00886793,0.132785,20.8613,904.691,0.259206,0.0,0.0
2367,591.5,26.0376,27.7937,158.237,113.841,110.222,-0.00881346,0.139079,20.8512,904.821,0.289387,0.0,0.0
2376,593.75,27.1251,29.1359,156.737,113.844,110.267,-0.00874049,0.145217,20.8408,904.671,0.285964,0.0,0.0
2385,596,27.6134,29.5587,155.547,113.854,110.12,-0.00863903,0.152609,20.8306,904.441,0.298732,0.0,0.0
2394,598.25,27.9593,29.8438,148.051,113.851,110.537,-0.00842847,0.158952,20.8211,904.321,0.26461,0.0,0.0
2403,600.5,28.4719,30.5467,153.596,113.853,109.433,-0.00825781,0.164996,20.8107,904.401,0.354727,0.0,0.0
2412,602.75,28.4667,30.696,155.275,113.86,109.807,-0.00817757,0.17324,20.7989,904.491,0.324678,0.0,0.0
2421,605,28.2589,30.9932,149.341,113.873,109.458,-0.00806695,0.177873,20.7922,904.471,0.354164,0.0,0.0
2430,607.25,29.5533,31.8645,155.038,113.883,109.085,-0.00799041,0.18071,20.7895,904.281,0.385495,0.0,0.0
2439,609.5,30.0442,32.4472,152.777,113.881,108.824,-0.00801086,0.183386,20.7865,904.241,0.406864,0.0,0.0
2448,611.75,30.4741,32.8071,155.828,113.899,109.572,-0.0079881,0.186141,20.7832,904.151,0.346933,0.0,0.0
2457,614,30.932,34.0168,148.846,113.888,108.189,-0.00783248,0.190588,20.7791,904.051,0.45983,0.0,0.0
2466,616.25,31.1788,33.7711,155.854,113.899,109.871,-0.00764208,0.191125,20.7738,904.071,0.32247,0.0,0.0
2475,618.5,31.2017,33.7259,149.967,113.895,109.254,-0.00760793,0.194012,20.7699,903.85,0.372682,0.0,0.0
2484,620.75,31.8988,34.3905,149.533,113.898,107.461,-0.00759288,0.199132,20.7603,903.85,0.521074,0.0,0.0
2493,623,32.4875,35.1573,155.183,113.909,108.769,-0.00755495,0.206267,20.7494,903.74,0.413576,0.0,0.0
2502,625.25,32.3841,35.2136,151.699,113.883,108.042,-0.00743362,0.213307,20.7393,903.52,0.471644,0.0,0.0
2511,627.5,32.1518,35.0541,148.81,113.911,108.382,-0.00715908,0.218318,20.7329,903.71,0.445732,0.0,0.0
2520,629.75,33.1255,36.3391,150.125,113.914,105.811,-0.00700316,0.2255,20.7191,903.35,0.660926,0.0,0.0
2529,632,33.536,36.518,145.983,113.882,104.392,-0.00695457,0.239967,20.7001,903.39,0.779364,0.0,0.0
2538,634.25,33.6207,36.6552,148.895,113.889,105.781,-0.0068653,0.252389,20.6794,903.27,0.661547,0.0,0.0
2547,636.5,34.1766,37.6095,147.886,113.882,104.784,-0.00677524,0.265174,20.6586,903.01,0.745816,0.0,0.0
2556,638.75,33.8174,36.9032,147.12,113.872,104.094,-0.00663727,0.278882,20.6364,903.2,0.804135,0.0,0.0
2565,641,35.4614,38.7109,141.944,113.864,105.26,-0.00639005,0.294248,20.6112,902.96,0.703749,0.0,0.0
2574,643.25,36.4516,39.782,140.943,113.87,103.554,-0.00617513,0.305565,20.5963,902.659,0.850584,0.0,0.0
2583,645.5,36.6074,40.351,141.701,113.871,101.914,-0.0058451,0.317783,20.5748,902.609,0.993749,0.0,0.0
2592,647.75,37.6659,41.3023,144.034,113.855,103.721,-0.00543841,0.334004,20.5476,902.519,0.835012,0.0,0.0
2601,650,38.3205,42.004,144.583,113.863,103.755,-0.00499072,0.35054,20.5176,902.259,0.832647,0.0,0.0
2610,652.25,38.8353,42.527,142.658,113.869,103.816,-0.00468798,0.366324,20.4956,901.999,0.8279,0.0,0.0
2619,654.5,39.0153,42.6551,143.756,113.871,102.948,-0.00441844,0.374688,20.4853,902.169,0.903329,0.0,0.0
2628,656.75,40.5312,44.57,148.234,113.849,101.11,-0.004235,0.379099,20.4797,901.659,1.06293,0.0,0.0
2637,659,40.7908,45.0158,138.364,113.871,102.135,-0.00427469,0.389907,20.4672,901.548,0.974261,0.0,0.0
2646,661.25,41.806,46.2883,143.58,113.875,102.346,-0.00426933,0.401021,20.4465,901.518,0.956087,0.0,0.0
2655,663.5,42.8092,47.2643,146.96,113.856,101.514,-0.00396517,0.411113,20.4242,901.198,1.02775,0.0,0.0
2664,665.75,43.2353,47.8531,134.849,113.867,100.203,-0.00355163,0.429929,20.3957,901.228,1.14507,0.0,0.0
2673,668,43.9944,48.6047,143.42,113.858,100.727,-0.00322355,0.449929,20.3663,901.168,1.09761,0.0,0.0
2682,670.25,45.2131,49.8215,141.702,113.86,99.1454,-0.00306116,0.468671,20.336,900.858,1.23955,0.0,0.0
2691,672.5,45.8959,50.8154,138.743,113.857,99.6065,-0.0032556,0.481168,20.3185,900.538,1.1977,0.0,0.0
2700,674.75,47.0374,52.2612,140.413,113.867,101.275,-0.00356222,0.490381,20.3034,900.347,1.04972,0.0,0.0
2709,677,47.5852,52.924,137.469,113.859,99.9931,-0.00364373,0.503025,20.2855,900.207,1.16315,0.0,0.0
2718,679.25,48.3196,53.7601,140.487,113.861,100.522,-0.00354015,0.512975,20.2725,899.947,1.11615,0.0,0.0
2727,681.5,48.7552,54.3585,135.305,113.863,98.8939,-0.00316962,0.520753,20.2572,899.637,1.26253,0.0,0.0
2736,683.75,49.7148,55.3444,132.413,113.843,96.2395,-0.00270242,0.537927,20.2126,899.477,1.5046,0.0,0.0
2745,686,51.2123,56.9129,132.677,113.839,95.8488,-0.00233709,0.572543,20.1633,899.276,1.54078,0.0,0.0
2754,688.25,52.3922,58.5224,133.931,113.828,97.1496,-0.00213113,0.600884,20.121,899.006,1.41915,0.0,0.0
2763,690.5,53.0464,59.3569,134.745,113.835,96.7769,-0.00193088,0.629236,20.0722,898.626,1.45414,0.0,0.0
2772,692.75,54.1773,61.0226,129.141,113.837,96.2682,-0.00174248,0.656037,20.0341,898.326,1.50149,0.0,0.0
2781,695,55.8206,62.5488,134.499,113.827,95.0363,-0.00146744,0.67529,20.006,898.105,1.61611,0.0,0.0
2790,697.25,56.6865,63.7381,131.508,113.827,96.659,-0.0010486,0.701775,19.9621,897.855,1.46446,0.0,0.0
2799,699.5,58.3181,65.4415,131.867,113.838,93.3304,-0.000606092,0.730457,19.9269,897.555,1.77917,0.0,0.0
2808,701.75,59.3328,66.7963,126.346,113.843,94.5239,-0.000260585,0.755152,19.8912,897.285,1.66572,0.0,0.0
2817,704,60.7379,68.5335,129.25,113.836,94.5965,0.000171337,0.777547,19.8532,896.994,1.65832,0.0,0.0
2826,706.25,62.059,70.2604,124.555,113.841,93.8451,0.000778457,0.80631,19.8009,896.674,1.73017,0.0,0.0
2835,708.5,64.0061,72.5639,129.098,113.853,92.2987,0.00113398,0.847431,19.7384,896.294,1.87992,0.0,0.0
2844,710.75,65.0367,73.9553,117.001,113.849,94.4694,0.00126292,0.884268,19.6878,895.934,1.67141,0.0,0.0
2853,713,66.7565,76.0725,128.568,113.848,93.9094,0.00140892,0.900053,19.6585,895.683,1.72455,0.0,0.0
2862,715.25,68.2618,77.5713,129.005,113.846,92.1184,0.00158425,0.917819,19.6311,895.243,1.89692,0.0,0.0
2871,717.5,68.6581,78.2725,129.028,113.853,91.9968,0.00166147,0.948212,19.5721,895.053,1.90931,0.0,0.0
2880,719.75,71.3391,81.1081,127.473,113.852,92.1928,0.00159525,0.982183,19.5128,894.542,1.89013,0.0,0.0
2889,722,72.8686,83.5047,117.256,113.86,91.5912,0.00163536,1.00846,19.4846,894.312,1.9494,0.0,0.0
2898,724.25,74.416,85.301,125.311,113.852,91.1755,0.00174309,1.02491,19.4697,893.682,1.98955,0.0,0.0
2907,726.5,76.177,87.1954,128.272,113.857,92.757,0.00187728,1.03996,19.4483,893.411,1.83585,0.0,0.0
2916,728.75,77.5307,88.9412,124.115,113.849,92.0032,0.0019539,1.054,19.4287,892.961,1.90831,0.0,0.0
2925,731,79.1254,90.8949,116.721,113.867,90.8018,0.00200058,1.06274,19.4171,892.54,2.02745,0.0,0.0
2934,733.25,80.4662,92.5835,121.076,113.851,91.5357,0.00217673,1.06469,19.4073,892.22,1.95416,0.0,0.0
2943,735.5,81.8676,93.9687,122.385,113.854,90.7066,0.00248734,1.08263,19.3797,891.84,2.03589,0.0,0.0
2952,737.75,83.1387,95.6619,114.461,113.844,90.0657,0.00274715,1.10306,19.3482,891.49,2.09859,0.0,0.0
2961,740,84.6763,97.6415,119.666,113.861,91.2005,0.00301658,1.11627,19.329,891.009,1.9878,0.0,0.0
2970,742.25,86.0911,99.1632,114.688,113.846,90.1521,0.00321816,1.12472,19.3166,890.649,2.09018,0.0,0.0
2979,744.5,87.2127,100.666,110.891,113.844,91.6467,0.00337982,1.13093,19.3105,890.128,1.94275,0.0,0.0
2988,746.75,88.5309,102.386,115.663,113.852,92.5628,0.00345254,1.1329,19.307,889.858,1.85425,0.0,0.0
2997,749,89.7184,103.58,115.785,113.842,89.5704,0.00338721,1.13549,19.3029,889.378,2.14783,0.0,0.0
3006,751.25,90.7212,105.076,120.731,113.85,90.3496,0.00325062,1.14422,19.2901,888.897,2.07084,0.0,0.0
3015,753.5,91.8756,106.3,124.702,113.841,91.1699,0.00314329,1.14917,19.2827,888.737,1.98917,0.0,0.0
3024,755.75,92.941,107.556,114.919,113.838,90.0365,0.00316707,1.15425,19.2757,888.147,2.101,0.0,0.0
3033,758,93.8005,108.75,115.106,113.843,91.2148,0.00342196,1.16745,19.2531,887.766,1.98499,0.0,0.0
3042,760.25,94.8853,110.053,122.334,113.853,91.2171,0.0036494,1.18021,19.2377,887.366,1.98554,0.0,0.0
3051,762.5,96.3392,111.753,119.513,113.845,87.4761,0.00380516,1.18064,19.2317,886.906,2.35998,0.0,0.0
3060,764.75,97.1038,112.706,111.481,113.864,89.4909,0.00394719,1.18614,19.22,886.535,2.15753,0.0,0.0
3069,767,97.8778,113.499,118.206,113.844,90.9859,0.00403387,1.20913,19.18,886.165,2.00757,0.0,0.0
3078,769.25,99.409,115.364,107.175,113.846,89.2943,0.00405057,1.23144,19.1552,885.654,2.17578,0.0,0.0
3087,771.5,99.9735,116.358,109.043,113.854,90.1452,0.0043069,1.23361,19.1458,885.014,2.09146,0.0,0.0
3096,773.75,101.613,117.896,115.343,113.868,88.2936,0.00479239,1.24098,19.1306,884.904,2.2785,0.0,0.0
3105,776,102.288,118.747,110.004,113.851,88.886,0.00511835,1.27312,19.0875,884.303,2.21724,0.0,0.0
3114,778.25,103.533,120.216,106.935,113.863,87.3734,0.00535216,1.30852,19.0359,884.163,2.3719,0.0,0.0
3123,780.5,104.871,121.738,105.484,113.868,87.8118,0.00560123,1.34305,18.9876,883.613,2.32752,0.0,0.0
3132,782.75,106.16,123.499,112.479,113.857,87.7244,0.00555583,1.35518,18.9698,883.052,2.33551,0.0,0.0
3141,785,107.536,124.798,110.236,113.856,86.5873,0.0055474,1.34359,18.9837,882.662,2.4523,0.0,0.0
3150,787.25,108.614,126.13,114.331,113.874,87.0173,0.00579422,1.34599,18.9783,882.301,2.40933,0.0,0.0
3159,789.5,109.556,127.38,118.974,113.881,87.1995,0.00587367,1.3536,18.9732,881.841,2.39119,0.0,0.0
3168,791.75,110.779,128.886,112.617,113.9,88.2936,0.00580445,1.34578,18.9816,881.401,2.28102,0.0,0.0
3177,794,111.465,129.628,111.765,113.926,87.9736,0.00581655,1.33339,19.003,880.98,2.31554,0.0,0.0
3186,796.25,112.257,130.391,114.156,113.958,86.2067,0.00578222,1.30838,19.038,880.44,2.49983,0.0,0.0
3195,798.5,113.163,131.461,119.619,113.955,86.8319,0.00558935,1.27521,19.0943,880.059,2.43484,0.0,0.0
3204,800.75,113.086,131.484,114.028,113.949,85.2703,0.0055061,1.24614,19.1364,879.649,2.59692,0.0,0.0
3213,803,112.753,131.098,115.183,113.997,87.4613,0.00547021,1.22604,19.1676,879.339,2.37345,0.0,0.0
3222,805.25,113.81,132.213,107.866,114.035,86.6127,0.00522069,1.20734,19.1916,878.968,2.46373,0.0,0.0
3231,807.5,113.513,131.692,115.266,114.059,87.403,0.00499192,1.17269,19.2521,878.568,2.38426,0.0,0.0
3240,809.75,114.598,132.809,112.966,114.091,83.9505,0.00493654,1.14606,19.2887,878.138,2.7478,0.0,0.0
3249,812,113.968,132.182,116.039,114.17,85.2449,0.00487664,1.13012,19.3086,877.737,2.61693,0.0,0.0
3258,814.25,113.616,131.531,124.35,114.159,87.1894,0.00481291,1.10724,19.3444,877.297,2.41405,0.0,0.0
3267,816.5,113.239,131.469,114.805,114.185,87.1986,0.00483279,1.08856,19.3672,876.867,2.41513,0.0,0.0
3276,818.75,113.154,130.972,119.719,114.221,85.1866,0.00488705,1.06572,19.3958,876.636,2.62707,0.0,0.0
3285,821,112.535,130.501,116.456,114.234,85.994,0.00484549,1.05559,19.4097,876.346,2.54357,0.0,0.0
3294,823.25,112.71,130.193,119.068,114.305,85.8039,0.00477704,1.05836,19.4151,875.996,2.569,0.0,0.0
3303,825.5,112.03,129.495,114.966,114.341,87.7669,0.00468302,1.05041,19.4229,875.575,2.36919,0.0,0.0
3312,827.75,112.163,129.419,126.277,114.42,84.1179,0.00457359,1.02395,19.4664,875.005,2.75571,0.0,0.0
3321,830,111.579,129.057,122.968,114.473,85.2393,0.00448101,0.996789,19.5069,874.755,2.64129,0.0,0.0
3330,832.25,111.344,128.33,121.737,114.537,86.806,0.00414866,0.969463,19.5536,874.515,2.48316,0.0,0.0
3339,834.5,110.456,127.352,125.232,114.636,86.4726,0.00355156,0.929128,19.6245,874.184,2.52532,0.0,0.0
3348,836.75,109.693,126.389,126.537,114.705,86.4689,0.00290164,0.885685,19.6868,873.894,2.53114,0.0,0.0
3357,839,109.135,125.525,129.811,114.771,89.7827,0.00204662,0.848665,19.7353,873.674,2.19943,0.0,0.0
3366,841.25,108.185,124.5,133.399,114.822,88.6331,0.00127304,0.808968,19.8003,873.323,2.31886,0.0,0.0
3375,843.5,107.427,123.148,125.386,114.875,92.2738,0.000728275,0.763447,19.884,872.933,1.9624,0.0,0.0
3384,845.75,106.101,121.558,133.481,114.932,90.6858,0.000311114,0.722769,19.9427,872.843,2.1223,0.0,0.0
3393,848,104.854,119.811,137.549,114.967,92.9091,-0.000149889,0.690822,19.9887,872.633,1.90813,0.0,0.0
3402,850.25,104.117,118.774,130.491,115.023,93.6634,-0.000744032,0.652095,20.059,872.393,1.84007,0.0,0.0
3411,852.5,102.599,116.973,129.263,115.051,92.9896,-0.0014234,0.607555,20.1265,872.242,1.90686,0.0,0.0
3420,854.75,101.539,115.737,136.289,115.075,95.4959,-0.00197766,0.563712,20.2007,871.872,1.6705,0.0,0.0
3429,857,99.4973,113.206,140.251,115.111,95.7517,-0.00260772,0.519112,20.2687,871.862,1.6494,0.0,0.0
3438,859.25,98.489,111.405,141.587,115.163,96.5471,-0.00345505,0.475849,20.3337,871.452,1.5793,0.0,0.0
3447,861.5,96.3251,108.725,140.11,115.216,100.847,-0.0042928,0.431489,20.4004,871.532,1.19315,0.0,0.0
3456,863.75,94.6627,106.968,138.296,115.266,101.113,-0.00504458,0.388556,20.4751,871.362,1.17345,0.0,0.0
3465,866,92.7153,104.757,143.356,115.305,103.626,-0.00563081,0.345796,20.539,871.282,0.95652,0.0,0.0
3474,868.25,90.8531,102.252,144.021,115.377,103.348,-0.00608808,0.313275,20.5924,871.342,0.986203,0.0,0.0
3483,870.5,89.3869,100.51,143.85,115.416,102.311,-0.00649486,0.289297,20.6329,871.132,1.07959,0.0,0.0
3492,872.75,87.3887,98.0808,148.143,115.446,104.745,-0.00695328,0.26916,20.6615,871.051,0.871308,0.0,0.0
3501,875,85.6821,95.832,147.005,115.478,106.051,-0.00728724,0.248649,20.6973,870.951,0.762846,0.0,0.0
3510,877.25,83.7691,93.6148,146.447,115.528,105.866,-0.00740195,0.2233,20.7396,870.971,0.782275,0.0,0.0
3519,879.5,82.194,91.4583,153.929,115.546,105.883,-0.00764696,0.197905,20.7739,870.941,0.782253,0.0,0.0
3528,881.75,80.3771,89.2399,146.45,115.568,107.958,-0.00813641,0.170947,20.8216,871.031,0.610173,0.0,0.0
3537,884,78.4429,86.9431,156.968,115.593,112.24,-0.00860613,0.136057,20.8683,871.011,0.263725,0.0,0.0
3546,886.25,76.3975,84.6111,156.456,115.63,113.181,-0.00899863,0.104168,20.9086,870.941,0.19182,0.0,0.0
3555,888.5,74.6007,81.7849,154.993,115.648,113.095,-0.00941011,0.0829061,20.9427,870.941,0.199905,0.0,0.0
3564,890.75,72.0127,79.2485,154.616,115.671,113.485,-0.00969013,0.0674029,20.9703,871.001,0.170905,0.0,0.0
3573,893,69.601,77.1224,155.934,115.696,112.79,-0.0097875,0.0579498,20.9842,871.021,0.227827,0.0,0.0
3582,895.25,67.6691,75.3668,152.517,115.711,113.188,-0.00984862,0.0532154,20.9929,870.781,0.197502,0.0,0.0
3591,897.5,66.559,72.5797,154.455,115.722,113.541,-0.00992507,0.0500546,20.9978,871.162,0.170425,0.0,0.0
3600,899.75,65.2898,71.2074,155.87,115.746,113.672,-0.00994589,0.0481818,21.0005,870.941,0.162001,0.0,0.0
3609,902,63.468,68.846,158.843,115.774,114.387,-0.00992649,0.0469338,21.0029,871.061,0.108028,0.0,0.0
3618,904.25,61.838,66.8403,156.862,115.79,113.22,-0.00988018,0.0459666,21.0038,870.941,0.201023,0.0,0.0
3627,906.5,61.7811,66.071,156.266,115.819,112.933,-0.00975415,0.045418,21.0042,871.061,0.226028,0.0,0.0
3636,908.75,59.77,64.2436,154.613,115.801,112.854,-0.00960479,0.0451468,21.0035,870.681,0.230882,0.0,0.0
3645,911,58.5278,62.435,155.093,115.809,113.94,-0.00957704,0.0448782,21.0027,870.921,0.145771,0.0,0.0
3654,913.25,57.6759,61.6599,159.495,115.792,113.614,-0.00965665,0.044587,21.0023,870.971,0.170053,0.0,0.0
3663,915.5,56.6633,60.4623,152.065,115.801,113.538,-0.009796,0.0443886,21.0032,870.961,0.176799,0.0,0.0
3672,917.75,56.267,59.186,157.864,115.797,113.851,-0.0100822,0.0443123,21.0039,870.951,0.151843,0.0,0.0
3681,920,54.5156,58.2047,158.694,115.778,114.036,-0.0102182,0.0441653,21.0042,870.971,0.135811,0.0,0.0
3690,922.25,53.7582,56.8615,155.61,115.756,113.813,-0.0101009,0.0439943,21.0043,870.881,0.151586,0.0,0.0
3699,924.5,52.8913,55.8575,155.53,115.749,113.653,-0.0101034,0.043834,21.0043,870.891,0.163713,0.0,0.0
3708,926.75,52.2951,54.7939,154.37,115.717,114.071,-0.0101281,0.0436795,21.0056,870.971,0.128351,0.0,0.0
3717,929,51.3779,53.7557,155.46,115.676,114.381,-0.0100837,0.0435545,21.0062,870.831,0.100814,0.0,0.0
3726,931.25,50.9184,53.2762,157.199,115.64,113.757,-0.0101057,0.043311,21.0062,870.851,0.147064,0.0,0.0
3735,933.5,49.8898,52.3377,152.459,115.593,113.932,-0.010174,0.0432193,21.0063,870.991,0.129701,0.0,0.0
3744,935.75,48.8559,51.4425,154.289,115.555,113.175,-0.0101659,0.0432066,21.0064,870.931,0.186461,0.0,0.0
3753,938,48.4628,49.8757,156.289,115.483,113.635,-0.010102,0.0431282,21.0064,870.941,0.144499,0.0,0.0
3762,940.25,46.719,49.0717,155.219,115.475,113.873,-0.0100497,0.0430198,21.0077,870.931,0.125161,0.0,0.0
3771,942.5,47.0426,48.6507,156.029,115.442,113.808,-0.00996404,0.0430763,21.0084,870.841,0.127662,0.0,0.0
3780,944.75,45.5572,47.6102,156.224,115.428,113.778,-0.00992713,0.0430485,21.0086,870.991,0.129005,0.0,0.0
3789,947,46.1931,46.7114,155.822,115.498,113.838,-0.00997291,0.0428314,21.0087,870.911,0.129678,0.0,0.0
3798,949.25,45.517,46.3407,161.627,115.649,113.657,-0.009945,0.0428969,21.0087,870.911,0.155662,0.0,0.0
3807,951.5,45.3482,46.4475,159.237,115.812,114.011,-0.00980676,0.0428641,21.0095,871.112,0.140393,0.0,0.0
3816,953.75,44.6007,45.0159,151.243,115.948,114.098,-0.00979286,0.0427638,21.0093,870.861,0.144115,0.0,0.0
3825,956,43.7176,44.7559,155.342,116.083,114.065,-0.00989121,0.0426019,21.0084,870.861,0.157085,0.0,0.0
3834,958.25,43.6885,44.276,155.632,116.192,114.291,-0.00999357,0.0424995,21.0069,871.011,0.147803,0.0,0.0
3843,960.5,42.9999,43.558,156.084,116.235,114.67,-0.00998718,0.0425078,21.0063,870.991,0.121436,0.0,0.0
3852,962.75,42.5522,43.0258,158.189,116.267,115.175,-0.00989414,0.0424662,21.0062,870.931,0.0845422,0.0,0.0
3861,965,41.9319,42.385,156.793,116.301,114.307,-0.00989827,0.0425286,21.0067,870.801,0.154948,0.0,0.0
3870,967.25,42.5788,42.0589,156.921,116.32,114.47,-0.00991891,0.0424763,21.0057,870.921,0.143651,0.0,0.0
3879,969.5,40.8419,41.8735,159.279,116.272,114.469,-0.00987756,0.0423486,21.0053,870.761,0.139954,0.0,0.0
3888,971.75,40.9693,41.5447,159.269,116.228,115.234,-0.00978544,0.0421347,21.0063,870.741,0.0768945,0.0,0.0
3897,974,40.8126,41.0208,157.473,116.156,113.684,-0.00978202,0.0420888,21.0069,870.831,0.192684,0.0,0.0
3906,976.25,40.4105,40.6902,159.623,116.083,114.692,-0.00984956,0.0420413,21.0072,870.951,0.107943,0.0,0.0
3915,978.5,40.5123,39.7086,155.818,115.92,113.973,-0.00981452,0.0420422,21.0081,870.911,0.151776,0.0,0.0
3924,980.75,39.9546,39.5095,157.242,115.779,112.992,-0.00983521,0.0420756,21.0086,871.031,0.21824,0.0,0.0
3933,983,39.3966,39.0393,159.228,115.644,114.006,-0.00995094,0.041863,21.0088,870.941,0.127824,0.0,0.0
3942,985.25,39.4029,38.9174,154.953,115.534,113.554,-0.00995914,0.0418096,21.0099,870.871,0.154784,0.0,0.0
3951,987.5,38.7732,38.6942,157.666,115.573,114.273,-0.00990305,0.0417516,21.0113,870.811,0.101343,0.0,0.0
3960,989.75,38.5906,39.027,158.039,115.638,114.257,-0.00992225,0.0416418,21.0118,871.041,0.107607,0.0,0.0
3969,992,38.1286,38.1018,159.965,115.702,113.308,-0.00997528,0.0415907,21.012,870.871,0.187301,0.0,0.0
3978,994.25,37.9221,38.2902,155.918,115.777,114.227,-0.00993437,0.0417496,21.012,870.801,0.120785,0.0,0.0
3987,996.5,38.0175,37.0452,157.853,115.877,114.405,-0.00974463,0.0417877,21.0121,870.771,0.114514,0.0,0.0
3996,998.75,37.7002,37.5585,159.71,115.969,114.373,,0.0416823,,870.861,0.12414,0.0,0.0
4005,1001,37.663,36.9962,156.282,116.05,114.503,,,,870.901,0.120183,0.0,0.0
4014,1003.25,36.8936,36.2324,155.804,116.096,114.357,,,,871.031,0.135253,0.0,0.0
4023,1005.5,37.1844,36.4366,158.578,116.167,114.424,,,,871.001,0.135449,0.0,0.0
4032,1007.75,36.8161,36.3668,157.29,116.233,114.035,,,,870.951,0.171059,0.0,0.0
4035,1008.5,36.1713,35.9206,156.579,116.25,114.407,,,,870.881,0.143136,0.0,0.0