File: 01_Data/Nylon/Cone/Nylon_Cone_HF50Scan_220225_R1.csv
Names,Time,Stack TC,Smoke TC,Exh Press,Smoke Comp,Smoke Meas,CO Meter,CO2 Meter,O2 Meter,Sample Mass,Ext Coeff,Start Test,Flame Verif
Chan Gain,,500,500,1,1,1,1,1,1,1,1,1.0,1.0
Offset,,0,0,0.136092,0,0,0,0,0,0,0,0.0,0.0
Gain,,1,1,25.011,15.4219,15.1528,1,1,1,1.00089,1.02113,1.0,1.0
Units,sec,C,C,Pa,%,%,%,%,%,g,/m,,
Baseline,,34.1043,36.0476,155.323,115.657,111.534,-0.00977621,0.0408558,21.0091,-0.0127613,0.325155,,
4,0.75,28.9351,29.9186,156.04,115.701,111.642,-0.00950243,0.0417391,21.0081,907.143,0.319844,0.0,0.0
8,1.75,29.7541,30.2188,154.477,115.709,111.685,-0.00947404,0.0419356,21.008,907.103,0.317014,0.0,0.0
12,2.75,28.9664,30.2505,153.925,115.697,111.156,-0.00946603,0.0420751,21.008,907.003,0.358669,0.0,0.0
16,3.75,29.229,30.3746,156.154,115.685,111.637,-0.00947249,0.0421488,21.0079,907.003,0.318976,0.0,0.0
20,4.75,28.9028,30.2801,154.655,115.674,111.461,-0.00948565,0.0421721,21.0079,907.053,0.332321,0.0,0.0
24,5.75,28.8602,30.7677,158.434,115.669,111.751,-0.00951022,0.0420905,21.0079,907.113,0.30865,0.0,0.0
28,6.75,29.3242,30.5236,156.389,115.674,111.429,-0.00955544,0.0419837,21.0079,907.033,0.334886,0.0,0.0
32,7.75,29.2115,30.3224,158.594,115.669,111.723,-0.00958883,0.0420137,21.0077,907.013,0.310948,0.0,0.0
36,8.75,29.5415,30.8474,156.322,115.679,111.842,-0.00961376,0.0421157,21.0073,906.963,0.30219,0.0,0.0
40,9.75,29.6101,31.0451,155.776,115.668,111.701,-0.00963384,0.0422491,21.007,907.003,0.312581,0.0,0.0
44,10.75,29.3485,30.599,158.195,115.662,112.129,-0.00965996,0.0424368,21.0068,906.923,0.277909,0.0,0.0
48,11.75,30.1754,31.305,158.966,115.665,111.747,-0.00968515,0.0427102,21.0066,906.833,0.308656,0.0,0.0
52,12.75,29.8399,31.2355,153.348,115.652,111.503,-0.00972414,0.0429685,21.0065,906.883,0.327191,0.0,0.0
56,13.75,29.5536,30.963,156.22,115.642,112.238,-0.00975872,0.0431395,21.0065,906.853,0.267664,0.0,0.0
60,14.75,29.9886,31.1693,155.617,115.625,111.285,-0.00979714,0.0432602,21.0064,906.943,0.342737,0.0,0.0
64,15.75,30.2731,31.4893,154.871,115.629,111.646,-0.00985156,0.0433433,21.0064,907.013,0.31397,0.0,0.0
68,16.75,30.1379,31.6848,155.954,115.612,111.341,-0.00990464,0.0433219,21.0064,907.023,0.337214,0.0,0.0
72,17.75,30.5541,31.7568,154.941,115.601,111.644,-0.00995107,0.0431511,21.0064,906.973,0.31193,0.0,0.0
76,18.75,30.4644,31.5095,154.676,115.584,111.753,-0.00996384,0.0429963,21.0064,906.933,0.301903,0.0,0.0
80,19.75,30.1942,31.6283,155.46,115.581,111.23,-0.00993396,0.042877,21.0064,906.823,0.343703,0.0,0.0
84,20.75,30.6313,31.6478,154.658,115.566,110.541,-0.00986042,0.0427236,21.007,906.753,0.398231,0.0,0.0
88,21.75,30.2382,32.1945,153.281,115.553,111.87,-0.00979092,0.0424848,21.0076,906.913,0.290159,0.0,0.0
92,22.75,30.8505,31.9297,152.907,115.545,110.71,-0.00974846,0.0422496,21.008,906.843,0.382884,0.0,0.0
96,23.75,30.3295,31.7396,158.401,115.519,111.985,-0.00977243,0.0420616,21.0082,906.873,0.278319,0.0,0.0
100,24.75,29.8294,31.4854,157.397,115.518,111.414,-0.00983085,0.0419165,21.0084,906.833,0.324005,0.0,0.0
104,25.75,30.2353,32.5679,159.188,115.51,111.128,-0.00985677,0.0417534,21.0085,906.893,0.34639,0.0,0.0
108,26.75,30.3941,32.3287,154.583,115.467,111.667,-0.00984806,0.041611,21.0086,906.873,0.29975,0.0,0.0
112,27.75,30.8778,32.3982,157.368,115.467,111.332,-0.00980418,0.0415175,21.0086,906.833,0.326609,0.0,0.0
116,28.75,30.4199,32.1024,157.645,115.448,111.128,-0.00973494,0.0414061,21.0089,906.913,0.341572,0.0,0.0
120,29.75,30.9881,32.3689,154.875,115.43,111.532,-0.00968277,0.0413341,21.0091,906.793,0.307666,0.0,0.0
124,30.75,30.4642,32.3103,154.532,115.424,111.681,-0.0096771,0.0412734,21.0091,906.813,0.295314,0.0,0.0
128,31.75,31.06,32.0717,155.638,115.405,109.918,-0.00973127,0.0412362,21.0086,906.753,0.436325,0.0,0.0
132,32.75,30.7004,31.9458,152.993,115.4,110.914,-0.00979498,0.041223,21.0083,906.943,0.355193,0.0,0.0
136,33.75,31.065,32.6975,154.547,115.379,110.586,-0.00994015,0.0412143,21.0081,906.933,0.380066,0.0,0.0
140,34.75,31.0142,32.456,156.563,115.383,111.435,-0.0100848,0.0411692,21.0079,906.893,0.311852,0.0,0.0
144,35.75,31.5338,33.0113,153.779,115.358,110.51,-0.010191,0.0411566,21.0078,906.853,0.384531,0.0,0.0
148,36.75,31.2453,33.2867,155.755,115.346,111.43,-0.0102359,0.0411926,21.0078,906.863,0.309337,0.0,0.0
152,37.75,31.5868,33.1615,155.893,115.347,111.555,-0.0102288,0.0412549,21.0075,906.793,0.299417,0.0,0.0
156,38.75,31.9501,33.0148,155.983,115.34,110.978,-0.0101838,0.041253,21.0067,906.833,0.345289,0.0,0.0
160,39.75,31.0829,33.1202,157.334,115.34,111.201,-0.0101275,0.041234,21.0059,906.743,0.327319,0.0,0.0
164,40.75,31.4132,33.1411,151.607,115.351,110.615,-0.0100571,0.0412201,21.0054,906.793,0.375514,0.0,0.0
168,41.75,31.2456,33.2659,159.401,115.431,111.02,-0.00996141,0.0411359,21.0051,906.823,0.349056,0.0,0.0
172,42.75,31.249,33.3292,150.632,115.509,111.097,-0.00983913,0.0411398,21.0049,906.823,0.348814,0.0,0.0
176,43.75,31.4005,33.5014,152.797,115.591,110.778,-0.00973977,0.0412413,21.0048,906.783,0.380999,0.0,0.0
180,44.75,31.5002,33.4375,154.45,115.662,109.833,-0.00969931,0.0413612,21.0047,906.743,0.463259,0.0,0.0
184,45.75,31.8176,33.4835,153.642,115.724,110.427,-0.00971995,0.0413872,21.0046,906.703,0.419664,0.0,0.0
188,46.75,32.4539,33.3563,152.865,115.76,110.021,-0.00974839,0.0413984,21.0046,906.723,0.455501,0.0,0.0
192,47.75,32.1341,32.9003,156.994,115.782,109.684,-0.00976998,0.0414557,21.0046,906.733,0.484626,0.0,0.0
196,48.75,31.5144,33.5463,153.408,115.711,109.757,-0.00975463,0.041523,21.0045,906.673,0.473197,0.0,0.0
200,49.75,31.9532,33.2787,158.439,115.695,109.284,-0.00972703,0.0415849,21.0045,906.773,0.510613,0.0,0.0
204,50.75,31.9439,33.5658,155.473,115.719,109.014,-0.00968421,0.0417044,21.0045,906.743,0.534633,0.0,0.0
208,51.75,32.3729,33.3262,156.6,115.753,110.485,-0.00962465,0.0418179,21.0045,906.723,0.417272,0.0,0.0
212,52.75,32.3485,33.9642,156.089,115.809,109.869,-0.00954961,0.0419174,21.0045,906.653,0.471645,0.0,0.0
216,53.75,32.5203,33.9455,152.459,115.844,109.719,-0.00950038,0.0420492,21.0045,906.563,0.486561,0.0,0.0
220,54.75,31.7141,34.313,155.299,115.886,109.125,-0.00940515,0.0422241,21.0054,906.583,0.538405,0.0,0.0
224,55.75,32.4789,34.2557,155.259,115.92,108.026,-0.00931571,0.0424455,21.0062,906.643,0.631742,0.0,0.0
228,56.75,32.1431,34.4235,153.513,115.957,109.815,-0.00922331,0.0426599,21.0067,906.553,0.487517,0.0,0.0
232,57.75,32.8304,34.5052,156.009,115.992,108.282,-0.00914247,0.0428857,21.007,906.613,0.616124,0.0,0.0
236,58.75,32.8691,34.4136,153.266,116.059,109.346,-0.00909483,0.0431741,21.0072,906.643,0.533694,0.0,0.0
240,59.75,32.3868,34.7428,154.762,116.079,109.275,-0.00907631,0.0434332,21.0075,906.653,0.541091,0.0,0.0
244,60.75,32.5404,34.3219,161.619,116.108,109.4,-0.00905938,0.0436366,21.0076,906.523,0.533038,0.0,0.0
248,61.75,32.5432,33.8033,155.231,116.127,109.882,-0.00903757,0.0438681,21.0072,906.563,0.49509,0.0,0.0
252,62.75,32.7247,34.6871,155.667,116.155,109.655,-0.00900629,0.0440719,21.0066,906.613,0.515794,0.0,0.0
256,63.75,32.8776,34.0685,151.451,116.163,108.295,-0.00897314,0.0446111,21.0057,906.553,0.628236,0.0,0.0
260,64.75,32.4629,34.4853,152.415,116.192,107.73,-0.00893527,0.0464279,21.0011,906.553,0.677311,0.0,0.0
264,65.75,32.9885,34.3111,155.309,116.198,109.833,-0.00890444,0.0513854,20.9917,906.453,0.504604,0.0,0.0
268,66.75,33.2124,34.5573,151.674,116.227,110.466,-0.00887944,0.0604342,20.9752,906.473,0.455335,0.0,0.0
272,67.75,32.6157,34.6135,146.716,116.242,109.624,-0.00883156,0.0743328,20.9543,906.363,0.525038,0.0,1.0
276,68.75,33.1687,34.8052,148.229,116.249,109.766,-0.00876111,0.0941839,20.9282,906.493,0.514027,0.0,1.0
280,69.75,33.4944,35.3742,143.023,116.27,108.374,-0.00866464,0.118151,20.8971,906.443,0.62997,0.0,1.0
284,70.75,34.0465,35.9422,137.831,116.283,107.847,-0.0085282,0.145301,20.8539,906.503,0.674549,0.0,1.0
288,71.75,33.882,35.8964,140.641,116.28,107.225,-0.0083435,0.174113,20.7949,906.293,0.726253,0.0,1.0
292,72.75,34.5186,36.8682,145.146,116.289,108.286,-0.0081419,0.209058,20.7355,906.193,0.638722,0.0,0.0
296,73.75,35.3363,38.0734,134.018,116.279,108.935,-0.00796307,0.243345,20.6872,906.083,0.584454,0.0,0.0
300,74.75,35.6748,38.2873,134.999,116.29,107.141,-0.00776161,0.276241,20.6396,906.002,0.733934,0.0,0.0
304,75.75,36.7874,39.2274,133.677,116.293,107.283,-0.00759914,0.307442,20.6005,905.902,0.722326,0.0,0.0
308,76.75,37.7951,40.4337,140.407,116.287,107.89,-0.00745181,0.339227,20.5617,905.962,0.671379,0.0,0.0
312,77.75,38.3646,41.1551,133.922,116.279,106.7,-0.00731055,0.370967,20.5169,905.862,0.77006,0.0,0.0
316,78.75,39.1468,42.3251,133.845,116.292,106.782,-0.00717653,0.39472,20.47,905.752,0.764207,0.0,0.0
320,79.75,40.0807,43.0443,132.356,116.269,106.926,-0.00705007,0.43175,20.4245,905.622,0.750335,0.0,0.0
324,80.75,41.2632,44.2848,127.586,116.282,106.723,-0.00693688,0.464873,20.3679,905.552,0.768371,0.0,0.0
328,81.75,42.5077,45.7101,124.132,116.269,106.531,-0.0068396,0.499766,20.3206,905.432,0.783477,0.0,0.0
332,82.75,43.1865,46.864,130.276,116.267,106.449,-0.00675718,0.531909,20.2734,905.292,0.790216,0.0,0.0
336,83.75,44.2658,48.18,128.921,116.248,107.021,-0.0066856,0.560189,20.2285,905.172,0.740762,0.0,0.0
340,84.75,45.5242,49.9445,121.737,116.246,106.539,-0.00661181,0.585406,20.1825,904.931,0.781077,0.0,0.0
344,85.75,47.0258,51.1674,125.753,116.244,107.545,-0.00651646,0.611251,20.1397,904.771,0.69673,0.0,0.0
348,86.75,48.0137,52.5255,116.821,116.231,106.744,-0.00640695,0.633925,20.0933,904.681,0.76271,0.0,0.0
352,87.75,48.8918,53.8203,117.308,116.226,106.161,-0.0062726,0.659381,20.0556,904.621,0.811336,0.0,0.0
356,88.75,49.9776,55.0261,119.181,116.228,105.973,-0.00613908,0.688662,20.0198,904.371,0.827413,0.0,0.0
360,89.75,52.0272,57.4653,118.636,116.209,105.356,-0.00591668,0.719472,19.9716,904.211,0.878257,0.0,0.0
364,90.75,53.092,58.8181,114.115,116.213,105.152,-0.00572819,0.750355,19.9288,904.101,0.895826,0.0,0.0
368,91.75,54.6959,60.3342,120.887,116.197,104.8,-0.00557359,0.771448,19.8855,903.991,0.924655,0.0,0.0
372,92.75,55.6104,62.1587,119.468,116.198,103.207,-0.0054607,0.796565,19.845,903.861,1.06197,0.0,0.0
376,93.75,56.7228,63.0949,119.411,116.182,104.419,-0.00535554,0.81995,19.8037,903.7,0.956121,0.0,0.0
380,94.75,57.977,64.7454,112.504,116.179,103.703,-0.00526542,0.844607,19.7681,903.57,1.0176,0.0,0.0
384,95.75,58.9565,65.8945,120.6,116.153,103.427,-0.00504299,0.865806,19.7367,903.47,1.03944,0.0,0.0
388,96.75,61.1761,67.9614,117.002,116.142,103.411,-0.00482214,0.882917,19.7114,903.26,1.0399,0.0,0.0
392,97.75,62.1778,69.4091,114.542,116.125,102.122,-0.00460308,0.895609,19.6929,903.14,1.15104,0.0,0.0
396,98.75,63.2294,70.9125,127.976,116.106,103.231,-0.00442115,0.906089,19.6784,903.06,1.05281,0.0,0.0
400,99.75,63.899,72.3168,123.198,116.094,102.903,-0.00429528,0.916417,19.6643,902.82,1.0804,0.0,0.0
404,100.75,65.8401,73.8969,114.389,116.073,102.875,-0.00419681,0.927278,19.6533,902.589,1.08117,0.0,0.0
408,101.75,66.9118,75.8184,120.792,116.047,102.509,-0.00409625,0.936382,19.6419,902.549,1.11116,0.0,0.0
412,102.75,68.2443,76.9114,117.109,116.011,101.779,-0.00395589,0.950806,19.6267,902.329,1.17232,0.0,0.0
416,103.75,68.6736,78.2909,119.832,115.98,101.386,-0.00378889,0.966951,19.6021,902.139,1.20458,0.0,0.0
420,104.75,70.3251,79.6874,119.186,115.96,100.221,-0.00363103,0.98147,19.5736,902.009,1.3066,0.0,0.0
424,105.75,71.3757,80.935,117.348,115.89,101.761,-0.00347423,0.996189,19.5494,901.899,1.1646,0.0,0.0
428,106.75,73.2729,83.0493,118.242,115.843,102.045,-0.00331795,1.00844,19.5284,901.699,1.13596,0.0,0.0
432,107.75,74.1168,83.8095,109.221,115.785,100.886,-0.00314581,1.0193,19.5085,901.589,1.23383,0.0,0.0
436,108.75,75.1209,86.1112,118.622,115.731,101.022,-0.00296499,1.03266,19.4875,901.318,1.21754,0.0,0.0
440,109.75,76.5085,87.6557,116.55,115.678,99.5482,-0.00276666,1.04963,19.461,901.178,1.34506,0.0,0.0
444,110.75,77.1201,88.8555,113.922,115.636,98.1119,-0.00257811,1.06828,19.4379,900.988,1.47199,0.0,0.0
448,111.75,78.5002,90.4247,108.456,115.648,99.5834,-0.00245794,1.08496,19.4163,900.728,1.33964,0.0,0.0
452,112.75,79.7933,91.2802,113.996,115.659,99.6698,-0.00239245,1.09817,19.4007,900.688,1.3327,0.0,0.0
456,113.75,81.379,92.7561,114.282,115.673,100.182,-0.00235813,1.10658,19.3892,900.548,1.28787,0.0,0.0
460,114.75,82.5057,94.3887,110.875,115.673,100.484,-0.00232995,1.10932,19.3805,900.397,1.26091,0.0,0.0
464,115.75,83.0395,95.6086,115.822,115.714,100.325,-0.00230629,1.10667,19.3748,900.257,1.27823,0.0,0.0
468,116.75,84.4801,97.0006,105.964,115.725,99.4502,-0.00227365,1.11103,19.3711,900.067,1.35757,0.0,0.0
472,117.75,84.9829,97.9714,107.132,115.742,99.8858,-0.00220967,1.12237,19.3487,899.877,1.31969,0.0,0.0
476,118.75,86.5332,98.9845,110.61,115.769,99.3008,-0.0020624,1.14472,19.3102,899.727,1.37442,0.0,0.0
480,119.75,87.5442,100.527,98.4698,115.767,99.766,-0.00185472,1.16652,19.2734,899.467,1.3324,0.0,0.0
484,120.75,88.6196,102.211,111.963,115.79,98.8444,-0.0016279,1.18601,19.2447,899.317,1.41728,0.0,0.0
488,121.75,89.5766,103.675,107.737,115.803,99.4201,-0.00138824,1.20405,19.2215,899.036,1.36632,0.0,0.0
492,122.75,91.0845,104.809,107.618,115.819,98.5757,-0.00123099,1.22323,19.2027,898.856,1.44392,0.0,0.0
496,123.75,92.3428,106.644,104.252,115.83,97.7632,-0.000995174,1.24567,19.1808,898.656,1.51893,0.0,0.0
500,124.75,93.0118,107.577,101.769,115.836,96.6844,-0.000795506,1.2604,19.155,898.426,1.61879,0.0,0.0
504,125.75,94.4895,109.482,109.053,115.86,98.2728,-0.000608321,1.27565,19.13,898.175,1.47469,0.0,0.0
508,126.75,95.3272,110.663,102.838,115.858,96.8643,-0.000445057,1.2864,19.1096,897.985,1.60382,0.0,0.0
512,127.75,96.2001,112.455,106.195,115.884,97.1598,-0.000310973,1.29621,19.0899,897.905,1.57854,0.0,0.0
516,128.75,97.5473,113.251,108.454,115.892,98.5008,-0.000200527,1.30493,19.0748,897.685,1.45641,0.0,0.0
520,129.75,98.8043,114.64,111.474,115.895,97.6509,-9.08581e-05,1.31243,19.063,897.415,1.53421,0.0,0.0
524,130.75,99.8633,116.287,104.565,115.914,97.1325,1.099e-05,1.32002,19.0524,897.335,1.58342,0.0,0.0
528,131.75,100.359,116.616,106.377,115.941,95.6217,0.000118793,1.32812,19.0395,897.065,1.72586,0.0,0.0
532,132.75,102.041,118.848,105.165,115.959,97.1968,0.000229323,1.33767,19.0248,896.874,1.58091,0.0,0.0
536,133.75,103.092,119.811,104.106,115.968,96.8573,0.000349776,1.35057,19.004,896.694,1.61297,0.0,0.0
540,134.75,103.543,120.475,109.395,115.987,97.0391,0.000523541,1.3663,18.9803,896.504,1.59767,0.0,0.0
544,135.75,104.901,122.155,99.246,116.008,97.1894,0.000716599,1.38679,18.9475,896.254,1.58541,0.0,0.0
548,136.75,106.073,123.594,102.571,116.041,95.7531,0.000911997,1.40901,18.9171,896.174,1.72135,0.0,0.0
552,137.75,107.098,124.935,104.174,116.067,96.9378,0.00118694,1.43354,18.878,895.823,1.6132,0.0,0.0
556,138.75,108.082,125.995,101.457,116.098,94.9618,0.00149379,1.45611,18.84,895.703,1.80003,0.0,0.0
560,139.75,109.266,127.628,105.39,116.111,95.1195,0.00180139,1.47764,18.7939,895.403,1.78618,0.0,0.0
564,140.75,110.36,128.757,95.3426,116.132,94.5068,0.00208607,1.50814,18.7396,895.233,1.8457,0.0,0.0
568,141.75,111.245,129.902,101.908,116.148,95.0335,0.00237389,1.54128,18.6913,895.003,1.79715,0.0,0.0
572,142.75,112.628,131.746,100.647,116.166,94.6825,0.00268736,1.57225,18.6511,894.772,1.83168,0.0,0.0
576,143.75,113.885,133.188,106.373,116.182,93.6069,0.00317236,1.60092,18.6149,894.462,1.93525,0.0,0.0
580,144.75,115.021,134.505,106.896,116.208,90.7329,0.00368437,1.63539,18.5885,894.212,2.21657,0.0,0.0
584,145.75,116.185,136.24,91.2538,116.205,93.2786,0.00407244,1.67435,18.5504,893.892,1.96846,0.0,0.0
588,146.75,117.067,137.309,101.257,116.22,93.2153,0.0046016,1.71316,18.4919,893.721,1.97571,0.0,0.0
592,147.75,118.508,139.036,104.797,116.227,91.0617,0.00505057,1.76027,18.4196,893.431,2.18565,0.0,0.0
596,148.75,120.311,141.209,91.7659,116.243,91.3665,0.00540767,1.80231,18.3455,893.151,2.15696,0.0,0.0
600,149.75,121.332,142.949,93.539,116.255,91.1496,0.00575096,1.84381,18.2772,892.901,2.17912,0.0,0.0
604,150.75,122.776,144.299,94.7045,116.264,90.7339,0.00610975,1.88115,18.2236,892.681,2.22083,0.0,0.0
608,151.75,124.098,146.033,94.258,116.273,90.7038,0.00656028,1.92054,18.1765,892.26,2.22448,0.0,0.0
612,152.75,125.692,148.104,95.2961,116.282,89.2832,0.00700708,1.95442,18.1161,892.16,2.36657,0.0,0.0
616,153.75,126.656,149.486,92.2979,116.308,88.9221,0.00751371,2.00003,18.0453,891.78,2.40483,0.0,0.0
620,154.75,128.507,151.46,95.0473,116.313,88.5683,0.0079825,2.04636,17.9645,891.51,2.44097,0.0,0.0
624,155.75,129.539,153.25,94.0535,116.318,89.7249,0.0085418,2.0986,17.8772,891.269,2.32509,0.0,0.0
628,156.75,130.776,154.71,93.1505,116.337,88.019,0.00913299,2.14984,17.8042,890.939,2.49852,0.0,0.0
632,157.75,132.615,157.09,78.4559,116.359,87.9269,0.009786,2.19404,17.741,890.739,2.50959,0.0,0.0
636,158.75,133.596,158.728,88.2365,116.369,87.5496,0.0104713,2.23895,17.6738,890.399,2.54887,0.0,0.0
640,159.75,135.557,160.909,83.7439,116.378,86.8116,0.0111514,2.2828,17.603,890.088,2.62543,0.0,0.0
644,160.75,137.122,162.987,89.4135,116.391,86.5558,0.0117639,2.33156,17.5376,889.858,2.65286,0.0,0.0
648,161.75,138.288,164.603,89.3723,116.41,86.5692,0.0123644,2.37886,17.4691,889.558,2.65293,0.0,0.0
652,162.75,140.383,167.411,83.9798,116.421,85.8261,0.0128716,2.41921,17.4047,889.228,2.73094,0.0,0.0
656,163.75,142.104,169.366,90.0829,116.439,86.3417,0.013276,2.45918,17.3493,888.987,2.67874,0.0,0.0
660,164.75,143.394,171.464,83.5867,116.452,86.5415,0.0135822,2.49482,17.3043,888.667,2.65898,0.0,0.0
664,165.75,145.113,173.825,83.8057,116.476,87.0321,0.0138059,2.52421,17.267,888.237,2.61019,0.0,0.0
668,166.75,146.808,175.928,82.2036,116.469,86.8786,0.0140005,2.55203,17.2259,887.966,2.6255,0.0,0.0
672,167.75,148.285,178.055,87.1893,116.472,86.0462,0.0141887,2.57766,17.189,887.606,2.71195,0.0,0.0
676,168.75,149.804,179.764,89.6524,116.482,83.6509,0.0143522,2.59561,17.1634,887.286,2.9656,0.0,0.0
680,169.75,150.59,181.409,81.3732,116.494,84.6927,0.014672,2.60655,17.1501,887.036,2.85567,0.0,0.0
684,170.75,152.756,183.943,82.9158,116.492,83.4247,0.0150806,2.62473,17.1243,886.725,2.99064,0.0,0.0
688,171.75,153.753,185.302,84.0378,116.507,82.8462,0.0155058,2.65095,17.0946,886.425,3.05409,0.0,0.0
692,172.75,155.513,187.52,88.0625,116.518,83.8113,0.0160535,2.6881,17.0554,886.145,2.95122,0.0,0.0
696,173.75,157.237,189.497,85.7376,116.511,85.1343,0.0166193,2.71925,17,885.885,2.81039,0.0,0.0
700,174.75,158.344,191.549,81.4854,116.529,82.8546,0.0172639,2.75947,16.9414,885.474,3.05489,0.0,0.0
704,175.75,159.761,193.632,88.1037,116.521,82.0976,0.0178306,2.80622,16.8733,885.054,3.13653,0.0,0.0
708,176.75,161.298,195.073,85.1293,116.545,83.5824,0.0182642,2.84163,16.8206,884.814,2.97781,0.0,0.0
712,177.75,162.507,197.221,97.4096,116.552,83.8885,0.0185593,2.86376,16.7829,884.563,2.94561,0.0,0.0
716,178.75,164.803,199.555,86.5207,116.552,84.221,0.0187761,2.87787,16.7581,884.123,2.91011,0.0,0.0
720,179.75,165.557,201.104,83.5218,116.555,81.9847,0.0189499,2.88825,16.7428,883.773,3.15141,0.0,0.0
724,180.75,167.448,203.088,83.2539,116.561,81.6939,0.0190748,2.89337,16.7369,883.502,3.18372,0.0,0.0
728,181.75,168.608,204.975,86.7672,116.56,83.1297,0.0191532,2.89076,16.742,883.222,3.02755,0.0,0.0
732,182.75,170.033,206.429,81.5831,116.561,83.354,0.0191759,2.87672,16.7568,882.832,3.00352,0.0,0.0
736,183.75,171.078,208.169,93.8886,116.561,81.5075,0.0191623,2.86438,16.7691,882.462,3.20421,0.0,0.0
740,184.75,172.321,210.13,81.7212,116.548,80.0143,0.0190992,2.85837,16.7794,882.241,3.36881,0.0,0.0
744,185.75,173.467,211.255,85.9124,116.56,81.5926,0.0189963,2.85291,16.786,881.811,3.19472,0.0,0.0
748,186.75,174.514,212.955,93.0681,116.55,80.6187,0.0189753,2.84333,16.7934,881.541,3.30155,0.0,0.0
752,187.75,175.562,214.017,83.2066,116.546,81.0062,0.0190516,2.83751,16.802,881.26,3.25831,0.0,0.0
756,188.75,176.082,214.65,86.4917,116.541,80.5322,0.0191984,2.83386,16.8088,880.94,3.31048,0.0,0.0
760,189.75,177.245,216.203,79.7268,116.523,82.9364,0.0194025,2.83008,16.8132,880.57,3.04558,0.0,0.0
764,190.75,178.198,217.672,80.8358,116.529,80.0407,0.0196769,2.82653,16.8161,880.3,3.36438,0.0,0.0
768,191.75,179.014,218.432,88.3281,116.497,79.2777,0.0198884,2.82636,16.8196,880.069,3.44772,0.0,0.0
772,192.75,180.302,220.304,87.6,116.492,78.4439,0.0202343,2.82262,16.8233,879.739,3.54202,0.0,0.0
776,193.75,181.47,221.611,91.6331,116.459,78.6243,0.0205658,2.81436,16.832,879.439,3.51895,0.0,0.0
780,194.75,181.779,222.168,81.0564,116.445,80.7935,0.0207691,2.80203,16.8483,879.169,3.27408,0.0,0.0
784,195.75,181.99,223.086,89.9119,116.421,78.5785,0.0208103,2.76961,16.908,878.878,3.52124,0.0,0.0
788,196.75,183.446,224.029,87.7221,116.405,78.4079,0.0207079,2.73008,16.9533,878.548,3.53948,0.0,0.0
792,197.75,183.129,224.592,89.683,116.382,79.5496,0.0203888,2.66953,17.0407,878.228,3.40818,0.0,0.0
796,198.75,184.695,225.536,88.7907,116.386,76.9799,0.0199975,2.59697,17.1492,877.958,3.70266,0.0,0.0
800,199.75,184.16,225.638,91.6682,116.344,77.8123,0.0193966,2.52692,17.2531,877.737,3.60311,0.0,0.0
804,200.75,184.181,225.248,91.2484,116.313,79.8691,0.0187978,2.44853,17.3548,877.437,3.36701,0.0,0.0
808,201.75,184.711,225.256,93.7222,116.3,77.3179,0.01815,2.37277,17.4731,877.217,3.65678,0.0,0.0
812,202.75,183.924,224.888,93.6673,116.277,75.7415,0.017491,2.29926,17.6026,876.977,3.83952,0.0,0.0
816,203.75,184.227,224.418,93.2665,116.25,79.6749,0.0167677,2.2203,17.7263,876.716,3.38393,0.0,0.0
820,204.75,183.378,223.479,94.8206,116.219,80.4282,0.0160209,2.14816,17.8241,876.506,3.29725,0.0,0.0
824,205.75,183.261,223.628,97.5386,116.183,81.2745,0.0153467,2.0875,17.8957,876.286,3.20073,0.0,0.0
828,206.75,182.898,222.83,100.365,116.146,79.9306,0.0146333,2.03302,17.9646,876.056,3.34721,0.0,0.0
832,207.75,183.457,223.176,100.837,116.119,80.9434,0.0138852,1.98443,18.0324,875.896,3.23236,0.0,0.0
836,208.75,182.837,221.756,99.9269,116.086,81.7716,0.0132084,1.92608,18.1164,875.686,3.13864,0.0,0.0
840,209.75,182.063,221.091,104.697,116.063,81.7068,0.0126286,1.86733,18.2139,875.435,3.14399,0.0,0.0
844,210.75,181.756,220.158,99.1712,116.022,81.9686,0.0121584,1.80723,18.3031,875.215,3.11211,0.0,0.0
848,211.75,180.459,219.301,102.14,115.978,82.9637,0.011749,1.75311,18.3988,875.095,3.00067,0.0,0.0
852,212.75,180.134,217.701,109.018,115.946,83.1556,0.0113773,1.6966,18.4772,874.855,2.97747,0.0,0.0
856,213.75,179.526,216.843,102.701,115.905,84.2451,0.0110014,1.63778,18.5506,874.615,2.85775,0.0,0.0
860,214.75,178.404,215.551,103.582,115.857,83.3068,0.0107018,1.58412,18.6187,874.454,2.95436,0.0,0.0
864,215.75,177.566,214.161,108.974,115.791,83.2966,0.0103411,1.52429,18.6868,874.214,2.95036,0.0,0.0
868,216.75,176.678,213.144,112.971,115.766,82.6483,0.00984957,1.46426,18.7624,874.084,3.01842,0.0,0.0
872,217.75,175.677,211.487,109.929,115.716,83.8594,0.00930659,1.40721,18.8581,873.914,2.88418,0.0,0.0
876,218.75,174.239,209.816,116.323,115.673,86.9457,0.00875633,1.34032,18.9716,873.774,2.55717,0.0,0.0
880,219.75,173.02,207.967,115.921,115.62,83.6388,0.00831796,1.26927,19.0841,873.634,2.90034,0.0,0.0
884,220.75,171.955,206.628,118.384,115.566,84.1429,0.00778814,1.20943,19.1729,873.534,2.84232,0.0,0.0
888,221.75,170.184,203.978,107.966,115.512,85.3591,0.00728494,1.16182,19.2492,873.454,2.70966,0.0,0.0
892,222.75,169.149,202.299,114.227,115.473,84.4259,0.00678565,1.11591,19.3193,873.153,2.80506,0.0,0.0
896,223.75,168.011,200.821,117.45,115.413,83.5972,0.00624779,1.07017,19.4005,873.063,2.88877,0.0,0.0
900,224.75,166.641,198.691,120.17,115.35,82.3205,0.00574471,1.0246,19.4885,872.943,3.0217,0.0,0.0
904,225.75,165.248,197.125,122.175,115.3,84.3445,0.00501198,0.975133,19.5483,872.893,2.80029,0.0,0.0
908,226.75,164.129,195.178,124.293,115.247,85.2647,0.00428655,0.923049,19.6222,872.793,2.69896,0.0,0.0
912,227.75,162.346,193.385,127.17,115.179,84.7218,0.00338921,0.885788,19.6994,872.593,2.7509,0.0,0.0
916,228.75,160.903,190.73,123.121,115.117,85.1621,0.00241847,0.835175,19.7687,872.603,2.69968,0.0,0.0
920,229.75,159.572,189.119,126.677,115.054,86.3732,0.0014689,0.784937,19.8425,872.533,2.56829,0.0,0.0
924,230.75,157.629,186.857,125.17,115.005,87.3105,0.000571723,0.738973,19.9205,872.373,2.4678,0.0,0.0
928,231.75,155.532,184.252,128.969,114.955,85.6814,-0.000211721,0.698405,19.989,872.233,2.63255,0.0,0.0
932,232.75,154.923,182.655,125.721,114.907,88.0069,-0.000971408,0.660091,20.056,872.152,2.38893,0.0,0.0
936,233.75,153.321,180.963,128.647,114.869,89.8178,-0.00159897,0.624569,20.1087,872.092,2.20353,0.0,0.0
940,234.75,151.749,178.888,131.302,114.82,90.6987,-0.0022047,0.590425,20.1604,871.962,2.11232,0.0,0.0
944,235.75,150.544,177.143,130.664,114.773,89.317,-0.00262133,0.557768,20.196,871.972,2.24619,0.0,0.0
948,236.75,148.575,174.616,135.681,114.739,89.7207,-0.00310744,0.529236,20.241,871.832,2.20308,0.0,0.0
952,237.75,147.175,172.71,131.284,114.673,90.5512,-0.00367733,0.497421,20.2927,871.862,2.11544,0.0,0.0
956,238.75,145.803,170.656,131.409,114.628,94.1091,-0.00396471,0.473816,20.3227,871.772,1.7667,0.0,0.0
960,239.75,144.23,168.72,133.132,114.588,95.5033,-0.00440756,0.439541,20.3776,871.762,1.63185,0.0,0.0
964,240.75,142.76,166.476,139.516,114.545,95.6842,-0.00478737,0.399139,20.4311,871.692,1.61152,0.0,0.0
968,241.75,140.957,164.522,136.398,114.503,98.209,-0.00520961,0.372369,20.4852,871.642,1.37495,0.0,0.0
972,242.75,139.371,162.567,139.049,114.463,100.224,-0.00558405,0.336905,20.5402,871.612,1.18992,0.0,0.0
976,243.75,137.953,160.848,140.008,114.42,100.548,-0.00594446,0.304809,20.6014,871.712,1.1576,0.0,0.0
980,244.75,135.627,157.812,137.543,114.393,102.445,-0.00626142,0.27612,20.6534,871.592,0.988097,0.0,0.0
984,245.75,134.335,156.01,138.004,114.364,102.961,-0.00653244,0.248601,20.7006,871.682,0.940839,0.0,0.0
988,246.75,133.304,154.499,138.435,114.331,103.697,-0.00676916,0.224615,20.7404,871.662,0.874442,0.0,0.0
992,247.75,131.627,151.95,143.227,114.294,104.507,-0.00693686,0.203997,20.7698,871.642,0.801855,0.0,0.0
996,248.75,129.841,150.671,139.421,114.283,104.582,-0.00713004,0.185903,20.7971,871.562,0.794514,0.0,0.0
1000,249.75,128.217,148.132,141.27,114.251,105.034,-0.00729724,0.170995,20.82,871.592,0.753393,0.0,0.0
1004,250.75,126.922,146.391,145.318,114.236,104.684,-0.0074429,0.156919,20.8421,871.562,0.782153,0.0,0.0
1008,251.75,125.099,144.544,142.663,114.222,104.676,-0.00757743,0.144254,20.8616,871.632,0.781718,0.0,0.0
1012,252.75,123.382,142.574,140.787,114.212,104.527,-0.00773235,0.132424,20.8817,871.562,0.793694,0.0,0.0
1016,253.75,122.864,140.9,146.113,114.211,104.615,-0.00788344,0.122645,20.8985,871.522,0.786093,0.0,0.0
1020,254.75,120.741,139.06,143.551,114.204,105.147,-0.00800616,0.113995,20.9114,871.582,0.740121,0.0,0.0
1024,255.75,119.09,136.924,145.265,114.198,104.73,-0.00811076,0.106184,20.9237,871.502,0.775284,0.0,0.0
1028,256.75,117.897,135.223,146.236,114.199,105.406,-0.00818464,0.0996115,20.9339,871.352,0.717684,0.0,0.0
1032,257.75,116.911,133.608,143.906,114.214,104.883,-0.00823867,0.0930602,20.9431,871.472,0.763381,0.0,0.0
1036,258.75,115.076,131.292,141.644,114.215,104.746,-0.00829108,0.0871119,20.9515,871.402,0.775189,0.0,0.0
1040,259.75,114.039,130.684,146.918,114.227,105.022,-0.00833981,0.0823107,20.9575,871.482,0.752534,0.0,0.0
1044,260.75,112.209,127.756,144.008,114.232,104.883,-0.00841448,0.0781399,20.9621,871.532,0.764819,0.0,0.0
1048,261.75,110.936,126.46,143.518,114.256,105.244,-0.00846347,0.0747888,20.9669,871.502,0.735875,0.0,0.0
1052,262.75,109.541,124.653,147.286,114.27,105.458,-0.00859674,0.0717736,20.9692,871.542,0.718814,0.0,0.0
1056,263.75,108.762,123.327,145.552,114.287,105.35,-0.0087089,0.0693997,20.9713,871.502,0.729378,0.0,0.0
1060,264.75,107.685,121.736,141.683,114.322,105.366,-0.00878473,0.0673125,20.9734,871.482,0.73073,0.0,0.0
1064,265.75,106.482,120.42,145.587,114.362,104.564,-0.00884797,0.0653381,20.9761,871.482,0.80233,0.0,0.0
1068,266.75,105.318,118.728,147.11,114.375,104.667,-0.00890541,0.0634818,20.9786,871.602,0.794493,0.0,0.0
1072,267.75,103.694,117.044,141.355,114.382,104.674,-0.00894861,0.0618251,20.9809,871.542,0.794453,0.0,0.0
1076,268.75,102.816,116.527,148.224,114.432,106.033,-0.00897797,0.0603426,20.9829,871.522,0.682809,0.0,0.0
1080,269.75,102.197,114.721,145.555,114.45,104.975,-0.00901296,0.0590217,20.9842,871.582,0.774034,0.0,0.0
1084,270.75,101.049,113.432,145.186,114.483,104.871,-0.00908086,0.0579587,20.9857,871.492,0.785496,0.0,0.0
1088,271.75,99.9021,112.127,144.652,114.52,104.972,-0.00917036,0.057083,20.9869,871.632,0.779836,0.0,0.0
1092,272.75,98.862,110.461,145.993,114.571,105.841,-0.00926054,0.0562936,20.9877,871.682,0.709858,0.0,0.0
1096,273.75,98.1304,109.548,146.587,114.606,106.045,-0.00930623,0.0555603,20.9888,871.522,0.695451,0.0,0.0
1100,274.75,96.931,108.741,144.513,114.644,105.107,-0.00930249,0.0548275,20.9897,871.532,0.777922,0.0,0.0
1104,275.75,96.1766,107.08,141.014,114.682,105.423,-0.00929135,0.0542798,20.9903,871.522,0.753985,0.0,0.0
1108,276.75,94.9219,106.276,150.817,114.756,105.206,-0.00929687,0.0538377,20.9909,871.532,0.778316,0.0,0.0
1112,277.75,94.3518,105.248,143.991,114.808,105.061,-0.00933556,0.0534253,20.9919,871.622,0.794648,0.0,0.0
1116,278.75,92.9791,104.441,147.432,114.846,106.012,-0.0094262,0.0530299,20.9933,871.532,0.716967,0.0,0.0
1120,279.75,92.4794,103.616,147.558,114.918,105.691,-0.00955412,0.0526449,20.9946,871.532,0.749775,0.0,0.0
1124,280.75,92.1772,102.436,142.487,114.967,105.618,-0.00969223,0.0523132,20.9954,871.492,0.759747,0.0,0.0
1128,281.75,91.1059,100.814,145.507,115.026,105.878,-0.00984802,0.052016,20.9965,871.472,0.742314,0.0,0.0
1132,282.75,90.8308,101.048,148.493,115.077,105.865,-0.00996794,0.0517658,20.9975,871.512,0.74729,0.0,0.0
1136,283.75,88.5055,98.3734,148.645,115.121,106.284,-0.0100443,0.0515711,20.9981,871.522,0.715431,0.0,0.0
1140,284.75,89.0359,98.6079,150.031,115.165,106.765,-0.0100925,0.0513943,20.9985,871.512,0.678395,0.0,0.0
1144,285.75,88.6134,97.4942,149.112,115.213,106.112,-0.0101051,0.0511715,20.9981,871.422,0.737003,0.0,0.0
1148,286.75,87.4918,96.1405,147.532,115.266,105.567,-0.0101028,0.0508746,20.9979,871.482,0.787314,0.0,0.0
1152,287.75,86.1043,95.8448,148.595,115.318,106.829,-0.0100949,0.0506798,20.9977,871.462,0.684894,0.0,0.0
1156,288.75,86.1891,94.7483,145.221,115.345,105.755,-0.0100695,0.0504827,20.9976,871.272,0.777464,0.0,0.0
1160,289.75,85.1603,93.9844,145.27,115.385,106.02,-0.0100231,0.0502417,20.9976,871.432,0.758155,0.0,0.0
1164,290.75,84.5335,93.0386,144.166,115.42,106.203,-0.00994361,0.0500248,20.9975,871.452,0.745441,0.0,0.0
1168,291.75,84.2798,91.9895,149.562,115.454,105.563,-0.00985961,0.0498712,20.9975,871.382,0.802247,0.0,0.0
1172,292.75,83.1571,91.0433,143.363,115.504,105.802,-0.00977188,0.0497956,20.9975,871.422,0.785854,0.0,0.0
1176,293.75,82.6675,90.1688,146.958,115.544,106.261,-0.00970737,0.0497209,20.9975,871.432,0.750204,0.0,0.0
1180,294.75,81.5379,89.2649,146.437,115.582,106.362,-0.00967796,0.0495927,20.9974,871.452,0.744626,0.0,0.0
1184,295.75,81.2185,88.7523,146.457,115.616,106.204,-0.0096746,0.0493626,20.9982,871.402,0.76054,0.0,0.0
1188,296.75,81.6532,88.2317,142.057,115.652,106.105,-0.00971313,0.0490828,20.9988,871.492,0.771701,0.0,0.0
1192,297.75,80.1938,87.8265,149.96,115.679,106.372,-0.00975468,0.0488907,20.9991,871.522,0.751315,0.0,0.0
1196,298.75,79.3092,85.8617,144.823,115.702,105.641,-0.0097535,0.0487342,20.9993,871.532,0.814841,0.0,0.0
1200,299.75,79.5937,85.9603,142.715,115.74,107.016,-0.00969502,0.0485979,20.9994,871.502,0.701938,0.0,0.0
1204,300.75,78.9683,85.4254,148.499,115.739,106.069,-0.00960218,0.0483831,20.9992,871.572,0.781487,0.0,0.0
1208,301.75,78.9754,84.4703,149.06,115.771,107.221,-0.00951456,0.048217,20.9991,871.562,0.687248,0.0,0.0
1212,302.75,77.1437,83.0295,141.386,115.781,106.561,-0.00944592,0.0480871,20.9998,871.432,0.743274,0.0,0.0
1216,303.75,77.5259,83.6712,147,115.814,106.706,-0.00942037,0.0479172,21.0003,871.572,0.733736,0.0,0.0
1220,304.75,76.4868,82.897,148.173,115.811,106.382,-0.00942478,0.0477647,21.0006,871.532,0.76066,0.0,0.0
1224,305.75,76.5434,82.0888,145.009,115.825,106.869,-0.00943905,0.0476732,21.0008,871.512,0.720807,0.0,0.0
1228,306.75,75.502,80.9501,146.326,115.812,106.734,-0.00945031,0.047588,21.0009,871.542,0.731112,0.0,0.0
1232,307.75,75.5968,81.168,146.859,115.819,106.572,-0.0094577,0.0474431,21.0017,871.492,0.745326,0.0,0.0
1236,308.75,75.3849,80.749,148.677,115.822,106.961,-0.00945806,0.047348,21.0016,871.512,0.712954,0.0,0.0
1240,309.75,74.1369,79.3275,146.49,115.815,106.77,-0.00945215,0.0473358,21.0015,871.572,0.728377,0.0,0.0
1244,310.75,74.7579,79.3103,147.191,115.801,106.149,-0.00944329,0.0472308,21.0013,871.542,0.77954,0.0,0.0
1248,311.75,74.2197,78.4302,146.24,115.787,107.041,-0.00942849,0.0470834,21.0015,871.602,0.70349,0.0,0.0
1252,312.75,74.0517,78.2386,145.137,115.788,107.032,-0.00943002,0.0469379,21.0017,871.622,0.704337,0.0,0.0
1256,313.75,73.2036,77.933,147.35,115.765,106.963,-0.00946024,0.046803,21.0018,871.562,0.708357,0.0,0.0
1260,314.75,72.6909,77.0374,148.991,115.758,107.2,-0.00952726,0.0467177,21.0025,871.512,0.688043,0.0,0.0
1264,315.75,72.7243,77.5255,144.344,115.744,106.258,-0.00962517,0.0466584,21.0031,871.552,0.765966,0.0,0.0
1268,316.75,72.453,75.8799,147.338,115.733,106.198,-0.00972536,0.0465562,21.0035,871.572,0.770125,0.0,0.0
1272,317.75,71.1465,75.8917,144.985,115.722,106.843,-0.00979483,0.0464667,21.0038,871.502,0.71504,0.0,0.0
1276,318.75,71.6364,75.559,149.639,115.705,106.863,-0.00983224,0.0463941,21.0039,871.622,0.712101,0.0,0.0
1280,319.75,71.0831,74.9749,146.26,115.699,106.704,-0.00984382,0.0463207,21.0038,871.572,0.724894,0.0,0.0
1284,320.75,70.6819,74.3772,146.806,115.676,106.788,-0.00984447,0.046237,21.0032,871.612,0.716086,0.0,0.0
1288,321.75,70.1766,73.9306,152.997,115.656,106.378,-0.00985715,0.0461821,21.0028,871.632,0.749062,0.0,0.0
1292,322.75,70.1929,74.2094,144.447,115.634,106.846,-0.00987981,0.0461461,21.0025,871.602,0.707992,0.0,0.0
1296,323.75,70.0658,73.3873,147.891,115.631,106.143,-0.00991041,0.0461422,21.0023,871.542,0.766894,0.0,0.0
1300,324.75,68.7641,73.0374,146.101,115.61,106.716,-0.00994289,0.0461449,21.0022,871.492,0.717032,0.0,0.0
1304,325.75,68.7744,72.6591,143.782,115.578,107.875,-0.00996576,0.046206,21.0021,871.472,0.617809,0.0,0.0
1308,326.75,68.8522,72.4716,148.371,115.559,106.573,-0.0099716,0.0462256,21.0021,871.512,0.725098,0.0,0.0
1312,327.75,68.1229,72.0607,145.84,115.541,106.636,-0.00995225,0.0461495,21.002,871.492,0.718427,0.0,0.0
1316,328.75,68.3875,71.1946,147.02,115.515,107.514,-0.00990413,0.0458991,21.002,871.512,0.642921,0.0,0.0
1320,329.75,67.9714,70.8094,144.485,115.491,106.226,-0.00984203,0.0457097,21.002,871.582,0.749079,0.0,0.0
1324,330.75,67.1366,70.6304,147.003,115.482,106.101,-0.00979124,0.0456356,21.002,871.582,0.758919,0.0,0.0
1328,331.75,67.2587,70.616,147.503,115.461,106.343,-0.00976288,0.045587,21.0019,871.432,0.736808,0.0,0.0
1332,332.75,67.0483,69.6181,147.116,115.437,106.557,-0.0097545,0.0455156,21.0017,871.552,0.717005,0.0,0.0
1336,333.75,66.818,69.2941,149.091,115.439,106.528,-0.0097671,0.0454581,21.0016,871.592,0.719561,0.0,0.0
1340,334.75,65.5603,68.4062,146.064,115.424,106.811,-0.00981771,0.0453703,21.0016,871.582,0.694665,0.0,0.0
1344,335.75,65.7814,68.5908,146.364,115.444,106.846,-0.00988164,0.0452732,21.0015,871.552,0.693254,0.0,0.0
1348,336.75,65.7087,68.7765,145.6875,115.511,106.596,-0.00993306,0.045185,21.0015,871.562,0.719469,0.0,0.0
1352,337.75,65.3372,67.0362,145.159,115.622,107.111,-0.00995884,0.0450764,21.0015,871.592,0.684933,0.0,0.0
1356,338.75,65.7394,67.6687,148.741,115.731,107.292,-0.00994204,0.0449748,21.0014,871.612,0.678167,0.0,0.0
1360,339.75,65.1766,67.5668,151.511,115.823,107.028,-0.00991753,0.0449226,21.0014,871.552,0.707453,0.0,0.0
1364,340.75,65.6236,67.4371,149.06,115.894,106.219,-0.00991268,0.0448383,21.0019,871.562,0.780819,0.0,0.0
1368,341.75,64.3827,66.3358,143.319,115.986,106.852,-0.00992377,0.0447163,21.0021,871.552,0.734754,0.0,0.0
1372,342.75,64.5793,66.9756,145.22,116.052,106.712,-0.00995008,0.0445975,21.0018,871.562,0.751595,0.0,0.0
1376,343.75,64.6223,66.9469,147.703,116.124,106.639,-0.00997792,0.0445765,21.0014,871.582,0.76321,0.0,0.0
1380,344.75,64.1844,65.9207,146.276,116.177,107.075,-0.00998864,0.0446068,21.0011,871.582,0.73076,0.0,0.0
1384,345.75,62.9059,65.0284,146.226,116.235,107.141,-0.00997495,0.0446349,21.0009,871.642,0.729728,0.0,0.0
1388,346.75,63.8228,65.7618,147.744,116.27,107.373,-0.00993002,0.0447285,21.0008,871.602,0.713025,0.0,0.0
1392,347.75,63.9037,65.2997,145.717,116.315,107.792,-0.00985543,0.0447504,21.0007,871.572,0.681587,0.0,0.0
1396,348.75,63.4591,64.8023,149.228,116.347,107.983,-0.00977895,0.044685,21.0007,871.562,0.668269,0.0,0.0
1400,349.75,62.9046,64.9717,146.236,116.371,106.839,-0.00971733,0.0445445,21.0014,871.552,0.765447,0.0,0.0
1404,350.75,62.4158,64.4391,144.518,116.381,107.006,-0.00968009,0.0444186,21.0019,871.592,0.752262,0.0,0.0
1408,351.75,62.8483,64.1697,146.646,116.411,107.117,-0.00968063,0.0443638,21.0022,871.542,0.745291,0.0,0.0
1412,352.75,62.1768,63.9551,144.433,116.4,107.46,-0.00968398,0.0443699,21.0025,871.612,0.715813,0.0,0.0
1416,353.75,62.4363,63.7432,145.156,116.408,107.167,-0.00968316,0.0443516,21.0037,871.542,0.740899,0.0,0.0
1420,354.75,62.3795,63.2782,149.034,116.402,107.046,-0.00965606,0.0443171,21.0045,871.582,0.750485,0.0,0.0
1424,355.75,61.8258,63.3062,147.667,116.414,107.591,-0.00961343,0.0442223,21.0048,871.592,0.705926,0.0,0.0
1428,356.75,61.7831,62.9125,146.552,116.369,106.936,-0.00958423,0.0441323,21.005,871.572,0.757164,0.0,0.0
1432,357.75,61.6763,62.7661,148.258,116.351,107.704,-0.00958196,0.0440218,21.0051,871.592,0.691721,0.0,0.0
1436,358.75,61.4746,62.6511,147.339,116.31,106.592,-0.00959457,0.0438782,21.0052,871.582,0.781499,0.0,0.0
1440,359.75,61.403,62.4209,148.601,116.279,107.531,-0.00962871,0.0437088,21.0053,871.582,0.700605,0.0,0.0
1444,360.75,60.9872,62.2711,147.919,116.22,107.405,-0.00965654,0.0435977,21.0053,871.582,0.706483,0.0,0.0
1448,361.75,60.2727,61.9285,151.162,116.181,106.697,-0.00968094,0.0435248,21.0053,871.532,0.762709,0.0,0.0
1452,362.75,60.2788,61.9229,146.479,116.121,107.17,-0.00971324,0.0435165,21.0054,871.642,0.718513,0.0,0.0
1456,363.75,60.8899,61.7405,146.776,116.086,108.225,-0.00974719,0.0434229,21.0051,871.562,0.628061,0.0,0.0
1460,364.75,60.5184,61.4573,148.514,116.008,106.598,-0.00979194,0.0433745,21.0043,871.542,0.757695,0.0,0.0
1464,365.75,59.9547,61.4918,144.336,115.937,106.87,-0.00982814,0.043394,21.0037,871.542,0.729388,0.0,0.0
1468,366.75,60.0984,60.7891,144.916,115.859,107.589,-0.00989457,0.0434399,21.0032,871.562,0.663322,0.0,0.0
1472,367.75,59.9787,60.9927,150.076,115.786,107.099,-0.00994735,0.0435063,21.0029,871.562,0.698583,0.0,0.0
1476,368.75,60.2301,60.5226,147.319,115.738,106.905,-0.00997263,0.0436107,21.0018,871.492,0.711123,0.0,0.0
1480,369.75,59.7561,60.5072,149.442,115.763,106.757,,0.0436875,,871.532,0.725386,0.0,0.0
1484,370.75,59.5919,60.3532,146.256,115.772,106.637,,0.0436772,,871.632,0.736171,0.0,0.0
1488,371.75,59.3579,60.1958,149.371,115.797,107.364,,0.0436059,,871.632,0.677323,0.0,0.0
1492,372.75,59.1393,61.1824,146.903,115.842,106.677,,,,871.602,0.738216,0.0,0.0
1496,373.75,58.4946,59.2767,146.867,115.864,107.711,,,,871.592,0.653638,0.0,0.0
1500,374.75,59.4336,59.1469,149.459,115.893,106.386,,,,871.612,0.766677,0.0,0.0
1504,375.75,58.5304,59.7286,147.823,115.923,107.484,,,,871.592,0.67701,0.0,0.0
1508,376.75,58.8093,59.3136,144.211,115.962,107.98,,,,871.542,0.638811,0.0,0.0
1512,377.75,58.5021,58.8256,145.571,115.991,107.807,,,,871.562,0.65535,0.0,0.0
1516,378.75,57.8425,59.244,150.064,116.035,107.663,,,,871.602,0.670761,0.0,0.0
1520,379.75,58.2317,59.1948,148.891,116.074,106.54,,,,871.542,0.767714,0.0,0.0