File: 01_Data/Nylon/Cone/Nylon_Cone_HF50Scan_220225_R3.csv
Names,Time,Stack TC,Smoke TC,Exh Press,Smoke Comp,Smoke Meas,CO Meter,CO2 Meter,O2 Meter,Sample Mass,Ext Coeff,Start Test,Flame Verif
Chan Gain,,500,500,1,1,1,1,1,1,1,1,1.0,1.0
Offset,,0,0,0.134422,0,0,0,0,0,0,0,0.0,0.0
Gain,,1,1,25.011,15.3125,15.3273,1,1,1,1.00096,1.02035,1.0,1.0
Units,sec,C,C,Pa,%,%,%,%,%,g,/m,,
Baseline,,38.2731,40.1194,154.406,115.573,111.953,0.000934202,0.068218,20.9963,-868.381,0.284891,,
4,0.75,35.8822,37.4292,156.013,115.609,112.461,0.000684069,0.0724128,20.9928,42.2305,0.247106,0.0,0.0
8,1.75,35.6812,37.3266,153.563,115.665,112.939,0.000700679,0.0725582,20.9926,42.2205,0.213481,0.0,0.0
12,2.75,35.6802,37.4807,154.56,115.725,112.525,0.000725265,0.0725487,20.9925,42.2905,0.251011,0.0,0.0
16,3.75,35.39,36.81,157.378,115.775,112.337,0.000780914,0.0724438,20.9925,42.2205,0.269811,0.0,0.0
20,4.75,35.8544,37.477,153.345,115.829,112.278,0.000816446,0.0722003,20.9924,42.2405,0.278734,0.0,0.0
24,5.75,35.9193,37.0565,157.394,115.87,112.426,0.000851039,0.071877,20.9928,42.2505,0.270062,0.0,0.0
28,6.75,35.8337,37.4921,155.238,115.907,112.487,0.000858892,0.0715326,20.9935,42.2405,0.268072,0.0,0.0
32,7.75,35.8767,36.984,157.075,115.949,113.037,0.000835626,0.0713278,20.9939,42.2405,0.227585,0.0,0.0
36,8.75,35.4057,37.4332,149.142,115.987,111.994,0.000794138,0.0710762,20.9941,42.2405,0.313556,0.0,0.0
40,9.75,36.1896,37.6938,153.338,116.036,112.077,0.000766918,0.0709325,20.9943,42.2305,0.310727,0.0,0.0
44,10.75,35.7693,37.6309,154.349,116.064,112.333,0.000769759,0.0709337,20.9945,42.2104,0.29248,0.0,0.0
48,11.75,36.2106,37.2114,152.854,116.102,113.301,0.000793012,0.0710393,20.9945,42.1904,0.218617,0.0,0.0
52,12.75,35.7208,37.2595,154.906,116.139,112.749,0.000855693,0.0712071,20.9946,42.2104,0.265136,0.0,0.0
56,13.75,36.15,37.7154,151.09,116.187,112.961,0.000923197,0.0713675,20.9946,42.2004,0.252075,0.0,0.0
60,14.75,36.0239,37.3222,151.991,116.231,113.143,0.000984737,0.0714108,20.9946,42.1904,0.241017,0.0,0.0
64,15.75,36.1847,37.6679,155.263,116.258,112.655,0.00102975,0.071412,20.9946,42.1704,0.281781,0.0,0.0
68,16.75,35.4364,37.3892,156.889,116.286,112.145,0.00105203,0.0713615,20.9946,42.1804,0.32454,0.0,0.0
72,17.75,36.4038,37.6674,154.749,116.315,113.034,0.00106077,0.0712524,20.9946,42.2004,0.25608,0.0,0.0
76,18.75,36.0682,37.5308,154.495,116.34,113.502,0.00100087,0.0710616,20.9946,42.1904,0.220988,0.0,0.0
80,19.75,36.3703,37.4517,157.997,116.368,112.899,0.000909901,0.0709015,20.9945,42.2205,0.270927,0.0,0.0
84,20.75,36.1674,37.7234,156.585,116.393,113.829,0.000803558,0.0707965,20.995,42.2205,0.199339,0.0,0.0
88,21.75,36.2655,38.2829,154.654,116.414,113.056,0.000735968,0.0706917,20.9956,42.2004,0.261961,0.0,0.0
92,22.75,36.0046,38.1508,154.67,116.428,114.067,0.00070539,0.0705214,20.9959,42.2004,0.183368,0.0,0.0
96,23.75,36.2077,37.6909,151.538,116.452,112.511,0.000692843,0.0703818,20.9962,42.1704,0.308115,0.0,0.0
100,24.75,36.47,38.2156,152.367,116.468,113.153,0.000693905,0.0702934,20.9963,42.1804,0.258465,0.0,0.0
104,25.75,36.9555,37.8244,151.696,116.483,112.575,0.000696787,0.0702005,20.9958,42.1804,0.305462,0.0,0.0
108,26.75,36.5382,37.9777,153.438,116.51,112.502,0.000696492,0.0701589,20.9953,42.1804,0.313312,0.0,0.0
112,27.75,36.4717,38.1053,153.13,116.507,113.006,0.000689746,0.0701777,20.9949,42.1404,0.273144,0.0,0.0
116,28.75,36.4453,38.1819,152.28,116.52,113.61,0.000687504,0.0702159,20.9947,42.1304,0.226411,0.0,0.0
120,29.75,37.2755,37.8488,153.251,116.529,112.625,0.000692587,0.0701963,20.9946,42.1304,0.305002,0.0,0.0
124,30.75,36.5067,38.6803,154.23,116.54,113.497,0.000704371,0.0701478,20.9945,42.1304,0.236804,0.0,0.0
128,31.75,36.3274,37.6597,157.743,116.529,112.919,0.00071967,0.0700777,20.9944,42.1404,0.281615,0.0,0.0
132,32.75,36.6209,38.0708,156.814,116.531,112.676,0.000742096,0.0700312,20.9944,42.1304,0.301057,0.0,0.0
136,33.75,36.6698,38.855,153.405,116.536,112.479,0.000765909,0.070053,20.9944,42.1204,0.317147,0.0,0.0
140,34.75,36.6874,38.2879,154.553,116.532,113.074,0.000787734,0.0701614,20.9943,42.1104,0.269602,0.0,0.0
144,35.75,36.5984,38.4452,151.645,116.528,112.95,0.000821731,0.0702034,20.9943,42.1204,0.279059,0.0,0.0
148,36.75,36.75,38.0684,157.565,116.507,112.402,0.000870281,0.0701745,20.9943,42.1104,0.320991,0.0,0.0
152,37.75,36.959,38.759,150.691,116.505,112.317,0.000910597,0.070103,20.9943,42.1003,0.327664,0.0,0.0
156,38.75,36.8136,38.6094,151.449,116.493,111.704,0.000946319,0.0700509,20.9943,42.0703,0.375731,0.0,0.0
160,39.75,36.7827,38.4039,152.319,116.476,113.504,0.000970506,0.0700025,20.9943,42.1003,0.231331,0.0,0.0
164,40.75,37.105,38.5423,152.87,116.463,112.615,0.000985396,0.0699357,20.9943,42.0803,0.300685,0.0,0.0
168,41.75,36.8352,38.4444,154.939,116.443,113.335,0.00094923,0.0698427,20.9951,42.0603,0.242072,0.0,0.0
172,42.75,36.5791,38.8674,152.632,116.436,112.769,0.000888339,0.069757,20.9958,42.1003,0.286379,0.0,0.0
176,43.75,36.9928,38.4468,154.548,116.413,112.895,0.000841501,0.0697008,20.9963,42.0703,0.2746,0.0,0.0
180,44.75,37.3643,39.2963,157.684,116.402,112.619,0.00082163,0.0696926,20.9967,42.0703,0.295718,0.0,0.0
184,45.75,36.7208,38.7012,159.997,116.376,111.777,0.000839597,0.0697642,20.9969,42.0403,0.360907,0.0,0.0
188,46.75,36.8969,38.4985,156.822,116.358,112.562,0.000904318,0.0698286,20.9964,42.0303,0.296912,0.0,0.0
192,47.75,36.6346,38.4271,154.379,116.348,112.626,0.000951235,0.0699097,20.9959,42.0403,0.290991,0.0,0.0
196,48.75,36.9328,38.4969,157.692,116.331,111.168,0.000999016,0.0699734,20.9956,42.0103,0.406318,0.0,0.0
200,49.75,37.2733,38.8984,156.914,116.292,111.638,0.00103693,0.0700559,20.9954,42.0103,0.365531,0.0,0.0
204,50.75,37.485,38.8592,159.654,116.262,110.436,0.00107276,0.0701976,20.9952,41.9702,0.460166,0.0,0.0
208,51.75,36.8922,38.037,153.414,116.231,110.986,0.00110473,0.0703328,20.9951,41.9902,0.41332,0.0,0.0
212,52.75,37.171,38.471,153.103,116.213,111.358,0.00113257,0.070459,20.9951,41.9602,0.381942,0.0,0.0
216,53.75,37.4965,39.2316,156.962,116.179,110.663,0.00114637,0.0705379,20.995,41.9502,0.435391,0.0,0.0
220,54.75,37.09,39.5919,150.458,116.15,111.198,0.00114393,0.0706072,20.995,41.9202,0.389947,0.0,0.0
224,55.75,37.3309,38.9391,150.462,116.125,109.4,0.00114076,0.0707691,20.995,41.9002,0.533949,0.0,0.0
228,56.75,37.2641,39.484,154.602,116.094,111.465,0.00113869,0.0709454,20.995,41.8901,0.364189,0.0,0.0
232,57.75,37.5219,38.9721,152.696,116.076,110.591,0.00114828,0.071091,20.995,41.9102,0.433223,0.0,0.0
236,58.75,37.387,39.0935,155.05,116.05,109.955,0.0011703,0.0712734,20.9947,41.9102,0.482875,0.0,0.0
240,59.75,37.4557,39.0417,156.063,116.014,110.026,0.00122171,0.0714593,20.994,41.9002,0.47435,0.0,0.0
244,60.75,37.3946,39.1655,153.88,115.992,109.002,0.00128959,0.0716027,20.9935,41.9102,0.556303,0.0,0.0
248,61.75,37.6218,39.1152,154.643,115.957,110.336,0.00133864,0.0717493,20.9932,41.8901,0.444795,0.0,0.0
252,62.75,37.5228,39.2265,151.882,115.928,111.105,0.00133828,0.0719686,20.993,41.8701,0.380323,0.0,0.0
256,63.75,37.4109,39.5038,155.476,115.9,109.777,0.00131647,0.0721708,20.9929,41.8601,0.485778,0.0,0.0
260,64.75,37.55,39.5203,153.651,115.88,108.99,0.00123486,0.072358,20.9927,41.8501,0.548717,0.0,0.0
264,65.75,37.5304,39.167,155.901,115.833,108.835,0.00115813,0.0724913,20.9926,41.8501,0.557795,0.0,0.0
268,66.75,37.8957,39.2604,157.068,115.801,109.327,0.00109537,0.0725931,20.9925,41.8101,0.514962,0.0,0.0
272,67.75,37.87,39.9144,155.267,115.774,109.395,0.00106732,0.0726948,20.9924,41.8301,0.507278,0.0,0.0
276,68.75,37.3658,39.4051,149.444,115.748,107.939,0.00106861,0.0727421,20.9924,41.8201,0.62523,0.0,0.0
280,69.75,37.8242,39.6571,152.064,115.742,108.924,0.00108697,0.0728038,20.9923,41.8101,0.54337,0.0,0.0
284,70.75,37.8466,39.6378,156.174,115.708,108.641,0.00111216,0.0729317,20.9923,41.8001,0.56409,0.0,0.0
288,71.75,37.9629,40.0042,154.898,115.688,108.764,0.00112649,0.0730156,20.9923,41.77,0.552368,0.0,0.0
292,72.75,38.0761,39.9086,152.799,115.672,108.181,0.00112985,0.0730778,20.9923,41.73,0.599269,0.0,0.0
296,73.75,38.1291,40.0509,150.466,115.65,108.128,0.00112594,0.0731361,20.9923,41.74,0.601904,0.0,0.0
300,74.75,38.1641,40.1648,151.368,115.619,106.295,0.00112753,0.0731744,20.9923,41.71,0.752596,0.0,0.0
304,75.75,37.99,39.9075,151.632,115.603,106.908,0.00115001,0.0732242,20.9915,41.7,0.699878,0.0,0.0
308,76.75,37.8816,39.6682,150.144,115.647,107.36,0.00118651,0.0739178,20.9891,41.6799,0.665491,0.0,0.0
312,77.75,38.8567,39.5931,156.949,115.705,106.198,0.00124771,0.0777414,20.9825,41.69,0.76733,0.0,0.0
316,78.75,38.3593,40.1005,146.925,115.766,110.297,0.00134049,0.0868488,20.9649,41.6499,0.433181,0.0,0.0
320,79.75,38.4692,40.45,143.804,115.829,110.123,0.0014511,0.102763,20.941,41.6099,0.452189,0.0,1.0
324,80.75,38.2709,40.2967,142.48,115.864,110.621,0.00162458,0.124358,20.9038,41.5098,0.414465,0.0,1.0
328,81.75,38.7742,40.808,143.539,115.925,110.332,0.00179362,0.151115,20.8609,41.5098,0.442612,0.0,1.0
332,82.75,38.8644,41.1657,144.999,115.966,109.455,0.00197863,0.181676,20.7946,41.4197,0.517216,0.0,1.0
336,83.75,38.5834,40.8388,138.484,116.004,110.163,0.00217475,0.222753,20.7195,41.3797,0.462452,0.0,1.0
340,84.75,39.294,41.7653,132.901,116.057,108.945,0.00238296,0.265986,20.6503,41.3196,0.566002,0.0,1.0
344,85.75,40.2414,42.3389,135.81,116.075,109.228,0.0025322,0.311095,20.5857,41.1394,0.544188,0.0,1.0
348,86.75,40.8969,43.1819,129.981,116.115,108.936,0.002692,0.357923,20.536,41.0994,0.571236,0.0,1.0
352,87.75,41.4499,43.9363,129.322,116.139,109.03,0.00282836,0.40401,20.4853,40.9993,0.565351,0.0,0.0
356,88.75,42.7116,45.361,127.725,116.161,109.091,0.00302308,0.450013,20.4336,40.8391,0.562089,0.0,0.0
360,89.75,43.7289,46.9216,123.271,116.189,108.133,0.00324709,0.484437,20.3726,40.739,0.643157,0.0,0.0
364,90.75,45.0695,47.8252,124.667,116.212,109.269,0.00346016,0.531946,20.2968,40.669,0.551404,0.0,0.0
368,91.75,45.6699,49.0136,123.203,116.223,108.589,0.0036865,0.575586,20.2214,40.4888,0.608112,0.0,0.0
372,92.75,46.9087,50.408,126.801,116.235,108.433,0.00386181,0.619004,20.1411,40.3487,0.62186,0.0,0.0
376,93.75,48.8862,52.7963,115.933,116.257,108.876,0.00399404,0.657472,20.0832,40.1985,0.587064,0.0,0.0
380,94.75,49.95,54.2659,113.664,116.257,108.704,0.00411441,0.693422,20.0283,40.1084,0.601226,0.0,0.0
384,95.75,50.7145,55.4503,115.743,116.293,108.182,0.00422355,0.724256,19.9827,39.9783,0.647082,0.0,0.0
388,96.75,52.3123,57.3217,112.905,116.282,107.716,0.00434538,0.752047,19.9384,39.8082,0.684843,0.0,0.0
392,97.75,53.9955,59.2492,119.466,116.258,107.697,0.00448142,0.786253,19.8811,39.7081,0.684602,0.0,0.0
396,98.75,55.4328,60.6625,123.085,116.257,107.691,0.00461498,0.822044,19.8253,39.4979,0.685075,0.0,0.0
400,99.75,56.2506,62.4189,118.096,116.248,106.866,0.00482102,0.855751,19.7694,39.3577,0.753154,0.0,0.0
404,100.75,58.1538,64.0254,118.712,116.242,106.422,0.00504525,0.889058,19.7236,39.1475,0.789945,0.0,0.0
408,101.75,59.2911,66.3846,108.29,116.221,106.914,0.00532398,0.921135,19.674,38.9673,0.747108,0.0,0.0
412,102.75,61.2022,67.9471,116.934,116.194,106.192,0.00561462,0.953519,19.6195,38.7772,0.805687,0.0,0.0
416,103.75,62.8757,69.8644,121.562,116.181,106.079,0.00590577,0.986707,19.5593,38.7171,0.814189,0.0,0.0
420,104.75,64.2843,71.9077,103.05,116.158,106.292,0.00618638,1.02614,19.488,38.4869,0.794481,0.0,0.0
424,105.75,65.604,73.1218,105.931,116.137,106.17,0.00644743,1.0604,19.4296,38.2867,0.803107,0.0,0.0
428,106.75,67.8786,75.6514,108.519,116.095,106.146,0.00664999,1.09483,19.3811,38.0365,0.801955,0.0,0.0
432,107.75,69.3484,78.1928,109.718,116.061,105.963,0.00688676,1.12703,19.3381,37.8763,0.814686,0.0,0.0
436,108.75,70.9526,79.6783,110.545,116.021,105.201,0.00711673,1.15949,19.2911,37.6861,0.876252,0.0,0.0
440,109.75,72.3837,81.5135,105.972,115.991,104.985,0.00734611,1.19363,19.2561,37.526,0.892313,0.0,0.0
444,110.75,74.1856,84.1565,106.748,115.941,104.508,0.00756454,1.22568,19.2125,37.2857,0.929182,0.0,0.0
448,111.75,75.9933,86.2313,107.579,115.891,103.541,0.00785776,1.25521,19.1696,37.1356,1.00855,0.0,0.0
452,112.75,77.5384,87.8644,107.778,115.842,103.279,0.00813719,1.28306,19.127,36.9354,1.0274,0.0,0.0
456,113.75,79.1514,90.1722,106.804,115.787,103.19,0.00847765,1.30833,19.0793,36.6451,1.03091,0.0,0.0
460,114.75,80.7027,92.2799,104.712,115.735,103.113,0.00884675,1.3358,19.0379,36.495,1.0336,0.0,0.0
464,115.75,82.5244,94.5319,109.21,115.667,102.534,0.00918371,1.3615,18.9998,36.2848,1.07873,0.0,0.0
468,116.75,84.5405,96.6179,103.287,115.591,103.263,0.00949286,1.38303,18.9657,36.1346,1.0094,0.0,0.0
472,117.75,86.4709,98.7428,100.82,115.52,101.824,0.00974254,1.40172,18.9376,35.8043,1.12949,0.0,0.0
476,118.75,87.3918,100.59,105.083,115.443,102.058,0.00994956,1.42282,18.9034,35.6341,1.10305,0.0,0.0
480,119.75,88.4626,101.948,104.331,115.378,101.859,0.0101047,1.44103,18.8769,35.434,1.11547,0.0,0.0
484,120.75,90.0994,104.238,110.248,115.299,101.898,0.010226,1.45403,18.8563,35.2238,1.10581,0.0,0.0
488,121.75,91.8886,106.728,107.296,115.31,100.461,0.0103399,1.46504,18.8391,34.9935,1.23392,0.0,0.0
492,122.75,93.46875,108.529,100.909,115.301,101.372,0.0104366,1.47654,18.8241,34.6632,1.15238,0.0,0.0
496,123.75,95.263,110.296,101.28,115.308,101.14,0.0105016,1.48609,18.8109,34.5831,1.17342,0.0,0.0
500,124.75,96.8671,111.911,106.084,115.333,100.31,0.0105529,1.49248,18.8011,34.3329,1.24909,0.0,0.0
504,125.75,97.9423,113.481,106.482,115.342,100.722,0.010594,1.49499,18.7967,34.1427,1.2132,0.0,0.0
508,126.75,99.4943,115.14,109.468,115.355,101.021,0.0106541,1.49621,18.7942,33.9525,1.18761,0.0,0.0
512,127.75,100.652,117.17,105.21,115.362,101.069,0.0107059,1.49515,18.7925,33.8224,1.18385,0.0,0.0
516,128.75,102.284,118.73,101.729,115.374,99.04,0.010758,1.49404,18.7902,33.5822,1.36632,0.0,0.0
520,129.75,103.675,120.315,102.525,115.385,100.433,0.0108326,1.49515,18.7883,33.352,1.24218,0.0,0.0
524,130.75,104.439,122.027,105.834,115.405,99.1771,0.0109613,1.50088,18.7834,33.1918,1.35637,0.0,0.0
528,131.75,105.654,123.274,97.6643,115.409,99.5906,0.0111353,1.51197,18.7651,32.8915,1.31942,0.0,0.0
532,132.75,106.441,124.367,103.756,115.428,99.9895,0.0113219,1.52727,18.7385,32.6713,1.28515,0.0,0.0
536,133.75,107.677,125.911,115.71,115.443,99.3286,0.0114712,1.54604,18.7109,32.4311,1.34567,0.0,0.0
540,134.75,108.983,127.255,101.482,115.467,100.211,0.0116245,1.56192,18.6906,32.2909,1.26834,0.0,0.0
544,135.75,110.747,129.221,105.679,115.485,100.421,0.0117485,1.57373,18.6792,32.1008,1.25105,0.0,0.0
548,136.75,112.14,130.613,104.931,115.498,99.0274,0.0119386,1.58349,18.6652,31.9006,1.37706,0.0,0.0
552,137.75,113.223,131.959,97.7353,115.513,98.2832,0.0121675,1.59364,18.6491,31.5102,1.44577,0.0,0.0
556,138.75,114.062,134.071,100.326,115.537,98.1873,0.0124032,1.60298,18.6236,31.4101,1.45636,0.0,0.0
560,139.75,114.943,134.574,94.4746,115.538,98.1274,0.012594,1.62416,18.5908,31.1899,1.46192,0.0,0.0
564,140.75,116.271,136.114,106.405,115.547,98.6635,0.012739,1.64685,18.5566,30.9096,1.41381,0.0,0.0
568,141.75,117.614,137.905,99.1015,115.566,97.9913,0.012834,1.66838,18.5214,30.7194,1.47648,0.0,0.0
572,142.75,118.659,138.833,102.676,115.595,97.0371,0.0128855,1.69065,18.4926,30.4492,1.56631,0.0,0.0
576,143.75,119.992,140.547,95.5027,115.588,97.4394,0.0129199,1.71105,18.4612,30.249,1.52874,0.0,0.0
580,144.75,120.904,142.157,101.218,115.601,97.8557,0.0129545,1.73132,18.4284,29.9587,1.4916,0.0,0.0
584,145.75,122.138,143.44,105.466,115.609,98.1096,0.0130185,1.75001,18.3957,29.6784,1.46905,0.0,0.0
588,146.75,123.611,144.853,95.2539,115.622,97.8847,0.0131608,1.76926,18.3618,29.4783,1.49061,0.0,0.0
592,147.75,124.251,146.672,96.5919,115.64,96.9351,0.0133884,1.79311,18.3288,29.3181,1.57919,0.0,0.0
596,148.75,125.4,147.885,101.733,115.639,97.9791,0.0135675,1.81707,18.2948,29.0178,1.48327,0.0,0.0
600,149.75,126.586,148.693,96.2843,115.653,97.133,0.0138741,1.851,18.2492,28.7976,1.56199,0.0,0.0
604,150.75,128.048,151.05,94.1731,115.661,96.9674,0.0141501,1.88831,18.1983,28.4172,1.57784,0.0,0.0
608,151.75,128.957,152.822,97.9192,115.664,97.3575,0.0143921,1.92047,18.1514,28.2471,1.5422,0.0,0.0
612,152.75,130.052,153.976,96.7056,115.681,96.3079,0.0146727,1.9485,18.1094,28.0269,1.64048,0.0,0.0
616,153.75,131.002,155.751,92.2947,115.671,96.1325,0.0150686,1.97432,18.0641,27.7266,1.656,0.0,0.0
620,154.75,133.198,157.141,89.6858,115.689,95.762,0.0155655,2.00412,18.0122,27.5264,1.69201,0.0,0.0
624,155.75,133.698,159.089,94.8318,115.693,95.5459,0.0160329,2.03971,17.9672,27.2261,1.71252,0.0,0.0
628,156.75,135.378,160.366,91.9916,115.692,95.0276,0.0165613,2.0821,17.9218,26.9058,1.76113,0.0,0.0
632,157.75,136.122,161.506,95.5844,115.7,94.551,0.0171478,2.1232,17.8657,26.6355,1.80675,0.0,0.0
636,158.75,137.774,163.998,91.1009,115.725,95.4051,0.0177263,2.16824,17.8062,26.3352,1.72817,0.0,0.0
640,159.75,138.885,166.039,95.018,115.728,94.6057,0.0183588,2.2033,17.7511,26.0149,1.8037,0.0,0.0
644,160.75,140.662,168,86.7769,115.734,94.392,0.0189944,2.2439,17.6991,25.7046,1.82442,0.0,0.0
648,161.75,143.057,170.093,97.7383,115.731,93.1412,0.019737,2.28069,17.6331,25.4644,1.94363,0.0,0.0
652,162.75,143.712,172.181,91.4467,115.732,92.7974,0.0204194,2.33178,17.5516,25.1441,1.9768,0.0,0.0
656,163.75,145.105,173.031,88.5722,115.733,92.6828,0.0211442,2.38524,17.4757,24.8939,1.9879,0.0,0.0
660,164.75,146.836,175.259,87.3677,115.73,92.2801,0.0219071,2.44494,17.3892,24.4835,2.02666,0.0,0.0
664,165.75,148.2,177.814,86.1129,115.726,91.0924,0.022721,2.50183,17.303,24.2432,2.14227,0.0,0.0
668,166.75,150.003,179.501,81.5974,115.72,91.2444,0.0235695,2.55701,17.2095,23.973,2.12688,0.0,0.0
672,167.75,151.997,181.887,83.4468,115.72,92.2815,0.0243392,2.61646,17.1217,23.7027,2.02573,0.0,0.0
676,168.75,153.476,184.656,85.8297,115.719,91.1542,0.0250547,2.6694,17.0442,23.3724,2.13566,0.0,0.0
680,169.75,155.373,186.626,79.7769,115.715,91.2618,0.0255981,2.71165,16.982,22.952,2.12482,0.0,0.0
684,170.75,156.957,189.028,77.9092,115.711,90.4203,0.0261106,2.74485,16.9362,22.6417,2.20744,0.0,0.0
688,171.75,158.195,191.422,80.4303,115.705,90.3674,0.0265641,2.77815,16.8925,22.4415,2.21217,0.0,0.0
692,172.75,160.079,193.393,87.4456,115.687,89.8566,0.0270204,2.81307,16.8371,21.921,2.26156,0.0,0.0
696,173.75,161.83,195.699,75.1767,115.671,89.1746,0.0274836,2.85158,16.7723,21.6007,2.32853,0.0,0.0
700,174.75,163.85,198.156,74.8408,115.662,87.6077,0.0279717,2.89443,16.7013,21.3805,2.48648,0.0,0.0
704,175.75,165.046,200.322,83.1644,115.672,86.9439,0.0285038,2.94046,16.6215,20.9,2.55531,0.0,0.0
708,176.75,166.688,202.566,84.4497,115.653,87.2933,0.0290626,2.98686,16.5572,20.6398,2.51793,0.0,0.0
712,177.75,168.295,204.819,85.774,115.644,85.0842,0.0296745,3.03082,16.496,20.2194,2.74671,0.0,0.0
716,178.75,170.143,206.839,87.9699,115.625,86.3419,0.0302872,3.06633,16.448,19.9691,2.61388,0.0,0.0
720,179.75,172.002,209.199,84.3711,115.636,87.6484,0.0306806,3.09564,16.4196,19.5287,2.48033,0.0,0.0
724,180.75,172.997,211.482,82.4469,115.621,86.3911,0.0312517,3.13225,16.3802,19.2284,2.6085,0.0,0.0
728,181.75,175.021,213.276,79.2801,115.59,86.3906,0.0319518,3.17393,16.3215,18.8981,2.60612,0.0,0.0
732,182.75,176.173,215.505,83.4056,115.578,86.8518,0.0326099,3.19823,16.2694,18.4777,2.55749,0.0,0.0
736,183.75,177.986,217.987,84.9214,115.576,84.8475,0.0332156,3.23481,16.224,18.1774,2.76636,0.0,0.0
740,184.75,179.056,219.63,82.8148,115.566,82.6668,0.0338148,3.27575,16.1736,17.8471,2.99864,0.0,0.0
744,185.75,181.109,221.367,85.9808,115.55,83.7595,0.0343999,3.314,16.1136,17.5368,2.87988,0.0,0.0
748,186.75,182.416,223.989,74.7828,115.541,84.8311,0.0349729,3.34772,16.0599,17.0063,2.76537,0.0,0.0
752,187.75,184.094,226.423,87.3364,115.533,84.564,0.035528,3.37802,16.0183,16.686,2.79298,0.0,0.0
756,188.75,185.321,227.735,78.3054,115.518,83.5345,0.0360639,3.40682,15.99,16.3757,2.90146,0.0,0.0
760,189.75,187.069,231.018,83.6208,115.507,82.3352,0.0365558,3.42653,15.9714,16.0654,3.02998,0.0,0.0
764,190.75,188.61,233.165,73.8852,115.517,81.8394,0.0369519,3.42362,15.9592,15.7051,3.08484,0.0,0.0
768,191.75,190.36,235.067,75.8323,115.488,81.2724,0.0373221,3.40961,15.9687,15.2446,3.14485,0.0,0.0
772,192.75,191.301,236.157,84.5123,115.479,81.0849,0.0376586,3.3945,15.9794,15.0244,3.16481,0.0,0.0
776,193.75,192.503,238.551,79.6663,115.471,83.6084,0.0379132,3.38397,15.9888,14.594,2.88985,0.0,0.0
780,194.75,193.883,240.346,82.3583,115.454,80.9198,0.0380386,3.37867,15.9966,14.2437,3.1811,0.0,0.0
784,195.75,194.519,241.176,86.203,115.445,83.7099,0.0380329,3.37093,16.0086,13.7932,2.87699,0.0,0.0
788,196.75,195.624,242.38,96.1942,115.428,80.2191,0.0379215,3.35768,16.0321,13.5029,3.25691,0.0,0.0
792,197.75,197.019,244.422,81.244,115.42,80.8702,0.0378033,3.33286,16.0649,13.2827,3.18397,0.0,0.0
796,198.75,198.084,245.698,77.3177,115.413,81.4899,0.0376749,3.29839,16.1142,12.8924,3.11506,0.0,0.0
800,199.75,199.563,246.892,77.2184,115.401,80.6162,0.0376055,3.2637,16.1628,12.6521,3.21068,0.0,0.0
804,200.75,199.759,248.245,78.5229,115.403,80.3201,0.0375875,3.22428,16.2107,12.2517,3.24372,0.0,0.0
808,201.75,200.727,249.189,81.0928,115.397,80.8187,0.0375575,3.18305,16.2704,11.8313,3.18789,0.0,0.0
812,202.75,201.426,249.901,86.3251,115.375,78.7433,0.0373695,3.14005,16.3227,11.7012,3.419,0.0,0.0
816,203.75,202.009,250.476,78.5679,115.358,78.9631,0.0371097,3.09394,16.3706,11.3409,3.39274,0.0,0.0
820,204.75,202.618,251.167,87.9219,115.355,80.1667,0.0366064,3.03909,16.4335,10.9805,3.2571,0.0,0.0
824,205.75,203.155,251.73,87.3387,115.346,79.1166,0.0358991,2.98638,16.5169,10.7903,3.37443,0.0,0.0
828,206.75,203.264,252.482,78.6496,115.35,78.4131,0.0351183,2.91998,16.608,10.3399,3.4547,0.0,0.0
832,207.75,204.028,252.307,89.1324,115.335,77.9907,0.0343294,2.84959,16.7181,10.1297,3.50192,0.0,0.0
836,208.75,203.89,252.65,85.142,115.319,80.6012,0.0333727,2.77396,16.8798,9.76936,3.20596,0.0,0.0
840,209.75,204.382,252.742,92.6961,115.321,77.9883,0.0323872,2.67592,17.0563,9.5992,3.50102,0.0,0.0
844,210.75,203.963,252.235,92.5275,115.318,79.6989,0.0313317,2.56803,17.2371,9.34896,3.30661,0.0,0.0
848,211.75,204.187,251.5,92.5,115.308,80.9445,0.0302717,2.45469,17.3877,9.03866,3.16704,0.0,0.0
852,212.75,203.422,251.387,100.453,115.314,82.1322,0.0294891,2.33902,17.5008,8.89853,3.03719,0.0,0.0
856,213.75,203.242,249.922,102.027,115.307,83.1126,0.0282804,2.21947,17.655,8.58823,2.93036,0.0,0.0
860,214.75,202.405,249.191,102.301,115.313,82.4175,0.0270376,2.10724,17.8122,8.46812,3.00604,0.0,0.0
864,215.75,201.591,247.775,105.563,115.299,85.9771,0.0259458,2.02429,17.9877,8.16783,2.62646,0.0,0.0
868,216.75,200.179,245.903,107.733,115.306,84.1968,0.0250245,1.91801,18.152,7.91759,2.81428,0.0,0.0
872,217.75,198.801,244.517,106.358,115.3,84.5991,0.0242304,1.82108,18.3055,7.76744,2.77118,0.0,0.0
876,218.75,198.128,243.073,105.528,115.301,82.5438,0.0235579,1.73802,18.4276,7.74742,2.99139,0.0,0.0
880,219.75,197.139,241.446,100.404,115.303,83.1187,0.0228685,1.6567,18.5465,7.47717,2.92941,0.0,0.0
884,220.75,195.06,239.123,109.049,115.292,84.8058,0.0219394,1.575,18.6986,7.28698,2.74868,0.0,0.0
888,221.75,194.085,237.464,107.549,115.298,83.3516,0.0213327,1.49591,18.7786,7.16687,2.904,0.0,0.0
892,222.75,193.078,235.549,116.899,115.296,82.8628,0.0202692,1.39863,18.933,6.97669,2.9565,0.0,0.0
896,223.75,191.625,233.437,116.253,115.31,84.9321,0.0191535,1.28335,19.0833,6.86658,2.73681,0.0,0.0
900,224.75,189.381,230.81,121.378,115.306,85.4555,0.0176936,1.20178,19.2454,6.74647,2.68146,0.0,0.0
904,225.75,188.253,228.604,120.681,115.33,85.6557,0.0161221,1.08844,19.3652,6.64637,2.6624,0.0,0.0
908,226.75,186.102,225.924,128.83,115.309,88.7476,0.014694,0.981146,19.5171,6.54627,2.34342,0.0,0.0
912,227.75,184.204,222.926,129.713,115.316,92.4396,0.0131912,0.881341,19.6665,6.49623,1.97912,0.0,0.0
916,228.75,181.538,219.67,131.032,115.314,95.6418,0.011707,0.789042,19.8175,6.44618,1.67421,0.0,0.0
920,229.75,179.862,217.204,129.254,115.326,97.9305,0.0103902,0.706509,19.9869,6.43617,1.46342,0.0,0.0
924,230.75,177.389,213.984,136.368,115.311,99.0124,0.00916255,0.625246,20.137,6.38612,1.36395,0.0,0.0
928,231.75,175.593,210.721,133.664,115.308,99.9035,0.00818136,0.557151,20.257,6.38612,1.28351,0.0,0.0
932,232.75,172.446,207.43,136.039,115.303,100.41,0.00735421,0.501057,20.3408,6.34608,1.23792,0.0,0.0
936,233.75,170.824,204.482,136.599,115.297,101.737,0.00660838,0.454551,20.4083,6.31605,1.11993,0.0,0.0
940,234.75,168.43,201.525,135.984,115.296,102.215,0.00594834,0.417037,20.4684,6.29603,1.07782,0.0,0.0
944,235.75,165.875,198.816,135.872,115.292,102.864,0.00539511,0.385625,20.5206,6.27601,1.02083,0.0,0.0
948,236.75,164.15,195.739,135.153,115.3,103.55,0.00494266,0.355187,20.568,6.23598,0.962052,0.0,0.0
952,237.75,161.811,192.598,139.12,115.298,102.907,0.00458273,0.329603,20.6093,6.19594,1.01763,0.0,0.0
956,238.75,159.72,189.89,136.654,115.293,104.588,0.00431194,0.306334,20.6445,6.19594,0.872159,0.0,0.0
960,239.75,157.809,187.264,137.393,115.289,104.478,0.0040923,0.286395,20.6776,6.1559,0.88132,0.0,0.0
964,240.75,155.475,184.697,139.635,115.304,104.561,0.00391418,0.268409,20.7072,6.1559,0.875314,0.0,0.0
968,241.75,153.696,181.68,141.108,115.294,105.181,0.00377025,0.25241,20.7346,6.13588,0.821733,0.0,0.0
972,242.75,151.461,178.835,137.797,115.298,105.567,0.00364569,0.238019,20.7606,6.09584,0.789166,0.0,0.0
976,243.75,149.647,176.232,139.928,115.311,104.811,0.00351775,0.224184,20.7832,6.08583,0.854503,0.0,0.0
980,244.75,147.938,174.267,142.101,115.315,106.178,0.00334053,0.211281,20.8032,6.07582,0.738867,0.0,0.0
984,245.75,145.603,171.168,142.307,115.331,107.254,0.00315372,0.199812,20.8207,6.06581,0.649828,0.0,0.0
988,246.75,143.623,168.852,144.234,115.341,107.252,0.00294072,0.187903,20.8378,6.08583,0.650782,0.0,0.0
992,247.75,142.048,166.7,139.296,115.362,107.867,0.00275234,0.177712,20.8538,6.07582,0.601229,0.0,0.0
996,248.75,140.385,164.046,145.325,115.366,107.003,0.00262046,0.168828,20.8667,6.04579,0.673533,0.0,0.0
1000,249.75,138.737,161.825,143.49,115.377,107.454,0.0025341,0.160948,20.8781,6.04579,0.636729,0.0,0.0
1004,250.75,136.862,159.577,141.588,115.387,107.759,0.00247645,0.153252,20.8881,6.04579,0.612121,0.0,0.0
1008,251.75,135.201,157.201,139.163,115.394,108.46,0.00242404,0.146184,20.8963,6.06581,0.554692,0.0,0.0
1012,252.75,133.727,155.039,142.158,115.406,107.711,0.00236935,0.140234,20.9038,6.07582,0.617649,0.0,0.0
1016,253.75,132.077,153.421,144.677,115.416,107.891,0.00228392,0.133881,20.909,6.06581,0.603458,0.0,0.0
1020,254.75,130.439,151.375,144.321,115.428,108.223,0.00213948,0.127527,20.9182,6.0558,0.576891,0.0,0.0
1024,255.75,128.607,149.612,145.015,115.429,107.467,0.00194461,0.121726,20.9267,6.01577,0.639698,0.0,0.0
1028,256.75,126.86,146.884,141.584,115.452,108.194,0.00177276,0.117949,20.9356,6.00576,0.581174,0.0,0.0
1032,257.75,125.714,144.948,146.236,115.471,108.028,0.00164628,0.111928,20.945,6.00576,0.596334,0.0,0.0
1036,258.75,124.273,143.567,147.942,115.471,107.693,0.0015551,0.106407,20.9539,6.03578,0.624159,0.0,0.0
1040,259.75,123.206,141.766,143.702,115.483,107.955,0.00148283,0.101126,20.9614,6.02577,0.603285,0.0,0.0
1044,260.75,121.013,139.476,146.635,115.491,108.208,0.00140606,0.0964106,20.9681,6.00576,0.582945,0.0,0.0
1048,261.75,119.524,137.92,144.197,115.508,108.069,0.00132363,0.092366,20.9733,6.02577,0.595858,0.0,0.0
1052,262.75,118.363,135.959,147.878,115.524,107.725,0.00124752,0.0890991,20.9783,6.02577,0.625572,0.0,0.0
1056,263.75,117.33,133.706,146.36,115.543,107.62,0.00119513,0.0864035,20.9831,6.03578,0.635808,0.0,0.0
1060,264.75,116.502,132.413,144.935,115.556,108.678,0.00117453,0.0840039,20.987,6.01577,0.549255,0.0,0.0
1064,265.75,114.663,130.627,144.258,115.554,108.918,0.00117371,0.0820308,20.9896,6.00576,0.529367,0.0,0.0
1068,266.75,113.365,128.983,146.647,115.587,108.365,0.00117782,0.0804048,20.9914,6.03578,0.577525,0.0,0.0
1072,267.75,112.389,127.086,144.44,115.579,108.283,0.00115637,0.0791278,20.9925,6.03578,0.583634,0.0,0.0
1076,268.75,111.314,125.325,147.653,115.601,108.193,0.00113062,0.0780565,20.9933,6.04579,0.592764,0.0,0.0
1080,269.75,109.822,124.943,144.736,115.621,108.173,0.00112096,0.0771544,20.9946,6.01577,0.595946,0.0,0.0
1084,270.75,109.202,122.845,144.556,115.628,108.563,0.00112057,0.0763804,20.9962,6.02577,0.564307,0.0,0.0
1088,271.75,107.884,121.767,146.496,115.643,108.171,0.00111962,0.0756545,20.9973,6.03578,0.597875,0.0,0.0
1092,272.75,106.596,119.945,143.197,115.658,108.017,0.00111606,0.0750231,20.998,6.03578,0.611738,0.0,0.0
1096,273.75,105.437,118.862,146.797,115.668,108.167,0.00108268,0.0744864,20.9985,6.01577,0.600066,0.0,0.0
1100,274.75,104.44,117.386,145.655,115.686,108.134,0.00102222,0.0739124,20.9974,6.02577,0.604224,0.0,0.0
1104,275.75,103.635,116.239,146.631,115.692,108.357,0.000958087,0.0733879,20.9967,6.01577,0.586248,0.0,0.0
1108,276.75,102.72,114.821,148.755,115.708,107.982,0.000885547,0.0729936,20.9962,5.99575,0.618476,0.0,0.0
1112,277.75,101.712,113.455,145.983,115.708,108.076,0.000840138,0.0726125,20.9959,6.01577,0.610725,0.0,0.0
1116,278.75,100.864,112.475,144.931,115.711,108.541,0.000819087,0.0722836,20.9962,6.01577,0.572594,0.0,0.0
1120,279.75,99.8636,111.192,148.1,115.721,108.578,0.000831506,0.071965,20.9965,6.03578,0.570193,0.0,0.0
1124,280.75,98.7946,109.956,142.939,115.731,108.397,0.000863707,0.0716353,20.9968,6.03578,0.58596,0.0,0.0
1128,281.75,98.0246,109.158,145.751,115.73,107.941,0.000884834,0.0713613,20.9977,6.04579,0.623587,0.0,0.0
1132,282.75,96.892,107.937,146.293,115.74,108.061,0.000884199,0.0711025,20.9982,6.02577,0.614422,0.0,0.0
1136,283.75,96.3266,106.461,144.536,115.724,108.795,0.00086117,0.070856,20.9985,6.00576,0.552612,0.0,0.0
1140,284.75,95.6814,105.694,144.425,115.728,107.907,0.000838465,0.070642,20.9988,5.99575,0.626274,0.0,0.0
1144,285.75,94.4224,104.684,143.543,115.728,109.096,0.000827497,0.0704045,20.9989,5.98574,0.528153,0.0,0.0
1148,286.75,93.2146,103.063,147.147,115.7,107.872,0.000854379,0.0701488,20.999,6.00576,0.627091,0.0,0.0
1152,287.75,92.7783,102.155,147.962,115.71,108.026,0.00090264,0.0698825,20.9999,6.01577,0.614976,0.0,0.0
1156,288.75,92.6995,101.704,144.56,115.679,108.03,0.000937931,0.069706,21.0003,6.03578,0.612316,0.0,0.0
1160,289.75,91.3151,100.474,147.237,115.668,107.909,0.000951937,0.0695436,21.0002,6.03578,0.621493,0.0,0.0
1164,290.75,90.7435,99.0632,146.286,115.651,108.105,0.000944085,0.0694306,21.0004,6.03578,0.603912,0.0,0.0
1168,291.75,90.6182,98.4765,144.084,115.65,108.937,0.000929436,0.0693389,21.0011,6.03578,0.535172,0.0,0.0
1172,292.75,89.8641,97.8305,149.691,115.641,108.305,0.000918912,0.0691803,21.0014,6.01577,0.586558,0.0,0.0
1176,293.75,88.6036,97.2977,146.571,115.645,108.181,0.000907797,0.0690025,21.0018,6.02577,0.597169,0.0,0.0
1180,294.75,87.2511,95.368,145.069,115.625,108.469,0.000900504,0.0687874,21.002,6.01577,0.571844,0.0,0.0
1184,295.75,87.2539,95.3318,141.624,115.596,108.347,0.000902279,0.0686567,21.0021,6.01577,0.579681,0.0,0.0
1188,296.75,87.2129,94.0829,146.312,115.586,108.515,0.000903444,0.0685359,21.0022,6.00576,0.564985,0.0,0.0
1192,297.75,86.3172,93.6631,142.649,115.565,107.705,0.00092403,0.0684566,21.0029,6.02577,0.630468,0.0,0.0
1196,298.75,85.6476,92.6192,144.154,115.563,108.224,0.000906917,0.0684046,21.0033,5.99575,0.587243,0.0,0.0
1200,299.75,85.3207,92.0237,149.483,115.532,108.173,0.000827944,0.0682929,21.0041,6.00576,0.589033,0.0,0.0
1204,300.75,84.3655,91.8169,144.016,115.518,108.17,0.000704089,0.0681572,21.0048,5.99575,0.588254,0.0,0.0
1208,301.75,84.1853,90.4107,145.18,115.502,108.488,0.00058158,0.0679937,21.0053,6.00576,0.560782,0.0,0.0
1212,302.75,83.3675,90.2708,149.802,115.472,107.615,0.000485289,0.0678534,21.0056,6.00576,0.63069,0.0,0.0
1216,303.75,82.9071,88.829,144.729,115.454,107.415,0.000423028,0.0677756,21.0058,5.99575,0.645943,0.0,0.0
1220,304.75,82.2709,88.0844,146.234,115.438,107.832,0.000387285,0.0677595,21.0059,6.03578,0.610088,0.0,0.0
1224,305.75,81.9979,87.7681,144.538,115.412,108.111,0.000362401,0.0677243,21.006,6.03578,0.584913,0.0,0.0
1228,306.75,81.6623,87.0088,150.411,115.403,108.26,0.000347737,0.0676431,21.006,6.0558,0.571876,0.0,0.0
1232,307.75,80.7388,86.5013,148.644,115.372,108.182,0.000341043,0.0675548,21.0061,6.02577,0.575983,0.0,0.0
1236,308.75,80.5107,86.0085,148.6,115.344,108.004,0.000397587,0.067511,21.0061,6.00576,0.588489,0.0,0.0
1240,309.75,79.9707,85.0522,147.258,115.331,109.453,0.000481138,0.0675262,21.0063,6.01577,0.468221,0.0,0.0
1244,310.75,79.5305,84.5425,144.133,115.318,108.279,0.000546038,0.0675339,21.0065,6.02577,0.563733,0.0,0.0
1248,311.75,78.8751,84.0671,145.167,115.32,108.017,0.000574599,0.0675215,21.0067,6.03578,0.585518,0.0,0.0
1252,312.75,78.5622,83.5117,146.882,115.322,107.624,0.000577535,0.0674958,21.0068,6.02577,0.618317,0.0,0.0
1256,313.75,78.252,83.0294,147.9,115.454,107.62,0.000581812,0.0674298,21.0071,5.98574,0.628885,0.0,0.0
1260,314.75,77.6691,81.8121,147.103,115.586,108.628,0.000600134,0.0673373,21.0079,5.99575,0.555689,0.0,0.0
1264,315.75,76.961,81.645,142.683,115.702,108.972,0.000619973,0.0672766,21.0084,6.00576,0.53634,0.0,0.0
1268,316.75,76.9367,81.4065,146.515,115.818,108.626,0.00064828,0.0672368,21.0087,5.98574,0.573811,0.0,0.0
1272,317.75,76.879,80.4845,146.176,115.916,108.997,0.00065593,0.0672599,21.0089,5.99575,0.550881,0.0,0.0
1276,318.75,76.3264,79.9038,144.274,116.003,108.806,0.000634411,0.067275,21.0091,6.01577,0.573314,0.0,0.0
1280,319.75,75.7871,79.4303,148.43,116.08,108.52,0.000598795,0.0672034,21.0091,5.98574,0.602801,0.0,0.0
1284,320.75,75.6705,79.2126,144.748,116.144,108.89,0.000540515,0.0670833,21.0092,6.00576,0.577236,0.0,0.0
1288,321.75,74.2305,78.0157,144.353,116.186,109.52,0.000500096,0.066987,21.0092,6.01577,0.528876,0.0,0.0
1292,322.75,74.493,78.1857,143.266,116.225,109.074,0.000471397,0.0669103,21.0093,6.02577,0.568404,0.0,0.0
1296,323.75,74.2246,77.4787,145.323,116.269,108.789,0.000446542,0.0668274,21.0093,6.03578,0.595155,0.0,0.0
1300,324.75,73.6141,77.0646,147.051,116.274,108.489,0.000415715,0.0667065,21.0093,6.01577,0.620253,0.0,0.0
1304,325.75,72.9464,75.8088,147.218,116.269,109.423,0.000381661,0.0665851,21.0093,6.02577,0.543159,0.0,0.0
1308,326.75,73.6317,76.3049,148.821,116.264,109.118,0.000356342,0.066488,21.0093,6.00576,0.567818,0.0,0.0
1312,327.75,72.9613,75.6623,148.371,116.228,109.118,0.000346777,0.0664631,21.0093,5.99575,0.564938,0.0,0.0
1316,328.75,72.5774,75.3474,144.34,116.172,108.07,0.000342453,0.0664184,21.0093,6.00576,0.647012,0.0,0.0
1320,329.75,72.194,74.3495,149.158,116.114,108.014,0.000339616,0.0663399,21.0093,5.97573,0.6472,0.0,0.0
1324,330.75,72.0572,74.7935,151.41,116.027,108.715,0.000344983,0.0662586,21.0093,6.01577,0.58262,0.0,0.0
1328,331.75,71.0899,74.228,149.016,115.9,108.557,0.000372437,0.0662001,21.0093,6.02577,0.585835,0.0,0.0
1332,332.75,71.1821,74.3553,146.351,115.775,108.612,0.000422864,0.0661545,21.0093,6.02577,0.57161,0.0,0.0
1336,333.75,70.5092,73.4303,152.412,115.646,107.933,0.000523438,0.0661072,21.0093,6.02577,0.617739,0.0,0.0
1340,334.75,71.0177,73.4006,147.634,115.643,108.497,0.000608341,0.0659778,21.0093,6.00576,0.570906,0.0,0.0
1344,335.75,70.6548,72.5304,148.94,115.691,108.989,0.000652968,0.0659123,21.0093,5.98574,0.534164,0.0,0.0
1348,336.75,69.6678,72.8617,146.631,115.744,108.375,0.000659006,0.0658358,21.0093,5.99575,0.588787,0.0,0.0
1352,337.75,69.7034,72.0659,145.658,115.819,109.099,0.000625115,0.0657171,21.0093,5.97573,0.534965,0.0,0.0
1356,338.75,68.8472,71.0397,148.339,115.881,108.731,0.000579434,0.06561,21.0093,5.98574,0.570019,0.0,0.0
1360,339.75,69.381,71.5706,148.439,115.958,108.883,0.000523054,0.0656102,21.0093,5.98574,0.563466,0.0,0.0
1364,340.75,68.6803,70.8906,150.821,116.031,108.347,0.000469759,0.0656834,21.0093,5.99575,0.613303,0.0,0.0
1368,341.75,68.7901,71.0942,150.815,116.113,109.803,0.000436683,0.065749,21.0093,6.01577,0.500161,0.0,0.0
1372,342.75,69.2962,70.3258,146.619,116.188,108.73,0.000418885,0.0657428,21.0093,5.98574,0.593816,0.0,0.0
1376,343.75,68.4814,69.7193,143.475,116.254,108.638,0.000444295,0.0657194,21.0089,6.00576,0.606442,0.0,0.0
1380,344.75,67.87,69.8708,145.375,116.32,109.707,0.000491119,0.0657233,21.0085,5.99575,0.523887,0.0,0.0
1384,345.75,67.7226,69.5811,153.221,116.375,109.15,0.000554711,0.065726,21.0084,5.99575,0.573693,0.0,0.0
1388,346.75,67.4106,69.1474,148.558,116.439,109.419,0.000602006,0.0657205,21.009,6.01577,0.556588,0.0,0.0
1392,347.75,67.4099,69.0235,146.204,116.497,108.614,0.000619078,0.0656996,21.0093,6.02577,0.627094,0.0,0.0
1396,348.75,67.2825,68.6307,146.5,116.531,109.139,0.000608787,0.0656612,21.0095,6.00576,0.586574,0.0,0.0
1400,349.75,66.8198,67.8394,147.316,116.531,109.188,0.000571071,0.0655973,21.0097,6.00576,0.582545,0.0,0.0
1404,350.75,66.2974,67.5841,153.034,116.548,109.891,0.000526689,0.0654675,21.0092,6.00576,0.526394,0.0,0.0
1408,351.75,66.3373,67.4054,151.294,116.541,108.795,0.000521683,0.0654002,21.0086,6.01577,0.615641,0.0,0.0
1412,352.75,65.9583,67.763,150.218,116.53,109.169,0.000558441,0.0654052,21.0087,6.01577,0.584047,0.0,0.0
1416,353.75,66.4743,67.4632,148.445,116.501,110.005,0.000606411,0.0653904,21.0092,6.01577,0.513552,0.0,0.0
1420,354.75,65.9934,66.755,147.347,116.477,109.047,0.000641337,0.0653109,21.0094,6.00576,0.590004,0.0,0.0
1424,355.75,66.0081,66.5305,144.12,116.403,108.653,0.00066109,0.065185,21.0096,5.99575,0.616715,0.0,0.0
1428,356.75,65.4212,66.4103,148.427,116.338,110.437,0.000673072,0.065127,21.0098,5.99575,0.465878,0.0,0.0
1432,357.75,65.0696,66.5943,144.912,116.256,108.921,0.000680933,0.0650644,21.0098,6.00576,0.583263,0.0,0.0
1436,358.75,64.9291,65.2212,149.77,116.169,108.794,0.000679537,0.0649742,21.0099,6.00576,0.587068,0.0,0.0
1440,359.75,64.7821,65.921,149.507,116.086,108.924,0.00068736,0.064915,21.0099,6.00576,0.569966,0.0,0.0
1444,360.75,64.892,65.5202,148.304,115.937,108.392,0.000694214,0.0648955,21.0099,5.99575,0.60231,0.0,0.0
1448,361.75,63.9544,64.6076,147.012,115.814,108.236,0.000700895,0.0648472,21.01,6.01577,0.60565,0.0,0.0
1452,362.75,64.3444,65.1517,145.935,115.693,109.372,0.000705741,0.0647968,21.01,6.04579,0.502868,0.0,0.0
1456,363.75,63.9965,64.5691,150.393,115.534,109.01,0.000708921,0.0647986,21.01,5.99575,0.520242,0.0,0.0
1460,364.75,64.1714,64.393,145.337,115.38,107.753,0.000707195,0.0647752,21.01,6.00576,0.612118,0.0,0.0
1464,365.75,63.057,63.5004,148.355,115.235,107.764,0.000696768,0.0647353,21.01,6.00576,0.599907,0.0,0.0
1468,366.75,63.5391,63.9517,145.89,115.111,107.609,0.000676158,0.0647091,21.01,6.01577,0.603191,0.0,0.0
1472,367.75,63.4783,63.4004,142.56,114.957,107.595,0.00065033,0.0646182,21.01,6.01577,0.592322,0.0,0.0
1476,368.75,63.4743,63.8605,147.365,114.821,108.215,,0.0645586,,6.03578,0.530355,0.0,0.0
1480,369.75,62.2581,62.9336,147.74,114.696,107.195,,0.0645195,,6.01577,0.605366,0.0,0.0
1484,370.75,62.9337,63.7311,149.125,114.57,107.464,,0.0644938,,6.01577,0.573084,0.0,0.0
1488,371.75,62.885,63.0436,148.367,114.463,107.435,,,,6.01577,0.567137,0.0,0.0
1492,372.75,62.7165,62.3567,148.937,114.374,107.12,,,,6.02577,0.586457,0.0,0.0
1496,373.75,62.817,62.7053,150.623,114.305,108.549,,,,5.98574,0.462431,0.0,0.0
1500,374.75,62.2489,62.2108,149.344,114.245,106.899,,,,5.98574,0.594863,0.0,0.0
1504,375.75,61.6629,62.6104,148.884,114.209,107.444,,,,5.98574,0.546531,0.0,0.0
1508,376.75,61.8539,61.776,148.995,114.197,107.05,,,,6.00576,0.578487,0.0,0.0
1512,377.75,61.2396,62.0976,145.77,114.209,107.975,,,,5.99575,0.502376,0.0,0.0
1516,378.75,61.8004,62.1838,145.864,114.203,107.219,,,,6.01577,0.56482,0.0,0.0
1517,379,61.7267,61.6959,146.899,114.217,108.548,,,,6.00576,0.45559,0.0,0.0