File: 01_Data/Nylon/Cone/Nylon_Cone_HF25-FrameScan_220309_R4.csv
Names,Time,Stack TC,Smoke TC,Exh Press,Smoke Comp,Smoke Meas,CO Meter,CO2 Meter,O2 Meter,Sample Mass,Ext Coeff,Start Test,Flame Verif
Chan Gain,,500,500,1,1,1,1,1,1,1,1,1.0,1.0
Offset,,0,0,0.134647,0,0,0,0,0,0,0,0.0,0.0
Gain,,1,1,25.011,13.2859,13.1681,1,1,1,1.00096,0.993885,1.0,1.0
Units,sec,C,C,Pa,%,%,%,%,%,g,/m,,
Baseline,,21.5654,22.3564,172.915,100.141,96.7738,0.000950196,0.0745696,20.96,-0.434626,0.298203,,
12,2.75,19.7458,20.1631,169.453,98.706,96.0039,0.000686357,0.0800394,20.9545,959.104,0.241998,0.0,0.0
24,5.75,19.7787,20.2172,169.395,98.7741,95.2889,0.000715288,0.0782691,20.9561,959.104,0.313178,0.0,0.0
36,8.75,19.8041,20.4974,171.944,98.88,95.6876,0.000872542,0.077478,20.9573,959.114,0.286117,0.0,0.0
48,11.75,20.0478,20.9609,173.598,98.9984,95.8343,0.0011393,0.0766368,20.9576,959.134,0.283195,0.0,0.0
60,14.75,19.8531,20.6859,173.933,99.1326,95.7475,0.00112954,0.0763132,20.9576,959.104,0.302905,0.0,0.0
72,17.75,20.3797,20.2841,174.057,99.2947,96.171,0.000976916,0.0777702,20.9563,959.093,0.278675,0.0,0.0
84,20.75,20.0744,20.3975,172.404,99.4577,96.2984,0.00102338,0.0795084,20.9542,959.093,0.281433,0.0,0.0
96,23.75,20.5716,20.7597,172.742,99.6264,96.0794,0.000947974,0.0796818,20.9548,959.083,0.316057,0.0,0.0
108,26.75,20.5667,21.4917,173.204,99.7785,97.1962,0.000864204,0.0790141,20.9544,959.073,0.228601,0.0,0.0
120,29.75,20.0859,20.6881,171.796,99.9366,96.9868,0.000756629,0.0787517,20.9537,959.083,0.261207,0.0,0.0
132,32.75,19.9159,21.1975,170.232,100.089,97.0881,0.000585428,0.0791605,20.952,959.093,0.265363,0.0,0.0
144,35.75,20.5972,21.3403,173.966,100.221,97.6728,0.000520153,0.0792086,20.9513,959.073,0.224556,0.0,0.0
156,38.75,20.8871,21.0736,168.881,100.35,96.6541,0.000634252,0.0787175,20.953,959.063,0.327172,0.0,0.0
168,41.75,20.2191,20.8091,171.326,100.462,97.297,0.000685473,0.0778602,20.9545,959.053,0.279119,0.0,0.0
180,44.75,20.6308,20.9038,174.115,100.565,98.1972,0.000637262,0.077759,20.9544,959.063,0.207693,0.0,0.0
192,47.75,20.1083,21.6276,172.413,100.647,97.686,0.00067251,0.0777732,20.9532,959.073,0.260293,0.0,0.0
204,50.75,20.8418,21.2178,174.651,100.698,98.0409,0.000736503,0.0779371,20.9545,959.053,0.233104,0.0,0.0
216,53.75,20.9283,21.1967,172.931,100.732,97.1829,0.000783186,0.0776618,20.9545,959.053,0.31272,0.0,0.0
228,56.75,20.7023,21.5498,169.119,100.737,97.674,0.00084956,0.0774394,20.9532,959.043,0.269162,0.0,0.0
240,59.75,21.2292,21.8795,169.22,100.741,96.8779,0.00088991,0.0774367,20.9526,959.053,0.340932,0.0,0.0
252,62.75,20.7313,21.506,170.09,100.713,97.7302,0.000963196,0.0775616,20.9522,959.043,0.262072,0.0,0.0
264,65.75,21.0236,21.1766,169.184,100.683,97.3927,0.000899058,0.0779849,20.9521,959.043,0.289639,0.0,0.0
276,68.75,20.8873,21.5528,171.474,100.618,97.682,0.000854463,0.0783141,20.9521,959.033,0.258157,0.0,0.0
288,71.75,21.1751,22.0118,165.89,100.555,97.4007,0.000873321,0.0783075,20.9521,959.043,0.277888,0.0,0.0
300,74.75,20.4852,21.7889,177.111,100.467,97.342,0.000751331,0.0784597,20.9521,959.043,0.275475,0.0,0.0
312,77.75,20.8904,21.665,175.506,100.392,97.2689,0.000593059,0.0784571,20.9521,959.043,0.275516,0.0,0.0
324,80.75,20.8908,21.855,170.735,100.303,97.1849,0.000460276,0.0786387,20.9521,959.033,0.275333,0.0,0.0
336,83.75,20.6985,22.2246,168.5,100.19,97.6792,0.000297958,0.0783341,20.9534,959.033,0.221265,0.0,0.0
348,86.75,21.1089,21.8742,168.836,100.132,96.4519,0.000267581,0.0778858,20.9539,959.023,0.326453,0.0,0.0
360,89.75,20.7551,22.142,177.33,100.057,97.3256,0.000311729,0.0775512,20.9557,959.003,0.24127,0.0,0.0
372,92.75,21.248,21.8482,168.826,99.9921,96.6738,0.000532821,0.0771693,20.9562,959.023,0.294237,0.0,0.0
384,95.75,20.7513,21.8336,170.305,99.9564,96.8341,0.000795122,0.0768754,20.9561,959.003,0.276678,0.0,0.0
396,98.75,21.3081,21.943,172.537,100.126,97.0523,0.00096371,0.0767891,20.9547,959.003,0.271789,0.0,0.0
408,101.75,21.1108,21.9247,174.239,100.297,97.381,0.000910441,0.0767804,20.9542,959.003,0.257193,0.0,0.0
420,104.75,21.1566,21.5597,173.395,100.385,97.7081,0.000810206,0.0767044,20.954,958.993,0.235638,0.0,0.0
432,107.75,20.9754,21.8484,172.363,100.474,97.3682,0.000933914,0.0763351,20.954,958.983,0.273734,0.0,0.0
444,110.75,20.7691,22.1619,175.421,100.538,97.4092,0.00104796,0.0759639,20.9552,959.013,0.275621,0.0,0.0
456,113.75,21.1202,21.6401,169.287,100.572,97.9609,0.000901948,0.0759168,20.9556,958.983,0.229366,0.0,0.0
468,116.75,21.3412,22.0049,174.243,100.586,97.5743,0.000718407,0.0759442,20.9557,958.953,0.265034,0.0,0.0
480,119.75,21.5468,22.327,170.498,100.537,97.4723,0.000698945,0.07634,20.9557,958.953,0.269907,0.0,0.0
492,122.75,21.7473,21.3654,168.695,100.48,97.1162,0.000893313,0.0768874,20.954,958.963,0.296851,0.0,0.0
504,125.75,20.917,22.3703,170.545,100.392,97.1114,0.00089332,0.0772562,20.954,958.953,0.289682,0.0,0.0
516,128.75,21.9338,21.8581,177.8,100.27,97.3991,0.00084202,0.0775347,20.9529,958.933,0.253284,0.0,0.0
528,131.75,21.5342,22.0872,170.302,100.156,97.2271,0.000602275,0.0775684,20.9523,958.903,0.258781,0.0,0.0
540,134.75,21.0769,22.306,172.347,99.9941,96.8679,0.000567365,0.0774549,20.9521,958.883,0.276927,0.0,0.0
552,137.75,21.24,22.3309,176.261,99.8048,96.6428,0.000646353,0.077021,20.9521,958.883,0.28068,0.0,0.0
564,140.75,21.3019,22.4018,170.681,99.7825,96.5637,0.00068531,0.0767476,20.9521,958.873,0.285877,0.0,0.0
576,143.75,21.4517,22.0866,171.229,99.7971,96.691,0.000837174,0.0765462,20.9532,958.883,0.275658,0.0,0.0
588,146.75,21.8099,22.4718,172.354,99.8295,96.3,0.000797693,0.0763994,20.9539,958.883,0.313819,0.0,0.0
600,149.75,21.8379,22.9222,176.81,99.8737,96.9567,0.000719306,0.0763446,20.9543,958.863,0.258432,0.0,0.0
612,152.75,21.6355,22.4277,167.179,99.9236,96.4527,0.000580612,0.0768301,20.9537,958.833,0.308216,0.0,0.0
624,155.75,21.7167,22.8738,173.531,99.9581,96.2502,0.000545896,0.0771296,20.9523,958.833,0.329549,0.0,0.0
636,158.75,21.8231,22.323,172.518,99.9921,96.8317,0.000640435,0.0771107,20.952,958.823,0.280006,0.0,0.0
648,161.75,21.3689,22.5838,177.666,100.021,96.6826,0.000676032,0.0768236,20.9528,958.833,0.295914,0.0,0.0
660,164.75,21.8935,22.4464,172.871,100.044,96.2233,0.000784282,0.0766655,20.9515,958.813,0.339517,0.0,0.0
672,167.75,21.2721,22.7509,177.102,100.048,96.6943,0.000934174,0.0769198,20.9512,958.803,0.297266,0.0,0.0
684,170.75,21.416,22.2145,170.204,100.05,97.117,0.000820547,0.0769533,20.9511,958.793,0.259374,0.0,0.0
696,173.75,21.6494,21.8873,177.03,100.042,96.7815,0.000635434,0.0773434,20.9512,958.773,0.288841,0.0,0.0
708,176.75,21.9261,22.6772,173.933,100.031,96.6247,0.000489469,0.077909,20.9506,958.763,0.302053,0.0,0.0
720,179.75,22.1234,22.9319,169.262,100.04,95.9693,0.000392383,0.0781411,20.9497,958.753,0.36217,0.0,0.0
732,182.75,22.0824,22.8532,169.493,100.026,96.5966,0.000474624,0.0781184,20.9495,958.743,0.304167,0.0,0.0
744,185.75,21.5857,21.9812,170.723,99.9917,96.804,0.000543686,0.0778075,20.9504,958.743,0.282468,0.0,0.0
756,188.75,22.1582,23.0878,171.959,99.9577,96.9145,0.000662721,0.0773762,20.9513,958.713,0.26955,0.0,0.0
768,191.75,22.2406,22.6949,172.94,99.9118,96.3378,0.000836798,0.0771038,20.9528,958.703,0.317584,0.0,0.0
780,194.75,22.1471,23.4219,175.459,99.8559,96.716,0.000837167,0.0768938,20.9537,958.713,0.278547,0.0,0.0
792,197.75,21.8625,22.4124,172.506,99.793,96.7119,0.000760915,0.0764228,20.9539,958.693,0.273419,0.0,0.0
804,200.75,21.8295,22.755,171.467,99.714,97.3987,0.000823602,0.0761577,20.954,958.693,0.204818,0.0,0.0
816,203.75,22.2571,22.7297,173.452,99.6564,96.4158,0.00083863,0.0763665,20.954,958.693,0.288215,0.0,0.0
828,206.75,21.5609,22.4848,172.158,99.5704,96.0027,0.000866541,0.0767858,20.9534,958.653,0.318127,0.0,0.0
840,209.75,22.1999,22.9161,176.074,99.495,96.8188,0.000709667,0.0774017,20.9528,958.663,0.237714,0.0,0.0
852,212.75,22.4585,22.8703,179.302,99.3998,97.0415,0.000714623,0.077963,20.9526,958.653,0.209338,0.0,0.0
864,215.75,21.7762,23.0361,171.914,99.3102,96.6211,0.0008917,0.0781446,20.9526,958.643,0.239321,0.0,0.0
876,218.75,22.0751,22.6218,169.474,99.2205,95.7527,0.000878475,0.0784863,20.9526,958.653,0.310165,0.0,0.0
888,221.75,22.0973,23.2208,175.111,99.1569,96.3965,0.000911711,0.0786285,20.9503,958.643,0.24615,0.0,0.0
900,224.75,22.0201,22.962,169.607,99.0782,96.5624,0.000730207,0.078267,20.9482,958.623,0.224233,0.0,0.0
912,227.75,21.9556,23.3245,172.214,99.0081,96.0714,0.000538775,0.0787137,20.9476,958.623,0.262509,0.0,0.0
924,230.75,22.4952,23.175,172.019,98.9335,96.1807,0.000545298,0.0791999,20.9467,958.613,0.246024,0.0,0.0
936,233.75,22.2134,23.2899,173.335,98.8775,95.9464,0.000600293,0.0793531,20.9455,958.613,0.262354,0.0,0.0
948,236.75,22.0463,23.212,163.073,98.8163,96.2976,0.000727008,0.0789577,20.9452,958.603,0.225098,0.0,0.0
960,239.75,22.1025,22.784,172.526,98.7709,95.5136,0.000720713,0.0785063,20.9451,958.563,0.292363,0.0,0.0
972,242.75,22.3528,22.8267,170.625,98.719,95.6354,0.000673459,0.0784976,20.9456,958.593,0.276674,0.0,0.0
984,245.75,21.9721,22.6504,166.305,98.6825,95.5887,0.000709828,0.0787283,20.9471,958.583,0.277701,0.0,0.0
996,248.75,22.3658,23.5358,170.511,98.6606,95.4228,0.000817902,0.0790993,20.9469,958.563,0.290917,0.0,0.0
1008,251.75,22.3315,22.9871,170.591,98.6371,95.9371,0.000799033,0.0791928,20.9458,958.553,0.241969,0.0,0.0
1020,254.75,21.971,23.1777,171.077,98.6213,96.0195,0.000563346,0.0790493,20.9463,958.573,0.233087,0.0,0.0
1032,257.75,22.1736,23.477,174.65,98.6136,95.9709,0.000379421,0.078879,20.9473,958.553,0.236822,0.0,0.0
1044,260.75,22.0378,23.122,172.054,98.5933,95.612,0.000496587,0.0787493,20.9476,958.553,0.267692,0.0,0.0
1056,263.75,21.9289,23.3385,174.588,98.6043,95.1085,0.000510337,0.0783608,20.9477,958.533,0.314695,0.0,0.0
1068,266.75,22.496,23.5223,173.234,98.6172,95.6149,0.000516242,0.0781827,20.9471,958.523,0.26955,0.0,0.0
1080,269.75,22.289,23.1383,173.198,98.6347,95.0414,0.000634257,0.0779424,20.9466,958.533,0.323537,0.0,0.0
1092,272.75,22.5278,23.436,171.585,98.6529,95.4549,0.000733639,0.0778743,20.9477,958.493,0.287299,0.0,0.0
1104,275.75,21.9569,23.1016,171.617,98.6776,95.1198,0.000744702,0.0775864,20.9484,958.493,0.32015,0.0,0.0
1116,278.75,22.7284,23.1582,170.163,98.7056,95.7905,0.000788938,0.0774503,20.9486,958.483,0.261363,0.0,0.0
1128,281.75,22.2616,23.409,173.69,98.7421,95.1913,0.000797638,0.0774803,20.9487,958.493,0.31929,0.0,0.0
1140,284.75,22.3463,22.8338,172.434,98.7891,95.6169,0.000755313,0.0779334,20.9472,958.523,0.284551,0.0,0.0
1152,287.75,22.08,23.3729,164.476,98.8354,95.9319,0.000781215,0.0785153,20.9466,958.483,0.259951,0.0,0.0
1164,290.75,22.5049,23.5523,172.867,98.8787,96.0356,0.000657889,0.0793655,20.945,958.503,0.254358,0.0,0.0
1176,293.75,22.556,23.9255,170.522,98.9294,96.0935,0.000620696,0.0801296,20.9427,958.493,0.253574,0.0,0.0
1188,296.75,22.7903,23.2912,173.253,98.9907,96.028,0.000827257,0.080747,20.9407,958.473,0.264913,0.0,0.0
1200,299.75,22.4511,23.0882,171.422,99.0458,96.5295,0.00104704,0.0813553,20.9381,958.483,0.224354,0.0,0.0
1212,302.75,22.4964,23.4151,175.162,99.1123,94.7412,0.0011928,0.0832337,20.9369,958.493,0.393232,0.0,0.0
1224,305.75,23.1349,23.9686,174.332,99.1751,95.8612,0.00113486,0.085687,20.9353,958.483,0.296299,0.0,0.0
1236,308.75,22.5554,23.4864,173.166,99.2266,95.5674,0.000953487,0.0853864,20.9357,958.453,0.327583,0.0,0.0
1248,311.75,22.5706,23.3621,171.252,99.2952,96.3137,0.000881245,0.0847222,20.9367,958.463,0.265787,0.0,0.0
1260,314.75,22.3151,23.5381,172.973,99.347,96.468,0.000779334,0.0840288,20.9374,958.443,0.256386,0.0,0.0
1272,317.75,22.3427,23.6201,169.06,99.3957,96.073,0.000745497,0.0831805,20.9397,958.433,0.296428,0.0,0.0
1284,320.75,22.5478,23.509,169.823,99.4561,96.8747,0.000764843,0.0819793,20.9442,958.423,0.229276,0.0,0.0
1296,323.75,23.1249,23.6802,170.636,99.5157,95.6301,0.000731625,0.0813289,20.9458,958.443,0.347229,0.0,0.0
1308,326.75,22.6598,23.713,170.296,99.5684,96.8084,0.000723618,0.0809548,20.9478,958.443,0.245084,0.0,0.0
1320,329.75,22.9941,23.3513,169.057,99.6414,96.6734,0.000830533,0.0809147,20.9498,958.413,0.263641,0.0,0.0
1332,332.75,22.2935,23.229,171.238,99.7367,96.4355,0.000747098,0.080844,20.9507,958.433,0.293454,0.0,0.0
1344,335.75,22.8215,24.1726,169.156,99.7736,97.2231,0.000863325,0.0809428,20.9511,958.403,0.225761,0.0,0.0
1356,338.75,22.8986,23.9168,165.048,99.8255,97.031,0.000987145,0.0804687,20.953,958.423,0.247537,0.0,0.0
1368,341.75,22.2513,24.1159,168.9,99.896,96.855,0.000858443,0.0792254,20.9566,958.383,0.269526,0.0,0.0
1380,344.75,22.915,23.5779,171.098,99.9479,97.3469,0.000748864,0.0780863,20.9581,958.373,0.22989,0.0,0.0
1392,347.75,22.8025,23.603,172.8,100.004,97.2757,0.000654295,0.0769335,20.9588,958.383,0.241177,0.0,0.0
1404,350.75,22.6441,24.0558,170.884,100.042,97.0459,0.000626134,0.0761197,20.9604,958.373,0.265124,0.0,0.0
1416,353.75,22.5051,23.5116,173.669,100.085,97.0161,0.000632556,0.0754271,20.9608,958.373,0.271542,0.0,0.0
1428,356.75,23.1886,23.9329,164.643,100.141,96.9695,0.000452613,0.0752116,20.961,958.373,0.280604,0.0,0.0
1440,359.75,22.8083,23.6042,180.688,100.186,97.8444,0.000413283,0.074979,20.961,958.363,0.206183,0.0,0.0
1452,362.75,22.9807,23.9988,172.682,100.226,98.2474,0.000456982,0.0749247,20.961,958.353,0.173835,0.0,0.0
1464,365.75,22.9394,23.817,171.541,100.27,97.5225,0.000392457,0.0752098,20.961,958.363,0.242248,0.0,0.0
1476,368.75,22.9225,23.7259,172.834,100.292,97.8014,0.000173832,0.0758282,20.961,958.363,0.21922,0.0,0.0
1488,371.75,22.9219,24.093,171.151,100.331,96.8466,0.000149257,0.0764628,20.9608,958.343,0.308171,0.0,0.0
1500,374.75,22.6856,23.5299,170.619,100.362,98.1104,0.000100971,0.0776078,20.9594,958.343,0.19781,0.0,0.0
1512,377.75,23.1459,23.4576,173.627,100.388,97.7704,0.000236297,0.0784619,20.958,958.333,0.230363,0.0,0.0
1524,380.75,23.1933,23.8953,168.61,100.429,97.8468,0.000463132,0.0802959,20.9554,958.323,0.227113,0.0,0.0
1536,383.75,23.0059,23.6671,168.503,100.456,98.1787,0.000678961,0.0813639,20.9544,958.323,0.199875,0.0,0.0
1548,386.75,23.096,23.701,172.804,100.464,97.6929,0.000836904,0.0811686,20.9536,958.313,0.2439,0.0,0.0
1560,389.75,23.2498,23.7657,165.675,100.489,97.9288,0.000780164,0.0806393,20.9539,958.313,0.22502,0.0,0.0
1572,392.75,23.2607,24.3134,170.812,100.521,97.7757,0.000671514,0.0801647,20.954,958.313,0.241404,0.0,0.0
1584,395.75,23.2241,24.1317,173.411,100.542,97.3698,0.000864872,0.08042,20.9536,958.293,0.279498,0.0,0.0
1596,398.75,22.9799,23.9149,165.642,100.569,97.5161,0.000849684,0.0812363,20.9532,958.273,0.268801,0.0,0.0
1608,401.75,23.0819,24.3934,173.077,100.585,98.0791,0.000791211,0.0805068,20.9548,958.263,0.219982,0.0,0.0
1620,404.75,23.0996,23.8711,173.199,100.617,96.4809,0.000831523,0.0817771,20.9559,958.293,0.365922,0.0,0.0
1632,407.75,22.9551,24.1096,169.758,100.64,97.4956,0.0010412,0.0818146,20.9578,958.333,0.276748,0.0,0.0
1644,410.75,23.1198,24.1425,168.863,100.661,96.8498,0.00102451,0.0802766,20.9573,958.333,0.336514,0.0,0.0
1656,413.75,23.4316,24.3301,168.466,100.69,97.5956,0.000742457,0.0793406,20.9577,958.313,0.272088,0.0,0.0
1668,416.75,22.7828,23.7179,172.001,100.685,98.2559,0.000711458,0.0783884,20.9612,958.293,0.212884,0.0,0.0
1680,419.75,23.6829,24.2333,169.423,100.7,97.8878,0.000721444,0.0771615,20.9622,958.293,0.246976,0.0,0.0
1692,422.75,23.0443,24.2725,171.524,100.715,97.9424,0.00058502,0.075834,20.9633,958.293,0.243339,0.0,0.0
1704,425.75,22.9244,23.8367,175.667,100.724,98.7618,0.000544567,0.0753046,20.9644,958.273,0.171477,0.0,0.0
1716,428.75,23.2041,24.1889,165.051,100.71,97.6282,0.000679479,0.0753058,20.9638,958.253,0.270972,0.0,0.0
1728,431.75,22.6186,24.3766,169.536,100.719,97.6414,0.000776414,0.0751562,20.9628,958.263,0.270524,0.0,0.0
1740,434.75,22.8196,24.3643,172.978,100.73,98.5512,0.000871527,0.0751545,20.9625,958.233,0.190647,0.0,0.0
1752,437.75,23.1507,23.8225,171.136,100.735,98.503,0.00084255,0.0751282,20.9624,958.243,0.195335,0.0,0.0
1764,440.75,23.2511,23.8259,172.022,100.714,98.1783,0.000868582,0.0751892,20.9609,958.253,0.222296,0.0,0.0
1776,443.75,22.8496,24.075,171.206,100.713,98.0758,0.000773679,0.0758462,20.9593,958.233,0.231331,0.0,0.0
1788,446.75,23.348,24.5942,173.669,100.708,98.677,0.000614102,0.0761036,20.9582,958.243,0.177631,0.0,0.0
1800,449.75,23.3302,23.9292,172.004,100.685,97.7451,0.000813172,0.0758804,20.9578,958.223,0.258322,0.0,0.0
1812,452.75,22.8864,23.4675,175.827,100.685,97.979,0.00091816,0.0754143,20.9585,958.223,0.237522,0.0,0.0
1824,455.75,23.4346,23.8975,171.825,100.671,97.7355,0.000711475,0.0754148,20.9589,958.233,0.257989,0.0,0.0
1836,458.75,23.1484,23.9698,173.88,100.662,97.7411,0.000583844,0.0758301,20.959,958.213,0.25675,0.0,0.0
1848,461.75,22.9614,24.3214,171.124,100.645,98.2949,0.000462076,0.0761383,20.9578,958.203,0.20602,0.0,0.0
1860,464.75,23.5798,23.967,170.031,100.651,97.5418,0.000450594,0.0807722,20.9508,958.203,0.273529,0.0,0.0
1872,467.75,23.2853,24.1581,171.951,100.623,97.6796,0.000564637,0.0888179,20.9434,958.203,0.258864,0.0,1.0
1884,470.75,23.7129,24.215,169.354,100.614,97.5313,0.000760482,0.0905803,20.9412,958.223,0.271302,0.0,1.0
1896,473.75,23.4735,24.4169,170.299,100.584,97.7749,0.000797678,0.0881401,20.9439,958.233,0.246959,0.0,0.0
1908,476.75,23.0287,23.4021,174.227,100.575,98.4604,0.00062431,0.084481,20.949,958.223,0.185235,0.0,0.0
1920,479.75,23.1511,23.6683,173.287,100.568,97.7757,0.000698932,0.0814108,20.9527,958.213,0.245517,0.0,0.0
1932,482.75,23.322,24.3622,175.331,100.562,98.0525,0.000833739,0.0795756,20.9539,958.213,0.220336,0.0,0.0
1944,485.75,23.035,23.451,171.573,100.55,97.9637,0.000737673,0.0786665,20.9542,958.203,0.227182,0.0,0.0
1956,488.75,23.4323,23.8949,171.638,100.537,97.971,0.000457758,0.0793106,20.9535,958.193,0.225448,0.0,0.0
1968,491.75,23.7494,24.283,169.876,100.529,97.676,0.000221239,0.0806191,20.9524,958.163,0.251034,0.0,0.0
1980,494.75,23.2673,23.6877,167.421,100.503,98.4114,0.000170967,0.0806101,20.9519,958.173,0.183318,0.0,0.0
1992,497.75,23.3611,24.6488,171.648,100.494,98.2149,0.000399177,0.0828258,20.9479,958.183,0.19997,0.0,0.0
2004,500.75,23.3739,24.4941,168.658,100.486,98.1622,0.000542324,0.0854645,20.9439,958.203,0.203941,0.0,0.0
2016,503.75,23.8193,24.3,175.26,100.471,97.4337,0.000578046,0.0872734,20.9413,958.173,0.267624,0.0,0.0
2028,506.75,23.1086,24.0886,170.673,100.457,98.0626,0.000604036,0.0874038,20.94,958.183,0.210299,0.0,0.0
2040,509.75,23.341,24.2649,171.457,100.431,97.9018,0.000581441,0.0870809,20.9402,958.153,0.222385,0.0,0.0
2052,512.75,22.9354,23.5901,172.602,100.413,97.721,0.000701135,0.085425,20.9403,958.133,0.236955,0.0,0.0
2064,515.75,22.9186,23.7321,173.495,100.402,97.5635,0.000787623,0.0864102,20.9411,958.133,0.25,0.0,0.0
2076,518.75,23.1002,23.8896,168.383,100.375,97.4952,0.000673223,0.085563,20.9422,958.123,0.253782,0.0,0.0
2088,521.75,23.5546,24.7336,174.501,100.356,97.3947,0.00057708,0.0853499,20.9419,958.093,0.26115,0.0,0.0
2100,524.75,23.3609,24.5082,166.577,100.34,96.5492,0.000555615,0.0854967,20.9408,958.093,0.335723,0.0,0.0
2112,527.75,22.895,24.0776,172.212,100.321,97.5309,0.00056169,0.0863902,20.9405,958.083,0.245899,0.0,0.0
2124,530.75,23.181,24.6699,173.789,100.282,97.4272,0.000568527,0.0884455,20.9406,958.052,0.251823,0.0,0.0
2136,533.75,23.4313,24.1691,174.287,100.263,97.6153,0.000785131,0.0878677,20.941,958.052,0.233354,0.0,0.0
2148,536.75,23.6382,24.4968,169.868,100.256,97.4988,0.000575054,0.0887275,20.9411,958.052,0.243133,0.0,0.0
2160,539.75,23.6712,24.7382,172.039,100.215,97.3742,0.000425392,0.0878932,20.9429,958.022,0.250683,0.0,0.0
2172,542.75,23.5679,24.7392,166.149,100.182,97.5032,0.000623219,0.088565,20.9425,958.012,0.23632,0.0,0.0
2184,545.75,23.7236,24.5731,165.056,100.166,97.4112,0.000868965,0.0909192,20.9392,958.002,0.243175,0.0,0.0
2196,548.75,23.8464,24.9948,168.417,100.14,96.8964,0.00103384,0.0935969,20.9347,957.952,0.287077,0.0,0.0
2208,551.75,23.8007,24.8494,168.304,100.121,95.7439,0.00108154,0.096382,20.9306,957.962,0.389739,0.0,0.0
2220,554.75,23.9991,25.2061,163.49,100.108,96.9418,0.00106384,0.0993524,20.9249,957.942,0.280167,0.0,0.0
2232,557.75,24.2633,24.9431,167.092,100.085,96.1365,0.000952362,0.104211,20.9179,957.902,0.350882,0.0,0.0
2244,560.75,24.3086,25.4004,170.551,100.066,96.1992,0.000995358,0.108754,20.9102,957.882,0.343574,0.0,0.0
2256,563.75,24.619,25.6458,169.494,100.053,95.7893,0.00131363,0.117047,20.9005,957.852,0.379636,0.0,0.0
2268,566.75,24.846,26.028,170.141,100.033,95.8045,0.00134776,0.123259,20.8939,957.772,0.376586,0.0,0.0
2280,569.75,25.2353,26.085,165.808,100.021,95.5072,0.00124496,0.12862,20.8835,957.742,0.402559,0.0,0.0
2292,572.75,25.6081,26.346,171.298,100.018,95.2226,0.00121845,0.133235,20.8757,957.752,0.428357,0.0,0.0
2304,575.75,25.7498,26.9729,170.344,99.997,95.2656,0.00126339,0.138609,20.8666,957.682,0.422582,0.0,0.0
2316,578.75,26.0018,26.7876,166.447,99.9929,96.1453,0.0013666,0.144071,20.8574,957.602,0.342096,0.0,0.0
2328,581.75,26.3581,27.2083,163,99.9848,95.2954,0.00158304,0.151701,20.8445,957.542,0.418801,0.0,0.0
2340,584.75,26.8221,28.0184,168.176,99.9791,94.0577,0.00167138,0.16068,20.8312,957.512,0.532283,0.0,0.0
2352,587.75,27.4015,28.3007,162.262,99.9589,94.3659,0.0017509,0.168534,20.8203,957.422,0.501993,0.0,0.0
2364,590.75,27.7675,28.9627,166.119,99.9593,94.2791,0.00185579,0.178052,20.8056,957.322,0.510051,0.0,0.0
2376,593.75,28.1032,29.3446,158.842,99.9556,91.3447,0.002081,0.196517,20.7811,957.282,0.785398,0.0,0.0
2388,596.75,29.2268,30.267,155.6,99.9427,91.2229,0.00230736,0.226795,20.7266,957.142,0.795894,0.0,0.0
2400,599.75,30.5185,31.1283,160.659,99.9297,90.7885,0.00252036,0.257454,20.6774,956.961,0.836379,0.0,0.0
2412,602.75,31.3682,32.465,158.347,99.935,89.4753,0.00281135,0.283102,20.6352,956.821,0.963871,0.0,0.0
2424,605.75,32.927,34.2467,161.456,99.9447,91.3214,0.00323286,0.303896,20.6053,956.671,0.786668,0.0,0.0
2436,608.75,34.5219,35.448,150.56,99.9913,88.6285,0.00365142,0.321792,20.575,956.491,1.05168,0.0,0.0
2448,611.75,35.8558,36.3386,152.782,100.026,87.1654,0.00383671,0.340492,20.5477,956.321,1.19982,0.0,0.0
2460,614.75,36.9546,37.9085,156.39,100.059,90.1114,0.00390903,0.356162,20.5255,956.141,0.912923,0.0,0.0
2472,617.75,37.9708,39.2351,148.34,100.074,89.2755,0.00397564,0.377301,20.4918,955.951,0.995515,0.0,0.0
2484,620.75,39.3702,41.0022,152.75,100.121,88.4453,0.00414034,0.394589,20.4644,955.75,1.08103,0.0,0.0
2496,623.75,40.9857,42.5043,156.424,100.151,89.1321,0.00418686,0.410571,20.4378,955.5,1.01617,0.0,0.0
2508,626.75,42.0455,43.953,148.665,100.187,88.7362,0.00434382,0.426323,20.4122,955.27,1.05815,0.0,0.0
2520,629.75,43.6454,45.2466,155.478,100.215,89.0706,0.00456591,0.444597,20.3845,955.05,1.0278,0.0,0.0
2532,632.75,44.6488,47.185,144.164,100.253,88.7346,0.00471459,0.462686,20.3532,954.809,1.06406,0.0,0.0
2544,635.75,46.4548,48.6164,143.78,100.278,88.3207,0.0048052,0.474526,20.3361,954.549,1.10701,0.0,0.0
2556,638.75,47.5899,50.2789,144.609,100.308,87.2172,0.00496849,0.481866,20.3268,954.309,1.2192,0.0,0.0
2568,641.75,49.1425,51.6931,144.387,100.34,88.5554,0.00497931,0.489436,20.3162,954.049,1.08923,0.0,0.0
2580,644.75,50.4609,53.4461,146.663,100.37,87.0705,0.00511656,0.504206,20.293,953.788,1.23923,0.0,0.0
2592,647.75,52.1702,54.9963,141.497,100.397,87.5909,0.00535601,0.523489,20.2605,953.488,1.18963,0.0,0.0
2604,650.75,52.3407,55.6371,141.441,100.426,87.3984,0.00560888,0.539441,20.2324,953.208,1.21135,0.0,0.0
2616,653.75,54.4105,57.224,145.697,100.45,86.5798,0.00589073,0.563766,20.1918,952.958,1.2955,0.0,0.0
2628,656.75,55.3267,58.7508,140.899,100.467,85.4856,0.00614871,0.589026,20.1562,952.597,1.4078,0.0,0.0
2640,659.75,57.6248,61.2705,147.813,100.475,87.3631,0.00630029,0.602996,20.1308,952.287,1.21913,0.0,0.0
2652,662.75,59.2913,63.1052,131.022,100.484,86.3516,0.00671311,0.610536,20.1197,951.967,1.3214,0.0,0.0
2664,665.75,60.1572,64.0537,137.055,100.487,85.5603,0.00707661,0.627223,20.0915,951.666,1.40194,0.0,0.0
2676,668.75,62.1131,66.2391,139.761,100.492,85.566,0.00721543,0.647827,20.0627,951.326,1.40182,0.0,0.0
2688,671.75,63.4045,67.9695,139.799,100.505,84.9724,0.00724242,0.671491,20.0213,950.966,1.46367,0.0,0.0
2700,674.75,64.8111,69.5258,133.981,100.51,86.8394,0.00735063,0.695032,19.985,950.635,1.27461,0.0,0.0
2712,677.75,66.3029,71.1087,142.396,100.517,87.0697,0.00737694,0.707959,19.9667,950.235,1.25212,0.0,0.0
2724,680.75,68.1198,73.3895,141.139,100.52,87.1167,0.00721027,0.721754,19.9399,949.855,1.24766,0.0,0.0
2736,683.75,69.5796,74.5628,128.963,100.539,86.1374,0.00717947,0.739154,19.9174,949.474,1.34787,0.0,0.0
2748,686.75,70.6192,76.5494,140.388,100.524,86.7916,0.00749371,0.749543,19.9004,949.064,1.28057,0.0,0.0
2760,689.75,72.369,77.8564,140.078,100.541,85.3031,0.00783235,0.767074,19.8751,948.754,1.43286,0.0,0.0
2772,692.75,73.8526,79.6469,141.541,100.547,86.1704,0.0078741,0.77638,19.8605,948.353,1.34524,0.0,0.0
2784,695.75,74.8326,81.022,134.032,100.535,87.2301,0.00778874,0.789568,19.8419,947.933,1.23762,0.0,0.0
2796,698.75,75.8544,82.5228,132.74,100.535,86.3311,0.00782426,0.79507,19.8297,947.462,1.32794,0.0,0.0
2808,701.75,78.0177,84.9378,129.222,100.532,85.4333,0.00800721,0.808,19.8095,947.102,1.41883,0.0,0.0
2820,704.75,78.9911,86.4794,139.2,100.529,85.715,0.00812662,0.819517,19.7922,946.722,1.38985,0.0,0.0
2832,707.75,80.3979,87.4533,136.341,100.525,84.4026,0.0085409,0.826986,19.7797,946.281,1.52406,0.0,0.0
2844,710.75,80.8974,88.5094,133.716,100.516,84.573,0.00869698,0.833728,19.7699,945.871,1.50563,0.0,0.0
2856,713.75,81.8621,89.9805,136.981,100.524,84.9487,0.00861197,0.84743,19.7466,945.43,1.46772,0.0,0.0
2868,716.75,83.7853,92.3241,132.274,100.521,85.6431,0.00865766,0.859203,19.7292,944.96,1.39646,0.0,0.0
2880,719.75,84.7422,93.0538,128.949,100.513,84.9149,0.00890444,0.870934,19.7128,944.569,1.47024,0.0,0.0
2892,722.75,85.4295,93.8208,120.67,100.504,86.1109,0.00896054,0.878593,19.7003,944.129,1.34753,0.0,0.0
2904,725.75,87.4924,95.8877,135.874,100.503,84.7944,0.00893318,0.878618,19.6956,943.699,1.48178,0.0,0.0
2916,728.75,88.1911,96.6932,131.686,100.49,84.9756,0.0088362,0.885692,19.6878,943.238,1.46197,0.0,0.0
2928,731.75,89.4545,98.296,130.499,100.484,85.2441,0.00882426,0.894764,19.6765,942.808,1.43401,0.0,0.0
2940,734.75,90.3735,99.2727,133.478,100.488,83.4815,0.00893195,0.890673,19.6787,942.377,1.61645,0.0,0.0
2952,737.75,91.0081,100.211,129.141,100.467,84.9736,0.00907054,0.893065,19.672,941.967,1.46024,0.0,0.0
2964,740.75,91.8317,101.058,128.283,100.479,83.8167,0.00925248,0.902292,19.6598,941.497,1.58074,0.0,0.0
2976,743.75,92.1553,102.024,126.713,100.459,84.6766,0.00947882,0.907495,19.6565,941.046,1.49006,0.0,0.0
2988,746.75,93.666,103.379,122.47,100.444,83.1178,0.00976977,0.905285,19.655,940.626,1.65075,0.0,0.0
3000,749.75,93.8902,103.908,135.737,100.419,83.1411,0.0100295,0.908641,19.6509,940.235,1.64609,0.0,0.0
3012,752.75,95.0334,105.185,130.529,100.396,84.1434,0.0101351,0.906295,19.651,939.745,1.53965,0.0,0.0
3024,755.75,95.1785,105.637,124.263,100.376,81.9074,0.010128,0.896456,19.6682,939.324,1.77269,0.0,0.0
3036,758.75,95.7662,106.087,129.738,100.345,82.681,0.0101576,0.881538,19.6918,938.894,1.6881,0.0,0.0
3048,761.75,96.454,106.822,134.9,100.327,83.2107,0.00986191,0.862879,19.7199,938.484,1.6308,0.0,0.0
3060,764.75,95.7896,106.794,131.205,100.303,83.5546,0.009485,0.840969,19.7541,938.113,1.59279,0.0,0.0
3072,767.75,96.7316,107.079,134.937,100.291,83.8098,0.00933526,0.820082,19.7883,937.733,1.56515,0.0,0.0
3084,770.75,96.208,106.72,131.141,100.284,82.3491,0.00941009,0.807065,19.8096,937.3125,1.71785,0.0,0.0
3096,773.75,95.988,106.409,122.357,100.254,83.5563,0.00938906,0.790468,19.8332,936.922,1.58833,0.0,0.0
3108,776.75,96.5032,107.046,137.383,100.231,84.268,0.00910052,0.770815,19.8663,936.582,1.51237,0.0,0.0
3120,779.75,95.4728,105.807,140.588,100.202,83.6302,0.0088359,0.751821,19.8989,936.232,1.57614,0.0,0.0
3132,782.75,95.4074,105.88,136.873,100.173,83.5659,0.0085269,0.738926,19.9167,935.861,1.58034,0.0,0.0
3144,785.75,95.3302,105.643,140.792,100.147,83.2669,0.00846773,0.726055,19.937,935.551,1.60925,0.0,0.0
3156,788.75,94.2247,105.168,138.165,100.118,82.9663,0.00854023,0.708539,19.9648,935.201,1.63828,0.0,0.0
3168,791.75,93.9425,104.092,136.078,100.093,82.7738,0.00867571,0.693275,19.9868,934.87,1.65634,0.0,0.0
3180,794.75,93.3361,103.971,135.141,100.073,82.5307,0.00874269,0.678818,20.0082,934.53,1.68025,0.0,0.0
3192,797.75,92.3435,102.491,144.558,100.058,82.4435,0.00870057,0.666092,20.0253,934.21,1.68816,0.0,0.0
3204,800.75,91.9423,102.467,140.277,100.037,83.4827,0.00848747,0.645024,20.0607,933.879,1.57712,0.0,0.0
3216,803.75,91.472,101.615,137.1,100.012,82.3398,0.00823523,0.618772,20.103,933.599,1.69514,0.0,0.0
3228,806.75,91.2093,100.918,140.488,99.9877,83.4743,0.00821004,0.598746,20.134,933.329,1.57372,0.0,0.0
3240,809.75,89.7938,99.9765,145.952,99.9568,84.2937,0.0081282,0.575381,20.172,933.018,1.48587,0.0,0.0
3252,812.75,89.2322,99.1779,150.003,99.9301,84.1566,0.00784606,0.547469,20.2228,932.768,1.49772,0.0,0.0
3264,815.75,88.1543,97.9833,147.474,99.937,84.7924,0.00720625,0.517905,20.2652,932.558,1.43271,0.0,0.0
3276,818.75,86.6183,95.9859,148.306,99.9394,83.5064,0.00677607,0.490975,20.3072,932.308,1.56616,0.0,0.0
3288,821.75,85.2693,94.6797,151.721,99.9459,85.9787,0.00655799,0.469332,20.339,932.117,1.31236,0.0,0.0
3300,824.75,83.9454,92.7205,145.521,99.9386,83.3971,0.00627393,0.451283,20.3706,931.867,1.57751,0.0,0.0
3312,827.75,82.5614,91.5659,146.755,99.9528,84.1092,0.0060304,0.435995,20.3959,931.697,1.50462,0.0,0.0
3324,830.75,81.3225,90.9664,147.606,99.9552,86.0209,0.00563834,0.424102,20.4173,931.497,1.3089,0.0,0.0
3336,833.75,80.2579,88.9066,154.303,99.9787,86.8559,0.00532737,0.415791,20.4328,931.257,1.22672,0.0,0.0
3348,836.75,78.8066,87.7832,149.793,99.9937,85.879,0.00521264,0.406427,20.4474,931.117,1.32665,0.0,0.0
3360,839.75,77.4098,85.8668,148.691,99.9978,86.4492,0.0053061,0.393855,20.4713,930.876,1.2693,0.0,0.0
3372,842.75,76.4828,84.4833,149.249,100.016,86.5798,0.00529714,0.383455,20.4845,930.736,1.2577,0.0,0.0
3384,845.75,75.5519,83.9095,153.605,100.041,87.5134,0.00491435,0.374694,20.4966,930.606,1.16639,0.0,0.0
3396,848.75,74.5948,82.9088,156.487,100.072,86.3773,0.00452952,0.3653,20.5116,930.406,1.28306,0.0,0.0
3408,851.75,73.1031,80.4126,148.908,100.108,86.2375,0.00438947,0.358403,20.5227,930.246,1.30026,0.0,0.0
3420,854.75,72.6888,80.4058,154.27,100.145,87.1875,0.00434426,0.34844,20.54,930.076,1.20799,0.0,0.0
3432,857.75,71.0145,78.2925,153.81,100.197,87.437,0.00432236,0.339339,20.5528,929.915,1.18763,0.0,0.0
3444,860.75,70.2607,77.4287,151.721,100.237,87.4451,0.00393836,0.329516,20.5705,929.785,1.19025,0.0,0.0
3456,863.75,69.0048,76.4824,151.17,100.262,88.0257,0.00355479,0.319105,20.5852,929.625,1.13476,0.0,0.0
3468,866.75,68.6566,75.5522,155.679,100.301,88.6044,0.00325692,0.310429,20.597,929.515,1.08102,0.0,0.0
3480,869.75,67.0536,73.5716,158.805,100.342,89.259,0.0032179,0.304482,20.6053,929.345,1.0204,0.0,0.0
3492,872.75,66.1202,72.5421,152.508,100.393,89.6115,0.00319101,0.296214,20.6199,929.185,0.990451,0.0,0.0
3504,875.75,65.2861,71.9098,160.66,100.428,90.4333,0.00298719,0.287191,20.6334,929.085,0.91389,0.0,0.0
3516,878.75,64.346,70.5468,152.373,100.458,90.0732,0.00285116,0.278959,20.6456,928.995,0.951312,0.0,0.0
3528,881.75,63.8599,70.1242,152.063,100.505,91.145,0.00278886,0.271492,20.6589,928.874,0.852302,0.0,0.0
3540,884.75,63.1978,68.5976,154.145,100.551,90.2806,0.00273513,0.264685,20.6689,928.744,0.939318,0.0,0.0
3552,887.75,62.1471,67.7344,154.755,100.599,90.8315,0.00260753,0.260171,20.6758,928.644,0.890494,0.0,0.0
3564,890.75,61.6444,67.0713,152.84,100.638,92.0025,0.00253293,0.25517,20.6827,928.544,0.782151,0.0,0.0
3576,893.75,60.4901,65.7146,158.112,100.676,91.8948,0.00263622,0.250754,20.689,928.424,0.795628,0.0,0.0
3588,896.75,60.0604,65.0729,162.468,100.692,92.6069,0.0026493,0.24682,20.6963,928.354,0.729734,0.0,0.0
3600,899.75,58.5383,63.4497,155.446,100.709,91.5681,0.00251475,0.242676,20.7,928.254,0.829523,0.0,0.0
3612,902.75,58.2185,63.3337,154.749,100.687,92.0705,0.00246706,0.239629,20.7067,928.134,0.780001,0.0,0.0
3624,905.75,57.7422,62.19,155.675,100.666,93.3283,0.00244974,0.233988,20.7153,928.054,0.659806,0.0,0.0
3636,908.75,57.2459,61.6917,159.879,100.608,92.75,0.00241442,0.229644,20.7217,927.984,0.709008,0.0,0.0
3648,911.75,56.5322,60.5691,161.466,100.519,92.529,0.00217006,0.226404,20.7267,927.903,0.72211,0.0,0.0
3660,914.75,56.0987,60.1746,163.83,100.403,91.8366,0.00197569,0.223299,20.7308,927.793,0.777497,0.0,0.0
3672,917.75,55.2576,59.0235,161.044,100.251,92.8067,0.00187072,0.219008,20.7385,927.713,0.672674,0.0,0.0
3684,920.75,55.168,58.5721,157.96,100.066,92.9754,0.00204388,0.213994,20.7467,927.613,0.64074,0.0,0.0
3696,923.75,53.9627,57.9797,144.318,99.8749,92.7789,0.00207506,0.209738,20.7542,927.553,0.642531,0.0,0.0
3708,926.75,53.1192,57.1062,162.34,99.6471,91.9559,0.00192079,0.205428,20.7618,927.453,0.7003,0.0,0.0
3720,929.75,52.7808,56.4775,164.999,99.4148,91.8788,0.00177129,0.20182,20.7679,927.413,0.687268,0.0,0.0
3732,932.75,52.4193,55.8812,155.186,99.1922,92.7946,0.00184902,0.19792,20.7755,927.333,0.581252,0.0,0.0
3744,935.75,51.6991,54.9045,160.778,98.9761,92.0246,0.00184918,0.192812,20.7828,927.263,0.634879,0.0,0.0
3756,938.75,51.1291,54.3159,162.184,98.8058,92.6769,0.00182122,0.189096,20.7898,927.183,0.558294,0.0,0.0
3768,941.75,50.718,53.4781,164.508,98.6635,92.8919,0.0016465,0.18492,20.7971,927.103,0.525526,0.0,0.0
3780,944.75,50.3572,53.3599,163.742,98.6075,92.0813,0.001579,0.180149,20.8042,927.043,0.596988,0.0,0.0
3792,947.75,49.8148,52.8392,159.734,98.6152,93.2511,0.00152621,0.174354,20.8133,926.983,0.487608,0.0,0.0
3804,950.75,48.9095,51.6182,163.438,98.6882,92.8352,0.00149107,0.170688,20.8197,926.943,0.53303,0.0,0.0
3816,953.75,48.5811,50.9432,163.207,98.8062,93.3492,0.00140816,0.166563,20.8262,926.913,0.495312,0.0,0.0
3828,956.75,48.1227,50.5535,165.728,98.9931,93.3644,0.00147825,0.162179,20.8337,926.852,0.510364,0.0,0.0
3840,959.75,47.5791,49.9859,163.316,99.1991,93.6847,0.00158516,0.158248,20.8394,926.782,0.498627,0.0,0.0
3852,962.75,47.0128,49.4807,166.595,99.4208,94.7131,0.00173139,0.154805,20.8426,926.752,0.42292,0.0,0.0
3864,965.75,46.6902,48.7995,165.603,99.6442,93.7884,0.00156965,0.151421,20.8486,926.692,0.528023,0.0,0.0
3876,968.75,45.8164,48.2997,158.973,99.8056,94.6998,0.00140977,0.147442,20.8561,926.692,0.457817,0.0,0.0
3888,971.75,45.343,47.5742,166.309,99.9321,94.7131,0.00150239,0.144487,20.8601,926.642,0.467639,0.0,0.0
3900,974.75,44.9161,46.9805,166.224,100.003,94.8148,0.00154662,0.1427,20.863,926.582,0.464509,0.0,0.0
3912,977.75,44.8683,46.8826,163.549,100.016,95.09,0.00151657,0.141232,20.8642,926.582,0.44033,0.0,0.0
3924,980.75,43.8172,45.8804,163.862,100.038,94.685,0.0013552,0.139835,20.8645,926.542,0.479422,0.0,0.0
3936,983.75,44.2275,45.5329,163.502,100.003,94.8927,0.00125352,0.139217,20.8645,926.502,0.457308,0.0,0.0
3948,986.75,43.5833,45.4263,162.542,99.9406,94.4615,0.00115187,0.137546,20.8671,926.422,0.491569,0.0,0.0
3960,989.75,43.4231,44.5142,165.642,99.8518,94.2284,0.00123758,0.136119,20.8693,926.422,0.505359,0.0,0.0
3972,992.75,42.3419,43.879,167.472,99.7752,94.2156,0.00131505,0.134276,20.8724,926.382,0.499855,0.0,0.0
3984,995.75,41.7491,43.6152,167.473,99.7785,94.6709,0.00115747,0.132151,20.8746,926.312,0.458108,0.0,0.0
3996,998.75,42.0632,43.3931,165.547,100.15,95.436,0.000933851,0.131,20.8768,926.332,0.42032,0.0,0.0
4008,1001.75,41.5091,42.7458,165.453,100.393,95.6341,0.000982147,0.129281,20.881,926.282,0.423392,0.0,0.0
4020,1004.75,41.0367,42.4107,163.606,100.519,95.4155,0.00112838,0.127567,20.8846,926.242,0.454288,0.0,0.0
4032,1007.75,40.4854,41.958,166.03,100.52,96.3567,0.00119255,0.125562,20.8881,926.212,0.36882,0.0,0.0
4044,1010.75,40.5714,41.8567,163.802,100.393,95.7226,0.00116695,0.124124,20.8903,926.202,0.415337,0.0,0.0
4056,1013.75,40.168,41.2246,165.877,100.125,95.4296,0.00118174,0.122445,20.8934,926.162,0.418718,0.0,0.0
4068,1016.75,39.8673,40.7546,163.661,99.9702,94.9719,0.00122177,0.120153,20.8967,926.132,0.447174,0.0,0.0
4080,1019.75,39.4872,40.4791,169.929,100.127,94.4053,0.00141085,0.119227,20.8987,926.052,0.512983,0.0,0.0
4092,1022.75,39.5003,40.2733,172.123,100.306,96.161,0.00139307,0.117251,20.9032,926.072,0.367923,0.0,0.0
4104,1025.75,38.8492,39.709,165.95,100.479,95.7937,0.00138173,0.115923,20.9046,926.082,0.416357,0.0,0.0
4116,1028.75,38.3904,39.3098,170.08,100.624,95.3143,0.00128996,0.115501,20.9053,926.052,0.472649,0.0,0.0
4128,1031.75,38.31,39.0047,169.534,100.711,95.7077,0.00113133,0.113971,20.9073,925.982,0.444252,0.0,0.0
4140,1034.75,38.3279,39.2165,165.139,100.7,95.9098,0.00109314,0.112938,20.9082,925.952,0.424946,0.0,0.0
4152,1037.75,38.2557,38.8849,167.572,100.614,95.9757,0.00111546,0.111954,20.9099,925.952,0.411512,0.0,0.0
4164,1040.75,37.5448,38.1222,167.503,100.439,96.6091,0.0010239,0.112087,20.9087,925.912,0.338909,0.0,0.0
4176,1043.75,37.196,38.0271,169.823,100.173,94.9755,0.0010644,0.112096,20.9083,925.882,0.464539,0.0,0.0
4188,1046.75,37.502,38.0197,162.145,99.8591,94.3611,0.00122827,0.111668,20.9082,925.892,0.493735,0.0,0.0
4200,1049.75,36.7845,37.6399,166.897,99.5344,94.9305,0.00127233,0.111666,20.9082,925.882,0.412881,0.0,0.0
4212,1052.75,36.9153,37.2124,166.87,99.2027,94.3647,0.00119402,0.110236,20.909,925.852,0.435901,0.0,0.0
4224,1055.75,36.9771,37.2279,161.797,98.9177,94.1561,0.0011121,0.109045,20.9107,925.831,0.430106,0.0,0.0
4236,1058.75,36.7971,37.8645,161.936,98.7121,94.2168,0.00100205,0.108237,20.9123,925.781,0.406352,0.0,0.0
4248,1061.75,36.7924,37.118,166.947,98.6176,94.6166,0.000976357,0.107303,20.9153,925.771,0.361083,0.0,0.0
4260,1064.75,35.8982,36.9065,167.186,98.6334,93.9552,0.0013115,0.106466,20.9169,925.751,0.423644,0.0,0.0
4272,1067.75,35.4239,35.7616,166.51,98.7583,94.2429,0.00149164,0.105848,20.9179,925.731,0.408017,0.0,0.0
4284,1070.75,35.7405,36.2217,164.087,98.9777,94.775,0.00155392,0.104455,20.9213,925.711,0.378278,0.0,0.0
4296,1073.75,36.3465,36.4062,167.65,99.2343,95.3211,0.00153295,0.103101,20.9226,925.691,0.350762,0.0,0.0
4308,1076.75,35.4206,35.6479,169.54,99.4983,94.1963,0.00114414,0.10199,20.9214,925.691,0.477409,0.0,0.0
4320,1079.75,35.3738,35.5188,169.177,99.7274,96.0774,0.00104671,0.101702,20.9205,925.691,0.32507,0.0,0.0
4332,1082.75,35.112,35.6399,167.03,99.9025,95.7583,0.0013686,0.100872,20.9224,925.671,0.36937,0.0,0.0
4344,1085.75,34.9766,35.3221,166.676,99.9994,96.2213,0.0015613,0.0995764,20.9241,925.671,0.335776,0.0,0.0
4356,1088.75,34.7673,35.3342,164.708,100.017,94.869,0.00140579,0.099721,20.9243,925.631,0.460689,0.0,0.0
4368,1091.75,34.6447,34.9664,169.071,99.9966,94.8959,0.00123493,0.100449,20.9229,925.571,0.456447,0.0,0.0
4380,1094.75,34.6091,34.8156,166.98,99.9674,95.3995,0.00124769,0.100715,20.9225,925.621,0.407764,0.0,0.0
4392,1097.75,34.5704,34.8038,160.312,99.8956,95.4332,0.00116887,0.100182,20.9224,925.591,0.398418,0.0,0.0
4404,1100.75,34.319,34.5495,162.726,99.802,95.2234,0.00114399,0.0994492,20.9244,925.581,0.409425,0.0,0.0
4416,1103.75,34.0716,34.3216,169.016,99.7355,95.082,0.00116331,0.0985311,20.9257,925.551,0.416575,0.0,0.0
4428,1106.75,33.8833,34.0375,168.12,99.8028,94.7633,0.00115159,0.0981286,20.9278,925.521,0.451726,0.0,0.0
4440,1109.75,33.7882,34.1012,169.455,100.149,96.2482,0.000953054,0.0975833,20.9283,925.531,0.346406,0.0,0.0
4452,1112.75,33.7976,33.9414,172.735,100.385,95.8974,0.00093988,0.0964528,20.932,925.481,0.398725,0.0,0.0
4464,1115.75,33.4511,33.7567,167.74,100.515,95.997,0.00109399,0.0944187,20.9329,925.481,0.400931,0.0,0.0
4476,1118.75,33.3717,33.499,167.181,100.509,96.1658,0.00102151,0.0930521,20.9356,925.471,0.385123,0.0,0.0
4488,1121.75,33.057,33.2653,169.69,100.386,96.4861,0.00107619,0.092382,20.9373,925.461,0.345472,0.0,0.0
4500,1124.75,33.0216,33.1385,162.545,100.145,95.6056,0.00104219,0.0915937,20.9411,925.481,0.404384,0.0,0.0
4512,1127.75,32.6418,33.09,167.636,99.9333,95.2484,0.000952621,0.0910292,20.9426,925.451,0.418613,0.0,0.0
4524,1130.75,32.5605,32.472,171.274,100.066,95.1845,0.00101427,0.0901371,20.9443,925.461,0.436058,0.0,0.0
4536,1133.75,32.1839,33.0652,168.592,100.228,95.1226,0.000828954,0.0890446,20.9447,925.421,0.455811,0.0,0.0
4548,1136.75,32.4453,32.4528,172.254,100.395,95.6844,0.000700444,0.0898159,20.9433,925.361,0.418989,0.0,0.0
4560,1139.75,33.2949,32.6925,169.113,100.539,96.0621,0.000834285,0.0904964,20.9428,925.391,0.39713,0.0,0.0
4572,1142.75,32.1136,31.5525,167.075,100.658,95.7732,0.000985023,0.0914843,20.9407,925.411,0.433722,0.0,0.0
4584,1145.75,32.0193,31.9758,166.42,100.695,96.4728,0.000938041,0.0928903,20.9375,925.361,0.373426,0.0,0.0
4596,1148.75,31.4957,31.8513,167.21,100.7,95.8982,0.000926842,0.093818,20.9333,925.321,0.42597,0.0,0.0
4608,1151.75,32.5438,32.4148,165.897,100.634,96.3639,0.000986739,0.0930811,20.9331,925.291,0.378006,0.0,0.0
4620,1154.75,31.6613,31.7288,167.037,100.518,96.2554,0.00068183,0.0915732,20.9362,925.331,0.377811,0.0,0.0
4632,1157.75,31.4274,31.8866,168.16,100.361,95.9183,0.000289365,0.0905734,20.9391,925.301,0.394712,0.0,0.0
4644,1160.75,31.7128,31.8554,170.661,100.173,96.0698,0.000433823,0.0899696,20.9404,925.291,0.364666,0.0,0.0
4656,1163.75,31.5714,31.7124,165.789,99.9577,95.0707,0.000691624,0.0898225,20.9414,925.311,0.437007,0.0,0.0
4668,1166.75,31.9043,32.1593,166.866,99.7428,95.0575,0.000730077,0.0893558,20.9427,925.291,0.419461,0.0,0.0
4680,1169.75,31.3954,31.5109,166.003,99.5291,94.7517,0.000785455,0.0891976,20.9431,925.291,0.428859,0.0,0.0
4692,1172.75,31.4928,31.4162,165.251,99.3235,94.6608,0.000957557,0.0891132,20.9421,925.251,0.419194,0.0,0.0
4704,1175.75,31.3551,31.4061,167.987,99.135,94.7497,0.00119111,0.0891453,20.9413,925.271,0.394452,0.0,0.0
4716,1178.75,31.139,31.2651,165.605,98.9671,94.3245,0.00130678,0.0894146,20.9398,925.241,0.418888,0.0,0.0
4728,1181.75,30.8848,31.1551,171.298,98.8556,94.8553,0.00113972,0.0901691,20.9389,925.291,0.360131,0.0,0.0
4740,1184.75,30.754,30.9807,170.342,98.7778,94.4189,0.00105851,0.0901611,20.9387,925.251,0.393467,0.0,0.0
4752,1187.75,31.0896,31.1617,169.856,98.6902,93.5469,0.00107043,0.0904803,20.9386,925.241,0.466629,0.0,0.0
4764,1190.75,30.7987,30.9804,169.948,98.6517,94.6757,0.000968937,0.0904646,20.9386,925.211,0.358652,0.0,0.0
4776,1193.75,30.8922,31.1745,168.1,98.6318,94.662,0.0010022,0.0897416,20.943,925.221,0.358155,0.0,0.0
4788,1196.75,31.1769,31.0282,166.447,98.6249,94.3482,0.00112383,0.0889784,20.9451,925.241,0.386498,0.0,0.0
4800,1199.75,30.0345,30.6385,170.078,98.6489,94.0512,0.00121657,0.0878853,20.9457,925.221,0.416099,0.0,0.0
4812,1202.75,31.1365,30.9097,170.9,98.6975,94.3402,0.00121599,0.0866119,20.947,925.231,0.393654,0.0,0.0
4824,1205.75,30.472,30.6327,163.714,98.7381,94.3968,0.00103249,0.0859725,20.9479,925.191,0.392,0.0,0.0
4836,1208.75,29.6199,30.1578,168.345,98.7932,94.6898,0.000834711,0.0852058,20.9495,925.211,0.369852,0.0,0.0
4848,1211.75,29.9978,30.0023,169.849,98.8731,94.6468,0.000803792,0.084669,20.9502,925.211,0.380859,0.0,0.0
4860,1214.75,29.8337,29.8562,170.704,98.9209,94.1806,0.00086877,0.0842702,20.9497,925.211,0.428122,0.0,0.0
4872,1217.75,29.6482,30.1877,165.442,98.9911,94.7183,0.00102735,0.083816,20.9489,925.181,0.38467,0.0,0.0
4884,1220.75,30.0163,29.9231,173.889,99.0628,94.4089,0.00110011,0.0833177,20.9505,925.151,0.419516,0.0,0.0
4896,1223.75,30.6282,30.3623,163.189,99.1167,94.8228,0.00102501,0.0830612,20.9522,925.191,0.386121,0.0,0.0
4908,1226.75,30.0549,30.4832,168.23,99.1739,95.1997,0.000953331,0.0830584,20.9532,925.181,0.35656,0.0,0.0
4920,1229.75,29.8095,29.8937,171.264,99.2355,94.8401,0.000627566,0.083084,20.9523,925.181,0.394976,0.0,0.0
4932,1232.75,29.6105,29.9082,165.636,99.281,96.0774,0.000477269,0.082656,20.9527,925.161,0.285957,0.0,0.0
4944,1235.75,29.5828,29.7617,167.282,99.3146,95.5039,0.000564635,0.0822845,20.9533,925.161,0.341105,0.0,0.0
4956,1238.75,29.7422,29.9076,170.809,99.3669,95.4859,0.000664985,0.0819456,20.9535,925.151,0.347345,0.0,0.0
4968,1241.75,29.6155,29.7778,164.975,99.4127,95.645,0.00086692,0.0818166,20.9549,925.141,0.336846,0.0,0.0
4980,1244.75,29.6506,29.6265,168.094,99.4427,95.8937,0.000904146,0.0815857,20.9557,925.121,0.316833,0.0,0.0
4992,1247.75,29.3727,29.6073,168.572,99.478,95.3669,0.000856276,0.0819194,20.9559,925.151,0.367954,0.0,0.0
5004,1250.75,29.3112,29.4931,169.479,99.5319,95.8162,0.000631341,0.0820666,20.955,925.101,0.331704,0.0,0.0
5016,1253.75,29.1025,29.3838,171.491,99.5632,95.3086,0.000680834,0.0820989,20.954,925.141,0.380742,0.0,0.0
5028,1256.75,29.1699,29.2873,170.095,99.6001,95.2656,0.00087999,0.081835,20.9546,925.171,0.387907,0.0,0.0
5040,1259.75,28.9561,29.1757,166.367,99.6418,95.526,0.00098456,0.0814637,20.9559,925.101,0.367762,0.0,0.0
5052,1262.75,28.8429,28.9046,172.583,99.6828,95.348,0.000893328,0.0809862,20.9536,925.101,0.387607,0.0,0.0
5064,1265.75,28.8273,29.0469,166.751,99.7144,96.4981,0.000853109,0.0803206,20.9541,925.101,0.28584,0.0,0.0
5076,1268.75,28.2042,28.4901,169.094,99.7561,95.5634,0.000775107,0.079996,20.9551,925.101,0.374351,0.0,0.0
5088,1271.75,29.0153,28.8664,172.963,99.7906,95.5823,0.000859161,0.0798897,20.9541,925.111,0.375639,0.0,0.0
5100,1274.75,28.2191,28.4208,166.965,99.7878,95.551,0.00106073,0.0800544,20.9539,925.101,0.378251,0.0,0.0
5112,1277.75,28.3917,28.5451,175.294,99.8089,96.3077,0.000979416,0.0797129,20.9546,925.051,0.311322,0.0,0.0
5124,1280.75,28.867,29.2641,168.523,99.8235,96.241,0.000750153,0.0794889,20.9563,925.101,0.318638,0.0,0.0
5136,1283.75,28.2971,28.735,170.068,99.836,95.9572,0.000606666,0.0792475,20.955,925.091,0.345474,0.0,0.0
5148,1286.75,28.4417,28.4297,173.997,99.8498,96.4134,0.000663355,0.0790431,20.9538,925.091,0.305336,0.0,0.0
5160,1289.75,28.2372,28.5472,167.301,99.851,95.7463,0.000788274,0.0792245,20.9535,925.061,0.365974,0.0,0.0
5172,1292.75,27.7292,28.0168,169.161,99.8482,96.2602,0.000744489,0.0793179,20.9534,925.071,0.31905,0.0,0.0
5184,1295.75,27.9143,28.1431,170.449,99.8616,96.2353,0.000920921,0.0788632,20.9533,925.091,0.322474,0.0,0.0
5196,1298.75,28.3138,28.0805,166.505,99.8571,96.4419,0.00102985,0.0787812,20.9544,925.081,0.303393,0.0,0.0
5208,1301.75,27.7063,27.9381,171.609,99.8531,95.4887,0.00104864,0.0784524,20.9559,925.091,0.389637,0.0,0.0
5220,1304.75,28.0062,28.3163,171.592,99.847,96.2209,0.000851454,0.0783797,20.9572,925.071,0.322511,0.0,0.0
5232,1307.75,27.6081,27.9047,168.684,99.8498,96.1337,0.000677923,0.0781394,20.9588,925.061,0.330664,0.0,0.0
5244,1310.75,27.0016,27.3751,175.717,99.8599,96.3619,0.000471935,0.0778835,20.9588,925.071,0.310874,0.0,0.0
5256,1313.75,27.5574,27.8856,174.783,99.862,96.0625,0.000455501,0.0780838,20.9579,925.061,0.338179,0.0,0.0
5268,1316.75,27.4804,27.7409,168.881,99.8526,96.6436,0.000470844,0.0784795,20.9565,925.081,0.284786,0.0,0.0
5280,1319.75,27.4603,27.8382,169.341,99.8697,96.6416,0.000535859,0.0791678,20.9548,925.081,0.286454,0.0,0.0
5292,1322.75,27.1294,27.5572,164.23,99.8664,95.7708,0.000681759,0.0799144,20.9521,925.061,0.365087,0.0,0.0
5304,1325.75,27.6458,27.1985,169.317,99.8608,95.4979,0.000759595,0.0805925,20.9489,925.061,0.389466,0.0,0.0
5316,1328.75,27.3694,27.5184,164.107,99.8478,96.2739,0.000775607,0.0813533,20.9473,925.051,0.317777,0.0,0.0
5328,1331.75,27.2757,27.4443,165.832,99.8721,96.2566,0.000985887,0.0823621,20.943,925.081,0.321466,0.0,0.0
5340,1334.75,27.1672,27.4729,170.079,99.8563,96.5014,0.00100988,0.0831571,20.9383,925.031,0.297948,0.0,0.0
5352,1337.75,26.9614,27.2235,171.087,99.8522,96.4781,0.000786727,0.083884,20.9356,925.071,0.299699,0.0,0.0
5364,1340.75,27.1883,27.6146,160.222,99.8713,96.4515,0.000500766,0.0841592,20.9342,925.041,0.30376,0.0,0.0
5376,1343.75,27.153,27.7193,166.84,99.8737,96.3181,0.000489288,0.0842073,20.9338,925.071,0.316041,0.0,0.0
5388,1346.75,27.375,27.4307,173.914,99.8867,96.5351,0.000723399,0.0842925,20.9337,925.061,0.297553,0.0,0.0
5400,1349.75,26.4402,26.3498,164.016,99.8916,96.3422,0.000841024,0.0840435,20.9337,925.071,0.315416,0.0,0.0
5412,1352.75,26.2675,26.6863,174.662,99.8956,96.1863,0.000822051,0.0832079,20.9348,925.071,0.329891,0.0,0.0
5424,1355.75,26.7668,27.1614,171.135,99.8964,96.9832,0.000703698,0.0821964,20.9383,925.061,0.25803,0.0,0.0
5436,1358.75,27.2413,27.9807,169.067,99.8936,95.8737,0.000759671,0.0809263,20.9422,925.041,0.358098,0.0,0.0
5448,1361.75,26.4155,26.9068,168.136,99.8977,96.3,0.000834339,0.0798523,20.9474,925.051,0.319766,0.0,0.0
5460,1364.75,26.7557,26.9863,178.236,99.909,96.5154,0.000739122,0.0789456,20.9511,925.061,0.301278,0.0,0.0
5472,1367.75,26.2502,26.9073,169.365,99.9025,96.7847,0.00076412,0.0780417,20.9539,925.081,0.276424,0.0,0.0
5484,1370.75,26.8756,27.2538,166.63,99.9151,96.5134,0.000882596,0.0772788,20.9557,925.071,0.301989,0.0,0.0
5496,1373.75,26.6798,27.2417,170.626,99.9114,97.1636,0.000882083,0.0769396,20.9568,925.051,0.243133,0.0,0.0
5508,1376.75,26.54,26.3682,169.326,99.9341,96.7947,0.000780123,0.0766417,20.9582,925.041,0.278279,0.0,0.0
5520,1379.75,26.5153,26.7911,169.313,99.9248,97.0298,0.000684511,0.0766573,20.9572,925.021,0.256316,0.0,0.0
5532,1382.75,26.8647,26.2513,173.079,99.9333,96.5371,0.00088532,0.0767345,20.9569,925.031,0.30144,0.0,0.0
5544,1385.75,26.239,27.0181,170.661,99.9362,96.7429,0.000910416,0.0766762,20.9568,925.041,0.283126,0.0,0.0
5556,1388.75,25.4998,25.7275,168.71,99.9362,96.2876,0.000721767,0.0764413,20.9567,925.031,0.324254,0.0,0.0
5568,1391.75,25.9493,26.2448,170.755,99.9512,96.7513,0.000516652,0.0765265,20.9567,925.051,0.283674,0.0,0.0
5580,1394.75,26.4627,27.0714,169.248,99.9597,97.1982,0.000402629,0.0765163,20.9567,925.041,0.244242,0.0,0.0
5592,1397.75,26.033,26.6375,166.641,99.9629,96.0155,0.000473179,0.0763058,20.9567,925.051,0.351257,0.0,0.0
5604,1400.75,26.4538,26.6904,172.033,99.9913,96.6191,,0.0762939,,925.061,0.299097,0.0,0.0
5616,1403.75,26.3158,26.6489,174.637,99.9865,96.7565,,,,925.051,0.28628,0.0,0.0
5628,1406.75,26.166,26.8112,171.606,99.9828,97.0009,,,,925.041,0.263974,0.0,0.0
5640,1409.75,26.3156,26.7332,167.968,99.997,96.3917,,,,925.071,0.320139,0.0,0.0
5642,1410.25,26.2948,26.8676,170.103,99.986,96.509,,,,925.051,0.308578,0.0,0.0