File: 01_Data/Nylon/Cone/Nylon_Cone_HF25Scan_220225_R3.csv
Names,Time,Stack TC,Smoke TC,Exh Press,Smoke Comp,Smoke Meas,CO Meter,CO2 Meter,O2 Meter,Sample Mass,Ext Coeff,Start Test,Flame Verif
Chan Gain,,500,500,1,1,1,1,1,1,1,1,1.0,1.0
Offset,,0,0,0.136092,0,0,0,0,0,0,0,0.0,0.0
Gain,,1,1,25.011,15.4219,15.1528,1,1,1,1.00089,1.02113,1.0,1.0
Units,sec,C,C,Pa,%,%,%,%,%,g,/m,,
Baseline,,25.2804,25.3893,161.694,116.215,113.946,-0.00984971,0.0421509,21.0098,-0.00225198,0.176702,,
8,1.75,23.6625,23.8183,162.126,115.949,113.141,-0.00995848,0.0539672,20.9945,908.134,0.219542,0.0,0.0
16,3.75,23.4749,23.4175,165.977,115.989,113.94,-0.00991689,0.05281,20.9963,908.054,0.159629,0.0,0.0
24,5.75,23.6429,23.3677,161.519,116.031,114.303,-0.00985693,0.0514588,20.9988,908.084,0.134372,0.0,0.0
32,7.75,23.6675,23.9321,162.253,116.093,113.973,-0.00979221,0.0500683,21.0002,908.114,0.165077,0.0,0.0
40,9.75,23.9052,23.7299,163.473,116.125,114.089,-0.00970845,0.0488514,21.0021,908.084,0.158392,0.0,0.0
48,11.75,23.6058,23.7782,161.658,116.147,113.914,-0.009733,0.0472043,21.0036,908.094,0.173906,0.0,0.0
56,13.75,23.7028,23.7436,166.173,116.19,113.937,-0.00987964,0.0458072,21.0052,908.094,0.175389,0.0,0.0
64,15.75,23.4892,23.2033,161.205,116.23,114.091,-0.0100158,0.0450949,21.0062,908.114,0.166412,0.0,0.0
72,17.75,23.4925,23.7708,162.953,116.265,114.325,-0.0101023,0.044568,21.0076,908.104,0.15078,0.0,0.0
80,19.75,23.2661,24.2173,161.722,116.265,113.819,-0.0100586,0.0440687,21.0082,908.104,0.190504,0.0,0.0
88,21.75,23.8887,23.9507,163.988,116.269,114.263,-0.00982101,0.0436979,21.0085,908.074,0.155853,0.0,0.0
96,23.75,23.1741,23.9092,161.169,116.261,114.312,-0.00968049,0.0434807,21.0094,908.094,0.151432,0.0,0.0
104,25.75,23.7904,23.9839,159.746,116.25,113.383,-0.00968654,0.043093,21.0104,908.084,0.223727,0.0,0.0
112,27.75,23.8401,24.1591,160.041,116.221,113.739,-0.00983229,0.0428051,21.0104,908.094,0.193393,0.0,0.0
120,29.75,23.619,24.4806,160.786,116.165,113.976,-0.00997461,0.0425486,21.0103,908.034,0.17034,0.0,0.0
128,31.75,23.5564,24.1823,161.925,116.106,113.944,-0.00993694,0.0427421,21.011,908.074,0.168384,0.0,0.0
136,33.75,23.9563,24.3523,156.268,116.033,114.146,-0.00977641,0.0429639,21.0113,908.074,0.146883,0.0,0.0
144,35.75,24.0381,23.961,161.747,115.937,114.259,-0.0096567,0.0430965,21.0115,908.064,0.130581,0.0,0.0
152,37.75,23.5819,24.0279,159.972,115.833,113.695,-0.00962583,0.0433919,21.0113,908.044,0.166878,0.0,0.0
160,39.75,23.7824,23.666,163.162,115.708,113.611,-0.00960301,0.0435878,21.011,908.054,0.163826,0.0,0.0
168,41.75,23.6512,24.3828,157.647,115.596,113.108,-0.00965186,0.0437104,21.0098,908.074,0.194906,0.0,0.0
176,43.75,24.0013,24.1495,163.378,115.569,113.914,-0.00965154,0.0439829,21.0091,908.054,0.12915,0.0,0.0
184,45.75,23.7139,24.8293,164.193,115.587,113.685,-0.00968348,0.0442352,21.0087,908.044,0.148626,0.0,0.0
192,47.75,23.7072,24.1334,160.561,115.621,113.327,-0.00970332,0.0444094,21.0086,908.044,0.179533,0.0,0.0
200,49.75,24.2599,24.4126,161.965,115.638,113.272,-0.00965555,0.0446505,21.0089,908.054,0.185123,0.0,0.0
208,51.75,23.6591,24.5781,161.429,115.687,113.198,-0.00964948,0.0448341,21.0091,908.084,0.194839,0.0,0.0
216,53.75,24.0882,24.3391,162.689,115.726,113.363,-0.0096976,0.0451007,21.0079,908.054,0.184809,0.0,0.0
224,55.75,24.2888,24.597,163.13,115.767,113.634,-0.00974334,0.0452666,21.0069,908.064,0.16663,0.0,0.0
232,57.75,23.4737,24.1616,159.528,115.828,113.896,-0.0097047,0.0452421,21.0065,908.074,0.150681,0.0,0.0
240,59.75,23.5768,23.8655,161.411,115.889,113.906,-0.00965255,0.044946,21.0072,908.044,0.154575,0.0,0.0
248,61.75,23.9569,24.1217,162.236,115.938,113.486,-0.00964215,0.0448017,21.0075,908.044,0.191473,0.0,0.0
256,63.75,23.8188,24.6212,159.992,116.002,113.635,-0.0096327,0.0445876,21.0076,908.024,0.184672,0.0,0.0
264,65.75,23.6537,24.364,168.001,116.076,114.136,-0.00967734,0.0445193,21.0076,908.024,0.150987,0.0,0.0
272,67.75,23.58,23.6586,163.655,116.142,113.975,-0.00978188,0.044396,21.0077,908.004,0.168671,0.0,0.0
280,69.75,24.1116,24.7462,165.003,116.181,114.415,-0.00996369,0.0442746,21.0077,908.024,0.137188,0.0,0.0
288,71.75,23.8265,24.3026,159.094,116.228,113.919,-0.0100626,0.0441359,21.0077,908.034,0.179709,0.0,0.0
296,73.75,23.7905,23.6318,161.115,116.286,114.153,-0.010083,0.0440658,21.0077,908.024,0.16579,0.0,0.0
304,75.75,23.8432,24.2951,162.322,116.329,113.584,-0.0100346,0.0439655,21.0085,908.034,0.21394,0.0,0.0
312,77.75,23.7446,24.2312,159.434,116.366,114.253,-0.00995291,0.043916,21.0082,908.014,0.164153,0.0,0.0
320,79.75,23.9298,23.9676,165.473,116.409,114.511,-0.00984117,0.0439628,21.0081,908.014,0.147206,0.0,0.0
328,81.75,23.5974,24.1594,160.097,116.428,114.773,-0.0096608,0.0438625,21.0081,908.014,0.128241,0.0,0.0
336,83.75,23.3988,24.4734,161.045,116.431,113.998,-0.00951806,0.0437363,21.008,908.014,0.189113,0.0,0.0
344,85.75,23.6506,24.5978,160.765,116.454,114.238,-0.00958854,0.0433547,21.009,908.004,0.172085,0.0,0.0
352,87.75,23.7166,24.2411,160.519,116.451,113.587,-0.00974907,0.04302,21.0098,907.994,0.223066,0.0,0.0
360,89.75,23.7054,24.7769,161.344,116.408,113.891,-0.00991049,0.0428365,21.0101,907.974,0.195773,0.0,0.0
368,91.75,23.7962,24.7045,161.556,116.387,114.018,-0.00996005,0.042687,21.0102,907.944,0.184146,0.0,0.0
376,93.75,24.2436,24.5261,160.854,116.335,114.253,-0.0098918,0.0426601,21.0103,907.954,0.161798,0.0,0.0
384,95.75,23.3216,24.5111,162.698,116.287,114.084,-0.00981648,0.0425968,21.009,907.944,0.171344,0.0,0.0
392,97.75,24.3667,24.915,168.484,116.234,113.992,-0.00977521,0.0424045,21.0084,907.954,0.17451,0.0,0.0
400,99.75,23.9343,24.5721,160.325,116.148,114.06,-0.00971499,0.0422488,21.0092,907.944,0.162495,0.0,0.0
408,101.75,23.9702,24.5142,160.875,116.087,113.451,-0.00962801,0.0420687,21.0102,907.934,0.205766,0.0,0.0
416,103.75,24.0933,24.6765,159.971,116.019,114.141,-0.00969893,0.0420078,21.0107,907.904,0.146227,0.0,0.0
424,105.75,24.4367,24.4337,165.743,115.948,113.668,-0.00985565,0.0421035,21.0109,907.894,0.177941,0.0,0.0
432,107.75,24.4085,24.9584,162.766,115.858,114.081,-0.00994498,0.0421179,21.01,907.884,0.138403,0.0,0.0
440,109.75,24.2546,24.2304,162.603,115.782,113.629,-0.00994274,0.0420282,21.0092,907.874,0.168159,0.0,0.0
448,111.75,23.6264,25.4318,164.121,115.713,113.538,-0.00986799,0.0422104,21.0083,907.884,0.169989,0.0,0.0
456,113.75,24.137,24.8018,160.945,115.645,113.594,-0.00982634,0.0424094,21.0067,907.864,0.160255,0.0,0.0
464,115.75,24.2967,24.6321,162.513,115.575,113.369,-0.00987168,0.0423802,21.006,907.824,0.17267,0.0,0.0
472,117.75,24.053,24.6696,160.529,115.503,112.745,-0.0100468,0.0423512,21.0057,907.844,0.216474,0.0,0.0
480,119.75,24.6283,24.6978,165.065,115.44,112.455,-0.0102255,0.0423551,21.0056,907.844,0.234684,0.0,0.0
488,121.75,24.3339,25.0317,166.615,115.389,112.594,-0.0102172,0.0423439,21.0055,907.824,0.219623,0.0,0.0
496,123.75,24.0265,24.4557,158.906,115.35,112.762,-0.0101035,0.042469,21.0077,907.814,0.203246,0.0,0.0
504,125.75,23.8559,25.1553,161.255,115.325,113.065,-0.0100964,0.0425251,21.0088,907.804,0.177208,0.0,0.0
512,127.75,24.3522,24.8522,158.091,115.288,112.978,-0.0101751,0.0425654,21.0093,907.804,0.181246,0.0,0.0
520,129.75,24.15,25.0624,154.084,115.237,112.587,-0.010251,0.0427399,21.0095,907.824,0.208366,0.0,0.0
528,131.75,24.5934,24.2988,164.019,115.196,113.118,-0.0102425,0.0427987,21.0096,907.804,0.163084,0.0,0.0
536,133.75,24.6892,25.3853,158.031,115.149,112.282,-0.0101601,0.042716,21.0103,907.784,0.225873,0.0,0.0
544,135.75,24.2173,24.9454,161.595,115.115,112.465,-0.0101034,0.0426225,21.0108,907.784,0.208604,0.0,0.0
552,137.75,24.5132,25.4118,160.337,115.08,112.263,-0.0100586,0.0425721,21.011,907.784,0.221966,0.0,0.0
560,139.75,24.8377,24.9947,165.189,115.033,111.839,-0.00997691,0.0425081,21.011,907.774,0.252236,0.0,0.0
568,141.75,24.4505,25.2206,160.153,114.998,112.316,-0.00982596,0.0425263,21.0111,907.754,0.211348,0.0,0.0
576,143.75,24.2855,25.3939,158.369,114.951,111.961,-0.00974631,0.0424323,21.0111,907.774,0.23605,0.0,0.0
584,145.75,24.1224,24.7569,162.354,114.91,112.197,-0.00981883,0.0424994,21.0094,907.774,0.21401,0.0,0.0
592,147.75,24.1156,25.0097,163.073,114.876,111.711,-0.00996149,0.0427164,21.008,907.744,0.250291,0.0,0.0
600,149.75,23.8516,24.9652,161.53,114.825,111.281,-0.00997498,0.0429335,21.0075,907.734,0.280802,0.0,0.0
608,151.75,24.6198,25.319,162.108,114.804,111.53,-0.00983696,0.043166,21.0063,907.714,0.259147,0.0,0.0
616,153.75,24.728,25.1222,160.493,114.782,111.484,-0.00975996,0.043429,21.0054,907.684,0.261172,0.0,0.0
624,155.75,24.5909,25.3294,163.096,114.736,111.697,-0.00982962,0.0436465,21.005,907.664,0.24046,0.0,0.0
632,157.75,24.5019,25.3249,159.495,114.712,111.736,-0.00976722,0.0437698,21.0048,907.664,0.235435,0.0,0.0
640,159.75,24.4543,25.2759,163.873,114.673,111.179,-0.00957742,0.0437902,21.0048,907.664,0.277166,0.0,0.0
648,161.75,24.8374,25.9153,160.938,114.597,110.935,-0.00947444,0.0438783,21.0047,907.664,0.2909,0.0,0.0
656,163.75,25.2236,25.2915,157.584,114.546,111.536,-0.00950414,0.0439914,21.0047,907.654,0.238518,0.0,0.0
664,165.75,24.2932,26.0191,161.077,114.462,111.697,-0.00955196,0.0438662,21.0051,907.634,0.219088,0.0,0.0
672,167.75,24.2227,25.4097,163.644,114.414,111.723,-0.00950778,0.0437683,21.0054,907.624,0.213254,0.0,0.0
680,169.75,24.6061,25.2811,162.152,114.358,111.557,-0.00943685,0.0437023,21.0064,907.614,0.222076,0.0,0.0
688,171.75,25.1535,25.3618,163.501,114.297,110.467,-0.00941726,0.0437538,21.0079,907.614,0.305302,0.0,0.0
696,173.75,24.8592,25.9265,160.817,114.238,111.191,-0.00945863,0.0437012,21.0084,907.574,0.242201,0.0,0.0
704,175.75,24.2718,25.4829,156.67,114.195,111.163,-0.00956492,0.0435849,21.0086,907.554,0.241041,0.0,0.0
712,177.75,24.4041,25.5622,157.188,114.158,110.813,-0.00977558,0.0436204,21.0087,907.534,0.266338,0.0,0.0
720,179.75,24.9276,25.9557,159.016,114.124,110.319,-0.0100658,0.0435935,21.0085,907.544,0.303763,0.0,0.0
728,181.75,23.7258,25.6967,162.819,114.093,110.438,-0.0103231,0.0435188,21.0073,907.534,0.291643,0.0,0.0
736,183.75,25.1961,24.8443,162.496,114.063,111.109,-0.0102626,0.0435549,21.0078,907.524,0.235022,0.0,0.0
744,185.75,24.69,24.8063,162.329,114.032,111.155,-0.0100748,0.0435532,21.0085,907.504,0.228855,0.0,0.0
752,187.75,24.8505,25.6053,158.298,114.019,110.828,-0.00990219,0.043403,21.0092,907.514,0.254242,0.0,0.0
760,189.75,24.6869,25.8434,162.409,113.998,110.898,-0.00982031,0.0431471,21.0094,907.504,0.246936,0.0,0.0
768,191.75,24.3364,25.5914,159.017,113.994,111.04,-0.00983213,0.0430154,21.0087,907.504,0.235144,0.0,0.0
776,193.75,24.6272,25.583,160.893,113.998,110.791,-0.00977518,0.0429751,21.0074,907.494,0.255605,0.0,0.0
784,195.75,24.1155,25.7042,159.629,114.012,110.767,-0.0095793,0.0428982,21.0075,907.464,0.258696,0.0,0.0
792,197.75,24.9042,25.2545,159.83,114.051,110.674,-0.00955724,0.0428503,21.0069,907.434,0.269172,0.0,0.0
800,199.75,24.6196,25.4697,158.658,114.082,110.539,-0.00968244,0.0428429,21.0079,907.384,0.282584,0.0,0.0
808,201.75,24.4628,25.7356,159.401,114.101,111.385,-0.00979652,0.0427246,21.0072,907.344,0.215787,0.0,0.0
816,203.75,25.0756,25.5678,161.677,114.139,111.248,-0.00990401,0.0424769,21.0067,907.304,0.22983,0.0,0.0
824,205.75,24.8805,25.0677,163.505,114.196,111.836,-0.00999386,0.0423282,21.0065,907.294,0.1871,0.0,0.0
832,207.75,24.4237,25.8053,161.921,114.239,111.35,-0.0099727,0.0420402,21.0071,907.364,0.229433,0.0,0.0
840,209.75,24.2564,25.5961,157.111,114.298,111.275,-0.00994389,0.0417455,21.008,907.374,0.240035,0.0,0.0
848,211.75,23.9346,25.4707,159.6875,114.33,111.69,-0.0100349,0.0413412,21.0084,907.364,0.209216,0.0,0.0
856,213.75,24.4246,25.6826,162.683,114.381,111.563,-0.0101997,0.041149,21.0086,907.404,0.223438,0.0,0.0
864,215.75,24.3561,25.0025,161.068,114.423,111.59,-0.0102831,0.0411353,21.0094,907.364,0.224601,0.0,0.0
872,217.75,24.9277,25.0605,158.902,114.469,111.574,-0.0101737,0.0410698,21.0096,907.354,0.22951,0.0,0.0
880,219.75,24.6848,25.3205,158.906,114.531,112.207,-0.0100459,0.0412068,21.0097,907.354,0.183579,0.0,0.0
888,221.75,24.9489,26.0598,163.831,114.568,110.936,-0.00993689,0.0414315,21.0098,907.344,0.288507,0.0,0.0
896,223.75,25.1853,25.8359,161.501,114.634,111.741,-0.00990996,0.0415585,21.0098,907.334,0.228961,0.0,0.0
904,225.75,25.0064,26.3194,161.203,114.7,111.988,-0.00997806,0.0417521,21.0098,907.304,0.214372,0.0,0.0
912,227.75,25.0946,25.8161,158.542,114.796,111.348,-0.0100469,0.0419133,21.01,907.304,0.273167,0.0,0.0
920,229.75,24.9829,25.5189,161.267,114.848,111.834,-0.01007,0.0418787,21.0104,907.314,0.238194,0.0,0.0
928,231.75,24.8177,25.7854,158.201,114.909,112.093,-0.00996449,0.0418777,21.0093,907.294,0.222247,0.0,0.0
936,233.75,24.5494,26.1919,165.047,114.96,111.255,-0.00987122,0.0418984,21.0088,907.254,0.293381,0.0,0.0
944,235.75,25.0194,25.7831,163.04,115.019,112.314,-0.00990919,0.0418115,21.0085,907.273,0.213183,0.0,0.0
952,237.75,25.2258,25.9518,162.93,115.071,111.842,-0.00996069,0.0418936,21.0085,907.284,0.254909,0.0,0.0
960,239.75,24.6562,25.6965,159.955,115.1,111.641,-0.00989329,0.0421067,21.0088,907.273,0.273268,0.0,0.0
968,241.75,24.9992,26.0179,157.115,115.136,111.703,-0.00980172,0.0424246,21.0089,907.273,0.271118,0.0,0.0
976,243.75,24.9466,26.2292,157.199,115.165,111.591,-0.00971334,0.0423054,21.0103,907.273,0.282329,0.0,0.0
984,245.75,24.8855,26.0674,157.197,115.217,112.709,-0.00964816,0.0423253,21.0109,907.264,0.197123,0.0,0.0
992,247.75,24.9944,25.8457,160.772,115.266,111.89,-0.00961584,0.042622,21.0111,907.264,0.266286,0.0,0.0
1000,249.75,24.4828,25.8594,161.97,115.301,110.612,-0.00963823,0.0436763,21.0094,907.264,0.371939,0.0,0.0
1008,251.75,24.8879,25.6427,163.634,115.319,111.761,-0.00979751,0.044783,21.0081,907.254,0.280751,0.0,0.0
1016,253.75,24.2914,25.0737,162.477,115.356,111.828,-0.00994557,0.0445515,21.0068,907.244,0.278267,0.0,0.0
1024,255.75,25.1966,25.7746,161.801,115.407,112.295,-0.0100095,0.0437512,21.0062,907.254,0.244807,0.0,0.0
1032,257.75,24.8783,25.8895,160.871,115.433,111.85,-0.00997288,0.04309,21.007,907.254,0.282444,0.0,0.0
1040,259.75,24.8385,25.2749,158.891,115.49,112.183,-0.00988141,0.0429095,21.008,907.233,0.260239,0.0,0.0
1048,261.75,25.2225,25.9257,167.277,115.526,112.17,-0.00979569,0.0428194,21.0088,907.203,0.264083,0.0,0.0
1056,263.75,24.7861,26.6032,159.184,115.546,112.193,-0.00977455,0.0427861,21.0093,907.173,0.263805,0.0,0.0
1064,265.75,25.2585,26.3842,162.331,115.586,112.834,-0.00986376,0.042638,21.0095,907.203,0.215882,0.0,0.0
1072,267.75,24.5395,25.9298,157.509,115.608,112.942,-0.00998763,0.0424671,21.0091,907.213,0.208972,0.0,0.0
1080,269.75,24.9065,25.7685,158.359,115.623,112.474,-0.0100828,0.0422359,21.0079,907.203,0.247405,0.0,0.0
1088,271.75,25.189,26.0297,161.379,115.653,112.808,-0.0101994,0.0420327,21.0071,907.183,0.223115,0.0,0.0
1096,273.75,24.764,25.8131,160.284,115.646,113.049,-0.0102792,0.0419367,21.008,907.093,0.203386,0.0,0.0
1104,275.75,25.279,26.014,160.123,115.647,112.955,-0.0102287,0.0418524,21.0098,907.093,0.210973,0.0,0.0
1112,277.75,25.0321,25.8984,159.613,115.647,113.256,-0.0100839,0.0417601,21.0105,907.143,0.187131,0.0,0.0
1120,279.75,25.2528,25.9984,162.138,115.662,112.538,-0.00996533,0.0416197,21.0112,907.173,0.245276,0.0,0.0
1128,281.75,24.5034,25.5438,157.894,115.667,113.23,-0.00995802,0.0415459,21.0116,907.163,0.190784,0.0,0.0
1136,283.75,25.1619,25.1755,165.231,115.675,113.213,-0.0100193,0.041396,21.0118,907.153,0.192648,0.0,0.0
1144,285.75,25.3289,25.67,164.796,115.679,112.383,-0.010071,0.0414139,21.0112,907.163,0.258963,0.0,0.0
1152,287.75,25.1472,26.3816,160.441,115.652,112.149,-0.0100491,0.0413616,21.0109,907.153,0.275446,0.0,0.0
1160,289.75,25.4661,25.9551,153.552,115.647,112.256,-0.00991909,0.0413032,21.0108,907.133,0.266626,0.0,0.0
1168,291.75,25.3343,25.9274,161.339,115.639,113.038,-0.00975,0.0412729,21.0107,907.133,0.203792,0.0,0.0
1176,293.75,24.4177,26.0845,158.61,115.641,113.188,-0.00965657,0.0414373,21.0107,907.133,0.191999,0.0,0.0
1184,295.75,25.3206,26.0314,162.395,115.606,112.137,-0.00964907,0.0414399,21.0107,907.103,0.272906,0.0,0.0
1192,297.75,24.9021,26.081,161.319,115.586,111.865,-0.00962595,0.0415839,21.0107,907.093,0.29312,0.0,0.0
1200,299.75,25.2003,26.1421,158.27,115.551,112.76,-0.00951545,0.0420169,21.0097,907.113,0.219021,0.0,0.0
1208,301.75,24.8293,26.5225,164.419,115.519,109.712,-0.00936171,0.045324,21.0076,907.113,0.461947,0.0,0.0
1216,303.75,25.1968,26.0509,159.444,115.492,111.698,-0.0093604,0.0472059,21.0067,907.123,0.299126,0.0,0.0
1224,305.75,25.0874,26.1288,160.33,115.454,111.471,-0.00954331,0.0465968,21.0063,907.113,0.314506,0.0,0.0
1232,307.75,25.0962,26.1947,160.265,115.426,112.538,-0.0098228,0.045045,21.0075,907.113,0.22696,0.0,0.0
1240,309.75,25.2647,26.5956,158.778,115.4,111.816,-0.010061,0.0436757,21.0084,907.103,0.282591,0.0,0.0
1248,311.75,24.7688,26.0577,161.257,115.364,112.481,-0.0100642,0.0429335,21.0084,907.113,0.226704,0.0,0.0
1256,313.75,24.635,25.8517,158.762,115.358,111.801,-0.0100097,0.0424215,21.0088,907.083,0.280599,0.0,0.0
1264,315.75,24.9923,25.9221,159.995,115.326,111.883,-0.0100772,0.0420961,21.0096,907.033,0.271448,0.0,0.0
1272,317.75,25.6068,26.2255,160.322,115.334,112.136,-0.0101227,0.042016,21.0101,906.933,0.251914,0.0,0.0
1280,319.75,24.7506,26.293,159.584,115.482,112.85,-0.0100129,0.0418744,21.0103,907.013,0.206533,0.0,0.0
1288,321.75,24.8791,25.919,162.822,115.603,113.205,-0.0098938,0.0417521,21.0113,907.043,0.187728,0.0,0.0
1296,323.75,25.174,26.0824,161.455,115.71,113.327,-0.00989516,0.0415419,21.0122,907.053,0.186421,0.0,0.0
1304,325.75,25.024,26.248,160.451,115.805,112.967,-0.009912,0.0414679,21.0125,907.023,0.222259,0.0,0.0
1312,327.75,25.1146,26.1137,162.78,115.899,113.254,-0.00980797,0.0414483,21.0127,907.033,0.206832,0.0,0.0
1320,329.75,25.1947,26.4714,162.669,115.968,113.816,-0.00971964,0.0413197,21.0127,907.033,0.167778,0.0,0.0
1328,331.75,25.0487,26.4325,158.863,116.033,112.898,-0.00979445,0.0414387,21.0114,907.033,0.245361,0.0,0.0
1336,333.75,24.993,26.2245,161.424,116.084,113.106,-0.00992051,0.0413699,21.0111,907.083,0.23279,0.0,0.0
1344,335.75,25.2939,26.5734,159.807,116.139,112.622,-0.00988738,0.0414199,21.011,907.063,0.275389,0.0,0.0
1352,337.75,25.293,26.0597,160.316,116.169,113.151,-0.00972054,0.041651,21.0109,907.003,0.235809,0.0,0.0
1360,339.75,24.8383,26.4547,157.105,116.201,112.79,-0.00955302,0.0426924,21.0109,907.003,0.266876,0.0,0.0
1368,341.75,25.2444,26.3353,160.919,116.243,112.723,-0.00951095,0.0432976,21.0111,907.033,0.275467,0.0,0.0
1376,343.75,25.264,26.6491,162.792,116.259,113.655,-0.00958572,0.043072,21.0123,907.023,0.202961,0.0,0.0
1384,345.75,25.1209,26.3536,160.367,116.261,113.055,-0.00973651,0.0424268,21.0128,907.003,0.250463,0.0,0.0
1392,347.75,25.097,25.3823,162.9,116.269,113.228,-0.00997656,0.0420584,21.013,907.013,0.237352,0.0,0.0
1400,349.75,25.0536,26.1462,157.336,116.26,113.343,-0.0102171,0.0417354,21.012,907.003,0.227594,0.0,0.0
1408,351.75,24.9101,25.8621,154.855,116.247,113.551,-0.0103245,0.0414031,21.0114,906.993,0.210222,0.0,0.0
1416,353.75,25.7558,26.1058,160.482,116.24,113.741,-0.0103365,0.0413872,21.0119,907.003,0.194699,0.0,0.0
1424,355.75,24.7637,26.2843,156.675,116.21,113.655,-0.0103496,0.0413277,21.0112,907.023,0.199116,0.0,0.0
1432,357.75,25.0106,26.1122,157.55,116.191,113.48,-0.0104096,0.0412122,21.0109,907.003,0.211452,0.0,0.0
1440,359.75,24.7547,25.8803,157.941,116.168,113.115,-0.0103957,0.0411413,21.0108,907.003,0.238556,0.0,0.0
1448,361.75,24.9774,25.8527,156.251,116.135,113.47,-0.0102364,0.0409456,21.0107,906.973,0.207937,0.0,0.0
1456,363.75,25.2526,26.1838,162.331,116.118,113.795,-0.0101017,0.0409183,21.0103,906.973,0.181004,0.0,0.0
1464,365.75,25.657,26.4777,162.26,116.059,113.703,-0.0100877,0.0409812,21.01,906.973,0.183674,0.0,0.0
1472,367.75,25.0444,26.1446,164.115,116.008,113.918,-0.0102314,0.0409661,21.0099,906.953,0.162828,0.0,0.0
1480,369.75,24.8729,26.2509,160.158,115.961,113.515,-0.0102661,0.0409104,21.0098,906.943,0.190956,0.0,0.0
1488,371.75,25.2904,26.5501,157.045,115.919,113.464,-0.010105,0.0409176,21.0098,906.953,0.191771,0.0,0.0
1496,373.75,25.6889,26.3708,161.113,115.891,113.546,-0.00995272,0.0409341,21.0098,906.963,0.183093,0.0,0.0
1504,375.75,25.5817,26.3014,157.639,115.835,113.768,-0.00987929,0.0411244,21.0102,906.963,0.161306,0.0,0.0
1512,377.75,25.4717,26.0828,162.407,115.796,114.081,-0.00984474,0.0411118,21.011,906.923,0.133599,0.0,0.0
1520,379.75,25.3473,26.289,160.4,115.761,113.749,-0.00984103,0.0410561,21.0118,906.953,0.157084,0.0,0.0
1528,381.75,25.0323,26.6817,160.368,115.74,113.249,-0.0098523,0.0409793,21.0121,906.923,0.194895,0.0,0.0
1536,383.75,25.2561,26.2187,159.641,115.718,113.918,-0.00976873,0.041039,21.0132,906.913,0.140452,0.0,0.0
1544,385.75,25.2723,26.4961,160.18,115.695,112.914,-0.00972067,0.04093,21.0138,906.923,0.217917,0.0,0.0
1552,387.75,25.4137,26.7459,159.288,115.686,113.237,-0.00975027,0.0408156,21.013,906.913,0.191583,0.0,0.0
1560,389.75,25.663,26.7551,162.832,115.683,112.895,-0.00973334,0.0407017,21.0126,906.913,0.218547,0.0,0.0
1568,391.75,24.9732,26.7384,158.666,115.683,113.599,-0.00964496,0.0406866,21.0114,906.903,0.162879,0.0,0.0
1576,393.75,25.2921,26.9817,158.944,115.692,113.451,-0.00962933,0.0407541,21.0106,906.883,0.175174,0.0,0.0
1584,395.75,24.9668,26.236,158.259,115.718,113.719,-0.00970448,0.0407996,21.0115,906.863,0.1561,0.0,0.0
1592,397.75,24.5938,25.8496,161.875,115.725,113.738,-0.00976233,0.0407638,21.0119,906.833,0.155079,0.0,0.0
1600,399.75,25.1644,26.3475,161.591,115.735,112.711,-0.00977261,0.0406816,21.0122,906.843,0.237169,0.0,0.0
1608,401.75,25.4078,26.6646,158.99,115.732,113.84,-0.00981609,0.0408012,21.0125,906.863,0.14769,0.0,0.0
1616,403.75,25.1013,25.9496,158.044,115.744,113.262,-0.00990708,0.0407516,21.0118,906.873,0.194198,0.0,0.0
1624,405.75,25.1291,26.341,163.415,115.758,113.645,-0.00992028,0.0407156,21.0125,906.913,0.165063,0.0,0.0
1632,407.75,24.9427,26.2981,161.847,115.778,113.264,-0.00989336,0.0408909,21.0141,906.903,0.196639,0.0,0.0
1640,409.75,25.3491,25.7641,155.584,115.795,113.778,-0.00996624,0.0407998,21.0152,906.883,0.157374,0.0,0.0
1648,411.75,24.879,26.2869,157.078,115.789,113.474,-0.010081,0.0407008,21.0156,906.883,0.180852,0.0,0.0
1656,413.75,25.8943,26.5699,165.109,115.807,113.671,-0.0101478,0.0409887,21.0146,906.873,0.166771,0.0,0.0
1664,415.75,25.2703,26.1907,160.787,115.839,113.799,-0.0101417,0.0415417,21.013,906.863,0.159159,0.0,0.0
1672,417.75,25.6111,26.4047,158.972,115.86,113.77,-0.0100884,0.0419741,21.0113,906.843,0.163016,0.0,0.0
1680,419.75,25.1925,26.0798,156.805,115.896,113.532,-0.00999444,0.0460911,21.0052,906.863,0.184587,0.0,0.0
1688,421.75,24.905,26.0726,158.313,115.938,112.267,-0.00990222,0.057964,20.9875,906.893,0.28824,0.0,0.0
1696,423.75,25.689,26.0858,163.226,115.95,113.63,-0.00983208,0.0686477,20.979,906.903,0.181038,0.0,0.0
1704,425.75,25.2311,26.1919,160.222,115.98,113.383,-0.00969232,0.0687878,20.9785,906.933,0.202888,0.0,0.0
1712,427.75,25.5628,27.0196,159.529,116.004,113.66,-0.00952738,0.0618382,20.9873,906.963,0.182885,0.0,0.0
1720,429.75,25.3651,27.2755,162.132,116.028,113.786,-0.00948874,0.0556222,20.9945,906.933,0.174759,0.0,0.0
1728,431.75,25.6462,26.8891,161.258,116.045,114.551,-0.00959622,0.0514045,20.9994,906.923,0.116023,0.0,0.0
1736,433.75,25.6522,27.7388,159.054,116.065,113.718,-0.00971551,0.0485772,21.002,906.933,0.183017,0.0,0.0
1744,435.75,25.8635,26.7639,162.966,116.072,113.558,-0.00981255,0.0469563,21.0044,906.843,0.196138,0.0,0.0
1752,437.75,25.5784,27.254,160.829,116.104,113.886,-0.00980993,0.045877,21.0053,906.903,0.17282,0.0,0.0
1760,439.75,25.7477,27.0101,161.029,116.14,114.75,-0.00976952,0.0453082,21.006,906.883,0.107823,0.0,0.0
1768,441.75,25.3573,26.6531,161.592,116.144,113.557,-0.00977333,0.0450837,21.0066,906.863,0.201803,0.0,0.0
1776,443.75,25.8183,26.9751,162.264,116.169,113.906,-0.00988909,0.0447619,21.0073,906.923,0.176228,0.0,0.0
1784,445.75,25.7651,26.8029,160.246,116.187,114.429,-0.0100001,0.0444472,21.0076,906.933,0.136574,0.0,0.0
1792,447.75,25.1753,26.9175,161.516,116.207,114.372,-0.0100789,0.0444943,21.0081,906.873,0.142624,0.0,0.0
1800,449.75,25.5438,26.9449,160.798,116.219,114.191,-0.010077,0.0444441,21.0086,906.873,0.157702,0.0,0.0
1808,451.75,25.529,26.8125,159.118,116.218,114.337,-0.00993345,0.0443609,21.0087,906.843,0.146175,0.0,0.0
1816,453.75,25.8493,26.5146,162.054,116.219,114.317,-0.00977501,0.0442413,21.0088,906.873,0.147806,0.0,0.0
1824,455.75,25.5713,26.2413,160.552,116.205,114.735,-0.00971036,0.0442851,21.0089,906.863,0.114022,0.0,0.0
1832,457.75,25.4756,26.88,163.158,116.192,114.068,-0.00973492,0.0446249,21.0089,906.873,0.165252,0.0,0.0
1840,459.75,25.6708,26.8127,158.7,116.175,114.537,-0.00979446,0.0461646,21.007,906.823,0.127164,0.0,0.0
1848,461.75,25.4918,26.857,159.446,116.16,114.083,-0.00988118,0.0475916,21.0054,906.843,0.161659,0.0,0.0
1856,463.75,25.5068,26.9819,157.784,116.135,113.695,-0.00988176,0.0487653,21.0048,906.863,0.190213,0.0,0.0
1864,465.75,25.3606,26.4785,162.306,116.126,114.172,-0.00976397,0.0486441,21.0045,906.853,0.151932,0.0,0.0
1872,467.75,25.6333,26.4887,162.646,116.062,114.252,-0.0096943,0.048873,21.0039,906.843,0.140792,0.0,0.0
1880,469.75,25.1106,26.5319,162.715,115.982,114.106,-0.00981401,0.0496249,21.0033,906.833,0.146042,0.0,0.0
1888,471.75,25.7667,26.5179,155.976,115.913,114.016,-0.00997719,0.0495129,21.0039,906.843,0.147815,0.0,0.0
1896,473.75,25.3367,26.5393,160.242,115.823,113.873,-0.0100072,0.048525,21.0055,906.843,0.152098,0.0,0.0
1904,475.75,25.9296,26.6957,160.096,115.709,113.697,-0.0100381,0.0474934,21.0068,906.813,0.157119,0.0,0.0
1912,477.75,25.2277,26.5688,163.189,115.591,114.006,-0.0100662,0.0466415,21.0084,906.823,0.123704,0.0,0.0
1920,479.75,25.5012,26.8693,163.976,115.427,114.006,-0.00998173,0.0463465,21.0083,906.833,0.110931,0.0,0.0
1928,481.75,25.4186,26.8562,164.248,115.279,113.259,-0.00985664,0.0477678,21.0058,906.823,0.15836,0.0,0.0
1936,483.75,25.8784,26.99,161.917,115.307,112.919,-0.00974763,0.050008,21.0029,906.793,0.187475,0.0,0.0
1944,485.75,25.2549,27.4207,160.803,115.316,113.497,-0.00961318,0.0519952,21.0017,906.763,0.142398,0.0,0.0
1952,487.75,24.9603,26.9048,157.584,115.342,113.621,-0.00962921,0.051641,21.003,906.693,0.134634,0.0,0.0
1960,489.75,25.4491,26.5745,159.223,115.37,113.956,-0.00979008,0.0497082,21.0043,906.773,0.110435,0.0,0.0
1968,491.75,26.2479,26.1001,161.294,115.398,113.882,-0.00993901,0.0480723,21.0046,906.823,0.118445,0.0,0.0
1976,493.75,25.758,26.7641,157.86,115.442,113.643,-0.00994535,0.0480158,21.0033,906.823,0.140629,0.0,0.0
1984,495.75,26.0318,27.0603,159.347,115.467,113.433,-0.00985314,0.0492995,21.0017,906.793,0.1592,0.0,0.0
1992,497.75,25.3581,27.2149,158.327,115.489,114.015,-0.00981329,0.0505308,21.001,906.783,0.11506,0.0,0.0
2000,499.75,25.8525,27.1058,162.444,115.525,113.878,-0.0098678,0.0506656,21.0007,906.773,0.128594,0.0,0.0
2008,501.75,25.5284,26.6614,159.203,115.552,113.808,-0.00993206,0.0503669,21.0005,906.773,0.136204,0.0,0.0
2016,503.75,25.5763,27.1238,162.61,115.572,114.028,-0.0100116,0.0502504,21.0005,906.753,0.120464,0.0,0.0
2024,505.75,25.3703,27.0461,163.973,115.597,113.602,-0.0101618,0.0511146,20.9992,906.733,0.155916,0.0,0.0
2032,507.75,25.6255,27.2031,161.018,115.606,114.197,-0.0102851,0.0535128,20.996,906.733,0.109842,0.0,0.0
2040,509.75,25.8577,27.3324,160.371,115.629,114.228,-0.0102807,0.0546582,20.9945,906.733,0.109235,0.0,0.0
2048,511.75,25.7515,26.845,162.372,115.62,113.814,-0.01021,0.0544511,20.9936,906.723,0.141019,0.0,0.0
2056,513.75,25.8138,26.3477,155.93,115.624,114.401,-0.0101831,0.0545799,20.993,906.703,0.0952456,0.0,0.0
2064,515.75,25.3558,26.9368,162.889,115.622,113.647,-0.0102143,0.0547322,20.9929,906.683,0.154386,0.0,0.0
2072,517.75,25.3978,27.1128,160.11,115.593,113.746,-0.0102815,0.0546513,20.9919,906.693,0.144256,0.0,0.0
2080,519.75,25.7576,27.08,161.011,115.603,113.954,-0.0103192,0.0548014,20.9915,906.673,0.128687,0.0,0.0
2088,521.75,25.4773,26.8905,158.021,115.603,113.768,-0.010268,0.0555886,20.9903,906.673,0.143346,0.0,0.0
2096,523.75,25.8119,27.1659,161.913,115.591,113.502,-0.0101387,0.0568443,20.9899,906.673,0.163321,0.0,0.0
2104,525.75,25.7517,27.0951,163.492,115.576,113.95,-0.00992888,0.0578383,20.989,906.673,0.126934,0.0,0.0
2112,527.75,25.6879,27.1463,159.156,115.537,113.283,-0.00978627,0.0597044,20.9867,906.653,0.176477,0.0,0.0
2120,529.75,26.1901,27.2636,160.245,115.507,114.039,-0.00974368,0.0608097,20.9845,906.633,0.114594,0.0,0.0
2128,531.75,25.4292,27.2662,155.78,115.462,112.566,-0.0097903,0.0618641,20.9818,906.653,0.227491,0.0,0.0
2136,533.75,26.3805,27.2624,155.17,115.406,113.881,-0.00983451,0.0631672,20.9797,906.623,0.119175,0.0,0.0
2144,535.75,26.0312,27.5674,156.262,115.333,113.103,-0.00976487,0.0646179,20.978,906.633,0.174826,0.0,0.0
2152,537.75,26.3254,27.6232,159.121,115.245,113.502,-0.0097195,0.0670797,20.9756,906.653,0.136511,0.0,0.0
2160,539.75,26.1216,27.6728,157.621,115.175,113.239,-0.00976007,0.0681242,20.9738,906.593,0.151849,0.0,1.0
2168,541.75,26.3828,27.6564,156.814,115.066,113.264,-0.00978131,0.0691408,20.9712,906.583,0.141414,0.0,1.0
2176,543.75,26.1948,27.3719,159.974,114.977,112.1,-0.00971336,0.0711236,20.9683,906.573,0.226938,0.0,0.0
2184,545.75,26.6439,27.0086,157.461,114.877,112.408,-0.00961995,0.0728741,20.9644,906.553,0.194586,0.0,0.0
2192,547.75,25.6414,27.1006,156.132,114.773,111.526,-0.0094753,0.0773861,20.9571,906.533,0.257094,0.0,0.0
2200,549.75,26.445,27.7118,159.783,114.658,111.655,-0.00938843,0.081227,20.9514,906.523,0.237734,0.0,0.0
2208,551.75,26.2246,27.5536,159.36,114.554,110.776,-0.00938926,0.0858063,20.9451,906.503,0.300369,0.0,0.0
2216,553.75,26.3645,28.0442,154.071,114.452,110.709,-0.00933056,0.091895,20.9362,906.453,0.297802,0.0,0.0
2224,555.75,26.5016,28.1917,159.032,114.338,111.861,-0.00928178,0.0953355,20.9308,906.413,0.196168,0.0,0.0
2232,557.75,26.6184,28.2782,153.988,114.251,110.846,-0.00934021,0.0992919,20.9247,906.413,0.270993,0.0,0.0
2240,559.75,26.6227,28.5408,158.34,114.164,110.325,-0.00944267,0.105677,20.9164,906.373,0.306414,0.0,0.0
2248,561.75,27.5626,28.9833,154.764,114.096,109.769,-0.00943166,0.112225,20.909,906.353,0.346301,0.0,0.0
2256,563.75,27.8226,29.1375,153.584,114.036,108.942,-0.00928571,0.121645,20.8921,906.313,0.409295,0.0,0.0
2264,565.75,27.952,29.5194,151.185,113.987,108.523,-0.00915619,0.13244,20.8732,906.233,0.439926,0.0,0.0
2272,567.75,27.538,29.7208,152.501,113.955,107.921,-0.00908599,0.144338,20.8559,906.183,0.487243,0.0,0.0
2280,569.75,28.9458,30.2024,156.11,113.941,108.62,-0.00902352,0.156205,20.836,906.133,0.428402,0.0,0.0
2288,571.75,28.5912,30.5918,153.233,113.954,105.923,-0.00892601,0.167392,20.8186,906.092,0.654603,0.0,0.0
2296,573.75,29.2132,31.139,148.435,113.913,104.463,-0.00873227,0.18196,20.7945,906.002,0.775695,0.0,0.0
2304,575.75,29.7418,31.2059,150.871,113.956,106.23,-0.00843706,0.195312,20.773,905.912,0.628861,0.0,0.0
2312,577.75,30.5298,32.5924,147.873,113.992,105.439,-0.00827111,0.205429,20.7591,905.792,0.698598,0.0,0.0
2320,579.75,30.6894,32.9348,150.419,114.049,106.066,-0.00821017,0.211925,20.7489,905.732,0.649999,0.0,0.0
2328,581.75,31.3241,33.9201,155.244,114.117,104.303,-0.00805522,0.218886,20.7393,905.662,0.805471,0.0,0.0
2336,583.75,32.0123,34.0825,148.966,114.205,104.143,-0.00783132,0.23014,20.7263,905.642,0.82613,0.0,0.0
2344,585.75,32.2008,35.2232,145.739,114.326,103.623,-0.00766066,0.243163,20.7048,905.532,0.880468,0.0,0.0
2352,587.75,32.9445,35.7172,146.609,114.475,104.772,-0.00752117,0.255978,20.6861,905.422,0.793325,0.0,0.0
2360,589.75,33.9225,36.4077,146.046,114.661,103.311,-0.00734364,0.264686,20.6733,905.262,0.933627,0.0,0.0
2368,591.75,33.8042,37.2787,152.28,114.819,104.327,-0.00726139,0.270632,20.6612,905.222,0.858317,0.0,0.0
2376,593.75,34.7412,37.392,150.295,114.992,105.367,-0.00728609,0.279526,20.6461,905.122,0.782933,0.0,0.0
2384,595.75,34.802,38.1049,142.562,115.182,103.933,-0.00730708,0.288561,20.6329,905.042,0.920511,0.0,0.0
2392,597.75,35.7487,39.1285,141.947,115.366,105.214,-0.00719246,0.294542,20.6218,904.901,0.825088,0.0,0.0
2400,599.75,36.9715,40.2434,143.508,115.52,102.774,-0.00696971,0.304666,20.6021,904.831,1.04726,0.0,0.0
2408,601.75,37.0022,40.0198,145.316,115.679,104.436,-0.00661186,0.32119,20.5791,904.681,0.915897,0.0,0.0
2416,603.75,37.7422,41.2508,142.828,115.856,103.698,-0.00619569,0.339413,20.5537,904.551,0.993077,0.0,0.0
2424,605.75,38.9255,42.2603,141.051,116.019,100.702,-0.00586378,0.362323,20.5205,904.411,1.26826,0.0,0.0
2432,607.75,39.5624,43.2073,141.428,116.139,101.577,-0.00563846,0.383407,20.4868,904.201,1.20004,0.0,0.0
2440,609.75,40.4762,44.1164,140.084,116.239,100.995,-0.00550628,0.405703,20.4489,904.101,1.25914,0.0,0.0
2448,611.75,41.4519,45.5965,142.93,116.335,100.045,-0.00529827,0.422728,20.4198,903.911,1.35124,0.0,0.0
2456,613.75,42.7595,46.5442,139.948,116.376,100.474,-0.00509801,0.436525,20.3955,903.75,1.31602,0.0,0.0
2464,615.75,43.6942,47.8081,137.489,116.417,101.19,-0.0049492,0.450987,20.375,903.6,1.25562,0.0,0.0
2472,617.75,43.9869,48.6721,140.388,116.424,100.923,-0.0048215,0.465642,20.3497,903.4,1.27977,0.0,0.0
2480,619.75,45.6772,50.1482,134.912,116.437,99.4742,-0.00466425,0.482109,20.3199,903.22,1.41035,0.0,0.0
2488,621.75,46.0937,51.0434,136.553,116.399,102.291,-0.00455163,0.49863,20.2946,903.04,1.15727,0.0,0.0
2496,623.75,47.7728,52.3255,136.557,116.374,101.645,-0.00455674,0.514361,20.2714,902.79,1.21206,0.0,0.0
2504,625.75,48.5207,53.7349,141.98,116.293,99.9884,-0.00456129,0.527102,20.2534,902.649,1.35304,0.0,0.0
2512,627.75,49.2891,54.654,130.33,116.219,99.9427,-0.00456258,0.53915,20.2377,902.419,1.35149,0.0,0.0
2520,629.75,50.4551,56.3377,133.399,116.14,98.9577,-0.00443203,0.552047,20.2193,902.219,1.4341,0.0,0.0
2528,631.75,51.2495,57.298,134.7,116.042,99.1223,-0.0041268,0.564706,20.1989,902.089,1.41163,0.0,0.0
2536,633.75,52.3256,58.179,132.594,115.983,98.2113,-0.00382043,0.580877,20.1688,901.829,1.48982,0.0,0.0
2544,635.75,53.6022,59.3809,130.459,115.903,97.3244,-0.0035813,0.599449,20.142,901.639,1.56483,0.0,0.0
2552,637.75,54.6323,61.2182,131.313,115.821,96.782,-0.00330262,0.621306,20.1094,901.458,1.60856,0.0,0.0
2560,639.75,55.984,62.7053,129.518,115.75,98.8573,-0.00310917,0.641108,20.075,901.198,1.41305,0.0,0.0
2568,641.75,56.8102,63.7854,133.839,115.703,98.3667,-0.00306035,0.658989,20.0435,900.988,1.45401,0.0,0.0
2576,643.75,58.5292,65.5195,132.94,115.655,97.3942,-0.00306251,0.679602,20.0119,900.668,1.53925,0.0,0.0
2584,645.75,59.9038,67.3475,132.421,115.621,97.4349,-0.00292785,0.701399,19.976,900.488,1.53285,0.0,0.0
2592,647.75,60.8417,68.5225,129.623,115.59,98.7015,-0.00270814,0.725007,19.9403,900.227,1.41475,0.0,0.0
2600,649.75,62.2228,70.0243,133.087,115.563,98.0657,-0.00254892,0.745593,19.9128,899.917,1.4706,0.0,0.0
2608,651.75,63.4255,71.3705,124.998,115.579,96.603,-0.00239344,0.760472,19.8953,899.657,1.60641,0.0,0.0
2616,653.75,64.0979,72.4012,123.127,115.686,97.2328,-0.00226267,0.77525,19.8703,899.377,1.55647,0.0,0.0
2624,655.75,65.6786,74.1358,126.606,115.775,98.4481,-0.00220557,0.790063,19.8436,899.116,1.45218,0.0,0.0
2632,657.75,66.6961,75.7333,127.683,115.851,98.5253,-0.00220665,0.802057,19.828,898.786,1.45101,0.0,0.0
2640,659.75,67.7253,76.9674,125.166,115.925,99.8123,-0.00227243,0.811326,19.815,898.526,1.34044,0.0,0.0
2648,661.75,69.3157,78.8363,129.673,115.996,96.7981,-0.00231928,0.817563,19.8032,898.276,1.62059,0.0,0.0
2656,663.75,70.5027,80.0851,118.844,116.073,97.2398,-0.00219106,0.828592,19.7842,897.955,1.58581,0.0,0.0
2664,665.75,71.0835,81.0272,126.016,116.117,97.7161,-0.00189701,0.843961,19.7578,897.695,1.54539,0.0,0.0
2672,667.75,72.095,82.3655,115.646,116.161,97.4812,-0.00161002,0.865622,19.7229,897.355,1.57039,0.0,0.0
2680,669.75,73.8215,83.9422,117.893,116.196,97.6125,-0.00138382,0.884827,19.6949,897.094,1.56098,0.0,0.0
2688,671.75,75.1131,85.4971,118.614,116.216,96.5928,-0.00118602,0.904227,19.6667,896.814,1.65664,0.0,0.0
2696,673.75,76.5583,87.3076,124.434,116.259,95.354,-0.00107248,0.923575,19.6418,896.434,1.77553,0.0,0.0
2704,675.75,77.3638,88.487,119.514,116.252,95.5403,-0.00100236,0.943652,19.6106,896.124,1.75753,0.0,0.0
2712,677.75,78.3977,89.8162,118.215,116.267,97.188,-0.000776556,0.962828,19.5873,895.883,1.60554,0.0,0.0
2720,679.75,79.7055,91.407,114.146,116.302,96.2668,-0.000590987,0.981248,19.5555,895.493,1.69348,0.0,0.0
2728,681.75,81.2208,92.7717,121.615,116.288,97.3877,-0.000566899,0.995001,19.5332,895.263,1.58874,0.0,0.0
2736,683.75,82.4165,94.341,121.257,116.289,96.1179,-0.000532062,1.00488,19.5182,894.863,1.70637,0.0,0.0
2744,685.75,83.9909,96.3469,120.856,116.306,95.4104,-0.000406595,1.01401,19.5025,894.582,1.77385,0.0,0.0
2752,687.75,83.7408,95.9492,118.141,116.279,97.2509,-0.000318958,1.0264,19.4824,894.122,1.60065,0.0,0.0
2760,689.75,84.6762,98.0172,118.529,116.273,97.7642,-0.00018513,1.0464,19.4488,893.802,1.55306,0.0,0.0
2768,691.75,87.0794,100.118,114.001,116.274,96.7269,-3.66103e-05,1.07461,19.4074,893.531,1.64864,0.0,0.0
2776,693.75,88.789,101.821,118.829,116.255,94.978,0.000110814,1.09502,19.3757,893.191,1.81062,0.0,0.0
2784,695.75,88.6324,102.116,115.287,116.232,97.0802,0.000258387,1.11956,19.337,892.821,1.61279,0.0,0.0
2792,697.75,90.7916,104.554,109.411,116.243,97.1436,0.000302282,1.14662,19.3042,892.47,1.60774,0.0,0.0
2800,699.75,91.5382,105.552,112.913,116.234,96.382,0.000309082,1.1645,19.2797,892.03,1.67756,0.0,0.0
2808,701.75,93.3421,107.691,116.756,116.23,96.4338,0.000400925,1.17851,19.2554,891.7,1.67245,0.0,0.0
2816,703.75,94.1944,108.493,114.565,116.235,96.5392,0.000543033,1.197,19.2282,891.329,1.66303,0.0,0.0
2824,705.75,95.707,110.604,112.653,116.236,96.2904,0.000685766,1.21974,19.1942,891.029,1.68625,0.0,0.0
2832,707.75,97.2799,112.497,112.477,116.247,95.8617,0.000961577,1.24481,19.1567,890.659,1.72705,0.0,0.0
2840,709.75,98.2833,113.791,117.729,116.226,94.1258,0.00139664,1.26426,19.1269,890.289,1.88915,0.0,0.0
2848,711.75,99.6877,115.523,117.038,116.21,93.7581,0.00181399,1.27682,19.108,889.818,1.92297,0.0,0.0
2856,713.75,100.776,116.766,103.562,116.191,94.6969,0.00205062,1.30025,19.0742,889.408,1.83228,0.0,0.0
2864,715.75,101.906,118.285,112.448,116.184,95.5519,0.00202696,1.32232,19.0362,888.927,1.75119,0.0,0.0
2872,717.75,103.138,119.565,111.836,116.174,95.4682,0.00193916,1.33443,19.0155,888.587,1.75824,0.0,0.0
2880,719.75,104.868,121.591,115.134,116.165,93.3637,0.00211685,1.34354,19.0039,888.227,1.95725,0.0,0.0
2888,721.75,105.916,122.775,108.34,116.166,94.2516,0.00267619,1.37186,18.9667,887.736,1.87251,0.0,0.0
2896,723.75,106.782,124.031,112.384,116.164,95.0876,0.00313004,1.41831,18.9029,887.356,1.79325,0.0,0.0
2904,725.75,108.502,126.047,105.119,116.162,92.9147,0.00344164,1.44484,18.8654,886.976,2.00021,0.0,0.0
2912,727.75,109.713,127.567,108.912,116.18,93.6129,0.00371364,1.44832,18.844,886.535,1.93449,0.0,0.0
2920,729.75,110.843,129.042,105.493,116.184,91.9403,0.00381486,1.4642,18.8138,886.055,2.09634,0.0,0.0
2928,731.75,112.117,130.572,105.135,116.202,92.9591,0.00376544,1.49562,18.769,885.544,1.99898,0.0,0.0
2936,733.75,113.802,132.581,97.389,116.191,93.6129,0.00369334,1.5182,18.741,885.184,1.93533,0.0,0.0
2944,735.75,114.748,134.056,104.488,116.185,93.7581,0.00373814,1.53288,18.7281,884.724,1.92101,0.0,0.0
2952,737.75,116.643,135.919,112.144,116.178,93.1154,0.00387197,1.53142,18.7261,884.353,1.98212,0.0,0.0
2960,739.75,117.595,137.282,105.406,116.16,92.0633,0.00412641,1.52604,18.7284,883.803,2.08248,0.0,0.0
2968,741.75,118.618,138.5,105.649,116.18,91.7318,0.00461483,1.52632,18.7219,883.502,2.11632,0.0,0.0
2976,743.75,119.413,139.633,110.933,116.179,90.2257,0.00489696,1.54059,18.702,883.062,2.26454,0.0,0.0
2984,745.75,121.013,141.307,105.693,116.169,91.3762,0.00489849,1.55522,18.6863,882.582,2.15028,0.0,0.0
2992,747.75,122.109,142.724,106.99,116.156,89.0086,0.00493291,1.55483,18.6817,882.161,2.38441,0.0,0.0
3000,749.75,123.336,143.91,100.167,116.16,91.9084,0.00504716,1.54938,18.6868,881.701,2.0976,0.0,0.0
3008,751.75,124.148,144.953,104.933,116.16,88.9984,0.00529321,1.54987,18.689,881.26,2.3858,0.0,0.0
3016,753.75,125.152,146.01,106.537,116.179,91.0733,0.00561144,1.54666,18.6893,880.85,2.18082,0.0,0.0
3024,755.75,125.643,146.975,97.9401,116.177,88.1138,0.00607676,1.54401,18.6875,880.34,2.47655,0.0,0.0
3032,757.75,127.183,148.332,109.106,116.17,88.9276,0.00659673,1.54964,18.6784,879.909,2.39365,0.0,0.0
3040,759.75,127.696,149.286,101.597,116.182,86.4217,0.00727095,1.55705,18.6672,879.449,2.65062,0.0,0.0
3048,761.75,128.592,150.14,106.998,116.198,86.3316,0.00790562,1.56185,18.6625,879.059,2.66121,0.0,0.0
3056,763.75,129.028,151.136,101.827,116.21,85.0969,0.00847572,1.55639,18.6685,878.478,2.79114,0.0,0.0
3064,765.75,128.837,150.777,104.758,116.223,83.2999,0.00888179,1.5465,18.6758,878.148,2.98337,0.0,0.0
3072,767.75,129.204,151.455,112.832,116.239,83.2111,0.0090623,1.54209,18.683,877.747,2.99408,0.0,0.0
3080,769.75,130.114,152,106.155,116.252,82.3325,0.00932908,1.52973,18.6996,877.177,3.09018,0.0,0.0
3088,771.75,130.719,152.779,96.9104,116.263,80.6349,0.00979605,1.50777,18.7313,876.827,3.2777,0.0,0.0
3096,773.75,131.611,153.549,109.241,116.27,81.298,0.00996749,1.49563,18.7482,876.496,3.20485,0.0,0.0
3104,775.75,131.549,153.39,113.195,116.283,84.3334,0.00982709,1.48527,18.7629,876.086,2.87748,0.0,0.0
3112,777.75,132.014,153.896,113.309,116.275,80.6617,0.00962962,1.45733,18.811,875.706,3.27563,0.0,0.0
3120,779.75,131.848,153.716,104.474,116.292,82.9466,0.00938893,1.4144,18.8909,875.315,3.0267,0.0,0.0
3128,781.75,131.257,153.075,115.29,116.303,82.1507,0.008928,1.35596,18.9721,874.925,3.11389,0.0,0.0
3136,783.75,131.325,152.933,112.219,116.293,82.2534,0.00842186,1.28618,19.0706,874.585,3.10197,0.0,0.0
3144,785.75,130.824,152.124,120.916,116.289,81.2425,0.00799286,1.20251,19.1932,874.274,3.21245,0.0,0.0
3152,787.75,129.632,150.6,118.013,116.292,77.7637,0.00746853,1.13131,19.2951,874.074,3.60467,0.0,0.0
3160,789.75,128.514,149.294,121.943,116.279,85.0155,0.00664759,1.06638,19.3682,873.724,2.80501,0.0,0.0
3168,791.75,127.965,148.445,124.791,116.267,85.1649,0.00568904,0.987555,19.4826,873.534,2.78838,0.0,0.0
3176,793.75,126.162,146.125,128.599,116.224,84.2326,0.00448381,0.894655,19.6572,873.283,2.8837,0.0,0.0
3184,795.75,124.522,143.89,130.399,116.196,84.6183,0.00329431,0.813051,19.7883,873.043,2.84057,0.0,0.0
3192,797.75,122.699,141.508,128.653,116.142,85.9533,0.00191015,0.735432,19.9066,872.883,2.69618,0.0,0.0
3200,799.75,120.605,138.782,131.405,116.076,87.6083,0.000410425,0.659802,20.0511,872.693,2.52031,0.0,0.0
3208,801.75,118.429,135.913,138.63,115.987,90.7741,-0.000837599,0.583979,20.1722,872.583,2.19547,0.0,0.0
3216,803.75,115.65,133.11,136.26,115.915,92.6677,-0.00211844,0.509584,20.2818,872.413,2.00494,0.0,0.0
3224,805.75,114.301,130.851,138.878,115.843,98.4902,-0.00329884,0.442316,20.3985,872.333,1.45359,0.0,0.0
3232,807.75,111.398,127.314,143.058,115.732,97.4086,-0.00417875,0.380915,20.4837,872.263,1.54387,0.0,0.0
3240,809.75,108.481,123.708,140.242,115.662,99.144,-0.00510079,0.339131,20.5547,872.192,1.3803,0.0,0.0
3248,811.75,106.534,121.411,143.762,115.596,99.8164,-0.00562274,0.304478,20.6012,872.122,1.31462,0.0,0.0
3256,813.75,103.308,117.712,145.941,115.619,100.376,-0.00609146,0.274877,20.6461,872.032,1.26633,0.0,0.0
3264,815.75,101.956,115.721,147.21,115.649,104.057,-0.00670862,0.242123,20.6955,872.012,0.94607,0.0,0.0
3272,817.75,99.3188,112.462,152.807,115.693,107.747,-0.00742799,0.201639,20.7537,872.012,0.637311,0.0,0.0
3280,819.75,97.1908,109.824,148.93,115.738,109.879,-0.0080923,0.163146,20.8145,872.012,0.465317,0.0,0.0
3288,821.75,93.9559,106.079,152.515,115.8,109.266,-0.0086515,0.133662,20.8703,871.992,0.520249,0.0,0.0
3296,823.75,92.0502,103.659,156.403,115.858,109.834,-0.00894031,0.107903,20.9061,871.992,0.478257,0.0,0.0
3304,825.75,89.9,100.85,151.605,115.913,110.962,-0.00915134,0.0943145,20.9287,872.012,0.391004,0.0,0.0
3312,827.75,88.0426,98.3282,154.496,115.967,111.352,-0.00932162,0.0832399,20.9461,872.002,0.363735,0.0,0.0
3320,829.75,85.6236,95.7107,153.333,116.046,110.977,-0.00939779,0.0749967,20.959,871.992,0.400096,0.0,0.0
3328,831.75,83.6107,93.078,152.627,116.127,110.825,-0.00938649,0.0681966,20.9695,872.002,0.418667,0.0,0.0
3336,833.75,81.0049,90.3557,154.209,116.195,112.049,-0.0094213,0.0624806,20.9791,872.012,0.325392,0.0,0.0
3344,835.75,79.1392,88.312,151.569,116.265,111.461,-0.00948375,0.0575786,20.9858,871.992,0.378015,0.0,0.0
3352,837.75,77.7954,85.9927,153.161,116.325,111.99,-0.00951988,0.0536564,20.9902,872.032,0.34017,0.0,0.0
3360,839.75,75.8776,83.3999,153.548,116.376,111.986,-0.0095057,0.0506997,20.9951,871.992,0.344452,0.0,0.0
3368,841.75,74.011,81.609,153.358,116.432,111.972,-0.00953014,0.0487731,20.9985,871.972,0.349836,0.0,0.0
3376,843.75,72.2024,80.0516,157.216,116.454,112.965,-0.0095903,0.047262,21.0012,871.982,0.272502,0.0,0.0
3384,845.75,71.6473,77.9267,153.669,116.485,111.709,-0.00966451,0.0463817,21.0025,872.002,0.374998,0.0,0.0
3392,847.75,69.5549,75.5599,156.847,116.493,111.685,-0.00975376,0.0458704,21.003,872.022,0.377542,0.0,0.0
3400,849.75,68.3043,74.0706,152.896,116.475,112.471,-0.0099726,0.045341,21.0033,872.022,0.313377,0.0,0.0
3408,851.75,66.83,73.0808,157.923,116.464,112.074,-0.0102131,0.0449536,21.0046,872.002,0.344125,0.0,0.0
3416,853.75,65.8293,71.5352,157.878,116.441,113.523,-0.010261,0.0444698,21.0053,872.012,0.227376,0.0,0.0
3424,855.75,64.6507,69.8941,157.947,116.406,112.192,-0.0101873,0.0442224,21.0056,872.022,0.330216,0.0,0.0
3432,857.75,63.8381,68.6877,156.5,116.353,112.201,-0.00999738,0.043925,21.0057,872.012,0.325494,0.0,0.0
3440,859.75,61.7376,66.78,157.291,116.301,111.637,-0.00975618,0.0437996,21.0054,871.992,0.366586,0.0,0.0
3448,861.75,61.1307,65.3303,156.896,116.225,112.318,-0.0096485,0.0436181,21.0053,872.002,0.306263,0.0,0.0
3456,863.75,60.1184,64.3821,155.663,116.162,112.091,-0.00962313,0.0435812,21.0052,872.022,0.319562,0.0,0.0
3464,865.75,59.2862,62.5819,154.699,116.1,112.788,-0.00968346,0.043581,21.0052,872.002,0.259255,0.0,0.0
3472,867.75,57.9729,61.5003,153.227,116.036,112.24,-0.00979772,0.0434523,21.0051,871.952,0.297867,0.0,0.0
3480,869.75,58.0614,60.7563,154.015,115.955,111.793,-0.0098583,0.0432723,21.0056,871.912,0.32741,0.0,0.0
3488,871.75,56.4047,59.2698,158.346,115.879,111.778,-0.00989048,0.0430106,21.0058,871.922,0.322667,0.0,0.0
3496,873.75,55.4772,58.4026,161.174,115.79,112.592,-0.00997445,0.0427986,21.0067,871.952,0.250843,0.0,0.0
3504,875.75,53.967,57.4618,157.941,115.668,111.608,-0.0100417,0.0426182,21.0076,872.032,0.320038,0.0,0.0
3512,877.75,53.8695,56.837,155.231,115.59,111.071,-0.0100724,0.0423822,21.008,872.022,0.357178,0.0,0.0
3520,879.75,52.8412,55.1366,154.899,115.48,111.268,-0.0101257,0.0421773,21.0082,872.012,0.332767,0.0,0.0
3528,881.75,52.5907,55.3157,157.373,115.373,112.321,-0.0101337,0.0419445,21.008,872.012,0.240075,0.0,0.0
3536,883.75,52.1746,54.7309,153.005,115.272,111.309,-0.0100993,0.0419198,21.0077,871.932,0.313416,0.0,0.0
3544,885.75,51.5127,53.3669,152.832,115.162,111.638,-0.0101294,0.0417922,21.0078,871.922,0.27836,0.0,0.0
3552,887.75,50.8359,52.878,153.303,115.047,111.894,-0.010234,0.0417273,21.0089,871.862,0.248968,0.0,0.0
3560,889.75,50.8029,51.8021,154.422,114.941,111.028,-0.0102616,0.0417323,21.0094,871.922,0.31025,0.0,0.0
3568,891.75,49.7295,51.097,153.23,114.822,110.502,-0.0102349,0.0416601,21.0096,872.032,0.34352,0.0,0.0
3576,893.75,49.5559,50.2856,150.65,114.706,110.678,-0.0102154,0.0414863,21.0093,871.982,0.320141,0.0,0.0
3584,895.75,47.7014,49.9202,156.131,114.609,110.636,-0.0101637,0.0413634,21.0082,872.012,0.315973,0.0,0.0
3592,897.75,48.5421,49.6256,155.953,114.527,110.917,-0.0100417,0.0413934,21.0078,872.002,0.286874,0.0,0.0
3600,899.75,47.5371,48.7468,154.601,114.406,110.069,-0.00996654,0.0413813,21.0082,872.002,0.346161,0.0,0.0
3608,901.75,47.5535,47.5357,155.579,114.308,111.083,-0.010044,0.0415431,21.0091,872.012,0.256345,0.0,0.0
3616,903.75,47.1415,47.3043,153.571,114.223,110.472,-0.0100992,0.041596,21.0094,872.022,0.29906,0.0,0.0
3624,905.75,46.2627,47.1686,156.691,114.155,109.923,-0.0100896,0.0416105,21.0092,872.012,0.338324,0.0,0.0
3632,907.75,45.2667,46.8745,155.328,114.107,111.055,-0.010005,0.041738,21.0092,872.002,0.242822,0.0,0.0
3640,909.75,46.1759,45.8219,155.499,114.07,110.502,-0.00999516,0.0419471,21.0091,871.972,0.28462,0.0,0.0
3648,911.75,44.8382,45.102,156.587,114.021,110.522,-0.010159,0.042259,21.008,871.962,0.279203,0.0,0.0
3656,913.75,45.2904,45.1955,153.518,114.011,110.877,-0.0103029,0.0424538,21.0073,871.992,0.249653,0.0,0.0
3664,915.75,43.8748,44.1624,159.623,114.016,111.127,-0.0102336,0.0425399,21.007,872.012,0.229872,0.0,0.0
3672,917.75,44.2902,44.2072,152.685,114.023,110.514,-0.0102255,0.0424755,21.0069,871.992,0.279987,0.0,0.0
3680,919.75,44.0101,44.1837,156.558,114.067,110.265,-0.0102266,0.0424442,21.0068,871.982,0.30365,0.0,0.0
3688,921.75,43.5437,43.4324,156.537,114.111,110.438,-0.010142,0.0424391,21.0068,871.982,0.293084,0.0,0.0
3696,923.75,43.6757,43.3938,162.674,114.188,111.823,-0.0100834,0.0424187,21.0076,871.992,0.187472,0.0,0.0
3704,925.75,43.029,42.6563,154.414,114.264,110.01,-0.0101571,0.0423866,21.0085,871.982,0.339881,0.0,0.0
3712,927.75,42.946,42.3862,155.902,114.355,111.114,-0.0101675,0.0423727,21.0082,872.012,0.257534,0.0,0.0
3720,929.75,42.6411,41.9831,160.065,114.475,111.231,-0.0100153,0.0423944,21.0076,872.022,0.257429,0.0,0.0
3728,931.75,42.3848,41.7029,153.648,114.568,110.943,-0.0098497,0.0424249,21.0073,872.012,0.287948,0.0,0.0
3736,933.75,41.867,41.1684,156.107,114.696,111,-0.00989644,0.0423429,21.0064,872.002,0.293359,0.0,0.0
3744,935.75,41.7244,41.063,155.27,114.826,111.761,-0.0100889,0.0422779,21.006,871.852,0.242285,0.0,0.0
3752,937.75,41.2387,40.6247,155.432,114.959,112.374,-0.0101172,0.0420237,21.0067,872.012,0.20377,0.0,0.0
3760,939.75,40.4945,40.6076,152.736,115.095,112.007,-0.00996131,0.0418222,21.0074,872.012,0.243638,0.0,0.0
3768,941.75,40.4276,40.06,154.997,115.2,112.956,,0.041777,,871.962,0.176202,0.0,0.0
3776,943.75,40.6126,40.2287,158.727,115.308,111.516,,0.0417915,,871.952,0.299502,0.0,0.0
3784,945.75,40.457,39.4449,156.35,115.41,111.909,,,,871.992,0.275916,0.0,0.0
3792,947.75,40.1671,39.5911,157.158,115.482,111.95,,,,871.922,0.278209,0.0,0.0
3800,949.75,39.9674,39.5551,158.295,115.556,112.599,,,,871.902,0.232178,0.0,0.0
3808,951.75,39.4292,39.5632,156.687,115.588,112.552,,,,871.952,0.238449,0.0,0.0
3811,952.5,39.8968,38.9469,154.045,115.621,113.105,,,,871.982,0.197057,0.0,0.0