File: 01_Data/Nylon/Cone/Nylon_Cone_HF50Scan_220225_R2.csv
Names,Time,Stack TC,Smoke TC,Exh Press,Smoke Comp,Smoke Meas,CO Meter,CO2 Meter,O2 Meter,Sample Mass,Ext Coeff,Start Test,Flame Verif
Chan Gain,,500,500,1,1,1,1,1,1,1,1,1.0,1.0
Offset,,0,0,0.136092,0,0,0,0,0,0,0,0.0,0.0
Gain,,1,1,25.011,15.4219,15.1528,1,1,1,1.00089,1.02113,1.0,1.0
Units,sec,C,C,Pa,%,%,%,%,%,g,/m,,
Baseline,,40.1408,41.2749,153.58,116.672,109.604,-0.0098152,0.0410979,21.0065,-0.13929,0.559806,,
4,0.75,33.0654,33.8341,151.707,114.635,107.766,-0.00950272,0.041561,21.0058,908.234,0.553482,0.0,0.0
8,1.75,33.7339,33.9331,152.797,114.612,107.454,-0.00951207,0.04171,21.0056,908.174,0.577698,0.0,0.0
12,2.75,32.9503,33.6695,154.67,114.596,106.738,-0.0095343,0.0418592,21.0055,908.194,0.636246,0.0,0.0
16,3.75,33.213,33.959,152.945,114.587,107.828,-0.00961181,0.0420072,21.0055,908.024,0.544583,0.0,0.0
20,4.75,33.6189,34.2223,155.084,114.582,106.311,-0.00970311,0.0420542,21.0061,908.064,0.671144,0.0,0.0
24,5.75,33.7134,34.0908,157.475,114.571,107.775,-0.00979223,0.0419667,21.0066,908.144,0.547749,0.0,0.0
28,6.75,33.7303,34.2274,156.101,114.557,107.237,-0.00985745,0.0418359,21.0064,908.094,0.59153,0.0,0.0
32,7.75,33.6329,33.9894,154.208,114.553,106.796,-0.00988675,0.0416474,21.006,908.094,0.628048,0.0,0.0
36,8.75,33.9672,34.5106,154.392,114.543,106.771,-0.00988575,0.0414532,21.0058,908.064,0.629331,0.0,0.0
40,9.75,34.0767,34.7727,151.104,114.539,106.621,-0.00989006,0.0412626,21.0057,907.964,0.641578,0.0,0.0
44,10.75,34.2032,34.0954,155.619,114.545,107.579,-0.00990998,0.0411014,21.0056,908.034,0.562035,0.0,0.0
48,11.75,34.079,34.8933,149.578,114.533,107.234,-0.009972,0.0409844,21.0055,907.994,0.589845,0.0,0.0
52,12.75,33.7252,34.481,151.014,114.537,107.24,-0.0100136,0.0408075,21.0055,908.034,0.589676,0.0,0.0
56,13.75,34.5256,35.0896,152.807,114.546,106.972,-0.0100546,0.0407112,21.0057,908.024,0.612729,0.0,0.0
60,14.75,34.0139,35.0255,155.601,114.535,108.125,-0.0100674,0.0406817,21.0064,908.004,0.515905,0.0,0.0
64,15.75,34.9569,35.0721,154.351,114.554,107.262,-0.0100529,0.0406835,21.0069,907.964,0.589111,0.0,0.0
68,16.75,34.1157,34.9774,155.934,114.569,107.732,-0.0100195,0.0407853,21.008,907.994,0.551138,0.0,0.0
72,17.75,35.046,35.6577,148.389,114.574,107.001,-0.0099616,0.040827,21.0087,907.884,0.612538,0.0,0.0
76,18.75,35.0053,35.5527,156.378,114.574,107.194,-0.00991463,0.0408741,21.0092,907.994,0.596369,0.0,0.0
80,19.75,35.0157,35.9639,153.465,114.583,107.113,-0.00988205,0.0409242,21.0095,907.844,0.603872,0.0,0.0
84,20.75,34.6192,35.1352,156.028,114.589,108.351,-0.00986392,0.0409682,21.0097,907.944,0.501387,0.0,0.0
88,21.75,35.2862,35.3984,154.999,114.597,107.284,-0.00986497,0.0409971,21.0099,908.014,0.590681,0.0,0.0
92,22.75,35.1258,35.4055,157.273,114.62,107.014,-0.00987959,0.0410161,21.01,907.984,0.615058,0.0,0.0
96,23.75,35.0953,35.2299,149.998,114.626,107.36,-0.00990353,0.0410285,21.01,908.004,0.586632,0.0,0.0
100,24.75,35.056,36.2941,154.968,114.637,107.94,-0.00993721,0.0410169,21.0101,908.004,0.539187,0.0,0.0
104,25.75,35.1267,35.8595,149.55,114.66,107.14,-0.00995706,0.0409449,21.0101,908.074,0.607624,0.0,0.0
108,26.75,35.038,36.4478,155.034,114.676,108.351,-0.00996784,0.0408679,21.0101,907.974,0.508191,0.0,0.0
112,27.75,35.0834,36.2482,152.493,114.692,107.82,-0.00998731,0.0408134,21.0101,907.974,0.553471,0.0,0.0
116,28.75,35.566,35.9203,157.033,114.728,108.729,-0.0100247,0.0407809,21.0101,907.954,0.481054,0.0,0.0
120,29.75,35.9257,36.3576,155.425,114.731,107.716,-0.0100655,0.040695,21.0101,907.924,0.565133,0.0,0.0
124,30.75,35.5432,36.3758,151.021,114.753,107.941,-0.0100952,0.0405531,21.0101,907.864,0.548115,0.0,0.0
128,31.75,35.6124,36.4075,155.734,114.789,108.011,-0.0100763,0.040439,21.0101,907.844,0.54519,0.0,0.0
132,32.75,35.1849,36.3928,156.714,114.801,108.714,-0.0100482,0.0403997,21.01,907.914,0.487967,0.0,0.0
136,33.75,35.3946,36.3154,153.503,114.819,108.073,-0.0100275,0.0404122,21.0097,907.904,0.542328,0.0,0.0
140,34.75,35.674,36.7127,152.972,114.843,108.125,-0.0100157,0.040438,21.0096,907.934,0.539906,0.0,0.0
144,35.75,35.6193,36.8567,150.616,114.854,107.539,-0.0100067,0.0404872,21.0095,907.874,0.589457,0.0,0.0
148,36.75,35.9929,36.5593,157.401,114.887,106.941,-0.0100003,0.040555,21.0094,907.794,0.642007,0.0,0.0
152,37.75,35.7478,36.8447,153.057,114.876,107.182,-0.00997809,0.0405995,21.0089,907.834,0.620967,0.0,0.0
156,38.75,36.0399,36.022,156.634,114.92,107.108,-0.00995823,0.0406286,21.0084,907.874,0.630565,0.0,0.0
160,39.75,35.6053,36.7022,155.027,114.937,107.768,-0.00995616,0.0407031,21.0077,907.894,0.576869,0.0,0.0
164,40.75,35.8779,37.0895,152.641,114.933,107.102,-0.00996938,0.0407676,21.0068,907.844,0.632096,0.0,0.0
168,41.75,35.8024,36.9782,154.442,114.973,107.941,-0.00999043,0.040739,21.0062,907.924,0.565328,0.0,0.0
172,42.75,36.1602,37.2821,154.416,114.979,107.508,-0.0100109,0.0407202,21.0062,907.934,0.601757,0.0,0.0
176,43.75,36.0558,36.9163,154.786,115.006,107.481,-0.0100126,0.0407829,21.0061,907.814,0.606121,0.0,0.0
180,44.75,35.8215,37.1035,146.59,115.017,107.366,-0.00999307,0.0408755,21.0061,907.814,0.616603,0.0,0.0
184,45.75,36.3152,37.3951,157.82,115.038,107.111,-0.00993773,0.0409363,21.0056,907.854,0.639533,0.0,0.0
188,46.75,36.2123,37.1207,154.238,115.059,105.448,-0.0098829,0.0409762,21.005,907.824,0.781299,0.0,0.0
192,47.75,36.7626,37.5777,153.112,115.061,107.51,-0.0098521,0.0410161,21.0045,907.734,0.608056,0.0,0.0
196,48.75,35.8235,37.334,151.032,115.096,106.796,-0.00983026,0.0410536,21.0043,907.734,0.670415,0.0,0.0
200,49.75,36.4187,37.5699,153.772,115.104,107.428,-0.0097955,0.0411282,21.0045,907.744,0.618175,0.0,0.0
204,50.75,36.514,37.3862,154.254,115.132,107.4,-0.00975682,0.0412522,21.005,907.634,0.622688,0.0,0.0
208,51.75,36.202,37.4863,153.33,115.143,107.631,-0.00972859,0.0413085,21.0054,907.664,0.604266,0.0,0.0
212,52.75,36.186,38.4671,151.585,115.145,107.476,-0.00971219,0.0413455,21.0056,907.654,0.617427,0.0,0.0
216,53.75,36.3522,37.405,153.188,115.155,107.048,-0.00971942,0.0414449,21.0055,907.714,0.653916,0.0,0.0
220,54.75,36.5442,37.9403,153.234,115.165,106.428,-0.00973655,0.0414892,21.0054,907.724,0.706687,0.0,0.0
224,55.75,36.4192,37.8614,149.254,115.173,106.16,-0.00975998,0.0415345,21.0049,907.754,0.72987,0.0,0.0
228,56.75,36.6537,37.7451,152.672,115.176,107.552,-0.00977243,0.0416393,21.0046,907.674,0.61345,0.0,0.0
232,57.75,36.5678,37.3548,152.977,115.179,106.219,-0.00977739,0.0417905,21.0048,907.594,0.725356,0.0,0.0
236,58.75,37.262,37.983,151.064,115.173,106.014,-0.0097839,0.0419752,21.0049,907.614,0.742171,0.0,0.0
240,59.75,36.636,37.7139,154.877,115.177,105.372,-0.00979118,0.0421246,21.005,907.674,0.796933,0.0,0.0
244,60.75,36.7767,37.98,151.347,115.189,105.703,-0.00977117,0.0422049,21.0053,907.534,0.769822,0.0,0.0
248,61.75,36.3908,38.3974,152.924,115.204,105.576,-0.0097117,0.0422326,21.0057,907.534,0.781662,0.0,0.0
252,62.75,36.6066,38.1579,155.108,115.212,105.273,-0.00959709,0.0422726,21.006,907.574,0.808098,0.0,0.0
256,63.75,37.3522,38.4147,152.095,115.229,106.188,-0.00946318,0.0423521,21.0057,907.534,0.731921,0.0,0.0
260,64.75,36.9017,38.5912,149.689,115.255,104.769,-0.0093016,0.0424793,21.0052,907.564,0.854415,0.0,0.0
264,65.75,36.8225,38.2315,153.635,115.266,105.755,-0.00915574,0.0430902,21.0044,907.614,0.771361,0.0,0.0
268,66.75,37.1992,38.2096,151.767,115.291,105.025,-0.00901734,0.0448939,21.0019,907.594,0.835358,0.0,0.0
272,67.75,37.1066,38.1886,148.605,115.308,107.393,-0.00892204,0.0491493,20.9954,907.534,0.636948,0.0,0.0
276,68.75,37.0811,38.5211,154.959,115.312,107.076,-0.00888077,0.0565651,20.9846,907.624,0.663777,0.0,0.0
280,69.75,37.39,38.3212,146.062,115.338,107.49,-0.00889087,0.0676304,20.9601,907.554,0.631192,0.0,1.0
284,70.75,37.6849,38.9932,148.132,115.342,107.187,-0.00891772,0.0848942,20.9298,907.073,0.656837,0.0,1.0
288,71.75,37.93,39.1157,144.498,115.353,106.361,-0.00892186,0.105502,20.8951,907.444,0.726998,0.0,1.0
292,72.75,37.924,39.4987,143.163,115.358,106.11,-0.0088919,0.129354,20.8644,907.424,0.74846,0.0,1.0
296,73.75,38.5382,40.1553,140.037,115.382,105.593,-0.00879254,0.155557,20.833,907.414,0.794109,0.0,1.0
300,74.75,39.0518,39.7237,141.893,115.368,107.189,-0.00862084,0.180209,20.7972,907.344,0.658654,0.0,0.0
304,75.75,39.1797,40.5242,136.806,115.375,105.931,-0.00846397,0.208794,20.7586,907.123,0.765008,0.0,0.0
308,76.75,39.199,41.4315,141.17,115.372,105.656,-0.00836528,0.236551,20.7061,907.173,0.787969,0.0,0.0
312,77.75,40.2682,42.2877,140.402,115.362,106.519,-0.00823562,0.26825,20.6633,907.003,0.714348,0.0,0.0
316,78.75,40.9403,42.7879,133.186,115.376,105.771,-0.00812824,0.299563,20.6077,906.953,0.778581,0.0,0.0
320,79.75,41.9392,43.8509,130.362,115.376,105.804,-0.00802413,0.331344,20.5646,906.893,0.775801,0.0,0.0
324,80.75,42.0238,44.751,133.523,115.373,105.945,-0.00791845,0.353169,20.5253,906.823,0.763612,0.0,0.0
328,81.75,43.1749,45.6196,131.923,115.382,105.509,-0.00781846,0.378018,20.4948,906.793,0.801215,0.0,0.0
332,82.75,44.3243,46.672,132.168,115.395,104.756,-0.00774666,0.403681,20.4629,906.513,0.866418,0.0,0.0
336,83.75,44.893,47.5639,128.957,115.375,105.368,-0.00761865,0.428372,20.4284,906.573,0.812685,0.0,0.0
340,84.75,45.8711,48.5939,134.243,115.382,105.555,-0.00745674,0.453307,20.3947,906.393,0.797329,0.0,0.0
344,85.75,46.5534,49.6274,129.824,115.375,105.256,-0.00725163,0.478842,20.3586,906.313,0.8222,0.0,0.0
348,86.75,47.6685,51.0527,130.65,115.354,104.144,-0.0070216,0.504586,20.3217,906.022,0.915702,0.0,0.0
352,87.75,48.5274,52.0396,133.18,115.355,104.072,-0.00675818,0.531866,20.2811,906.032,0.921981,0.0,0.0
356,88.75,49.3216,53.0872,124.949,115.346,104.482,-0.00651762,0.562222,20.225,905.922,0.886092,0.0,0.0
360,89.75,50.3443,54.2018,124.398,115.353,104.538,-0.00627999,0.5994,20.1674,905.882,0.881809,0.0,0.0
364,90.75,51.6957,55.7669,123.726,115.366,104.352,-0.00606732,0.634521,20.1056,905.762,0.898699,0.0,0.0
368,91.75,53.0849,57.0648,117.107,115.365,104.948,-0.00587864,0.669556,20.0452,905.622,0.847643,0.0,0.0
372,92.75,53.7328,58.5104,115.405,115.382,104.911,-0.00571659,0.704157,19.9879,905.502,0.852153,0.0,0.0
376,93.75,55.2968,59.762,119.693,115.369,104.547,-0.0055406,0.739017,19.9402,905.342,0.882295,0.0,0.0
380,94.75,56.9573,62.0336,115.464,115.368,104.042,-0.00538912,0.773679,19.8956,905.222,0.925556,0.0,0.0
384,95.75,57.8599,63.2926,115.057,115.363,104.313,-0.00522581,0.804833,19.8495,904.931,0.90193,0.0,0.0
388,96.75,59.5736,65.2234,121.072,115.378,104.068,-0.00505822,0.832473,19.8045,904.761,0.92417,0.0,0.0
392,97.75,60.8978,66.7979,119.657,115.382,103.192,-0.00488983,0.856428,19.7619,904.631,1.0002,0.0,0.0
396,98.75,62.1365,68.111,116.218,115.4,101.978,-0.00471471,0.87893,19.722,904.561,1.10754,0.0,0.0
400,99.75,63.2012,69.8416,111.307,115.395,101.749,-0.00456863,0.900893,19.6873,904.391,1.12727,0.0,0.0
404,100.75,64.4199,71.5515,112.687,115.393,101.852,-0.00437391,0.923098,19.6518,904.151,1.11801,0.0,0.0
408,101.75,65.7752,72.8043,118.884,115.38,101.391,-0.00416525,0.945204,19.6203,903.901,1.1577,0.0,0.0
412,102.75,67.2594,74.2669,112.464,115.372,101.219,-0.00392946,0.966306,19.5892,903.861,1.17221,0.0,0.0
416,103.75,68.8225,76.5054,108.297,115.363,100.964,-0.0036534,0.985544,19.5572,903.67,1.19417,0.0,0.0
420,104.75,69.8912,77.8453,111.191,115.37,99.6333,-0.00335767,1.00323,19.5337,903.58,1.31358,0.0,0.0
424,105.75,71.295,79.5192,114.726,115.371,101.502,-0.00316363,1.01815,19.5127,903.33,1.14717,0.0,0.0
428,106.75,72.4404,80.731,110.934,115.372,101.391,-0.00295542,1.02969,19.4956,903.19,1.15712,0.0,0.0
432,107.75,73.5209,82.7045,115.519,115.379,100.633,-0.00282059,1.03762,19.4844,903.06,1.22484,0.0,0.0
436,108.75,75.3666,84.2996,115.948,115.388,99.2472,-0.00271843,1.04334,19.4762,902.88,1.34971,0.0,0.0
440,109.75,76.2518,85.4548,112.248,115.41,99.8409,-0.00261218,1.0491,19.4648,902.78,1.298,0.0,0.0
444,110.75,77.3649,86.9316,112.442,115.41,99.7531,-0.00250562,1.05913,19.449,902.579,1.30589,0.0,0.0
448,111.75,79.0676,89.0166,105.134,115.415,100.564,-0.00239123,1.0716,19.4263,902.359,1.23379,0.0,0.0
452,112.75,79.674,89.975,112.675,115.43,100.496,-0.00228697,1.08572,19.4046,902.249,1.24105,0.0,0.0
456,113.75,80.1191,90.97,106.71,115.437,100.072,-0.00219146,1.10002,19.384,901.969,1.2794,0.0,0.0
460,114.75,81.987,92.6743,111.395,115.461,100.107,-0.0020906,1.11283,19.366,901.809,1.27808,0.0,0.0
464,115.75,83.1964,94.402,112.045,115.461,99.4058,-0.00198015,1.12265,19.3522,901.639,1.3411,0.0,0.0
468,116.75,84.4658,95.7884,115.547,115.475,99.7212,-0.00187218,1.12967,19.3419,901.518,1.31379,0.0,0.0
472,117.75,85.4568,97.3822,106.141,115.47,99.8173,-0.00178596,1.13532,19.3329,901.328,1.30479,0.0,0.0
476,118.75,86.3479,98.4553,108.84,115.461,97.976,-0.00175724,1.14114,19.3214,901.108,1.47084,0.0,0.0
480,119.75,87.8345,99.9535,111.382,115.482,99.0779,-0.00177962,1.1508,19.3068,900.948,1.37234,0.0,0.0
484,120.75,88.9947,101.258,109.241,115.51,98.7551,-0.0018114,1.1592,19.2966,900.818,1.40376,0.0,0.0
488,121.75,89.7145,102.266,111.158,115.516,99.2911,-0.00183899,1.16347,19.29,900.598,1.35572,0.0,0.0
492,122.75,91.0919,103.825,110.96,115.569,99.1519,-0.00183013,1.16574,19.285,900.508,1.3724,0.0,0.0
496,123.75,92.3069,105.377,113.885,115.569,99.4955,-0.00180306,1.16743,19.2815,900.237,1.34142,0.0,0.0
500,124.75,93.2687,106.515,117.23,115.584,98.3538,-0.0017725,1.16913,19.2775,900.087,1.44597,0.0,0.0
504,125.75,93.801,107.027,109.195,115.597,99.0631,-0.00174346,1.1715,19.2734,899.867,1.38254,0.0,0.0
508,126.75,95.1641,108.828,111.11,115.608,96.8092,-0.00170636,1.17333,19.2701,899.637,1.58957,0.0,0.0
512,127.75,96.0958,110.035,104.262,115.624,95.6009,-0.00166895,1.17603,19.2662,899.437,1.70335,0.0,0.0
516,128.75,97.3441,111.251,108.344,115.642,95.1931,-0.001559,1.18046,19.2617,899.246,1.74303,0.0,0.0
520,129.75,97.2843,111.546,113.802,115.664,97.8053,-0.0014136,1.18756,19.2532,899.026,1.50222,0.0,0.0
524,130.75,98.216,112.979,111.023,115.669,95.7896,-0.00120797,1.19517,19.2431,898.846,1.68911,0.0,0.0
528,131.75,99.0977,113.488,110.704,115.686,94.5193,-0.000992081,1.20096,19.2307,898.676,1.81,0.0,0.0
532,132.75,99.8795,114.535,112.607,115.711,96.9179,-0.000788456,1.20934,19.214,898.596,1.58754,0.0,0.0
536,133.75,100.756,115.961,105.48,115.714,96.2118,-0.000617063,1.21832,19.1978,898.426,1.65325,0.0,0.0
540,134.75,101.662,116.708,108.964,115.727,97.1154,-0.000504004,1.22879,19.182,898.266,1.57054,0.0,0.0
544,135.75,102.491,117.776,107.581,115.728,97.9195,-0.000455328,1.23864,19.1717,898.035,1.49672,0.0,0.0
548,136.75,103.257,118.744,105.541,115.737,96.3427,-0.000466091,1.2453,19.1649,897.805,1.64283,0.0,0.0
552,137.75,104.271,119.665,111.549,115.758,97.4677,-0.000497947,1.2461,19.1592,897.685,1.54051,0.0,0.0
556,138.75,104.965,121.061,113.211,115.776,95.1505,-0.000518434,1.24654,19.1543,897.535,1.75738,0.0,0.0
560,139.75,105.099,121.364,114.828,115.799,96.3963,-0.000503405,1.24871,19.1486,897.395,1.64265,0.0,0.0
564,140.75,106.301,122.317,107.55,115.809,95.5575,-0.000439205,1.25293,19.1391,897.205,1.7217,0.0,0.0
568,141.75,107.24,123.699,103.7,115.818,98.0749,-0.000335001,1.2594,19.1306,896.834,1.48947,0.0,0.0
572,142.75,107.818,124.024,112.68,115.839,95.6916,-0.000160427,1.26606,19.1214,896.674,1.7115,0.0,0.0
576,143.75,108.931,125.763,108.475,115.854,95.5981,5.79e-05,1.27217,19.1106,896.504,1.72142,0.0,0.0
580,144.75,109.323,126.139,104.539,115.855,95.9297,0.000285911,1.28096,19.0936,896.274,1.69044,0.0,0.0
584,145.75,109.821,127.007,105.962,115.873,93.1635,0.000476294,1.29565,19.0631,896.054,1.95395,0.0,0.0
588,146.75,111.163,128.264,101.877,115.876,94.5822,0.000666045,1.31494,19.0291,895.953,1.81879,0.0,0.0
592,147.75,111.758,129.129,108.64,115.878,96.6964,0.000761716,1.3368,19.0045,895.713,1.62092,0.0,0.0
596,148.75,112.797,130.279,94.6366,115.871,94.4213,0.000883753,1.36201,18.9679,895.573,1.83364,0.0,0.0
600,149.75,112.917,130.584,103.188,115.873,96.5988,0.00106997,1.39467,18.9331,895.253,1.62956,0.0,0.0
604,150.75,113.892,131.713,102.017,115.875,93.5838,0.00125157,1.40871,18.9046,895.233,1.91373,0.0,0.0
608,151.75,115.078,133.116,105.229,115.883,94.6479,0.00147258,1.43372,18.8731,894.933,1.81308,0.0,0.0
612,152.75,116.197,134.443,103.365,115.896,94.9498,0.00169332,1.45959,18.8387,894.742,1.78561,0.0,0.0
616,153.75,116.648,134.997,103.496,115.906,93.9316,0.0018798,1.4889,18.7969,894.552,1.88295,0.0,0.0
620,154.75,117.359,135.924,100.433,115.925,92.5896,0.00203033,1.50921,18.7632,894.402,2.0133,0.0,0.0
624,155.75,118.177,137.15,102.511,115.935,94.6025,0.00215422,1.52519,18.7385,894.152,1.82138,0.0,0.0
628,156.75,120.074,139.283,109.43,115.934,91.7531,0.00229487,1.53683,18.7205,893.892,2.09528,0.0,0.0
632,157.75,120.296,139.726,103.415,115.951,92.5914,0.00246118,1.55,18.7058,893.762,2.01512,0.0,0.0
636,158.75,121.509,141.108,98.9079,115.971,90.6516,0.00273299,1.56559,18.6802,893.371,2.20634,0.0,0.0
640,159.75,122.846,142.645,101.01,115.972,88.5401,0.00312032,1.59334,18.6335,893.211,2.41751,0.0,0.0
644,160.75,123.068,142.987,99.2369,115.977,90.3177,0.00360983,1.62785,18.5758,892.941,2.23986,0.0,0.0
648,161.75,124.447,144.728,96.425,115.984,90.4301,0.00412033,1.66938,18.4915,892.731,2.22927,0.0,0.0
652,162.75,125.547,146.057,97.0508,115.992,89.674,0.00480524,1.72072,18.4199,892.41,2.30509,0.0,0.0
656,163.75,126.607,147.433,93.4757,115.993,89.2467,0.00557228,1.77938,18.3452,892.19,2.34791,0.0,0.0
660,164.75,127.724,149.006,97.9042,115.992,91.0109,0.00624393,1.83165,18.272,891.87,2.1725,0.0,0.0
664,165.75,129.153,150.876,90.2172,116.006,88.6067,0.00684334,1.87386,18.2079,891.6,2.41336,0.0,0.0
668,166.75,130.029,152.413,94.342,115.998,89.0368,0.00736146,1.91434,18.1481,891.329,2.36937,0.0,0.0
672,167.75,131.753,154.299,93.4902,115.994,91.4996,0.00779002,1.94645,18.1015,891.019,2.12467,0.0,0.0
676,168.75,132.542,155.382,89.2326,116.004,89.138,0.0081544,1.97659,18.0574,890.839,2.35966,0.0,0.0
680,169.75,134.534,157.778,94.2634,115.993,88.0481,0.00848421,2.01092,18.0149,890.479,2.46906,0.0,0.0
684,170.75,135.432,159.069,89.7364,115.991,86.3431,0.00879133,2.0451,17.9705,890.168,2.64407,0.0,0.0
688,171.75,136.696,160.635,96.0181,115.988,87.5829,0.00914298,2.07586,17.9224,889.938,2.51608,0.0,0.0
692,172.75,138.241,162.774,88.9655,115.978,88.1776,0.00957857,2.10025,17.8783,889.658,2.4547,0.0,0.0
696,173.75,139.484,164.27,87.7786,115.966,87.9057,0.0101126,2.1338,17.8289,889.368,2.48145,0.0,0.0
700,174.75,139.816,164.962,97.5874,115.96,87.4779,0.0105808,2.17617,17.7694,889.177,2.52467,0.0,0.0
704,175.75,141.816,167.643,97.1203,115.972,86.572,0.01115,2.22332,17.7044,888.847,2.61886,0.0,0.0
708,176.75,143.269,169.346,89.6784,115.957,86.1831,0.0115908,2.26528,17.6528,888.557,2.65799,0.0,0.0
712,177.75,144.919,171.618,88.6044,115.95,85.6407,0.0119807,2.29812,17.6062,888.267,2.71403,0.0,0.0
716,178.75,146.224,173.185,87.8763,115.955,85.0127,0.012306,2.327,17.5683,887.946,2.78032,0.0,0.0
720,179.75,147.663,174.68,93.0803,115.968,84.7704,0.0125975,2.35333,17.5267,887.666,2.80694,0.0,0.0
724,180.75,148.981,176.773,83.6355,115.97,84.3949,0.0128919,2.38531,17.4804,887.376,2.84685,0.0,0.0
728,181.75,150.289,178.729,93.049,115.98,86.9424,0.0132357,2.41865,17.428,887.186,2.5812,0.0,0.0
732,182.75,151.298,180.168,84.598,115.998,82.8231,0.0135533,2.45113,17.3755,886.805,3.01735,0.0,0.0
736,183.75,152.882,181.959,90.531,115.999,82.985,0.0139061,2.48313,17.326,886.415,3.00001,0.0,0.0
740,184.75,153.639,182.809,78.7155,116.012,83.046,0.0143116,2.51691,17.2752,886.125,2.99437,0.0,0.0
744,185.75,155.052,185.257,87.7023,116.037,85.6139,0.0147196,2.54669,17.2328,885.915,2.72356,0.0,0.0
748,186.75,156.803,187.262,90.4134,116.036,83.3549,0.0150786,2.57207,17.2024,885.624,2.96301,0.0,0.0
752,187.75,158.135,189.019,82.8036,116.061,82.9901,0.0154877,2.59698,17.1611,885.264,3.00422,0.0,0.0
756,188.75,158.702,190.205,86.0009,116.073,84.0236,0.0157748,2.62168,17.134,885.024,2.89431,0.0,0.0
760,189.75,160.819,192.799,90.9966,116.084,82.8125,0.0159426,2.63445,17.1162,884.724,3.02519,0.0,0.0
764,190.75,162.174,194.646,87.0321,116.094,82.4388,0.0159779,2.64131,17.1046,884.323,3.06642,0.0,0.0
768,191.75,162.765,195.756,91.7285,116.102,83.7512,0.015969,2.6387,17.0997,884.043,2.9256,0.0,0.0
772,192.75,164.208,197.484,91.7682,116.103,82.4069,0.0159748,2.63123,17.1052,883.673,3.07065,0.0,0.0
776,193.75,165.524,199.096,84.6988,116.109,82.4518,0.0160416,2.62293,17.1172,883.522,3.06621,0.0,0.0
780,194.75,166.906,200.977,88.5212,116.126,80.456,0.0161708,2.60902,17.1362,883.222,3.28701,0.0,0.0
784,195.75,168.152,202.051,88.2144,116.129,80.344,0.016323,2.59575,17.1523,882.822,3.29969,0.0,0.0
788,196.75,168.587,203.212,79.3032,116.13,81.1505,0.0164365,2.58623,17.1634,882.522,3.2103,0.0,0.0
792,197.75,169.331,204.116,85.2728,116.127,81.7077,0.0164886,2.57428,17.1735,882.321,3.14883,0.0,0.0
796,198.75,170.379,205.77,92.4185,116.135,83.7336,0.0164743,2.55857,17.1869,882.061,2.93003,0.0,0.0
800,199.75,171.497,206.973,91.7675,116.122,82.7944,0.0164123,2.53712,17.2153,881.751,3.03005,0.0,0.0
804,200.75,172.239,207.96,90.8912,116.116,82.6349,0.0163281,2.52062,17.2424,881.541,3.04685,0.0,0.0
808,201.75,173.213,209.117,87.9083,116.118,84.3528,0.0162777,2.48701,17.2903,881.26,2.86269,0.0,0.0
812,202.75,173.768,210.033,98.0866,116.105,83.1528,0.0161389,2.45324,17.3438,881.06,2.99005,0.0,0.0
816,203.75,174.03,210.402,91.1866,116.091,82.3921,0.015912,2.41917,17.3974,880.73,3.07132,0.0,0.0
820,204.75,174.787,211.352,86.236,116.082,81.8585,0.0156843,2.38797,17.4439,880.3,3.12883,0.0,0.0
824,205.75,175.625,211.887,96.3441,116.075,82.4222,0.0154484,2.35664,17.486,880.16,3.06678,0.0,0.0
828,206.75,175.97,212.425,98.4011,116.045,81.3147,0.0152818,2.32973,17.5292,879.809,3.18566,0.0,0.0
832,207.75,176.355,212.648,88.7464,116.021,80.5475,0.015198,2.30767,17.5635,879.559,3.26868,0.0,0.0
836,208.75,176.333,213.046,85.3346,115.987,82.5595,0.0151899,2.28593,17.602,879.259,3.04511,0.0,0.0
840,209.75,176.99,213.53,92.6055,115.979,80.2321,0.0152166,2.26305,17.6357,878.989,3.30063,0.0,0.0
844,210.75,177.287,213.871,88.8098,115.961,81.4187,0.0152512,2.24141,17.6635,878.718,3.16774,0.0,0.0
848,211.75,177.324,213.782,91.2263,115.944,79.3919,0.0151863,2.21619,17.6916,878.368,3.39224,0.0,0.0
852,212.75,177.737,213.996,90.4493,115.935,82.1965,0.0149794,2.18232,17.7321,878.108,3.08054,0.0,0.0
856,213.75,178.213,214.498,94.2229,115.92,79.4636,0.0146408,2.14408,17.7892,877.968,3.38226,0.0,0.0
860,214.75,177.935,214.526,101.124,115.901,79.9672,0.0142625,2.09417,17.8808,877.707,3.32422,0.0,0.0
864,215.75,177.861,214.369,100.908,115.876,80.7912,0.0139257,2.02505,17.9923,877.557,3.23043,0.0,0.0
868,216.75,177.581,213.856,100.483,115.855,79.2966,0.0136531,1.95699,18.0913,877.437,3.39608,0.0,0.0
872,217.75,177.137,212.971,99.6887,115.852,77.2925,0.0133853,1.89716,18.1711,877.177,3.62516,0.0,0.0
876,218.75,176.719,212.502,101.762,115.836,79.2365,0.013096,1.84222,18.2404,876.887,3.40142,0.0,0.0
880,219.75,176.147,211.555,96.9715,115.809,80.3639,0.0127395,1.79337,18.3131,876.686,3.27279,0.0,0.0
884,220.75,175.64,210.527,104.355,115.8,78.1716,0.0123923,1.73876,18.3692,876.476,3.51982,0.0,0.0
888,221.75,175.08,210.052,107.155,115.789,81.0321,0.0120136,1.68759,18.4348,876.376,3.19706,0.0,0.0
892,222.75,174.383,208.935,99.7147,115.765,77.5348,0.0115926,1.63968,18.4986,876.026,3.59035,0.0,0.0
896,223.75,173.711,207.873,102.181,115.758,77.7771,0.0111347,1.60549,18.5604,875.876,3.56185,0.0,0.0
900,224.75,173.616,207.394,108.705,115.741,80.4684,0.0106901,1.55001,18.6417,875.736,3.25584,0.0,0.0
904,225.75,172.484,206.141,105.27,115.739,82.3431,0.0101887,1.49493,18.7297,875.455,3.04941,0.0,0.0
908,226.75,172.123,205.25,116.949,115.718,77.9366,0.00967016,1.43619,18.8171,875.345,3.54044,0.0,0.0
912,227.75,170.953,203.688,110.608,115.705,80.4596,0.00913908,1.38092,18.9058,875.225,3.25408,0.0,0.0
916,228.75,169.947,202.355,108.792,115.698,80.4055,0.00861088,1.33077,18.9832,875.075,3.25956,0.0,0.0
920,229.75,168.81,200.844,113.749,115.689,79.7988,0.0081435,1.28378,19.0633,874.935,3.32668,0.0,0.0
924,230.75,167.897,199.229,112.433,115.682,82.8245,0.00770224,1.24329,19.1333,874.715,2.99282,0.0,0.0
928,231.75,166.577,197.72,116.042,115.659,81.5917,0.00735861,1.19929,19.1974,874.635,3.12533,0.0,0.0
932,232.75,166.077,196.783,117.476,115.655,78.8375,0.00697952,1.15489,19.2527,874.394,3.43262,0.0,0.0
936,233.75,164.788,195.101,114.489,115.643,81.1806,0.00659277,1.11445,19.3094,874.274,3.16934,0.0,0.0
940,234.75,163.447,193.472,116.451,115.634,79.4465,0.00618553,1.0801,19.3642,874.064,3.36205,0.0,0.0
944,235.75,161.71,191.148,113.509,115.629,81.8395,0.00575869,1.04692,19.4235,873.944,3.09583,0.0,0.0
948,236.75,162.158,190.841,118.313,115.62,81.4821,0.00532527,1.01114,19.4859,873.784,3.13438,0.0,0.0
952,237.75,160.347,188.89,118.051,115.626,80.9776,0.00486765,0.975042,19.5481,873.774,3.19045,0.0,0.0
956,238.75,159.237,187.285,114.025,115.634,82.2012,0.00444898,0.937348,19.6051,873.474,3.05677,0.0,0.0
960,239.75,157.975,185.927,116.498,115.691,83.7572,0.00397799,0.899591,19.6571,873.544,2.89317,0.0,0.0
964,240.75,156.992,184.488,122.644,115.773,80.7385,0.00339103,0.86535,19.707,873.283,3.2283,0.0,0.0
968,241.75,155.123,181.944,119.365,115.83,83.1445,0.00271116,0.82526,19.7629,873.303,2.96968,0.0,0.0
972,242.75,154.602,180.921,122.106,115.902,84.8,0.00211026,0.785734,19.8043,873.243,2.79869,0.0,0.0
976,243.75,153.128,178.825,126.135,115.938,84.4795,0.00132535,0.74754,19.8611,873.063,2.8354,0.0,0.0
980,244.75,151.833,176.975,123.351,116.014,85.8936,0.000588745,0.711104,19.9326,872.933,2.69256,0.0,0.0
984,245.75,150.39,175.158,123.412,116.079,87.9242,8.83951e-05,0.683954,19.9798,872.923,2.48833,0.0,0.0
988,246.75,149.475,174.138,128.563,116.14,87.4386,-0.000509816,0.644126,20.0306,872.863,2.54257,0.0,0.0
992,247.75,147.93,172.202,123.478,116.198,89.5538,-0.00111374,0.601651,20.0892,872.783,2.33294,0.0,0.0
996,248.75,146.547,170.132,127.243,116.231,89.9556,-0.00167935,0.571915,20.1547,872.743,2.29545,0.0,0.0
1000,249.75,145.158,168.389,131.751,116.286,93.1218,-0.00219534,0.534738,20.2255,872.773,1.9898,0.0,0.0
1004,250.75,143.372,166.222,135.619,116.332,94.0365,-0.00266003,0.49628,20.2947,872.723,1.9058,0.0,0.0
1008,251.75,142.104,164.509,131.561,116.373,93.5163,-0.00305482,0.463784,20.3515,872.723,1.95864,0.0,0.0
1012,252.75,140.718,162.62,128.209,116.424,93.6791,-0.00340309,0.433042,20.4031,872.523,1.94698,0.0,0.0
1016,253.75,139.444,160.713,136.86,116.443,97.2171,-0.00376264,0.403345,20.4458,872.463,1.6164,0.0,0.0
1020,254.75,136.827,158.094,135.182,116.465,97.6476,-0.00409463,0.375399,20.4847,872.483,1.57852,0.0,0.0
1024,255.75,136.237,156.918,136.658,116.495,96.825,-0.00442008,0.35103,20.5222,872.513,1.65655,0.0,0.0
1028,256.75,135.111,155.313,134.899,116.531,96.3528,-0.00472062,0.331557,20.5543,872.383,1.70312,0.0,0.0
1032,257.75,133.329,153.144,137.578,116.56,96.4523,-0.00496762,0.312159,20.5873,872.343,1.69609,0.0,0.0
1036,258.75,131.698,151.245,135.425,116.576,97.7286,-0.00518774,0.293929,20.6193,872.343,1.57957,0.0,0.0
1040,259.75,130.043,149.239,137.447,116.592,99.1833,-0.00536882,0.277786,20.6483,872.323,1.44848,0.0,0.0
1044,260.75,129.288,148.046,140.18,116.606,99.0673,-0.00560225,0.262818,20.6717,872.212,1.46005,0.0,0.0
1048,261.75,127.767,145.977,138.03,116.63,99.6079,-0.00584529,0.249026,20.694,872.273,1.41315,0.0,0.0
1052,262.75,126.729,144.597,138.32,116.62,100.292,-0.00608444,0.236086,20.714,872.192,1.3511,0.0,0.0
1056,263.75,125.462,142.933,138.298,116.614,102.022,-0.00631945,0.22359,20.7332,872.162,1.1974,0.0,0.0
1060,264.75,123.865,140.881,140.291,116.625,100.714,-0.00653855,0.210652,20.7542,872.162,1.31387,0.0,0.0
1064,265.75,122.386,139.131,137.324,116.623,101.649,-0.00676351,0.19862,20.7738,872.162,1.23084,0.0,0.0
1068,266.75,121.726,138.06,143.284,116.624,102.601,-0.00694429,0.188063,20.7912,872.202,1.14751,0.0,0.0
1072,267.75,120.535,136.562,140.915,116.63,102.715,-0.00717976,0.17714,20.8043,872.192,1.13802,0.0,0.0
1076,268.75,119.876,135.653,143.051,116.634,103.225,-0.00738143,0.166291,20.8181,872.182,1.0939,0.0,0.0
1080,269.75,117.536,133.184,139.377,116.614,102.573,-0.00756686,0.156637,20.8319,872.192,1.14918,0.0,0.0
1084,270.75,116.623,132.543,142.973,116.634,103.695,-0.00771177,0.149622,20.8443,872.142,1.05326,0.0,0.0
1088,271.75,115.334,130.231,138.402,116.638,104.277,-0.007837,0.1418,20.8584,872.192,1.00336,0.0,0.0
1092,272.75,114.103,128.632,144.797,116.637,103.91,-0.00795717,0.134353,20.8705,872.132,1.03488,0.0,0.0
1096,273.75,113.24,127.45,139.336,116.627,104.767,-0.00808702,0.127267,20.8816,872.162,0.960603,0.0,0.0
1100,274.75,112.106,126.043,142.376,116.634,104.841,-0.00822436,0.120345,20.89,872.122,0.954859,0.0,0.0
1104,275.75,110.603,124.295,142.157,116.627,104.776,-0.00837534,0.114453,20.8986,872.112,0.959774,0.0,0.0
1108,276.75,109.362,122.893,142.602,116.64,104.902,-0.00849568,0.110137,20.9051,872.142,0.950042,0.0,0.0
1112,277.75,109.003,121.91,144.562,116.617,105.071,-0.00858676,0.106778,20.9104,872.172,0.933867,0.0,0.0
1116,278.75,107.574,120.255,141.652,116.607,106.575,-0.00866083,0.103484,20.9159,872.002,0.805781,0.0,0.0
1120,279.75,106.775,119.388,142.512,116.606,106.292,-0.0087319,0.0997009,20.9224,872.042,0.829524,0.0,0.0
1124,280.75,105.758,118.042,144.511,116.576,106.276,-0.00880754,0.0955601,20.9285,872.112,0.828649,0.0,0.0
1128,281.75,104.797,116.747,145.22,116.578,105.961,-0.00888307,0.0911629,20.9335,872.082,0.855335,0.0,0.0
1132,282.75,103.909,115.827,146.83,116.561,106.763,-0.00900014,0.0868804,20.9393,872.082,0.786508,0.0,0.0
1136,283.75,102.24,113.898,146.145,116.54,106.581,-0.00909652,0.0828514,20.9454,872.052,0.800138,0.0,0.0
1140,284.75,101.503,113.086,146.607,116.516,106.439,-0.00916148,0.0797544,20.9514,871.972,0.810235,0.0,0.0
1144,285.75,101.219,112.197,144.105,116.509,106.815,-0.00918948,0.075936,20.9572,872.072,0.778071,0.0,0.0
1148,286.75,99.565,110.266,148.348,116.446,105.989,-0.00918934,0.0726081,20.9632,872.112,0.842823,0.0,0.0
1152,287.75,98.4924,109.599,146.389,116.428,106.15,-0.00917865,0.0694945,20.9683,871.972,0.827819,0.0,0.0
1156,288.75,97.1019,106.944,148.141,116.399,105.968,-0.00916047,0.0662666,20.9724,871.892,0.840997,0.0,0.0
1160,289.75,97.048,106.699,146.515,116.378,106.392,-0.00915116,0.0633428,20.9767,872.132,0.803559,0.0,0.0
1164,290.75,95.7873,105.216,144.338,116.334,105.942,-0.00915142,0.0609486,20.98,872.022,0.838189,0.0,0.0
1168,291.75,94.6136,104.112,146.12,116.29,106.247,-0.00916774,0.0589856,20.9825,872.142,0.808976,0.0,0.0
1172,292.75,94.2607,103.22,147.638,116.247,106.229,-0.00921014,0.0573866,20.9844,872.072,0.807198,0.0,0.0
1176,293.75,93.3595,102.142,146.51,116.177,105.84,-0.0092622,0.0562588,20.9865,871.942,0.834721,0.0,0.0
1180,294.75,91.4248,100.04,145.263,116.15,106.115,-0.00931867,0.0552925,20.9884,872.082,0.809364,0.0,0.0
1184,295.75,91.5583,99.7563,143.769,116.104,106.275,-0.00936684,0.0545078,20.9894,872.042,0.792344,0.0,0.0
1188,296.75,90.7776,99.6807,147.902,116.047,106.362,-0.00940294,0.0537919,20.99,872.082,0.780591,0.0,0.0
1192,297.75,90.2321,98.2508,147.052,116.006,105.606,-0.00943561,0.0531271,20.991,871.982,0.841366,0.0,0.0
1196,298.75,89.9191,98.1931,145.591,116.028,106.026,-0.00944806,0.0524525,20.9919,871.952,0.807452,0.0,0.0
1200,299.75,88.2715,96.3808,148.734,116.037,106.033,-0.009436,0.0517775,20.9924,871.892,0.807521,0.0,0.0
1204,300.75,87.9371,95.4098,148.558,116.051,106.239,-0.00941235,0.0512092,20.9934,871.972,0.79128,0.0,0.0
1208,301.75,87.1951,94.7778,145.659,116.052,105.472,-0.00939436,0.0507034,20.9943,871.862,0.856193,0.0,0.0
1212,302.75,86.7132,94.0132,146.015,116.073,106.163,-0.00939047,0.0502357,20.9948,871.942,0.799384,0.0,0.0
1216,303.75,86.2182,92.8085,148.919,116.092,105.857,-0.00941335,0.0498575,20.9951,871.972,0.826666,0.0,0.0
1220,304.75,85.609,92.4013,141.698,116.111,106.22,-0.00945816,0.0495091,20.9954,871.972,0.79753,0.0,0.0
1224,305.75,84.6994,91.2662,145.096,116.124,106.193,-0.00953766,0.0491801,20.9955,871.942,0.800809,0.0,0.0
1228,306.75,83.7234,90.9046,144.533,116.15,106.104,-0.00961851,0.0489141,20.9959,871.922,0.810298,0.0,0.0
1232,307.75,83.7252,89.5042,150.73,116.183,106.388,-0.00969178,0.0487605,20.9962,872.032,0.788862,0.0,0.0
1236,308.75,82.4758,89.5643,147.355,116.197,106.26,-0.00973454,0.0486653,20.9964,872.022,0.800705,0.0,0.0
1240,309.75,82.153,88.8133,145.673,116.2,106.333,-0.00974699,0.0485752,20.9965,871.982,0.794841,0.0,0.0
1244,310.75,81.5596,88.0396,147.103,116.227,106.686,-0.00973188,0.0484644,20.9965,872.032,0.767272,0.0,0.0
1248,311.75,80.8924,87.1156,141.837,116.249,106.038,-0.00970255,0.0482913,20.9968,872.022,0.8235,0.0,0.0
1252,312.75,80.6644,86.3521,149.231,116.273,105.674,-0.00968304,0.0480921,20.9976,872.032,0.856105,0.0,0.0
1256,313.75,79.9666,85.8152,147.602,116.304,106.411,-0.00968622,0.0479112,20.9981,872.012,0.79631,0.0,0.0
1260,314.75,80.1774,85.108,149.626,116.335,106.02,-0.00972497,0.047743,20.9983,871.982,0.831582,0.0,0.0
1264,315.75,78.9638,84.3352,148.201,116.355,105.815,-0.00975393,0.0476142,20.9983,872.042,0.8505,0.0,0.0
1268,316.75,78.625,84.3148,143.389,116.384,106.045,-0.00975618,0.0475119,20.9983,872.012,0.833313,0.0,0.0
1272,317.75,78.2271,83.2809,144.935,116.409,106.287,-0.0097442,0.0474171,20.999,871.962,0.814866,0.0,0.0
1276,318.75,77.5854,82.8322,145.174,116.447,105.86,-0.00972929,0.0473397,20.9995,872.122,0.85373,0.0,0.0
1280,319.75,77.3473,82.2006,146.233,116.465,106.302,-0.00972324,0.0473067,20.9999,872.082,0.817851,0.0,0.0
1284,320.75,76.5847,81.304,144.222,116.497,106.653,-0.0097276,0.0473352,21.0002,872.012,0.790786,0.0,0.0
1288,321.75,76.2641,81.2633,143.746,116.513,106.346,-0.00973581,0.0473038,21.0003,871.992,0.81784,0.0,0.0
1292,322.75,75.2646,79.7278,146.952,116.53,106.773,-0.00975403,0.0471829,21.0005,872.062,0.783265,0.0,0.0
1296,323.75,75.5533,80.1061,147.96,116.554,106.876,-0.00977787,0.0471035,21.0005,872.102,0.776427,0.0,0.0
1300,324.75,74.9636,79.0466,142.473,116.573,106.853,-0.00980308,0.0469762,21.0006,872.152,0.779886,0.0,0.0
1304,325.75,73.8722,78.0446,146.06,116.582,106.367,-0.00983085,0.046865,21.0006,872.062,0.821408,0.0,0.0
1308,326.75,74.4248,78.1953,146.603,116.61,106.325,-0.00984446,0.0467558,21.0004,872.022,0.827083,0.0,0.0
1312,327.75,73.8696,77.7734,145.205,116.634,106.529,-0.00985339,0.0465759,21.0006,872.062,0.811765,0.0,0.0
1316,328.75,73.3224,77.4696,150.28,116.643,106.562,-0.00985598,0.0463717,21.0011,872.002,0.809689,0.0,0.0
1320,329.75,72.2091,76.0173,150.417,116.657,106.542,-0.00984187,0.0462407,21.0015,872.022,0.812484,0.0,0.0
1324,330.75,72.596,75.7297,147.02,116.682,106.168,-0.00980368,0.0462081,21.0017,871.962,0.845792,0.0,0.0
1328,331.75,72.4457,75.6219,148.179,116.69,106.92,-0.00974819,0.0461275,21.0018,871.912,0.783229,0.0,0.0
1332,332.75,72.0441,75.361,145.646,116.705,107.104,-0.00969519,0.0460587,21.0019,871.982,0.768982,0.0,0.0
1336,333.75,70.7087,74.4626,145.915,116.7,106.648,-0.00965947,0.0459996,21.002,871.932,0.806834,0.0,0.0
1340,334.75,71.861,74.0576,147.458,116.733,106.958,-0.00963763,0.0459636,21.002,872.012,0.783343,0.0,0.0
1344,335.75,70.9394,73.8208,149.261,116.742,106.956,-0.00961976,0.0459511,21.0021,871.952,0.784219,0.0,0.0
1348,336.75,70.3491,73.3875,150.699,116.755,106.746,-0.0095997,0.0459568,21.0021,871.872,0.802755,0.0,0.0
1352,337.75,70.4985,73.8126,146.358,116.768,107.08,-0.00958055,0.0459856,21.0021,871.992,0.775796,0.0,0.0
1356,338.75,70.2072,73.3175,147.848,116.789,106.682,-0.00959496,0.0460157,21.0018,871.982,0.810749,0.0,0.0
1360,339.75,69.906,72.2846,143.231,116.802,106.575,-0.00962743,0.0459366,21.0015,872.012,0.820772,0.0,0.0
1364,340.75,69.322,71.9632,148.497,116.817,106.483,-0.00967087,0.0458986,21.0014,872.032,0.829661,0.0,0.0
1368,341.75,69.2166,71.9238,146.111,116.83,106.751,-0.00970664,0.0458557,21.0013,872.022,0.80818,0.0,0.0
1372,342.75,68.5606,71.1727,145.078,116.847,106.395,-0.00975034,0.0457783,21.0012,872.042,0.839332,0.0,0.0
1376,343.75,68.7008,71.0665,150.859,116.856,107.032,-0.00979502,0.0457663,21.0011,872.022,0.786569,0.0,0.0
1380,344.75,67.7287,70.2412,146.787,116.872,106.382,-0.00983362,0.0457321,21.0011,872.052,0.842372,0.0,0.0
1384,345.75,67.8813,70.0844,149.819,116.875,107.083,-0.00986213,0.0457004,21.0011,871.972,0.783753,0.0,0.0
1388,346.75,67.902,69.9056,146.073,116.903,106.531,-0.00987634,0.0456204,21.001,871.982,0.832146,0.0,0.0
1392,347.75,67.7086,69.3133,148.283,116.909,107.606,-0.00987655,0.0455242,21.001,871.912,0.742743,0.0,0.0
1396,348.75,67.5598,69.2452,147,116.933,106.258,-0.00986546,0.045411,21.0009,871.962,0.857463,0.0,0.0
1400,349.75,66.7041,68.6478,149.134,116.963,106.732,-0.00985197,0.045272,21.0006,871.922,0.819903,0.0,0.0
1404,350.75,66.4061,68.4307,145.352,116.956,107.441,-0.00983809,0.0450912,21.0005,871.972,0.760063,0.0,0.0
1408,351.75,66.466,68.649,148.216,116.97,106.868,-0.00982898,0.0449276,21.0004,872.062,0.809116,0.0,0.0
1412,352.75,66.2381,67.9708,145.493,116.973,107.024,-0.00982301,0.0448454,21.0003,872.022,0.796202,0.0,0.0
1416,353.75,66.0737,67.7023,148.178,116.977,106.979,-0.0098204,0.0448112,21.0002,872.002,0.800282,0.0,0.0
1420,354.75,66.1516,67.4897,148.23,116.983,107.911,-0.00982318,0.0446559,21.0002,872.052,0.723072,0.0,0.0
1424,355.75,65.8678,67.2823,147.436,116.994,107.435,-0.00982819,0.0445168,21.0002,872.022,0.763448,0.0,0.0
1428,356.75,65.1372,66.5929,147.076,116.985,107.251,-0.00985171,0.044465,21.0002,872.052,0.77812,0.0,0.0
1432,357.75,64.617,66.246,145.411,116.994,107.272,-0.00988494,0.0444022,21.0002,872.062,0.777104,0.0,0.0
1436,358.75,64.0483,65.6584,146.595,116.993,106.783,-0.00992038,0.0443088,21.0003,872.042,0.817941,0.0,0.0
1440,359.75,64.1736,66.1506,149.431,117.012,106.833,-0.0099354,0.0442143,21.0005,872.052,0.815193,0.0,0.0
1444,360.75,64.0662,65.6468,147.628,117.006,106.693,-0.00994239,0.0441388,21.0007,872.052,0.826442,0.0,0.0
1448,361.75,64.8017,65.6705,147.047,116.987,107.563,-0.00989529,0.0440537,21.001,871.982,0.752269,0.0,0.0
1452,362.75,64.1514,65.1921,140.574,116.993,107.42,-0.00983067,0.0439728,21.0012,871.992,0.764683,0.0,0.0
1456,363.75,63.834,65.004,148.148,116.986,107.253,-0.00977711,0.0438921,21.0016,872.012,0.778113,0.0,0.0
1460,364.75,63.4898,64.8859,150.537,116.984,107.153,-0.00974781,0.0438029,21.0024,872.052,0.786314,0.0,0.0
1464,365.75,63.592,65.0042,143.753,116.971,107.561,-0.00977169,0.0437331,21.003,872.042,0.75124,0.0,0.0
1468,366.75,63.0318,64.3428,141.668,116.962,107.296,-0.00981889,0.0436874,21.0032,872.022,0.772647,0.0,0.0
1472,367.75,63.1,63.7372,148.55,116.944,107.004,-0.00992344,0.0436574,21.0036,872.032,0.795596,0.0,0.0
1476,368.75,62.2791,62.8106,146.264,116.938,107.439,-0.0099924,0.0436376,21.0037,871.962,0.75885,0.0,0.0
1480,369.75,63.2107,63.5425,148.379,116.909,106.872,-0.0100792,0.0436275,21.0038,871.962,0.804005,0.0,0.0
1484,370.75,62.0477,63.7291,146.187,116.9,107.316,-0.0101424,0.0435768,21.0039,872.012,0.766229,0.0,0.0
1488,371.75,62.3641,63.3421,151.058,116.89,106.74,-0.0101786,0.0435291,21.0039,871.932,0.813654,0.0,0.0
1492,372.75,61.7542,62.3563,148.036,116.862,107.517,-0.0101844,0.0434533,21.0039,872.012,0.746531,0.0,0.0
1496,373.75,62.2123,62.791,151,116.829,107.035,-0.0101704,0.0434286,21.0042,871.972,0.784242,0.0,0.0
1500,374.75,61.8949,62.694,148.028,116.819,106.974,-0.0101622,0.043373,21.0049,872.042,0.78859,0.0,0.0
1504,375.75,61.5604,62.3154,148.93,116.788,106.671,-0.0101634,0.0432864,21.0054,871.882,0.811609,0.0,0.0
1508,376.75,61.0964,62.2408,143.63,116.785,107.692,-0.0101655,0.0431598,21.0056,871.972,0.726062,0.0,0.0
1512,377.75,61.3388,61.9705,150.234,116.761,107.175,-0.0101406,0.0430107,21.0059,871.912,0.767364,0.0,0.0
1516,378.75,61.0114,61.915,154.506,116.752,107.316,-0.0100782,0.0428931,21.006,871.972,0.754862,0.0,0.0
1520,379.75,60.8773,62.0894,146.383,116.736,107.376,-0.010005,0.0428558,21.0061,872.032,0.74858,0.0,0.0
1524,380.75,61.0656,61.3125,149.471,116.712,106.6,-0.0099426,0.0428072,21.0062,871.982,0.811703,0.0,0.0
1528,381.75,59.9234,60.9948,149.445,116.688,106.612,-0.00991707,0.0426897,21.0058,871.982,0.808962,0.0,0.0
1532,382.75,60.0766,61.2596,148.177,116.679,106.793,-0.00992356,0.0425771,21.0052,871.912,0.793021,0.0,0.0
1536,383.75,60.0917,60.7428,150.416,116.641,106.321,-0.00993687,0.0426284,21.0048,872.002,0.829744,0.0,0.0
1540,384.75,60.0325,60.5469,144.584,116.624,106.901,-0.00994064,0.0425869,21.0046,872.012,0.77976,0.0,0.0
1544,385.75,60.1755,60.4724,143.945,116.586,107.008,-0.00992294,0.0424596,21.0046,871.922,0.767886,0.0,0.0
1548,386.75,59.7958,59.9928,149.461,116.554,106.723,-0.00989303,0.0423833,21.0046,872.002,0.789303,0.0,0.0
1552,387.75,60.1034,60.7001,144.956,116.519,106.606,-0.00986392,0.042351,21.0046,872.042,0.796376,0.0,0.0
1556,388.75,59.5225,60.0987,152.193,116.488,106.296,-0.0098528,0.0423549,21.0046,871.962,0.820094,0.0,0.0
1560,389.75,59.0763,59.2542,147.404,116.472,106.83,-0.00987471,0.0423377,21.0046,872.002,0.774008,0.0,0.0
1564,390.75,59.2845,59.6079,148.354,116.445,107.613,-0.00990257,0.0423606,21.004,871.972,0.706505,0.0,0.0
1568,391.75,59.6681,59.5226,148.422,116.423,106.552,-0.00990968,0.0423723,21.0034,872.022,0.793539,0.0,0.0
1572,392.75,59.0015,58.9941,146.012,116.385,106.408,-0.00989287,0.042355,21.0031,871.992,0.802776,0.0,0.0
1576,393.75,58.7597,59.3567,147.602,116.345,106.724,-0.0098631,0.0423325,21.003,872.092,0.773152,0.0,0.0
1580,394.75,59.0631,59.0983,146.068,116.33,106.954,-0.0098328,0.0422426,21.0036,872.022,0.75276,0.0,0.0
1584,395.75,58.0576,58.4797,148.622,116.293,106.193,-0.00981859,0.0421085,21.0042,872.002,0.813757,0.0,0.0
1588,396.75,58.4825,58.4589,146.97,116.249,106.197,,0.0421207,,871.892,0.810112,0.0,0.0
1592,397.75,58.1244,58.8996,148.085,116.205,106.508,,0.0421286,,871.802,0.780452,0.0,0.0
1596,398.75,57.9083,57.9422,146.921,116.197,106.831,,0.0420588,,872.012,0.75277,0.0,0.0
1600,399.75,58.345,58.3995,149,116.145,106.665,,,,871.972,0.762631,0.0,0.0
1604,400.75,58.2542,58.7983,149.934,116.107,106.872,,,,871.902,0.742425,0.0,0.0
1608,401.75,57.9457,58.1531,149.794,116.094,106.781,,,,871.982,0.748971,0.0,0.0
1612,402.75,58.0472,58.087,152.344,116.058,106.566,,,,871.972,0.764303,0.0,0.0
1616,403.75,57.9981,57.6023,147.158,116.023,106.705,,,,871.942,0.749886,0.0,0.0
1620,404.75,58.1331,57.7095,147.022,115.996,106.456,,,,871.902,0.768687,0.0,0.0
1624,405.75,57.3641,57.9482,149.635,115.963,106.355,,,,871.942,0.774668,0.0,0.0
1628,406.75,57.2708,57.3135,151.272,115.93,106.814,,,,872.042,0.733572,0.0,0.0
1631,407.5,56.859,56.9134,145.63,115.887,107.139,,,,872.002,0.703006,0.0,0.0