File: 01_Data/Nylon/Cone/Nylon_Cone_HF75Scan_220225_R3.csv
Names,Time,Stack TC,Smoke TC,Exh Press,Smoke Comp,Smoke Meas,CO Meter,CO2 Meter,O2 Meter,Sample Mass,Ext Coeff,Start Test,Flame Verif
Chan Gain,,500,500,1,1,1,1,1,1,1,1,1.0,1.0
Offset,,0,0,0.134422,0,0,0,0,0,0,0,0.0,0.0
Gain,,1,1,25.011,15.3125,15.3273,1,1,1,1.00096,1.02035,1.0,1.0
Units,sec,C,C,Pa,%,%,%,%,%,g,/m,,
Baseline,,58.8597,60.035,146.681,115.429,108.656,0.000666344,0.0664013,20.9999,-869.364,0.541309,,
3,0.5,56.416,57.0128,147.36,115.5,108.517,0.000717091,0.0714097,20.9903,39.698,0.55817,0.0,0.0
6,1.25,55.6243,56.2492,147.196,115.48,109.505,0.000740521,0.0713651,20.9904,39.7181,0.4755,0.0,0.0
9,2,55.4147,56.3594,148.072,115.489,109.523,0.00076277,0.0713326,20.9904,39.698,0.474733,0.0,0.0
12,2.75,55.3193,56.7222,145.4,115.496,108.723,0.000778989,0.0713089,20.9905,39.668,0.54092,0.0,0.0
15,3.5,55.6866,56.2524,146.654,115.504,109.391,0.00077753,0.0712916,20.9906,39.648,0.486717,0.0,0.0
18,4.25,55.8663,56.6885,144.335,115.501,108.261,0.000770804,0.0714149,20.9909,39.648,0.579371,0.0,0.0
21,5,55.0689,56.4086,144.44,115.499,109.19,0.00074352,0.0715048,20.9912,39.628,0.502752,0.0,0.0
24,5.75,55.2738,56.6369,147.345,115.5,109.138,0.000704326,0.0716563,20.9911,39.648,0.507118,0.0,0.0
27,6.5,56.0443,56.255,146.18,115.516,109.913,0.000661179,0.0719139,20.9907,39.638,0.445049,0.0,0.0
30,7.25,55.4435,56.4161,145.554,115.506,108.762,0.000618871,0.0721152,20.9904,39.618,0.53845,0.0,0.0
33,8,55.6271,56.5171,149.428,115.508,109.119,0.000601788,0.0722033,20.9901,39.618,0.509308,0.0,0.0
36,8.75,55.0446,57.1945,147.405,115.522,109.396,0.000589334,0.0721572,20.99,39.638,0.48771,0.0,0.0
39,9.5,55.1742,56.7068,147.505,115.525,109.23,0.000624999,0.0720265,20.9905,39.608,0.501522,0.0,0.0
42,10.25,55.0975,56.9352,149.301,115.517,108.836,0.000669111,0.0719176,20.9909,39.5979,0.533275,0.0,0.0
45,11,55.7688,56.6691,143.205,115.528,109.542,0.000700884,0.0718324,20.991,39.5879,0.476248,0.0,0.0
48,11.75,55.462,56.9473,143.223,115.535,109.63,0.000742489,0.0715956,20.9913,39.5879,0.469571,0.0,0.0
51,12.5,55.944,57.2757,140.132,115.539,108.666,0.000772818,0.0713872,20.9914,39.5779,0.548915,0.0,0.0
54,13.25,55.8096,56.8483,146.01,115.536,109.146,0.000787936,0.071174,20.9915,39.5879,0.509256,0.0,0.0
57,14,55.5095,57.0669,144.188,115.547,108.66,0.000787,0.0710242,20.9916,39.5579,0.550067,0.0,0.0
60,14.75,55.4932,56.9136,145.058,115.545,108.73,0.000771831,0.0708511,20.9917,39.5279,0.544145,0.0,0.0
63,15.5,56.0776,56.9984,145.936,115.553,108.957,0.000754597,0.070725,20.9917,39.5379,0.526031,0.0,0.0
66,16.25,55.8215,56.6643,147.417,115.554,108.601,0.000734792,0.070701,20.9915,39.5379,0.55543,0.0,0.0
69,17,55.6388,57.2623,144.365,115.568,108.28,0.000722984,0.0708344,20.991,39.5079,0.582998,0.0,0.0
72,17.75,55.4351,56.9071,143.466,115.569,108.712,0.000724153,0.0711398,20.99,39.5179,0.547455,0.0,0.0
75,18.5,55.7578,56.9748,145.944,115.574,107.904,0.000764621,0.0716485,20.9892,39.5179,0.614612,0.0,0.0
78,19.25,55.8029,56.8784,147.096,115.567,109.466,0.000813456,0.0721413,20.9884,39.5079,0.485483,0.0,0.0
81,20,55.3658,56.9071,149.572,115.581,108.141,0.000859844,0.0729282,20.9875,39.4778,0.595541,0.0,0.0
84,20.75,55.6377,57.1951,145.2,115.582,108.145,0.000898011,0.073588,20.9861,39.4478,0.595268,0.0,0.0
87,21.5,56.0588,56.7483,141.314,115.592,107.713,0.00091894,0.0742162,20.9852,39.4378,0.631831,0.0,0.0
90,22.25,56.2159,57.443,143.914,115.587,108.643,0.000934197,0.0747326,20.9845,39.4578,0.554529,0.0,0.0
93,23,56.0262,57.4743,146.349,115.587,107.337,0.000940147,0.0751363,20.9839,39.4578,0.662773,0.0,0.0
96,23.75,55.6719,57.0745,146.533,115.598,108.226,0.000960124,0.075435,20.9836,39.4278,0.589839,0.0,0.0
99,24.5,55.8984,57.3141,146.71,115.595,107.308,0.000981356,0.0756406,20.9833,39.4378,0.665769,0.0,0.0
102,25.25,55.4487,57.4199,144.385,115.612,107.823,0.00104515,0.075732,20.9831,39.4578,0.624332,0.0,0.0
105,26,55.977,57.9522,144.684,115.611,106.323,0.00109165,0.0757987,20.9831,39.4678,0.749617,0.0,0.0
108,26.75,56.0452,57.7523,143.379,115.609,105.921,0.0011849,0.0758667,20.9836,39.4578,0.783401,0.0,0.0
111,27.5,55.9542,56.7498,146.204,115.627,105.692,0.00129222,0.0760946,20.9841,39.4278,0.804088,0.0,0.0
114,28.25,56.1713,57.5692,145.786,115.624,107.007,0.00139448,0.0763366,20.9836,39.4078,0.693173,0.0,0.0
117,29,56.0994,57.3721,149.333,115.623,110.074,0.00147767,0.0775424,20.9802,39.3877,0.440207,0.0,0.0
120,29.75,56.1831,57.2939,142.988,115.631,107.921,0.00153832,0.0801816,20.9764,39.3677,0.61759,0.0,0.0
123,30.5,56.3801,57.5364,144.811,115.626,108.738,0.00156696,0.0866792,20.9653,39.3577,0.549712,0.0,1.0
126,31.25,56.0916,57.6574,139.518,115.637,108.961,0.00158541,0.09578,20.949,39.2877,0.532272,0.0,1.0
129,32,56.5813,58.0525,134.592,115.642,108.234,0.00160804,0.104275,20.9237,39.3377,0.592546,0.0,1.0
132,32.75,56.7228,57.8818,135.108,115.643,109.05,0.00163186,0.120784,20.8962,39.3777,0.525445,0.0,1.0
135,33.5,56.9889,58.3082,136.939,115.633,107.728,0.0017096,0.137314,20.8659,39.2476,0.633845,0.0,1.0
138,34.25,56.5624,58.0337,133.706,115.644,107.709,0.00179766,0.15705,20.8308,39.1775,0.636229,0.0,1.0
141,35,57.3046,58.5016,133.016,115.64,107.333,0.00191553,0.181992,20.7869,39.0975,0.667249,0.0,1.0
144,35.75,57.3733,58.8525,126.017,115.657,106.583,0.00207331,0.208079,20.7477,39.0774,0.731333,0.0,0.0
147,36.5,57.7364,59.3478,125.626,115.663,107.088,0.00221896,0.223775,20.7066,38.9673,0.689444,0.0,0.0
150,37.25,58.166,60.0991,127.024,115.664,107.028,0.00245397,0.255648,20.6634,38.9173,0.694558,0.0,0.0
153,38,58.6072,60.4959,129.61,115.674,106.145,0.00268767,0.283685,20.6263,38.8873,0.76944,0.0,0.0
156,38.75,59.1594,61.2931,125.912,115.669,106.491,0.00288463,0.312333,20.5772,38.7872,0.739978,0.0,0.0
159,39.5,59.8157,61.9812,129.892,115.67,105.456,0.00312433,0.343666,20.5188,38.6971,0.827478,0.0,0.0
162,40.25,60.5908,62.9158,128.967,115.69,105.746,0.00336535,0.370963,20.4664,38.657,0.804376,0.0,0.0
165,41,61.5953,63.3012,122.206,115.695,105.548,0.0036075,0.405228,20.4116,38.557,0.821613,0.0,0.0
168,41.75,61.6246,64.5598,126.354,115.711,105.319,0.00384933,0.438662,20.3508,38.4468,0.842223,0.0,0.0
171,42.5,62.6859,65.8961,124.579,115.704,104.557,0.00410996,0.471644,20.2911,38.3768,0.906748,0.0,0.0
174,43.25,63.4375,66.7233,116.556,115.713,104.316,0.00429996,0.504244,20.241,38.2867,0.92808,0.0,0.0
177,44,64.4166,67.7779,112.834,115.714,104.278,0.00450885,0.536446,20.1898,38.2066,0.93144,0.0,0.0
180,44.75,65.3679,69.0323,120.189,115.726,104.216,0.0046806,0.568519,20.1464,38.1666,0.937645,0.0,0.0
183,45.5,66.297,69.5192,110.812,115.725,103.707,0.00483911,0.600453,20.0939,38.0064,0.981386,0.0,0.0
186,46.25,66.933,71.1273,115.522,115.742,104.433,0.00499669,0.638963,20.0395,37.8663,0.920256,0.0,0.0
189,47,68.2302,72.2286,110.781,115.743,104.697,0.00511782,0.667037,20.0069,37.7462,0.897744,0.0,0.0
192,47.75,69.3786,73.356,112.25,115.742,102.859,0.00529372,0.70492,19.9446,37.6361,1.05622,0.0,0.0
195,48.5,70.5651,74.79,115.205,115.75,103.571,0.00551037,0.737926,19.8992,37.516,0.99502,0.0,0.0
198,49.25,71.715,76.0673,116.502,115.758,102.272,0.00566832,0.776102,19.8416,37.3758,1.10863,0.0,0.0
201,50,72.9183,77.1121,113.728,115.771,102.428,0.00588286,0.801487,19.7913,37.2557,1.09599,0.0,0.0
204,50.75,73.5489,79.0114,106.611,115.763,102.261,0.00608163,0.836217,19.7405,37.0956,1.10997,0.0,0.0
207,51.5,74.635,80.2812,107.719,115.768,102.942,0.00633119,0.87077,19.6858,37.0455,1.05101,0.0,0.0
210,52.25,75.0648,81.7676,114.086,115.783,101.821,0.00659519,0.903719,19.6383,36.8353,1.15018,0.0,0.0
213,53,77.0612,83.2957,108.008,115.805,101.384,0.00685171,0.941006,19.5824,36.6952,1.19032,0.0,0.0
216,53.75,77.9278,85.1291,104.448,115.796,100.713,0.00712613,0.976276,19.5287,36.545,1.24909,0.0,0.0
219,54.5,79.3498,86.2253,111.66,115.801,101.785,0.00737002,1.00543,19.4765,36.4349,1.15475,0.0,0.0
222,55.25,80.8111,88.0429,110.432,115.807,101.593,0.00759426,1.03766,19.4253,36.2848,1.17214,0.0,0.0
225,56,81.3697,89.5495,117.351,115.814,100.505,0.00780518,1.06763,19.377,36.0946,1.26894,0.0,0.0
228,56.75,82.9829,90.6939,108.059,115.826,100.124,0.00803306,1.09617,19.3304,35.9645,1.30393,0.0,0.0
231,57.5,84.2046,92.2519,106.481,115.822,99.4287,0.00823077,1.12371,19.2852,35.8544,1.36596,0.0,0.0
234,58.25,85.6095,93.7546,98.7871,115.823,100.667,0.00851497,1.15456,19.2324,35.7142,1.2553,0.0,0.0
237,59,86.588,95.431,102.784,115.835,98.9834,0.00877766,1.18942,19.1713,35.504,1.40718,0.0,0.0
240,59.75,87.2298,97.4001,93.8975,115.828,100.686,0.00899282,1.22817,19.1024,35.3339,1.25403,0.0,0.0
243,60.5,88.8204,98.5077,92.9335,115.835,101.527,0.00918389,1.26939,19.0395,35.1837,1.18008,0.0,0.0
246,61.25,90.4593,100.467,96.8117,115.842,101.936,0.00932066,1.30497,18.9863,34.9235,1.14458,0.0,0.0
249,62,91.6378,101.951,97.4399,115.847,101.687,0.00941995,1.34141,18.9468,34.8634,1.16685,0.0,0.0
252,62.75,93.4022,103.804,106.394,115.858,101.448,0.00950477,1.37016,18.918,34.6432,1.18878,0.0,0.0
255,63.5,95.0448,106.034,99.9869,115.858,101.641,0.00958594,1.39168,18.8971,34.4931,1.17183,0.0,0.0
258,64.25,96.0822,107.352,104.118,115.857,101.044,0.00964511,1.40674,18.8818,34.3329,1.22436,0.0,0.0
261,65,97.6486,109.081,105.472,115.863,102.042,0.00974055,1.4139,18.8777,34.1727,1.13693,0.0,0.0
264,65.75,98.937,110.703,101.038,115.876,102.587,0.00981611,1.41545,18.8777,34.0126,1.09019,0.0,0.0
267,66.5,99.7537,112.44,104.536,115.859,101.491,0.00988144,1.41501,18.8834,33.9025,1.18506,0.0,0.0
270,67.25,100.63,113.893,104.105,115.875,101.646,0.00994806,1.4104,18.8875,33.6522,1.1726,0.0,0.0
273,68,101.878,115.179,99.1863,115.865,101.323,0.010026,1.40703,18.8906,33.4421,1.20043,0.0,0.0
276,68.75,103.028,116.714,99.5847,115.877,101.058,0.0101194,1.40564,18.8928,33.362,1.22467,0.0,0.0
279,69.5,104.038,117.487,98.9153,115.869,99.7692,0.0102688,1.40563,18.8913,33.1818,1.339,0.0,0.0
282,70.25,105.293,118.976,96.3927,115.867,99.6935,0.0104247,1.40736,18.8852,33.0517,1.34566,0.0,0.0
285,71,105.997,120.132,100.808,115.882,99.2416,0.0105584,1.41291,18.8743,32.9716,1.38747,0.0,0.0
288,71.75,107.496,120.854,101.8,115.867,97.6807,0.0106902,1.42164,18.8665,32.7614,1.52817,0.0,0.0
291,72.5,108.107,122.761,99.0954,115.869,98.4025,0.0108009,1.42999,18.8514,32.5812,1.46246,0.0,0.0
294,73.25,109.611,124.118,99.6442,115.873,97.8262,0.0109364,1.44389,18.8336,32.4311,1.51532,0.0,0.0
297,74,110.475,125.116,99.0306,115.868,97.6686,0.0110913,1.46077,18.8156,32.2609,1.5294,0.0,0.0
300,74.75,111.181,126.649,95.792,115.869,97.3781,0.0112604,1.47596,18.7886,32.1308,1.55613,0.0,0.0
303,75.5,112.323,127.845,97.0605,115.855,98.1747,0.0115021,1.49407,18.7477,31.9206,1.48213,0.0,0.0
306,76.25,113.33,129.458,96.6827,115.862,95.9313,0.0117281,1.51932,18.7089,31.7805,1.68956,0.0,0.0
309,77,114.311,130.565,99.1504,115.866,97.5278,0.0119781,1.54832,18.6604,31.5302,1.54213,0.0,0.0
312,77.75,115.287,132.062,98.8993,115.864,97.9904,0.0122373,1.57316,18.6194,31.3901,1.49963,0.0,0.0
315,78.5,116.421,133.345,96.1065,115.858,95.8457,0.0124591,1.59759,18.5801,31.2299,1.69726,0.0,0.0
318,79.25,117.83,134.919,95.5775,115.849,98.0484,0.0128201,1.62665,18.5416,31.0397,1.49314,0.0,0.0
321,80,118.589,136.551,89.3744,115.84,97.1844,0.0130837,1.65245,18.5095,30.7795,1.57171,0.0,0.0
324,80.75,119.991,137.896,92.99,115.845,95.3747,0.0133882,1.67916,18.4678,30.6594,1.74035,0.0,0.0
327,81.5,121.181,139.109,90.4368,115.853,95.2012,0.0138759,1.71092,18.4157,30.4492,1.75723,0.0,0.0
330,82.25,122.328,140.838,91.1116,115.837,94.1918,0.0144004,1.75595,18.3499,30.1589,1.85141,0.0,0.0
333,83,123.473,141.866,88.2195,115.828,95.878,0.0149371,1.78438,18.2564,30.0388,1.69194,0.0,0.0
336,83.75,124.661,143.788,93.796,115.836,94.5571,0.0154693,1.83466,18.1648,29.8586,1.81672,0.0,0.0
339,84.5,125.943,145.646,99.8167,115.827,92.8559,0.0160664,1.88669,18.076,29.6985,1.9785,0.0,0.0
342,85.25,127.388,147.851,88.0012,115.807,93.8274,0.0165764,1.93823,18.0017,29.4382,1.88379,0.0,0.0
345,86,128.579,149.884,93.0747,115.802,92.6472,0.0170759,1.99449,17.9243,29.218,1.99668,0.0,0.0
348,86.75,130.195,151.409,82.2744,115.801,93.3854,0.0175706,2.04747,17.8595,28.9077,1.92558,0.0,0.0
351,87.5,131.912,153.155,92.2725,115.799,93.8779,0.0179868,2.09118,17.798,28.7175,1.87835,0.0,0.0
354,88.25,132.806,154.958,86.7601,115.778,93.0869,0.0185375,2.14485,17.731,28.5874,1.95246,0.0,0.0
357,89,134.444,157.633,85.1695,115.776,91.0443,0.0191051,2.19143,17.6607,28.2571,2.15087,0.0,0.0
360,89.75,136.321,159.283,96.4163,115.774,91.5055,0.0195896,2.23816,17.5887,28.1069,2.10554,0.0,0.0
363,90.5,137.943,161.521,90.6788,115.773,92.295,0.0202073,2.28514,17.5067,27.8667,2.02857,0.0,0.0
366,91.25,138.655,163.372,81.805,115.758,90.0213,0.0209291,2.33306,17.4239,27.6065,2.25067,0.0,0.0
369,92,140.772,165.236,83.9627,115.759,90.4497,0.0214553,2.38197,17.3537,27.3262,2.20825,0.0,0.0
372,92.75,141.937,167.644,80.4967,115.752,90.0161,0.0221828,2.4322,17.2765,27.086,2.25072,0.0,0.0
375,93.5,143.872,169.829,80.6036,115.744,90.714,0.0228715,2.48346,17.1968,26.9058,2.18094,0.0,0.0
378,94.25,145.038,172.144,81.0867,115.736,87.5684,0.0235254,2.53525,17.1176,26.6455,2.4962,0.0,0.0
381,95,147.092,174.081,86.5533,115.716,88.5254,0.0241464,2.59394,17.0526,26.4353,2.3974,0.0,0.0
384,95.75,148.46,176.446,90.5826,115.734,89.5526,0.0247241,2.63673,16.993,26.1651,2.29552,0.0,0.0
387,96.5,150.313,178.228,85.1206,115.716,88.0081,0.025359,2.68893,16.9182,25.9349,2.44982,0.0,0.0
390,97.25,151.684,181.054,89.701,115.703,89.3309,0.0260441,2.74167,16.8502,25.6746,2.31528,0.0,0.0
393,98,153.261,183.373,76.0018,115.689,88.6082,0.0266383,2.78638,16.7776,25.3943,2.3869,0.0,0.0
396,98.75,155.04,185.764,75.485,115.682,88.6788,0.0274178,2.84728,16.691,25.1341,2.37926,0.0,0.0
399,99.5,156.767,187.722,76.3124,115.691,89.3762,0.0279861,2.91345,16.6136,24.8138,2.30983,0.0,0.0
402,100.25,158.565,189.874,76.8536,115.675,89.9998,0.028824,2.97827,16.5195,24.6136,2.24638,0.0,0.0
405,101,160.559,192.625,70.4917,115.657,88.764,0.0296359,3.04941,16.4163,24.3934,2.36876,0.0,0.0
408,101.75,162.306,195.553,69.7635,115.659,87.378,0.0303135,3.11146,16.3092,24.003,2.50972,0.0,0.0
411,102.5,164.277,198.221,67.734,115.651,85.9228,0.0310996,3.19515,16.158,23.7528,2.65942,0.0,0.0
414,103.25,165.88,200.995,76.2468,115.638,86.2779,0.0318586,3.27257,15.9832,23.5125,2.6215,0.0,0.0
417,104,168.016,203.591,65.4205,115.616,88.7228,0.0325969,3.38043,15.8112,23.2223,2.36973,0.0,0.0
420,104.75,170,206.822,71.3855,115.635,85.3765,0.033316,3.48416,15.6568,22.8219,2.71532,0.0,0.0
423,105.5,172.281,209.761,65.7937,115.611,85.739,0.0340957,3.58293,15.5115,22.4815,2.67548,0.0,0.0
426,106.25,174.315,213.104,77.4367,115.622,86.4392,0.0347797,3.67623,15.3916,22.2513,2.60358,0.0,0.0
429,107,176.249,216.152,69.4544,115.583,85.9537,0.0354762,3.77362,15.2626,21.921,2.65096,0.0,0.0
432,107.75,178.388,218.81,72.5548,115.578,86.146,0.0361589,3.86403,15.1548,21.6608,2.6306,0.0,0.0
435,108.5,180.444,222.356,66.1616,115.571,87.4173,0.0367312,3.93822,15.0527,21.2203,2.49893,0.0,0.0
438,109.25,182.56,225.574,72.9678,115.57,87.2569,0.037362,4.02469,14.9375,20.9301,2.51523,0.0,0.0
441,110,185.004,228.055,65.0808,115.56,86.9636,0.0379271,4.09956,14.8354,20.6198,2.5446,0.0,0.0
444,110.75,187.072,231.884,74.5073,115.544,85.9289,0.0384419,4.17436,14.7299,20.2694,2.65054,0.0,0.0
447,111.5,189.235,235.208,77.133,115.532,85.521,0.0389162,4.25661,14.6132,19.9791,2.69214,0.0,0.0
450,112.25,191.043,238.607,78.1496,115.543,85.2647,0.0394295,4.32775,14.5008,19.6088,2.71992,0.0,0.0
453,113,193.384,241.613,65.5106,115.519,85.7166,0.0399032,4.39875,14.4351,19.2785,2.67073,0.0,0.0
456,113.75,195.471,244.752,71.2038,115.526,81.5269,0.0402648,4.48104,14.3212,18.8681,3.1198,0.0,0.0
459,114.5,197.691,247.766,60.7912,115.495,85.9233,0.0408168,4.56624,14.2019,18.6679,2.64732,0.0,0.0
462,115.25,199.803,250.668,73.8265,115.49,85.5458,0.0413344,4.63911,14.0807,18.2675,2.68629,0.0,0.0
465,116,201.137,253.631,63.6474,115.517,85.1384,0.0418105,4.72426,13.9608,17.9672,2.73112,0.0,0.0
468,116.75,203.787,257.102,63.6482,115.479,87.1142,0.0423231,4.77462,13.8588,17.6069,2.52285,0.0,0.0
471,117.5,206.134,260.142,70.6963,115.476,81.7173,0.0428263,4.84158,13.7783,17.2265,3.09505,0.0,0.0
474,118.25,208.252,263.479,71.7336,115.481,83.1355,0.0432483,4.89431,13.7188,16.8562,2.94145,0.0,0.0
477,119,209.98,266.02,60.837,115.489,81.2294,0.043556,4.93487,13.6743,16.5959,3.14966,0.0,0.0
480,119.75,212.101,269.607,70.223,115.442,82.0017,0.0442106,4.96521,13.6431,16.1455,3.06131,0.0,0.0
483,120.5,213.787,272.488,73.3189,115.439,79.9623,0.0446878,4.98826,13.6209,15.8252,3.28647,0.0,0.0
486,121.25,215.888,274.819,62.962,115.436,83.447,0.0453944,5.00506,13.6028,15.4648,2.90446,0.0,0.0
489,122,217.712,277.369,68.9797,115.435,79.3149,0.0460016,5.0197,13.5888,15.1245,3.35891,0.0,0.0
492,122.75,218.841,279.704,70.9031,115.417,79.081,0.0466016,5.03139,13.5786,14.8142,3.384,0.0,0.0
495,123.5,220.87,282.517,70.0391,115.411,80.9829,0.0472831,5.0358,13.5712,14.5239,3.17082,0.0,0.0
498,124.25,222.144,284.572,71.6984,115.415,76.8358,0.047929,5.03901,13.5777,14.1636,3.64164,0.0,0.0
501,125,223.716,286.53,65.6655,115.418,76.3896,0.0485366,5.02571,13.6027,13.8833,3.69396,0.0,0.0
504,125.75,225.379,288.549,68.8888,115.4,78.6586,0.0491047,5.00896,13.6298,13.4529,3.43063,0.0,0.0
507,126.5,226.718,291.055,63.3345,115.392,80.0048,0.0497864,4.99065,13.6668,13.2727,3.27809,0.0,0.0
510,127.25,227.579,292.971,60.0074,115.383,79.1704,0.0500423,4.97203,13.682,12.8323,3.37121,0.0,0.0
513,128,229.753,294.536,60.2638,115.372,75.6164,0.0503492,4.94676,13.7185,12.542,3.7815,0.0,0.0
516,128.75,230.615,296.714,70.8062,115.379,80.4674,0.0505578,4.92192,13.7568,12.2317,3.22547,0.0,0.0
519,129.5,232.181,298.497,67.879,115.352,82.3763,0.0507034,4.87443,13.8046,11.9314,3.01355,0.0,0.0
522,130.25,233.339,299.785,77.6283,115.344,78.7887,0.05079,4.84294,13.8855,11.5611,3.41145,0.0,0.0
525,131,233.975,301.369,67.6973,115.351,77.1244,0.050829,4.79806,13.955,11.2808,3.60308,0.0,0.0
528,131.75,234.551,302.443,67.5691,115.349,78.9449,0.0508231,4.7508,14.0236,10.9205,3.39409,0.0,0.0
531,132.5,236.125,303.821,62.8086,115.33,78.6095,0.050778,4.7016,14.1007,10.7203,3.43078,0.0,0.0
534,133.25,236.511,305.285,64.7015,115.324,76.4892,0.0506866,4.65023,14.2163,10.42,3.67504,0.0,0.0
537,134,237.598,306.736,77.4787,115.33,78.8766,0.0506461,4.59699,14.2647,10.0897,3.40038,0.0,0.0
540,134.75,238.312,307.257,75.7354,115.33,76.9018,0.0505736,4.53507,14.3574,9.74934,3.62733,0.0,0.0
543,135.5,239.139,308.132,85.2199,115.322,76.8695,0.0504828,4.46772,14.4407,9.50911,3.63047,0.0,0.0
546,136.25,240.04,309.174,81.5012,115.314,76.6782,0.0503704,4.37863,14.5538,9.22884,3.65212,0.0,0.0
549,137,240.237,309.954,73.9654,115.314,75.7614,0.0500344,4.31795,14.7045,8.98861,3.75985,0.0,0.0
552,137.75,240.934,310.166,82.2904,115.32,74.2314,0.0497009,4.24785,14.8323,8.71836,3.9429,0.0,0.0
555,138.5,241.585,310.625,83.562,115.309,74.0737,0.0491669,4.14246,14.98,8.52817,3.96105,0.0,0.0
558,139.25,241.276,310.89,79.5724,115.3,76.368,0.0485236,4.03467,15.1597,8.15782,3.68731,0.0,0.0
561,140,241.538,310.758,83.9002,115.294,76.6492,0.0474563,3.88636,15.3153,7.97765,3.65398,0.0,0.0
564,140.75,241.941,310.028,85.5305,115.304,74.0667,0.0466782,3.81835,15.471,7.64733,3.96154,0.0,0.0
567,141.5,241.77,309.574,95.6111,115.293,75.2497,0.0454358,3.69348,15.5845,7.46716,3.81888,0.0,0.0
570,142.25,241.424,309.092,84.3077,115.283,75.0757,0.0442423,3.57904,15.7213,7.22693,3.83877,0.0,0.0
573,143,240.811,308.605,87.6822,115.288,77.9317,0.0430432,3.45557,15.844,7.03674,3.50502,0.0,0.0
576,143.75,240.291,307.653,81.1005,115.298,75.3694,0.0410285,3.31708,16.0741,6.81653,3.80501,0.0,0.0
579,144.5,239.718,306.221,94.9432,115.267,77.0285,0.0396186,3.19546,16.2181,6.6764,3.60769,0.0,0.0
582,145.25,239.331,304.372,94.4227,115.284,77.9126,0.0385962,3.1068,16.428,6.43617,3.50686,0.0,0.0
585,146,238.491,303.378,91.5054,115.271,78.6226,0.037252,2.95204,16.6554,6.20595,3.42472,0.0,0.0
588,146.75,237.094,302.205,97.2071,115.268,78.0435,0.0359935,2.77559,16.8858,6.13588,3.49063,0.0,0.0
591,147.5,236.158,300.826,103.965,115.272,79.5483,0.034777,2.69674,17.1047,5.9457,3.32002,0.0,0.0
594,148.25,235.276,298.751,99.9198,115.267,79.2096,0.0337627,2.56073,17.3046,5.81557,3.35781,0.0,0.0
597,149,234.667,296.343,98.6207,115.27,74.7253,0.0326075,2.42994,17.4779,5.66543,3.87962,0.0,0.0
600,149.75,233.03,295.116,104.461,115.264,78.6904,0.0315881,2.30327,17.6517,5.54531,3.41645,0.0,0.0
603,150.5,231.748,292.728,103.819,115.276,75.0307,0.0302439,2.18043,17.8252,5.38516,3.84361,0.0,0.0
606,151.25,230.719,290.735,107.76,115.265,73.4708,0.0287939,2.05513,17.9955,5.25504,4.03079,0.0,0.0
609,152,229.133,288.678,107.751,115.266,74.1434,0.0273017,1.94854,18.1602,5.16495,3.94933,0.0,0.0
612,152.75,227.515,286.162,110.184,115.266,76.702,0.0258123,1.83303,18.3616,5.06485,3.64567,0.0,0.0
615,153.5,226.018,283.47,110.214,115.275,76.9191,0.0240572,1.7327,18.5522,4.9047,3.62107,0.0,0.0
618,154.25,223.826,281.504,110.748,115.261,80.9506,0.0223347,1.62227,18.7301,4.78459,3.16274,0.0,0.0
621,155,222.038,278.858,115.057,115.27,83.0274,0.0208901,1.51919,18.8944,4.77458,2.93667,0.0,0.0
624,155.75,220.721,275.638,118.219,115.26,84.8227,0.0192798,1.42379,19.0316,4.62443,2.74444,0.0,0.0
627,156.5,218.669,273.174,118.352,115.263,86.3915,0.0176811,1.32585,19.1615,4.62443,2.58066,0.0,0.0
630,157.25,216.47,270.852,121.503,115.257,86.4135,0.0161956,1.23699,19.3004,4.50432,2.57788,0.0,0.0
633,158,215.266,268.069,121.137,115.265,90.9937,0.0147002,1.14938,19.4321,4.4843,2.11627,0.0,0.0
636,158.75,213.476,264.978,123.805,115.263,95.6708,0.013381,1.07578,19.5628,4.41423,1.6675,0.0,0.0
639,159.5,211.591,262.028,125.477,115.275,98.2341,0.0122104,0.988277,19.6951,4.3842,1.4318,0.0,0.0
642,160.25,209.066,260.112,125.046,115.263,99.447,0.0111667,0.909858,19.8132,4.36418,1.32098,0.0,0.0
645,161,207.406,256.726,123.073,115.276,97.7963,0.0102979,0.846453,19.9166,4.30413,1.47181,0.0,0.0
648,161.75,205.077,254.527,122.898,115.274,98.4895,0.00947981,0.783289,20.006,4.25408,1.40848,0.0,0.0
651,162.5,203.014,250.92,124.354,115.279,96.4225,0.00872149,0.727138,20.0786,4.25408,1.59873,0.0,0.0
654,163.25,201.461,248.301,128.932,115.277,100.168,0.00809964,0.676908,20.1443,4.20403,1.25739,0.0,0.0
657,164,199.839,245.552,127.87,115.283,99.8366,0.00750998,0.631763,20.2067,4.15398,1.28754,0.0,0.0
660,164.75,198.343,243.121,126.199,115.282,100.346,0.00698848,0.592948,20.2585,4.16399,1.24192,0.0,0.0
663,165.5,195.439,240.869,131.272,115.29,101.441,0.00656924,0.554558,20.3112,4.16399,1.14544,0.0,0.0
666,166.25,193.748,238.582,130.934,115.293,102.589,0.00615247,0.517158,20.3701,4.12395,1.04494,0.0,0.0
669,167,192.496,235.334,128.15,115.293,102.391,0.00577337,0.481397,20.4263,4.12395,1.06226,0.0,0.0
672,167.75,190.35,232.948,131.391,115.299,103.509,0.00542535,0.447659,20.4801,4.09392,0.96546,0.0,0.0
675,168.5,189.274,229.885,132.327,115.32,105.56,0.00513067,0.416964,20.5401,4.11394,0.791505,0.0,0.0
678,169.25,186.775,227.397,132.999,115.306,107.584,0.00488609,0.384156,20.5838,4.08391,0.620354,0.0,0.0
681,170,184.878,225.164,131.296,115.314,107.984,0.00465691,0.351714,20.6333,4.09392,0.587834,0.0,0.0
684,170.75,182.961,222.859,131.951,115.313,108.766,0.0044432,0.322612,20.6729,4.08391,0.523136,0.0,0.0
687,171.5,181.313,219.761,136.895,115.317,108.22,0.00426752,0.299073,20.7077,4.06389,0.568531,0.0,0.0
690,172.25,179.658,217.494,133.078,115.328,108.502,0.00408176,0.274782,20.7413,4.05389,0.546032,0.0,0.0
693,173,178.434,214.626,131.705,115.324,108.099,0.0039145,0.254835,20.7715,4.06389,0.579065,0.0,0.0
696,173.75,175.795,213.188,134.136,115.32,108.333,0.0037616,0.236465,20.7983,4.05389,0.559392,0.0,0.0
699,174.5,174.316,210.53,135.059,115.321,108.52,0.0036204,0.218455,20.8218,4.06389,0.544056,0.0,0.0
702,175.25,172.604,208.159,136.175,115.323,108.728,0.00347388,0.204108,20.8416,4.05389,0.527052,0.0,0.0
705,176,171.078,205.788,133.689,115.329,108.175,0.00335292,0.191569,20.8572,4.02386,0.57319,0.0,0.0
708,176.75,169.808,203.545,136.524,115.33,108.426,0.00324055,0.17996,20.8717,4.06389,0.552541,0.0,0.0
711,177.5,168.102,200.902,137.229,115.335,108.729,0.00314993,0.1701,20.883,4.0739,0.527918,0.0,0.0
714,178.25,166.063,199.236,138.925,115.332,108.549,0.00306556,0.162316,20.8933,4.05389,0.542536,0.0,0.0
717,179,164.822,197.241,135.211,115.355,108.96,0.00299624,0.154456,20.9024,4.01385,0.510478,0.0,0.0
720,179.75,163.104,195.108,132.032,115.354,108.591,0.00289178,0.14804,20.9108,4.04388,0.540774,0.0,0.0
723,180.5,161.22,192.369,139.741,115.361,108.522,0.00278761,0.142192,20.9182,4.02386,0.547022,0.0,0.0
726,181.25,159.796,190.818,135.052,115.355,108.424,0.00269971,0.136714,20.9244,4.01385,0.554617,0.0,0.0
729,182,158.771,188.823,135.256,115.351,108.481,0.0026339,0.131801,20.9307,4.01385,0.54962,0.0,0.0
732,182.75,157.164,186.193,137.76,115.37,107.92,0.00258592,0.127462,20.9356,3.99383,0.597463,0.0,0.0
735,183.5,155.868,184.608,133.241,115.362,108.217,0.0025723,0.123674,20.9384,3.98382,0.572247,0.0,0.0
738,184.25,154.786,182.997,134.704,115.374,108.167,0.00257056,0.120246,20.9425,4.01385,0.577291,0.0,0.0
741,185,153.602,180.751,139.838,115.37,108.117,0.0025606,0.117464,20.9461,4.02386,0.581146,0.0,0.0
744,185.75,151.409,179.151,134.187,115.377,108.239,0.00253506,0.114291,20.9491,4.01385,0.571551,0.0,0.0
747,186.5,150.931,177.093,138.889,115.379,108.207,0.00248187,0.112669,20.9526,4.04388,0.574362,0.0,0.0
750,187.25,149.036,175.795,133.83,115.375,108.496,0.00243168,0.110269,20.9551,4.03387,0.550271,0.0,0.0
753,188,148.208,173.86,134.395,115.378,108.654,0.00238356,0.107965,20.9582,4.00384,0.537416,0.0,0.0
756,188.75,147.313,172.85,136.439,115.374,108.344,0.00232877,0.10597,20.9599,4.01385,0.562748,0.0,0.0
759,189.5,145.416,170.738,139.324,115.388,108.338,0.00230271,0.104218,20.9609,4.01385,0.56426,0.0,0.0
762,190.25,145.186,168.852,141.079,115.385,108.193,0.00228755,0.102469,20.9616,4.00384,0.575994,0.0,0.0
765,191,143.705,167.618,134.176,115.414,108.118,0.00228308,0.101193,20.9626,4.00384,0.584474,0.0,0.0
768,191.75,142.69,165.813,135.354,115.435,108.522,0.00225548,0.099655,20.9641,3.99383,0.55271,0.0,0.0
771,192.5,141.075,164.921,138.326,115.414,107.951,0.0022026,0.0984104,20.9649,4.02386,0.598347,0.0,0.0
774,193.25,140.03,162.756,139.685,115.413,108.141,0.00214874,0.0972927,20.9658,4.04388,0.582503,0.0,0.0
777,194,139.231,161.536,137.226,115.434,108.356,0.00205372,0.0961891,20.9675,4.04388,0.566346,0.0,0.0
780,194.75,138.028,159.78,134.351,115.425,108.272,0.00196154,0.0952616,20.968,4.02386,0.572577,0.0,0.0
783,195.5,137.977,158.044,137.079,115.426,108.233,0.00187905,0.0945539,20.9692,4.02386,0.575859,0.0,0.0
786,196.25,136.402,157.677,134.131,115.432,108.302,0.00182064,0.0936135,20.9702,4.02386,0.570646,0.0,0.0
789,197,134.611,155.455,137.576,115.44,108.703,0.00177806,0.0927179,20.9715,4.02386,0.53823,0.0,0.0
792,197.75,134.294,154.506,136.444,115.436,107.975,0.00178857,0.0917909,20.9725,4.01385,0.598034,0.0,0.0
795,198.5,133.846,153.053,138.036,115.45,108.137,0.00181687,0.0909368,20.9735,3.97381,0.585715,0.0,0.0
798,199.25,132.43,151.74,140.619,115.442,108.489,0.00184566,0.090166,20.9746,3.99383,0.555996,0.0,0.0
801,200,131.362,150.872,136.908,115.453,108.244,0.00186556,0.0894807,20.9754,3.9638,0.577068,0.0,0.0
804,200.75,130.955,149.944,139.781,115.45,108.178,0.00184197,0.0888945,20.976,3.99383,0.582345,0.0,0.0
807,201.5,129.467,148.37,135.239,115.461,108.322,0.00179285,0.0883191,20.9764,3.97381,0.571265,0.0,0.0
810,202.25,129.398,147.454,137.629,115.465,108.377,0.00170247,0.0876804,20.9767,3.98382,0.566996,0.0,0.0
813,203,128.23,146.46,138.612,115.456,108.335,0.00157241,0.0870349,20.9769,3.97381,0.569788,0.0,0.0
816,203.75,127.346,145.356,138.52,115.479,108.398,0.00145024,0.0864164,20.9777,3.97381,0.566383,0.0,0.0
819,204.5,126.662,143.56,138.049,115.479,108.432,0.00133955,0.0858093,20.9783,3.99383,0.563526,0.0,0.0
822,205.25,125.433,142.911,137.494,115.484,107.887,0.00122186,0.0852731,20.9787,4.00384,0.609095,0.0,0.0
825,206,125.102,141.707,139.432,115.486,108.434,0.00114813,0.0847221,20.979,3.98382,0.56399,0.0,0.0
828,206.75,124.429,140.398,137.184,115.493,108.422,0.00111614,0.0842628,20.9795,3.98382,0.565462,0.0,0.0
831,207.5,123.381,139.405,136.638,115.526,108.285,0.00111419,0.0838295,20.9802,4.02386,0.579354,0.0,0.0
834,208.25,122.73,138.47,137.188,115.5,108.129,0.00113346,0.0833084,20.9808,3.99383,0.590246,0.0,0.0
837,209,121.939,137.815,136.823,115.501,107.992,0.00116477,0.0827764,20.9812,3.99383,0.60167,0.0,0.0
840,209.75,121.426,136.891,135.849,115.511,108.361,0.00118154,0.0822778,20.9814,3.98382,0.571934,0.0,0.0
843,210.5,120.489,135.812,139.061,115.518,108.124,0.00119118,0.0818323,20.9819,3.99383,0.592051,0.0,0.0
846,211.25,119.834,134.744,137.366,115.522,108.228,0.00119822,0.0814582,20.9826,3.99383,0.583785,0.0,0.0
849,212,119.224,133.699,140.033,115.535,108.262,0.00116158,0.0811609,20.983,4.00384,0.582011,0.0,0.0
852,212.75,118.634,132.908,136.846,115.526,108.277,0.00113235,0.0808077,20.9832,3.98382,0.580014,0.0,0.0
855,213.5,117.633,132.049,137.971,115.528,108.438,0.00108632,0.0805502,20.9834,3.98382,0.566829,0.0,0.0
858,214.25,117.496,131.18,137.367,115.529,108.458,0.00104069,0.0801167,20.9835,3.98382,0.565313,0.0,0.0
861,215,116.514,130.186,139.958,115.549,108.301,0.00100354,0.0796958,20.9836,4.01385,0.579816,0.0,0.0
864,215.75,115.825,129.147,136.493,115.546,108.203,0.00097863,0.0793111,20.9843,3.99383,0.587681,0.0,0.0
867,216.5,115.236,128.101,140.437,115.55,108.416,0.000974261,0.0789732,20.9848,4.01385,0.570383,0.0,0.0
870,217.25,114.412,127.092,138.393,115.549,108.256,0.000972986,0.0786286,20.9854,3.98382,0.583489,0.0,0.0
873,218,113.989,126.901,139.489,115.551,108.269,0.000975319,0.0782409,20.9863,3.99383,0.582586,0.0,0.0
876,218.75,113.478,125.726,136.813,115.566,107.98,0.000962519,0.0778211,20.9869,3.9638,0.607674,0.0,0.0
879,219.5,112.615,125.81,138.697,115.563,108.157,0.00093874,0.07738,20.9873,3.95379,0.592814,0.0,0.0
882,220.25,112.192,124.531,140.556,115.576,108.396,0.000907271,0.0769222,20.9883,3.98382,0.574071,0.0,0.0
885,221,111.432,123.531,139.329,115.562,108.18,0.000861941,0.0765383,20.989,3.98382,0.590808,0.0,0.0
888,221.75,111.113,123.121,138.915,115.564,107.918,0.000819239,0.0761725,20.9895,3.98382,0.612724,0.0,0.0
891,222.5,110.754,122.322,136.105,115.561,108.291,0.000787169,0.0757423,20.9898,3.98382,0.581605,0.0,0.0
894,223.25,109.489,121.272,139.982,115.588,108.161,0.000769221,0.0753445,20.9901,3.99383,0.594422,0.0,0.0
897,224,109.746,120.506,137.88,115.581,108.01,0.000786327,0.0750085,20.9903,3.98382,0.606388,0.0,0.0
900,224.75,108.571,119.688,142.9,115.59,108.019,0.000811668,0.0747268,20.9904,3.98382,0.606341,0.0,0.0
903,225.5,107.871,118.592,139.921,115.59,107.488,0.000895662,0.0744437,20.991,3.98382,0.65044,0.0,0.0
906,226.25,107.934,118.736,138.933,115.586,107.966,0.000968992,0.0742086,20.9916,3.9638,0.610469,0.0,0.0
909,227,107.266,117.606,135.879,115.59,108.001,0.00102379,0.0739882,20.992,3.97381,0.607811,0.0,0.0
912,227.75,107.041,117.529,140.729,115.593,108.077,0.0010572,0.0737321,20.9923,3.99383,0.601787,0.0,0.0
915,228.5,106.505,116.55,138.709,115.598,107.647,0.00104533,0.0735048,20.9926,3.9638,0.637819,0.0,0.0
918,229.25,105.52,115.27,140.076,115.601,108.117,0.00101633,0.0732226,20.9927,3.99383,0.59911,0.0,0.0
921,230,105.175,115.743,139.316,115.607,108.126,0.00096039,0.0729487,20.9928,3.99383,0.598734,0.0,0.0
924,230.75,104.892,114.322,139.735,115.608,108.44,0.000866239,0.07272,20.9929,3.9638,0.5729,0.0,0.0
927,231.5,104.577,113.87,139.041,115.622,108.551,0.000797603,0.0725533,20.993,3.95379,0.5648,0.0,0.0
930,232.25,104.109,113.595,137.419,115.634,108.279,0.000709726,0.0724318,20.993,3.9638,0.588218,0.0,0.0
933,233,103.089,112.473,139.077,115.615,107.996,0.00066458,0.0722479,20.9931,3.98382,0.610194,0.0,0.0
936,233.75,103.145,111.391,137.363,115.611,107.909,0.000631669,0.0720732,20.9931,3.98382,0.617118,0.0,0.0
939,234.5,102.806,111.249,139.644,115.629,108.147,0.00065225,0.0718488,20.9931,3.98382,0.598803,0.0,0.0
942,235.25,102.209,110.692,139.119,115.623,108.123,0.000686255,0.0716852,20.9932,3.98382,0.600232,0.0,0.0
945,236,102.626,110.542,140.001,115.626,107.687,0.000736885,0.0715659,20.9935,3.98382,0.63661,0.0,0.0
948,236.75,101.609,109.782,138.049,115.628,108.189,0.000776338,0.071479,20.9937,3.98382,0.595208,0.0,0.0
951,237.5,100.834,108.805,139.928,115.633,107.869,0.000808812,0.0714156,20.9939,4.00384,0.622081,0.0,0.0
954,238.25,101.042,108.696,138.506,115.626,108.303,0.000831399,0.0713294,20.994,4.01385,0.585629,0.0,0.0
957,239,99.7986,107.823,136.749,115.635,107.897,0.000846593,0.0712495,20.9941,3.97381,0.619897,0.0,0.0
960,239.75,100.389,107.151,140.204,115.638,108.157,0.000855494,0.0711136,20.9948,3.98382,0.598639,0.0,0.0
963,240.5,99.6258,106.951,145.11,115.643,107.841,0.00086026,0.0710009,20.9953,4.00384,0.625166,0.0,0.0
966,241.25,98.9313,106.405,141.181,115.642,108.096,0.000851656,0.070913,20.9957,3.98382,0.603964,0.0,0.0
969,242,99.3607,106.033,137.414,115.636,108.132,0.000830703,0.0708101,20.996,3.94378,0.600584,0.0,0.0
972,242.75,98.7217,105.55,140.594,115.633,108.09,0.000799128,0.0707207,20.9962,3.95379,0.603742,0.0,0.0
975,243.5,98.2027,105.633,138.593,115.635,107.975,0.00076127,0.0706311,20.9963,3.9638,0.613417,0.0,0.0
978,244.25,97.8679,104.304,142.195,115.644,108.26,0.000710548,0.0705075,20.9964,3.95379,0.590558,0.0,0.0
981,245,97.3369,104.35,138.335,115.637,108.061,0.00066163,0.070431,20.9965,3.98382,0.606504,0.0,0.0
984,245.75,97.2179,103.571,140.534,115.64,107.827,0.00062597,0.0703675,20.9965,3.97381,0.626114,0.0,0.0
987,246.5,96.9298,103.091,140.091,115.648,107.996,0.000613843,0.0703309,20.9966,3.99383,0.612724,0.0,0.0
990,247.25,96.4199,102.516,140.455,115.65,107.942,0.00061463,0.0702499,20.9966,3.97381,0.617403,0.0,0.0
993,248,96.2938,102.253,137.226,115.653,107.552,0.000624506,0.0701908,20.9964,3.97381,0.64995,0.0,0.0
996,248.75,95.8815,101.522,138.565,115.651,107.677,0.00063859,0.0700689,20.9963,3.98382,0.639458,0.0,0.0
999,249.5,95.4701,101.588,137.733,115.648,107.869,0.000640252,0.0700016,20.9961,3.9638,0.623238,0.0,0.0
1002,250.25,95.3399,101.254,138.898,115.664,107.909,0.000631811,0.0699929,20.9961,3.9638,0.62113,0.0,0.0
1005,251,95.0574,100.49,140.603,115.658,107.992,0.000617734,0.0699421,20.996,3.94378,0.613793,0.0,0.0
1008,251.75,94.8121,100.098,134.459,115.656,107.98,0.000605973,0.0698948,20.996,3.9638,0.614695,0.0,0.0
1011,252.5,94.106,99.8246,136.861,115.649,108.026,0.000594924,0.0698368,20.9959,3.98382,0.610241,0.0,0.0
1014,253.25,94.1324,99.0229,143.739,115.652,108.103,0.000591211,0.0697332,20.9959,3.99383,0.604176,0.0,0.0
1017,254,93.7197,99.1569,139.359,115.656,108.389,0.000609154,0.069619,20.9959,3.97381,0.580834,0.0,0.0
1020,254.75,93.9577,98.2605,141.891,115.65,108.329,0.000629222,0.0695606,20.9959,3.98382,0.585345,0.0,0.0
1023,255.5,92.5689,97.8359,142.952,115.649,107.818,0.0006558,0.0693765,20.9965,3.97381,0.627542,0.0,0.0
1026,256.25,93.3059,97.8966,142.357,115.659,108.285,0.000688951,0.0692962,20.997,3.97381,0.58963,0.0,0.0
1029,257,92.4174,97.0271,138.577,115.656,108.042,0.000713117,0.0692034,20.9973,3.9638,0.609504,0.0,0.0
1032,257.75,92.1094,96.916,138.026,115.646,108.08,0.000730735,0.0692133,20.9975,3.97381,0.605643,0.0,0.0
1035,258.5,92.1426,96.2858,138.212,115.647,108.098,0.000742307,0.0691705,20.9977,3.98382,0.604205,0.0,0.0
1038,259.25,91.6105,96.2437,139.618,115.647,107.545,0.000748571,0.0690536,20.9978,3.95379,0.6501,0.0,0.0
1041,260,91.8731,95.7492,140.597,115.642,108.145,0.000750595,0.0689469,20.9979,3.9638,0.599934,0.0,0.0
1044,260.75,91.7631,95.0466,140.442,115.648,108.05,0.000747724,0.0688324,20.998,3.98382,0.608191,0.0,0.0
1047,261.5,91.167,94.765,139.798,115.636,107.786,0.000742636,0.0688265,20.998,4.01385,0.629207,0.0,0.0
1050,262.25,90.5928,94.7821,140.067,115.645,108.619,0.000736756,0.0688222,20.9981,3.9638,0.560982,0.0,0.0
1053,263,90.5835,94.2528,137.006,115.632,108.096,0.000708373,0.068819,20.9981,3.9638,0.603165,0.0,0.0
1056,263.75,90.4033,93.9678,140.318,115.647,108.015,0.000651555,0.068776,20.9981,3.9638,0.611062,0.0,0.0
1059,264.5,89.4772,93.7625,139.841,115.635,107.833,0.00058603,0.0687418,20.9981,3.95379,0.625176,0.0,0.0
1062,265.25,89.6313,93.9767,140.032,115.643,107.971,0.000527986,0.0686343,20.9988,3.97381,0.614416,0.0,0.0
1065,266,89.8681,93.1536,141.753,115.629,108.039,0.000466771,0.0685126,20.9992,3.98382,0.607749,0.0,0.0
1068,266.75,89.1742,92.8181,143.16,115.632,108.128,0.000422146,0.0683994,20.9996,3.9638,0.600493,0.0,0.0
1071,267.5,89.6776,92.7318,140.724,115.639,108.153,0.000392022,0.06822,20.9998,3.97381,0.599059,0.0,0.0
1074,268.25,87.9543,92.1917,141.166,115.642,107.907,0.000378698,0.06813,21,3.95379,0.619625,0.0,0.0
1077,269,88.5967,92.1633,141.005,115.634,108.112,0.000381997,0.0680818,21.0001,3.97381,0.601993,0.0,0.0
1080,269.75,88.1973,91.7193,142.427,115.636,107.895,0.000413627,0.0681048,21.0002,3.99383,0.620161,0.0,0.0
1083,270.5,88.0254,91.3323,140.665,115.629,107.946,0.00046322,0.0681215,21.0003,3.98382,0.615464,0.0,0.0
1086,271.25,88.5521,91.5153,141.372,115.638,108.186,0.000522119,0.0680562,21.0004,3.98382,0.596164,0.0,0.0
1089,272,87.4691,90.9259,143.278,115.645,107.905,0.000584609,0.0680493,21.0004,3.9638,0.619994,0.0,0.0
1092,272.75,86.5898,90.3029,139.831,115.646,107.664,0.000662089,0.0680617,21,3.98382,0.640109,0.0,0.0
1095,273.5,87.5216,90.3338,138.23,115.621,108.416,0.000690174,0.0680708,20.9995,3.99383,0.575845,0.0,0.0
1098,274.25,86.799,89.9209,142.175,115.63,107.874,0.000720899,0.0680773,20.9991,3.9638,0.621511,0.0,0.0
1101,275,87.0096,89.6452,140.844,115.631,108.01,0.000757936,0.0680414,20.9989,3.97381,0.610223,0.0,0.0
1104,275.75,86.5868,89.0412,143.248,115.615,108.13,0.000780778,0.067986,20.9986,3.94378,0.599073,0.0,0.0
1107,276.5,86.8212,89.0403,136.31,115.621,107.929,0.000794691,0.0679388,20.9985,3.93377,0.61621,0.0,0.0
1110,277.25,86.5523,89.5224,136.991,115.617,108.23,0.000805935,0.0679057,20.9984,3.9638,0.590937,0.0,0.0
1113,278,86.0232,88.5489,139.264,115.618,107.977,0.000801648,0.0679182,20.9986,3.97381,0.611923,0.0,0.0
1116,278.75,86.0118,88.3244,143.958,115.619,108.089,0.000783825,0.0678911,20.9987,3.97381,0.602734,0.0,0.0
1119,279.5,85.955,87.934,141.008,115.605,108.028,0.000740306,0.0678754,20.9988,3.95379,0.606724,0.0,0.0
1122,280.25,85.4659,87.5151,143.189,115.621,108.294,0.000698807,0.0678392,20.9989,3.97381,0.585963,0.0,0.0
1125,281,85.4002,88.0018,138.496,115.627,108.177,0.000668554,0.0677669,20.9989,3.95379,0.596106,0.0,0.0
1128,281.75,85.169,87.2195,141.237,115.621,107.611,0.00059663,0.0677349,20.9985,3.97381,0.642663,0.0,0.0
1131,282.5,85.2014,87.1094,139.528,115.603,108.097,0.000536966,0.0676786,20.9979,3.95379,0.600881,0.0,0.0
1134,283.25,84.7148,87.3439,139.759,115.606,108.068,0.000488487,0.0676376,20.9975,3.94378,0.6035,0.0,0.0
1137,284,84.8553,86.6411,140.057,115.602,107.685,0.000449893,0.0675669,20.9973,3.94378,0.634998,0.0,0.0
1140,284.75,84.1733,86.8433,141.369,115.612,108.201,0.000409732,0.0674979,20.9975,3.92376,0.592936,0.0,0.0
1143,285.5,84.0862,86.4593,140.757,115.599,107.935,0.000374749,0.0674671,20.9979,3.95379,0.613966,0.0,0.0
1146,286.25,84.2211,86.2005,142.833,115.597,108.336,0.000339492,0.0674853,20.9981,3.95379,0.58068,0.0,0.0
1149,287,83.7022,86.4129,140.06,115.593,108.682,0.00030177,0.0675089,20.9983,3.97381,0.551804,0.0,0.0
1152,287.75,83.7889,85.6331,138.853,115.588,107.614,0.000279381,0.0675138,20.9984,3.92376,0.639821,0.0,0.0
1155,288.5,83.6481,85.2308,141.246,115.592,107.691,,0.0674786,,3.94378,0.633733,0.0,0.0
1158,289.25,83.6332,85.0896,141.551,115.595,107.948,,0.0674802,,3.95379,0.612593,0.0,0.0
1161,290,83.4198,85.6206,139.903,115.589,107.772,,0.0674929,,3.93377,0.626754,0.0,0.0
1164,290.75,83.3052,84.9715,140.992,115.596,107.835,,0.0674041,,3.93377,0.622093,0.0,0.0
1167,291.5,82.877,85.0806,144.091,115.586,108.14,,,,3.94378,0.596017,0.0,0.0
1170,292.25,82.8759,84.8812,143.202,115.571,108.279,,,,3.94378,0.583406,0.0,0.0
1173,293,82.9602,84.5368,140.406,115.573,107.564,,,,3.93377,0.642788,0.0,0.0
1176,293.75,82.7977,84.6898,139.557,115.579,107.838,,,,3.95379,0.620482,0.0,0.0
1179,294.5,81.9514,83.877,142.654,115.559,108.131,,,,3.93377,0.594653,0.0,0.0
1182,295.25,81.9099,83.5448,140.24,115.57,107.957,,,,3.93377,0.609939,0.0,0.0
1185,296,81.9724,83.5633,141.372,115.567,108.541,,,,3.92376,0.56138,0.0,0.0
1188,296.75,81.9781,83.6042,142.28,115.572,107.711,,,,3.93377,0.630466,0.0,0.0
1191,297.5,82.4257,83.1419,139.704,115.571,107.72,,,,3.93377,0.629695,0.0,0.0
1194,298.25,81.6633,83.3319,138.798,115.565,107.986,,,,3.97381,0.607097,0.0,0.0
1197,299,81.5981,82.8117,142.837,115.576,108.361,,,,3.97381,0.576929,0.0,0.0
1198,299.25,81.7082,83.1317,142.711,115.573,108.638,,,,3.99383,0.553869,0.0,0.0