File: 01_Data/Polyester_Fabric/FTIR/ATR/Polyester_Fabric_ATR_210608_R4.tst
4497.79,0.02006
4493.93,0.01997
4490.07,0.02016
4486.22,0.02046
4482.36,0.02043
4478.5,0.02069
4474.64,0.02055
4470.79,0.02044
4466.93,0.02033
4463.07,0.02049
4459.21,0.02057
4455.36,0.02078
4451.5,0.02074
4447.64,0.02062
4443.79,0.02093
4439.93,0.02106
4436.07,0.02103
4432.21,0.02081
4428.36,0.02066
4424.5,0.02068
4420.64,0.02073
4416.78,0.02099
4412.93,0.02082
4409.07,0.02099
4405.21,0.02104
4401.35,0.02081
4397.5,0.02099
4393.64,0.02115
4389.78,0.02108
4385.92,0.02089
4382.07,0.02087
4378.21,0.02087
4374.35,0.02078
4370.49,0.02066
4366.64,0.02074
4362.78,0.02093
4358.92,0.02105
4355.06,0.02105
4351.21,0.02101
4347.35,0.02110
4343.49,0.02097
4339.63,0.02125
4335.78,0.02123
4331.92,0.02123
4328.06,0.02117
4324.2,0.02114
4320.35,0.02137
4316.49,0.02137
4312.63,0.02141
4308.77,0.02124
4304.92,0.02123
4301.06,0.02123
4297.2,0.02107
4293.34,0.02132
4289.49,0.02150
4285.63,0.02132
4281.77,0.02123
4277.91,0.02123
4274.06,0.02147
4270.2,0.02149
4266.34,0.02140
4262.48,0.02143
4258.63,0.02137
4254.77,0.02156
4250.91,0.02149
4247.06,0.02125
4243.2,0.02115
4239.34,0.02160
4235.48,0.02147
4231.63,0.02143
4227.77,0.02156
4223.91,0.02161
4220.05,0.02162
4216.2,0.02137
4212.34,0.02171
4208.48,0.02158
4204.62,0.02173
4200.77,0.02169
4196.91,0.02167
4193.05,0.02188
4189.19,0.02174
4185.34,0.02165
4181.48,0.02174
4177.62,0.02178
4173.76,0.02175
4169.91,0.02178
4166.05,0.02196
4162.19,0.02190
4158.33,0.02197
4154.48,0.02198
4150.62,0.02188
4146.76,0.02198
4142.9,0.02195
4139.05,0.02207
4135.19,0.02197
4131.33,0.02188
4127.47,0.02194
4123.62,0.02187
4119.76,0.02196
4115.9,0.02214
4112.04,0.02196
4108.19,0.02231
4104.33,0.02244
4100.47,0.02221
4096.61,0.02224
4092.76,0.02222
4088.9,0.02276
4085.04,0.02274
4081.18,0.02257
4077.33,0.02234
4073.47,0.02248
4069.61,0.02249
4065.75,0.02222
4061.9,0.02245
4058.04,0.02238
4054.18,0.02230
4050.33,0.02230
4046.47,0.02275
4042.61,0.02265
4038.75,0.02230
4034.9,0.02253
4031.04,0.02238
4027.18,0.02254
4023.32,0.02277
4019.47,0.02283
4015.61,0.02268
4011.75,0.02284
4007.89,0.02319
4004.04,0.02276
4000.18,0.02252
3996.32,0.02294
3992.46,0.02332
3988.61,0.02298
3984.75,0.02298
3980.89,0.02312
3977.03,0.02370
3973.18,0.02401
3969.32,0.02346
3965.46,0.02313
3961.6,0.02406
3957.75,0.02380
3953.89,0.02370
3950.03,0.02528
3946.17,0.02508
3942.32,0.02474
3938.46,0.02357
3934.6,0.02485
3930.74,0.02598
3926.89,0.02512
3923.03,0.02575
3919.17,0.02584
3915.31,0.02467
3911.46,0.02314
3907.6,0.02513
3903.74,0.03038
3899.88,0.02848
3896.03,0.02570
3892.17,0.02691
3888.31,0.02558
3884.45,0.02776
3880.6,0.02639
3876.74,0.02500
3872.88,0.02806
3869.02,0.02853
3865.17,0.02902
3861.31,0.02709
3857.45,0.02719
3853.59,0.03103
3849.74,0.02694
3845.88,0.02574
3842.02,0.02915
3838.17,0.03097
3834.31,0.02737
3830.45,0.02588
3826.59,0.02683
3822.74,0.02838
3818.88,0.02902
3815.02,0.02586
3811.16,0.02420
3807.31,0.02608
3803.45,0.02784
3799.59,0.02823
3795.73,0.02525
3791.88,0.02346
3788.02,0.02406
3784.16,0.02509
3780.3,0.02485
3776.45,0.02358
3772.59,0.02444
3768.73,0.02655
3764.87,0.02568
3761.02,0.02621
3757.16,0.02793
3753.3,0.03063
3749.44,0.03411
3745.59,0.03158
3741.73,0.02962
3737.87,0.03102
3734.01,0.03096
3730.16,0.02718
3726.3,0.02859
3722.44,0.02758
3718.58,0.02548
3714.73,0.02639
3710.87,0.02893
3707.01,0.02515
3703.15,0.02485
3699.3,0.02421
3695.44,0.02479
3691.58,0.02803
3687.72,0.02724
3683.87,0.02446
3680.01,0.02622
3676.15,0.02971
3672.29,0.02935
3668.44,0.02699
3664.58,0.02397
3660.72,0.02419
3656.86,0.02565
3653.01,0.02671
3649.15,0.03307
3645.29,0.02731
3641.44,0.02531
3637.58,0.02481
3633.72,0.02618
3629.86,0.02924
3626.01,0.02662
3622.15,0.02679
3618.29,0.03011
3614.43,0.02947
3610.58,0.02879
3606.72,0.02682
3602.86,0.02631
3599,0.02793
3595.15,0.02708
3591.29,0.02621
3587.43,0.02918
3583.57,0.02604
3579.72,0.02530
3575.86,0.02500
3572,0.02541
3568.14,0.03010
3564.29,0.02906
3560.43,0.02624
3556.57,0.02510
3552.71,0.02622
3548.86,0.02663
3545,0.02810
3541.14,0.02495
3537.28,0.02490
3533.43,0.02479
3529.57,0.02670
3525.71,0.02780
3521.85,0.02584
3518,0.02420
3514.14,0.02402
3510.28,0.02526
3506.42,0.02532
3502.57,0.02669
3498.71,0.02461
3494.85,0.02405
3490.99,0.02393
3487.14,0.02446
3483.28,0.02494
3479.42,0.02445
3475.56,0.02376
3471.71,0.02357
3467.85,0.02374
3463.99,0.02421
3460.13,0.02429
3456.28,0.02372
3452.42,0.02353
3448.56,0.02480
3444.7,0.02520
3440.85,0.02460
3436.99,0.02425
3433.13,0.02456
3429.28,0.02472
3425.42,0.02480
3421.56,0.02544
3417.7,0.02446
3413.85,0.02402
3409.99,0.02392
3406.13,0.02377
3402.27,0.02387
3398.42,0.02417
3394.56,0.02443
3390.7,0.02405
3386.84,0.02390
3382.99,0.02413
3379.13,0.02388
3375.27,0.02369
3371.41,0.02379
3367.56,0.02428
3363.7,0.02433
3359.84,0.02417
3355.98,0.02408
3352.13,0.02386
3348.27,0.02372
3344.41,0.02387
3340.55,0.02410
3336.7,0.02451
3332.84,0.02419
3328.98,0.02428
3325.12,0.02422
3321.27,0.02390
3317.41,0.02397
3313.55,0.02437
3309.69,0.02451
3305.84,0.02426
3301.98,0.02427
3298.12,0.02440
3294.26,0.02427
3290.41,0.02449
3286.55,0.02441
3282.69,0.02445
3278.83,0.02436
3274.98,0.02456
3271.12,0.02438
3267.26,0.02438
3263.4,0.02431
3259.55,0.02422
3255.69,0.02447
3251.83,0.02422
3247.97,0.02432
3244.12,0.02444
3240.26,0.02424
3236.4,0.02431
3232.55,0.02436
3228.69,0.02441
3224.83,0.02409
3220.97,0.02430
3217.12,0.02426
3213.26,0.02417
3209.4,0.02427
3205.54,0.02428
3201.69,0.02440
3197.83,0.02452
3193.97,0.02425
3190.11,0.02420
3186.26,0.02436
3182.4,0.02438
3178.54,0.02456
3174.68,0.02441
3170.83,0.02436
3166.97,0.02432
3163.11,0.02421
3159.25,0.02416
3155.4,0.02424
3151.54,0.02431
3147.68,0.02429
3143.82,0.02429
3139.97,0.02424
3136.11,0.02440
3132.25,0.02456
3128.39,0.02465
3124.54,0.02483
3120.68,0.02505
3116.82,0.02511
3112.96,0.02488
3109.11,0.02491
3105.25,0.02498
3101.39,0.02523
3097.53,0.02509
3093.68,0.02488
3089.82,0.02483
3085.96,0.02489
3082.1,0.02539
3078.25,0.02533
3074.39,0.02514
3070.53,0.02538
3066.67,0.02567
3062.82,0.02556
3058.96,0.02564
3055.1,0.02577
3051.24,0.02557
3047.39,0.02534
3043.53,0.02500
3039.67,0.02489
3035.82,0.02504
3031.96,0.02537
3028.1,0.02496
3024.24,0.02497
3020.39,0.02504
3016.53,0.02535
3012.67,0.02602
3008.81,0.02611
3004.96,0.02621
3001.1,0.02620
2997.24,0.02634
2993.38,0.02648
2989.53,0.02661
2985.67,0.02698
2981.81,0.02758
2977.95,0.02824
2974.1,0.02918
2970.24,0.02990
2966.38,0.02999
2962.52,0.02980
2958.67,0.02954
2954.81,0.02922
2950.95,0.02872
2947.09,0.02827
2943.24,0.02787
2939.38,0.02756
2935.52,0.02754
2931.66,0.02766
2927.81,0.02780
2923.95,0.02801
2920.09,0.02824
2916.23,0.02848
2912.38,0.02871
2908.52,0.02889
2904.66,0.02871
2900.8,0.02827
2896.95,0.02787
2893.09,0.02773
2889.23,0.02762
2885.37,0.02744
2881.52,0.02730
2877.66,0.02727
2873.8,0.02720
2869.94,0.02723
2866.09,0.02720
2862.23,0.02721
2858.37,0.02739
2854.51,0.02758
2850.66,0.02753
2846.8,0.02716
2842.94,0.02673
2839.08,0.02648
2835.23,0.02630
2831.37,0.02619
2827.51,0.02613
2823.66,0.02595
2819.8,0.02582
2815.94,0.02588
2812.08,0.02592
2808.23,0.02586
2804.37,0.02578
2800.51,0.02579
2796.65,0.02583
2792.8,0.02580
2788.94,0.02574
2785.08,0.02571
2781.22,0.02575
2777.37,0.02562
2773.51,0.02561
2769.65,0.02555
2765.79,0.02553
2761.94,0.02549
2758.08,0.02547
2754.22,0.02551
2750.36,0.02550
2746.51,0.02552
2742.65,0.02546
2738.79,0.02542
2734.93,0.02542
2731.08,0.02538
2727.22,0.02535
2723.36,0.02530
2719.5,0.02532
2715.65,0.02527
2711.79,0.02531
2707.93,0.02526
2704.07,0.02525
2700.22,0.02525
2696.36,0.02522
2692.5,0.02513
2688.64,0.02517
2684.79,0.02519
2680.93,0.02511
2677.07,0.02515
2673.21,0.02511
2669.36,0.02518
2665.5,0.02520
2661.64,0.02510
2657.78,0.02508
2653.93,0.02498
2650.07,0.02484
2646.21,0.02467
2642.35,0.02448
2638.5,0.02443
2634.64,0.02440
2630.78,0.02437
2626.93,0.02432
2623.07,0.02424
2619.21,0.02403
2615.35,0.02386
2611.5,0.02378
2607.64,0.02382
2603.78,0.02379
2599.92,0.02380
2596.07,0.02383
2592.21,0.02374
2588.35,0.02366
2584.49,0.02374
2580.64,0.02372
2576.78,0.02364
2572.92,0.02364
2569.06,0.02352
2565.21,0.02345
2561.35,0.02334
2557.49,0.02329
2553.63,0.02342
2549.78,0.02332
2545.92,0.02334
2542.06,0.02333
2538.2,0.02335
2534.35,0.02331
2530.49,0.02330
2526.63,0.02319
2522.77,0.02318
2518.92,0.02314
2515.06,0.02302
2511.2,0.02298
2507.34,0.02314
2503.49,0.02313
2499.63,0.02300
2495.77,0.02300
2491.91,0.02294
2488.06,0.02290
2484.2,0.02278
2480.34,0.02273
2476.48,0.02269
2472.63,0.02284
2468.77,0.02295
2464.91,0.02292
2461.05,0.02279
2457.2,0.02268
2453.34,0.02261
2449.48,0.02258
2445.62,0.02262
2441.77,0.02262
2437.91,0.02278
2434.05,0.02291
2430.2,0.02298
2426.34,0.02290
2422.48,0.02288
2418.62,0.02297
2414.77,0.02296
2410.91,0.02304
2407.05,0.02310
2403.19,0.02318
2399.34,0.02321
2395.48,0.02321
2391.62,0.02324
2387.76,0.02345
2383.91,0.02388
2380.05,0.02396
2376.19,0.02316
2372.33,0.02173
2368.48,0.01934
2364.62,0.01737
2360.76,0.01703
2356.9,0.01812
2353.05,0.02062
2349.19,0.02206
2345.33,0.02016
2341.47,0.01856
2337.62,0.01855
2333.76,0.01913
2329.9,0.02025
2326.04,0.02136
2322.19,0.02225
2318.33,0.02284
2314.47,0.02326
2310.61,0.02378
2306.76,0.02375
2302.9,0.02334
2299.04,0.02306
2295.18,0.02292
2291.33,0.02287
2287.47,0.02288
2283.61,0.02273
2279.75,0.02228
2275.9,0.02219
2272.04,0.02190
2268.18,0.02193
2264.32,0.02194
2260.47,0.02181
2256.61,0.02178
2252.75,0.02184
2248.89,0.02180
2245.04,0.02183
2241.18,0.02137
2237.32,0.02107
2233.46,0.02130
2229.61,0.02125
2225.75,0.02112
2221.89,0.02072
2218.04,0.02066
2214.18,0.02052
2210.32,0.02018
2206.46,0.02019
2202.61,0.02008
2198.75,0.01978
2194.89,0.01960
2191.03,0.01941
2187.18,0.01930
2183.32,0.01864
2179.46,0.01852
2175.6,0.01909
2171.75,0.01901
2167.89,0.01881
2164.03,0.01853
2160.17,0.01815
2156.32,0.01866
2152.46,0.01965
2148.6,0.01985
2144.74,0.02003
2140.89,0.02012
2137.03,0.02007
2133.17,0.01993
2129.31,0.02010
2125.46,0.02021
2121.6,0.02014
2117.74,0.02025
2113.88,0.02036
2110.03,0.02014
2106.17,0.02017
2102.31,0.02038
2098.45,0.02040
2094.6,0.02042
2090.74,0.02059
2086.88,0.02052
2083.02,0.02038
2079.17,0.02027
2075.31,0.02011
2071.45,0.02011
2067.59,0.02048
2063.74,0.02060
2059.88,0.02019
2056.02,0.01980
2052.16,0.01961
2048.31,0.01890
2044.45,0.01920
2040.59,0.01958
2036.73,0.01892
2032.88,0.01855
2029.02,0.01846
2025.16,0.01884
2021.31,0.01922
2017.45,0.01994
2013.59,0.01933
2009.73,0.01917
2005.88,0.01892
2002.02,0.01908
1998.16,0.01925
1994.3,0.02017
1990.45,0.02104
1986.59,0.02001
1982.73,0.01967
1978.87,0.01921
1975.02,0.01896
1971.16,0.01976
1967.3,0.02083
1963.44,0.02015
1959.59,0.02048
1955.73,0.02082
1951.87,0.02033
1948.01,0.02039
1944.16,0.02141
1940.3,0.02041
1936.44,0.01973
1932.58,0.01944
1928.73,0.01895
1924.87,0.02029
1921.01,0.02085
1917.15,0.01991
1913.3,0.01912
1909.44,0.02014
1905.58,0.01909
1901.72,0.01856
1897.87,0.01894
1894.01,0.01926
1890.15,0.01927
1886.29,0.01850
1882.44,0.01800
1878.58,0.01785
1874.72,0.01802
1870.86,0.02020
1867.01,0.02063
1863.15,0.01834
1859.29,0.01821
1855.43,0.01770
1851.58,0.01785
1847.72,0.02013
1843.86,0.02145
1840,0.01892
1836.15,0.01886
1832.29,0.01944
1828.43,0.02060
1824.57,0.02015
1820.72,0.01866
1816.86,0.01837
1813,0.01916
1809.15,0.01949
1805.29,0.01874
1801.43,0.02035
1797.57,0.02024
1793.72,0.02125
1789.86,0.01915
1786,0.01777
1782.14,0.01829
1778.29,0.01811
1774.43,0.01912
1770.57,0.01992
1766.71,0.01742
1762.86,0.01766
1759,0.01854
1755.14,0.01877
1751.28,0.02334
1747.43,0.03189
1743.57,0.04005
1739.71,0.05667
1735.85,0.07500
1732,0.11122
1728.14,0.13296
1724.28,0.15903
1720.42,0.18691
1716.57,0.22890
1712.71,0.22655
1708.85,0.20010
1704.99,0.15949
1701.14,0.12931
1697.28,0.09959
1693.42,0.07968
1689.56,0.07365
1685.71,0.07075
1681.85,0.06591
1677.99,0.05958
1674.13,0.05619
1670.28,0.05379
1666.42,0.04757
1662.56,0.04547
1658.7,0.04290
1654.85,0.04436
1650.99,0.04377
1647.13,0.04367
1643.27,0.03897
1639.42,0.03871
1635.56,0.03906
1631.7,0.03545
1627.84,0.03553
1623.99,0.03630
1620.13,0.03546
1616.27,0.03575
1612.42,0.03387
1608.56,0.03338
1604.7,0.03198
1600.84,0.03066
1596.99,0.02984
1593.13,0.02971
1589.27,0.02918
1585.41,0.02933
1581.56,0.03156
1577.7,0.03505
1573.84,0.03343
1569.98,0.03228
1566.13,0.03094
1562.27,0.03149
1558.41,0.03603
1554.55,0.03386
1550.7,0.03208
1546.84,0.03242
1542.98,0.04012
1539.12,0.03482
1535.27,0.03324
1531.41,0.03191
1527.55,0.03372
1523.69,0.03727
1519.84,0.03560
1515.98,0.03365
1512.12,0.03393
1508.26,0.04325
1504.41,0.04274
1500.55,0.03711
1496.69,0.03123
1492.83,0.02800
1488.98,0.03158
1485.12,0.02804
1481.26,0.02874
1477.4,0.03216
1473.55,0.04028
1469.69,0.03669
1465.83,0.03431
1461.97,0.03371
1458.12,0.03915
1454.26,0.03745
1450.4,0.03470
1446.54,0.03332
1442.69,0.03119
1438.83,0.03182
1434.97,0.03144
1431.11,0.02882
1427.26,0.02672
1423.4,0.02758
1419.54,0.03316
1415.69,0.04511
1411.83,0.06189
1407.97,0.06909
1404.11,0.05663
1400.26,0.04679
1396.4,0.04231
1392.54,0.03689
1388.68,0.03715
1384.83,0.03648
1380.97,0.03519
1377.11,0.03581
1373.25,0.03683
1369.4,0.03513
1365.54,0.03308
1361.68,0.03135
1357.82,0.02817
1353.97,0.02913
1350.11,0.03492
1346.25,0.05181
1342.39,0.07761
1338.54,0.08627
1334.68,0.06041
1330.82,0.04006
1326.96,0.03154
1323.11,0.03026
1319.25,0.03238
1315.39,0.03401
1311.53,0.03610
1307.68,0.03904
1303.82,0.04368
1299.96,0.05124
1296.1,0.06164
1292.25,0.07260
1288.39,0.08428
1284.53,0.09565
1280.67,0.10902
1276.82,0.12423
1272.96,0.14180
1269.1,0.16238
1265.24,0.18260
1261.39,0.19989
1257.53,0.21336
1253.67,0.22796
1249.81,0.24741
1245.96,0.26592
1242.1,0.27400
1238.24,0.26220
1234.38,0.23073
1230.53,0.19307
1226.67,0.16324
1222.81,0.14203
1218.95,0.12342
1215.1,0.10736
1211.24,0.09522
1207.38,0.08536
1203.53,0.07637
1199.67,0.06827
1195.81,0.06128
1191.95,0.05577
1188.1,0.05227
1184.24,0.05049
1180.38,0.05058
1176.52,0.05128
1172.67,0.05010
1168.81,0.04694
1164.95,0.04469
1161.09,0.04452
1157.24,0.04550
1153.38,0.04738
1149.52,0.05088
1145.66,0.05730
1141.81,0.06808
1137.95,0.08532
1134.09,0.11095
1130.23,0.14137
1126.38,0.16835
1122.52,0.18576
1118.66,0.19047
1114.8,0.18725
1110.95,0.19178
1107.09,0.20501
1103.23,0.22152
1099.37,0.23351
1095.52,0.23439
1091.66,0.22402
1087.8,0.20768
1083.94,0.18856
1080.09,0.16571
1076.23,0.14197
1072.37,0.12260
1068.51,0.10842
1064.66,0.09766
1060.8,0.08940
1056.94,0.08405
1053.08,0.08118
1049.23,0.08023
1045.37,0.07974
1041.51,0.07769
1037.65,0.07355
1033.8,0.06899
1029.94,0.06837
1026.08,0.09012
1022.22,0.13378
1018.37,0.15786
1014.51,0.14003
1010.65,0.10490
1006.8,0.08513
1002.94,0.07465
999.08,0.06859
995.223,0.06486
991.365,0.06323
987.508,0.06217
983.65,0.06152
979.793,0.06413
975.935,0.07118
972.078,0.07955
968.221,0.07980
964.363,0.07298
960.506,0.06583
956.648,0.05997
952.791,0.05569
948.933,0.05242
945.076,0.05041
941.218,0.04883
937.361,0.04703
933.503,0.04580
929.646,0.04451
925.789,0.04348
921.931,0.04284
918.074,0.04201
914.216,0.04210
910.359,0.04297
906.501,0.04519
902.644,0.04741
898.786,0.04826
894.929,0.04798
891.072,0.04711
887.214,0.04741
883.357,0.05145
879.499,0.06042
875.642,0.08017
871.784,0.09704
867.927,0.07501
864.069,0.06067
860.212,0.05881
856.354,0.06150
852.497,0.06642
848.64,0.07193
844.782,0.06989
840.925,0.06249
837.067,0.05621
833.21,0.05127
829.352,0.04796
825.495,0.04539
821.637,0.04417
817.78,0.04322
813.922,0.04222
810.065,0.04255
806.208,0.04250
802.35,0.04241
798.493,0.04339
794.635,0.04819
790.778,0.04843
786.92,0.04318
783.063,0.03932
779.205,0.03737
775.348,0.03538
771.49,0.03390
767.633,0.03184
763.776,0.02932
759.918,0.02843
756.061,0.02825
752.203,0.02781
748.346,0.02831
744.488,0.03178
740.631,0.04538
736.773,0.08300
732.916,0.14822
729.058,0.23040
725.201,0.29773
721.344,0.26270
717.486,0.17394
713.629,0.12120
709.771,0.09649
705.914,0.08279
702.056,0.07312
698.199,0.06357
694.341,0.05641
690.484,0.05250
686.627,0.05014
682.769,0.04918
678.912,0.04868
675.054,0.04724
671.197,0.04622
667.339,0.04336
663.482,0.04261
659.624,0.04237
655.767,0.04080
651.909,0.03985
648.052,0.03898
644.195,0.03863
640.337,0.03885
636.48,0.03956
632.622,0.04109
628.765,0.03923
624.907,0.03734
621.05,0.03560
617.192,0.03647
613.335,0.03943
609.477,0.03722
605.62,0.03352
601.763,0.03733
599.834,0.03802