File: 01_Data/Polyester_Fabric/FTIR/ATR/Polyester_Fabric_ATR_210608_R3.tst
4497.79,0.01919
4493.93,0.01923
4490.07,0.01949
4486.22,0.01987
4482.36,0.01947
4478.5,0.01949
4474.64,0.01940
4470.79,0.01934
4466.93,0.01931
4463.07,0.01947
4459.21,0.01955
4455.36,0.01959
4451.5,0.01962
4447.64,0.01945
4443.79,0.01983
4439.93,0.01998
4436.07,0.01993
4432.21,0.01957
4428.36,0.01969
4424.5,0.01975
4420.64,0.01976
4416.78,0.01981
4412.93,0.01997
4409.07,0.02008
4405.21,0.02004
4401.35,0.01996
4397.5,0.01992
4393.64,0.01987
4389.78,0.01984
4385.92,0.01985
4382.07,0.02006
4378.21,0.02006
4374.35,0.01992
4370.49,0.01998
4366.64,0.01986
4362.78,0.01994
4358.92,0.02000
4355.06,0.02003
4351.21,0.01989
4347.35,0.02004
4343.49,0.02017
4339.63,0.02019
4335.78,0.02015
4331.92,0.02008
4328.06,0.02000
4324.2,0.02016
4320.35,0.02027
4316.49,0.02025
4312.63,0.02037
4308.77,0.02036
4304.92,0.02041
4301.06,0.02040
4297.2,0.02041
4293.34,0.02054
4289.49,0.02052
4285.63,0.02054
4281.77,0.02062
4277.91,0.02044
4274.06,0.02044
4270.2,0.02043
4266.34,0.02049
4262.48,0.02048
4258.63,0.02037
4254.77,0.02047
4250.91,0.02053
4247.06,0.02037
4243.2,0.02048
4239.34,0.02069
4235.48,0.02053
4231.63,0.02053
4227.77,0.02065
4223.91,0.02074
4220.05,0.02064
4216.2,0.02051
4212.34,0.02078
4208.48,0.02077
4204.62,0.02074
4200.77,0.02082
4196.91,0.02077
4193.05,0.02102
4189.19,0.02079
4185.34,0.02066
4181.48,0.02084
4177.62,0.02077
4173.76,0.02092
4169.91,0.02104
4166.05,0.02109
4162.19,0.02097
4158.33,0.02081
4154.48,0.02095
4150.62,0.02082
4146.76,0.02082
4142.9,0.02098
4139.05,0.02119
4135.19,0.02132
4131.33,0.02114
4127.47,0.02092
4123.62,0.02098
4119.76,0.02113
4115.9,0.02118
4112.04,0.02105
4108.19,0.02123
4104.33,0.02147
4100.47,0.02137
4096.61,0.02143
4092.76,0.02140
4088.9,0.02174
4085.04,0.02177
4081.18,0.02196
4077.33,0.02164
4073.47,0.02163
4069.61,0.02153
4065.75,0.02143
4061.9,0.02173
4058.04,0.02162
4054.18,0.02137
4050.33,0.02159
4046.47,0.02191
4042.61,0.02183
4038.75,0.02150
4034.9,0.02163
4031.04,0.02173
4027.18,0.02183
4023.32,0.02198
4019.47,0.02208
4015.61,0.02203
4011.75,0.02210
4007.89,0.02227
4004.04,0.02173
4000.18,0.02155
3996.32,0.02211
3992.46,0.02258
3988.61,0.02228
3984.75,0.02217
3980.89,0.02234
3977.03,0.02285
3973.18,0.02324
3969.32,0.02264
3965.46,0.02234
3961.6,0.02321
3957.75,0.02318
3953.89,0.02294
3950.03,0.02426
3946.17,0.02414
3942.32,0.02390
3938.46,0.02274
3934.6,0.02408
3930.74,0.02539
3926.89,0.02454
3923.03,0.02502
3919.17,0.02491
3915.31,0.02383
3911.46,0.02235
3907.6,0.02401
3903.74,0.02892
3899.88,0.02748
3896.03,0.02487
3892.17,0.02595
3888.31,0.02473
3884.45,0.02689
3880.6,0.02571
3876.74,0.02423
3872.88,0.02701
3869.02,0.02763
3865.17,0.02862
3861.31,0.02614
3857.45,0.02631
3853.59,0.03033
3849.74,0.02608
3845.88,0.02494
3842.02,0.02807
3838.17,0.03014
3834.31,0.02674
3830.45,0.02526
3826.59,0.02606
3822.74,0.02776
3818.88,0.02831
3815.02,0.02492
3811.16,0.02324
3807.31,0.02506
3803.45,0.02715
3799.59,0.02738
3795.73,0.02437
3791.88,0.02260
3788.02,0.02338
3784.16,0.02415
3780.3,0.02397
3776.45,0.02297
3772.59,0.02367
3768.73,0.02566
3764.87,0.02501
3761.02,0.02552
3757.16,0.02709
3753.3,0.02953
3749.44,0.03313
3745.59,0.03069
3741.73,0.02868
3737.87,0.03000
3734.01,0.03058
3730.16,0.02625
3726.3,0.02766
3722.44,0.02682
3718.58,0.02462
3714.73,0.02557
3710.87,0.02801
3707.01,0.02433
3703.15,0.02380
3699.3,0.02348
3695.44,0.02398
3691.58,0.02723
3687.72,0.02623
3683.87,0.02358
3680.01,0.02513
3676.15,0.02842
3672.29,0.02844
3668.44,0.02636
3664.58,0.02310
3660.72,0.02337
3656.86,0.02527
3653.01,0.02637
3649.15,0.03231
3645.29,0.02654
3641.44,0.02460
3637.58,0.02408
3633.72,0.02526
3629.86,0.02845
3626.01,0.02592
3622.15,0.02589
3618.29,0.02907
3614.43,0.02880
3610.58,0.02795
3606.72,0.02605
3602.86,0.02545
3599,0.02683
3595.15,0.02618
3591.29,0.02546
3587.43,0.02814
3583.57,0.02504
3579.72,0.02438
3575.86,0.02420
3572,0.02452
3568.14,0.02882
3564.29,0.02771
3560.43,0.02512
3556.57,0.02422
3552.71,0.02522
3548.86,0.02572
3545,0.02707
3541.14,0.02394
3537.28,0.02401
3533.43,0.02393
3529.57,0.02572
3525.71,0.02698
3521.85,0.02501
3518,0.02332
3514.14,0.02315
3510.28,0.02446
3506.42,0.02431
3502.57,0.02574
3498.71,0.02369
3494.85,0.02322
3490.99,0.02294
3487.14,0.02362
3483.28,0.02403
3479.42,0.02341
3475.56,0.02287
3471.71,0.02257
3467.85,0.02275
3463.99,0.02326
3460.13,0.02342
3456.28,0.02290
3452.42,0.02267
3448.56,0.02385
3444.7,0.02404
3440.85,0.02359
3436.99,0.02323
3433.13,0.02362
3429.28,0.02374
3425.42,0.02372
3421.56,0.02450
3417.7,0.02349
3413.85,0.02315
3409.99,0.02297
3406.13,0.02291
3402.27,0.02301
3398.42,0.02324
3394.56,0.02346
3390.7,0.02311
3386.84,0.02285
3382.99,0.02295
3379.13,0.02278
3375.27,0.02265
3371.41,0.02280
3367.56,0.02326
3363.7,0.02331
3359.84,0.02318
3355.98,0.02303
3352.13,0.02270
3348.27,0.02265
3344.41,0.02284
3340.55,0.02298
3336.7,0.02345
3332.84,0.02313
3328.98,0.02318
3325.12,0.02322
3321.27,0.02296
3317.41,0.02297
3313.55,0.02325
3309.69,0.02347
3305.84,0.02323
3301.98,0.02320
3298.12,0.02326
3294.26,0.02320
3290.41,0.02342
3286.55,0.02331
3282.69,0.02335
3278.83,0.02321
3274.98,0.02350
3271.12,0.02327
3267.26,0.02333
3263.4,0.02336
3259.55,0.02323
3255.69,0.02338
3251.83,0.02305
3247.97,0.02315
3244.12,0.02339
3240.26,0.02314
3236.4,0.02315
3232.55,0.02324
3228.69,0.02334
3224.83,0.02301
3220.97,0.02323
3217.12,0.02334
3213.26,0.02331
3209.4,0.02319
3205.54,0.02313
3201.69,0.02322
3197.83,0.02342
3193.97,0.02324
3190.11,0.02317
3186.26,0.02333
3182.4,0.02338
3178.54,0.02359
3174.68,0.02341
3170.83,0.02332
3166.97,0.02326
3163.11,0.02317
3159.25,0.02317
3155.4,0.02324
3151.54,0.02330
3147.68,0.02326
3143.82,0.02330
3139.97,0.02334
3136.11,0.02349
3132.25,0.02367
3128.39,0.02377
3124.54,0.02387
3120.68,0.02396
3116.82,0.02404
3112.96,0.02396
3109.11,0.02403
3105.25,0.02416
3101.39,0.02441
3097.53,0.02421
3093.68,0.02401
3089.82,0.02385
3085.96,0.02404
3082.1,0.02446
3078.25,0.02453
3074.39,0.02436
3070.53,0.02440
3066.67,0.02459
3062.82,0.02461
3058.96,0.02470
3055.1,0.02488
3051.24,0.02470
3047.39,0.02454
3043.53,0.02419
3039.67,0.02400
3035.82,0.02416
3031.96,0.02448
3028.1,0.02419
3024.24,0.02423
3020.39,0.02420
3016.53,0.02452
3012.67,0.02516
3008.81,0.02513
3004.96,0.02519
3001.1,0.02519
2997.24,0.02534
2993.38,0.02556
2989.53,0.02578
2985.67,0.02607
2981.81,0.02666
2977.95,0.02727
2974.1,0.02808
2970.24,0.02880
2966.38,0.02898
2962.52,0.02882
2958.67,0.02851
2954.81,0.02809
2950.95,0.02768
2947.09,0.02720
2943.24,0.02677
2939.38,0.02646
2935.52,0.02648
2931.66,0.02654
2927.81,0.02665
2923.95,0.02675
2920.09,0.02693
2916.23,0.02718
2912.38,0.02750
2908.52,0.02782
2904.66,0.02773
2900.8,0.02727
2896.95,0.02684
2893.09,0.02665
2889.23,0.02659
2885.37,0.02646
2881.52,0.02637
2877.66,0.02629
2873.8,0.02630
2869.94,0.02634
2866.09,0.02624
2862.23,0.02624
2858.37,0.02640
2854.51,0.02648
2850.66,0.02639
2846.8,0.02618
2842.94,0.02582
2839.08,0.02561
2835.23,0.02540
2831.37,0.02531
2827.51,0.02520
2823.66,0.02500
2819.8,0.02500
2815.94,0.02507
2812.08,0.02516
2808.23,0.02518
2804.37,0.02503
2800.51,0.02505
2796.65,0.02502
2792.8,0.02494
2788.94,0.02497
2785.08,0.02491
2781.22,0.02488
2777.37,0.02485
2773.51,0.02485
2769.65,0.02482
2765.79,0.02478
2761.94,0.02477
2758.08,0.02476
2754.22,0.02474
2750.36,0.02477
2746.51,0.02485
2742.65,0.02480
2738.79,0.02468
2734.93,0.02466
2731.08,0.02467
2727.22,0.02467
2723.36,0.02464
2719.5,0.02463
2715.65,0.02459
2711.79,0.02455
2707.93,0.02457
2704.07,0.02455
2700.22,0.02452
2696.36,0.02450
2692.5,0.02448
2688.64,0.02451
2684.79,0.02450
2680.93,0.02447
2677.07,0.02450
2673.21,0.02442
2669.36,0.02441
2665.5,0.02444
2661.64,0.02449
2657.78,0.02440
2653.93,0.02424
2650.07,0.02413
2646.21,0.02391
2642.35,0.02387
2638.5,0.02383
2634.64,0.02368
2630.78,0.02353
2626.93,0.02352
2623.07,0.02347
2619.21,0.02327
2615.35,0.02321
2611.5,0.02308
2607.64,0.02301
2603.78,0.02312
2599.92,0.02307
2596.07,0.02304
2592.21,0.02307
2588.35,0.02295
2584.49,0.02298
2580.64,0.02307
2576.78,0.02294
2572.92,0.02287
2569.06,0.02282
2565.21,0.02284
2561.35,0.02265
2557.49,0.02272
2553.63,0.02277
2549.78,0.02255
2545.92,0.02259
2542.06,0.02261
2538.2,0.02259
2534.35,0.02265
2530.49,0.02250
2526.63,0.02246
2522.77,0.02253
2518.92,0.02246
2515.06,0.02246
2511.2,0.02235
2507.34,0.02235
2503.49,0.02244
2499.63,0.02230
2495.77,0.02225
2491.91,0.02232
2488.06,0.02226
2484.2,0.02215
2480.34,0.02217
2476.48,0.02214
2472.63,0.02213
2468.77,0.02215
2464.91,0.02220
2461.05,0.02225
2457.2,0.02214
2453.34,0.02207
2449.48,0.02201
2445.62,0.02196
2441.77,0.02205
2437.91,0.02218
2434.05,0.02222
2430.2,0.02231
2426.34,0.02223
2422.48,0.02230
2418.62,0.02232
2414.77,0.02230
2410.91,0.02243
2407.05,0.02252
2403.19,0.02247
2399.34,0.02259
2395.48,0.02259
2391.62,0.02266
2387.76,0.02288
2383.91,0.02336
2380.05,0.02345
2376.19,0.02262
2372.33,0.02109
2368.48,0.01846
2364.62,0.01700
2360.76,0.01649
2356.9,0.01723
2353.05,0.01974
2349.19,0.02147
2345.33,0.01973
2341.47,0.01803
2337.62,0.01781
2333.76,0.01860
2329.9,0.01991
2326.04,0.02092
2322.19,0.02184
2318.33,0.02236
2314.47,0.02268
2310.61,0.02343
2306.76,0.02315
2302.9,0.02266
2299.04,0.02239
2295.18,0.02234
2291.33,0.02215
2287.47,0.02226
2283.61,0.02201
2279.75,0.02160
2275.9,0.02132
2272.04,0.02120
2268.18,0.02125
2264.32,0.02115
2260.47,0.02120
2256.61,0.02125
2252.75,0.02126
2248.89,0.02103
2245.04,0.02096
2241.18,0.02085
2237.32,0.02067
2233.46,0.02075
2229.61,0.02068
2225.75,0.02046
2221.89,0.02028
2218.04,0.02042
2214.18,0.02039
2210.32,0.01982
2206.46,0.01962
2202.61,0.01996
2198.75,0.01966
2194.89,0.01920
2191.03,0.01905
2187.18,0.01884
2183.32,0.01815
2179.46,0.01800
2175.6,0.01845
2171.75,0.01854
2167.89,0.01850
2164.03,0.01837
2160.17,0.01798
2156.32,0.01806
2152.46,0.01894
2148.6,0.01900
2144.74,0.01923
2140.89,0.01933
2137.03,0.01939
2133.17,0.01960
2129.31,0.01962
2125.46,0.01961
2121.6,0.01969
2117.74,0.01985
2113.88,0.01987
2110.03,0.01970
2106.17,0.01962
2102.31,0.01969
2098.45,0.01969
2094.6,0.01997
2090.74,0.02032
2086.88,0.02031
2083.02,0.02015
2079.17,0.02003
2075.31,0.01973
2071.45,0.01972
2067.59,0.02008
2063.74,0.02009
2059.88,0.01961
2056.02,0.01933
2052.16,0.01928
2048.31,0.01860
2044.45,0.01879
2040.59,0.01917
2036.73,0.01870
2032.88,0.01839
2029.02,0.01833
2025.16,0.01868
2021.31,0.01869
2017.45,0.01931
2013.59,0.01896
2009.73,0.01882
2005.88,0.01853
2002.02,0.01855
1998.16,0.01858
1994.3,0.01944
1990.45,0.02000
1986.59,0.01938
1982.73,0.01921
1978.87,0.01885
1975.02,0.01815
1971.16,0.01888
1967.3,0.02022
1963.44,0.01955
1959.59,0.01969
1955.73,0.02032
1951.87,0.01980
1948.01,0.01994
1944.16,0.02105
1940.3,0.01996
1936.44,0.01907
1932.58,0.01918
1928.73,0.01869
1924.87,0.01951
1921.01,0.02029
1917.15,0.01942
1913.3,0.01853
1909.44,0.01952
1905.58,0.01846
1901.72,0.01809
1897.87,0.01837
1894.01,0.01858
1890.15,0.01860
1886.29,0.01805
1882.44,0.01746
1878.58,0.01721
1874.72,0.01725
1870.86,0.01945
1867.01,0.02008
1863.15,0.01775
1859.29,0.01761
1855.43,0.01712
1851.58,0.01734
1847.72,0.01955
1843.86,0.02082
1840,0.01839
1836.15,0.01839
1832.29,0.01890
1828.43,0.02007
1824.57,0.01950
1820.72,0.01801
1816.86,0.01779
1813,0.01857
1809.15,0.01897
1805.29,0.01825
1801.43,0.01988
1797.57,0.01973
1793.72,0.02067
1789.86,0.01871
1786,0.01732
1782.14,0.01784
1778.29,0.01759
1774.43,0.01856
1770.57,0.01943
1766.71,0.01697
1762.86,0.01703
1759,0.01790
1755.14,0.01818
1751.28,0.02271
1747.43,0.03100
1743.57,0.03920
1739.71,0.05578
1735.85,0.07428
1732,0.11038
1728.14,0.13251
1724.28,0.15904
1720.42,0.18770
1716.57,0.23206
1712.71,0.23223
1708.85,0.20550
1704.99,0.16241
1701.14,0.13062
1697.28,0.09937
1693.42,0.07906
1689.56,0.07285
1685.71,0.06979
1681.85,0.06491
1677.99,0.05865
1674.13,0.05503
1670.28,0.05251
1666.42,0.04629
1662.56,0.04406
1658.7,0.04137
1654.85,0.04288
1650.99,0.04215
1647.13,0.04206
1643.27,0.03737
1639.42,0.03716
1635.56,0.03758
1631.7,0.03391
1627.84,0.03406
1623.99,0.03497
1620.13,0.03419
1616.27,0.03464
1612.42,0.03266
1608.56,0.03222
1604.7,0.03084
1600.84,0.02953
1596.99,0.02873
1593.13,0.02857
1589.27,0.02807
1585.41,0.02831
1581.56,0.03049
1577.7,0.03387
1573.84,0.03225
1569.98,0.03116
1566.13,0.02994
1562.27,0.03050
1558.41,0.03472
1554.55,0.03255
1550.7,0.03074
1546.84,0.03116
1542.98,0.03867
1539.12,0.03346
1535.27,0.03204
1531.41,0.03069
1527.55,0.03241
1523.69,0.03587
1519.84,0.03429
1515.98,0.03249
1512.12,0.03280
1508.26,0.04156
1504.41,0.04129
1500.55,0.03589
1496.69,0.03027
1492.83,0.02707
1488.98,0.03057
1485.12,0.02718
1481.26,0.02794
1477.4,0.03139
1473.55,0.03928
1469.69,0.03574
1465.83,0.03336
1461.97,0.03272
1458.12,0.03804
1454.26,0.03634
1450.4,0.03368
1446.54,0.03227
1442.69,0.03028
1438.83,0.03087
1434.97,0.03042
1431.11,0.02786
1427.26,0.02568
1423.4,0.02647
1419.54,0.03195
1415.69,0.04408
1411.83,0.06110
1407.97,0.06831
1404.11,0.05563
1400.26,0.04572
1396.4,0.04110
1392.54,0.03583
1388.68,0.03601
1384.83,0.03536
1380.97,0.03406
1377.11,0.03469
1373.25,0.03575
1369.4,0.03407
1365.54,0.03203
1361.68,0.03023
1357.82,0.02712
1353.97,0.02825
1350.11,0.03420
1346.25,0.05140
1342.39,0.07712
1338.54,0.08438
1334.68,0.05864
1330.82,0.03883
1326.96,0.03044
1323.11,0.02925
1319.25,0.03144
1315.39,0.03310
1311.53,0.03530
1307.68,0.03848
1303.82,0.04326
1299.96,0.05100
1296.1,0.06167
1292.25,0.07297
1288.39,0.08498
1284.53,0.09685
1280.67,0.11064
1276.82,0.12658
1272.96,0.14479
1269.1,0.16596
1265.24,0.18665
1261.39,0.20424
1257.53,0.21766
1253.67,0.23186
1249.81,0.25033
1245.96,0.26738
1242.1,0.27346
1238.24,0.25894
1234.38,0.22447
1230.53,0.18509
1226.67,0.15495
1222.81,0.13385
1218.95,0.11558
1215.1,0.10006
1211.24,0.08856
1207.38,0.07924
1203.53,0.07104
1199.67,0.06365
1195.81,0.05719
1191.95,0.05248
1188.1,0.04959
1184.24,0.04836
1180.38,0.04873
1176.52,0.04965
1172.67,0.04882
1168.81,0.04594
1164.95,0.04387
1161.09,0.04382
1157.24,0.04497
1153.38,0.04694
1149.52,0.05068
1145.66,0.05710
1141.81,0.06819
1137.95,0.08601
1134.09,0.11227
1130.23,0.14300
1126.38,0.16938
1122.52,0.18524
1118.66,0.18862
1114.8,0.18507
1110.95,0.18942
1107.09,0.20251
1103.23,0.21894
1099.37,0.23040
1095.52,0.23050
1091.66,0.21890
1087.8,0.20139
1083.94,0.18147
1080.09,0.15759
1076.23,0.13331
1072.37,0.11395
1068.51,0.10000
1064.66,0.08962
1060.8,0.08188
1056.94,0.07701
1053.08,0.07467
1049.23,0.07422
1045.37,0.07396
1041.51,0.07225
1037.65,0.06851
1033.8,0.06469
1029.94,0.06485
1026.08,0.08700
1022.22,0.12924
1018.37,0.15110
1014.51,0.13115
1010.65,0.09560
1006.8,0.07660
1002.94,0.06715
999.08,0.06157
995.223,0.05820
991.365,0.05708
987.508,0.05627
983.65,0.05600
979.793,0.05901
975.935,0.06588
972.078,0.07356
968.221,0.07306
964.363,0.06610
960.506,0.05910
956.648,0.05334
952.791,0.04971
948.933,0.04676
945.076,0.04507
941.218,0.04368
937.361,0.04213
933.503,0.04100
929.646,0.03991
925.789,0.03919
921.931,0.03844
918.074,0.03800
914.216,0.03829
910.359,0.03938
906.501,0.04134
902.644,0.04328
898.786,0.04419
894.929,0.04400
891.072,0.04323
887.214,0.04367
883.357,0.04811
879.499,0.05723
875.642,0.07715
871.784,0.09415
867.927,0.07176
864.069,0.05705
860.212,0.05554
856.354,0.05799
852.497,0.06241
848.64,0.06778
844.782,0.06521
840.925,0.05825
837.067,0.05204
833.21,0.04730
829.352,0.04405
825.495,0.04180
821.637,0.04067
817.78,0.03985
813.922,0.03896
810.065,0.03925
806.208,0.03931
802.35,0.03932
798.493,0.04036
794.635,0.04502
790.778,0.04482
786.92,0.03954
783.063,0.03545
779.205,0.03337
775.348,0.03261
771.49,0.03130
767.633,0.02954
763.776,0.02825
759.918,0.02740
756.061,0.02615
752.203,0.02555
748.346,0.02622
744.488,0.02981
740.631,0.04412
736.773,0.08153
732.916,0.14737
729.058,0.23034
725.201,0.30026
721.344,0.26389
717.486,0.17142
713.629,0.11824
709.771,0.09330
705.914,0.07952
702.056,0.06950
698.199,0.06013
694.341,0.05319
690.484,0.04951
686.627,0.04671
682.769,0.04589
678.912,0.04561
675.054,0.04447
671.197,0.04298
667.339,0.03977
663.482,0.03944
659.624,0.03910
655.767,0.03737
651.909,0.03610
648.052,0.03544
644.195,0.03516
640.337,0.03520
636.48,0.03564
632.622,0.03713
628.765,0.03538
624.907,0.03376
621.05,0.03350
617.192,0.03411
613.335,0.03600
609.477,0.03377
605.62,0.03506
601.763,0.03294
599.834,0.03461