File: 01_Data/Nylon_Carpet_HighPile/Cone/Nylon_Carpet_High_Pile_Cone_HF50Scan_220318_R1.csv
Names,Time,Stack TC,Smoke TC,Exh Press,Smoke Comp,Smoke Meas,CO Meter,CO2 Meter,O2 Meter,Sample Mass,Ext Coeff,Start Test,Flame Verif
Chan Gain,,500,500,1,1,1,1,1,1,1,1,1.0,1.0
Offset,,0,0,0.13495,0,0,0,0,0,0,0,0.0,0.0
Gain,,1,1,25.011,13.0212,13.19,1,1,1,1.0009,1.01015,1.0,1.0
Units,sec,C,C,Pa,%,%,%,%,%,g,/m,,
Baseline,,36.3385,38.3421,132.05,97.967,92.5149,0.000767185,0.0434089,21.0229,-489.231,0.507464,,
4,0.75,35.6286,37.4308,132.852,97.5984,92.1524,0.000851235,0.0555935,21.0123,24.502,0.508766,0.0,0.0
8,1.75,36.1143,37.6698,129.2,97.5988,91.9492,0.000821045,0.0548126,21.0132,24.442,0.52837,0.0,0.0
12,2.75,35.7658,37.7679,129.79,97.6027,91.9729,0.000818666,0.0540286,21.0138,24.4119,0.526442,0.0,0.0
16,3.75,35.617,37.8478,131.368,97.6067,91.824,0.00083274,0.0534364,21.0143,24.3919,0.541164,0.0,0.0
20,4.75,35.8097,37.3848,130.026,97.6151,91.7946,0.000855204,0.0530815,21.0139,24.422,0.544757,0.0,0.0
24,5.75,35.8158,37.3819,129.928,97.6067,91.5438,0.000867738,0.0528792,21.0135,24.3919,0.56824,0.0,0.0
28,6.75,35.6564,37.7798,132.693,97.5988,92.4185,0.000860324,0.0527218,21.0132,24.3819,0.483255,0.0,0.0
32,7.75,36.0682,37.7176,133.127,97.6198,92.3911,0.000842281,0.0526003,21.013,24.3519,0.487791,0.0,0.0
36,8.75,36.0496,36.8238,129.087,97.6039,92.0301,0.000811763,0.0525533,21.0129,24.3619,0.521045,0.0,0.0
40,9.75,35.951,37.7499,132.212,97.6012,91.8457,0.000808528,0.052645,21.0129,24.3319,0.538562,0.0,0.0
44,10.75,36.2768,38.0558,131.711,97.6063,92.0603,0.000834706,0.0529275,21.0128,24.3219,0.518355,0.0,0.0
48,11.75,36.1353,37.9562,130.079,97.6067,91.884,0.000870086,0.0532491,21.012,24.3018,0.535378,0.0,0.0
52,12.75,35.9164,38.1541,131.53,97.6035,91.7282,0.000899558,0.0534578,21.0114,24.3119,0.550124,0.0,0.0
56,13.75,36.0767,38.1828,129.539,97.6174,92.1569,0.000920889,0.0535706,21.0111,24.2818,0.510072,0.0,0.0
60,14.75,36.351,38.0836,131.444,97.6055,91.9492,0.00094392,0.0536531,21.012,24.2018,0.528983,0.0,0.0
64,15.75,36.2236,37.9608,126.032,97.6071,92.3505,0.000952076,0.0537124,21.0126,24.2618,0.490537,0.0,0.0
68,16.75,36.3299,38.067,130.797,97.6012,91.506,0.000950342,0.0538404,21.013,24.2518,0.571399,0.0,0.0
72,17.75,36.2591,37.7706,130.916,97.602,92.3976,0.000946063,0.0540544,21.0132,24.2318,0.48555,0.0,0.0
76,18.75,35.7791,37.8544,131.129,97.6027,91.3305,0.000928886,0.0543009,21.0134,24.2118,0.588554,0.0,0.0
80,19.75,35.8276,37.8114,134.418,97.6079,91.8928,0.000903451,0.0545328,21.0135,24.2218,0.534631,0.0,0.0
84,20.75,35.9149,38.4704,132.57,97.6008,92.3601,0.000877868,0.0545366,21.0135,24.2118,0.489034,0.0,0.0
88,21.75,36.0856,38.1947,127.317,97.6087,92.4809,0.00085615,0.0542979,21.0136,24.2018,0.478177,0.0,0.0
92,22.75,36.4706,38.2791,131.855,97.6059,92.3569,0.00080444,0.0540143,21.0141,24.2018,0.489811,0.0,0.0
96,23.75,36.6433,38.0606,128.18,97.6087,91.6871,0.000759498,0.053653,21.0147,24.1917,0.554561,0.0,0.0
100,24.75,35.9942,38.4108,126.838,97.6123,91.9065,0.000730011,0.0531937,21.0152,24.1717,0.533709,0.0,0.0
104,25.75,35.8711,38.3447,128.886,97.6174,91.6191,0.000723883,0.0525617,21.0154,24.1517,0.561931,0.0,0.0
108,26.75,36.7124,38.6741,131.835,97.6103,91.3872,0.000728543,0.0518443,21.0156,24.1617,0.583735,0.0,0.0
112,27.75,36.8063,38.2681,129.555,97.6059,90.9259,0.000739145,0.0512206,21.0166,24.1317,0.628178,0.0,0.0
116,28.75,36.195,38.3278,127.511,97.6087,92.3143,0.000755194,0.0506796,21.0172,24.1117,0.494158,0.0,0.0
120,29.75,36.6841,38.2371,128.879,97.6127,92.014,0.000799232,0.050259,21.0176,24.1317,0.523389,0.0,0.0
124,30.75,36.4588,38.5791,134.005,97.6095,91.5289,0.000876294,0.0499306,21.0178,24.1217,0.569934,0.0,0.0
128,31.75,36.4884,38.2954,134.368,97.6111,91.8723,0.000959803,0.0496904,21.018,24.1117,0.5369,0.0,0.0
132,32.75,36.644,39.025,130.449,97.6186,91.452,0.00102114,0.0495329,21.0181,24.1217,0.57821,0.0,0.0
136,33.75,36.4492,38.4427,130.136,97.6155,91.2918,0.00105703,0.0494489,21.0182,24.0917,0.593458,0.0,0.0
140,34.75,37.0061,38.5527,131.986,97.6139,91.0455,0.00107959,0.0494484,21.0182,24.0616,0.617256,0.0,0.0
144,35.75,37.1191,38.6625,127.848,97.6405,90.5089,0.00111932,0.0495221,21.0182,24.0616,0.672049,0.0,0.0
148,36.75,36.6562,39.2549,133.135,97.6274,90.5033,0.00117126,0.0496197,21.0176,23.9916,0.67141,0.0,0.0
152,37.75,36.7633,39.2007,130.658,97.6198,90.7867,0.00128034,0.0497615,21.0173,24.0216,0.643024,0.0,0.0
156,38.75,36.996,38.4934,131.379,97.6182,90.4779,0.00137846,0.0498514,21.0166,24.0116,0.673064,0.0,0.0
160,39.75,37.223,38.5873,130.643,97.6111,88.489,0.00144284,0.0501396,21.0158,23.9816,0.869369,0.0,0.0
164,40.75,36.8196,38.9005,130.458,97.6282,90.0186,0.00146737,0.0505309,21.0153,23.9615,0.71906,0.0,0.0
168,41.75,37.2927,39.1983,127.891,97.6143,89.9438,0.00146604,0.0508679,21.015,23.9615,0.725171,0.0,0.0
172,42.75,37.447,39.1585,129.528,97.6127,91.3997,0.00144704,0.0510572,21.0147,23.9215,0.58274,0.0,0.0
176,43.75,36.8309,39.0773,128.412,97.6151,90.7231,0.00142247,0.0511105,21.0146,23.8815,0.6488,0.0,0.0
180,44.75,37.1211,39.033,127.263,97.6182,89.8299,0.00141268,0.051058,21.0145,23.8615,0.73676,0.0,0.0
184,45.75,37.0985,38.9522,127.469,97.6214,89.7683,0.0014212,0.0508014,21.0144,23.8815,0.743126,0.0,0.0
188,46.75,37.4129,39.5463,131.309,97.6262,90.5927,0.00146232,0.050497,21.0136,23.8815,0.662558,0.0,0.0
192,47.75,37.5269,39.4172,130.427,97.6182,89.3187,0.00152236,0.0501635,21.0122,23.8414,0.787331,0.0,0.0
196,48.75,37.5361,39.6127,129.068,97.619,88.6078,0.00161491,0.0499575,21.0104,23.8514,0.858208,0.0,0.0
200,49.75,36.8356,39.2505,131.128,97.619,89.5694,0.00172803,0.0534424,20.9994,23.8014,0.76256,0.0,0.0
204,50.75,37.3536,39.5036,125.244,97.6341,91.1188,0.00188279,0.070303,20.9595,23.7514,0.611969,0.0,1.0
208,51.75,37.7001,39.5648,118.051,97.6238,91.1316,0.00207751,0.0992783,20.8931,23.6813,0.609778,0.0,1.0
212,52.75,38.3257,40.2118,112.559,97.6274,91.2113,0.00229741,0.138963,20.811,23.6312,0.602357,0.0,1.0
216,53.75,38.5735,40.6214,111.588,97.6242,91.4162,0.00247065,0.193157,20.7484,23.5412,0.582187,0.0,1.0
220,54.75,39.2095,40.6364,115.816,97.6254,91.8244,0.0026894,0.248127,20.6737,23.4711,0.54282,0.0,1.0
224,55.75,39.8373,42.4516,114.444,97.6369,91.7539,0.00286087,0.294386,20.6156,23.351,0.550665,0.0,0.0
228,56.75,40.597,43.3322,109.117,97.6298,91.8332,0.00305822,0.322734,20.5694,23.2609,0.542363,0.0,0.0
232,57.75,42.3437,44.1989,116.652,97.6302,91.0813,0.00324134,0.356057,20.5306,23.1808,0.615249,0.0,0.0
236,58.75,43.0907,45.6359,110.065,97.6365,90.9272,0.00341614,0.384434,20.5002,23.1208,0.630837,0.0,0.0
240,59.75,43.9307,46.6372,114.969,97.6298,91.0725,0.00354552,0.40683,20.472,23.0007,0.616075,0.0,0.0
244,60.75,45.2917,47.6284,111.85,97.6393,90.742,0.00371104,0.426468,20.4479,22.9206,0.649153,0.0,0.0
248,61.75,45.5444,48.739,108.964,97.6337,89.7514,0.00384877,0.445005,20.4235,22.8005,0.745913,0.0,0.0
252,62.75,46.6989,49.1383,109.509,97.6389,89.7635,0.00394811,0.461116,20.3985,22.7304,0.74519,0.0,0.0
256,63.75,47.4164,50.3512,109.161,97.6405,89.982,0.00403802,0.47649,20.3768,22.6404,0.723785,0.0,0.0
260,64.75,48.2087,51.2925,113.057,97.6365,89.1468,0.00416381,0.489602,20.357,22.5002,0.806058,0.0,0.0
264,65.75,49.1036,51.9686,108.015,97.6417,89.1335,0.00433827,0.500658,20.3402,22.4702,0.807847,0.0,0.0
268,66.75,49.7714,53.1384,110.502,97.6405,87.9481,0.00458379,0.510491,20.3213,22.3601,0.926377,0.0,0.0
272,67.75,50.8335,53.5156,114.339,97.6508,87.7432,0.00488104,0.520773,20.3045,22.24,0.947981,0.0,0.0
276,68.75,51.2349,54.7508,111.211,97.6477,87.5443,0.00518405,0.52993,20.2906,22.1499,0.967797,0.0,0.0
280,69.75,51.7394,55.764,108.652,97.6441,87.2251,0.00548871,0.539137,20.2746,22.0298,0.999841,0.0,0.0
284,70.75,53.4627,56.992,113.498,97.6504,85.6359,0.00588521,0.549464,20.2597,21.9397,1.16335,0.0,0.0
288,71.75,53.5913,57.796,109.619,97.6508,84.9363,0.00635423,0.562453,20.2397,21.8396,1.23607,0.0,0.0
292,72.75,55.0037,58.77,105.446,97.6584,84.0753,0.00683696,0.577572,20.2128,21.7496,1.32703,0.0,0.0
296,73.75,55.1792,59.4013,107.254,97.6469,84.5117,0.00730297,0.591734,20.1805,21.5994,1.28012,0.0,0.0
300,74.75,56.3021,60.2529,107.516,97.6556,83.699,0.00774397,0.609815,20.147,21.4893,1.36654,0.0,0.0
304,75.75,57.3679,61.2346,103.337,97.6496,81.4287,0.00814285,0.629402,20.113,21.3992,1.60966,0.0,0.0
308,76.75,58.4136,62.4301,107.167,97.6572,81.7733,0.00846856,0.649797,20.0806,21.2791,1.57293,0.0,0.0
312,77.75,59.0725,63.207,107.998,97.6488,81.5889,0.00871789,0.67075,20.0562,21.129,1.59217,0.0,0.0
316,78.75,60.1896,64.6264,102.454,97.6624,80.6865,0.0090637,0.688887,20.0299,20.9889,1.69196,0.0,0.0
320,79.75,60.9946,65.9074,104.491,97.654,81.7797,0.00937784,0.705114,20.0086,20.9188,1.57194,0.0,0.0
324,80.75,61.5902,66.4846,104.974,97.6504,80.135,0.00970391,0.715492,19.985,20.7787,1.75164,0.0,0.0
328,81.75,62.3825,67.475,106.667,97.6604,81.7407,0.0100277,0.730982,19.9638,20.6285,1.57675,0.0,0.0
332,82.75,63.9635,68.701,104.859,97.6604,82.0313,0.0102627,0.746019,19.9436,20.4684,1.5453,0.0,0.0
336,83.75,64.622,69.9339,105.553,97.656,82.6045,0.010498,0.758408,19.9269,20.3783,1.48321,0.0,0.0
340,84.75,65.4826,70.7643,101.001,97.6651,80.1543,0.0106871,0.770272,19.9123,20.3083,1.75084,0.0,0.0
344,85.75,66.4023,71.6287,101.32,97.6624,82.5216,0.0108845,0.782222,19.8973,20.1381,1.49268,0.0,0.0
348,86.75,67.3354,73.4692,105.118,97.6751,79.4105,0.0111283,0.794499,19.8765,20.058,1.83436,0.0,0.0
352,87.75,68.4754,74.1525,105.013,97.6759,79.4962,0.011408,0.805139,19.8593,19.8979,1.82487,0.0,0.0
356,88.75,69.268,75.0973,105.859,97.6786,80.5247,0.0116888,0.813394,19.8456,19.7878,1.71122,0.0,0.0
360,89.75,69.6673,76.2267,100.547,97.6778,78.2162,0.0119588,0.820046,19.8346,19.6176,1.96889,0.0,0.0
364,90.75,71.2041,76.8483,100.314,97.6814,78.2753,0.0122022,0.82501,19.8266,19.4975,1.96251,0.0,0.0
368,91.75,71.6487,78.5439,101.945,97.6874,77.4655,0.0124624,0.829079,19.8182,19.3474,2.05521,0.0,0.0
372,92.75,72.7783,79.1795,99.0273,97.681,77.7086,0.0127269,0.834751,19.8074,19.1772,2.02687,0.0,0.0
376,93.75,73.0443,79.4575,100.827,97.6898,77.9698,0.013015,0.842326,19.7905,19.0972,1.99792,0.0,0.0
380,94.75,73.9317,80.8702,102.996,97.6922,77.0984,0.0133806,0.851412,19.7707,18.937,2.09774,0.0,0.0
384,95.75,74.8396,82.081,103.84,97.6866,77.3866,0.0137335,0.862066,19.7559,18.8069,2.06417,0.0,0.0
388,96.75,75.7324,82.7001,99.5982,97.6882,75.5055,0.0140189,0.87093,19.7462,18.6668,2.28235,0.0,0.0
392,97.75,76.8086,84.0195,99.4715,97.6906,76.7019,0.0142241,0.876116,19.7398,18.5267,2.14328,0.0,0.0
396,98.75,77.5366,85.0111,106.668,97.6906,77.0762,0.0143726,0.877836,19.738,18.3665,2.10014,0.0,0.0
400,99.75,78.1135,85.6784,99.9676,97.689,76.1701,0.0144834,0.877919,19.7375,18.2564,2.20478,0.0,0.0
404,100.75,78.5294,86.3681,103.145,97.7049,76.2281,0.0145673,0.876993,19.7379,18.0963,2.19948,0.0,0.0
408,101.75,79.0047,87.209,100.77,97.7069,73.3404,0.0146512,0.874134,19.7447,17.9762,2.54186,0.0,0.0
412,102.75,80.3284,88.1451,105.162,97.714,77.6216,0.0147772,0.869143,19.753,17.836,2.03978,0.0,0.0
416,103.75,80.9023,88.7686,106.499,97.7204,75.3474,0.0150042,0.862267,19.7603,17.7059,2.30386,0.0,0.0
420,104.75,81.254,89.4193,102.941,97.7255,73.5062,0.0152815,0.856799,19.7651,17.5758,2.52354,0.0,0.0
424,105.75,81.5463,90.0667,101.928,97.7386,71.4243,0.0155674,0.853654,19.7694,17.4257,2.77931,0.0,0.0
428,106.75,81.7246,90.1889,107.288,97.7494,72.8646,0.0159745,0.851905,19.7733,17.3056,2.60338,0.0,0.0
432,107.75,82.9213,91.5391,104.924,97.7494,72.3002,0.0164096,0.849591,19.7764,17.1854,2.67228,0.0,0.0
436,108.75,83.0888,91.6099,110.446,97.7712,74.5117,0.0167885,0.847174,19.7791,17.0453,2.40729,0.0,0.0
440,109.75,83.5111,92.6868,107.211,97.7712,73.4454,0.01709,0.842564,19.7826,16.8852,2.53501,0.0,0.0
444,110.75,83.9062,93.4393,108.303,97.7673,73.2204,0.0173223,0.836279,19.7929,16.8051,2.56184,0.0,0.0
448,111.75,84.3753,93.387,101.887,97.7768,72.3087,0.0174882,0.829173,19.8052,16.655,2.67373,0.0,0.0
452,112.75,84.9701,93.8746,104.216,97.7955,71.7794,0.0175828,0.82053,19.8177,16.5449,2.74053,0.0,0.0
456,113.75,85.3961,94.0722,110.845,97.7987,73.5827,0.0176486,0.813222,19.828,16.4148,2.52095,0.0,0.0
460,114.75,85.1785,94.5223,102.862,97.8118,72.0354,0.0177003,0.807165,19.8364,16.2946,2.71046,0.0,0.0
464,115.75,85.9414,95.2216,106.926,97.8181,70.2163,0.0177419,0.801643,19.8456,16.1245,2.93766,0.0,0.0
468,116.75,86.2439,95.3689,106.733,97.8428,71.6151,0.0177827,0.794324,19.8631,16.0444,2.76511,0.0,0.0
472,117.75,86.0327,95.4604,109.933,97.8519,72.1964,0.0178416,0.78397,19.8832,15.9543,2.69431,0.0,0.0
476,118.75,86.5864,95.9793,108.832,97.8658,71.0254,0.0179299,0.771609,19.899,15.8142,2.84046,0.0,0.0
480,119.75,86.5774,95.9968,108.084,97.8833,70.5408,0.0180274,0.759899,19.9116,15.7041,2.90271,0.0,0.0
484,120.75,86.9237,96.2071,107.944,97.8968,69.9853,0.0181066,0.750527,19.9223,15.574,2.97399,0.0,0.0
488,121.75,87.2081,96.4601,108.02,97.9234,69.4061,0.0181275,0.741184,19.935,15.4939,3.05004,0.0,0.0
492,122.75,86.7645,96.0133,108.433,97.9298,71.7045,0.0180434,0.730015,19.9508,15.3738,2.76194,0.0,0.0
496,123.75,88.2168,97.4694,109.29,97.9338,70.2051,0.0178725,0.720825,19.9664,15.2237,2.94955,0.0,0.0
500,124.75,86.9267,96.8058,108.73,97.9465,71.3374,0.0176604,0.712654,19.9783,15.1436,2.80893,0.0,0.0
504,125.75,87.4425,97.1776,111.245,97.9818,69.7333,0.0173408,0.706273,19.9865,15.0435,3.01364,0.0,0.0
508,126.75,87.0368,96.7289,110.769,97.985,68.0153,0.0169665,0.700942,19.9936,14.8934,3.23497,0.0,0.0
512,127.75,87.0812,96.983,106.653,97.9977,67.5995,0.0165811,0.695428,19.9993,14.8133,3.29046,0.0,0.0
516,128.75,87.7496,97.7189,110.065,98.0172,68.1003,0.0162991,0.686682,20.01,14.7332,3.22682,0.0,0.0
520,129.75,87.725,97.2237,109.783,98.0315,69.7285,0.0159127,0.676911,20.025,14.6231,3.01875,0.0,0.0
524,130.75,86.9216,97.2004,106.672,98.0418,70.2481,0.015501,0.668558,20.0378,14.493,2.95389,0.0,0.0
528,131.75,87.2402,97.3874,107.812,98.0565,69.7555,0.0150859,0.662602,20.0465,14.3829,3.01759,0.0,0.0
532,132.75,87.3126,97.4321,110.687,98.074,70.1177,0.0147316,0.656925,20.0522,14.3129,2.97327,0.0,0.0
536,133.75,87.6555,97.5049,110.228,98.0899,71.789,0.0143674,0.65208,20.0647,14.2028,2.76597,0.0,0.0
540,134.75,87.3854,97.2409,109.428,98.1094,72.5925,0.0140328,0.642479,20.0802,14.1227,2.66911,0.0,0.0
544,135.75,87.5398,97.5186,114.278,98.1265,73.0996,0.0137051,0.632443,20.0983,13.9926,2.60896,0.0,0.0
548,136.75,86.8315,96.7573,109.724,98.14,72.6782,0.0133686,0.621505,20.1166,13.9025,2.66142,0.0,0.0
552,137.75,87.0156,96.8066,108.547,98.1575,72.4665,0.0130114,0.611055,20.1342,13.8525,2.68885,0.0,0.0
556,138.75,86.8323,96.6696,110.985,98.1777,75.0897,0.0126827,0.601582,20.1497,13.7424,2.37558,0.0,0.0
560,139.75,87.252,97.0674,105.688,98.2068,75.77,0.0123478,0.593941,20.1605,13.6723,2.29829,0.0,0.0
564,140.75,87.0325,96.735,106.691,98.2195,72.1924,0.0120173,0.588634,20.1678,13.5822,2.72802,0.0,0.0
568,141.75,87.1316,97.1709,110.862,98.231,73.4474,0.0117266,0.584061,20.174,13.5322,2.57634,0.0,0.0
572,142.75,86.8965,96.5645,113.616,98.254,75.9995,0.0114421,0.579327,20.1831,13.4121,2.27576,0.0,0.0
576,143.75,86.7725,96.4151,112.722,98.2727,74.8901,0.0111428,0.573343,20.1956,13.332,2.40774,0.0,0.0
580,144.75,86.4164,96.3939,112.627,98.3029,71.3161,0.0108763,0.567519,20.2109,13.2619,2.84377,0.0,0.0
584,145.75,86.4034,96.1995,110.743,98.3276,76.0808,0.0106682,0.559092,20.2249,13.1718,2.27291,0.0,0.0
588,146.75,86.8272,96.4023,115.28,98.3395,72.7994,0.0104694,0.548631,20.242,13.0517,2.66465,0.0,0.0
592,147.75,86.2212,96.1184,113.991,98.3633,77.2441,0.0103029,0.537342,20.2597,12.9917,2.14167,0.0,0.0
596,148.75,85.3423,95.6005,111.559,98.3848,73.73,0.0101268,0.526331,20.2744,12.9416,2.55617,0.0,0.0
600,149.75,86.5755,96.1115,112.908,98.4011,74.7742,0.00994442,0.517489,20.2867,12.7915,2.43303,0.0,0.0
604,150.75,85.3771,95.0356,113.478,98.4321,76.1146,0.00976029,0.510821,20.2954,12.7415,2.27839,0.0,0.0
608,151.75,86.0003,95.4915,110.374,98.436,75.2681,0.00963949,0.505596,20.3019,12.7114,2.37785,0.0,0.0
612,152.75,85.7516,95.1005,113.071,98.4551,75.2342,0.00950962,0.500943,20.3077,12.6213,2.38355,0.0,0.0
616,153.75,85.3516,94.6845,114.468,98.465,78.5414,0.00941806,0.495895,20.3143,12.5213,2.00325,0.0,0.0
620,154.75,84.7493,94.2022,111.829,98.496,77.5154,0.00932998,0.487735,20.3262,12.4712,2.12255,0.0,0.0
624,155.75,85.4083,94.6014,113.491,98.5068,78.4726,0.00921434,0.480153,20.3404,12.3811,2.01477,0.0,0.0
628,156.75,84.6414,94.3507,113.288,98.5306,75.4713,0.00905844,0.472926,20.3545,12.3311,2.36246,0.0,0.0
632,157.75,84.7419,94.0655,110.718,98.5449,76.9494,0.00886903,0.46711,20.365,12.271,2.19188,0.0,0.0
636,158.75,84.5254,94.3461,114.985,98.5644,77.1865,0.00866659,0.462548,20.3743,12.181,2.16637,0.0,0.0
640,159.75,84.2337,93.8429,113.857,98.5914,77.5955,0.00850201,0.458031,20.3821,12.1209,2.12198,0.0,0.0
644,160.75,84.566,93.4473,116.576,98.6153,76.22,0.00833687,0.453749,20.3878,12.0208,2.2826,0.0,0.0
648,161.75,83.9884,93.3273,111.908,98.6192,76.6161,0.0081961,0.450218,20.3926,11.9808,2.23703,0.0,0.0
652,162.75,83.944,93.5847,114.12,98.6367,78.0491,0.00806846,0.447236,20.3968,11.8807,2.0744,0.0,0.0
656,163.75,83.7511,93.509,116.337,98.6625,78.8896,0.00793924,0.443876,20.4015,11.8406,1.9818,0.0,0.0
660,164.75,83.7819,92.6404,117.378,98.6745,78.1485,0.00780859,0.440221,20.4081,11.8006,2.06651,0.0,0.0
664,165.75,83.0064,92.3584,116.51,98.6876,76.9349,0.00771222,0.436702,20.4129,11.7305,2.20637,0.0,0.0
668,166.75,82.7264,92.7712,115.474,98.7086,79.2571,0.00759717,0.433958,20.4173,11.6405,1.94476,0.0,0.0
672,167.75,83.0362,92.1914,118.081,98.7182,77.7569,0.00748524,0.4325,20.4202,11.5504,2.11495,0.0,0.0
676,168.75,82.771,92.314,117.9,98.7369,78.8099,0.00739587,0.4313,20.4246,11.5304,1.99743,0.0,0.0
680,169.75,82.9275,92.103,118.772,98.7679,79.0059,0.00733005,0.428958,20.4291,11.4803,1.9782,0.0,0.0
684,170.75,82.6442,91.7218,115.885,98.7675,77.9602,0.00728494,0.425853,20.4346,11.4103,2.09624,0.0,0.0
688,171.75,82.3267,91.7507,113.93,98.7889,78.979,0.007269,0.422605,20.441,11.3102,1.98312,0.0,0.0
692,172.75,82.2376,91.245,115.109,98.8024,78.188,0.00729813,0.418351,20.4482,11.2801,2.07352,0.0,0.0
696,173.75,82.1213,91.2447,113.013,98.8108,78.8759,0.00734447,0.413508,20.4541,11.2101,1.99665,0.0,0.0
700,174.75,81.9698,91.0458,112.697,98.8267,78.0201,0.00741529,0.409038,20.4583,11.14,2.09473,0.0,0.0
704,175.75,81.7085,91.0353,115.281,98.8461,80.93,0.00745294,0.405218,20.4623,11.08,1.77201,0.0,0.0
708,176.75,81.2595,90.7574,116.822,98.8557,80.2167,0.00745035,0.401112,20.467,11.0199,1.85131,0.0,0.0
712,177.75,81.4082,90.5681,112.351,98.8565,79.9466,0.00741093,0.397988,20.4733,10.9298,1.88127,0.0,0.0
716,178.75,80.7253,90.2512,115.608,98.8648,79.753,0.00735389,0.394518,20.4791,10.8798,1.9035,0.0,0.0
720,179.75,80.9717,89.8894,114.341,98.8783,80.3282,0.00730777,0.391881,20.4841,10.8297,1.84103,0.0,0.0
724,180.75,81.0981,90.0308,110.892,98.8763,79.6814,0.00728883,0.389487,20.4881,10.7497,1.9125,0.0,0.0
728,181.75,80.7835,89.4831,121.64,98.8771,80.0621,0.00729901,0.387376,20.4907,10.7096,1.87032,0.0,0.0
732,182.75,80.2818,89.4861,117.183,98.8851,78.7036,0.0073262,0.38566,20.493,10.6496,2.02268,0.0,0.0
736,183.75,80.4028,89.5765,112.697,98.8871,79.3678,0.00734224,0.384203,20.4952,10.5995,1.9484,0.0,0.0
740,184.75,80.3498,89.0249,113.853,98.9018,78.6259,0.00733432,0.382859,20.497,10.5295,2.03293,0.0,0.0
744,185.75,79.9144,89.0267,117.025,98.8811,80.6052,0.007292,0.381284,20.5008,10.4794,1.81078,0.0,0.0
748,186.75,80.0727,88.6547,117.322,98.8843,78.735,0.00721968,0.378686,20.5061,10.4194,2.01908,0.0,0.0
752,187.75,79.8395,88.7517,114.752,98.8783,79.8645,0.00714373,0.375721,20.5099,10.3493,1.89233,0.0,0.0
756,188.75,79.6049,88.5563,115.293,98.8835,81.2544,0.00707863,0.373248,20.513,10.2993,1.73991,0.0,0.0
760,189.75,79.607,88.2497,111.126,98.8875,79.4596,0.00703196,0.370625,20.5167,10.1992,1.93819,0.0,0.0
764,190.75,79.4331,87.9903,119.982,98.8704,80.0799,0.0069791,0.3676,20.5222,10.1792,1.86776,0.0,0.0
768,191.75,79.2305,87.5874,117.357,98.8676,80.7271,0.0069242,0.363822,20.5299,10.1291,1.79618,0.0,0.0
772,192.75,79.4079,87.7901,118.198,98.8632,80.5774,0.00686486,0.359863,20.5349,10.0691,1.81223,0.0,0.0
776,193.75,78.7159,87.4833,120.094,98.8573,81.0733,0.00678887,0.356557,20.5398,10.039,1.75733,0.0,0.0
780,194.75,78.7045,87.353,115.835,98.8362,80.8398,0.00665499,0.353691,20.5439,9.98898,1.781,0.0,0.0
784,195.75,78.0796,86.3236,118.652,98.8239,82.1275,0.00653291,0.351147,20.5469,9.92893,1.63986,0.0,0.0
788,196.75,78.2005,86.4647,117.229,98.8155,80.6672,0.00634927,0.348969,20.5501,9.86887,1.79809,0.0,0.0
792,197.75,77.9917,86.3495,116.702,98.8016,81.5322,0.00621487,0.34678,20.5522,9.81883,1.70233,0.0,0.0
796,198.75,78.3277,86.4319,115.664,98.7853,81.223,0.00607467,0.344766,20.5573,9.75877,1.73453,0.0,0.0
800,199.75,78.111,86.2384,118.021,98.7635,80.3395,0.00596007,0.341418,20.563,9.73875,1.82949,0.0,0.0
804,200.75,77.5388,86.0002,118.176,98.752,81.9057,0.00584873,0.338259,20.5683,9.66869,1.65737,0.0,0.0
808,201.75,76.9089,85.2784,115.77,98.7432,80.8302,0.00574823,0.334671,20.5735,9.60864,1.77372,0.0,0.0
812,202.75,76.8762,84.9049,117.864,98.7261,81.5849,0.00564011,0.330669,20.581,9.55859,1.68983,0.0,0.0
816,203.75,77.0832,85.0829,119.418,98.7202,81.698,0.00553793,0.326581,20.5877,9.46851,1.67702,0.0,0.0
820,204.75,76.8665,84.9011,123.019,98.6971,82.6677,0.00543409,0.322411,20.5944,9.40846,1.5704,0.0,0.0
824,205.75,77.0051,84.9636,116.37,98.6892,82.0353,0.00530287,0.318157,20.6014,9.39845,1.63773,0.0,0.0
828,206.75,75.9609,84.1868,117.492,98.678,81.9814,0.00516273,0.314625,20.6079,9.3484,1.64256,0.0,0.0
832,207.75,76.613,84.5665,118.807,98.6566,82.6625,0.00501229,0.310574,20.6157,9.29836,1.56732,0.0,0.0
836,208.75,75.5699,83.7278,120.419,98.6506,82.0587,0.00487509,0.305591,20.6247,9.30837,1.63174,0.0,0.0
840,209.75,76.2188,83.7241,119.577,98.6268,82.6367,0.00473528,0.299747,20.634,9.21829,1.5674,0.0,0.0
844,210.75,75.1899,83.1844,118.703,98.6041,85.27,0.00461607,0.294752,20.6439,9.17825,1.28741,0.0,0.0
848,211.75,75.4035,83.5215,118.315,98.5934,85.4496,0.00453153,0.288139,20.6546,9.1182,1.26781,0.0,0.0
852,212.75,75.4545,83.1059,120.178,98.5692,83.5327,0.00448652,0.281486,20.6649,9.1182,1.46666,0.0,0.0
856,213.75,74.6972,82.4565,117.212,98.5568,85.5707,0.00446563,0.275733,20.6739,9.07816,1.25197,0.0,0.0
860,214.75,74.7119,82.458,116.047,98.537,84.7488,0.00445829,0.271062,20.6814,9.04813,1.33571,0.0,0.0
864,215.75,74.1022,82.1149,120.704,98.5258,85.4379,0.00442871,0.266044,20.6881,9.02812,1.26294,0.0,0.0
868,216.75,73.7996,81.4423,121.319,98.5104,84.754,0.00438495,0.260878,20.6946,8.99809,1.33276,0.0,0.0
872,217.75,73.914,81.3088,122.995,98.502,85.9463,0.00434441,0.256306,20.7019,8.94804,1.20823,0.0,0.0
876,218.75,73.4069,81.1536,118.963,98.4901,86.3359,0.00429647,0.252349,20.7095,8.91802,1.16708,0.0,0.0
880,219.75,73.609,80.9611,119.922,98.4829,86.2313,0.00423253,0.248085,20.716,8.87798,1.17718,0.0,0.0
884,220.75,73.0617,80.4443,117.251,98.4694,86.3287,0.00416851,0.244687,20.721,8.82794,1.16596,0.0,0.0
888,221.75,72.4834,79.6488,119.705,98.4623,85.5981,0.00403468,0.241858,20.7254,8.7879,1.24063,0.0,0.0
892,222.75,72.6477,80.083,128.176,98.4464,87.3366,0.00389398,0.239322,20.7286,8.73785,1.06103,0.0,0.0
896,223.75,72.5231,79.4654,119.486,98.4567,86.8866,0.00375658,0.237327,20.7311,8.71784,1.10774,0.0,0.0
900,224.75,71.7564,79.2927,120.76,98.4416,87.6272,0.00360565,0.23538,20.7346,8.71784,1.03116,0.0,0.0
904,225.75,71.7507,78.8646,118.085,98.436,86.668,0.00346596,0.233197,20.7386,8.6778,1.1282,0.0,0.0
908,226.75,71.7674,78.7096,116.997,98.4186,86.276,0.00333999,0.230277,20.7436,8.64777,1.1668,0.0,0.0
912,227.75,71.4425,78.5547,119.122,98.4488,87.9002,0.00324311,0.226714,20.7493,8.63776,1.00425,0.0,0.0
916,228.75,71.4974,78.1316,121.643,98.5183,88.6396,0.00317954,0.222681,20.7571,8.58772,0.936281,0.0,0.0
920,229.75,70.8968,77.6365,120.858,98.5847,88.9326,0.00313115,0.218851,20.7634,8.57771,0.913002,0.0,0.0
924,230.75,70.8355,77.6207,122.548,98.626,88.4842,0.00308156,0.215407,20.7683,8.54768,0.961507,0.0,0.0
928,231.75,70.6898,77.0981,121.986,98.6804,89.1983,0.00302971,0.21226,20.7733,8.50765,0.895174,0.0,0.0
932,232.75,69.6714,76.8996,121.964,98.7357,89.1391,0.00296065,0.20874,20.7793,8.47762,0.906013,0.0,0.0
936,233.75,69.9939,76.9009,122.858,98.7869,89.4072,0.0028617,0.205309,20.7856,8.46761,0.884003,0.0,0.0
940,234.75,69.9776,76.4021,122.499,98.8366,90.1624,0.00275133,0.201708,20.7912,8.42758,0.813932,0.0,0.0
944,235.75,69.4205,76.3173,122.638,98.8807,90.0943,0.00265204,0.198537,20.7965,8.39755,0.824573,0.0,0.0
948,236.75,69.191,76.1377,125.066,98.9196,89.6515,0.0025269,0.195397,20.8013,8.38754,0.871718,0.0,0.0
952,237.75,69.1711,75.3406,124.795,98.9804,90.7521,0.0024203,0.191594,20.807,8.36752,0.769053,0.0,0.0
956,238.75,68.8597,75.0997,120.092,99.0095,90.7537,0.00233327,0.186591,20.8147,8.31748,0.771493,0.0,0.0
960,239.75,68.5151,75.1424,123.151,99.0476,90.6748,0.00226985,0.181562,20.8255,8.33749,0.782613,0.0,0.0
964,240.75,68.0889,74.4202,120.186,99.0865,91.3623,0.00221681,0.174741,20.8385,8.30747,0.719164,0.0,0.0
968,241.75,67.6131,74.5737,124.786,99.106,91.386,0.00216344,0.16718,20.8514,8.27744,0.718602,0.0,0.0
972,242.75,67.4631,73.4149,123.949,99.1406,91.3092,0.00212485,0.159366,20.8616,8.25742,0.72915,0.0,0.0
976,243.75,67.0975,73.554,128.658,99.17,91.9391,0.00210109,0.151639,20.871,8.24741,0.670855,0.0,0.0
980,244.75,67.118,72.2416,124.363,99.1859,91.9234,0.00210824,0.14455,20.8807,8.2274,0.673788,0.0,0.0
984,245.75,66.9584,72.8549,128.271,99.1994,91.8425,0.00211537,0.136122,20.8899,8.21739,0.682797,0.0,0.0
988,246.75,66.2793,72.3508,127.736,99.2185,92.8307,0.00208888,0.130593,20.9,8.2274,0.589668,0.0,0.0
992,247.75,65.7525,72.4081,125.85,99.2375,92.9015,0.00201967,0.121592,20.9148,8.2374,0.584612,0.0,0.0
996,248.75,65.6232,71.4606,124.461,99.2511,92.9233,0.00187523,0.112738,20.9291,8.2274,0.583746,0.0,0.0
1000,249.75,65.2367,70.7943,123.919,99.2586,92.4266,0.00171141,0.104845,20.9408,8.24741,0.631912,0.0,0.0
1004,250.75,63.9712,70.1691,128.391,99.2594,93.3898,0.00156736,0.0980679,20.9507,8.2374,0.540114,0.0,0.0
1008,251.75,63.6266,69.3996,129.538,99.2737,93.4317,0.00148913,0.0918132,20.9599,8.2274,0.53742,0.0,0.0
1012,252.75,63.1734,68.787,125.24,99.2709,92.9817,0.00148491,0.0866363,20.9676,8.17735,0.579954,0.0,0.0
1016,253.75,62.933,68.2021,129.5,99.2745,92.8536,0.00153827,0.0824172,20.9737,8.19737,0.592481,0.0,0.0
1020,254.75,62.9574,67.5018,129.315,99.265,93.3729,0.00160467,0.078879,20.979,8.17735,0.542215,0.0,0.0
1024,255.75,61.9179,67.718,125.981,99.2662,92.5912,0.00164851,0.0760568,20.9832,8.18736,0.616817,0.0,0.0
1028,256.75,61.4152,67.1221,129.545,99.257,93.1052,0.00167331,0.0738878,20.9859,8.18736,0.566944,0.0,0.0
1032,257.75,61.6168,66.5795,123.541,99.2475,93.0283,0.00165415,0.0721511,20.9877,8.17735,0.573413,0.0,0.0
1036,258.75,60.7719,66.4812,129.818,99.2403,92.6926,0.00159512,0.0708531,20.9902,8.18736,0.604808,0.0,0.0
1040,259.75,60.8468,66.1936,133.802,99.2201,92.9909,0.00152321,0.0694339,20.9921,8.17735,0.574532,0.0,0.0
1044,260.75,59.9676,65.0669,128.003,99.2133,93.0843,0.00146277,0.0681841,20.994,8.16734,0.565035,0.0,0.0
1048,261.75,59.4964,65.478,130.421,99.1839,92.4036,0.00142754,0.0668296,20.9961,8.16734,0.627441,0.0,0.0
1052,262.75,59.5277,64.5184,129.429,99.1692,92.821,0.00141105,0.0654945,20.9982,8.15733,0.586189,0.0,0.0
1056,263.75,59.3935,64.3447,127.52,99.1493,92.7458,0.00139849,0.064194,20.9998,8.14732,0.591601,0.0,0.0
1060,264.75,58.4331,63.5011,128.825,99.1219,93.102,0.00138734,0.0628309,21.0013,8.15733,0.555182,0.0,0.0
1064,265.75,58.8981,63.5976,128.303,99.0997,93.2473,0.00138049,0.0615932,21.0026,8.15733,0.539373,0.0,0.0
1068,266.75,58.3442,63.1269,123.34,99.0643,93.1193,0.00137798,0.06043,21.0034,8.16734,0.548382,0.0,0.0
1072,267.75,58.446,62.8026,130.805,99.0416,92.9313,0.00134759,0.0592958,21.0048,8.15733,0.56426,0.0,0.0
1076,268.75,57.6435,62.096,126.813,99.0178,92.6238,0.0012824,0.0582054,21.0059,8.15733,0.5915,0.0,0.0
1080,269.75,57.5233,62.0973,127.585,98.9789,92.7812,0.00119267,0.0573391,21.0067,8.16734,0.57297,0.0,0.0
1084,270.75,57.3852,62.3414,127.334,98.9491,92.6999,0.00112252,0.0563307,21.0072,8.15733,0.57807,0.0,0.0
1088,271.75,56.998,61.2158,126.93,98.9085,92.9354,0.00107629,0.0554939,21.0083,8.13732,0.55196,0.0,0.0
1092,272.75,57.0453,61.3249,127.247,98.8704,92.8742,0.00106102,0.0546237,21.0089,8.14732,0.554377,0.0,0.0
1096,273.75,56.3656,60.4861,127.03,98.8155,92.5582,0.00104689,0.0538059,21.01,8.12731,0.579659,0.0,0.0
1100,274.75,56.3667,60.8987,125.983,98.7794,92.4205,0.00100894,0.0529776,21.011,8.12731,0.589605,0.0,0.0
1104,275.75,55.9914,60.6976,130.756,98.7432,92.6588,0.000939943,0.0524158,21.0116,8.1173,0.563544,0.0,0.0
1108,276.75,55.9903,60.2011,129.622,98.7484,92.394,0.000843996,0.0516757,21.0124,8.13732,0.589372,0.0,0.0
1112,277.75,55.1906,59.7352,128.246,98.7547,92.3461,0.000764353,0.0509646,21.0133,8.13732,0.594538,0.0,0.0
1116,278.75,55.4447,59.9947,130.392,98.7631,92.4696,0.000664988,0.0503998,21.0139,8.15733,0.583437,0.0,0.0
1120,279.75,55.0281,59.1996,124.362,98.777,92.8013,0.000584189,0.0499243,21.0146,8.15733,0.552958,0.0,0.0
1124,280.75,54.6363,58.9232,128.71,98.802,92.5413,0.000522378,0.0493671,21.0157,8.15733,0.580067,0.0,0.0
1128,281.75,54.9615,58.5977,128.285,98.8132,92.7148,0.000490623,0.0488656,21.0166,8.15733,0.564469,0.0,0.0
1132,282.75,54.7437,58.7701,123.163,98.8259,92.4133,0.000480789,0.0483501,21.0172,8.14732,0.594469,0.0,0.0
1136,283.75,54.2491,58.4897,130.395,98.8445,92.2704,0.000493414,0.0478226,21.0175,8.13732,0.609856,0.0,0.0
1140,284.75,54.2924,58.0416,127.515,98.8668,93.032,0.000531158,0.0474142,21.0178,8.13732,0.539014,0.0,0.0
1144,285.75,53.6221,57.7272,125.487,98.8887,92.9205,0.000578831,0.0470929,21.0179,8.1173,0.5516,0.0,0.0
1148,286.75,53.8295,57.2028,126.462,98.8986,92.2571,0.000617921,0.0467948,21.018,8.1173,0.615976,0.0,0.0
1152,287.75,53.1576,57.1047,127.897,98.932,92.619,0.000632718,0.0465499,21.0181,8.12731,0.584277,0.0,0.0
1156,288.75,54.1769,57.1728,130.267,98.953,92.4906,0.00062701,0.0462146,21.0186,8.13732,0.598457,0.0,0.0
1160,289.75,53.2002,57.1708,126.217,98.9765,93.0291,0.000605915,0.0458117,21.019,8.1173,0.549108,0.0,0.0
1164,290.75,52.7551,56.4954,127.878,98.992,92.5715,0.00059253,0.0455374,21.0192,8.14732,0.594196,0.0,0.0
1168,291.75,52.6286,55.8626,125.587,99.019,92.5546,0.000596239,0.0453652,21.02,8.15733,0.598233,0.0,0.0
1172,292.75,52.3497,56.0953,128.069,99.044,93.1696,0.000598672,0.0452413,21.0205,8.13732,0.541783,0.0,0.0
1176,293.75,52.28,56.0831,125.626,99.0691,92.9462,0.000578254,0.0450241,21.0208,8.12731,0.565294,0.0,0.0
1180,294.75,52.1262,55.6733,129.395,99.0854,93.0388,0.00052305,0.0447771,21.021,8.12731,0.55793,0.0,0.0
1184,295.75,51.5347,54.9376,129.177,99.1076,92.8766,0.000455638,0.0445743,21.0211,8.12731,0.575383,0.0,0.0
1188,296.75,51.9102,55.5226,127.791,99.133,93.1584,0.00037005,0.0444475,21.0206,8.1173,0.550814,0.0,0.0
1192,297.75,52.1989,55.1317,132.056,99.1557,93.1229,0.000293122,0.044273,21.0201,8.13732,0.556209,0.0,0.0
1196,298.75,51.3658,54.7037,125.452,99.1891,93.0638,0.000238977,0.0440847,21.0197,8.10729,0.564822,0.0,0.0
1200,299.75,50.9137,54.4063,127.752,99.2081,92.8593,0.000208126,0.0438873,21.0195,8.13732,0.586018,0.0,0.0
1204,300.75,51.02,54.9893,125.849,99.2324,92.689,0.00023623,0.0437055,21.02,8.12731,0.604445,0.0,0.0
1208,301.75,50.7592,54.6421,122.583,99.2578,93.1523,0.000303916,0.043528,21.0205,8.12731,0.562535,0.0,0.0
1212,302.75,51.2858,54.1788,128.616,99.2884,93.3089,0.00033311,0.0433183,21.0208,8.14732,0.550384,0.0,0.0
1216,303.75,50.8971,54.0361,126.819,99.3015,92.9788,0.000349013,0.0431327,21.021,8.14732,0.582954,0.0,0.0
1220,304.75,51.0082,53.3855,128.599,99.3258,93.2594,0.000330863,0.0430025,21.0211,8.13732,0.55842,0.0,0.0
1224,305.75,50.9712,54.1418,126.166,99.3488,93.0143,0.000286051,0.0429417,21.0212,8.15733,0.583798,0.0,0.0
1228,306.75,50.4081,53.5105,127.494,99.3536,92.9611,0.000244336,0.0429128,21.0213,8.1173,0.589286,0.0,0.0
1232,307.75,50.4307,53.0073,129.261,99.3862,92.7486,0.000245473,0.0428802,21.0213,8.12731,0.612474,0.0,0.0
1236,308.75,50.2129,53.7389,128.631,99.4064,92.9804,0.000290587,0.0428335,21.0213,8.13732,0.592157,0.0,0.0
1240,309.75,50.1623,53.3684,128.677,99.4219,92.9337,0.000369166,0.0427609,21.0214,8.14732,0.597989,0.0,0.0
1244,310.75,49.9394,53.1636,126.685,99.4434,93.1467,0.000428161,0.0426957,21.0214,8.1173,0.579622,0.0,0.0
1248,311.75,50.4736,52.9519,126.272,99.4517,93.4019,0.000446575,0.0427022,21.0214,8.1173,0.556121,0.0,0.0
1252,312.75,49.6033,52.496,128.168,99.4668,93.2912,0.000399733,0.0426819,21.0214,8.14732,0.567975,0.0,0.0
1256,313.75,49.4773,52.3953,127.157,99.476,92.8444,0.000341649,0.0426931,21.0214,8.13732,0.611329,0.0,0.0
1260,314.75,49.3185,52.8316,129.263,99.4851,93.0396,0.000273573,0.0427141,21.0217,8.14732,0.59353,0.0,0.0
1264,315.75,49.5234,52.4947,125.311,99.5157,93.2964,0.000224235,0.0427388,21.0221,8.13732,0.571831,0.0,0.0
1268,316.75,49.3584,52.2592,129.582,99.507,94.1111,0.000194061,0.0426735,21.0223,8.14732,0.49401,0.0,0.0
1272,317.75,49.2334,51.7256,126.133,99.5082,93.7412,0.000189641,0.0425782,21.0218,8.12731,0.529014,0.0,0.0
1276,318.75,49.3341,52.0135,125.696,99.5308,93.3979,0.000214449,0.0424995,21.0213,8.13732,0.563547,0.0,0.0
1280,319.75,49.3833,51.7704,128.752,99.528,92.6761,0.000261261,0.0423987,21.0212,8.12731,0.632037,0.0,0.0
1284,320.75,48.7689,51.7578,128.379,99.5292,93.4095,0.000313102,0.0423377,21.0217,8.12731,0.562298,0.0,0.0
1288,321.75,49.2135,51.806,128.024,99.5404,93.6011,0.000342048,0.0423197,21.0221,8.1173,0.545131,0.0,0.0
1292,322.75,49.2896,51.3978,127.366,99.5368,93.2534,0.000339657,0.0422833,21.0222,8.10729,0.577797,0.0,0.0
1296,323.75,49.1563,51.4876,129.068,99.5328,93.4442,0.000333597,0.0422982,21.0224,8.12731,0.559332,0.0,0.0
1300,324.75,48.8891,51.2223,130.083,99.5336,93.4792,0.000355249,0.0423048,21.0225,8.10729,0.556084,0.0,0.0
1304,325.75,49.0493,51.1978,129.297,99.53,93.0102,0.000405338,0.0422859,21.0226,8.12731,0.600329,0.0,0.0
1308,326.75,48.8548,51.2324,128.926,99.528,93.6917,0.000464221,0.0422611,21.022,8.14732,0.535465,0.0,0.0
1312,327.75,48.6057,51.0472,133.015,99.5205,93.6011,0.000476835,0.0422642,21.0221,8.13732,0.543362,0.0,0.0
1316,328.75,48.3515,51.2453,128.188,99.5249,92.8528,0.000433112,0.0422851,21.0223,8.12731,0.614876,0.0,0.0
1320,329.75,48.3513,50.9866,127.226,99.5133,93.7791,0.000357564,0.0423026,21.0224,8.12731,0.525898,0.0,0.0
1324,330.75,48.1568,50.9653,129.4,99.5106,93.0839,0.000258873,0.042311,21.0227,8.13732,0.59158,0.0,0.0
1328,331.75,48.122,50.7814,129.774,99.4966,92.8995,0.000197015,0.0423514,21.0229,8.1173,0.607909,0.0,0.0
1332,332.75,48.424,50.7313,127.681,99.4891,93.2703,0.00013651,0.0423474,21.0231,8.12731,0.571945,0.0,0.0
1336,333.75,47.2958,49.4164,126.359,99.4672,93.5927,8.36426e-05,0.0423273,21.0233,8.13732,0.539419,0.0,0.0
1340,334.75,48.0196,50.0955,128.526,99.4768,93.3222,3.79805e-05,0.0423169,21.0234,8.14732,0.565916,0.0,0.0
1344,335.75,48.1548,50.2601,124.312,99.4498,92.5409,-2.95311e-06,0.0422666,21.0234,8.14732,0.638007,0.0,0.0
1348,336.75,47.9205,50.3364,127.532,99.4335,92.8142,-2.73838e-05,0.042282,21.0235,8.13732,0.610422,0.0,0.0
1352,337.75,47.7425,49.9385,131.975,99.4192,93.604,-2.81087e-05,0.0423311,21.0234,8.12731,0.534069,0.0,0.0
1356,338.75,47.3845,49.8929,129.986,99.4104,93.2433,1.37644e-05,0.0423412,21.0234,8.12731,0.567497,0.0,0.0
1360,339.75,47.6856,49.734,124.286,99.3901,93.5645,6.67881e-05,0.0422741,21.0234,8.12731,0.535218,0.0,0.0
1364,340.75,47.519,49.7331,127.236,99.3743,93.2135,0.000226919,0.0422546,21.0234,8.14732,0.567105,0.0,0.0
1368,341.75,47.1844,49.8484,129.985,99.3556,93.6245,0.00040686,0.0422419,21.0234,8.16734,0.526457,0.0,0.0
1372,342.75,47.6926,49.4572,130.098,99.3417,93.5065,0.00056835,0.0422607,21.0234,8.19737,0.536385,0.0,0.0
1376,343.75,47.9694,49.0492,128.936,99.3226,93.6325,0.000696414,0.0423022,21.0234,8.2274,0.522753,0.0,0.0
1380,344.75,47.3865,48.7078,129.726,99.3154,93.2501,0.000765863,0.0423612,21.0229,8.18736,0.558378,0.0,0.0
1384,345.75,47.3778,49.6822,125.26,99.3011,93.2385,0.000782431,0.0424419,21.0223,8.16734,0.55821,0.0,0.0
1388,346.75,47.069,49.1241,129.233,99.2542,92.9728,0.000770931,0.0425696,21.0218,8.15733,0.579309,0.0,0.0
1392,347.75,47.1933,48.7381,126.354,99.2324,92.9406,0.00074288,0.042843,21.0216,8.1173,0.580427,0.0,0.0
1396,348.75,46.9291,48.8188,128.12,99.2137,93.1326,0.000696766,0.0431446,21.0214,8.13732,0.560473,0.0,0.0
1400,349.75,46.8815,48.7328,131.711,99.195,93.2332,0.00064465,0.0434656,21.0205,8.14732,0.549235,0.0,0.0
1404,350.75,46.6661,48.855,128.614,99.17,92.7675,0.000571012,0.0438507,21.0199,8.14732,0.591372,0.0,0.0
1408,351.75,46.8287,49.2273,127.725,99.1366,93.0762,0.000496304,0.0442862,21.0192,8.12731,0.558948,0.0,0.0
1412,352.75,46.7928,48.8469,130.468,99.1175,93.3564,0.000436294,0.0446758,21.0188,8.13732,0.530612,0.0,0.0
1416,353.75,46.8407,48.8681,126.558,99.085,93.1777,0.000411502,0.0450948,21.0184,8.1173,0.544678,0.0,0.0
1420,354.75,47.0753,48.2875,127.815,99.0703,92.6488,0.000428924,0.0455532,21.0182,8.07726,0.593806,0.0,0.0
1424,355.75,46.6745,48.3323,126.192,99.0385,93.0122,0.000469024,0.0459311,21.0179,8.09728,0.556266,0.0,0.0
1428,356.75,46.3764,48.5508,130.778,99.0166,93.0948,0.000502983,0.0463268,21.0171,8.09728,0.546453,0.0,0.0
1432,357.75,46.467,48.0939,130.121,98.9864,93.0352,0.000521717,0.0466111,21.0165,8.10729,0.549422,0.0,0.0
1436,358.75,45.9292,47.9424,130.393,98.9554,93.0372,0.000527763,0.0467006,21.0162,8.08727,0.546456,0.0,0.0
1440,359.75,46.3756,48.6388,130.851,98.9252,92.3388,,0.0467332,,8.07726,0.610516,0.0,0.0
1444,360.75,45.9135,48.2277,127.273,98.903,93.3801,,0.0467157,,8.09728,0.509154,0.0,0.0
1448,361.75,46.1876,48.5,125.585,98.8771,92.204,,0.0466437,,8.09728,0.619158,0.0,0.0
1452,362.75,46.0723,47.7051,128.318,98.8545,94.0822,,,,8.1173,0.438444,0.0,0.0
1456,363.75,46.1517,48.0054,127.446,98.8108,92.9434,,,,8.10729,0.542431,0.0,0.0
1460,364.75,45.9336,48.3336,129.659,98.781,93.5363,,,,8.10729,0.483409,0.0,0.0
1464,365.75,46.3092,48.2485,126.714,98.7524,92.7872,,,,8.12731,0.552093,0.0,0.0
1468,366.75,45.7466,47.2111,127.942,98.7126,92.365,,,,8.12731,0.588942,0.0,0.0
1472,367.75,46.4459,48.3436,125.566,98.6788,92.7103,,,,8.12731,0.552839,0.0,0.0
1476,368.75,46.8703,48.5294,129.181,98.6451,92.8504,,,,8.10729,0.536427,0.0,0.0
1480,369.75,46.4217,47.2347,127.674,98.6169,92.8814,,,,8.08727,0.530935,0.0,0.0
1482,370.25,46.1739,47.4944,132.318,98.5811,92.2434,,,,8.08727,0.588797,0.0,0.0