File: 01_Data/Nylon_Carpet_HighPile/Cone/Nylon_Carpet_High_Pile_Cone_HF50Scan_220318_R3.csv
Names,Time,Stack TC,Smoke TC,Exh Press,Smoke Comp,Smoke Meas,CO Meter,CO2 Meter,O2 Meter,Sample Mass,Ext Coeff,Start Test,Flame Verif
Chan Gain,,500,500,1,1,1,1,1,1,1,1,1.0,1.0
Offset,,0,0,0.13495,0,0,0,0,0,0,0,0.0,0.0
Gain,,1,1,25.011,13.0212,13.19,1,1,1,1.0009,1.01015,1.0,1.0
Units,sec,C,C,Pa,%,%,%,%,%,g,/m,,
Baseline,,42.9743,44.1241,128.306,99.1423,92.99,0.000426226,0.0429174,21.022,-489.437,0.567718,,
4,0.75,41.9744,42.8399,125.653,98.2179,91.9878,0.000504468,0.0526207,21.0108,23.6513,0.580678,0.0,0.0
8,1.75,41.7324,43.0279,129.378,98.1972,92.0333,0.000474639,0.0521288,21.0118,23.6813,0.574434,0.0,0.0
12,2.75,41.7166,43.1815,124.94,98.1774,91.9262,0.000463735,0.0513612,21.0124,23.6513,0.582955,0.0,0.0
16,3.75,41.7157,42.7123,128.583,98.1563,92.9724,0.000463984,0.0505668,21.0128,23.6312,0.480781,0.0,0.0
20,4.75,42.0827,42.5037,126.512,98.132,92.0748,0.000457835,0.0498535,21.0137,23.6413,0.56456,0.0,0.0
24,5.75,41.5881,42.7825,127.107,98.1098,92.9885,0.000435079,0.0492764,21.0146,23.6112,0.475049,0.0,0.0
28,6.75,41.5785,43.1654,126.562,98.0975,91.9391,0.000404753,0.0487928,21.0153,23.5712,0.574502,0.0,0.0
32,7.75,42.2848,43.2141,126.878,98.0732,92.2829,0.000391454,0.0484029,21.0162,23.5712,0.539244,0.0,0.0
36,8.75,41.6448,43.2123,127.23,98.0478,91.9476,0.000402525,0.0479528,21.0172,23.5512,0.569199,0.0,0.0
40,9.75,42.0453,43.1457,125.817,98.0363,91.859,0.00041465,0.0474828,21.0178,23.5312,0.576697,0.0,0.0
44,10.75,41.7095,42.9291,127.118,98.0188,92.1444,0.000424112,0.0469392,21.0178,23.5412,0.547628,0.0,0.0
48,11.75,41.7617,43.0348,127.721,97.9977,92.202,0.000428352,0.0463634,21.0181,23.5312,0.540191,0.0,0.0
52,12.75,42.4811,43.437,128.735,97.9834,92.2374,0.000436333,0.0458974,21.0187,23.5011,0.535494,0.0,0.0
56,13.75,41.6642,43.1782,125.462,97.9576,91.578,0.000459992,0.0453702,21.019,23.5011,0.596726,0.0,0.0
60,14.75,42.344,43.2391,124.741,97.9449,92.4926,0.00050034,0.0449854,21.0192,23.4811,0.507525,0.0,0.0
64,15.75,42.4752,43.1086,129.924,97.9318,91.9665,0.00053697,0.0447225,21.0191,23.4611,0.556883,0.0,0.0
68,16.75,41.5523,43.1987,126.298,97.9357,91.4979,0.000549827,0.0443532,21.019,23.4711,0.602502,0.0,0.0
72,17.75,41.142,43.0817,125.182,97.9024,91.6936,0.000513889,0.0439865,21.0197,23.4511,0.580557,0.0,0.0
76,18.75,41.9707,43.2718,129.392,97.8912,91.6549,0.000454428,0.0436229,21.0202,23.4311,0.583285,0.0,0.0
80,19.75,41.9716,43.2341,129.227,97.8714,91.8819,0.000379041,0.0433262,21.0206,23.4311,0.559565,0.0,0.0
84,20.75,41.4927,43.3622,128.336,97.8658,91.9347,0.000326721,0.0431158,21.0208,23.4211,0.553977,0.0,0.0
88,21.75,42.1443,42.9265,125.652,97.8463,91.8252,0.000311259,0.0429993,21.0209,23.401,0.562774,0.0,0.0
92,22.75,42.2926,43.4924,131.113,97.8288,92.9362,0.000330681,0.0429752,21.021,23.371,0.454626,0.0,0.0
96,23.75,42.0062,43.5926,128.62,97.8265,92.2398,0.000375666,0.0429594,21.0211,23.371,0.521056,0.0,0.0
100,24.75,42.1318,43.8903,129.858,97.809,91.8175,0.000448821,0.0429244,21.0211,23.381,0.560127,0.0,0.0
104,25.75,41.8776,43.525,125.906,97.8038,92.208,0.000519404,0.0429014,21.0211,23.381,0.522059,0.0,0.0
108,26.75,41.774,43.368,128.752,97.7955,92.0836,0.000623003,0.0428864,21.0214,23.361,0.533264,0.0,0.0
112,27.75,42.3086,43.388,127.628,97.7851,91.3442,0.00073616,0.0428193,21.0216,23.331,0.603769,0.0,0.0
116,28.75,41.8621,43.5883,127.156,97.7859,91.132,0.000815214,0.0427987,21.0217,23.331,0.624444,0.0,0.0
120,29.75,42.0027,43.0926,125.482,97.7828,91.6348,0.000883311,0.0427957,21.0218,23.331,0.575406,0.0,0.0
124,30.75,42.4919,43.7331,128.242,97.7684,91.2351,0.000893514,0.0427936,21.0219,23.3009,0.612845,0.0,0.0
128,31.75,42.5205,43.203,128.681,97.7573,91.2874,0.000869737,0.0427926,21.022,23.2509,0.606756,0.0,0.0
132,32.75,42.0537,43.5093,126.769,97.7522,90.7062,0.000846245,0.0427916,21.022,23.2309,0.662888,0.0,0.0
136,33.75,42.1633,43.2367,125.819,97.7426,90.6659,0.000844729,0.0428156,21.0223,23.2009,0.665956,0.0,0.0
140,34.75,42.1581,43.6091,127.143,97.7287,90.7762,0.000858527,0.0428559,21.0226,23.2209,0.653923,0.0,0.0
144,35.75,41.9235,43.4254,127.393,97.7259,89.8093,0.000878971,0.0428753,21.0228,23.2109,0.748556,0.0,0.0
148,36.75,42.5773,43.6312,127.6875,97.7251,89.3058,0.00089314,0.0428705,21.0225,23.1808,0.798307,0.0,0.0
152,37.75,42.4229,43.6298,130.747,97.7172,87.9589,0.000905939,0.0428919,21.0217,23.1708,0.932239,0.0,0.0
156,38.75,43.0318,43.959,129.402,97.7164,88.7925,0.000931702,0.043002,21.0212,23.1708,0.848583,0.0,0.0
160,39.75,42.4528,43.6123,126.645,97.7061,87.6981,0.000964253,0.0431388,21.0208,23.1608,0.957546,0.0,0.0
164,40.75,42.1918,43.454,124.961,97.7017,88.1364,0.0010117,0.0432195,21.0206,23.1108,0.912969,0.0,0.0
168,41.75,42.6584,43.8905,125.83,97.7085,89.336,0.00106377,0.0433643,21.0204,23.1608,0.793799,0.0,0.0
172,42.75,42.556,43.4746,128.235,97.6894,89.0123,0.00111212,0.0435261,21.0203,23.0807,0.824227,0.0,0.0
176,43.75,42.2176,44.0815,126.64,97.6767,88.318,0.00116406,0.0436868,21.0198,23.0507,0.892466,0.0,0.0
180,44.75,42.4651,43.8772,127.98,97.6798,87.742,0.00122024,0.0438447,21.0191,23.0307,0.950735,0.0,0.0
184,45.75,42.4225,44.4436,129.449,97.6707,87.564,0.0012739,0.0439482,21.0185,23.0307,0.967892,0.0,0.0
188,46.75,43.0732,43.9871,130.454,97.6655,87.2927,0.00130939,0.0440161,21.0177,23.0307,0.994919,0.0,0.0
192,47.75,42.6764,43.9248,129.264,97.6635,87.0814,0.00136655,0.0442084,21.0172,22.9907,1.01622,0.0,0.0
196,48.75,42.6832,44.2479,123.032,97.6544,88.0918,0.00141799,0.0445328,21.0169,22.9606,0.913173,0.0,0.0
200,49.75,43.0711,44.3236,123.551,97.6512,88.3373,0.0014433,0.0449046,21.0167,22.9606,0.88822,0.0,0.0
204,50.75,43.1895,44.3245,128.346,97.6528,88.6146,0.00142699,0.045359,21.0166,22.9506,0.860588,0.0,0.0
208,51.75,43.112,43.9858,127.58,97.6457,89.435,0.00138046,0.0455927,21.0165,22.9606,0.778286,0.0,0.0
212,52.75,42.4761,44.3619,128.832,97.6377,88.6042,0.00131284,0.0454886,21.0169,22.9406,0.860265,0.0,0.0
216,53.75,42.8978,44.2723,126.551,97.6393,90.0219,0.00123612,0.0451042,21.0178,22.9406,0.719753,0.0,0.0
220,54.75,42.8772,44.0987,128.036,97.6321,89.8379,0.00114899,0.0446559,21.0191,22.9506,0.737229,0.0,0.0
224,55.75,42.9985,44.364,127.147,97.6294,89.5268,0.00111215,0.0443094,21.0196,22.9306,0.76772,0.0,0.0
228,56.75,42.9173,44.5219,127.531,97.6238,89.4004,0.00108503,0.0441067,21.0207,22.9106,0.779733,0.0,0.0
232,57.75,43.0655,44.3611,126.388,97.619,89.156,0.00105867,0.0438253,21.022,22.9106,0.803551,0.0,0.0
236,58.75,43.2225,44.4793,125.131,97.6107,89.2176,0.00103369,0.0436998,21.0225,22.9006,0.796674,0.0,0.0
240,59.75,43.1051,44.521,126.082,97.6063,89.0989,0.00103896,0.0435099,21.0214,22.9106,0.808079,0.0,0.0
244,60.75,42.8108,44.6813,126.151,97.6171,88.8723,0.00110622,0.0446657,21.0184,22.8906,0.83162,0.0,0.0
248,61.75,42.9905,44.4644,130.084,97.6123,89.0852,0.00125537,0.0513815,21.0036,22.8505,0.809981,0.0,1.0
252,62.75,43.28,44.2769,117.586,97.5972,90.4779,0.00149499,0.0738778,20.9724,22.7505,0.671153,0.0,1.0
256,63.75,43.2796,44.8896,119.21,97.5984,90.4449,0.00178537,0.107817,20.9216,22.7905,0.674493,0.0,1.0
260,64.75,44.0062,45.0648,117.925,97.592,89.3907,0.00208263,0.150171,20.8463,22.6704,0.777805,0.0,1.0
264,65.75,44.1757,45.4193,110.938,97.5821,89.6326,0.00237771,0.202373,20.7678,22.5703,0.752955,0.0,1.0
268,66.75,45.0161,46.1996,112.867,97.5869,89.7276,0.00260736,0.258621,20.6915,22.5002,0.744002,0.0,0.0
272,67.75,45.2227,46.9706,106.987,97.5825,89.1729,0.00300472,0.311595,20.6193,22.4202,0.798552,0.0,0.0
276,68.75,46.3898,47.8371,115.033,97.5745,88.9777,0.00346836,0.366891,20.5395,22.26,0.817251,0.0,0.0
280,69.75,47.4721,49.3148,108.788,97.5753,88.6762,0.00383026,0.405261,20.4828,22.1899,0.847398,0.0,0.0
284,70.75,48.4276,49.8846,108.146,97.5757,87.6582,0.00422713,0.461104,20.4091,22.0899,0.949744,0.0,0.0
288,71.75,49.7704,51.3443,108.352,97.5753,87.6973,0.00453784,0.497482,20.3398,21.9397,0.945763,0.0,0.0
292,72.75,50.6662,52.5492,104.466,97.5865,88.1634,0.0048063,0.523092,20.2836,21.8396,0.8998,0.0,0.0
296,73.75,51.9335,53.7045,109.767,97.5682,87.1925,0.00505388,0.549623,20.2385,21.7395,0.996263,0.0,0.0
300,74.75,52.8833,55.0631,108.54,97.5793,86.6491,0.00524966,0.571425,20.2016,21.6294,1.05267,0.0,0.0
304,75.75,53.5311,55.8368,105.711,97.5884,83.9397,0.00547305,0.593775,20.1638,21.5394,1.33499,0.0,0.0
308,76.75,54.601,57.1485,102.199,97.5722,83.9502,0.00568073,0.615199,20.1332,21.4293,1.33241,0.0,0.0
312,77.75,56.4245,59.433,110.202,97.5797,83.0859,0.0058615,0.629964,20.1117,21.3292,1.42479,0.0,0.0
316,78.75,56.2472,59.9767,108.797,97.571,85.2169,0.00602959,0.63861,20.0976,21.2591,1.19959,0.0,0.0
320,79.75,58.0266,60.8993,107.739,97.5714,85.2374,0.00614996,0.641466,20.0886,21.139,1.1975,0.0,0.0
324,80.75,58.4637,61.6798,109.528,97.5678,84.7955,0.00632424,0.640916,20.0878,21.0489,1.24324,0.0,0.0
328,81.75,60.0019,62.5213,110.486,97.5773,84.0641,0.00648856,0.638238,20.0887,20.9488,1.32086,0.0,0.0
332,82.75,60.4378,63.8895,102.607,97.5741,83.3419,0.00664115,0.638408,20.0893,20.8087,1.39702,0.0,0.0
336,83.75,60.9521,64.7821,109.015,97.5769,83.8757,0.00679633,0.643372,20.0839,20.7086,1.34071,0.0,0.0
340,84.75,62.2534,65.9557,108.732,97.5936,84.1357,0.00697253,0.650011,20.0744,20.5885,1.31479,0.0,0.0
344,85.75,62.7561,66.6045,109.948,97.5872,82.5888,0.00719128,0.656459,20.0657,20.4984,1.47865,0.0,0.0
348,86.75,63.6967,67.5134,103.873,97.5904,82.6266,0.00741352,0.661539,20.0576,20.3383,1.47488,0.0,0.0
352,87.75,64.4375,68.3314,100.794,97.5888,82.7776,0.00764421,0.667128,20.0467,20.2982,1.45856,0.0,0.0
356,88.75,65.2062,69.2915,106.152,97.588,82.2173,0.00789291,0.674821,20.0345,20.1781,1.51867,0.0,0.0
360,89.75,65.8944,70.0893,108.351,97.5888,82.1432,0.00821666,0.685035,20.0199,20.038,1.52673,0.0,0.0
364,90.75,66.838,71.4267,101.411,97.5944,81.0463,0.00852682,0.696126,20.0059,19.8579,1.64636,0.0,0.0
368,91.75,67.623,72.2904,99.8447,97.5976,78.2769,0.00883455,0.706989,19.9888,19.7678,1.95472,0.0,0.0
372,92.75,68.8514,73.2499,102.899,97.6051,80.3958,0.00912641,0.717703,19.9725,19.6176,1.71874,0.0,0.0
376,93.75,69.0928,73.7258,101.067,97.6159,79.5542,0.00941098,0.726397,19.961,19.5676,1.81297,0.0,0.0
380,94.75,70.0009,75.028,104.542,97.5996,79.97,0.00970874,0.730019,19.9518,19.4575,1.76529,0.0,0.0
384,95.75,70.9806,75.8917,105.206,97.6159,79.0631,0.0099858,0.731112,19.9439,19.2973,1.86784,0.0,0.0
388,96.75,71.6252,76.6637,104.827,97.6131,78.7938,0.0103469,0.733793,19.9371,19.1772,1.89781,0.0,0.0
392,97.75,72.4723,77.527,108.659,97.6115,77.4844,0.0107215,0.738853,19.9286,19.0772,2.04616,0.0,0.0
396,98.75,72.7897,78.0659,103.392,97.6186,75.9862,0.0110662,0.744689,19.9199,18.957,2.21982,0.0,0.0
400,99.75,73.8626,79.2241,98.0366,97.6182,74.9336,0.0114718,0.749754,19.912,18.8469,2.34339,0.0,0.0
404,100.75,74.7033,80.3026,105.817,97.6262,76.4603,0.011878,0.753262,19.9059,18.7268,2.16538,0.0,0.0
408,101.75,74.8511,81.0593,104.72,97.6552,74.9235,0.0122699,0.756206,19.9017,18.6267,2.34793,0.0,0.0
412,102.75,75.2056,81.2644,97.848,97.6341,74.3845,0.0125607,0.759902,19.895,18.5066,2.41,0.0,0.0
416,103.75,76.4618,82.4567,100.642,97.6449,72.1384,0.0129344,0.763245,19.8908,18.3665,2.68266,0.0,0.0
420,104.75,76.7857,82.7618,101.76,97.6524,71.3362,0.013236,0.765411,19.8881,18.2564,2.78243,0.0,0.0
424,105.75,77.6508,83.8081,100.349,97.658,71.2875,0.013445,0.765664,19.8864,18.0963,2.78899,0.0,0.0
428,106.75,78.2723,84.9338,103.515,97.6552,72.0209,0.0135796,0.76396,19.8888,18.0262,2.69804,0.0,0.0
432,107.75,78.6705,85.4881,103.167,97.6707,69.9008,0.013683,0.759383,19.8949,17.9261,2.96421,0.0,0.0
436,108.75,78.6928,85.4458,108.706,97.6711,70.7775,0.0137962,0.752495,19.904,17.826,2.8538,0.0,0.0
440,109.75,79.4682,86.278,105.22,97.6838,70.7018,0.0138814,0.74567,19.9128,17.7159,2.86443,0.0,0.0
444,110.75,79.9048,86.9708,104.947,97.6842,69.6234,0.0140102,0.737023,19.9243,17.5758,3.00066,0.0,0.0
448,111.75,80.4919,87.5955,108.94,97.6989,68.8792,0.0141004,0.726543,19.9357,17.4457,3.09723,0.0,0.0
452,112.75,80.1295,87.3472,104.463,97.71,69.8464,0.0141257,0.717595,19.9478,17.3656,2.97467,0.0,0.0
456,113.75,81.0899,88.0872,102.701,97.7275,71.0069,0.0140699,0.71023,19.959,17.2455,2.83024,0.0,0.0
460,114.75,81.0829,88.5313,105.819,97.7323,72.2721,0.01392,0.703549,19.9717,17.1354,2.67419,0.0,0.0
464,115.75,81.7812,88.8384,108.071,97.7402,71.0528,0.0137206,0.695588,19.9856,17.0553,2.82567,0.0,0.0
468,116.75,81.9053,89.1979,106.817,97.749,71.3575,0.0134976,0.687216,19.9968,16.9552,2.78854,0.0,0.0
472,117.75,82.2151,89.8714,106.665,97.7549,71.1305,0.0132668,0.678477,20.0098,16.8552,2.81732,0.0,0.0
476,118.75,82.5142,90.0564,106.256,97.7768,71.3656,0.0130886,0.67016,20.024,16.7551,2.79006,0.0,0.0
480,119.75,82.1644,90.0794,110.631,97.7843,70.5408,0.0129551,0.661346,20.037,16.675,2.89375,0.0,0.0
484,120.75,82.5654,90.3592,106.224,97.7935,71.4811,0.0128184,0.651829,20.0511,16.5649,2.77724,0.0,0.0
488,121.75,82.5009,90.3299,104.693,97.8145,72.894,0.0126563,0.644081,20.0634,16.4648,2.60572,0.0,0.0
492,122.75,82.6695,90.8047,110.513,97.8344,75.1119,0.0124801,0.638126,20.073,16.3647,2.34193,0.0,0.0
496,123.75,83.6265,91.1975,105.609,97.8471,72.0064,0.0123111,0.633397,20.0794,16.2846,2.71722,0.0,0.0
500,124.75,83.9867,91.3967,104.571,97.861,75.675,0.0120985,0.628467,20.0875,16.1545,2.27816,0.0,0.0
504,125.75,83.4222,91.7754,111.672,97.8761,74.1627,0.011916,0.621971,20.0973,16.0544,2.45839,0.0,0.0
508,126.75,83.1123,91.6311,107.182,97.8904,72.4077,0.0117432,0.613844,20.109,15.9543,2.6719,0.0,0.0
512,127.75,83.8815,91.3197,105.985,97.9012,72.6798,0.0115844,0.605921,20.1212,15.9043,2.63963,0.0,0.0
516,128.75,83.7148,91.8907,112.33,97.9179,72.9511,0.0114335,0.599276,20.1335,15.7742,2.60813,0.0,0.0
520,129.75,83.8538,92.233,107.714,97.9338,75.8091,0.0112857,0.593086,20.1437,15.6741,2.26906,0.0,0.0
524,130.75,83.6375,91.7132,107.136,97.9576,73.7437,0.0111656,0.588236,20.1521,15.604,2.51597,0.0,0.0
528,131.75,83.5516,91.891,108.648,97.9735,73.9115,0.0110556,0.584232,20.16,15.5039,2.49726,0.0,0.0
532,132.75,84.5202,92.6391,107.614,97.9862,76.3484,0.0109371,0.58017,20.1671,15.4139,2.21098,0.0,0.0
536,133.75,84.065,92.1873,113.175,97.9973,76.823,0.0108131,0.576779,20.1729,15.3138,2.15707,0.0,0.0
540,134.75,84.3948,92.7033,106.414,98.0212,76.4772,0.0106669,0.573401,20.1801,15.2437,2.1992,0.0,0.0
544,135.75,84.5663,92.5741,111.967,98.0319,76.3255,0.0105017,0.569522,20.19,15.1536,2.21777,0.0,0.0
548,136.75,84.4491,92.6753,104.746,98.0577,77.3044,0.0103263,0.564003,20.2015,15.0736,2.10718,0.0,0.0
552,137.75,84.9575,92.898,112.97,98.08,76.2458,0.0101564,0.557418,20.211,15.0135,2.23137,0.0,0.0
556,138.75,84.5814,93.2731,108.417,98.0939,75.7483,0.00997007,0.551914,20.2186,14.9434,2.29064,0.0,0.0
560,139.75,84.5422,92.8752,106.542,98.1229,76.0284,0.00980525,0.547354,20.2267,14.8734,2.26055,0.0,0.0
564,140.75,84.634,93.0684,108.684,98.136,76.1593,0.00967733,0.5412,20.2361,14.7633,2.2465,0.0,0.0
568,141.75,84.2505,93.0682,110.4,98.1448,76.1959,0.00958034,0.535573,20.244,14.6832,2.24303,0.0,0.0
572,142.75,84.5205,93.2813,108.987,98.165,76.7071,0.00951671,0.530988,20.2508,14.5931,2.18561,0.0,0.0
576,143.75,84.3383,92.8542,112.397,98.1885,78.2222,0.00948416,0.527018,20.2565,14.493,2.01441,0.0,0.0
580,144.75,84.3956,93.0412,107.455,98.2111,78.1783,0.00943924,0.523558,20.2615,14.423,2.02142,0.0,0.0
584,145.75,84.2119,92.9262,114.798,98.2385,77.2751,0.00936355,0.520202,20.2668,14.3529,2.12687,0.0,0.0
588,146.75,84.6005,92.6799,112.037,98.2481,78.4987,0.00924704,0.516328,20.274,14.2728,1.98851,0.0,0.0
592,147.75,84.8099,92.8664,110.936,98.268,77.8889,0.00909219,0.511538,20.2809,14.1928,2.05941,0.0,0.0
596,148.75,84.9637,92.869,113.781,98.2906,77.455,0.00894823,0.504855,20.291,14.1127,2.11096,0.0,0.0
600,149.75,84.4441,93.0398,115.022,98.2958,77.843,0.00878866,0.499047,20.2997,14.0326,2.06714,0.0,0.0
604,150.75,84.44,93.1181,111.89,98.3212,77.9175,0.00867585,0.494882,20.3061,13.9525,2.06096,0.0,0.0
608,151.75,83.978,93.2716,114.429,98.345,76.2563,0.00861252,0.492096,20.3104,13.9125,2.25407,0.0,0.0
612,152.75,84.6206,92.3985,110.446,98.3526,77.6913,0.00859706,0.489976,20.3142,13.8224,2.08955,0.0,0.0
616,153.75,84.4117,92.8527,112.026,98.3713,76.5469,0.00857088,0.488382,20.3192,13.7424,2.22273,0.0,0.0
620,154.75,84.1845,93.1224,116.129,98.3812,78.9222,0.00851933,0.484798,20.3251,13.6323,1.95284,0.0,0.0
624,155.75,84.6851,92.5219,108.609,98.3983,77.3841,0.00843972,0.48098,20.3297,13.5522,2.12877,0.0,0.0
628,156.75,84.3225,92.5779,108.022,98.4122,76.1556,0.00835088,0.478256,20.3332,13.5021,2.27182,0.0,0.0
632,157.75,83.9223,92.7374,110.454,98.4285,78.6646,0.00828115,0.476287,20.3361,13.4321,1.98607,0.0,0.0
636,158.75,84.517,92.6051,113.455,98.44,77.0388,0.00824172,0.474156,20.3392,13.352,2.17216,0.0,0.0
640,159.75,83.8612,92.4848,109.621,98.4627,77.9046,0.00823488,0.471703,20.3433,13.2719,2.07517,0.0,0.0
644,160.75,83.8651,92.9729,110.952,98.4682,78.1224,0.00824544,0.469103,20.3474,13.2219,2.05093,0.0,0.0
648,161.75,84.4334,92.4785,109.969,98.4869,78.4396,0.00824742,0.466786,20.3524,13.1518,2.01671,0.0,0.0
652,162.75,83.8888,92.3726,112.211,98.504,77.7633,0.00822252,0.462355,20.3588,13.0617,2.09497,0.0,0.0
656,163.75,83.9018,92.2061,112.034,98.5163,79.0409,0.00818995,0.457213,20.3658,13.0017,1.95168,0.0,0.0
660,164.75,83.7531,92.1321,113.057,98.5167,77.2984,0.00817087,0.453494,20.3704,12.9316,2.14925,0.0,0.0
664,165.75,83.8022,92.1711,112.266,98.5429,78.8413,0.00819802,0.451384,20.3738,12.8616,1.97648,0.0,0.0
668,166.75,83.457,91.8917,112.531,98.5644,77.1289,0.00823409,0.449958,20.3764,12.7815,2.17299,0.0,0.0
672,167.75,83.4886,91.7523,110.973,98.5513,77.296,0.0082462,0.448695,20.3786,12.7014,2.15264,0.0,0.0
676,168.75,83.551,92.0913,110.001,98.5668,78.7938,0.00820695,0.447377,20.3821,12.6414,1.98397,0.0,0.0
680,169.75,83.554,91.5134,111.295,98.5763,78.351,0.00811797,0.44501,20.3866,12.5713,2.03476,0.0,0.0
684,170.75,83.1198,91.6245,114.159,98.5863,79.1794,0.00802993,0.442052,20.3909,12.4612,1.94246,0.0,0.0
688,171.75,83.6023,91.6381,112.101,98.6133,79.1235,0.00788771,0.439177,20.3952,12.4112,1.95115,0.0,0.0
692,172.75,83.5079,91.4552,113.854,98.6145,77.399,0.00778379,0.436638,20.3991,12.3411,2.14651,0.0,0.0
696,173.75,83.3655,91.2919,113.292,98.62,79.9285,0.00768972,0.434359,20.4023,12.261,1.86206,0.0,0.0
700,174.75,83.119,90.9425,110.227,98.624,77.6232,0.00761557,0.431368,20.4068,12.201,2.12173,0.0,0.0
704,175.75,82.9391,91.1132,111.211,98.6423,77.5592,0.00755685,0.428015,20.4113,12.1509,2.13069,0.0,0.0
708,176.75,82.9339,90.8417,112.56,98.6498,76.8858,0.00751678,0.425815,20.4143,12.0809,2.20864,0.0,0.0
712,177.75,82.4178,90.7133,110.383,98.6566,77.4449,0.00750521,0.424799,20.4162,12.0008,2.14504,0.0,0.0
716,178.75,82.7503,90.7607,112.289,98.6693,79.7297,0.00751379,0.425041,20.4159,11.9207,1.88855,0.0,0.0
720,179.75,82.6189,90.6599,113.434,98.6832,77.4626,0.00753919,0.426085,20.4157,11.8507,2.14541,0.0,0.0
724,180.75,82.8341,90.6814,110.147,98.6939,77.9505,0.00755937,0.426963,20.4156,11.8206,2.09074,0.0,0.0
728,181.75,82.5631,90.5937,113.372,98.6939,79.5518,0.00755775,0.426251,20.4177,11.7506,1.91056,0.0,0.0
732,182.75,82.2826,90.4802,110.825,98.7063,79.8895,0.00753148,0.424332,20.4211,11.6505,1.87413,0.0,0.0
736,183.75,82.376,90.187,110.312,98.7126,76.3967,0.007489,0.421828,20.4239,11.6104,2.27082,0.0,0.0
740,184.75,81.8453,90.1096,107.387,98.7225,79.6689,0.00743378,0.419815,20.4263,11.5204,1.90009,0.0,0.0
744,185.75,82.12,90.1159,112.943,98.7285,78.8912,0.00737817,0.417512,20.4294,11.4703,1.98755,0.0,0.0
748,186.75,81.7845,90.0957,112.378,98.7392,77.3052,0.00733809,0.415298,20.4324,11.4103,2.16846,0.0,0.0
752,187.75,82.0959,90.1681,111.511,98.7416,78.7242,0.0073209,0.413047,20.435,11.3702,2.00751,0.0,0.0
756,188.75,81.9038,89.7771,111.351,98.7524,77.2891,0.00735189,0.411006,20.4377,11.3002,2.17148,0.0,0.0
760,189.75,81.9708,89.7884,111.199,98.7599,78.7527,0.00740296,0.409493,20.4401,11.2301,2.00593,0.0,0.0
764,190.75,81.5974,89.4554,113.994,98.7675,80.5025,0.00743471,0.409633,20.4417,11.1901,1.81188,0.0,0.0
768,191.75,81.2401,89.3047,116.663,98.773,80.8221,0.00743178,0.409663,20.4435,11.08,1.77727,0.0,0.0
772,192.75,81.6959,89.5585,116.399,98.7794,81.1301,0.00741559,0.408032,20.4463,11.0199,1.74415,0.0,0.0
776,193.75,81.4702,89.128,114.842,98.7949,78.5012,0.00734789,0.40617,20.4482,10.9899,2.03742,0.0,0.0
780,194.75,81.312,89.1297,113.233,98.7897,80.0831,0.00727568,0.405222,20.4494,10.9398,1.86017,0.0,0.0
784,195.75,81.0796,88.866,113.955,98.7877,78.3426,0.00713542,0.404505,20.4517,10.9298,2.0547,0.0,0.0
788,196.75,81.0372,88.8295,112.886,98.7953,75.6484,0.00698215,0.404008,20.4533,10.8798,2.36546,0.0,0.0
792,197.75,81.1664,88.7545,114.739,98.8147,76.5131,0.00680492,0.401411,20.4568,10.7697,2.2665,0.0,0.0
796,198.75,80.7674,88.5754,114.67,98.8239,78.8091,0.00667235,0.39746,20.4646,10.7296,2.00533,0.0,0.0
800,199.75,80.971,88.6279,118.125,98.8112,77.5749,0.00659662,0.393028,20.4698,10.4594,2.14405,0.0,0.0
804,200.75,80.9546,88.3676,115.562,98.8211,80.5118,0.00660954,0.390119,20.4731,10.6195,1.81568,0.0,0.0
808,201.75,81.0497,88.3305,116.065,98.8179,78.5136,0.00669394,0.388946,20.4747,10.5094,2.03808,0.0,0.0
812,202.75,80.3405,88.0242,115.327,98.8314,78.572,0.00680643,0.388866,20.4751,10.4394,2.03271,0.0,0.0
816,203.75,79.9793,87.8642,112.506,98.8155,79.6298,0.00690576,0.38919,20.475,10.3593,1.91278,0.0,0.0
820,204.75,80.6226,88.082,110.911,98.8243,77.6474,0.00695869,0.389543,20.4748,10.2892,2.13695,0.0,0.0
824,205.75,80.1077,87.6016,112.831,98.8211,78.0721,0.00695515,0.389348,20.4752,10.2292,2.08834,0.0,0.0
828,206.75,80.0015,87.7361,114.104,98.8239,80.2638,0.00690157,0.388492,20.4772,10.1892,1.84326,0.0,0.0
832,207.75,80.1063,87.343,113.605,98.8231,79.3251,0.00680842,0.386304,20.4809,10.0991,1.94743,0.0,0.0
836,208.75,79.9111,87.4105,108.925,98.8155,78.1574,0.00670418,0.384506,20.4834,10.039,2.07816,0.0,0.0
840,209.75,79.7997,87.3489,115.988,98.8096,79.3098,0.00661084,0.38309,20.485,9.98898,1.94792,0.0,0.0
844,210.75,79.692,87.4115,113.429,98.8088,80.1942,0.00652692,0.381518,20.4884,9.93894,1.8496,0.0,0.0
848,211.75,80.0611,87.0641,113.312,98.8155,81.9355,0.00643785,0.379142,20.4931,9.88889,1.65985,0.0,0.0
852,212.75,79.8686,86.8978,115.583,98.802,78.7902,0.00632958,0.376381,20.4968,9.82884,2.0055,0.0,0.0
856,213.75,79.3273,86.8144,114.612,98.8092,78.9447,0.00622286,0.373724,20.5003,9.74876,1.98877,0.0,0.0
860,214.75,79.5825,86.9066,115.565,98.7996,79.9414,0.00614818,0.370818,20.504,9.65868,1.87675,0.0,0.0
864,215.75,79.3868,86.4711,116.901,98.7957,81.5781,0.00612443,0.368105,20.5081,9.60864,1.69681,0.0,0.0
868,216.75,78.74,86.2596,108.933,98.7909,78.8626,0.00612608,0.365947,20.511,9.54858,1.99636,0.0,0.0
872,217.75,79.1726,86.1054,115.902,98.7873,79.8174,0.0061575,0.365216,20.5127,9.51856,1.8894,0.0,0.0
876,218.75,79.1822,85.9681,112.561,98.7822,81.0491,0.00618807,0.364974,20.5137,9.44849,1.75324,0.0,0.0
880,219.75,78.7715,85.4878,113.853,98.7782,80.1966,0.00620325,0.364548,20.5148,9.38844,1.84658,0.0,0.0
884,220.75,79.3675,85.9362,116.543,98.775,79.3191,0.00619926,0.363213,20.5159,9.3484,1.94379,0.0,0.0
888,221.75,78.7094,85.8589,114.341,98.7583,81.5483,0.00615624,0.360699,20.5198,9.31838,1.6967,0.0,0.0
892,222.75,78.7566,85.5831,115.53,98.7532,80.4264,0.00610261,0.357461,20.5255,9.24831,1.81898,0.0,0.0
896,223.75,78.1483,85.8272,115.046,98.7444,79.5216,0.0060708,0.352989,20.5325,9.18826,1.91845,0.0,0.0
900,224.75,78.141,85.4587,115.937,98.7464,80.4401,0.00606598,0.34872,20.5396,9.1182,1.81686,0.0,0.0
904,225.75,78.6295,85.2576,114.955,98.7349,81.097,0.00607201,0.344503,20.5463,9.06815,1.74376,0.0,0.0
908,226.75,78.2327,85.3464,113.403,98.7202,80.9614,0.00606264,0.34088,20.5502,9.05814,1.75728,0.0,0.0
912,227.75,78.1032,85.2094,117.491,98.7075,80.8241,0.00604344,0.337926,20.554,8.98808,1.77117,0.0,0.0
916,228.75,77.4626,84.5461,111.447,98.7134,81.5443,0.0059999,0.334494,20.5598,8.91802,1.6931,0.0,0.0
920,229.75,77.7324,84.4403,116.162,98.6963,80.6023,0.00595127,0.33183,20.5675,8.86797,1.79452,0.0,0.0
924,230.75,77.8742,84.3665,117.781,98.6757,80.8978,0.0058912,0.327636,20.5734,8.83794,1.76024,0.0,0.0
928,231.75,77.5942,84.296,114.269,98.6737,81.1425,0.00581234,0.323797,20.5805,8.7879,1.7333,0.0,0.0
932,232.75,77.3693,83.999,119.047,98.6467,81.0053,0.00570858,0.320331,20.5867,8.73785,1.74587,0.0,0.0
936,233.75,76.8454,83.8944,116.615,98.6407,82.1702,0.00559568,0.317339,20.5916,8.68781,1.61882,0.0,0.0
940,234.75,77.0798,84.248,115.637,98.6176,82.7426,0.00547184,0.314629,20.5957,8.65778,1.55524,0.0,0.0
944,235.75,76.6264,83.8499,116.546,98.6017,81.2552,0.00536593,0.311688,20.6001,8.61775,1.71454,0.0,0.0
948,236.75,76.6867,83.2747,114.781,98.5946,82.324,0.00527943,0.308945,20.6052,8.55769,1.59811,0.0,0.0
952,237.75,76.2541,83.4332,112.072,98.5783,82.6186,0.00519892,0.306499,20.6088,8.50765,1.56499,0.0,0.0
956,238.75,76.3038,83.0882,118.171,98.5644,83.3826,0.0051323,0.305438,20.6112,8.4576,1.48218,0.0,0.0
960,239.75,75.7676,82.7425,115.037,98.5545,82.3876,0.0050822,0.305226,20.6128,8.40756,1.58766,0.0,0.0
964,240.75,76.3422,82.7744,116.467,98.5306,83.2385,0.00504062,0.304836,20.6144,8.35751,1.49447,0.0,0.0
968,241.75,76.0631,82.5699,120.697,98.5163,82.1171,0.00500629,0.30381,20.6174,8.33749,1.61337,0.0,0.0
972,242.75,75.4789,82.4549,114.627,98.4972,82.9559,0.00494325,0.302678,20.6202,8.29746,1.5216,0.0,0.0
976,243.75,75.353,82.2512,116.103,98.4925,82.6178,0.0048614,0.300914,20.6238,8.2374,1.55736,0.0,0.0
980,244.75,75.6848,81.7218,116.483,98.4992,83.8745,0.00475376,0.29853,20.6286,8.17735,1.4242,0.0,0.0
984,245.75,75.5522,82.0323,117.528,98.4698,83.2445,0.00460902,0.295575,20.6335,8.12731,1.48835,0.0,0.0
988,246.75,75.5132,81.8905,116.163,98.4476,82.9141,0.00442747,0.29228,20.6383,8.08727,1.5216,0.0,0.0
992,247.75,75.2004,81.2958,118.066,98.4428,83.5339,0.00422153,0.289235,20.643,8.05724,1.45517,0.0,0.0
996,248.75,74.73,81.7436,120.078,98.4257,85.109,0.00406931,0.286464,20.6474,8.0072,1.28811,0.0,0.0
1000,249.75,74.5879,81.1158,120.069,98.4102,84.1434,0.0039247,0.283451,20.6513,7.98718,1.38782,0.0,0.0
1004,250.75,74.6448,81.3385,118.329,98.3939,84.857,0.00383653,0.280839,20.6558,7.93714,1.31152,0.0,0.0
1008,251.75,74.3265,80.5228,114.84,98.38,84.3317,0.00378763,0.27826,20.66,7.8971,1.36529,0.0,0.0
1012,252.75,74.2508,80.9429,117.021,98.3637,84.3998,0.00375107,0.275783,20.6655,7.85706,1.35668,0.0,0.0
1016,253.75,74.1397,80.5999,118.27,98.351,85.5752,0.00371143,0.272923,20.6717,7.81703,1.23298,0.0,0.0
1020,254.75,73.7717,79.8782,115.03,98.345,85.7941,0.00366753,0.270132,20.677,7.77699,1.2098,0.0,0.0
1024,255.75,73.7425,80.3697,117.341,98.3327,85.0917,0.00361526,0.267555,20.6813,7.70693,1.28153,0.0,0.0
1028,256.75,73.7518,79.7454,119.922,98.3268,85.2157,0.00355741,0.265236,20.6847,7.70693,1.2681,0.0,0.0
1032,257.75,73.6236,79.8401,119.047,98.3089,86.542,0.0035022,0.263258,20.6877,7.63687,1.12963,0.0,0.0
1036,258.75,73.188,79.441,120.324,98.3021,85.0297,0.00346097,0.261451,20.6908,7.64687,1.28523,0.0,0.0
1040,259.75,73.2038,79.4554,121.058,98.2807,84.8599,0.00343393,0.259327,20.694,7.62686,1.30102,0.0,0.0
1044,260.75,73.1857,79.1674,115.913,98.2962,84.632,0.00342958,0.257355,20.6966,7.5668,1.32624,0.0,0.0
1048,261.75,73.2401,79.1866,121.157,98.264,84.3716,0.00344237,0.255713,20.699,7.54678,1.35064,0.0,0.0
1052,262.75,73.1554,79.0403,119.826,98.2509,84.4626,0.00345077,0.25411,20.7009,7.48673,1.33991,0.0,0.0
1056,263.75,72.6246,78.9289,113.554,98.2465,85.4021,0.00341829,0.252562,20.7026,7.43669,1.2415,0.0,0.0
1060,264.75,72.8265,78.7627,114.882,98.2397,85.1771,0.00336796,0.251015,20.7036,7.41667,1.26427,0.0,0.0
1064,265.75,72.4265,78.6368,118.221,98.225,85.6327,0.00334663,0.249456,20.706,7.38664,1.21567,0.0,0.0
1068,266.75,71.9782,77.8981,115.194,98.2298,84.7939,0.00336114,0.247722,20.7087,7.36662,1.30333,0.0,0.0
1072,267.75,71.9934,77.9471,118.005,98.2493,86.3283,0.00341996,0.2459,20.7115,7.32659,1.14617,0.0,0.0
1076,268.75,71.429,77.6994,114.142,98.2723,85.3373,0.00346974,0.244601,20.7134,7.28655,1.25056,0.0,0.0
1080,269.75,71.743,77.4547,113.411,98.3216,86.0405,0.0034933,0.243323,20.7145,7.25652,1.18228,0.0,0.0
1084,270.75,71.8797,77.7835,118.517,98.3558,86.9095,0.00348331,0.241818,20.7176,7.21649,1.09631,0.0,0.0
1088,271.75,71.5139,77.3869,119.258,98.3987,86.5952,0.00346364,0.239921,20.7212,7.18646,1.13228,0.0,0.0
1092,272.75,71.2757,77.0871,118.185,98.4444,86.4704,0.00343091,0.237241,20.726,7.14642,1.14918,0.0,0.0
1096,273.75,71.3183,77.3306,116.028,98.4758,85.9278,0.00338033,0.233922,20.7324,7.08637,1.20778,0.0,0.0
1100,274.75,70.9055,76.7726,122.316,98.5211,86.9961,0.00330373,0.230363,20.7389,7.08637,1.10237,0.0,0.0
1104,275.75,71.1819,76.5739,121.115,98.5588,87.0122,0.00321709,0.226722,20.7445,7.05634,1.10412,0.0,0.0
1108,276.75,70.461,76.1889,120.42,98.6093,86.8954,0.00310755,0.2234,20.7494,7.01631,1.12056,0.0,0.0
1112,277.75,70.8556,76.1465,118.938,98.6578,87.4566,0.00299559,0.220466,20.7538,6.97627,1.06788,0.0,0.0
1116,278.75,70.546,75.856,118.414,98.6912,87.9074,0.00288884,0.217526,20.7578,6.92623,1.02531,0.0,0.0
1120,279.75,70.277,75.7616,120.31,98.711,88.7225,0.00280819,0.214266,20.764,6.93624,0.945313,0.0,0.0
1124,280.75,70.0763,75.7091,121.512,98.744,89.4346,0.0027537,0.210276,20.7712,6.93624,0.87744,0.0,0.0
1128,281.75,69.8893,75.3021,117.792,98.7849,89.2269,0.00271277,0.205737,20.7791,6.90621,0.901716,0.0,0.0
1132,282.75,69.6543,75.1009,121.213,98.8139,89.9426,0.0026733,0.200789,20.7869,6.87618,0.833526,0.0,0.0
1136,283.75,69.428,74.4714,120.834,98.8318,89.3404,0.00261791,0.195803,20.7936,6.85616,0.894655,0.0,0.0
1140,284.75,69.0398,74.62,122.048,98.8457,89.3762,0.00254172,0.190928,20.8014,6.85616,0.89235,0.0,0.0
1144,285.75,69.1258,74.3349,121.955,98.8855,90.0166,0.00246653,0.185801,20.8094,6.81613,0.832645,0.0,0.0
1148,286.75,69.0081,74.3464,121.427,98.9042,90.0211,0.00240725,0.180206,20.8172,6.80612,0.833882,0.0,0.0
1152,287.75,68.8523,73.8872,121.759,98.9248,90.5355,0.00234561,0.172887,20.8261,6.76608,0.785242,0.0,0.0
1156,288.75,68.2174,73.084,120.894,98.9499,90.8346,0.00227456,0.165621,20.8372,6.74606,0.75826,0.0,0.0
1160,289.75,68.724,73.6343,119.771,98.9661,91.4082,0.00220052,0.159931,20.8478,6.73606,0.703939,0.0,0.0
1164,290.75,67.9937,73.0906,123.386,98.9797,90.8728,0.0021299,0.153946,20.8576,6.70603,0.757199,0.0,0.0
1168,291.75,67.8516,72.7828,122.081,99.0055,91.4883,0.00207227,0.147372,20.8688,6.68601,0.6997,0.0,0.0
1172,292.75,67.4429,72.4067,124.758,99.0194,91.6606,0.00203761,0.14096,20.8794,6.68601,0.684275,0.0,0.0
1176,293.75,67.1635,71.9999,123.902,99.0254,91.4331,0.00202152,0.135023,20.8895,6.68601,0.706821,0.0,0.0
1180,294.75,66.7893,71.6479,124,99.0508,91.7415,0.00200653,0.129427,20.8994,6.70603,0.679265,0.0,0.0
1184,295.75,66.6985,71.1641,124.771,99.0643,92.0257,0.00197452,0.12387,20.9086,6.69602,0.653067,0.0,0.0
1188,296.75,66.1247,71.3739,129.351,99.0703,91.7394,0.00192249,0.118741,20.917,6.68601,0.681202,0.0,0.0
1192,297.75,66.2546,70.5577,126.95,99.0794,92.3952,0.00184553,0.113957,20.9235,6.68601,0.61891,0.0,0.0
1196,298.75,65.8189,70.5272,123.902,99.0905,92.0554,0.00174748,0.109763,20.9289,6.66599,0.652546,0.0,0.0
1200,299.75,65.3505,70.6018,123.784,99.0961,92.5171,0.00165176,0.105682,20.9349,6.65598,0.608712,0.0,0.0
1204,300.75,65.0465,69.443,124.668,99.0985,92.7188,0.00159339,0.102201,20.9401,6.65598,0.589633,0.0,0.0
1208,301.75,64.3703,69.9336,123.51,99.1068,92.7393,0.00158385,0.0989267,20.9457,6.65598,0.588416,0.0,0.0
1212,302.75,64.6683,68.6426,128.8,99.106,92.3948,0.00159751,0.0958206,20.9518,6.62596,0.621328,0.0,0.0
1216,303.75,63.9338,67.9482,124.067,99.1136,92.4817,0.00160427,0.0932323,20.9576,6.63597,0.61367,0.0,0.0
1220,304.75,63.9872,68.2057,125.816,99.1243,92.621,0.00158913,0.0900654,20.9626,6.62596,0.601294,0.0,0.0
1224,305.75,63.3506,68.5219,124.012,99.1016,92.3779,0.00154136,0.0870067,20.9668,6.61595,0.622559,0.0,0.0
1228,306.75,63.6978,67.6686,123.577,99.1088,92.6834,0.00146434,0.0842887,20.9715,6.61595,0.593942,0.0,0.0
1232,307.75,62.2033,67.1037,126.906,99.1024,92.8186,0.00140804,0.08178,20.9765,6.59593,0.580452,0.0,0.0
1236,308.75,62.5848,66.4756,126.284,99.0985,92.4133,0.00139771,0.0786641,20.9805,6.60594,0.618879,0.0,0.0
1240,309.75,62.0686,66.3899,126.904,99.0873,92.5932,0.00139795,0.0755253,20.9844,6.59593,0.600648,0.0,0.0
1244,310.75,61.4361,65.8844,126.093,99.0945,92.4483,0.00145215,0.0727702,20.9877,6.58592,0.615166,0.0,0.0
1248,311.75,60.6735,64.9492,126.969,99.0782,92.5485,0.0015074,0.0704909,20.9902,6.60594,0.604107,0.0,0.0
1252,312.75,61.1809,65.151,124.621,99.0607,93.0022,0.00155364,0.0688294,20.9926,6.57591,0.559216,0.0,0.0
1256,313.75,61.2643,65.1683,126.076,99.05,92.3533,0.00157318,0.0673345,20.995,6.58592,0.620294,0.0,0.0
1260,314.75,60.6289,64.0501,127.347,99.0424,92.3783,0.00156794,0.0660561,20.9974,6.60594,0.617226,0.0,0.0
1264,315.75,60.5046,64.2979,123.287,99.0337,92.2527,0.00153502,0.065022,20.9989,6.59593,0.628498,0.0,0.0
1268,316.75,60.5129,64.3767,129.374,99.0055,92.6669,0.00146884,0.0639897,21.0007,6.5659,0.586278,0.0,0.0
1272,317.75,59.8745,63.9623,126.202,98.9936,92.0796,0.00138937,0.0627756,21.0019,6.5659,0.641547,0.0,0.0
1276,318.75,59.4581,63.4994,126.568,98.9729,92.0969,0.00128677,0.0616662,21.0034,6.55589,0.638031,0.0,0.0
1280,319.75,59.0341,63.8221,125.179,98.9391,93.1789,0.00117297,0.0606608,21.0045,6.57591,0.531512,0.0,0.0
1284,320.75,59.1374,62.9104,125.734,98.9196,92.6117,0.00106875,0.0598067,21.0051,6.58592,0.583867,0.0,0.0
1288,321.75,58.8184,62.7226,125.032,98.8922,92.2523,0.000979746,0.0590564,21.0053,6.55589,0.61587,0.0,0.0
1292,322.75,58.7791,62.6349,124.699,98.8612,91.9371,0.000909409,0.0583712,21.0062,6.5659,0.643418,0.0,0.0
1296,323.75,58.541,61.9475,128.043,98.8378,91.9991,0.000857651,0.057673,21.0077,6.57591,0.635344,0.0,0.0
1300,324.75,58.7068,62.0089,127.568,98.8092,92.402,0.000825254,0.0569421,21.0086,6.5659,0.594055,0.0,0.0
1304,325.75,58.494,61.4686,126.633,98.7742,92.148,0.000800526,0.0561945,21.0092,6.52587,0.615308,0.0,0.0
1308,326.75,57.2646,61.4607,124.019,98.748,92.0896,0.000781631,0.0554374,21.0096,6.53588,0.61857,0.0,0.0
1312,327.75,57.3096,60.8795,121.998,98.715,91.9451,0.000761822,0.0546784,21.0103,6.55589,0.629525,0.0,0.0
1316,328.75,57.4473,60.6451,126.57,98.6729,92.1645,0.000753901,0.0539644,21.0111,6.54588,0.604627,0.0,0.0
1320,329.75,57.4106,60.7026,124.453,98.6506,92.5087,0.000773152,0.0533374,21.0119,6.5659,0.5696,0.0,0.0
1324,330.75,56.935,60.3261,124.618,98.6339,92.1142,0.000812476,0.0528386,21.013,6.54588,0.605967,0.0,0.0
1328,331.75,56.9925,60.3615,127.221,98.6053,91.7974,0.000863088,0.0523632,21.0138,6.54588,0.633922,0.0,0.0
1332,332.75,56.161,59.8592,125.555,98.6204,92.1625,0.000879389,0.0519032,21.0141,6.53588,0.600108,0.0,0.0
1336,333.75,56.3082,59.512,121.757,98.6276,92.113,0.000875239,0.0515052,21.0147,6.5659,0.605513,0.0,0.0
1340,334.75,56.2888,59.5353,122.816,98.6403,92.1565,0.000816004,0.0509107,21.0154,6.54588,0.602474,0.0,0.0
1344,335.75,56.119,59.2437,124.814,98.6486,92.179,0.000753706,0.050593,21.016,6.55589,0.601056,0.0,0.0
1348,336.75,55.6367,58.765,127.467,98.6602,91.7234,0.000727436,0.0501241,21.017,6.55589,0.646001,0.0,0.0
1352,337.75,55.8189,58.7483,128.658,98.6824,92.2028,0.000735421,0.0496528,21.0176,6.54588,0.601807,0.0,0.0
1356,338.75,55.6235,58.2869,126.548,98.6971,92.6673,0.000751507,0.0491374,21.0181,6.51586,0.558598,0.0,0.0
1360,339.75,55.2394,58.0151,124.949,98.6963,92.0156,0.00072901,0.0486939,21.0183,6.49584,0.621062,0.0,0.0
1364,340.75,55.5459,57.9617,126.006,98.719,92.5252,0.00067434,0.0483679,21.0185,6.51586,0.574157,0.0,0.0
1368,341.75,54.9756,58.383,123.773,98.7404,92.2796,0.000619223,0.0480806,21.0186,6.52587,0.599629,0.0,0.0
1372,342.75,54.8351,58.0573,126.707,98.7424,92.8718,0.000584677,0.0478156,21.0187,6.51586,0.543133,0.0,0.0
1376,343.75,55.1117,57.5094,125.38,98.7524,92.7256,0.000586255,0.0475892,21.0188,6.49584,0.557976,0.0,0.0
1380,344.75,54.8596,57.6212,126.189,98.7734,91.9367,0.000611047,0.0472928,21.0188,6.52587,0.635581,0.0,0.0
1384,345.75,54.6133,57.3089,126.736,98.7849,92.016,0.000644621,0.0469506,21.0188,6.52587,0.628976,0.0,0.0
1388,346.75,54.1845,57.1987,127.066,98.812,92.5835,0.000705317,0.0466275,21.0196,6.52587,0.576911,0.0,0.0
1392,347.75,54.4731,56.7803,124.218,98.8036,92.4781,0.000767029,0.0462677,21.0194,6.50585,0.586262,0.0,0.0
1396,348.75,54.1932,56.7952,126.023,98.8283,92.3348,0.000814697,0.0459541,21.02,6.51586,0.602213,0.0,0.0
1400,349.75,53.5715,56.2905,127.771,98.8386,92.4274,0.000836588,0.045708,21.0204,6.51586,0.594259,0.0,0.0
1404,350.75,53.6707,56.1492,124.919,98.8557,92.1388,0.000820111,0.0455005,21.0206,6.50585,0.623504,0.0,0.0
1408,351.75,53.979,56.4104,125.312,98.8922,92.4181,0.000777088,0.0453041,21.0204,6.52587,0.599955,0.0,0.0
1412,352.75,53.4789,56.1894,124.213,98.8938,92.5264,0.000741387,0.0450988,21.0199,6.51586,0.589722,0.0,0.0
1416,353.75,53.3083,56.1265,124.921,98.9193,92.1142,0.000709154,0.0449436,21.0195,6.52587,0.631561,0.0,0.0
1420,354.75,52.995,55.8343,128.942,98.9308,92.1718,0.00071444,0.0447689,21.0193,6.53588,0.627059,0.0,0.0
1424,355.75,53.1915,55.6579,125.552,98.9443,92.53,0.000731302,0.0445962,21.0192,6.52587,0.593895,0.0,0.0
1428,356.75,53.0408,55.5251,124.349,98.9653,92.8846,0.000747124,0.0444478,21.0191,6.49584,0.561886,0.0,0.0
1432,357.75,52.7043,55.3393,128.969,98.9812,93.1475,0.000734316,0.0443258,21.019,6.48583,0.538269,0.0,0.0
1436,358.75,53.0203,55.288,126.86,98.9959,92.7405,0.000690441,0.0442119,21.0189,6.50585,0.578384,0.0,0.0
1440,359.75,52.8492,55.0979,125.487,99.0246,92.619,0.000644902,0.0440602,21.0189,6.51586,0.592566,0.0,0.0
1444,360.75,52.7908,55.1516,127.233,99.0385,92.8665,0.000593014,0.0439432,21.0189,6.51586,0.570159,0.0,0.0
1448,361.75,52.3631,54.9456,123.389,99.0591,92.6568,0.000594189,0.0438172,21.0191,6.51586,0.59204,0.0,0.0
1452,362.75,52.2449,54.5666,122.843,99.085,92.7015,0.000615646,0.0436607,21.0198,6.51586,0.590079,0.0,0.0
1456,363.75,52.2503,54.3921,126.733,99.1112,92.5051,0.000656219,0.0436163,21.0203,6.52587,0.611219,0.0,0.0
1460,364.75,51.9491,54.4967,124.284,99.1136,92.4592,0.000688293,0.0435891,21.0206,6.50585,0.61583,0.0,0.0
1464,365.75,52.1538,54.6378,128.294,99.141,93.2236,0.000702495,0.0435603,21.0208,6.50585,0.545324,0.0,0.0
1468,366.75,52.4196,54.2738,126.485,99.1521,92.5534,0.000705306,0.0435199,21.0209,6.51586,0.610253,0.0,0.0
1472,367.75,51.8768,53.5398,125.793,99.1672,92.6657,0.000701835,0.0434554,21.021,6.51586,0.600856,0.0,0.0
1476,368.75,51.9437,53.555,129.159,99.2006,92.2961,0.000703028,0.0434479,21.0206,6.53588,0.639243,0.0,0.0
1480,369.75,51.7343,53.7647,128.146,99.2141,92.9595,0.000719236,0.0433446,21.02,6.53588,0.576991,0.0,0.0
1484,370.75,51.1704,53.5629,125.182,99.2236,92.462,0.000738684,0.043264,21.0196,6.52587,0.625395,0.0,0.0
1488,371.75,51.5004,53.826,126.328,99.2558,92.79,0.000742629,0.0431748,21.0194,6.50585,0.596885,0.0,0.0
1492,372.75,51.2438,53.5049,123.928,99.2606,93.0014,0.000717571,0.0430386,21.0192,6.50585,0.577153,0.0,0.0
1496,373.75,51.0888,53.3928,128.3,99.2753,92.7985,0.00067961,0.0429478,21.0195,6.51586,0.597815,0.0,0.0
1500,374.75,51.5617,53.4817,127.469,99.2864,92.8838,0.000614594,0.04292,21.0198,6.52587,0.590665,0.0,0.0
1504,375.75,50.7345,53.045,126.88,99.3035,93.2823,0.000556612,0.0429231,21.02,6.54588,0.554254,0.0,0.0
1508,376.75,51.275,52.7483,128.961,99.3226,92.627,0.000515449,0.042876,21.0201,6.52587,0.618424,0.0,0.0
1512,377.75,50.7375,53.3091,125.993,99.3289,92.8476,0.000495043,0.0427869,21.0202,6.52587,0.597916,0.0,0.0
1516,378.75,50.3637,52.4971,129.291,99.3393,92.4221,0.00049746,0.042771,21.0202,6.53588,0.639535,0.0,0.0
1520,379.75,50.7492,53.0154,129.19,99.3548,93.0915,0.000528877,0.0427956,21.0203,6.53588,0.57697,0.0,0.0
1524,380.75,50.702,52.7985,125.142,99.3738,93.0034,0.000563284,0.04272,21.0204,6.55589,0.587065,0.0,0.0
1528,381.75,50.2474,53.0307,126.424,99.3762,93.0098,0.000623306,0.0426515,21.0205,6.54588,0.586665,0.0,0.0
1532,382.75,50.5051,52.5296,126.449,99.3894,92.9458,0.00065828,0.042624,21.0205,6.49584,0.593933,0.0,0.0
1536,383.75,50.5972,52.5833,123.324,99.4041,93.2401,0.00063784,0.0426797,21.0205,6.48583,0.567237,0.0,0.0
1540,384.75,50.4267,52.5177,124.236,99.4072,93.131,0.000565939,0.0426388,21.0205,6.51586,0.577893,0.0,0.0
1544,385.75,50.4394,51.9976,127.214,99.4108,92.8766,0.000464591,0.0425774,21.0205,6.50585,0.602449,0.0,0.0
1548,386.75,50.3336,51.8018,127.389,99.4239,92.7772,0.000373059,0.0425262,21.0205,6.52587,0.613109,0.0,0.0
1552,387.75,49.9126,52.2301,126.177,99.4231,93.0996,0.000311834,0.0424854,21.0205,6.50585,0.582298,0.0,0.0
1556,388.75,49.9731,52.0854,125.37,99.4358,92.7019,0.000273426,0.0424555,21.0197,6.50585,0.621364,0.0,0.0
1560,389.75,50.4205,52.1381,122.648,99.437,92.6467,0.000237318,0.0424708,21.0192,6.50585,0.626742,0.0,0.0
1564,390.75,50.0684,51.7937,128.465,99.439,93.2638,0.000185076,0.0424562,21.0195,6.49584,0.568096,0.0,0.0
1568,391.75,49.4546,51.5499,124.347,99.4501,93.2972,0.000137625,0.0424738,21.0199,6.48583,0.565915,0.0,0.0
1572,392.75,49.7132,51.8981,127.445,99.449,93.3053,0.000130647,0.0424802,21.0201,6.51586,0.565042,0.0,0.0
1576,393.75,49.761,51.438,127.301,99.4625,92.5469,0.000160562,0.0424896,21.0202,6.53588,0.63856,0.0,0.0
1580,394.75,49.4079,51.8207,127.131,99.4458,93.1692,0.000199058,0.0425449,21.0203,6.51586,0.57769,0.0,0.0
1584,395.75,49.961,51.6423,123.906,99.4764,93.1016,0.000250899,0.0425893,21.0207,6.52587,0.586849,0.0,0.0
1588,396.75,49.5165,51.6737,125.614,99.4541,93.1797,0.000297827,0.0425845,21.021,6.54588,0.577439,0.0,0.0
1592,397.75,49.6878,51.3161,125.405,99.4482,92.7679,0.000339816,0.0426006,21.0211,6.54588,0.616153,0.0,0.0
1596,398.75,49.6003,51.304,129.127,99.4442,92.8987,0.000364245,0.0425349,21.0212,6.54588,0.603311,0.0,0.0
1600,399.75,49.4067,51.2583,125.102,99.4394,92.8947,0.000378354,0.0424452,21.0213,6.53588,0.603271,0.0,0.0
1604,400.75,49.5454,50.815,123.712,99.4351,92.3791,0.000382932,0.0424108,21.0213,6.53588,0.652204,0.0,0.0
1608,401.75,49.9719,50.6118,129.142,99.4342,92.7297,0.00037954,0.0424343,21.0213,6.54588,0.618567,0.0,0.0
1612,402.75,49.4612,50.75,122.958,99.4366,93.0328,0.000361719,0.0424556,21.0215,6.52587,0.589863,0.0,0.0
1616,403.75,49.3993,51.3426,127.641,99.4402,93.0501,0.000354424,0.0424475,21.0216,6.50585,0.588534,0.0,0.0
1620,404.75,49.1846,51.1443,126.277,99.4346,93.3914,0.000345406,0.0424228,21.0215,6.51586,0.555592,0.0,0.0
1624,405.75,49.0485,49.9886,127.339,99.4156,92.5256,0.000335091,0.0424014,21.0213,6.48583,0.636425,0.0,0.0
1628,406.75,49.3386,50.8492,129.874,99.416,92.4829,0.000314466,0.0423798,21.0212,6.50585,0.640547,0.0,0.0
1632,407.75,48.9724,50.6813,124.191,99.406,92.8319,0.000283352,0.0423259,21.0211,6.51586,0.606288,0.0,0.0
1636,408.75,48.9085,50.5479,125.232,99.4013,92.8722,0.000266241,0.0422596,21.0211,6.50585,0.602022,0.0,0.0
1640,409.75,48.573,50.2347,125.414,99.3866,92.662,0.000284308,0.0422899,21.0211,6.51586,0.620781,0.0,0.0
1644,410.75,49.163,50.6042,125.718,99.3846,92.5542,0.000335388,0.0423621,21.021,6.52587,0.630926,0.0,0.0
1648,411.75,48.7691,50.4059,129.62,99.3878,93.5404,0.000397428,0.0424341,21.021,6.52587,0.537293,0.0,0.0
1652,412.75,49.0256,50.3827,127.616,99.3675,92.9619,0.000450619,0.042462,21.021,6.49584,0.59045,0.0,0.0
1656,413.75,48.4706,50.3791,124.379,99.3564,92.6202,0.000485518,0.0424071,21.021,6.49584,0.622093,0.0,0.0
1660,414.75,48.6523,50.1236,123.609,99.3568,92.8496,0.000486407,0.0423432,21.021,6.50585,0.600204,0.0,0.0
1664,415.75,48.7666,49.7794,128.026,99.3373,92.6886,0.000479696,0.0423233,21.0208,6.49584,0.613847,0.0,0.0
1668,416.75,49.1814,50.1497,127.738,99.3305,93.0082,,0.0422695,,6.49584,0.582742,0.0,0.0
1672,417.75,48.6114,50.2394,125.686,99.3162,92.9635,,0.0422011,,6.50585,0.585724,0.0,0.0
1676,418.75,48.6991,50.3625,129.709,99.3111,92.7599,,0.0422301,,6.51586,0.604698,0.0,0.0
1680,419.75,47.6509,49.8063,125.85,99.2916,92.1496,,,,6.53588,0.661446,0.0,0.0
1684,420.75,48.7207,50.7682,129.283,99.2773,92.9575,,,,6.53588,0.582825,0.0,0.0
1688,421.75,48.6551,50.2564,128.145,99.2725,92.8689,,,,6.50585,0.590845,0.0,0.0
1692,422.75,48.3788,49.9597,129.561,99.2586,92.871,,,,6.50585,0.589411,0.0,0.0
1696,423.75,48.4197,49.7996,125.977,99.2491,92.5103,,,,6.51586,0.623038,0.0,0.0
1700,424.75,48.3183,50.2038,126.051,99.23,92.6198,,,,6.51586,0.610854,0.0,0.0
1704,425.75,48.4891,49.9488,128.344,99.2197,92.7546,,,,6.52587,0.597039,0.0,0.0
1708,426.75,48.3789,49.88,129.303,99.1974,92.2285,,,,6.52587,0.645454,0.0,0.0
1710,427.25,48.2394,49.232,126.958,99.2066,92.753,,,,6.53588,0.596022,0.0,0.0