File: 01_Data/Polyester_Microfiber_Sheet/STA/N2/3K_min/Polyester_Microfiber_Sheet_STA_N2_3KData_220527_R1.csv
##Temp./Â°C,Time/min,Mass loss(subtr.2)/mg,DSC(subtr.2)/(mW/mg),Sensit./(uV/mW)
50.242,10.01667,-0.00944,-0.002358199,1.05674
50.842,11.07888,-0.009713533,0.02355116,1.05668
51.442,11.44293,-0.009518723,0.03603024,1.05661
52.042,11.73199,-0.009240965,0.04279173,1.05654
52.642,11.9931,-0.01022113,0.05050369,1.05648
53.242,12.23865,-0.01056615,0.05211957,1.05641
53.842,12.4763,-0.0106273,0.05414364,1.05634
54.442,12.70834,-0.01188049,0.05718945,1.05627
55.042,12.93642,-0.01054014,0.0591408,1.0562
55.642,13.16196,-0.01215688,0.05818544,1.05613
56.242,13.38463,-0.01053835,0.05895988,1.05606
56.842,13.6044,-0.01134157,0.06093774,1.05598
57.442,13.8224,-0.01186207,0.06115271,1.05591
58.042,14.0388,-0.01153078,0.06193279,1.05584
58.642,14.25404,-0.0118553,0.06314299,1.05576
59.242,14.46769,-0.01086952,0.06385172,1.05569
59.842,14.6793,-0.01053015,0.0655684,1.05562
60.442,14.8895,-0.01184168,0.06621127,1.05554
61.042,15.09784,-0.01182734,0.06812563,1.05546
61.642,15.30539,-0.01186001,0.06704935,1.05539
62.242,15.5106,-0.01185943,0.06939343,1.05531
62.842,15.71546,-0.01183778,0.07000961,1.05523
63.442,15.92039,-0.01209939,0.0683846,1.05515
64.042,16.1255,-0.01255985,0.06948964,1.05508
64.642,16.3304,-0.01316938,0.069276,1.055
65.242,16.53441,-0.01186283,0.07245214,1.05492
65.842,16.73803,-0.01185923,0.07131533,1.05484
66.442,16.9415,-0.01268365,0.07432508,1.05475
67.042,17.1444,-0.01185995,0.07453729,1.05467
67.642,17.34796,-0.01317062,0.07319461,1.05459
68.242,17.55014,-0.01186,0.07198481,1.05451
68.842,17.75285,-0.01182139,0.07206907,1.05442
69.442,17.95466,-0.01160165,0.07206533,1.05434
70.042,18.1576,-0.01020963,0.07209696,1.05426
70.642,18.36036,-0.01021111,0.07139667,1.05417
71.242,18.56185,-0.0115242,0.07144385,1.05408
71.842,18.7621,-0.01007665,0.07145173,1.054
72.442,18.96179,-0.01165961,0.06947468,1.05391
73.042,19.16062,-0.01177236,0.06938296,1.05382
73.642,19.3609,-0.01097667,0.06891621,1.05374
74.242,19.5615,-0.01110325,0.06924232,1.05365
74.842,19.76276,-0.01290567,0.06780313,1.05356
75.442,19.964,-0.01284,0.06482276,1.05347
76.042,20.16532,-0.01417286,0.06405912,1.05338
76.642,20.3659,-0.01448969,0.06662034,1.05329
77.242,20.56704,-0.0148327,0.06586177,1.0532
77.842,20.76751,-0.01382888,0.06790834,1.0531
78.442,20.96826,-0.01383036,0.06543544,1.05301
79.042,21.16882,-0.01482017,0.06642383,1.05292
79.642,21.36959,-0.01285397,0.06583581,1.05282
80.242,21.5701,-0.01416144,0.06476264,1.05273
80.842,21.7709,-0.01319407,0.06453666,1.05263
81.442,21.97283,-0.01416,0.06541363,1.05254
82.042,22.17473,-0.01429135,0.06289476,1.05244
82.642,22.37596,-0.01350515,0.0646707,1.05234
83.242,22.57631,-0.01276505,0.06479976,1.05225
83.842,22.77594,-0.01284008,0.0627114,1.05215
84.442,22.97559,-0.01316921,0.06418808,1.05205
85.042,23.1756,-0.01317855,0.06381424,1.05195
85.642,23.37552,-0.01218256,0.06379034,1.05185
86.242,23.57574,-0.01172174,0.06160211,1.05175
86.842,23.7759,-0.01308525,0.06239402,1.05165
87.442,23.97576,-0.01513712,0.06163816,1.05155
88.042,24.17663,-0.01314946,0.06091492,1.05145
88.642,24.37668,-0.01290372,0.06249192,1.05134
89.242,24.5765,-0.01275553,0.0623014,1.05124
89.842,24.77607,-0.01251387,0.06363301,1.05114
90.442,24.97585,-0.0134287,0.06438344,1.05103
91.042,25.175,-0.01262083,0.06221212,1.05093
91.642,25.37416,-0.01381106,0.06143031,1.05082
92.242,25.57377,-0.01239767,0.06233254,1.05071
92.842,25.77305,-0.01314132,0.06168509,1.05061
93.442,25.97261,-0.01246194,0.06207357,1.0505
94.042,26.1723,-0.01316998,0.06067821,1.05039
94.642,26.37319,-0.01333219,0.06191049,1.05028
95.242,26.57413,-0.01318995,0.06101629,1.05017
95.842,26.77448,-0.01396134,0.06309074,1.05006
96.442,26.9741,-0.01333124,0.06443329,1.04995
97.042,27.1726,-0.01415937,0.06531623,1.04984
97.642,27.3713,-0.01152982,0.06657685,1.04973
98.242,27.569,-0.01218439,0.06701171,1.04962
98.842,27.7665,-0.0138202,0.0664837,1.0495
99.442,27.9649,-0.01349938,0.06661153,1.04939
100.042,28.16385,-0.01276722,0.06770526,1.04928
100.642,28.36242,-0.01289385,0.06845659,1.04916
101.242,28.5606,-0.01337628,0.0711679,1.04905
101.842,28.75807,-0.01285032,0.07171687,1.04893
102.442,28.95605,-0.01275256,0.07091174,1.04881
103.042,29.154,-0.01284334,0.07032518,1.0487
103.642,29.3524,-0.0128402,0.07234866,1.04858
104.242,29.55006,-0.01283924,0.07167229,1.04846
104.842,29.74788,-0.01252262,0.07328107,1.04834
105.442,29.94517,-0.0142115,0.07182551,1.04822
106.042,30.14255,-0.01350002,0.07184618,1.0481
106.642,30.34041,-0.01376856,0.07348243,1.04798
107.242,30.53694,-0.01220121,0.07522154,1.04786
107.842,30.7348,-0.01351,0.07354444,1.04774
108.442,30.93303,-0.01350973,0.07410686,1.04761
109.042,31.13226,-0.01350001,0.0742368,1.04749
109.642,31.3312,-0.01349997,0.0752197,1.04737
110.242,31.5304,-0.01350735,0.07540192,1.04724
110.842,31.7282,-0.01326064,0.07642205,1.04712
111.442,31.92632,-0.01251005,0.07448141,1.04699
112.042,32.12384,-0.01284408,0.07535443,1.04686
112.642,32.32135,-0.01251002,0.0751025,1.04674
113.242,32.51952,-0.01350078,0.07587429,1.04661
113.842,32.71776,-0.01246824,0.0759839,1.04648
114.442,32.91605,-0.0135058,0.07424464,1.04635
115.042,33.11377,-0.0120004,0.07705653,1.04622
115.642,33.31231,-0.01217966,0.07748803,1.04609
116.242,33.51119,-0.01350342,0.07689934,1.04596
116.842,33.71001,-0.01207368,0.07657548,1.04583
117.442,33.90915,-0.01188306,0.07911979,1.0457
118.042,34.10768,-0.01085587,0.07826553,1.04557
118.642,34.30597,-0.01174259,0.08029467,1.04544
119.242,34.50359,-0.01218558,0.08132549,1.0453
119.842,34.70093,-0.01053788,0.0803133,1.04517
120.442,34.8983,-0.01054578,0.08032373,1.04503
121.042,35.09615,-0.01219911,0.08049738,1.0449
121.642,35.29432,-0.01085974,0.08310712,1.04476
122.242,35.49239,-0.01120463,0.08306265,1.04462
122.842,35.68995,-0.01120011,0.08390961,1.04449
123.442,35.88685,-0.01251428,0.08346999,1.04435
124.042,36.08381,-0.01119,0.08357163,1.04421
124.642,36.2798,-0.0118523,0.08461193,1.04407
125.242,36.47653,-0.01184938,0.08695131,1.04393
125.842,36.6732,-0.01219021,0.08726905,1.04379
126.442,36.86959,-0.01180635,0.08644087,1.04365
127.042,37.06626,-0.01218287,0.08559915,1.04351
127.642,37.26318,-0.01218449,0.08504019,1.04336
128.242,37.46052,-0.01152792,0.0856535,1.04322
128.842,37.65887,-0.01054015,0.08455354,1.04308
129.442,37.85614,-0.01186017,0.08779691,1.04293
130.042,38.0539,-0.0113487,0.08772782,1.04279
130.642,38.25112,-0.01091063,0.08706575,1.04264
131.242,38.44839,-0.01120448,0.08838913,1.0425
131.842,38.6455,-0.01152879,0.08766119,1.04235
132.442,38.843,-0.01141525,0.09005733,1.0422
133.042,39.04,-0.01143538,0.08999466,1.04206
133.642,39.23705,-0.01251022,0.09150229,1.04191
134.242,39.43362,-0.01152351,0.09274235,1.04176
134.842,39.63074,-0.01152,0.09110591,1.04161
135.442,39.8275,-0.01289386,0.09031703,1.04146
136.042,40.0245,-0.01156294,0.09111811,1.04131
136.642,40.2217,-0.01119996,0.09240755,1.04115
137.242,40.4182,-0.01145832,0.09439899,1.041
137.842,40.61513,-0.01251998,0.09501356,1.04085
138.442,40.8118,-0.01391191,0.09403205,1.0407
139.042,41.0083,-0.01283905,0.09430899,1.04054
139.642,41.20538,-0.01250999,0.09367385,1.04039
140.242,41.40148,-0.01251,0.09493479,1.04023
140.842,41.59841,-0.01120541,0.09686577,1.04008
141.442,41.79438,-0.01247769,0.09700738,1.03992
142.042,41.9904,-0.01185,0.09668908,1.03976
142.642,42.18654,-0.01217949,0.09656556,1.0396
143.242,42.38225,-0.01217915,0.09824121,1.03944
143.842,42.5777,-0.01218706,0.0982048,1.03929
144.442,42.77395,-0.01217769,0.09897339,1.03913
145.042,42.97048,-0.0107659,0.09984255,1.03896
145.642,43.1689,-0.01086124,0.09808674,1.0388
146.242,43.36524,-0.01218001,0.09785486,1.03864
146.842,43.56207,-0.01152738,0.09969862,1.03848
147.442,43.75817,-0.01153001,0.099806,1.03832
148.042,43.95417,-0.01286755,0.10077,1.03815
148.642,44.15011,-0.01119998,0.10231,1.03799
149.242,44.3465,-0.01247714,0.10243,1.03782
149.842,44.542,-0.01010626,0.10262,1.03766
150.442,44.7378,-0.01020956,0.10189,1.03749
151.042,44.93237,-0.01152998,0.1015,1.03732
151.642,45.12805,-0.0112067,0.10028,1.03716
152.242,45.32367,-0.01263538,0.09911066,1.03699
152.842,45.51963,-0.0125097,0.10088,1.03682
153.442,45.7162,-0.01120003,0.10002,1.03665
154.042,45.91222,-0.01120172,0.10012,1.03648
154.642,46.10885,-0.0118583,0.10066,1.03631
155.242,46.30533,-0.0118601,0.1003,1.03614
155.842,46.50157,-0.01184897,0.09951986,1.03597
156.442,46.69793,-0.01251118,0.10078,1.03579
157.042,46.89322,-0.01251,0.0991866,1.03562
157.642,47.08941,-0.01251,0.10035,1.03545
158.242,47.28484,-0.01250959,0.10047,1.03527
158.842,47.481,-0.01157437,0.10261,1.0351
159.442,47.6775,-0.01218253,0.10069,1.03492
160.042,47.8735,-0.01086205,0.10095,1.03474
160.642,48.07029,-0.0108681,0.10029,1.03457
161.242,48.2669,-0.01151148,0.10117,1.03439
161.842,48.46314,-0.01085604,0.10071,1.03421
162.442,48.6589,-0.01085996,0.10075,1.03403
163.042,48.85418,-0.011847,0.10053,1.03385
163.642,49.04835,-0.01218039,0.10272,1.03367
164.242,49.24281,-0.01350759,0.103,1.03349
164.842,49.43741,-0.0127874,0.10315,1.03331
165.442,49.63241,-0.01382999,0.10593,1.03313
166.042,49.82821,-0.01349512,0.1036,1.03294
166.642,50.02409,-0.01428213,0.10364,1.03276
167.242,50.21993,-0.01383993,0.10438,1.03258
167.842,50.41583,-0.01384,0.10399,1.03239
168.442,50.6115,-0.01384,0.10438,1.03221
169.042,50.80656,-0.01383998,0.10496,1.03202
169.642,51.00238,-0.01449023,0.10199,1.03183
170.242,51.19875,-0.01449,0.10221,1.03165
170.842,51.39524,-0.0135167,0.10263,1.03146
171.442,51.591,-0.01480187,0.10284,1.03127
172.042,51.78628,-0.01548017,0.10368,1.03108
172.642,51.98095,-0.01415672,0.1035,1.03089
173.242,52.17544,-0.01378951,0.10525,1.0307
173.842,52.36957,-0.01415654,0.10551,1.03051
174.442,52.5633,-0.01415998,0.10586,1.03032
175.042,52.75744,-0.01547905,0.10557,1.03012
175.642,52.95221,-0.01416638,0.10569,1.02993
176.242,53.14745,-0.0151502,0.10483,1.02974
176.842,53.34285,-0.01502799,0.10539,1.02954
177.442,53.53885,-0.01415659,0.10575,1.02935
178.042,53.73431,-0.01547788,0.10678,1.02915
178.642,53.92995,-0.01415981,0.10603,1.02895
179.242,54.12545,-0.01415929,0.10833,1.02876
179.842,54.3207,-0.01546622,0.10923,1.02856
180.442,54.51546,-0.01580764,0.10822,1.02836
181.042,54.71017,-0.01418137,0.1081,1.02816
181.642,54.9047,-0.01415015,0.10944,1.02796
182.242,55.0996,-0.01548,0.11005,1.02776
182.842,55.29388,-0.01504795,0.10894,1.02756
183.442,55.4878,-0.01482151,0.10904,1.02736
184.042,55.68232,-0.01614001,0.10693,1.02716
184.642,55.87789,-0.01613999,0.10652,1.02695
185.242,56.07301,-0.01571549,0.10594,1.02675
185.842,56.2683,-0.01612999,0.10744,1.02655
186.442,56.46306,-0.01515014,0.10867,1.02634
187.042,56.65761,-0.01645984,0.10983,1.02613
187.642,56.85175,-0.01376156,0.10909,1.02593
188.242,57.04668,-0.01613441,0.11047,1.02572
188.842,57.24075,-0.01442217,0.11091,1.02551
189.442,57.43466,-0.01580028,0.10856,1.02531
190.042,57.6289,-0.01545662,0.10999,1.0251
190.642,57.82336,-0.01587152,0.11058,1.02489
191.242,58.01798,-0.01443295,0.10972,1.02468
191.842,58.2125,-0.01535656,0.10942,1.02447
192.442,58.4072,-0.0158097,0.10906,1.02425
193.042,58.6014,-0.01711369,0.10767,1.02404
193.642,58.79564,-0.01580601,0.10931,1.02383
194.242,58.9896,-0.01614509,0.10879,1.02362
194.842,59.1833,-0.01745081,0.10845,1.0234
195.442,59.37765,-0.01647027,0.11081,1.02319
196.042,59.57244,-0.01745888,0.11026,1.02297
196.642,59.76568,-0.0168,0.11075,1.02276
197.242,59.9597,-0.01680004,0.11114,1.02254
197.842,60.1541,-0.01580951,0.11059,1.02232
198.442,60.35026,-0.01580995,0.10988,1.0221
199.042,60.5473,-0.01647003,0.1103,1.02188
199.642,60.7437,-0.01713059,0.10989,1.02166
200.242,60.93925,-0.0164884,0.11077,1.02144
200.842,61.1345,-0.01580875,0.11034,1.02122
201.442,61.3304,-0.01714376,0.11127,1.021
202.042,61.52646,-0.01885978,0.11099,1.02078
202.642,61.72218,-0.01877234,0.11373,1.02056
203.242,61.9169,-0.01713,0.11312,1.02033
203.842,62.11161,-0.01713,0.11576,1.02011
204.442,62.3061,-0.01702968,0.11512,1.01988
205.042,62.5002,-0.01745039,0.1145,1.01966
205.642,62.69477,-0.01811255,0.11638,1.01943
206.242,62.88865,-0.01813557,0.11532,1.01921
206.842,63.083,-0.01811115,0.11517,1.01898
207.442,63.2778,-0.01773291,0.11481,1.01875
208.042,63.4717,-0.01777524,0.11303,1.01852
208.642,63.66591,-0.01810961,0.11346,1.01829
209.242,63.85946,-0.01811036,0.1141,1.01806
209.842,64.05405,-0.01932755,0.11421,1.01783
210.442,64.24845,-0.01943,0.11322,1.0176
211.042,64.44359,-0.01909804,0.1161,1.01737
211.642,64.63781,-0.02013139,0.11611,1.01714
212.242,64.83198,-0.01877,0.11632,1.0169
212.842,65.02636,-0.01877,0.1163,1.01667
213.442,65.2209,-0.01909271,0.1192,1.01643
214.042,65.41506,-0.0184409,0.11689,1.0162
214.642,65.60965,-0.01976,0.11848,1.01596
215.242,65.80435,-0.01975981,0.11982,1.01573
215.842,65.99935,-0.02041999,0.11853,1.01549
216.442,66.1944,-0.02042,0.12004,1.01525
217.042,66.38919,-0.02042,0.11959,1.01501
217.642,66.58385,-0.02041974,0.12071,1.01477
218.242,66.77875,-0.02108,0.1205,1.01453
218.842,66.97391,-0.01984583,0.11969,1.01429
219.442,67.16885,-0.02108088,0.1208,1.01405
220.042,67.3636,-0.01910003,0.11847,1.01381
220.642,67.55723,-0.02008563,0.11853,1.01357
221.242,67.75103,-0.02007471,0.12049,1.01332
221.842,67.9452,-0.02098845,0.1203,1.01308
222.442,68.1395,-0.01994786,0.12226,1.01283
223.042,68.33344,-0.02009204,0.12305,1.01259
223.642,68.5272,-0.02009077,0.12328,1.01234
224.242,68.72038,-0.02041968,0.12354,1.01209
224.842,68.9139,-0.02172849,0.12558,1.01185
225.442,69.10778,-0.02206635,0.12282,1.0116
226.042,69.30345,-0.02041593,0.12262,1.01135
226.642,69.49848,-0.02173,0.12197,1.0111
227.242,69.69386,-0.02139946,0.12417,1.01085
227.842,69.88846,-0.02338012,0.12504,1.0106
228.442,70.08237,-0.02272001,0.12679,1.01035
229.042,70.27694,-0.02139278,0.12768,1.0101
229.642,70.47104,-0.02404531,0.1274,1.00984
230.242,70.6656,-0.02273661,0.12686,1.00959
230.842,70.85969,-0.02271309,0.12744,1.00934
231.442,71.0535,-0.0227194,0.12829,1.00908
232.042,71.24704,-0.02272,0.12901,1.00883
232.642,71.44038,-0.02272,0.12871,1.00857
233.242,71.63423,-0.02403949,0.13006,1.00831
233.842,71.8284,-0.02176759,0.1308,1.00806
234.442,72.0227,-0.02305,0.1328,1.0078
235.042,72.2172,-0.02304999,0.13319,1.00754
235.642,72.41073,-0.02370325,0.13253,1.00728
236.242,72.605,-0.02338066,0.13164,1.00702
236.842,72.7993,-0.02337825,0.13407,1.00676
237.442,72.99428,-0.02347014,0.13361,1.0065
238.042,73.1885,-0.02444701,0.1343,1.00624
238.642,73.38271,-0.02303756,0.13737,1.00597
239.242,73.57673,-0.02441443,0.14,1.00571
239.842,73.77127,-0.02602071,0.13995,1.00544
240.442,73.96677,-0.02766363,0.13961,1.00518
241.042,74.16193,-0.02700479,0.14066,1.00491
241.642,74.35669,-0.02500152,0.14243,1.00465
242.242,74.55086,-0.02536,0.14299,1.00438
242.842,74.7444,-0.02603838,0.14636,1.00411
243.442,74.93859,-0.02640121,0.14682,1.00385
244.042,75.13253,-0.02766241,0.14803,1.00358
244.642,75.32731,-0.02569424,0.15077,1.00331
245.242,75.52203,-0.02686393,0.15177,1.00304
245.842,75.71675,-0.02635,0.15313,1.00277
246.442,75.91206,-0.02635,0.15751,1.00249
247.042,76.1075,-0.02493335,0.15934,1.00222
247.642,76.3022,-0.02576684,0.16567,1.00195
248.242,76.49728,-0.02602,0.17028,1.00168
248.842,76.69164,-0.02568762,0.1728,1.0014
249.442,76.88646,-0.02555163,0.17981,1.00113
250.042,77.08115,-0.02624153,0.18408,1.00085
250.642,77.27633,-0.02570903,0.19021,1.00057
251.242,77.4709,-0.02734339,0.19929,1.0003
251.842,77.66538,-0.02865538,0.20752,1.00002
252.442,77.85996,-0.02635263,0.21703,0.99974
253.042,78.05425,-0.02635249,0.23062,0.99946
253.642,78.2486,-0.02666453,0.24675,0.99918
254.242,78.44364,-0.02799,0.2741,0.9989
254.842,78.63919,-0.02671721,0.30782,0.99862
255.442,78.83499,-0.02668677,0.33918,0.99834
256.042,79.0299,-0.02776052,0.36564,0.99806
256.642,79.2256,-0.02742883,0.3913,0.99777
257.242,79.42138,-0.02734248,0.40598,0.99749
257.842,79.61746,-0.02833,0.41013,0.99721
258.442,79.81235,-0.02763317,0.4057,0.99692
259.042,80.0073,-0.02911336,0.3921,0.99663
259.642,80.20156,-0.02795002,0.37131,0.99635
260.242,80.39645,-0.02718558,0.34787,0.99606
260.842,80.59089,-0.02757966,0.32122,0.99577
261.442,80.78505,-0.02898023,0.29763,0.99549
262.042,80.9787,-0.02766986,0.27579,0.9952
262.642,81.17184,-0.02897193,0.25292,0.99491
263.242,81.36502,-0.02766973,0.23307,0.99462
263.842,81.55883,-0.02666175,0.2191,0.99432
264.442,81.75267,-0.02799314,0.20704,0.99403
265.042,81.946,-0.02929764,0.19321,0.99374
265.642,82.13972,-0.02883438,0.18232,0.99345
266.242,82.33291,-0.02930999,0.17588,0.99315
266.842,82.5265,-0.02931207,0.17103,0.99286
267.442,82.72065,-0.0316546,0.16254,0.99256
268.042,82.91503,-0.03060122,0.15904,0.99227
268.642,83.10921,-0.03029,0.15541,0.99197
269.242,83.3039,-0.02957962,0.15133,0.99167
269.842,83.49831,-0.02964,0.14806,0.99138
270.442,83.693,-0.0300235,0.1465,0.99108
271.042,83.88786,-0.03095017,0.14348,0.99078
271.642,84.08184,-0.03095007,0.14206,0.99048
272.242,84.27646,-0.03195025,0.14063,0.99018
272.842,84.47107,-0.03094669,0.14173,0.98988
273.442,84.66627,-0.03161,0.14104,0.98957
274.042,84.86159,-0.03194805,0.13971,0.98927
274.642,85.05745,-0.03086677,0.14038,0.98897
275.242,85.25261,-0.03280265,0.13895,0.98866
275.842,85.44797,-0.03029068,0.14107,0.98836
276.442,85.64217,-0.03094991,0.1393,0.98805
277.042,85.8364,-0.0316648,0.13802,0.98775
277.642,86.03018,-0.03077276,0.13801,0.98744
278.242,86.2244,-0.03194051,0.13836,0.98713
278.842,86.41802,-0.03195929,0.13778,0.98683
279.442,86.6127,-0.03194101,0.13997,0.98652
280.042,86.80764,-0.03194,0.13896,0.98621
280.642,87.00381,-0.0319266,0.13728,0.9859
281.242,87.19941,-0.03161635,0.13719,0.98559
281.842,87.3952,-0.03162,0.13488,0.98528
282.442,87.59087,-0.03160818,0.13373,0.98496
283.042,87.786,-0.03020196,0.13434,0.98465
283.642,87.98061,-0.02965313,0.13471,0.98434
284.242,88.175,-0.03130065,0.13542,0.98402
284.842,88.3699,-0.03051199,0.13555,0.98371
285.442,88.56514,-0.03223652,0.13659,0.98339
286.042,88.7603,-0.0299508,0.13632,0.98308
286.642,88.95476,-0.03161947,0.13685,0.98276
287.242,89.1497,-0.03162005,0.13775,0.98244
287.842,89.3437,-0.03033864,0.1359,0.98212
288.442,89.5395,-0.03116951,0.13361,0.9818
289.042,89.73516,-0.03291597,0.13561,0.98149
289.642,89.93027,-0.03151122,0.13233,0.98116
290.242,90.1265,-0.03030236,0.1341,0.98084
290.842,90.32144,-0.03034124,0.13458,0.98052
291.442,90.5159,-0.030636,0.13515,0.9802
292.042,90.71002,-0.03323704,0.13593,0.97988
292.642,90.9043,-0.03194377,0.13696,0.97955
293.242,91.09844,-0.03059085,0.13655,0.97923
293.842,91.29319,-0.03000357,0.13752,0.9789
294.442,91.4881,-0.03095999,0.13803,0.97858
295.042,91.68311,-0.03161746,0.13756,0.97825
295.642,91.87821,-0.03226995,0.13662,0.97793
296.242,92.07274,-0.0302999,0.13578,0.9776
296.842,92.26694,-0.03259891,0.1371,0.97727
297.442,92.46118,-0.0326,0.13901,0.97694
298.042,92.65456,-0.03292549,0.13808,0.97661
298.642,92.8492,-0.03194,0.1388,0.97628
299.242,93.04292,-0.03289434,0.13643,0.97595
299.842,93.23755,-0.03326,0.13973,0.97562
300.442,93.4323,-0.03196914,0.13857,0.97529
301.042,93.6267,-0.0332602,0.13968,0.97495
301.642,93.8224,-0.03326,0.137,0.97462
302.242,94.01807,-0.03460211,0.13742,0.97428
302.842,94.21466,-0.03326061,0.13652,0.97395
303.442,94.41043,-0.03425196,0.13768,0.97361
304.042,94.60518,-0.03489371,0.13996,0.97328
304.642,94.79987,-0.03292567,0.1395,0.97294
305.242,94.9941,-0.03457951,0.14026,0.9726
305.842,95.1885,-0.03457408,0.13966,0.97226
306.442,95.3827,-0.03425,0.13947,0.97192
307.042,95.5774,-0.03422157,0.13784,0.97158
307.642,95.7721,-0.03326006,0.13879,0.97124
308.242,95.96667,-0.03392,0.1386,0.9709
308.842,96.16219,-0.03523996,0.13863,0.97056
309.442,96.35781,-0.03524,0.13723,0.97022
310.042,96.5537,-0.03523149,0.13645,0.96988
310.642,96.75005,-0.03590001,0.1388,0.96953
311.242,96.94612,-0.03532066,0.13594,0.96919
311.842,97.14225,-0.03556953,0.13648,0.96884
312.442,97.3378,-0.03644924,0.13787,0.9685
313.042,97.5333,-0.03524,0.1388,0.96815
313.642,97.7283,-0.03656001,0.13779,0.9678
314.242,97.92312,-0.03524028,0.13608,0.96745
314.842,98.1181,-0.03655924,0.13519,0.96711
315.442,98.31291,-0.03674635,0.13798,0.96676
316.042,98.50833,-0.03722068,0.13854,0.96641
316.642,98.7033,-0.03589434,0.13936,0.96606
317.242,98.89876,-0.03590991,0.13757,0.9657
317.842,99.09365,-0.03542787,0.13975,0.96535
318.442,99.2884,-0.03704542,0.14127,0.965
319.042,99.48307,-0.03524,0.14111,0.96465
319.642,99.67833,-0.03537848,0.13766,0.96429
320.242,99.87396,-0.03658385,0.13852,0.96394
320.842,100.07,-0.0365596,0.13996,0.96358
321.442,100.265,-0.03656019,0.14018,0.96323
322.042,100.461,-0.03508662,0.1387,0.96287
322.642,100.656,-0.03761122,0.13851,0.96251
323.242,100.852,-0.03755,0.13713,0.96216
323.842,101.047,-0.03755002,0.13766,0.9618
324.442,101.2432,-0.03691456,0.13779,0.96144
325.042,101.439,-0.03788001,0.13818,0.96108
325.642,101.635,-0.03952474,0.13725,0.96072
326.242,101.83,-0.03919,0.13759,0.96036
326.842,102.026,-0.03919,0.14026,0.95999
327.442,102.221,-0.03918066,0.14122,0.95963
328.042,102.417,-0.04017,0.13948,0.95927
328.642,102.612,-0.03918984,0.1408,0.9589
329.242,102.808,-0.0411443,0.14116,0.95854
329.842,103.003,-0.03986144,0.1403,0.95817
330.442,103.199,-0.04084,0.14172,0.95781
331.042,103.395,-0.04107176,0.13853,0.95744
331.642,103.591,-0.04215853,0.14154,0.95707
332.242,103.787,-0.04148402,0.14056,0.95671
332.842,103.982,-0.04280991,0.1413,0.95634
333.442,104.178,-0.04281,0.14322,0.95597
334.042,104.374,-0.04284299,0.14135,0.9556
334.642,104.57,-0.04269492,0.14236,0.95523
335.242,104.766,-0.04410121,0.14215,0.95486
335.842,104.9613,-0.04429469,0.14409,0.95448
336.442,105.156,-0.04546622,0.14495,0.95411
337.042,105.351,-0.04544053,0.14431,0.95374
337.642,105.546,-0.04544,0.14442,0.95337
338.242,105.742,-0.04676323,0.14559,0.95299
338.842,105.939,-0.04610135,0.14575,0.95262
339.442,106.136,-0.04618304,0.14621,0.95224
340.042,106.333,-0.04840671,0.14461,0.95186
340.642,106.53,-0.04708951,0.14843,0.95149
341.242,106.726,-0.04743372,0.14582,0.95111
341.842,106.923,-0.04873997,0.14759,0.95073
342.442,107.12,-0.04973043,0.14778,0.95035
343.042,107.317,-0.04975985,0.14732,0.94997
343.642,107.513,-0.05104,0.14794,0.94959
344.242,107.7093,-0.051346,0.15107,0.94921
344.842,107.905,-0.05136219,0.15205,0.94883
345.442,108.1,-0.05236002,0.15219,0.94844
346.042,108.296,-0.05266374,0.15166,0.94806
346.642,108.492,-0.0523598,0.15222,0.94768
347.242,108.688,-0.05271265,0.15385,0.94729
347.842,108.884,-0.05499334,0.15244,0.94691
348.442,109.08,-0.05429404,0.155,0.94652
349.042,109.276,-0.05724257,0.15474,0.94613
349.642,109.472,-0.05739583,0.15578,0.94575
350.242,109.669,-0.05731017,0.15561,0.94536
350.842,109.865,-0.05993973,0.15543,0.94497
351.442,110.061,-0.06021556,0.15675,0.94458
352.042,110.257,-0.0625681,0.15582,0.94419
352.642,110.453,-0.0609178,0.15813,0.9438
353.242,110.65,-0.06223992,0.15787,0.94341
353.842,110.8473,-0.06487893,0.15887,0.94302
354.442,111.043,-0.06624314,0.16164,0.94263
355.042,111.24,-0.06878426,0.16237,0.94223
355.642,111.4359,-0.06752007,0.16563,0.94184
356.242,111.632,-0.07015001,0.16424,0.94145
356.842,111.828,-0.07147055,0.16493,0.94105
357.442,112.024,-0.07152525,0.16665,0.94065
358.042,112.22,-0.07403782,0.16631,0.94026
358.642,112.417,-0.07542014,0.16908,0.93986
359.242,112.612,-0.0768415,0.17073,0.93946
359.842,112.808,-0.07828916,0.17135,0.93907
360.442,113.003,-0.082022,0.17271,0.93867
361.042,113.199,-0.08426321,0.1714,0.93827
361.642,113.396,-0.0859584,0.17189,0.93787
362.242,113.592,-0.08850254,0.1703,0.93747
362.842,113.79,-0.09124241,0.17032,0.93706
363.442,113.986,-0.09261078,0.16608,0.93666
364.042,114.183,-0.09582997,0.16706,0.93626
364.642,114.38,-0.09912734,0.16528,0.93586
365.242,114.5766,-0.10158,0.16775,0.93545
365.842,114.773,-0.10421,0.16793,0.93505
366.442,114.969,-0.10841,0.17049,0.93464
367.042,115.165,-0.11206,0.17168,0.93423
367.642,115.361,-0.11381,0.17216,0.93383
368.242,115.5578,-0.11871,0.17291,0.93342
368.842,115.754,-0.1212,0.17121,0.93301
369.442,115.95,-0.12515,0.1749,0.9326
370.042,116.147,-0.12918,0.17703,0.93219
370.642,116.344,-0.13453,0.17815,0.93178
371.242,116.541,-0.13826,0.17993,0.93137
371.842,116.737,-0.14438,0.18123,0.93096
372.442,116.934,-0.14821,0.18335,0.93055
373.042,117.129,-0.15268,0.18396,0.93014
373.642,117.325,-0.1588,0.18782,0.92972
374.242,117.521,-0.16403,0.18833,0.92931
374.842,117.717,-0.17062,0.19127,0.9289
375.442,117.913,-0.17586,0.19278,0.92848
376.042,118.11,-0.183,0.19208,0.92807
376.642,118.306,-0.19051,0.19511,0.92765
377.242,118.503,-0.19729,0.19554,0.92723
377.842,118.7,-0.2029,0.19672,0.92681
378.442,118.898,-0.21193,0.19748,0.9264
379.042,119.095,-0.22024,0.19954,0.92598
379.642,119.292,-0.22863,0.20232,0.92556
380.242,119.489,-0.23629,0.20464,0.92514
380.842,119.686,-0.24759,0.20774,0.92472
381.442,119.8827,-0.25675,0.20881,0.92429
382.042,120.079,-0.26549,0.21071,0.92387
382.642,120.276,-0.27597,0.2146,0.92345
383.242,120.472,-0.28626,0.21736,0.92303
383.842,120.669,-0.29752,0.22047,0.9226
384.442,120.866,-0.30906,0.22163,0.92218
385.042,121.062,-0.3208,0.2254,0.92175
385.642,121.258,-0.33509,0.2281,0.92132
386.242,121.454,-0.34757,0.22968,0.9209
386.842,121.65,-0.3611,0.23117,0.92047
387.442,121.847,-0.37437,0.2334,0.92004
388.042,122.045,-0.39102,0.23692,0.91961
388.642,122.243,-0.40587,0.24065,0.91919
389.242,122.441,-0.42137,0.24186,0.91876
389.842,122.638,-0.43697,0.24379,0.91832
390.442,122.836,-0.45643,0.24753,0.91789
391.042,123.035,-0.47466,0.25273,0.91746
391.642,123.232,-0.49269,0.25235,0.91703
392.242,123.43,-0.51184,0.25782,0.9166
392.842,123.626,-0.53227,0.2598,0.91616
393.442,123.823,-0.5543,0.26352,0.91573
394.042,124.02,-0.57623,0.26835,0.91529
394.642,124.217,-0.59802,0.27469,0.91486
395.242,124.4139,-0.62103,0.27601,0.91442
395.842,124.61,-0.64547,0.27971,0.91398
396.442,124.807,-0.67144,0.27628,0.91355
397.042,125.004,-0.69625,0.27914,0.91311
397.642,125.2003,-0.7223,0.28209,0.91267
398.242,125.397,-0.75021,0.28646,0.91223
398.842,125.595,-0.77846,0.29053,0.91179
399.442,125.7922,-0.80901,0.29383,0.91135
400.042,125.99,-0.83855,0.29622,0.91091
400.642,126.188,-0.87098,0.30009,0.91047
401.242,126.386,-0.90345,0.30166,0.91003
401.842,126.583,-0.93698,0.30074,0.90958
402.442,126.779,-0.97079,0.30379,0.90914
403.042,126.977,-1.0055,0.3058,0.90869
403.642,127.173,-1.04218,0.30917,0.90825
404.242,127.37,-1.07662,0.31273,0.9078
404.842,127.567,-1.11614,0.31329,0.90736
405.442,127.765,-1.15252,0.31186,0.90691
406.042,127.961,-1.19274,0.31475,0.90646
406.642,128.158,-1.23124,0.31294,0.90601
407.242,128.355,-1.27224,0.31616,0.90557
407.842,128.552,-1.31369,0.31958,0.90512
408.442,128.75,-1.35611,0.32164,0.90467
409.042,128.947,-1.40092,0.32108,0.90422
409.642,129.144,-1.44316,0.32304,0.90377
410.242,129.342,-1.48888,0.32104,0.90331
410.842,129.54,-1.53482,0.32248,0.90286
411.442,129.739,-1.58235,0.31966,0.90241
412.042,129.937,-1.62668,0.32074,0.90195
412.642,130.134,-1.67381,0.31982,0.9015
413.242,130.33,-1.72087,0.3186,0.90105
413.842,130.527,-1.76859,0.31741,0.90059
414.442,130.7238,-1.81599,0.3181,0.90013
415.042,130.921,-1.86305,0.31459,0.89968
415.642,131.1191,-1.91065,0.31267,0.89922
416.242,131.317,-1.95935,0.3088,0.89876
416.842,131.5153,-2.00655,0.30654,0.8983
417.442,131.714,-2.05393,0.30212,0.89784
418.042,131.912,-2.09885,0.30001,0.89738
418.642,132.109,-2.14755,0.29755,0.89692
419.242,132.306,-2.19121,0.29222,0.89646
419.842,132.504,-2.23593,0.2887,0.896
420.442,132.7,-2.27906,0.2834,0.89554
421.042,132.897,-2.32307,0.27947,0.89508
421.642,133.094,-2.36325,0.27031,0.89461
422.242,133.292,-2.40427,0.2651,0.89415
422.842,133.488,-2.44321,0.26165,0.89368
423.442,133.685,-2.48037,0.25178,0.89322
424.042,133.882,-2.51586,0.24592,0.89275
424.642,134.081,-2.54925,0.23814,0.89229
425.242,134.279,-2.5816,0.23328,0.89182
425.842,134.477,-2.61385,0.226,0.89135
426.442,134.675,-2.6426,0.21885,0.89088
427.042,134.8718,-2.67045,0.21097,0.89042
427.642,135.069,-2.69584,0.20666,0.88995
428.242,135.266,-2.72023,0.19976,0.88948
428.842,135.464,-2.74064,0.19206,0.88901
429.442,135.661,-2.76302,0.1836,0.88853
430.042,135.858,-2.78303,0.17531,0.88806
430.642,136.056,-2.80187,0.17022,0.88759
431.242,136.253,-2.81901,0.1629,0.88712
431.842,136.45,-2.83601,0.15914,0.88664
432.442,136.648,-2.84982,0.15492,0.88617
433.042,136.844,-2.86492,0.14851,0.88569
433.642,137.042,-2.87985,0.14455,0.88522
434.242,137.241,-2.89274,0.14057,0.88474
434.842,137.44,-2.9059,0.13619,0.88427
435.442,137.639,-2.91618,0.136,0.88379
436.042,137.838,-2.92742,0.12787,0.88331
436.642,138.036,-2.93836,0.12752,0.88283
437.242,138.234,-2.94858,0.12299,0.88235
437.842,138.431,-2.95835,0.12102,0.88188
438.442,138.628,-2.96725,0.11835,0.8814
439.042,138.826,-2.97615,0.11583,0.88091
439.642,139.024,-2.98263,0.1127,0.88043
440.242,139.222,-2.99279,0.10748,0.87995
440.842,139.42,-2.99896,0.10477,0.87947
441.442,139.618,-3.0056,0.09999606,0.87899
442.042,139.816,-3.0121,0.09690671,0.8785
442.642,140.014,-3.0177,0.0933997,0.87802
443.242,140.212,-3.02532,0.08907567,0.87753
443.842,140.41,-3.03114,0.08424891,0.87705
444.442,140.608,-3.03588,0.08397282,0.87656
445.042,140.806,-3.04283,0.080624,0.87608
445.642,141.004,-3.04712,0.07775338,0.87559
446.242,141.202,-3.05248,0.07587968,0.8751
446.842,141.401,-3.05903,0.07247572,0.87461
447.442,141.599,-3.06033,0.06857829,0.87412
448.042,141.798,-3.06682,0.06244545,0.87363
448.642,141.996,-3.06838,0.06450738,0.87314
449.242,142.193,-3.07335,0.05908529,0.87265
449.842,142.392,-3.07682,0.06039814,0.87216
450.442,142.59,-3.08084,0.05835083,0.87167
451.042,142.789,-3.08231,0.06004711,0.87118
451.642,142.987,-3.08746,0.0611471,0.87068
452.242,143.185,-3.09027,0.05717035,0.87019
452.842,143.383,-3.0941,0.05424235,0.8697
453.442,143.58,-3.09666,0.05200326,0.8692
454.042,143.778,-3.0991,0.05211834,0.86871
454.642,143.976,-3.10198,0.04982599,0.86821
455.242,144.173,-3.10305,0.04848861,0.86772
455.842,144.371,-3.10703,0.04414331,0.86722
456.442,144.568,-3.10829,0.03735917,0.86672
457.042,144.765,-3.11028,0.03306431,0.86622
457.642,144.963,-3.11299,0.02642086,0.86572
458.242,145.162,-3.11429,0.02205972,0.86523
458.842,145.361,-3.1168,0.01816879,0.86473
459.442,145.561,-3.11811,0.0131662,0.86423
460.042,145.762,-3.121,0.01059341,0.86372
460.642,145.962,-3.12244,0.00947291,0.86322
461.242,146.162,-3.12436,0.007089268,0.86272
461.842,146.361,-3.1264,0.00485411,0.86222
462.442,146.56,-3.12574,0.003036391,0.86172
463.042,146.758,-3.1281,0.001147675,0.86121
463.642,146.956,-3.12839,0.0005156825,0.86071
464.242,147.154,-3.12971,0.0002943108,0.8602
464.842,147.351,-3.13102,-0.002422356,0.8597
465.442,147.549,-3.13234,-0.002982191,0.85919
466.042,147.747,-3.13366,-0.00525991,0.85869
466.642,147.945,-3.13465,-0.005918363,0.85818
467.242,148.144,-3.13672,-0.006301074,0.85767
467.842,148.343,-3.13821,-0.007563888,0.85716
468.442,148.5421,-3.13826,-0.008462426,0.85665
469.042,148.741,-3.13894,-0.007565417,0.85614
469.642,148.94,-3.14139,-0.009671262,0.85564
470.242,149.138,-3.14349,-0.00945081,0.85512
470.842,149.337,-3.14256,-0.009550813,0.85461
471.442,149.536,-3.14522,-0.01289225,0.8541
472.042,149.735,-3.14527,-0.01289772,0.85359
472.642,149.935,-3.14652,-0.01596886,0.85308
473.242,150.1335,-3.14781,-0.01506201,0.85256
473.842,150.333,-3.14782,-0.01624688,0.85205
474.442,150.532,-3.14946,-0.01375419,0.85154
475.042,150.732,-3.1494,-0.01596412,0.85102
475.642,150.931,-3.15067,-0.01526462,0.85051
476.242,151.13,-3.15139,-0.01323399,0.84999
476.842,151.329,-3.15047,-0.01084661,0.84948
477.442,151.527,-3.15177,-0.01140605,0.84896
478.042,151.725,-3.15309,-0.009523191,0.84844
478.642,151.922,-3.15439,-0.01097799,0.84792
479.242,152.119,-3.15438,-0.00933772,0.8474
479.842,152.317,-3.15539,-0.009304544,0.84689
480.442,152.516,-3.15469,-0.01133944,0.84637
481.042,152.715,-3.15704,-0.01031719,0.84585
481.642,152.914,-3.15704,-0.01064259,0.84533
482.242,153.113,-3.1577,-0.02422471,0.8448
482.842,153.312,-3.15943,-0.008001307,0.84428
483.442,153.511,-3.15839,-0.00430017,0.84376
484.042,153.711,-3.15923,-0.00384921,0.84324
484.642,153.91,-3.16033,-0.00586641,0.84271
485.242,154.11,-3.16149,-0.004078081,0.84219
485.842,154.3101,-3.16132,-0.00239874,0.84167
486.442,154.509,-3.16273,0.0004457919,0.84114
487.042,154.708,-3.1639,0.00120319,0.84062
487.642,154.907,-3.16288,-0.001277188,0.84009
488.242,155.107,-3.16362,-0.001138932,0.83956
488.842,155.307,-3.16525,0.000808636,0.83904
489.442,155.507,-3.16461,-0.0005115216,0.83851
490.042,155.7065,-3.16593,-0.002441084,0.83798
490.642,155.906,-3.16626,-0.00350088,0.83745
491.242,156.106,-3.16626,-0.0006592402,0.83692
491.842,156.305,-3.16592,-0.000380087,0.83639
492.442,156.504,-3.16767,0.0008451836,0.83586
493.042,156.7029,-3.16791,0.00228819,0.83533
493.642,156.902,-3.16788,0.003050512,0.8348
494.242,157.102,-3.16921,0.00210335,0.83427
494.842,157.301,-3.1702,0.003060063,0.83374
495.442,157.5,-3.16922,0.001844449,0.83321
496.042,157.699,-3.16988,0.00141196,0.83267
496.642,157.898,-3.17033,0.002267893,0.83214
497.242,158.098,-3.1712,0.002035069,0.8316
497.842,158.297,-3.17248,-0.000957764,0.83107
498.442,158.496,-3.17266,-0.0008400299,0.83053
499.042,158.694,-3.1735,0.0015117,0.83
499.642,158.8934,-3.17352,0.001954352,0.82946
500.242,159.092,-3.1735,0.002002709,0.82892
500.842,159.292,-3.17386,0.00438388,0.82839
501.442,159.491,-3.17515,0.00372749,0.82785
502.042,159.691,-3.17516,0.00358759,0.82731
502.642,159.89,-3.17713,0.002572525,0.82677
503.242,160.089,-3.17578,0.003077486,0.82623
503.842,160.289,-3.17614,0.002601771,0.82569
504.442,160.489,-3.17748,0.001179341,0.82515
505.042,160.689,-3.17746,0.00321405,0.82461
505.642,160.889,-3.17877,0.00436075,0.82407
506.242,161.088,-3.17829,0.004438549,0.82353
506.842,161.287,-3.17745,0.003873203,0.82299
507.442,161.486,-3.17983,0.00324135,0.82244
508.042,161.684,-3.17972,0.003048054,0.8219
508.642,161.883,-3.17909,0.003175018,0.82136
509.242,162.081,-3.17976,0.004858381,0.82081
509.842,162.28,-3.18044,0.004618453,0.82027
510.442,162.4792,-3.18141,0.005856789,0.81972
511.042,162.679,-3.18172,0.0055638,0.81918
511.642,162.878,-3.18086,0.006209138,0.81863
512.242,163.077,-3.18065,0.00302013,0.81808
512.842,163.277,-3.18141,0.004717183,0.81754
513.442,163.477,-3.18273,0.005652531,0.81699
514.042,163.678,-3.18336,0.00326113,0.81644
514.642,163.879,-3.18272,0.001972354,0.81589
515.242,164.081,-3.18225,0.002419188,0.81534
515.842,164.282,-3.18336,0.001030783,0.81479
516.442,164.482,-3.18274,0.00137851,0.81424
517.042,164.683,-3.18273,-0.0009628414,0.81369
517.642,164.883,-3.18404,0.00045934,0.81314
518.242,165.084,-3.18338,0.001160873,0.81259
518.842,165.283,-3.18306,0.001888541,0.81204
519.442,165.482,-3.18305,0.00217075,0.81148
520.042,165.681,-3.18471,0.00316432,0.81093
520.642,165.88,-3.18569,0.003151218,0.81038
521.242,166.079,-3.18464,0.003926729,0.80982
521.842,166.278,-3.18572,0.00339709,0.80927
522.442,166.477,-3.18632,0.003954096,0.80871
523.042,166.677,-3.18635,0.00563781,0.80816
523.642,166.877,-3.18652,0.003086525,0.8076
524.242,167.077,-3.18471,0.005550608,0.80705
524.842,167.277,-3.18603,0.00395941,0.80649
525.442,167.477,-3.18603,0.003388663,0.80593
526.042,167.676,-3.18531,0.00461561,0.80537
526.642,167.876,-3.18668,0.004185927,0.80482
527.242,168.075,-3.18766,0.00523416,0.80426
527.842,168.273,-3.18634,0.00445089,0.8037
528.442,168.473,-3.18767,0.004211525,0.80314
529.042,168.672,-3.18842,0.00646713,0.80258
529.642,168.873,-3.18866,0.005201115,0.80202
530.242,169.073,-3.18901,0.002987444,0.80146
530.842,169.273,-3.18997,0.00469067,0.8009
531.442,169.473,-3.19059,0.00671952,0.80033
532.042,169.6724,-3.18944,0.005016024,0.79977
532.642,169.871,-3.19067,0.003576835,0.79921
533.242,170.07,-3.18998,0.002590425,0.79864
533.842,170.2694,-3.19243,0.001782055,0.79808
534.442,170.47,-3.19154,0.0006542238,0.79752
535.042,170.671,-3.19225,0.000624847,0.79695
535.642,170.871,-3.19228,-0.0004718365,0.79639
536.242,171.071,-3.19228,-0.00293927,0.79582
536.842,171.27,-3.19286,-0.002532185,0.79526
537.442,171.469,-3.19325,-0.00145413,0.79469
538.042,171.67,-3.19455,-0.00161121,0.79412
538.642,171.87,-3.19556,-0.0047568,0.79355
539.242,172.07,-3.19591,-0.00215264,0.79299
539.842,172.27,-3.19689,-0.002923103,0.79242
540.442,172.471,-3.19689,-0.00484172,0.79185
541.042,172.671,-3.19689,-0.002460898,0.79128
541.642,172.872,-3.1969,-0.001059201,0.79071
542.242,173.073,-3.19724,-0.001947137,0.79014
542.842,173.274,-3.19725,-0.00196239,0.78957
543.442,173.474,-3.19755,-0.00546243,0.789
544.042,173.673,-3.19689,-0.004892059,0.78843
544.642,173.872,-3.19917,-0.002995745,0.78786
545.242,174.071,-3.19887,-0.00578522,0.78728
545.842,174.271,-3.20019,-0.005790684,0.78671
546.442,174.471,-3.1992,-0.004019502,0.78614
547.042,174.671,-3.19905,-0.00617799,0.78556
547.642,174.871,-3.19887,-0.00328478,0.78499
548.242,175.07,-3.19754,-0.003086996,0.78442
548.842,175.269,-3.19854,-0.002774505,0.78384
549.442,175.469,-3.19887,-0.003741855,0.78327
550.042,175.669,-3.19887,-0.002763357,0.78269
550.642,175.869,-3.19887,-0.00441656,0.78211
551.242,176.07,-3.19887,-0.005118142,0.78154
551.842,176.271,-3.19887,-0.004648204,0.78096
552.442,176.473,-3.19886,-0.00680281,0.78038
553.042,176.675,-3.19821,-0.00583501,0.77981
553.642,176.876,-3.19822,-0.004531236,0.77923
554.242,177.077,-3.19964,-0.00419033,0.77865
554.842,177.278,-3.19854,-0.006029211,0.77807
555.442,177.4788,-3.20263,-0.005078908,0.77749
556.042,177.68,-3.20573,-0.004029894,0.77691
556.642,177.882,-3.20936,-0.001321742,0.77633
557.242,178.083,-3.21072,-0.001007074,0.77575
557.842,178.283,-3.2094,-0.004223912,0.77517
558.442,178.4831,-3.20809,-0.00270422,0.77459
559.042,178.683,-3.19546,-0.004465033,0.774
559.642,178.883,-3.19883,-0.00452551,0.77342
560.242,179.083,-3.20666,-0.006654177,0.77284
560.842,179.283,-3.20797,-0.004489558,0.77226
561.442,179.4834,-3.20929,-0.00448355,0.77167
562.042,179.684,-3.20567,-0.004343046,0.77109
562.642,179.885,-3.20744,-0.000798191,0.7705
563.242,180.087,-3.20731,-0.00327524,0.76992
563.842,180.288,-3.20466,-0.005745656,0.76933
564.442,180.489,-3.20331,-0.00189888,0.76875
565.042,180.689,-3.21183,0.0007315372,0.76816
565.642,180.89,-3.21564,0.001865246,0.76758
566.242,181.09,-3.21639,0.001592776,0.76699
566.842,181.291,-3.21589,0.00332479,0.7664
567.442,181.491,-3.21688,0.003426471,0.76581
568.042,181.6916,-3.21983,0.00494572,0.76523
568.642,181.893,-3.21986,0.007643,0.76464
569.242,182.093,-3.21983,0.005845229,0.76405
569.842,182.293,-3.22148,0.007083936,0.76346
570.442,182.493,-3.21883,0.005867246,0.76287
571.042,182.6929,-3.21872,0.008195832,0.76228
571.642,182.894,-3.21626,0.00401567,0.76169
572.242,183.095,-3.21477,0.00692205,0.7611
572.842,183.296,-3.21502,0.00653962,0.76051
573.442,183.497,-3.21566,0.008018734,0.75992
574.042,183.697,-3.22108,0.01008769,0.75932
574.642,183.8972,-3.21869,0.007961391,0.75873
575.242,184.098,-3.21983,0.009612281,0.75814
575.842,184.299,-3.22241,0.01301918,0.75755
576.442,184.5,-3.22214,0.01418604,0.75695
577.042,184.701,-3.22345,0.01445038,0.75636
577.642,184.902,-3.22246,0.01393007,0.75576
578.242,185.103,-3.22446,0.01426268,0.75517
578.842,185.304,-3.22366,0.01553327,0.75457
579.442,185.504,-3.22311,0.01299203,0.75398
580.042,185.7045,-3.22181,0.01720636,0.75338
580.642,185.905,-3.22178,0.01688811,0.75279
581.242,186.106,-3.22218,0.01703946,0.75219
581.842,186.306,-3.22183,0.01439071,0.75159
582.442,186.507,-3.22047,0.01811223,0.751
583.042,186.707,-3.22016,0.018405,0.7504
583.642,186.908,-3.22149,0.01989569,0.7498
584.242,187.11,-3.22073,0.0197591,0.7492
584.842,187.312,-3.22082,0.02059111,0.7486
585.442,187.515,-3.21984,0.02044407,0.74801
586.042,187.717,-3.22083,0.01976567,0.74741
586.642,187.92,-3.22017,0.02120045,0.74681
587.242,188.123,-3.22116,0.01811771,0.74621
587.842,188.325,-3.22152,0.01883575,0.74561
588.442,188.525,-3.22343,0.0208288,0.74501
589.042,188.725,-3.22177,0.02125215,0.7444
589.642,188.925,-3.22411,0.02419988,0.7438
590.242,189.125,-3.22544,0.02780839,0.7432
590.842,189.324,-3.22495,0.02696193,0.7426
591.442,189.523,-3.22496,0.02441278,0.742
592.042,189.722,-3.22576,0.02629051,0.74139
592.642,189.922,-3.22685,0.02771882,0.74079
593.242,190.122,-3.22509,0.02597625,0.74019
593.842,190.324,-3.22742,0.02616249,0.73958
594.442,190.5263,-3.22709,0.02912209,0.73898
595.042,190.728,-3.22814,0.02894753,0.73837
595.642,190.929,-3.22807,0.02986492,0.73777
596.242,191.13,-3.22807,0.02942115,0.73716
596.842,191.331,-3.22774,0.02808153,0.73656
597.442,191.532,-3.22875,0.03159038,0.73595
598.042,191.734,-3.22873,0.03234684,0.73535
598.642,191.935,-3.22903,0.0367002,0.73474
599.242,192.137,-3.22939,0.0379487,0.73413
599.842,192.338,-3.2294,0.03627753,0.73352
600.442,192.539,-3.22908,0.03341479,0.73292
601.042,192.74,-3.229,0.03637289,0.73231
601.642,192.941,-3.23004,0.03610782,0.7317
602.242,193.142,-3.23004,0.03941481,0.73109
602.842,193.3438,-3.23004,0.03760276,0.73048
603.442,193.546,-3.23036,0.03894647,0.72987
604.042,193.748,-3.23039,0.03787612,0.72926
604.642,193.95,-3.23103,0.04048378,0.72865
605.242,194.1524,-3.23106,0.04030906,0.72804
605.842,194.354,-3.23202,0.04337222,0.72743
606.442,194.555,-3.23199,0.04299203,0.72682
607.042,194.756,-3.23096,0.04632231,0.72621
607.642,194.957,-3.23202,0.04354396,0.7256
608.242,195.1585,-3.23202,0.04586316,0.72499
608.842,195.36,-3.23216,0.04533601,0.72437
609.442,195.561,-3.23301,0.04549539,0.72376
610.042,195.762,-3.23334,0.04665083,0.72315
610.642,195.963,-3.234,0.04766543,0.72254
611.242,196.164,-3.234,0.0456327,0.72192
611.842,196.366,-3.234,0.04488454,0.72131
612.442,196.567,-3.234,0.04866937,0.72069
613.042,196.768,-3.23465,0.04639762,0.72008
613.642,196.969,-3.23465,0.05011344,0.71947
614.242,197.17,-3.23465,0.0513442,0.71885
614.842,197.371,-3.23468,0.05393374,0.71824
615.442,197.572,-3.2363,0.05638898,0.71762
616.042,197.772,-3.2363,0.05635414,0.717
616.642,197.972,-3.23526,0.05888157,0.71639
617.242,198.173,-3.2363,0.06122224,0.71577
617.842,198.373,-3.23502,0.05685889,0.71515
618.442,198.5746,-3.23489,0.05907801,0.71454
619.042,198.776,-3.23537,0.06191353,0.71392
619.642,198.978,-3.23488,0.05889783,0.7133
620.242,199.179,-3.23699,0.06258617,0.71268
620.842,199.381,-3.23795,0.06493867,0.71207
621.442,199.583,-3.23663,0.06787525,0.71145
622.042,199.784,-3.23729,0.06579475,0.71083
622.642,199.985,-3.23833,0.06872552,0.71021
623.242,200.187,-3.23762,0.06642679,0.70959
623.842,200.388,-3.23744,0.06659323,0.70897
624.442,200.591,-3.23696,0.06860932,0.70835
625.042,200.793,-3.23716,0.06835243,0.70773
625.642,200.995,-3.23927,0.06866499,0.70711
626.242,201.197,-3.23664,0.06751123,0.70649
626.842,201.4,-3.23794,0.0649178,0.70587
627.442,201.6017,-3.23794,0.06548326,0.70525
628.042,201.803,-3.23992,0.06453304,0.70462
628.642,202.005,-3.23992,0.06601548,0.704
629.242,202.207,-3.24058,0.06539251,0.70338
629.842,202.41,-3.2396,0.06542208,0.70276
630.442,202.612,-3.24091,0.06673318,0.70213
631.042,202.8143,-3.24213,0.06666385,0.70151
631.642,203.016,-3.24091,0.06781424,0.70089
632.242,203.217,-3.24091,0.06429728,0.70026
632.842,203.418,-3.24223,0.06689941,0.69964
633.442,203.619,-3.24355,0.0689942,0.69902
634.042,203.819,-3.24358,0.06762703,0.69839
634.642,204.019,-3.24355,0.0703912,0.69777
635.242,204.22,-3.24332,0.07130306,0.69714
635.842,204.421,-3.24225,0.07064868,0.69652
636.442,204.623,-3.24288,0.07099436,0.69589
637.042,204.824,-3.24288,0.07082145,0.69527
637.642,205.026,-3.24354,0.07321115,0.69464
638.242,205.228,-3.24354,0.07128758,0.69401
638.842,205.429,-3.24222,0.07386648,0.69339
639.442,205.632,-3.24222,0.07289008,0.69276
640.042,205.834,-3.24222,0.07259205,0.69213
640.642,206.035,-3.2422,0.0710052,0.69151
641.242,206.237,-3.24224,0.07337122,0.69088
641.842,206.438,-3.24354,0.07431111,0.69025
642.442,206.639,-3.24413,0.07340299,0.68962
643.042,206.84,-3.24422,0.07456829,0.689
643.642,207.042,-3.24434,0.07191989,0.68837
644.242,207.244,-3.24421,0.07647379,0.68774
644.842,207.445,-3.24421,0.07159275,0.68711
645.442,207.647,-3.24421,0.07464185,0.68648
646.042,207.849,-3.24421,0.07120053,0.68585
646.642,208.051,-3.24553,0.06805976,0.68522
647.242,208.254,-3.24428,0.0699548,0.68459
647.842,208.457,-3.24454,0.0658658,0.68396
648.442,208.66,-3.24411,0.0689809,0.68333
649.042,208.863,-3.24586,0.06860041,0.6827
649.642,209.064,-3.24586,0.06783414,0.68207
650.242,209.265,-3.24553,0.06894855,0.68144
650.842,209.465,-3.24685,0.0706861,0.68081
651.442,209.666,-3.24551,0.07244693,0.68018
652.042,209.866,-3.24684,0.06942274,0.67954
652.642,210.067,-3.24718,0.06835608,0.67891
653.242,210.269,-3.24586,0.07152184,0.67828
653.842,210.4725,-3.24816,0.06973762,0.67765
654.442,210.676,-3.24709,0.06992394,0.67701
655.042,210.879,-3.24586,0.0681107,0.67638
655.642,211.081,-3.24648,0.06720456,0.67575
656.242,211.283,-3.24651,0.06700929,0.67512
656.842,211.486,-3.24651,0.06672518,0.67448
657.442,211.687,-3.24783,0.06248399,0.67385
658.042,211.888,-3.24726,0.06694075,0.67321
658.642,212.088,-3.24849,0.06495313,0.67258
659.242,212.288,-3.24786,0.06675393,0.67195
659.842,212.488,-3.24899,0.06813177,0.67131
660.442,212.689,-3.24849,0.06502462,0.67068
661.042,212.891,-3.24849,0.06960337,0.67004
661.642,213.094,-3.24988,0.07000309,0.66941
662.242,213.296,-3.24937,0.06959938,0.66877
662.842,213.499,-3.2485,0.0707248,0.66814
663.442,213.702,-3.24846,0.06854208,0.6675
664.042,213.905,-3.24981,0.0655891,0.66686
664.642,214.109,-3.25127,0.06380966,0.66623
665.242,214.312,-3.24981,0.06628663,0.66559
665.842,214.515,-3.24981,0.06679597,0.66495
666.442,214.717,-3.24981,0.07041244,0.66432
667.042,214.919,-3.24915,0.06910072,0.66368
667.642,215.121,-3.24951,0.07101508,0.66304
668.242,215.323,-3.24948,0.06944447,0.66241
668.842,215.525,-3.24947,0.06989383,0.66177
669.442,215.727,-3.25079,0.07000869,0.66113
670.042,215.927,-3.25079,0.06935104,0.66049
670.642,216.128,-3.24819,0.07014501,0.65985
671.242,216.328,-3.25017,0.07214536,0.65922
671.842,216.53,-3.24968,0.07141263,0.65858
672.442,216.733,-3.24915,0.06699519,0.65794
673.042,216.936,-3.24923,0.06805362,0.6573
673.642,217.139,-3.25046,0.06566122,0.65666
674.242,217.342,-3.25052,0.06219653,0.65602
674.842,217.5442,-3.25166,0.06421246,0.65538
675.442,217.746,-3.25186,0.06401801,0.65474
676.042,217.947,-3.25046,0.06310893,0.6541
676.642,218.149,-3.2518,0.06058022,0.65346
677.242,218.35,-3.25046,0.0575255,0.65282
677.842,218.552,-3.25145,0.06024093,0.65218
678.442,218.753,-3.25038,0.05534882,0.65154
679.042,218.955,-3.25276,0.05669453,0.6509
679.642,219.157,-3.24951,0.05217331,0.65026
680.242,219.359,-3.25079,0.05229096,0.64962
680.842,219.56,-3.252,0.0539817,0.64898
681.442,219.761,-3.25211,0.05261833,0.64834
682.042,219.962,-3.25186,0.05084815,0.6477
682.642,220.163,-3.2508,0.05327261,0.64706
683.242,220.365,-3.25178,0.05279755,0.64641
683.842,220.567,-3.25178,0.05196214,0.64577
684.442,220.771,-3.25112,0.04817393,0.64513
685.042,220.973,-3.25255,0.05039797,0.64449
685.642,221.175,-3.25253,0.05289764,0.64384
686.242,221.377,-3.25148,0.05559506,0.6432
686.842,221.58,-3.25244,0.05651465,0.64256
687.442,221.782,-3.25244,0.05466219,0.64192
688.042,221.9828,-3.25178,0.0538309,0.64127
688.642,222.184,-3.2531,0.05417746,0.64063
689.242,222.384,-3.25273,0.05239486,0.63999
689.842,222.585,-3.25211,0.05396295,0.63934
690.442,222.787,-3.25244,0.0521846,0.6387
691.042,222.989,-3.25342,0.04775265,0.63806
691.642,223.192,-3.25211,0.04772332,0.63741
692.242,223.395,-3.2531,0.04516268,0.63677
692.842,223.598,-3.2531,0.04490546,0.63612
693.442,223.801,-3.25309,0.04645351,0.63548
694.042,224.004,-3.2537,0.049378,0.63484
694.642,224.206,-3.25179,0.05067905,0.63419
695.242,224.407,-3.25214,0.05139458,0.63355
695.842,224.607,-3.25211,0.05064625,0.6329
696.442,224.808,-3.2531,0.04940532,0.63226
697.042,225.011,-3.2531,0.04858103,0.63161
697.642,225.214,-3.25376,0.04665003,0.63097
698.242,225.417,-3.25376,0.04738974,0.63032
698.842,225.619,-3.25376,0.04772252,0.62968
699.442,225.82,-3.25409,0.04672412,0.62903
700.042,226.021,-3.25475,0.04871367,0.62839
700.642,226.222,-3.256,0.04773405,0.62774
701.242,226.424,-3.25442,0.04799118,0.62709
701.842,226.626,-3.25514,0.04581396,0.62645
701.942,226.659,-3.25606,0.04681398,0.62634