File: 01_Data/Coffee_Machine/STA/N2/30K_min/Coffee_Machine_STA_N2_30KData_220201_R1.csv
##Temp./Â°C,Time/min,Mass loss(subtr.2)/mg,DSC(subtr.2)/(mW/mg),Sensit./(uV/mW)
49.249,10.00667,-0.00352,0.002689618,1.07447
49.849,10.5289,-0.00465462,0.04968684,1.07443
50.449,10.6472,-0.007137479,0.09721413,1.07439
51.049,10.73102,-0.003893378,0.13524,1.07435
51.649,10.80134,-0.00506476,0.17608,1.0743
52.249,10.86052,-0.004348487,0.20936,1.07426
52.849,10.91174,-0.00554469,0.24211,1.07421
53.449,10.9598,-0.005023465,0.27212,1.07417
54.049,11.00511,-0.006577265,0.30291,1.07412
54.649,11.04721,-0.008728645,0.33007,1.07407
55.249,11.08703,-0.00523888,0.35799,1.07402
55.849,11.1244,-0.004371102,0.38218,1.07397
56.449,11.16018,-0.004286759,0.40972,1.07392
57.049,11.19455,-0.00620779,0.43199,1.07387
57.649,11.22766,-0.005661139,0.45572,1.07382
58.249,11.25994,-0.004055553,0.47545,1.07377
58.849,11.29138,-0.003985533,0.49845,1.07371
59.449,11.3218,-0.004574781,0.51957,1.07366
60.049,11.35144,-0.00515982,0.53787,1.0736
60.649,11.38057,-0.00491355,0.55732,1.07355
61.249,11.40905,-0.00508603,0.57802,1.07349
61.849,11.43712,-0.00632991,0.5949,1.07343
62.449,11.46453,-0.005279729,0.61409,1.07337
63.049,11.4914,-0.00587274,0.63093,1.07331
63.649,11.51792,-0.005633759,0.64508,1.07325
64.249,11.54406,-0.004796575,0.66337,1.07319
64.849,11.56986,-0.00466685,0.67659,1.07313
65.449,11.5953,-0.004516371,0.69244,1.07306
66.049,11.62066,-0.00423895,0.70568,1.073
66.649,11.6457,-0.004492267,0.71857,1.07294
67.249,11.67043,-0.00546574,0.73488,1.07287
67.849,11.69484,-0.00596707,0.74631,1.0728
68.449,11.71922,-0.004907749,0.75703,1.07274
69.049,11.7433,-0.004517199,0.77063,1.07267
69.649,11.76725,-0.004294084,0.78033,1.0726
70.249,11.79087,-0.004663098,0.79234,1.07253
70.849,11.81436,-0.004219335,0.80168,1.07246
71.449,11.83758,-0.004185036,0.81099,1.07239
72.049,11.86077,-0.003321385,0.81967,1.07231
72.649,11.88381,-0.00364851,0.82766,1.07224
73.249,11.9067,-0.004279446,0.83558,1.07217
73.849,11.92944,-0.003955777,0.8426,1.07209
74.449,11.95193,-0.00407944,0.85124,1.07202
75.049,11.97437,-0.004068111,0.85788,1.07194
75.649,11.99686,-0.003723112,0.86287,1.07186
76.249,12.01925,-0.004257296,0.86971,1.07178
76.849,12.0416,-0.00445397,0.8764,1.0717
77.449,12.06362,-0.00432569,0.88105,1.07162
78.049,12.08554,-0.00341187,0.88738,1.07154
78.649,12.10753,-0.00284596,0.89224,1.07146
79.249,12.12934,-0.00375801,0.89836,1.07138
79.849,12.15119,-0.003905454,0.90121,1.0713
80.449,12.1729,-0.003490154,0.90793,1.07121
81.049,12.19449,-0.004097152,0.91349,1.07113
81.649,12.21607,-0.005009822,0.91762,1.07104
82.249,12.2376,-0.00404164,0.92209,1.07096
82.849,12.2591,-0.004910969,0.92437,1.07087
83.449,12.28054,-0.005070018,0.92967,1.07078
84.049,12.3018,-0.003540531,0.93515,1.07069
84.649,12.323,-0.004638931,0.93781,1.0706
85.249,12.34425,-0.00416636,0.94122,1.07051
85.849,12.36535,-0.004754998,0.94382,1.07042
86.449,12.38654,-0.003941486,0.94913,1.07033
87.049,12.40762,-0.004602163,0.95202,1.07023
87.649,12.42868,-0.00327097,0.95508,1.07014
88.249,12.4496,-0.00439724,0.96107,1.07004
88.849,12.47053,-0.003149996,0.96343,1.06995
89.449,12.49132,-0.002389428,0.96562,1.06985
90.049,12.51213,-0.001860246,0.97027,1.06975
90.649,12.53289,-0.002577366,0.97152,1.06966
91.249,12.55366,-0.001865273,0.97613,1.06956
91.849,12.57428,-0.003286409,0.9792,1.06946
92.449,12.59496,-0.001991803,0.98159,1.06936
93.049,12.61562,-0.001945318,0.9857,1.06926
93.649,12.63598,-0.00338054,0.98944,1.06915
94.249,12.65664,-0.001914929,0.98984,1.06905
94.849,12.67717,-0.00340081,0.99195,1.06895
95.449,12.69764,-0.003522593,0.99616,1.06884
96.049,12.71825,-0.00345901,0.99844,1.06874
96.649,12.73874,-0.003604279,1.00078,1.06863
97.249,12.7593,-0.00350905,1.0025,1.06852
97.849,12.77962,-0.00350967,1.00665,1.06841
98.449,12.80004,-0.00384365,1.00921,1.0683
99.049,12.82041,-0.003501683,1.01188,1.0682
99.649,12.8408,-0.003520995,1.0141,1.06808
100.249,12.86111,-0.00348949,1.01609,1.06797
100.849,12.88141,-0.00328348,1.02034,1.06786
101.449,12.9017,-0.003533669,1.02386,1.06775
102.049,12.92191,-0.002897135,1.02515,1.06763
102.649,12.94213,-0.0035037,1.02698,1.06752
103.249,12.96234,-0.003510832,1.03165,1.0674
103.849,12.98259,-0.003469883,1.03212,1.06729
104.449,13.00281,-0.004879007,1.0348,1.06717
105.049,13.02307,-0.004874168,1.03572,1.06705
105.649,13.04326,-0.003470825,1.03896,1.06693
106.249,13.06354,-0.00352089,1.04004,1.06681
106.849,13.0837,-0.003519983,1.04439,1.06669
107.449,13.10395,-0.00352,1.04748,1.06657
108.049,13.1241,-0.00352,1.04874,1.06645
108.649,13.1442,-0.00352,1.05074,1.06633
109.249,13.16438,-0.00351993,1.05419,1.0662
109.849,13.1845,-0.003523803,1.05494,1.06608
110.449,13.20474,-0.003094061,1.05764,1.06596
111.049,13.2249,-0.002637485,1.06007,1.06583
111.649,13.24496,-0.003502902,1.06299,1.0657
112.249,13.26495,-0.003492939,1.06548,1.06557
112.849,13.28495,-0.004787508,1.06799,1.06545
113.449,13.305,-0.004830681,1.07338,1.06532
114.049,13.32523,-0.00482999,1.07507,1.06519
114.649,13.3454,-0.004830071,1.07738,1.06506
115.249,13.36554,-0.004826592,1.0798,1.06492
115.849,13.3856,-0.00394259,1.0814,1.06479
116.449,13.40569,-0.004060569,1.08558,1.06466
117.049,13.42575,-0.004826709,1.08746,1.06452
117.649,13.44573,-0.004818079,1.08902,1.06439
118.249,13.4656,-0.00414971,1.09367,1.06425
118.849,13.4856,-0.003908357,1.0966,1.06412
119.449,13.5056,-0.003498852,1.10022,1.06398
120.049,13.52556,-0.00480607,1.10209,1.06384
120.649,13.54553,-0.004820286,1.10575,1.0637
121.249,13.5654,-0.00359667,1.10936,1.06356
121.849,13.5853,-0.003518512,1.11255,1.06342
122.449,13.6052,-0.00352003,1.11464,1.06328
123.049,13.62512,-0.00352,1.11921,1.06314
123.649,13.6449,-0.00352,1.12372,1.06299
124.249,13.6646,-0.003519975,1.12932,1.06285
124.849,13.6844,-0.00352135,1.13309,1.06271
125.449,13.7042,-0.00336863,1.13578,1.06256
126.049,13.7241,-0.002185076,1.13996,1.06241
126.649,13.7439,-0.002200315,1.14868,1.06227
127.249,13.76355,-0.002199994,1.15125,1.06212
127.849,13.78325,-0.002199999,1.15487,1.06197
128.449,13.803,-0.002200061,1.15885,1.06182
129.049,13.8228,-0.002196987,1.16602,1.06167
129.649,13.84245,-0.002376048,1.17325,1.06152
130.249,13.8622,-0.003506042,1.1772,1.06137
130.849,13.8818,-0.003519692,1.18402,1.06121
131.449,13.9015,-0.003543236,1.19192,1.06106
132.049,13.92116,-0.002161504,1.19665,1.06091
132.649,13.94074,-0.00220053,1.20597,1.06075
133.249,13.9603,-0.002200077,1.21357,1.0606
133.849,13.9798,-0.00220257,1.22137,1.06044
134.449,13.9993,-0.003472822,1.22829,1.06028
135.049,14.01881,-0.003511244,1.23741,1.06012
135.649,14.03825,-0.003510878,1.24723,1.05996
136.249,14.0577,-0.003458681,1.25485,1.0598
136.849,14.07722,-0.004872568,1.26627,1.05964
137.449,14.0967,-0.004829077,1.27639,1.05948
138.049,14.11614,-0.00483002,1.28682,1.05932
138.649,14.1356,-0.00483,1.29781,1.05916
139.249,14.155,-0.00483,1.3105,1.05899
139.849,14.17438,-0.004829974,1.32332,1.05883
140.449,14.19375,-0.004830496,1.33477,1.05866
141.049,14.213,-0.004847376,1.34921,1.0585
141.649,14.23216,-0.004752419,1.3627,1.05833
142.249,14.2514,-0.004842768,1.37928,1.05816
142.849,14.27065,-0.004839927,1.39462,1.05799
143.449,14.29,-0.004840002,1.41192,1.05782
144.049,14.30933,-0.00484,1.43113,1.05765
144.649,14.32864,-0.00484,1.44947,1.05748
145.249,14.34786,-0.00484,1.46924,1.05731
145.849,14.36708,-0.00484,1.49053,1.05714
146.449,14.3863,-0.00484,1.51261,1.05697
147.049,14.4055,-0.00484,1.5379,1.05679
147.649,14.42472,-0.00484,1.56416,1.05662
148.249,14.44389,-0.004840001,1.59081,1.05644
148.849,14.46309,-0.00483994,1.62175,1.05626
149.449,14.48224,-0.004842523,1.65166,1.05609
150.049,14.5014,-0.004753938,1.68757,1.05591
150.649,14.52064,-0.003532642,1.72348,1.05573
151.249,14.5398,-0.003188109,1.76305,1.05555
151.849,14.55905,-0.003190176,1.80485,1.05537
152.449,14.57825,-0.003189993,1.85069,1.05519
153.049,14.5974,-0.00319,1.89553,1.05501
153.649,14.6165,-0.00319,1.94787,1.05482
154.249,14.63558,-0.00319002,2.0039,1.05464
154.849,14.6547,-0.003189436,2.0608,1.05446
155.449,14.6738,-0.003199354,2.1238,1.05427
156.049,14.693,-0.004494065,2.18733,1.05409
156.649,14.7122,-0.004500446,2.26001,1.0539
157.249,14.7313,-0.004501071,2.3336,1.05371
157.849,14.7505,-0.004441853,2.40857,1.05352
158.449,14.76965,-0.005361368,2.48688,1.05333
159.049,14.7888,-0.00514819,2.56513,1.05314
159.649,14.80795,-0.004340612,2.64776,1.05295
160.249,14.827,-0.003838989,2.72961,1.05276
160.849,14.84615,-0.003839963,2.81428,1.05257
161.449,14.8653,-0.003840002,2.89807,1.05238
162.049,14.88447,-0.00384,2.97987,1.05218
162.649,14.9037,-0.00384,3.06071,1.05199
163.249,14.92286,-0.00383998,3.13984,1.0518
163.849,14.94201,-0.003840773,3.21438,1.0516
164.449,14.9612,-0.003814096,3.27986,1.0514
165.049,14.9804,-0.00252427,3.33539,1.05121
165.649,14.9995,-0.0025297,3.38018,1.05101
166.249,15.01865,-0.002543236,3.40928,1.05081
166.849,15.03769,-0.003463372,3.41959,1.05061
167.449,15.05676,-0.00352131,3.41279,1.05041
168.049,15.0758,-0.003510885,3.39063,1.05021
168.649,15.09489,-0.00262396,3.35019,1.05
169.249,15.1139,-0.001977532,3.29537,1.0498
169.849,15.13295,-0.001979956,3.21818,1.0496
170.449,15.15197,-0.001980761,3.13238,1.04939
171.049,15.1709,-0.00193126,3.0344,1.04919
171.649,15.18976,-0.003469808,2.93036,1.04898
172.249,15.20865,-0.00349689,2.82395,1.04878
172.849,15.22751,-0.003741193,2.71544,1.04857
173.449,15.2463,-0.003734728,2.60906,1.04836
174.049,15.2651,-0.005012906,2.50421,1.04815
174.649,15.2839,-0.00505112,2.40567,1.04794
175.249,15.30265,-0.005049973,2.31385,1.04773
175.849,15.32135,-0.00505,2.22727,1.04752
176.449,15.34005,-0.00505,2.1501,1.04731
177.049,15.3586,-0.00505008,2.08088,1.0471
177.649,15.3772,-0.005044929,2.01943,1.04688
178.249,15.39581,-0.005280385,1.96102,1.04667
178.849,15.41435,-0.005714219,1.90906,1.04645
179.449,15.43285,-0.00572329,1.86496,1.04624
180.049,15.4514,-0.005384809,1.82217,1.04602
180.649,15.46994,-0.00541273,1.78544,1.0458
181.249,15.4885,-0.005058847,1.75364,1.04559
181.849,15.507,-0.005049912,1.72435,1.04537
182.449,15.5254,-0.005046074,1.7004,1.04515
183.049,15.54393,-0.0054497,1.67361,1.04493
183.649,15.5624,-0.005715146,1.65409,1.04471
184.249,15.5808,-0.005709943,1.63632,1.04448
184.849,15.5993,-0.00571,1.62207,1.04426
185.449,15.61769,-0.005710129,1.60654,1.04404
186.049,15.63606,-0.005704558,1.59223,1.04381
186.649,15.65448,-0.00531938,1.58216,1.04359
187.249,15.67281,-0.005060973,1.57188,1.04336
187.849,15.69116,-0.00505991,1.56554,1.04314
188.449,15.7095,-0.005060002,1.55495,1.04291
189.049,15.72785,-0.00506,1.54795,1.04268
189.649,15.7462,-0.005059999,1.5407,1.04245
190.249,15.7645,-0.00506007,1.53692,1.04223
190.849,15.7828,-0.005056988,1.53285,1.042
191.449,15.8012,-0.005126847,1.53043,1.04176
192.049,15.8195,-0.00637732,1.52783,1.04153
192.649,15.83779,-0.006364233,1.52466,1.0413
193.249,15.85617,-0.005763166,1.51946,1.04107
193.849,15.87444,-0.005053662,1.51815,1.04083
194.449,15.89281,-0.005049658,1.51708,1.0406
195.049,15.91116,-0.00509978,1.51703,1.04036
195.649,15.92937,-0.003689,1.51432,1.04013
196.249,15.9477,-0.003740682,1.51143,1.03989
196.849,15.96606,-0.00374001,1.5126,1.03965
197.449,15.9844,-0.00374,1.51213,1.03942
198.049,16.00281,-0.00374,1.51124,1.03918
198.649,16.02112,-0.003740002,1.51329,1.03894
199.249,16.03942,-0.00374004,1.51269,1.0387
199.849,16.05775,-0.00373561,1.51075,1.03846
200.449,16.0761,-0.0039726,1.51134,1.03821
201.049,16.09443,-0.004715843,1.51086,1.03797
201.649,16.11276,-0.00506761,1.5119,1.03773
202.249,16.13106,-0.00582389,1.51188,1.03749
202.849,16.14934,-0.00636481,1.51281,1.03724
203.449,16.16759,-0.00637006,1.51275,1.03699
204.049,16.18591,-0.006370002,1.51313,1.03675
204.649,16.20417,-0.00637,1.51571,1.0365
205.249,16.22245,-0.00637,1.5164,1.03625
205.849,16.24073,-0.00637,1.51733,1.03601
206.449,16.259,-0.00637,1.5157,1.03576
207.049,16.27732,-0.006370001,1.51914,1.03551
207.649,16.29563,-0.006369975,1.51783,1.03526
208.249,16.3139,-0.006370272,1.5218,1.03501
208.849,16.33212,-0.00638957,1.52185,1.03475
209.449,16.3504,-0.005687627,1.52279,1.0345
210.049,16.36864,-0.00571048,1.52389,1.03425
210.649,16.38693,-0.00571,1.52793,1.03399
211.249,16.4052,-0.00571,1.52396,1.03374
211.849,16.42341,-0.005709995,1.52793,1.03348
212.449,16.44165,-0.005710132,1.53091,1.03323
213.049,16.45988,-0.00571039,1.52939,1.03297
213.649,16.47813,-0.005280181,1.53186,1.03271
214.249,16.49644,-0.004403618,1.5324,1.03245
214.849,16.5147,-0.00438924,1.53322,1.03219
215.449,16.533,-0.004384423,1.53349,1.03193
216.049,16.55122,-0.005654125,1.53796,1.03167
216.649,16.56941,-0.005711351,1.53764,1.03141
217.249,16.58761,-0.005710093,1.53844,1.03115
217.849,16.60577,-0.005713569,1.53904,1.03089
218.449,16.62395,-0.00633096,1.5418,1.03062
219.049,16.64216,-0.005365865,1.54331,1.03036
219.649,16.6604,-0.00538017,1.54322,1.03009
220.249,16.6787,-0.00538756,1.5436,1.02983
220.849,16.6969,-0.00574492,1.54415,1.02956
221.449,16.71519,-0.00559547,1.54824,1.02929
222.049,16.7334,-0.00429102,1.55023,1.02903
222.649,16.75161,-0.004287626,1.55218,1.02876
223.249,16.76984,-0.00451678,1.55161,1.02849
223.849,16.78806,-0.00580308,1.55251,1.02822
224.449,16.80634,-0.00581482,1.55407,1.02795
225.049,16.82462,-0.00708714,1.55771,1.02768
225.649,16.8429,-0.007141334,1.55668,1.02741
226.249,16.8612,-0.00713998,1.56015,1.02713
226.849,16.8794,-0.00713999,1.55996,1.02686
227.449,16.8975,-0.007141,1.56166,1.02659
228.049,16.91571,-0.007103109,1.56026,1.02631
228.649,16.9339,-0.008482228,1.56398,1.02604
229.249,16.95208,-0.008461355,1.56517,1.02576
229.849,16.97031,-0.00845896,1.56709,1.02548
230.449,16.98845,-0.008487909,1.56789,1.0252
231.049,17.00662,-0.007142314,1.56679,1.02493
231.649,17.02479,-0.007137868,1.57137,1.02465
232.249,17.04297,-0.00714007,1.57116,1.02437
232.849,17.0612,-0.007139999,1.57297,1.02409
233.449,17.07941,-0.00714,1.57599,1.02381
234.049,17.09764,-0.00714,1.57353,1.02352
234.649,17.11585,-0.00714,1.57406,1.02324
235.249,17.13401,-0.00714,1.57841,1.02296
235.849,17.15217,-0.00714,1.58087,1.02267
236.449,17.17034,-0.00714,1.5804,1.02239
237.049,17.1886,-0.00714,1.58285,1.0221
237.649,17.2068,-0.00714,1.58249,1.02182
238.249,17.22496,-0.00714,1.58376,1.02153
238.849,17.24295,-0.00714,1.58356,1.02124
239.449,17.2608,-0.00714,1.58686,1.02096
240.049,17.2789,-0.00714,1.58952,1.02067
240.649,17.29704,-0.007139974,1.59139,1.02038
241.249,17.31542,-0.007140859,1.59198,1.02009
241.849,17.33384,-0.00713045,1.59356,1.0198
242.449,17.3521,-0.007823373,1.59407,1.01951
243.049,17.37034,-0.007983488,1.59519,1.01921
243.649,17.38847,-0.00813241,1.59591,1.01892
244.249,17.4066,-0.008130003,1.59708,1.01863
244.849,17.4248,-0.00813,1.59964,1.01833
245.449,17.4429,-0.00813,1.60178,1.01804
246.049,17.46104,-0.00813,1.60151,1.01774
246.649,17.47925,-0.00813,1.60403,1.01745
247.249,17.49739,-0.00813,1.60342,1.01715
247.849,17.51555,-0.00813,1.60645,1.01685
248.449,17.5337,-0.00813,1.60827,1.01655
249.049,17.55187,-0.00813,1.6086,1.01626
249.649,17.57002,-0.008129991,1.60778,1.01596
250.249,17.5882,-0.008130222,1.61043,1.01566
250.849,17.60633,-0.00813189,1.6106,1.01535
251.449,17.62445,-0.00871288,1.60979,1.01505
252.049,17.6426,-0.008791864,1.61312,1.01475
252.649,17.66069,-0.008789982,1.61532,1.01445
253.249,17.67882,-0.008789999,1.61567,1.01414
253.849,17.69695,-0.00879,1.61782,1.01384
254.449,17.7151,-0.00879,1.61785,1.01354
255.049,17.73319,-0.00879,1.62075,1.01323
255.649,17.75134,-0.00879,1.61952,1.01292
256.249,17.76949,-0.00879,1.62182,1.01262
256.849,17.78764,-0.00879,1.62334,1.01231
257.449,17.8058,-0.00879,1.62557,1.012
258.049,17.82388,-0.00879,1.62384,1.01169
258.649,17.84197,-0.00879,1.6255,1.01138
259.249,17.86011,-0.00879,1.62583,1.01107
259.849,17.87828,-0.00879,1.62665,1.01076
260.449,17.89641,-0.00879,1.6301,1.01045
261.049,17.91453,-0.00879,1.62936,1.01014
261.649,17.93262,-0.00879,1.6312,1.00982
262.249,17.95063,-0.00879,1.63201,1.00951
262.849,17.96874,-0.00879,1.63481,1.0092
263.449,17.9869,-0.00879,1.63425,1.00888
264.049,18.00507,-0.00879,1.63537,1.00857
264.649,18.02327,-0.008790001,1.63843,1.00825
265.249,18.04146,-0.008789992,1.63921,1.00793
265.849,18.05954,-0.008789907,1.63917,1.00761
266.449,18.07766,-0.008803471,1.64061,1.0073
267.049,18.09574,-0.009732459,1.64193,1.00698
267.649,18.1139,-0.01010157,1.64198,1.00666
268.249,18.13198,-0.01009985,1.64529,1.00634
268.849,18.15004,-0.01011533,1.64643,1.00602
269.449,18.1681,-0.01086991,1.64795,1.0057
270.049,18.18613,-0.01107937,1.64988,1.00537
270.649,18.2042,-0.01108006,1.65098,1.00505
271.249,18.2223,-0.01108,1.65282,1.00473
271.849,18.2404,-0.01108,1.65272,1.0044
272.449,18.25854,-0.01108008,1.65576,1.00408
273.049,18.2767,-0.01107518,1.65539,1.00375
273.649,18.2947,-0.0106216,1.65656,1.00343
274.249,18.3128,-0.009767404,1.65965,1.0031
274.849,18.3309,-0.009770271,1.66038,1.00277
275.449,18.34902,-0.00976999,1.6609,1.00245
276.049,18.36721,-0.00977,1.66329,1.00212
276.649,18.38541,-0.00977,1.66429,1.00179
277.249,18.40356,-0.00977,1.66489,1.00146
277.849,18.4217,-0.00977,1.66713,1.00113
278.449,18.43978,-0.00977,1.66806,1.0008
279.049,18.45777,-0.00977,1.66908,1.00047
279.649,18.47587,-0.00977,1.67222,1.00013
280.249,18.494,-0.00977,1.6719,0.9998
280.849,18.5121,-0.009769999,1.67571,0.99947
281.449,18.53029,-0.00977007,1.67421,0.99913
282.049,18.54835,-0.009768114,1.67643,0.9988
282.649,18.56652,-0.009763433,1.67875,0.99846
283.249,18.58468,-0.01112134,1.68096,0.99813
283.849,18.6028,-0.01108911,1.68066,0.99779
284.449,18.62099,-0.01108808,1.68216,0.99745
285.049,18.63905,-0.01081935,1.6842,0.99711
285.649,18.65713,-0.01043587,1.68351,0.99677
286.249,18.67525,-0.01042987,1.68596,0.99644
286.849,18.69335,-0.01043,1.68582,0.9961
287.449,18.7115,-0.01043,1.68991,0.99575
288.049,18.7296,-0.01043,1.692,0.99541
288.649,18.74775,-0.01043,1.69223,0.99507
289.249,18.7659,-0.01043,1.69432,0.99473
289.849,18.78404,-0.01043,1.6932,0.99439
290.449,18.80217,-0.01043005,1.69545,0.99404
291.049,18.82031,-0.01042971,1.69782,0.9937
291.649,18.83848,-0.01038533,1.69732,0.99335
292.249,18.8566,-0.01178821,1.69868,0.99301
292.849,18.87471,-0.01173976,1.69839,0.99266
293.449,18.89284,-0.01174731,1.7007,0.99231
294.049,18.91092,-0.01048683,1.70032,0.99197
294.649,18.92911,-0.01041864,1.70382,0.99162
295.249,18.94727,-0.01042007,1.70628,0.99127
295.849,18.96542,-0.01042392,1.70519,0.99092
296.449,18.98355,-0.01110311,1.70638,0.99057
297.049,19.00165,-0.01173536,1.70705,0.99022
297.649,19.01977,-0.01173998,1.70907,0.98987
298.249,19.03789,-0.01174,1.71117,0.98952
298.849,19.05605,-0.01174,1.71209,0.98917
299.449,19.07426,-0.01173992,1.71418,0.98881
300.049,19.09243,-0.01173745,1.71533,0.98846
300.649,19.11058,-0.01099355,1.71574,0.98811
301.249,19.12875,-0.01075572,1.71725,0.98775
301.849,19.1469,-0.01076002,1.71941,0.9874
302.449,19.16509,-0.01076,1.71838,0.98704
303.049,19.1832,-0.01076003,1.72162,0.98668
303.649,19.20141,-0.01075935,1.72137,0.98633
304.249,19.2195,-0.01075185,1.72194,0.98597
304.849,19.23765,-0.01223114,1.72441,0.98561
305.449,19.25582,-0.01240386,1.72601,0.98525
306.049,19.27391,-0.01239997,1.7246,0.98489
306.649,19.29202,-0.0124,1.7279,0.98453
307.249,19.31014,-0.0124,1.72924,0.98417
307.849,19.32826,-0.0124,1.73081,0.98381
308.449,19.34645,-0.0124,1.72958,0.98345
309.049,19.3646,-0.0124,1.73113,0.98309
309.649,19.38281,-0.0124,1.73267,0.98272
310.249,19.40099,-0.01240009,1.73484,0.98236
310.849,19.41916,-0.01240266,1.73548,0.98199
311.449,19.43741,-0.01316821,1.73868,0.98163
312.049,19.4556,-0.0133843,1.73746,0.98126
312.649,19.4738,-0.01337997,1.73839,0.9809
313.249,19.49196,-0.01338,1.739,0.98053
313.849,19.51005,-0.01338,1.74105,0.98016
314.449,19.52819,-0.01338,1.7407,0.9798
315.049,19.54635,-0.01338,1.74267,0.97943
315.649,19.5645,-0.01338,1.74552,0.97906
316.249,19.5827,-0.01338,1.74763,0.97869
316.849,19.6009,-0.01337997,1.74757,0.97832
317.449,19.61906,-0.01337881,1.74871,0.97795
318.049,19.63728,-0.01354548,1.74893,0.97758
318.649,19.65549,-0.01403316,1.75146,0.97721
319.249,19.67365,-0.01404003,1.75271,0.97683
319.849,19.6919,-0.01404,1.75479,0.97646
320.449,19.7101,-0.01404,1.75402,0.97609
321.049,19.7283,-0.01404,1.75389,0.97571
321.649,19.7466,-0.01404,1.75806,0.97534
322.249,19.76482,-0.01404063,1.75793,0.97496
322.849,19.78302,-0.014009,1.75911,0.97459
323.449,19.8012,-0.01436278,1.75991,0.97421
324.049,19.8194,-0.01436988,1.76229,0.97383
324.649,19.8376,-0.01436999,1.76478,0.97346
325.249,19.85582,-0.01437065,1.76456,0.97308
325.849,19.87409,-0.01436061,1.76548,0.9727
326.449,19.89234,-0.01441859,1.76692,0.97232
327.049,19.9105,-0.01436728,1.76953,0.97194
327.649,19.92871,-0.01437006,1.77053,0.97156
328.249,19.94689,-0.01437,1.77237,0.97118
328.849,19.96513,-0.01437,1.77361,0.9708
329.449,19.9834,-0.01437,1.77239,0.97041
330.049,20.00167,-0.01437004,1.77577,0.97003
330.649,20.01998,-0.01437002,1.77711,0.96965
331.249,20.03828,-0.01431376,1.77658,0.96926
331.849,20.05657,-0.01537567,1.77913,0.96888
332.449,20.07487,-0.01535972,1.77979,0.96849
333.049,20.09315,-0.01535997,1.7791,0.96811
333.649,20.11141,-0.01536908,1.78103,0.96772
334.249,20.12964,-0.01572479,1.78273,0.96734
334.849,20.14791,-0.01568947,1.78533,0.96695
335.449,20.16619,-0.01568999,1.78082,0.96656
336.049,20.1845,-0.01569,1.78401,0.96617
336.649,20.2028,-0.01569004,1.78427,0.96578
337.249,20.22104,-0.01568936,1.78541,0.9654
337.849,20.23929,-0.01567429,1.78862,0.96501
338.449,20.25756,-0.01676077,1.7884,0.96461
339.049,20.27584,-0.01732492,1.78874,0.96422
339.649,20.29413,-0.01733006,1.79133,0.96383
340.249,20.31247,-0.01733,1.78938,0.96344
340.849,20.33073,-0.0173299,1.78943,0.96305
341.449,20.34907,-0.0173337,1.79098,0.96265
342.049,20.36741,-0.01772711,1.79567,0.96226
342.649,20.38573,-0.01865503,1.79511,0.96187
343.249,20.40408,-0.01864972,1.79764,0.96147
343.849,20.42243,-0.01865001,1.80053,0.96108
344.449,20.44076,-0.01865,1.8014,0.96068
345.049,20.45905,-0.01865,1.80257,0.96028
345.649,20.47737,-0.01865,1.80269,0.95989
346.249,20.49563,-0.01865,1.80303,0.95949
346.849,20.5139,-0.01865001,1.80477,0.95909
347.449,20.53227,-0.0186507,1.80859,0.95869
348.049,20.55056,-0.01859792,1.80794,0.95829
348.649,20.56888,-0.02002136,1.80766,0.95789
349.249,20.58719,-0.01996976,1.80855,0.95749
349.849,20.60549,-0.01998221,1.80939,0.95709
350.449,20.6238,-0.02088378,1.81215,0.95669
351.049,20.64217,-0.02091574,1.8138,0.95629
351.649,20.6605,-0.02160271,1.8151,0.95589
352.249,20.67884,-0.02160955,1.81391,0.95548
352.849,20.69716,-0.02161002,1.816,0.95508
353.449,20.71549,-0.02161002,1.81856,0.95468
354.049,20.7338,-0.02160976,1.81977,0.95427
354.649,20.7521,-0.02159001,1.82202,0.95387
355.249,20.77051,-0.0222918,1.8222,0.95346
355.849,20.78879,-0.02226951,1.82299,0.95305
356.449,20.80722,-0.02227,1.82244,0.95265
357.049,20.8256,-0.02226999,1.8281,0.95224
357.649,20.84388,-0.022271,1.82792,0.95183
358.249,20.86232,-0.02223333,1.82768,0.95142
358.849,20.88065,-0.02361489,1.82781,0.95102
359.449,20.89892,-0.02359115,1.83016,0.95061
360.049,20.91732,-0.02358994,1.83197,0.9502
360.649,20.93572,-0.02359002,1.83333,0.94979
361.249,20.95407,-0.02358973,1.83382,0.94938
361.849,20.97257,-0.02357989,1.83675,0.94896
362.449,20.99095,-0.02483737,1.83776,0.94855
363.049,21.0093,-0.02490127,1.83957,0.94814
363.649,21.0277,-0.02489995,1.83932,0.94773
364.249,21.04614,-0.02489946,1.84324,0.94731
364.849,21.06456,-0.02507476,1.84232,0.9469
365.449,21.08292,-0.02623883,1.84268,0.94649
366.049,21.10129,-0.02621971,1.84532,0.94607
366.649,21.11965,-0.02622,1.84665,0.94566
367.249,21.13804,-0.02621999,1.84801,0.94524
367.849,21.15646,-0.02622032,1.84866,0.94482
368.449,21.1749,-0.02621139,1.85032,0.94441
369.049,21.19334,-0.02721097,1.85705,0.94399
369.649,21.21182,-0.02753772,1.8537,0.94357
370.249,21.23025,-0.02753983,1.85646,0.94315
370.849,21.2487,-0.0275486,1.85505,0.94273
371.449,21.26716,-0.028261,1.85553,0.94231
372.049,21.28559,-0.02884585,1.85783,0.94189
372.649,21.3041,-0.02885027,1.86067,0.94147
373.249,21.32252,-0.02884717,1.8621,0.94105
373.849,21.34095,-0.02890418,1.86204,0.94063
374.449,21.35941,-0.03017823,1.86134,0.94021
375.049,21.37782,-0.0301831,1.86115,0.93979
375.649,21.3963,-0.03118682,1.8609,0.93936
376.249,21.41481,-0.0314932,1.86201,0.93894
376.849,21.43326,-0.03149007,1.86395,0.93852
377.449,21.45175,-0.03144535,1.86327,0.93809
378.049,21.4703,-0.03284681,1.8641,0.93767
378.649,21.48871,-0.03279902,1.86377,0.93724
379.249,21.50721,-0.03279981,1.86656,0.93682
379.849,21.5257,-0.03278752,1.86613,0.93639
380.449,21.54421,-0.03405098,1.86778,0.93596
381.049,21.5627,-0.03412136,1.86848,0.93554
381.649,21.58126,-0.03411994,1.87123,0.93511
382.249,21.59976,-0.03411973,1.86956,0.93468
382.849,21.61822,-0.03431565,1.87019,0.93425
383.449,21.63676,-0.03544642,1.87106,0.93382
384.049,21.65523,-0.03542889,1.87383,0.93339
384.649,21.67372,-0.03543716,1.87377,0.93296
385.249,21.69223,-0.03672576,1.87373,0.93253
385.849,21.7107,-0.03676496,1.87443,0.9321
386.449,21.72922,-0.03772041,1.8764,0.93167
387.049,21.74774,-0.0380769,1.87675,0.93124
387.649,21.76632,-0.03868731,1.87948,0.9308
388.249,21.78487,-0.03937257,1.88078,0.93037
388.849,21.80349,-0.03938521,1.88127,0.92994
389.449,21.82209,-0.03990888,1.88175,0.9295
390.049,21.84057,-0.04070756,1.88623,0.92907
390.649,21.85909,-0.04170874,1.88655,0.92863
391.249,21.87764,-0.04245142,1.88934,0.9282
391.849,21.89619,-0.0430059,1.8883,0.92776
392.449,21.91479,-0.04298786,1.89205,0.92733
393.049,21.9334,-0.04432315,1.89147,0.92689
393.649,21.95199,-0.04430528,1.89395,0.92645
394.249,21.9706,-0.04562574,1.8967,0.92601
394.849,21.98919,-0.04571534,1.89594,0.92558
395.449,22.00777,-0.04721507,1.89823,0.92514
396.049,22.02635,-0.04717168,1.90162,0.9247
396.649,22.0449,-0.04799635,1.90625,0.92426
397.249,22.0635,-0.04849045,1.90664,0.92382
397.849,22.0821,-0.04901174,1.90824,0.92338
398.449,22.10068,-0.04991828,1.91212,0.92294
399.049,22.1193,-0.05048037,1.91271,0.9225
399.649,22.13799,-0.05133472,1.91422,0.92205
400.249,22.15662,-0.05198378,1.91631,0.92161
400.849,22.17523,-0.05276968,1.9167,0.92117
401.449,22.19386,-0.05350215,1.92089,0.92073
402.049,22.21245,-0.05418861,1.92537,0.92028
402.649,22.23106,-0.05502598,1.92485,0.91984
403.249,22.2497,-0.05568298,1.93028,0.91939
403.849,22.2683,-0.05733571,1.93085,0.91895
404.449,22.287,-0.05728441,1.9362,0.9185
405.049,22.30568,-0.05882125,1.93759,0.91806
405.649,22.32432,-0.05881207,1.93997,0.91761
406.249,22.34292,-0.05985674,1.94745,0.91716
406.849,22.36151,-0.06031546,1.94834,0.91672
407.449,22.38012,-0.06175973,1.95193,0.91627
408.049,22.39869,-0.06326621,1.95705,0.91582
408.649,22.4173,-0.06454294,1.95996,0.91537
409.249,22.43587,-0.06500176,1.96518,0.91492
409.849,22.45455,-0.06633802,1.97413,0.91447
410.449,22.47327,-0.06789535,1.98598,0.91402
411.049,22.49202,-0.06811326,1.99345,0.91357
411.649,22.51073,-0.06955218,2.00193,0.91312
412.249,22.5294,-0.07089928,2.008,0.91267
412.849,22.54806,-0.07156807,2.01247,0.91222
413.449,22.56675,-0.0728406,2.01842,0.91177
414.049,22.58547,-0.07435134,2.02457,0.91131
414.649,22.60419,-0.07587926,2.02761,0.91086
415.249,22.6229,-0.07622682,2.03346,0.91041
415.849,22.6416,-0.0776571,2.03923,0.90995
416.449,22.6602,-0.0793488,2.04458,0.9095
417.049,22.6789,-0.08050546,2.04897,0.90905
417.649,22.69766,-0.08250257,2.05331,0.90859
418.249,22.71643,-0.08528149,2.06079,0.90814
418.849,22.7352,-0.08651672,2.0691,0.90768
419.449,22.75403,-0.08767981,2.07754,0.90722
420.049,22.77282,-0.08960919,2.08816,0.90677
420.649,22.79155,-0.09176771,2.09732,0.90631
421.249,22.8103,-0.09372809,2.10612,0.90585
421.849,22.82899,-0.09561809,2.11378,0.90539
422.449,22.84769,-0.09789578,2.12058,0.90493
423.049,22.8664,-0.09992766,2.12469,0.90448
423.649,22.8852,-0.10276,2.13822,0.90402
424.249,22.904,-0.10522,2.14589,0.90356
424.849,22.92284,-0.10723,2.15429,0.9031
425.449,22.94166,-0.10943,2.16418,0.90264
426.049,22.9604,-0.11181,2.17253,0.90218
426.649,22.97917,-0.1139,2.18809,0.90171
427.249,22.9979,-0.11595,2.20668,0.90125
427.849,23.01666,-0.11841,2.21943,0.90079
428.449,23.0354,-0.12116,2.22931,0.90033
429.049,23.05426,-0.12328,2.24427,0.89986
429.649,23.07304,-0.12644,2.25419,0.8994
430.249,23.09188,-0.12926,2.26675,0.89894
430.849,23.11071,-0.13229,2.27852,0.89847
431.449,23.12952,-0.13467,2.29111,0.89801
432.049,23.14836,-0.13802,2.30854,0.89754
432.649,23.16714,-0.14213,2.32621,0.89708
433.249,23.18596,-0.14493,2.34534,0.89661
433.849,23.20477,-0.14809,2.36163,0.89615
434.449,23.22362,-0.15085,2.38083,0.89568
435.049,23.2425,-0.15429,2.39904,0.89521
435.649,23.26135,-0.16004,2.42083,0.89474
436.249,23.2802,-0.16447,2.47623,0.89428
436.849,23.29896,-0.1693,2.52533,0.89381
437.449,23.31776,-0.17354,2.53628,0.89334
438.049,23.3367,-0.17823,2.54505,0.89287
438.649,23.3556,-0.18265,2.55591,0.8924
439.249,23.3746,-0.18789,2.57345,0.89193
439.849,23.39358,-0.19223,2.58846,0.89146
440.449,23.41244,-0.19646,2.60412,0.89099
441.049,23.43136,-0.20188,2.62608,0.89052
441.649,23.45025,-0.20778,2.65367,0.89005
442.249,23.46912,-0.21383,2.67776,0.88958
442.849,23.48806,-0.21983,2.70313,0.8891
443.449,23.50689,-0.22637,2.72768,0.88863
444.049,23.52572,-0.23361,2.75107,0.88816
444.649,23.54467,-0.24073,2.77449,0.88768
445.249,23.5636,-0.2478,2.80535,0.88721
445.849,23.58257,-0.25452,2.83624,0.88674
446.449,23.6016,-0.26182,2.86809,0.88626
447.049,23.6205,-0.26998,2.89859,0.88579
447.649,23.63946,-0.27913,2.93603,0.88531
448.249,23.6584,-0.28777,2.96869,0.88484
448.849,23.6773,-0.29582,3.00915,0.88436
449.449,23.69632,-0.30412,3.05451,0.88388
450.049,23.71528,-0.313,3.10384,0.88341
450.649,23.73426,-0.32254,3.14783,0.88293
451.249,23.7532,-0.33284,3.18012,0.88245
451.849,23.77215,-0.34334,3.23094,0.88198
452.449,23.79115,-0.35382,3.29123,0.8815
453.049,23.81021,-0.36448,3.33157,0.88102
453.649,23.82925,-0.37519,3.38452,0.88054
454.249,23.84826,-0.38677,3.45048,0.88006
454.849,23.8673,-0.39868,3.49666,0.87958
455.449,23.88627,-0.41128,3.55902,0.8791
456.049,23.90532,-0.42472,3.62628,0.87862
456.649,23.92436,-0.43933,3.68415,0.87814
457.249,23.94339,-0.45487,3.74548,0.87766
457.849,23.96248,-0.47097,3.81345,0.87718
458.449,23.98152,-0.48709,3.88276,0.8767
459.049,24.0006,-0.50393,3.95367,0.87621
459.649,24.01974,-0.52283,4.02079,0.87573
460.249,24.03886,-0.54121,4.10058,0.87525
460.849,24.05797,-0.55968,4.1799,0.87476
461.449,24.07713,-0.57908,4.24776,0.87428
462.049,24.0962,-0.59979,4.33276,0.8738
462.649,24.11538,-0.62172,4.41131,0.87331
463.249,24.13449,-0.64383,4.49272,0.87283
463.849,24.1536,-0.66732,4.58529,0.87234
464.449,24.17274,-0.69127,4.67469,0.87186
465.049,24.1919,-0.71538,4.76243,0.87137
465.649,24.21104,-0.74123,4.85114,0.87088
466.249,24.23028,-0.76854,4.94417,0.8704
466.849,24.24942,-0.797,5.04146,0.86991
467.449,24.2686,-0.82656,5.1351,0.86942
468.049,24.28775,-0.85829,5.22695,0.86894
468.649,24.3069,-0.89033,5.33253,0.86845
469.249,24.3262,-0.92404,5.42294,0.86796
469.849,24.3455,-0.95784,5.5277,0.86747
470.449,24.36474,-0.99384,5.62166,0.86698
471.049,24.384,-1.03087,5.73247,0.86649
471.649,24.4032,-1.06931,5.82388,0.866
472.249,24.4225,-1.10952,5.92163,0.86551
472.849,24.4418,-1.15085,6.01895,0.86502
473.449,24.46106,-1.19444,6.11359,0.86453
474.049,24.48036,-1.23821,6.21354,0.86404
474.649,24.4997,-1.28449,6.30741,0.86355
475.249,24.51898,-1.32968,6.40978,0.86306
475.849,24.53835,-1.38091,6.47994,0.86257
476.449,24.5577,-1.4593,6.56765,0.86208
477.049,24.57691,-1.51457,6.64278,0.86158
477.649,24.5962,-1.55768,6.7132,0.86109
478.249,24.6155,-1.61424,6.77465,0.8606
478.849,24.63476,-1.67258,6.85084,0.8601
479.449,24.6542,-1.73176,6.90578,0.85961
480.049,24.67359,-1.7921,7.00213,0.85912
480.649,24.69295,-1.85376,7.04757,0.85862
481.249,24.71227,-1.91751,7.08379,0.85813
481.849,24.7316,-1.9825,7.09431,0.85763
482.449,24.75088,-2.04949,7.09956,0.85714
483.049,24.77016,-2.11739,7.08579,0.85664
483.649,24.78941,-2.18603,7.05672,0.85614
484.249,24.8087,-2.25499,7.03977,0.85565
484.849,24.82795,-2.32398,7.0077,0.85515
485.449,24.84722,-2.39246,6.94841,0.85465
486.049,24.86646,-2.46116,6.87817,0.85416
486.649,24.88556,-2.52989,6.80009,0.85366
487.249,24.90472,-2.59866,6.71405,0.85316
487.849,24.92388,-2.66678,6.61592,0.85266
488.449,24.94298,-2.73451,6.48911,0.85216
489.049,24.9621,-2.80161,6.36121,0.85166
489.649,24.98123,-2.86791,6.21318,0.85116
490.249,25.00025,-2.93254,6.05125,0.85067
490.849,25.01932,-2.99689,5.87444,0.85017
491.449,25.03831,-3.0592,5.68344,0.84966
492.049,25.05728,-3.1193,5.48279,0.84916
492.649,25.07635,-3.17827,5.26567,0.84866
493.249,25.09536,-3.23511,5.03974,0.84816
493.849,25.11433,-3.28956,4.80481,0.84766
494.449,25.13329,-3.3417,4.5603,0.84716
495.049,25.15222,-3.39243,4.30999,0.84666
495.649,25.17114,-3.44133,4.05463,0.84615
496.249,25.19,-3.48677,3.80263,0.84565
496.849,25.20881,-3.5302,3.54552,0.84515
497.449,25.22762,-3.56548,3.29053,0.84465
498.049,25.24641,-3.59909,3.0421,0.84414
498.649,25.2652,-3.63404,2.80336,0.84364
499.249,25.28394,-3.66536,2.56913,0.84313
499.849,25.3027,-3.69428,2.34756,0.84263
500.449,25.32139,-3.72099,2.13887,0.84213
501.049,25.34009,-3.74447,1.94118,0.84162
501.649,25.35878,-3.76617,1.75399,0.84112
502.249,25.37746,-3.78516,1.58159,0.84061
502.849,25.3962,-3.80267,1.4202,0.8401
503.449,25.41491,-3.81843,1.2765,0.8396
504.049,25.43359,-3.83229,1.14239,0.83909
504.649,25.4523,-3.84484,1.02097,0.83858
505.249,25.47093,-3.85517,0.91174,0.83808
505.849,25.4896,-3.86512,0.81236,0.83757
506.449,25.50831,-3.87382,0.72332,0.83706
507.049,25.527,-3.88115,0.64303,0.83655
507.649,25.5457,-3.88785,0.57063,0.83605
508.249,25.56445,-3.89385,0.50691,0.83554
508.849,25.5833,-3.89983,0.44842,0.83503
509.449,25.60213,-3.90514,0.40107,0.83452
510.049,25.62094,-3.90977,0.35817,0.83401
510.649,25.6398,-3.91353,0.314,0.8335
511.249,25.65859,-3.91703,0.27799,0.83299
511.849,25.67744,-3.91984,0.24751,0.83248
512.449,25.69633,-3.92204,0.22175,0.83197
513.049,25.7152,-3.92398,0.19395,0.83146
513.649,25.7341,-3.92638,0.17054,0.83095
514.249,25.75297,-3.92761,0.14981,0.83044
514.849,25.77196,-3.92907,0.13267,0.82993
515.449,25.791,-3.93052,0.11759,0.82942
516.049,25.80987,-3.93125,0.10315,0.8289
516.649,25.82892,-3.93191,0.08666807,0.82839
517.249,25.8479,-3.932,0.07684272,0.82788
517.849,25.867,-3.93324,0.06667794,0.82737
518.449,25.88614,-3.93324,0.05609524,0.82685
519.049,25.9052,-3.93324,0.05063748,0.82634
519.649,25.92419,-3.93324,0.04026888,0.82583
520.249,25.9432,-3.93324,0.03434994,0.82531
520.849,25.96203,-3.93324,0.02866232,0.8248
521.449,25.98102,-3.93324,0.02214094,0.82428
522.049,26.00017,-3.93324,0.02025751,0.82377
522.649,26.01945,-3.93325,0.01627007,0.82325
523.249,26.03884,-3.93444,0.00969515,0.82274
523.849,26.0581,-3.93521,0.004622315,0.82222
524.449,26.0773,-3.93522,0.00128075,0.82171
525.049,26.09639,-3.93517,-0.001785747,0.82119
525.649,26.1156,-3.93658,-0.001413182,0.82068
526.249,26.1347,-3.93654,-0.007691249,0.82016
526.849,26.15394,-3.9362,-0.00552648,0.81964
527.449,26.17313,-3.9362,-0.007722092,0.81913
528.049,26.19236,-3.9362,-0.009836744,0.81861
528.649,26.2116,-3.9362,-0.01264583,0.81809
529.249,26.2307,-3.9362,-0.01055504,0.81757
529.849,26.2499,-3.9362,-0.01050014,0.81706
530.449,26.26898,-3.9362,-0.01044284,0.81654
531.049,26.2881,-3.93618,-0.009866461,0.81602
531.649,26.30736,-3.93652,-0.008402343,0.8155
532.249,26.32665,-3.93653,-0.009461155,0.81498
532.849,26.34593,-3.93719,-0.008999794,0.81446
533.449,26.36525,-3.93719,-0.01029843,0.81394
534.049,26.38447,-3.93719,-0.009842465,0.81342
534.649,26.40369,-3.93719,-0.01345317,0.8129
535.249,26.4229,-3.93719,-0.01259691,0.81238
535.849,26.4422,-3.93719,-0.01419767,0.81186
536.449,26.46155,-3.93719,-0.01759334,0.81134
537.049,26.4808,-3.93719,-0.01724813,0.81082
537.649,26.50011,-3.93753,-0.01663611,0.8103
538.249,26.5194,-3.93851,-0.01527565,0.80978
538.849,26.53864,-3.93851,-0.01305689,0.80926
539.449,26.558,-3.93851,-0.01510641,0.80874
540.049,26.57732,-3.93851,-0.01422953,0.80821
540.649,26.59665,-3.93851,-0.01448007,0.80769
541.249,26.61598,-3.93851,-0.01267124,0.80717
541.849,26.6353,-3.93855,-0.01361623,0.80665
542.449,26.6546,-3.93751,-0.01378481,0.80612
543.049,26.67387,-3.93752,-0.01379815,0.8056
543.649,26.6932,-3.93752,-0.0136108,0.80508
544.249,26.7125,-3.93752,-0.01349539,0.80456
544.849,26.7319,-3.93662,-0.01395858,0.80403
545.449,26.75123,-3.93779,-0.009698146,0.80351
546.049,26.7706,-3.93785,-0.01381215,0.80298
546.649,26.79,-3.93785,-0.01355012,0.80246
547.249,26.8093,-3.93785,-0.01293411,0.80193
547.849,26.82865,-3.93785,-0.01101533,0.80141
548.449,26.8479,-3.93785,-0.01170048,0.80088
549.049,26.86732,-3.93785,-0.01082708,0.80036
549.649,26.8867,-3.93785,-0.01204287,0.79983
550.249,26.9061,-3.93786,-0.01040724,0.79931
550.849,26.9255,-3.93882,-0.007474798,0.79878
551.449,26.9449,-3.93884,-0.00559487,0.79826
552.049,26.9643,-3.93884,-0.005341598,0.79773
552.649,26.9838,-3.93884,-0.004138818,0.7972
553.249,27.0032,-3.93884,-0.004247183,0.79668
553.849,27.0225,-3.93884,-0.00544338,0.79615
554.449,27.0419,-3.93884,-0.008132715,0.79562
555.049,27.06135,-3.93884,-0.008154755,0.7951
555.649,27.0808,-3.93884,-0.01013102,0.79457
556.249,27.10035,-3.93884,-0.0168175,0.79404
556.849,27.1198,-3.93884,-0.01935132,0.79351
557.449,27.1393,-3.93857,-0.02081993,0.79298
558.049,27.15877,-3.93751,-0.02363385,0.79246
558.649,27.17823,-3.93752,-0.02652843,0.79193
559.249,27.19768,-3.93752,-0.02911853,0.7914
559.849,27.21708,-3.93752,-0.0315565,0.79087
560.449,27.23651,-3.93752,-0.02949059,0.79034
561.049,27.256,-3.93752,-0.03492685,0.78981
561.649,27.2755,-3.93752,-0.03328811,0.78928
562.249,27.29502,-3.93752,-0.03437203,0.78875
562.849,27.31448,-3.93761,-0.03506669,0.78822
563.449,27.33395,-3.93818,-0.03852706,0.78769
564.049,27.3534,-3.93818,-0.03649281,0.78716
564.649,27.37299,-3.93917,-0.03983469,0.78663
565.249,27.3925,-3.93916,-0.03673348,0.7861
565.849,27.41204,-3.93916,-0.03599647,0.78557
566.449,27.4315,-3.93916,-0.03847904,0.78504
567.049,27.451,-3.93916,-0.03752708,0.78451
567.649,27.47046,-3.93916,-0.03842344,0.78398
568.249,27.4898,-3.93916,-0.04279128,0.78344
568.849,27.50927,-3.93916,-0.04085139,0.78291
569.449,27.5288,-3.93916,-0.04141411,0.78238
570.049,27.54845,-3.93916,-0.04242602,0.78185
570.649,27.56819,-3.93916,-0.0438319,0.78132
571.249,27.5877,-3.93916,-0.04513843,0.78078
571.849,27.60727,-3.93916,-0.04509589,0.78025
572.449,27.62687,-3.93916,-0.0467018,0.77972
573.049,27.6464,-3.93916,-0.04556727,0.77918
573.649,27.66595,-3.93916,-0.04735258,0.77865
574.249,27.68555,-3.93916,-0.04836152,0.77812
574.849,27.70508,-3.93916,-0.04819792,0.77758
575.449,27.72464,-3.93916,-0.0476753,0.77705
576.049,27.74421,-3.93916,-0.04796044,0.77652
576.649,27.76377,-3.93916,-0.04920242,0.77598
577.249,27.78335,-3.93916,-0.04816735,0.77545
577.849,27.80295,-3.93916,-0.04936287,0.77491
578.449,27.82252,-3.93917,-0.04957933,0.77438
579.049,27.84212,-3.93962,-0.04944854,0.77384
579.649,27.86168,-3.93982,-0.0477707,0.77331
580.249,27.8812,-3.93982,-0.0515944,0.77277
580.849,27.90075,-3.93982,-0.05161484,0.77224
581.449,27.92032,-3.93982,-0.05127505,0.7717
582.049,27.93985,-3.93982,-0.04648911,0.77117
582.649,27.95935,-3.93982,-0.04770796,0.77063
583.249,27.97885,-3.93982,-0.04910715,0.7701
583.849,27.9985,-3.93987,-0.04989238,0.76956
584.449,28.0181,-3.93882,-0.0505915,0.76902
585.049,28.0377,-3.93883,-0.04786825,0.76849
585.649,28.0574,-3.93883,-0.05077322,0.76795
586.249,28.07698,-3.93883,-0.0477339,0.76741
586.849,28.09661,-3.93883,-0.05085994,0.76688
587.449,28.1162,-3.93883,-0.0506852,0.76634
588.049,28.13578,-3.93883,-0.04806007,0.7658
588.649,28.15526,-3.93883,-0.05074731,0.76526
589.249,28.1748,-3.93883,-0.04685911,0.76473
589.849,28.1944,-3.93883,-0.04836335,0.76419
590.449,28.214,-3.93883,-0.04730435,0.76365
591.049,28.2336,-3.93883,-0.04653951,0.76311
591.649,28.25328,-3.93883,-0.04723635,0.76258
592.249,28.2729,-3.93913,-0.04540409,0.76204
592.849,28.2925,-3.93949,-0.04397108,0.7615
593.449,28.3121,-3.93949,-0.04394763,0.76096
594.049,28.33175,-3.93946,-0.04571502,0.76042
594.649,28.35143,-3.93981,-0.04538068,0.75988
595.249,28.3711,-3.93982,-0.04787028,0.75934
595.849,28.3908,-3.93982,-0.0448647,0.75881
596.449,28.4105,-3.93982,-0.04795576,0.75827
597.049,28.4301,-3.93982,-0.05009145,0.75773
597.649,28.44967,-3.93983,-0.04744804,0.75719
598.249,28.4693,-3.94031,-0.04756075,0.75665
598.849,28.489,-3.94048,-0.04882271,0.75611
599.449,28.50865,-3.94048,-0.04789144,0.75557
600.049,28.5283,-3.94048,-0.04703726,0.75503
600.649,28.54792,-3.94048,-0.0504474,0.75449
601.249,28.56748,-3.94048,-0.04989741,0.75395
601.849,28.587,-3.94048,-0.05121869,0.75341
602.449,28.6067,-3.94048,-0.0504123,0.75287
603.049,28.6262,-3.94048,-0.05268191,0.75232
603.649,28.64582,-3.94048,-0.05212559,0.75178
604.249,28.6655,-3.94048,-0.04997578,0.75124
604.849,28.6851,-3.94048,-0.05158064,0.7507
605.449,28.7048,-3.94048,-0.049129,0.75016
606.049,28.72445,-3.94048,-0.05036039,0.74962
606.649,28.74407,-3.94048,-0.04968174,0.74908
607.249,28.7638,-3.94048,-0.04933237,0.74854
607.849,28.7835,-3.94048,-0.05110032,0.74799
608.449,28.8033,-3.94048,-0.05069536,0.74745
609.049,28.82293,-3.94048,-0.05073213,0.74691
609.649,28.8426,-3.94045,-0.05115128,0.74637
610.249,28.8622,-3.94024,-0.04846439,0.74583
610.849,28.8818,-3.93984,-0.04883374,0.74528
611.449,28.90147,-3.93879,-0.04775978,0.74474
612.049,28.9212,-3.93886,-0.04735086,0.7442
612.649,28.94087,-3.93753,-0.04925805,0.74366
613.249,28.96057,-3.93904,-0.04447922,0.74311
613.849,28.98009,-3.93905,-0.04564233,0.74257
614.449,28.99963,-3.94037,-0.04725647,0.74203
615.049,29.01928,-3.94037,-0.04810943,0.74148
615.649,29.03892,-3.94037,-0.04661291,0.74094
616.249,29.0588,-3.94037,-0.04604288,0.7404
616.849,29.0785,-3.94038,-0.0455593,0.73985
617.449,29.0981,-3.94156,-0.04670409,0.73931
618.049,29.11778,-3.94169,-0.04519469,0.73877
618.649,29.1374,-3.94169,-0.04806869,0.73822
619.249,29.157,-3.94169,-0.04591993,0.73768
619.849,29.1768,-3.94169,-0.05059054,0.73713
620.449,29.1965,-3.94169,-0.04731785,0.73659
621.049,29.2163,-3.94168,-0.046467,0.73604
621.649,29.23602,-3.9407,-0.04672196,0.7355
622.249,29.25572,-3.94037,-0.04787064,0.73496
622.849,29.27539,-3.94037,-0.04911707,0.73441
623.449,29.2951,-3.94037,-0.04485277,0.73387
624.049,29.31483,-3.94037,-0.04588292,0.73332
624.649,29.3346,-3.94047,-0.04597326,0.73278
625.249,29.3543,-3.94103,-0.04596118,0.73223
625.849,29.37404,-3.94103,-0.04442741,0.73169
626.449,29.3937,-3.94103,-0.04769102,0.73114
627.049,29.41337,-3.94103,-0.04377752,0.7306
627.649,29.4331,-3.94103,-0.04507643,0.73005
628.249,29.4527,-3.94103,-0.04526982,0.72951
628.849,29.47236,-3.94158,-0.04769214,0.72896
629.449,29.4921,-3.94105,-0.04532355,0.72841
630.049,29.5118,-3.94103,-0.04467042,0.72787
630.649,29.53148,-3.94102,-0.04512657,0.72732
631.249,29.5512,-3.93986,-0.04352698,0.72678
631.849,29.5709,-3.93966,-0.04665576,0.72623
632.449,29.59065,-3.94107,-0.04424008,0.72568
633.049,29.61042,-3.94103,-0.04453764,0.72514
633.649,29.63012,-3.94103,-0.04137816,0.72459
634.249,29.64985,-3.94103,-0.04178255,0.72405
634.849,29.6695,-3.94118,-0.04144506,0.7235
635.449,29.68924,-3.94016,-0.040105,0.72295
636.049,29.70897,-3.94036,-0.04339681,0.72241
636.649,29.7287,-3.94037,-0.04072944,0.72186
637.249,29.7485,-3.94037,-0.03864767,0.72131
637.849,29.76823,-3.94034,-0.03897189,0.72077
638.449,29.788,-3.93871,-0.03938386,0.72022
639.049,29.80773,-3.93714,-0.04057876,0.71967
639.649,29.8275,-3.93718,-0.03655282,0.71912
640.249,29.84719,-3.93897,-0.03706457,0.71858
640.849,29.86688,-3.93894,-0.03804694,0.71803
641.449,29.88656,-3.94026,-0.03867035,0.71748
642.049,29.9063,-3.94026,-0.0354395,0.71693
642.649,29.9262,-3.94026,-0.03503288,0.71639
643.249,29.946,-3.94026,-0.03620616,0.71584
643.849,29.9658,-3.94026,-0.03527421,0.71529
644.449,29.98545,-3.94026,-0.03644758,0.71474
644.849,29.9987,-3.94026,-0.0367847,0.71438