File: 01_Data/Coffee_Machine/STA/N2/30K_min/Coffee_Maker_STA_N2_30KData_220203_R2.csv
##Temp./Â°C,Time/min,Mass loss(subtr.2)/mg,DSC(subtr.2)/(mW/mg),Sensit./(uV/mW)
48.363,10.00667,0.00966,-0.007360458,1.06965
48.963,10.5322,0.009172859,0.04721641,1.06959
49.563,10.64913,0.01164175,0.09216379,1.06954
50.163,10.7325,0.01094996,0.13271,1.06949
50.763,10.80085,0.01021842,0.17596,1.06943
51.363,10.86005,0.01163632,0.20897,1.06938
51.963,10.9125,0.01149225,0.24608,1.06932
52.563,10.96074,0.01015216,0.27542,1.06926
53.163,11.00528,0.01156108,0.30724,1.0692
53.763,11.04693,0.01203648,0.33685,1.06914
54.363,11.0863,0.01054513,0.36424,1.06908
54.963,11.12378,0.01182561,0.39114,1.06902
55.563,11.15959,0.01181454,0.41778,1.06895
56.163,11.19422,0.01166941,0.4431,1.06889
56.763,11.22754,0.01159187,0.46647,1.06883
57.363,11.25972,0.01149348,0.48864,1.06876
57.963,11.29117,0.01297852,0.51235,1.06869
58.563,11.32184,0.01222912,0.53381,1.06862
59.163,11.3515,0.01206199,0.55567,1.06855
59.763,11.37996,0.01141863,0.57401,1.06848
60.363,11.40841,0.01150664,0.59217,1.06841
60.963,11.4366,0.01212378,0.61309,1.06834
61.563,11.4643,0.01241002,0.63192,1.06827
62.163,11.49127,0.01250615,0.64783,1.06819
62.763,11.51784,0.01145886,0.66408,1.06812
63.363,11.5442,0.01137883,0.68205,1.06804
63.963,11.57007,0.01108716,0.69796,1.06796
64.563,11.59566,0.01213738,0.71429,1.06789
65.163,11.62083,0.01329346,0.72814,1.06781
65.763,11.64594,0.0129027,0.74293,1.06773
66.363,11.67066,0.01264158,0.75598,1.06765
66.963,11.69513,0.0126271,0.76643,1.06756
67.563,11.71937,0.01249539,0.78088,1.06748
68.163,11.74349,0.01230728,0.79218,1.0674
68.763,11.7674,0.01229703,0.80336,1.06731
69.363,11.79113,0.01212734,0.8126,1.06722
69.963,11.81462,0.01190614,0.82191,1.06714
70.563,11.83788,0.01168864,0.8324,1.06705
71.163,11.86104,0.01168999,0.84236,1.06696
71.763,11.88417,0.01189767,0.85121,1.06687
72.363,11.90713,0.0115963,0.85681,1.06678
72.963,11.93,0.01164434,0.86499,1.06669
73.563,11.9526,0.01183703,0.87117,1.06659
74.163,11.9753,0.01223786,0.87937,1.0665
74.763,11.9978,0.01310085,0.88409,1.06641
75.363,12.02004,0.01316457,0.89094,1.06631
75.963,12.04229,0.01317702,0.8964,1.06621
76.563,12.06442,0.01194145,0.90148,1.06611
77.163,12.08654,0.01151759,0.90717,1.06602
77.763,12.10848,0.01259835,0.91148,1.06592
78.363,12.1304,0.01147883,0.91816,1.06582
78.963,12.1523,0.01300988,0.92531,1.06571
79.563,12.1741,0.01152087,0.92572,1.06561
80.163,12.19577,0.01196635,0.93232,1.06551
80.763,12.21751,0.01295685,0.93654,1.0654
81.363,12.23907,0.01205749,0.94075,1.0653
81.963,12.26079,0.01244063,0.94509,1.06519
82.563,12.2822,0.01166145,0.94878,1.06508
83.163,12.3035,0.01305123,0.95424,1.06497
83.763,12.3248,0.01173804,0.95832,1.06486
84.363,12.34575,0.01310366,0.96319,1.06475
84.963,12.36663,0.01162983,0.96523,1.06464
85.563,12.38764,0.01304842,0.96781,1.06453
86.163,12.4088,0.01226563,0.97248,1.06442
86.763,12.43011,0.01310031,0.97564,1.0643
87.363,12.4514,0.01383073,0.98016,1.06419
87.963,12.47219,0.01328196,0.98263,1.06407
88.563,12.493,0.01316397,0.98444,1.06395
89.163,12.5139,0.0131515,0.98997,1.06384
89.763,12.53475,0.01160763,0.99387,1.06372
90.363,12.55563,0.01168378,0.99599,1.0636
90.963,12.57643,0.0118855,0.99911,1.06348
91.563,12.59719,0.01164581,1.0031,1.06335
92.163,12.6178,0.01206999,1.00613,1.06323
92.763,12.63831,0.01196482,1.00817,1.06311
93.363,12.65884,0.01282807,1.01079,1.06298
93.963,12.67929,0.01378813,1.01357,1.06286
94.563,12.69992,0.01316895,1.01968,1.06273
95.163,12.72055,0.01284409,1.02219,1.0626
95.763,12.74114,0.01282287,1.02516,1.06247
96.363,12.7616,0.01419446,1.02811,1.06234
96.963,12.78198,0.01414083,1.02975,1.06221
97.563,12.80231,0.01320714,1.03256,1.06208
98.163,12.82262,0.01282361,1.03655,1.06195
98.763,12.843,0.01304593,1.03931,1.06181
99.363,12.86324,0.01309457,1.04223,1.06168
99.963,12.8836,0.01284215,1.0448,1.06155
100.563,12.9039,0.01355337,1.0475,1.06141
101.163,12.92424,0.01410762,1.04843,1.06127
101.763,12.94458,0.01294339,1.05254,1.06113
102.363,12.96482,0.01375834,1.05432,1.06099
102.963,12.98508,0.0142576,1.05949,1.06085
103.563,13.0053,0.01425598,1.06161,1.06071
104.163,13.02556,0.01337156,1.06403,1.06057
104.763,13.0458,0.01294143,1.0646,1.06043
105.363,13.06607,0.01293142,1.06552,1.06029
105.963,13.0863,0.01425323,1.0683,1.06014
106.563,13.10651,0.01425992,1.07214,1.06
107.163,13.1266,0.01426178,1.07395,1.05985
107.763,13.14679,0.01329173,1.0784,1.0597
108.363,13.167,0.01426865,1.08107,1.05955
108.963,13.1871,0.01427004,1.0817,1.0594
109.563,13.20721,0.01427,1.0853,1.05925
110.163,13.2273,0.01426988,1.08952,1.0591
110.763,13.24751,0.01427803,1.09161,1.05895
111.363,13.26772,0.01397777,1.09278,1.0588
111.963,13.28784,0.01426175,1.09625,1.05864
112.563,13.30799,0.01425996,1.10069,1.05849
113.163,13.32819,0.01425999,1.10218,1.05833
113.763,13.3483,0.01426064,1.10521,1.05818
114.363,13.36842,0.01421755,1.10761,1.05802
114.963,13.38835,0.01292288,1.11064,1.05786
115.563,13.40838,0.01294749,1.11101,1.0577
116.163,13.42839,0.01381255,1.11509,1.05754
116.763,13.4482,0.01426318,1.11647,1.05738
117.363,13.4682,0.01425998,1.12139,1.05722
117.963,13.48823,0.01425757,1.1231,1.05705
118.563,13.5084,0.01441023,1.12691,1.05689
119.163,13.52852,0.01476548,1.13039,1.05672
119.763,13.54855,0.01425538,1.1312,1.05656
120.363,13.56845,0.01426009,1.13696,1.05639
120.963,13.5883,0.01426003,1.14076,1.05622
121.563,13.6082,0.01425834,1.14458,1.05606
122.163,13.6281,0.01434775,1.149,1.05589
122.763,13.64794,0.01559188,1.15011,1.05572
123.363,13.6678,0.01457905,1.15566,1.05554
123.963,13.6875,0.01455745,1.15838,1.05537
124.563,13.70734,0.01425873,1.1635,1.0552
125.163,13.7271,0.01426002,1.16859,1.05502
125.763,13.747,0.01426,1.17407,1.05485
126.363,13.7668,0.01426,1.17803,1.05467
126.963,13.7866,0.01426,1.18303,1.0545
127.563,13.80635,0.01426002,1.18735,1.05432
128.163,13.826,0.01425806,1.19375,1.05414
128.763,13.84565,0.01332736,1.20114,1.05396
129.363,13.8652,0.01429408,1.20548,1.05378
129.963,13.8849,0.01426816,1.21231,1.0536
130.563,13.9046,0.01444754,1.22065,1.05342
131.163,13.9242,0.01559414,1.22709,1.05324
131.763,13.9438,0.01557969,1.23389,1.05305
132.363,13.9634,0.01558026,1.24389,1.05287
132.963,13.98293,0.01556826,1.25023,1.05268
133.563,14.0025,0.01461988,1.25694,1.05249
134.163,14.02195,0.01425557,1.2653,1.05231
134.763,14.04141,0.0142939,1.27484,1.05212
135.363,14.0608,0.01570793,1.2849,1.05193
135.963,14.08029,0.01568986,1.29508,1.05174
136.563,14.09975,0.01568999,1.30494,1.05155
137.163,14.1192,0.01569074,1.31613,1.05136
137.763,14.1387,0.01546259,1.32857,1.05116
138.363,14.15815,0.01435949,1.33929,1.05097
138.963,14.17756,0.01437027,1.35301,1.05078
139.563,14.19689,0.01437,1.36793,1.05058
140.163,14.2162,0.01436993,1.38041,1.05039
140.763,14.2356,0.014373,1.39623,1.05019
141.363,14.25494,0.01425216,1.41171,1.04999
141.963,14.27428,0.01336893,1.42856,1.04979
142.563,14.29359,0.01471332,1.44435,1.04959
143.163,14.3128,0.01436561,1.46486,1.04939
143.763,14.3321,0.01437022,1.48346,1.04919
144.363,14.3513,0.01436999,1.50297,1.04899
144.963,14.37062,0.01437,1.52635,1.04878
145.563,14.3899,0.01437,1.5466,1.04858
146.163,14.40913,0.01437,1.57292,1.04838
146.763,14.42831,0.01437,1.59723,1.04817
147.363,14.44744,0.01437002,1.62502,1.04796
147.963,14.4666,0.01437005,1.65395,1.04776
148.563,14.48581,0.01433886,1.68613,1.04755
149.163,14.505,0.01571562,1.71687,1.04734
149.763,14.52425,0.01568954,1.75368,1.04713
150.363,14.5434,0.01567655,1.79172,1.04692
150.963,14.56269,0.01470825,1.83133,1.04671
151.563,14.5819,0.01437651,1.87449,1.04649
152.163,14.6011,0.01437995,1.91909,1.04628
152.763,14.62026,0.01438108,1.96503,1.04607
153.363,14.63938,0.01342908,2.01697,1.04585
153.963,14.6585,0.01338808,2.07029,1.04563
154.563,14.6777,0.01339006,2.12579,1.04542
155.163,14.6969,0.01339,2.18602,1.0452
155.763,14.716,0.01339,2.24903,1.04498
156.363,14.73523,0.01339,2.3121,1.04476
156.963,14.75436,0.01339,2.38184,1.04454
157.563,14.7734,0.01339,2.45253,1.04432
158.163,14.79234,0.01339067,2.52601,1.0441
158.763,14.81145,0.01334172,2.60376,1.04388
159.363,14.83058,0.01474127,2.68156,1.04365
159.963,14.8499,0.01469909,2.7661,1.04343
160.563,14.86933,0.01469981,2.85095,1.0432
161.163,14.88848,0.01470753,2.93237,1.04298
161.763,14.90766,0.01548427,3.01427,1.04275
162.363,14.9268,0.01602043,3.09604,1.04252
162.963,14.946,0.01603817,3.17675,1.04229
163.563,14.9651,0.01569436,3.25361,1.04206
164.163,14.9844,0.01568989,3.32482,1.04183
164.763,15.00356,0.01568905,3.3869,1.0416
165.363,15.02258,0.01573,3.43604,1.04137
165.963,15.04175,0.01432166,3.4724,1.04114
166.563,15.06091,0.01437064,3.4987,1.0409
167.163,15.0801,0.01437,3.50275,1.04067
167.763,15.09939,0.01436984,3.48727,1.04043
168.363,15.1185,0.01438504,3.44411,1.0402
168.963,15.13765,0.01312437,3.3847,1.03996
169.563,15.1567,0.01305871,3.30462,1.03972
170.163,15.17565,0.01305996,3.20461,1.03949
170.763,15.19465,0.01306199,3.09568,1.03925
171.363,15.2136,0.0134132,2.9792,1.03901
171.963,15.2325,0.01437431,2.85793,1.03876
172.563,15.2514,0.01436978,2.73888,1.03852
173.163,15.2702,0.01437001,2.62651,1.03828
173.763,15.2889,0.01437,2.52154,1.03804
174.363,15.30765,0.01437,2.4219,1.03779
174.963,15.3262,0.01437,2.33081,1.03755
175.563,15.3449,0.01437,2.24968,1.0373
176.163,15.3636,0.01437,2.1732,1.03706
176.763,15.38224,0.01437,2.10458,1.03681
177.363,15.401,0.01437,2.04376,1.03656
177.963,15.41956,0.01437,1.98925,1.03631
178.563,15.4381,0.01437,1.93975,1.03606
179.163,15.4566,0.01436998,1.89927,1.03581
179.763,15.47515,0.01437075,1.85748,1.03556
180.363,15.49364,0.01436429,1.82121,1.03531
180.963,15.51206,0.01308924,1.7924,1.03505
181.563,15.5305,0.01305882,1.76548,1.0348
182.163,15.54887,0.01306003,1.74295,1.03455
182.763,15.5673,0.01306,1.71912,1.03429
183.363,15.5857,0.01306,1.70072,1.03403
183.963,15.6041,0.01305973,1.68181,1.03378
184.563,15.62253,0.01307073,1.66724,1.03352
185.163,15.6409,0.01383437,1.6532,1.03326
185.763,15.6593,0.01436485,1.64119,1.033
186.363,15.6776,0.01361126,1.6319,1.03274
186.963,15.69595,0.0130551,1.62128,1.03248
187.563,15.71427,0.01304994,1.61426,1.03222
188.163,15.7326,0.01305,1.60884,1.03196
188.763,15.75097,0.01305,1.60138,1.03169
189.363,15.76936,0.01305,1.59364,1.03143
189.963,15.78771,0.01305,1.58984,1.03116
190.563,15.80608,0.01305,1.58673,1.0309
191.163,15.8245,0.01305,1.58219,1.03063
191.763,15.84276,0.01304998,1.58045,1.03036
192.363,15.86113,0.01305032,1.57846,1.0301
192.963,15.8794,0.0130564,1.57545,1.02983
193.563,15.89765,0.01420477,1.57449,1.02956
194.163,15.91595,0.01437373,1.57331,1.02929
194.763,15.93426,0.01436986,1.57155,1.02902
195.363,15.95255,0.01436715,1.56911,1.02875
195.963,15.97083,0.01362288,1.57068,1.02847
196.563,15.98913,0.01305512,1.57121,1.0282
197.163,16.00739,0.01304995,1.57176,1.02793
197.763,16.02572,0.01305,1.56844,1.02765
198.363,16.04406,0.01304964,1.56923,1.02738
198.963,16.0624,0.01306362,1.56918,1.0271
199.563,16.08071,0.01200308,1.56841,1.02682
200.163,16.09897,0.01174144,1.56909,1.02654
200.763,16.11724,0.01173735,1.57038,1.02627
201.363,16.13549,0.01183832,1.56875,1.02599
201.963,16.1538,0.01206476,1.56996,1.02571
202.563,16.17199,0.01327885,1.56964,1.02542
203.163,16.19024,0.01406625,1.57043,1.02514
203.763,16.2085,0.01403947,1.57187,1.02486
204.363,16.2268,0.01404,1.57107,1.02458
204.963,16.24503,0.01404,1.57265,1.02429
205.563,16.2633,0.01404,1.57308,1.02401
206.163,16.28156,0.01404,1.57348,1.02372
206.763,16.2998,0.01404,1.57318,1.02344
207.363,16.31782,0.01404027,1.57498,1.02315
207.963,16.33589,0.01402912,1.57713,1.02286
208.563,16.35414,0.01327969,1.57802,1.02257
209.163,16.3724,0.01273354,1.57829,1.02229
209.763,16.39086,0.01272981,1.57982,1.022
210.363,16.4093,0.01273,1.57942,1.02171
210.963,16.42748,0.01273,1.58082,1.02141
211.563,16.4457,0.01272995,1.58297,1.02112
212.163,16.46396,0.01273371,1.58528,1.02083
212.763,16.4822,0.01257415,1.58551,1.02054
213.363,16.5005,0.01141537,1.58412,1.02024
213.963,16.51882,0.01141034,1.58713,1.01995
214.563,16.53708,0.01141001,1.59027,1.01965
215.163,16.55529,0.01140924,1.58888,1.01935
215.763,16.5735,0.01141287,1.58843,1.01906
216.363,16.5915,0.01261642,1.59268,1.01876
216.963,16.60962,0.0137281,1.59461,1.01846
217.563,16.62784,0.01370985,1.59797,1.01816
218.163,16.64607,0.01371201,1.59755,1.01786
218.763,16.66444,0.01328642,1.59739,1.01756
219.363,16.6828,0.01273423,1.59923,1.01726
219.963,16.701,0.01272995,1.60049,1.01696
220.563,16.7192,0.01273,1.60301,1.01665
221.163,16.7374,0.01273,1.60466,1.01635
221.763,16.75558,0.01273,1.60531,1.01605
222.363,16.77362,0.01273,1.6076,1.01574
222.963,16.79186,0.01273,1.60879,1.01544
223.563,16.81012,0.01272997,1.60961,1.01513
224.163,16.82834,0.01273093,1.6127,1.01482
224.763,16.84664,0.01273063,1.61233,1.01451
225.363,16.8648,0.01205547,1.61349,1.01421
225.963,16.88295,0.01207049,1.61512,1.0139
226.563,16.90118,0.01206999,1.61586,1.01359
227.163,16.9194,0.01207,1.6201,1.01328
227.763,16.93763,0.01207,1.62067,1.01297
228.363,16.9558,0.01207,1.61962,1.01265
228.963,16.97401,0.01207,1.62085,1.01234
229.563,16.9922,0.01207,1.62332,1.01203
230.163,17.01032,0.01207,1.62421,1.01171
230.763,17.0285,0.01207,1.62539,1.0114
231.363,17.0467,0.01207,1.62596,1.01108
231.963,17.06492,0.01207,1.62537,1.01077
232.563,17.08309,0.01207,1.62796,1.01045
233.163,17.1013,0.01207,1.63143,1.01013
233.763,17.11947,0.01207,1.63067,1.00981
234.363,17.1376,0.01207,1.63172,1.00949
234.963,17.15579,0.01207,1.63376,1.00918
235.563,17.17395,0.01207,1.63538,1.00885
236.163,17.19215,0.01207,1.63659,1.00853
236.763,17.21039,0.01207,1.63623,1.00821
237.363,17.22856,0.01207,1.6384,1.00789
237.963,17.24679,0.01207,1.63759,1.00757
238.563,17.26495,0.01207,1.63936,1.00724
239.163,17.2832,0.01207,1.64057,1.00692
239.763,17.3014,0.01207,1.64279,1.00659
240.363,17.31958,0.01207,1.64348,1.00627
240.963,17.33774,0.01207,1.64212,1.00594
241.563,17.35585,0.01207,1.64433,1.00561
242.163,17.37398,0.01207,1.64563,1.00529
242.763,17.39211,0.01207,1.6473,1.00496
243.363,17.41026,0.01207,1.64672,1.00463
243.963,17.42845,0.01207,1.64653,1.0043
244.563,17.44665,0.01207,1.65036,1.00397
245.163,17.46479,0.01207483,1.65053,1.00364
245.763,17.48293,0.01178644,1.65205,1.00331
246.363,17.50106,0.01140645,1.65319,1.00297
246.963,17.51922,0.01140992,1.65395,1.00264
247.563,17.53751,0.01141001,1.65687,1.00231
248.163,17.55571,0.01141,1.65771,1.00197
248.763,17.5739,0.01141,1.6594,1.00164
249.363,17.5921,0.01141,1.65934,1.0013
249.963,17.61022,0.01141,1.66105,1.00097
250.563,17.62835,0.01141,1.66331,1.00063
251.163,17.64653,0.01141,1.66168,1.00029
251.763,17.66469,0.01141013,1.66433,0.99995
252.363,17.68284,0.01140422,1.6639,0.99962
252.963,17.70099,0.01101788,1.66705,0.99928
253.563,17.71911,0.01074004,1.66978,0.99894
254.163,17.73724,0.01198238,1.66942,0.99859
254.763,17.7553,0.01206125,1.66982,0.99825
255.363,17.77346,0.01205999,1.66995,0.99791
255.963,17.79159,0.0120591,1.67178,0.99757
256.563,17.80975,0.01210507,1.67172,0.99723
257.163,17.82787,0.01071048,1.67639,0.99688
257.763,17.84603,0.01074935,1.67433,0.99654
258.363,17.8642,0.01075005,1.6777,0.99619
258.963,17.88229,0.01075,1.67918,0.99585
259.563,17.90045,0.01075,1.6806,0.9955
260.163,17.9186,0.01075,1.68137,0.99515
260.763,17.93671,0.01075,1.68503,0.9948
261.363,17.95484,0.01075,1.68477,0.99446
261.963,17.97297,0.01075,1.68581,0.99411
262.563,17.99115,0.01075,1.68496,0.99376
263.163,18.00927,0.01075,1.68484,0.99341
263.763,18.0274,0.01075,1.68682,0.99306
264.363,18.04554,0.01075,1.68844,0.99271
264.963,18.06363,0.01075,1.69171,0.99235
265.563,18.08182,0.01074999,1.69187,0.992
266.163,18.09993,0.01074998,1.69203,0.99165
266.763,18.1181,0.01076827,1.69337,0.99129
267.363,18.13625,0.00957006,1.69539,0.99094
267.963,18.15438,0.009439035,1.69449,0.99058
268.563,18.1725,0.009439978,1.69729,0.99023
269.163,18.19065,0.009440002,1.69901,0.98987
269.763,18.20875,0.00944,1.70094,0.98951
270.363,18.22682,0.00944,1.70089,0.98916
270.963,18.2449,0.00944,1.70355,0.9888
271.563,18.263,0.00944,1.70302,0.98844
272.163,18.28122,0.00944,1.705,0.98808
272.763,18.29942,0.00944,1.70639,0.98772
273.363,18.31764,0.00944,1.70649,0.98736
273.963,18.3358,0.00944,1.70928,0.987
274.563,18.35393,0.00944,1.71021,0.98664
275.163,18.37201,0.00943998,1.71027,0.98627
275.763,18.39007,0.009441253,1.71374,0.98591
276.363,18.4082,0.009409526,1.71598,0.98555
276.963,18.4262,0.01009906,1.71387,0.98518
277.563,18.44432,0.01008907,1.71949,0.98482
278.163,18.46248,0.01009003,1.71782,0.98445
278.763,18.48059,0.01009,1.71896,0.98409
279.363,18.49881,0.01009001,1.71849,0.98372
279.963,18.51693,0.01008964,1.72019,0.98336
280.563,18.53509,0.01010024,1.72312,0.98299
281.163,18.55325,0.009116785,1.72286,0.98262
281.763,18.5714,0.008796244,1.72186,0.98225
282.363,18.58955,0.009787139,1.72482,0.98188
282.963,18.60768,0.01010251,1.72506,0.98151
283.563,18.62589,0.01010006,1.72369,0.98114
284.163,18.64401,0.01009999,1.72843,0.98077
284.763,18.66216,0.01010017,1.73129,0.9804
285.363,18.6803,0.01009883,1.73124,0.98003
285.963,18.69829,0.009651378,1.73121,0.97965
286.563,18.7163,0.0088097,1.73159,0.97928
287.163,18.73445,0.009491035,1.73419,0.97891
287.763,18.75252,0.009441155,1.73595,0.97853
288.363,18.77086,0.009439928,1.73661,0.97816
288.963,18.7893,0.009440002,1.73661,0.97778
289.563,18.80746,0.00944,1.73944,0.9774
290.163,18.82563,0.00944,1.74016,0.97703
290.763,18.84374,0.00944,1.73971,0.97665
291.363,18.8619,0.009439997,1.74025,0.97627
291.963,18.88,0.009440002,1.74182,0.97589
292.563,18.8982,0.00944344,1.74243,0.97552
293.163,18.9164,0.009202979,1.74422,0.97514
293.763,18.93458,0.008130835,1.74384,0.97476
294.363,18.95275,0.00812038,1.74663,0.97438
294.963,18.97093,0.008094076,1.74861,0.97399
295.563,18.98915,0.00880594,1.7465,0.97361
296.163,19.00735,0.008779745,1.74948,0.97323
296.763,19.02553,0.008779988,1.74937,0.97285
297.363,19.0437,0.00878,1.75076,0.97246
297.963,19.06182,0.00878,1.75088,0.97208
298.563,19.07996,0.00878,1.75245,0.9717
299.163,19.09817,0.00878,1.7527,0.97131
299.763,19.1163,0.00878,1.75484,0.97093
300.363,19.1345,0.008779991,1.75741,0.97054
300.963,19.15269,0.00877983,1.75814,0.97015
301.563,19.17085,0.008798882,1.75672,0.96977
302.163,19.18908,0.00761694,1.75779,0.96938
302.763,19.2073,0.007459338,1.75908,0.96899
303.363,19.22552,0.00745997,1.76056,0.9686
303.963,19.24371,0.00746,1.76129,0.96821
304.563,19.26189,0.00746,1.76154,0.96782
305.163,19.28005,0.00746,1.76463,0.96743
305.763,19.29822,0.00746,1.76462,0.96704
306.363,19.31636,0.00745999,1.7647,0.96665
306.963,19.33454,0.00746018,1.76526,0.96626
307.563,19.35275,0.007463104,1.76749,0.96587
308.163,19.37097,0.008036271,1.7694,0.96547
308.763,19.38919,0.008121876,1.76902,0.96508
309.363,19.40745,0.00811998,1.77154,0.96469
309.963,19.4256,0.008119998,1.76878,0.96429
310.563,19.44379,0.008120095,1.77166,0.9639
311.163,19.462,0.008116996,1.77417,0.9635
311.763,19.48013,0.007778795,1.77508,0.9631
312.363,19.49836,0.00679054,1.77547,0.96271
312.963,19.51657,0.00680382,1.77484,0.96231
313.563,19.5348,0.006707981,1.77735,0.96191
314.163,19.55303,0.00547141,1.77645,0.96152
314.763,19.5713,0.006746561,1.7789,0.96112
315.363,19.5895,0.006801344,1.77803,0.96072
315.963,19.60763,0.006799985,1.78075,0.96032
316.563,19.62586,0.006800055,1.78307,0.95992
317.163,19.64408,0.006794963,1.78344,0.95952
317.763,19.66231,0.006246966,1.78208,0.95912
318.363,19.68058,0.005482214,1.78487,0.95872
318.963,19.6988,0.00548012,1.78494,0.95831
319.563,19.717,0.005479994,1.78483,0.95791
320.163,19.7352,0.00548,1.78835,0.95751
320.763,19.7534,0.00548,1.79013,0.9571
321.363,19.77165,0.00548,1.78881,0.9567
321.963,19.78985,0.00548,1.79183,0.9563
322.563,19.80811,0.00548,1.79202,0.95589
323.163,19.8263,0.00548,1.79357,0.95549
323.763,19.84449,0.00548,1.79274,0.95508
324.363,19.86276,0.00548,1.79522,0.95467
324.963,19.88099,0.005480005,1.79599,0.95427
325.563,19.89922,0.00548015,1.79947,0.95386
326.163,19.91752,0.00546634,1.79605,0.95345
326.763,19.9358,0.004534826,1.79605,0.95304
327.363,19.95403,0.004168102,1.79673,0.95263
327.963,19.97232,0.00416994,1.79974,0.95222
328.563,19.99054,0.004168653,1.79978,0.95182
329.163,20.0088,0.004225363,1.80165,0.95141
329.763,20.02701,0.005495311,1.79909,0.95099
330.363,20.0453,0.00549055,1.80171,0.95058
330.963,20.0636,0.00548998,1.80267,0.95017
331.563,20.08193,0.00549,1.80444,0.94976
332.163,20.1002,0.005489997,1.80496,0.94935
332.763,20.11844,0.005489121,1.80524,0.94893
333.363,20.1367,0.005538885,1.80641,0.94852
333.963,20.15494,0.00412651,1.80882,0.94811
334.563,20.1733,0.004172846,1.8087,0.94769
335.163,20.1916,0.002823279,1.80665,0.94728
335.763,20.2099,0.00285094,1.80883,0.94686
336.363,20.22822,0.002849983,1.81117,0.94645
336.963,20.24653,0.00285,1.80991,0.94603
337.563,20.2649,0.00285,1.81178,0.94561
338.163,20.2832,0.00285,1.81279,0.9452
338.763,20.30151,0.00285,1.81358,0.94478
339.363,20.31981,0.00285,1.81391,0.94436
339.963,20.33811,0.00285,1.81322,0.94394
340.563,20.3564,0.00285,1.814,0.94352
341.163,20.37474,0.002850008,1.81687,0.9431
341.763,20.39311,0.00285005,1.8168,0.94268
342.363,20.4115,0.002836812,1.81835,0.94226
342.963,20.42987,0.00180788,1.81836,0.94184
343.563,20.44819,0.001526743,1.82078,0.94142
344.163,20.46649,0.001529988,1.82037,0.941
344.763,20.4848,0.00153,1.81942,0.94058
345.363,20.50314,0.00153,1.82212,0.94016
345.963,20.52149,0.00153,1.82345,0.93973
346.563,20.53987,0.00153,1.82328,0.93931
347.163,20.5582,0.00153,1.82455,0.93889
347.763,20.57657,0.00153,1.82662,0.93846
348.363,20.59495,0.001530011,1.82587,0.93804
348.963,20.61336,0.00152999,1.82754,0.93761
349.563,20.63176,0.001515876,1.82819,0.93719
350.163,20.65014,0.0006432671,1.8287,0.93676
350.763,20.6685,0.0005436669,1.83122,0.93634
351.363,20.68681,0.0002158036,1.83125,0.93591
351.963,20.7052,0.0002700463,1.83334,0.93548
352.563,20.72361,-0.0007748702,1.83472,0.93505
353.163,20.74205,-0.000759684,1.83709,0.93463
353.763,20.76047,-0.000760002,1.83957,0.9342
354.363,20.77891,-0.0007600038,1.83735,0.93377
354.963,20.7973,-0.0007597309,1.83852,0.93334
355.563,20.81577,-0.0007701645,1.83855,0.93291
356.163,20.8342,-0.001530707,1.84252,0.93248
356.763,20.85257,-0.002076952,1.84199,0.93205
357.363,20.871,-0.002094,1.843,0.93162
357.963,20.88936,-0.003062318,1.84346,0.93119
358.563,20.9078,-0.003392637,1.84803,0.93076
359.163,20.92631,-0.003390024,1.84704,0.93032
359.763,20.94474,-0.003389997,1.84984,0.92989
360.363,20.96322,-0.00339,1.85032,0.92946
360.963,20.98163,-0.003390002,1.85085,0.92903
361.563,21.00008,-0.003389995,1.85013,0.92859
362.163,21.01848,-0.003386782,1.85349,0.92816
362.763,21.0369,-0.003682861,1.85285,0.92772
363.363,21.0554,-0.004696449,1.85152,0.92729
363.963,21.07384,-0.004710079,1.85258,0.92685
364.563,21.09232,-0.004708292,1.85725,0.92642
365.163,21.11076,-0.004919332,1.85231,0.92598
365.763,21.12922,-0.005042535,1.85384,0.92554
366.363,21.14773,-0.005040078,1.85636,0.92511
366.963,21.16629,-0.005041541,1.85806,0.92467
367.563,21.18481,-0.00585343,1.85788,0.92423
368.163,21.20326,-0.0063551,1.85833,0.9238
368.763,21.22171,-0.00636274,1.8621,0.92336
369.363,21.24019,-0.006706607,1.86129,0.92292
369.963,21.2587,-0.007677292,1.86276,0.92248
370.563,21.27727,-0.007669702,1.86229,0.92204
371.163,21.2958,-0.00767001,1.86241,0.9216
371.763,21.3143,-0.00767,1.8625,0.92116
372.363,21.3328,-0.00767,1.86249,0.92072
372.963,21.35132,-0.007669995,1.86436,0.92028
373.563,21.36986,-0.00767027,1.86863,0.91984
374.163,21.3884,-0.00766218,1.86703,0.91939
374.763,21.40686,-0.009026355,1.86898,0.91895
375.363,21.42529,-0.01007691,1.86827,0.91851
375.963,21.4436,-0.01037274,1.87149,0.91807
376.563,21.46205,-0.01149708,1.87196,0.91762
377.163,21.48057,-0.01188905,1.87435,0.91718
377.763,21.49914,-0.01294735,1.87448,0.91674
378.363,21.51772,-0.01293827,1.87421,0.91629
378.963,21.5363,-0.01303055,1.87619,0.91585
379.563,21.55483,-0.01427628,1.8785,0.9154
380.163,21.57338,-0.01425999,1.87851,0.91496
380.763,21.59205,-0.01425999,1.88078,0.91451
381.363,21.61064,-0.01425999,1.88057,0.91407
381.963,21.62922,-0.01426028,1.88054,0.91362
382.563,21.64774,-0.01425409,1.88101,0.91317
383.163,21.66624,-0.01520329,1.88273,0.91272
383.763,21.68477,-0.01556731,1.88654,0.91228
384.363,21.70327,-0.01555574,1.88448,0.91183
384.963,21.72185,-0.01473332,1.88769,0.91138
385.563,21.7405,-0.01591812,1.88733,0.91093
386.163,21.7591,-0.01590093,1.89054,0.91048
386.763,21.77776,-0.0158986,1.89156,0.91003
387.363,21.7964,-0.01599602,1.8914,0.90958
387.963,21.8151,-0.01723766,1.89241,0.90913
388.563,21.8337,-0.01721954,1.89355,0.90868
389.163,21.85227,-0.01718429,1.89413,0.90823
389.763,21.87089,-0.0185696,1.89474,0.90778
390.363,21.88942,-0.01847098,1.89662,0.90733
390.963,21.90804,-0.0209892,1.89879,0.90688
391.563,21.9267,-0.0211699,1.90157,0.90643
392.163,21.94526,-0.02254014,1.90243,0.90598
392.763,21.96386,-0.02259213,1.90476,0.90552
393.363,21.98244,-0.02257613,1.9052,0.90507
393.963,22.0011,-0.02366485,1.907,0.90462
394.563,22.0197,-0.02390869,1.90901,0.90416
395.163,22.03835,-0.02435567,1.91091,0.90371
395.763,22.05704,-0.02532164,1.91327,0.90325
396.363,22.07572,-0.02550609,1.91365,0.9028
396.963,22.09435,-0.02665826,1.91546,0.90235
397.563,22.11297,-0.02566527,1.91866,0.90189
398.163,22.13157,-0.02585973,1.9215,0.90143
398.763,22.15019,-0.0271221,1.92358,0.90098
399.363,22.16885,-0.027656,1.92653,0.90052
399.963,22.1875,-0.0286051,1.9288,0.90007
400.563,22.2062,-0.03012338,1.93176,0.89961
401.163,22.22485,-0.03057563,1.93671,0.89915
401.763,22.24352,-0.03169401,1.93885,0.89869
402.363,22.26223,-0.03265546,1.94331,0.89824
402.963,22.2809,-0.03312198,1.94491,0.89778
403.563,22.29958,-0.03310384,1.94818,0.89732
404.163,22.31821,-0.03458791,1.94916,0.89686
404.763,22.33683,-0.03531003,1.9525,0.8964
405.363,22.3555,-0.03647978,1.95562,0.89594
405.963,22.37418,-0.03917496,1.96033,0.89548
406.563,22.39291,-0.04067741,1.96544,0.89502
407.163,22.41167,-0.04112345,1.96979,0.89456
407.763,22.43036,-0.04220901,1.97385,0.8941
408.363,22.4491,-0.0423962,1.97846,0.89364
408.963,22.4678,-0.04362328,1.9848,0.89318
409.563,22.48649,-0.04517772,1.99325,0.89272
410.163,22.5052,-0.04629927,1.99837,0.89226
410.763,22.52395,-0.04788291,2.00717,0.8918
411.363,22.5427,-0.04941465,2.01399,0.89133
411.963,22.5614,-0.05052629,2.0178,0.89087
412.563,22.58015,-0.05198794,2.0245,0.89041
413.163,22.59887,-0.0525871,2.02875,0.88994
413.763,22.61759,-0.05358211,2.03321,0.88948
414.363,22.6364,-0.05520079,2.03944,0.88902
414.963,22.65512,-0.05710315,2.04547,0.88855
415.563,22.67387,-0.05904713,2.05256,0.88809
416.163,22.69266,-0.06092393,2.06218,0.88762
416.763,22.7114,-0.06282953,2.06757,0.88716
417.363,22.7302,-0.06457197,2.07649,0.88669
417.963,22.749,-0.06680385,2.08421,0.88623
418.563,22.7678,-0.06846568,2.09271,0.88576
419.163,22.7866,-0.07018021,2.10189,0.8853
419.763,22.80535,-0.07245964,2.1143,0.88483
420.363,22.8242,-0.07330818,2.11993,0.88436
420.963,22.84304,-0.0753268,2.12664,0.8839
421.563,22.86191,-0.07680732,2.13675,0.88343
422.163,22.8808,-0.07898689,2.14244,0.88296
422.763,22.89959,-0.08217009,2.15007,0.8825
423.363,22.91836,-0.08477875,2.15851,0.88203
423.963,22.93712,-0.08701429,2.16612,0.88156
424.563,22.9559,-0.08906169,2.17484,0.88109
425.163,22.97467,-0.0916972,2.18829,0.88062
425.763,22.99352,-0.09389565,2.2067,0.88015
426.363,23.01238,-0.09623857,2.22598,0.87968
426.963,23.03124,-0.09843645,2.23782,0.87921
427.563,23.05007,-0.10128,2.25091,0.87874
428.163,23.06887,-0.10433,2.2605,0.87827
428.763,23.0877,-0.10711,2.27819,0.8778
429.363,23.10655,-0.11021,2.29253,0.87733
429.963,23.1254,-0.11314,2.30598,0.87686
430.563,23.14426,-0.11651,2.32442,0.87639
431.163,23.1631,-0.12106,2.39275,0.87592
431.763,23.18197,-0.1243,2.43579,0.87545
432.363,23.2008,-0.12791,2.44468,0.87498
432.963,23.21967,-0.13186,2.45307,0.87451
433.563,23.23849,-0.13649,2.45774,0.87403
434.163,23.25713,-0.13998,2.46955,0.87356
434.763,23.276,-0.14431,2.48046,0.87309
435.363,23.29491,-0.14832,2.49074,0.87261
435.963,23.31384,-0.15281,2.50097,0.87214
436.563,23.33294,-0.15774,2.51657,0.87167
437.163,23.3519,-0.16264,2.53366,0.87119
437.763,23.3708,-0.16741,2.54826,0.87072
438.363,23.3897,-0.17249,2.56919,0.87025
438.963,23.40854,-0.17788,2.5895,0.86977
439.563,23.4274,-0.18352,2.61151,0.8693
440.163,23.44631,-0.18953,2.64017,0.86882
440.763,23.4652,-0.19516,2.66334,0.86835
441.363,23.48424,-0.20091,2.68865,0.86787
441.963,23.5031,-0.20723,2.71711,0.8674
442.563,23.52201,-0.21384,2.74524,0.86692
443.163,23.54094,-0.22058,2.76805,0.86644
443.763,23.55989,-0.22734,2.80899,0.86597
444.363,23.5789,-0.23442,2.83456,0.86549
444.963,23.59788,-0.24151,2.85932,0.86501
445.563,23.61685,-0.24906,2.88964,0.86454
446.163,23.63578,-0.25698,2.92806,0.86406
446.763,23.65474,-0.26509,2.98799,0.86358
447.363,23.6737,-0.27384,3.0228,0.8631
447.963,23.69264,-0.28308,3.05605,0.86263
448.563,23.71163,-0.29284,3.09983,0.86215
449.163,23.7306,-0.30265,3.14923,0.86167
449.763,23.7496,-0.3126,3.21311,0.86119
450.363,23.76845,-0.32276,3.256,0.86071
450.963,23.78742,-0.3331,3.30336,0.86023
451.563,23.80647,-0.34418,3.35136,0.85975
452.163,23.82548,-0.35524,3.40428,0.85928
452.763,23.84469,-0.36757,3.45428,0.8588
453.363,23.8637,-0.38006,3.5118,0.85832
453.963,23.8827,-0.39286,3.58234,0.85784
454.563,23.90176,-0.40628,3.6471,0.85736
455.163,23.92087,-0.42009,3.71173,0.85688
455.763,23.94001,-0.4348,3.77387,0.85639
456.363,23.95896,-0.44966,3.84436,0.85591
456.963,23.978,-0.46538,3.93816,0.85543
457.563,23.99705,-0.48193,3.99817,0.85495
458.163,24.01616,-0.49966,4.06578,0.85447
458.763,24.03541,-0.51825,4.14435,0.85399
459.363,24.05455,-0.53694,4.22411,0.85351
459.963,24.07365,-0.55632,4.32125,0.85302
460.563,24.09281,-0.57616,4.39416,0.85254
461.163,24.11202,-0.5979,4.48332,0.85206
461.763,24.13124,-0.62017,4.58199,0.85158
462.363,24.15038,-0.64317,4.66271,0.85109
462.963,24.16956,-0.66735,4.75789,0.85061
463.563,24.1888,-0.69288,4.85694,0.85013
464.163,24.20796,-0.71966,4.95488,0.84964
464.763,24.22719,-0.74686,5.04773,0.84916
465.363,24.2464,-0.77573,5.1368,0.84868
465.963,24.26558,-0.80536,5.24204,0.84819
466.563,24.28485,-0.8369,5.34508,0.84771
467.163,24.30412,-0.86902,5.44453,0.84723
467.763,24.3233,-0.90212,5.55405,0.84674
468.363,24.3426,-0.93634,5.65275,0.84626
468.963,24.36186,-0.97234,5.76762,0.84577
469.563,24.38113,-1.0108,5.88093,0.84529
470.163,24.4004,-1.04965,5.98393,0.8448
470.763,24.41968,-1.09102,6.07355,0.84432
471.363,24.43895,-1.13281,6.18263,0.84383
471.963,24.45824,-1.1772,6.26731,0.84334
472.563,24.47757,-1.22185,6.38099,0.84286
473.163,24.49689,-1.269,6.46944,0.84237
473.763,24.51623,-1.31471,6.55795,0.84189
474.363,24.53562,-1.37281,6.65367,0.8414
474.963,24.555,-1.45127,6.73615,0.84091
475.563,24.57439,-1.49471,6.82587,0.84043
476.163,24.59374,-1.54357,6.90668,0.83994
476.763,24.61306,-1.60421,6.98391,0.83945
477.363,24.63233,-1.66241,7.0416,0.83896
477.963,24.65176,-1.72282,7.10916,0.83848
478.563,24.67114,-1.78475,7.15641,0.83799
479.163,24.69049,-1.8497,7.20911,0.8375
479.763,24.70992,-1.91454,7.23774,0.83701
480.363,24.7292,-1.9803,7.24714,0.83653
480.963,24.74856,-2.04745,7.25993,0.83604
481.563,24.7679,-2.11569,7.25855,0.83555
482.163,24.78719,-2.18477,7.24733,0.83506
482.763,24.80654,-2.25511,7.22039,0.83457
483.363,24.82581,-2.32592,7.1805,0.83408
483.963,24.84514,-2.39534,7.13747,0.83359
484.563,24.86439,-2.46543,7.09314,0.83311
485.163,24.88363,-2.53588,7.00797,0.83262
485.763,24.9028,-2.60634,6.94177,0.83213
486.363,24.92195,-2.67631,6.82183,0.83164
486.963,24.94104,-2.74537,6.70507,0.83115
487.563,24.96023,-2.81418,6.57548,0.83066
488.163,24.97935,-2.88261,6.42679,0.83017
488.763,24.99846,-2.95192,6.26603,0.82968
489.363,25.01758,-3.0185,6.08748,0.82919
489.963,25.0366,-3.08285,5.8935,0.8287
490.563,25.05561,-3.14577,5.68768,0.82821
491.163,25.0746,-3.20705,5.46408,0.82771
491.763,25.09354,-3.26687,5.22938,0.82722
492.363,25.1125,-3.3237,4.98322,0.82673
492.963,25.1314,-3.37854,4.72875,0.82624
493.563,25.1504,-3.43095,4.46525,0.82575
494.163,25.16927,-3.48129,4.20035,0.82526
494.763,25.18819,-3.52884,3.92589,0.82477
495.363,25.2071,-3.57415,3.65397,0.82428
495.963,25.22591,-3.61487,3.38591,0.82378
496.563,25.24473,-3.64923,3.12254,0.82329
497.163,25.26351,-3.68283,2.86183,0.8228
497.763,25.28215,-3.71621,2.61666,0.82231
498.363,25.30067,-3.74606,2.38007,0.82182
498.963,25.31935,-3.77436,2.15477,0.82132
499.563,25.33805,-3.7994,1.94018,0.82083
500.163,25.35685,-3.82214,1.73854,0.82034
500.763,25.37566,-3.84357,1.55197,0.81984
501.363,25.39432,-3.86189,1.37804,0.81935
501.963,25.41293,-3.8786,1.21942,0.81886
502.563,25.43159,-3.89307,1.07542,0.81837
503.163,25.45032,-3.90592,0.94158,0.81787
503.763,25.46903,-3.91766,0.82516,0.81738
504.363,25.48777,-3.92848,0.7166,0.81688
504.963,25.50647,-3.93819,0.61928,0.81639
505.563,25.5251,-3.94594,0.53355,0.8159
506.163,25.54385,-3.95284,0.45862,0.8154
506.763,25.56258,-3.95917,0.3879,0.81491
507.363,25.5813,-3.96501,0.32774,0.81442
507.963,25.60013,-3.97001,0.27793,0.81392
508.563,25.61896,-3.97335,0.23166,0.81343
509.163,25.63776,-3.97694,0.19026,0.81293
509.763,25.6566,-3.98003,0.15282,0.81244
510.363,25.67541,-3.98321,0.11845,0.81194
510.963,25.69425,-3.98582,0.0895561,0.81145
511.563,25.71313,-3.98749,0.06292014,0.81095
512.163,25.73193,-3.98916,0.03959639,0.81046
512.763,25.75066,-3.99048,0.01890351,0.80996
513.363,25.7696,-3.99223,-0.00178208,0.80947
513.963,25.78856,-3.99385,-0.01464871,0.80897
514.563,25.80771,-3.9938,-0.03063951,0.80848
515.163,25.82691,-3.99509,-0.04489419,0.80798
515.763,25.84582,-3.99509,-0.05566597,0.80749
516.363,25.86482,-3.99504,-0.06356825,0.80699
516.963,25.8839,-3.99645,-0.07479946,0.80649
517.563,25.90296,-3.99641,-0.08245077,0.806
518.163,25.92214,-3.99638,-0.09038695,0.8055
518.763,25.94131,-3.99777,-0.09456067,0.80501
519.363,25.96046,-3.99773,-0.10019,0.80451
519.963,25.97964,-3.99773,-0.10273,0.80401
520.563,25.9988,-3.99773,-0.10875,0.80352
521.163,26.0179,-3.99768,-0.11116,0.80302
521.763,26.03705,-3.99908,-0.11491,0.80252
522.363,26.0562,-3.99904,-0.1189,0.80203
522.963,26.0754,-3.99904,-0.12309,0.80153
523.563,26.09461,-3.99904,-0.12436,0.80103
524.163,26.11378,-3.99904,-0.12899,0.80054
524.763,26.13297,-3.99904,-0.12882,0.80004
525.363,26.1522,-3.99955,-0.13458,0.79954
525.963,26.17138,-4.00035,-0.13263,0.79905
526.563,26.19063,-4.00036,-0.13247,0.79855
527.163,26.20986,-4.00036,-0.13378,0.79805
527.763,26.22901,-4.00036,-0.13456,0.79755
528.363,26.2482,-4.00036,-0.1375,0.79706
528.963,26.2673,-4.00036,-0.13465,0.79656
529.563,26.28653,-4.00036,-0.13775,0.79606
530.163,26.3058,-4.00036,-0.13668,0.79556
530.763,26.3251,-4.00057,-0.1394,0.79507
531.363,26.34442,-4.00168,-0.14163,0.79457
531.963,26.36373,-4.00167,-0.14382,0.79407
532.563,26.38301,-4.00167,-0.14477,0.79357
533.163,26.4023,-4.00167,-0.14682,0.79307
533.763,26.4216,-4.00167,-0.14886,0.79258
534.363,26.4409,-4.00167,-0.15295,0.79208
534.963,26.4603,-4.00167,-0.1584,0.79158
535.563,26.4796,-4.00167,-0.15699,0.79108
536.163,26.4988,-4.00167,-0.15675,0.79058
536.763,26.5182,-4.00167,-0.15763,0.79008
537.363,26.53745,-4.00167,-0.1624,0.78959
537.963,26.55681,-4.00168,-0.16024,0.78909
538.563,26.5762,-4.00204,-0.16207,0.78859
539.163,26.59549,-4.002,-0.16399,0.78809
539.763,26.6148,-4.00205,-0.16092,0.78759
540.363,26.6342,-4.00266,-0.16003,0.78709
540.963,26.65349,-4.00266,-0.15944,0.78659
541.563,26.67282,-4.00266,-0.1591,0.78609
542.163,26.6921,-4.00266,-0.16022,0.7856
542.763,26.71143,-4.00266,-0.16327,0.7851
543.363,26.7308,-4.00266,-0.16108,0.7846
543.963,26.75027,-4.00259,-0.16035,0.7841
544.563,26.76966,-4.0033,-0.16043,0.7836
545.163,26.78888,-4.00332,-0.15983,0.7831
545.763,26.8083,-4.00332,-0.16119,0.7826
546.363,26.8276,-4.00332,-0.159,0.7821
546.963,26.847,-4.00332,-0.15693,0.7816
547.563,26.86657,-4.00365,-0.15722,0.7811
548.163,26.88595,-4.00365,-0.15965,0.7806
548.763,26.90529,-4.00367,-0.15881,0.7801
549.363,26.92466,-4.00297,-0.15812,0.7796
549.963,26.944,-4.00299,-0.1594,0.7791
550.563,26.96345,-4.00299,-0.15814,0.7786
551.163,26.9829,-4.00299,-0.15806,0.7781
551.763,27.0024,-4.00299,-0.15918,0.7776
552.363,27.0218,-4.00299,-0.16077,0.7771
552.963,27.0412,-4.00299,-0.15656,0.7766
553.563,27.06065,-4.00299,-0.15106,0.77611
554.163,27.08002,-4.00299,-0.15346,0.77561
554.763,27.0994,-4.00299,-0.1524,0.77511
555.363,27.11877,-4.00299,-0.15164,0.77461
555.963,27.1381,-4.00299,-0.14675,0.7741
556.563,27.15755,-4.00299,-0.14145,0.7736
557.163,27.1768,-4.00299,-0.13556,0.7731
557.763,27.19603,-4.00299,-0.13559,0.7726
558.363,27.2155,-4.003,-0.12947,0.7721
558.963,27.23487,-4.00374,-0.13059,0.7716
559.563,27.2545,-4.00463,-0.12975,0.7711
560.163,27.2742,-4.00464,-0.13199,0.7706
560.763,27.29363,-4.00498,-0.13367,0.7701
561.363,27.3131,-4.00497,-0.13413,0.7696
561.963,27.33255,-4.00497,-0.13568,0.7691
562.563,27.352,-4.00497,-0.13975,0.7686
563.163,27.37153,-4.00497,-0.14326,0.7681
563.763,27.3911,-4.00497,-0.14418,0.7676
564.363,27.41068,-4.00497,-0.14606,0.7671
564.963,27.43018,-4.00497,-0.14868,0.7666
565.563,27.4497,-4.00497,-0.1521,0.7661
566.163,27.46916,-4.00497,-0.15176,0.7656
566.763,27.4886,-4.00497,-0.15273,0.7651
567.363,27.50815,-4.00497,-0.15591,0.7646
567.963,27.52768,-4.00497,-0.15605,0.7641
568.563,27.5473,-4.00497,-0.161,0.7636
569.163,27.56677,-4.00497,-0.15895,0.7631
569.763,27.5863,-4.00497,-0.16445,0.76259
570.363,27.60582,-4.00497,-0.16301,0.76209
570.963,27.6254,-4.00497,-0.1637,0.76159
571.563,27.6449,-4.00497,-0.16622,0.76109
572.163,27.6644,-4.00497,-0.16708,0.76059
572.763,27.68396,-4.00497,-0.16998,0.76009
573.363,27.70345,-4.00497,-0.17099,0.75959
573.963,27.72302,-4.00497,-0.16975,0.75909
574.563,27.7425,-4.00497,-0.17006,0.75859
575.163,27.7619,-4.00506,-0.17245,0.75809
575.763,27.7815,-4.0053,-0.16906,0.75759
576.363,27.80108,-4.0053,-0.17137,0.75709
576.963,27.82082,-4.00532,-0.16904,0.75659
577.563,27.8404,-4.00662,-0.17268,0.75608
578.163,27.85993,-4.00661,-0.17167,0.75558
578.763,27.87947,-4.00661,-0.17289,0.75508
579.363,27.899,-4.00661,-0.1702,0.75458
579.963,27.91855,-4.00661,-0.17232,0.75408
580.563,27.93814,-4.00661,-0.17062,0.75358
581.163,27.9577,-4.00661,-0.16936,0.75308
581.763,27.97728,-4.00661,-0.16922,0.75258
582.363,27.99687,-4.00661,-0.17006,0.75208
582.963,28.0164,-4.00661,-0.17002,0.75158
583.563,28.03595,-4.00661,-0.16983,0.75108
584.163,28.0555,-4.00661,-0.16852,0.75057
584.763,28.0751,-4.00661,-0.16983,0.75007
585.363,28.09467,-4.00661,-0.16929,0.74957
585.963,28.1143,-4.00659,-0.16975,0.74907
586.563,28.13389,-4.00529,-0.16857,0.74857
587.163,28.15352,-4.0053,-0.17018,0.74807
587.763,28.17313,-4.0053,-0.17152,0.74757
588.363,28.19272,-4.0053,-0.17057,0.74707
588.963,28.2123,-4.00619,-0.16906,0.74657
589.563,28.23195,-4.00661,-0.17175,0.74607
590.163,28.2516,-4.00661,-0.17267,0.74557
590.763,28.27125,-4.00661,-0.17087,0.74507
591.363,28.2908,-4.00661,-0.1713,0.74456
591.963,28.31046,-4.00661,-0.17215,0.74406
592.563,28.33008,-4.00659,-0.17148,0.74356
593.163,28.34972,-4.00781,-0.17482,0.74306
593.763,28.36938,-4.00793,-0.17564,0.74256
594.363,28.389,-4.00793,-0.17377,0.74206
594.963,28.4087,-4.00793,-0.17486,0.74156
595.563,28.4283,-4.00793,-0.17597,0.74106
596.163,28.4479,-4.00793,-0.17643,0.74056
596.763,28.4676,-4.00793,-0.17955,0.74006
597.363,28.48722,-4.00793,-0.17776,0.73956
597.963,28.50692,-4.00793,-0.1795,0.73906
598.563,28.5266,-4.00793,-0.18021,0.73856
599.163,28.54632,-4.00793,-0.181,0.73806
599.763,28.56602,-4.00793,-0.18053,0.73755
600.363,28.58571,-4.00793,-0.18073,0.73705
600.963,28.6054,-4.00793,-0.17839,0.73655
601.563,28.625,-4.00793,-0.17947,0.73605
602.163,28.64463,-4.00793,-0.17935,0.73555
602.763,28.6643,-4.00789,-0.18013,0.73505
603.363,28.68402,-4.00846,-0.17922,0.73455
603.963,28.7037,-4.00859,-0.17915,0.73405
604.563,28.72343,-4.00859,-0.17938,0.73355
605.163,28.74307,-4.00859,-0.17834,0.73305
605.763,28.76278,-4.00859,-0.17892,0.73255
606.363,28.7825,-4.00859,-0.17939,0.73205
606.963,28.80221,-4.00854,-0.17689,0.73155
607.563,28.82198,-4.00923,-0.17899,0.73105
608.163,28.8417,-4.00925,-0.17859,0.73055
608.763,28.86141,-4.00925,-0.17937,0.73005
609.363,28.88103,-4.00925,-0.17694,0.72955
609.963,28.9007,-4.00925,-0.1785,0.72905
610.563,28.9204,-4.00925,-0.17504,0.72855
611.163,28.9402,-4.00925,-0.18071,0.72805
611.763,28.9599,-4.00925,-0.17728,0.72755
612.363,28.9797,-4.00925,-0.17714,0.72705
612.963,28.99938,-4.00925,-0.17645,0.72655
613.563,29.019,-4.00925,-0.17851,0.72605
614.163,29.03882,-4.00925,-0.17827,0.72555
614.763,29.05854,-4.00925,-0.17696,0.72505
615.363,29.0783,-4.00925,-0.18007,0.72455
615.963,29.0982,-4.00925,-0.17714,0.72405
616.563,29.11792,-4.00925,-0.17656,0.72355
617.163,29.1377,-4.00925,-0.17836,0.72305
617.763,29.15741,-4.00925,-0.17625,0.72255
618.363,29.17708,-4.00925,-0.17721,0.72205
618.963,29.1969,-4.0092,-0.17334,0.72155
619.563,29.21655,-4.01061,-0.17546,0.72105
620.163,29.23627,-4.01056,-0.17311,0.72055
620.763,29.256,-4.01056,-0.17475,0.72005
621.363,29.27575,-4.01056,-0.17365,0.71955
621.963,29.2955,-4.01057,-0.17218,0.71905
622.563,29.3152,-4.00943,-0.17656,0.71855
623.163,29.33489,-4.00925,-0.17663,0.71806
623.763,29.3546,-4.00925,-0.17528,0.71756
624.363,29.37433,-4.00925,-0.17289,0.71706
624.963,29.39408,-4.00925,-0.17385,0.71656
625.563,29.4138,-4.00926,-0.16998,0.71606
626.163,29.4336,-4.00826,-0.17023,0.71556
626.763,29.45335,-4.00826,-0.17433,0.71506
627.363,29.47311,-4.00826,-0.17217,0.71456
627.963,29.4929,-4.00887,-0.17136,0.71406
628.563,29.51268,-4.00924,-0.17591,0.71356
629.163,29.5324,-4.00924,-0.17408,0.71307
629.763,29.55214,-4.00924,-0.17337,0.71257
630.363,29.57191,-4.00924,-0.17401,0.71207
630.963,29.59165,-4.00924,-0.17327,0.71157
631.563,29.61144,-4.00924,-0.17237,0.71107
632.163,29.63121,-4.00924,-0.17419,0.71057
632.763,29.65093,-4.00924,-0.17408,0.71007
633.363,29.6707,-4.00924,-0.17583,0.70958
633.963,29.69043,-4.00924,-0.17587,0.70908
634.563,29.71019,-4.00952,-0.17622,0.70858
635.163,29.72995,-4.01055,-0.17739,0.70808
635.763,29.7497,-4.01056,-0.1748,0.70758
636.363,29.76928,-4.01056,-0.1754,0.70709
636.963,29.78892,-4.01056,-0.17257,0.70659
637.563,29.8087,-4.01056,-0.17313,0.70609
638.163,29.8286,-4.01056,-0.17569,0.70559
638.763,29.8486,-4.01056,-0.17556,0.70509
639.363,29.8684,-4.01058,-0.17502,0.7046
639.963,29.8882,-4.01024,-0.17604,0.7041
640.563,29.908,-4.01023,-0.17659,0.7036
641.163,29.92782,-4.01023,-0.17633,0.7031
641.763,29.94763,-4.01023,-0.17741,0.70261
642.363,29.9674,-4.01023,-0.17807,0.70211
642.963,29.98723,-4.01023,-0.17836,0.70161
643.263,29.9971,-4.01023,-0.18102,0.70136