File: 01_Data/Coffee_Machine/STA/N2/30K_min/Coffee_Machine_STA_N2_30KData_220203_R3.csv
##Temp./Â°C,Time/min,Mass loss(subtr.2)/mg,DSC(subtr.2)/(mW/mg),Sensit./(uV/mW)
48.235,10.00667,0.03126,-0.003763416,1.06966
48.835,10.52849,0.03283225,0.04393239,1.06961
49.435,10.6472,0.0334912,0.08676467,1.06955
50.035,10.73156,0.03373275,0.13078,1.0695
50.635,10.79948,0.03241364,0.16774,1.06944
51.235,10.85886,0.03383167,0.20219,1.06939
51.835,10.9117,0.03655837,0.23408,1.06933
52.435,10.95984,0.03551604,0.26522,1.06927
53.035,11.0043,0.03331857,0.29588,1.06921
53.635,11.04627,0.03391579,0.32368,1.06915
54.235,11.08581,0.03473187,0.35064,1.06909
54.835,11.1231,0.03507978,0.37635,1.06903
55.435,11.15883,0.03594669,0.40406,1.06897
56.035,11.1934,0.03543047,0.42434,1.0689
56.635,11.22671,0.0360916,0.45037,1.06884
57.235,11.2591,0.03631775,0.47038,1.06877
57.835,11.29032,0.03491786,0.49301,1.06871
58.435,11.32093,0.03575117,0.5147,1.06864
59.035,11.35075,0.03603907,0.53496,1.06857
59.635,11.3798,0.03607085,0.55505,1.0685
60.235,11.40827,0.03679272,0.57353,1.06843
60.835,11.4362,0.03749842,0.5913,1.06836
61.435,11.46364,0.03640817,0.60941,1.06828
62.035,11.49062,0.03633346,0.62704,1.06821
62.635,11.51723,0.03753956,0.64315,1.06813
63.235,11.54355,0.03786966,0.65906,1.06806
63.835,11.56939,0.03647591,0.67462,1.06798
64.435,11.59492,0.0361677,0.68978,1.0679
65.035,11.62007,0.0377367,0.70285,1.06782
65.635,11.64494,0.03790528,0.71812,1.06774
66.235,11.66949,0.03690543,0.73006,1.06766
66.835,11.69402,0.03634368,0.74637,1.06758
67.435,11.71837,0.03632492,0.75367,1.0675
68.035,11.74264,0.03642779,0.76746,1.06741
68.635,11.76656,0.03575966,0.7787,1.06733
69.235,11.7903,0.03571846,0.78737,1.06724
69.835,11.81378,0.03719386,0.79747,1.06716
70.435,11.83708,0.0373467,0.80739,1.06707
71.035,11.86024,0.03706731,0.81664,1.06698
71.635,11.88325,0.03630544,0.82377,1.06689
72.235,11.90606,0.03574132,0.83109,1.0668
72.835,11.92891,0.03638132,0.8388,1.06671
73.435,11.95161,0.03694965,0.84606,1.06661
74.035,11.97432,0.0365178,0.85039,1.06652
74.635,11.99682,0.03588863,0.85719,1.06643
75.235,12.0193,0.03643351,0.86224,1.06633
75.835,12.04161,0.03699308,0.8703,1.06623
76.435,12.06375,0.03661626,0.87562,1.06614
77.035,12.0858,0.03621156,0.88055,1.06604
77.635,12.10765,0.03690518,0.88449,1.06594
78.235,12.12958,0.03679999,0.8895,1.06584
78.835,12.1515,0.03543948,0.89372,1.06574
79.435,12.17338,0.03684924,0.89675,1.06563
80.035,12.1952,0.03646971,0.90141,1.06553
80.635,12.21682,0.03690585,0.90755,1.06542
81.235,12.23833,0.03836506,0.91055,1.06532
81.835,12.2598,0.03858418,0.916,1.06521
82.435,12.28123,0.03734154,0.91725,1.06511
83.035,12.30258,0.03839545,0.92422,1.065
83.635,12.32381,0.03740756,0.92687,1.06489
84.235,12.34491,0.03828376,0.93092,1.06478
84.835,12.36603,0.03733305,0.93388,1.06467
85.435,12.38705,0.03817329,0.93925,1.06455
86.035,12.40814,0.03894207,0.94358,1.06444
86.635,12.42919,0.03828689,0.9444,1.06433
87.235,12.45016,0.03921327,0.94646,1.06421
87.835,12.47105,0.03828057,0.95061,1.0641
88.435,12.49187,0.03827011,0.95313,1.06398
89.035,12.51261,0.03828035,0.95903,1.06386
89.635,12.53351,0.03828217,0.96287,1.06374
90.235,12.55425,0.03694446,0.96536,1.06362
90.835,12.57502,0.03852651,0.96786,1.0635
91.435,12.59564,0.03848769,0.96958,1.06338
92.035,12.61634,0.03860814,0.9729,1.06326
92.635,12.63697,0.03974937,0.9791,1.06313
93.235,12.65753,0.04001609,0.98131,1.06301
93.835,12.67811,0.03927341,0.98393,1.06288
94.435,12.69861,0.04002292,0.98838,1.06276
95.035,12.7191,0.04002946,0.99051,1.06263
95.635,12.73956,0.04004797,0.99127,1.0625
96.235,12.75998,0.03870979,0.99584,1.06237
96.835,12.7803,0.03872465,0.99926,1.06224
97.435,12.80071,0.03998407,1.00249,1.06211
98.035,12.82098,0.0387147,1.00379,1.06198
98.635,12.84136,0.04008014,1.0074,1.06184
99.235,12.86163,0.03955578,1.00893,1.06171
99.835,12.88188,0.03872401,1.01111,1.06157
100.435,12.90215,0.03877803,1.01611,1.06144
101.035,12.92239,0.040052,1.0186,1.0613
101.635,12.94266,0.03983117,1.02079,1.06116
102.235,12.96289,0.03894188,1.02177,1.06102
102.835,12.983,0.04001645,1.02411,1.06088
103.435,13.00327,0.04001769,1.02655,1.06074
104.035,13.0234,0.03897065,1.02988,1.0606
104.635,13.04364,0.03901375,1.03297,1.06046
105.235,13.06378,0.04002836,1.03447,1.06032
105.835,13.084,0.04004157,1.03766,1.06017
106.435,13.10422,0.03988518,1.04014,1.06003
107.035,13.12445,0.03870765,1.04233,1.05988
107.635,13.1446,0.03872024,1.04507,1.05973
108.235,13.1647,0.03871602,1.04782,1.05958
108.835,13.1848,0.03883713,1.04838,1.05944
109.435,13.2049,0.03882987,1.05173,1.05929
110.035,13.225,0.03882991,1.05341,1.05913
110.635,13.24497,0.03883468,1.0555,1.05898
111.235,13.26496,0.03965992,1.05645,1.05883
111.835,13.285,0.04014751,1.06094,1.05868
112.435,13.30514,0.04014981,1.06259,1.05852
113.035,13.3253,0.04016162,1.06547,1.05837
113.635,13.34537,0.04138354,1.06609,1.05821
114.235,13.3655,0.04146508,1.06922,1.05805
114.835,13.3856,0.04234951,1.07091,1.05789
115.435,13.4056,0.04277987,1.07355,1.05773
116.035,13.4256,0.04250847,1.07826,1.05757
116.635,13.44561,0.04178131,1.08011,1.05741
117.235,13.46558,0.04179198,1.08017,1.05725
117.835,13.4856,0.04150119,1.08558,1.05709
118.435,13.5056,0.04146275,1.08798,1.05692
119.035,13.5255,0.04234869,1.09101,1.05676
119.635,13.5455,0.04226373,1.09537,1.05659
120.235,13.5654,0.04146514,1.10039,1.05643
120.835,13.58531,0.04145989,1.10407,1.05626
121.435,13.60534,0.04146,1.10715,1.05609
122.035,13.62524,0.04146,1.10942,1.05592
122.635,13.64512,0.04146,1.11289,1.05575
123.235,13.66495,0.04146,1.11711,1.05558
123.835,13.68477,0.04146,1.12043,1.05541
124.435,13.70452,0.04146,1.12455,1.05524
125.035,13.7243,0.04146002,1.12908,1.05506
125.635,13.7441,0.04145899,1.13221,1.05489
126.235,13.7638,0.04151239,1.13921,1.05471
126.835,13.7837,0.04008658,1.1404,1.05454
127.435,13.8034,0.04135773,1.14847,1.05436
128.035,13.8231,0.04144868,1.15422,1.05418
128.635,13.8428,0.04046518,1.15901,1.054
129.235,13.86241,0.04009162,1.16613,1.05382
129.835,13.88216,0.04114676,1.17291,1.05364
130.435,13.90179,0.04112972,1.17895,1.05346
131.035,13.9215,0.04112889,1.18461,1.05327
131.635,13.94111,0.04117367,1.18886,1.05309
132.235,13.9608,0.04146137,1.19843,1.05291
132.835,13.98051,0.04146065,1.20189,1.05272
133.435,14.0001,0.04180108,1.2099,1.05253
134.035,14.0198,0.04277098,1.22144,1.05235
134.635,14.0393,0.04276736,1.23035,1.05216
135.235,14.05875,0.04189531,1.23739,1.05197
135.835,14.07825,0.04145269,1.2499,1.05178
136.435,14.0977,0.04144993,1.25883,1.05159
137.035,14.11728,0.04145,1.26792,1.0514
137.635,14.13686,0.04145,1.28072,1.05121
138.235,14.15639,0.04145,1.29371,1.05101
138.835,14.1759,0.04145,1.3063,1.05082
139.435,14.19525,0.04145,1.32019,1.05062
140.035,14.21468,0.04145,1.33378,1.05043
140.635,14.2341,0.04145,1.34488,1.05023
141.235,14.25353,0.04145007,1.36113,1.05003
141.835,14.2729,0.04145645,1.37959,1.04983
142.435,14.2923,0.04016166,1.39477,1.04963
143.035,14.31161,0.04014306,1.41402,1.04943
143.635,14.331,0.04095591,1.43249,1.04923
144.235,14.35033,0.04008952,1.45201,1.04903
144.835,14.3696,0.04014108,1.47475,1.04883
145.435,14.3889,0.04014023,1.49712,1.04862
146.035,14.40826,0.04013112,1.52007,1.04842
146.635,14.4276,0.04120429,1.54662,1.04821
147.235,14.44687,0.04146024,1.57303,1.04801
147.835,14.46601,0.04146062,1.59991,1.0478
148.435,14.4853,0.0414074,1.63054,1.04759
149.035,14.50441,0.04165329,1.6653,1.04738
149.635,14.52369,0.04145596,1.69851,1.04717
150.235,14.54299,0.04146009,1.73597,1.04696
150.835,14.56224,0.04146,1.77721,1.04675
151.435,14.5815,0.04146,1.81981,1.04654
152.035,14.6007,0.04146,1.86564,1.04633
152.635,14.6199,0.04146,1.91252,1.04611
153.235,14.6391,0.04146,1.96162,1.0459
153.835,14.65828,0.04146,2.01606,1.04568
154.435,14.6774,0.04146,2.07419,1.04546
155.035,14.6966,0.04146002,2.13195,1.04525
155.635,14.71587,0.04145896,2.19605,1.04503
156.235,14.73511,0.04150458,2.26337,1.04481
156.835,14.7542,0.04278189,2.33203,1.04459
157.435,14.7734,0.04276997,2.40335,1.04437
158.035,14.79256,0.04276999,2.47996,1.04415
158.635,14.8118,0.04277,2.55914,1.04392
159.235,14.83115,0.04277,2.64059,1.0437
159.835,14.8504,0.04276999,2.72411,1.04348
160.435,14.8695,0.0427703,2.80877,1.04325
161.035,14.88858,0.04275904,2.89354,1.04302
161.635,14.9076,0.04383777,2.97996,1.0428
162.235,14.9268,0.04409015,3.06732,1.04257
162.835,14.9461,0.04408985,3.15381,1.04234
163.435,14.96531,0.04410544,3.24011,1.04211
164.035,14.9846,0.04283227,3.31768,1.04188
164.635,15.0038,0.0427789,3.38301,1.04165
165.235,15.02289,0.04278003,3.43774,1.04142
165.835,15.04204,0.04278,3.47896,1.04119
166.435,15.06119,0.04278,3.50263,1.04095
167.035,15.08032,0.04278,3.50986,1.04072
167.635,15.0995,0.04278001,3.49225,1.04048
168.235,15.11865,0.04277888,3.44958,1.04025
168.835,15.13766,0.04294162,3.38112,1.04001
169.435,15.1566,0.0441184,3.29815,1.03977
170.035,15.17535,0.04409964,3.19222,1.03954
170.635,15.19418,0.04410001,3.06957,1.0393
171.235,15.2132,0.0441,2.9375,1.03906
171.835,15.23224,0.04410132,2.80376,1.03882
172.435,15.2514,0.04389078,2.67332,1.03857
173.035,15.2703,0.04344628,2.55036,1.03833
173.635,15.2891,0.04343986,2.4354,1.03809
174.235,15.3079,0.04344,2.33377,1.03785
174.835,15.32666,0.04344,2.24526,1.0376
175.435,15.3453,0.0434403,2.16365,1.03735
176.035,15.36389,0.04342109,2.09218,1.03711
176.635,15.3825,0.04270907,2.02713,1.03686
177.235,15.4011,0.04278097,1.96667,1.03661
177.835,15.4198,0.04278001,1.91735,1.03636
178.435,15.43842,0.04278,1.86922,1.03611
179.035,15.45698,0.04278,1.82987,1.03586
179.635,15.4755,0.04278,1.79358,1.03561
180.235,15.494,0.04277998,1.75917,1.03536
180.835,15.5124,0.04277911,1.73138,1.03511
181.435,15.5309,0.04293492,1.70349,1.03485
182.035,15.54931,0.04410892,1.68245,1.0346
182.635,15.5678,0.04408974,1.66248,1.03434
183.235,15.5863,0.04409,1.64269,1.03409
183.835,15.6047,0.04409,1.62705,1.03383
184.435,15.62315,0.04409,1.61227,1.03357
185.035,15.64151,0.04409,1.59883,1.03332
185.635,15.6599,0.04409,1.5877,1.03306
186.235,15.6782,0.04409,1.58014,1.0328
186.835,15.69655,0.04408999,1.57012,1.03254
187.435,15.715,0.04409018,1.56192,1.03227
188.035,15.7333,0.04409032,1.55766,1.03201
188.635,15.7517,0.0435738,1.5506,1.03175
189.235,15.77,0.04342521,1.54492,1.03148
189.835,15.78827,0.04343009,1.53841,1.03122
190.435,15.8067,0.04343,1.53714,1.03095
191.035,15.8251,0.04343,1.53258,1.03069
191.635,15.84345,0.04343001,1.53076,1.03042
192.235,15.8619,0.04342985,1.52806,1.03015
192.835,15.8802,0.04343075,1.52679,1.02989
193.435,15.8986,0.04391518,1.52611,1.02962
194.035,15.91695,0.04473755,1.52484,1.02935
194.635,15.9352,0.04475319,1.52298,1.02908
195.235,15.9535,0.04509661,1.52342,1.0288
195.835,15.9718,0.04607878,1.52161,1.02853
196.435,15.99017,0.04605623,1.52119,1.02826
197.035,16.0086,0.04517374,1.52038,1.02798
197.635,16.02692,0.04474922,1.52038,1.02771
198.235,16.04523,0.04474989,1.52109,1.02743
198.835,16.0635,0.04475001,1.51957,1.02716
199.435,16.08173,0.04475,1.52014,1.02688
200.035,16.10004,0.04475,1.52163,1.0266
200.635,16.11834,0.04475,1.52186,1.02632
201.235,16.1367,0.04475,1.52377,1.02605
201.835,16.15498,0.04475001,1.52195,1.02577
202.435,16.1733,0.04475001,1.52517,1.02548
203.035,16.19164,0.04473271,1.52443,1.0252
203.635,16.20995,0.0440215,1.52748,1.02492
204.235,16.22822,0.04412368,1.52659,1.02464
204.835,16.24651,0.04508231,1.52555,1.02435
205.435,16.26483,0.04507934,1.52768,1.02407
206.035,16.28314,0.04508002,1.52887,1.02378
206.635,16.3014,0.04508,1.53088,1.0235
207.235,16.3195,0.04508,1.53119,1.02321
207.835,16.33762,0.04508,1.53172,1.02292
208.435,16.3559,0.04508,1.53515,1.02264
209.035,16.37425,0.04508,1.53561,1.02235
209.635,16.39274,0.04508,1.53584,1.02206
210.235,16.41114,0.04507932,1.53904,1.02177
210.835,16.42945,0.045109,1.53759,1.02148
211.435,16.4477,0.0447565,1.53966,1.02118
212.035,16.46595,0.04475013,1.54385,1.02089
212.635,16.48415,0.04475009,1.54395,1.0206
213.235,16.50225,0.04474651,1.54514,1.0203
213.835,16.5205,0.04437565,1.54658,1.02001
214.435,16.53876,0.04342316,1.54578,1.01971
215.035,16.55708,0.04343032,1.54865,1.01942
215.635,16.57536,0.04342999,1.55087,1.01912
216.235,16.59367,0.04343,1.55001,1.01882
216.835,16.61192,0.04343,1.5516,1.01852
217.435,16.63018,0.04343,1.55357,1.01823
218.035,16.64847,0.04343,1.55456,1.01793
218.635,16.6666,0.04343,1.55707,1.01763
219.235,16.6848,0.04343,1.55704,1.01732
219.835,16.703,0.04343,1.55861,1.01702
220.435,16.72125,0.04343,1.56013,1.01672
221.035,16.7395,0.04343,1.56217,1.01642
221.635,16.75769,0.04343,1.5627,1.01611
222.235,16.7759,0.04342993,1.56326,1.01581
222.835,16.79411,0.0434311,1.5653,1.0155
223.435,16.81233,0.04367962,1.56756,1.0152
224.035,16.83061,0.04476555,1.56862,1.01489
224.635,16.84887,0.04474964,1.56808,1.01458
225.235,16.8671,0.04475,1.57037,1.01427
225.835,16.88524,0.04475,1.57137,1.01396
226.435,16.90342,0.04475001,1.57318,1.01365
227.035,16.92159,0.04474968,1.5738,1.01334
227.635,16.93979,0.04474832,1.57532,1.01303
228.235,16.95802,0.04439889,1.57698,1.01272
228.835,16.9762,0.04442063,1.57757,1.01241
229.435,16.99444,0.0444208,1.58073,1.01209
230.035,17.01269,0.04443673,1.58011,1.01178
230.635,17.0309,0.04409688,1.58217,1.01147
231.235,17.0491,0.04408968,1.58374,1.01115
231.835,17.06733,0.04409169,1.58499,1.01083
232.435,17.0855,0.04437382,1.58576,1.01052
233.035,17.10369,0.04442219,1.58688,1.0102
233.635,17.1219,0.04441995,1.58851,1.00988
234.235,17.14014,0.04442,1.59057,1.00956
234.835,17.15831,0.04441997,1.59101,1.00924
235.435,17.17653,0.0444217,1.59042,1.00892
236.035,17.19466,0.04437944,1.59243,1.0086
236.635,17.21282,0.04375644,1.59514,1.00828
237.235,17.23095,0.04376036,1.59657,1.00796
237.835,17.24912,0.04375999,1.59839,1.00764
238.435,17.26729,0.04376,1.59944,1.00731
239.035,17.28548,0.04376,1.60283,1.00699
239.635,17.3037,0.04376,1.60144,1.00666
240.235,17.32186,0.04376018,1.60273,1.00634
240.835,17.34003,0.04375988,1.60441,1.00601
241.435,17.35814,0.04460712,1.60588,1.00568
242.035,17.3762,0.0447544,1.60781,1.00536
242.635,17.39428,0.04474995,1.60902,1.00503
243.235,17.41244,0.04475,1.60978,1.0047
243.835,17.43054,0.04475,1.61206,1.00437
244.435,17.44876,0.0447502,1.61238,1.00404
245.035,17.46696,0.04474878,1.61429,1.00371
245.635,17.48509,0.0442545,1.6156,1.00338
246.235,17.50325,0.04376394,1.61613,1.00305
246.835,17.52137,0.0437665,1.61705,1.00271
247.435,17.5395,0.04280076,1.61721,1.00238
248.035,17.5576,0.04276676,1.61937,1.00204
248.635,17.57564,0.04277008,1.61897,1.00171
249.235,17.59364,0.04277,1.61977,1.00137
249.835,17.61169,0.04277,1.6212,1.00104
250.435,17.62987,0.04277,1.62415,1.0007
251.035,17.64808,0.04277,1.62248,1.00036
251.635,17.66636,0.04277,1.62667,1.00003
252.235,17.68451,0.04277,1.62636,0.99969
252.835,17.70261,0.04277001,1.62806,0.99935
253.435,17.7207,0.04276987,1.6274,0.99901
254.035,17.7388,0.04276262,1.62879,0.99867
254.635,17.75689,0.04240805,1.63186,0.99833
255.235,17.77495,0.04244061,1.6315,0.99798
255.835,17.793,0.04244,1.6346,0.99764
256.435,17.81121,0.04244,1.635,0.9973
257.035,17.82923,0.04244,1.63614,0.99695
257.635,17.8474,0.04244,1.63851,0.99661
258.235,17.8655,0.04244001,1.6388,0.99627
258.835,17.88356,0.04243964,1.63916,0.99592
259.435,17.9017,0.04244975,1.64059,0.99557
260.035,17.9198,0.04147649,1.64109,0.99523
260.635,17.93787,0.04113331,1.64588,0.99488
261.235,17.9559,0.04112995,1.64353,0.99453
261.835,17.97406,0.04112927,1.64394,0.99418
262.435,17.99214,0.04109133,1.64963,0.99383
263.035,18.01025,0.04248687,1.6507,0.99348
263.635,18.02838,0.04243908,1.64977,0.99313
264.235,18.04642,0.04244,1.64896,0.99278
264.835,18.06452,0.04244,1.65111,0.99243
265.435,18.0826,0.04244,1.65308,0.99208
266.035,18.10075,0.04243999,1.65503,0.99172
266.635,18.1189,0.04243952,1.65587,0.99137
267.235,18.13704,0.04247505,1.65914,0.99101
267.835,18.1552,0.04211904,1.65905,0.99066
268.435,18.17325,0.04211001,1.66102,0.9903
269.035,18.19128,0.04210999,1.66044,0.98995
269.635,18.20939,0.04211,1.66212,0.98959
270.235,18.22749,0.04211,1.66372,0.98923
270.835,18.24559,0.04211,1.66536,0.98888
271.435,18.2637,0.04211,1.6646,0.98852
272.035,18.2818,0.04211,1.66693,0.98816
272.635,18.29986,0.04211,1.66718,0.9878
273.235,18.318,0.04211,1.67129,0.98744
273.835,18.33615,0.04211,1.66955,0.98708
274.435,18.3542,0.04211,1.674,0.98671
275.035,18.3723,0.04211,1.67317,0.98635
275.635,18.39038,0.04211,1.67446,0.98599
276.235,18.4085,0.04211001,1.67503,0.98563
276.835,18.42657,0.04211002,1.6781,0.98526
277.435,18.44471,0.04209668,1.67734,0.9849
278.035,18.46283,0.04111221,1.67725,0.98453
278.635,18.48094,0.04079759,1.67937,0.98417
279.235,18.49908,0.04079767,1.67886,0.9838
279.835,18.5171,0.04110716,1.68272,0.98343
280.435,18.53517,0.04209757,1.68395,0.98307
281.035,18.5533,0.04211043,1.68521,0.9827
281.635,18.5714,0.04305639,1.68592,0.98233
282.235,18.58954,0.04310114,1.68656,0.98196
282.835,18.6077,0.04309998,1.68805,0.98159
283.435,18.62575,0.0431,1.68909,0.98122
284.035,18.64384,0.0431,1.68956,0.98085
284.635,18.662,0.0431,1.69153,0.98048
285.235,18.68017,0.0431,1.69196,0.98011
285.835,18.6983,0.0431,1.69394,0.97973
286.435,18.71651,0.0431,1.69484,0.97936
287.035,18.73463,0.0431,1.69508,0.97899
287.635,18.75281,0.0431,1.69522,0.97861
288.235,18.771,0.0431,1.69553,0.97824
288.835,18.78911,0.0431,1.69902,0.97786
289.435,18.80724,0.04310004,1.69944,0.97748
290.035,18.82536,0.04310297,1.69988,0.97711
290.635,18.84347,0.04282067,1.70124,0.97673
291.235,18.8616,0.04180204,1.69949,0.97635
291.835,18.8798,0.04179004,1.70353,0.97598
292.435,18.89793,0.04178999,1.70458,0.9756
293.035,18.91602,0.04179,1.70642,0.97522
293.635,18.9342,0.04179,1.70651,0.97484
294.235,18.95222,0.04179,1.70544,0.97446
294.835,18.97039,0.04179,1.70713,0.97408
295.435,18.98856,0.04179,1.70651,0.97369
296.035,19.00671,0.04179,1.70951,0.97331
296.635,19.02492,0.04179,1.71047,0.97293
297.235,19.04308,0.04179,1.71269,0.97255
297.835,19.06127,0.04179,1.71087,0.97216
298.435,19.0794,0.04179,1.71383,0.97178
299.035,19.0976,0.04179,1.71348,0.97139
299.635,19.1157,0.04179,1.71531,0.97101
300.235,19.13387,0.04179,1.71959,0.97062
300.835,19.15205,0.04179,1.71618,0.97024
301.435,19.1703,0.04179,1.71708,0.96985
302.035,19.18852,0.04179,1.72005,0.96946
302.635,19.20664,0.04179,1.71858,0.96907
303.235,19.22477,0.04178999,1.72284,0.96868
303.835,19.24294,0.04179059,1.7199,0.96829
304.435,19.2611,0.04177884,1.72171,0.96791
305.035,19.2793,0.04212653,1.72348,0.96751
305.635,19.2975,0.0421195,1.72244,0.96712
306.235,19.31569,0.04212001,1.72453,0.96673
306.835,19.3339,0.04212,1.72671,0.96634
307.435,19.35202,0.04212,1.72607,0.96595
308.035,19.37017,0.04212,1.72728,0.96556
308.635,19.38832,0.04212,1.72949,0.96516
309.235,19.40648,0.04212,1.73083,0.96477
309.835,19.42473,0.04212,1.72929,0.96437
310.435,19.44293,0.04212,1.72944,0.96398
311.035,19.46118,0.04212,1.73164,0.96358
311.635,19.47934,0.04212,1.73069,0.96319
312.235,19.4973,0.04212,1.73402,0.96279
312.835,19.51536,0.04211998,1.73396,0.9624
313.435,19.5335,0.04212007,1.73364,0.962
314.035,19.55177,0.04213774,1.73792,0.9616
314.635,19.57015,0.04079422,1.73825,0.9612
315.235,19.5885,0.03982428,1.73679,0.9608
315.835,19.60673,0.03980998,1.73848,0.9604
316.435,19.6249,0.03980999,1.73871,0.96
317.035,19.64313,0.03981,1.73905,0.9596
317.635,19.66135,0.03981,1.73843,0.9592
318.235,19.6796,0.03981,1.73882,0.9588
318.835,19.69785,0.03981,1.74106,0.9584
319.435,19.7161,0.03981,1.74208,0.958
320.035,19.7344,0.03981,1.74399,0.95759
320.635,19.7526,0.03981,1.74392,0.95719
321.235,19.77076,0.03981,1.74611,0.95679
321.835,19.78898,0.03981,1.74611,0.95638
322.435,19.80718,0.03981,1.74743,0.95598
323.035,19.82541,0.03981,1.7475,0.95557
323.635,19.84359,0.03981,1.75083,0.95517
324.235,19.86161,0.03981,1.74978,0.95476
324.835,19.87966,0.03981,1.74992,0.95435
325.435,19.89791,0.03981,1.75108,0.95395
326.035,19.9162,0.03980996,1.75304,0.95354
326.635,19.93459,0.03981092,1.75314,0.95313
327.235,19.95299,0.0398198,1.75506,0.95272
327.835,19.97125,0.03948162,1.75436,0.95231
328.435,19.98951,0.03884143,1.75566,0.9519
329.035,20.00781,0.03848676,1.75502,0.95149
329.635,20.026,0.03848995,1.75912,0.95108
330.235,20.04433,0.03849001,1.75696,0.95067
330.835,20.06263,0.03849,1.75919,0.95026
331.435,20.08096,0.03849,1.7594,0.94985
332.035,20.0993,0.03849,1.75993,0.94944
332.635,20.11756,0.03849,1.76145,0.94902
333.235,20.13583,0.03849,1.76261,0.94861
333.835,20.15411,0.03849,1.76515,0.9482
334.435,20.17245,0.03849,1.7651,0.94778
335.035,20.19073,0.03849,1.76486,0.94737
335.635,20.20905,0.03849,1.76621,0.94695
336.235,20.2273,0.03849,1.76562,0.94654
336.835,20.2456,0.03849,1.7661,0.94612
337.435,20.26393,0.03849,1.76867,0.9457
338.035,20.2822,0.03849001,1.76829,0.94529
338.635,20.3005,0.03848996,1.77048,0.94487
339.235,20.3188,0.03848667,1.77225,0.94445
339.835,20.33711,0.03775436,1.77213,0.94403
340.435,20.3554,0.03750579,1.7731,0.94361
341.035,20.37368,0.03751002,1.77404,0.94319
341.635,20.39205,0.03751,1.7775,0.94277
342.235,20.41041,0.03751,1.77511,0.94235
342.835,20.4288,0.03751,1.77735,0.94193
343.435,20.44718,0.03751,1.77882,0.94151
344.035,20.46549,0.03751,1.7793,0.94109
344.635,20.4838,0.03751001,1.7795,0.94067
345.235,20.50214,0.03750956,1.78137,0.94025
345.835,20.52051,0.0375148,1.78076,0.93982
346.435,20.53888,0.03716877,1.7831,0.9394
347.035,20.55732,0.03718054,1.78504,0.93898
347.635,20.5757,0.03717995,1.78383,0.93855
348.235,20.59404,0.03718049,1.78536,0.93813
348.835,20.61241,0.03720242,1.78866,0.9377
349.435,20.6308,0.03685729,1.78822,0.93728
350.035,20.64912,0.03684955,1.78785,0.93685
350.635,20.66747,0.03685429,1.7881,0.93643
351.235,20.6859,0.03593098,1.79256,0.936
351.835,20.70423,0.03553367,1.79251,0.93557
352.435,20.72265,0.0355299,1.79182,0.93515
353.035,20.7411,0.03553,1.7929,0.93472
353.635,20.75949,0.03553,1.7933,0.93429
354.235,20.7779,0.03553,1.79518,0.93386
354.835,20.79629,0.03553,1.79479,0.93343
355.435,20.81466,0.03553,1.79684,0.933
356.035,20.83306,0.03553002,1.79721,0.93257
356.635,20.85145,0.03552513,1.79604,0.93214
357.235,20.8699,0.03488071,1.79939,0.93171
357.835,20.88834,0.0342146,1.79965,0.93128
358.435,20.90675,0.03420999,1.80088,0.93085
359.035,20.92517,0.03420583,1.79942,0.93042
359.635,20.94357,0.03353583,1.802,0.92998
360.235,20.96193,0.03290488,1.80271,0.92955
360.835,20.98033,0.03289998,1.80341,0.92912
361.435,20.99879,0.03290002,1.80478,0.92868
362.035,21.0172,0.03289866,1.8091,0.92825
362.635,21.03572,0.03296557,1.80672,0.92782
363.235,21.05419,0.03422077,1.80622,0.92738
363.835,21.07266,0.03421024,1.80829,0.92695
364.435,21.09112,0.03420957,1.80876,0.92651
365.035,21.10955,0.03422822,1.81067,0.92607
365.635,21.128,0.03304386,1.81187,0.92564
366.235,21.14645,0.03158741,1.81107,0.9252
366.835,21.16488,0.0315905,1.81281,0.92476
367.435,21.18336,0.03158964,1.81665,0.92433
368.035,21.20178,0.03160015,1.81563,0.92389
368.635,21.22024,0.03057967,1.81845,0.92345
369.235,21.23872,0.03027192,1.81728,0.92301
369.835,21.25722,0.03026993,1.81868,0.92257
370.435,21.2757,0.03026974,1.81957,0.92213
371.035,21.29421,0.03027473,1.82041,0.92169
371.635,21.3127,0.02934576,1.82195,0.92125
372.235,21.33119,0.02896333,1.8203,0.92081
372.835,21.3497,0.0289599,1.82397,0.92037
373.435,21.3682,0.02896,1.82293,0.91993
374.035,21.38671,0.02896,1.82481,0.91949
374.635,21.4052,0.02895994,1.8238,0.91905
375.235,21.42363,0.02896365,1.82732,0.9186
375.835,21.44214,0.02881317,1.82431,0.91816
376.435,21.46066,0.02764671,1.82411,0.91772
377.035,21.47922,0.02764021,1.8252,0.91727
377.635,21.49782,0.02763999,1.82726,0.91683
378.235,21.51642,0.02764,1.82847,0.91639
378.835,21.53493,0.02763999,1.82885,0.91594
379.435,21.55349,0.02764005,1.83026,0.9155
380.035,21.572,0.02765525,1.83087,0.91505
380.635,21.59056,0.02640221,1.83222,0.91461
381.235,21.60913,0.02631485,1.83094,0.91416
381.835,21.6277,0.02589981,1.83336,0.91371
382.435,21.64625,0.02500789,1.83482,0.91327
383.035,21.66485,0.02501367,1.83627,0.91282
383.635,21.6834,0.02473779,1.83473,0.91237
384.235,21.70199,0.0237035,1.8377,0.91192
384.835,21.7205,0.02368989,1.84005,0.91148
385.435,21.739,0.02368932,1.8421,0.91103
386.035,21.75756,0.0237424,1.84248,0.91058
386.635,21.77611,0.02232948,1.84267,0.91013
387.235,21.7947,0.0223804,1.84457,0.90968
387.835,21.8134,0.02238045,1.84793,0.90923
388.435,21.832,0.02114491,1.8478,0.90878
389.035,21.85033,0.02105662,1.84874,0.90833
389.635,21.86879,0.02106096,1.8501,0.90788
390.235,21.88736,0.02104607,1.8501,0.90743
390.835,21.906,0.01975278,1.85421,0.90698
391.435,21.92483,0.01973834,1.8556,0.90652
392.035,21.9436,0.01979031,1.8564,0.90607
392.635,21.96217,0.01837931,1.85881,0.90562
393.235,21.98077,0.01843053,1.85882,0.90517
393.835,21.99944,0.01842959,1.86151,0.90471
394.435,22.01805,0.01847965,1.86293,0.90426
395.035,22.03673,0.01706223,1.86698,0.90381
395.635,22.05536,0.01710239,1.86948,0.90335
396.235,22.07399,0.01636767,1.87088,0.9029
396.835,22.09256,0.01579368,1.87585,0.90244
397.435,22.1112,0.01561652,1.87552,0.90199
398.035,22.12985,0.01446118,1.87847,0.90153
398.635,22.1485,0.0144909,1.88056,0.90108
399.235,22.16722,0.01344425,1.8814,0.90062
399.835,22.18591,0.01315433,1.88557,0.90016
400.435,22.2046,0.01182923,1.88958,0.89971
401.035,22.2233,0.01163968,1.88989,0.89925
401.635,22.242,0.01035937,1.89242,0.89879
402.235,22.26062,0.009403297,1.89685,0.89833
402.835,22.27927,0.00773904,1.89865,0.89788
403.435,22.29797,0.007360574,1.90197,0.89742
404.035,22.3167,0.006137084,1.90604,0.89696
404.635,22.33534,0.00602073,1.90925,0.8965
405.235,22.354,0.005275536,1.91174,0.89604
405.835,22.37262,0.004595742,1.91644,0.89558
406.435,22.39128,0.003527447,1.92358,0.89512
407.035,22.40997,0.004426721,1.92655,0.89466
407.635,22.42866,0.002818777,1.93007,0.8942
408.235,22.44741,0.002076581,1.93808,0.89374
408.835,22.4661,0.0007408938,1.9431,0.89328
409.435,22.48483,-0.00147067,1.95202,0.89282
410.035,22.50357,-0.00227414,1.95525,0.89236
410.635,22.5223,-0.00312021,1.96361,0.89189
411.235,22.54102,-0.004841744,1.96807,0.89143
411.835,22.5597,-0.00634972,1.97268,0.89097
412.435,22.57844,-0.00728555,1.98189,0.89051
413.035,22.59715,-0.008005798,1.98464,0.89004
413.635,22.6159,-0.00956593,1.98895,0.88958
414.235,22.63462,-0.01102394,1.99493,0.88912
414.835,22.65332,-0.01173824,2.0018,0.88865
415.435,22.67205,-0.01318738,2.0078,0.88819
416.035,22.69075,-0.01395934,2.01426,0.88772
416.635,22.70949,-0.01475404,2.01919,0.88726
417.235,22.72824,-0.01675468,2.02593,0.88679
417.835,22.747,-0.01833427,2.03206,0.88633
418.435,22.76575,-0.02024651,2.03854,0.88586
419.035,22.78451,-0.02146022,2.0496,0.8854
419.635,22.80327,-0.02261674,2.06389,0.88493
420.235,22.822,-0.02436819,2.07338,0.88446
420.835,22.84082,-0.02610508,2.08207,0.884
421.435,22.85963,-0.0278019,2.09614,0.88353
422.035,22.87838,-0.02900423,2.12009,0.88306
422.635,22.89714,-0.03091319,2.15358,0.8826
423.235,22.91592,-0.03402503,2.17959,0.88213
423.835,22.9346,-0.03627187,2.196,0.88166
424.435,22.95341,-0.03861243,2.20394,0.88119
425.035,22.9722,-0.04128365,2.20972,0.88072
425.635,22.99094,-0.04366587,2.21582,0.88025
426.235,23.00975,-0.04655441,2.22306,0.87978
426.835,23.0286,-0.04937218,2.22835,0.87931
427.435,23.04738,-0.05151333,2.23581,0.87884
428.035,23.06625,-0.05422497,2.2468,0.87837
428.635,23.0851,-0.05728639,2.25483,0.8779
429.235,23.10397,-0.06011711,2.26453,0.87743
429.835,23.12283,-0.06329334,2.27581,0.87696
430.435,23.1417,-0.06613316,2.28712,0.87649
431.035,23.1605,-0.06928481,2.2996,0.87602
431.635,23.17931,-0.07246671,2.31616,0.87555
432.235,23.19814,-0.07550007,2.33466,0.87508
432.835,23.21685,-0.0794781,2.34971,0.87461
433.435,23.23565,-0.08358337,2.36476,0.87413
434.035,23.25446,-0.08767594,2.38195,0.87366
434.635,23.27334,-0.09192125,2.39882,0.87319
435.235,23.2923,-0.09618561,2.41663,0.87272
435.835,23.31115,-0.0998626,2.43416,0.87224
436.435,23.33002,-0.10395,2.45537,0.87177
437.035,23.3489,-0.10803,2.47669,0.8713
437.635,23.3677,-0.11231,2.50287,0.87082
438.235,23.3866,-0.11691,2.52443,0.87035
438.835,23.40549,-0.12181,2.54792,0.86987
439.435,23.42436,-0.12608,2.5709,0.8694
440.035,23.4433,-0.13034,2.59132,0.86892
440.635,23.4622,-0.13568,2.57247,0.86845
441.235,23.48112,-0.14178,2.5647,0.86797
441.835,23.50003,-0.14831,2.54093,0.8675
442.435,23.51892,-0.15382,2.53768,0.86702
443.035,23.5378,-0.15872,2.54807,0.86655
443.635,23.55668,-0.16366,2.55672,0.86607
444.235,23.57561,-0.16891,2.56582,0.86559
444.835,23.59456,-0.17372,2.58874,0.86512
445.435,23.61351,-0.17763,2.60441,0.86464
446.035,23.63251,-0.18169,2.61689,0.86416
446.635,23.65148,-0.18622,2.63754,0.86368
447.235,23.6705,-0.19115,2.66505,0.86321
447.835,23.68948,-0.19566,2.70478,0.86273
448.435,23.7085,-0.20056,2.74029,0.86225
449.035,23.72745,-0.20614,2.77922,0.86177
449.635,23.74644,-0.21261,2.82456,0.86129
450.235,23.76538,-0.21953,2.86217,0.86082
450.835,23.78432,-0.22642,2.9152,0.86034
451.435,23.80315,-0.23335,2.9677,0.85986
452.035,23.82206,-0.24073,3.01774,0.85938
452.635,23.8411,-0.24896,3.07239,0.8589
453.235,23.8601,-0.25826,3.12726,0.85842
453.835,23.8793,-0.26919,3.18762,0.85794
454.435,23.89835,-0.27957,3.25165,0.85746
455.035,23.91739,-0.28973,3.32006,0.85698
455.635,23.93649,-0.30047,3.38915,0.8565
456.235,23.95555,-0.31214,3.45956,0.85602
456.835,23.97459,-0.32344,3.53834,0.85554
457.435,23.99367,-0.33621,3.60826,0.85505
458.035,24.01267,-0.34985,3.68119,0.85457
458.635,24.03177,-0.36483,3.76163,0.85409
459.235,24.05087,-0.38052,3.84302,0.85361
459.835,24.07,-0.39778,3.93133,0.85313
460.435,24.08912,-0.41502,4.01793,0.85265
461.035,24.10823,-0.43283,4.09861,0.85216
461.635,24.12732,-0.45168,4.18681,0.85168
462.235,24.14641,-0.47096,4.27961,0.8512
462.835,24.1656,-0.49162,4.37767,0.85071
463.435,24.18475,-0.51299,4.47432,0.85023
464.035,24.20395,-0.53667,4.57335,0.84975
464.635,24.22314,-0.56107,4.67033,0.84926
465.235,24.24232,-0.58638,4.76893,0.84878
465.835,24.26153,-0.6127,4.87802,0.8483
466.435,24.2807,-0.63991,4.98978,0.84781
467.035,24.30005,-0.66959,5.08848,0.84733
467.635,24.31931,-0.69957,5.19596,0.84684
468.235,24.33854,-0.73097,5.30739,0.84636
468.835,24.3578,-0.7635,5.41416,0.84587
469.435,24.37695,-0.79786,5.52336,0.84539
470.035,24.3962,-0.83391,5.63846,0.8449
470.635,24.41542,-0.87151,5.73844,0.84442
471.235,24.4347,-0.91142,5.84207,0.84393
471.835,24.45401,-0.95157,5.95485,0.84345
472.435,24.47334,-0.994,6.06019,0.84296
473.035,24.49266,-1.03707,6.16925,0.84248
473.635,24.512,-1.08338,6.26433,0.84199
474.235,24.5313,-1.12871,6.36831,0.8415
474.835,24.55053,-1.17745,6.464,0.84102
475.435,24.56984,-1.25127,6.57012,0.84053
476.035,24.58918,-1.31251,6.65208,0.84004
476.635,24.60848,-1.35584,6.72626,0.83956
477.235,24.6279,-1.41364,6.80432,0.83907
477.835,24.64725,-1.47267,6.86883,0.83858
478.435,24.66657,-1.53192,6.93235,0.83809
479.035,24.68589,-1.59205,6.97277,0.83761
479.635,24.7053,-1.65443,7.02621,0.83712
480.235,24.72459,-1.71746,7.0562,0.83663
480.835,24.7439,-1.78216,7.07756,0.83614
481.435,24.76326,-1.84852,7.09521,0.83565
482.035,24.78262,-1.916,7.10439,0.83517
482.635,24.80191,-1.9838,7.11913,0.83468
483.235,24.82123,-2.05233,7.08821,0.83419
483.835,24.84056,-2.12115,7.06372,0.8337
484.435,24.85976,-2.19022,7.01824,0.83321
485.035,24.87908,-2.25959,6.96231,0.83272
485.635,24.8983,-2.33022,6.88214,0.83223
486.235,24.9175,-2.39966,6.79698,0.83174
486.835,24.93659,-2.46859,6.69221,0.83125
487.435,24.95576,-2.5378,6.56814,0.83076
488.035,24.97502,-2.60812,6.44279,0.83027
488.635,24.9943,-2.67722,6.2949,0.82978
489.235,25.01354,-2.74418,6.13118,0.82929
489.835,25.0326,-2.80934,5.96189,0.8288
490.435,25.05165,-2.87256,5.77151,0.82831
491.035,25.07067,-2.93305,5.57229,0.82782
491.635,25.08974,-2.99276,5.38973,0.82733
492.235,25.10886,-3.05225,5.17838,0.82684
492.835,25.12791,-3.11556,4.92273,0.82635
493.435,25.14696,-3.18439,4.64244,0.82586
494.035,25.166,-3.25273,4.35099,0.82536
494.635,25.18494,-3.31683,4.0498,0.82487
495.235,25.204,-3.37567,3.74653,0.82438
495.835,25.22286,-3.42766,3.4559,0.82389
496.435,25.24171,-3.47392,3.1724,0.8234
497.035,25.26052,-3.51683,2.89771,0.8229
497.635,25.27919,-3.55049,2.6365,0.82241
498.235,25.29789,-3.58146,2.38623,0.82192
498.835,25.31655,-3.61208,2.15126,0.82143
499.435,25.33513,-3.63955,1.93776,0.82094
500.035,25.35375,-3.66383,1.75511,0.82044
500.635,25.37238,-3.68623,1.57874,0.81995
501.235,25.39094,-3.70538,1.4082,0.81946
501.835,25.4096,-3.72239,1.25177,0.81896
502.435,25.4282,-3.73765,1.10768,0.81847
503.035,25.44675,-3.75133,0.97758,0.81798
503.635,25.46542,-3.76366,0.86147,0.81748
504.235,25.48405,-3.7739,0.75828,0.81699
504.835,25.5027,-3.78278,0.66378,0.8165
505.435,25.5213,-3.79059,0.57994,0.816
506.035,25.53996,-3.79754,0.50435,0.81551
506.635,25.55865,-3.80396,0.43569,0.81501
507.235,25.57739,-3.80974,0.37661,0.81452
507.835,25.59616,-3.8138,0.32261,0.81403
508.435,25.61489,-3.81761,0.27638,0.81353
509.035,25.63368,-3.82133,0.23578,0.81304
509.635,25.6525,-3.82463,0.19738,0.81254
510.235,25.6713,-3.82533,0.16022,0.81205
510.835,25.6902,-3.82751,0.1313,0.81155
511.435,25.70905,-3.82959,0.10503,0.81106
512.035,25.72791,-3.83139,0.08055287,0.81056
512.635,25.74675,-3.83255,0.05838687,0.81007
513.235,25.76567,-3.83342,0.03616822,0.80957
513.835,25.7846,-3.8346,0.02224444,0.80908
514.435,25.8035,-3.83472,0.004421264,0.80858
515.035,25.82249,-3.8359,-0.008098316,0.80809
515.635,25.84143,-3.83606,-0.02158787,0.80759
516.235,25.86029,-3.83675,-0.0341344,0.8071
516.835,25.87934,-3.83737,-0.04422301,0.8066
517.435,25.89836,-3.83821,-0.05515149,0.8061
518.035,25.91743,-3.83868,-0.06178819,0.80561
518.635,25.93665,-3.83934,-0.06832169,0.80511
519.235,25.95569,-3.84,-0.07146372,0.80462
519.835,25.97477,-3.84088,-0.08038018,0.80412
520.435,25.99383,-3.84154,-0.08318897,0.80362
521.035,26.01289,-3.84248,-0.08827925,0.80313
521.635,26.03201,-3.84295,-0.09455533,0.80263
522.235,26.05112,-3.845,-0.09663883,0.80213
522.835,26.07033,-3.8456,-0.10146,0.80164
523.435,26.0895,-3.84557,-0.10258,0.80114
524.035,26.10864,-3.84583,-0.10193,0.80064
524.635,26.12782,-3.8456,-0.10631,0.80015
525.235,26.14695,-3.8456,-0.10749,0.79965
525.835,26.16614,-3.8456,-0.10542,0.79915
526.435,26.18532,-3.84582,-0.10683,0.79866
527.035,26.20448,-3.84692,-0.10979,0.79816
527.635,26.22366,-3.84691,-0.10814,0.79766
528.235,26.2429,-3.84752,-0.10646,0.79716
528.835,26.2621,-3.84822,-0.10938,0.79667
529.435,26.2813,-3.84824,-0.10824,0.79617
530.035,26.30053,-3.84896,-0.10883,0.79567
530.635,26.31973,-3.84954,-0.11187,0.79517
531.235,26.339,-3.84954,-0.10831,0.79467
531.835,26.3582,-3.84952,-0.10902,0.79418
532.435,26.3774,-3.85079,-0.10953,0.79368
533.035,26.3966,-3.85086,-0.10979,0.79318
533.635,26.41582,-3.85086,-0.10728,0.79268
534.235,26.43507,-3.85086,-0.10717,0.79218
534.835,26.4543,-3.85086,-0.11085,0.79169
535.435,26.47356,-3.85155,-0.10616,0.79119
536.035,26.49284,-3.85218,-0.1047,0.79069
536.635,26.51207,-3.85218,-0.1051,0.79019
537.235,26.5313,-3.85218,-0.10372,0.78969
537.835,26.55061,-3.8525,-0.10391,0.78919
538.435,26.56987,-3.85348,-0.1011,0.7887
539.035,26.5892,-3.8535,-0.10201,0.7882
539.635,26.60855,-3.85438,-0.10236,0.7877
540.235,26.62786,-3.85481,-0.09956274,0.7872
540.835,26.6472,-3.85481,-0.10208,0.7867
541.435,26.66644,-3.85481,-0.10263,0.7862
542.035,26.68575,-3.85572,-0.10159,0.7857
542.635,26.7051,-3.85612,-0.10158,0.7852
543.235,26.7244,-3.85612,-0.1002,0.7847
543.835,26.7438,-3.85612,-0.09848919,0.78421
544.435,26.76306,-3.8561,-0.09651682,0.78371
545.035,26.7824,-3.85728,-0.09458143,0.78321
545.635,26.8018,-3.85744,-0.09094135,0.78271
546.235,26.82116,-3.85744,-0.08775,0.78221
546.835,26.84055,-3.85744,-0.0874713,0.78171
547.435,26.85991,-3.85843,-0.08515667,0.78121
548.035,26.8793,-3.85843,-0.08284625,0.78071
548.635,26.8987,-3.85843,-0.0802535,0.78021
549.235,26.9181,-3.85843,-0.08060921,0.77971
549.835,26.9375,-3.85843,-0.08125724,0.77921
550.435,26.95683,-3.85843,-0.08221404,0.77871
551.035,26.9763,-3.85843,-0.08642381,0.77821
551.635,26.99568,-3.85843,-0.0872768,0.77771
552.235,27.01507,-3.85793,-0.08886844,0.77721
552.835,27.0345,-3.8582,-0.09204202,0.77671
553.435,27.054,-3.85843,-0.09052932,0.77621
554.035,27.07344,-3.85843,-0.09416929,0.77571
554.635,27.0929,-3.85843,-0.09457899,0.77521
555.235,27.1124,-3.85843,-0.09797576,0.77471
555.835,27.13188,-3.85843,-0.10039,0.77421
556.435,27.15125,-3.8586,-0.1031,0.77371
557.035,27.1707,-3.85941,-0.1036,0.77321
557.635,27.1901,-3.85942,-0.10598,0.77271
558.235,27.20955,-3.85942,-0.10675,0.77221
558.835,27.2292,-3.85942,-0.1109,0.77171
559.435,27.24868,-3.85942,-0.1099,0.77121
560.035,27.2682,-3.85942,-0.11402,0.77071
560.635,27.2876,-3.85942,-0.11322,0.77021
561.235,27.30712,-3.85942,-0.11887,0.76971
561.835,27.3267,-3.85942,-0.11713,0.76921
562.435,27.3462,-3.85942,-0.12102,0.76871
563.035,27.36573,-3.85942,-0.12252,0.76821
563.635,27.38526,-3.85942,-0.12688,0.76771
564.235,27.4047,-3.85942,-0.12434,0.76721
564.835,27.42427,-3.85942,-0.12403,0.76671
565.435,27.44383,-3.85942,-0.12434,0.76621
566.035,27.46335,-3.85942,-0.12651,0.76571
566.635,27.4829,-3.85942,-0.12501,0.7652
567.235,27.5024,-3.85942,-0.12625,0.7647
567.835,27.52191,-3.85943,-0.12739,0.7642
568.435,27.5414,-3.85978,-0.12758,0.7637
569.035,27.56093,-3.85975,-0.13052,0.7632
569.635,27.58043,-3.85975,-0.1308,0.7627
570.235,27.6,-3.85975,-0.13053,0.7622
570.835,27.61957,-3.85975,-0.13075,0.7617
571.435,27.63917,-3.85975,-0.13343,0.7612
572.035,27.6587,-3.85975,-0.13329,0.7607
572.635,27.6783,-3.85975,-0.13366,0.7602
573.235,27.69785,-3.85975,-0.13312,0.7597
573.835,27.71745,-3.85975,-0.12978,0.7592
574.435,27.7371,-3.85975,-0.13242,0.7587
575.035,27.75655,-3.85975,-0.13294,0.75819
575.635,27.7761,-3.85975,-0.13547,0.75769
576.235,27.7956,-3.85975,-0.13457,0.75719
576.835,27.81519,-3.85971,-0.13624,0.75669
577.435,27.83478,-3.86039,-0.1354,0.75619
578.035,27.8544,-3.86041,-0.13398,0.75569
578.635,27.87401,-3.86041,-0.13713,0.75519
579.235,27.8936,-3.86005,-0.13844,0.75469
579.835,27.9132,-3.85909,-0.13954,0.75419
580.435,27.93283,-3.85909,-0.1415,0.75369
581.035,27.95242,-3.85909,-0.14339,0.75319
581.635,27.97182,-3.85909,-0.13945,0.75269
582.235,27.9914,-3.85909,-0.14428,0.75218
582.835,28.01107,-3.85909,-0.1452,0.75168
583.435,28.03077,-3.85909,-0.14621,0.75118
584.035,28.05058,-3.85909,-0.14792,0.75068
584.635,28.0702,-3.85909,-0.14883,0.75018
585.235,28.0898,-3.85924,-0.14854,0.74968
585.835,28.10947,-3.85942,-0.14869,0.74918
586.435,28.12909,-3.85943,-0.14945,0.74868
587.035,28.14873,-3.85978,-0.15143,0.74818
587.635,28.1684,-3.85975,-0.15212,0.74768
588.235,28.1881,-3.85975,-0.15115,0.74718
588.835,28.2079,-3.85975,-0.15353,0.74667
589.435,28.2276,-3.85975,-0.14992,0.74617
590.035,28.24725,-3.85975,-0.15357,0.74567
590.635,28.2669,-3.85975,-0.15291,0.74517
591.235,28.2865,-3.85975,-0.1524,0.74467
591.835,28.30623,-3.85975,-0.15345,0.74417
592.435,28.32589,-3.85975,-0.15031,0.74367
593.035,28.34555,-3.85952,-0.14876,0.74317
593.635,28.36526,-3.85877,-0.15303,0.74267
594.235,28.385,-3.85876,-0.15298,0.74217
594.835,28.40475,-3.85876,-0.15513,0.74167
595.435,28.42448,-3.85875,-0.15119,0.74117
596.035,28.44422,-3.85842,-0.15386,0.74067
596.635,28.4639,-3.85842,-0.15569,0.74016
597.235,28.48354,-3.85911,-0.15667,0.73966
597.835,28.50323,-3.85909,-0.15546,0.73916
598.435,28.5229,-3.85909,-0.15592,0.73866
599.035,28.54252,-3.85909,-0.15837,0.73816
599.635,28.56223,-3.85909,-0.15843,0.73766
600.235,28.58195,-3.85909,-0.15542,0.73716
600.835,28.60165,-3.85909,-0.15691,0.73666
601.435,28.6214,-3.85909,-0.15228,0.73616
602.035,28.6411,-3.85909,-0.15534,0.73566
602.635,28.66085,-3.85909,-0.15444,0.73516
603.235,28.68054,-3.85909,-0.15321,0.73466
603.835,28.7003,-3.85909,-0.15054,0.73416
604.435,28.71998,-3.85909,-0.15103,0.73366
605.035,28.7397,-3.85909,-0.15052,0.73316
605.635,28.7595,-3.85909,-0.15515,0.73266
606.235,28.7792,-3.85942,-0.15128,0.73216
606.835,28.79891,-3.85941,-0.15054,0.73166
607.435,28.8186,-3.85942,-0.15267,0.73116
608.035,28.8383,-3.86036,-0.15092,0.73066
608.635,28.85805,-3.8604,-0.14958,0.73016
609.235,28.87775,-3.86063,-0.15119,0.72966
609.835,28.8975,-3.86073,-0.15081,0.72916
610.435,28.9172,-3.86073,-0.15235,0.72866
611.035,28.9369,-3.86073,-0.15392,0.72816
611.635,28.95665,-3.86073,-0.15244,0.72766
612.235,28.9764,-3.86073,-0.15269,0.72716
612.835,28.9961,-3.86073,-0.15324,0.72666
613.435,29.0158,-3.86073,-0.15173,0.72616
614.035,29.03561,-3.86072,-0.15316,0.72566
614.635,29.05534,-3.85983,-0.15186,0.72516
615.235,29.07514,-3.85942,-0.14957,0.72466
615.835,29.09488,-3.85943,-0.15249,0.72416
616.435,29.1146,-3.86023,-0.15006,0.72366
617.035,29.13438,-3.86073,-0.15056,0.72316
617.635,29.1541,-3.86073,-0.1517,0.72266
618.235,29.17383,-3.86073,-0.14907,0.72216
618.835,29.1936,-3.86073,-0.15055,0.72166
619.435,29.21326,-3.86073,-0.14887,0.72116
620.035,29.23303,-3.86073,-0.14872,0.72066
620.635,29.25277,-3.86073,-0.15078,0.72016
621.235,29.27249,-3.86073,-0.15036,0.71966
621.835,29.29226,-3.86073,-0.15176,0.71916
622.435,29.312,-3.86071,-0.14758,0.71866
623.035,29.3317,-3.86201,-0.1494,0.71816
623.635,29.3515,-3.86205,-0.14796,0.71766
624.235,29.37125,-3.86205,-0.14737,0.71716
624.835,29.391,-3.86204,-0.14716,0.71666
625.435,29.41085,-3.86091,-0.14467,0.71617
626.035,29.4306,-3.86067,-0.14483,0.71567
626.635,29.45034,-3.86209,-0.14458,0.71517
627.235,29.4701,-3.86205,-0.14429,0.71467
627.835,29.4899,-3.86205,-0.14687,0.71417
628.435,29.50965,-3.86205,-0.14803,0.71367
629.035,29.52948,-3.86205,-0.14532,0.71317
629.635,29.5493,-3.86205,-0.14703,0.71267
630.235,29.56901,-3.86205,-0.14508,0.71218
630.835,29.5888,-3.86205,-0.14557,0.71168
631.435,29.60851,-3.86205,-0.1466,0.71118
632.035,29.6283,-3.86205,-0.14512,0.71068
632.635,29.6481,-3.86205,-0.14887,0.71018
633.235,29.6678,-3.86203,-0.14739,0.70968
633.835,29.68758,-3.86107,-0.14648,0.70918
634.435,29.70735,-3.86106,-0.14743,0.70869
635.035,29.7271,-3.86106,-0.14908,0.70819
635.635,29.74693,-3.86106,-0.14776,0.70769
636.235,29.76675,-3.86106,-0.14665,0.70719
636.835,29.78657,-3.86106,-0.15051,0.70669
637.435,29.80633,-3.86106,-0.14819,0.7062
638.035,29.8262,-3.86106,-0.14603,0.7057
638.635,29.846,-3.86106,-0.14951,0.7052
639.235,29.8658,-3.86106,-0.14674,0.7047
639.835,29.8856,-3.86104,-0.14909,0.70421
640.435,29.90535,-3.86139,-0.1507,0.70371
641.035,29.92513,-3.86139,-0.14954,0.70321
641.635,29.9449,-3.86139,-0.15145,0.70271
642.235,29.96475,-3.86139,-0.15343,0.70222
642.835,29.98462,-3.86139,-0.14974,0.70172
643.235,29.9979,-3.86139,-0.15129,0.70139