File: 01_Data/Overstuffed_Chair_Polyurethane_Foam/Cone/Overstuffed_Chair_Polyurethane_Foam_Cone_HF75Scan_210325_R1.csv
Names,Time,Stack TC,Smoke TC,Exh Press,Smoke Comp,Smoke Meas,CO Meter,CO2 Meter,O2 Meter,Sample Mass,Ext Coeff,Start Test,Flame Verif
Chan Gain,,500,500,1,1,1,1,1,1,1,1,1.0,1.0
Offset,,0,0,0.138348,0,0,0,0,0,0,0,0.0,0.0
Gain,,1,1,25.011,13.5067,16.616,1,1,1,1.00091,1.04608,1.0,1.0
Units,sec,C,C,Pa,%,%,%,%,%,g,/m,,
Baseline,,40.7659,44.1739,157.204,101.516,99.1312,-0.000567699,0.0831851,20.8627,-1.15113,0.218133,,
2,0.25,36.0124,37.7613,159.193,101.536,98.8784,0.000321187,0.0930531,20.8453,483.971,0.243367,0.0,0.0
4,0.75,35.8489,37.4706,158.674,101.557,98.1766,0.000609562,0.0952617,20.829,483.51,0.310665,0.0,0.0
6,1.25,36.2975,38.5361,149.194,101.548,90.9076,0.00119527,0.0970507,20.8043,483.38,1.01571,0.0,1.0
8,1.75,36.4733,39.1672,153.265,101.551,87.5102,0.00166969,0.103006,20.7843,483.5,1.36547,0.0,1.0
10,2.25,37.0687,40.3793,149.268,101.546,84.2568,0.00205397,0.111345,20.7447,483.29,1.71268,0.0,1.0
12,2.75,38.0011,41.0613,143.148,101.554,78.6464,0.00292176,0.121263,20.6991,482.549,2.34568,0.0,1.0
14,3.25,38.8022,42.3997,142.38,101.563,78.8462,0.00362466,0.129297,20.6501,482.809,2.32318,0.0,1.0
16,3.75,39.2565,43.7174,138.562,101.568,77.5887,0.00444688,0.145438,20.6104,482.91,2.47123,0.0,1.0
18,4.25,40.2624,44.617,139.916,101.563,77.1369,0.00534045,0.158512,20.5571,482.799,2.52434,0.0,1.0
20,4.75,40.8619,46.4235,130.501,101.574,76.3174,0.00606425,0.175434,20.5139,482.699,2.62331,0.0,1.0
22,5.25,41.0852,47.8179,135.367,101.563,79.046,0.00707114,0.194839,20.47,482.679,2.29996,0.0,1.0
24,5.75,41.1323,47.4716,142.362,101.567,77.7646,0.00788673,0.210557,20.4266,482.639,2.4503,0.0,1.0
26,6.25,41.9644,48.3655,141.935,101.567,74.2125,0.00872383,0.230321,20.3914,482.579,2.87932,0.0,0.0
28,6.75,42.8649,49.8207,141.024,101.589,76.2921,0.00956072,0.252659,20.3523,482.409,2.6277,0.0,0.0
30,7.25,43.1778,51.2794,130.17,101.58,77.6313,0.0104903,0.270753,20.3139,482.269,2.4672,0.0,0.0
32,7.75,44.2989,52.5137,132.288,101.586,75.5416,0.0112433,0.296365,20.2768,482.219,2.71819,0.0,0.0
34,8.25,44.8947,53.1518,134.332,101.577,76.467,0.012042,0.31711,20.2418,482.149,2.6056,0.0,0.0
36,8.75,45.1947,54.4238,127.216,101.577,75.7723,0.0126889,0.339301,20.2091,482.019,2.68939,0.0,0.0
38,9.25,46.9877,56.3164,129.768,101.585,75.0208,0.013213,0.362124,20.1826,481.889,2.78152,0.0,0.0
40,9.75,48.0633,57.5921,130.64,101.59,75.7612,0.0138272,0.383886,20.1602,481.899,2.69193,0.0,0.0
42,10.25,47.6193,58.7878,134.901,101.589,73.5767,0.0143246,0.404461,20.1412,481.819,2.96025,0.0,0.0
44,10.75,48.3232,58.9236,133.513,101.596,75.246,0.0148241,0.4237,20.1258,481.688,2.75502,0.0,0.0
46,11.25,49.3615,60.1572,143.459,101.585,76.074,0.0152287,0.441599,20.1133,481.608,2.65367,0.0,0.0
48,11.75,49.3299,61.0641,135.118,101.6,75.1111,0.0156757,0.456098,20.1021,481.558,2.77186,0.0,0.0
50,12.25,50.0698,61.8022,141.165,101.583,73.3941,0.0160377,0.472634,20.0919,481.478,2.98253,0.0,0.0
52,12.75,50.2621,62.7869,138.247,101.602,70.6914,0.0165279,0.486029,20.0737,481.428,3.32853,0.0,0.0
54,13.25,51.4568,63.2809,136.753,101.59,74.3596,0.016925,0.503353,20.05,481.338,2.86324,0.0,0.0
56,13.75,51.5934,64.2554,137.708,101.603,75.1248,0.0175464,0.517385,20.0308,481.258,2.77049,0.0,0.0
58,14.25,52.3766,65.4981,123.642,101.592,76.2794,0.0180497,0.533364,19.9786,481.138,2.62956,0.0,0.0
60,14.75,53.3574,66.9325,119.851,101.608,77.2611,0.0186585,0.55046,19.9363,480.978,2.51367,0.0,0.0
62,15.25,54.4579,69.0706,126.913,101.604,75.8742,0.0193324,0.571686,19.8495,480.838,2.67943,0.0,0.0
64,15.75,55.7244,71.1855,111.025,101.613,73.7399,0.0198783,0.59552,19.7793,480.648,2.94215,0.0,0.0
66,16.25,57.4667,74.6782,116.323,101.606,75.4255,0.020514,0.626612,19.7223,480.457,2.73413,0.0,0.0
68,16.75,59.3386,78.5167,117.926,101.615,76.6394,0.021203,0.662403,19.603,480.327,2.5884,0.0,0.0
70,17.25,61.489,82.1646,105.383,101.601,79.7417,0.0218461,0.691395,19.5063,480.137,2.22305,0.0,0.0
72,17.75,64.2052,87.3457,95.6846,101.631,83.4596,0.0224437,0.747629,19.3809,479.897,1.80754,0.0,0.0
74,18.25,66.9216,92.0436,102.923,101.604,85.4839,0.0229277,0.793179,19.2368,479.727,1.58518,0.0,0.0
76,18.75,70.0364,97.2956,105.585,101.622,88.2972,0.0234049,0.855615,19.1201,479.567,1.28973,0.0,0.0
78,19.25,73.3103,104.077,98.2828,101.601,89.5644,0.0237914,0.929174,18.9836,479.346,1.15707,0.0,0.0
80,19.75,76.5407,109.632,98.4118,101.622,91.8102,0.0241045,0.988757,18.8352,479.196,0.931679,0.0,0.0
82,20.25,79.7985,115.628,79.2742,101.609,92.7828,0.0242839,1.08568,18.659,478.926,0.83383,0.0,0.0
84,20.75,82.969,121.46,100.631,101.623,93.7052,0.0244293,1.16419,18.466,478.796,0.744324,0.0,0.0
86,21.25,85.9313,126.91,102.455,101.611,95.5869,0.0244597,1.2722,18.2827,478.426,0.560835,0.0,0.0
88,21.75,89.4052,132.653,78.4056,101.634,95.484,0.0244059,1.35969,18.11,478.245,0.572732,0.0,0.0
90,22.25,91.8741,137.679,98.4416,101.626,95.5312,0.0242445,1.43056,17.9701,478.155,0.567493,0.0,0.0
92,22.75,95.034,143.02,97.3478,101.625,96.0352,0.0240078,1.51597,17.8568,477.975,0.519094,0.0,0.0
94,23.25,97.9933,147.984,88.2801,101.62,96.4667,0.0238161,1.61035,17.765,477.675,0.477545,0.0,0.0
96,23.75,100.25,151.879,90.5089,101.636,94.6007,0.0232844,1.69778,17.6906,477.565,0.658277,0.0,0.0
98,24.25,102.222,155.381,93.8039,101.624,94.7234,0.0228536,1.77848,17.6304,477.445,0.645264,0.0,0.0
100,24.75,103.794,158.578,89.225,101.639,94.4303,0.0223118,1.85043,17.5816,477.214,0.675004,0.0,0.0
102,25.25,105.578,160.331,100.927,101.622,94.4582,0.0216994,1.91464,17.562,477.084,0.670768,0.0,0.0
104,25.75,106.547,162.668,83.8417,101.642,94.5687,0.0212033,1.96665,17.5461,476.974,0.661896,0.0,0.0
106,26.25,108.274,164.254,90.6982,101.633,92.7757,0.0203786,2.01233,17.5497,476.694,0.836728,0.0,0.0
108,26.75,109.503,166.849,102.136,101.645,93.9754,0.0197106,2.04932,17.5674,476.614,0.719867,0.0,0.0
110,27.25,110.02,167.368,94.1192,101.625,90.5395,0.0188257,2.07522,17.6158,476.394,1.05983,0.0,0.0
112,27.75,111.464,168.033,106.376,101.641,93.5896,0.0181089,2.09253,17.6855,476.354,0.757253,0.0,0.0
114,28.25,111.412,168.777,107.043,101.629,93.4562,0.0171886,2.09713,17.7814,476.304,0.769296,0.0,0.0
116,28.75,112.035,167.905,124.413,101.642,92.8183,0.0164432,2.09237,17.8947,476.163,0.833297,0.0,0.0
118,29.25,111.916,167.428,117.194,101.643,95.4799,0.0155258,2.08851,18.0276,476.043,0.573977,0.0,0.0
120,29.75,111.28,165.735,122.589,101.635,93.7944,0.0147828,2.05732,18.1722,476.093,0.736705,0.0,0.0
122,30.25,110.458,164.402,121.122,101.631,94.5804,0.0141809,2.03205,18.2894,476.073,0.659722,0.0,0.0
124,30.75,110.362,163.072,128.515,101.648,93.6585,0.0132607,1.98409,18.4145,475.913,0.751126,0.0,0.0
126,31.25,109.993,161.307,129.415,101.645,93.231,0.0125154,1.94524,18.5431,475.833,0.792879,0.0,0.0
128,31.75,108.498,157.72,129.34,101.651,94.9668,0.011694,1.8868,18.6737,475.803,0.624136,0.0,0.0
130,32.25,107.309,156.67,136.725,101.653,94.2503,0.0110286,1.83947,18.8033,475.783,0.693815,0.0,0.0
132,32.75,106.687,154.332,136.269,101.643,95.7624,0.0103338,1.78329,18.9316,475.783,0.546835,0.0,0.0
134,33.25,105.57,151.899,144.42,101.656,97.3257,0.00977108,1.72172,19.0564,475.823,0.399435,0.0,0.0
136,33.75,104.183,150.462,136.445,101.654,94.2204,0.0092142,1.67185,19.1826,475.763,0.696841,0.0,0.0
138,34.25,102.988,147.153,139.656,101.65,95.161,0.00876314,1.59966,19.3074,475.783,0.605277,0.0,0.0
140,34.75,101.879,144.511,137.309,101.646,94.6869,0.00831337,1.54119,19.4084,475.723,0.650774,0.0,0.0
142,35.25,100.306,142.12,146.339,101.676,96.1219,0.00794906,1.47086,19.5186,475.703,0.515427,0.0,0.0
144,35.75,100.034,140.572,144.622,101.647,96.0484,0.00760039,1.41389,19.6078,475.663,0.519845,0.0,0.0
146,36.25,98.4205,138.014,146.604,101.66,96.269,0.00726975,1.34569,19.6933,475.663,0.499986,0.0,0.0
148,36.75,96.7582,135.908,147.134,101.664,96.2745,0.00700193,1.29044,19.7745,475.663,0.499789,0.0,0.0
150,37.25,95.9009,133.385,147.887,101.665,98.2481,0.00672893,1.22569,19.8403,475.673,0.3137,0.0,0.0
152,37.75,94.8392,131.059,149.351,101.662,99.0422,0.00645734,1.17325,19.9061,475.673,0.239571,0.0,0.0
154,38.25,92.9293,128.347,149.55,101.669,99.4443,0.00623735,1.11858,19.9707,475.683,0.202987,0.0,0.0
156,38.75,92.2415,126.163,152.078,101.665,99.6644,0.00600288,1.06335,20.0372,475.643,0.182368,0.0,0.0
158,39.25,91.3305,125.113,154.004,101.664,99.7328,0.00579061,1.0186,20.1038,475.673,0.175956,0.0,0.0
160,39.75,88.8646,121.18,152.752,101.671,99.6821,0.00559856,0.9708,20.1772,475.703,0.181292,0.0,0.0
162,40.25,87.7167,119.017,148.161,101.689,99.5315,0.00542527,0.921672,20.2367,475.713,0.196802,0.0,0.0
164,40.75,86.6496,116.858,151.694,101.666,99.6142,0.00526894,0.881879,20.3016,475.703,0.187103,0.0,0.0
166,41.25,85.6112,114.541,151.001,101.676,99.5351,0.00514232,0.832046,20.3542,475.703,0.195248,0.0,0.0
168,41.75,84.507,113.168,151.45,101.669,99.9326,0.00500361,0.791682,20.3968,475.703,0.158038,0.0,0.0
170,42.25,83.6193,110.653,150.787,101.669,99.6948,0.00489125,0.746875,20.4364,475.723,0.179902,0.0,0.0
172,42.75,82.2737,109.529,147.29,101.681,100.014,0.00480024,0.710582,20.4731,475.723,0.151745,0.0,0.0
174,43.25,81.7231,106.843,150.797,101.68,99.6568,0.00466054,0.670445,20.5042,475.733,0.184445,0.0,0.0
176,43.75,79.9889,105.975,157.031,101.677,99.7795,0.00454739,0.637934,20.5306,475.703,0.172854,0.0,0.0
178,44.25,79.2653,104.023,149.841,101.687,100.738,0.00445574,0.602093,20.552,475.703,0.0859849,0.0,0.0
180,44.75,78.7129,102.467,152.533,101.681,99.924,0.00432557,0.573062,20.5756,475.693,0.159908,0.0,0.0
182,45.25,77.6697,100.328,146.422,101.684,100.077,0.00422013,0.549547,20.5946,475.713,0.146191,0.0,0.0
184,45.75,76.9,98.9605,150.27,101.678,100.11,0.00410012,0.518279,20.61,475.723,0.14262,0.0,0.0
186,46.25,75.843,97.8249,152.765,101.688,99.5974,0.00397176,0.492953,20.6278,475.733,0.190653,0.0,0.0
188,46.75,75.2511,96.4838,155.239,101.686,99.8418,0.00382477,0.468771,20.6422,475.723,0.167902,0.0,0.0
190,47.25,74.0873,94.7091,152.243,101.69,99.9549,0.00366699,0.445884,20.6579,475.703,0.157961,0.0,0.0
192,47.75,73.7107,93.4578,152.181,101.683,99.8951,0.00353919,0.427345,20.6705,475.703,0.162749,0.0,0.0
194,48.25,72.9943,91.5749,148.811,101.694,99.6988,0.00337141,0.40544,20.6857,475.703,0.181797,0.0,0.0
196,48.75,72.2428,91.1668,155.197,101.688,99.7059,0.00320498,0.387698,20.6979,475.713,0.180586,0.0,0.0
198,49.25,70.9825,90.0002,150.886,101.699,99.9128,0.00304271,0.370398,20.71,475.723,0.162606,0.0,0.0
200,49.75,70.688,88.5484,152.609,101.698,99.7146,0.00288209,0.35375,20.7198,475.703,0.180723,0.0,0.0
202,50.25,70.0486,86.7355,156.841,101.701,99.8956,0.00272572,0.340265,20.73,475.683,0.164376,0.0,0.0
204,50.75,69.5575,86.2659,154.353,101.689,99.8444,0.00259907,0.324906,20.7382,475.673,0.168004,0.0,0.0
206,51.25,68.9581,85.4647,153.794,101.696,99.9387,0.00246023,0.312465,20.7449,475.673,0.159935,0.0,0.0
208,51.75,68.6094,84.0396,147.922,101.695,100.058,0.00231514,0.299162,20.7521,475.693,0.148842,0.0,0.0
210,52.25,67.9096,82.691,151.137,101.702,99.7602,0.00225329,0.288386,20.7551,475.683,0.176858,0.0,0.0
212,52.75,67.2725,82.2667,149.681,101.696,100.157,0.00209964,0.276482,20.7613,475.673,0.139936,0.0,0.0
214,53.25,66.3401,81.424,151.989,101.704,99.997,0.00197518,0.266839,20.7671,475.653,0.155362,0.0,0.0
216,53.75,66.2818,80.0617,151.927,101.69,99.9625,0.00184726,0.257252,20.7723,475.673,0.157226,0.0,0.0
218,54.25,65.3289,79.1315,152.578,101.702,99.7095,0.00171924,0.247889,20.7769,475.663,0.181598,0.0,0.0
220,54.75,64.9711,78.5731,154.087,101.687,99.8758,0.00159622,0.240304,20.7806,475.653,0.164891,0.0,0.0
222,55.25,64.9131,77.9228,157.781,101.704,99.7531,0.00147916,0.235472,20.7858,475.653,0.177772,0.0,0.0
224,55.75,64.461,76.8407,154.954,101.695,99.7896,0.00136953,0.227211,20.7901,475.683,0.173559,0.0,0.0
226,56.25,63.7967,75.7391,156.542,101.707,99.6978,0.0012674,0.219395,20.7948,475.693,0.18308,0.0,0.0
228,56.75,63.5194,75.3317,152.585,101.694,99.743,0.00118467,0.212053,20.7987,475.693,0.177738,0.0,0.0
230,57.25,62.7785,74.4292,148.432,101.711,100.07,0.00110177,0.205168,20.802,475.673,0.14926,0.0,0.0
232,57.75,62.3796,73.5324,153.295,101.707,100.669,0.00103461,0.198748,20.805,475.643,0.0940537,0.0,0.0
234,58.25,62.178,73.0838,155.906,101.712,99.8413,0.000980216,0.192571,20.8073,475.663,0.170292,0.0,0.0
236,58.75,62.0119,72.1599,151.773,101.709,99.6334,0.000923932,0.186688,20.81,475.643,0.189196,0.0,0.0
238,59.25,61.8273,71.3201,152.978,101.716,99.78,0.000878341,0.181924,20.8127,475.643,0.176304,0.0,0.0
240,59.75,61.0417,70.9865,159.249,101.704,99.6324,0.000825527,0.17643,20.8154,475.673,0.188806,0.0,0.0
242,60.25,60.3869,70.4639,154.4,101.714,99.8748,0.000782747,0.17198,20.818,475.683,0.167402,0.0,0.0
244,60.75,59.8609,69.6972,152.847,101.7,99.9782,0.00072367,0.167534,20.8203,475.683,0.156713,0.0,0.0
246,61.25,59.7876,69.266,153.842,101.709,99.9656,0.000675817,0.163175,20.8224,475.693,0.158657,0.0,0.0
248,61.75,59.2226,68.6761,150.956,101.7,99.8241,0.000624209,0.159645,20.8246,475.673,0.170798,0.0,0.0
250,62.25,58.8524,67.4856,157.122,101.717,99.5295,0.000570845,0.155501,20.8268,475.673,0.199481,0.0,0.0
252,62.75,58.9364,67.5092,152.727,101.712,99.7937,0.000503226,0.152144,20.8287,475.683,0.174747,0.0,0.0
254,63.25,58.0699,66.8565,155.623,101.717,99.6872,0.000448454,0.148949,20.8306,475.673,0.184954,0.0,0.0
256,63.75,57.945,66.3943,150.798,101.705,99.6517,0.000395749,0.145932,20.832,475.683,0.187142,0.0,0.0
258,64.25,58.1593,65.6627,155.47,101.708,99.7911,0.000345552,0.143021,20.8332,475.693,0.174571,0.0,0.0
260,64.75,57.3116,65.5088,154.911,101.712,99.8981,0.000304893,0.140242,20.8342,475.703,0.165147,0.0,0.0
262,65.25,57.493,64.9096,154.055,101.721,99.8236,0.000260992,0.137605,20.835,475.693,0.172778,0.0,0.0
264,65.75,57.1984,64.6205,156.161,101.703,99.7156,0.000225432,0.135121,20.8359,475.693,0.181113,0.0,0.0
266,66.25,57.4016,64.139,155.276,101.723,99.8996,0.000196628,0.132752,20.8368,475.683,0.165938,0.0,0.0
268,66.75,56.7681,63.6614,159.981,101.707,99.8398,0.000170092,0.130513,20.8375,475.673,0.170022,0.0,0.0
270,67.25,56.3771,62.6693,155.757,101.719,100.026,0.000145712,0.128372,20.8387,475.653,0.153976,0.0,0.0
272,67.75,56.229,63.2664,156.79,101.716,99.7338,0.000125964,0.126344,20.8397,475.683,0.180549,0.0,0.0
274,68.25,55.9794,62.8016,160.298,101.716,99.604,0.000106314,0.124701,20.8407,475.693,0.1925,0.0,0.0
276,68.75,56.0701,62.0794,149.873,101.702,99.6603,9.03971e-05,0.12337,20.8418,475.673,0.186125,0.0,0.0
278,69.25,55.6035,61.8389,157.424,101.716,100.321,7.26329e-05,0.121821,20.8429,475.673,0.126719,0.0,0.0
280,69.75,55.5833,61.4102,151.612,101.704,100.155,5.21096e-05,0.120143,20.8444,475.653,0.140782,0.0,0.0
282,70.25,55.1889,60.977,156.41,101.712,99.8844,4.2102e-05,0.118783,20.8453,475.653,0.166405,0.0,0.0
284,70.75,54.8965,60.9928,151.745,101.715,100.258,2.49891e-05,0.1172,20.8468,475.633,0.132407,0.0,0.0
286,71.25,54.5195,60.8624,149.719,101.723,100.276,-5.92235e-06,0.115918,20.848,475.673,0.131442,0.0,0.0
288,71.75,54.3153,60.4338,151.475,101.714,99.9686,-3.09607e-05,0.114482,20.849,475.663,0.158824,0.0,0.0
290,72.25,54.5388,59.8978,154.033,101.719,99.9372,-5.95745e-05,0.113318,20.8498,475.643,0.162157,0.0,0.0
292,72.75,54.7042,59.7466,158.92,101.715,99.9438,-9.02513e-05,0.11159,20.8505,475.653,0.16118,0.0,0.0
294,73.25,53.9537,59.0907,150.111,101.724,100.071,-0.000115099,0.111064,20.851,475.653,0.150365,0.0,0.0
296,73.75,54.2532,58.8096,157.455,101.721,99.9118,-0.000135226,0.109823,20.8514,475.663,0.16467,0.0,0.0
298,74.25,53.218,58.1847,153.282,101.713,99.7267,-0.000151529,0.108818,20.8517,475.673,0.18098,0.0,0.0
300,74.75,53.2026,58.1561,155.861,101.71,99.9392,-0.000169606,0.107817,20.8523,475.653,0.161152,0.0,0.0
302,75.25,52.8481,58.0322,152.463,101.716,100.265,-0.000184249,0.106837,20.8529,475.663,0.131822,0.0,0.0
304,75.75,52.8677,57.5689,157.29,101.716,100.353,-0.000199763,0.106043,20.8534,475.653,0.12376,0.0,0.0
306,76.25,52.228,57.4389,155.965,101.716,99.8464,-0.000212329,0.105072,20.8538,475.663,0.170197,0.0,0.0
308,76.75,52.1061,57.2776,154.567,101.707,99.8439,-0.000228597,0.104285,20.8541,475.653,0.169687,0.0,0.0
310,77.25,52.8081,57.0912,155.229,101.714,99.7318,-0.000241774,0.103429,20.8544,475.663,0.180624,0.0,0.0
312,77.75,52.7369,56.9332,154.472,101.712,99.5614,-0.000258216,0.102736,20.8546,475.673,0.196128,0.0,0.0
314,78.25,51.7152,56.1099,149.95,101.716,99.7004,-0.000276727,0.102088,20.8548,475.653,0.183703,0.0,0.0
316,78.75,52.1949,56.2452,152.8,101.728,100.511,-0.00029172,0.101486,20.8549,475.653,0.110421,0.0,0.0
318,79.25,51.9373,56.1002,154.064,101.724,99.9549,-0.000309633,0.100947,20.855,475.643,0.16101,0.0,0.0
320,79.75,51.8534,55.8735,153.602,101.727,100.179,-0.000329335,0.100466,20.8551,475.673,0.140682,0.0,0.0
322,80.25,51.8948,55.6025,154.969,101.718,99.7298,-0.000346575,0.100026,20.8552,475.653,0.181108,0.0,0.0
324,80.75,51.756,55.3224,153.639,101.724,100.457,-0.000361694,0.0996241,20.8553,475.643,0.114993,0.0,0.0
326,81.25,51.4632,55.1777,156.079,101.72,99.5736,-0.00037394,0.0992986,20.8553,475.633,0.195713,0.0,0.0
328,81.75,51.4912,55.1171,155.442,101.722,99.9838,-0.000386295,0.0989703,20.8554,475.623,0.158135,0.0,0.0
330,82.25,51.4413,55.5523,148.173,101.716,99.9874,-0.000391562,0.0986462,20.8554,475.633,0.157288,0.0,0.0
332,82.75,51.0318,55.3693,153.945,101.733,100.393,-0.000396915,0.0983549,20.8554,475.643,0.121743,0.0,0.0
334,83.25,50.5828,55.0099,156.409,101.721,100.418,-0.000401251,0.0980931,20.8554,475.663,0.118301,0.0,0.0
336,83.75,50.9719,54.3556,154.397,101.733,99.9448,-0.000399892,0.0978811,20.8555,475.663,0.162686,0.0,0.0
338,84.25,50.4716,53.9906,155.426,101.72,100.294,-0.000398791,0.0976138,20.8555,475.663,0.129558,0.0,0.0
340,84.75,50.1175,54.1064,153.644,101.728,99.8439,-0.000389374,0.0973973,20.8555,475.663,0.171584,0.0,0.0
342,85.25,50.7425,54.0647,154.127,101.719,99.8175,-0.000381747,0.0972332,20.8555,475.683,0.173115,0.0,0.0
344,85.75,49.8589,53.3984,154.055,101.725,99.9128,-0.000375568,0.0969526,20.8555,475.653,0.164912,0.0,0.0
346,86.25,50.1712,52.9677,156.119,101.718,99.925,-0.000363256,0.0966966,20.8555,475.633,0.163199,0.0,0.0
348,86.75,50.1063,53.3487,156.218,101.746,99.8302,-0.000353284,0.0964634,20.8555,475.653,0.17444,0.0,0.0
350,87.25,49.7707,52.9075,156.371,101.724,100.069,-0.000336681,0.0962529,20.8555,475.653,0.150551,0.0,0.0
352,87.75,50.099,52.8824,155.406,101.73,99.5619,-0.000323233,0.0960631,20.8555,475.653,0.197642,0.0,0.0
354,88.25,49.9724,53.1722,152.652,101.741,99.8028,-0.000308496,0.0959093,20.8555,475.633,0.176474,0.0,0.0
356,88.75,49.4439,52.6802,156.4,101.732,99.927,-0.000293101,0.0956348,20.8555,475.653,0.164277,0.0,0.0
358,89.25,49.9126,53.1391,156.874,101.74,99.7962,-0.00028063,0.0954124,20.8558,475.643,0.176969,0.0,0.0
360,89.75,49.6329,52.6858,155.511,101.771,100.234,-0.000270529,0.0951233,20.8562,475.643,0.139644,0.0,0.0
362,90.25,49.6442,51.6973,152.747,101.718,99.7901,-0.000256577,0.0948891,20.8565,475.623,0.175595,0.0,0.0
364,90.75,49.5149,52.1989,156.629,101.733,99.8555,-0.000240085,0.0946568,20.8569,475.613,0.170957,0.0,0.0
366,91.25,48.9897,51.8667,158.3,101.723,100.192,-0.000219034,0.0944302,20.8572,475.613,0.139185,0.0,0.0
368,91.75,49.1625,52.3344,153.836,101.739,99.6877,-0.000195059,0.0942467,20.8575,475.623,0.186877,0.0,0.0
370,92.25,48.8917,52.4848,158.75,101.722,99.5558,-0.000167949,0.0940981,20.8577,475.613,0.197497,0.0,0.0
372,92.75,48.3714,52.0367,153.987,101.744,99.6076,-0.000139066,0.0938988,20.8578,475.633,0.194702,0.0,0.0
374,93.25,48.8291,51.7005,150.738,101.72,99.8119,-0.000115671,0.0936665,20.858,475.623,0.173776,0.0,0.0
376,93.75,48.39,51.5887,153.586,101.736,100.392,-8.81961e-05,0.0934209,20.8581,475.633,0.122012,0.0,0.0
378,94.25,48.9069,51.9612,158.094,101.728,99.9833,-6.59414e-05,0.0931704,20.8581,475.623,0.158739,0.0,0.0
380,94.75,48.5276,51.6551,153.052,101.74,99.8038,-4.79151e-05,0.0929101,20.8582,475.633,0.176343,0.0,0.0
382,95.25,48.3528,51.398,157.676,101.723,99.5001,-3.33138e-05,0.0926477,20.8583,475.623,0.202713,0.0,0.0
384,95.75,48.6454,51.031,151.936,101.738,99.8601,-2.46918e-05,0.0924352,20.8583,475.633,0.170947,0.0,0.0
386,96.25,48.5813,51.0764,153.149,101.724,99.7181,-2.05926e-05,0.0922086,20.8583,475.613,0.182776,0.0,0.0
388,96.75,48.5849,50.9706,150.173,101.744,99.8723,-2.43232e-05,0.092025,20.8584,475.643,0.170424,0.0,0.0
390,97.25,48.492,51.4305,148.417,101.728,100.089,-3.3691e-05,0.0918119,20.8584,475.613,0.149065,0.0,0.0
392,97.75,48.2148,51.1804,151.212,101.742,99.9884,-4.12788e-05,0.0915812,20.8584,475.603,0.159575,0.0,0.0
394,98.25,48.3247,50.962,150.598,101.731,100.025,-7.05643e-05,0.0913658,20.8584,475.583,0.155184,0.0,0.0
396,98.75,48.2668,50.7697,149.489,101.74,99.8013,-9.42856e-05,0.0911654,20.8584,475.603,0.176539,0.0,0.0
398,99.25,48.0117,50.3658,155.926,101.729,99.5995,-0.000124394,0.0909531,20.8585,475.633,0.194147,0.0,0.0
400,99.75,47.9207,50.9031,160.374,101.737,99.8337,-0.000158588,0.0907359,20.8583,475.613,0.173259,0.0,0.0
402,100.25,48.3597,50.9733,153.325,101.733,99.566,-0.000186284,0.09056,20.8582,475.593,0.197529,0.0,0.0
404,100.75,48.2199,50.0518,156.837,101.746,100.004,-0.000222115,0.0903632,20.8581,475.613,0.15843,0.0,0.0
406,101.25,47.9162,50.4197,153.712,101.733,99.7348,-0.000251138,0.0902037,20.858,475.613,0.181979,0.0,0.0
408,101.75,47.7657,50.3922,158.294,101.747,99.7693,-0.000275864,0.0899922,20.8579,475.603,0.180146,0.0,0.0
410,102.25,48.4068,50.3833,154.612,101.737,100.198,-0.000295893,0.0898208,20.8579,475.593,0.139882,0.0,0.0
412,102.75,47.7854,50.1797,150.928,101.746,99.7587,-0.000306027,0.089682,20.8578,475.593,0.181014,0.0,0.0
414,103.25,47.8423,50.3179,155.492,101.745,99.7065,-0.000314236,0.0895152,20.8578,475.593,0.185708,0.0,0.0
416,103.75,47.4493,50.4727,152.681,101.737,99.7303,-0.000317038,0.0893801,20.8578,475.623,0.182771,0.0,0.0
418,104.25,47.8748,50.2454,153.608,101.735,99.9833,-0.000315847,0.0892206,20.8577,475.623,0.159333,0.0,0.0
420,104.75,47.8048,50.1903,152.994,101.737,99.7927,-0.000311677,0.0890463,20.8577,475.603,0.177072,0.0,0.0
422,105.25,47.2299,50.0542,157.214,101.738,100.387,-0.000305415,0.0889266,20.8577,475.613,0.122615,0.0,0.0
424,105.75,47.6317,49.9612,152.959,101.73,100.239,-0.000304189,0.0888489,20.8577,475.603,0.135536,0.0,0.0
426,106.25,47.3534,49.645,151.995,101.738,99.747,-0.000306658,0.0888004,20.8573,475.613,0.181381,0.0,0.0
428,106.75,47.4886,49.4516,149.373,101.743,99.7612,-0.000308657,0.0887739,20.8569,475.593,0.180484,0.0,0.0
430,107.25,47.3873,49.6344,155.378,101.742,99.7257,-0.000318609,0.0887453,20.8566,475.573,0.183676,0.0,0.0
432,107.75,47.3152,49.7651,152.028,101.737,99.7156,-0.000334169,0.0887157,20.8563,475.593,0.184199,0.0,0.0
434,108.25,47.5094,49.9072,153.362,101.741,100.008,-0.000348055,0.0887418,20.8562,475.613,0.157612,0.0,0.0
436,108.75,46.7919,50.1198,154.579,101.749,99.6963,-0.000360457,0.088808,20.856,475.593,0.186976,0.0,0.0
438,109.25,47.1593,49.5252,152.878,101.749,99.7861,-0.000370502,0.0888617,20.8559,475.603,0.178793,0.0,0.0
440,109.75,46.9266,49.6568,153.7,101.744,99.7774,-0.000359153,0.0890139,20.8555,475.613,0.17914,0.0,0.0
442,110.25,46.6726,49.711,153.482,101.74,100.241,-0.00034996,0.0891372,20.8551,475.603,0.136242,0.0,0.0
444,110.75,46.9648,49.4478,155.428,101.74,99.6517,-0.00032181,0.0893159,20.8544,475.593,0.190266,0.0,0.0
446,111.25,46.5223,49.7666,157.169,101.739,99.743,-0.000299009,0.0895315,20.8537,475.573,0.18179,0.0,0.0
448,111.75,47.1064,49.28,157.111,101.739,99.6836,-0.000274451,0.0897061,20.8531,475.583,0.187287,0.0,0.0
450,112.25,46.637,48.8424,155.28,101.749,99.6263,-0.000254559,0.08997,20.8527,475.573,0.193494,0.0,0.0
452,112.75,46.8174,49.2223,155.978,101.742,99.565,-0.000238446,0.0901838,20.8519,475.583,0.198478,0.0,0.0
454,113.25,46.6842,49.0982,153.645,101.743,100.009,-0.000236932,0.0904429,20.8512,475.613,0.157751,0.0,0.0
456,113.75,46.6785,49.1325,159.039,101.739,99.8023,-0.00024609,0.0907302,20.8508,475.613,0.176372,0.0,0.0
458,114.25,46.0693,49.3117,147.584,101.747,99.7085,-0.000253507,0.0910489,20.8505,475.623,0.185745,0.0,0.0
460,114.75,46.9784,49.1064,153.431,101.749,99.7835,-0.000289962,0.0913844,20.8503,475.603,0.178952,0.0,0.0
462,115.25,46.7172,49.4152,155.446,101.758,99.9808,-0.000319491,0.0916562,20.8501,475.593,0.161685,0.0,0.0
464,115.75,46.646,48.702,152.381,101.741,99.8707,-0.000360459,0.0919122,20.8499,475.593,0.170266,0.0,0.0
466,116.25,46.1897,49.4065,156.244,101.75,99.9012,-0.000393643,0.0921519,20.8498,475.593,0.168252,0.0,0.0
468,116.75,46.4824,48.2202,153.575,101.744,100.163,-0.000426612,0.092346,20.8499,475.573,0.143766,0.0,0.0
470,117.25,46.5348,49.0822,160.181,101.749,100.263,-0.000453316,0.0925304,20.8502,475.593,0.134982,0.0,0.0
472,117.75,46.5999,49.0215,156.608,101.754,99.7906,-0.000471293,0.0926799,20.8507,475.603,0.178782,0.0,0.0
474,118.25,45.9637,48.3967,150.348,101.742,99.7911,-0.000485854,0.0928081,20.8513,475.603,0.177659,0.0,0.0
476,118.75,46.6267,48.3348,156.044,101.746,99.7414,-0.000487394,0.0929184,20.8518,475.603,0.182563,0.0,0.0
478,119.25,46.4932,48.5136,154.98,101.771,99.8297,-0.00047941,0.092979,20.8522,475.583,0.176754,0.0,0.0
480,119.75,46.6884,48.4407,160.511,101.743,99.5589,-0.000465893,0.0930023,20.8525,475.613,0.199149,0.0,0.0
482,120.25,46.0009,48.7536,157.798,101.758,99.8429,-0.000448598,0.0929926,20.853,475.623,0.174316,0.0,0.0
484,120.75,46.1928,48.5544,153.777,101.747,99.6907,-0.000434589,0.0929588,20.8536,475.623,0.187304,0.0,0.0
486,121.25,46.5106,48.1952,151.583,101.755,99.8241,-0.000423241,0.09291,20.8541,475.603,0.17578,0.0,0.0
488,121.75,45.8887,48.6861,152.442,101.741,100,-0.000406743,0.0928511,20.8545,475.603,0.158394,0.0,0.0
490,122.25,46.2637,48.1825,157.506,101.753,99.7384,-0.000393379,0.0928034,20.8548,475.603,0.183512,0.0,0.0
492,122.75,46.2847,48.5395,151.983,101.752,99.9924,-0.000389862,0.0926558,20.8551,475.593,0.160058,0.0,0.0
494,123.25,45.8598,47.6146,158.225,101.754,99.5685,-0.000387013,0.0925362,20.8553,475.583,0.199227,0.0,0.0
496,123.75,45.754,49.1213,148.742,101.758,99.9362,-0.000400537,0.0924107,20.8552,475.573,0.165819,0.0,0.0
498,124.25,46.5302,47.9008,154.125,101.761,99.5817,-0.000411492,0.0922833,20.855,475.583,0.198608,0.0,0.0
500,124.75,46.1126,47.845,153.276,101.746,99.6963,-0.000437415,0.09218,20.8548,475.583,0.186716,0.0,0.0
502,125.25,45.8727,48.2704,158.53,101.754,99.4007,-0.000458413,0.0920964,20.8548,475.613,0.214709,0.0,0.0
504,125.75,46.4943,48.1329,153.029,101.745,99.5949,-0.000483947,0.0920287,20.8551,475.593,0.196018,0.0,0.0
506,126.25,46.0062,48.1076,156.787,101.757,99.5538,-0.000494833,0.092001,20.8552,475.603,0.200844,0.0,0.0
508,126.75,45.7192,47.9764,161.912,101.763,99.8682,-0.000511524,0.0919787,20.8554,475.593,0.172469,0.0,0.0
510,127.25,46.3366,47.9412,155.947,101.759,99.5477,-0.000523313,0.0919197,20.8555,475.603,0.201627,0.0,0.0
512,127.75,45.6316,48.0814,156.557,101.756,99.5842,-0.000532862,0.0918719,20.8557,475.603,0.197965,0.0,0.0
514,128.25,45.724,48.1709,153.684,101.76,99.8555,-0.000532072,0.0918196,20.8558,475.583,0.173337,0.0,0.0
516,128.75,45.9454,47.1402,149.958,101.746,99.6502,-0.000531432,0.0917772,20.8558,475.573,0.190965,0.0,0.0
518,129.25,46.4529,48.0309,152.683,101.76,99.6578,-0.000528991,0.0917377,20.8559,475.553,0.191528,0.0,0.0
520,129.75,45.7153,47.6927,155.543,101.755,99.6527,-0.000525282,0.09167,20.856,475.553,0.191547,0.0,0.0
522,130.25,45.1271,47.9806,152.341,101.765,99.9336,-0.000522279,0.0915723,20.856,475.573,0.166684,0.0,0.0
524,130.75,45.4114,47.9416,153.581,101.747,100.113,-0.000507667,0.0914544,20.856,475.583,0.148627,0.0,0.0
526,131.25,45.3911,48.0192,156.283,101.758,99.7749,-0.000495832,0.0913589,20.8561,475.583,0.180638,0.0,0.0
528,131.75,45.0154,47.9345,149.902,101.748,99.5934,-0.000467977,0.0911727,20.8561,475.593,0.196418,0.0,0.0
530,132.25,45.6867,47.1397,162.515,101.768,99.6349,-0.000445415,0.0910219,20.8561,475.593,0.194335,0.0,0.0
532,132.75,45.3616,47.7009,153.905,101.751,99.5954,-0.000422653,0.0908568,20.8561,475.613,0.196529,0.0,0.0
534,133.25,45.7452,48.0795,158.008,101.769,99.5868,-0.000400177,0.0906844,20.8561,475.603,0.198921,0.0,0.0
536,133.75,45.3936,47.7714,154.954,101.756,99.8591,-0.000387741,0.0905447,20.8561,475.623,0.172713,0.0,0.0
538,134.25,45.056,47.8729,153.374,101.778,99.5792,-0.000382859,0.0902956,20.8562,475.643,0.20044,0.0,0.0
540,134.75,45.5564,47.5236,155.65,101.747,99.8155,-0.000378905,0.0900938,20.8566,475.593,0.175867,0.0,0.0
542,135.25,44.7998,47.7994,158.732,101.764,99.6821,-0.000418328,0.089808,20.857,475.603,0.189696,0.0,0.0
544,135.75,45.7878,47.9058,154.108,101.749,99.6279,-0.00045026,0.0895765,20.8573,475.603,0.193316,0.0,0.0
546,136.25,45.3111,47.5024,159.4,101.754,99.5569,-0.000476125,0.0892938,20.8575,475.583,0.20034,0.0,0.0
548,136.75,45.6079,47.2892,152.613,101.758,99.6415,-0.000533612,0.0890648,20.8577,475.583,0.192836,0.0,0.0
550,137.25,45.3143,47.4863,152.13,101.763,99.4879,-0.000580176,0.0888507,20.8578,475.563,0.20748,0.0,0.0
552,137.75,44.5164,47.9966,153.702,101.753,99.6715,-0.000632507,0.0886516,20.858,475.563,0.189635,0.0,0.0
554,138.25,45.3284,47.5419,157.73,101.771,99.6603,-0.000674895,0.0884903,20.8581,475.563,0.192334,0.0,0.0
556,138.75,45.2129,47.8888,152.278,101.753,99.6902,-0.000717755,0.0883324,20.8582,475.573,0.187945,0.0,0.0
558,139.25,45.8204,47.691,155.127,101.773,99.9194,-0.000752471,0.0882046,20.8582,475.593,0.168619,0.0,0.0
560,139.75,45.2099,47.7569,153.574,101.76,99.7668,-0.000782514,0.088101,20.8583,475.603,0.181494,0.0,0.0
562,140.25,45.2726,48.2445,156.338,101.76,99.6557,-0.00080858,0.0879084,20.8583,475.603,0.191715,0.0,0.0
564,140.75,44.8027,47.786,152.722,101.758,99.8205,-0.00082777,0.0877525,20.8588,475.593,0.176404,0.0,0.0
566,141.25,45.236,47.8629,154.36,101.758,99.6993,-0.000841583,0.087531,20.8592,475.583,0.187552,0.0,0.0
568,141.75,45.1699,47.434,155.553,101.761,99.6796,-0.000852772,0.0873517,20.8595,475.583,0.189632,0.0,0.0
570,142.25,45.2038,47.6753,157.312,101.764,99.6933,-0.000847733,0.0871656,20.8598,475.583,0.188631,0.0,0.0
572,142.75,45.0118,47.6791,153.208,101.751,99.816,-0.000830961,0.087015,20.86,475.573,0.176228,0.0,0.0
574,143.25,45.4429,47.4592,153.986,101.764,99.5807,-0.000817376,0.0868643,20.8601,475.563,0.198998,0.0,0.0
576,143.75,45.4722,47.5847,153.286,101.757,99.6781,-0.000788103,0.0867166,20.8603,475.573,0.1894,0.0,0.0
578,144.25,44.7244,47.219,155.928,101.765,99.6152,-0.000764392,0.0865969,20.8604,475.573,0.195971,0.0,0.0
580,144.75,45.103,46.939,158.331,101.756,99.4443,-0.000740314,0.0864728,20.8605,475.573,0.210871,0.0,0.0
582,145.25,44.714,47.3405,157.94,101.761,99.8459,-0.000720812,0.0863723,20.8605,475.583,0.174334,0.0,0.0
584,145.75,44.4401,46.907,151.023,101.765,99.5837,-0.000705014,0.0862909,20.8606,475.573,0.198793,0.0,0.0
586,146.25,44.6129,47.0958,157.234,101.768,99.7754,-0.000692219,0.0861299,20.8606,475.573,0.181482,0.0,0.0
588,146.75,44.8997,46.7449,157.435,101.763,99.7049,-0.000676983,0.0859995,20.8607,475.583,0.187484,0.0,0.0
590,147.25,44.704,46.8236,161.445,101.766,99.6121,-0.000664643,0.0858803,20.8607,475.593,0.196325,0.0,0.0
592,147.75,44.5864,47.1983,157.258,101.773,100.027,-0.000650993,0.0857837,20.8607,475.593,0.158743,0.0,0.0
594,148.25,44.4342,47.4301,158.561,101.758,99.815,-0.000639937,0.0856784,20.8608,475.573,0.176954,0.0,0.0
596,148.75,44.9877,47.0743,153.983,101.758,99.5878,,0.0855931,,475.563,0.197825,0.0,0.0
598,149.25,44.5429,47.4305,155.914,101.763,99.6953,,0.0854968,,475.563,0.188407,0.0,0.0
600,149.75,44.766,47.099,152.075,101.772,99.7085,,0.0854188,,475.553,0.187938,0.0,0.0
602,150.25,44.4437,47.4634,154.844,101.769,99.8038,,0.0853285,,475.553,0.178945,0.0,0.0
604,150.75,44.1398,47.1721,155.009,101.764,99.6907,,0.0852554,,475.573,0.188865,0.0,0.0
606,151.25,44.5085,47.3502,155.871,101.765,99.6644,,0.0851961,,475.573,0.191441,0.0,0.0
608,151.75,44.1534,47.2344,155.221,101.766,99.5989,,,,475.553,0.197503,0.0,0.0
610,152.25,44.4968,47.4541,154.332,101.756,99.7871,,,,475.563,0.179332,0.0,0.0
612,152.75,44.1225,47.2229,154.352,101.755,99.6142,,,,475.573,0.195135,0.0,0.0
614,153.25,44.8176,47.1564,155.408,101.78,99.5558,,,,475.553,0.202775,0.0,0.0
616,153.75,44.7755,46.7646,155.809,101.766,99.3936,,,,475.563,0.216442,0.0,0.0
618,154.25,44.561,46.9181,155.715,101.756,99.532,,,,475.583,0.202817,0.0,0.0
620,154.75,44.0411,46.8453,154.599,101.756,99.8195,,,,475.563,0.176273,0.0,0.0
622,155.25,44.4396,46.6797,151.342,101.753,99.8074,,,,475.553,0.177169,0.0,0.0
624,155.75,43.9897,46.8012,155.895,101.765,99.6993,,,,475.573,0.188183,0.0,0.0
626,156.25,44.2918,46.6998,154.472,101.759,99.6294,,,,475.573,0.194105,0.0,0.0
628,156.75,43.9665,46.6153,156.715,101.77,100.011,,,,475.573,0.160008,0.0,0.0
630,157.25,44.3437,47.1325,158.226,101.756,99.9306,,,,475.563,0.16607,0.0,0.0
632,157.75,43.9935,46.8482,156.699,101.759,99.891,,,,475.573,0.170038,0.0,0.0
634,158.25,44.3971,46.8493,153.876,101.763,99.5082,,,,475.583,0.205572,0.0,0.0
636,158.75,44.0863,46.4472,155.956,101.768,99.6299,,,,475.593,0.194801,0.0,0.0
638,159.25,43.8718,46.5294,159.289,101.753,99.5006,,,,475.603,0.205419,0.0,0.0
639,159.5,44.3417,46.3521,159.139,101.76,99.6715,,,,475.603,0.190267,0.0,0.0