File: 01_Data/Overstuffed_Chair_Polyurethane_Foam/Cone/Overstuffed_Chair_Polyurethane_Foam_Cone_HF50Scan_210326_R3.csv
Names,Time,Stack TC,Smoke TC,Exh Press,Smoke Comp,Smoke Meas,CO Meter,CO2 Meter,O2 Meter,Sample Mass,Ext Coeff,Start Test,Flame Verif
Chan Gain,,500,500,1,1,1,1,1,1,1,1,1.0,1.0
Offset,,0,0,0.138348,0,0,0,0,0,0,0,0.0,0.0
Gain,,1,1,25.011,13.5067,16.616,1,1,1,1.00091,1.04608,1.0,1.0
Units,sec,C,C,Pa,%,%,%,%,%,g,/m,,
Baseline,,35.4001,36.8739,159.038,101.197,97.3255,-0.00112009,0.0646179,20.9237,-0.180581,0.357947,,
2,0.25,31.8163,33.9812,156.089,101.65,97.6609,-0.00102627,0.065649,20.9156,475.433,0.36733,0.0,0.0
4,0.75,32.0618,33.8485,157.135,101.66,97.7496,-0.000795311,0.065868,20.9056,475.363,0.359888,0.0,0.0
6,1.25,31.8902,33.4744,158.598,101.657,97.5625,-0.000608237,0.0670429,20.891,475.263,0.37721,0.0,0.0
8,1.75,32.5558,33.8218,158.353,101.658,94.9277,-0.000311793,0.0679946,20.8677,475.163,0.628541,0.0,1.0
10,2.25,32.4284,33.8284,143.902,101.667,92.2904,5.87472e-05,0.0715272,20.8385,475.082,0.887939,0.0,1.0
12,2.75,32.8253,34.7789,145.815,101.695,90.2038,0.000358885,0.0743885,20.8148,475.072,1.10028,0.0,1.0
14,3.25,32.7595,34.88,138.504,101.68,85.9261,0.000821751,0.0807466,20.7956,475.082,1.54475,0.0,1.0
16,3.75,34.1374,36.5205,141.664,101.686,83.3009,0.00139445,0.0858967,20.7604,475.012,1.82999,0.0,1.0
18,4.25,34.9237,37.7692,141.442,101.694,80.6514,0.00198099,0.0950825,20.7318,474.912,2.12729,0.0,1.0
20,4.75,34.8145,38.7559,146.432,101.696,79.5663,0.00256646,0.102523,20.6922,474.822,2.25182,0.0,1.0
22,5.25,36.066,39.8712,142.863,101.698,80.086,0.0030407,0.10855,20.6602,474.752,2.19226,0.0,1.0
24,5.75,35.5796,39.3642,143.913,101.706,80.3989,0.00367565,0.120656,20.6277,474.682,2.15719,0.0,1.0
26,6.25,35.146,39.4995,141.658,101.7,79.6124,0.00418997,0.130463,20.5954,474.622,2.24687,0.0,0.0
28,6.75,35.7562,40.2817,142.18,101.703,78.7651,0.00481854,0.138406,20.5634,474.502,2.34528,0.0,0.0
30,7.25,36.8229,41.2623,147.329,101.725,80.7184,0.00532769,0.151709,20.5323,474.472,2.12251,0.0,0.0
32,7.75,37.7936,42.7844,136.676,101.712,79.5916,0.00592399,0.162484,20.5045,474.412,2.25027,0.0,0.0
34,8.25,37.3613,43.2544,142.428,101.72,78.8234,0.006407,0.176076,20.4796,474.322,2.34001,0.0,0.0
36,8.75,38.4988,44.8706,147.104,101.723,80.7797,0.00696641,0.187085,20.4567,474.252,2.11531,0.0,0.0
38,9.25,38.9113,45.174,144.527,101.724,79.939,0.00741952,0.200589,20.4356,474.162,2.21147,0.0,0.0
40,9.75,39.3136,45.5516,140.995,101.723,77.9543,0.00778655,0.211527,20.4185,474.102,2.44209,0.0,0.0
42,10.25,39.9058,46.0946,144.092,101.733,77.4076,0.00826043,0.224666,20.3998,474.052,2.50748,0.0,0.0
44,10.75,40.1671,47.2984,139.973,101.733,79.9684,0.00864428,0.235309,20.3846,474.042,2.20887,0.0,0.0
46,11.25,40.268,48.5535,142.409,101.738,78.8305,0.00903607,0.248167,20.3723,473.911,2.34082,0.0,0.0
48,11.75,41.275,48.9628,136.568,101.742,75.7049,0.00935342,0.258582,20.3591,473.771,2.71248,0.0,0.0
50,12.25,41.5665,49.6256,148.899,101.741,79.4583,0.00961048,0.269788,20.3454,473.671,2.26834,0.0,0.0
52,12.75,42.1859,50.0042,135.242,101.738,77.6029,0.00987019,0.281358,20.3343,473.591,2.48489,0.0,0.0
54,13.25,42.676,51.3005,147.263,101.749,79.4096,0.0101269,0.29073,20.3206,473.521,2.27467,0.0,0.0
56,13.75,43.4492,51.3635,144.243,101.742,80.0987,0.0103348,0.303655,20.3095,473.481,2.19475,0.0,0.0
58,14.25,43.9964,52.8765,136.863,101.758,80.7701,0.01056,0.314124,20.2983,473.441,2.11957,0.0,0.0
60,14.75,44.0956,53.6526,132.196,101.745,78.2301,0.0107423,0.322604,20.2872,473.361,2.41161,0.0,0.0
62,15.25,44.7034,54.4855,143.659,101.758,80.1722,0.0109585,0.335273,20.2779,473.361,2.18782,0.0,0.0
64,15.75,45.0457,54.6457,136.989,101.742,77.3468,0.0111336,0.345536,20.2702,473.341,2.51559,0.0,0.0
66,16.25,45.6105,55.3465,138.079,101.749,76.8752,0.0112702,0.355667,20.2669,473.211,2.57226,0.0,0.0
68,16.75,45.5558,56.484,139.933,101.741,77.758,0.0115039,0.36551,20.2591,473.131,2.46678,0.0,0.0
70,17.25,46.3655,56.3402,145.783,101.748,83.7755,0.0116931,0.373483,20.2527,473.071,1.78347,0.0,0.0
72,17.75,46.7887,57.0496,145.385,101.739,80.5176,0.0120726,0.383086,20.2471,473.011,2.14663,0.0,0.0
74,18.25,46.5197,57.4941,140.179,101.753,77.7291,0.01238,0.390864,20.2421,472.92,2.47131,0.0,0.0
76,18.75,47.4407,57.9213,141.252,101.74,76.2191,0.0128289,0.400907,20.2264,472.83,2.6501,0.0,0.0
78,19.25,47.5694,58.6765,143.357,101.753,77.3747,0.0131925,0.405189,20.2031,472.74,2.51321,0.0,0.0
80,19.75,47.5886,59.5259,124.383,101.751,75.4787,0.0136879,0.412511,20.1585,472.65,2.74075,0.0,0.0
82,20.25,48.708,60.5855,137.924,101.751,78.3473,0.0140893,0.426855,20.0992,472.51,2.39847,0.0,0.0
84,20.75,49.5032,62.8264,120.05,101.737,78.2712,0.0145541,0.438473,20.0005,472.33,2.40605,0.0,0.0
86,21.25,50.7073,65.5295,109.682,101.754,81.2437,0.0149306,0.456197,19.8751,472.2,2.06558,0.0,0.0
88,21.75,52.819,68.7246,106.861,101.742,84.025,0.015509,0.478035,19.6426,471.97,1.75562,0.0,0.0
90,22.25,54.6376,72.5385,100.962,101.753,84.8516,0.0156646,0.505676,19.5662,471.84,1.66681,0.0,0.0
92,22.75,57.5412,76.4396,109.463,101.749,87.4554,0.0159586,0.537023,19.4357,471.629,1.38912,0.0,0.0
94,23.25,59.6585,81.3685,106.699,101.752,89.9132,0.0162218,0.575018,19.2498,471.459,1.13505,0.0,0.0
96,23.75,62.1143,86.0926,116.298,101.743,91.8067,0.016537,0.617138,19.0351,471.239,0.943006,0.0,0.0
98,24.25,65.1672,91.6451,104.004,101.748,93.6448,0.0166288,0.676579,18.9774,471.109,0.761505,0.0,0.0
100,24.75,68.0023,97.1674,92.9475,101.734,94.0287,0.0167858,0.745253,18.8181,470.849,0.722741,0.0,0.0
102,25.25,71.435,102.013,98.8064,101.749,94.2472,0.0169025,0.777511,18.6891,470.749,0.702777,0.0,0.0
104,25.75,74.2114,107.303,88.5411,101.733,95.5798,0.0169876,0.832673,18.5386,470.528,0.572527,0.0,0.0
106,26.25,76.6801,112.59,100.312,101.754,95.3298,0.017035,0.877354,18.4167,470.318,0.598455,0.0,0.0
108,26.75,79.3099,117.005,100.36,101.748,95.7908,0.0170538,0.981597,18.2793,470.168,0.553599,0.0,0.0
110,27.25,82.5144,121.969,83.3371,101.762,95.9333,0.0170419,1.00964,18.1635,469.938,0.541261,0.0,0.0
112,27.75,84.8772,126.86,105.844,101.752,96.1716,0.0170079,1.07414,18.0658,469.698,0.517563,0.0,0.0
114,28.25,87.3259,130.885,98.0615,101.77,96.5834,0.0169503,1.14129,17.9866,469.557,0.479959,0.0,0.0
116,28.75,89.9945,135.228,87.6015,101.747,96.2725,0.0168768,1.20619,17.9224,469.387,0.507532,0.0,0.0
118,29.25,92.2848,139.698,98.8057,101.755,96.5291,0.0167763,1.26821,17.8704,469.177,0.483777,0.0,0.0
120,29.75,93.6571,143.044,99.3056,101.747,94.7543,0.0166579,1.32751,17.8284,469.077,0.65339,0.0,0.0
122,30.25,95.9972,147.019,83.2578,101.76,96.3354,0.0165621,1.38371,17.7943,468.827,0.502656,0.0,0.0
124,30.75,98.2407,150.576,86.0857,101.751,95.1838,0.0164076,1.43556,17.7795,468.677,0.612262,0.0,0.0
126,31.25,99.61,153.049,100.624,101.754,95.087,0.0162132,1.48325,17.7792,468.567,0.62179,0.0,0.0
128,31.75,101.378,155.511,105.929,101.748,95.3684,0.0159612,1.52623,17.7789,468.416,0.594189,0.0,0.0
130,32.25,103.225,156.845,93.0742,101.753,95.4475,0.015672,1.56496,17.8103,468.216,0.586989,0.0,0.0
132,32.75,104.246,159.144,101.06,101.741,96.1843,0.0153183,1.59634,17.8357,468.156,0.51535,0.0,0.0
134,33.25,105.073,159.754,94.9412,101.766,95.2071,0.0147564,1.62403,17.9412,468.016,0.611352,0.0,0.0
136,33.75,105.687,161.102,90.3547,101.754,95.8374,0.0144612,1.64646,17.9695,467.876,0.549726,0.0,0.0
138,34.25,106.561,160.934,108.664,101.761,95.1118,0.0139565,1.66181,18.0181,467.786,0.620099,0.0,0.0
140,34.75,106.63,161.156,110.333,101.754,94.1245,0.0135477,1.67172,18.0939,467.686,0.715178,0.0,0.0
142,35.25,106.863,160.43,111.706,101.768,92.9506,0.0132166,1.67507,18.1882,467.576,0.831639,0.0,0.0
144,35.75,107.025,160.085,123.14,101.759,90.9604,0.0127091,1.67357,18.2964,467.486,1.0294,0.0,0.0
146,36.25,106.978,158.62,125.264,101.768,90.6475,0.0120826,1.65794,18.4126,467.395,1.0618,0.0,0.0
148,36.75,106.562,157.053,126.717,101.756,91.794,0.0114592,1.65155,18.5067,467.405,0.945426,0.0,0.0
150,37.25,106.149,155.762,131.624,101.767,90.8924,0.0108498,1.64062,18.6496,467.365,1.037,0.0,0.0
152,37.75,104.992,153.742,138.775,101.75,94.5358,0.0103563,1.63176,18.7654,467.335,0.674802,0.0,0.0
154,38.25,104.095,150.813,141.312,101.75,96.3146,0.00985913,1.59262,18.9034,467.385,0.503781,0.0,0.0
156,38.75,101.946,148.96,146.478,101.75,98.2334,0.00936883,1.56091,19.055,467.415,0.322771,0.0,0.0
158,39.25,100.658,145.629,144.582,101.762,98.0985,0.00894112,1.52183,19.1778,467.426,0.33642,0.0,0.0
160,39.75,98.846,143.064,148.035,101.774,98.167,0.00856715,1.47811,19.3476,467.395,0.331097,0.0,0.0
162,40.25,97.6748,140.224,143.079,101.77,98.817,0.00825228,1.4427,19.485,467.395,0.270234,0.0,0.0
164,40.75,96.6278,137.53,148.916,101.761,98.3531,0.00798648,1.39071,19.6271,467.385,0.312566,0.0,0.0
166,41.25,95.8304,135.226,143.462,101.763,98.1462,0.00776123,1.3486,19.7421,467.365,0.332111,0.0,0.0
168,41.75,94.3322,133.139,143.263,101.777,99.0914,0.00756982,1.30279,19.8611,467.345,0.245353,0.0,0.0
170,42.25,92.1692,130.795,150.851,101.767,98.8693,0.00736816,1.25515,19.9655,467.355,0.265088,0.0,0.0
172,42.75,91.3836,128.085,146.991,101.758,98.5402,0.00720481,1.20832,20.0571,467.345,0.294828,0.0,0.0
174,43.25,90.1635,125.706,151.253,101.758,98.8018,0.00700206,1.16297,20.1372,467.345,0.270496,0.0,0.0
176,43.75,88.816,123.371,153.67,101.754,98.2841,0.00683783,1.1189,20.2074,467.365,0.318369,0.0,0.0
178,44.25,88.0997,121.62,149.647,101.755,98.0965,0.00670481,1.07661,20.2642,467.335,0.336015,0.0,0.0
180,44.75,86.5563,119.489,157.911,101.777,98.0524,0.00650863,1.0357,20.3102,467.345,0.342075,0.0,0.0
182,45.25,85.3357,117.603,150.906,101.761,98.2567,0.00627013,0.996576,20.3569,467.335,0.321521,0.0,0.0
184,45.75,84.3602,115.399,150.633,101.776,98.3738,0.00600596,0.958812,20.3946,467.355,0.312001,0.0,0.0
186,46.25,83.3856,113.494,153.143,101.776,99.1745,0.00572808,0.922757,20.4297,467.345,0.237618,0.0,0.0
188,46.75,82.3972,111.322,151.117,101.76,98.4388,0.005503,0.893553,20.4623,467.355,0.304462,0.0,0.0
190,47.25,81.097,109.558,154.712,101.749,98.7187,0.0051987,0.857357,20.4928,467.355,0.277404,0.0,0.0
192,47.75,78.9974,105.972,150.854,101.754,98.6715,0.00495222,0.828038,20.5214,467.345,0.282271,0.0,0.0
194,48.25,77.8664,104.668,155.34,101.743,98.8388,0.00466443,0.797426,20.5496,467.355,0.265719,0.0,0.0
196,48.75,76.5869,103.006,157.695,101.745,98.3556,0.00443133,0.766451,20.5772,467.345,0.310916,0.0,0.0
198,49.25,75.8237,101.342,153.721,101.748,98.2481,0.00416326,0.741362,20.5995,467.355,0.321211,0.0,0.0
200,49.75,74.7022,99.7768,156.199,101.73,98.6213,0.00394612,0.711256,20.622,467.345,0.284822,0.0,0.0
202,50.25,73.568,97.7718,147.872,101.738,98.7491,0.00373055,0.686871,20.6402,467.335,0.273609,0.0,0.0
204,50.75,73.2512,96.3683,154.332,101.739,98.6796,0.00352024,0.659232,20.6599,467.355,0.280179,0.0,0.0
206,51.25,72.44,94.6796,158.742,101.73,98.5118,0.00334988,0.636845,20.6758,467.355,0.294982,0.0,0.0
208,51.75,71.2017,93.2555,155.843,101.743,98.566,0.00311326,0.614616,20.6904,467.365,0.291082,0.0,0.0
210,52.25,70.8571,91.8505,157.417,101.736,98.5863,0.00292159,0.592925,20.7036,467.375,0.288598,0.0,0.0
212,52.75,70.3868,90.5862,156.7,101.736,98.5189,0.00269868,0.571707,20.7157,467.365,0.294878,0.0,0.0
214,53.25,69.546,89.6685,152.564,101.732,98.3358,0.00251812,0.551236,20.7268,467.345,0.311535,0.0,0.0
216,53.75,68.394,87.4655,155.404,101.741,98.489,0.00234084,0.534655,20.7358,467.355,0.298111,0.0,0.0
218,54.25,67.5863,86.6497,153.799,101.735,98.7831,0.00216932,0.514359,20.7458,467.375,0.270156,0.0,0.0
220,54.75,67.5826,85.2202,156.395,101.732,98.4935,0.00201103,0.49792,20.7538,467.365,0.296868,0.0,0.0
222,55.25,66.5186,84.1632,154.322,101.736,98.3094,0.00186538,0.48133,20.763,467.365,0.314367,0.0,0.0
224,55.75,65.7617,83.1791,153.44,101.728,98.6441,0.00174741,0.464946,20.7705,467.355,0.282477,0.0,0.0
226,56.25,65.234,82.2246,154.236,101.724,98.6639,0.00164282,0.449189,20.7765,467.355,0.280265,0.0,0.0
228,56.75,64.4572,80.8397,153.753,101.73,98.3089,0.00154997,0.434188,20.783,467.385,0.313931,0.0,0.0
230,57.25,64.116,79.4662,154.29,101.725,98.5427,0.00146574,0.419794,20.7883,467.375,0.291655,0.0,0.0
232,57.75,63.3972,78.5872,152.588,101.737,98.3733,0.00138939,0.406116,20.7925,467.375,0.308518,0.0,0.0
234,58.25,63.1037,77.5214,153.927,101.716,98.5224,0.00132755,0.395038,20.7973,467.385,0.292762,0.0,0.0
236,58.75,62.453,76.8045,152.667,101.725,98.7166,0.00127746,0.381176,20.8012,467.355,0.275436,0.0,0.0
238,59.25,61.6536,75.9864,155.54,101.722,98.1228,0.00121691,0.369947,20.8043,467.355,0.330575,0.0,0.0
240,59.75,60.853,74.9853,155.966,101.721,98.4418,0.00114989,0.358609,20.8088,467.355,0.300684,0.0,0.0
242,60.25,60.1967,73.6976,155.773,101.719,98.3444,0.00108853,0.347407,20.8125,467.355,0.30954,0.0,0.0
244,60.75,60.4829,73.3788,154.664,101.735,98.3247,0.00103245,0.338333,20.8172,467.365,0.31291,0.0,0.0
246,61.25,59.1965,72.438,152.004,101.707,98.5919,0.000987026,0.330983,20.8211,467.365,0.285477,0.0,0.0
248,61.75,59.1565,71.0518,156.127,101.721,98.3683,0.000946564,0.319739,20.8251,467.345,0.307577,0.0,0.0
250,62.25,59.1151,69.9047,154.654,101.715,98.6999,0.00091379,0.310632,20.8292,467.345,0.2761,0.0,0.0
252,62.75,57.4682,69.7244,153.105,101.725,98.2663,0.000892134,0.301456,20.8339,467.345,0.317387,0.0,0.0
254,63.25,57.8136,69.0093,154.97,101.712,98.4864,0.000877812,0.292405,20.8377,467.365,0.295707,0.0,0.0
256,63.75,57.9743,68.3142,151.911,101.726,98.9154,0.000869108,0.285074,20.8416,467.355,0.257127,0.0,0.0
258,64.25,56.5414,67.4823,156.443,101.713,98.3358,0.000862057,0.276602,20.8448,467.335,0.309825,0.0,0.0
260,64.75,56.7951,66.3407,155.985,101.733,98.3399,0.000849008,0.26974,20.8479,467.345,0.311267,0.0,0.0
262,65.25,56.2438,65.1468,151.338,101.711,98.2993,0.000838438,0.261818,20.8503,467.325,0.313084,0.0,0.0
264,65.75,55.8555,65.2726,159.646,101.716,98.3617,0.000829877,0.255402,20.8523,467.315,0.307746,0.0,0.0
266,66.25,56.1029,64.2312,152.494,101.722,98.3962,0.000770394,0.248283,20.8544,467.325,0.305051,0.0,0.0
268,66.75,55.395,63.6698,155.706,101.721,98.3039,0.000722212,0.242516,20.8565,467.345,0.313587,0.0,0.0
270,67.25,54.4688,63.4271,157.695,101.716,98.4443,0.000656211,0.235922,20.8582,467.355,0.300002,0.0,0.0
272,67.75,54.1466,62.3333,158.237,101.734,98.3439,0.000578471,0.23058,20.8605,467.365,0.311001,0.0,0.0
274,68.25,53.967,62.106,155.857,101.721,98.4464,0.000495618,0.225164,20.8628,467.355,0.300295,0.0,0.0
276,68.75,53.3874,61.9857,149.444,101.737,98.5995,0.000410609,0.219796,20.8651,467.365,0.287483,0.0,0.0
278,69.25,53.3254,61.0992,153.409,101.724,98.4631,0.000328932,0.215449,20.8674,467.355,0.298996,0.0,0.0
280,69.75,52.7966,60.6255,153.494,101.745,98.4743,0.000251236,0.210566,20.8697,467.345,0.299816,0.0,0.0
282,70.25,53.1032,60.5545,150.758,101.725,98.8459,0.000185097,0.205386,20.8718,467.325,0.263462,0.0,0.0
284,70.75,52.6428,59.8678,154.331,101.729,98.4078,0.00012864,0.200446,20.8737,467.345,0.304595,0.0,0.0
286,71.25,52.3708,59.092,155.322,101.721,98.1391,8.35505e-05,0.195775,20.8753,467.355,0.328983,0.0,0.0
288,71.75,51.625,58.8303,154.519,101.747,98.5853,4.7605e-05,0.191274,20.8765,467.345,0.289659,0.0,0.0
290,72.25,51.2349,58.4138,155.229,101.721,98.275,1.84892e-05,0.186982,20.8776,467.345,0.316248,0.0,0.0
292,72.75,51.7265,57.7832,157.812,101.728,98.4737,-2.65918e-06,0.182864,20.8789,467.335,0.298339,0.0,0.0
294,73.25,51.0368,57.7129,157.306,101.737,98.2699,-1.97894e-05,0.178952,20.8803,467.355,0.318209,0.0,0.0
296,73.75,50.8859,57.3123,152.834,101.733,98.4428,-3.97534e-05,0.175182,20.8815,467.345,0.30163,0.0,0.0
298,74.25,50.542,56.51,154.145,101.722,98.3891,-5.59243e-05,0.171587,20.8825,467.345,0.305675,0.0,0.0
300,74.75,51.2144,56.4671,154.51,101.722,98.6248,-7.87658e-05,0.168675,20.8837,467.335,0.283749,0.0,0.0
302,75.25,50.3708,56.0771,151.842,101.722,98.6923,-9.72674e-05,0.165107,20.8852,467.325,0.277438,0.0,0.0
304,75.75,50.184,55.381,151.337,101.727,98.5676,-0.000117381,0.162218,20.8863,467.335,0.289528,0.0,0.0
306,76.25,49.4945,55.1124,152.797,101.721,98.383,-0.000138288,0.15928,20.8873,467.345,0.306168,0.0,0.0
308,76.75,49.68,54.9641,155.462,101.726,98.5163,-0.000155223,0.156363,20.888,467.345,0.294185,0.0,0.0
310,77.25,49.2923,54.2606,151.472,101.717,98.5326,-0.000167723,0.153559,20.8889,467.355,0.291892,0.0,0.0
312,77.75,49.3173,53.8429,157.413,101.719,99.0543,-0.000177847,0.150891,20.8898,467.355,0.243614,0.0,0.0
314,78.25,48.189,53.6241,156.018,101.718,98.2542,-0.000173869,0.148195,20.8907,467.385,0.31793,0.0,0.0
316,78.75,48.6032,53.1944,157.175,101.717,98.3718,-0.000170648,0.145529,20.8917,467.375,0.306875,0.0,0.0
318,79.25,48.2781,52.4508,153.211,101.712,98.2628,-0.000168038,0.14337,20.8925,467.375,0.316529,0.0,0.0
320,79.75,48.3378,52.8589,156.504,101.709,98.4773,-0.000159875,0.140704,20.8931,467.345,0.29626,0.0,0.0
322,80.25,48.6503,51.7233,155.925,101.711,98.2288,-0.000145915,0.138545,20.8941,467.325,0.319628,0.0,0.0
324,80.75,47.8424,52.1979,156.327,101.723,98.4783,-0.000137813,0.13595,20.8949,467.345,0.29743,0.0,0.0
326,81.25,47.7366,51.6909,156.898,101.718,98.352,-0.000134135,0.133849,20.8955,467.345,0.308757,0.0,0.0
328,81.75,47.9443,50.9966,152.956,101.701,98.5817,-0.000131156,0.131725,20.896,467.335,0.285826,0.0,0.0
330,82.25,47.2427,51.3666,156.009,101.716,98.4124,-0.000147972,0.129625,20.8965,467.335,0.30298,0.0,0.0
332,82.75,46.8159,51.0962,152.385,101.703,98.2248,-0.000178899,0.128729,20.8971,467.325,0.319338,0.0,0.0
334,83.25,47.071,50.4919,156.934,101.709,98.4068,-0.000216128,0.126784,20.8977,467.355,0.302868,0.0,0.0
336,83.75,46.958,50.2771,156.615,101.71,98.3252,-0.000257244,0.124836,20.8981,467.365,0.310559,0.0,0.0
338,84.25,47.1352,50.4835,155.699,101.712,98.3647,-0.000290549,0.123258,20.8985,467.345,0.307017,0.0,0.0
340,84.75,46.3485,50.1261,159.256,101.695,98.4839,-0.000327268,0.121509,20.8987,467.355,0.294382,0.0,0.0
342,85.25,46.5633,49.6985,156.598,101.712,98.8804,-0.000357011,0.119669,20.899,467.365,0.259035,0.0,0.0
344,85.75,45.8781,49.3138,155.39,101.702,98.4808,-0.000381102,0.118178,20.9,467.345,0.295334,0.0,0.0
346,86.25,45.9548,49.5544,149.549,101.698,98.2491,-0.000400616,0.116449,20.9009,467.335,0.31658,0.0,0.0
348,86.75,46.4361,48.8671,155.166,101.692,98.31,-0.000416423,0.115048,20.9016,467.335,0.310379,0.0,0.0
350,87.25,45.6631,48.2703,156.318,101.698,98.5006,-0.000424443,0.113419,20.9022,467.335,0.293157,0.0,0.0
352,87.75,45.3669,48.5048,156.57,101.694,98.3094,-0.000438158,0.1121,20.9024,467.355,0.310612,0.0,0.0
354,88.25,45.9991,48.659,154.722,101.719,98.2476,-0.000466182,0.110593,20.903,467.345,0.318619,0.0,0.0
356,88.75,45.6521,48.1112,153.481,101.699,98.3287,-0.000475636,0.109372,20.9032,467.375,0.30926,0.0,0.0
358,89.25,44.7284,48.1773,155.431,101.723,98.6015,-0.000500135,0.108131,20.9035,467.355,0.285955,0.0,0.0
360,89.75,45.0499,48.3426,156.398,101.702,98.6674,-0.000527479,0.106899,20.9037,467.335,0.278002,0.0,0.0
362,90.25,45.2274,47.5509,155.145,101.723,98.4149,-0.000558601,0.106374,20.9039,467.335,0.303413,0.0,0.0
364,90.75,44.8934,47.391,152.606,101.709,98.1274,-0.000591886,0.105167,20.9045,467.355,0.328958,0.0,0.0
366,91.25,44.8157,47.4512,154.257,101.727,98.4732,-0.000631666,0.103374,20.9049,467.365,0.298311,0.0,0.0
368,91.75,45.1337,47.4723,153.823,101.721,98.0858,-0.000675425,0.102892,20.9058,467.365,0.333926,0.0,0.0
370,92.25,44.7998,47.0485,150.818,101.726,98.4519,-0.00072369,0.101686,20.9064,467.355,0.300148,0.0,0.0
372,92.75,44.5456,46.9771,157.847,101.723,98.3941,-0.000774321,0.100536,20.907,467.345,0.305351,0.0,0.0
374,93.25,44.7853,47.0074,154.367,101.74,98.2846,-0.000815333,0.0994499,20.9074,467.325,0.317022,0.0,0.0
376,93.75,44.5203,46.479,156.292,101.731,98.3378,-0.000877781,0.0984122,20.908,467.345,0.311271,0.0,0.0
378,94.25,43.8734,46.631,155.698,101.74,98.6218,-0.000928364,0.0974297,20.9087,467.335,0.285667,0.0,0.0
380,94.75,44.3152,45.5696,157.048,101.729,98.5037,-0.000972541,0.0964977,20.9093,467.335,0.295664,0.0,0.0
382,95.25,44.2619,46.6525,157.453,101.748,98.5564,-0.00101121,0.0956201,20.9097,467.335,0.292424,0.0,0.0
384,95.75,43.6766,46.0119,152.256,101.73,98.454,-0.00103548,0.0949093,20.9101,467.325,0.300367,0.0,0.0
386,96.25,43.9506,46.0926,154.822,101.76,98.2577,-0.00104879,0.0939798,20.9104,467.325,0.32139,0.0,0.0
388,96.75,43.2952,45.4902,155.296,101.743,98.4352,-0.00104996,0.0932268,20.9106,467.325,0.303307,0.0,0.0
390,97.25,43.3553,45.4924,159.634,101.775,98.2663,-0.00104225,0.0924881,20.9108,467.325,0.321923,0.0,0.0
392,97.75,43.0744,45.6393,155.758,101.751,98.4935,-0.00103601,0.0917737,20.911,467.335,0.298578,0.0,0.0
394,98.25,42.567,45.3645,154.591,101.769,98.7334,-0.00101814,0.0910735,20.9114,467.325,0.277894,0.0,0.0
396,98.75,43.607,45.3282,154.098,101.756,98.316,-0.00099213,0.0903969,20.9121,467.315,0.315611,0.0,0.0
398,99.25,43.4572,45.4487,155.032,101.775,98.4185,-0.000971062,0.0898489,20.9126,467.315,0.307766,0.0,0.0
400,99.75,43.0024,44.9426,155.753,101.759,98.2729,-0.000953996,0.0891197,20.913,467.325,0.319858,0.0,0.0
402,100.25,43.0447,44.633,155.32,101.776,98.4611,-0.000940173,0.0885291,20.9134,467.325,0.303833,0.0,0.0
404,100.75,43.6867,44.8764,160.132,101.76,98.4971,-0.000939232,0.0878478,20.9137,467.355,0.299028,0.0,0.0
406,101.25,43.4615,44.448,154.667,101.791,98.3784,-0.0009477,0.087296,20.9139,467.345,0.312913,0.0,0.0
408,101.75,43.3658,44.4489,153.124,101.779,98.5042,-0.000960328,0.0867205,20.9141,467.345,0.300113,0.0,0.0
410,102.25,42.373,44.087,154.333,101.796,98.5052,-0.000975748,0.0861387,20.9142,467.325,0.301542,0.0,0.0
412,102.75,43.3321,44.5563,152.101,101.783,98.4474,-0.000990803,0.0856674,20.9144,467.335,0.305777,0.0,0.0
414,103.25,42.8415,44.0543,156.827,101.803,98.5092,-0.0010053,0.0850551,20.9144,467.335,0.301797,0.0,0.0
416,103.75,42.4092,44.493,149.33,101.788,98.1801,-0.00101833,0.0845592,20.9145,467.335,0.331165,0.0,0.0
418,104.25,42.0279,43.9088,153.555,101.808,98.1142,-0.00103004,0.0840719,20.9146,467.325,0.339075,0.0,0.0
420,104.75,42.9001,43.9792,154.294,101.794,98.3612,-0.00103952,0.0836001,20.9146,467.345,0.314781,0.0,0.0
422,105.25,42.5715,44.2184,158.237,101.809,98.2379,-0.00104528,0.083218,20.9147,467.335,0.327622,0.0,0.0
424,105.75,42.0504,43.903,153.235,101.791,98.4499,-0.00104821,0.0827459,20.9148,467.345,0.30621,0.0,0.0
426,106.25,42.5067,43.7511,155.9,101.803,98.4134,-0.00105059,0.0823635,20.9149,467.345,0.310691,0.0,0.0
428,106.75,42.2169,43.6607,154.27,101.804,98.2481,-0.0010379,0.0819047,20.915,467.345,0.326229,0.0,0.0
430,107.25,41.8312,43.219,156.513,101.812,98.3916,-0.00102762,0.0815332,20.915,467.325,0.313615,0.0,0.0
432,107.75,42.1734,43.4448,152.58,101.805,98.7339,-0.00101929,0.0812322,20.9151,467.325,0.281081,0.0,0.0
434,108.25,41.6285,43.7419,154.903,101.822,98.6928,-0.000985751,0.0807583,20.9154,467.315,0.286386,0.0,0.0
436,108.75,41.8252,43.4597,154.68,101.822,98.2603,-0.00095858,0.0803744,20.9158,467.335,0.326727,0.0,0.0
438,109.25,42.0939,42.9551,152.474,101.828,98.2836,-0.00092824,0.0799146,20.9162,467.365,0.325105,0.0,0.0
440,109.75,41.6793,42.9558,152.601,101.819,98.6309,-0.000896165,0.0795421,20.9163,467.365,0.29188,0.0,0.0
442,110.25,41.7588,43.3354,156.977,101.834,98.5539,-0.000863134,0.079155,20.9164,467.355,0.300465,0.0,0.0
444,110.75,42.122,43.117,157.355,101.824,98.3434,-0.000830033,0.0787646,20.9165,467.335,0.31915,0.0,0.0
446,111.25,41.673,43.2111,160.588,101.831,98.4905,-0.000796812,0.0784483,20.9165,467.325,0.30607,0.0,0.0
448,111.75,41.4195,42.6115,157.426,101.848,98.4646,-0.000764134,0.0781064,20.917,467.315,0.309965,0.0,0.0
450,112.25,41.7724,42.9461,151.643,101.845,98.2192,-0.000737664,0.0777522,20.9174,467.315,0.332606,0.0,0.0
452,112.75,41.3297,43.1582,160.287,101.836,98.3089,-0.000716224,0.0774226,20.9178,467.315,0.323408,0.0,0.0
454,113.25,41.5879,42.802,153.089,101.845,98.3003,-0.000705908,0.0771172,20.918,467.315,0.325066,0.0,0.0
456,113.75,41.488,43.0026,149.544,101.847,98.2922,-0.000703898,0.076813,20.9182,467.325,0.326009,0.0,0.0
458,114.25,41.1117,42.6447,156.376,101.842,98.5255,-0.00070227,0.0765153,20.9184,467.315,0.303777,0.0,0.0
460,114.75,41.4269,42.5147,153.991,101.848,98.531,-0.000716975,0.0762173,20.9185,467.305,0.303777,0.0,0.0
462,115.25,41.195,42.475,156.267,101.849,98.5807,-0.000743308,0.0759248,20.9187,467.285,0.299299,0.0,0.0
464,115.75,41.008,42.1454,151.41,101.849,98.5528,-0.00077297,0.0756309,20.9187,467.325,0.301896,0.0,0.0
466,116.25,41.2116,42.5421,156.72,101.856,98.635,-0.000804496,0.0753417,20.9188,467.335,0.294844,0.0,0.0
468,116.75,41.4948,42.5811,154.904,101.859,98.2988,-0.000833237,0.0751074,20.9189,467.325,0.326434,0.0,0.0
470,117.25,40.9682,42.409,155.447,101.849,98.455,-0.000859402,0.0748636,20.9189,467.325,0.311012,0.0,0.0
472,117.75,40.8805,41.9554,154.866,101.857,98.5026,-0.000873544,0.0746662,20.919,467.345,0.307239,0.0,0.0
474,118.25,40.8842,42.0767,153.678,101.884,98.3804,-0.000878654,0.0744565,20.919,467.365,0.321081,0.0,0.0
476,118.75,40.9058,42.0715,153.5,101.879,98.424,-0.000882793,0.0742418,20.919,467.375,0.316605,0.0,0.0
478,119.25,40.8181,42.0568,154.812,101.864,98.5133,-0.000870766,0.0740183,20.9191,467.375,0.306878,0.0,0.0
480,119.75,41.0835,42.2133,155.948,101.869,98.4038,-0.000847181,0.0737924,20.9192,467.405,0.317532,0.0,0.0
482,120.25,40.6339,42.3698,158.562,101.871,98.4078,-0.000824873,0.0736094,20.9194,467.415,0.317376,0.0,0.0
484,120.75,40.5372,42.1794,158.435,101.873,98.385,-0.000803919,0.0734207,20.9195,467.385,0.319653,0.0,0.0
486,121.25,40.8046,41.8513,159.574,101.875,98.7192,-0.000786946,0.0732679,20.9196,467.365,0.288762,0.0,0.0
488,121.75,40.2048,41.4233,153.66,101.881,98.4205,-0.000791145,0.0730948,20.9197,467.345,0.317048,0.0,0.0
490,122.25,40.9402,41.1577,155.544,101.872,98.4514,-0.000810699,0.0729101,20.9197,467.325,0.313385,0.0,0.0
492,122.75,40.5702,41.6588,156.248,101.898,98.5752,-0.000819036,0.0727605,20.9198,467.355,0.304199,0.0,0.0
494,123.25,40.4886,41.357,153.848,101.877,98.3744,-0.000875916,0.0725179,20.9198,467.345,0.321055,0.0,0.0
496,123.75,39.9313,41.0175,153.596,101.897,98.5508,-0.000921989,0.0723214,20.9198,467.335,0.306428,0.0,0.0
498,124.25,39.9107,41.5509,158.176,101.893,98.5077,-0.000982448,0.0720983,20.9199,467.345,0.310034,0.0,0.0
500,124.75,40.4348,41.5191,156.394,101.897,98.4656,-0.00103142,0.0718601,20.9199,467.345,0.314364,0.0,0.0
502,125.25,40.543,41.3532,159.755,101.896,98.3875,-0.00106013,0.0716317,20.9199,467.355,0.321496,0.0,0.0
504,125.75,39.9415,41.5057,156.081,101.904,98.4119,-0.00108338,0.0715175,20.9199,467.345,0.320006,0.0,0.0
506,126.25,40.2169,41.6244,154.653,101.892,98.5341,-0.00108491,0.0713222,20.92,467.365,0.307503,0.0,0.0
508,126.75,40.0278,41.6098,156.915,101.897,98.3885,-0.00107057,0.0711499,20.9204,467.355,0.321475,0.0,0.0
510,127.25,40.4241,41.4607,158.533,101.898,98.603,-0.00104421,0.0709975,20.9208,467.355,0.301604,0.0,0.0
512,127.75,40.2864,41.5658,154.127,101.926,98.562,-0.00100959,0.0708528,20.9211,467.355,0.307951,0.0,0.0
514,128.25,40.0182,41.481,157.877,101.892,98.4641,-0.000981552,0.0707164,20.9213,467.365,0.314059,0.0,0.0
516,128.75,39.9733,41.5419,154.258,101.909,98.5787,-0.00095884,0.0705917,20.9215,467.375,0.304871,0.0,0.0
518,129.25,40.2474,41.2946,155.282,101.895,98.4251,-0.000928264,0.0704779,20.9217,467.345,0.317884,0.0,0.0
520,129.75,39.9156,41.6301,154.413,101.901,98.3977,-0.000892537,0.0703858,20.9216,467.365,0.321032,0.0,0.0
522,130.25,40.3282,40.942,156.72,101.906,98.4144,-0.000863598,0.0702438,20.9216,467.365,0.31988,0.0,0.0
524,130.75,39.8143,41.0883,155.128,101.906,98.4246,-0.000832851,0.0701287,20.9215,467.365,0.319008,0.0,0.0
526,131.25,39.9965,41.3373,154.471,101.912,98.634,-0.000807945,0.0700355,20.9215,467.355,0.299987,0.0,0.0
528,131.75,39.5206,40.6639,158.259,101.909,98.4879,-0.000793861,0.0699465,20.9214,467.365,0.313287,0.0,0.0
530,132.25,39.4662,40.757,156.16,101.894,98.5163,-0.000782453,0.0698745,20.9214,467.365,0.309341,0.0,0.0
532,132.75,39.9147,41.001,155.52,101.903,98.6411,-0.000790263,0.0698161,20.9214,467.365,0.29851,0.0,0.0
534,133.25,39.7982,40.761,154.604,101.9,98.4291,-0.000796588,0.0697284,20.9214,467.375,0.318027,0.0,0.0
536,133.75,40.1974,40.4239,153.876,101.924,98.4976,-0.000818762,0.0696573,20.9214,467.375,0.313799,0.0,0.0
538,134.25,39.6585,41.2395,156.109,101.915,98.3089,-0.000836723,0.0695324,20.9214,467.365,0.330573,0.0,0.0
540,134.75,39.3842,40.6289,153.797,101.928,98.5473,-0.000864667,0.0694312,20.9216,467.365,0.309542,0.0,0.0
542,135.25,39.6119,40.308,157.614,101.92,98.5346,-0.000887302,0.0692953,20.922,467.355,0.30998,0.0,0.0
544,135.75,40.256,41.0531,154.81,101.935,98.5052,-0.000905637,0.0691852,20.9223,467.355,0.314092,0.0,0.0
546,136.25,40.0251,40.9028,152.847,101.929,98.5239,-0.000927795,0.0690961,20.9226,467.365,0.311751,0.0,0.0
548,136.75,39.2308,41.0462,158.279,101.941,98.4459,-0.000945743,0.0690238,20.9228,467.365,0.320103,0.0,0.0
550,137.25,40.0225,40.9746,155.575,101.926,98.6127,-0.000956627,0.0689384,20.9229,467.355,0.303268,0.0,0.0
552,137.75,38.9734,40.9381,158.388,101.938,98.3571,-0.000965444,0.0688692,20.9231,467.375,0.328156,0.0,0.0
554,138.25,39.6546,41.1209,157.725,101.934,98.5518,-0.000966175,0.0688131,20.9232,467.375,0.309674,0.0,0.0
556,138.75,39.6976,40.8183,153.726,101.94,98.5554,-0.000960999,0.0686734,20.9233,467.385,0.309862,0.0,0.0
558,139.25,39.0072,40.5831,154.184,101.929,98.6649,-0.000956807,0.0685602,20.9234,467.385,0.298669,0.0,0.0
560,139.75,39.3566,40.798,154.843,101.942,98.3424,-0.000948539,0.068426,20.9234,467.365,0.329825,0.0,0.0
562,140.25,38.9012,41.1073,160.269,101.928,98.4342,-0.000941842,0.068279,20.9235,467.365,0.320077,0.0,0.0
564,140.75,39.8531,40.8173,159.923,101.945,98.6892,-0.000942187,0.0681529,20.9235,467.345,0.297853,0.0,0.0
566,141.25,39.4781,40.97,155.656,101.944,98.6041,-0.000947658,0.0680443,20.9235,467.335,0.305666,0.0,0.0
568,141.75,39.1921,40.7066,155.399,101.95,98.4428,-0.00096305,0.0679493,20.9233,467.345,0.32124,0.0,0.0
570,142.25,39.4491,40.8456,153.503,101.932,98.4829,-0.000975518,0.0678659,20.9229,467.345,0.315912,0.0,0.0
572,142.75,39.1564,40.6279,156.72,101.949,98.3034,-0.000985617,0.0677984,20.9226,467.345,0.3341,0.0,0.0
574,143.25,39.0551,40.7025,152.221,101.946,98.6365,-0.000991361,0.0677437,20.9224,467.335,0.302832,0.0,0.0
576,143.75,39.2063,40.4378,157.385,101.963,98.5366,-0.000996013,0.0676994,20.9222,467.305,0.313687,0.0,0.0
578,144.25,39.7174,40.2287,157.592,101.964,98.3262,-0.000990039,0.0676231,20.922,467.315,0.333342,0.0,0.0
580,144.75,39.1982,40.1793,158.042,101.958,98.5016,-0.000985201,0.0675613,20.9219,467.315,0.316501,0.0,0.0
582,145.25,38.514,40.4304,157.611,101.95,98.6325,-0.000971538,0.0675113,20.9218,467.325,0.303543,0.0,0.0
584,145.75,39.245,40.3468,154.849,101.963,98.4677,-0.000960472,0.0674707,20.9217,467.335,0.320037,0.0,0.0
586,146.25,38.6225,40.2139,157.778,101.955,98.4271,-0.000948944,0.0674379,20.9216,467.315,0.323151,0.0,0.0
588,146.75,38.8792,40.4329,152.097,101.971,98.6101,-0.000937298,0.0673574,20.922,467.305,0.30751,0.0,0.0
590,147.25,39.5239,40.5703,154.231,101.972,98.4545,-0.000927866,0.0672923,20.9223,467.315,0.32212,0.0,0.0
592,147.75,39.2208,40.3688,156.3,101.965,98.4078,-0.000920225,0.0671991,20.9226,467.325,0.325874,0.0,0.0
594,148.25,39.662,40.3522,155.938,101.962,98.779,-0.000916601,0.0671236,20.9228,467.285,0.291032,0.0,0.0
596,148.75,39.1207,40.3806,156.609,101.967,98.5412,-0.000915972,0.0670624,20.923,467.285,0.313633,0.0,0.0
598,149.25,39.0741,40.2879,154.077,101.961,98.1908,-0.000915463,0.0670129,20.9231,467.315,0.345726,0.0,0.0
600,149.75,38.7266,40.1255,157.976,101.969,98.5746,-0.000920179,0.0669586,20.9232,467.305,0.310666,0.0,0.0
602,150.25,38.9875,40.2252,157.258,101.986,98.5468,-0.000928613,0.0669019,20.9233,467.295,0.314782,0.0,0.0
604,150.75,38.8021,40.1741,156.373,101.961,98.4585,-0.000935446,0.066863,20.9234,467.285,0.320777,0.0,0.0
606,151.25,38.813,40.574,156.988,101.96,98.5113,-0.000944633,0.0668379,20.9234,467.305,0.315716,0.0,0.0
608,151.75,38.8669,40.051,156.924,101.965,98.3911,-0.000952074,0.0668176,20.9235,467.295,0.327361,0.0,0.0
610,152.25,38.465,40.2176,152.234,101.965,98.5331,-0.000958102,0.066828,20.9235,467.285,0.314203,0.0,0.0
612,152.75,38.868,40.1654,157.002,101.965,98.5427,-0.000967856,0.0668365,20.9237,467.275,0.313232,0.0,0.0
614,153.25,39.0964,39.2456,155.954,101.958,98.459,-0.000975757,0.0668434,20.924,467.285,0.320469,0.0,0.0
616,153.75,38.2714,39.5307,157.117,101.961,98.5919,-0.000996771,0.0667682,20.9243,467.295,0.30832,0.0,0.0
618,154.25,38.7182,40.0039,155.686,101.959,98.4874,-0.00101379,0.0667072,20.9245,467.295,0.317898,0.0,0.0
620,154.75,38.1371,40.3463,154.742,101.966,98.2968,-0.0010404,0.0666579,20.9246,467.275,0.33631,0.0,0.0
622,155.25,38.7601,40.1873,153.714,101.963,98.5787,-0.00107349,0.0665775,20.9248,467.285,0.309695,0.0,0.0
624,155.75,38.8073,39.7738,158.048,101.966,98.4976,-0.00110606,0.0665124,20.9249,467.315,0.317583,0.0,0.0
626,156.25,38.7698,40.5725,151.087,101.956,98.561,-0.00113763,0.0664384,20.925,467.315,0.310715,0.0,0.0
628,156.75,38.3755,40.3279,155.232,101.967,98.4824,,0.0663594,,467.305,0.319038,0.0,0.0
630,157.25,39.1167,40.0889,158.062,101.969,98.4692,,0.0662953,,467.305,0.320451,0.0,0.0
632,157.75,38.6362,39.4448,157.59,101.96,98.1543,,0.0662435,,467.305,0.349102,0.0,0.0
634,158.25,38.6105,40.0603,161.144,101.965,98.4266,,0.0662085,,467.285,0.324089,0.0,0.0
636,158.75,38.5574,39.9462,156.315,101.962,98.3546,,0.0661866,,467.325,0.330544,0.0,0.0
638,159.25,38.3833,39.9854,157.514,101.962,98.3277,,0.0661689,,467.305,0.333052,0.0,0.0
640,159.75,38.5128,40.2683,157.382,101.959,98.6213,,,,467.305,0.305397,0.0,0.0
642,160.25,38.8489,39.796,156.756,101.973,98.3551,,,,467.305,0.331461,0.0,0.0
644,160.75,38.0396,40.1119,152.871,101.962,98.597,,,,467.315,0.307958,0.0,0.0
646,161.25,38.4333,39.5269,159.094,101.964,98.5219,,,,467.325,0.315094,0.0,0.0
648,161.75,38.282,39.8157,153.685,101.962,98.2892,,,,467.325,0.336649,0.0,0.0
650,162.25,38.784,40.3185,156.955,101.966,98.311,,,,467.315,0.334948,0.0,0.0
652,162.75,38.7482,39.3286,158.678,101.958,98.2592,,,,467.315,0.339072,0.0,0.0
654,163.25,38.139,39.1121,158.3,101.962,98.2714,,,,467.305,0.338269,0.0,0.0
656,163.75,38.0185,39.8642,158.372,101.958,98.5965,,,,467.295,0.307598,0.0,0.0
658,164.25,38.3746,39.525,153.359,101.977,98.4504,,,,467.305,0.322905,0.0,0.0
660,164.75,38.3377,39.5866,157.785,101.951,98.491,,,,467.295,0.316788,0.0,0.0
662,165.25,38.1082,39.0873,156.565,101.962,98.347,,,,467.275,0.331253,0.0,0.0
664,165.75,38.0549,39.4144,154.842,101.951,98.4261,,,,467.315,0.322837,0.0,0.0
666,166.25,38.7442,39.9554,150.847,101.961,98.4839,,,,467.305,0.318378,0.0,0.0
668,166.75,37.8728,39.2982,156.45,101.955,98.5148,,,,467.305,0.314976,0.0,0.0
670,167.25,37.6926,39.7133,155.562,101.957,98.3612,,,,467.305,0.329447,0.0,0.0
671,167.5,37.7381,39.1696,153.572,101.963,98.49,,,,467.315,0.317958,0.0,0.0