File: 01_Data/Wool_Rug/MCC/Wool_Rug_MCC_30K_min_211115_O3.txt
Sample ID:	C:\MCC\MCC Cal\Test\Wool_Rug_MCC_30K_min_211115_R3.txt
Sample Weight (mg):	4.78
Heating Rate (C/s):	0.5
Combustor Temp (C):	900
N2 Flow Rate (cc/min):	80
O2 Flow Rate (cc/min):	20
Calibration File:	C:\MCC\MCC Cal\Coeff1 JN10440_30_210304.txt.txt
T Correction Coefficients:	0	1.024463	0
Time Shift (s):	14
*
Time (s)	Temperature (C)	N2 flow rate (cc/min)	O2 flow rate (cc/min)	Flow Rate (cc/min)	Oxygen (%)	HRR (W/g)	Heating rate (C/s)
0.000	104.848	80.005	19.994	103.074	20.102	-0.140	0.012
2.000	104.871	80.003	19.995	103.070	20.100	-0.007	-0.001
4.000	104.825	80.003	19.994	103.080	20.100	-0.017	0.001
6.000	104.820	80.003	19.994	103.043	20.099	0.046	-0.005
8.000	104.856	80.005	19.994	103.061	20.102	-0.144	0.005
10.000	104.857	80.003	19.994	103.065	20.104	-0.239	-0.010
12.000	104.890	80.003	19.994	103.058	20.102	-0.099	0.002
14.000	104.865	80.004	19.993	103.060	20.099	0.044	0.003
16.000	104.833	80.005	19.994	103.074	20.104	-0.230	-0.039
18.000	104.824	80.005	19.994	103.063	20.104	-0.230	0.010
20.000	104.859	80.004	19.993	103.059	20.105	-0.320	0.032
22.000	104.842	80.004	19.993	103.064	20.101	-0.042	-0.005
24.000	104.836	80.003	19.994	103.062	20.102	-0.138	0.012
26.000	104.850	80.004	19.993	103.061	20.104	-0.280	0.014
28.000	104.864	80.005	19.993	103.062	20.103	-0.173	0.006
30.000	104.844	80.004	19.992	103.054	20.101	-0.066	0.007
32.001	104.868	80.005	19.994	103.060	20.103	-0.184	0.028
34.000	104.797	80.003	19.994	103.068	20.108	-0.521	-0.032
36.001	104.836	80.005	19.994	103.063	20.103	-0.195	-0.022
38.000	104.856	80.005	19.994	103.061	20.099	0.090	-0.029
40.000	104.865	80.001	19.994	103.048	20.101	-0.030	-0.021
42.000	104.816	80.002	19.995	103.003	20.102	-0.109	-0.042
44.001	104.851	80.004	19.995	103.108	20.100	-0.024	0.017
46.000	104.856	80.006	19.995	103.071	20.100	0.002	-0.011
48.000	104.881	80.006	19.995	103.185	20.103	-0.186	0.011
50.000	104.912	80.005	19.994	103.254	20.101	-0.054	0.006
52.001	105.013	80.007	19.994	103.273	20.103	-0.161	0.052
54.000	105.143	80.005	19.994	103.303	20.097	0.209	0.096
56.000	105.400	80.004	19.994	103.298	20.104	-0.227	0.121
58.000	105.643	80.006	19.994	103.293	20.101	-0.070	0.128
60.000	105.880	80.005	19.995	103.297	20.104	-0.247	0.156
62.000	106.189	80.003	19.995	103.283	20.100	0.000	0.140
64.000	106.536	80.005	19.995	103.288	20.099	0.059	0.203
66.000	106.907	80.006	19.994	103.273	20.098	0.148	0.185
68.000	107.328	80.005	19.994	103.299	20.099	0.044	0.197
70.000	107.778	80.005	19.995	103.296	20.101	-0.046	0.229
72.000	108.200	80.006	19.995	103.303	20.101	-0.048	0.206
74.000	108.702	80.007	19.994	103.288	20.107	-0.447	0.249
76.001	109.212	80.005	19.994	103.285	20.107	-0.467	0.289
78.000	109.671	80.005	19.995	103.295	20.106	-0.397	0.237
80.001	110.194	80.006	19.994	103.293	20.105	-0.306	0.239
82.001	110.738	80.005	19.993	103.297	20.104	-0.249	0.254
84.000	111.287	80.004	19.994	103.283	20.101	-0.057	0.270
86.000	111.887	80.003	19.994	103.285	20.104	-0.240	0.284
88.000	112.487	80.003	19.994	103.286	20.097	0.222	0.311
90.000	113.051	80.004	19.994	103.294	20.100	0.020	0.274
92.000	113.709	80.004	19.994	103.296	20.102	-0.155	0.316
94.000	114.310	80.006	19.993	103.311	20.100	0.024	0.304
96.000	114.954	80.004	19.995	103.324	20.103	-0.222	0.322
98.001	115.611	80.004	19.994	103.329	20.101	-0.054	0.343
100.000	116.227	80.005	19.994	103.319	20.100	-0.002	0.296
102.001	116.905	80.004	19.994	103.295	20.102	-0.126	0.306
104.000	117.641	80.005	19.994	103.296	20.098	0.138	0.345
106.000	118.350	80.005	19.994	103.300	20.099	0.103	0.350
108.000	119.078	80.005	19.993	103.322	20.099	0.044	0.353
110.000	119.808	80.002	19.994	103.324	20.098	0.131	0.372
112.000	120.562	80.006	19.993	103.327	20.103	-0.188	0.374
114.000	121.312	80.005	19.993	103.317	20.097	0.183	0.387
116.001	122.107	80.003	19.994	103.328	20.098	0.124	0.401
118.000	122.902	80.005	19.994	103.331	20.098	0.135	0.379
120.000	123.662	80.004	19.993	103.324	20.099	0.050	0.398
122.000	124.503	80.004	19.994	103.326	20.097	0.187	0.383
124.000	125.355	80.004	19.994	103.340	20.099	0.065	0.408
126.000	126.206	80.004	19.995	103.337	20.100	0.028	0.436
128.000	127.054	80.005	19.993	103.335	20.098	0.114	0.447
130.000	127.874	80.006	19.993	103.335	20.098	0.131	0.430
132.000	128.749	80.006	19.993	103.349	20.105	-0.295	0.436
134.000	129.666	80.003	19.994	103.341	20.103	-0.222	0.425
136.000	130.538	80.004	19.994	103.333	20.102	-0.094	0.443
138.000	131.439	80.003	19.994	103.345	20.103	-0.199	0.445
140.000	132.351	80.005	19.994	103.355	20.097	0.183	0.435
142.000	133.302	80.006	19.994	103.351	20.101	-0.033	0.484
144.001	134.237	80.004	19.995	103.363	20.104	-0.255	0.440
146.000	135.188	80.005	19.994	103.346	20.103	-0.225	0.494
148.000	136.169	80.006	19.994	103.326	20.104	-0.238	0.471
150.000	137.117	80.004	19.993	103.330	20.098	0.116	0.481
152.000	138.074	80.006	19.994	103.341	20.102	-0.113	0.477
154.000	139.038	80.006	19.993	103.331	20.101	-0.030	0.469
156.000	140.051	80.008	19.994	103.312	20.103	-0.166	0.510
158.000	141.044	80.007	19.994	103.300	20.104	-0.271	0.486
160.000	142.015	80.007	19.995	103.306	20.102	-0.113	0.486
162.000	142.995	80.006	19.995	103.304	20.104	-0.233	0.500
164.000	143.994	80.005	19.995	103.323	20.105	-0.301	0.456
166.000	144.996	80.003	19.995	103.308	20.105	-0.310	0.481
168.000	146.017	80.003	19.994	103.318	20.101	-0.037	0.518
170.000	147.018	80.003	19.995	103.327	20.097	0.218	0.519
172.000	148.016	80.005	19.995	103.311	20.101	-0.079	0.506
174.000	148.978	80.004	19.995	103.298	20.101	-0.059	0.509
176.000	149.996	80.005	19.993	103.292	20.098	0.120	0.506
178.000	150.888	80.004	19.994	103.282	20.102	-0.102	0.452
180.000	151.919	80.005	19.993	103.300	20.101	-0.026	0.480
182.001	152.879	80.005	19.994	103.317	20.100	-0.020	0.496
184.000	153.801	80.004	19.995	103.331	20.104	-0.271	0.468
186.000	154.801	80.005	19.994	103.311	20.103	-0.221	0.502
188.000	155.743	80.004	19.993	103.292	20.105	-0.315	0.480
190.000	156.678	80.005	19.994	103.293	20.102	-0.127	0.463
192.001	157.710	80.006	19.994	103.282	20.100	0.004	0.493
194.000	158.666	80.004	19.995	103.285	20.102	-0.111	0.493
196.000	159.612	80.004	19.994	103.286	20.102	-0.105	0.497
198.000	160.585	80.004	19.994	103.268	20.100	0.017	0.461
200.000	161.554	80.003	19.994	103.259	20.097	0.186	0.486
202.000	162.516	80.003	19.994	103.291	20.098	0.111	0.486
204.000	163.445	80.004	19.994	103.328	20.100	-0.009	0.457
206.000	164.457	80.005	19.994	103.317	20.099	0.076	0.513
208.000	165.447	80.006	19.994	103.320	20.103	-0.161	0.469
210.000	166.399	80.005	19.993	103.347	20.104	-0.255	0.482
212.000	167.379	80.008	19.994	103.298	20.099	0.070	0.478
214.000	168.374	80.008	19.993	103.286	20.100	-0.020	0.512
216.000	169.361	80.007	19.992	103.265	20.102	-0.124	0.504
218.000	170.294	80.006	19.994	103.264	20.099	0.076	0.496
220.000	171.305	80.006	19.994	103.276	20.104	-0.286	0.495
222.000	172.294	80.005	19.994	103.292	20.099	0.087	0.489
224.000	173.267	80.006	19.994	103.281	20.099	0.048	0.489
226.000	174.204	80.006	19.994	103.270	20.103	-0.208	0.461
228.000	175.202	80.005	19.995	103.284	20.101	-0.046	0.465
230.000	176.137	80.006	19.995	103.276	20.102	-0.159	0.493
232.000	177.102	80.007	19.995	103.270	20.104	-0.233	0.460
234.000	178.092	80.007	19.994	103.269	20.097	0.242	0.509
236.000	179.017	80.007	19.995	103.260	20.097	0.212	0.476
238.000	179.998	80.008	19.994	103.254	20.095	0.329	0.497
240.000	180.981	80.008	19.995	103.290	20.096	0.308	0.471
242.000	181.891	80.005	19.994	103.312	20.096	0.266	0.460
244.000	182.851	80.006	19.994	103.268	20.096	0.273	0.464
246.000	183.821	80.005	19.995	103.271	20.094	0.421	0.451
248.000	184.789	80.005	19.995	103.295	20.096	0.275	0.495
250.000	185.761	80.003	19.994	103.298	20.096	0.251	0.511
252.000	186.747	80.004	19.994	103.289	20.092	0.531	0.463
254.000	187.727	80.003	19.995	103.284	20.095	0.341	0.482
256.000	188.723	80.002	19.995	103.288	20.091	0.633	0.504
258.001	189.726	80.004	19.995	103.294	20.090	0.681	0.489
260.000	190.691	80.005	19.996	103.287	20.089	0.736	0.470
262.000	191.725	80.003	19.996	103.291	20.086	0.930	0.526
264.000	192.669	80.003	19.995	103.272	20.083	1.133	0.516
266.000	193.677	80.005	19.994	103.255	20.085	1.022	0.518
268.001	194.635	80.005	19.994	103.256	20.084	1.074	0.489
270.000	195.644	80.004	19.993	103.259	20.080	1.354	0.508
272.000	196.614	80.007	19.995	103.274	20.078	1.518	0.484
274.000	197.588	80.005	19.995	103.286	20.076	1.616	0.500
276.000	198.612	80.004	19.994	103.262	20.067	2.247	0.497
278.000	199.590	80.005	19.994	103.259	20.064	2.465	0.499
280.000	200.596	80.004	19.994	103.257	20.066	2.275	0.488
282.000	201.617	80.003	19.995	103.255	20.061	2.633	0.506
284.000	202.636	80.004	19.994	103.255	20.056	2.976	0.502
286.000	203.643	80.005	19.994	103.257	20.049	3.417	0.511
288.000	204.663	80.004	19.995	103.259	20.046	3.638	0.514
290.000	205.631	80.006	19.994	103.253	20.041	3.991	0.499
292.000	206.628	80.006	19.994	103.254	20.035	4.415	0.505
294.000	207.651	80.007	19.995	103.268	20.034	4.464	0.470
296.000	208.701	80.006	19.993	103.262	20.027	4.929	0.519
298.000	209.708	80.008	19.994	103.257	20.021	5.322	0.502
300.000	210.721	80.006	19.994	103.254	20.019	5.481	0.516
302.000	211.755	80.006	19.994	103.253	20.013	5.853	0.507
304.000	212.788	80.006	19.994	103.237	20.010	6.098	0.511
306.000	213.835	80.005	19.993	103.249	20.006	6.368	0.528
308.000	214.845	80.006	19.993	103.239	20.004	6.454	0.491
310.000	215.851	80.005	19.993	103.245	20.001	6.690	0.532
312.000	216.861	80.006	19.994	103.251	19.996	7.030	0.511
314.000	217.865	80.006	19.993	103.243	19.992	7.318	0.509
316.000	218.904	80.006	19.994	103.237	19.991	7.340	0.504
318.000	219.900	80.006	19.995	103.241	19.987	7.611	0.507
320.000	220.900	80.008	19.996	103.240	19.983	7.872	0.518
322.000	221.927	80.007	19.995	103.224	19.984	7.828	0.483
324.000	222.920	80.006	19.994	103.213	19.981	8.017	0.493
326.000	223.889	80.005	19.994	103.215	19.980	8.111	0.483
328.000	224.915	80.004	19.994	103.216	19.974	8.526	0.526
330.000	225.899	80.002	19.994	103.209	19.975	8.408	0.506
332.000	226.878	80.005	19.994	103.208	19.974	8.472	0.508
334.000	227.862	80.004	19.995	103.209	19.970	8.753	0.490
336.000	228.922	80.003	19.994	103.217	19.968	8.931	0.504
338.000	229.890	80.004	19.995	103.221	19.970	8.786	0.495
340.000	230.888	80.005	19.995	103.220	19.967	8.955	0.473
342.000	231.905	80.003	19.995	103.217	19.965	9.099	0.505
344.000	232.901	80.002	19.995	103.216	19.964	9.151	0.515
346.000	233.932	80.003	19.995	103.215	19.963	9.224	0.536
348.000	234.896	80.002	19.995	103.199	19.961	9.385	0.493
350.000	235.908	80.004	19.995	103.210	19.957	9.634	0.501
352.000	236.875	80.003	19.995	103.202	19.955	9.761	0.504
354.000	237.898	80.003	19.996	103.182	19.952	9.994	0.514
356.000	238.854	80.003	19.996	103.209	19.952	10.007	0.480
358.000	239.828	80.005	19.996	103.214	19.944	10.551	0.485
360.000	240.830	80.004	19.994	103.219	19.946	10.371	0.501
362.000	241.862	80.003	19.995	103.215	19.944	10.529	0.535
364.000	242.828	80.003	19.994	103.215	19.936	11.030	0.498
366.000	243.870	80.005	19.995	103.215	19.933	11.234	0.497
368.000	244.837	80.003	19.994	103.216	19.934	11.207	0.493
370.000	245.833	80.004	19.994	103.229	19.927	11.643	0.483
372.000	246.838	80.006	19.994	103.220	19.917	12.347	0.505
374.000	247.858	80.006	19.994	103.222	19.916	12.422	0.515
376.000	248.848	80.007	19.995	103.239	19.909	12.875	0.522
378.000	249.848	80.006	19.995	103.235	19.906	13.088	0.510
380.000	250.888	80.006	19.994	103.232	19.902	13.354	0.517
382.000	251.893	80.005	19.994	103.240	19.898	13.619	0.493
384.000	252.884	80.005	19.993	103.235	19.892	14.045	0.498
386.000	253.908	80.005	19.994	103.231	19.888	14.285	0.472
388.000	254.909	80.004	19.994	103.233	19.883	14.659	0.508
390.000	255.914	80.003	19.993	103.240	19.874	15.254	0.503
392.000	256.929	80.006	19.994	103.239	19.866	15.792	0.487
394.000	257.892	80.005	19.994	103.216	19.860	16.187	0.472
396.000	258.953	80.006	19.994	103.196	19.856	16.444	0.501
398.000	259.952	80.006	19.994	103.195	19.849	16.888	0.487
400.000	260.964	80.008	19.993	103.218	19.838	17.686	0.500
402.000	261.970	80.008	19.993	103.229	19.836	17.806	0.527
404.000	262.953	80.007	19.993	103.248	19.828	18.335	0.475
406.001	263.949	80.007	19.994	103.222	19.823	18.682	0.530
408.000	264.922	80.007	19.993	103.188	19.814	19.269	0.506
410.000	265.887	80.005	19.994	103.196	19.809	19.636	0.497
412.000	266.903	80.003	19.994	103.207	19.801	20.172	0.499
414.000	267.918	80.003	19.995	103.211	19.793	20.704	0.505
416.000	268.907	80.003	19.995	103.210	19.784	21.289	0.506
418.000	269.907	80.004	19.995	103.202	19.781	21.491	0.501
420.000	270.926	80.003	19.995	103.198	19.768	22.372	0.505
422.000	271.941	80.005	19.995	103.193	19.769	22.328	0.517
424.000	272.965	80.003	19.995	103.192	19.757	23.122	0.504
426.000	273.928	80.005	19.995	103.189	19.751	23.489	0.457
428.000	274.920	80.005	19.995	103.198	19.743	24.093	0.480
430.000	275.936	80.005	19.995	103.198	19.738	24.410	0.496
432.000	276.948	80.004	19.996	103.225	19.727	25.148	0.498
434.000	277.944	80.003	19.994	103.247	19.721	25.572	0.502
436.000	278.968	80.005	19.995	103.205	19.718	25.752	0.531
438.000	279.960	80.005	19.995	103.218	19.710	26.278	0.476
440.000	280.955	80.004	19.995	103.236	19.702	26.795	0.500
442.000	281.896	80.004	19.995	103.222	19.697	27.145	0.492
444.000	282.920	80.005	19.996	103.224	19.692	27.530	0.499
446.000	283.934	80.002	19.996	103.219	19.685	28.001	0.515
448.000	284.904	80.002	19.996	103.221	19.682	28.185	0.475
450.000	285.928	80.003	19.995	103.225	19.674	28.736	0.513
452.000	286.948	80.004	19.996	103.234	19.669	29.058	0.489
454.000	287.955	80.004	19.995	103.231	19.663	29.450	0.486
456.000	288.926	80.005	19.995	103.246	19.659	29.748	0.494
458.000	289.969	80.006	19.993	103.244	19.654	30.064	0.526
460.000	291.001	80.006	19.994	103.220	19.651	30.240	0.511
462.000	291.993	80.007	19.993	103.219	19.643	30.801	0.512
464.000	293.056	80.008	19.993	103.221	19.641	30.912	0.530
466.000	294.041	80.006	19.994	103.224	19.637	31.229	0.497
468.000	295.097	80.008	19.995	103.248	19.632	31.559	0.541
470.000	296.075	80.005	19.994	103.255	19.625	32.027	0.494
472.000	297.062	80.006	19.994	103.242	19.623	32.175	0.465
474.000	298.104	80.006	19.994	103.220	19.620	32.342	0.523
476.000	299.081	80.004	19.995	103.221	19.616	32.600	0.508
478.000	300.143	80.007	19.994	103.227	19.614	32.748	0.498
480.000	301.179	80.007	19.994	103.247	19.607	33.241	0.538
482.000	302.220	80.008	19.994	103.253	19.600	33.682	0.551
484.000	303.202	80.006	19.994	103.249	19.600	33.701	0.542
486.000	304.205	80.008	19.994	103.252	19.598	33.855	0.551
488.000	305.274	80.007	19.994	103.252	19.591	34.326	0.512
490.000	306.324	80.007	19.994	103.252	19.585	34.755	0.541
492.000	307.318	80.006	19.994	103.257	19.584	34.791	0.565
494.000	308.358	80.005	19.995	103.276	19.574	35.487	0.538
496.000	309.520	80.008	19.994	103.277	19.569	35.802	0.663
498.000	310.582	80.006	19.994	103.283	19.568	35.884	0.730
500.000	311.439	80.006	19.995	103.285	19.561	36.332	0.766
502.000	312.501	80.005	19.995	103.274	19.559	36.488	0.501
504.000	313.611	80.008	19.994	103.276	19.552	36.930	0.404
506.000	314.617	80.006	19.994	103.267	19.552	36.979	0.511
508.000	315.595	80.005	19.994	103.271	19.542	37.618	0.506
510.000	316.614	80.004	19.994	103.287	19.539	37.854	0.469
512.000	317.652	80.005	19.995	103.279	19.531	38.375	0.500
514.000	318.698	80.005	19.996	103.272	19.527	38.641	0.513
516.000	319.699	80.004	19.995	103.274	19.526	38.705	0.510
518.000	320.757	80.005	19.994	103.269	19.521	39.031	0.521
520.000	321.747	80.006	19.995	103.278	19.516	39.357	0.482
522.000	322.793	80.005	19.994	103.293	19.514	39.524	0.496
524.000	323.830	80.004	19.994	103.276	19.514	39.521	0.525
526.000	324.857	80.004	19.994	103.262	19.511	39.686	0.510
528.000	325.901	80.004	19.994	103.261	19.509	39.802	0.528
530.000	326.905	80.004	19.995	103.257	19.511	39.673	0.496
532.000	327.938	80.004	19.994	103.257	19.510	39.760	0.531
534.000	328.994	80.005	19.994	103.256	19.514	39.494	0.507
536.000	330.034	80.006	19.995	103.253	19.515	39.391	0.522
538.000	331.059	80.005	19.996	103.238	19.514	39.487	0.514
540.000	332.095	80.006	19.995	103.217	19.522	38.942	0.545
542.000	333.089	80.007	19.995	103.216	19.523	38.910	0.492
544.000	334.172	80.007	19.996	103.219	19.529	38.488	0.542
546.000	335.192	80.006	19.994	103.219	19.537	37.916	0.521
548.000	336.181	80.005	19.995	103.211	19.541	37.664	0.475
550.000	337.216	80.005	19.994	103.206	19.546	37.340	0.507
552.000	338.200	80.006	19.994	103.209	19.555	36.702	0.480
554.000	339.277	80.007	19.994	103.213	19.566	35.943	0.488
556.001	340.258	80.007	19.993	103.211	19.572	35.536	0.494
558.000	341.250	80.008	19.995	103.216	19.577	35.215	0.499
560.000	342.247	80.008	19.994	103.231	19.590	34.366	0.466
562.000	343.244	80.008	19.994	103.235	19.595	34.018	0.478
564.000	344.256	80.007	19.994	103.202	19.610	33.027	0.519
566.000	345.263	80.008	19.993	103.179	19.619	32.385	0.504
568.000	346.267	80.008	19.993	103.182	19.622	32.223	0.510
570.000	347.230	80.007	19.992	103.195	19.633	31.439	0.437
572.000	348.294	80.008	19.994	103.212	19.641	30.958	0.500
574.000	349.320	80.006	19.994	103.208	19.648	30.485	0.545
576.000	350.298	80.005	19.995	103.182	19.657	29.835	0.487
578.000	351.329	80.005	19.995	103.175	19.663	29.477	0.491
580.000	352.302	80.005	19.993	103.174	19.668	29.094	0.484
582.000	353.351	80.005	19.994	103.224	19.678	28.452	0.477
584.000	354.327	80.005	19.995	103.232	19.685	27.964	0.507
586.000	355.277	80.006	19.994	103.189	19.694	27.388	0.473
588.000	356.239	80.007	19.993	103.193	19.699	27.012	0.478
590.000	357.226	80.006	19.994	103.207	19.704	26.694	0.480
592.000	358.201	80.006	19.993	103.220	19.710	26.258	0.475
594.000	359.172	80.005	19.994	103.222	19.717	25.838	0.497
596.000	360.172	80.005	19.994	103.227	19.721	25.531	0.494
598.000	361.174	80.005	19.994	103.263	19.730	24.945	0.509
600.000	362.133	80.005	19.994	103.248	19.740	24.238	0.501
602.000	363.096	80.006	19.994	103.226	19.746	23.858	0.494
604.000	364.070	80.004	19.994	103.216	19.752	23.461	0.471
606.000	365.074	80.005	19.994	103.212	19.754	23.331	0.491
608.000	366.019	80.005	19.994	103.216	19.761	22.850	0.459
610.000	366.999	80.005	19.994	103.219	19.764	22.640	0.503
612.000	368.001	80.005	19.994	103.224	19.767	22.445	0.484
614.000	368.975	80.006	19.995	103.237	19.780	21.544	0.515
616.000	369.980	80.005	19.995	103.225	19.783	21.403	0.492
618.000	370.945	80.005	19.995	103.225	19.786	21.165	0.478
620.000	371.921	80.008	19.994	103.239	19.793	20.728	0.502
622.000	372.897	80.008	19.994	103.255	19.797	20.428	0.485
624.000	373.916	80.007	19.994	103.248	19.800	20.255	0.496
626.000	374.901	80.007	19.994	103.244	19.803	19.992	0.441
628.000	375.923	80.007	19.994	103.245	19.809	19.592	0.528
630.000	376.911	80.005	19.994	103.249	19.811	19.465	0.488
632.000	377.924	80.007	19.995	103.244	19.816	19.185	0.497
634.000	378.942	80.007	19.997	103.226	19.822	18.732	0.506
636.000	379.945	80.006	19.995	103.225	19.827	18.421	0.497
638.000	380.939	80.005	19.995	103.224	19.826	18.467	0.521
640.000	381.965	80.006	19.994	103.237	19.833	18.012	0.498
642.000	383.029	80.007	19.993	103.299	19.836	17.769	0.535
644.000	384.060	80.006	19.995	103.237	19.839	17.606	0.518
646.000	385.091	80.006	19.994	103.242	19.843	17.300	0.532
648.000	386.161	80.008	19.993	103.262	19.845	17.205	0.548
650.000	387.162	80.008	19.993	103.260	19.848	17.017	0.536
652.000	388.149	80.008	19.994	103.252	19.851	16.781	0.497
654.000	389.201	80.005	19.993	103.255	19.857	16.377	0.486
656.000	390.224	80.007	19.994	103.254	19.856	16.443	0.570
658.000	391.233	80.003	19.993	103.242	19.860	16.161	0.492
660.000	392.254	80.004	19.994	103.245	19.858	16.338	0.490
662.000	393.263	80.005	19.993	103.246	19.861	16.148	0.533
664.000	394.298	80.005	19.993	103.251	19.864	15.884	0.525
666.000	395.356	80.003	19.993	103.245	19.866	15.791	0.533
668.000	396.388	80.005	19.994	103.250	19.865	15.815	0.520
670.000	397.325	80.006	19.995	103.231	19.869	15.599	0.498
672.000	398.359	80.005	19.995	103.251	19.870	15.504	0.522
674.000	399.407	80.006	19.994	103.258	19.871	15.416	0.507
676.000	400.402	80.006	19.994	103.258	19.872	15.389	0.500
678.001	401.450	80.005	19.994	103.255	19.874	15.216	0.518
680.000	402.458	80.006	19.994	103.253	19.874	15.256	0.498
682.000	403.480	80.006	19.995	103.235	19.874	15.233	0.495
684.000	404.519	80.006	19.993	103.246	19.876	15.123	0.505
686.000	405.551	80.007	19.994	103.246	19.875	15.161	0.501
688.000	406.534	80.006	19.994	103.246	19.873	15.277	0.513
690.000	407.580	80.004	19.993	103.229	19.875	15.156	0.508
692.000	408.612	80.004	19.994	103.246	19.874	15.251	0.504
694.000	409.668	80.005	19.995	103.254	19.873	15.296	0.527
696.000	410.720	80.005	19.995	103.246	19.872	15.382	0.554
698.000	411.746	80.004	19.994	103.255	19.874	15.241	0.541
700.000	412.772	80.006	19.996	103.268	19.873	15.337	0.516
702.000	413.842	80.005	19.995	103.264	19.869	15.606	0.515
704.000	414.848	80.007	19.994	103.264	19.872	15.407	0.515
706.000	415.923	80.007	19.995	103.261	19.870	15.488	0.519
708.001	416.943	80.006	19.993	103.262	19.869	15.566	0.546
710.000	417.986	80.006	19.993	103.257	19.861	16.140	0.523
712.000	419.014	80.007	19.995	103.257	19.865	15.863	0.516
714.000	420.054	80.006	19.995	103.255	19.859	16.244	0.501
716.000	421.112	80.004	19.993	103.251	19.857	16.371	0.524
718.000	422.115	80.006	19.995	103.262	19.853	16.653	0.505
720.000	423.133	80.005	19.995	103.270	19.848	17.009	0.521
722.000	424.196	80.006	19.994	103.271	19.839	17.586	0.520
724.000	425.203	80.005	19.995	103.291	19.838	17.657	0.522
726.000	426.239	80.005	19.994	103.264	19.840	17.555	0.511
728.000	427.223	80.007	19.995	103.264	19.831	18.163	0.492
730.000	428.255	80.005	19.994	103.252	19.820	18.907	0.506
732.000	429.284	80.007	19.995	103.267	19.819	18.953	0.508
734.000	430.266	80.008	19.994	103.291	19.814	19.304	0.467
736.000	431.283	80.007	19.994	103.284	19.809	19.593	0.474
738.000	432.339	80.007	19.994	103.284	19.804	19.965	0.514
740.001	433.342	80.005	19.994	103.300	19.795	20.590	0.515
742.000	434.379	80.005	19.994	103.266	19.787	21.118	0.512
744.000	435.377	80.004	19.993	103.266	19.781	21.551	0.493
746.000	436.421	80.005	19.994	103.286	19.774	22.022	0.498
748.000	437.494	80.004	19.993	103.265	19.765	22.577	0.540
750.000	438.497	80.004	19.992	103.285	19.752	23.451	0.508
752.000	439.496	80.005	19.994	103.294	19.746	23.854	0.476
754.000	440.555	80.004	19.995	103.303	19.743	24.092	0.508
756.000	441.566	80.006	19.994	103.299	19.739	24.371	0.532
758.000	442.581	80.005	19.994	103.300	19.732	24.847	0.523
760.000	443.577	80.005	19.994	103.302	19.722	25.482	0.518
762.000	444.597	80.006	19.993	103.296	19.720	25.613	0.534
764.000	445.626	80.005	19.994	103.313	19.712	26.152	0.509
766.000	446.657	80.006	19.995	103.315	19.712	26.190	0.540
768.000	447.627	80.006	19.995	103.309	19.706	26.563	0.496
770.000	448.649	80.004	19.994	103.332	19.707	26.538	0.504
772.000	449.650	80.005	19.994	103.330	19.700	26.978	0.502
774.000	450.660	80.004	19.993	103.334	19.700	26.997	0.513
776.000	451.701	80.003	19.994	103.333	19.697	27.162	0.504
778.001	452.639	80.005	19.995	103.335	19.695	27.359	0.470
780.001	453.710	80.005	19.993	103.335	19.696	27.263	0.494
782.000	454.680	80.004	19.994	103.336	19.693	27.450	0.505
784.000	455.664	80.006	19.995	103.333	19.694	27.379	0.489
786.000	456.697	80.006	19.994	103.337	19.689	27.715	0.493
788.000	457.694	80.007	19.994	103.337	19.694	27.396	0.507
790.000	458.693	80.005	19.995	103.336	19.691	27.614	0.475
792.000	459.713	80.005	19.994	103.337	19.690	27.657	0.509
794.000	460.767	80.006	19.994	103.335	19.688	27.772	0.529
796.001	461.776	80.006	19.995	103.334	19.690	27.666	0.522
798.000	462.762	80.007	19.995	103.332	19.692	27.526	0.510
800.000	463.795	80.007	19.996	103.336	19.693	27.496	0.500
802.000	464.797	80.005	19.995	103.335	19.691	27.595	0.515
804.000	465.807	80.004	19.994	103.332	19.689	27.715	0.478
806.000	466.848	80.006	19.994	103.336	19.688	27.770	0.521
808.000	467.855	80.006	19.995	103.333	19.690	27.672	0.518
810.000	468.874	80.007	19.994	103.332	19.687	27.860	0.494
812.000	469.921	80.007	19.995	103.350	19.688	27.794	0.508
814.000	470.986	80.007	19.994	103.335	19.687	27.863	0.557
816.000	471.994	80.008	19.994	103.334	19.687	27.879	0.510
818.000	473.093	80.005	19.994	103.330	19.693	27.482	0.563
820.000	474.120	80.005	19.995	103.333	19.691	27.623	0.516
822.000	475.129	80.005	19.996	103.350	19.692	27.508	0.490
824.000	476.147	80.004	19.996	103.349	19.697	27.223	0.509
826.000	477.135	80.003	19.995	103.335	19.693	27.448	0.489
828.000	478.158	80.003	19.995	103.340	19.696	27.252	0.478
830.000	479.185	80.002	19.994	103.347	19.695	27.320	0.513
832.000	480.209	80.004	19.996	103.340	19.693	27.451	0.505
834.000	481.213	80.005	19.995	103.340	19.689	27.750	0.538
836.000	482.233	80.005	19.994	103.346	19.701	26.923	0.525
838.000	483.219	80.005	19.996	103.345	19.696	27.250	0.516
840.000	484.228	80.004	19.994	103.348	19.701	26.897	0.474
842.000	485.232	80.006	19.995	103.341	19.704	26.688	0.486
844.000	486.265	80.004	19.994	103.339	19.707	26.539	0.492
846.000	487.235	80.004	19.994	103.345	19.710	26.316	0.506
848.000	488.229	80.003	19.993	103.341	19.707	26.506	0.475
850.000	489.242	80.004	19.995	103.340	19.712	26.178	0.517
852.000	490.211	80.004	19.994	103.337	19.715	26.013	0.499
854.000	491.186	80.003	19.994	103.336	19.715	25.985	0.493
856.000	492.218	80.005	19.994	103.342	19.716	25.898	0.483
858.000	493.133	80.004	19.995	103.344	19.721	25.563	0.479
860.000	494.170	80.004	19.994	103.326	19.717	25.819	0.496
862.000	495.170	80.005	19.994	103.354	19.717	25.815	0.491
864.000	496.164	80.007	19.995	103.348	19.722	25.492	0.506
866.000	497.152	80.006	19.994	103.338	19.729	25.012	0.487
868.000	498.126	80.006	19.993	103.338	19.732	24.824	0.511
870.000	499.073	80.007	19.992	103.336	19.734	24.696	0.461
872.000	500.074	80.006	19.993	103.328	19.727	25.200	0.506
874.000	501.094	80.006	19.994	103.341	19.734	24.733	0.504
876.000	502.043	80.006	19.994	103.358	19.735	24.621	0.467
878.000	503.037	80.007	19.994	103.357	19.738	24.415	0.459
880.000	503.981	80.006	19.994	103.339	19.740	24.276	0.465
882.000	504.963	80.006	19.994	103.348	19.744	24.050	0.443
884.000	505.982	80.006	19.995	103.347	19.745	23.946	0.458
886.000	506.983	80.006	19.995	103.353	19.740	24.269	0.510
888.000	507.991	80.006	19.996	103.339	19.749	23.651	0.547
890.000	509.024	80.007	19.995	103.345	19.746	23.874	0.474
892.000	510.062	80.007	19.994	103.345	19.755	23.302	0.467
894.000	511.061	80.008	19.995	103.336	19.753	23.397	0.516
896.000	512.088	80.006	19.994	103.332	19.752	23.510	0.497
898.000	513.105	80.008	19.994	103.332	19.754	23.377	0.507
900.000	514.162	80.007	19.993	103.332	19.755	23.280	0.545
902.000	515.157	80.005	19.994	103.332	19.754	23.341	0.507
904.000	516.155	80.005	19.994	103.335	19.755	23.286	0.494
906.000	517.195	80.004	19.994	103.336	19.755	23.295	0.515
908.000	518.234	80.004	19.995	103.339	19.754	23.359	0.504
910.000	519.183	80.006	19.994	103.341	19.753	23.417	0.503
912.000	520.248	80.004	19.994	103.361	19.747	23.813	0.509
914.000	521.302	80.004	19.994	103.360	19.748	23.755	0.536
916.000	522.286	80.004	19.995	103.339	19.747	23.811	0.488
918.000	523.286	80.004	19.995	103.354	19.741	24.255	0.492
920.000	524.344	80.004	19.995	103.368	19.747	23.843	0.485
922.000	525.393	80.005	19.995	103.371	19.742	24.122	0.523
924.000	526.378	80.006	19.996	103.363	19.740	24.273	0.467
926.000	527.454	80.006	19.995	103.369	19.738	24.453	0.524
928.000	528.438	80.005	19.995	103.371	19.737	24.511	0.540
930.000	529.517	80.005	19.993	103.355	19.733	24.760	0.516
932.000	530.461	80.006	19.995	103.334	19.738	24.400	0.460
934.000	531.588	80.005	19.995	103.342	19.739	24.347	0.532
936.000	532.605	80.006	19.995	103.361	19.737	24.508	0.502
938.000	533.689	80.005	19.994	103.344	19.742	24.148	0.540
940.000	534.741	80.005	19.995	103.364	19.748	23.773	0.500
942.000	535.783	80.005	19.994	103.360	19.751	23.533	0.531
944.000	536.812	80.006	19.995	103.334	19.752	23.500	0.541
946.000	537.838	80.005	19.995	103.334	19.756	23.180	0.495
948.000	538.835	80.006	19.993	103.344	19.765	22.607	0.487
950.000	539.870	80.007	19.995	103.352	19.772	22.159	0.509
952.000	540.854	80.007	19.994	103.345	19.778	21.740	0.478
954.000	541.807	80.007	19.995	103.332	19.784	21.339	0.477
956.000	542.789	80.006	19.993	103.325	19.787	21.083	0.493
958.000	543.791	80.006	19.994	103.324	19.798	20.378	0.483
960.000	544.725	80.005	19.994	103.351	19.802	20.129	0.500
962.000	545.651	80.007	19.993	103.346	19.805	19.896	0.484
964.000	546.605	80.005	19.994	103.305	19.818	19.032	0.485
966.000	547.546	80.005	19.994	103.298	19.823	18.659	0.485
968.000	548.487	80.005	19.992	103.299	19.831	18.141	0.459
970.000	549.442	80.006	19.994	103.323	19.839	17.610	0.478
972.000	550.342	80.007	19.994	103.335	19.843	17.330	0.476
974.000	551.227	80.007	19.995	103.317	19.853	16.672	0.449
976.000	552.182	80.007	19.993	103.297	19.857	16.402	0.456
978.000	553.113	80.007	19.994	103.294	19.858	16.294	0.467
980.000	554.048	80.007	19.994	103.291	19.873	15.320	0.473
982.000	555.035	80.007	19.995	103.285	19.885	14.479	0.504
984.000	555.988	80.006	19.994	103.293	19.893	13.964	0.482
986.000	556.933	80.006	19.995	103.300	19.897	13.717	0.493
988.000	557.865	80.004	19.994	103.307	19.906	13.071	0.476
990.000	558.827	80.002	19.993	103.289	19.916	12.379	0.479
992.000	559.753	80.004	19.994	103.278	19.924	11.843	0.465
994.000	560.719	80.006	19.994	103.277	19.927	11.672	0.485
996.000	561.678	80.005	19.996	103.270	19.935	11.118	0.482
998.000	562.605	80.005	19.995	103.256	19.938	10.932	0.441
1000.000	563.602	80.005	19.994	103.252	19.944	10.497	0.476
1002.000	564.573	80.006	19.996	103.246	19.953	9.919	0.468
1004.000	565.535	80.005	19.995	103.245	19.959	9.539	0.459
1006.000	566.541	80.005	19.995	103.252	19.970	8.805	0.489
1008.000	567.532	80.004	19.994	103.271	19.971	8.704	0.498
1010.000	568.484	80.004	19.995	103.281	19.976	8.357	0.501
1012.000	569.447	80.006	19.996	103.270	19.979	8.188	0.504
1014.000	570.434	80.004	19.995	103.270	19.990	7.445	0.485
1016.000	571.411	80.004	19.995	103.277	19.991	7.350	0.488
1018.000	572.383	80.004	19.995	103.260	20.003	6.570	0.483
1020.000	573.348	80.004	19.996	103.237	20.008	6.220	0.477
1022.000	574.342	80.005	19.996	103.217	20.010	6.048	0.476
1024.000	575.342	80.005	19.996	103.212	20.013	5.861	0.508
1026.001	576.289	80.004	19.994	103.223	20.019	5.470	0.482
1028.000	577.259	80.004	19.994	103.248	20.025	5.085	0.472
1030.001	578.249	80.005	19.994	103.249	20.032	4.563	0.462
1032.000	579.318	80.007	19.994	103.242	20.032	4.602	0.550
1034.000	580.255	80.006	19.993	103.235	20.033	4.538	0.509
1036.001	581.308	80.007	19.994	103.274	20.040	4.049	0.492
1038.001	582.365	80.005	19.994	103.237	20.047	3.598	0.532
1040.001	583.381	80.006	19.993	103.231	20.047	3.557	0.532
1042.001	584.388	80.007	19.994	103.171	20.049	3.463	0.517
1044.000	585.459	80.006	19.994	103.280	20.050	3.386	0.510
1046.000	586.489	80.006	19.994	103.230	20.051	3.309	0.501
1048.001	587.572	80.003	19.993	103.197	20.056	2.963	0.521
1050.000	588.611	80.006	19.994	103.212	20.062	2.597	0.521
1052.000	589.631	80.006	19.994	103.217	20.056	2.988	0.518
1054.000	590.721	80.006	19.993	103.202	20.059	2.780	0.570
1056.000	591.736	80.007	19.994	103.202	20.065	2.378	0.514
1058.000	592.798	80.008	19.994	103.192	20.063	2.496	0.535
1060.000	593.897	80.007	19.993	103.253	20.071	1.993	0.560
1062.001	594.934	80.009	19.994	103.213	20.076	1.622	0.505
1064.001	595.961	80.006	19.994	103.205	20.074	1.753	0.516
1066.000	596.954	80.006	19.993	103.189	20.074	1.777	0.483
1068.000	597.999	80.005	19.993	103.179	20.071	1.993	0.533
1070.000	598.988	80.005	19.994	103.176	20.076	1.652	0.473
1072.000	599.969	80.004	19.993	103.182	20.076	1.636	0.516
1074.000	600.973	80.005	19.995	103.178	20.077	1.551	0.501
1076.000	601.956	80.005	19.995	103.199	20.074	1.745	0.482
1078.000	602.976	80.004	19.995	103.193	20.070	2.054	0.520
1080.000	603.933	80.003	19.995	103.198	20.071	1.988	0.462
1082.000	604.944	80.004	19.995	103.213	20.073	1.848	0.525
1084.001	605.931	80.004	19.994	103.217	20.075	1.711	0.483
1086.000	606.931	80.005	19.993	103.222	20.083	1.134	0.510
1088.000	607.948	80.005	19.994	103.211	20.077	1.567	0.514
1090.000	608.958	80.004	19.995	103.202	20.079	1.455	0.505
1092.000	609.968	80.005	19.995	103.209	20.076	1.612	0.513
1094.000	610.968	80.004	19.994	103.215	20.075	1.669	0.515
1096.000	611.971	80.003	19.993	103.200	20.070	2.038	0.486
1098.000	612.966	80.004	19.996	103.197	20.072	1.866	0.528
1100.000	613.976	80.003	19.995	103.214	20.075	1.689	0.500
1102.000	614.945	80.004	19.995	103.216	20.076	1.617	0.486
1104.001	616.000	80.002	19.994	103.215	20.082	1.249	0.493
1106.001	616.977	80.004	19.996	103.230	20.069	2.071	0.475
1108.000	617.954	80.003	19.994	103.220	20.071	1.968	0.477
1110.000	618.972	80.003	19.994	103.214	20.077	1.568	0.519
1112.000	619.952	80.005	19.995	103.216	20.076	1.656	0.472
1114.001	620.945	80.005	19.995	103.217	20.074	1.754	0.485
1116.000	621.925	80.004	19.995	103.216	20.072	1.867	0.515
1118.001	622.948	80.007	19.995	103.219	20.074	1.751	0.509
1120.000	623.939	80.005	19.992	103.232	20.072	1.882	0.512
1122.000	624.949	80.006	19.994	103.234	20.080	1.332	0.507
1124.000	625.936	80.006	19.994	103.244	20.074	1.765	0.515
1126.000	627.027	80.004	19.992	103.187	20.073	1.815	0.527
1128.000	628.060	80.005	19.993	103.200	20.070	2.020	0.521
1130.000	629.087	80.006	19.994	103.280	20.069	2.129	0.502
1132.000	630.174	80.004	19.995	103.218	20.071	1.946	0.529
1134.000	631.281	80.006	19.995	103.228	20.071	1.959	0.542
1136.000	632.363	80.006	19.995	103.227	20.066	2.274	0.554
1138.000	633.434	80.006	19.994	103.237	20.069	2.103	0.544
1140.001	634.521	80.006	19.993	103.257	20.067	2.256	0.525
1142.000	635.598	80.007	19.994	103.251	20.074	1.780	0.524
1144.001	636.746	80.007	19.993	103.218	20.069	2.121	0.570
1146.000	637.797	80.008	19.994	103.223	20.069	2.108	0.530
1148.001	638.869	80.007	19.994	103.232	20.074	1.795	0.526
1150.000	639.947	80.006	19.994	103.240	20.070	2.046	0.507
1152.000	641.047	80.005	19.995	103.242	20.070	2.035	0.560
1154.000	642.114	80.005	19.994	103.216	20.069	2.111	0.551
1156.000	643.212	80.006	19.995	103.216	20.067	2.236	0.551
1158.000	644.255	80.004	19.994	103.223	20.064	2.445	0.526
1160.000	645.350	80.005	19.994	103.246	20.066	2.284	0.577
1162.001	646.347	80.007	19.996	103.261	20.059	2.790	0.527
1164.000	647.375	80.005	19.994	103.259	20.058	2.859	0.503
1166.000	648.447	80.005	19.995	103.255	20.059	2.752	0.531
1168.000	649.429	80.005	19.994	103.284	20.063	2.520	0.512
1170.000	650.436	80.004	19.994	103.278	20.063	2.535	0.501
1172.000	651.463	80.006	19.996	103.230	20.058	2.827	0.489
1174.001	652.465	80.004	19.995	103.220	20.062	2.544	0.490
1176.001	653.474	80.004	19.993	103.239	20.059	2.750	0.494
1178.000	654.489	80.003	19.993	103.243	20.057	2.914	0.501
1180.000	655.524	80.003	19.994	103.242	20.057	2.903	0.523
1182.000	656.523	80.005	19.995	103.258	20.059	2.799	0.511
1184.000	657.538	80.003	19.994	103.259	20.056	2.985	0.492
1186.000	658.571	80.004	19.995	103.258	20.057	2.884	0.548
1188.001	659.555	80.004	19.995	103.280	20.054	3.140	0.506
1190.000	660.623	80.004	19.994	103.277	20.055	3.068	0.529
1192.000	661.640	80.004	19.995	103.275	20.053	3.184	0.518
1194.001	662.651	80.005	19.994	103.253	20.053	3.163	0.496
1196.001	663.659	80.004	19.995	103.257	20.059	2.787	0.478
1198.000	664.657	80.007	19.995	103.251	20.060	2.734	0.504
1200.000	665.676	80.005	19.995	103.257	20.053	3.163	0.493
1202.000	666.707	80.006	19.996	103.278	20.057	2.906	0.527
1204.001	667.709	80.007	19.996	103.287	20.056	2.970	0.483
1206.001	668.733	80.005	19.995	103.268	20.052	3.227	0.526
1208.000	669.749	80.006	19.995	103.299	20.061	2.661	0.523
1210.000	670.757	80.007	19.995	103.302	20.057	2.921	0.501
1212.001	671.781	80.007	19.997	103.276	20.057	2.934	0.485
1214.000	672.822	80.006	19.994	103.290	20.053	3.152	0.512
1216.000	673.874	80.005	19.994	103.319	20.058	2.854	0.545
1218.000	674.909	80.007	19.994	103.293	20.057	2.899	0.508
1220.000	675.981	80.007	19.994	103.276	20.052	3.258	0.516
1222.001	677.073	80.008	19.995	103.290	20.054	3.136	0.529
1224.000	678.114	80.007	19.994	103.292	20.054	3.114	0.526
1226.000	679.194	80.009	19.995	103.310	20.056	2.970	0.533
1228.001	680.199	80.008	19.995	103.302	20.055	3.055	0.498
1230.000	681.285	80.006	19.993	103.304	20.055	3.041	0.512
1232.000	682.378	80.005	19.995	103.307	20.055	3.078	0.553
1234.000	683.374	80.005	19.994	103.310	20.051	3.291	0.518
1236.000	684.406	80.004	19.994	103.313	20.050	3.383	0.504
1238.000	685.450	80.005	19.994	103.316	20.055	3.040	0.520
1240.000	686.520	80.005	19.994	103.326	20.052	3.246	0.495
1242.000	687.596	80.005	19.995	103.334	20.053	3.146	0.549
1244.000	688.624	80.005	19.994	103.316	20.051	3.329	0.541
1246.000	689.662	80.006	19.994	103.298	20.054	3.116	0.492
1248.000	690.726	80.006	19.994	103.305	20.057	2.941	0.528
1250.001	691.771	80.005	19.994	103.327	20.055	3.059	0.519
1252.001	692.840	80.007	19.994	103.338	20.053	3.196	0.532
1254.001	693.878	80.005	19.993	103.317	20.053	3.166	0.489
1256.000	694.945	80.007	19.995	103.325	20.054	3.090	0.527
1258.000	695.993	80.007	19.994	103.331	20.055	3.052	0.527
1260.000	697.093	80.005	19.993	103.330	20.057	2.894	0.546
1262.000	698.082	80.008	19.994	103.327	20.055	3.077	0.505
1264.001	699.158	80.005	19.994	103.331	20.057	2.911	0.546
1266.000	700.183	80.005	19.995	103.306	20.057	2.910	0.534
1268.000	701.230	80.004	19.995	103.292	20.052	3.260	0.507
1270.000	702.256	80.003	19.995	103.290	20.052	3.253	0.488
1272.001	703.303	80.004	19.995	103.294	20.050	3.362	0.514
1274.001	704.292	80.006	19.994	103.298	20.048	3.542	0.496
1276.000	705.323	80.004	19.994	103.323	20.047	3.608	0.492
1278.000	706.332	80.007	19.994	103.325	20.053	3.207	0.493
1280.000	707.314	80.007	19.995	103.323	20.051	3.287	0.480
1282.000	708.325	80.007	19.994	103.299	20.054	3.091	0.495
1284.000	709.330	80.007	19.995	103.268	20.050	3.355	0.517
1286.001	710.356	80.006	19.994	103.276	20.054	3.096	0.480
1288.000	711.335	80.006	19.994	103.286	20.058	2.841	0.483
1290.000	712.330	80.003	19.994	103.293	20.055	3.048	0.520
1292.000	713.343	80.005	19.995	103.303	20.056	2.980	0.499
1294.001	714.344	80.007	19.995	103.271	20.057	2.892	0.494
1296.000	715.338	80.006	19.995	103.222	20.058	2.836	0.508
1298.000	716.393	80.005	19.996	103.198	20.066	2.308	0.525
1300.000	717.432	80.006	19.995	103.211	20.064	2.464	0.531
1302.000	718.395	80.007	19.997	103.212	20.069	2.100	0.499
1304.000	719.442	80.008	19.995	103.213	20.067	2.199	0.502
1306.000	720.454	80.007	19.993	103.206	20.066	2.332	0.505
1308.000	721.412	80.008	19.994	103.180	20.069	2.098	0.500
1310.000	722.435	80.007	19.994	103.158	20.069	2.065	0.521
1312.001	723.494	80.006	19.992	103.173	20.066	2.326	0.544
1314.000	724.472	80.005	19.993	103.185	20.068	2.153	0.492
1316.000	725.487	80.005	19.993	103.181	20.072	1.863	0.537
1318.001	726.467	80.004	19.994	103.176	20.068	2.168	0.488
1320.000	727.476	80.004	19.995	103.183	20.065	2.356	0.522
1322.000	728.463	80.005	19.995	103.189	20.066	2.298	0.501
1324.000	729.434	80.004	19.994	103.160	20.072	1.889	0.486
1326.001	730.454	80.004	19.994	103.150	20.073	1.838	0.465
1328.000	731.448	80.005	19.995	103.143	20.069	2.072	0.532
1330.000	732.459	80.005	19.994	103.173	20.068	2.195	0.511
1332.000	733.483	80.004	19.994	103.154	20.066	2.268	0.537
1334.000	734.421	80.004	19.994	103.142	20.070	2.015	0.450
1336.000	735.470	80.006	19.995	103.156	20.064	2.428	0.532
1338.000	736.438	80.006	19.995	103.163	20.068	2.188	0.492
1340.000	737.436	80.006	19.993	103.169	20.068	2.133	0.543
1342.000	738.410	80.005	19.995	103.177	20.071	1.978	0.486
1344.000	739.386	80.005	19.993	103.173	20.066	2.273	0.488
1346.001	740.360	80.003	19.994	103.172	20.068	2.186	0.495
1348.000	741.298	80.004	19.994	103.169	20.069	2.083	0.498
1350.001	742.288	80.004	19.994	103.168	20.069	2.075	0.481
1352.000	743.305	80.005	19.996	103.177	20.065	2.363	0.500
1353.000	743.816	80.004	19.994	103.179	20.070	2.014	0.500