File: 01_Data/Wool_Rug/MCC/Wool_Rug_MCC_30K_min_211112_R1.txt
Sample ID:	C:\MCC\MCC Cal\Test\Wool_Rug_MCC_30K_min_211112_R1.txt
Sample Weight (mg):	4.72
Heating Rate (C/s):	0.5
Combustor Temp (C):	900
N2 Flow Rate (cc/min):	80
O2 Flow Rate (cc/min):	20
Calibration File:	C:\MCC\MCC Cal\Coeff1 JN10440_30_210304.txt.txt
T Correction Coefficients:	0	1.024463	0
Time Shift (s):	14
*
Time (s)	Temperature (C)	N2 flow rate (cc/min)	O2 flow rate (cc/min)	Flow Rate (cc/min)	Oxygen (%)	HRR (W/g)	Heating rate (C/s)
0.000	108.408	79.998	19.996	102.937	20.109	-0.150	0.015
2.000	108.394	80.003	19.996	102.948	20.110	-0.200	-0.026
4.000	108.390	79.999	19.994	102.944	20.109	-0.117	0.006
6.000	108.394	80.000	19.993	102.938	20.107	0.011	-0.016
8.000	108.413	79.998	19.995	102.941	20.110	-0.238	0.029
10.000	108.396	80.001	19.994	102.944	20.103	0.264	0.013
12.000	108.356	80.003	19.993	102.946	20.107	-0.019	-0.034
14.000	108.417	80.002	19.994	102.948	20.106	0.058	-0.003
16.000	108.408	80.002	19.994	102.963	20.104	0.210	0.008
18.000	108.396	80.000	19.995	102.973	20.098	0.628	0.006
20.000	108.401	80.002	19.994	102.994	20.098	0.639	-0.009
22.000	108.419	80.006	19.995	103.017	20.096	0.724	-0.015
24.000	108.507	80.001	19.995	103.016	20.091	1.085	0.020
26.000	108.600	80.001	19.994	103.020	20.089	1.220	0.051
28.000	108.680	80.001	19.995	103.027	20.092	1.055	0.033
30.000	108.765	79.997	19.993	103.038	20.087	1.375	0.036
32.001	108.899	79.998	19.995	103.057	20.086	1.446	0.073
34.000	109.036	79.999	19.995	103.080	20.081	1.744	0.105
36.001	109.216	79.997	19.994	103.073	20.078	1.972	0.102
38.000	109.395	79.997	19.996	103.087	20.080	1.868	0.092
40.000	109.608	79.999	19.994	103.103	20.073	2.290	0.126
42.000	109.858	79.998	19.994	103.107	20.075	2.156	0.137
44.000	110.086	79.999	19.995	103.131	20.074	2.233	0.113
46.000	110.399	79.998	19.995	103.150	20.072	2.389	0.121
48.000	110.694	79.999	19.995	103.153	20.071	2.449	0.176
50.000	111.000	80.000	19.994	103.152	20.067	2.706	0.141
52.000	111.451	79.996	19.995	103.151	20.069	2.576	0.218
54.000	111.791	79.997	19.995	103.159	20.065	2.881	0.193
56.000	112.236	79.998	19.995	103.162	20.066	2.771	0.235
58.000	112.685	79.997	19.995	103.179	20.064	2.940	0.216
60.000	113.129	79.996	19.996	103.177	20.062	3.074	0.224
62.001	113.650	79.998	19.995	103.178	20.061	3.117	0.232
64.000	114.198	79.997	19.996	103.187	20.063	3.003	0.298
66.000	114.705	80.001	19.994	103.188	20.061	3.160	0.271
68.000	115.259	79.999	19.994	103.186	20.060	3.189	0.287
70.000	115.842	80.001	19.995	103.187	20.061	3.152	0.306
72.000	116.431	79.999	19.994	103.187	20.059	3.290	0.304
74.000	117.045	80.001	19.994	103.188	20.060	3.186	0.311
76.001	117.738	80.002	19.994	103.188	20.059	3.286	0.342
78.000	118.369	79.999	19.996	103.186	20.062	3.095	0.332
80.000	119.030	79.984	19.996	103.181	20.061	3.126	0.343
82.000	119.724	80.000	19.994	103.185	20.061	3.121	0.335
84.000	120.457	79.999	19.995	103.191	20.063	3.020	0.353
86.000	121.165	79.998	19.994	103.191	20.063	3.031	0.335
88.000	121.906	80.000	19.994	103.189	20.063	3.002	0.361
90.000	122.630	80.001	19.994	103.192	20.064	2.913	0.381
92.000	123.380	80.001	19.994	103.191	20.063	3.015	0.391
94.000	124.125	80.002	19.994	103.189	20.063	3.017	0.384
96.000	124.876	80.001	19.993	103.190	20.062	3.039	0.383
98.000	125.673	80.000	19.994	103.188	20.062	3.059	0.374
100.000	126.477	80.007	19.993	103.196	20.060	3.236	0.395
102.001	127.257	79.999	19.993	103.197	20.062	3.065	0.416
104.000	128.065	79.998	19.994	103.190	20.060	3.210	0.433
106.000	128.906	80.000	19.994	103.197	20.058	3.314	0.421
108.001	129.720	80.001	19.995	103.191	20.062	3.104	0.418
110.000	130.538	79.997	19.994	103.197	20.060	3.210	0.412
112.001	131.388	80.001	19.995	103.210	20.060	3.181	0.411
114.000	132.217	79.995	19.996	103.201	20.061	3.130	0.417
116.000	133.127	80.003	19.993	103.200	20.061	3.150	0.441
118.000	133.982	80.000	19.995	103.195	20.059	3.270	0.432
120.000	134.852	79.995	19.996	103.192	20.060	3.184	0.417
122.000	135.828	80.001	19.994	103.202	20.060	3.227	0.487
124.000	136.685	80.004	19.995	103.202	20.057	3.443	0.431
126.000	137.573	80.002	19.994	103.193	20.054	3.584	0.447
128.000	138.529	80.001	19.995	103.194	20.057	3.439	0.462
130.000	139.399	80.002	19.995	103.198	20.055	3.521	0.479
132.000	140.346	80.001	19.995	103.188	20.058	3.366	0.491
134.000	141.260	79.998	19.995	103.193	20.057	3.387	0.469
136.001	142.157	79.990	19.995	103.200	20.055	3.541	0.469
138.000	143.163	79.997	19.995	103.192	20.058	3.362	0.492
140.000	144.051	80.001	19.995	103.196	20.055	3.558	0.467
142.000	145.072	80.000	19.994	103.189	20.060	3.238	0.485
144.001	146.000	79.998	19.995	103.189	20.058	3.314	0.482
146.000	146.933	80.006	19.995	103.188	20.059	3.288	0.453
148.000	147.956	79.996	19.996	103.191	20.060	3.236	0.481
150.000	148.910	79.997	19.996	103.191	20.060	3.240	0.514
152.000	149.884	80.003	19.995	103.187	20.057	3.427	0.500
154.000	150.837	79.996	19.994	103.189	20.060	3.223	0.456
156.000	151.827	80.000	19.993	103.189	20.057	3.392	0.489
158.000	152.832	80.001	19.992	103.193	20.059	3.308	0.480
160.000	153.796	80.000	19.993	103.192	20.057	3.381	0.481
162.000	154.784	80.006	19.994	103.189	20.060	3.176	0.503
164.000	155.763	80.001	19.995	103.191	20.062	3.037	0.503
166.001	156.778	80.000	19.994	103.193	20.058	3.333	0.518
168.000	157.744	79.999	19.996	103.192	20.065	2.834	0.515
170.000	158.763	80.001	19.994	103.191	20.067	2.745	0.521
172.000	159.736	80.004	19.994	103.191	20.065	2.881	0.509
174.000	160.686	80.002	19.993	103.183	20.064	2.923	0.468
176.000	161.671	80.003	19.994	103.191	20.067	2.758	0.479
178.000	162.676	80.004	19.994	103.185	20.063	3.016	0.499
180.000	163.678	80.002	19.993	103.177	20.063	3.029	0.471
182.000	164.700	80.010	19.993	103.181	20.065	2.867	0.500
184.000	165.705	80.006	19.994	103.188	20.062	3.059	0.492
186.000	166.705	80.002	19.994	103.182	20.063	2.994	0.468
188.000	167.703	80.002	19.995	103.176	20.065	2.854	0.505
190.000	168.666	80.002	19.994	103.177	20.062	3.086	0.485
192.000	169.654	79.981	19.996	103.178	20.062	3.057	0.478
194.000	170.611	79.993	19.995	103.169	20.060	3.218	0.461
196.000	171.670	80.023	19.991	103.168	20.062	3.062	0.532
198.000	172.692	79.990	19.994	103.168	20.061	3.111	0.537
200.000	173.626	79.996	19.996	103.170	20.060	3.230	0.492
202.000	174.663	80.013	19.992	103.164	20.059	3.265	0.510
204.000	175.597	79.993	19.996	103.163	20.062	3.068	0.457
206.000	176.593	79.992	19.997	103.166	20.062	3.069	0.475
208.000	177.570	79.998	19.996	103.162	20.060	3.179	0.453
210.000	178.558	80.004	19.993	103.170	20.060	3.233	0.526
212.001	179.580	80.003	19.994	103.173	20.060	3.214	0.528
214.000	180.559	79.993	19.995	103.172	20.061	3.142	0.506
216.000	181.540	79.998	19.994	103.159	20.058	3.356	0.519
218.000	182.536	79.998	19.995	103.164	20.057	3.406	0.475
220.000	183.499	79.999	19.996	103.167	20.062	3.060	0.498
222.000	184.535	80.002	19.995	103.161	20.059	3.291	0.493
224.000	185.497	79.998	19.995	103.155	20.056	3.475	0.513
226.000	186.537	80.002	19.995	103.157	20.059	3.263	0.490
228.000	187.494	80.003	19.995	103.149	20.059	3.276	0.515
230.000	188.466	79.989	19.996	103.152	20.058	3.348	0.519
232.000	189.438	79.995	19.995	103.155	20.057	3.426	0.489
234.000	190.468	80.008	19.993	103.153	20.057	3.381	0.511
236.000	191.425	80.000	19.995	103.158	20.056	3.478	0.478
238.000	192.392	79.998	19.995	103.153	20.059	3.274	0.510
240.000	193.361	80.000	19.995	103.149	20.057	3.417	0.485
242.000	194.375	79.998	19.995	103.146	20.058	3.328	0.474
244.000	195.338	80.003	19.994	103.147	20.059	3.298	0.474
246.000	196.313	79.998	19.995	103.152	20.060	3.237	0.499
248.000	197.267	79.997	19.995	103.148	20.058	3.355	0.495
250.000	198.295	80.009	19.994	103.147	20.058	3.326	0.481
252.000	199.274	79.997	19.995	103.149	20.057	3.380	0.482
254.000	200.246	79.990	19.995	103.150	20.057	3.387	0.494
256.000	201.170	80.004	19.993	103.150	20.056	3.489	0.466
258.000	202.216	80.001	19.994	103.151	20.056	3.459	0.524
260.000	203.165	80.002	19.994	103.142	20.054	3.640	0.480
262.000	204.138	80.006	19.994	103.146	20.054	3.584	0.472
264.000	205.122	79.999	19.995	103.150	20.052	3.744	0.508
266.000	206.158	79.996	19.995	103.148	20.054	3.584	0.463
268.000	207.145	79.996	19.995	103.145	20.050	3.865	0.526
270.000	208.112	80.000	19.995	103.142	20.052	3.729	0.486
272.000	209.106	80.009	19.992	103.138	20.048	4.035	0.489
274.000	210.092	79.998	19.994	103.147	20.050	3.854	0.489
276.000	211.028	79.996	19.993	103.139	20.049	3.922	0.465
278.000	212.001	80.002	19.995	103.145	20.045	4.222	0.472
280.000	213.021	79.999	19.994	103.150	20.045	4.242	0.491
282.000	214.034	79.995	19.995	103.146	20.044	4.300	0.457
284.000	215.028	80.013	19.993	103.141	20.037	4.746	0.526
286.000	216.045	80.011	19.993	103.147	20.036	4.856	0.512
288.000	217.004	80.000	19.994	103.145	20.037	4.751	0.493
290.000	218.032	79.997	19.995	103.148	20.031	5.149	0.499
292.000	218.974	80.002	19.994	103.133	20.031	5.192	0.478
294.000	219.985	80.000	19.995	103.151	20.029	5.349	0.517
296.000	220.996	80.006	19.995	103.146	20.025	5.583	0.503
298.000	221.964	79.988	19.997	103.150	20.027	5.429	0.518
300.000	223.054	80.000	19.993	103.139	20.024	5.653	0.543
302.000	223.983	79.998	19.995	103.135	20.018	6.077	0.488
304.001	225.000	79.998	19.995	103.131	20.018	6.043	0.526
306.000	225.988	80.003	19.995	103.121	20.012	6.496	0.497
308.000	226.992	80.009	19.992	103.124	20.007	6.797	0.473
310.000	228.008	79.992	19.994	103.117	20.006	6.883	0.535
312.000	229.048	80.014	19.994	103.114	20.004	6.993	0.504
314.000	230.020	79.990	19.995	103.109	19.997	7.499	0.483
316.000	231.054	79.999	19.995	103.101	19.994	7.672	0.503
318.000	231.978	80.005	19.994	103.107	19.992	7.804	0.477
320.000	233.012	80.003	19.995	103.107	19.985	8.294	0.479
322.000	234.019	79.977	19.996	103.112	19.984	8.362	0.518
324.000	235.036	79.993	19.996	103.116	19.984	8.353	0.473
326.000	235.972	80.001	19.996	103.111	19.980	8.673	0.497
328.000	236.974	80.002	19.997	103.105	19.980	8.682	0.479
330.001	238.018	80.014	19.993	103.111	19.981	8.611	0.531
332.000	238.989	80.000	19.995	103.115	19.978	8.805	0.510
334.000	239.962	80.006	19.993	103.112	19.980	8.649	0.487
336.000	240.970	80.001	19.994	103.118	19.982	8.495	0.478
338.000	241.929	80.002	19.994	103.129	19.983	8.470	0.493
340.000	242.958	79.996	19.994	103.129	19.980	8.630	0.492
342.000	243.996	80.000	19.994	103.137	19.977	8.829	0.524
344.000	244.948	79.977	19.996	103.144	19.979	8.715	0.482
346.000	245.997	79.992	19.994	103.145	19.979	8.735	0.516
348.000	246.983	79.998	19.993	103.132	19.978	8.824	0.512
350.000	247.970	79.997	19.994	103.137	19.977	8.850	0.491
352.000	248.969	80.001	19.994	103.135	19.977	8.830	0.489
354.000	249.999	80.000	19.994	103.146	19.978	8.798	0.526
356.000	251.047	79.993	19.994	103.148	19.969	9.422	0.512
358.000	252.033	79.989	19.995	103.140	19.967	9.563	0.499
360.000	252.946	80.001	19.995	103.151	19.966	9.605	0.454
362.000	253.984	79.996	19.994	103.147	19.966	9.592	0.485
364.000	255.009	80.004	19.994	103.142	19.961	9.968	0.519
366.000	255.996	80.002	19.993	103.148	19.959	10.101	0.500
368.000	256.992	80.009	19.994	103.140	19.956	10.285	0.503
370.000	257.990	79.993	19.995	103.138	19.951	10.613	0.526
372.000	259.007	80.002	19.994	103.148	19.949	10.757	0.498
374.000	259.937	79.991	19.995	103.148	19.946	10.953	0.490
376.000	260.965	79.995	19.995	103.148	19.943	11.213	0.499
378.000	261.919	80.006	19.995	103.145	19.943	11.157	0.502
380.000	262.925	79.998	19.995	103.147	19.940	11.381	0.476
382.000	263.934	79.999	19.994	103.147	19.939	11.487	0.480
384.000	264.914	80.002	19.996	103.146	19.934	11.790	0.480
386.000	265.909	79.998	19.996	103.145	19.931	12.028	0.467
388.000	266.901	79.992	19.997	103.144	19.929	12.103	0.489
390.000	267.904	79.998	19.993	103.147	19.923	12.526	0.516
392.000	268.882	79.995	19.996	103.141	19.917	12.982	0.452
394.000	269.893	79.995	19.996	103.130	19.913	13.256	0.495
396.000	270.920	79.999	19.995	103.133	19.911	13.387	0.499
398.000	271.958	80.004	19.995	103.139	19.906	13.689	0.505
400.000	272.922	80.002	19.995	103.148	19.901	14.055	0.483
402.000	273.904	80.001	19.996	103.151	19.892	14.655	0.513
404.000	274.919	79.997	19.997	103.149	19.892	14.684	0.482
406.000	275.931	80.010	19.995	103.149	19.885	15.124	0.479
408.000	276.871	80.001	19.995	103.150	19.882	15.361	0.471
410.000	277.895	79.996	19.995	103.144	19.877	15.669	0.509
412.000	278.857	80.005	19.997	103.143	19.871	16.084	0.454
414.000	279.866	80.000	19.995	103.149	19.863	16.640	0.511
416.000	280.851	79.989	19.997	103.143	19.860	16.870	0.495
418.000	281.836	80.009	19.994	103.147	19.857	17.040	0.478
420.000	282.837	79.997	19.995	103.148	19.846	17.788	0.503
422.000	283.869	80.008	19.993	103.152	19.839	18.261	0.508
424.000	284.822	80.013	19.992	103.158	19.837	18.426	0.478
426.000	285.817	80.007	19.993	103.160	19.826	19.128	0.515
428.000	286.824	80.002	19.996	103.158	19.822	19.411	0.493
430.000	287.833	80.012	19.995	103.151	19.815	19.893	0.500
432.000	288.815	80.004	19.995	103.153	19.807	20.436	0.499
434.000	289.823	80.006	19.996	103.151	19.800	20.962	0.539
436.000	290.822	80.000	19.995	103.144	19.794	21.357	0.494
438.000	291.803	80.008	19.994	103.155	19.785	21.968	0.516
440.000	292.840	80.000	19.994	103.149	19.774	22.677	0.498
442.000	293.820	80.001	19.995	103.148	19.771	22.914	0.475
444.000	294.800	79.997	19.995	103.154	19.758	23.781	0.476
446.000	295.829	79.999	19.995	103.152	19.752	24.226	0.484
448.000	296.876	79.999	19.995	103.156	19.743	24.812	0.537
450.000	297.812	79.995	19.995	103.159	19.736	25.314	0.456
452.000	298.813	80.000	19.995	103.150	19.725	26.038	0.510
454.000	299.825	79.994	19.994	103.157	19.719	26.465	0.454
456.000	300.856	79.996	19.994	103.173	19.709	27.169	0.523
458.000	301.819	79.991	19.994	103.183	19.699	27.847	0.524
460.000	302.852	80.008	19.995	103.189	19.684	28.863	0.515
462.000	303.819	80.001	19.994	103.179	19.679	29.195	0.483
464.000	304.853	79.996	19.995	103.170	19.669	29.894	0.503
466.000	305.899	79.991	19.996	103.185	19.659	30.558	0.535
468.000	306.908	80.008	19.993	103.184	19.647	31.366	0.541
470.000	307.894	79.991	19.994	103.182	19.634	32.255	0.479
472.000	308.950	80.008	19.995	103.186	19.627	32.744	0.518
474.000	309.914	79.997	19.996	103.184	19.617	33.450	0.494
476.000	310.986	80.001	19.995	103.190	19.607	34.111	0.534
478.000	311.982	79.994	19.997	103.193	19.597	34.756	0.515
480.000	313.018	79.993	19.994	103.187	19.591	35.214	0.521
482.000	314.035	79.995	19.994	103.191	19.579	36.038	0.509
484.000	315.053	80.000	19.995	103.192	19.573	36.405	0.507
486.000	316.046	79.998	19.996	103.190	19.568	36.775	0.513
488.000	317.040	79.999	19.995	103.191	19.560	37.347	0.516
490.000	318.071	80.000	19.994	103.194	19.555	37.680	0.532
492.000	319.040	80.001	19.995	103.189	19.546	38.253	0.491
494.000	320.072	80.004	19.996	103.184	19.536	38.929	0.516
496.000	321.067	79.998	19.995	103.192	19.534	39.063	0.527
498.000	322.106	80.001	19.995	103.200	19.529	39.456	0.499
500.000	323.129	80.003	19.995	103.194	19.525	39.712	0.521
502.000	324.121	80.002	19.994	103.190	19.518	40.154	0.520
504.000	325.137	79.996	19.995	103.200	19.516	40.335	0.492
506.000	326.158	79.998	19.995	103.209	19.511	40.640	0.515
508.000	327.151	79.997	19.995	103.205	19.505	41.073	0.507
510.000	328.155	79.996	19.995	103.207	19.503	41.187	0.507
512.000	329.232	79.997	19.993	103.197	19.502	41.263	0.526
514.000	330.206	79.995	19.995	103.203	19.500	41.397	0.509
516.000	331.217	80.001	19.994	103.216	19.501	41.344	0.504
518.000	332.222	79.995	19.995	103.206	19.495	41.763	0.507
520.000	333.276	79.998	19.996	103.224	19.494	41.851	0.537
522.000	334.259	79.992	19.994	103.227	19.490	42.120	0.520
524.000	335.325	79.983	19.996	103.213	19.485	42.457	0.487
526.000	336.325	80.002	19.995	103.224	19.484	42.491	0.478
528.000	337.369	80.002	19.994	103.225	19.487	42.316	0.554
530.000	338.396	80.012	19.994	103.230	19.483	42.599	0.532
532.000	339.324	80.002	19.996	103.227	19.482	42.666	0.484
534.000	340.375	79.998	19.994	103.220	19.480	42.772	0.483
536.000	341.367	80.004	19.994	103.224	19.478	42.895	0.512
538.000	342.397	80.005	19.993	103.224	19.481	42.745	0.506
540.000	343.394	79.996	19.995	103.223	19.481	42.712	0.489
542.000	344.405	79.999	19.993	103.220	19.473	43.237	0.516
544.000	345.414	80.002	19.994	103.214	19.475	43.089	0.508
546.000	346.426	79.990	19.994	103.205	19.474	43.148	0.513
548.000	347.439	79.990	19.994	103.212	19.474	43.155	0.495
550.000	348.422	80.005	19.993	103.226	19.479	42.866	0.480
552.000	349.444	80.000	19.994	103.227	19.483	42.595	0.494
554.000	350.464	80.005	19.994	103.213	19.478	42.905	0.466
556.000	351.463	79.996	19.994	103.205	19.483	42.547	0.469
558.000	352.518	79.997	19.995	103.203	19.488	42.200	0.543
560.000	353.548	80.002	19.995	103.191	19.488	42.239	0.517
562.000	354.553	79.997	19.994	103.191	19.499	41.495	0.551
564.000	355.547	80.006	19.995	103.190	19.503	41.206	0.532
566.000	356.500	80.003	19.995	103.183	19.504	41.089	0.485
568.000	357.533	80.006	19.995	103.183	19.516	40.314	0.492
570.000	358.567	80.000	19.994	103.181	19.521	39.967	0.516
572.000	359.560	79.997	19.994	103.176	19.531	39.302	0.508
574.000	360.565	79.995	19.995	103.180	19.532	39.208	0.512
576.001	361.579	80.008	19.994	103.161	19.539	38.720	0.479
578.000	362.583	80.003	19.994	103.165	19.550	38.002	0.501
580.000	363.598	79.992	19.995	103.157	19.558	37.461	0.537
582.000	364.629	79.993	19.995	103.156	19.566	36.893	0.489
584.000	365.571	80.002	19.995	103.152	19.566	36.872	0.491
586.000	366.636	80.010	19.995	103.154	19.579	35.989	0.525
588.000	367.594	79.999	19.995	103.156	19.585	35.600	0.466
590.000	368.615	79.999	19.995	103.146	19.593	35.010	0.508
592.000	369.674	80.002	19.996	103.148	19.600	34.585	0.504
594.000	370.650	79.999	19.996	103.145	19.606	34.179	0.526
596.000	371.690	80.001	19.995	103.128	19.616	33.484	0.524
598.000	372.644	79.993	19.996	103.120	19.619	33.297	0.526
600.001	373.692	80.022	19.992	103.141	19.626	32.816	0.482
602.000	374.710	80.004	19.993	103.125	19.634	32.275	0.507
604.000	375.734	80.010	19.994	103.114	19.637	32.051	0.508
606.000	376.724	80.012	19.993	103.145	19.644	31.588	0.460
608.000	377.744	79.990	19.994	103.135	19.654	30.885	0.501
610.000	378.753	79.994	19.995	103.120	19.658	30.578	0.523
612.000	379.766	80.001	19.993	103.126	19.667	29.976	0.491
614.000	380.793	79.996	19.994	103.122	19.666	30.038	0.506
616.000	381.783	79.998	19.996	103.117	19.671	29.734	0.505
618.000	382.792	79.999	19.994	103.107	19.680	29.088	0.492
620.000	383.841	80.004	19.993	103.111	19.688	28.592	0.519
622.000	384.836	80.006	19.994	103.113	19.691	28.338	0.502
624.000	385.809	79.982	19.996	103.105	19.699	27.781	0.492
626.000	386.841	80.015	19.992	103.102	19.703	27.546	0.482
628.000	387.815	79.986	19.995	103.116	19.709	27.114	0.492
630.000	388.872	80.002	19.994	103.112	19.714	26.818	0.514
632.000	389.850	79.999	19.994	103.109	19.717	26.577	0.504
634.000	390.902	80.001	19.993	103.108	19.723	26.180	0.494
636.000	391.923	80.000	19.993	103.108	19.733	25.513	0.489
638.000	392.878	80.004	19.994	103.109	19.735	25.341	0.486
640.000	393.941	80.000	19.995	103.113	19.744	24.772	0.496
642.000	394.966	79.990	19.995	103.111	19.744	24.728	0.534
644.000	395.996	80.003	19.995	103.104	19.752	24.224	0.514
646.000	396.942	79.995	19.996	103.105	19.756	23.922	0.482
648.000	398.000	80.004	19.994	103.096	19.765	23.276	0.500
650.000	399.012	80.001	19.996	103.111	19.768	23.081	0.501
652.000	400.029	79.999	19.994	103.101	19.768	23.078	0.519
654.000	401.007	80.008	19.994	103.113	19.775	22.607	0.487
656.000	401.986	79.998	19.995	103.113	19.777	22.508	0.479
658.000	402.986	80.002	19.995	103.108	19.777	22.466	0.481
660.000	404.044	79.999	19.994	103.112	19.782	22.158	0.501
662.000	405.054	79.997	19.993	103.112	19.786	21.902	0.496
664.000	406.073	79.999	19.993	103.111	19.784	22.018	0.522
666.000	407.038	79.997	19.996	103.113	19.792	21.450	0.501
668.000	408.078	80.001	19.994	103.113	19.795	21.243	0.511
670.000	409.084	80.003	19.995	103.110	19.799	21.004	0.487
672.000	410.080	79.995	19.995	103.109	19.801	20.845	0.537
674.000	411.028	79.999	19.995	103.113	19.804	20.640	0.467
676.000	412.059	80.011	19.995	103.111	19.805	20.571	0.490
678.000	413.071	79.997	19.995	103.119	19.809	20.296	0.495
680.000	414.051	79.998	19.996	103.111	19.815	19.921	0.516
682.000	415.038	80.008	19.995	103.110	19.816	19.841	0.494
684.000	416.054	80.004	19.994	103.111	19.817	19.794	0.520
686.000	417.068	79.986	19.997	103.111	19.823	19.360	0.493
688.000	418.117	79.999	19.996	103.106	19.827	19.051	0.519
690.000	419.078	79.992	19.996	103.108	19.830	18.903	0.499
692.000	420.081	79.996	19.994	103.099	19.834	18.611	0.511
694.001	421.110	80.013	19.995	103.109	19.840	18.233	0.504
696.000	422.096	79.996	19.994	103.110	19.840	18.172	0.528
698.000	423.081	79.997	19.997	103.116	19.846	17.778	0.460
700.000	424.096	80.007	19.994	103.100	19.850	17.486	0.496
702.000	425.136	79.996	19.993	103.109	19.852	17.349	0.514
704.000	426.209	80.006	19.993	103.115	19.856	17.139	0.516
706.000	427.175	80.003	19.994	103.114	19.861	16.760	0.530
708.000	428.167	80.005	19.996	103.108	19.864	16.553	0.497
710.000	429.222	79.996	19.995	103.107	19.865	16.518	0.519
712.000	430.214	79.998	19.995	103.110	19.870	16.125	0.507
714.000	431.253	80.000	19.993	103.111	19.868	16.307	0.520
716.000	432.243	80.002	19.994	103.108	19.877	15.691	0.482
718.000	433.313	79.993	19.996	103.107	19.875	15.801	0.534
720.000	434.340	80.001	19.993	103.107	19.882	15.334	0.534
722.000	435.360	80.002	19.994	103.114	19.886	15.032	0.528
724.000	436.341	79.992	19.994	103.114	19.882	15.346	0.485
726.000	437.365	80.018	19.993	103.107	19.884	15.211	0.508
728.000	438.348	80.001	19.993	103.111	19.886	15.090	0.486
730.000	439.372	80.008	19.993	103.101	19.888	14.935	0.536
732.000	440.391	79.995	19.995	103.106	19.888	14.909	0.520
734.000	441.398	79.991	19.995	103.112	19.890	14.789	0.498
736.000	442.430	80.015	19.995	103.108	19.895	14.454	0.521
738.000	443.461	79.998	19.993	103.115	19.896	14.390	0.483
740.000	444.432	80.001	19.994	103.104	19.895	14.466	0.528
742.000	445.428	79.995	19.995	103.108	19.898	14.213	0.499
744.000	446.467	80.013	19.993	103.105	19.899	14.181	0.491
746.000	447.435	79.993	19.995	103.102	19.903	13.900	0.488
748.000	448.469	80.014	19.993	103.097	19.905	13.788	0.512
750.000	449.449	79.993	19.995	103.116	19.908	13.592	0.493
752.000	450.483	80.003	19.995	103.108	19.905	13.753	0.502
754.000	451.461	80.004	19.993	103.102	19.905	13.757	0.507
756.000	452.445	80.003	19.994	103.094	19.910	13.455	0.517
758.000	453.492	80.005	19.994	103.102	19.912	13.314	0.544
760.000	454.484	80.007	19.994	103.105	19.912	13.260	0.482
762.000	455.503	79.990	19.996	103.102	19.913	13.192	0.519
764.000	456.530	80.013	19.994	103.106	19.916	13.036	0.507
766.000	457.508	80.001	19.995	103.107	19.917	12.977	0.486
768.000	458.560	79.997	19.994	103.102	19.917	12.975	0.543
770.000	459.544	79.994	19.997	103.104	19.920	12.769	0.489
772.001	460.546	80.008	19.996	103.107	19.915	13.098	0.478
774.000	461.551	80.006	19.994	103.103	19.924	12.497	0.505
776.000	462.618	79.995	19.996	103.100	19.922	12.599	0.529
778.000	463.601	80.002	19.994	103.105	19.921	12.701	0.486
780.000	464.594	79.999	19.994	103.106	19.923	12.523	0.514
782.000	465.592	80.011	19.993	103.099	19.926	12.326	0.532
784.000	466.615	80.003	19.992	103.106	19.929	12.116	0.522
786.000	467.535	80.002	19.993	103.114	19.929	12.135	0.486
788.000	468.554	80.001	19.995	103.104	19.931	12.007	0.499
790.000	469.565	79.997	19.993	103.087	19.930	12.071	0.531
792.000	470.564	79.987	19.995	103.104	19.934	11.788	0.536
794.000	471.581	80.004	19.994	103.109	19.935	11.698	0.503
796.000	472.594	80.014	19.994	103.109	19.937	11.605	0.486
798.000	473.610	80.002	19.993	103.092	19.936	11.656	0.497
800.000	474.616	79.989	19.995	103.088	19.939	11.479	0.492
802.000	475.634	80.005	19.993	103.091	19.941	11.305	0.509
804.000	476.660	79.986	19.996	103.099	19.943	11.158	0.479
806.000	477.708	80.004	19.992	103.073	19.944	11.118	0.492
808.000	478.649	80.001	19.995	103.082	19.944	11.082	0.474
810.000	479.653	80.004	19.994	103.095	19.945	11.014	0.517
812.000	480.633	79.992	19.996	103.099	19.948	10.829	0.511
814.000	481.679	80.008	19.994	103.078	19.948	10.812	0.519
816.000	482.664	80.002	19.993	103.085	19.950	10.715	0.500
818.000	483.645	79.996	19.996	103.094	19.949	10.739	0.523
820.000	484.633	80.023	19.991	103.079	19.955	10.344	0.500
822.000	485.614	79.995	19.996	103.092	19.955	10.387	0.480
824.000	486.616	80.008	19.997	103.086	19.958	10.181	0.501
826.000	487.596	80.000	19.995	103.102	19.957	10.247	0.486
828.000	488.525	80.005	19.997	103.085	19.961	9.970	0.475
830.000	489.525	79.992	19.995	103.072	19.961	9.968	0.472
832.000	490.513	80.002	19.995	103.080	19.960	10.015	0.493
834.000	491.462	79.993	19.996	103.100	19.962	9.898	0.456
836.001	492.441	80.000	19.996	103.084	19.962	9.900	0.500
838.000	493.446	79.985	19.997	103.088	19.967	9.534	0.527
840.000	494.439	79.985	19.997	103.100	19.968	9.452	0.463
842.000	495.454	80.008	19.995	103.091	19.965	9.696	0.494
844.000	496.389	79.997	19.996	103.097	19.969	9.404	0.480
846.000	497.398	80.008	19.993	103.089	19.971	9.264	0.494
848.000	498.356	80.000	19.994	103.095	19.972	9.210	0.481
850.000	499.355	79.989	19.996	103.088	19.965	9.655	0.470
852.000	500.364	80.011	19.994	103.098	19.973	9.127	0.516
854.000	501.354	80.012	19.995	103.107	19.976	8.945	0.475
856.000	502.375	80.001	19.996	103.098	19.977	8.871	0.491
858.000	503.332	80.001	19.996	103.099	19.975	9.002	0.482
860.000	504.440	79.995	19.997	103.083	19.977	8.864	0.528
862.000	505.357	79.994	19.996	103.092	19.977	8.853	0.493
864.000	506.349	79.977	19.997	103.082	19.978	8.773	0.493
866.000	507.387	80.004	19.996	103.079	19.980	8.668	0.535
868.000	508.386	79.999	19.996	103.096	19.982	8.511	0.511
870.000	509.420	80.020	19.992	103.090	19.982	8.496	0.531
872.000	510.400	80.002	19.995	103.099	19.985	8.329	0.495
874.000	511.394	80.018	19.993	103.100	19.989	8.044	0.498
876.000	512.422	80.004	19.993	103.095	19.985	8.337	0.480
878.000	513.432	80.005	19.994	103.070	19.975	8.985	0.512
880.000	514.426	79.994	19.995	103.084	19.982	8.545	0.498
882.000	515.532	80.006	19.995	103.086	19.988	8.090	0.485
884.000	516.501	79.993	19.994	103.082	19.988	8.145	0.546
886.000	517.536	79.998	19.995	103.090	19.985	8.284	0.554
888.000	518.751	80.005	19.995	103.087	19.989	8.057	0.508
890.000	519.712	80.005	19.995	103.081	19.992	7.870	0.831
892.000	520.250	80.010	19.995	103.081	19.987	8.146	0.992
894.000	521.572	79.982	19.996	103.115	19.993	7.755	0.515
896.000	522.806	80.015	19.993	103.107	19.993	7.771	0.600
898.000	523.721	80.008	19.994	103.109	19.996	7.592	0.525
900.000	524.736	80.000	19.995	103.099	19.993	7.773	0.487
902.000	525.666	79.996	19.996	103.093	19.998	7.400	0.525
904.000	526.769	80.012	19.993	103.105	19.995	7.634	0.531
906.000	527.762	80.002	19.993	103.117	19.995	7.631	0.531
908.000	528.830	80.002	19.994	103.098	19.998	7.416	0.525
910.000	529.866	79.979	19.995	103.105	20.002	7.182	0.510
912.000	530.919	80.009	19.991	103.094	19.998	7.426	0.530
914.000	531.932	80.012	19.994	103.088	19.996	7.591	0.517
916.000	532.934	80.009	19.993	103.094	19.994	7.668	0.502
918.000	533.947	80.009	19.994	103.094	19.996	7.566	0.503
920.000	534.985	80.009	19.994	103.110	19.997	7.480	0.454
922.000	536.050	80.007	19.994	103.095	19.997	7.491	0.535
924.000	537.067	79.997	19.995	103.092	19.998	7.432	0.511
926.000	538.111	80.002	19.995	103.088	19.997	7.521	0.490
928.000	539.105	79.992	19.996	103.105	19.998	7.410	0.514
930.000	540.100	80.003	19.995	103.087	19.999	7.379	0.520
932.000	541.126	79.998	19.995	103.093	19.999	7.376	0.490
934.000	542.130	79.997	19.994	103.087	19.995	7.616	0.499
936.000	543.177	79.997	19.996	103.092	19.995	7.658	0.501
938.000	544.213	80.008	19.995	103.090	19.996	7.552	0.496
940.000	545.153	80.003	19.995	103.105	19.997	7.482	0.447
942.000	546.211	80.012	19.993	103.100	19.994	7.707	0.527
944.000	547.265	80.000	19.994	103.105	19.999	7.374	0.517
946.000	548.243	79.992	19.996	103.104	19.998	7.406	0.518
948.000	549.280	80.000	19.996	103.095	19.996	7.588	0.546
950.000	550.281	80.001	19.996	103.100	19.999	7.392	0.506
952.000	551.326	80.005	19.995	103.093	19.995	7.651	0.500
954.000	552.313	80.010	19.995	103.095	19.992	7.826	0.507
956.000	553.306	79.986	19.996	103.096	19.996	7.579	0.471
958.000	554.329	80.014	19.994	103.099	19.994	7.681	0.535
960.000	555.362	80.003	19.995	103.102	19.995	7.660	0.522
962.000	556.346	79.997	19.997	103.102	19.994	7.704	0.477
964.000	557.349	80.000	19.995	103.096	19.994	7.701	0.494
966.000	558.362	80.000	19.994	103.091	19.993	7.756	0.502
968.000	559.391	80.005	19.993	103.088	19.993	7.767	0.506
970.000	560.398	80.003	19.993	103.099	19.991	7.931	0.518
972.000	561.414	79.998	19.995	103.110	19.989	8.064	0.537
974.000	562.463	80.001	19.994	103.109	19.990	7.944	0.524
976.000	563.475	80.000	19.996	103.109	19.992	7.853	0.513
978.000	564.509	79.998	19.995	103.104	19.989	8.059	0.529
980.000	565.494	79.995	19.995	103.105	19.990	7.960	0.464
982.000	566.534	79.998	19.995	103.104	19.988	8.116	0.524
984.000	567.552	80.002	19.993	103.102	19.989	8.014	0.527
986.000	568.543	80.000	19.994	103.104	19.986	8.261	0.477
988.000	569.580	79.999	19.993	103.099	19.986	8.228	0.478
990.000	570.666	79.997	19.995	103.104	19.986	8.225	0.510
992.000	571.665	80.001	19.993	103.097	19.983	8.467	0.493
994.000	572.687	79.996	19.994	103.095	19.988	8.135	0.505
996.000	573.728	79.996	19.995	103.104	19.987	8.180	0.513
998.000	574.812	80.001	19.993	103.095	19.987	8.194	0.518
1000.000	575.839	80.001	19.993	103.105	19.982	8.537	0.525
1002.000	576.847	80.008	19.994	103.105	19.983	8.463	0.512
1004.000	577.904	80.000	19.995	103.098	19.994	7.704	0.541
1006.000	578.898	80.003	19.995	103.105	19.980	8.678	0.532
1008.000	579.896	80.007	19.994	103.102	19.982	8.492	0.527
1010.000	580.928	80.001	19.994	103.098	19.984	8.411	0.470
1012.000	581.957	80.001	19.994	103.110	19.982	8.538	0.515
1014.000	582.976	80.001	19.996	103.108	19.983	8.484	0.517
1016.000	583.985	80.004	19.994	103.105	19.981	8.587	0.513
1018.000	584.945	80.001	19.995	103.106	19.978	8.791	0.495
1020.000	586.035	80.002	19.995	103.096	19.980	8.637	0.542
1022.000	587.033	80.002	19.995	103.102	19.979	8.744	0.490
1024.000	588.049	80.002	19.996	103.099	19.978	8.801	0.507
1026.001	589.029	80.000	19.994	103.104	19.979	8.756	0.523
1028.000	590.056	79.994	19.996	103.105	19.980	8.685	0.506
1030.001	591.052	80.010	19.994	103.098	19.983	8.447	0.484
1032.000	592.015	80.001	19.995	103.094	19.982	8.515	0.484
1034.000	593.013	80.003	19.993	103.098	19.979	8.692	0.483
1036.000	594.030	80.003	19.995	103.113	19.982	8.532	0.503
1038.000	595.123	80.007	19.995	103.104	19.985	8.310	0.529
1040.001	596.076	80.001	19.994	103.103	19.983	8.425	0.510
1042.000	597.075	80.016	19.993	103.110	19.983	8.453	0.471
1044.000	598.171	80.010	19.994	103.110	19.978	8.762	0.521
1046.000	599.164	80.004	19.995	103.099	19.982	8.498	0.485
1048.000	600.160	79.997	19.996	103.105	19.982	8.524	0.488
1050.000	601.203	80.002	19.995	103.106	19.980	8.630	0.505
1052.000	602.231	80.006	19.995	103.105	19.984	8.375	0.520
1054.000	603.279	80.001	19.995	103.108	19.983	8.483	0.528
1056.000	604.318	80.000	19.995	103.113	19.981	8.616	0.529
1058.000	605.332	79.998	19.994	103.113	19.984	8.396	0.471
1060.001	606.403	79.999	19.995	103.112	19.982	8.535	0.518
1062.001	607.451	80.000	19.993	103.113	19.983	8.483	0.507
1064.001	608.549	80.001	19.994	103.112	19.984	8.399	0.513
1066.000	609.576	80.001	19.995	103.104	19.984	8.386	0.512
1068.000	610.632	80.000	19.995	103.109	19.983	8.464	0.521
1070.000	611.720	80.000	19.994	103.110	19.983	8.475	0.517
1072.000	612.787	80.000	19.995	103.111	19.982	8.501	0.544
1074.000	613.890	80.000	19.995	103.108	19.984	8.378	0.533
1076.000	614.975	80.000	19.994	103.107	19.980	8.685	0.542
1078.000	616.042	80.000	19.994	103.110	19.982	8.524	0.524
1080.000	617.109	80.000	19.995	103.108	19.982	8.488	0.545
1082.000	618.208	80.000	19.994	103.108	19.982	8.509	0.569
1084.000	619.238	79.998	19.995	103.097	19.983	8.424	0.552
1086.000	620.299	79.999	19.995	103.106	19.981	8.598	0.504
1088.000	621.368	80.001	19.995	103.110	19.984	8.387	0.528
1090.000	622.399	80.004	19.994	103.104	19.982	8.500	0.516
1092.000	623.479	80.001	19.995	103.109	19.984	8.372	0.562
1094.001	624.545	79.999	19.994	103.111	19.983	8.424	0.541
1096.000	625.544	80.001	19.994	103.111	19.981	8.616	0.505
1098.000	626.625	80.000	19.995	103.113	19.982	8.545	0.512
1100.000	627.661	80.001	19.994	103.112	19.980	8.638	0.547
1102.000	628.725	80.002	19.994	103.118	19.982	8.534	0.538
1104.000	629.818	80.003	19.995	103.114	19.981	8.588	0.524
1106.000	630.893	79.999	19.994	103.117	19.981	8.611	0.531
1108.000	631.934	80.001	19.995	103.126	19.983	8.448	0.537
1110.000	632.985	80.000	19.994	103.115	19.981	8.622	0.518
1112.000	634.034	80.001	19.994	103.118	19.980	8.626	0.542
1114.000	635.120	80.000	19.996	103.118	19.978	8.762	0.557
1116.000	636.183	80.002	19.995	103.115	19.978	8.773	0.521
1118.000	637.228	80.001	19.995	103.112	19.976	8.916	0.533
1120.001	638.304	80.000	19.995	103.117	19.976	8.947	0.549
1122.000	639.305	80.003	19.995	103.131	19.978	8.817	0.512
1124.000	640.383	80.002	19.995	103.131	19.976	8.926	0.555
1126.000	641.410	80.002	19.995	103.135	19.972	9.201	0.529
1128.000	642.477	80.003	19.995	103.140	19.976	8.956	0.513
1130.000	643.504	80.003	19.994	103.136	19.975	8.993	0.543
1132.000	644.558	80.001	19.995	103.136	19.974	9.062	0.523
1134.000	645.597	80.002	19.995	103.131	19.975	8.999	0.510
1136.001	646.639	80.000	19.996	103.144	19.973	9.121	0.510
1138.000	647.662	80.001	19.995	103.136	19.970	9.365	0.494
1140.000	648.768	79.999	19.996	103.143	19.971	9.267	0.532
1142.000	649.811	80.000	19.996	103.140	19.974	9.098	0.553
1144.000	650.897	80.001	19.996	103.144	19.974	9.072	0.503
1146.001	651.897	79.999	19.996	103.143	19.971	9.252	0.484
1148.000	652.969	80.002	19.994	103.138	19.968	9.459	0.546
1150.000	654.017	80.000	19.995	103.145	19.970	9.370	0.523
1152.000	655.041	80.001	19.993	103.148	19.969	9.419	0.508
1154.000	656.115	80.000	19.993	103.147	19.964	9.760	0.512
1156.000	657.143	80.000	19.993	103.148	19.967	9.517	0.507
1158.001	658.180	80.003	19.994	103.149	19.968	9.465	0.517
1160.000	659.251	80.002	19.994	103.149	19.967	9.534	0.541
1162.000	660.237	80.000	19.994	103.164	19.966	9.636	0.479
1164.000	661.282	80.000	19.995	103.163	19.971	9.305	0.501
1166.000	662.356	80.000	19.995	103.151	19.967	9.573	0.538
1168.001	663.364	79.999	19.994	103.159	19.967	9.569	0.528
1170.000	664.378	80.001	19.995	103.163	19.967	9.572	0.510
1172.000	665.361	80.000	19.993	103.165	19.963	9.796	0.489
1174.000	666.393	80.000	19.995	103.157	19.964	9.776	0.536
1176.000	667.422	80.001	19.994	103.164	19.962	9.891	0.496
1178.000	668.472	80.003	19.993	103.172	19.961	9.933	0.563
1180.001	669.429	79.999	19.994	103.186	19.960	10.016	0.531
1182.000	670.482	80.002	19.993	103.184	19.957	10.238	0.537
1184.000	671.463	80.001	19.994	103.182	19.955	10.345	0.493
1186.000	672.454	80.002	19.994	103.184	19.959	10.118	0.506
1188.000	673.461	80.002	19.994	103.189	19.956	10.286	0.517
1190.000	674.455	80.002	19.993	103.190	19.955	10.345	0.513
1192.000	675.502	80.002	19.995	103.190	19.956	10.276	0.492
1194.000	676.562	80.003	19.994	103.189	19.953	10.517	0.533
1196.000	677.551	80.003	19.993	103.187	19.955	10.372	0.496
1198.000	678.547	80.000	19.995	103.187	19.951	10.645	0.497
1200.000	679.539	80.003	19.995	103.189	19.953	10.504	0.520
1202.000	680.559	80.002	19.994	103.188	19.951	10.643	0.515
1204.000	681.582	80.003	19.995	103.187	19.952	10.605	0.526
1206.000	682.603	80.003	19.994	103.193	19.949	10.780	0.499
1208.000	683.563	80.005	19.994	103.187	19.948	10.839	0.491
1210.000	684.575	80.002	19.994	103.194	19.944	11.135	0.513
1212.001	685.577	80.003	19.994	103.192	19.944	11.094	0.484
1214.000	686.597	80.003	19.994	103.213	19.944	11.149	0.492
1216.001	687.597	80.004	19.994	103.205	19.942	11.276	0.501
1218.000	688.661	80.001	19.995	103.196	19.945	11.043	0.540
1220.000	689.625	79.999	19.996	103.210	19.946	10.971	0.482
1222.000	690.592	80.000	19.994	103.216	19.943	11.188	0.483
1224.000	691.588	80.001	19.995	103.223	19.944	11.124	0.492
1226.000	692.611	80.000	19.996	103.226	19.945	11.068	0.527
1228.000	693.582	80.000	19.994	103.226	19.945	11.036	0.491
1230.001	694.644	80.000	19.995	103.226	19.945	11.081	0.520
1232.000	695.650	79.999	19.994	103.226	19.941	11.352	0.527
1234.000	696.649	79.999	19.995	103.227	19.940	11.389	0.485
1236.000	697.695	80.001	19.995	103.231	19.941	11.352	0.529
1238.000	698.709	80.001	19.996	103.229	19.938	11.527	0.523
1240.000	699.714	80.002	19.996	103.233	19.938	11.537	0.538
1242.000	700.729	80.002	19.995	103.228	19.938	11.561	0.495
1244.000	701.766	80.001	19.996	103.228	19.935	11.741	0.516
1246.000	702.766	80.000	19.995	103.226	19.936	11.637	0.506
1248.001	703.775	80.001	19.994	103.228	19.933	11.873	0.500
1250.000	704.835	80.000	19.994	103.229	19.932	11.942	0.522
1252.000	705.839	80.000	19.994	103.230	19.928	12.245	0.520
1254.000	706.828	80.001	19.994	103.230	19.930	12.087	0.472
1256.000	707.818	80.000	19.995	103.232	19.930	12.106	0.505
1258.001	708.841	80.001	19.994	103.228	19.932	11.938	0.503
1260.000	709.866	80.001	19.995	103.228	19.931	11.981	0.492
1262.000	710.871	80.000	19.994	103.229	19.931	11.995	0.520
1264.000	711.904	80.004	19.994	103.228	19.932	11.969	0.515
1266.000	712.911	80.001	19.994	103.228	19.931	11.984	0.500
1268.000	713.937	80.002	19.994	103.228	19.933	11.885	0.510
1270.000	714.982	80.004	19.994	103.228	19.931	11.985	0.526
1272.000	716.014	80.005	19.993	103.225	19.928	12.218	0.494
1274.001	717.045	80.002	19.994	103.225	19.929	12.127	0.513
1276.000	718.046	80.002	19.994	103.225	19.926	12.330	0.493
1278.000	719.099	80.002	19.995	103.223	19.930	12.043	0.519
1280.000	720.063	80.002	19.995	103.219	19.927	12.301	0.490
1282.000	721.133	80.002	19.995	103.215	19.928	12.229	0.505
1284.001	722.122	80.004	19.994	103.214	19.929	12.152	0.514
1286.000	723.137	80.003	19.994	103.188	19.928	12.202	0.492
1288.000	724.150	80.004	19.994	103.190	19.927	12.249	0.506
1290.000	725.185	80.006	19.994	103.184	19.926	12.344	0.512
1292.000	726.182	80.002	19.994	103.185	19.923	12.524	0.529
1294.000	727.179	80.004	19.995	103.185	19.928	12.206	0.518
1296.000	728.173	80.002	19.995	103.177	19.930	12.083	0.517
1298.000	729.172	80.002	19.995	103.173	19.929	12.126	0.485
1300.001	730.178	80.000	19.995	103.159	19.931	12.029	0.511
1302.000	731.198	80.001	19.995	103.163	19.932	11.946	0.510
1304.000	732.152	80.000	19.996	103.159	19.931	12.000	0.479
1306.000	733.162	80.002	19.997	103.162	19.933	11.836	0.467
1308.000	734.172	80.001	19.995	103.152	19.933	11.853	0.522
1310.000	735.150	80.001	19.996	103.149	19.934	11.821	0.488
1312.001	736.179	80.001	19.994	103.149	19.929	12.116	0.517
1314.001	737.146	80.001	19.994	103.151	19.933	11.879	0.510
1316.000	738.120	80.002	19.994	103.151	19.929	12.128	0.496
1318.001	739.092	80.001	19.993	103.149	19.932	11.914	0.509
1320.001	740.102	79.999	19.992	103.137	19.931	11.977	0.525
1322.000	741.074	80.001	19.995	103.123	19.936	11.660	0.485
1324.000	742.077	80.003	19.994	103.129	19.931	12.023	0.503
1326.000	743.087	80.003	19.994	103.140	19.932	11.929	0.451
1327.501	743.778	80.002	19.995	103.126	19.933	11.849	0.466