File: 01_Data/Wool_Rug/MCC/Wool_Rug_MCC_30K_min_211112_R2.txt
Sample ID:	C:\MCC\MCC Cal\Test\Wool_Rug_MCC_30K_min_211112_R2.txt
Sample Weight (mg):	4.27
Heating Rate (C/s):	0.5
Combustor Temp (C):	900
N2 Flow Rate (cc/min):	80
O2 Flow Rate (cc/min):	20
Calibration File:	C:\MCC\MCC Cal\Coeff1 JN10440_30_210304.txt.txt
T Correction Coefficients:	0	1.024463	0
Time Shift (s):	14
*
Time (s)	Temperature (C)	N2 flow rate (cc/min)	O2 flow rate (cc/min)	Flow Rate (cc/min)	Oxygen (%)	HRR (W/g)	Heating rate (C/s)
-0.001	108.617	80.003	19.995	103.064	19.794	-0.041	-0.039
2.000	108.593	80.001	19.996	103.064	19.796	-0.146	-0.019
4.000	108.569	80.002	19.995	103.063	19.794	-0.023	-0.004
6.000	108.586	80.003	19.995	103.063	19.793	0.039	-0.020
8.000	108.568	80.003	19.996	103.063	19.793	0.021	-0.000
10.000	108.570	80.002	19.996	103.063	19.795	-0.070	-0.011
12.000	108.577	80.003	19.996	103.065	19.795	-0.117	-0.009
14.000	108.575	80.004	19.996	103.083	19.794	-0.008	-0.042
16.000	108.591	80.003	19.995	103.088	19.793	0.076	0.019
18.000	108.598	80.003	19.994	103.102	19.789	0.356	0.012
20.000	108.606	80.003	19.994	103.102	19.788	0.401	0.018
22.000	108.654	80.004	19.995	103.108	19.787	0.518	-0.003
24.000	108.679	80.003	19.994	103.140	19.781	0.933	0.027
26.000	108.760	80.003	19.994	103.158	19.778	1.181	0.034
28.000	108.859	80.003	19.995	103.181	19.778	1.170	0.018
30.000	108.939	80.001	19.994	103.183	19.779	1.111	0.038
32.000	109.028	80.002	19.995	103.180	19.771	1.720	0.069
33.999	109.198	80.003	19.994	103.163	19.770	1.808	0.074
35.999	109.341	80.002	19.995	103.195	19.769	1.825	0.074
37.999	109.530	80.004	19.995	103.299	19.766	2.059	0.079
39.999	109.746	80.006	19.996	103.239	19.765	2.196	0.120
42.001	109.989	80.003	19.994	103.259	19.764	2.260	0.122
43.999	110.294	80.005	19.994	103.262	19.764	2.235	0.175
45.999	110.552	80.003	19.994	103.263	19.761	2.443	0.124
48.000	110.917	80.005	19.994	103.273	19.762	2.404	0.170
49.999	111.251	80.004	19.994	103.284	19.760	2.560	0.173
51.999	111.648	80.004	19.994	103.300	19.755	2.935	0.185
54.000	112.051	80.003	19.996	103.299	19.754	2.985	0.206
55.999	112.502	80.003	19.995	103.302	19.756	2.865	0.238
57.999	112.956	80.003	19.994	103.301	19.757	2.744	0.240
59.999	113.449	80.005	19.994	103.304	19.752	3.145	0.242
61.999	113.981	80.003	19.994	103.319	19.754	2.979	0.279
64.000	114.498	80.006	19.994	103.311	19.749	3.386	0.272
65.999	115.053	80.006	19.996	103.329	19.751	3.193	0.263
67.999	115.562	80.006	19.995	103.321	19.747	3.485	0.273
69.999	116.212	80.004	19.993	103.324	19.752	3.152	0.266
72.000	116.817	80.006	19.993	103.331	19.747	3.537	0.309
73.999	117.418	80.005	19.996	103.332	19.748	3.434	0.300
76.000	118.112	80.005	19.996	103.335	19.748	3.421	0.340
77.999	118.729	80.001	19.995	103.336	19.750	3.323	0.299
80.000	119.503	80.001	19.996	103.334	19.745	3.656	0.364
81.999	120.167	80.004	19.995	103.334	19.749	3.376	0.350
84.000	120.920	80.002	19.994	103.334	19.752	3.183	0.380
86.000	121.688	80.004	19.994	103.329	19.750	3.289	0.369
88.000	122.485	80.003	19.995	103.332	19.746	3.578	0.407
89.999	123.237	80.001	19.995	103.336	19.749	3.407	0.384
92.000	124.076	80.003	19.994	103.327	19.748	3.442	0.401
94.001	124.841	80.001	19.995	103.335	19.747	3.516	0.428
95.999	125.686	80.002	19.995	103.331	19.746	3.578	0.411
97.999	126.496	80.003	19.994	103.335	19.748	3.454	0.421
100.000	127.325	80.005	19.994	103.334	19.749	3.392	0.377
101.999	128.183	80.001	19.997	103.336	19.748	3.467	0.434
103.999	129.055	80.002	19.996	103.335	19.747	3.553	0.437
105.999	129.906	80.002	19.995	103.330	19.748	3.417	0.415
107.999	130.769	80.002	19.995	103.334	19.745	3.650	0.447
109.999	131.654	80.002	19.995	103.330	19.747	3.514	0.454
111.999	132.592	80.003	19.995	103.336	19.746	3.580	0.477
113.999	133.439	80.002	19.994	103.346	19.745	3.647	0.422
115.999	134.412	80.001	19.994	103.313	19.748	3.464	0.484
117.999	135.293	80.001	19.994	103.324	19.744	3.755	0.452
119.999	136.222	80.003	19.994	103.332	19.746	3.604	0.443
122.000	137.135	80.002	19.993	103.331	19.746	3.561	0.477
124.000	138.092	80.002	19.994	103.330	19.747	3.541	0.496
126.001	138.996	80.001	19.993	103.327	19.747	3.522	0.466
127.999	139.959	80.003	19.995	103.329	19.751	3.232	0.486
130.000	140.906	80.003	19.994	103.329	19.746	3.578	0.483
132.000	141.857	80.006	19.994	103.328	19.749	3.400	0.456
134.000	142.835	80.003	19.995	103.326	19.747	3.522	0.503
136.000	143.816	80.005	19.994	103.335	19.748	3.423	0.471
138.000	144.822	80.002	19.996	103.324	19.747	3.540	0.510
140.000	145.790	80.001	19.995	103.331	19.748	3.417	0.505
142.000	146.793	80.004	19.994	103.314	19.749	3.349	0.473
144.000	147.760	80.002	19.995	103.312	19.748	3.435	0.458
146.000	148.738	80.003	19.994	103.309	19.754	3.023	0.505
148.000	149.761	80.004	19.994	103.322	19.752	3.169	0.486
150.000	150.754	80.006	19.995	103.318	19.749	3.355	0.501
152.000	151.782	80.007	19.994	103.320	19.751	3.227	0.503
154.000	152.754	80.006	19.994	103.312	19.752	3.118	0.507
156.000	153.766	80.006	19.995	103.305	19.750	3.315	0.536
158.000	154.717	80.005	19.994	103.308	19.752	3.120	0.468
160.000	155.765	80.004	19.995	103.304	19.753	3.054	0.483
162.000	156.729	80.002	19.994	103.305	19.752	3.128	0.468
164.000	157.758	80.001	19.994	103.305	19.752	3.181	0.533
166.000	158.754	80.002	19.995	103.300	19.752	3.120	0.523
168.000	159.749	80.004	19.994	103.301	19.753	3.091	0.500
170.000	160.773	80.002	19.995	103.302	19.755	2.899	0.464
172.000	161.775	80.001	19.994	103.301	19.752	3.146	0.508
174.000	162.746	80.002	19.995	103.290	19.750	3.301	0.482
176.000	163.753	80.001	19.994	103.297	19.753	3.056	0.501
178.000	164.724	80.004	19.994	103.297	19.752	3.132	0.483
180.000	165.794	80.003	19.994	103.296	19.750	3.264	0.485
182.000	166.765	80.002	19.995	103.294	19.751	3.185	0.536
184.000	167.751	80.004	19.994	103.299	19.750	3.270	0.486
186.000	168.774	80.004	19.994	103.299	19.753	3.101	0.505
188.000	169.760	80.002	19.994	103.296	19.751	3.243	0.483
190.000	170.741	80.003	19.996	103.296	19.755	2.930	0.487
192.000	171.694	80.001	19.995	103.289	19.755	2.916	0.463
194.000	172.705	80.003	19.995	103.291	19.752	3.175	0.499
196.000	173.732	80.002	19.997	103.292	19.755	2.903	0.496
198.000	174.718	80.003	19.995	103.287	19.753	3.047	0.525
200.000	175.697	80.002	19.997	103.286	19.753	3.063	0.495
202.000	176.666	80.002	19.995	103.281	19.757	2.780	0.502
204.000	177.658	80.003	19.997	103.287	19.755	2.907	0.480
206.000	178.687	80.004	19.996	103.287	19.753	3.045	0.503
208.000	179.637	80.006	19.995	103.277	19.756	2.858	0.467
210.000	180.661	80.005	19.994	103.280	19.753	3.071	0.493
212.000	181.654	80.005	19.993	103.276	19.755	2.942	0.485
214.000	182.693	80.006	19.992	103.280	19.756	2.806	0.481
216.000	183.701	80.004	19.994	103.266	19.755	2.905	0.501
218.000	184.661	80.003	19.995	103.286	19.755	2.936	0.507
220.000	185.632	80.004	19.995	103.271	19.757	2.744	0.497
222.000	186.672	80.005	19.993	103.273	19.756	2.821	0.491
224.000	187.681	80.003	19.995	103.273	19.753	3.072	0.477
226.000	188.643	80.004	19.993	103.270	19.755	2.888	0.460
228.000	189.678	80.004	19.994	103.272	19.753	3.053	0.503
230.000	190.667	80.004	19.994	103.272	19.756	2.870	0.515
232.000	191.635	80.004	19.994	103.269	19.755	2.905	0.486
234.000	192.656	80.005	19.995	103.274	19.755	2.925	0.521
236.000	193.642	80.006	19.993	103.275	19.753	3.100	0.462
238.000	194.678	80.007	19.993	103.270	19.757	2.798	0.516
240.000	195.643	80.006	19.994	103.269	19.757	2.798	0.470
242.000	196.612	80.003	19.994	103.273	19.754	2.967	0.534
244.000	197.671	80.005	19.994	103.266	19.755	2.932	0.521
246.000	198.638	80.005	19.994	103.266	19.752	3.150	0.504
248.000	199.640	80.003	19.993	103.274	19.755	2.882	0.486
250.000	200.615	80.004	19.993	103.266	19.753	3.032	0.445
252.000	201.616	80.003	19.994	103.269	19.752	3.106	0.499
254.000	202.612	80.003	19.994	103.267	19.750	3.298	0.504
256.000	203.594	80.005	19.996	103.273	19.749	3.390	0.505
258.000	204.568	80.003	19.994	103.268	19.748	3.475	0.483
260.000	205.610	80.002	19.995	103.268	19.746	3.581	0.507
262.000	206.611	80.003	19.996	103.262	19.748	3.454	0.508
264.000	207.591	80.004	19.995	103.262	19.742	3.861	0.519
266.000	208.542	80.003	19.996	103.260	19.742	3.861	0.488
268.000	209.550	80.003	19.995	103.263	19.740	4.042	0.518
270.000	210.536	80.004	19.995	103.262	19.743	3.811	0.477
272.000	211.537	80.003	19.994	103.259	19.740	4.048	0.508
274.000	212.521	80.002	19.994	103.257	19.736	4.375	0.487
276.000	213.498	80.002	19.994	103.260	19.736	4.371	0.488
278.000	214.523	80.003	19.994	103.259	19.733	4.583	0.507
280.000	215.481	80.004	19.994	103.246	19.737	4.303	0.491
282.000	216.509	80.004	19.994	103.257	19.730	4.772	0.486
284.000	217.514	80.003	19.994	103.259	19.726	5.097	0.539
286.000	218.489	80.003	19.995	103.257	19.725	5.201	0.489
288.000	219.520	80.002	19.996	103.258	19.722	5.401	0.497
290.000	220.515	80.005	19.995	103.255	19.721	5.458	0.504
292.000	221.509	80.004	19.995	103.253	19.716	5.878	0.542
294.000	222.518	80.005	19.996	103.248	19.710	6.339	0.527
296.000	223.484	80.004	19.995	103.239	19.707	6.521	0.478
298.000	224.494	80.003	19.996	103.233	19.706	6.574	0.500
300.000	225.486	80.004	19.995	103.230	19.701	6.994	0.500
302.000	226.526	80.004	19.996	103.237	19.701	7.025	0.513
304.000	227.534	80.004	19.996	103.237	19.698	7.237	0.498
306.000	228.501	80.004	19.995	103.232	19.692	7.650	0.519
308.000	229.547	80.004	19.994	103.226	19.690	7.816	0.516
310.000	230.537	80.005	19.994	103.223	19.692	7.645	0.507
312.000	231.518	80.004	19.994	103.227	19.684	8.265	0.486
314.000	232.531	80.004	19.994	103.228	19.688	7.962	0.531
316.000	233.589	80.005	19.994	103.223	19.685	8.168	0.556
318.000	234.504	80.005	19.994	103.223	19.684	8.295	0.475
320.000	235.524	80.005	19.993	103.222	19.682	8.415	0.496
322.000	236.506	80.007	19.994	103.221	19.680	8.573	0.485
324.000	237.535	80.006	19.994	103.223	19.681	8.460	0.480
326.000	238.509	80.006	19.994	103.221	19.681	8.520	0.475
328.000	239.514	80.007	19.994	103.223	19.680	8.575	0.504
330.000	240.507	80.004	19.994	103.220	19.679	8.674	0.500
332.000	241.529	80.004	19.994	103.222	19.675	8.974	0.502
334.000	242.518	80.005	19.995	103.224	19.679	8.627	0.511
336.000	243.517	80.005	19.995	103.223	19.676	8.843	0.477
338.000	244.522	80.004	19.994	103.231	19.674	9.019	0.477
340.000	245.547	80.004	19.994	103.223	19.674	8.994	0.505
342.000	246.563	80.004	19.996	103.222	19.674	8.991	0.513
344.000	247.480	80.004	19.994	103.228	19.671	9.276	0.464
346.000	248.495	80.004	19.994	103.226	19.670	9.314	0.489
348.000	249.540	80.005	19.995	103.224	19.669	9.406	0.511
350.000	250.555	80.005	19.994	103.222	19.664	9.743	0.509
352.000	251.555	80.005	19.995	103.226	19.666	9.666	0.511
354.000	252.545	80.005	19.993	103.223	19.665	9.719	0.490
356.000	253.502	80.005	19.995	103.225	19.664	9.797	0.485
358.000	254.537	80.004	19.996	103.227	19.659	10.184	0.554
360.000	255.501	80.004	19.995	103.229	19.659	10.124	0.501
362.000	256.473	80.002	19.995	103.225	19.658	10.213	0.452
364.000	257.500	80.004	19.995	103.229	19.653	10.598	0.528
366.000	258.470	80.002	19.996	103.232	19.653	10.589	0.493
368.000	259.480	80.003	19.995	103.229	19.648	10.987	0.503
370.000	260.530	80.003	19.994	103.242	19.649	10.910	0.523
372.000	261.445	80.004	19.994	103.248	19.642	11.432	0.442
374.000	262.489	80.005	19.995	103.238	19.641	11.532	0.490
376.000	263.539	80.006	19.995	103.235	19.636	11.914	0.517
378.000	264.494	80.005	19.994	103.236	19.634	12.052	0.538
380.000	265.568	80.005	19.994	103.236	19.634	12.048	0.463
382.000	266.385	80.005	19.995	103.231	19.624	12.797	0.540
384.000	267.411	80.003	19.995	103.232	19.623	12.863	0.534
386.000	268.304	80.004	19.994	103.238	19.620	13.109	0.421
388.000	269.288	80.004	19.995	103.235	19.619	13.179	0.459
390.000	270.501	80.003	19.995	103.240	19.611	13.814	0.471
392.000	271.490	80.005	19.996	103.247	19.611	13.747	0.524
394.000	272.498	80.004	19.998	103.248	19.606	14.135	0.498
396.000	273.498	80.006	19.996	103.249	19.599	14.650	0.497
398.000	274.437	80.006	19.995	103.250	19.596	14.906	0.505
400.000	275.472	80.005	19.996	103.250	19.589	15.464	0.536
402.000	276.494	80.005	19.995	103.254	19.584	15.837	0.533
404.000	277.463	80.006	19.994	103.248	19.578	16.234	0.491
406.000	278.477	80.007	19.993	103.254	19.576	16.438	0.550
408.000	279.476	80.007	19.994	103.245	19.568	17.000	0.469
410.000	280.456	80.006	19.995	103.256	19.564	17.347	0.447
412.000	281.471	80.005	19.994	103.253	19.560	17.611	0.512
414.000	282.471	80.003	19.994	103.256	19.553	18.156	0.502
416.000	283.448	80.003	19.995	103.259	19.551	18.323	0.516
418.000	284.463	80.004	19.995	103.259	19.543	18.918	0.484
420.000	285.432	80.003	19.995	103.258	19.536	19.439	0.495
422.000	286.458	80.002	19.995	103.259	19.528	20.008	0.503
424.000	287.444	80.004	19.995	103.262	19.522	20.493	0.494
426.000	288.441	80.005	19.995	103.261	19.515	21.010	0.505
428.000	289.447	80.002	19.995	103.263	19.511	21.301	0.506
430.000	290.429	80.003	19.994	103.265	19.502	21.998	0.501
432.000	291.463	80.005	19.994	103.264	19.496	22.454	0.509
434.000	292.481	80.004	19.994	103.267	19.486	23.188	0.493
436.000	293.452	80.004	19.994	103.271	19.478	23.790	0.523
438.000	294.490	80.004	19.994	103.284	19.473	24.206	0.520
440.000	295.478	80.003	19.994	103.267	19.463	24.989	0.498
442.000	296.504	80.004	19.994	103.278	19.457	25.383	0.517
444.000	297.527	80.004	19.994	103.287	19.448	26.070	0.518
446.000	298.495	80.003	19.994	103.287	19.435	27.038	0.498
448.000	299.546	80.002	19.995	103.295	19.429	27.501	0.491
450.000	300.536	80.003	19.995	103.294	19.419	28.256	0.503
452.000	301.556	80.002	19.993	103.296	19.414	28.671	0.499
454.000	302.570	80.002	19.995	103.300	19.400	29.682	0.505
456.000	303.580	80.003	19.995	103.297	19.391	30.394	0.516
458.000	304.615	80.003	19.994	103.297	19.383	30.979	0.512
460.000	305.624	80.005	19.996	103.295	19.377	31.472	0.532
462.000	306.617	80.005	19.995	103.296	19.369	32.043	0.537
464.000	307.658	80.005	19.995	103.296	19.358	32.876	0.534
466.000	308.655	80.006	19.995	103.296	19.354	33.160	0.516
468.000	309.619	80.003	19.995	103.296	19.345	33.839	0.513
470.000	310.656	80.004	19.995	103.297	19.338	34.382	0.544
472.000	311.643	80.004	19.994	103.297	19.332	34.820	0.472
474.000	312.727	80.004	19.994	103.296	19.324	35.417	0.532
476.000	313.742	80.004	19.994	103.298	19.317	35.975	0.533
478.000	314.789	80.004	19.995	103.297	19.313	36.295	0.546
480.000	315.780	80.005	19.996	103.297	19.304	36.956	0.507
482.000	316.789	80.005	19.995	103.297	19.298	37.404	0.492
484.000	317.831	80.005	19.996	103.296	19.297	37.502	0.509
486.000	318.838	80.006	19.994	103.298	19.291	37.976	0.531
488.000	319.845	80.005	19.995	103.304	19.287	38.279	0.521
490.000	320.863	80.005	19.995	103.297	19.283	38.516	0.506
492.000	321.875	80.004	19.995	103.301	19.279	38.824	0.535
494.000	322.855	80.005	19.995	103.298	19.276	39.043	0.504
496.000	323.895	80.004	19.995	103.303	19.277	39.006	0.502
498.000	324.892	80.004	19.994	103.299	19.272	39.402	0.493
500.000	325.899	80.003	19.994	103.301	19.272	39.388	0.500
502.000	326.899	80.004	19.995	103.301	19.267	39.739	0.479
504.000	327.906	80.002	19.994	103.300	19.267	39.771	0.492
506.000	328.904	80.003	19.994	103.305	19.264	39.990	0.495
508.000	329.955	80.004	19.995	103.308	19.265	39.886	0.497
510.000	330.949	80.003	19.994	103.305	19.262	40.148	0.492
512.000	331.991	80.005	19.994	103.309	19.258	40.432	0.509
514.000	333.030	80.005	19.995	103.330	19.261	40.215	0.535
516.000	334.053	80.003	19.995	103.328	19.257	40.478	0.508
518.000	335.055	80.003	19.994	103.310	19.255	40.685	0.484
520.000	336.062	80.003	19.993	103.310	19.256	40.552	0.489
522.000	337.101	80.005	19.994	103.305	19.256	40.570	0.516
524.000	338.107	80.005	19.994	103.318	19.251	40.931	0.546
526.000	339.085	80.003	19.995	103.312	19.254	40.704	0.520
528.000	340.097	80.004	19.994	103.307	19.251	40.929	0.493
530.000	341.121	80.005	19.994	103.309	19.251	40.927	0.494
532.000	342.098	80.004	19.993	103.307	19.253	40.825	0.515
534.000	343.064	80.004	19.994	103.319	19.250	41.011	0.485
536.000	344.086	80.005	19.995	103.316	19.255	40.678	0.510
538.000	345.064	80.003	19.993	103.312	19.257	40.535	0.487
540.000	346.090	80.005	19.994	103.301	19.260	40.290	0.498
542.000	347.077	80.005	19.993	103.304	19.259	40.379	0.477
544.000	348.084	80.007	19.995	103.299	19.266	39.856	0.488
546.000	349.104	80.006	19.994	103.299	19.262	40.096	0.494
548.000	350.110	80.006	19.996	103.298	19.269	39.594	0.517
550.000	351.133	80.006	19.994	103.296	19.274	39.246	0.530
552.000	352.159	80.004	19.994	103.286	19.279	38.820	0.524
554.000	353.150	80.004	19.995	103.290	19.281	38.664	0.525
556.000	354.176	80.005	19.995	103.276	19.290	37.991	0.509
558.000	355.153	80.004	19.994	103.279	19.298	37.388	0.499
560.000	356.147	80.005	19.994	103.270	19.306	36.804	0.486
562.000	357.162	80.005	19.994	103.273	19.309	36.602	0.510
564.000	358.184	80.005	19.994	103.265	19.319	35.783	0.482
566.000	359.146	80.005	19.994	103.272	19.322	35.571	0.477
568.000	360.184	80.007	19.995	103.265	19.330	34.979	0.524
570.000	361.204	80.006	19.995	103.261	19.337	34.416	0.507
572.000	362.232	80.006	19.995	103.262	19.342	34.059	0.464
574.000	363.255	80.005	19.994	103.260	19.347	33.721	0.553
576.000	364.267	80.005	19.996	103.260	19.355	33.108	0.506
578.000	365.216	80.004	19.995	103.253	19.361	32.654	0.492
580.000	366.265	80.005	19.994	103.235	19.363	32.466	0.504
582.000	367.237	80.003	19.995	103.233	19.372	31.804	0.477
584.000	368.292	80.002	19.995	103.232	19.382	31.032	0.505
586.000	369.275	80.004	19.995	103.234	19.385	30.843	0.468
588.000	370.270	80.003	19.995	103.232	19.389	30.499	0.505
590.000	371.288	80.003	19.995	103.225	19.397	29.917	0.502
592.000	372.307	80.005	19.995	103.223	19.402	29.512	0.521
594.000	373.308	80.005	19.994	103.220	19.406	29.272	0.506
596.000	374.366	80.005	19.994	103.220	19.412	28.752	0.545
598.000	375.338	80.003	19.994	103.221	19.417	28.381	0.511
600.000	376.392	80.004	19.994	103.221	19.425	27.824	0.516
602.000	377.376	80.004	19.994	103.220	19.428	27.600	0.489
604.000	378.430	80.004	19.995	103.219	19.434	27.143	0.497
606.000	379.415	80.004	19.994	103.212	19.437	26.933	0.487
608.000	380.440	80.003	19.994	103.218	19.444	26.386	0.515
610.000	381.401	80.005	19.995	103.216	19.448	26.095	0.444
612.000	382.423	80.003	19.994	103.214	19.450	25.946	0.489
614.000	383.446	80.005	19.994	103.220	19.456	25.469	0.546
616.000	384.461	80.004	19.994	103.217	19.465	24.772	0.501
618.000	385.501	80.003	19.995	103.219	19.472	24.257	0.515
620.000	386.502	80.005	19.995	103.219	19.478	23.818	0.496
622.000	387.461	80.001	19.994	103.214	19.486	23.232	0.470
624.000	388.540	80.004	19.994	103.212	19.487	23.149	0.508
626.000	389.512	80.004	19.993	103.219	19.490	22.886	0.489
628.000	390.524	80.005	19.993	103.203	19.498	22.313	0.508
630.000	391.588	80.006	19.993	103.213	19.500	22.110	0.540
632.000	392.570	80.007	19.993	103.220	19.505	21.790	0.505
634.000	393.615	80.006	19.994	103.213	19.511	21.288	0.519
636.000	394.632	80.008	19.994	103.216	19.514	21.071	0.517
638.000	395.648	80.005	19.994	103.207	19.518	20.794	0.499
640.000	396.652	80.006	19.994	103.205	19.521	20.583	0.508
642.000	397.667	80.005	19.994	103.217	19.528	20.032	0.509
644.000	398.686	80.004	19.994	103.214	19.533	19.655	0.504
646.000	399.678	80.006	19.995	103.211	19.536	19.436	0.492
648.000	400.716	80.006	19.994	103.213	19.538	19.288	0.517
650.000	401.710	80.005	19.994	103.202	19.539	19.173	0.488
652.000	402.737	80.005	19.994	103.215	19.541	19.015	0.514
654.000	403.760	80.004	19.994	103.214	19.543	18.885	0.493
656.000	404.755	80.005	19.995	103.196	19.547	18.574	0.517
658.000	405.771	80.006	19.994	103.197	19.552	18.196	0.509
660.000	406.773	80.006	19.995	103.185	19.558	17.756	0.501
662.000	407.801	80.006	19.995	103.196	19.561	17.532	0.502
664.000	408.783	80.004	19.994	103.195	19.561	17.535	0.486
666.000	409.794	80.003	19.994	103.187	19.562	17.436	0.514
668.000	410.792	80.006	19.994	103.191	19.569	16.936	0.485
670.000	411.820	80.003	19.995	103.202	19.572	16.680	0.514
672.000	412.822	80.004	19.995	103.189	19.575	16.457	0.480
674.000	413.825	80.001	19.996	103.187	19.583	15.877	0.523
676.000	414.817	80.004	19.995	103.193	19.584	15.791	0.483
678.000	415.798	80.004	19.996	103.186	19.591	15.298	0.501
680.000	416.817	80.003	19.996	103.182	19.594	15.050	0.503
682.000	417.820	80.005	19.995	103.179	19.596	14.883	0.514
684.000	418.783	80.004	19.994	103.180	19.603	14.392	0.465
686.000	419.812	80.005	19.994	103.189	19.603	14.378	0.489
688.000	420.854	80.006	19.995	103.203	19.608	13.986	0.527
690.000	421.857	80.003	19.994	103.192	19.614	13.529	0.490
692.000	422.834	80.004	19.995	103.188	19.616	13.415	0.513
694.000	423.844	80.004	19.995	103.191	19.622	12.920	0.493
696.000	424.868	80.002	19.994	103.196	19.627	12.538	0.506
698.000	425.885	80.003	19.995	103.196	19.628	12.517	0.526
700.000	426.878	80.003	19.995	103.198	19.631	12.250	0.504
702.000	427.865	80.003	19.995	103.186	19.632	12.219	0.491
704.000	428.819	80.001	19.994	103.187	19.636	11.865	0.454
706.000	429.871	80.005	19.994	103.186	19.641	11.472	0.491
708.000	430.904	80.005	19.995	103.190	19.641	11.485	0.528
710.000	431.912	80.003	19.994	103.186	19.646	11.158	0.495
712.000	432.895	80.004	19.995	103.188	19.650	10.837	0.510
714.000	433.906	80.006	19.994	103.186	19.652	10.711	0.502
716.000	434.939	80.005	19.995	103.183	19.651	10.728	0.498
718.000	435.957	80.007	19.995	103.188	19.654	10.543	0.519
720.000	436.951	80.004	19.994	103.184	19.656	10.389	0.500
722.000	437.937	80.005	19.993	103.183	19.657	10.323	0.507
724.000	439.003	80.006	19.994	103.181	19.660	10.101	0.530
726.000	439.959	80.004	19.995	103.182	19.661	10.031	0.490
728.000	440.993	80.007	19.994	103.181	19.662	9.953	0.498
730.000	441.961	80.003	19.994	103.181	19.660	10.080	0.473
732.000	442.989	80.007	19.994	103.178	19.662	9.895	0.527
734.000	443.960	80.007	19.994	103.180	19.667	9.535	0.507
736.000	445.008	80.006	19.994	103.179	19.667	9.531	0.492
738.000	446.000	80.007	19.995	103.177	19.668	9.447	0.490
740.000	447.015	80.008	19.995	103.180	19.670	9.301	0.502
742.000	448.002	80.005	19.994	103.177	19.672	9.181	0.507
744.000	448.983	80.003	19.995	103.179	19.672	9.198	0.481
746.000	449.976	80.004	19.995	103.175	19.675	8.983	0.483
748.000	451.030	80.005	19.996	103.177	19.675	8.930	0.505
750.000	452.034	80.005	19.995	103.178	19.680	8.542	0.486
752.000	453.003	80.005	19.995	103.174	19.681	8.485	0.490
754.000	454.035	80.005	19.996	103.178	19.682	8.436	0.482
756.000	455.018	80.005	19.994	103.182	19.683	8.362	0.484
758.000	456.046	80.004	19.994	103.172	19.683	8.363	0.489
760.000	457.061	80.003	19.994	103.172	19.684	8.303	0.506
762.000	458.064	80.004	19.996	103.181	19.684	8.246	0.490
764.000	459.136	80.005	19.994	103.179	19.685	8.160	0.510
766.000	460.104	80.005	19.995	103.178	19.688	7.963	0.522
768.000	461.104	80.003	19.996	103.179	19.689	7.917	0.512
770.000	462.102	80.005	19.995	103.170	19.691	7.705	0.518
772.000	463.154	80.004	19.995	103.172	19.696	7.329	0.532
774.000	464.137	80.005	19.995	103.178	19.695	7.418	0.490
776.000	465.130	80.003	19.996	103.176	19.697	7.278	0.521
778.000	466.137	80.002	19.995	103.183	19.700	7.087	0.497
780.000	467.174	80.002	19.996	103.165	19.699	7.120	0.517
782.000	468.162	80.003	19.996	103.172	19.706	6.643	0.511
784.000	469.169	80.004	19.995	103.176	19.703	6.813	0.505
786.000	470.233	80.004	19.994	103.169	19.702	6.889	0.526
788.000	471.231	80.005	19.995	103.170	19.702	6.945	0.513
790.000	472.265	80.005	19.994	103.181	19.710	6.310	0.522
792.000	473.265	80.005	19.994	103.169	19.708	6.475	0.523
794.000	474.312	80.006	19.994	103.162	19.709	6.409	0.518
796.000	475.344	80.007	19.994	103.166	19.709	6.358	0.513
798.000	476.355	80.008	19.994	103.165	19.715	5.927	0.474
800.000	477.378	80.006	19.995	103.174	19.716	5.822	0.542
802.000	478.374	80.006	19.994	103.162	19.720	5.540	0.513
804.000	479.426	80.003	19.994	103.149	19.719	5.627	0.529
806.000	480.445	80.004	19.995	103.147	19.718	5.685	0.504
808.000	481.454	80.005	19.995	103.151	19.723	5.342	0.518
810.000	482.457	80.004	19.994	103.162	19.724	5.279	0.514
812.000	483.481	80.006	19.995	103.152	19.726	5.117	0.495
814.000	484.495	80.004	19.995	103.155	19.730	4.827	0.502
816.000	485.538	80.006	19.993	103.165	19.731	4.704	0.507
818.000	486.505	80.008	19.994	103.169	19.733	4.593	0.525
820.000	487.504	80.008	19.994	103.171	19.733	4.556	0.505
822.000	488.542	80.007	19.992	103.168	19.735	4.408	0.555
824.000	489.595	80.007	19.993	103.156	19.736	4.334	0.529
826.000	490.589	80.006	19.993	103.157	19.737	4.287	0.512
828.000	491.586	80.007	19.994	103.155	19.737	4.272	0.541
830.000	492.655	80.006	19.993	103.162	19.740	4.020	0.545
832.000	493.676	80.003	19.995	103.164	19.743	3.786	0.508
834.000	494.666	80.003	19.994	103.162	19.744	3.708	0.503
836.000	495.689	80.003	19.994	103.158	19.747	3.541	0.492
838.000	496.689	80.004	19.995	103.156	19.744	3.730	0.478
840.000	497.727	80.004	19.994	103.151	19.744	3.730	0.534
842.000	498.751	80.003	19.995	103.157	19.748	3.444	0.510
844.000	499.770	80.005	19.994	103.164	19.749	3.339	0.527
846.000	500.774	80.005	19.995	103.155	19.751	3.245	0.528
848.000	501.800	80.003	19.994	103.152	19.749	3.387	0.493
850.000	502.807	80.004	19.994	103.156	19.754	2.976	0.489
852.000	503.808	80.004	19.995	103.150	19.757	2.744	0.509
854.000	504.818	80.004	19.996	103.145	19.757	2.780	0.521
856.000	505.824	80.004	19.994	103.153	19.755	2.908	0.526
858.000	506.882	80.004	19.994	103.149	19.758	2.665	0.508
860.000	507.854	80.004	19.994	103.154	19.761	2.492	0.484
862.000	508.872	80.004	19.995	103.159	19.763	2.320	0.523
864.000	509.820	80.002	19.995	103.159	19.760	2.548	0.466
866.000	510.865	80.003	19.996	103.143	19.763	2.342	0.528
868.000	511.859	80.003	19.996	103.157	19.763	2.287	0.504
870.000	512.787	80.003	19.996	103.152	19.769	1.862	0.461
872.000	513.762	80.003	19.995	103.143	19.765	2.133	0.470
874.000	514.797	80.005	19.997	103.150	19.764	2.238	0.501
876.000	515.783	80.005	19.996	103.151	19.771	1.716	0.489
878.000	516.734	80.005	19.996	103.142	19.771	1.679	0.461
880.000	517.754	80.006	19.994	103.141	19.773	1.556	0.515
882.000	518.646	80.006	19.994	103.143	19.775	1.416	0.487
884.000	519.641	80.006	19.994	103.144	19.773	1.531	0.507
886.000	520.616	80.005	19.995	103.148	19.779	1.099	0.470
888.000	521.506	80.005	19.994	103.146	19.777	1.235	0.447
890.000	522.532	80.005	19.994	103.149	19.778	1.194	0.506
892.000	523.469	80.004	19.994	103.151	19.778	1.143	0.488
894.000	524.440	80.006	19.994	103.153	19.777	1.282	0.489
896.000	525.424	80.004	19.995	103.150	19.778	1.182	0.478
898.000	526.381	80.005	19.993	103.145	19.777	1.245	0.466
900.000	527.391	80.006	19.995	103.150	19.778	1.192	0.521
902.000	528.359	80.006	19.994	103.152	19.781	0.923	0.497
904.000	529.291	80.008	19.994	103.154	19.783	0.793	0.473
906.000	530.305	80.008	19.994	103.152	19.783	0.826	0.498
908.000	531.310	80.006	19.994	103.148	19.783	0.797	0.496
910.000	532.305	80.006	19.994	103.155	19.782	0.912	0.498
912.000	533.270	80.006	19.994	103.156	19.783	0.820	0.500
914.000	534.266	80.005	19.994	103.159	19.784	0.690	0.503
916.000	535.309	80.005	19.994	103.159	19.787	0.479	0.497
918.000	536.316	80.004	19.995	103.150	19.786	0.579	0.507
920.000	537.330	80.004	19.994	103.146	19.787	0.510	0.491
922.000	538.314	80.003	19.994	103.145	19.786	0.553	0.493
924.000	539.371	80.002	19.994	103.149	19.788	0.458	0.541
926.000	540.373	80.004	19.994	103.165	19.788	0.448	0.515
928.000	541.394	80.003	19.995	103.160	19.789	0.341	0.492
930.000	542.428	80.003	19.994	103.145	19.789	0.374	0.522
932.000	543.437	80.004	19.995	103.147	19.787	0.473	0.522
934.000	544.425	80.004	19.996	103.150	19.790	0.292	0.462
936.000	545.457	80.005	19.995	103.152	19.790	0.273	0.525
938.000	546.463	80.004	19.996	103.149	19.792	0.099	0.506
940.000	547.493	80.004	19.994	103.145	19.793	0.045	0.519
942.000	548.501	80.004	19.994	103.143	19.792	0.127	0.503
944.000	549.505	80.004	19.995	103.148	19.792	0.140	0.502
946.000	550.488	80.005	19.995	103.145	19.792	0.154	0.501
948.000	551.522	80.002	19.995	103.144	19.791	0.218	0.487
950.000	552.570	80.003	19.995	103.146	19.788	0.393	0.536
952.000	553.615	80.003	19.996	103.147	19.787	0.473	0.561
954.000	554.650	80.004	19.994	103.148	19.788	0.428	0.521
956.000	555.712	80.005	19.996	103.151	19.790	0.251	0.510
958.000	556.780	80.004	19.995	103.166	19.789	0.314	0.548
960.000	557.869	80.004	19.996	103.155	19.788	0.442	0.534
962.000	558.941	80.006	19.996	103.168	19.792	0.125	0.538
964.000	560.028	80.004	19.995	103.178	19.787	0.487	0.537
966.000	561.186	80.003	19.995	103.164	19.788	0.446	0.566
968.000	562.308	80.004	19.996	103.171	19.787	0.508	0.583
970.000	563.425	80.004	19.995	103.169	19.788	0.440	0.577
972.000	564.556	80.004	19.995	103.173	19.787	0.524	0.549
974.000	565.665	80.004	19.995	103.168	19.785	0.684	0.571
976.000	566.816	80.006	19.994	103.175	19.784	0.719	0.571
978.000	567.987	80.005	19.994	103.167	19.785	0.651	0.540
980.000	569.112	80.004	19.993	103.163	19.784	0.754	0.553
982.000	570.270	80.006	19.994	103.171	19.786	0.553	0.559
984.000	571.410	80.007	19.994	103.155	19.782	0.880	0.549
986.000	572.540	80.008	19.994	103.157	19.784	0.693	0.561
988.000	573.691	80.006	19.994	103.161	19.783	0.779	0.580
990.000	574.901	80.005	19.994	103.157	19.784	0.701	0.619
992.000	576.083	80.006	19.994	103.159	19.784	0.762	0.601
994.000	577.181	80.003	19.995	103.163	19.781	0.935	0.559
996.000	578.331	80.004	19.994	103.162	19.786	0.545	0.574
998.000	579.432	80.004	19.994	103.159	19.784	0.744	0.562
1000.000	580.612	80.005	19.995	103.151	19.786	0.614	0.598
1002.000	581.730	80.002	19.994	103.152	19.783	0.818	0.593
1004.000	582.801	80.003	19.995	103.165	19.784	0.707	0.526
1006.000	583.898	80.005	19.995	103.154	19.783	0.806	0.525
1008.000	585.030	80.004	19.994	103.170	19.783	0.812	0.540
1010.000	586.173	80.005	19.994	103.160	19.786	0.569	0.580
1012.000	587.277	80.004	19.993	103.147	19.787	0.518	0.556
1014.000	588.409	80.006	19.993	103.146	19.786	0.588	0.570
1016.000	589.446	80.005	19.994	103.150	19.789	0.323	0.540
1018.000	590.587	80.005	19.995	103.155	19.788	0.407	0.576
1020.000	591.693	80.004	19.993	103.152	19.790	0.304	0.561
1022.000	592.755	80.004	19.994	103.150	19.789	0.370	0.539
1024.000	593.845	80.002	19.995	103.146	19.790	0.269	0.504
1025.999	594.964	80.004	19.994	103.150	19.791	0.171	0.553
1027.999	596.065	80.003	19.995	103.149	19.793	0.016	0.564
1029.999	597.132	80.002	19.995	103.146	19.790	0.282	0.543
1032.000	598.173	80.002	19.995	103.146	19.796	-0.199	0.532
1034.000	599.276	80.004	19.994	103.145	19.799	-0.388	0.541
1036.000	600.331	80.004	19.994	103.147	19.801	-0.588	0.531
1037.999	601.346	80.004	19.995	103.145	19.802	-0.598	0.513
1039.999	602.401	80.003	19.995	103.145	19.802	-0.637	0.525
1041.999	603.434	80.003	19.994	103.146	19.802	-0.639	0.566
1043.999	604.500	80.003	19.994	103.155	19.804	-0.808	0.528
1045.999	605.479	80.005	19.995	103.148	19.801	-0.542	0.495
1047.999	606.497	80.005	19.996	103.142	19.804	-0.754	0.493
1049.999	607.567	80.004	19.995	103.143	19.809	-1.122	0.528
1051.999	608.527	80.005	19.995	103.145	19.805	-0.879	0.506
1053.999	609.518	80.005	19.997	103.143	19.804	-0.810	0.497
1055.999	610.472	80.006	19.996	103.144	19.808	-1.079	0.483
1057.999	611.528	80.004	19.996	103.142	19.810	-1.233	0.514
1059.999	612.489	80.004	19.996	103.143	19.809	-1.188	0.484
1061.999	613.495	80.004	19.996	103.141	19.804	-0.803	0.457
1063.999	614.471	80.006	19.996	103.142	19.810	-1.227	0.500
1065.999	615.484	80.006	19.995	103.141	19.803	-0.742	0.484
1067.999	616.439	80.007	19.994	103.141	19.810	-1.241	0.498
1069.999	617.465	80.006	19.994	103.141	19.811	-1.305	0.499
1071.999	618.463	80.008	19.995	103.141	19.808	-1.118	0.541
1073.999	619.477	80.006	19.995	103.141	19.810	-1.266	0.493
1075.999	620.426	80.005	19.995	103.142	19.815	-1.584	0.501
1078.000	621.389	80.004	19.994	103.141	19.812	-1.393	0.489
1079.999	622.388	80.004	19.995	103.141	19.813	-1.488	0.518
1081.999	623.391	80.004	19.995	103.143	19.809	-1.120	0.509
1083.999	624.383	80.003	19.995	103.144	19.812	-1.412	0.494
1085.999	625.363	80.003	19.995	103.144	19.814	-1.547	0.521
1087.999	626.376	80.003	19.993	103.151	19.811	-1.307	0.513
1090.000	627.397	80.003	19.995	103.170	19.813	-1.428	0.500
1092.000	628.398	80.004	19.994	103.155	19.817	-1.773	0.495
1094.001	629.351	80.004	19.994	103.158	19.813	-1.486	0.505
1095.999	630.355	80.004	19.994	103.149	19.814	-1.523	0.506
1097.999	631.377	80.004	19.994	103.153	19.813	-1.436	0.478
1099.999	632.347	80.005	19.994	103.152	19.817	-1.736	0.469
1101.999	633.340	80.004	19.993	103.154	19.817	-1.775	0.498
1103.999	634.387	80.004	19.994	103.149	19.816	-1.689	0.492
1106.000	635.413	80.003	19.994	103.149	19.813	-1.488	0.503
1107.999	636.446	80.004	19.994	103.154	19.815	-1.617	0.517
1109.999	637.438	80.003	19.995	103.157	19.815	-1.618	0.488
1111.999	638.422	80.002	19.994	103.153	19.816	-1.698	0.487
1113.999	639.449	80.004	19.995	103.161	19.815	-1.603	0.512
1115.999	640.467	80.003	19.995	103.159	19.818	-1.811	0.520
1118.000	641.473	80.003	19.995	103.154	19.813	-1.433	0.478
1119.999	642.477	80.003	19.995	103.167	19.811	-1.336	0.505
1122.000	643.490	80.005	19.996	103.175	19.819	-1.879	0.509
1123.999	644.458	80.004	19.996	103.164	19.815	-1.589	0.494
1125.999	645.426	80.007	19.996	103.161	19.814	-1.570	0.471
1128.000	646.418	80.005	19.995	103.166	19.808	-1.118	0.461
1129.999	647.428	80.004	19.996	103.164	19.815	-1.611	0.513
1132.000	648.433	80.006	19.995	103.177	19.812	-1.416	0.498
1133.999	649.449	80.005	19.995	103.167	19.815	-1.591	0.498
1135.999	650.464	80.006	19.995	103.176	19.814	-1.533	0.501
1138.000	651.466	80.004	19.994	103.180	19.812	-1.363	0.492
1140.000	652.467	80.005	19.995	103.179	19.813	-1.422	0.514
1142.000	653.432	80.003	19.995	103.179	19.812	-1.420	0.496
1143.999	654.429	80.005	19.996	103.177	19.814	-1.540	0.509
1145.999	655.425	80.005	19.995	103.177	19.815	-1.589	0.500
1147.999	656.424	80.005	19.995	103.181	19.819	-1.881	0.473
1149.999	657.434	80.005	19.994	103.177	19.811	-1.313	0.476
1152.000	658.439	80.005	19.995	103.187	19.813	-1.439	0.488
1153.999	659.416	80.006	19.994	103.187	19.819	-1.910	0.525
1156.001	660.362	80.005	19.995	103.179	19.816	-1.719	0.492
1157.999	661.325	80.006	19.995	103.189	19.817	-1.770	0.442
1159.999	662.328	80.004	19.996	103.182	19.819	-1.895	0.512
1161.999	663.310	80.003	19.996	103.184	19.816	-1.688	0.501
1163.999	664.228	80.003	19.994	103.183	19.817	-1.770	0.467
1165.999	665.185	80.002	19.994	103.189	19.819	-1.887	0.465
1167.999	666.123	80.003	19.994	103.186	19.815	-1.589	0.462
1169.999	667.045	80.003	19.995	103.185	19.816	-1.692	0.435
1171.999	667.972	80.004	19.995	103.186	19.819	-1.883	0.456
1173.999	668.876	80.003	19.994	103.194	19.818	-1.801	0.431
1176.000	669.758	80.003	19.994	103.205	19.818	-1.809	0.440
1178.000	670.668	80.003	19.994	103.191	19.817	-1.787	0.473
1179.999	671.600	80.003	19.994	103.188	19.814	-1.554	0.470
1181.999	672.502	80.003	19.994	103.192	19.811	-1.281	0.464
1184.000	673.451	80.004	19.995	103.194	19.817	-1.748	0.468
1185.999	674.350	80.003	19.994	103.200	19.818	-1.853	0.463
1187.999	675.285	80.004	19.995	103.199	19.813	-1.476	0.437
1189.999	676.297	80.004	19.995	103.203	19.816	-1.651	0.478
1191.999	677.183	80.004	19.995	103.207	19.814	-1.540	0.469
1194.000	678.128	80.003	19.995	103.206	19.815	-1.635	0.479
1195.999	679.069	80.004	19.994	103.214	19.811	-1.312	0.511
1198.000	680.008	80.003	19.995	103.214	19.811	-1.302	0.483
1199.999	680.956	80.004	19.994	103.219	19.809	-1.174	0.469
1202.000	681.934	80.005	19.994	103.214	19.811	-1.318	0.498
1203.999	682.896	80.005	19.994	103.222	19.808	-1.102	0.476
1206.000	683.839	80.006	19.994	103.220	19.809	-1.127	0.459
1207.999	684.816	80.006	19.994	103.221	19.808	-1.057	0.486
1210.000	685.799	80.006	19.996	103.227	19.807	-1.001	0.464
1212.000	686.791	80.007	19.995	103.231	19.814	-1.509	0.458
1213.999	687.794	80.006	19.994	103.226	19.811	-1.339	0.495
1215.999	688.821	80.005	19.994	103.227	19.813	-1.454	0.515
1217.999	689.871	80.005	19.995	103.232	19.807	-1.022	0.501
1220.000	690.892	80.004	19.994	103.227	19.808	-1.084	0.516
1221.999	691.926	80.004	19.994	103.223	19.807	-1.006	0.508
1223.999	692.929	80.003	19.995	103.230	19.808	-1.078	0.515
1226.000	693.978	80.005	19.994	103.233	19.812	-1.415	0.526
1227.999	695.009	80.004	19.994	103.226	19.812	-1.384	0.520
1229.999	696.035	80.005	19.994	103.244	19.808	-1.092	0.520
1231.999	697.027	80.005	19.995	103.255	19.810	-1.230	0.503
1234.000	698.074	80.005	19.996	103.254	19.808	-1.071	0.524
1235.999	699.101	80.006	19.995	103.252	19.810	-1.267	0.484
1237.999	700.142	80.005	19.995	103.235	19.807	-1.012	0.505
1239.999	701.115	80.005	19.995	103.230	19.818	-1.828	0.479
1242.000	702.170	80.004	19.995	103.239	19.806	-0.940	0.522
1244.000	703.153	80.004	19.996	103.233	19.803	-0.708	0.518
1245.999	704.165	80.004	19.995	103.226	19.815	-1.582	0.493
1247.999	705.135	80.002	19.995	103.225	19.807	-1.043	0.483
1249.999	706.188	80.004	19.996	103.226	19.813	-1.442	0.503
1251.999	707.166	80.003	19.995	103.231	19.809	-1.172	0.537
1253.999	708.070	80.004	19.995	103.234	19.815	-1.639	0.489
1255.999	709.081	80.004	19.995	103.249	19.809	-1.185	0.485
1257.999	710.082	80.004	19.994	103.233	19.812	-1.417	0.525
1259.999	711.116	80.005	19.994	103.233	19.808	-1.051	0.490
1262.000	712.103	80.004	19.995	103.224	19.811	-1.308	0.485
1263.999	713.137	80.004	19.995	103.224	19.816	-1.657	0.484
1266.000	714.178	80.004	19.995	103.227	19.814	-1.526	0.525
1267.999	715.149	80.006	19.995	103.228	19.817	-1.733	0.503
1269.999	716.133	80.004	19.994	103.225	19.815	-1.606	0.507
1271.999	717.214	80.003	19.995	103.222	19.815	-1.589	0.518
1273.999	718.201	80.003	19.994	103.220	19.818	-1.861	0.510
1275.999	719.209	80.004	19.994	103.213	19.815	-1.605	0.528
1277.999	720.206	80.003	19.995	103.195	19.814	-1.517	0.532
1279.999	721.202	80.001	19.994	103.197	19.817	-1.780	0.507
1281.999	722.220	80.004	19.994	103.187	19.821	-2.084	0.472
1284.000	723.245	80.005	19.995	103.194	19.815	-1.616	0.515
1285.999	724.251	80.005	19.995	103.195	19.815	-1.609	0.514
1287.999	725.258	80.006	19.995	103.181	19.817	-1.735	0.511
1289.999	726.264	80.006	19.995	103.183	19.817	-1.786	0.489
1291.999	727.282	80.005	19.993	103.172	19.815	-1.632	0.496
1293.999	728.324	80.006	19.994	103.181	19.821	-2.055	0.517
1295.999	729.334	80.006	19.994	103.182	19.825	-2.380	0.531
1297.999	730.372	80.004	19.993	103.178	19.823	-2.174	0.515
1299.999	731.400	80.004	19.993	103.162	19.822	-2.127	0.509
1301.999	732.402	80.003	19.993	103.159	19.821	-2.081	0.491
1303.999	733.386	80.004	19.995	103.165	19.828	-2.573	0.471
1306.000	734.460	80.004	19.994	103.158	19.825	-2.363	0.528
1307.999	735.474	80.005	19.995	103.151	19.827	-2.544	0.497
1309.999	736.555	80.005	19.994	103.146	19.826	-2.474	0.538
1311.999	737.557	80.006	19.995	103.143	19.824	-2.311	0.495
1313.999	738.638	80.006	19.996	103.144	19.830	-2.751	0.535
1315.999	739.721	80.005	19.994	103.142	19.832	-2.858	0.524
1317.999	740.765	80.006	19.995	103.136	19.825	-2.354	0.537
1319.999	741.800	80.006	19.995	103.138	19.828	-2.552	0.530
1321.999	742.873	80.004	19.995	103.140	19.832	-2.876	0.539
1323.499	743.618	80.004	19.994	103.135	19.832	-2.917	0.505