File: 01_Data/Wool_Rug/MCC/Wool_Rug_MCC_30K_min_211116_R4.txt
Sample ID:	C:\MCC\MCC Cal\Test\Wool_Rug\Wool_Rug_MCC_30K_min_211116_R4.txt
Sample Weight (mg):	4.85
Heating Rate (C/s):	0.5
Combustor Temp (C):	900
N2 Flow Rate (cc/min):	80
O2 Flow Rate (cc/min):	20
Calibration File:	C:\MCC\MCC Cal\Coeff1 JN10440_30_210304.txt.txt
T Correction Coefficients:	0	1.024463	0
Time Shift (s):	14
*
Time (s)	Temperature (C)	N2 flow rate (cc/min)	O2 flow rate (cc/min)	Flow Rate (cc/min)	Oxygen (%)	HRR (W/g)	Heating rate (C/s)
0.000	110.566	80.006	19.998	103.091	20.002	0.007	0.006
2.000	110.585	80.008	19.995	103.096	20.003	-0.067	-0.007
4.000	110.601	80.008	19.995	103.089	20.002	0.013	-0.038
6.000	110.550	80.007	19.996	103.095	20.001	0.052	-0.017
8.000	110.526	80.006	19.997	103.101	20.001	0.076	-0.016
10.000	110.568	80.007	19.995	103.119	20.000	0.119	0.018
12.000	110.521	80.008	19.996	103.109	20.000	0.123	-0.023
14.000	110.524	80.009	19.995	103.046	19.998	0.287	-0.015
16.000	110.519	80.009	19.996	103.104	20.002	0.020	-0.002
18.000	110.553	80.010	19.996	103.122	19.998	0.242	-0.009
20.001	110.538	80.008	19.996	103.078	20.001	0.056	-0.019
22.000	110.512	80.008	19.995	103.085	20.003	-0.070	0.004
24.000	110.527	80.007	19.995	103.088	20.002	-0.025	-0.014
26.000	110.497	80.006	19.995	103.096	20.004	-0.144	-0.030
28.000	110.573	80.006	19.994	103.092	20.003	-0.070	0.001
30.000	110.531	80.007	19.995	103.084	20.004	-0.142	-0.027
32.000	110.518	80.006	19.994	103.094	20.005	-0.182	-0.014
34.000	110.564	80.006	19.994	103.094	20.003	-0.083	0.024
36.000	110.507	80.008	19.994	103.088	20.003	-0.094	-0.029
38.001	110.553	80.006	19.994	103.091	20.008	-0.375	0.007
40.000	110.547	80.006	19.996	103.090	20.005	-0.200	-0.010
42.001	110.524	80.006	19.995	103.093	20.005	-0.177	-0.048
44.000	110.547	80.007	19.994	103.080	20.003	-0.074	0.001
46.000	110.502	80.004	19.995	103.077	20.006	-0.234	-0.012
48.000	110.530	80.007	19.996	103.081	20.009	-0.438	0.011
50.000	110.517	80.006	19.995	103.078	20.004	-0.115	-0.008
52.001	110.532	80.008	19.993	103.082	20.005	-0.182	0.014
54.000	110.485	80.007	19.994	103.085	20.003	-0.072	-0.014
56.000	110.526	80.007	19.994	103.073	20.006	-0.290	0.026
58.000	110.515	80.006	19.996	103.072	20.007	-0.312	0.017
60.000	110.500	80.006	19.996	103.083	20.006	-0.238	0.041
62.000	110.467	80.007	19.995	103.077	20.011	-0.591	0.005
64.001	110.457	80.005	19.996	103.072	20.008	-0.420	0.032
66.000	110.473	80.008	19.995	103.084	20.009	-0.442	-0.013
68.000	110.445	80.007	19.994	103.079	20.008	-0.364	0.007
70.000	110.435	80.004	20.004	103.068	20.002	-0.013	-0.009
72.000	110.476	80.008	19.994	103.079	20.003	-0.063	-0.007
74.000	110.482	80.009	19.993	103.076	20.006	-0.252	0.022
76.000	110.430	80.010	19.994	103.083	20.007	-0.335	0.001
78.000	110.440	80.011	19.992	103.108	20.008	-0.413	0.007
80.001	110.384	80.006	19.994	103.105	20.007	-0.357	-0.042
82.000	110.411	80.006	19.998	103.072	20.008	-0.406	0.010
84.000	110.360	80.002	19.996	103.071	20.007	-0.321	-0.027
86.001	110.337	80.002	19.997	103.058	20.010	-0.512	0.017
88.000	110.322	80.006	19.997	103.076	20.008	-0.411	-0.007
90.000	110.365	80.012	19.992	103.075	20.012	-0.633	0.038
92.000	110.351	80.005	19.994	103.075	20.009	-0.449	0.024
94.000	110.341	80.009	19.994	103.077	20.009	-0.438	-0.001
96.001	110.307	80.005	20.001	103.069	20.010	-0.499	-0.017
98.000	110.299	80.009	20.000	103.063	20.007	-0.326	-0.024
100.000	110.287	80.012	19.993	103.078	20.008	-0.422	0.006
102.000	110.257	80.006	19.996	103.074	20.008	-0.411	-0.015
104.000	110.267	80.005	20.001	103.059	20.008	-0.370	0.010
106.000	110.215	80.005	19.996	103.065	20.007	-0.325	-0.030
108.000	110.251	80.005	19.996	103.070	20.009	-0.466	-0.026
110.000	110.233	80.003	19.998	103.078	20.012	-0.694	-0.025
112.000	110.206	80.005	19.995	103.087	20.012	-0.664	-0.011
114.000	110.178	80.004	19.993	103.090	20.015	-0.867	0.002
116.000	110.135	80.007	19.996	103.097	20.006	-0.281	-0.051
118.000	110.163	80.004	19.992	103.089	19.989	0.841	-0.013
120.001	110.180	80.005	19.995	103.412	19.961	2.709	-0.000
122.000	110.368	80.013	19.993	103.670	19.941	4.053	0.087
124.001	110.683	80.007	19.995	103.692	19.924	5.190	0.175
126.000	111.149	80.005	19.995	103.685	19.916	5.734	0.235
128.000	111.711	80.006	19.995	103.670	19.909	6.226	0.300
130.000	112.352	80.007	19.995	103.664	19.903	6.582	0.352
132.000	113.058	80.007	19.995	103.648	19.908	6.280	0.374
134.000	113.954	80.008	19.995	103.647	19.906	6.377	0.428
136.000	114.874	80.007	19.996	103.646	19.906	6.391	0.475
138.000	115.871	80.006	19.996	103.632	19.908	6.273	0.516
140.000	116.915	80.005	19.995	103.627	19.905	6.493	0.545
142.000	118.069	80.006	19.994	103.626	19.909	6.175	0.586
144.000	119.259	80.004	19.996	103.608	19.909	6.228	0.613
146.000	120.478	80.006	19.996	103.603	19.915	5.813	0.620
148.000	121.797	80.008	19.994	103.598	19.912	6.001	0.646
150.000	123.178	80.007	19.995	103.596	19.918	5.611	0.716
152.000	124.501	80.009	19.996	103.572	19.914	5.885	0.677
154.000	125.926	80.007	19.996	103.562	19.918	5.605	0.684
156.000	127.373	80.011	19.990	103.556	19.921	5.373	0.735
158.000	128.813	80.009	19.993	103.536	19.928	4.911	0.713
160.000	130.348	80.010	19.995	103.525	19.926	5.037	0.766
162.000	131.836	80.005	19.995	103.527	19.932	4.667	0.780
164.001	133.344	80.006	19.995	103.516	19.932	4.676	0.741
166.000	134.871	80.005	19.995	103.494	19.933	4.581	0.798
168.000	136.449	80.008	19.994	103.493	19.932	4.668	0.762
170.000	138.022	80.006	19.996	103.485	19.935	4.456	0.793
172.000	139.553	80.008	19.995	103.475	19.938	4.280	0.785
174.000	141.102	80.006	19.996	103.464	19.934	4.504	0.780
176.000	142.691	80.008	19.995	103.450	19.937	4.356	0.783
178.000	144.302	80.006	19.995	103.450	19.941	4.035	0.837
180.000	145.811	80.012	19.993	103.447	19.940	4.131	0.784
182.000	147.357	80.011	19.990	103.425	19.945	3.814	0.758
184.000	148.922	80.007	19.994	103.419	19.946	3.733	0.797
186.000	150.492	80.006	19.995	103.423	19.949	3.519	0.768
188.000	152.021	80.006	19.996	103.412	19.949	3.518	0.778
190.000	153.506	80.006	19.995	103.411	19.954	3.213	0.760
192.000	155.042	80.008	19.995	103.406	19.952	3.303	0.743
194.000	156.568	80.005	19.995	103.399	19.952	3.310	0.760
196.000	158.032	80.009	19.996	103.389	19.956	3.064	0.733
198.000	159.548	80.005	19.997	103.373	19.959	2.894	0.762
200.000	160.997	80.005	19.999	103.371	19.956	3.066	0.720
202.000	162.476	80.007	19.997	103.368	19.959	2.852	0.725
204.000	163.907	80.008	19.995	103.359	19.958	2.959	0.745
206.000	165.412	80.009	19.998	103.359	19.965	2.480	0.768
208.000	166.833	80.002	19.991	103.352	19.964	2.543	0.748
210.000	168.238	80.009	19.994	103.353	19.963	2.622	0.698
212.000	169.608	80.006	19.995	103.337	19.965	2.453	0.725
214.000	170.934	80.006	19.997	103.339	19.963	2.623	0.663
216.000	172.319	80.008	19.995	103.335	19.970	2.142	0.688
218.001	173.668	80.009	19.995	103.335	19.966	2.364	0.684
220.000	175.010	80.006	19.994	103.333	19.968	2.238	0.692
222.000	176.364	80.003	19.999	103.333	19.971	2.097	0.661
224.000	177.603	80.005	19.996	103.336	19.969	2.176	0.627
226.000	178.956	80.009	19.992	103.334	19.971	2.046	0.669
228.000	180.248	80.007	19.994	103.328	19.971	2.051	0.661
230.000	181.544	80.008	19.998	103.332	19.973	1.930	0.655
232.000	182.811	80.009	19.991	103.334	19.971	2.090	0.638
234.000	184.079	80.007	19.996	103.334	19.970	2.146	0.626
236.000	185.424	80.009	19.993	103.328	19.973	1.948	0.692
238.000	186.637	80.006	19.994	103.313	19.971	2.042	0.648
240.000	187.886	80.008	19.992	103.311	19.970	2.154	0.620
242.000	189.131	80.008	19.996	103.309	19.972	2.018	0.647
244.000	190.320	80.008	19.994	103.301	19.972	2.023	0.617
246.000	191.530	80.010	19.993	103.305	19.971	2.063	0.592
248.000	192.703	80.004	19.995	103.304	19.973	1.924	0.575
250.000	193.940	80.012	19.989	103.299	19.973	1.935	0.597
252.000	195.093	80.008	19.994	103.298	19.971	2.085	0.582
254.000	196.247	80.008	19.993	103.295	19.973	1.922	0.545
256.000	197.435	80.009	19.990	103.293	19.974	1.895	0.597
258.000	198.571	80.007	19.996	103.294	19.973	1.937	0.535
260.000	199.737	80.013	19.995	103.290	19.974	1.855	0.584
262.000	200.884	80.011	19.994	103.283	19.973	1.924	0.553
264.000	202.011	80.007	19.995	103.284	19.973	1.915	0.560
266.000	203.154	80.008	19.995	103.289	19.968	2.231	0.557
268.000	204.237	80.007	19.996	103.285	19.971	2.088	0.560
270.000	205.361	80.006	19.994	103.284	19.968	2.265	0.549
272.000	206.485	80.007	19.998	103.274	19.969	2.192	0.561
274.000	207.610	80.006	19.994	103.278	19.970	2.133	0.557
276.000	208.688	80.005	19.996	103.279	19.967	2.315	0.524
278.000	209.799	80.008	19.993	103.270	19.967	2.312	0.575
280.000	210.831	80.008	19.996	103.272	19.965	2.433	0.542
282.000	211.852	80.008	19.995	103.258	19.961	2.751	0.513
284.000	212.920	80.009	19.996	103.254	19.958	2.944	0.532
286.000	213.966	80.007	19.996	103.252	19.957	2.976	0.538
288.000	215.028	80.006	19.997	103.253	19.957	2.981	0.536
290.000	216.065	80.007	19.995	103.254	19.954	3.187	0.535
292.001	217.115	80.007	19.997	103.254	19.950	3.426	0.556
294.000	218.109	80.005	19.996	103.254	19.949	3.521	0.469
296.000	219.135	80.005	19.996	103.249	19.946	3.696	0.500
298.000	220.121	80.006	19.995	103.244	19.942	3.994	0.484
300.000	221.147	80.006	19.995	103.240	19.938	4.253	0.528
302.000	222.159	80.006	19.996	103.244	19.938	4.261	0.503
304.000	223.159	80.007	19.996	103.246	19.933	4.573	0.519
306.000	224.124	80.006	19.995	103.229	19.929	4.831	0.500
308.000	225.125	80.005	19.995	103.238	19.930	4.812	0.481
310.000	226.113	80.008	19.995	103.233	19.926	5.075	0.495
312.000	227.064	80.006	19.994	103.243	19.923	5.264	0.484
314.000	228.050	80.006	19.995	103.221	19.919	5.518	0.474
316.001	229.048	80.007	19.995	103.218	19.916	5.681	0.502
318.000	229.997	80.007	19.995	103.224	19.915	5.765	0.455
320.000	230.964	80.007	19.997	103.220	19.913	5.945	0.451
322.000	231.985	80.007	19.997	103.216	19.915	5.788	0.517
324.000	232.916	80.009	19.992	103.215	19.911	6.075	0.471
326.000	233.886	80.009	19.994	103.227	19.915	5.780	0.482
328.000	234.892	80.009	19.995	103.221	19.910	6.108	0.487
330.000	235.793	80.007	19.994	103.232	19.914	5.841	0.507
332.000	236.789	80.007	19.995	103.221	19.913	5.908	0.462
334.000	237.781	80.008	19.995	103.218	19.910	6.112	0.497
336.000	238.704	80.009	19.994	103.220	19.910	6.098	0.466
338.000	239.645	80.008	19.995	103.229	19.906	6.401	0.444
340.000	240.607	80.010	19.995	103.223	19.908	6.226	0.487
342.000	241.555	80.009	19.993	103.247	19.904	6.506	0.482
344.000	242.498	80.010	19.994	103.234	19.907	6.301	0.466
346.000	243.465	80.009	19.994	103.234	19.902	6.662	0.456
348.000	244.459	80.008	19.993	103.243	19.901	6.723	0.485
350.000	245.395	80.007	19.995	103.239	19.899	6.854	0.471
352.000	246.377	80.005	19.994	103.241	19.893	7.251	0.476
354.000	247.332	80.007	19.995	103.250	19.896	7.010	0.481
356.000	248.317	80.005	19.995	103.246	19.897	6.951	0.484
358.000	249.340	80.006	19.995	103.251	19.893	7.244	0.523
360.000	250.284	80.006	19.997	103.252	19.892	7.314	0.490
362.001	251.287	80.006	19.996	103.254	19.893	7.228	0.492
364.000	252.212	80.005	19.996	103.254	19.890	7.473	0.451
366.000	253.183	80.007	19.994	103.243	19.884	7.832	0.475
368.000	254.223	80.007	19.995	103.254	19.885	7.798	0.494
370.000	255.207	80.006	19.997	103.254	19.881	8.061	0.508
372.000	256.209	80.006	19.995	103.253	19.880	8.117	0.512
374.000	257.205	80.006	19.995	103.255	19.875	8.442	0.536
376.000	258.127	80.006	19.996	103.252	19.872	8.606	0.493
378.000	259.159	80.006	19.996	103.252	19.874	8.507	0.475
380.000	260.081	80.004	19.995	103.251	19.871	8.706	0.474
382.000	261.109	80.006	19.996	103.250	19.862	9.310	0.500
384.000	262.054	80.006	19.996	103.243	19.860	9.458	0.497
386.000	263.044	80.005	19.996	103.238	19.855	9.765	0.490
388.000	264.021	80.005	19.997	103.245	19.856	9.704	0.482
390.000	265.033	80.006	19.997	103.251	19.850	10.073	0.510
392.000	266.014	80.007	19.996	103.243	19.848	10.249	0.519
394.000	267.036	80.007	19.995	103.236	19.841	10.680	0.496
396.000	268.021	80.008	19.995	103.239	19.841	10.709	0.494
398.000	269.012	80.008	19.994	103.237	19.837	10.975	0.508
400.000	269.999	80.009	19.994	103.246	19.834	11.155	0.482
402.000	271.041	80.008	19.995	103.252	19.831	11.372	0.498
404.000	272.046	80.007	19.995	103.253	19.826	11.706	0.486
406.000	273.039	80.007	19.996	103.253	19.817	12.302	0.469
408.000	274.080	80.008	19.995	103.253	19.817	12.315	0.505
410.000	275.067	80.006	19.996	103.253	19.807	12.926	0.506
412.000	276.087	80.008	19.996	103.252	19.803	13.209	0.465
414.000	277.129	80.008	19.996	103.254	19.799	13.507	0.503
416.000	278.133	80.007	19.995	103.253	19.795	13.747	0.532
418.000	279.139	80.009	19.995	103.255	19.790	14.076	0.524
420.000	280.173	80.009	19.994	103.257	19.781	14.708	0.523
422.000	281.147	80.010	19.994	103.255	19.774	15.147	0.533
424.000	282.150	80.008	19.994	103.253	19.769	15.505	0.533
426.000	283.129	80.009	19.994	103.254	19.763	15.865	0.503
428.000	284.155	80.008	19.994	103.255	19.755	16.400	0.518
430.000	285.121	80.008	19.995	103.258	19.750	16.762	0.494
432.000	286.153	80.006	19.994	103.261	19.740	17.386	0.494
434.000	287.160	80.005	19.994	103.266	19.734	17.811	0.530
436.000	288.185	80.006	19.995	103.258	19.725	18.399	0.516
438.000	289.192	80.007	19.994	103.265	19.721	18.680	0.523
440.000	290.182	80.006	19.994	103.265	19.708	19.538	0.496
442.000	291.230	80.007	19.995	103.274	19.703	19.860	0.528
444.000	292.200	80.006	19.994	103.282	19.695	20.393	0.502
446.000	293.245	80.007	19.995	103.290	19.685	21.056	0.504
448.000	294.243	80.006	19.997	103.282	19.678	21.502	0.522
450.000	295.250	80.007	19.995	103.279	19.669	22.147	0.502
452.000	296.302	80.008	19.995	103.286	19.658	22.891	0.514
454.000	297.269	80.007	19.995	103.288	19.645	23.701	0.482
456.000	298.308	80.008	19.996	103.290	19.637	24.256	0.509
458.000	299.323	80.008	19.996	103.279	19.627	24.938	0.530
460.000	300.331	80.006	19.996	103.288	19.620	25.402	0.491
462.000	301.355	80.006	19.996	103.291	19.609	26.139	0.523
464.000	302.330	80.005	19.996	103.289	19.596	26.979	0.503
466.000	303.308	80.006	19.996	103.293	19.592	27.227	0.492
468.000	304.313	80.006	19.997	103.302	19.576	28.314	0.488
470.000	305.334	80.006	19.995	103.293	19.571	28.630	0.533
472.000	306.322	80.006	19.996	103.295	19.560	29.385	0.499
474.000	307.352	80.007	19.996	103.292	19.550	30.024	0.530
476.000	308.384	80.006	19.997	103.291	19.542	30.582	0.515
478.000	309.373	80.007	19.995	103.291	19.535	31.066	0.492
480.000	310.358	80.008	19.997	103.300	19.526	31.638	0.499
482.000	311.364	80.007	19.996	103.303	19.520	32.009	0.501
484.000	312.424	80.007	19.996	103.301	19.510	32.681	0.537
486.000	313.408	80.007	19.996	103.308	19.505	33.026	0.494
488.000	314.441	80.007	19.995	103.322	19.501	33.311	0.528
490.000	315.406	80.007	19.994	103.313	19.490	34.015	0.491
492.000	316.406	80.007	19.995	103.303	19.487	34.255	0.488
494.000	317.405	80.007	19.994	103.297	19.483	34.508	0.495
496.000	318.425	80.007	19.993	103.300	19.476	34.978	0.513
498.000	319.397	80.007	19.995	103.320	19.472	35.242	0.473
500.000	320.424	80.008	19.996	103.317	19.467	35.564	0.527
502.000	321.418	80.009	19.995	103.317	19.466	35.633	0.497
504.000	322.396	80.008	19.995	103.323	19.468	35.466	0.494
506.000	323.364	80.009	19.995	103.314	19.463	35.821	0.487
508.000	324.366	80.008	19.995	103.309	19.459	36.110	0.525
510.000	325.325	80.007	19.995	103.311	19.462	35.896	0.485
512.000	326.370	80.008	19.995	103.325	19.456	36.263	0.498
514.000	327.356	80.007	19.994	103.315	19.459	36.116	0.438
516.000	328.345	80.004	19.995	103.315	19.455	36.344	0.485
518.000	329.381	80.005	19.996	103.308	19.452	36.565	0.522
520.000	330.411	80.006	19.994	103.321	19.454	36.412	0.498
522.000	331.391	80.007	19.995	103.325	19.451	36.635	0.520
524.000	332.411	80.007	19.995	103.314	19.453	36.511	0.513
526.000	333.453	80.007	19.995	103.322	19.443	37.131	0.510
528.000	334.460	80.006	19.995	103.310	19.447	36.927	0.531
530.000	335.438	80.007	19.994	103.330	19.444	37.111	0.487
532.000	336.462	80.007	19.995	103.328	19.445	37.019	0.510
534.000	337.512	80.008	19.996	103.328	19.440	37.329	0.515
536.000	338.516	80.006	19.995	103.319	19.433	37.855	0.549
538.000	339.451	80.006	19.995	103.318	19.441	37.305	0.489
540.000	340.469	80.007	19.996	103.332	19.441	37.326	0.516
542.000	341.545	80.007	19.996	103.329	19.440	37.382	0.528
544.000	342.606	80.005	19.995	103.329	19.437	37.538	0.504
546.000	343.555	80.005	19.996	103.331	19.438	37.467	0.508
548.000	344.616	80.005	19.995	103.333	19.437	37.577	0.536
550.000	345.555	80.005	19.995	103.331	19.442	37.223	0.510
552.000	346.640	80.007	19.994	103.331	19.441	37.270	0.531
554.000	347.667	80.006	19.994	103.319	19.443	37.167	0.513
556.000	348.720	80.006	19.994	103.322	19.444	37.063	0.499
558.000	349.763	80.008	19.994	103.307	19.450	36.682	0.513
560.000	350.772	80.008	19.995	103.311	19.455	36.372	0.500
562.001	351.763	80.006	19.995	103.304	19.461	35.977	0.491
564.000	352.831	80.006	19.995	103.294	19.467	35.518	0.501
566.000	353.820	80.006	19.997	103.294	19.481	34.639	0.492
568.000	354.858	80.007	19.996	103.291	19.480	34.654	0.512
570.000	355.843	80.006	19.996	103.290	19.489	34.080	0.511
572.000	356.866	80.005	19.996	103.292	19.495	33.671	0.487
574.000	357.913	80.009	19.996	103.293	19.502	33.234	0.521
576.000	358.880	80.007	19.994	103.272	19.514	32.412	0.492
578.000	359.877	80.009	19.995	103.267	19.524	31.765	0.513
580.001	360.878	80.010	19.995	103.276	19.535	31.000	0.506
582.000	361.873	80.009	19.994	103.253	19.537	30.919	0.459
584.000	362.826	80.010	19.994	103.258	19.550	30.011	0.486
586.000	363.789	80.009	19.994	103.261	19.558	29.519	0.504
588.000	364.780	80.007	19.994	103.254	19.565	29.036	0.460
590.000	365.790	80.006	19.995	103.251	19.575	28.373	0.505
592.000	366.762	80.006	19.995	103.250	19.582	27.897	0.490
594.000	367.717	80.007	19.995	103.241	19.593	27.140	0.478
596.000	368.681	80.006	19.994	103.221	19.601	26.611	0.490
598.000	369.659	80.006	19.995	103.245	19.606	26.275	0.529
600.000	370.640	80.005	19.995	103.242	19.615	25.732	0.501
602.000	371.578	80.008	19.995	103.234	19.625	25.054	0.492
604.000	372.590	80.008	19.995	103.228	19.633	24.498	0.530
606.000	373.536	80.007	19.994	103.225	19.638	24.170	0.454
608.000	374.540	80.008	19.995	103.218	19.645	23.675	0.489
610.000	375.500	80.007	19.995	103.219	19.657	22.942	0.493
612.000	376.533	80.007	19.994	103.222	19.661	22.634	0.457
614.000	377.518	80.008	19.995	103.217	19.669	22.121	0.488
616.000	378.485	80.006	19.994	103.217	19.673	21.824	0.498
618.000	379.483	80.007	19.994	103.217	19.682	21.253	0.514
620.000	380.444	80.006	19.993	103.215	19.685	21.062	0.486
622.001	381.462	80.005	19.994	103.218	19.692	20.615	0.506
624.000	382.395	80.006	19.996	103.216	19.698	20.159	0.504
626.000	383.385	80.005	19.995	103.220	19.709	19.448	0.468
628.000	384.376	80.005	19.994	103.220	19.711	19.323	0.490
630.000	385.358	80.004	19.995	103.217	19.718	18.855	0.468
632.000	386.393	80.007	19.996	103.217	19.721	18.672	0.518
634.000	387.378	80.006	19.995	103.217	19.730	18.069	0.510
636.000	388.338	80.007	19.994	103.209	19.734	17.766	0.506
638.000	389.310	80.008	19.996	103.214	19.738	17.544	0.483
640.000	390.387	80.008	19.995	103.209	19.744	17.154	0.514
642.000	391.361	80.007	19.994	103.215	19.748	16.863	0.510
644.000	392.378	80.007	19.995	103.210	19.754	16.493	0.544
646.000	393.433	80.006	19.994	103.213	19.757	16.249	0.525
648.000	394.474	80.007	19.995	103.214	19.763	15.854	0.580
650.000	395.408	80.007	19.996	103.213	19.765	15.711	0.488
652.000	396.439	80.006	19.996	103.212	19.768	15.568	0.501
654.000	397.497	80.007	19.996	103.209	19.767	15.620	0.592
656.000	398.420	80.008	19.995	103.203	19.771	15.369	0.568
658.000	399.527	80.008	19.996	103.212	19.776	15.011	0.498
660.000	400.491	80.009	19.996	103.211	19.782	14.599	0.487
662.000	401.568	80.008	19.996	103.208	19.782	14.597	0.548
664.000	402.976	80.008	19.996	103.201	19.788	14.194	1.132
666.000	403.312	80.007	19.995	103.209	19.788	14.201	0.107
668.000	404.571	80.008	19.994	103.201	19.792	13.926	0.407
670.000	405.583	80.007	19.995	103.192	19.795	13.750	0.586
672.000	406.582	80.006	19.995	103.208	19.797	13.637	0.524
674.000	407.564	80.006	19.995	103.203	19.800	13.385	0.491
676.000	408.595	80.007	19.994	103.199	19.805	13.102	0.523
678.000	409.641	80.006	19.995	103.203	19.810	12.738	0.499
680.001	410.588	80.007	19.994	103.200	19.813	12.554	0.453
682.000	411.633	80.008	19.995	103.214	19.822	11.960	0.512
684.000	412.603	80.007	19.995	103.207	19.823	11.868	0.474
686.000	413.593	80.007	19.994	103.198	19.830	11.403	0.470
688.000	414.595	80.006	19.994	103.193	19.832	11.280	0.486
690.000	415.564	80.007	19.995	103.200	19.838	10.898	0.508
692.000	416.618	80.008	19.995	103.203	19.843	10.562	0.512
694.000	417.603	80.007	19.995	103.204	19.844	10.474	0.509
696.000	418.586	80.007	19.995	103.202	19.853	9.902	0.502
698.001	419.567	80.007	19.996	103.197	19.857	9.636	0.474
700.000	420.597	80.006	19.994	103.203	19.859	9.464	0.485
702.000	421.597	80.006	19.997	103.203	19.866	9.027	0.517
704.000	422.586	80.006	19.995	103.190	19.872	8.600	0.509
706.000	423.585	80.007	19.995	103.194	19.875	8.423	0.502
708.000	424.581	80.006	19.995	103.197	19.879	8.150	0.496
710.000	425.630	80.009	19.995	103.206	19.881	8.023	0.536
712.000	426.668	80.007	19.995	103.204	19.889	7.471	0.515
714.000	427.669	80.006	19.994	103.189	19.888	7.556	0.512
716.000	428.721	80.008	19.994	103.184	19.889	7.495	0.506
718.000	429.740	80.008	19.994	103.179	19.896	7.053	0.481
720.001	430.746	80.007	19.996	103.180	19.897	7.002	0.498
722.000	431.756	80.007	19.995	103.178	19.899	6.854	0.491
724.000	432.763	80.008	19.995	103.175	19.898	6.909	0.498
726.000	433.817	80.008	19.997	103.176	19.905	6.437	0.523
728.000	434.843	80.008	19.995	103.177	19.906	6.392	0.521
730.000	435.844	80.006	19.995	103.181	19.910	6.123	0.500
732.000	436.887	80.007	19.995	103.177	19.913	5.926	0.517
734.000	437.869	80.008	19.996	103.188	19.914	5.847	0.500
736.000	438.873	80.007	19.995	103.178	19.917	5.677	0.490
738.000	439.923	80.007	19.995	103.178	19.915	5.753	0.513
740.000	440.943	80.009	19.995	103.180	19.921	5.380	0.512
742.000	441.908	80.008	19.995	103.178	19.924	5.154	0.518
744.000	442.946	80.007	19.996	103.177	19.924	5.190	0.507
746.000	443.966	80.006	19.995	103.178	19.926	5.029	0.550
748.000	444.903	80.004	19.995	103.178	19.929	4.864	0.471
750.000	445.926	80.004	19.996	103.177	19.931	4.717	0.485
752.000	446.957	80.003	19.995	103.172	19.933	4.605	0.494
754.000	447.925	80.004	19.996	103.173	19.936	4.392	0.480
756.000	448.966	80.005	19.996	103.176	19.935	4.461	0.528
758.000	449.946	80.006	19.995	103.179	19.942	4.006	0.492
760.001	450.956	80.006	19.996	103.178	19.943	3.926	0.507
762.000	451.942	80.006	19.995	103.178	19.946	3.748	0.491
764.000	452.947	80.005	19.995	103.178	19.945	3.779	0.514
766.000	453.953	80.006	19.996	103.176	19.951	3.409	0.517
768.000	455.002	80.006	19.995	103.175	19.951	3.391	0.511
770.000	455.956	80.004	19.996	103.164	19.954	3.205	0.494
772.000	456.965	80.006	19.996	103.164	19.956	3.037	0.526
774.000	457.929	80.005	19.995	103.173	19.954	3.219	0.476
776.000	458.964	80.005	19.995	103.177	19.959	2.866	0.504
778.000	459.962	80.005	19.995	103.177	19.961	2.734	0.495
780.000	460.985	80.004	19.995	103.168	19.959	2.878	0.522
782.000	461.999	80.005	19.995	103.170	19.963	2.562	0.526
784.000	463.048	80.005	19.996	103.169	19.969	2.217	0.496
786.000	464.037	80.006	19.996	103.167	19.970	2.127	0.482
788.000	465.055	80.007	19.994	103.176	19.971	2.050	0.526
790.000	466.101	80.005	19.995	103.168	19.975	1.806	0.535
792.001	467.117	80.007	19.994	103.170	19.975	1.772	0.514
794.000	468.189	80.008	19.994	103.164	19.978	1.617	0.527
796.000	469.204	80.008	19.994	103.156	19.981	1.371	0.494
798.000	470.270	80.007	19.994	103.173	19.984	1.209	0.511
800.000	471.263	80.007	19.995	103.173	19.983	1.292	0.468
802.000	472.299	80.006	19.995	103.176	19.986	1.048	0.502
804.001	473.414	80.006	19.995	103.164	19.988	0.915	0.553
806.000	474.453	80.007	19.995	103.160	19.989	0.884	0.541
808.000	475.464	80.007	19.994	103.168	19.994	0.547	0.499
810.000	476.563	80.006	19.995	103.153	19.997	0.366	0.511
812.000	477.612	80.007	19.996	103.152	19.993	0.601	0.535
814.000	478.682	80.006	19.994	103.163	20.001	0.070	0.520
816.000	479.733	80.008	19.995	103.168	20.001	0.090	0.527
818.001	480.759	80.008	19.994	103.151	20.006	-0.287	0.510
820.000	481.837	80.008	19.995	103.152	20.011	-0.624	0.534
822.000	482.903	80.007	19.995	103.164	20.007	-0.332	0.533
824.000	483.926	80.006	19.995	103.155	20.013	-0.696	0.518
826.000	484.983	80.005	19.994	103.148	20.015	-0.852	0.503
828.000	486.054	80.005	19.996	103.141	20.018	-1.075	0.521
830.001	487.086	80.005	19.995	103.144	20.019	-1.095	0.505
832.000	488.164	80.004	19.995	103.140	20.015	-0.871	0.533
834.000	489.190	80.005	19.995	103.139	20.018	-1.084	0.513
836.000	490.226	80.005	19.996	103.140	20.022	-1.329	0.516
838.000	491.269	80.004	19.996	103.143	20.026	-1.606	0.497
840.000	492.292	80.005	19.996	103.141	20.023	-1.366	0.515
842.000	493.389	80.005	19.996	103.138	20.027	-1.674	0.548
844.000	494.411	80.005	19.996	103.144	20.033	-2.046	0.523
846.000	495.480	80.006	19.996	103.135	20.034	-2.123	0.496
848.000	496.519	80.005	19.995	103.136	20.036	-2.278	0.529
850.000	497.545	80.004	19.995	103.138	20.039	-2.428	0.502
852.000	498.589	80.006	19.996	103.139	20.038	-2.394	0.512
854.000	499.584	80.006	19.995	103.139	20.042	-2.632	0.509
856.000	500.629	80.006	19.995	103.135	20.040	-2.549	0.512
858.000	501.661	80.005	19.995	103.137	20.045	-2.829	0.493
860.000	502.741	80.005	19.994	103.138	20.048	-3.036	0.538
862.000	503.778	80.004	19.995	103.140	20.048	-3.065	0.533
864.000	504.777	80.005	19.996	103.144	20.051	-3.269	0.501
866.000	505.834	80.005	19.994	103.139	20.050	-3.153	0.517
868.000	506.867	80.005	19.994	103.138	20.052	-3.328	0.547
870.000	507.851	80.006	19.995	103.138	20.054	-3.444	0.474
872.000	508.890	80.006	19.995	103.140	20.056	-3.563	0.552
874.000	509.884	80.007	19.995	103.139	20.059	-3.806	0.504
876.000	510.931	80.006	19.995	103.142	20.059	-3.767	0.514
878.000	511.882	80.007	19.994	103.140	20.061	-3.882	0.500
880.000	512.912	80.006	19.996	103.140	20.065	-4.200	0.496
882.000	513.935	80.006	19.994	103.141	20.065	-4.178	0.521
884.000	514.971	80.006	19.995	103.141	20.066	-4.252	0.503
886.000	515.984	80.005	19.993	103.142	20.070	-4.537	0.508
888.000	517.039	80.006	19.995	103.142	20.074	-4.744	0.518
890.000	518.029	80.006	19.994	103.141	20.075	-4.826	0.496
892.000	519.049	80.008	19.995	103.140	20.074	-4.789	0.513
894.000	520.098	80.008	19.995	103.137	20.075	-4.845	0.540
896.000	521.121	80.009	19.994	103.136	20.076	-4.880	0.524
898.000	522.118	80.007	19.995	103.136	20.077	-5.006	0.481
900.000	523.160	80.006	19.994	103.137	20.077	-4.973	0.529
902.000	524.164	80.007	19.996	103.141	20.077	-4.970	0.503
904.000	525.209	80.007	19.995	103.137	20.078	-5.044	0.512
906.000	526.227	80.006	19.995	103.137	20.080	-5.141	0.501
908.000	527.250	80.005	19.996	103.137	20.079	-5.083	0.527
910.000	528.272	80.005	19.996	103.136	20.082	-5.280	0.513
912.000	529.282	80.006	19.996	103.137	20.082	-5.316	0.516
914.000	530.288	80.007	19.995	103.138	20.083	-5.345	0.522
916.000	531.290	80.005	19.996	103.140	20.088	-5.686	0.490
918.000	532.333	80.004	19.996	103.138	20.085	-5.488	0.508
920.000	533.355	80.005	19.995	103.136	20.086	-5.565	0.528
922.000	534.383	80.005	19.996	103.139	20.082	-5.302	0.492
924.001	535.408	80.005	19.995	103.136	20.089	-5.760	0.511
926.000	536.421	80.005	19.996	103.133	20.087	-5.619	0.517
928.000	537.470	80.005	19.996	103.137	20.086	-5.580	0.518
930.000	538.482	80.005	19.996	103.137	20.087	-5.616	0.541
932.000	539.492	80.005	19.996	103.138	20.089	-5.796	0.506
934.000	540.541	80.004	19.996	103.139	20.090	-5.840	0.513
936.000	541.547	80.006	19.996	103.140	20.090	-5.811	0.517
938.000	542.583	80.003	19.996	103.137	20.091	-5.892	0.485
940.000	543.587	80.005	19.996	103.140	20.093	-6.002	0.523
942.000	544.618	80.005	19.996	103.141	20.091	-5.870	0.497
944.000	545.657	80.004	19.993	103.142	20.092	-6.000	0.524
946.000	546.697	80.006	19.994	103.142	20.093	-6.029	0.555
948.000	547.706	80.006	19.994	103.142	20.090	-5.859	0.490
950.000	548.728	80.007	19.995	103.141	20.096	-6.231	0.487
952.000	549.772	80.007	19.994	103.134	20.095	-6.189	0.521
954.001	550.734	80.008	19.995	103.138	20.094	-6.113	0.482
956.000	551.766	80.007	19.995	103.137	20.094	-6.110	0.506
958.000	552.813	80.007	19.995	103.134	20.097	-6.294	0.519
960.000	553.890	80.005	19.994	103.134	20.096	-6.265	0.510
962.000	554.906	80.007	19.994	103.137	20.097	-6.278	0.499
964.001	555.940	80.006	19.994	103.136	20.097	-6.270	0.517
966.000	556.952	80.006	19.995	103.137	20.099	-6.416	0.530
968.000	557.964	80.007	19.994	103.134	20.098	-6.364	0.487
970.001	559.011	80.008	19.995	103.130	20.099	-6.418	0.508
972.000	560.009	80.008	19.995	103.135	20.100	-6.490	0.499
974.000	561.036	80.008	19.994	103.136	20.097	-6.299	0.519
976.000	562.070	80.009	19.994	103.136	20.100	-6.523	0.513
978.000	563.075	80.008	19.994	103.135	20.100	-6.471	0.466
980.000	564.059	80.007	19.995	103.136	20.099	-6.417	0.460
982.000	565.131	80.007	19.995	103.134	20.099	-6.402	0.526
984.000	566.126	80.006	19.994	103.138	20.099	-6.401	0.550
986.000	567.151	80.005	19.994	103.138	20.098	-6.364	0.493
988.000	568.138	80.006	19.996	103.139	20.101	-6.546	0.500
990.000	569.148	80.005	19.996	103.139	20.102	-6.649	0.491
992.000	570.176	80.004	19.995	103.135	20.100	-6.487	0.505
994.000	571.190	80.004	19.995	103.138	20.106	-6.888	0.505
996.000	572.195	80.004	19.996	103.133	20.101	-6.545	0.503
998.000	573.212	80.004	19.996	103.125	20.102	-6.657	0.522
1000.000	574.282	80.004	19.996	103.134	20.101	-6.575	0.542
1002.000	575.276	80.004	19.995	103.139	20.104	-6.747	0.504
1004.000	576.271	80.006	19.997	103.126	20.103	-6.673	0.491
1006.000	577.276	80.005	19.996	103.134	20.105	-6.850	0.477
1008.000	578.321	80.006	19.997	103.140	20.102	-6.647	0.509
1010.000	579.334	80.005	19.997	103.140	20.105	-6.819	0.492
1012.000	580.307	80.005	19.996	103.133	20.104	-6.774	0.520
1014.000	581.337	80.004	19.996	103.141	20.107	-6.961	0.512
1016.000	582.326	80.005	19.996	103.139	20.110	-7.163	0.508
1018.000	583.323	80.004	19.995	103.139	20.106	-6.885	0.512
1020.000	584.317	80.005	19.996	103.136	20.108	-7.002	0.461
1022.000	585.346	80.005	19.996	103.135	20.106	-6.925	0.524
1024.000	586.358	80.008	19.996	103.128	20.110	-7.159	0.516
1026.000	587.369	80.007	19.996	103.130	20.110	-7.177	0.505
1028.000	588.385	80.006	19.996	103.132	20.113	-7.390	0.513
1030.000	589.397	80.006	19.995	103.132	20.114	-7.404	0.539
1032.000	590.393	80.007	19.994	103.110	20.111	-7.248	0.496
1034.000	591.402	80.006	19.994	103.117	20.113	-7.343	0.514
1036.001	592.390	80.006	19.995	103.129	20.112	-7.295	0.507
1038.000	593.441	80.007	19.994	103.135	20.118	-7.683	0.520
1040.000	594.472	80.007	19.995	103.132	20.117	-7.638	0.518
1042.000	595.522	80.008	19.995	103.127	20.118	-7.708	0.520
1044.001	596.516	80.007	19.996	103.132	20.118	-7.681	0.504
1046.001	597.545	80.007	19.995	103.127	20.117	-7.649	0.525
1048.000	598.561	80.006	19.995	103.122	20.115	-7.511	0.525
1050.001	599.554	80.008	19.995	103.125	20.121	-7.861	0.490
1052.000	600.607	80.007	19.995	103.137	20.123	-8.058	0.538
1054.000	601.593	80.007	19.994	103.139	20.124	-8.116	0.493
1056.000	602.621	80.006	19.994	103.135	20.128	-8.333	0.530
1058.001	603.581	80.007	19.994	103.132	20.126	-8.242	0.488
1060.000	604.641	80.006	19.995	103.127	20.122	-7.968	0.502
1062.001	605.645	80.006	19.994	103.136	20.128	-8.383	0.494
1064.000	606.672	80.005	19.995	103.136	20.127	-8.321	0.513
1066.000	607.745	80.005	19.994	103.139	20.128	-8.345	0.517
1068.000	608.763	80.005	19.995	103.140	20.128	-8.325	0.506
1070.000	609.823	80.007	19.996	103.133	20.130	-8.485	0.535
1072.000	610.814	80.006	19.994	103.135	20.130	-8.505	0.494
1074.001	611.859	80.005	19.995	103.137	20.131	-8.575	0.553
1076.000	612.867	80.006	19.994	103.112	20.130	-8.520	0.548
1078.000	613.905	80.007	19.994	103.130	20.133	-8.719	0.509
1080.000	614.912	80.005	19.995	103.131	20.136	-8.860	0.534
1082.000	615.910	80.004	19.995	103.134	20.136	-8.893	0.521
1084.001	616.964	80.005	19.996	103.129	20.136	-8.871	0.508
1086.000	617.985	80.006	19.996	103.128	20.135	-8.843	0.501
1088.001	619.001	80.005	19.996	103.137	20.138	-9.044	0.514
1090.000	620.051	80.005	19.994	103.123	20.133	-8.697	0.513
1092.000	621.038	80.005	19.995	103.132	20.138	-9.014	0.515
1094.001	622.071	80.003	19.995	103.136	20.138	-9.034	0.496
1096.000	623.067	80.005	19.996	103.135	20.137	-8.948	0.535
1098.001	624.062	80.004	19.995	103.134	20.138	-8.990	0.526
1100.000	625.074	80.005	19.996	103.123	20.135	-8.845	0.500
1102.000	626.093	80.006	19.995	103.114	20.134	-8.783	0.514
1104.000	627.108	80.006	19.995	103.127	20.135	-8.790	0.503
1106.001	628.146	80.007	19.996	103.128	20.136	-8.874	0.533
1108.001	629.121	80.007	19.996	103.123	20.136	-8.878	0.497
1110.000	630.120	80.006	19.996	103.134	20.138	-9.016	0.518
1112.000	631.141	80.005	19.996	103.132	20.137	-8.978	0.507
1114.001	632.138	80.006	19.995	103.127	20.137	-8.922	0.503
1116.001	633.123	80.005	19.995	103.132	20.138	-9.018	0.520
1118.001	634.151	80.006	19.995	103.122	20.141	-9.213	0.504
1120.000	635.228	80.005	19.995	103.130	20.141	-9.191	0.517
1122.000	636.250	80.006	19.994	103.140	20.139	-9.104	0.515
1124.001	637.263	80.005	19.995	103.141	20.142	-9.261	0.501
1126.001	638.278	80.007	19.995	103.139	20.135	-8.809	0.468
1128.001	639.267	80.009	19.994	103.137	20.137	-8.986	0.493
1130.000	640.263	80.009	19.995	103.136	20.138	-9.036	0.483
1132.000	641.305	80.007	19.994	103.135	20.140	-9.123	0.470
1134.001	642.284	80.006	19.995	103.137	20.142	-9.285	0.482
1136.001	643.288	80.006	19.994	103.134	20.138	-9.019	0.514
1138.000	644.268	80.005	19.994	103.146	20.138	-9.005	0.524
1140.000	645.219	80.006	19.995	103.144	20.139	-9.120	0.521
1142.000	646.307	80.005	19.994	103.145	20.139	-9.118	0.536
1144.000	647.288	80.006	19.995	103.145	20.140	-9.127	0.495
1146.000	648.313	80.005	19.995	103.148	20.142	-9.265	0.535
1148.000	649.314	80.005	19.995	103.143	20.137	-8.956	0.521
1150.000	650.291	80.007	19.995	103.143	20.142	-9.300	0.492
1152.000	651.311	80.005	19.994	103.151	20.139	-9.074	0.510
1154.001	652.269	80.006	19.994	103.161	20.140	-9.142	0.491
1156.001	653.270	80.006	19.995	103.160	20.141	-9.232	0.499
1158.000	654.266	80.006	19.994	103.160	20.139	-9.098	0.527
1160.000	655.291	80.005	19.995	103.153	20.137	-8.949	0.483
1162.000	656.278	80.006	19.994	103.169	20.142	-9.279	0.521
1164.000	657.296	80.005	19.996	103.176	20.142	-9.257	0.503
1166.001	658.286	80.004	19.995	103.171	20.140	-9.139	0.573
1168.001	659.281	80.004	19.995	103.167	20.137	-8.958	0.542
1170.000	660.286	80.004	19.995	103.173	20.140	-9.161	0.486
1172.000	661.290	80.005	19.995	103.175	20.135	-8.825	0.501
1174.000	662.342	80.005	19.994	103.162	20.138	-9.024	0.523
1176.000	663.324	80.006	19.995	103.172	20.134	-8.739	0.494
1178.001	664.333	80.007	19.995	103.176	20.136	-8.884	0.506
1180.000	665.330	80.005	19.995	103.180	20.136	-8.923	0.490
1182.000	666.329	80.006	19.995	103.182	20.136	-8.918	0.502
1184.000	667.336	80.007	19.995	103.182	20.137	-8.935	0.521
1186.000	668.379	80.007	19.995	103.185	20.137	-8.979	0.516
1188.000	669.374	80.006	19.994	103.189	20.133	-8.698	0.532
1190.000	670.395	80.004	19.995	103.190	20.136	-8.922	0.482
1192.001	671.410	80.005	19.996	103.180	20.134	-8.782	0.492
1194.000	672.441	80.004	19.996	103.198	20.138	-9.044	0.506
1196.001	673.466	80.004	19.995	103.198	20.135	-8.812	0.509
1198.000	674.491	80.004	19.996	103.214	20.136	-8.906	0.521
1200.000	675.489	80.004	19.995	103.205	20.137	-8.963	0.510
1202.000	676.444	80.006	19.995	103.203	20.140	-9.180	0.494
1204.000	677.574	80.007	19.995	103.220	20.139	-9.097	0.434
1206.001	678.556	80.007	19.995	103.224	20.135	-8.830	0.502
1208.001	679.566	80.008	19.994	103.221	20.137	-8.969	0.505
1210.000	680.583	80.008	19.994	103.217	20.136	-8.897	0.498
1212.001	681.589	80.008	19.995	103.216	20.137	-8.967	0.507
1214.000	682.598	80.006	19.994	103.216	20.137	-8.964	0.516
1216.001	683.647	80.005	19.995	103.213	20.136	-8.897	0.519
1218.001	684.624	80.005	19.995	103.216	20.135	-8.837	0.500
1220.000	685.638	80.005	19.995	103.230	20.138	-9.048	0.481
1222.000	686.628	80.005	19.995	103.250	20.134	-8.756	0.476
1224.000	687.630	80.006	19.996	103.230	20.139	-9.119	0.503
1226.000	688.653	80.005	19.995	103.219	20.134	-8.734	0.498
1228.001	689.668	80.004	19.996	103.225	20.137	-8.979	0.507
1230.000	690.666	80.006	19.995	103.246	20.135	-8.822	0.504
1232.001	691.677	80.006	19.994	103.247	20.135	-8.833	0.498
1234.000	692.634	80.006	19.995	103.237	20.133	-8.687	0.516
1236.000	693.638	80.006	19.995	103.251	20.131	-8.581	0.463
1238.000	694.637	80.006	19.995	103.254	20.131	-8.577	0.463
1240.000	695.612	80.005	19.994	103.255	20.135	-8.801	0.479
1242.000	696.668	80.004	19.994	103.257	20.131	-8.551	0.503
1244.000	697.646	80.006	19.994	103.258	20.132	-8.660	0.491
1246.000	698.682	80.005	19.994	103.258	20.131	-8.595	0.510
1248.000	699.704	80.003	19.994	103.259	20.134	-8.781	0.505
1250.001	700.681	80.004	19.994	103.259	20.134	-8.745	0.496
1252.001	701.691	80.004	19.995	103.252	20.134	-8.741	0.522
1254.000	702.694	80.005	19.994	103.252	20.130	-8.512	0.515
1256.000	703.631	80.005	19.995	103.258	20.130	-8.521	0.469
1258.000	704.641	80.005	19.994	103.260	20.130	-8.488	0.477
1260.000	705.678	80.005	19.995	103.258	20.132	-8.613	0.504
1262.000	706.632	80.006	19.995	103.259	20.132	-8.652	0.501
1264.001	707.695	80.007	19.995	103.257	20.135	-8.860	0.519
1266.000	708.631	80.006	19.995	103.255	20.133	-8.668	0.485
1268.000	709.619	80.006	19.994	103.252	20.130	-8.506	0.525
1270.001	710.633	80.006	19.994	103.254	20.129	-8.416	0.526
1272.000	711.639	80.007	19.995	103.254	20.134	-8.746	0.528
1274.000	712.593	80.006	19.995	103.252	20.130	-8.477	0.498
1276.000	713.624	80.006	19.995	103.251	20.131	-8.550	0.513
1278.001	714.656	80.005	19.996	103.250	20.126	-8.228	0.485
1280.000	715.665	80.006	19.995	103.251	20.130	-8.463	0.504
1282.001	716.650	80.005	19.995	103.240	20.127	-8.277	0.496
1284.000	717.685	80.007	19.996	103.227	20.132	-8.620	0.505
1286.000	718.715	80.006	19.995	103.233	20.134	-8.787	0.520
1288.000	719.713	80.008	19.995	103.216	20.132	-8.660	0.523
1290.000	720.742	80.007	19.995	103.213	20.136	-8.869	0.518
1292.000	721.685	80.007	19.995	103.213	20.134	-8.732	0.504
1294.000	722.703	80.004	19.995	103.215	20.136	-8.873	0.522
1296.000	723.713	80.005	19.995	103.214	20.136	-8.867	0.520
1298.001	724.733	80.006	19.994	103.197	20.135	-8.816	0.513
1300.000	725.778	80.005	19.994	103.207	20.139	-9.064	0.507
1302.000	726.770	80.005	19.995	103.203	20.137	-8.929	0.504
1304.000	727.793	80.004	19.994	103.189	20.141	-9.214	0.480
1306.000	728.781	80.005	19.996	103.197	20.140	-9.182	0.482
1308.000	729.788	80.005	19.994	103.183	20.143	-9.379	0.509
1310.000	730.783	80.005	19.995	103.173	20.145	-9.491	0.513
1312.000	731.791	80.006	19.995	103.178	20.144	-9.437	0.514
1314.000	732.764	80.005	19.995	103.173	20.147	-9.589	0.498
1316.000	733.792	80.006	19.995	103.172	20.146	-9.540	0.487
1318.001	734.762	80.005	19.995	103.151	20.146	-9.558	0.508
1320.000	735.760	80.006	19.994	103.146	20.145	-9.485	0.502
1322.001	736.714	80.004	19.995	103.146	20.143	-9.341	0.462
1324.000	737.781	80.006	19.995	103.147	20.145	-9.465	0.522
1326.000	738.784	80.004	19.994	103.148	20.147	-9.584	0.536
1328.000	739.774	80.006	19.996	103.144	20.149	-9.720	0.502
1330.000	740.785	80.005	19.994	103.140	20.149	-9.778	0.524
1332.000	741.789	80.005	19.994	103.139	20.148	-9.655	0.523
1334.001	742.769	80.006	19.995	103.140	20.150	-9.808	0.463
1335.500	743.508	80.006	19.995	103.137	20.153	-10.040	0.477