File: 01_Data/Overstuffed_Chair_Assembly/Cone/Overstuffed_Chair_Assembly_Cone_HF75Scan_210325_R3.csv
Names,Time,Stack TC,Smoke TC,Exh Press,Smoke Comp,Smoke Meas,CO Meter,CO2 Meter,O2 Meter,Sample Mass,Ext Coeff,Start Test,Flame Verif
Chan Gain,,500,500,1,1,1,1,1,1,1,1,1.0,1.0
Offset,,0,0,0.138348,0,0,0,0,0,0,0,0.0,0.0
Gain,,1,1,25.011,13.5067,16.616,1,1,1,1.00091,1.04608,1.0,1.0
Units,sec,C,C,Pa,%,%,%,%,%,g,/m,,
Baseline,,38.2579,41.4736,158.112,100.256,100.379,-0.000534893,0.0816873,20.8691,-3.61691,-0.0112461,,
2,0.25,35.5784,37.8989,157.079,100.737,100.982,-0.000233576,0.0844831,20.8664,484.421,-0.0222228,0.0,0.0
4,0.75,35.6281,38.3335,160.036,100.738,100.941,-0.000228749,0.0847998,20.8663,485.112,-0.0184526,0.0,0.0
6,1.25,35.6536,37.6676,154.703,100.737,100.64,-0.000229326,0.0850564,20.8662,484.551,0.00881134,0.0,0.0
8,1.75,35.5388,38.0444,158.952,100.748,100.885,-0.000233831,0.0853457,20.8662,483.67,-0.0124792,0.0,0.0
10,2.25,35.3757,38.6058,156.975,100.753,100.664,-0.000232993,0.08558,20.8661,484.771,0.00813922,0.0,0.0
12,2.75,35.7966,38.3538,159.352,100.777,100.772,-0.000228277,0.0857698,20.866,485.822,0.000439729,0.0,0.0
14,3.25,35.2939,38.5154,156.315,100.767,100.817,-0.000218688,0.0859235,20.866,485.792,-0.00461623,0.0,0.0
16,3.75,35.7245,38.782,157.656,100.773,101.027,-0.000205728,0.0859937,20.866,484.641,-0.0230567,0.0,0.0
18,4.25,35.9824,38.6094,158.734,100.788,100.902,-0.000186258,0.0860506,20.866,484.311,-0.0104065,0.0,0.0
20,4.75,36.0232,38.6038,157.802,100.787,101.193,-0.000162411,0.0860966,20.8659,484.251,-0.0369039,0.0,0.0
22,5.25,36.1179,38.9625,153.943,100.809,101.018,-0.000124827,0.0861068,20.8659,484.241,-0.0190094,0.0,0.0
24,5.75,36.3397,39.0345,160.152,100.806,101.109,-9.43845e-05,0.086115,20.8659,484.251,-0.0274668,0.0,0.0
26,6.25,35.9738,39.1947,158.307,100.813,100.868,-5.81828e-05,0.0861081,20.8659,484.231,-0.00498123,0.0,0.0
28,6.75,35.8235,39.0135,158.129,100.822,101.141,-1.84707e-05,0.0861311,20.8659,484.221,-0.0290693,0.0,0.0
30,7.25,36.5376,39.8135,160.62,100.831,100.686,1.36961e-05,0.0861754,20.8659,484.241,0.0132373,0.0,0.0
32,7.75,35.9634,38.9009,156.805,100.852,100.691,7.05673e-05,0.0862828,20.8659,484.231,0.0146124,0.0,0.0
34,8.25,36.1155,40.007,158.411,100.83,100.782,0.000144368,0.0864342,20.8653,484.191,0.00439306,0.0,0.0
36,8.75,35.849,39.3105,153.213,100.846,100.309,0.000204146,0.0868358,20.8648,484.121,0.0489504,0.0,0.0
38,9.25,36.5381,39.8648,163.254,100.849,98.563,0.000352806,0.0874122,20.8635,484.101,0.210375,0.0,0.0
40,9.75,36.1381,39.4272,155.754,100.852,96.4485,0.000473221,0.0878791,20.8616,484.061,0.40964,0.0,0.0
42,10.25,36.6409,39.6452,161.346,100.867,93.8669,0.000705659,0.0933489,20.8545,484.031,0.659945,0.0,0.0
44,10.75,36.1175,39.3753,166.504,100.872,93.5708,0.000893935,0.0977794,20.8438,483.71,0.689427,0.0,1.0
46,11.25,36.596,39.9718,140.574,100.875,97.9722,0.00120034,0.101368,20.8197,483.64,0.267939,0.0,1.0
48,11.75,36.9751,40.8517,150.95,100.89,97.7821,0.00144853,0.117234,20.7862,483.63,0.287153,0.0,1.0
50,12.25,37.4447,41.4984,147.735,100.886,96.4196,0.00185495,0.130085,20.745,483.6,0.415502,0.0,1.0
52,12.75,37.3536,42.4599,140.827,100.896,93.9516,0.00218415,0.156479,20.699,483.5,0.65437,0.0,1.0
54,13.25,38.4884,43.1245,144.543,100.899,91.3564,0.00267853,0.177859,20.6546,483.44,0.911709,0.0,1.0
56,13.75,38.8782,43.9673,141.302,100.913,88.319,0.00307898,0.207034,20.6122,483.33,1.22318,0.0,1.0
58,14.25,39.6019,45.1483,146.474,100.904,85.5174,0.00340334,0.230665,20.5779,483.23,1.51815,0.0,1.0
60,14.75,39.9875,46.0379,150.431,100.918,88.5563,0.00391529,0.258217,20.5461,483.06,1.19908,0.0,1.0
62,15.25,40.3732,46.4212,141.28,100.916,86.921,0.00432997,0.280533,20.5169,483.11,1.36986,0.0,1.0
64,15.75,40.7812,47.0571,147.563,100.928,86.6066,0.00477407,0.305795,20.4888,483.07,1.40427,0.0,0.0
66,16.25,40.785,47.8828,141.973,100.918,85.5914,0.00513379,0.326257,20.4622,483.02,1.51156,0.0,0.0
68,16.75,41.4587,48.6639,148.336,100.917,82.1336,0.00545637,0.345851,20.4405,482.9,1.88981,0.0,0.0
70,17.25,42.5787,49.5441,147.399,100.933,86.1233,0.00574574,0.364439,20.4209,482.84,1.45602,0.0,0.0
72,17.75,42.5996,50.3264,142.375,100.948,83.5063,0.00598013,0.379496,20.4049,482.82,1.74053,0.0,0.0
74,18.25,43.4142,51.1616,143.584,100.945,87.1679,0.0061763,0.392764,20.3921,482.719,1.34648,0.0,0.0
76,18.75,43.4095,51.6991,144.651,100.957,86.1345,0.0063352,0.404475,20.3817,482.679,1.45701,0.0,0.0
78,19.25,43.7432,52.6492,144.17,100.948,86.0336,0.00645394,0.414351,20.3734,482.609,1.46698,0.0,0.0
80,19.75,44.3622,54.0347,142.792,100.958,86.5594,0.00654116,0.4227,20.3666,482.579,1.412,0.0,0.0
82,20.25,45.1211,53.3845,146.01,100.957,86.0265,0.0066118,0.429464,20.3611,482.529,1.46856,0.0,0.0
84,20.75,45.0766,54.0071,147.576,100.977,85.0924,0.00666902,0.435893,20.3567,482.439,1.5705,0.0,0.0
86,21.25,45.3167,54.5156,151.686,100.969,86.1117,0.00667755,0.441101,20.3538,482.369,1.46056,0.0,0.0
88,21.75,45.7382,54.9684,141.942,100.984,84.6787,0.00668445,0.445908,20.3521,482.329,1.61594,0.0,0.0
90,22.25,46.0197,55.5033,141.015,100.976,87.714,0.00669004,0.449801,20.3507,482.199,1.29198,0.0,0.0
92,22.75,46.5722,55.8933,144.449,100.996,84.2634,0.00672609,0.452955,20.3495,482.189,1.66206,0.0,0.0
94,23.25,46.3762,56.4469,144.892,100.989,87.5112,0.00675529,0.455509,20.3486,482.139,1.31442,0.0,0.0
96,23.75,46.9976,56.9701,142.63,101.007,85.9185,0.00689516,0.458359,20.3476,482.049,1.48462,0.0,0.0
98,24.25,47.3244,57.2965,149.248,101.004,85.2096,0.00700846,0.460667,20.3466,482.019,1.56035,0.0,0.0
100,24.75,47.5938,57.7866,142.253,101.03,83.0164,0.00739105,0.464034,20.344,481.979,1.80201,0.0,0.0
102,25.25,47.9012,58.4542,148.28,101.003,84.6964,0.00770094,0.468109,20.3402,481.939,1.61574,0.0,0.0
104,25.75,48.0451,58.6193,141.352,101.027,81.734,0.00827707,0.47141,20.3263,481.799,1.94456,0.0,0.0
106,26.25,48.7172,59.1225,138.336,101.008,76.9082,0.00896066,0.482381,20.3052,481.738,2.50132,0.0,0.0
108,26.75,48.8673,59.6086,143.347,101.034,74.5092,0.00970958,0.491267,20.268,481.638,2.79447,0.0,0.0
110,27.25,49.2775,60.3679,134.063,101.031,69.0216,0.0103162,0.510702,20.2379,481.598,3.49617,0.0,0.0
112,27.75,49.6847,61.2975,138.264,101.05,70.0667,0.0113594,0.526444,20.2045,481.508,3.35996,0.0,0.0
114,28.25,50.4945,62.3009,139.983,101.054,70.625,0.0122043,0.550472,20.1693,481.358,3.28751,0.0,0.0
116,28.75,50.9541,62.9782,131.734,101.057,69.521,0.0128887,0.569934,20.1408,481.268,3.43237,0.0,0.0
118,29.25,51.4769,63.7786,141.499,101.049,70.0596,0.0141321,0.599286,20.1048,481.158,3.36085,0.0,0.0
120,29.75,51.71,64.5625,139.9,101.068,68.4384,0.0151392,0.623061,20.0641,481.048,3.5774,0.0,0.0
122,30.25,52.8413,65.3903,131.607,101.061,63.5294,0.0162343,0.658313,20.031,480.888,4.25972,0.0,0.0
124,30.75,53.1592,67.268,123.053,101.08,67.3959,0.0173727,0.686867,19.9758,480.758,3.71938,0.0,0.0
126,31.25,54.3651,68.9274,123.796,101.062,67.869,0.0185028,0.724732,19.931,480.617,3.65355,0.0,0.0
128,31.75,55.3736,70.2653,124.762,101.09,70.9191,0.0196052,0.768665,19.8567,480.467,3.25267,0.0,0.0
130,32.25,56.3459,72.2244,111.778,101.082,68.195,0.0206687,0.80425,19.7964,480.287,3.61136,0.0,0.0
132,32.75,57.4315,73.7937,125.466,101.098,68.8588,0.0216837,0.852048,19.6889,480.117,3.5239,0.0,0.0
134,33.25,58.1069,76.3227,110.706,101.105,67.8233,0.022669,0.90784,19.6018,479.987,3.66357,0.0,0.0
136,33.75,59.9425,78.4279,130.68,101.099,68.8994,0.0236139,0.965793,19.4931,479.787,3.51865,0.0,0.0
138,34.25,61.1548,80.8341,118.339,101.101,67.3056,0.0245723,1.02422,19.4051,479.667,3.73359,0.0,0.0
140,34.75,62.9238,83.259,127.603,101.113,69.5606,0.0255223,1.08284,19.3044,479.537,3.43228,0.0,0.0
142,35.25,64.0623,85.3171,112.548,101.114,71.3105,0.0262918,1.14049,19.2228,479.366,3.20436,0.0,0.0
144,35.75,65.8783,87.0644,122.898,101.121,71.1929,0.0271269,1.19941,19.1568,479.126,3.22015,0.0,0.0
146,36.25,66.8541,89.4696,118.256,101.13,68.7949,0.0279939,1.25812,19.0686,478.876,3.53538,0.0,0.0
148,36.75,68.372,92.5778,120.18,101.129,70.2406,0.0288798,1.31874,18.9973,478.746,3.34447,0.0,0.0
150,37.25,69.7508,95.2308,117.539,101.138,68.8588,0.0297628,1.3796,18.9074,478.616,3.52757,0.0,0.0
152,37.75,71.2029,98.0962,94.2459,101.141,69.1686,0.030478,1.42889,18.8347,478.285,3.48664,0.0,0.0
154,38.25,72.7597,101.055,108.984,101.144,71.6006,0.0314667,1.50088,18.7552,478.195,3.16977,0.0,0.0
156,38.75,74.5381,104.306,123.11,101.158,69.9262,0.0322675,1.55918,18.6724,478.005,3.38821,0.0,0.0
158,39.25,76.222,107.415,95.258,101.151,72.3571,0.033264,1.62515,18.5535,477.855,3.07396,0.0,0.0
160,39.75,77.6467,111.308,94.4115,101.171,70.2913,0.0340711,1.69545,18.4573,477.635,3.34159,0.0,0.0
162,40.25,80.0709,114.224,116.165,101.159,70.0494,0.0351442,1.76323,18.3696,477.365,3.37213,0.0,0.0
164,40.75,82.1992,117.641,105.077,101.164,72.7871,0.0360134,1.8279,18.2899,477.084,3.02082,0.0,0.0
166,41.25,83.9808,120.584,101.545,101.17,71.6264,0.0370403,1.88027,18.2254,476.924,3.16885,0.0,0.0
168,41.75,85.4204,123.708,118.851,101.166,73.6684,0.0378721,1.93853,18.173,476.844,2.91057,0.0,0.0
170,42.25,87.1663,125.782,106.191,101.179,69.729,0.0385459,1.98571,18.1307,476.544,3.416,0.0,0.0
172,42.75,88.5334,128.942,94.5962,101.172,70.0286,0.039457,2.02952,18.0964,476.444,3.37609,0.0,0.0
174,43.25,89.8408,131.685,106.723,101.184,69.0885,0.040195,2.065,18.0686,476.173,3.50116,0.0,0.0
176,43.75,91.9875,133.55,111.613,101.187,69.4191,0.0407928,2.09511,18.0461,476.043,3.45765,0.0,0.0
178,44.25,92.813,135.618,111.732,101.19,67.7214,0.0416572,2.1195,18.0311,475.793,3.68508,0.0,0.0
180,44.75,93.4733,137.686,105.661,101.195,64.6749,0.0423574,2.13992,18.0218,475.633,4.10793,0.0,0.0
182,45.25,95.2017,138.946,108.549,101.197,65.3437,0.0430692,2.15707,18.0165,475.463,4.01371,0.0,0.0
184,45.75,96.3737,141.249,102.502,101.204,64.1278,0.043776,2.17095,18.014,475.193,4.18671,0.0,0.0
186,46.25,97.4798,141.987,119.921,101.214,65.4391,0.0444645,2.1822,18.0145,474.982,4.00187,0.0,0.0
188,46.75,98.5777,143.535,114.157,101.215,61.7085,0.0451267,2.19266,18.0172,474.742,4.5406,0.0,0.0
190,47.25,98.894,144.782,119.895,101.225,65.6363,0.045734,2.20236,18.0238,474.602,3.97522,0.0,0.0
192,47.75,100.775,145.956,113.42,101.223,63.1587,0.0462899,2.21024,18.033,474.322,4.32811,0.0,0.0
194,48.25,101.352,146.443,106.199,101.228,61.6461,0.0467801,2.21663,18.0405,474.212,4.551,0.0,0.0
196,48.75,102.396,148.74,118.04,101.224,62.392,0.0472132,2.22118,18.0528,474.011,4.44034,0.0,0.0
198,49.25,102.22,149.75,100.702,101.228,60.2613,0.047564,2.2243,18.0627,473.801,4.75952,0.0,0.0
200,49.75,103.656,149.889,104.948,101.234,60.5402,0.0478729,2.22532,18.0707,473.611,4.71771,0.0,0.0
202,50.25,103.818,150.529,99.3056,101.245,60.2314,0.0481455,2.22479,18.086,473.371,4.76565,0.0,0.0
204,50.75,104.974,151.771,119.016,101.234,59.8166,0.0483663,2.22223,18.0983,473.201,4.82805,0.0,0.0
206,51.25,104.709,153.12,103.285,101.249,60.4347,0.048533,2.21824,18.1121,473.011,4.7351,0.0,0.0
208,51.75,106.565,152.778,114.691,101.247,59.5341,0.048668,2.21501,18.1265,472.76,4.87264,0.0,0.0
210,52.25,106.113,153.407,98.8041,101.242,57.768,0.0486771,2.20918,18.1382,472.6,5.14849,0.0,0.0
212,52.75,106.655,154.013,104.213,101.254,59.2456,0.0486844,2.20156,18.1577,472.39,4.91785,0.0,0.0
214,53.25,106.792,154.652,104.571,101.266,57.2994,0.0485691,2.19539,18.1791,472.19,5.22546,0.0,0.0
216,53.75,107.102,155.521,103.384,101.251,59.7679,0.0483667,2.18667,18.2014,472.04,4.83701,0.0,0.0
218,54.25,107.576,154.982,104.661,101.273,57.5271,0.0480213,2.17626,18.2195,471.86,5.18963,0.0,0.0
220,54.75,108.251,155.475,111.325,101.286,58.6112,0.0475783,2.16245,18.2574,471.609,5.01951,0.0,0.0
222,55.25,107.946,154.914,102.99,101.287,59.5498,0.0470088,2.14643,18.2881,471.469,4.87388,0.0,0.0
224,55.75,108.757,156.391,118.268,101.279,61.3469,0.046358,2.1228,18.3449,471.259,4.60031,0.0,0.0
226,56.25,109.098,157.045,123.31,101.293,63.8362,0.0458309,2.09406,18.391,471.119,4.2366,0.0,0.0
228,56.75,108.926,155.848,114.37,101.267,58.7963,0.0450737,2.05924,18.4283,470.919,4.98886,0.0,0.0
230,57.25,108.959,155.68,120.944,101.297,63.0127,0.0441631,2.02063,18.491,470.829,4.35612,0.0,0.0
232,57.75,109.341,155.069,118.289,101.28,60.8135,0.0431731,1.97672,18.5418,470.668,4.68056,0.0,0.0
234,58.25,108.152,154.409,108.925,101.3125,61.6339,0.0421439,1.92979,18.6172,470.478,4.5605,0.0,0.0
236,58.75,108.285,153.714,122.991,101.299,61.1289,0.0413103,1.89177,18.6782,470.358,4.63481,0.0,0.0
238,59.25,108.785,152.373,121.989,101.319,59.4641,0.0400444,1.82902,18.7459,470.238,4.88997,0.0,0.0
240,59.75,107.632,151.325,129.669,101.301,64.6272,0.039019,1.77819,18.8171,470.148,4.1243,0.0,0.0
242,60.25,106.506,149.665,124.463,101.314,64.4766,0.0375984,1.72271,18.8956,469.998,4.1469,0.0,0.0
244,60.75,106.278,148.615,127.07,101.313,63.5826,0.0364476,1.6649,18.9781,469.848,4.27491,0.0,0.0
246,61.25,106.598,147.141,126.428,101.341,65.0714,0.035122,1.60766,19.0603,469.718,4.0651,0.0,0.0
248,61.75,105.883,146.943,133.634,101.337,67.7899,0.033694,1.55192,19.1408,469.668,3.68914,0.0,0.0
250,62.25,104.908,144.266,127.659,101.348,69.1184,0.0321978,1.50677,19.2231,469.577,3.51209,0.0,0.0
252,62.75,104.58,143.441,132.539,101.337,68.2645,0.0306805,1.44561,19.3051,469.517,3.62512,0.0,0.0
254,63.25,104.217,142.179,134.868,101.353,72.0245,0.0294514,1.39607,19.3716,469.467,3.13458,0.0,0.0
256,63.75,103.153,141.483,125.481,101.326,71.5372,0.0276807,1.33639,19.4386,469.417,3.19441,0.0,0.0
258,64.25,102.349,139.052,135.628,101.276,77.2763,0.0262463,1.28805,19.5047,469.377,2.48177,0.0,0.0
260,64.75,101.572,138.192,137.337,101.333,78.8386,0.0247744,1.23836,19.5582,469.397,2.30326,0.0,0.0
262,65.25,100.49,136.326,131.428,101.371,68.7888,0.0233029,1.18864,19.624,469.317,3.55804,0.0,0.0
264,65.75,100.139,135.044,136.915,101.35,74.9615,0.0218086,1.14836,19.6772,469.237,2.7676,0.0,0.0
266,66.25,99.0433,133.531,132.686,101.365,78.3016,0.0203261,1.097,19.7204,469.197,2.36892,0.0,0.0
268,66.75,99.004,132.247,140.048,101.367,84.4231,0.0191253,1.05539,19.7755,469.107,1.6784,0.0,0.0
270,67.25,97.4058,130.924,141.448,101.375,86.3997,0.0181526,1.00941,19.8201,469.117,1.46675,0.0,0.0
272,67.75,96.2423,129.769,140.297,101.372,91.1941,0.0166723,0.961103,19.8729,469.167,0.970918,0.0,0.0
274,68.25,95.9627,127.128,139.019,101.386,93.2671,0.0154733,0.911938,19.9305,469.207,0.765938,0.0,0.0
276,68.75,95.8501,125.15,142.37,101.381,94.3852,0.0141597,0.863078,19.9912,469.247,0.656101,0.0,0.0
278,69.25,94.6893,123.971,144.078,101.399,96.4525,0.0130958,0.823501,20.0531,469.217,0.458962,0.0,0.0
280,69.75,93.7528,121.97,149.271,101.385,98.6573,0.0120792,0.791444,20.1032,469.237,0.2503,0.0,0.0
282,70.25,92.1721,120.55,149.788,101.406,98.3875,0.0111166,0.737682,20.1692,469.227,0.277254,0.0,0.0
284,70.75,90.6209,119.206,147.248,101.41,98.9666,0.0103368,0.694134,20.2227,469.207,0.223813,0.0,0.0
286,71.25,90.4646,117.315,145.475,101.414,99.9828,0.00945988,0.645685,20.2762,469.207,0.13041,0.0,0.0
288,71.75,89.782,114.96,149.558,101.393,100.92,0.00874954,0.606442,20.3288,469.237,0.0429424,0.0,0.0
290,72.25,88.9914,113.84,146.529,101.416,101.103,0.00809708,0.568601,20.3713,469.217,0.0283183,0.0,0.0
292,72.75,86.8587,112.234,146.942,101.409,101.488,0.00749923,0.532502,20.4163,469.237,-0.00721697,0.0,0.0
294,73.25,86.8764,110.482,146.094,101.42,101.786,0.00696768,0.503262,20.4528,469.277,-0.0331288,0.0,0.0
296,73.75,86.4192,109.011,149.225,101.416,102.237,0.00649457,0.469226,20.4872,469.257,-0.0739772,0.0,0.0
298,74.25,85.0424,107.373,146.946,101.424,102.197,0.00608251,0.441657,20.5194,469.257,-0.069709,0.0,0.0
300,74.75,84.3468,105.599,154.325,101.421,102.409,0.00572279,0.415148,20.5491,469.237,-0.0888994,0.0,0.0
302,75.25,82.9995,104.519,147.304,101.426,102.202,0.00541962,0.389916,20.5766,469.247,-0.0698953,0.0,0.0
304,75.75,82.8626,103.136,147.612,101.436,102.25,0.00516345,0.369478,20.5988,469.247,-0.0733239,0.0,0.0
306,76.25,82.1629,101.998,146.665,101.439,102.048,0.00496316,0.348564,20.6208,469.267,-0.0548884,0.0,0.0
308,76.75,80.464,100.229,148.726,101.432,102.105,0.0048074,0.331624,20.6385,469.267,-0.0607562,0.0,0.0
310,77.25,79.6298,98.826,148.842,101.446,102.569,0.00468124,0.313994,20.6545,469.307,-0.101046,0.0,0.0
312,77.75,79.3892,97.6782,153.885,101.433,102.007,0.00460854,0.299714,20.669,469.287,-0.0517164,0.0,0.0
314,78.25,78.2261,95.8045,146.905,101.45,102.188,0.00457619,0.285198,20.6807,469.297,-0.0664944,0.0,0.0
316,78.75,77.4484,95.1543,153.491,101.453,102.369,0.0045782,0.272409,20.6923,469.287,-0.0824463,0.0,0.0
318,79.25,76.9917,94.1787,148.636,101.46,102.57,0.00460523,0.261122,20.7029,469.287,-0.099869,0.0,0.0
320,79.75,76.2223,92.7731,148.985,101.453,102.455,0.00465342,0.251979,20.7125,469.277,-0.0901697,0.0,0.0
322,80.25,76.4405,91.7913,148.501,101.462,102.283,0.0047161,0.242019,20.7203,469.277,-0.0739789,0.0,0.0
324,80.75,75.3,90.2765,147.376,101.462,102.406,0.00479189,0.233952,20.728,469.297,-0.0849356,0.0,0.0
326,81.25,74.4113,90.1853,153.163,101.463,102.901,0.00487579,0.226288,20.7341,469.287,-0.129108,0.0,0.0
328,81.75,73.9821,88.7214,148.719,101.465,102.461,0.00494375,0.219064,20.7406,469.257,-0.0896251,0.0,0.0
330,82.25,73.2528,87.8862,151.387,101.493,102.857,0.00502508,0.212504,20.7459,469.257,-0.122536,0.0,0.0
332,82.75,72.7387,87.089,150.231,101.467,102.699,0.00509096,0.206553,20.7503,469.217,-0.110758,0.0,0.0
334,83.25,72.1602,86.1321,150.305,101.466,102.464,0.00514808,0.201057,20.7542,469.217,-0.0898234,0.0,0.0
336,83.75,71.8198,85.38,145.881,101.476,103.026,0.00519434,0.195998,20.7573,469.197,-0.13907,0.0,0.0
338,84.25,71.6706,84.2661,147.181,101.477,102.462,0.00523181,0.191347,20.7607,469.227,-0.0886354,0.0,0.0
340,84.75,70.8567,83.9197,150.411,101.465,102.863,0.00525841,0.187082,20.7634,469.207,-0.125485,0.0,0.0
342,85.25,70.5554,83.2732,152.694,101.48,102.523,0.00527995,0.183627,20.7661,469.247,-0.0938225,0.0,0.0
344,85.75,69.9516,82.5311,153.123,101.477,102.493,0.00531118,0.179725,20.7687,469.257,-0.0914059,0.0,0.0
346,86.25,69.7085,81.5321,154.237,101.482,102.352,0.00533647,0.176564,20.7717,469.227,-0.0782916,0.0,0.0
348,86.75,69.4033,81.1462,148.147,101.482,102.481,0.00538327,0.17349,20.7741,469.237,-0.0898311,0.0,0.0
350,87.25,68.7796,80.0516,150.527,101.489,103.126,0.00542117,0.17054,20.7765,469.237,-0.14689,0.0,0.0
352,87.75,68.5124,79.3517,149.486,101.489,103.19,0.00548447,0.16815,20.7784,469.257,-0.152491,0.0,0.0
354,88.25,68.1749,78.63,150.463,101.493,102.602,0.00553574,0.165538,20.7805,469.257,-0.0997904,0.0,0.0
356,88.75,67.1667,77.4228,147.263,101.482,102.566,0.00561618,0.163422,20.7821,469.297,-0.0975011,0.0,0.0
358,89.25,66.6965,77.8915,150.048,101.496,102.835,0.00568133,0.161259,20.7834,469.267,-0.120275,0.0,0.0
360,89.75,66.0896,76.2644,146.232,101.491,102.495,0.00573411,0.15927,20.7847,469.287,-0.0903652,0.0,0.0
362,90.25,66.3851,76.0992,148.87,101.494,102.67,0.00585478,0.157446,20.786,469.317,-0.105753,0.0,0.0
364,90.75,65.6981,75.2442,148.49,101.493,102.186,0.00595253,0.155969,20.787,469.287,-0.0624824,0.0,0.0
366,91.25,65.9021,74.9363,153.261,101.499,102.512,0.00606546,0.154394,20.7892,469.277,-0.0911176,0.0,0.0
368,91.75,65.3669,74.6745,150.429,101.489,102.871,0.00611704,0.153118,20.79,469.257,-0.124167,0.0,0.0
370,92.25,64.8927,73.548,150.969,101.483,102.528,0.00620524,0.151847,20.7914,469.237,-0.0940153,0.0,0.0
372,92.75,64.5911,72.713,151.885,101.498,102.293,0.00627668,0.150817,20.7925,469.247,-0.0715631,0.0,0.0
374,93.25,63.9807,72.6682,148.848,101.492,102.66,0.00631944,0.149982,20.7933,469.247,-0.104988,0.0,0.0
376,93.75,63.8862,72.2425,149.016,101.503,102.371,0.00635407,0.149307,20.794,469.237,-0.0781101,0.0,0.0
378,94.25,63.5132,71.4531,148.564,101.485,102.743,0.00635569,0.147947,20.7946,469.247,-0.11306,0.0,0.0
380,94.75,63.5058,70.9295,151.255,101.498,102.817,0.00635701,0.147581,20.7951,469.197,-0.118468,0.0,0.0
382,95.25,62.692,70.8125,153.023,101.5,102.704,0.00632286,0.146956,20.7955,469.187,-0.108148,0.0,0.0
384,95.75,62.7644,70.2219,148.158,101.503,102.887,0.0062952,0.146226,20.7958,469.187,-0.124264,0.0,0.0
386,96.25,62.5742,70.3709,151.227,101.497,102.781,0.00626023,0.145634,20.796,469.187,-0.115329,0.0,0.0
388,96.75,62.4682,69.5566,147.877,101.5,102.846,0.0062206,0.145045,20.7967,469.157,-0.120906,0.0,0.0
390,97.25,62.3986,68.6993,150.043,101.497,102.511,0.00618519,0.144468,20.7972,469.177,-0.0912501,0.0,0.0
392,97.75,61.7976,68.5512,151.562,101.507,102.484,0.00615353,0.143905,20.7976,469.167,-0.0879507,0.0,0.0
394,98.25,61.1632,67.9291,147.896,101.485,103.017,0.00612789,0.143364,20.7979,469.177,-0.137437,0.0,0.0
396,98.75,60.8845,67.7566,145.579,101.5,102.74,0.00610183,0.142844,20.7982,469.167,-0.111401,0.0,0.0
398,99.25,61.5767,67.9653,153.768,101.492,102.914,0.00607597,0.14235,20.7989,469.147,-0.127676,0.0,0.0
400,99.75,61.0386,67.3518,151.533,101.496,102.873,0.00604973,0.14187,20.7994,469.127,-0.12364,0.0,0.0
402,100.25,60.4907,67.0384,148.08,101.49,102.786,0.00602372,0.141408,20.7998,469.137,-0.116461,0.0,0.0
404,100.75,60.4347,66.5054,149.341,101.497,103.264,0.0060053,0.141033,20.8002,469.117,-0.158409,0.0,0.0
406,101.25,60.3005,66.4258,150.515,101.487,102.507,0.00599275,0.140437,20.8009,469.107,-0.0917363,0.0,0.0
408,101.75,60.2112,65.7408,149.868,101.502,103.012,0.00599978,0.139955,20.8015,469.107,-0.13554,0.0,0.0
410,102.25,59.2008,65.2852,150.593,101.493,102.74,0.00602094,0.139432,20.802,469.117,-0.111998,0.0,0.0
412,102.75,59.6134,64.9748,152.566,101.496,102.871,0.00605859,0.138889,20.8024,469.087,-0.12345,0.0,0.0
414,103.25,59.4403,65.4572,151.782,101.495,102.63,0.00610755,0.138391,20.8027,469.087,-0.102097,0.0,0.0
416,103.75,59.7717,64.9937,148.267,101.503,102.703,0.0061472,0.137935,20.8029,469.087,-0.107878,0.0,0.0
418,104.25,59.3811,64.3014,154.489,101.49,102.868,0.00622589,0.137522,20.8029,469.087,-0.123784,0.0,0.0
420,104.75,59.0545,63.8946,151.856,101.486,102.696,0.00625944,0.137147,20.8028,469.087,-0.108773,0.0,0.0
422,105.25,59.2285,63.9992,152.877,101.485,102.463,0.00631681,0.136844,20.8026,469.047,-0.087981,0.0,0.0
424,105.75,58.686,64.3667,148.452,101.5,102.72,0.00638781,0.136598,20.8024,469.047,-0.109626,0.0,0.0
426,106.25,58.532,63.3108,149.489,101.489,102.621,0.00646741,0.136399,20.8023,469.057,-0.101796,0.0,0.0
428,106.75,58.1028,63.2541,147.802,101.496,102.585,0.00654251,0.136231,20.8022,469.087,-0.097987,0.0,0.0
430,107.25,57.8894,63.6379,145.918,101.477,102.548,0.0066129,0.136088,20.8021,469.077,-0.0963077,0.0,0.0
432,107.75,58.5589,63.1765,150.735,101.498,102.782,0.00667058,0.136027,20.802,469.087,-0.115353,0.0,0.0
434,108.25,57.7537,62.7592,150.434,101.474,102.601,0.00671789,0.135839,20.8024,469.067,-0.101339,0.0,0.0
436,108.75,57.7089,62.5705,148.034,101.481,102.55,0.00675622,0.135687,20.8027,469.067,-0.0960789,0.0,0.0
438,109.25,57.2723,61.9305,147.1,101.476,102.804,0.00677213,0.135534,20.8029,469.047,-0.119267,0.0,0.0
440,109.75,57.521,62.286,147.411,101.495,102.503,0.00678501,0.135384,20.8031,469.067,-0.0907182,0.0,0.0
442,110.25,57.2517,62.0818,152.719,101.467,102.924,0.00678032,0.135263,20.8035,469.037,-0.13089,0.0,0.0
444,110.75,57.0942,61.857,149.973,101.48,102.809,0.00677652,0.135053,20.8041,469.047,-0.119347,0.0,0.0
446,111.25,57.0152,61.8884,153.661,101.474,102.809,0.00675579,0.134884,20.8045,469.027,-0.119944,0.0,0.0
448,111.75,57.1021,61.6269,149.966,101.472,102.632,0.00673901,0.134593,20.8048,469.037,-0.104246,0.0,0.0
450,112.25,56.8271,61.2142,153.285,101.461,102.369,0.00672541,0.134358,20.8051,468.997,-0.0817758,0.0,0.0
452,112.75,56.865,60.739,152.196,101.475,102.407,0.00668543,0.134139,20.8053,468.997,-0.083916,0.0,0.0
454,113.25,56.2463,61.1315,145.319,101.461,102.835,0.00665304,0.133962,20.8058,469.037,-0.123415,0.0,0.0
456,113.75,56.9684,61.1465,151.617,101.47,102.603,0.00662681,0.133722,20.8063,469.017,-0.101922,0.0,0.0
458,114.25,56.6972,60.4774,151.198,101.457,102.456,0.0065996,0.133527,20.8067,469.017,-0.0898803,0.0,0.0
460,114.75,56.2459,60.5606,149.23,101.483,102.713,0.00657219,0.133369,20.8071,469.007,-0.110573,0.0,0.0
462,115.25,55.9879,60.5104,152.341,101.447,102.713,0.00654932,0.133116,20.8074,469.037,-0.113817,0.0,0.0
464,115.75,56.9164,59.814,150.684,101.456,102.199,0.00653021,0.132911,20.8072,469.037,-0.0669379,0.0,0.0
466,116.25,55.1702,60.2077,156.328,101.453,102.239,0.00651208,0.132745,20.807,469.017,-0.0707942,0.0,0.0
468,116.75,55.9178,60.0713,151.419,101.436,102.285,0.006495,0.132667,20.8069,468.987,-0.0764642,0.0,0.0
470,117.25,55.4675,59.694,153.057,101.448,102.509,0.00647985,0.132603,20.8068,469.007,-0.0954218,0.0,0.0
472,117.75,55.3815,59.5023,154.715,101.456,102.923,0.00646638,0.132588,20.8067,469.007,-0.131761,0.0,0.0
474,118.25,55.5967,59.6112,151.82,101.444,102.573,0.00645349,0.132608,20.8066,469.037,-0.101603,0.0,0.0
476,118.75,55.607,59.8611,155.064,101.441,102.873,0.00644125,0.13261,20.8066,469.017,-0.128627,0.0,0.0
478,119.25,55.4637,59.4167,154.042,101.447,102.909,0.00643135,0.132599,20.8065,468.977,-0.131241,0.0,0.0
480,119.75,55.4434,59.1081,149.847,101.442,102.425,0.00641471,0.132553,20.8065,468.957,-0.0884891,0.0,0.0
482,120.25,55.1894,58.7854,157.682,101.438,102.703,0.00639349,0.132483,20.8064,468.937,-0.113768,0.0,0.0
484,120.75,55.3738,59.0504,156.897,101.437,102.328,0.00637101,0.132353,20.8064,468.967,-0.080255,0.0,0.0
486,121.25,55.1593,58.2138,150.73,101.425,102.338,0.00634803,0.132182,20.8064,468.957,-0.0822084,0.0,0.0
488,121.75,55.5264,58.7334,147.693,101.431,102.76,0.00633471,0.132044,20.8064,468.957,-0.119475,0.0,0.0
490,122.25,54.8848,58.4225,152.101,101.424,102.5,0.00632869,0.131834,20.8064,468.947,-0.0968958,0.0,0.0
492,122.75,55.065,58.7362,151.407,101.426,102.506,0.00632382,0.131664,20.8064,468.937,-0.0972087,0.0,0.0
494,123.25,53.9546,58.7949,154.727,101.419,102.57,0.00636265,0.131498,20.8063,468.917,-0.10356,0.0,0.0
496,123.75,54.1721,57.3062,146.511,101.419,102.697,0.00639411,0.131337,20.8063,468.927,-0.114903,0.0,0.0
498,124.25,54.6341,57.6835,151.87,101.415,102.227,0.00646243,0.131213,20.8063,468.927,-0.0731331,0.0,0.0
500,124.75,55.2155,58.0359,155.093,101.416,102.527,0.00651777,0.13112,20.8063,468.927,-0.100048,0.0,0.0
502,125.25,54.4099,57.5936,150.898,101.408,102.242,0.00656259,0.131044,20.8063,468.937,-0.0751324,0.0,0.0
504,125.75,54.0887,57.9619,149.455,101.413,102.529,0.00661781,0.131053,20.8063,468.957,-0.100445,0.0,0.0
506,126.25,54.0077,57.8089,147.801,101.405,102.64,0.00666254,0.131059,20.8063,468.937,-0.111086,0.0,0.0
508,126.75,53.8956,57.6411,151.048,101.397,102.532,0.00669213,0.13105,20.8063,468.917,-0.102142,0.0,0.0
510,127.25,54.0621,56.9975,155.268,101.398,102.967,0.00671013,0.131029,20.8063,468.907,-0.14096,0.0,0.0
512,127.75,54.5894,57.7743,148.755,101.393,102.547,0.00671874,0.131013,20.8063,468.907,-0.103831,0.0,0.0
514,128.25,53.8584,56.7736,149.306,101.407,102.175,0.00672033,0.130902,20.8063,468.907,-0.069235,0.0,0.0
516,128.75,53.756,57.2558,151.279,101.374,102.519,0.00671765,0.130812,20.8063,468.907,-0.103126,0.0,0.0
518,129.25,53.9747,57.1842,145.438,101.373,102.344,0.00671189,0.130754,20.8063,468.917,-0.087483,0.0,0.0
520,129.75,53.6466,57.2586,150.692,101.38,102.457,0.00670722,0.130706,20.8063,468.937,-0.0970274,0.0,0.0
522,130.25,53.0479,56.7067,148.673,101.367,102.287,0.00670849,0.130675,20.8063,468.947,-0.0828751,0.0,0.0
524,130.75,54.0474,56.3835,147.368,101.374,102.213,0.00670951,0.130656,20.8063,468.927,-0.0756342,0.0,0.0
526,131.25,53.3767,56.7649,148.481,101.368,102.349,0.00673303,0.130633,20.8063,468.917,-0.0884311,0.0,0.0
528,131.75,53.556,56.0618,152.486,101.344,102.396,0.00675209,0.130609,20.8063,468.927,-0.0947768,0.0,0.0
530,132.25,53.3582,56.66,150.111,101.369,102.397,0.00677748,0.130589,20.8063,468.937,-0.0925545,0.0,0.0
532,132.75,53.3243,56.5231,150.204,101.34,102.1,0.00680701,0.130572,20.8063,468.947,-0.0685738,0.0,0.0
534,133.25,53.4538,55.6182,155.062,101.352,102.337,0.00683092,0.130559,20.8063,468.947,-0.088758,0.0,0.0
536,133.75,52.9318,56.6733,152.471,101.332,102.637,0.00684433,0.130576,20.8063,468.917,-0.117418,0.0,0.0
538,134.25,53.1298,56.8189,150.195,101.342,101.964,0.00684983,0.13059,20.8063,468.887,-0.0561655,0.0,0.0
540,134.75,53.047,56.3003,150.489,101.335,102.27,0.00683835,0.130546,20.8063,468.887,-0.0842848,0.0,0.0
542,135.25,53.2961,56.4051,150.172,101.325,102.035,0.00681472,0.13051,20.8066,468.887,-0.0640453,0.0,0.0
544,135.75,53.513,56.4787,153.255,101.322,102.232,0.00679558,0.130481,20.8072,468.907,-0.0821036,0.0,0.0
546,136.25,53.0454,56.0752,152.099,101.313,102.678,0.00674229,0.130292,20.8076,468.907,-0.12277,0.0,0.0
548,136.75,52.9073,56.0685,150.653,101.303,102.426,0.00669912,0.130139,20.808,468.877,-0.101199,0.0,0.0
550,137.25,52.9272,56.6127,149.994,101.317,102.631,0.00666415,0.129978,20.8083,468.847,-0.118181,0.0,0.0
552,137.75,52.9529,56.2849,147.306,101.287,102.299,0.0066031,0.129815,20.8083,468.817,-0.0911629,0.0,0.0
554,138.25,52.2539,56.2732,151.996,101.304,102.296,0.00655366,0.129683,20.8083,468.837,-0.0894423,0.0,0.0
556,138.75,52.8106,56.0571,152.298,101.293,102.297,0.00649222,0.129507,20.8082,468.867,-0.0905414,0.0,0.0
558,139.25,52.7371,55.8691,153.291,101.277,102.352,0.00644246,0.129364,20.8082,468.857,-0.0968345,0.0,0.0
560,139.75,52.7083,55.7195,154.954,101.283,102.101,0.00639336,0.129248,20.8086,468.857,-0.0738256,0.0,0.0
562,140.25,53.0713,56.1822,149.421,101.282,101.981,0.00635358,0.128933,20.8094,468.837,-0.0630848,0.0,0.0
564,140.75,53.1803,56.1171,156.038,101.256,101.829,0.00632136,0.128677,20.81,468.827,-0.0517026,0.0,0.0
566,141.25,52.1375,55.2985,148.792,101.263,101.953,0.00631287,0.128427,20.8105,468.847,-0.0623755,0.0,0.0
568,141.75,52.8875,55.4121,155.032,101.256,101.886,0.00630599,0.128184,20.8109,468.837,-0.0569013,0.0,0.0
570,142.25,52.5159,55.1808,155.751,101.257,101.902,0.00632054,0.127958,20.8112,468.837,-0.0582883,0.0,0.0
572,142.75,52.2518,55.3931,150.65,101.233,101.875,0.00633233,0.127749,20.8115,468.797,-0.0580263,0.0,0.0
574,143.25,52.5936,55.5609,150.853,101.249,102.377,0.00635313,0.127595,20.8117,468.807,-0.101646,0.0,0.0
576,143.75,52.3578,56.2699,153.536,101.234,102.286,0.0063801,0.127483,20.8118,468.827,-0.0948807,0.0,0.0
578,144.25,52.6625,55.4145,150.613,101.228,102.207,0.00641057,0.127392,20.812,468.837,-0.088314,0.0,0.0
580,144.75,52.5007,55.5079,158.768,101.205,101.952,0.006443,0.12736,20.8119,468.817,-0.0674701,0.0,0.0
582,145.25,51.9075,55.5391,151.265,101.217,102.301,0.00647589,0.127334,20.8119,468.797,-0.0977321,0.0,0.0
584,145.75,51.8502,55.3346,151.589,101.203,101.881,0.00650851,0.127382,20.8119,468.817,-0.0612732,0.0,0.0
586,146.25,52.1021,54.9331,152.642,101.201,102.336,0.00653493,0.127421,20.8118,468.807,-0.102335,0.0,0.0
588,146.75,52.2503,55.2889,151.288,101.185,101.948,0.00657775,0.127489,20.8118,468.797,-0.0689446,0.0,0.0
590,147.25,51.6003,54.5073,151.877,101.193,102.202,0.00661244,0.127576,20.8118,468.807,-0.0910264,0.0,0.0
592,147.75,52.0279,55.198,152.128,101.175,102.087,0.00664053,0.127647,20.8118,468.817,-0.0823304,0.0,0.0
594,148.25,51.7429,55.2894,150.334,101.162,102.023,0.00668055,0.127704,20.8118,468.797,-0.0778277,0.0,0.0
596,148.75,52.2422,55.2837,154.579,101.159,102.071,0.00672849,0.12775,20.8118,468.797,-0.0824209,0.0,0.0
598,149.25,51.9235,55.2589,148.845,101.166,102,0.00677364,0.127802,20.8118,468.827,-0.0753563,0.0,0.0
600,149.75,51.7943,55.351,152.557,101.153,102.577,0.00681021,0.127843,20.8118,468.807,-0.128274,0.0,0.0
602,150.25,51.8317,55.4208,150.979,101.15,102.108,0.00683604,0.127877,20.8118,468.777,-0.0864885,0.0,0.0
604,150.75,51.5139,55.0918,152.509,101.136,101.689,0.00685696,0.127752,20.8117,468.767,-0.049996,0.0,0.0
606,151.25,51.6878,54.397,153.403,101.124,102.282,0.00686887,0.12765,20.8117,468.767,-0.104499,0.0,0.0
608,151.75,51.6012,55.1892,151.695,101.122,101.909,0.00687394,0.127459,20.8117,468.747,-0.0710676,0.0,0.0
610,152.25,51.7924,55.0588,149.576,101.117,102.138,0.00688461,0.127205,20.8117,468.737,-0.0922136,0.0,0.0
612,152.75,51.9018,54.5473,151.94,101.099,102.204,0.00689505,0.126927,20.8122,468.727,-0.099734,0.0,0.0
614,153.25,51.4374,54.6558,153.412,101.099,101.868,0.0069035,0.126636,20.8125,468.717,-0.0695833,0.0,0.0
616,153.75,51.4923,55.113,151.078,101.084,101.827,0.00692549,0.126306,20.8128,468.707,-0.0672299,0.0,0.0
618,154.25,51.3823,54.6053,153.168,101.089,102.189,0.0069433,0.125953,20.813,468.757,-0.0992663,0.0,0.0
620,154.75,51.229,54.8399,150.809,101.089,102.175,0.00695773,0.125803,20.8132,468.757,-0.0981202,0.0,0.0
622,155.25,51.785,54.4602,150.481,101.062,101.954,0.00698962,0.125393,20.8134,468.757,-0.0805927,0.0,0.0
624,155.75,51.929,54.34,153.577,101.051,101.739,0.00701545,0.125062,20.8135,468.737,-0.0622318,0.0,0.0
626,156.25,51.3087,54.1189,147.113,101.056,101.889,0.00704301,0.124724,20.8136,468.737,-0.075348,0.0,0.0
628,156.75,51.518,54.723,152.707,101.04,102.263,0.00707133,0.12445,20.8141,468.727,-0.110328,0.0,0.0
630,157.25,51.3684,54.3437,153.34,101.047,102.21,0.00709227,0.124229,20.8146,468.747,-0.105079,0.0,0.0
632,157.75,51.1753,55.0282,152.826,101.025,101.983,0.00710744,0.123911,20.8149,468.727,-0.0865625,0.0,0.0
634,158.25,51.1187,54.1033,152.297,101.017,101.67,0.00710842,0.123654,20.8152,468.747,-0.0591998,0.0,0.0
636,158.75,50.8641,54.7427,150.552,101.005,102.029,0.00709905,0.123387,20.8154,468.737,-0.0925854,0.0,0.0
638,159.25,51.4939,54.0236,154.09,101.007,101.717,0.00707154,0.123118,20.8156,468.707,-0.0642254,0.0,0.0
640,159.75,51.1576,54.4281,152.129,101.011,101.915,0.00703132,0.122807,20.8157,468.717,-0.0818028,0.0,0.0
642,160.25,51.077,54.4111,149.115,100.996,102.333,0.00699874,0.122469,20.8163,468.707,-0.120686,0.0,0.0
644,160.75,51.2076,54.7641,149.568,100.987,101.847,0.00693985,0.122108,20.8167,468.707,-0.0778547,0.0,0.0
646,161.25,50.984,54.2726,150.667,100.991,101.643,0.0068629,0.121737,20.8174,468.717,-0.0590589,0.0,0.0
648,161.75,50.676,53.9297,156.605,100.979,101.652,0.00680057,0.121364,20.8179,468.697,-0.0609235,0.0,0.0
650,162.25,50.7716,53.2419,151.301,100.976,101.858,0.00674015,0.120997,20.8183,468.677,-0.0798335,0.0,0.0
652,162.75,51.0019,54.1017,153.179,100.968,101.729,0.00668226,0.120699,20.8191,468.707,-0.0688895,0.0,0.0
654,163.25,50.55,53.8173,152.301,100.962,101.909,0.00663934,0.120378,20.8198,468.697,-0.0856284,0.0,0.0
656,163.75,50.5112,53.9998,156.353,100.977,101.977,0.00660816,0.120046,20.8203,468.707,-0.090442,0.0,0.0
658,164.25,50.7706,53.9784,152.614,100.946,102.004,0.00659152,0.119778,20.8207,468.677,-0.0956329,0.0,0.0
660,164.75,50.5062,53.9049,151.499,100.956,101.793,0.00658579,0.119505,20.821,468.677,-0.0757749,0.0,0.0
662,165.25,50.9618,53.92,153.371,100.958,101.476,0.0065838,0.119284,20.8213,468.677,-0.0469274,0.0,0.0
664,165.75,50.8068,53.8848,151.234,100.949,102.059,0.00658457,0.119076,20.8215,468.697,-0.100416,0.0,0.0
666,166.25,50.6609,53.6064,153.423,100.947,101.687,0.0065852,0.118881,20.8217,468.687,-0.0669946,0.0,0.0
668,166.75,50.5256,53.8593,152.965,100.953,101.968,0.00658571,0.118723,20.8221,468.687,-0.0917479,0.0,0.0
670,167.25,51.0806,53.7746,153.768,100.925,101.935,0.00658612,0.118526,20.8226,468.657,-0.0913369,0.0,0.0
672,167.75,50.057,53.7428,151.194,100.932,101.63,0.00659024,0.118367,20.823,468.627,-0.0632545,0.0,0.0
674,168.25,50.6106,53.1929,155.581,100.94,101.819,0.00659357,0.118128,20.8233,468.677,-0.0796123,0.0,0.0
676,168.75,49.9071,53.5559,146.651,100.929,101.843,0.00659627,0.117934,20.8236,468.677,-0.0827713,0.0,0.0
678,169.25,50.4962,53.9244,148.084,100.911,101.798,0.00661861,0.117749,20.8238,468.667,-0.080233,0.0,0.0
680,169.75,50.0838,53.591,151.217,100.925,101.436,0.00663671,0.1176,20.824,468.677,-0.0463397,0.0,0.0
682,170.25,50.2132,53.1374,146.296,100.916,102.354,0.0066602,0.117457,20.8242,468.637,-0.129827,0.0,0.0
684,170.75,50.2254,53.4196,156.367,100.906,101.929,0.00667922,0.117322,20.8243,468.647,-0.0925141,0.0,0.0
686,171.25,50.3702,53.4919,151.888,100.904,102.378,0.00669084,0.117176,20.8244,468.667,-0.133087,0.0,0.0
688,171.75,50.2012,53.2051,153.984,100.902,102,0.00670026,0.117025,20.8244,468.687,-0.0992779,0.0,0.0
690,172.25,49.913,53.2672,150.048,100.905,101.84,0.00669529,0.116903,20.8247,468.667,-0.0846347,0.0,0.0
692,172.75,50.6446,53.1815,153.32,100.908,101.814,0.00669126,0.116694,20.8252,468.627,-0.0820793,0.0,0.0
694,173.25,50.3783,53.3464,154.585,100.9,101.93,0.00667162,0.116524,20.8255,468.637,-0.0932506,0.0,0.0
696,173.75,50.125,53.1453,152.575,100.894,101.897,0.00665571,0.116358,20.8258,468.627,-0.0907535,0.0,0.0
698,174.25,49.5813,53.0705,150.508,100.885,101.684,0.00663487,0.116197,20.8261,468.627,-0.0723045,0.0,0.0
700,174.75,50.3583,53.4682,154.674,100.897,101.502,0.00661083,0.116009,20.8263,468.617,-0.054775,0.0,0.0
702,175.25,50.3829,53.1489,150.392,100.881,102.07,0.00659136,0.115805,20.8264,468.597,-0.107557,0.0,0.0
704,175.75,49.2489,53.3394,153.285,100.886,101.699,0.00657227,0.115588,20.8265,468.597,-0.0736856,0.0,0.0
706,176.25,49.6428,52.9946,153.344,100.874,101.828,0.00655383,0.115367,20.8266,468.617,-0.0863036,0.0,0.0
708,176.75,49.7962,52.7138,148.389,100.885,101.948,0.00654685,0.115105,20.8267,468.637,-0.0961894,0.0,0.0
710,177.25,50.4435,52.3446,154.161,100.862,101.577,0.00654835,0.114894,20.8268,468.627,-0.0648269,0.0,0.0
712,177.75,49.3945,52.9076,152.723,100.872,101.659,0.00656017,0.114722,20.8268,468.647,-0.0713454,0.0,0.0
714,178.25,49.4464,52.8341,154.311,100.862,101.362,0.00657929,0.114514,20.8269,468.607,-0.0453838,0.0,0.0
716,178.75,49.8945,52.8488,151.452,100.868,101.627,0.00659478,0.114346,20.8269,468.627,-0.0688361,0.0,0.0
718,179.25,49.5599,53.2158,152.922,100.856,101.43,0.00661489,0.114181,20.827,468.617,-0.0520585,0.0,0.0
720,179.75,49.9037,52.7238,156.18,100.861,101.361,0.00663117,0.114021,20.827,468.617,-0.0453674,0.0,0.0
722,180.25,49.9371,52.8766,153.094,100.86,101.783,0.00663933,0.113891,20.827,468.597,-0.08364,0.0,0.0
724,180.75,49.6261,52.6783,152.478,100.873,101.529,0.00664593,0.113786,20.827,468.607,-0.0594624,0.0,0.0
726,181.25,49.6522,52.3324,149.914,100.873,101.515,0.0066349,0.113701,20.827,468.617,-0.0581787,0.0,0.0
728,181.75,49.2901,52.7032,150.441,100.902,101.774,0.00662597,0.113536,20.827,468.597,-0.0789469,0.0,0.0
730,182.25,49.6819,52.3193,153.659,100.888,101.782,0.00661873,0.113402,20.827,468.617,-0.08099,0.0,0.0
732,182.75,49.6105,52.6038,155.264,100.909,101.805,0.00658013,0.113225,20.8271,468.607,-0.0811351,0.0,0.0
734,183.25,49.3828,52.5551,154.064,100.923,102.184,0.00654887,0.113081,20.8273,468.597,-0.113903,0.0,0.0
736,183.75,49.222,51.801,151.397,100.952,101.61,0.00652355,0.112915,20.8277,468.617,-0.0595879,0.0,0.0
738,184.25,49.2216,52.5005,155.648,100.958,101.647,0.00649423,0.112734,20.8281,468.637,-0.0623293,0.0,0.0
740,184.75,49.3781,52.1932,151.615,100.981,101.628,0.00647048,0.112544,20.8284,468.637,-0.0586218,0.0,0.0
742,185.25,49.2128,52.7663,150.351,100.992,101.927,0.00644462,0.112351,20.8287,468.627,-0.0845381,0.0,0.0
744,185.75,49.6701,53.2431,150.618,101,101.623,,0.112195,,468.637,-0.0564787,0.0,0.0
746,186.25,49.0366,52.8738,149.458,101.001,101.477,,0.112069,,468.627,-0.043086,0.0,0.0
748,186.75,48.9906,52.6774,154.963,101.02,102.147,,0.111966,,468.607,-0.10182,0.0,0.0
750,187.25,49.4447,52.4678,152.207,101.027,101.449,,0.111883,,468.587,-0.038206,0.0,0.0
752,187.75,49.6324,52.509,154.386,101.043,101.544,,0.111765,,468.617,-0.0453646,0.0,0.0
754,188.25,48.8886,52.8266,151.503,101.056,101.576,,0.111624,,468.597,-0.0470901,0.0,0.0
756,188.75,49.2483,52.6644,150.11,101.091,101.561,,,,468.617,-0.0425355,0.0,0.0
758,189.25,48.5544,52.0813,150.423,101.089,101.655,,,,468.567,-0.0512395,0.0,0.0
760,189.75,49.1088,52.5872,149.073,101.117,101.756,,,,468.557,-0.0577544,0.0,0.0
762,190.25,49.295,51.6406,156.913,101.122,101.802,,,,468.536,-0.061549,0.0,0.0
764,190.75,49.0042,52.5035,153.702,101.155,102.008,,,,468.526,-0.0770119,0.0,0.0
766,191.25,48.9157,52.7267,151.221,101.151,101.642,,,,468.536,-0.0444478,0.0,0.0
768,191.75,49.1234,51.9005,148.409,101.175,102.1,,,,468.526,-0.0834778,0.0,0.0
770,192.25,49.0885,51.65,159.178,101.187,101.769,,,,468.526,-0.0526234,0.0,0.0
772,192.75,48.8693,51.96,152.399,101.195,101.712,,,,468.516,-0.0467999,0.0,0.0
774,193.25,49.1857,52.1547,149.291,101.202,102.51,,,,468.536,-0.117806,0.0,0.0
776,193.75,48.7194,52.0614,152.213,101.223,101.876,,,,468.516,-0.0590143,0.0,0.0
778,194.25,48.2773,51.7946,151.065,101.23,101.93,,,,468.526,-0.0632655,0.0,0.0
780,194.75,48.6056,51.8637,158.373,101.236,101.762,,,,468.547,-0.0474992,0.0,0.0
782,195.25,49.3214,51.5813,152.444,101.254,101.756,,,,468.577,-0.0453899,0.0,0.0
784,195.75,48.5539,51.8003,154.281,101.26,102.296,,,,468.567,-0.0934379,0.0,0.0
786,196.25,48.4544,51.9116,149.028,101.275,102.178,,,,468.547,-0.0814971,0.0,0.0