File: 01_Data/Polyolefin_Carpet_Low_Pile/STA/N2/30K_min/Polyolefin_Carpet_Low_Pile_STA_N2_30KData_220403_R2.csv
##Temp./Â°C,Time/min,DSC(subtr.2)/mW,Mass loss(subtr.2)/mg,Sensit./(uV/mW)
48.82,10.00667,0.02242184,-0.00614,1.08887
49.52,10.554,0.21701,-0.00698192,1.08828
50.22,10.67746,0.36599,-0.007724283,1.08769
50.92,10.76645,0.49511,-0.00727336,1.0871
51.62,10.83868,0.62274,-0.0041246,1.08651
52.32,10.90161,0.73832,-0.00608234,1.08593
53.02,10.95801,0.84012,-0.006672585,1.08534
53.72,11.0097,0.94021,-0.00913137,1.08475
54.42,11.05724,1.02817,-0.00583697,1.08417
55.12,11.102,1.10874,-0.005036377,1.08358
55.82,11.14433,1.19976,-0.006733445,1.083
56.52,11.1847,1.27461,-0.005866218,1.08242
57.22,11.22378,1.34733,-0.006272545,1.08184
57.92,11.2613,1.41807,-0.006879995,1.08126
58.62,11.2972,1.48418,-0.00659694,1.08068
59.32,11.3321,1.55245,-0.00661281,1.0801
60.02,11.36617,1.60672,-0.006288155,1.07952
60.72,11.39942,1.67097,-0.00700395,1.07894
61.42,11.43213,1.72624,-0.00670657,1.07836
62.12,11.4638,1.77412,-0.00607088,1.07779
62.82,11.49506,1.82972,-0.007162243,1.07721
63.52,11.52588,1.88335,-0.006185072,1.07664
64.22,11.55601,1.93407,-0.006499043,1.07607
64.92,11.58575,1.97998,-0.006612282,1.07549
65.62,11.61505,2.02206,-0.006872275,1.07492
66.32,11.64403,2.06208,-0.0068582,1.07435
67.02,11.67255,2.10884,-0.007838361,1.07378
67.72,11.70083,2.1484,-0.007526054,1.07321
68.42,11.72869,2.18919,-0.00673554,1.07265
69.12,11.75649,2.21138,-0.006362982,1.07208
69.82,11.78398,2.24421,-0.006046623,1.07151
70.52,11.81172,2.28292,-0.005512286,1.07095
71.22,11.83889,2.31249,-0.004861637,1.07038
71.92,11.86581,2.34204,-0.00371647,1.06982
72.62,11.89264,2.37074,-0.003556449,1.06925
73.32,11.91927,2.39657,-0.003544,1.06869
74.02,11.94566,2.41932,-0.003314164,1.06813
74.72,11.97203,2.44098,-0.004028987,1.06757
75.42,11.99804,2.46415,-0.004963106,1.06701
76.12,12.02399,2.49574,-0.004392232,1.06645
76.82,12.0497,2.51141,-0.00351694,1.06589
77.52,12.0755,2.53128,-0.003643436,1.06534
78.22,12.10117,2.54925,-0.00411869,1.06478
78.92,12.1267,2.56933,-0.003842145,1.06422
79.62,12.15222,2.59511,-0.00431324,1.06367
80.32,12.17751,2.60662,-0.004562064,1.06312
81.02,12.20278,2.62285,-0.003435347,1.06256
81.72,12.2279,2.64472,-0.003420308,1.06201
82.42,12.25301,2.65349,-0.004929817,1.06146
83.12,12.27795,2.67941,-0.00516798,1.06091
83.82,12.3028,2.68855,-0.006463939,1.06036
84.52,12.32748,2.70088,-0.005087839,1.05981
85.22,12.3521,2.71743,-0.00511785,1.05926
85.92,12.3767,2.73011,-0.005303987,1.05872
86.62,12.40132,2.74443,-0.00644684,1.05817
87.32,12.42583,2.75712,-0.006449311,1.05762
88.02,12.45021,2.77025,-0.006517013,1.05708
88.72,12.47453,2.78622,-0.005985983,1.05654
89.42,12.49877,2.80157,-0.006332096,1.05599
90.12,12.5231,2.8054,-0.006735486,1.05545
90.82,12.5473,2.82218,-0.00669992,1.05491
91.52,12.57158,2.83978,-0.006746146,1.05437
92.22,12.59565,2.84831,-0.00594366,1.05383
92.92,12.61962,2.85193,-0.006689165,1.05329
93.62,12.64352,2.87004,-0.006411046,1.05275
94.32,12.66742,2.88652,-0.006418737,1.05222
95.02,12.69125,2.88514,-0.005858729,1.05168
95.72,12.71513,2.91012,-0.006676029,1.05114
96.42,12.73901,2.91578,-0.006690127,1.05061
97.12,12.763,2.92983,-0.006701839,1.05008
97.82,12.78679,2.91961,-0.00801494,1.04954
98.52,12.81064,2.94016,-0.006890025,1.04901
99.22,12.83435,2.95118,-0.00675011,1.04848
99.92,12.85802,2.95475,-0.007584813,1.04795
100.62,12.88165,2.96371,-0.00669547,1.04742
101.32,12.90532,2.97677,-0.00696822,1.04689
102.02,12.92906,2.98505,-0.006699475,1.04636
102.72,12.95279,2.98852,-0.0066688,1.04584
103.42,12.9764,2.99592,-0.008013377,1.04531
104.12,13.0,3.01149,-0.006690054,1.04478
104.82,13.0236,3.01853,-0.006983985,1.04426
105.52,13.0471,3.02843,-0.00801164,1.04373
106.22,13.07057,3.02669,-0.007690299,1.04321
106.92,13.09412,3.04181,-0.00669787,1.04269
107.62,13.1177,3.04207,-0.006700032,1.04217
108.32,13.1413,3.04952,-0.006698635,1.04165
109.02,13.1648,3.05731,-0.007125787,1.04113
109.72,13.1884,3.07774,-0.008013441,1.04061
110.42,13.2119,3.08292,-0.008005617,1.04009
111.12,13.2353,3.08809,-0.00687288,1.03957
111.82,13.25889,3.10191,-0.00668931,1.03906
112.52,13.28232,3.10963,-0.006643709,1.03854
113.22,13.3058,3.1175,-0.006751271,1.03803
113.92,13.3292,3.12508,-0.006691273,1.03751
114.62,13.35271,3.12943,-0.006689996,1.037
115.32,13.3762,3.1382,-0.006690002,1.03649
116.02,13.39949,3.13416,-0.00668996,1.03597
116.72,13.4228,3.14601,-0.00667417,1.03546
117.42,13.44612,3.15245,-0.00799008,1.03495
118.12,13.4694,3.1496,-0.007995756,1.03444
118.82,13.4927,3.16462,-0.00707816,1.03393
119.52,13.5159,3.15583,-0.006688905,1.03343
120.22,13.53921,3.1673,-0.00667932,1.03292
120.92,13.5625,3.15279,-0.008028923,1.03241
121.62,13.5857,3.15917,-0.008009035,1.03191
122.32,13.6089,3.16121,-0.008553102,1.0314
123.02,13.6321,3.16527,-0.009328121,1.0309
123.72,13.6553,3.16323,-0.009330054,1.0304
124.42,13.67845,3.15848,-0.00932391,1.02989
125.12,13.70155,3.16508,-0.008647213,1.02939
125.82,13.7246,3.15971,-0.008675322,1.02889
126.52,13.7477,3.15934,-0.00796322,1.02839
127.22,13.7707,3.17001,-0.008795483,1.02789
127.92,13.79362,3.1679,-0.009540485,1.0274
128.62,13.8165,3.16311,-0.00954005,1.0269
129.32,13.83946,3.17916,-0.009537878,1.0264
130.02,13.86245,3.1867,-0.008385575,1.02591
130.72,13.88551,3.20229,-0.00822953,1.02541
131.42,13.90841,3.21261,-0.00822998,1.02492
132.12,13.93118,3.22405,-0.008231226,1.02442
132.82,13.95394,3.24133,-0.008269739,1.02393
133.52,13.9767,3.24751,-0.008170108,1.02344
134.22,13.99954,3.27216,-0.008230174,1.02295
134.92,14.0223,3.29169,-0.008239367,1.02246
135.62,14.04505,3.30399,-0.00943699,1.02197
136.32,14.0677,3.32175,-0.00956108,1.02148
137.02,14.09041,3.35049,-0.01087828,1.02099
137.72,14.11294,3.37393,-0.01056322,1.0205
138.42,14.1357,3.38092,-0.00955489,1.02002
139.12,14.1583,3.41384,-0.00954995,1.01953
139.82,14.18109,3.44278,-0.009549999,1.01904
140.52,14.2035,3.47187,-0.00955,1.01856
141.22,14.226,3.49952,-0.00955,1.01808
141.92,14.24838,3.52452,-0.00955,1.01759
142.62,14.27099,3.55876,-0.009549998,1.01711
143.32,14.29349,3.60912,-0.009549989,1.01663
144.02,14.316,3.65047,-0.009561191,1.01615
144.72,14.3385,3.68807,-0.01077908,1.01567
145.42,14.36101,3.73842,-0.01086933,1.01519
146.12,14.38347,3.78445,-0.01087002,1.01471
146.82,14.40584,3.8382,-0.01087,1.01424
147.52,14.42816,3.90474,-0.01087,1.01376
148.22,14.45041,3.97205,-0.01087027,1.01328
148.92,14.47269,4.0351,-0.01086328,1.01281
149.62,14.495,4.11121,-0.009494628,1.01233
150.32,14.51736,4.2042,-0.01078478,1.01186
151.02,14.53975,4.3,-0.01086009,1.01139
151.72,14.56209,4.39512,-0.01086001,1.01092
152.42,14.5844,4.5171,-0.01086,1.01044
153.12,14.60644,4.63517,-0.01086,1.00997
153.82,14.62875,4.7804,-0.01086,1.0095
154.52,14.651,4.92977,-0.01086,1.00903
155.22,14.67341,5.08622,-0.01086,1.00857
155.92,14.6957,5.25543,-0.01086,1.0081
156.62,14.71796,5.421,-0.01086,1.00763
157.32,14.74024,5.59526,-0.01086,1.00716
158.02,14.7624,5.78266,-0.01086,1.0067
158.72,14.78465,5.9741,-0.01086,1.00623
159.42,14.80695,6.1577,-0.01086007,1.00577
160.12,14.8292,6.34017,-0.0108202,1.00531
160.82,14.8514,6.52451,-0.01221004,1.00484
161.52,14.8733,6.69967,-0.01218,1.00438
162.22,14.8956,6.85066,-0.01217999,1.00392
162.92,14.91774,6.97757,-0.01218,1.00346
163.62,14.94016,7.08149,-0.01218,1.003
164.32,14.96248,7.12669,-0.01218,1.00254
165.02,14.9846,7.10197,-0.01218,1.00208
165.72,15.00678,7.01633,-0.01218,1.00163
166.42,15.0289,6.87168,-0.01217991,1.00117
167.12,15.05105,6.67233,-0.01218658,1.00071
167.82,15.0732,6.43433,-0.01282981,1.00026
168.52,15.09525,6.17079,-0.01272184,0.9998
169.22,15.1173,5.91791,-0.01413398,0.99935
169.92,15.13935,5.67075,-0.01414764,0.99889
170.62,15.1614,5.44102,-0.01305095,0.99844
171.32,15.18336,5.23266,-0.01283003,0.99799
172.02,15.2052,5.05009,-0.01261057,0.99754
172.72,15.22715,4.87539,-0.01152195,0.99709
173.42,15.249,4.721,-0.01152003,0.99664
174.12,15.27091,4.58917,-0.01151059,0.99619
174.82,15.2927,4.47509,-0.01118427,0.99574
175.52,15.3146,4.37564,-0.01118986,0.99529
176.22,15.33636,4.29136,-0.01118977,0.99485
176.92,15.3581,4.21025,-0.01120327,0.9944
177.62,15.37985,4.14686,-0.01250304,0.99395
178.32,15.40161,4.09527,-0.01254809,0.99351
179.02,15.42332,4.0598,-0.01383818,0.99306
179.72,15.44503,4.01268,-0.01381982,0.99262
180.42,15.46667,3.9678,-0.01382,0.99218
181.12,15.48838,3.94101,-0.01382,0.99173
181.82,15.51,3.91154,-0.01382,0.99129
182.52,15.5316,3.89849,-0.01382,0.99085
183.22,15.5533,3.87861,-0.01382,0.99041
183.92,15.5749,3.85631,-0.01381937,0.98997
184.62,15.59655,3.84235,-0.01392202,0.98953
185.32,15.6182,3.83351,-0.01515031,0.98909
186.02,15.63981,3.82455,-0.01513998,0.98866
186.72,15.66133,3.80852,-0.01513947,0.98822
187.42,15.6829,3.81129,-0.01519985,0.98778
188.12,15.7044,3.7951,-0.01449297,0.98735
188.82,15.72601,3.79826,-0.01447994,0.98691
189.52,15.7476,3.80323,-0.01448,0.98648
190.22,15.76914,3.80173,-0.01448,0.98605
190.92,15.7907,3.79557,-0.01447999,0.98561
191.62,15.81215,3.79531,-0.01448028,0.98518
192.32,15.8336,3.80721,-0.01448421,0.98475
193.02,15.8551,3.81028,-0.01581741,0.98432
193.72,15.8765,3.80314,-0.01579968,0.98389
194.42,15.898,3.81033,-0.01579866,0.98346
195.12,15.9194,3.80793,-0.01583113,0.98303
195.82,15.941,3.81984,-0.01513805,0.9826
196.52,15.96255,3.82252,-0.01490199,0.98217
197.22,15.98405,3.82484,-0.01447601,0.98174
197.92,16.00545,3.82497,-0.01448011,0.98132
198.62,16.0269,3.83311,-0.01448096,0.98089
199.32,16.0483,3.82542,-0.01581891,0.98047
200.02,16.06972,3.83308,-0.01711866,0.98004
200.72,16.09117,3.84302,-0.01712002,0.97962
201.42,16.1126,3.83626,-0.01712,0.97919
202.12,16.134,3.84989,-0.01711993,0.97877
202.82,16.15546,3.84965,-0.01713207,0.97835
203.52,16.17687,3.85923,-0.01589792,0.97793
204.22,16.1983,3.86397,-0.01579931,0.9775
204.92,16.2197,3.8589,-0.0158,0.97708
205.62,16.24106,3.8661,-0.01580001,0.97666
206.32,16.2625,3.86523,-0.01579898,0.97625
207.02,16.28387,3.86966,-0.01593511,0.97583
207.72,16.3052,3.87475,-0.01712803,0.97541
208.42,16.3266,3.88199,-0.01712001,0.97499
209.12,16.348,3.88259,-0.01714862,0.97457
209.82,16.3694,3.89134,-0.01844894,0.97416
210.52,16.39078,3.8834,-0.01842972,0.97374
211.22,16.41209,3.89945,-0.01843,0.97333
211.92,16.43344,3.88871,-0.01843,0.97291
212.62,16.45475,3.9005,-0.01843,0.9725
213.32,16.4761,3.90643,-0.01843,0.97209
214.02,16.49747,3.90083,-0.01843,0.97167
214.72,16.51878,3.9109,-0.01842999,0.97126
215.42,16.54007,3.92061,-0.01842998,0.97085
216.12,16.56137,3.91307,-0.01845844,0.97044
216.82,16.5827,3.9269,-0.01778876,0.97003
217.52,16.6041,3.92982,-0.01776972,0.96962
218.22,16.6254,3.93267,-0.01777,0.96921
218.92,16.64679,3.92893,-0.01776997,0.9688
219.62,16.66805,3.94614,-0.01779107,0.96839
220.32,16.68935,3.94464,-0.01640898,0.96799
221.02,16.71063,3.93823,-0.01646079,0.96758
221.72,16.7319,3.95734,-0.01646001,0.96717
222.42,16.75315,3.95609,-0.0164598,0.96677
223.12,16.77444,3.94943,-0.01688045,0.96636
223.82,16.79566,3.9638,-0.0177649,0.96596
224.52,16.81694,3.96056,-0.01777008,0.96555
225.22,16.83824,3.97481,-0.0177703,0.96515
225.92,16.85953,3.98039,-0.01776394,0.96475
226.62,16.88082,3.98124,-0.01875046,0.96434
227.32,16.9021,3.98072,-0.01876031,0.96394
228.02,16.92322,3.98909,-0.01875999,0.96354
228.72,16.94444,3.98257,-0.01876,0.96314
229.42,16.96561,3.98153,-0.01876,0.96274
230.12,16.98688,3.98712,-0.01876,0.96234
230.82,17.00809,3.99106,-0.01876,0.96194
231.52,17.02929,3.99521,-0.01876,0.96154
232.22,17.05045,3.9975,-0.01876,0.96114
232.92,17.07164,4.01415,-0.01875991,0.96074
233.62,17.09281,4.01105,-0.01876205,0.96035
234.32,17.114,4.00943,-0.01806667,0.95995
235.02,17.13521,4.01614,-0.0181013,0.95955
235.72,17.15644,4.01543,-0.01809998,0.95916
236.42,17.17772,4.01998,-0.0181,0.95876
237.12,17.19894,4.02221,-0.0181,0.95837
237.82,17.2201,4.02101,-0.0181,0.95797
238.52,17.24129,4.03354,-0.0181,0.95758
239.22,17.2624,4.03155,-0.0181,0.95719
239.92,17.28361,4.03189,-0.0181,0.9568
240.62,17.30481,4.0423,-0.01810007,0.9564
241.32,17.32602,4.03977,-0.01809824,0.95601
242.02,17.34724,4.03727,-0.0188313,0.95562
242.72,17.36841,4.03976,-0.01942343,0.95523
243.42,17.38962,4.04279,-0.01941876,0.95484
244.12,17.41078,4.05305,-0.01956835,0.95445
244.82,17.4319,4.05654,-0.02073841,0.95406
245.52,17.45305,4.06097,-0.02071786,0.95367
246.22,17.47418,4.06036,-0.02204397,0.95328
246.92,17.49535,4.0582,-0.02067915,0.9529
247.62,17.51651,4.06291,-0.02073096,0.95251
248.32,17.5376,4.06461,-0.02072999,0.95212
249.02,17.5587,4.06327,-0.02073,0.95174
249.72,17.57984,4.06348,-0.02073,0.95135
250.42,17.6009,4.06761,-0.020729,0.95097
251.12,17.62215,4.05974,-0.02087819,0.95058
251.82,17.64326,4.06646,-0.02202708,0.9502
252.52,17.66439,4.0667,-0.02204018,0.94981
253.22,17.68552,4.08232,-0.02204,0.94943
253.92,17.70672,4.07333,-0.02204,0.94905
254.62,17.7279,4.07149,-0.02204,0.94866
255.32,17.74907,4.0799,-0.02204002,0.94828
256.02,17.77019,4.07159,-0.02203887,0.9479
256.72,17.79127,4.07871,-0.0220991,0.94752
257.42,17.81237,4.07912,-0.02105548,0.94714
258.12,17.83352,4.0692,-0.02105999,0.94676
258.82,17.85471,4.09052,-0.02106,0.94638
259.52,17.87586,4.08378,-0.02106,0.946
260.22,17.8968,4.08611,-0.02106,0.94562
260.92,17.9179,4.09033,-0.02106,0.94524
261.62,17.93903,4.09688,-0.02106,0.94486
262.32,17.96014,4.08974,-0.02106,0.94449
263.02,17.98134,4.10381,-0.02105999,0.94411
263.72,18.00242,4.09085,-0.02106072,0.94373
264.42,18.02358,4.09303,-0.02100977,0.94335
265.12,18.04467,4.09432,-0.02241131,0.94298
265.82,18.0658,4.09821,-0.02237979,0.9426
266.52,18.0869,4.10446,-0.02238033,0.94223
267.22,18.10789,4.09614,-0.02282123,0.94185
267.92,18.129,4.10437,-0.0236848,0.94148
268.62,18.15011,4.09902,-0.02369009,0.9411
269.32,18.17137,4.10152,-0.02369,0.94073
270.02,18.1925,4.10287,-0.02369,0.94036
270.72,18.2137,4.11358,-0.02369001,0.93998
271.42,18.2348,4.11246,-0.02368841,0.93961
272.12,18.25582,4.11058,-0.02386863,0.93924
272.82,18.27691,4.10842,-0.02498835,0.93887
273.52,18.29805,4.11221,-0.02465932,0.9385
274.22,18.3192,4.11442,-0.02468015,0.93813
274.92,18.3403,4.11512,-0.02468,0.93776
275.62,18.36145,4.1282,-0.02468,0.93739
276.32,18.3826,4.11931,-0.02468,0.93702
277.02,18.4038,4.11569,-0.02468,0.93665
277.72,18.42499,4.12048,-0.02468,0.93628
278.42,18.44608,4.12156,-0.02468006,0.93591
279.12,18.4672,4.12896,-0.02468367,0.93554
279.82,18.4883,4.12918,-0.02402429,0.93517
280.52,18.5095,4.11907,-0.02371003,0.93481
281.22,18.53064,4.12946,-0.02369608,0.93444
281.92,18.55179,4.13254,-0.02416987,0.93407
282.62,18.5727,4.13195,-0.02500768,0.93371
283.32,18.59359,4.14664,-0.02500999,0.93334
284.02,18.61474,4.14235,-0.02501,0.93297
284.72,18.63599,4.13852,-0.02501,0.93261
285.42,18.6574,4.1431,-0.02500974,0.93224
286.12,18.67875,4.14634,-0.02502085,0.93188
286.82,18.69989,4.14015,-0.02631494,0.93151
287.52,18.72106,4.14774,-0.02634222,0.93115
288.22,18.74221,4.14208,-0.02765874,0.93079
288.92,18.76335,4.14514,-0.02763966,0.93042
289.62,18.78445,4.14147,-0.02764,0.93006
290.32,18.80559,4.14859,-0.02764005,0.9297
291.02,18.82679,4.15231,-0.02764041,0.92934
291.72,18.8479,4.15385,-0.02845324,0.92897
292.42,18.86915,4.15536,-0.02896382,0.92861
293.12,18.8903,4.16087,-0.02895902,0.92825
293.82,18.91142,4.15961,-0.02900591,0.92789
294.52,18.93259,4.1568,-0.02751686,0.92753
295.22,18.95368,4.1486,-0.0275299,0.92717
295.92,18.9747,4.15963,-0.02753214,0.92681
296.62,18.99588,4.17012,-0.02809804,0.92645
297.32,19.01707,4.16005,-0.02895297,0.92609
298.02,19.0384,4.16482,-0.02896093,0.92573
298.72,19.05965,4.17116,-0.02894559,0.92537
299.42,19.08083,4.17026,-0.03026188,0.92501
300.12,19.102,4.16608,-0.03027026,0.92465
300.82,19.12311,4.16399,-0.03027,0.92429
301.52,19.14422,4.16897,-0.03027,0.92394
302.22,19.1654,4.17139,-0.03027,0.92358
302.92,19.1865,4.16589,-0.03027,0.92322
303.62,19.20774,4.1721,-0.03027,0.92286
304.32,19.22888,4.17057,-0.03027,0.92251
305.02,19.25003,4.16696,-0.03026998,0.92215
305.72,19.27125,4.16841,-0.03027098,0.9218
306.42,19.29245,4.16569,-0.0302382,0.92144
307.12,19.3137,4.17221,-0.03158589,0.92108
307.82,19.33486,4.17032,-0.0316862,0.92073
308.52,19.35609,4.17386,-0.0328961,0.92037
309.22,19.37729,4.1735,-0.03290995,0.92002
309.92,19.39852,4.17921,-0.03292184,0.91966
310.62,19.4197,4.18042,-0.03420551,0.91931
311.32,19.4409,4.16989,-0.03421939,0.91895
312.02,19.46205,4.16825,-0.03422002,0.9186
312.72,19.48325,4.17027,-0.03422,0.91825
313.42,19.5044,4.17314,-0.03422,0.91789
314.12,19.52562,4.15954,-0.03422,0.91754
314.82,19.54681,4.16848,-0.03422,0.91719
315.52,19.568,4.16881,-0.03422,0.91684
316.22,19.5892,4.16318,-0.03422,0.91648
316.92,19.61042,4.17582,-0.03421998,0.91613
317.62,19.63162,4.17211,-0.03422089,0.91578
318.32,19.65266,4.16652,-0.03419433,0.91543
319.02,19.6737,4.17614,-0.03553629,0.91508
319.72,19.69493,4.17736,-0.03551572,0.91472
320.42,19.7163,4.17075,-0.03691123,0.91437
321.12,19.7378,4.16735,-0.03685932,0.91402
321.82,19.75904,4.16803,-0.03686001,0.91367
322.52,19.78032,4.16126,-0.03686,0.91332
323.22,19.80155,4.17316,-0.03686003,0.91297
323.92,19.82283,4.16882,-0.03685698,0.91262
324.62,19.8441,4.16327,-0.03720201,0.91227
325.32,19.86536,4.17303,-0.03816465,0.91192
326.02,19.88665,4.16551,-0.03817,0.91157
326.72,19.90796,4.17089,-0.03817001,0.91122
327.42,19.9293,4.1738,-0.03816887,0.91087
328.12,19.95056,4.16637,-0.03831163,0.91052
328.82,19.97184,4.17414,-0.04034923,0.91017
329.52,19.9931,4.16072,-0.04081057,0.90983
330.22,20.01441,4.17406,-0.04188558,0.90948
330.92,20.03569,4.172,-0.04213137,0.90913
331.62,20.05698,4.16039,-0.04212997,0.90878
332.32,20.0783,4.16859,-0.04213029,0.90843
333.02,20.0995,4.17609,-0.04212375,0.90808
333.72,20.1208,4.17347,-0.04113058,0.90774
334.42,20.14206,4.16788,-0.04113949,0.90739
335.12,20.16341,4.1776,-0.04124681,0.90704
335.82,20.18481,4.16471,-0.04246063,0.9067
336.52,20.2061,4.1677,-0.04244995,0.90635
337.22,20.2275,4.1667,-0.04245,0.906
337.92,20.24881,4.15906,-0.04245,0.90565
338.62,20.27015,4.16427,-0.04245006,0.90531
339.32,20.29148,4.16633,-0.04244693,0.90496
340.02,20.31281,4.15451,-0.04303484,0.90462
340.72,20.3342,4.1605,-0.04400962,0.90427
341.42,20.35558,4.16345,-0.04554492,0.90392
342.12,20.37696,4.16098,-0.04581511,0.90358
342.82,20.39836,4.16031,-0.04683399,0.90323
343.52,20.41969,4.15993,-0.0468269,0.90289
344.22,20.4409,4.15947,-0.0481514,0.90254
344.92,20.46227,4.16246,-0.04816708,0.90219
345.62,20.48365,4.16689,-0.0495372,0.90185
346.32,20.50516,4.15538,-0.05078551,0.9015
347.02,20.5266,4.15947,-0.05078989,0.90116
347.72,20.54808,4.166,-0.05162593,0.90081
348.42,20.56942,4.16321,-0.05211061,0.90047
349.12,20.59083,4.1476,-0.05246611,0.90012
349.82,20.61221,4.16673,-0.05341555,0.89978
350.52,20.63365,4.16353,-0.05341968,0.89944
351.22,20.6551,4.16489,-0.05353397,0.89909
351.92,20.6765,4.16346,-0.05472679,0.89875
352.62,20.6979,4.16145,-0.05474017,0.8984
353.32,20.71924,4.17119,-0.05474,0.89806
354.02,20.7407,4.1681,-0.05474019,0.89771
354.72,20.76212,4.17578,-0.05470692,0.89737
355.42,20.7836,4.16818,-0.05610591,0.89703
356.12,20.80506,4.1684,-0.0560641,0.89668
356.82,20.82649,4.1785,-0.05702452,0.89634
357.52,20.8479,4.17169,-0.05737134,0.89599
358.22,20.8693,4.18225,-0.05817679,0.89565
358.92,20.89079,4.17855,-0.05966802,0.89531
359.62,20.91229,4.18044,-0.06055654,0.89496
360.32,20.9338,4.18298,-0.06109499,0.89462
361.02,20.95521,4.18371,-0.06245959,0.89428
361.72,20.9767,4.18331,-0.06241389,0.89393
362.42,20.9982,4.191,-0.06322593,0.89359
363.12,21.01963,4.19045,-0.06372981,0.89325
363.82,21.04111,4.20412,-0.06379507,0.8929
364.52,21.06263,4.2026,-0.06503057,0.89256
365.22,21.08419,4.19837,-0.06577731,0.89222
365.92,21.1057,4.20171,-0.0667171,0.89187
366.62,21.12732,4.21144,-0.0680169,0.89153
367.32,21.1488,4.21148,-0.0695757,0.89119
368.02,21.17035,4.21634,-0.07069337,0.89085
368.72,21.19187,4.22004,-0.07097638,0.8905
369.42,21.2134,4.24012,-0.07195757,0.89016
370.12,21.23496,4.23993,-0.07225927,0.88982
370.82,21.25641,4.23797,-0.07390625,0.88947
371.52,21.27796,4.2463,-0.07543285,0.88913
372.22,21.29954,4.2574,-0.0769342,0.88879
372.92,21.3212,4.26494,-0.07852522,0.88845
373.62,21.34275,4.26037,-0.07952627,0.8881
374.32,21.36431,4.27987,-0.08098538,0.88776
375.02,21.38591,4.2886,-0.08271319,0.88742
375.72,21.4075,4.30199,-0.08348912,0.88707
376.42,21.42911,4.30853,-0.0843007,0.88673
377.12,21.4507,4.32384,-0.08600052,0.88639
377.82,21.47227,4.33667,-0.08749422,0.88605
378.52,21.49384,4.34633,-0.08826495,0.8857
379.22,21.51538,4.35641,-0.08961117,0.88536
379.92,21.5369,4.36817,-0.09090099,0.88502
380.62,21.5585,4.38217,-0.09241414,0.88467
381.32,21.5801,4.40264,-0.09421957,0.88433
382.02,21.6018,4.40923,-0.09640869,0.88399
382.72,21.62339,4.42242,-0.0981963,0.88365
383.42,21.64506,4.44764,-0.09991189,0.8833
384.12,21.66668,4.45516,-0.10179,0.88296
384.82,21.68832,4.47868,-0.10386,0.88262
385.52,21.71,4.49165,-0.10593,0.88227
386.22,21.73164,4.51575,-0.10799,0.88193
386.92,21.75328,4.53124,-0.11012,0.88159
387.62,21.77498,4.55138,-0.11208,0.88124
388.32,21.79665,4.56731,-0.11365,0.8809
389.02,21.8184,4.59775,-0.11515,0.88056
389.72,21.84001,4.61899,-0.11671,0.88021
390.42,21.86165,4.63364,-0.11887,0.87987
391.12,21.8833,4.65549,-0.12135,0.87953
391.82,21.90501,4.67961,-0.12387,0.87918
392.52,21.92674,4.70005,-0.12703,0.87884
393.22,21.94845,4.72996,-0.13038,0.8785
393.92,21.97019,4.75767,-0.13315,0.87815
394.62,21.99188,4.78324,-0.13561,0.87781
395.32,22.0136,4.80223,-0.13779,0.87747
396.02,22.03533,4.83569,-0.14072,0.87712
396.72,22.05709,4.86451,-0.14456,0.87678
397.42,22.07886,4.89602,-0.14655,0.87643
398.12,22.1006,4.92663,-0.14752,0.87609
398.82,22.12236,4.96705,-0.15013,0.87575
399.52,22.14416,5.00941,-0.15497,0.8754
400.22,22.16593,5.03589,-0.1594,0.87506
400.92,22.18776,5.07373,-0.16344,0.87471
401.62,22.20955,5.10507,-0.16601,0.87437
402.32,22.23135,5.14126,-0.16948,0.87402
403.02,22.25316,5.16763,-0.17424,0.87368
403.72,22.2749,5.22086,-0.17744,0.87333
404.42,22.2967,5.25582,-0.18114,0.87299
405.12,22.3185,5.30329,-0.18529,0.87264
405.82,22.34029,5.32681,-0.18858,0.8723
406.52,22.36206,5.3703,-0.19264,0.87195
407.22,22.38385,5.42022,-0.19755,0.87161
407.92,22.40564,5.45749,-0.20148,0.87126
408.62,22.42742,5.4954,-0.20535,0.87092
409.32,22.44926,5.54259,-0.20985,0.87057
410.02,22.4711,5.5801,-0.21393,0.87023
410.72,22.493,5.61847,-0.21823,0.86988
411.42,22.51478,5.66048,-0.22354,0.86953
412.12,22.53656,5.71101,-0.22869,0.86919
412.82,22.55839,5.75258,-0.23295,0.86884
413.52,22.58023,5.7913,-0.23733,0.8685
414.22,22.60204,5.84241,-0.24254,0.86815
414.92,22.6239,5.88311,-0.24787,0.8678
415.62,22.64575,5.92862,-0.25382,0.86746
416.32,22.66762,5.97239,-0.25909,0.86711
417.02,22.68955,6.0125,-0.26396,0.86676
417.72,22.7115,6.06143,-0.26925,0.86641
418.42,22.73341,6.10573,-0.27523,0.86607
419.12,22.75532,6.14808,-0.28102,0.86572
419.82,22.7772,6.19357,-0.28663,0.86537
420.52,22.7991,6.22124,-0.29219,0.86502
421.22,22.82108,6.26822,-0.29834,0.86467
421.92,22.843,6.3107,-0.30437,0.86433
422.62,22.86496,6.34695,-0.3107,0.86398
423.32,22.8869,6.40978,-0.31772,0.86363
424.02,22.90883,6.45836,-0.32456,0.86328
424.72,22.9305,6.49786,-0.3311,0.86293
425.42,22.95239,6.5478,-0.33703,0.86258
426.12,22.97428,6.58659,-0.34314,0.86223
426.82,22.9963,6.62952,-0.34952,0.86188
427.52,23.01837,6.66391,-0.35556,0.86153
428.22,23.04034,6.70833,-0.36219,0.86118
428.92,23.06231,6.74902,-0.36972,0.86083
429.62,23.08432,6.79268,-0.37733,0.86048
430.32,23.1063,6.83521,-0.38445,0.86013
431.02,23.12831,6.88332,-0.39126,0.85978
431.72,23.1503,6.91834,-0.39853,0.85943
432.42,23.17226,6.94448,-0.40559,0.85908
433.12,23.19425,6.99447,-0.4131,0.85873
433.82,23.2163,7.03334,-0.42141,0.85838
434.52,23.23829,7.0767,-0.42925,0.85803
435.22,23.26034,7.10797,-0.43712,0.85767
435.92,23.28235,7.16171,-0.44542,0.85732
436.62,23.3044,7.1981,-0.45377,0.85697
437.32,23.32643,7.23658,-0.46202,0.85662
438.02,23.34853,7.28008,-0.47048,0.85626
438.72,23.37058,7.3198,-0.4788,0.85591
439.42,23.39268,7.36366,-0.48709,0.85556
440.12,23.41476,7.4052,-0.49577,0.8552
440.82,23.43684,7.44216,-0.506,0.85485
441.52,23.4589,7.49933,-0.51519,0.8545
442.22,23.48095,7.53358,-0.52401,0.85414
442.92,23.50291,7.5758,-0.53276,0.85379
443.62,23.5249,7.619,-0.54211,0.85343
444.32,23.547,7.6592,-0.55131,0.85308
445.02,23.5691,7.71329,-0.56085,0.85272
445.72,23.59124,7.74544,-0.57103,0.85237
446.42,23.61332,7.79941,-0.58045,0.85201
447.12,23.63543,7.84519,-0.59026,0.85166
447.82,23.6575,7.87765,-0.60019,0.8513
448.52,23.67963,7.92493,-0.61055,0.85094
449.22,23.70167,7.98197,-0.62108,0.85059
449.92,23.72383,8.0289,-0.63169,0.85023
450.62,23.74602,8.06439,-0.64234,0.84987
451.32,23.76821,8.12838,-0.65332,0.84952
452.02,23.79027,8.17021,-0.66448,0.84916
452.72,23.8123,8.22236,-0.67607,0.8488
453.42,23.83444,8.28418,-0.68781,0.84844
454.12,23.8566,8.31859,-0.69915,0.84808
454.82,23.87885,8.37436,-0.71101,0.84772
455.52,23.90091,8.41433,-0.72315,0.84737
456.22,23.92308,8.4712,-0.73683,0.84701
456.92,23.9452,8.52142,-0.74957,0.84665
457.62,23.9674,8.57233,-0.76185,0.84629
458.32,23.98957,8.61815,-0.77409,0.84593
459.02,24.0118,8.66324,-0.78714,0.84557
459.72,24.0339,8.70374,-0.80076,0.84521
460.42,24.0559,8.76587,-0.81523,0.84484
461.12,24.07805,8.81166,-0.8289,0.84448
461.82,24.10022,8.86247,-0.84231,0.84412
462.52,24.1225,8.90848,-0.85647,0.84376
463.22,24.14477,8.94706,-0.87067,0.8434
463.92,24.16699,9.0065,-0.88483,0.84303
464.62,24.1892,9.04682,-0.89965,0.84267
465.32,24.21144,9.09321,-0.91551,0.84231
466.02,24.23367,9.14674,-0.93116,0.84195
466.72,24.25587,9.18023,-0.94704,0.84158
467.42,24.27806,9.21597,-0.96274,0.84122
468.12,24.3002,9.26057,-0.97809,0.84085
468.82,24.3224,9.29253,-0.99415,0.84049
469.52,24.34464,9.32198,-1.01059,0.84012
470.22,24.36685,9.34823,-1.02702,0.83976
470.92,24.3891,9.38093,-1.0442,0.83939
471.62,24.41129,9.40881,-1.06186,0.83903
472.32,24.43354,9.4394,-1.07958,0.83866
473.02,24.45576,9.45742,-1.09744,0.83829
473.72,24.47795,9.47173,-1.11522,0.83793
474.42,24.50016,9.49165,-1.13319,0.83756
475.12,24.52244,9.50347,-1.15143,0.83719
475.82,24.54474,9.51975,-1.17012,0.83682
476.52,24.56694,9.51165,-1.1889,0.83645
477.22,24.5891,9.51526,-1.20797,0.83609
477.92,24.61134,9.5123,-1.22707,0.83572
478.62,24.6336,9.50523,-1.24727,0.83535
479.32,24.6558,9.50005,-1.26616,0.83498
480.02,24.67809,9.47296,-1.28542,0.83461
480.72,24.70034,9.45957,-1.30537,0.83424
481.42,24.7226,9.43659,-1.32603,0.83387
482.12,24.74493,9.39783,-1.34495,0.83349
482.82,24.76718,9.34992,-1.36529,0.83312
483.52,24.78945,9.31311,-1.38598,0.83275
484.22,24.81165,9.26437,-1.40667,0.83238
484.92,24.83391,9.20058,-1.42816,0.83201
485.62,24.85614,9.12968,-1.44904,0.83163
486.32,24.8784,9.05546,-1.46949,0.83126
487.02,24.9007,8.9687,-1.48972,0.83089
487.72,24.92291,8.87554,-1.51008,0.83051
488.42,24.9452,8.75465,-1.53043,0.83014
489.12,24.96746,8.65353,-1.55026,0.82976
489.82,24.98979,8.52109,-1.57047,0.82939
490.52,25.01209,8.4091,-1.59051,0.82901
491.22,25.0344,8.25985,-1.61001,0.82864
491.92,25.05667,8.11003,-1.62919,0.82826
492.62,25.07891,7.96653,-1.64814,0.82788
493.32,25.10117,7.79619,-1.66616,0.82751
494.02,25.12339,7.63029,-1.68529,0.82713
494.72,25.14569,7.44789,-1.7033,0.82675
495.42,25.16796,7.26356,-1.72079,0.82637
496.12,25.19024,7.07065,-1.73875,0.82599
496.82,25.21249,6.85194,-1.75557,0.82561
497.52,25.23479,6.62709,-1.77127,0.82523
498.22,25.25706,6.39034,-1.78688,0.82485
498.92,25.2792,6.14484,-1.8023,0.82447
499.62,25.30149,5.87064,-1.81634,0.82409
500.32,25.32372,5.58586,-1.82911,0.82371
501.02,25.34603,5.28507,-1.8415,0.82333
501.72,25.36831,4.99483,-1.85372,0.82295
502.42,25.3906,4.69529,-1.86518,0.82257
503.12,25.4129,4.38146,-1.87491,0.82218
503.82,25.43516,4.09936,-1.88333,0.8218
504.52,25.4574,3.81701,-1.89098,0.82142
505.22,25.4797,3.56735,-1.89738,0.82103
505.92,25.50199,3.32542,-1.90311,0.82065
506.62,25.5243,3.11053,-1.90825,0.82026
507.32,25.54659,2.89549,-1.91258,0.81988
508.02,25.56891,2.71605,-1.91671,0.81949
508.72,25.59122,2.55121,-1.91974,0.8191
509.42,25.61355,2.38327,-1.92228,0.81872
510.12,25.63587,2.25427,-1.92389,0.81833
510.82,25.6582,2.11716,-1.92487,0.81794
511.52,25.68052,2.00312,-1.92632,0.81755
512.22,25.70287,1.89908,-1.92692,0.81717
512.92,25.72525,1.82027,-1.92763,0.81678
513.62,25.74766,1.75205,-1.92765,0.81639
514.32,25.77001,1.68632,-1.92896,0.816
515.02,25.79235,1.63625,-1.92894,0.81561
515.72,25.81478,1.57066,-1.92894,0.81522
516.42,25.83721,1.52664,-1.92894,0.81483
517.12,25.85973,1.50099,-1.92894,0.81443
517.82,25.8822,1.45903,-1.92894,0.81404
518.52,25.90469,1.43836,-1.92895,0.81365
519.22,25.9271,1.39267,-1.93028,0.81326
519.92,25.94962,1.38091,-1.93026,0.81286
520.62,25.9722,1.34928,-1.93026,0.81247
521.32,25.99469,1.35047,-1.93072,0.81208
522.02,26.01715,1.32852,-1.93158,0.81168
522.72,26.03959,1.32499,-1.93158,0.81129
523.42,26.06214,1.30511,-1.93164,0.81089
524.12,26.08465,1.29517,-1.93291,0.81049
524.82,26.10728,1.27851,-1.93322,0.8101
525.52,26.12977,1.26632,-1.93322,0.8097
526.22,26.15224,1.26695,-1.93322,0.8093
526.92,26.17468,1.27652,-1.9332,0.8089
527.62,26.19718,1.30108,-1.93458,0.80851
528.32,26.21971,1.31184,-1.93453,0.80811
529.02,26.2422,1.34589,-1.93552,0.80771
529.72,26.2647,1.38036,-1.93552,0.80731
530.42,26.28712,1.40138,-1.93589,0.80691
531.12,26.30964,1.42946,-1.93683,0.80651
531.82,26.33216,1.46126,-1.93683,0.80611
532.52,26.35472,1.48606,-1.93683,0.8057
533.22,26.3773,1.49123,-1.93683,0.8053
533.92,26.3999,1.5052,-1.93683,0.8049
534.62,26.4225,1.49226,-1.93683,0.80449
535.32,26.44513,1.48179,-1.93683,0.80409
536.02,26.46776,1.46264,-1.93683,0.80369
536.72,26.4904,1.43933,-1.93677,0.80328
537.42,26.51303,1.41894,-1.93781,0.80288
538.12,26.5357,1.40867,-1.93815,0.80247
538.82,26.55827,1.38998,-1.93815,0.80206
539.52,26.581,1.37139,-1.9382,0.80166
540.22,26.6036,1.35192,-1.93946,0.80125
540.92,26.62625,1.33532,-1.93947,0.80084
541.62,26.6489,1.32361,-1.93947,0.80043
542.32,26.67166,1.31351,-1.93947,0.80002
543.02,26.6944,1.29473,-1.93989,0.79962
543.72,26.7169,1.27676,-1.94078,0.79921
544.42,26.7393,1.27658,-1.94078,0.79879
545.12,26.76203,1.25164,-1.94078,0.79838
545.82,26.78486,1.24257,-1.94078,0.79797
546.52,26.8078,1.21539,-1.94078,0.79756
547.22,26.83049,1.20492,-1.94078,0.79715
547.92,26.8532,1.17878,-1.94077,0.79673
548.62,26.87598,1.17131,-1.94209,0.79632
549.32,26.89875,1.14502,-1.9421,0.79591
550.02,26.9215,1.12725,-1.94257,0.79549
550.72,26.9442,1.11693,-1.94342,0.79508
551.42,26.9671,1.10125,-1.94342,0.79466
552.12,26.9899,1.10128,-1.94367,0.79425
552.82,27.0127,1.09017,-1.94473,0.79383
553.52,27.03533,1.09168,-1.94473,0.79341
554.22,27.058,1.08912,-1.94473,0.79299
554.92,27.08083,1.08898,-1.94473,0.79258
555.62,27.10373,1.08295,-1.94543,0.79216
556.32,27.1265,1.08095,-1.94605,0.79174
557.02,27.14925,1.08705,-1.94605,0.79132
557.72,27.172,1.08613,-1.94605,0.7909
558.42,27.19483,1.09588,-1.94605,0.79048
559.12,27.2176,1.10882,-1.94605,0.79006
559.82,27.2404,1.106,-1.94605,0.78963
560.52,27.26315,1.10266,-1.94605,0.78921
561.22,27.28592,1.1024,-1.94605,0.78879
561.92,27.3087,1.11811,-1.9461,0.78836
562.62,27.3315,1.13193,-1.94737,0.78794
563.32,27.3544,1.13578,-1.94736,0.78751
564.02,27.37711,1.13971,-1.94749,0.78709
564.72,27.3999,1.14158,-1.94868,0.78666
565.42,27.4227,1.1544,-1.94868,0.78624
566.12,27.4456,1.16343,-1.94868,0.78581
566.82,27.46852,1.18667,-1.94868,0.78538
567.52,27.4914,1.19031,-1.94868,0.78495
568.22,27.51417,1.19262,-1.94868,0.78453
568.92,27.53704,1.21274,-1.94991,0.7841
569.62,27.5599,1.21495,-1.95,0.78367
570.32,27.5827,1.22322,-1.95,0.78324
571.02,27.60558,1.2367,-1.95024,0.78281
571.72,27.62845,1.25667,-1.95132,0.78237
572.42,27.6513,1.24983,-1.95132,0.78194
573.12,27.67417,1.26652,-1.95134,0.78151
573.82,27.697,1.2648,-1.95142,0.78108
574.52,27.71988,1.27633,-1.95131,0.78064
575.22,27.7428,1.28081,-1.95191,0.78021
575.92,27.76571,1.29703,-1.95263,0.77977
576.62,27.78858,1.30279,-1.95264,0.77934
577.32,27.81147,1.31143,-1.95383,0.7789
578.02,27.8343,1.32527,-1.95395,0.77847
578.72,27.85721,1.31747,-1.95395,0.77803
579.42,27.88007,1.33346,-1.95395,0.77759
580.12,27.90291,1.35598,-1.95395,0.77715
580.82,27.9258,1.34924,-1.95421,0.77671
581.52,27.9487,1.35793,-1.95525,0.77628
582.22,27.97167,1.38357,-1.95526,0.77584
582.92,27.99454,1.38063,-1.95525,0.77539
583.62,28.01745,1.40619,-1.95775,0.77495
584.32,28.0403,1.4009,-1.9579,0.77451
585.02,28.0632,1.41056,-1.95815,0.77407
585.72,28.0861,1.41431,-1.95921,0.77363
586.42,28.10898,1.44422,-1.95921,0.77318
587.12,28.1318,1.44917,-1.95917,0.77274
587.82,28.1547,1.45309,-1.96052,0.77229
588.52,28.1776,1.47088,-1.96053,0.77185
589.22,28.20045,1.48836,-1.96054,0.7714
589.92,28.2234,1.48615,-1.96185,0.77096
590.62,28.2463,1.51683,-1.96087,0.77051
591.32,28.26926,1.52662,-1.96234,0.77006
592.02,28.2922,1.53854,-1.96229,0.76961
592.72,28.3152,1.56325,-1.96365,0.76917
593.42,28.33795,1.57965,-1.9636,0.76872
594.12,28.3608,1.5899,-1.96364,0.76827
594.82,28.38368,1.60988,-1.96491,0.76782
595.52,28.40679,1.61273,-1.96492,0.76737
596.22,28.42975,1.63612,-1.96594,0.76691
596.92,28.45275,1.65337,-1.96623,0.76646
597.62,28.4757,1.6731,-1.96623,0.76601
598.32,28.4987,1.68884,-1.9671,0.76555
599.02,28.52174,1.70927,-1.96755,0.7651
599.72,28.5447,1.73702,-1.96796,0.76465
600.42,28.56768,1.74101,-1.96897,0.76419
601.12,28.5906,1.76952,-1.9697,0.76373
601.82,28.6135,1.80226,-1.97029,0.76328
602.52,28.6365,1.82402,-1.97039,0.76282
603.22,28.65945,1.84004,-1.97161,0.76236
603.92,28.68242,1.86028,-1.97216,0.76191
604.62,28.70535,1.89694,-1.97303,0.76145
605.32,28.72839,1.928,-1.97293,0.76099
606.02,28.7514,1.95101,-1.97416,0.76053
606.72,28.7744,1.97435,-1.97456,0.76007
607.42,28.7974,2.01522,-1.97549,0.7596
608.12,28.8204,2.04423,-1.97413,0.75914
608.82,28.8435,2.08256,-1.97562,0.75868
609.52,28.8665,2.11698,-1.97556,0.75822
610.22,28.8895,2.15698,-1.9769,0.75775
610.92,28.9125,2.20104,-1.97685,0.75729
611.62,28.93553,2.22491,-1.97828,0.75682
612.32,28.9586,2.28337,-1.97826,0.75636
613.02,28.9816,2.34749,-1.97961,0.75589
613.72,29.0046,2.38626,-1.9804,0.75543
614.42,29.02763,2.44667,-1.98109,0.75496
615.12,29.0506,2.51023,-1.98258,0.75449
615.82,29.0736,2.56711,-1.98402,0.75402
616.52,29.0966,2.62178,-1.98411,0.75355
617.22,29.11957,2.6852,-1.98544,0.75308
617.92,29.1426,2.7641,-1.98664,0.75261
618.62,29.1656,2.83172,-1.98711,0.75214
619.32,29.1887,2.89569,-1.98824,0.75167
620.02,29.21172,2.97136,-1.98986,0.7512
620.72,29.2348,3.05211,-1.99107,0.75072
621.42,29.25785,3.13443,-1.99228,0.75025
622.12,29.2809,3.20902,-1.99342,0.74978
622.82,29.30395,3.28683,-1.99467,0.7493
623.52,29.327,3.37016,-1.99607,0.74882
624.22,29.35,3.44951,-1.99785,0.74835
624.92,29.3731,3.54127,-1.99956,0.74787
625.62,29.39613,3.62206,-2.00271,0.74739
626.32,29.4192,3.71122,-2.00416,0.74692
627.02,29.44223,3.80145,-2.00601,0.74644
627.72,29.46527,3.90352,-2.00764,0.74596
628.42,29.48828,3.96333,-2.00964,0.74548
629.12,29.5113,4.07459,-2.01134,0.745
629.82,29.5344,4.15751,-2.01348,0.74452
630.52,29.55755,4.24505,-2.01456,0.74404
631.22,29.58067,4.32737,-2.01652,0.74355
631.92,29.60373,4.4148,-2.01805,0.74307
632.62,29.62681,4.48215,-2.02021,0.74259
633.32,29.64995,4.56915,-2.02208,0.7421
634.02,29.6731,4.64491,-2.0237,0.74162
634.72,29.6962,4.72895,-2.02509,0.74113
635.42,29.7192,4.80556,-2.02675,0.74065
636.12,29.74225,4.87613,-2.02891,0.74016
636.82,29.7653,4.95268,-2.0307,0.73967
637.52,29.78847,5.01562,-2.03295,0.73918
638.22,29.8116,5.07699,-2.03486,0.7387
638.92,29.83473,5.14835,-2.03729,0.73821
639.62,29.85786,5.1992,-2.03982,0.73772
640.32,29.88093,5.2498,-2.04196,0.73723
641.02,29.90377,5.30682,-2.04408,0.73673
641.72,29.9266,5.35636,-2.04771,0.73624
642.42,29.9496,5.40477,-2.05086,0.73575
643.12,29.9729,5.44066,-2.05349,0.73526
643.82,29.9963,5.48804,-2.05607,0.73476
644.52,30.0195,5.51869,-2.05725,0.73427
645.22,30.0427,5.54391,-2.05938,0.73377
645.92,30.0658,5.57214,-2.062,0.73328
646.62,30.0889,5.59008,-2.06472,0.73278
647.32,30.11202,5.59713,-2.06814,0.73229
648.02,30.1351,5.61888,-2.07102,0.73179
648.72,30.1582,5.6325,-2.07371,0.73129
649.42,30.1814,5.649,-2.07632,0.73079
650.12,30.2045,5.64198,-2.07911,0.73029
650.82,30.2277,5.6447,-2.08215,0.72979
651.52,30.25078,5.63612,-2.08376,0.72929
652.22,30.27385,5.61802,-2.0857,0.72879
652.92,30.2969,5.59919,-2.08753,0.72829
653.62,30.3201,5.5601,-2.08952,0.72778
654.32,30.3432,5.53518,-2.09138,0.72728
655.02,30.3664,5.49184,-2.09387,0.72678
655.72,30.38945,5.43832,-2.09721,0.72627
656.42,30.4126,5.40346,-2.09848,0.72577
657.12,30.43573,5.33455,-2.10092,0.72526
657.82,30.4589,5.27688,-2.10242,0.72476
658.52,30.4819,5.1946,-2.10474,0.72425
659.22,30.505,5.12355,-2.10717,0.72374
659.92,30.5281,5.05185,-2.10984,0.72323
660.62,30.55123,4.97168,-2.11103,0.72272
661.32,30.57432,4.89389,-2.11239,0.72221
662.02,30.5974,4.81348,-2.11455,0.7217
662.72,30.6205,4.74817,-2.11682,0.72119
663.42,30.64368,4.6563,-2.11939,0.72068
664.12,30.6669,4.56936,-2.12091,0.72017
664.82,30.68998,4.49539,-2.12208,0.71966
665.52,30.71305,4.42795,-2.12359,0.71914
666.22,30.73605,4.3739,-2.12522,0.71863
666.92,30.7592,4.29234,-2.12634,0.71811
667.62,30.7824,4.25346,-2.1279,0.7176
668.32,30.80557,4.20325,-2.12935,0.71708
669.02,30.8287,4.16085,-2.13062,0.71657
669.72,30.8518,4.14352,-2.13345,0.71605
670.42,30.87492,4.14897,-2.13567,0.71553
671.12,30.8981,4.24014,-2.1377,0.71501
671.82,30.92115,4.39802,-2.13935,0.71449
672.52,30.9443,4.57831,-2.13888,0.71397
673.22,30.96746,4.80016,-2.14055,0.71345
673.92,30.99065,5.02941,-2.14219,0.71293
674.62,31.01387,5.24,-2.1438,0.71241
675.32,31.03707,5.4495,-2.14567,0.71189
676.02,31.0603,5.63849,-2.14801,0.71137
676.72,31.08345,5.81596,-2.15015,0.71084
677.42,31.10663,5.99419,-2.15161,0.71032
678.12,31.1299,6.17161,-2.15414,0.70979
678.82,31.15312,6.32242,-2.15587,0.70927
679.52,31.17636,6.48345,-2.15756,0.70874
680.22,31.1996,6.62945,-2.16088,0.70821
680.92,31.22278,6.78523,-2.16334,0.70769
681.62,31.246,6.90799,-2.16639,0.70716
682.32,31.2692,7.05094,-2.16929,0.70663
683.02,31.2925,7.19005,-2.17194,0.7061
683.72,31.3157,7.32727,-2.1751,0.70557
684.42,31.3389,7.45905,-2.17686,0.70504
685.12,31.36202,7.58344,-2.17898,0.70451
685.82,31.38522,7.7172,-2.18121,0.70398
686.52,31.4085,7.84827,-2.18375,0.70345
687.22,31.4317,7.97439,-2.18744,0.70291
687.92,31.455,8.11629,-2.19065,0.70238
688.62,31.47832,8.23596,-2.1931,0.70184
689.32,31.50161,8.35805,-2.1952,0.70131
690.02,31.52485,8.48882,-2.19778,0.70077
690.72,31.54792,8.60818,-2.20104,0.70024
691.42,31.5712,8.7308,-2.20459,0.6997
692.12,31.59442,8.85185,-2.20776,0.69916
692.82,31.6178,8.98493,-2.21023,0.69862
693.52,31.6411,9.11089,-2.21301,0.69809
694.22,31.6643,9.2212,-2.21619,0.69755
694.92,31.6877,9.34549,-2.21971,0.69701
695.62,31.71091,9.45291,-2.22249,0.69647
696.32,31.73416,9.57553,-2.226,0.69592
697.02,31.7574,9.69175,-2.22901,0.69538
697.72,31.7807,9.80398,-2.23263,0.69484
698.42,31.804,9.91211,-2.23684,0.6943
699.12,31.82729,10.02368,-2.24041,0.69375
699.82,31.8506,10.13898,-2.24446,0.69321
700.52,31.8739,10.23155,-2.24741,0.69266
701.22,31.89715,10.34844,-2.25069,0.69212
701.92,31.92052,10.45311,-2.25523,0.69157
702.62,31.94381,10.57179,-2.25811,0.69102
703.32,31.96708,10.65762,-2.26279,0.69048
704.02,31.99039,10.7584,-2.26614,0.68993
704.72,32.01365,10.84993,-2.27039,0.68938
705.42,32.03693,10.9491,-2.27516,0.68883
706.12,32.0601,11.03742,-2.27853,0.68828
706.82,32.08335,11.1223,-2.28283,0.68773
707.52,32.10666,11.21135,-2.28663,0.68718
708.22,32.12992,11.2932,-2.28979,0.68663
708.92,32.15316,11.37697,-2.29373,0.68607
709.62,32.17641,11.44162,-2.29718,0.68552
710.32,32.1997,11.5226,-2.30203,0.68497
711.02,32.22305,11.5795,-2.30643,0.68441
711.72,32.2463,11.63872,-2.30902,0.68386
712.42,32.26965,11.698,-2.31388,0.6833
713.12,32.29302,11.75377,-2.31774,0.68274
713.82,32.3163,11.8062,-2.32225,0.68219
714.52,32.33961,11.8619,-2.32586,0.68163
715.22,32.36293,11.92516,-2.32987,0.68107
715.92,32.3863,11.9964,-2.33537,0.68051
716.62,32.40977,12.05818,-2.3394,0.67995
717.32,32.43306,12.15008,-2.34404,0.67939
718.02,32.45639,12.24231,-2.34728,0.67883
718.72,32.4797,12.34938,-2.3506,0.67827
719.42,32.50306,12.45768,-2.35558,0.67771
720.12,32.52645,12.5875,-2.35977,0.67715
720.82,32.54974,12.73329,-2.36435,0.67658
721.52,32.57305,12.86156,-2.36724,0.67602
722.22,32.59628,13.03673,-2.36945,0.67546
722.92,32.61963,13.1844,-2.37231,0.67489
723.62,32.64295,13.3589,-2.3787,0.67433
724.32,32.66628,13.5282,-2.38761,0.67376
725.02,32.6896,13.698,-2.39441,0.67319
725.72,32.713,13.88655,-2.39902,0.67263
726.42,32.7363,14.0565,-2.4038,0.67206
727.12,32.75966,14.2456,-2.40852,0.67149
727.82,32.78304,14.43656,-2.41442,0.67092
728.52,32.80648,14.6201,-2.41997,0.67035
729.22,32.8298,14.81656,-2.42512,0.66978
729.92,32.8531,14.99322,-2.42905,0.66921
730.62,32.87645,15.18321,-2.43457,0.66864
731.32,32.89992,15.3812,-2.44006,0.66806
732.02,32.9234,15.5518,-2.44629,0.66749
732.72,32.9467,15.75397,-2.45249,0.66692
733.42,32.97,15.94002,-2.45809,0.66634
734.12,32.99345,16.13699,-2.46348,0.66577
734.82,33.0169,16.32864,-2.4699,0.66519
735.52,33.04039,16.52829,-2.47662,0.66462
736.22,33.0638,16.7175,-2.48261,0.66404
736.92,33.08713,16.9006,-2.48779,0.66347
737.62,33.1105,17.09563,-2.49335,0.66289
738.32,33.1339,17.2915,-2.50036,0.66231
739.02,33.15733,17.4767,-2.5074,0.66173
739.72,33.1808,17.66216,-2.5138,0.66115
740.42,33.2042,17.83596,-2.52012,0.66057
741.12,33.22765,18.02086,-2.52692,0.65999
741.82,33.2511,18.2079,-2.53419,0.65941
742.52,33.27432,18.3709,-2.54128,0.65883
743.22,33.29753,18.5541,-2.54795,0.65825
743.92,33.32096,18.70654,-2.55489,0.65766
744.62,33.3446,18.86788,-2.56202,0.65708
745.32,33.36834,19.0157,-2.56922,0.6565
746.02,33.39185,19.16692,-2.57629,0.65591
746.72,33.4152,19.30813,-2.58339,0.65533
747.42,33.4386,19.43966,-2.59091,0.65474
748.12,33.46204,19.5455,-2.59846,0.65415
748.82,33.48553,19.68732,-2.60569,0.65357
749.52,33.509,19.78501,-2.61324,0.65298
750.22,33.53241,19.895,-2.62111,0.65239
750.92,33.55587,19.9709,-2.62842,0.6518
751.62,33.57926,20.05688,-2.63573,0.65121
752.32,33.60275,20.1445,-2.64377,0.65062
753.02,33.6262,20.20584,-2.65152,0.65003
753.72,33.64967,20.28203,-2.65908,0.64944
754.42,33.6731,20.33933,-2.66683,0.64885
755.12,33.69657,20.3764,-2.6742,0.64826
755.82,33.72002,20.42739,-2.68096,0.64766
756.52,33.74347,20.44471,-2.68912,0.64707
757.22,33.7669,20.47664,-2.69683,0.64648
757.92,33.79038,20.4597,-2.70439,0.64588
758.62,33.81386,20.4143,-2.71263,0.64529
759.32,33.83725,20.34966,-2.72009,0.64469
760.02,33.8607,20.22162,-2.72779,0.64409
760.72,33.88414,20.0414,-2.7353,0.6435
761.42,33.90759,19.75232,-2.74243,0.6429
762.12,33.93101,19.38751,-2.74975,0.6423
762.82,33.95443,18.89849,-2.75777,0.6417
763.52,33.97782,18.2206,-2.76546,0.64111
764.22,34.00115,17.33625,-2.77231,0.64051
764.92,34.02451,16.16258,-2.77875,0.63991
765.62,34.04784,14.0158,-2.78489,0.6393
766.32,34.07117,10.69864,-2.79064,0.6387
767.02,34.0944,8.02849,-2.79519,0.6381
767.72,34.11758,6.02602,-2.79851,0.6375
768.42,34.1407,4.54706,-2.79974,0.6369
769.12,34.1638,3.43313,-2.79974,0.63629
769.82,34.18677,2.61206,-2.80007,0.63569
770.52,34.21002,1.99496,-2.80105,0.63508
771.22,34.23328,1.51366,-2.80105,0.63448
771.92,34.25677,1.1321,-2.80105,0.63387
772.62,34.28009,0.85316,-2.80105,0.63327
773.32,34.3035,0.59368,-2.80103,0.63266
774.02,34.32682,0.42376,-2.80237,0.63205
774.72,34.3502,0.27182,-2.80237,0.63145
775.42,34.37362,0.15607,-2.80237,0.63084
776.12,34.3971,0.06976103,-2.80237,0.63023
776.82,34.4206,-0.005595704,-2.80237,0.62962
777.52,34.44404,-0.05137612,-2.80204,0.62901
778.22,34.46754,-0.0856213,-2.80106,0.6284
778.92,34.491,-0.10685,-2.80106,0.62779
779.62,34.51447,-0.11996,-2.80186,0.62717
780.32,34.53784,-0.12688,-2.80237,0.62656
781.02,34.56136,-0.14388,-2.80237,0.62595
781.72,34.58486,-0.14173,-2.80237,0.62534
782.42,34.6084,-0.14047,-2.80236,0.62472
783.12,34.6318,-0.13179,-2.80304,0.62411
783.82,34.65524,-0.11885,-2.80303,0.62349
784.52,34.6787,-0.11256,-2.80303,0.62288
785.22,34.7023,-0.09943352,-2.80303,0.62226
785.92,34.72579,-0.08851251,-2.80303,0.62165
786.62,34.74926,-0.07168615,-2.80304,0.62103
787.32,34.77267,-0.06896645,-2.8046,0.62041
788.02,34.79613,-0.06359259,-2.805,0.61979
788.72,34.81964,-0.05724911,-2.80501,0.61917
789.42,34.84308,-0.04018115,-2.8037,0.61856
790.12,34.86654,-0.05174863,-2.80369,0.61794
790.82,34.89,-0.04171789,-2.80369,0.61732
791.52,34.91363,-0.04011982,-2.80369,0.6167
792.22,34.93712,-0.04070031,-2.80369,0.61607
792.92,34.96062,-0.02116431,-2.8033,0.61545
793.62,34.98404,-0.02011621,-2.80272,0.61483
794.02,34.99758,-0.01893724,-2.80374,0.61448