File: 01_Data/Polyolefin_Carpet_Low_Pile/STA/N2/30K_min/Polyolefin_Carpet_Low_Pile_STA_N2_30KData_220703_R3.csv
##Temp./Â°C,Time/min,DSC(subtr.2)/mW,Mass loss(subtr.2)/mg,Sensit./(uV/mW)
48.796,10.00667,-0.02172055,-0.02249,1.08889
49.496,10.5558,0.14038,-0.01651788,1.0883
50.196,10.6797,0.27805,-0.01983477,1.08771
50.896,10.76852,0.40698,-0.02078086,1.08712
51.596,10.8409,0.52172,-0.01865487,1.08653
52.296,10.9038,0.63041,-0.01795563,1.08595
52.996,10.96077,0.7341,-0.01866989,1.08536
53.696,11.0122,0.83158,-0.02212423,1.08477
54.396,11.05992,0.9202,-0.02149483,1.08419
55.096,11.10476,1.00126,-0.02169542,1.0836
55.796,11.14732,1.09485,-0.02146647,1.08302
56.496,11.18792,1.16258,-0.02300178,1.08244
57.196,11.2265,1.23455,-0.02469087,1.08186
57.896,11.2639,1.30996,-0.02474484,1.08128
58.596,11.3003,1.3728,-0.02478319,1.0807
59.296,11.3353,1.43766,-0.02404969,1.08012
59.996,11.36937,1.51684,-0.0238532,1.07954
60.696,11.40277,1.57608,-0.02358232,1.07896
61.396,11.43544,1.63622,-0.02302034,1.07838
62.096,11.46738,1.67992,-0.02139897,1.07781
62.796,11.49868,1.73366,-0.02197812,1.07723
63.496,11.52942,1.78945,-0.02141627,1.07666
64.196,11.55991,1.84751,-0.02030375,1.07609
64.896,11.58981,1.88836,-0.01836447,1.07551
65.596,11.6192,1.93279,-0.0156424,1.07494
66.296,11.64814,1.97322,-0.01484585,1.07437
66.996,11.6768,2.01266,-0.01561773,1.0738
67.696,11.7052,2.05231,-0.01562804,1.07323
68.396,11.73329,2.08393,-0.01536073,1.07266
69.096,11.76127,2.12994,-0.01599989,1.0721
69.796,11.78893,2.16946,-0.01643072,1.07153
70.496,11.81635,2.20521,-0.01671111,1.07097
71.196,11.84339,2.23082,-0.01769162,1.0704
71.896,11.87036,2.26083,-0.01912811,1.06984
72.596,11.8973,2.30067,-0.01956027,1.06927
73.296,11.9237,2.32798,-0.02076242,1.06871
73.996,11.95025,2.35965,-0.02368621,1.06815
74.696,11.97654,2.39391,-0.02552964,1.06759
75.396,12.00303,2.4286,-0.02602475,1.06703
76.096,12.02908,2.45388,-0.02588211,1.06647
76.796,12.055,2.48066,-0.02599148,1.06591
77.496,12.0807,2.51135,-0.02640216,1.06536
78.196,12.10644,2.53046,-0.02646123,1.0648
78.896,12.13203,2.54145,-0.02758808,1.06424
79.596,12.15744,2.56837,-0.02773544,1.06369
80.296,12.18267,2.59506,-0.02581374,1.06314
80.996,12.20801,2.61503,-0.02306726,1.06258
81.696,12.23315,2.63143,-0.02281364,1.06203
82.396,12.25822,2.6514,-0.02428503,1.06148
83.096,12.28316,2.66188,-0.02503714,1.06093
83.796,12.3078,2.67962,-0.026698,1.06038
84.496,12.33252,2.70478,-0.02612257,1.05983
85.196,12.35709,2.71449,-0.02414787,1.05928
85.896,12.38204,2.72082,-0.02223417,1.05874
86.596,12.40661,2.72891,-0.02293125,1.05819
87.296,12.43118,2.74403,-0.02148299,1.05764
87.996,12.4556,2.77381,-0.02052663,1.0571
88.696,12.47997,2.79019,-0.0207267,1.05656
89.396,12.50422,2.80343,-0.02010371,1.05601
90.096,12.5284,2.79974,-0.01979549,1.05547
90.796,12.55256,2.80621,-0.01967175,1.05493
91.496,12.57674,2.82217,-0.01929651,1.05439
92.196,12.60092,2.83978,-0.01922103,1.05385
92.896,12.62505,2.85373,-0.01960425,1.05331
93.596,12.64904,2.85428,-0.01970293,1.05277
94.296,12.673,2.86296,-0.02212883,1.05223
94.996,12.69689,2.88105,-0.02272123,1.0517
95.696,12.72078,2.90385,-0.02390715,1.05116
96.396,12.74467,2.90969,-0.02391013,1.05063
97.096,12.76848,2.92301,-0.0239177,1.05009
97.796,12.79229,2.93629,-0.02515892,1.04956
98.496,12.81607,2.95573,-0.02701865,1.04903
99.196,12.8398,2.96228,-0.02948935,1.0485
99.896,12.86358,2.96726,-0.03134971,1.04797
100.596,12.88735,2.98167,-0.03211583,1.04744
101.296,12.91085,2.9953,-0.03269382,1.04691
101.996,12.93452,3.0029,-0.03222775,1.04638
102.696,12.95812,3.00251,-0.02993859,1.04585
103.396,12.9819,2.99249,-0.02870614,1.04533
104.096,13.0055,3.00403,-0.02710851,1.0448
104.796,13.02917,2.99907,-0.02553205,1.04428
105.496,13.0528,3.0135,-0.02557673,1.04375
106.196,13.0765,3.03516,-0.02603101,1.04323
106.896,13.10003,3.01749,-0.02666418,1.04271
107.596,13.12354,3.02461,-0.02721073,1.04219
108.296,13.147,3.02939,-0.0285068,1.04167
108.996,13.17065,3.04652,-0.02879763,1.04115
109.696,13.1942,3.04776,-0.02975605,1.04063
110.396,13.21773,3.05377,-0.02909795,1.04011
111.096,13.2412,3.06538,-0.03003607,1.03959
111.796,13.26464,3.07963,-0.02896468,1.03907
112.496,13.2881,3.09481,-0.02897093,1.03856
113.196,13.31151,3.08405,-0.02896996,1.03804
113.896,13.33499,3.09397,-0.02896738,1.03753
114.596,13.3584,3.12097,-0.02813869,1.03702
115.296,13.38175,3.10107,-0.0274943,1.0365
115.996,13.405,3.10492,-0.0262108,1.03599
116.696,13.42831,3.12,-0.02621928,1.03548
117.396,13.45164,3.12562,-0.02641331,1.03497
118.096,13.47511,3.12167,-0.02752522,1.03446
118.796,13.4985,3.12668,-0.02753004,1.03395
119.496,13.52186,3.13522,-0.02753,1.03344
120.196,13.54519,3.15391,-0.02753032,1.03294
120.896,13.5684,3.17217,-0.02757326,1.03243
121.596,13.59145,3.18327,-0.02897728,1.03193
122.296,13.61456,3.17321,-0.02893798,1.03142
122.996,13.63768,3.17672,-0.02996119,1.03092
123.696,13.661,3.18913,-0.02995006,1.03041
124.396,13.68402,3.20702,-0.02994998,1.02991
125.096,13.70715,3.19845,-0.02994954,1.02941
125.796,13.7303,3.22264,-0.03023855,1.02891
126.496,13.7533,3.23155,-0.03028,1.02841
127.196,13.7763,3.23537,-0.02994859,1.02791
127.896,13.79923,3.24156,-0.02995001,1.02741
128.596,13.8222,3.25713,-0.02995,1.02692
129.296,13.84521,3.26496,-0.02995,1.02642
129.996,13.8682,3.29108,-0.02995,1.02592
130.696,13.8911,3.3007,-0.02994992,1.02543
131.396,13.914,3.29946,-0.02994689,1.02493
132.096,13.9369,3.3257,-0.03099939,1.02444
132.796,13.95977,3.32153,-0.03030855,1.02395
133.496,13.9825,3.34448,-0.02961655,1.02345
134.196,14.00531,3.3499,-0.02960428,1.02296
134.896,14.02806,3.35851,-0.03095555,1.02247
135.596,14.0509,3.38903,-0.03096364,1.02198
136.296,14.0735,3.41637,-0.03062254,1.02149
136.996,14.0962,3.4448,-0.03093164,1.02101
137.696,14.1189,3.45514,-0.03092999,1.02052
138.396,14.14153,3.48274,-0.03093012,1.02003
139.096,14.1641,3.49015,-0.0309163,1.01955
139.796,14.1866,3.50899,-0.02962327,1.01906
140.496,14.20911,3.53756,-0.0296237,1.01858
141.196,14.23174,3.57106,-0.02915834,1.01809
141.896,14.25428,3.60507,-0.02829225,1.01761
142.596,14.27685,3.63636,-0.02956562,1.01713
143.296,14.29936,3.66231,-0.02829105,1.01665
143.996,14.3218,3.70485,-0.02827157,1.01617
144.696,14.34423,3.77023,-0.02965751,1.01569
145.396,14.3666,3.81971,-0.02961998,1.01521
146.096,14.389,3.85775,-0.02962047,1.01473
146.796,14.4114,3.91583,-0.02958628,1.01425
147.496,14.4338,3.96357,-0.02994922,1.01378
148.196,14.45619,4.03777,-0.0289445,1.0133
148.896,14.4786,4.10124,-0.0286285,1.01282
149.596,14.501,4.19134,-0.02862999,1.01235
150.296,14.5233,4.27147,-0.02863,1.01188
150.996,14.5456,4.36902,-0.02863,1.0114
151.696,14.56785,4.46145,-0.02863,1.01093
152.396,14.59012,4.5876,-0.02863,1.01046
153.096,14.61231,4.71808,-0.02863,1.00999
153.796,14.63459,4.85257,-0.02863,1.00952
154.496,14.65681,5.00508,-0.02863005,1.00905
155.196,14.6791,5.17909,-0.02862843,1.00858
155.896,14.70142,5.35923,-0.03096961,1.00811
156.596,14.7237,5.53114,-0.0309394,1.00765
157.296,14.7459,5.70206,-0.03094,1.00718
157.996,14.7682,5.88655,-0.03094003,1.00671
158.696,14.7904,6.0913,-0.03093634,1.00625
159.396,14.8127,6.29323,-0.03150698,1.00579
160.096,14.83485,6.49408,-0.03225319,1.00532
160.796,14.85706,6.68605,-0.03225091,1.00486
161.496,14.87929,6.87653,-0.03222335,1.0044
162.196,14.90145,7.03757,-0.0335582,1.00394
162.896,14.9238,7.1814,-0.03357032,1.00348
163.596,14.9459,7.30475,-0.03356723,1.00302
164.296,14.96815,7.38217,-0.03246607,1.00256
164.996,14.99036,7.39862,-0.03224877,1.0021
165.696,15.0126,7.31661,-0.03225094,1.00164
166.396,15.0349,7.19167,-0.0318133,1.00118
167.096,15.05696,7.01377,-0.03226996,1.00073
167.796,15.07906,6.76518,-0.03225858,1.00027
168.496,15.10105,6.4934,-0.03359615,0.99982
169.196,15.123,6.24148,-0.03357119,0.99936
169.896,15.145,5.97125,-0.03477393,0.99891
170.596,15.167,5.73132,-0.03487972,0.99846
171.296,15.189,5.50622,-0.03488613,0.99801
171.996,15.211,5.28379,-0.03527734,0.99755
172.696,15.23286,5.08937,-0.03489075,0.9971
173.396,15.25467,4.93984,-0.034809,0.99665
174.096,15.27644,4.7983,-0.03358355,0.9962
174.796,15.2982,4.67093,-0.03356961,0.99576
175.496,15.3201,4.54756,-0.03356913,0.99531
176.196,15.3419,4.45622,-0.03492917,0.99486
176.896,15.3636,4.36587,-0.03487911,0.99441
177.596,15.3853,4.29467,-0.03488009,0.99397
178.296,15.407,4.2352,-0.03488167,0.99352
178.996,15.4287,4.16605,-0.03374381,0.99308
179.696,15.45038,4.11798,-0.03356881,0.99264
180.396,15.47207,4.07366,-0.03357291,0.99219
181.096,15.4938,4.05281,-0.03285589,0.99175
181.796,15.51515,4.0201,-0.03224853,0.99131
182.496,15.5367,3.9929,-0.0319817,0.99087
183.196,15.55826,3.96641,-0.03093719,0.99043
183.896,15.58,3.94498,-0.03092999,0.98999
184.596,15.6017,3.93263,-0.03044132,0.98955
185.296,15.62325,3.93112,-0.02968986,0.98911
185.996,15.6448,3.90626,-0.02897227,0.98867
186.696,15.66627,3.8965,-0.02866468,0.98824
187.396,15.6876,3.89412,-0.02830371,0.9878
188.096,15.7091,3.89447,-0.02946128,0.98736
188.796,15.7306,3.89393,-0.02960164,0.98693
189.496,15.7523,3.89994,-0.03091782,0.98649
190.196,15.77392,3.9005,-0.03093376,0.98606
190.896,15.79543,3.88925,-0.03321756,0.98563
191.596,15.8169,3.88614,-0.03357243,0.98519
192.296,15.8384,3.89546,-0.03357,0.98476
192.996,15.8599,3.90331,-0.03356988,0.98433
193.696,15.8813,3.89792,-0.03346738,0.9839
194.396,15.9026,3.91135,-0.0329046,0.98347
195.096,15.92406,3.92366,-0.03293297,0.98304
195.796,15.9455,3.90857,-0.03273815,0.98261
196.496,15.96708,3.91229,-0.03378993,0.98219
197.196,15.9886,3.92253,-0.03505921,0.98176
197.896,16.00995,3.91981,-0.0354184,0.98133
198.596,16.0314,3.91846,-0.03688835,0.98091
199.296,16.05273,3.92707,-0.03834418,0.98048
199.996,16.07411,3.92716,-0.03839364,0.98006
200.696,16.0955,3.94269,-0.0410999,0.97963
201.396,16.11692,3.96137,-0.04102876,0.97921
202.096,16.13831,3.96068,-0.04103107,0.97878
202.796,16.15962,3.95945,-0.04073507,0.97836
203.496,16.18096,3.97852,-0.03953939,0.97794
204.196,16.2022,3.9816,-0.03910308,0.97752
204.896,16.22343,3.97892,-0.03850204,0.9771
205.596,16.2447,3.96563,-0.0377303,0.97668
206.296,16.2659,3.96863,-0.03681898,0.97626
206.996,16.28735,3.99125,-0.036423,0.97584
207.696,16.3088,4.00285,-0.03524396,0.97542
208.396,16.33014,3.9977,-0.03497482,0.97501
209.096,16.35149,3.98797,-0.03379864,0.97459
209.796,16.37283,3.99484,-0.03367962,0.97417
210.496,16.3942,4.00085,-0.0336922,0.97376
211.196,16.41542,4.01206,-0.03662698,0.97334
211.896,16.43671,4.01815,-0.03965119,0.97293
212.596,16.45802,4.01114,-0.04226484,0.97251
213.296,16.4793,4.00511,-0.0440785,0.9721
213.996,16.50072,4.0171,-0.04319635,0.97169
214.696,16.52206,4.03234,-0.0411125,0.97128
215.396,16.5434,4.04326,-0.0386412,0.97086
216.096,16.56472,4.05327,-0.03545643,0.97045
216.796,16.58598,4.04542,-0.03367357,0.97004
217.496,16.6073,4.06039,-0.03367991,0.96963
218.196,16.62864,4.05406,-0.03367995,0.96922
218.896,16.64996,4.07911,-0.03368441,0.96881
219.596,16.67117,4.07527,-0.03451351,0.96841
220.296,16.6924,4.07885,-0.0359355,0.968
220.996,16.7136,4.06423,-0.03820816,0.96759
221.696,16.73491,4.06317,-0.03937356,0.96719
222.396,16.75619,4.06929,-0.03931958,0.96678
223.096,16.77751,4.06717,-0.04002564,0.96637
223.796,16.79884,4.07933,-0.04004014,0.96597
224.496,16.82007,4.09375,-0.04004008,0.96557
225.196,16.84133,4.09607,-0.04050531,0.96516
225.896,16.86263,4.09147,-0.0415629,0.96476
226.596,16.88394,4.09758,-0.04154412,0.96436
227.296,16.9052,4.11818,-0.0422417,0.96395
227.996,16.92632,4.13218,-0.04222998,0.96355
228.696,16.94753,4.1371,-0.04223486,0.96315
229.396,16.96875,4.13485,-0.04106579,0.96275
230.096,16.9901,4.14628,-0.04085706,0.96235
230.796,17.01131,4.14673,-0.03945829,0.96195
231.496,17.03246,4.14186,-0.03949025,0.96155
232.196,17.05368,4.15872,-0.03949,0.96116
232.896,17.07491,4.15459,-0.03948936,0.96076
233.596,17.09625,4.14601,-0.03957801,0.96036
234.296,17.1176,4.15817,-0.04082324,0.95996
234.996,17.139,4.14506,-0.0408123,0.95957
235.696,17.16029,4.15774,-0.04011405,0.95917
236.396,17.1815,4.16893,-0.03948671,0.95878
237.096,17.20267,4.15733,-0.039493,0.95838
237.796,17.22354,4.15305,-0.03920519,0.95799
238.496,17.24459,4.17103,-0.03817861,0.95759
239.196,17.26574,4.16843,-0.03816993,0.9572
239.896,17.28708,4.17638,-0.03817,0.95681
240.596,17.30849,4.17407,-0.03816923,0.95642
241.296,17.3296,4.18669,-0.03826312,0.95603
241.996,17.35078,4.18822,-0.03962021,0.95563
242.696,17.37193,4.19511,-0.04006708,0.95524
243.396,17.39314,4.21376,-0.04102001,0.95485
244.096,17.4144,4.22212,-0.04209208,0.95446
244.796,17.43554,4.22333,-0.04234204,0.95407
245.496,17.45668,4.21986,-0.04229165,0.95369
246.196,17.4779,4.2358,-0.04369803,0.9533
246.896,17.49898,4.23069,-0.04312692,0.95291
247.596,17.52009,4.23217,-0.04234002,0.95252
248.296,17.54125,4.23484,-0.04315548,0.95214
248.996,17.56239,4.24149,-0.04366377,0.95175
249.696,17.58357,4.24244,-0.04365498,0.95136
250.396,17.60474,4.23748,-0.04286029,0.95098
251.096,17.62583,4.24238,-0.04236247,0.95059
251.796,17.6469,4.24393,-0.04102626,0.95021
252.496,17.66796,4.23001,-0.04103028,0.94983
253.196,17.68908,4.23928,-0.0410307,0.94944
253.896,17.71017,4.24064,-0.04098164,0.94906
254.596,17.73132,4.25636,-0.04236843,0.94868
255.296,17.75243,4.25685,-0.04288709,0.94829
255.996,17.7736,4.25594,-0.04365738,0.94791
256.696,17.7947,4.26535,-0.04502203,0.94753
257.396,17.81583,4.2541,-0.04497899,0.94715
258.096,17.83694,4.25613,-0.04498137,0.94677
258.796,17.85805,4.26945,-0.04479422,0.94639
259.496,17.8792,4.2682,-0.04368578,0.94601
260.196,17.90033,4.26043,-0.04234367,0.94563
260.896,17.92145,4.26758,-0.04233978,0.94525
261.596,17.94255,4.27032,-0.04233992,0.94488
262.296,17.96366,4.26978,-0.0423454,0.9445
262.996,17.98483,4.26617,-0.04313719,0.94412
263.696,18.00596,4.27194,-0.04506623,0.94374
264.396,18.02703,4.28336,-0.04508982,0.94337
265.096,18.0481,4.29486,-0.04509001,0.94299
265.796,18.06912,4.30334,-0.04509,0.94262
266.496,18.09023,4.30303,-0.04509,0.94224
267.196,18.11134,4.29144,-0.04508998,0.94187
267.896,18.1325,4.28641,-0.04509059,0.94149
268.596,18.15362,4.31055,-0.04510413,0.94112
269.296,18.17475,4.29412,-0.04639832,0.94074
269.996,18.19581,4.29515,-0.04641386,0.94037
270.696,18.2168,4.29158,-0.04707454,0.94
271.396,18.23784,4.30563,-0.04771676,0.93963
272.096,18.259,4.31464,-0.04771908,0.93925
272.796,18.2802,4.32538,-0.0480651,0.93888
273.496,18.30134,4.33988,-0.04902668,0.93851
274.196,18.3225,4.32746,-0.04892284,0.93814
274.896,18.3435,4.3222,-0.04907071,0.93777
275.596,18.36459,4.33337,-0.04903959,0.9374
276.296,18.38574,4.33985,-0.04904,0.93703
276.996,18.40683,4.35197,-0.04904,0.93666
277.696,18.428,4.34171,-0.04904,0.93629
278.396,18.4491,4.33434,-0.04904008,0.93592
279.096,18.4702,4.35463,-0.04903448,0.93555
279.796,18.4914,4.35269,-0.04826161,0.93519
280.496,18.5125,4.35929,-0.04631886,0.93482
281.196,18.53363,4.34927,-0.04475321,0.93445
281.896,18.5547,4.33478,-0.04476055,0.93408
282.596,18.5758,4.33123,-0.04474911,0.93372
283.296,18.59686,4.32274,-0.04601252,0.93335
283.996,18.61808,4.32893,-0.04581322,0.93299
284.696,18.63917,4.34129,-0.0471756,0.93262
285.396,18.66029,4.34424,-0.04752512,0.93226
286.096,18.68117,4.35858,-0.04848618,0.93189
286.796,18.70209,4.3707,-0.04849009,0.93153
287.496,18.72324,4.35991,-0.04849,0.93116
288.196,18.7445,4.36045,-0.04849,0.9308
288.896,18.76577,4.36303,-0.04849,0.93044
289.596,18.7868,4.35913,-0.04849,0.93007
290.296,18.80782,4.37253,-0.04849001,0.92971
290.996,18.82899,4.3736,-0.04848904,0.92935
291.696,18.85014,4.37498,-0.04855796,0.92899
292.396,18.87132,4.37283,-0.04783949,0.92862
293.096,18.89242,4.35927,-0.04811479,0.92826
293.796,18.91355,4.37677,-0.0480446,0.9279
294.496,18.93473,4.39531,-0.04959584,0.92754
295.196,18.95585,4.39185,-0.05090322,0.92718
295.896,18.977,4.37903,-0.05179208,0.92682
296.596,18.9981,4.378,-0.05272364,0.92646
297.296,19.0192,4.37822,-0.05386442,0.9261
297.996,19.04038,4.37183,-0.05386141,0.92574
298.696,19.06167,4.38253,-0.05472721,0.92538
299.396,19.08296,4.38677,-0.05518374,0.92502
300.096,19.10431,4.38278,-0.05517499,0.92466
300.796,19.1255,4.39801,-0.05429298,0.92431
301.496,19.14667,4.40449,-0.05452001,0.92395
302.196,19.16781,4.40785,-0.05473888,0.92359
302.896,19.18894,4.40683,-0.05386503,0.92323
303.596,19.2101,4.41042,-0.05385991,0.92288
304.296,19.2313,4.41514,-0.05386,0.92252
304.996,19.25248,4.41548,-0.05386,0.92216
305.696,19.27364,4.41993,-0.05386,0.92181
306.396,19.29486,4.40459,-0.05386,0.92145
307.096,19.316,4.38669,-0.05386,0.9211
307.796,19.33715,4.38574,-0.05386,0.92074
308.496,19.35827,4.3911,-0.05385992,0.92039
309.196,19.3794,4.40043,-0.05386199,0.92003
309.896,19.4006,4.41015,-0.0531478,0.91968
310.596,19.42173,4.40938,-0.05286891,0.91932
311.296,19.44291,4.4269,-0.05287077,0.91897
311.996,19.46407,4.42493,-0.05282397,0.91861
312.696,19.48527,4.414,-0.05444139,0.91826
313.396,19.50649,4.41182,-0.05440719,0.91791
314.096,19.52765,4.42326,-0.05573269,0.91755
314.796,19.54889,4.42505,-0.05571947,0.9172
315.496,19.57018,4.41784,-0.05573254,0.91685
316.196,19.59146,4.4042,-0.05699366,0.91649
316.896,19.61273,4.39329,-0.05620169,0.91614
317.596,19.634,4.40091,-0.05725248,0.91579
318.296,19.65515,4.40146,-0.05774511,0.91544
318.996,19.67635,4.39422,-0.05985099,0.91509
319.696,19.6975,4.39785,-0.06125032,0.91474
320.396,19.71866,4.41357,-0.06133179,0.91438
321.096,19.73989,4.419,-0.06263492,0.91403
321.796,19.7611,4.4177,-0.06263926,0.91368
322.496,19.78237,4.41601,-0.06264246,0.91333
323.196,19.8036,4.41764,-0.06280955,0.91298
323.896,19.82487,4.41015,-0.063045,0.91263
324.596,19.84617,4.41051,-0.06417252,0.91228
325.296,19.86748,4.39368,-0.06417379,0.91193
325.996,19.88871,4.38244,-0.062878,0.91158
326.696,19.90997,4.38998,-0.06251456,0.91123
327.396,19.93122,4.40112,-0.0604222,0.91088
328.096,19.95249,4.40013,-0.0597921,0.91053
328.796,19.97381,4.40664,-0.05979001,0.91019
329.496,19.99515,4.40125,-0.05979205,0.90984
330.196,20.0165,4.38813,-0.05954307,0.90949
330.896,20.0379,4.37565,-0.05848011,0.90914
331.596,20.0592,4.37644,-0.05843315,0.90879
332.296,20.0805,4.36369,-0.06144216,0.90844
332.996,20.1018,4.38028,-0.0634687,0.9081
333.696,20.1231,4.39351,-0.0656328,0.90775
334.396,20.14416,4.38457,-0.06578548,0.9074
335.096,20.1653,4.38738,-0.06615401,0.90705
335.796,20.1866,4.37131,-0.06648028,0.90671
336.496,20.2082,4.35109,-0.06638068,0.90636
337.196,20.22974,4.35265,-0.06475838,0.90601
337.896,20.25114,4.35817,-0.06346887,0.90567
338.596,20.27254,4.35855,-0.0634097,0.90532
339.296,20.294,4.35842,-0.06341,0.90497
339.996,20.31532,4.35731,-0.06341001,0.90463
340.696,20.3367,4.34022,-0.06340872,0.90428
341.396,20.3581,4.35348,-0.06359522,0.90393
342.096,20.37943,4.34844,-0.06499262,0.90359
342.796,20.40083,4.32388,-0.06570293,0.90324
343.496,20.42224,4.33108,-0.06565712,0.9029
344.196,20.44367,4.33122,-0.0658016,0.90255
344.896,20.46509,4.34583,-0.06516708,0.90221
345.596,20.48649,4.34502,-0.06406129,0.90186
346.296,20.50789,4.34645,-0.06559659,0.90152
346.996,20.5293,4.34184,-0.06688665,0.90117
347.696,20.55068,4.3308,-0.06934145,0.90083
348.396,20.57207,4.33491,-0.06966291,0.90048
349.096,20.59344,4.32772,-0.07097434,0.90014
349.796,20.6148,4.33805,-0.07221965,0.89979
350.496,20.63628,4.33375,-0.07374584,0.89945
351.196,20.65772,4.34515,-0.07644412,0.8991
351.896,20.67921,4.34979,-0.07707564,0.89876
352.596,20.7007,4.3431,-0.07875005,0.89841
353.296,20.72222,4.33299,-0.0787604,0.89807
353.996,20.7437,4.32902,-0.0787576,0.89773
354.696,20.76514,4.34989,-0.07901999,0.89738
355.396,20.78659,4.35118,-0.0783182,0.89704
356.096,20.80804,4.35441,-0.07809154,0.89669
356.796,20.8295,4.3403,-0.07861012,0.89635
357.496,20.85104,4.35016,-0.0801549,0.89601
358.196,20.87245,4.34151,-0.08184467,0.89566
358.896,20.8939,4.35691,-0.08368591,0.89532
359.596,20.91541,4.35595,-0.0839764,0.89498
360.296,20.9369,4.37765,-0.08410121,0.89463
360.996,20.95842,4.37984,-0.08552751,0.89429
361.696,20.97994,4.36122,-0.08566724,0.89395
362.396,21.0015,4.35661,-0.08696812,0.8936
363.096,21.0231,4.37982,-0.08696332,0.89326
363.796,21.04467,4.38743,-0.08824535,0.89292
364.496,21.06618,4.3977,-0.08897793,0.89257
365.196,21.08772,4.41019,-0.09233062,0.89223
365.896,21.10932,4.40984,-0.09374524,0.89189
366.596,21.1309,4.40568,-0.09478938,0.89154
367.296,21.15237,4.40305,-0.09646331,0.8912
367.996,21.1738,4.41601,-0.09539655,0.89086
368.696,21.19538,4.41869,-0.09484954,0.89051
369.396,21.21698,4.40624,-0.09608214,0.89017
370.096,21.2386,4.40123,-0.09634739,0.88983
370.796,21.26023,4.39143,-0.09630709,0.88949
371.496,21.28182,4.4069,-0.09767832,0.88914
372.196,21.3034,4.42669,-0.09762867,0.8888
372.896,21.32496,4.43721,-0.09778742,0.88846
373.596,21.3465,4.44811,-0.10036,0.88811
374.296,21.36814,4.45737,-0.10036,0.88777
374.996,21.38974,4.47009,-0.10099,0.88743
375.696,21.41131,4.48003,-0.10168,0.88709
376.396,21.43284,4.47952,-0.10197,0.88674
377.096,21.45443,4.46266,-0.10409,0.8864
377.796,21.47609,4.46592,-0.10462,0.88606
378.496,21.4977,4.49132,-0.1059,0.88571
379.196,21.51933,4.51193,-0.10751,0.88537
379.896,21.54091,4.52985,-0.10915,0.88503
380.596,21.56259,4.55352,-0.11112,0.88469
381.296,21.58428,4.56458,-0.1115,0.88434
381.996,21.60599,4.56987,-0.11314,0.884
382.696,21.62762,4.60056,-0.11415,0.88366
383.396,21.6493,4.60884,-0.1163,0.88331
384.096,21.67088,4.62405,-0.11837,0.88297
384.796,21.6925,4.63775,-0.11978,0.88263
385.496,21.7142,4.66178,-0.12136,0.88229
386.196,21.7358,4.67723,-0.12484,0.88194
386.896,21.7575,4.68545,-0.12783,0.8816
387.596,21.77918,4.7039,-0.13034,0.88126
388.296,21.80088,4.72628,-0.13212,0.88091
388.996,21.82262,4.75835,-0.13368,0.88057
389.696,21.8444,4.77935,-0.1349,0.88023
390.396,21.86613,4.80379,-0.13648,0.87988
391.096,21.88792,4.82509,-0.13857,0.87954
391.796,21.90963,4.8562,-0.14119,0.8792
392.496,21.93136,4.88119,-0.14379,0.87885
393.196,21.9531,4.90232,-0.14673,0.87851
393.896,21.97485,4.92682,-0.14989,0.87817
394.596,21.99662,4.95247,-0.15374,0.87782
395.296,22.01836,4.96499,-0.15575,0.87748
395.996,22.04,4.99618,-0.15751,0.87713
396.696,22.06175,5.02116,-0.16004,0.87679
397.396,22.0835,5.074,-0.16323,0.87645
398.096,22.10529,5.10629,-0.16683,0.8761
398.796,22.1271,5.14224,-0.16978,0.87576
399.496,22.14894,5.18218,-0.1725,0.87541
400.196,22.17059,5.201,-0.17566,0.87507
400.896,22.19231,5.22838,-0.17908,0.87473
401.596,22.2141,5.27292,-0.18173,0.87438
402.296,22.23592,5.31908,-0.18529,0.87404
402.996,22.25783,5.35501,-0.18962,0.87369
403.696,22.2796,5.38069,-0.19269,0.87335
404.396,22.30142,5.42071,-0.1949,0.873
405.096,22.32321,5.45684,-0.19935,0.87266
405.796,22.34497,5.50798,-0.20347,0.87231
406.496,22.3668,5.55438,-0.20777,0.87197
407.196,22.38847,5.60209,-0.21328,0.87162
407.896,22.41031,5.64382,-0.21782,0.87128
408.596,22.4321,5.69011,-0.22175,0.87093
409.296,22.454,5.72593,-0.22754,0.87058
409.996,22.47583,5.76946,-0.23323,0.87024
410.696,22.49772,5.81745,-0.23976,0.86989
411.396,22.51954,5.85893,-0.24613,0.86955
412.096,22.5414,5.91951,-0.25176,0.8692
412.796,22.5633,5.95409,-0.25699,0.86885
413.496,22.5852,5.98711,-0.2624,0.86851
414.196,22.60708,6.03701,-0.2683,0.86816
414.896,22.62898,6.08349,-0.2733,0.86781
415.596,22.65089,6.10665,-0.27743,0.86747
416.296,22.67275,6.15805,-0.28225,0.86712
416.996,22.69458,6.21155,-0.28475,0.86677
417.696,22.71642,6.24542,-0.28802,0.86643
418.396,22.73835,6.27383,-0.29229,0.86608
419.096,22.7603,6.30792,-0.29519,0.86573
419.796,22.7822,6.357,-0.30024,0.86538
420.496,22.8041,6.40907,-0.30642,0.86503
421.196,22.82611,6.45146,-0.31445,0.86469
421.896,22.848,6.4966,-0.31967,0.86434
422.596,22.87002,6.5414,-0.32544,0.86399
423.296,22.89196,6.59579,-0.33423,0.86364
423.996,22.91393,6.65079,-0.34101,0.86329
424.696,22.93584,6.68847,-0.34981,0.86294
425.396,22.95776,6.74496,-0.35629,0.86259
426.096,22.97968,6.77349,-0.36232,0.86224
426.796,23.00165,6.83261,-0.36911,0.86189
427.496,23.02365,6.86797,-0.37471,0.86155
428.196,23.04563,6.88992,-0.38026,0.8612
428.896,23.06755,6.93969,-0.38664,0.86085
429.596,23.08954,6.97795,-0.39297,0.86049
430.296,23.11155,7.01008,-0.40093,0.86014
430.996,23.13358,7.05777,-0.40843,0.85979
431.696,23.1555,7.1176,-0.41598,0.85944
432.396,23.17746,7.15618,-0.42278,0.85909
433.096,23.1994,7.19091,-0.43136,0.85874
433.796,23.2213,7.21769,-0.43962,0.85839
434.496,23.24333,7.26131,-0.44859,0.85804
435.196,23.26541,7.32202,-0.45862,0.85769
435.896,23.28746,7.36406,-0.46679,0.85733
436.596,23.30951,7.39726,-0.47812,0.85698
437.296,23.33135,7.46319,-0.48694,0.85663
437.996,23.35316,7.50186,-0.49452,0.85628
438.696,23.37514,7.55195,-0.50354,0.85592
439.396,23.39736,7.59249,-0.51229,0.85557
440.096,23.4196,7.64163,-0.52044,0.85522
440.796,23.44177,7.6887,-0.52986,0.85486
441.496,23.4638,7.73862,-0.53757,0.85451
442.196,23.4859,7.77405,-0.5451,0.85415
442.896,23.50789,7.81673,-0.55443,0.8538
443.596,23.52994,7.84433,-0.56317,0.85345
444.296,23.55198,7.89656,-0.57121,0.85309
444.996,23.57394,7.95088,-0.58203,0.85274
445.696,23.596,7.98393,-0.59089,0.85238
446.396,23.61802,8.04343,-0.60199,0.85202
447.096,23.64012,8.10195,-0.6131,0.85167
447.796,23.6623,8.14698,-0.62355,0.85131
448.496,23.6844,8.19061,-0.63423,0.85096
449.196,23.70649,8.22286,-0.64564,0.8506
449.896,23.72854,8.28979,-0.65525,0.85024
450.596,23.75055,8.33727,-0.6659,0.84989
451.296,23.77276,8.38385,-0.67604,0.84953
451.996,23.79489,8.43691,-0.6858,0.84917
452.696,23.8171,8.48545,-0.6992,0.84881
453.396,23.8392,8.53665,-0.71331,0.84845
454.096,23.86133,8.58507,-0.7253,0.8481
454.796,23.88351,8.63268,-0.73895,0.84774
455.496,23.90571,8.68956,-0.75291,0.84738
456.196,23.92791,8.74704,-0.76576,0.84702
456.896,23.9501,8.80767,-0.77876,0.84666
457.596,23.97227,8.8617,-0.79269,0.8463
458.296,23.99449,8.89578,-0.80462,0.84594
458.996,24.0166,8.96426,-0.81936,0.84558
459.696,24.0388,9.02122,-0.83478,0.84522
460.396,24.061,9.06652,-0.84774,0.84486
461.096,24.08322,9.12204,-0.86237,0.8445
461.796,24.10547,9.15706,-0.87726,0.84413
462.496,24.12763,9.20962,-0.88969,0.84377
463.196,24.14984,9.28336,-0.90428,0.84341
463.896,24.1721,9.34018,-0.92041,0.84305
464.596,24.1943,9.38855,-0.93523,0.84268
465.296,24.2165,9.44734,-0.9516,0.84232
465.996,24.23864,9.49155,-0.96536,0.84196
466.696,24.2608,9.5401,-0.97893,0.84159
467.396,24.2831,9.58466,-0.9947,0.84123
468.096,24.30539,9.63816,-1.01327,0.84087
468.796,24.3277,9.66772,-1.03013,0.8405
469.496,24.34996,9.69717,-1.04849,0.84014
470.196,24.37218,9.75189,-1.06632,0.83977
470.896,24.3945,9.80327,-1.08249,0.8394
471.596,24.41676,9.82874,-1.10144,0.83904
472.296,24.43903,9.86391,-1.12116,0.83867
472.996,24.46124,9.88793,-1.13838,0.83831
473.696,24.48351,9.90768,-1.15667,0.83794
474.396,24.50574,9.93141,-1.17699,0.83757
475.096,24.52789,9.95905,-1.19421,0.8372
475.796,24.5503,9.9757,-1.2165,0.83684
476.496,24.57275,9.99035,-1.23994,0.83647
477.196,24.5953,9.9922,-1.26119,0.8361
477.896,24.6176,9.99813,-1.28127,0.83573
478.596,24.63989,9.99527,-1.30243,0.83536
479.296,24.66217,9.98466,-1.32025,0.83499
479.996,24.6845,9.9732,-1.34109,0.83462
480.696,24.70692,9.95052,-1.36397,0.83425
481.396,24.7293,9.93449,-1.38466,0.83388
482.096,24.7516,9.89922,-1.40605,0.83351
482.796,24.77393,9.85927,-1.42933,0.83314
483.496,24.7962,9.80437,-1.44881,0.83276
484.196,24.81859,9.73858,-1.46904,0.83239
484.896,24.8409,9.68372,-1.4916,0.83202
485.596,24.86316,9.60656,-1.51144,0.83165
486.296,24.88545,9.54107,-1.53083,0.83127
486.996,24.9078,9.46835,-1.55286,0.8309
487.696,24.93011,9.365,-1.57417,0.83052
488.396,24.95251,9.25639,-1.59533,0.83015
489.096,24.97493,9.12967,-1.62055,0.82978
489.796,24.99729,8.9924,-1.64298,0.8294
490.496,25.01959,8.86094,-1.66347,0.82902
491.196,25.04199,8.69551,-1.68558,0.82865
491.896,25.06435,8.5465,-1.70635,0.82827
492.596,25.08673,8.36891,-1.7251,0.8279
493.296,25.1091,8.18449,-1.74702,0.82752
493.996,25.1314,8.00561,-1.76732,0.82714
494.696,25.1538,7.80397,-1.78545,0.82676
495.396,25.1761,7.60117,-1.80493,0.82638
496.096,25.19839,7.37091,-1.82142,0.82601
496.796,25.2207,7.14596,-1.83599,0.82563
497.496,25.24304,6.90913,-1.8547,0.82525
498.196,25.26533,6.6426,-1.87211,0.82487
498.896,25.28761,6.36363,-1.88503,0.82449
499.596,25.30996,6.07226,-1.89943,0.82411
500.296,25.3323,5.76289,-1.91356,0.82372
500.996,25.35468,5.45961,-1.92558,0.82334
501.696,25.37699,5.13774,-1.93874,0.82296
502.396,25.3994,4.81987,-1.95121,0.82258
503.096,25.4217,4.50368,-1.96203,0.8222
503.796,25.44398,4.18917,-1.97264,0.82181
504.496,25.46623,3.89947,-1.98295,0.82143
505.196,25.48851,3.62119,-1.98987,0.82104
505.896,25.51085,3.36977,-1.99665,0.82066
506.596,25.53322,3.13663,-2.00187,0.82027
507.296,25.55555,2.92383,-2.00396,0.81989
507.996,25.57783,2.72696,-2.00626,0.8195
508.696,25.60012,2.55787,-2.01057,0.81912
509.396,25.62252,2.40046,-2.01284,0.81873
510.096,25.64487,2.2521,-2.01522,0.81834
510.796,25.66726,2.11925,-2.01826,0.81796
511.496,25.6896,1.99076,-2.02112,0.81757
512.196,25.71204,1.89345,-2.02378,0.81718
512.896,25.7344,1.81614,-2.02517,0.81679
513.596,25.75682,1.73081,-2.02574,0.8164
514.296,25.77919,1.68198,-2.02712,0.81601
514.996,25.80162,1.62281,-2.02759,0.81562
515.696,25.82401,1.57063,-2.02838,0.81523
516.396,25.8464,1.5316,-2.02986,0.81484
517.096,25.86882,1.49342,-2.02986,0.81445
517.796,25.89125,1.46085,-2.03026,0.81406
518.496,25.91364,1.43384,-2.03117,0.81366
519.196,25.9361,1.40584,-2.03117,0.81327
519.896,25.95864,1.38562,-2.03117,0.81288
520.596,25.98116,1.36296,-2.03117,0.81248
521.296,26.00366,1.34894,-2.03117,0.81209
521.996,26.02609,1.33437,-2.03118,0.81169
522.696,26.04853,1.32438,-2.0289,0.8113
523.396,26.07098,1.31471,-2.02836,0.8109
524.096,26.0934,1.30928,-2.0269,0.81051
524.796,26.11596,1.29214,-2.0269,0.81011
525.496,26.13851,1.28714,-2.0269,0.80971
526.196,26.16103,1.28007,-2.02689,0.80932
526.896,26.18357,1.28722,-2.02852,0.80892
527.596,26.20601,1.28839,-2.02805,0.80852
528.296,26.2285,1.32152,-2.02842,0.80812
528.996,26.25096,1.34699,-2.02988,0.80772
529.696,26.27347,1.35145,-2.03108,0.80732
530.396,26.29598,1.38049,-2.0331,0.80692
531.096,26.31845,1.40116,-2.03575,0.80652
531.796,26.34092,1.44376,-2.03701,0.80612
532.496,26.36335,1.45811,-2.03883,0.80572
533.196,26.3858,1.47026,-2.0403,0.80531
533.896,26.40833,1.49247,-2.04148,0.80491
534.596,26.43085,1.49147,-2.04148,0.80451
535.296,26.4534,1.49063,-2.04148,0.8041
535.996,26.47597,1.46421,-2.04144,0.8037
536.696,26.4986,1.45529,-2.04283,0.8033
537.396,26.5212,1.4376,-2.04185,0.80289
538.096,26.54379,1.41731,-2.04103,0.80248
538.796,26.56643,1.39297,-2.03962,0.80208
539.496,26.58904,1.38007,-2.03813,0.80167
540.196,26.61164,1.35832,-2.03677,0.80126
540.896,26.63425,1.31261,-2.03638,0.80086
541.596,26.6568,1.3144,-2.03611,0.80045
542.296,26.67945,1.31389,-2.03611,0.80004
542.996,26.7021,1.31735,-2.03611,0.79963
543.696,26.72477,1.31611,-2.03609,0.79922
544.396,26.7475,1.30174,-2.03766,0.79881
545.096,26.7702,1.29008,-2.03764,0.7984
545.796,26.7929,1.27937,-2.03764,0.79799
546.496,26.8156,1.28276,-2.03764,0.79757
547.196,26.83826,1.25514,-2.03764,0.79716
547.896,26.86095,1.22663,-2.03634,0.79675
548.596,26.88363,1.2308,-2.03602,0.79634
549.296,26.90636,1.22986,-2.03534,0.79592
549.996,26.9291,1.23739,-2.03651,0.79551
550.696,26.95182,1.23132,-2.03662,0.79509
551.396,26.9745,1.22025,-2.03794,0.79468
552.096,26.99724,1.2174,-2.03933,0.79426
552.796,27.02001,1.21094,-2.03929,0.79384
553.496,27.0427,1.21467,-2.03929,0.79343
554.196,27.0654,1.19647,-2.03929,0.79301
554.896,27.08812,1.1878,-2.04012,0.79259
555.596,27.1109,1.19678,-2.0406,0.79217
556.296,27.1337,1.19373,-2.0406,0.79175
556.996,27.1565,1.19623,-2.0406,0.79133
557.696,27.17922,1.19354,-2.0406,0.79091
558.396,27.202,1.19409,-2.0406,0.79049
559.096,27.22478,1.19274,-2.0406,0.79007
559.796,27.2474,1.21303,-2.0406,0.78965
560.496,27.2702,1.20679,-2.04072,0.78923
561.196,27.29298,1.20874,-2.04203,0.7888
561.896,27.3159,1.21706,-2.04371,0.78838
562.596,27.33865,1.21555,-2.0442,0.78795
563.296,27.36151,1.21797,-2.04599,0.78753
563.996,27.38438,1.23019,-2.04777,0.7871
564.696,27.40728,1.23497,-2.04774,0.78668
565.396,27.43008,1.24853,-2.04774,0.78625
566.096,27.4529,1.25258,-2.04774,0.78583
566.796,27.47571,1.26192,-2.04829,0.7854
567.496,27.4986,1.27334,-2.049,0.78497
568.196,27.52147,1.2842,-2.05082,0.78454
568.896,27.54437,1.2984,-2.05168,0.78411
569.596,27.56727,1.30037,-2.05168,0.78368
570.296,27.59011,1.31048,-2.05049,0.78325
570.996,27.6129,1.31232,-2.04899,0.78282
571.696,27.6358,1.32945,-2.04818,0.78239
572.396,27.65868,1.33097,-2.04661,0.78196
573.096,27.68158,1.33678,-2.04795,0.78153
573.796,27.7045,1.32886,-2.04812,0.78109
574.496,27.72733,1.343,-2.04894,0.78066
575.196,27.75018,1.35793,-2.04966,0.78022
575.896,27.773,1.35303,-2.05046,0.77979
576.596,27.7959,1.36439,-2.05199,0.77935
577.296,27.81888,1.3712,-2.05197,0.77892
577.996,27.84184,1.38392,-2.05367,0.77848
578.696,27.8648,1.38846,-2.05365,0.77804
579.396,27.8878,1.40099,-2.05365,0.77761
580.096,27.9107,1.41469,-2.05438,0.77717
580.796,27.93362,1.42851,-2.05497,0.77673
581.496,27.95648,1.42586,-2.05636,0.77629
582.196,27.9794,1.43788,-2.05498,0.77585
582.896,28.0024,1.45079,-2.0549,0.77541
583.596,28.02539,1.45946,-2.05365,0.77497
584.296,28.04836,1.45846,-2.05366,0.77453
584.996,28.07126,1.48301,-2.05361,0.77409
585.696,28.0942,1.47504,-2.05497,0.77364
586.396,28.1171,1.49229,-2.05498,0.7732
587.096,28.1401,1.50849,-2.05498,0.77275
587.796,28.16307,1.52404,-2.05364,0.77231
588.496,28.1861,1.53409,-2.05366,0.77187
589.196,28.20895,1.54355,-2.05362,0.77142
589.896,28.23191,1.56499,-2.05499,0.77097
590.596,28.25491,1.57808,-2.05501,0.77053
591.296,28.27802,1.60111,-2.05717,0.77008
591.996,28.301,1.61009,-2.05787,0.76963
592.696,28.324,1.62365,-2.06071,0.76918
593.396,28.34696,1.64005,-2.062,0.76873
594.096,28.36999,1.66273,-2.06348,0.76828
594.796,28.39299,1.69839,-2.06342,0.76783
595.496,28.416,1.70097,-2.06479,0.76738
596.196,28.439,1.72492,-2.06474,0.76693
596.896,28.46195,1.75545,-2.06491,0.76648
597.596,28.4849,1.76395,-2.06539,0.76602
598.296,28.5079,1.78393,-2.06538,0.76557
598.996,28.531,1.81527,-2.06607,0.76512
599.696,28.554,1.83826,-2.06601,0.76466
600.396,28.577,1.86288,-2.06469,0.76421
601.096,28.6,1.88899,-2.06605,0.76375
601.796,28.62298,1.91634,-2.06487,0.76329
602.496,28.64599,1.95509,-2.06474,0.76284
603.196,28.66897,1.9703,-2.06474,0.76238
603.896,28.692,2.00637,-2.06474,0.76192
604.596,28.7151,2.04738,-2.06516,0.76146
605.296,28.73815,2.08942,-2.06535,0.761
605.996,28.76122,2.12543,-2.06694,0.76054
606.696,28.78422,2.16722,-2.06865,0.76008
607.396,28.80726,2.20897,-2.07044,0.75962
608.096,28.83026,2.2659,-2.07234,0.75916
608.796,28.85332,2.31183,-2.07362,0.7587
609.496,28.87636,2.35705,-2.07361,0.75823
610.196,28.8994,2.42724,-2.07606,0.75777
610.896,28.9225,2.47477,-2.07813,0.7573
611.596,28.94554,2.5209,-2.08212,0.75684
612.296,28.96857,2.57927,-2.08411,0.75637
612.996,28.9916,2.63962,-2.0855,0.75591
613.696,29.01462,2.70796,-2.08654,0.75544
614.396,29.03766,2.78189,-2.08758,0.75497
615.096,29.0607,2.8494,-2.0888,0.75451
615.796,29.0837,2.92878,-2.09038,0.75404
616.496,29.1068,3.00625,-2.09041,0.75357
617.196,29.12987,3.08263,-2.09041,0.7531
617.896,29.1531,3.17234,-2.09104,0.75263
618.596,29.1762,3.2554,-2.09292,0.75216
619.296,29.1993,3.34044,-2.09472,0.75168
619.996,29.22229,3.4222,-2.09593,0.75121
620.696,29.24533,3.51113,-2.09544,0.75074
621.396,29.26841,3.6038,-2.09612,0.75027
622.096,29.2915,3.68367,-2.0963,0.74979
622.796,29.3145,3.78889,-2.09672,0.74932
623.496,29.3376,3.87737,-2.09619,0.74884
624.196,29.36072,3.97031,-2.09739,0.74836
624.896,29.38383,4.07007,-2.10118,0.74789
625.596,29.40693,4.15455,-2.10349,0.74741
626.296,29.43,4.25238,-2.10609,0.74693
626.996,29.453,4.34473,-2.10757,0.74645
627.696,29.476,4.43788,-2.11027,0.74598
628.396,29.4991,4.54403,-2.11291,0.7455
629.096,29.52226,4.63861,-2.11557,0.74501
629.796,29.5453,4.7231,-2.1184,0.74453
630.496,29.5684,4.81644,-2.12252,0.74405
631.196,29.5915,4.89412,-2.1266,0.74357
631.896,29.61461,4.98983,-2.1289,0.74309
632.596,29.63775,5.06104,-2.12951,0.7426
633.296,29.6609,5.14219,-2.13089,0.74212
633.996,29.68396,5.20727,-2.13322,0.74163
634.696,29.70709,5.28783,-2.13562,0.74115
635.396,29.7302,5.36456,-2.13683,0.74066
636.096,29.75334,5.41872,-2.13756,0.74018
636.796,29.7764,5.47785,-2.13884,0.73969
637.496,29.7994,5.5327,-2.14057,0.7392
638.196,29.8225,5.57928,-2.14283,0.73871
638.896,29.8456,5.63327,-2.14521,0.73822
639.596,29.8689,5.67361,-2.1471,0.73773
640.296,29.8921,5.71027,-2.14773,0.73724
640.996,29.91518,5.7518,-2.14939,0.73675
641.696,29.93833,5.75961,-2.15111,0.73626
642.396,29.96142,5.79173,-2.15298,0.73577
643.096,29.98445,5.80214,-2.1555,0.73527
643.796,30.00749,5.82085,-2.15991,0.73478
644.496,30.03057,5.83685,-2.16497,0.73429
645.196,30.05374,5.82942,-2.1691,0.73379
645.896,30.0769,5.82435,-2.17276,0.7333
646.596,30.10003,5.80429,-2.17563,0.7328
647.296,30.1231,5.79778,-2.177,0.7323
647.996,30.14616,5.76052,-2.17768,0.7318
648.696,30.16925,5.74384,-2.18245,0.73131
649.396,30.19241,5.70505,-2.18786,0.73081
650.096,30.2155,5.65926,-2.19272,0.73031
650.796,30.2387,5.60791,-2.19436,0.72981
651.496,30.26182,5.55426,-2.19598,0.72931
652.196,30.2849,5.48876,-2.19782,0.72881
652.896,30.308,5.42419,-2.19971,0.7283
653.596,30.33108,5.34984,-2.20255,0.7278
654.296,30.3542,5.27186,-2.20485,0.7273
654.996,30.37717,5.16816,-2.20719,0.7268
655.696,30.40022,5.10327,-2.20788,0.72629
656.396,30.42332,5.00416,-2.20995,0.72579
657.096,30.4465,4.90889,-2.21258,0.72528
657.796,30.4696,4.81953,-2.21436,0.72477
658.496,30.4927,4.72499,-2.21711,0.72427
659.196,30.51565,4.63486,-2.2171,0.72376
659.896,30.53871,4.56582,-2.21891,0.72325
660.596,30.5618,4.48088,-2.2215,0.72274
661.296,30.585,4.40035,-2.2246,0.72223
661.996,30.60825,4.31834,-2.22866,0.72172
662.696,30.63134,4.24133,-2.23093,0.72121
663.396,30.6544,4.18159,-2.23198,0.7207
664.096,30.6774,4.1123,-2.23363,0.72019
664.796,30.70058,4.05326,-2.23568,0.71967
665.496,30.72365,3.99287,-2.23832,0.71916
666.196,30.74666,3.95886,-2.24013,0.71865
666.896,30.7695,3.91255,-2.24157,0.71813
667.596,30.7924,3.87999,-2.24287,0.71762
668.296,30.8156,3.87839,-2.24294,0.7171
668.996,30.83898,3.89772,-2.24352,0.71658
669.696,30.8623,4.01539,-2.24352,0.71607
670.396,30.88555,4.17359,-2.24356,0.71555
671.096,30.90874,4.37782,-2.2414,0.71503
671.796,30.93195,4.59379,-2.24095,0.71451
672.496,30.95512,4.81101,-2.2409,0.71399
673.196,30.9783,5.01068,-2.2409,0.71347
673.896,31.0016,5.21058,-2.2414,0.71295
674.596,31.02478,5.4118,-2.24312,0.71243
675.296,31.0479,5.58062,-2.24489,0.71191
675.996,31.0711,5.74148,-2.24737,0.71138
676.696,31.0943,5.90235,-2.24882,0.71086
677.396,31.11761,6.0426,-2.25163,0.71034
678.096,31.14084,6.20051,-2.25432,0.70981
678.796,31.1641,6.35031,-2.25733,0.70929
679.496,31.1873,6.47705,-2.25994,0.70876
680.196,31.21057,6.62095,-2.26423,0.70823
680.896,31.23384,6.75338,-2.26693,0.70771
681.596,31.2571,6.88966,-2.26982,0.70718
682.296,31.2804,7.01141,-2.27385,0.70665
682.996,31.3037,7.13958,-2.27733,0.70612
683.696,31.32687,7.2659,-2.28218,0.70559
684.396,31.35005,7.38364,-2.28609,0.70506
685.096,31.37327,7.501,-2.28991,0.70453
685.796,31.3965,7.6324,-2.29337,0.704
686.496,31.4198,7.737,-2.29659,0.70346
687.196,31.44303,7.86086,-2.30038,0.70293
687.896,31.46635,7.97388,-2.30371,0.7024
688.596,31.4896,8.07322,-2.30471,0.70186
689.296,31.5129,8.19055,-2.30583,0.70133
689.996,31.53612,8.28509,-2.3043,0.70079
690.696,31.55947,8.39578,-2.30566,0.70026
691.396,31.58271,8.51669,-2.30635,0.69972
692.096,31.60598,8.62181,-2.30673,0.69918
692.796,31.62916,8.7401,-2.3086,0.69864
693.496,31.6525,8.84955,-2.31088,0.6981
694.196,31.67578,8.94439,-2.31473,0.69756
694.896,31.69909,9.05422,-2.31867,0.69702
695.596,31.72239,9.16293,-2.32169,0.69648
696.296,31.7457,9.26738,-2.32521,0.69594
696.996,31.76902,9.37041,-2.32851,0.6954
697.696,31.7923,9.47727,-2.33335,0.69486
698.396,31.8156,9.59532,-2.3384,0.69432
699.096,31.839,9.6774,-2.34311,0.69377
699.796,31.8621,9.77505,-2.3477,0.69323
700.496,31.88537,9.8658,-2.35268,0.69268
701.196,31.9087,9.96291,-2.35504,0.69214
701.896,31.9322,10.06177,-2.35743,0.69159
702.596,31.95563,10.15284,-2.3612,0.69104
703.296,31.9787,10.24647,-2.36456,0.6905
703.996,32.00192,10.33896,-2.37008,0.68995
704.696,32.02517,10.43626,-2.37783,0.6894
705.396,32.0486,10.50112,-2.38416,0.68885
706.096,32.07168,10.58279,-2.3889,0.6883
706.796,32.09475,10.66272,-2.39101,0.68775
707.496,32.118,10.73145,-2.3923,0.6872
708.196,32.14156,10.7897,-2.39457,0.68664
708.896,32.16512,10.87336,-2.39695,0.68609
709.596,32.1886,10.9227,-2.40011,0.68554
710.296,32.2119,10.9815,-2.40343,0.68499
710.996,32.23531,11.04353,-2.40805,0.68443
711.696,32.25864,11.1055,-2.41263,0.68388
712.396,32.28201,11.15922,-2.41691,0.68332
713.096,32.30535,11.23673,-2.42214,0.68276
713.796,32.3287,11.27095,-2.42681,0.68221
714.496,32.35203,11.34825,-2.42912,0.68165
715.196,32.37536,11.40881,-2.43352,0.68109
715.896,32.3987,11.48033,-2.4381,0.68053
716.596,32.42205,11.56736,-2.43944,0.67997
717.296,32.4454,11.65934,-2.44086,0.67941
717.996,32.46875,11.7631,-2.4429,0.67885
718.696,32.49208,11.87228,-2.44668,0.67829
719.396,32.5154,11.99878,-2.45092,0.67773
720.096,32.5387,12.13422,-2.45508,0.67717
720.796,32.56208,12.2956,-2.45835,0.6766
721.496,32.58543,12.4526,-2.46187,0.67604
722.196,32.6087,12.591,-2.46355,0.67548
722.896,32.632,12.76177,-2.46775,0.67491
723.596,32.6554,12.94015,-2.47374,0.67435
724.296,32.67866,13.11459,-2.4781,0.67378
724.996,32.70207,13.2774,-2.48308,0.67321
725.696,32.72545,13.45925,-2.48838,0.67265
726.396,32.74888,13.63931,-2.49647,0.67208
727.096,32.77232,13.8063,-2.50408,0.67151
727.796,32.79572,13.98241,-2.51165,0.67094
728.496,32.81909,14.16303,-2.51752,0.67037
729.196,32.84243,14.34854,-2.52261,0.6698
729.896,32.8658,14.53972,-2.52792,0.66923
730.596,32.88926,14.7116,-2.53316,0.66866
731.296,32.91265,14.88909,-2.53879,0.66808
731.996,32.936,15.06228,-2.54672,0.66751
732.696,32.95933,15.24916,-2.55246,0.66694
733.396,32.98278,15.4251,-2.55772,0.66636
734.096,33.0062,15.6174,-2.56306,0.66579
734.796,33.02973,15.8138,-2.56842,0.66521
735.496,33.0531,15.9945,-2.57386,0.66464
736.196,33.07656,16.16979,-2.57839,0.66406
736.896,33.09997,16.3559,-2.58354,0.66349
737.596,33.12339,16.54191,-2.58853,0.66291
738.296,33.14679,16.72777,-2.59335,0.66233
738.996,33.1702,16.91018,-2.59835,0.66175
739.696,33.1937,17.1007,-2.6046,0.66117
740.396,33.21718,17.2915,-2.61169,0.66059
741.096,33.24062,17.47031,-2.6175,0.66001
741.796,33.2641,17.64944,-2.62311,0.65943
742.496,33.28752,17.83028,-2.62971,0.65885
743.196,33.31107,17.99125,-2.63711,0.65827
743.896,33.33453,18.16279,-2.64502,0.65768
744.596,33.35796,18.30082,-2.65142,0.6571
745.296,33.3814,18.46494,-2.65811,0.65652
745.996,33.40486,18.61635,-2.66516,0.65593
746.696,33.4284,18.76204,-2.67216,0.65535
747.396,33.45182,18.88798,-2.67983,0.65476
748.096,33.47526,19.01507,-2.6883,0.65417
748.796,33.4987,19.1484,-2.69704,0.65359
749.496,33.52211,19.24833,-2.70431,0.653
750.196,33.54557,19.35122,-2.71266,0.65241
750.896,33.56901,19.45051,-2.71919,0.65182
751.596,33.5925,19.5615,-2.72552,0.65123
752.296,33.61596,19.63499,-2.7332,0.65064
752.996,33.6394,19.71001,-2.74031,0.65005
753.696,33.66283,19.75545,-2.74465,0.64946
754.396,33.68629,19.81567,-2.74821,0.64887
755.096,33.7097,19.85736,-2.75399,0.64828
755.796,33.73317,19.90361,-2.76106,0.64768
756.496,33.75658,19.936,-2.77006,0.64709
757.196,33.77995,19.9475,-2.7803,0.6465
757.896,33.80336,19.94109,-2.79075,0.6459
758.596,33.82679,19.92835,-2.79922,0.64531
759.296,33.8502,19.88036,-2.80596,0.64471
759.996,33.87365,19.81922,-2.81212,0.64412
760.696,33.89696,19.71821,-2.81878,0.64352
761.396,33.9204,19.5857,-2.82672,0.64292
762.096,33.94378,19.38149,-2.83377,0.64232
762.796,33.9672,19.11638,-2.84164,0.64172
763.496,33.99074,18.78361,-2.85013,0.64113
764.196,34.01416,18.35014,-2.85985,0.64053
764.896,34.0376,17.772,-2.87118,0.63993
765.596,34.06098,17.06476,-2.88109,0.63933
766.296,34.08432,16.13513,-2.88867,0.63872
766.996,34.1076,14.7925,-2.89486,0.63812
767.696,34.13089,11.9297,-2.89853,0.63752
768.396,34.15412,8.97622,-2.90207,0.63692
769.096,34.17731,6.72366,-2.9041,0.63631
769.796,34.20044,5.04206,-2.90547,0.63571
770.496,34.22368,3.83067,-2.9061,0.63511
771.196,34.24682,2.92924,-2.90526,0.6345
771.896,34.27005,2.27276,-2.90398,0.63389
772.596,34.29317,1.78127,-2.90263,0.63329
773.296,34.31637,1.37052,-2.9012,0.63268
773.996,34.33959,1.08149,-2.9019,0.63207
774.696,34.36282,0.84868,-2.90121,0.63147
775.396,34.38609,0.67864,-2.90121,0.63086
776.096,34.40935,0.52674,-2.90126,0.63025
776.796,34.4328,0.42197,-2.89991,0.62964
777.496,34.4562,0.35612,-2.89989,0.62903
778.196,34.47972,0.3043,-2.8999,0.62842
778.896,34.5031,0.26731,-2.89858,0.62781
779.596,34.5266,0.23726,-2.89857,0.6272
780.296,34.55004,0.23496,-2.89855,0.62658
780.996,34.57345,0.22417,-2.89988,0.62597
781.696,34.5969,0.23255,-2.90135,0.62536
782.396,34.62037,0.23572,-2.90347,0.62474
783.096,34.64386,0.24573,-2.90456,0.62413
783.796,34.6674,0.25577,-2.90712,0.62351
784.496,34.69086,0.25039,-2.90848,0.6229
785.196,34.71435,0.265,-2.90844,0.62228
785.896,34.7378,0.27888,-2.90844,0.62167
786.596,34.76126,0.28905,-2.90846,0.62105
787.296,34.78465,0.28632,-2.90698,0.62043
787.996,34.808,0.31242,-2.90702,0.61981
788.696,34.83153,0.33206,-2.90783,0.6192
789.396,34.85507,0.31138,-2.90854,0.61858
790.096,34.87859,0.33085,-2.90997,0.61796
790.796,34.902,0.32897,-2.9101,0.61734
791.496,34.92542,0.34251,-2.90903,0.61672
792.196,34.9489,0.34827,-2.91004,0.6161
792.896,34.9724,0.35913,-2.91163,0.61547
793.596,34.996,0.35795,-2.91341,0.61485
793.696,34.9993,0.35848,-2.91338,0.61476