File: 01_Data/Polyolefin_Carpet_Low_Pile/STA/N2/30K_min/Polyolefin_Carpet_Low_Pile_STA_N2_30KData_220303_R1.csv
##Temp./Â°C,Time/min,DSC(subtr.2)/mW,Mass loss(subtr.2)/mg,Sensit./(uV/mW)
48.85,10.00667,-0.01051047,-0.00976,1.08885
49.55,10.55408,0.13319,-0.008545593,1.08825
50.25,10.67807,0.26606,-0.009346576,1.08766
50.95,10.76667,0.38671,-0.009210021,1.08708
51.65,10.83977,0.49589,-0.008437043,1.08649
52.35,10.90243,0.60722,-0.008929302,1.0859
53.05,10.95858,0.69268,-0.0110988,1.08531
53.75,11.00982,0.77776,-0.008793965,1.08473
54.45,11.05764,0.86764,-0.009343292,1.08414
55.15,11.10239,0.94291,-0.00845612,1.08356
55.85,11.145,1.0239,-0.008391661,1.08298
56.55,11.18538,1.09283,-0.009138593,1.08239
57.25,11.22407,1.17171,-0.0102726,1.08181
57.95,11.2614,1.24096,-0.008655045,1.08123
58.65,11.29743,1.29511,-0.006866667,1.08065
59.35,11.33248,1.36033,-0.005135458,1.08007
60.05,11.3667,1.42484,-0.005260548,1.07949
60.75,11.4001,1.46816,-0.00734001,1.07892
61.45,11.43258,1.52122,-0.007339275,1.07834
62.15,11.46441,1.57529,-0.00549097,1.07776
62.85,11.49584,1.62618,-0.00586793,1.07719
63.55,11.52656,1.67939,-0.006461848,1.07661
64.25,11.55677,1.72119,-0.00724521,1.07604
64.95,11.5866,1.76626,-0.007670471,1.07547
65.65,11.61607,1.8143,-0.008517162,1.0749
66.35,11.64509,1.85796,-0.008123859,1.07433
67.05,11.67375,1.89622,-0.007456548,1.07376
67.75,11.70214,1.92858,-0.008144181,1.07319
68.45,11.73016,1.969,-0.008254671,1.07262
69.15,11.75798,1.99646,-0.007311737,1.07205
69.85,11.78554,2.03018,-0.00690409,1.07149
70.55,11.81278,2.06532,-0.007258393,1.07092
71.25,11.83972,2.08933,-0.007358326,1.07036
71.95,11.8667,2.11381,-0.008450301,1.06979
72.65,11.89339,2.15069,-0.009431,1.06923
73.35,11.92004,2.16964,-0.009317707,1.06867
74.05,11.94658,2.1906,-0.008664726,1.06811
74.75,11.97296,2.20878,-0.010284,1.06755
75.45,11.99912,2.23885,-0.009857847,1.06699
76.15,12.02517,2.25506,-0.009162148,1.06643
76.85,12.0511,2.28249,-0.00902,1.06587
77.55,12.0768,2.29847,-0.009499816,1.06531
78.25,12.10244,2.32396,-0.01083191,1.06476
78.95,12.1279,2.3457,-0.01063778,1.0642
79.65,12.15334,2.35414,-0.01108006,1.06365
80.35,12.1786,2.36799,-0.01118081,1.06309
81.05,12.20388,2.38622,-0.01105516,1.06254
81.75,12.22914,2.40769,-0.009802039,1.06199
82.45,12.2543,2.41771,-0.009315073,1.06144
83.15,12.27922,2.43161,-0.01026794,1.06089
83.85,12.304,2.44488,-0.01063647,1.06034
84.55,12.3288,2.46204,-0.01047528,1.05979
85.25,12.3535,2.48212,-0.0105197,1.05924
85.95,12.3782,2.49035,-0.00972079,1.05869
86.65,12.40285,2.50214,-0.01056908,1.05815
87.35,12.4274,2.5131,-0.00918372,1.0576
88.05,12.45191,2.5227,-0.01006405,1.05706
88.75,12.47637,2.54443,-0.009338665,1.05651
89.45,12.50078,2.54774,-0.009247494,1.05597
90.15,12.52508,2.56352,-0.009192989,1.05543
90.85,12.54932,2.5749,-0.00972045,1.05489
91.55,12.57346,2.57827,-0.009210691,1.05435
92.25,12.5975,2.59202,-0.009217476,1.05381
92.95,12.62158,2.60048,-0.00899976,1.05327
93.65,12.64547,2.61562,-0.008119936,1.05273
94.35,12.6694,2.61715,-0.007663995,1.05219
95.05,12.693,2.63088,-0.00898321,1.05166
95.75,12.71688,2.64104,-0.008971315,1.05112
96.45,12.74078,2.65325,-0.01031883,1.05059
97.15,12.76497,2.65328,-0.009680906,1.05005
97.85,12.78877,2.65891,-0.01030369,1.04952
98.55,12.81259,2.67118,-0.01031202,1.04899
99.25,12.83642,2.68016,-0.009281183,1.04846
99.95,12.85988,2.67774,-0.008989994,1.04793
100.65,12.8836,2.69319,-0.009279354,1.0474
101.35,12.90727,2.70162,-0.01031107,1.04687
102.05,12.93127,2.70931,-0.01071224,1.04634
102.75,12.955,2.7169,-0.01051392,1.04581
103.45,12.97874,2.71813,-0.01031131,1.04529
104.15,13.00238,2.72453,-0.009918978,1.04476
104.85,13.02597,2.72738,-0.01030834,1.04424
105.55,13.04946,2.74115,-0.01032168,1.04371
106.25,13.073,2.74697,-0.01161351,1.04319
106.95,13.09651,2.74836,-0.01161507,1.04267
107.65,13.12009,2.75711,-0.01064385,1.04215
108.35,13.14369,2.76813,-0.01162645,1.04163
109.05,13.1673,2.77415,-0.01162999,1.04111
109.75,13.19079,2.77672,-0.01163098,1.04059
110.45,13.2142,2.78172,-0.01167829,1.04007
111.15,13.2376,2.77249,-0.01293009,1.03955
111.85,13.26114,2.78751,-0.01293995,1.03903
112.55,13.28459,2.80179,-0.01294006,1.03852
113.25,13.308,2.80274,-0.01294516,1.038
113.95,13.3311,2.80746,-0.01415477,1.03749
114.65,13.3545,2.81066,-0.01294958,1.03698
115.35,13.3779,2.81983,-0.01293978,1.03646
116.05,13.4017,2.81816,-0.01293305,1.03595
116.75,13.4252,2.81391,-0.0117257,1.03544
117.45,13.4486,2.82967,-0.01275236,1.03493
118.15,13.4719,2.82834,-0.01294058,1.03442
118.85,13.4953,2.83311,-0.01293995,1.03391
119.55,13.5186,2.83988,-0.01294418,1.0334
120.25,13.5418,2.85166,-0.01405877,1.0329
120.95,13.56509,2.85581,-0.0133034,1.03239
121.65,13.58831,2.85894,-0.01327029,1.03189
122.35,13.6115,2.87029,-0.01326999,1.03138
123.05,13.6348,2.86741,-0.0132694,1.03088
123.75,13.65802,2.87409,-0.01345343,1.03038
124.45,13.68123,2.88516,-0.01458601,1.02987
125.15,13.7044,2.89304,-0.01459007,1.02937
125.85,13.7275,2.91253,-0.01459,1.02887
126.55,13.7506,2.90559,-0.01459,1.02837
127.25,13.7736,2.90809,-0.01459,1.02787
127.95,13.7966,2.91794,-0.01459,1.02737
128.65,13.81949,2.92973,-0.01459,1.02688
129.35,13.8424,2.94246,-0.01459,1.02638
130.05,13.86542,2.95264,-0.01458989,1.02588
130.75,13.88841,2.95723,-0.01457479,1.02539
131.45,13.91131,2.97041,-0.01549503,1.02489
132.15,13.9341,2.9762,-0.01556857,1.0244
132.85,13.95689,2.99449,-0.01488572,1.02391
133.55,13.9797,3.00916,-0.01426033,1.02342
134.25,14.00249,3.02268,-0.01426002,1.02293
134.95,14.0253,3.04178,-0.01426,1.02244
135.65,14.0481,3.05998,-0.01426,1.02195
136.35,14.07078,3.06879,-0.01426,1.02146
137.05,14.09325,3.08159,-0.01426,1.02097
137.75,14.1158,3.11153,-0.01426,1.02048
138.45,14.13855,3.1299,-0.01426002,1.01999
139.15,14.16133,3.1466,-0.01426197,1.01951
139.85,14.1839,3.17875,-0.01386398,1.01902
140.55,14.2064,3.21005,-0.0135997,1.01854
141.25,14.229,3.2348,-0.01359997,1.01806
141.95,14.2516,3.27266,-0.01359999,1.01757
142.65,14.27411,3.29745,-0.01359949,1.01709
143.35,14.29662,3.33918,-0.01375315,1.01661
144.05,14.319,3.369,-0.01359025,1.01613
144.75,14.3414,3.41982,-0.01359986,1.01565
145.45,14.36382,3.46734,-0.0136,1.01517
146.15,14.38636,3.49999,-0.01360002,1.01469
146.85,14.4088,3.55534,-0.01360901,1.01422
147.55,14.43116,3.61596,-0.01477004,1.01374
148.25,14.4535,3.68241,-0.01491984,1.01326
148.95,14.476,3.7412,-0.01492002,1.01279
149.65,14.49836,3.82571,-0.01491996,1.01231
150.35,14.5207,3.91668,-0.01491829,1.01184
151.05,14.54305,4.01435,-0.01455538,1.01137
151.75,14.5654,4.11135,-0.01459026,1.0109
152.45,14.58765,4.23131,-0.01459,1.01042
153.15,14.60997,4.35874,-0.01459,1.00995
153.85,14.63224,4.49992,-0.01459,1.00948
154.55,14.65458,4.63573,-0.01458989,1.00901
155.25,14.6769,4.79598,-0.01460611,1.00855
155.95,14.6991,4.95676,-0.01555412,1.00808
156.65,14.7213,5.12508,-0.01557328,1.00761
157.35,14.74346,5.30065,-0.01593243,1.00714
158.05,14.76574,5.49162,-0.01589982,1.00668
158.75,14.788,5.66636,-0.0159,1.00621
159.45,14.8102,5.85473,-0.0159,1.00575
160.15,14.8324,6.04792,-0.0159,1.00529
160.85,14.85467,6.232,-0.0159,1.00482
161.55,14.8769,6.40312,-0.0159,1.00436
162.25,14.89911,6.5621,-0.01590006,1.0039
162.95,14.92131,6.70996,-0.01590734,1.00344
163.65,14.94351,6.80811,-0.01467953,1.00298
164.35,14.9657,6.8666,-0.01458052,1.00252
165.05,14.9879,6.8602,-0.01414206,1.00206
165.75,15.01,6.8009,-0.01327478,1.00161
166.45,15.0321,6.66254,-0.01326996,1.00115
167.15,15.0542,6.47158,-0.01327002,1.00069
167.85,15.0763,6.24237,-0.01326676,1.00024
168.55,15.09842,5.97439,-0.01373407,0.99978
169.25,15.12054,5.72178,-0.01460213,0.99933
169.95,15.14264,5.4578,-0.01591933,0.99888
170.65,15.16456,5.23249,-0.01590029,0.99842
171.35,15.1865,5.01179,-0.01589703,0.99797
172.05,15.2085,4.815,-0.01691666,0.99752
172.75,15.23042,4.63362,-0.0168896,0.99707
173.45,15.25225,4.48557,-0.0168874,0.99662
174.15,15.27411,4.35076,-0.01764674,0.99617
174.85,15.29597,4.22394,-0.01821394,0.99572
175.55,15.31785,4.11969,-0.01819628,0.99527
176.25,15.33964,4.03295,-0.01690796,0.99483
176.95,15.3614,3.95229,-0.01689085,0.99438
177.65,15.3832,3.88871,-0.01688998,0.99393
178.35,15.4049,3.83139,-0.01689,0.99349
179.05,15.42671,3.78293,-0.01689,0.99304
179.75,15.44837,3.75054,-0.01689715,0.9926
180.45,15.47008,3.70812,-0.01795477,0.99216
181.15,15.49179,3.66334,-0.01821195,0.99172
181.85,15.51348,3.64668,-0.01821182,0.99127
182.55,15.53515,3.61625,-0.0168415,0.99083
183.25,15.55672,3.59047,-0.01689093,0.99039
183.95,15.5783,3.58815,-0.01688999,0.98995
184.65,15.5999,3.56143,-0.01689,0.98951
185.35,15.6215,3.5607,-0.01689,0.98908
186.05,15.6432,3.54131,-0.01689,0.98864
186.75,15.6647,3.54089,-0.01689,0.9882
187.45,15.68625,3.54058,-0.01689,0.98777
188.15,15.7078,3.53096,-0.01689003,0.98733
188.85,15.7294,3.53646,-0.01688633,0.98689
189.55,15.75099,3.52629,-0.01730078,0.98646
190.25,15.77256,3.52724,-0.01785853,0.98603
190.95,15.79413,3.52005,-0.01920081,0.98559
191.65,15.8157,3.52455,-0.01918963,0.98516
192.35,15.83709,3.52834,-0.01919001,0.98473
193.05,15.85855,3.52689,-0.01919,0.9843
193.75,15.87996,3.53452,-0.01919,0.98387
194.45,15.9012,3.52946,-0.01919,0.98344
195.15,15.9227,3.53665,-0.01919,0.98301
195.85,15.94415,3.54146,-0.01918999,0.98258
196.55,15.9659,3.5438,-0.01919027,0.98215
197.25,15.9875,3.54518,-0.01921222,0.98173
197.95,16.009,3.5433,-0.01984287,0.9813
198.65,16.03036,3.55554,-0.01985929,0.98087
199.35,16.0517,3.5577,-0.02019682,0.98045
200.05,16.0731,3.56002,-0.02017996,0.98002
200.75,16.09456,3.5599,-0.02018,0.9796
201.45,16.11598,3.56599,-0.02018,0.97917
202.15,16.13729,3.56886,-0.02018,0.97875
202.85,16.15865,3.56307,-0.02018,0.97833
203.55,16.17999,3.57711,-0.02018,0.97791
204.25,16.2015,3.5776,-0.02018,0.97749
204.95,16.22297,3.5861,-0.02018,0.97707
205.65,16.2443,3.59396,-0.02017999,0.97665
206.35,16.2657,3.5978,-0.02018032,0.97623
207.05,16.28706,3.59757,-0.02019,0.97581
207.75,16.3084,3.60765,-0.02083364,0.97539
208.45,16.32985,3.60723,-0.02084017,0.97497
209.15,16.35125,3.60871,-0.02083751,0.97456
209.85,16.3726,3.61386,-0.02114428,0.97414
210.55,16.394,3.6147,-0.02116965,0.97372
211.25,16.4154,3.62396,-0.02116993,0.97331
211.95,16.43674,3.62343,-0.02117664,0.9729
212.65,16.45811,3.63432,-0.02176743,0.97248
213.35,16.4795,3.63279,-0.02183026,0.97207
214.05,16.50085,3.63453,-0.02183001,0.97166
214.75,16.5222,3.63774,-0.02183,0.97124
215.45,16.5435,3.6515,-0.02183,0.97083
216.15,16.56479,3.6549,-0.02183001,0.97042
216.85,16.58612,3.65549,-0.02182979,0.97001
217.55,16.60742,3.66118,-0.02180938,0.9696
218.25,16.6288,3.67251,-0.02117675,0.96919
218.95,16.65011,3.67036,-0.02117445,0.96878
219.65,16.67149,3.66721,-0.02197464,0.96838
220.35,16.69278,3.6784,-0.02247931,0.96797
221.05,16.7141,3.68656,-0.02248543,0.96756
221.75,16.73536,3.6871,-0.02179482,0.96715
222.45,16.75664,3.68932,-0.02182047,0.96675
223.15,16.77788,3.68019,-0.02181999,0.96634
223.85,16.79911,3.69124,-0.02182,0.96594
224.55,16.82027,3.69505,-0.02182,0.96553
225.25,16.84153,3.69079,-0.02182,0.96513
225.95,16.8628,3.70135,-0.02182,0.96473
226.65,16.88407,3.69726,-0.02182,0.96433
227.35,16.9054,3.71613,-0.02182,0.96392
228.05,16.92671,3.71365,-0.02182,0.96352
228.75,16.94802,3.72237,-0.02181853,0.96312
229.45,16.96933,3.73195,-0.02201472,0.96272
230.15,16.99057,3.72325,-0.02312859,0.96232
230.85,17.01176,3.72223,-0.02314013,0.96192
231.55,17.0331,3.73462,-0.02313999,0.96152
232.25,17.0543,3.73204,-0.02313736,0.96112
232.95,17.07556,3.73634,-0.02277844,0.96073
233.65,17.09684,3.7376,-0.02348893,0.96033
234.35,17.11811,3.7412,-0.02412712,0.95993
235.05,17.13934,3.747,-0.02413002,0.95954
235.75,17.16059,3.74159,-0.02413,0.95914
236.45,17.1818,3.74889,-0.02413,0.95875
237.15,17.2031,3.74857,-0.02413,0.95835
237.85,17.22437,3.76022,-0.02413,0.95796
238.55,17.2456,3.75985,-0.02412999,0.95756
239.25,17.26683,3.76068,-0.02412994,0.95717
239.95,17.28802,3.76507,-0.02416072,0.95678
240.65,17.3093,3.77095,-0.02546904,0.95639
241.35,17.33051,3.76705,-0.02544869,0.956
242.05,17.3517,3.77059,-0.02549628,0.9556
242.75,17.37291,3.77815,-0.02412423,0.95521
243.45,17.39418,3.77042,-0.02412984,0.95482
244.15,17.41545,3.78442,-0.02412994,0.95443
244.85,17.43666,3.77827,-0.02413465,0.95404
245.55,17.45787,3.78242,-0.02492062,0.95366
246.25,17.479,3.78515,-0.02489871,0.95327
246.95,17.50023,3.7889,-0.0241293,0.95288
247.65,17.5214,3.79364,-0.02413006,0.95249
248.35,17.54259,3.81417,-0.02413,0.95211
249.05,17.5638,3.79937,-0.02413,0.95172
249.75,17.585,3.80995,-0.02413,0.95133
250.45,17.60621,3.80754,-0.02413009,0.95095
251.15,17.62741,3.81627,-0.0241407,0.95056
251.85,17.64856,3.82036,-0.02276002,0.95018
252.55,17.66974,3.816,-0.0229063,0.9498
253.25,17.6909,3.81971,-0.02414397,0.94941
253.95,17.71209,3.82524,-0.02412702,0.94903
254.65,17.73329,3.83866,-0.02478446,0.94865
255.35,17.75449,3.83799,-0.02545158,0.94827
256.05,17.7757,3.84132,-0.02561108,0.94788
256.75,17.79682,3.84279,-0.02675118,0.9475
257.45,17.81794,3.84027,-0.02633521,0.94712
258.15,17.83911,3.84813,-0.02674542,0.94674
258.85,17.86028,3.84945,-0.02676503,0.94636
259.55,17.8814,3.84984,-0.02808496,0.94598
260.25,17.9025,3.86004,-0.02806652,0.9456
260.95,17.92362,3.86405,-0.02734115,0.94522
261.65,17.9448,3.86287,-0.02656213,0.94485
262.35,17.96596,3.86354,-0.02524116,0.94447
263.05,17.98712,3.86692,-0.02655851,0.94409
263.75,18.00815,3.86675,-0.02653914,0.94371
264.45,18.02931,3.88737,-0.02654002,0.94334
265.15,18.05037,3.87668,-0.02654,0.94296
265.85,18.07144,3.87812,-0.02654,0.94259
266.55,18.0927,3.87641,-0.02654,0.94221
267.25,18.11386,3.88932,-0.02653981,0.94184
267.95,18.1353,3.89026,-0.02658995,0.94146
268.65,18.15644,3.88977,-0.02787838,0.94109
269.35,18.17756,3.88549,-0.02785963,0.94071
270.05,18.1986,3.88724,-0.02786427,0.94034
270.75,18.21978,3.88712,-0.02882086,0.93997
271.45,18.24085,3.89413,-0.02917082,0.9396
272.15,18.262,3.89146,-0.02916998,0.93922
272.85,18.2832,3.89189,-0.02917,0.93885
273.55,18.30435,3.89476,-0.02917,0.93848
274.25,18.3256,3.89333,-0.02917,0.93811
274.95,18.34676,3.89858,-0.02917,0.93774
275.65,18.3679,3.90229,-0.02917,0.93737
276.35,18.38914,3.89433,-0.02917,0.937
277.05,18.41029,3.91272,-0.02917,0.93663
277.75,18.4315,3.89756,-0.02917,0.93626
278.45,18.45266,3.90877,-0.02917,0.93589
279.15,18.4738,3.90785,-0.02917,0.93553
279.85,18.49486,3.90962,-0.02917,0.93516
280.55,18.516,3.9043,-0.02917,0.93479
281.25,18.5372,3.90294,-0.02916973,0.93442
281.95,18.5584,3.91434,-0.02918239,0.93406
282.65,18.5796,3.89654,-0.03047119,0.93369
283.35,18.6008,3.90971,-0.03048942,0.93332
284.05,18.62196,3.91402,-0.03049002,0.93296
284.75,18.64319,3.91323,-0.03049,0.93259
285.45,18.6644,3.90988,-0.03049,0.93223
286.15,18.68564,3.92055,-0.03049,0.93186
286.85,18.70684,3.91904,-0.03048998,0.9315
287.55,18.72799,3.918,-0.03049741,0.93113
288.25,18.74914,3.92246,-0.0312212,0.93077
288.95,18.77026,3.91798,-0.03114927,0.93041
289.65,18.7914,3.92425,-0.03112527,0.93004
290.35,18.81264,3.93355,-0.03181485,0.92968
291.05,18.83387,3.92512,-0.03181005,0.92932
291.75,18.8551,3.92859,-0.03181,0.92896
292.45,18.87634,3.93512,-0.03181,0.9286
293.15,18.8976,3.93198,-0.03181,0.92823
293.85,18.91882,3.91804,-0.03181005,0.92787
294.55,18.9401,3.93929,-0.03181022,0.92751
295.25,18.9613,3.92937,-0.03262981,0.92715
295.95,18.9825,3.92369,-0.03330683,0.92679
296.65,19.00358,3.92321,-0.0344274,0.92643
297.35,19.0248,3.92781,-0.03444015,0.92607
298.05,19.04607,3.92197,-0.03444,0.92571
298.75,19.0673,3.92721,-0.03444,0.92535
299.45,19.08855,3.92651,-0.03443921,0.925
300.15,19.10979,3.93921,-0.03453798,0.92464
300.85,19.13104,3.92931,-0.03577343,0.92428
301.55,19.15232,3.93718,-0.03575347,0.92392
302.25,19.17355,3.93695,-0.03543183,0.92356
302.95,19.1947,3.9345,-0.03538801,0.92321
303.65,19.2159,3.94046,-0.03477693,0.92285
304.35,19.23714,3.93802,-0.03476989,0.92249
305.05,19.25826,3.95048,-0.03477,0.92214
305.75,19.27931,3.94493,-0.03477,0.92178
306.45,19.30044,3.94452,-0.03477,0.92142
307.15,19.3216,3.94208,-0.03477003,0.92107
307.85,19.34308,3.95419,-0.03476671,0.92071
308.55,19.36431,3.9621,-0.03514179,0.92036
309.25,19.38555,3.95181,-0.03608581,0.92
309.95,19.40682,3.95714,-0.03609263,0.91965
310.65,19.4281,3.95773,-0.03741595,0.91929
311.35,19.44932,3.95995,-0.03739971,0.91894
312.05,19.4705,3.96613,-0.03739469,0.91859
312.75,19.49166,3.97553,-0.03988408,0.91823
313.45,19.51291,3.96322,-0.04003055,0.91788
314.15,19.53416,3.97663,-0.04002996,0.91753
314.85,19.55544,3.97806,-0.04003809,0.91717
315.55,19.5766,3.97822,-0.04113082,0.91682
316.25,19.5978,3.97793,-0.04000783,0.91647
316.95,19.6191,3.97475,-0.0400402,0.91612
317.65,19.64026,3.97328,-0.04003913,0.91576
318.35,19.66152,3.98112,-0.03916737,0.91541
319.05,19.68271,3.98042,-0.04007829,0.91506
319.75,19.70397,3.98204,-0.04002926,0.91471
320.45,19.7253,3.97616,-0.04003001,0.91436
321.15,19.7466,3.97739,-0.04003,0.91401
321.85,19.7679,3.98133,-0.04003,0.91366
322.55,19.7892,3.98035,-0.04003028,0.91331
323.25,19.8105,3.98153,-0.0400111,0.91295
323.95,19.83176,3.97737,-0.04131256,0.9126
324.65,19.85306,3.98746,-0.0413501,0.91225
325.35,19.87429,3.97956,-0.04135,0.9119
326.05,19.89555,3.98545,-0.04135,0.91156
326.75,19.91677,3.9926,-0.04134999,0.91121
327.45,19.93806,3.99005,-0.04135035,0.91086
328.15,19.9594,3.99616,-0.04134192,0.91051
328.85,19.98074,3.99741,-0.04268015,0.91016
329.55,20.002,3.99716,-0.04266741,0.90981
330.25,20.02334,4.00524,-0.04293116,0.90946
330.95,20.0446,4.01094,-0.0437341,0.90911
331.65,20.0659,4.00017,-0.04364953,0.90877
332.35,20.0872,4.00182,-0.04365,0.90842
333.05,20.10855,4.00124,-0.04365,0.90807
333.75,20.1298,3.9932,-0.04364976,0.90772
334.45,20.15121,3.9981,-0.04366374,0.90737
335.15,20.17258,4.00137,-0.04492898,0.90703
335.85,20.194,4.00617,-0.04496949,0.90668
336.55,20.2154,4.00755,-0.04497327,0.90633
337.25,20.23675,4.00437,-0.04563205,0.90599
337.95,20.25808,3.99041,-0.04646342,0.90564
338.65,20.2794,4.00788,-0.04760296,0.90529
339.35,20.30078,4.01187,-0.04760006,0.90495
340.05,20.3221,4.01123,-0.04760002,0.9046
340.75,20.34349,3.99001,-0.04759871,0.90425
341.45,20.36482,3.98791,-0.04779163,0.90391
342.15,20.38619,3.98631,-0.04892256,0.90356
342.85,20.40752,3.98292,-0.04893774,0.90322
343.55,20.4289,3.98746,-0.05025867,0.90287
344.25,20.4503,3.98637,-0.05023966,0.90253
344.95,20.4717,3.98047,-0.05024087,0.90218
345.65,20.49318,3.98623,-0.05023336,0.90183
346.35,20.51465,3.98495,-0.05153896,0.90149
347.05,20.53614,3.98355,-0.05155434,0.90114
347.75,20.5576,3.97883,-0.05230975,0.9008
348.45,20.57897,3.98218,-0.05375474,0.90045
349.15,20.60035,3.98788,-0.05418708,0.90011
349.85,20.62177,3.99076,-0.05563424,0.89977
350.55,20.64313,3.98774,-0.0567345,0.89942
351.25,20.66455,3.98959,-0.05730958,0.89908
351.95,20.686,3.98375,-0.05868545,0.89873
352.65,20.70743,3.99409,-0.05872088,0.89839
353.35,20.72885,3.98931,-0.05997622,0.89804
354.05,20.7503,3.98731,-0.05999023,0.8977
354.75,20.77175,3.99236,-0.05999006,0.89736
355.45,20.79329,3.99492,-0.05998986,0.89701
356.15,20.8147,3.99619,-0.0608236,0.89667
356.85,20.83618,3.99927,-0.06131342,0.89632
357.55,20.85763,4.00314,-0.06132825,0.89598
358.25,20.8791,4.00601,-0.06200974,0.89564
358.95,20.90062,4.00398,-0.0616384,0.89529
359.65,20.92207,4.01677,-0.06177358,0.89495
360.35,20.94355,4.02752,-0.06303875,0.89461
361.05,20.965,4.0155,-0.06455036,0.89426
361.75,20.98653,4.02487,-0.0649289,0.89392
362.45,21.00807,4.03182,-0.06602251,0.89358
363.15,21.02958,4.03109,-0.06611056,0.89323
363.85,21.0511,4.03444,-0.06760175,0.89289
364.55,21.07258,4.04282,-0.06894119,0.89255
365.25,21.0942,4.05028,-0.06902919,0.8922
365.95,21.1155,4.045,-0.07049933,0.89186
366.65,21.13682,4.05971,-0.07192104,0.89152
367.35,21.15829,4.0604,-0.07248794,0.89117
368.05,21.17993,4.06289,-0.07359699,0.89083
368.75,21.20165,4.08169,-0.07512851,0.89049
369.45,21.22332,4.08513,-0.07619087,0.89015
370.15,21.2449,4.08874,-0.07788136,0.8898
370.85,21.26642,4.0964,-0.07929297,0.88946
371.55,21.28796,4.10831,-0.07936895,0.88912
372.25,21.30947,4.11062,-0.08081385,0.88877
372.95,21.331,4.11199,-0.08165875,0.88843
373.65,21.3526,4.13429,-0.08234442,0.88809
374.35,21.37421,4.13651,-0.08387678,0.88775
375.05,21.39581,4.15216,-0.08550327,0.8874
375.75,21.41734,4.16133,-0.08694089,0.88706
376.45,21.43887,4.16358,-0.08813992,0.88672
377.15,21.46034,4.17323,-0.08885808,0.88637
377.85,21.48201,4.18609,-0.09015371,0.88603
378.55,21.5036,4.19469,-0.09135211,0.88569
379.25,21.52525,4.20804,-0.09215597,0.88535
379.95,21.54684,4.22774,-0.09357853,0.885
380.65,21.56841,4.24031,-0.0950897,0.88466
381.35,21.59005,4.25738,-0.09681474,0.88432
382.05,21.61158,4.26717,-0.09846622,0.88397
382.75,21.63314,4.28847,-0.10047,0.88363
383.45,21.6547,4.30142,-0.10374,0.88329
384.15,21.6763,4.31419,-0.10534,0.88295
384.85,21.69789,4.33516,-0.10713,0.8826
385.55,21.71947,4.3474,-0.10903,0.88226
386.25,21.74103,4.36755,-0.11071,0.88192
386.95,21.76265,4.39241,-0.11286,0.88157
387.65,21.7842,4.41458,-0.11466,0.88123
388.35,21.80582,4.43452,-0.11595,0.88089
389.05,21.82749,4.45687,-0.11762,0.88054
389.75,21.84915,4.47997,-0.11949,0.8802
390.45,21.8708,4.51102,-0.12189,0.87986
391.15,21.89252,4.52076,-0.12418,0.87951
391.85,21.91412,4.53998,-0.128,0.87917
392.55,21.93577,4.57058,-0.13019,0.87883
393.25,21.95743,4.60919,-0.13231,0.87848
393.95,21.97909,4.62683,-0.13486,0.87814
394.65,22.00081,4.65889,-0.13783,0.8778
395.35,22.02251,4.69397,-0.1403,0.87745
396.05,22.0442,4.72854,-0.14309,0.87711
396.75,22.0659,4.75218,-0.14643,0.87676
397.45,22.08755,4.77788,-0.14891,0.87642
398.15,22.1092,4.8172,-0.15124,0.87608
398.85,22.13081,4.85126,-0.15442,0.87573
399.55,22.15246,4.87773,-0.15782,0.87539
400.25,22.17415,4.90595,-0.16054,0.87504
400.95,22.1959,4.93787,-0.16333,0.8747
401.65,22.21756,4.97658,-0.16672,0.87435
402.35,22.23929,5.01418,-0.1695,0.87401
403.05,22.26107,5.04936,-0.17267,0.87366
403.75,22.28279,5.08597,-0.17644,0.87332
404.45,22.30442,5.11631,-0.17939,0.87298
405.15,22.32607,5.15755,-0.18365,0.87263
405.85,22.34763,5.20043,-0.18831,0.87228
406.55,22.3694,5.22589,-0.19283,0.87194
407.25,22.39121,5.26929,-0.19661,0.87159
407.95,22.41315,5.30481,-0.20034,0.87125
408.65,22.43494,5.34278,-0.20494,0.8709
409.35,22.4568,5.38173,-0.20958,0.87056
410.05,22.47854,5.42146,-0.21405,0.87021
410.75,22.5003,5.47016,-0.21846,0.86987
411.45,22.52214,5.5008,-0.22302,0.86952
412.15,22.54391,5.54228,-0.22695,0.86917
412.85,22.5657,5.60045,-0.23184,0.86883
413.55,22.58752,5.63465,-0.2365,0.86848
414.25,22.60933,5.67111,-0.2403,0.86813
414.95,22.63114,5.71438,-0.24606,0.86779
415.65,22.6529,5.75459,-0.25097,0.86744
416.35,22.67475,5.80671,-0.25728,0.86709
417.05,22.69666,5.84376,-0.26284,0.86675
417.75,22.71847,5.88617,-0.26896,0.8664
418.45,22.74031,5.92146,-0.27517,0.86605
419.15,22.76213,5.96283,-0.28016,0.8657
419.85,22.784,6.01871,-0.28557,0.86536
420.55,22.8059,6.05354,-0.29175,0.86501
421.25,22.8278,6.10132,-0.29708,0.86466
421.95,22.8497,6.1368,-0.30328,0.86431
422.65,22.87151,6.1852,-0.30976,0.86396
423.35,22.89341,6.2178,-0.31537,0.86361
424.05,22.91529,6.26561,-0.32188,0.86327
424.75,22.93715,6.31794,-0.32751,0.86292
425.45,22.95911,6.35043,-0.33322,0.86257
426.15,22.98099,6.39217,-0.3404,0.86222
426.85,23.003,6.43092,-0.34704,0.86187
427.55,23.0249,6.46353,-0.35399,0.86152
428.25,23.04682,6.50128,-0.36179,0.86117
428.95,23.06876,6.54416,-0.36796,0.86082
429.65,23.0907,6.59534,-0.37505,0.86047
430.35,23.11263,6.63974,-0.383,0.86012
431.05,23.13456,6.67563,-0.38974,0.85977
431.75,23.15656,6.71626,-0.39622,0.85942
432.45,23.1786,6.76749,-0.40342,0.85906
433.15,23.20064,6.79289,-0.41037,0.85871
433.85,23.22267,6.83872,-0.41914,0.85836
434.55,23.24465,6.87985,-0.42785,0.85801
435.25,23.2667,6.92614,-0.43556,0.85766
435.95,23.2886,6.96613,-0.44432,0.85731
436.65,23.3107,7.00163,-0.45235,0.85695
437.35,23.3327,7.04755,-0.45992,0.8566
438.05,23.3548,7.08561,-0.46903,0.85625
438.75,23.37689,7.13077,-0.47716,0.8559
439.45,23.39892,7.17114,-0.48522,0.85554
440.15,23.42099,7.21493,-0.49502,0.85519
440.85,23.44308,7.24913,-0.50499,0.85484
441.55,23.46521,7.28856,-0.51373,0.85448
442.25,23.48732,7.33177,-0.52379,0.85413
442.95,23.50943,7.37827,-0.53291,0.85377
443.65,23.5314,7.4282,-0.54253,0.85342
444.35,23.55341,7.46341,-0.55296,0.85306
445.05,23.5755,7.50446,-0.5619,0.85271
445.75,23.59766,7.54467,-0.57201,0.85235
446.45,23.61981,7.59423,-0.58279,0.852
447.15,23.64199,7.63658,-0.59146,0.85164
447.85,23.6641,7.68373,-0.60072,0.85128
448.55,23.68618,7.729,-0.61158,0.85093
449.25,23.70822,7.77359,-0.62147,0.85057
449.95,23.73035,7.82347,-0.63184,0.85021
450.65,23.7525,7.8642,-0.64308,0.84986
451.35,23.77468,7.90839,-0.65274,0.8495
452.05,23.79681,7.96181,-0.66408,0.84914
452.75,23.81897,8.00592,-0.67741,0.84878
453.45,23.8411,8.06766,-0.68784,0.84843
454.15,23.86327,8.11173,-0.70006,0.84807
454.85,23.88545,8.15933,-0.71231,0.84771
455.55,23.90767,8.20275,-0.72338,0.84735
456.25,23.92987,8.26057,-0.73666,0.84699
456.95,23.95206,8.31235,-0.75024,0.84663
457.65,23.97428,8.35927,-0.76195,0.84627
458.35,23.9965,8.40642,-0.77561,0.84591
459.05,24.01869,8.46097,-0.78946,0.84555
459.75,24.04092,8.507,-0.8019,0.84519
460.45,24.06307,8.55311,-0.81596,0.84483
461.15,24.08519,8.60351,-0.82848,0.84447
461.85,24.10737,8.65415,-0.84125,0.84411
462.55,24.12955,8.70212,-0.85647,0.84374
463.25,24.15178,8.7519,-0.87066,0.84338
463.95,24.17405,8.80674,-0.88452,0.84302
464.65,24.19635,8.85934,-0.90155,0.84266
465.35,24.21858,8.91329,-0.91839,0.84229
466.05,24.24085,8.95565,-0.93314,0.84193
466.75,24.26312,9.00475,-0.95045,0.84157
467.45,24.2853,9.03792,-0.9679,0.8412
468.15,24.30767,9.0865,-0.98417,0.84084
468.85,24.3299,9.13253,-1.00218,0.84047
469.55,24.35221,9.1749,-1.01988,0.84011
470.25,24.37446,9.20247,-1.03511,0.83974
470.95,24.39669,9.23832,-1.05281,0.83938
471.65,24.419,9.26972,-1.07158,0.83901
472.35,24.44129,9.28648,-1.08811,0.83864
473.05,24.4636,9.32253,-1.107,0.83828
473.75,24.4859,9.34507,-1.12674,0.83791
474.45,24.50818,9.3657,-1.14344,0.83754
475.15,24.53033,9.39517,-1.16341,0.83717
475.85,24.55261,9.39846,-1.1838,0.83681
476.55,24.57484,9.408,-1.20181,0.83644
477.25,24.59727,9.42025,-1.2219,0.83607
477.95,24.61955,9.40431,-1.24178,0.8357
478.65,24.64188,9.42258,-1.26096,0.83533
479.35,24.66424,9.40916,-1.28162,0.83496
480.05,24.68658,9.40297,-1.30407,0.83459
480.75,24.7089,9.37372,-1.3235,0.83422
481.45,24.7312,9.34874,-1.34465,0.83385
482.15,24.7535,9.32271,-1.36541,0.83348
482.85,24.77581,9.27956,-1.3841,0.83311
483.55,24.79813,9.23746,-1.40423,0.83274
484.25,24.8205,9.19707,-1.426,0.83236
484.95,24.84283,9.12615,-1.44655,0.83199
485.65,24.86518,9.06087,-1.4669,0.83162
486.35,24.88749,8.97949,-1.48977,0.83124
487.05,24.90975,8.89158,-1.50935,0.83087
487.75,24.93205,8.80012,-1.52915,0.8305
488.45,24.95435,8.68909,-1.55177,0.83012
489.15,24.97663,8.58111,-1.57115,0.82975
489.85,24.99894,8.46156,-1.59061,0.82937
490.55,25.02122,8.31479,-1.61301,0.829
491.25,25.04359,8.17816,-1.63325,0.82862
491.95,25.06597,8.02122,-1.65294,0.82824
492.65,25.08835,7.86693,-1.67423,0.82787
493.35,25.11071,7.69011,-1.69377,0.82749
494.05,25.133,7.50925,-1.71258,0.82711
494.75,25.1554,7.32715,-1.73403,0.82673
495.45,25.17768,7.13542,-1.75306,0.82635
496.15,25.19984,6.93255,-1.76987,0.82598
496.85,25.22211,6.71176,-1.78838,0.8256
497.55,25.24442,6.48572,-1.80465,0.82522
498.25,25.26693,6.25455,-1.81956,0.82484
498.95,25.28923,5.99597,-1.83602,0.82446
499.65,25.3115,5.7223,-1.85092,0.82408
500.35,25.33375,5.44113,-1.8635,0.82369
501.05,25.35602,5.14814,-1.87733,0.82331
501.75,25.37833,4.83568,-1.88852,0.82293
502.45,25.4007,4.51973,-1.89779,0.82255
503.15,25.42308,4.21799,-1.90759,0.82217
503.85,25.44538,3.91818,-1.91642,0.82178
504.55,25.46764,3.64414,-1.92317,0.8214
505.25,25.48995,3.39793,-1.93048,0.82101
505.95,25.51221,3.15286,-1.93694,0.82063
506.65,25.53446,2.92305,-1.94101,0.82025
507.35,25.55671,2.72891,-1.94587,0.81986
508.05,25.579,2.54341,-1.94913,0.81947
508.75,25.60131,2.36249,-1.95236,0.81909
509.45,25.62359,2.20081,-1.95568,0.8187
510.15,25.64592,2.07202,-1.95794,0.81831
510.85,25.66828,1.94293,-1.95939,0.81793
511.55,25.69066,1.8231,-1.95967,0.81754
512.25,25.71303,1.73106,-1.96061,0.81715
512.95,25.73552,1.63069,-1.96097,0.81676
513.65,25.75797,1.55441,-1.96141,0.81637
514.35,25.78042,1.48301,-1.96196,0.81598
515.05,25.80276,1.42873,-1.9626,0.81559
515.75,25.8251,1.3759,-1.96262,0.8152
516.45,25.84754,1.33027,-1.96329,0.81481
517.15,25.86992,1.29287,-1.96327,0.81442
517.85,25.89237,1.26187,-1.96327,0.81403
518.55,25.9148,1.22118,-1.96326,0.81363
519.25,25.9373,1.19903,-1.96216,0.81324
519.95,25.9598,1.17836,-1.96196,0.81285
520.65,25.98227,1.15724,-1.96079,0.81245
521.35,26.00478,1.14863,-1.9619,0.81206
522.05,26.0273,1.12932,-1.96156,0.81166
522.75,26.04973,1.1175,-1.96064,0.81127
523.45,26.0722,1.10625,-1.96063,0.81087
524.15,26.0947,1.09265,-1.96066,0.81048
524.85,26.11717,1.08714,-1.96174,0.81008
525.55,26.13962,1.07821,-1.96294,0.80968
526.25,26.16205,1.09204,-1.96294,0.80929
526.95,26.18453,1.10975,-1.96311,0.80889
527.65,26.207,1.14898,-1.96427,0.80849
528.35,26.2294,1.18048,-1.96459,0.80809
529.05,26.25187,1.20089,-1.96459,0.80769
529.75,26.27433,1.23671,-1.96566,0.80729
530.45,26.29686,1.26503,-1.96698,0.80689
531.15,26.3193,1.29572,-1.96722,0.80649
531.85,26.3419,1.3039,-1.96722,0.80609
532.55,26.3645,1.31633,-1.96739,0.80569
533.25,26.38699,1.30449,-1.96854,0.80528
533.95,26.40953,1.29853,-1.96854,0.80488
534.65,26.4321,1.28129,-1.96854,0.80448
535.35,26.45478,1.26647,-1.96854,0.80407
536.05,26.4774,1.23961,-1.96854,0.80367
536.75,26.4999,1.21672,-1.96854,0.80326
537.45,26.52252,1.19636,-1.96854,0.80286
538.15,26.54515,1.19088,-1.96853,0.80245
538.85,26.56777,1.16798,-1.97094,0.80205
539.55,26.5904,1.15311,-1.97117,0.80164
540.25,26.6131,1.13708,-1.97117,0.80123
540.95,26.63581,1.1173,-1.97117,0.80082
541.65,26.65842,1.11389,-1.97117,0.80042
542.35,26.6811,1.09402,-1.97116,0.80001
543.05,26.70376,1.08379,-1.97239,0.7996
543.75,26.7265,1.06061,-1.97248,0.79919
544.45,26.74922,1.06193,-1.97248,0.79878
545.15,26.77191,1.05004,-1.97248,0.79837
545.85,26.7946,1.03127,-1.9733,0.79795
546.55,26.81727,1.01941,-1.9738,0.79754
547.25,26.83995,1.01646,-1.9738,0.79713
547.95,26.8626,0.99485,-1.97387,0.79672
548.65,26.88523,0.97385,-1.97516,0.7963
549.35,26.90783,0.96599,-1.97381,0.79589
550.05,26.9306,0.94193,-1.9738,0.79548
550.75,26.95334,0.94329,-1.9738,0.79506
551.45,26.97607,0.93064,-1.97388,0.79464
552.15,26.9988,0.92326,-1.97513,0.79423
552.85,27.0214,0.9116,-1.97512,0.79381
553.55,27.04413,0.90274,-1.97512,0.79339
554.25,27.06686,0.90235,-1.97512,0.79298
554.95,27.0896,0.89178,-1.97512,0.79256
555.65,27.1124,0.89227,-1.97566,0.79214
556.35,27.13513,0.90443,-1.97644,0.79172
557.05,27.1578,0.89811,-1.97644,0.7913
557.75,27.1803,0.90021,-1.97644,0.79088
558.45,27.20283,0.89601,-1.97644,0.79046
559.15,27.22549,0.90308,-1.97668,0.79004
559.85,27.2483,0.89606,-1.97775,0.78962
560.55,27.27125,0.91461,-1.97775,0.78919
561.25,27.29409,0.92204,-1.97775,0.78877
561.95,27.3169,0.92866,-1.97804,0.78835
562.65,27.33962,0.93031,-1.97907,0.78792
563.35,27.36235,0.94702,-1.97903,0.7875
564.05,27.38503,0.94876,-1.98041,0.78707
564.75,27.40775,0.95363,-1.98038,0.78665
565.45,27.4305,0.96836,-1.98031,0.78622
566.15,27.45327,0.96118,-1.98104,0.78579
566.85,27.47598,0.97768,-1.98163,0.78536
567.55,27.4987,0.98952,-1.98235,0.78494
568.25,27.52116,1.00755,-1.98235,0.78451
568.95,27.54389,1.00476,-1.98235,0.78408
569.65,27.5666,1.00177,-1.98202,0.78365
570.35,27.58963,1.02654,-1.98234,0.78322
571.05,27.6125,1.05466,-1.98261,0.78279
571.75,27.63519,1.05994,-1.98366,0.78236
572.45,27.658,1.06074,-1.98372,0.78192
573.15,27.6808,1.07619,-1.98237,0.78149
573.85,27.7036,1.07944,-1.98237,0.78106
574.55,27.72635,1.09053,-1.9833,0.78062
575.25,27.7491,1.09046,-1.98497,0.78019
575.95,27.77187,1.10844,-1.98498,0.77976
576.65,27.79468,1.1132,-1.98498,0.77932
577.35,27.8175,1.12907,-1.98498,0.77888
578.05,27.8404,1.13966,-1.985,0.77845
578.75,27.86318,1.1554,-1.98629,0.77801
579.45,27.88591,1.16467,-1.9863,0.77757
580.15,27.90874,1.1838,-1.98627,0.77713
580.85,27.9316,1.17887,-1.98765,0.7767
581.55,27.95437,1.2035,-1.98763,0.77626
582.25,27.97725,1.20552,-1.98945,0.77582
582.95,28,1.2211,-1.99025,0.77538
583.65,28.0229,1.22315,-1.99034,0.77493
584.35,28.04575,1.23473,-1.99157,0.77449
585.05,28.0686,1.2487,-1.99158,0.77405
585.75,28.0915,1.2547,-1.99276,0.77361
586.45,28.1144,1.27185,-1.99288,0.77316
587.15,28.13731,1.28038,-1.99302,0.77272
587.85,28.16025,1.28939,-1.9942,0.77228
588.55,28.18315,1.29268,-1.9942,0.77183
589.25,28.20608,1.3219,-1.99392,0.77138
589.95,28.2289,1.31952,-1.99404,0.77094
590.65,28.25174,1.34049,-1.9942,0.77049
591.35,28.2746,1.35376,-1.99501,0.77004
592.05,28.29755,1.36296,-1.99551,0.7696
592.75,28.3205,1.38747,-1.99551,0.76915
593.45,28.3435,1.39327,-1.99483,0.7687
594.15,28.36635,1.39711,-1.99551,0.76825
594.85,28.3893,1.42213,-1.99556,0.7678
595.55,28.4121,1.43548,-1.99469,0.76735
596.25,28.435,1.45323,-1.99553,0.76689
596.95,28.45794,1.46468,-1.99426,0.76644
597.65,28.4809,1.48403,-1.99426,0.76599
598.35,28.50385,1.49025,-1.99551,0.76554
599.05,28.5267,1.5128,-1.99651,0.76508
599.75,28.54955,1.5397,-1.99704,0.76463
600.45,28.5725,1.55924,-1.99863,0.76417
601.15,28.59543,1.5802,-1.99972,0.76372
601.85,28.6184,1.60879,-2.00249,0.76326
602.55,28.6413,1.63646,-2.00262,0.7628
603.25,28.66423,1.65134,-2.00379,0.76234
603.95,28.68723,1.6652,-2.00517,0.76189
604.65,28.71023,1.69305,-2.0062,0.76143
605.35,28.7332,1.7324,-2.0078,0.76097
606.05,28.75607,1.75098,-2.00776,0.76051
606.75,28.779,1.7772,-2.00913,0.76005
607.45,28.80203,1.80891,-2.00917,0.75958
608.15,28.8251,1.83508,-2.01049,0.75912
608.85,28.84802,1.86116,-2.00997,0.75866
609.55,28.871,1.89701,-2.01052,0.7582
610.25,28.8939,1.92789,-2.01187,0.75773
610.95,28.9169,1.9733,-2.01265,0.75727
611.65,28.9398,2.00998,-2.01381,0.7568
612.35,28.9628,2.06173,-2.01504,0.75634
613.05,28.98572,2.10692,-2.01597,0.75587
613.75,29.00865,2.17013,-2.01606,0.75541
614.45,29.0316,2.20611,-2.01494,0.75494
615.15,29.05462,2.27787,-2.01503,0.75447
615.85,29.07757,2.31958,-2.01638,0.754
616.55,29.1005,2.37602,-2.01781,0.75353
617.25,29.1234,2.43672,-2.01935,0.75306
617.95,29.1465,2.49837,-2.01977,0.75259
618.65,29.1694,2.56513,-2.01951,0.75212
619.35,29.1924,2.62754,-2.02079,0.75165
620.05,29.2153,2.70019,-2.0204,0.75118
620.75,29.2384,2.77375,-2.0214,0.7507
621.45,29.2613,2.85022,-2.02259,0.75023
622.15,29.28432,2.92649,-2.02419,0.74975
622.85,29.3073,2.99511,-2.02577,0.74928
623.55,29.33029,3.07228,-2.02741,0.7488
624.25,29.35322,3.16325,-2.02907,0.74833
624.95,29.3762,3.24566,-2.03035,0.74785
625.65,29.39927,3.33339,-2.03184,0.74737
626.35,29.42235,3.42281,-2.03366,0.7469
627.05,29.4454,3.49945,-2.03536,0.74642
627.75,29.46838,3.58319,-2.03765,0.74594
628.45,29.49141,3.663,-2.03986,0.74546
629.15,29.51442,3.7483,-2.04331,0.74498
629.85,29.53746,3.83481,-2.04526,0.7445
630.55,29.56049,3.91658,-2.0479,0.74401
631.25,29.5834,3.99459,-2.0499,0.74353
631.95,29.60652,4.07484,-2.05133,0.74305
632.65,29.6295,4.15221,-2.05359,0.74257
633.35,29.6527,4.22835,-2.05573,0.74208
634.05,29.67574,4.29521,-2.05748,0.7416
634.75,29.69882,4.37368,-2.05995,0.74111
635.45,29.7219,4.43445,-2.06193,0.74062
636.15,29.74496,4.50539,-2.06198,0.74014
636.85,29.76802,4.57273,-2.06312,0.73965
637.55,29.7911,4.63423,-2.06526,0.73916
638.25,29.81421,4.70154,-2.06794,0.73867
638.95,29.8373,4.74778,-2.07072,0.73818
639.65,29.86037,4.80774,-2.07381,0.73769
640.35,29.88345,4.8593,-2.07705,0.7372
641.05,29.9065,4.92705,-2.07932,0.73671
641.75,29.9296,4.97079,-2.0818,0.73622
642.45,29.95263,5.00012,-2.08415,0.73573
643.15,29.97575,5.03045,-2.08788,0.73524
643.85,29.9989,5.07308,-2.09083,0.73474
644.55,30.022,5.12325,-2.09191,0.73425
645.25,30.045,5.13535,-2.09349,0.73375
645.95,30.06813,5.16337,-2.09442,0.73326
646.65,30.09126,5.18707,-2.09694,0.73276
647.35,30.1144,5.17884,-2.0995,0.73226
648.05,30.13748,5.1896,-2.10176,0.73177
648.75,30.1605,5.19011,-2.10361,0.73127
649.45,30.1836,5.18152,-2.10603,0.73077
650.15,30.20678,5.18717,-2.10929,0.73027
650.85,30.2299,5.17718,-2.11069,0.72977
651.55,30.253,5.1506,-2.11285,0.72927
652.25,30.27614,5.1251,-2.11453,0.72877
652.95,30.2992,5.10838,-2.11815,0.72827
653.65,30.3223,5.06744,-2.12053,0.72776
654.35,30.34546,5.0378,-2.12336,0.72726
655.05,30.36862,4.97912,-2.12662,0.72676
655.75,30.3917,4.92531,-2.12913,0.72625
656.45,30.4148,4.86937,-2.13109,0.72575
657.15,30.4379,4.80389,-2.13293,0.72524
657.85,30.46102,4.74437,-2.13496,0.72473
658.55,30.48412,4.67007,-2.13714,0.72423
659.25,30.50723,4.59507,-2.13952,0.72372
659.95,30.5304,4.51729,-2.14084,0.72321
660.65,30.5534,4.44627,-2.14339,0.7227
661.35,30.57661,4.35563,-2.14544,0.72219
662.05,30.59965,4.28579,-2.14721,0.72168
662.75,30.6227,4.20385,-2.15001,0.72117
663.45,30.64583,4.12336,-2.15164,0.72066
664.15,30.669,4.04761,-2.1527,0.72015
664.85,30.69218,3.98243,-2.15259,0.71963
665.55,30.7153,3.90165,-2.15372,0.71912
666.25,30.73848,3.83659,-2.15564,0.71861
666.95,30.7616,3.77351,-2.15588,0.71809
667.65,30.7847,3.72882,-2.15752,0.71758
668.35,30.80782,3.69346,-2.15908,0.71706
669.05,30.83101,3.64914,-2.16139,0.71654
669.75,30.8542,3.62529,-2.16321,0.71603
670.45,30.87742,3.62118,-2.16443,0.71551
671.15,30.9006,3.68846,-2.16524,0.71499
671.85,30.9238,3.83925,-2.16803,0.71447
672.55,30.947,4.0185,-2.1698,0.71395
673.25,30.97017,4.22229,-2.17162,0.71343
673.95,30.9933,4.42068,-2.1731,0.71291
674.65,31.0165,4.63374,-2.17435,0.71239
675.35,31.0398,4.84561,-2.1757,0.71187
676.05,31.0629,5.02402,-2.1776,0.71134
676.75,31.0861,5.21433,-2.17939,0.71082
677.45,31.10932,5.3788,-2.18124,0.7103
678.15,31.13267,5.54377,-2.18357,0.70977
678.85,31.15591,5.7049,-2.18578,0.70925
679.55,31.1792,5.83325,-2.18814,0.70872
680.25,31.2024,5.96465,-2.1894,0.70819
680.95,31.2256,6.10715,-2.192,0.70766
681.65,31.2489,6.23924,-2.19463,0.70714
682.35,31.2722,6.36659,-2.19721,0.70661
683.05,31.2954,6.50445,-2.19973,0.70608
683.75,31.3187,6.62143,-2.20162,0.70555
684.45,31.34187,6.73791,-2.20369,0.70502
685.15,31.3651,6.86864,-2.20596,0.70449
685.85,31.38833,6.98372,-2.20844,0.70396
686.55,31.41163,7.10805,-2.21153,0.70342
687.25,31.43485,7.22127,-2.21404,0.70289
687.95,31.4582,7.33946,-2.2176,0.70236
688.65,31.48146,7.45529,-2.22065,0.70182
689.35,31.50478,7.56954,-2.22237,0.70129
690.05,31.5281,7.68595,-2.22475,0.70075
690.75,31.5513,7.80033,-2.22736,0.70021
691.45,31.5745,7.92382,-2.22963,0.69968
692.15,31.5977,8.02472,-2.23208,0.69914
692.85,31.62091,8.13543,-2.23468,0.6986
693.55,31.6442,8.25919,-2.23723,0.69806
694.25,31.66757,8.35983,-2.24074,0.69752
694.95,31.6908,8.49227,-2.24405,0.69698
695.65,31.7141,8.58689,-2.24746,0.69644
696.35,31.7374,8.70449,-2.25199,0.6959
697.05,31.7607,8.80018,-2.25543,0.69536
697.75,31.784,8.91255,-2.25854,0.69482
698.45,31.80725,9.01674,-2.26174,0.69427
699.15,31.83056,9.11496,-2.26347,0.69373
699.85,31.85383,9.22077,-2.26787,0.69318
700.55,31.8771,9.32792,-2.27208,0.69264
701.25,31.90033,9.41672,-2.27596,0.69209
701.95,31.92362,9.50703,-2.27983,0.69155
702.65,31.9469,9.60574,-2.28326,0.691
703.35,31.97022,9.70533,-2.28702,0.69045
704.05,31.99356,9.80564,-2.28994,0.6899
704.75,32.0169,9.89923,-2.29308,0.68936
705.45,32.04019,9.9725,-2.29752,0.68881
706.15,32.06343,10.06001,-2.30067,0.68826
706.85,32.08654,10.14292,-2.3046,0.68771
707.55,32.10982,10.20942,-2.30826,0.68715
708.25,32.1331,10.2834,-2.31192,0.6866
708.95,32.1566,10.3635,-2.31639,0.68605
709.65,32.17993,10.44755,-2.31985,0.6855
710.35,32.20325,10.4994,-2.32396,0.68494
711.05,32.2266,10.55911,-2.32775,0.68439
711.75,32.24987,10.61513,-2.33177,0.68383
712.45,32.2731,10.67667,-2.33575,0.68328
713.15,32.2964,10.72966,-2.33863,0.68272
713.85,32.31974,10.78316,-2.34295,0.68216
714.55,32.3431,10.84062,-2.34721,0.68161
715.25,32.36645,10.9085,-2.35064,0.68105
715.95,32.38975,10.97664,-2.35456,0.68049
716.65,32.4131,11.04417,-2.35811,0.67993
717.35,32.4364,11.11449,-2.36243,0.67937
718.05,32.45971,11.19797,-2.36612,0.67881
718.75,32.4831,11.282,-2.36964,0.67825
719.45,32.5064,11.4018,-2.37315,0.67769
720.15,32.52969,11.528,-2.37722,0.67712
720.85,32.55304,11.63913,-2.38285,0.67656
721.55,32.5764,11.77539,-2.3889,0.676
722.25,32.59987,11.93539,-2.39356,0.67543
722.95,32.62325,12.07061,-2.39803,0.67487
723.65,32.6466,12.20686,-2.40278,0.6743
724.35,32.67001,12.37084,-2.4074,0.67374
725.05,32.6933,12.53908,-2.41221,0.67317
725.75,32.7166,12.70527,-2.41604,0.6726
726.45,32.74,12.86926,-2.42109,0.67203
727.15,32.76344,13.02934,-2.42602,0.67146
727.85,32.78699,13.21796,-2.43075,0.6709
728.55,32.81042,13.39265,-2.43603,0.67033
729.25,32.8338,13.5518,-2.44059,0.66976
729.95,32.85716,13.73463,-2.44614,0.66918
730.65,32.88049,13.91425,-2.45244,0.66861
731.35,32.90381,14.0844,-2.45934,0.66804
732.05,32.92718,14.27943,-2.46587,0.66747
732.75,32.95058,14.4342,-2.47122,0.66689
733.45,32.97403,14.61856,-2.47658,0.66632
734.15,32.99733,14.81722,-2.48232,0.66575
734.85,33.0208,14.9929,-2.48828,0.66517
735.55,33.04419,15.17345,-2.49396,0.66459
736.25,33.06771,15.3504,-2.49974,0.66402
736.95,33.09114,15.54432,-2.50542,0.66344
737.65,33.11456,15.7134,-2.51094,0.66286
738.35,33.138,15.8943,-2.51656,0.66228
739.05,33.16144,16.0777,-2.52226,0.66171
739.75,33.18486,16.25178,-2.52764,0.66113
740.45,33.20823,16.43188,-2.53373,0.66055
741.15,33.23168,16.60218,-2.54009,0.65997
741.85,33.25507,16.77504,-2.54625,0.65938
742.55,33.27844,16.95344,-2.55165,0.6588
743.25,33.30172,17.10471,-2.55973,0.65822
743.95,33.32508,17.26155,-2.56665,0.65764
744.65,33.34848,17.42527,-2.57276,0.65705
745.35,33.37203,17.56332,-2.57981,0.65647
746.05,33.39548,17.7173,-2.58753,0.65589
746.75,33.4189,17.84928,-2.59521,0.6553
747.45,33.44239,17.98225,-2.60207,0.65471
748.15,33.46583,18.10671,-2.61035,0.65413
748.85,33.48932,18.25068,-2.61834,0.65354
749.55,33.51279,18.34771,-2.62549,0.65295
750.25,33.53626,18.46046,-2.63179,0.65236
750.95,33.55972,18.55932,-2.63724,0.65178
751.65,33.58315,18.64234,-2.64383,0.65119
752.35,33.60653,18.73312,-2.65161,0.6506
753.05,33.62995,18.79012,-2.65815,0.65001
753.75,33.65325,18.88596,-2.66567,0.64942
754.45,33.67649,18.93148,-2.67322,0.64882
755.15,33.69995,18.97869,-2.67962,0.64823
755.85,33.72351,19.0384,-2.68653,0.64764
756.55,33.74727,19.05997,-2.69354,0.64704
757.25,33.77075,19.08548,-2.70141,0.64645
757.95,33.79423,19.0943,-2.70927,0.64586
758.65,33.81763,19.07507,-2.71592,0.64526
759.35,33.84108,19.0567,-2.72274,0.64467
760.05,33.86453,18.97599,-2.73129,0.64407
760.75,33.88797,18.8784,-2.73986,0.64347
761.45,33.91142,18.73467,-2.7466,0.64288
762.15,33.9348,18.5107,-2.75351,0.64228
762.85,33.9583,18.23164,-2.76179,0.64168
763.55,33.98169,17.83825,-2.76976,0.64108
764.25,34.00512,17.34684,-2.77682,0.64048
764.95,34.0285,16.66921,-2.78346,0.63988
765.65,34.05185,15.8163,-2.79064,0.63928
766.35,34.07521,14.6729,-2.79711,0.63868
767.05,34.09854,12.64027,-2.80163,0.63808
767.75,34.12189,9.55706,-2.80687,0.63747
768.45,34.14515,7.03849,-2.81034,0.63687
769.15,34.16835,5.1563,-2.81279,0.63627
769.85,34.1915,3.7557,-2.81324,0.63566
770.55,34.21464,2.70959,-2.81431,0.63506
771.25,34.23775,1.93985,-2.81454,0.63445
771.95,34.26082,1.3648,-2.81454,0.63385
772.65,34.2841,0.90984,-2.81454,0.63324
773.35,34.30745,0.57745,-2.81454,0.63263
774.05,34.33092,0.31875,-2.81454,0.63203
774.75,34.35426,0.09932881,-2.81454,0.63142
775.45,34.37761,-0.07372965,-2.81525,0.63081
776.15,34.40105,-0.19451,-2.81526,0.6302
776.85,34.4244,-0.30533,-2.81651,0.62959
777.55,34.4478,-0.36953,-2.81733,0.62898
778.25,34.4711,-0.43482,-2.8181,0.62837
778.95,34.49456,-0.45283,-2.8195,0.62776
779.65,34.51798,-0.48825,-2.82104,0.62715
780.35,34.5414,-0.49719,-2.82147,0.62654
781.05,34.56478,-0.50165,-2.82233,0.62592
781.75,34.58815,-0.50275,-2.82233,0.62531
782.45,34.61152,-0.49926,-2.82293,0.6247
783.15,34.63487,-0.51498,-2.82299,0.62408
783.85,34.65807,-0.50145,-2.82299,0.62347
784.55,34.6814,-0.47387,-2.82299,0.62285
785.25,34.70485,-0.46826,-2.82299,0.62224
785.95,34.7285,-0.45042,-2.82299,0.62162
786.65,34.75208,-0.43197,-2.82245,0.621
787.35,34.7755,-0.43106,-2.82297,0.62038
788.05,34.79902,-0.4222,-2.82299,0.61977
788.75,34.82241,-0.40734,-2.82287,0.61915
789.45,34.8458,-0.40652,-2.82288,0.61853
790.15,34.86922,-0.39505,-2.823,0.61791
790.85,34.89278,-0.39048,-2.82327,0.61729
791.55,34.91636,-0.40424,-2.82453,0.61667
792.25,34.93987,-0.39629,-2.82551,0.61605
792.95,34.96331,-0.39961,-2.82444,0.61543
793.65,34.98679,-0.3997,-2.82288,0.6148
793.95,34.99686,-0.39657,-2.82289,0.61454