File: 01_Data/Fiberglass_Insulation_R13_Paper_Faced/Cone/Fiberglass_Insulation_R13_Paper_Faced_Cone_HF75Scan_220429_R1.csv
Names,Time,Stack TC,Smoke TC,Exh Press,Smoke Comp,Smoke Meas,CO Meter,CO2 Meter,O2 Meter,Sample Mass,Ext Coeff,Start Test,Flame Verif
Chan Gain,,500,500,1,1,1,1,1,1,1,1,1.0,1.0
Offset,,0,0,0.13436,0,0,0,0,0,0,0,0.0,0.0
Gain,,1,1,25.011,14.4414,16.1819,1,1,1,1.0009,1.01483,1.0,1.0
Units,sec,C,C,Pa,%,%,%,%,%,g,/m,,
Baseline,,39.7387,41.3702,132.371,108.008,110.121,0.000936378,0.0561835,21.0129,-495.887,-0.172437,,
17,4,39.1409,40.8205,134.419,109.2,112.366,0.00281663,0.0708102,20.997,1.2311,-0.254445,0.0,0.0
34,8.25,39.6161,40.75,129.155,109.241,111.624,0.00341246,0.0744121,20.993,1.111,-0.192067,0.0,0.0
51,12.5,40.3378,41.6035,129.797,109.32,112.044,0.00295396,0.0705887,20.9964,1.02092,-0.219058,0.0,0.0
68,16.75,40.481,41.9043,129.016,109.385,111.5,0.00254001,0.0675049,21.0004,1.01091,-0.17044,0.0,0.0
85,21,40.9825,42.3308,131.258,109.406,111.577,0.00234342,0.0659503,21.0033,0.940844,-0.174939,0.0,0.0
102,25.25,40.9471,42.2076,132.482,109.45,111.747,0.00242463,0.0652844,21.002,0.950853,-0.184861,0.0,0.0
119,29.5,41.4136,42.6974,131.887,109.469,112.273,0.00231473,0.0646186,21.0036,0.920826,-0.225122,0.0,0.0
136,33.75,41.595,42.9634,129.725,109.467,111.913,0.00197213,0.0645238,21.0032,0.920826,-0.196711,0.0,0.0
153,38,41.9292,43.0015,125.921,109.507,112.497,0.00191916,0.0649513,21.0031,0.920826,-0.23976,0.0,0.0
170,42.25,42.0724,43.2159,130.055,109.488,112.867,0.00183872,0.0637098,21.0076,0.930835,-0.270522,0.0,0.0
187,46.5,42.2068,43.8747,131.129,109.493,112.685,0.00163363,0.0616776,21.0104,0.880791,-0.255822,0.0,0.0
204,50.75,42.4197,43.5629,128.57,109.469,111.867,0.00142174,0.0600901,21.0128,0.900809,-0.19295,0.0,0.0
221,55,42.403,44.1909,132.296,109.456,111.494,0.00118034,0.0590083,21.0136,0.8908,-0.164194,0.0,0.0
238,59.25,42.9809,44.4829,132.303,109.444,111.845,0.00107013,0.0580899,21.0156,0.860773,-0.193227,0.0,0.0
255,63.5,42.925,44.3855,130.975,109.434,113.102,0.00103742,0.0574674,21.0155,0.880791,-0.29349,0.0,0.0
272,67.75,43.0421,44.4194,130.245,109.405,111.775,0.000923005,0.0573572,21.0152,0.850764,-0.190836,0.0,0.0
289,72,43.1056,44.416,129.916,109.362,112.371,0.000666443,0.05689,21.0167,0.860773,-0.24166,0.0,0.0
306,76.25,43.2167,44.7155,127.621,109.324,111.655,0.000485616,0.0565609,21.0174,0.860773,-0.187803,0.0,0.0
323,80.5,43.1493,44.8116,130.71,109.307,111.596,0.000735276,0.0563632,21.0158,0.870782,-0.184436,0.0,0.0
340,84.75,43.4983,45.3247,128.914,109.256,111.833,0.000963585,0.0563556,21.0161,0.870782,-0.207489,0.0,0.0
357,89,43.1147,45.0827,131.675,109.206,111.738,0.00133324,0.0564508,21.0192,0.850764,-0.204034,0.0,0.0
374,93.25,43.2143,45.01,131.541,109.149,111.294,0.00107888,0.0562766,21.0184,0.850764,-0.173229,0.0,0.0
391,97.5,43.1631,45.1623,128.572,109.091,111.471,0.000836887,0.0561124,21.0176,0.850764,-0.192109,0.0,0.0
408,101.75,42.8716,45.1308,130.416,109.035,111.848,0.000679928,0.0561937,21.0174,0.860773,-0.226717,0.0,0.0
425,106,43.2912,45.3746,130.611,108.952,111.776,0.000518436,0.0559113,21.0179,0.860773,-0.227783,0.0,0.0
442,110.25,43.4477,45.3129,128.204,108.986,112.133,0.000586979,0.0560024,21.0173,0.840755,-0.253433,0.0,0.0
459,114.5,43.6971,45.4433,131.246,109.038,111.758,0.000901784,0.0560451,21.0169,0.810728,-0.219269,0.0,0.0
476,118.75,43.5795,45.6655,132.736,109.075,111.919,0.000532315,0.0559806,21.0163,0.820737,-0.229101,0.0,0.0
493,123,43.649,45.3312,130.345,109.133,111.58,0.000546171,0.0561449,21.016,0.810728,-0.197365,0.0,0.0
510,127.25,43.628,45.8667,131.191,109.211,111.894,0.000614869,0.0563643,21.0149,0.830746,-0.216062,0.0,0.0
527,131.5,43.4016,45.6571,129.689,109.273,112.825,0.000851542,0.0565456,21.0141,0.830746,-0.284789,0.0,0.0
544,135.75,43.6197,45.3629,129.723,109.344,112.316,0.000604393,0.0566413,21.0153,0.820737,-0.238709,0.0,0.0
561,140,43.8451,45.6326,131.586,109.414,112.254,0.000473784,0.0566476,21.0155,0.800719,-0.228112,0.0,0.0
578,144.25,43.9035,45.7903,128.93,109.479,111.705,0.000630684,0.0564863,21.0155,0.810728,-0.179191,0.0,0.0
595,148.5,43.4211,45.5906,130.026,109.55,112.203,0.000675094,0.0564633,21.0152,0.79071,-0.212968,0.0,0.0
612,152.75,43.5107,45.6236,129.238,109.627,112.335,0.000559628,0.0564834,21.0148,0.800719,-0.217194,0.0,0.0
629,157,44.1103,45.4894,131.184,109.725,112.198,0.000427074,0.0562655,21.0156,0.770692,-0.198442,0.0,0.0
646,161.25,43.7585,45.42,132.294,109.773,112.618,0.000292108,0.0561192,21.0165,0.810728,-0.227827,0.0,0.0
663,165.5,43.8298,45.653,131.141,109.824,112.451,0.000522317,0.0561051,21.0167,0.780701,-0.210439,0.0,0.0
680,169.75,43.6634,44.9347,130.707,109.867,112.43,0.000617234,0.0561974,21.0163,0.810728,-0.205296,0.0,0.0
697,174,43.4771,46.3687,131.092,109.887,112.043,0.000733216,0.0560085,21.0159,0.79071,-0.173021,0.0,0.0
714,178.25,44.2162,45.9246,129.733,109.93,112.72,0.000605255,0.0557622,21.0166,0.79071,-0.223189,0.0,0.0
731,182.5,44.1106,46.0921,127.041,109.934,112.822,0.000515833,0.0556258,21.0181,0.780701,-0.230823,0.0,0.0
748,186.75,43.5714,46.1471,131.335,109.94,112.565,0.000499601,0.0557142,21.0183,0.770692,-0.210078,0.0,0.0
765,191,43.7559,45.7334,130.064,109.942,112.869,0.000502949,0.0556947,21.0179,0.79071,-0.233846,0.0,0.0
782,195.25,43.9176,45.8875,130.948,109.941,112.214,0.000463599,0.0556341,21.0182,0.780701,-0.182192,0.0,0.0
799,199.5,43.9542,45.7875,132.722,109.933,112.202,0.000735247,0.0556605,21.019,0.750674,-0.181862,0.0,0.0
816,203.75,44.3363,46.2418,130.273,109.909,112.598,0.000917679,0.0557822,21.0159,0.760683,-0.215154,0.0,0.0
833,208,44.2031,45.9442,129.149,109.878,113.142,0.000776067,0.0559502,21.0165,0.770692,-0.260609,0.0,0.0
850,212.25,43.9464,45.6789,131.774,109.851,112.58,0.000639469,0.0558598,21.0155,0.750674,-0.218422,0.0,0.0
867,216.5,44.3648,45.904,131.719,109.792,112.715,0.00055698,0.0558377,21.0165,0.770692,-0.233827,0.0,0.0
884,220.75,44.1602,45.6165,127.15,109.732,112.086,0.000482765,0.0556336,21.0173,0.800719,-0.188975,0.0,0.0
901,225,44.1036,45.7706,131.014,109.673,112.38,0.0005955,0.0556226,21.0186,0.760683,-0.216997,0.0,0.0
918,229.25,43.952,46.1606,130.779,109.582,112.762,0.00056163,0.0556315,21.0191,0.780701,-0.254671,0.0,0.0
935,233.5,44.0185,46.5103,133.783,109.509,112.25,0.000367411,0.0552959,21.0192,0.770692,-0.220132,0.0,0.0
952,237.75,44.0739,46.7124,132.102,109.406,112.157,0.000475066,0.0554511,21.0186,0.760683,-0.221078,0.0,0.0
969,242,44.2786,45.8179,126.974,109.332,112.267,0.00062594,0.0554858,21.0171,0.730656,-0.235802,0.0,0.0
986,246.25,44.3009,45.7111,130.291,109.224,112.392,0.000460061,0.0554754,21.0159,0.750674,-0.254502,0.0,0.0
1003,250.5,44.4532,46.2548,127.397,109.152,112.395,0.000503148,0.0556662,21.0153,0.750674,-0.260666,0.0,0.0
1020,254.75,44.5824,46.2874,133.431,109.067,111.479,0.000777527,0.0557076,21.0158,0.770692,-0.194793,0.0,0.0
1037,259,43.8779,45.8182,127.531,108.981,112.575,0.000824221,0.0555973,21.0166,0.750674,-0.288851,0.0,0.0
1054,263.25,44.2525,46.3658,127.511,108.908,111.887,0.000806083,0.0557793,21.0162,0.750674,-0.240265,0.0,0.0
1071,267.5,44.9082,46.2658,130.108,108.838,111.557,0.000781314,0.0556622,21.0161,0.740665,-0.21967,0.0,0.0
1088,271.75,44.1639,46.4316,129.339,108.74,111.04,0.000414695,0.0556462,21.0164,0.730656,-0.186362,0.0,0.0
1105,276,44.4611,46.4006,129.728,108.658,110.79,0.000284935,0.0556309,21.0165,0.770692,-0.172944,0.0,0.0
1122,280.25,44.3392,46.141,129.591,108.577,110.34,0.000641498,0.0555871,21.0165,0.740665,-0.143364,0.0,0.0
1139,284.5,44.5667,46.512,129.095,108.463,110.917,0.000388087,0.0556074,21.0165,0.750674,-0.19922,0.0,0.0
1156,288.75,44.3824,46.064,130.065,108.382,113.093,0.000260635,0.0555051,21.0165,0.750674,-0.378815,0.0,0.0
1173,293,44.4929,46.4101,129.227,108.293,110.438,0.000573231,0.0554073,21.0158,0.720647,-0.174626,0.0,0.0
1190,297.25,44.3378,46.3589,132.46,108.193,110.688,0.000439929,0.0554261,21.015,0.730656,-0.202973,0.0,0.0
1207,301.5,44.3605,46.2957,128.47,108.112,111.579,0.000390054,0.0550686,21.0165,0.730656,-0.281008,0.0,0.0
1224,305.75,44.2909,46.4041,131.871,108.052,111.093,0.000411202,0.0551842,21.016,0.710638,-0.247095,0.0,0.0
1241,310,44.4126,46.3611,132.005,108.005,110.763,0.000344402,0.0553537,21.0133,0.710638,-0.224469,0.0,0.0
1258,314.25,44.5098,46.4196,131.335,107.966,110.583,0.000473706,0.0555496,21.0133,0.740665,-0.213167,0.0,0.0
1275,318.5,44.4055,46.4653,129.001,107.966,110.449,0.00044142,0.0552744,21.0138,0.740665,-0.202428,0.0,0.0
1292,322.75,44.8536,46.6117,131.448,107.983,110.404,0.000414581,0.0553425,21.0153,0.740665,-0.197387,0.0,0.0
1309,327,44.4905,46.5263,127.554,107.969,110.92,0.000363195,0.0555301,21.0161,0.720647,-0.240064,0.0,0.0
1326,331.25,44.516,46.786,134.134,107.986,110.825,0.000249114,0.0553226,21.0167,0.720647,-0.231066,0.0,0.0
1343,335.5,44.2444,45.9913,125.923,108.013,111.082,0.000299216,0.0552104,21.0168,0.730656,-0.24942,0.0,0.0
1360,339.75,44.7002,46.5001,133.2,108.025,110.854,0.000472674,0.0554716,21.0176,0.720647,-0.230137,0.0,0.0
1377,344,44.5288,47.3768,131.813,108.06,110.39,0.000593332,0.0555966,21.0175,0.760683,-0.18991,0.0,0.0
1394,348.25,44.5468,47.0332,129.617,108.114,110.228,0.000822481,0.0556613,21.0181,0.710638,-0.172377,0.0,0.0
1411,352.5,44.6978,46.7511,129.046,108.144,110.828,0.000506465,0.0555912,21.018,0.730656,-0.218231,0.0,0.0
1428,356.75,44.7427,46.6462,129.988,108.169,110.848,0.000230768,0.0554959,21.0167,0.730656,-0.21783,0.0,0.0
1445,361,44.7288,46.235,129.883,108.228,112.013,0.000363299,0.0555621,21.0165,0.750674,-0.306,0.0,0.0
1462,365.25,44.6043,47.0491,129.632,108.293,110.978,0.000340735,0.0555952,21.0184,0.770692,-0.218068,0.0,0.0
1479,369.5,44.6544,46.7937,128.743,108.328,111.052,0.0004051,0.0557201,21.0192,0.710638,-0.221146,0.0,0.0
1496,373.75,44.6145,46.7821,133.035,108.376,110.99,0.000564442,0.0556914,21.0196,0.770692,-0.212098,0.0,0.0
1513,378,44.867,46.9216,126.343,108.428,111.69,0.000489544,0.0554488,21.0181,0.720647,-0.263891,0.0,0.0
1530,382.25,44.6576,47.0253,131.946,108.477,111.452,0.000606964,0.0558431,21.0194,0.710638,-0.240808,0.0,0.0
1547,386.5,45.0194,47.1301,130.197,108.501,112.246,0.000461102,0.0560188,21.0181,0.720647,-0.302092,0.0,0.0
1564,390.75,45.2215,46.7375,126.824,108.515,110.947,0.00024541,0.0561322,21.015,0.700629,-0.197292,0.0,0.0
1581,395,45.1455,46.9699,130.077,108.52,111.519,0.000517897,0.056371,21.0139,0.720647,-0.242699,0.0,0.0
1598,399.25,45.0164,46.9833,132.57,108.512,111.702,0.000668205,0.0564885,21.013,0.730656,-0.257963,0.0,0.0
1615,403.5,45.4645,47.0454,128.542,108.518,111.007,0.000452488,0.0562722,21.0144,0.730656,-0.201836,0.0,0.0
1632,407.75,45.4194,46.91,129.982,108.516,111.31,0.000581029,0.0561703,21.0146,0.710638,-0.22626,0.0,0.0
1649,412,45.1887,46.8736,129.209,108.505,111.3,0.000571813,0.0561773,21.0139,0.710638,-0.226409,0.0,0.0
1666,416.25,44.986,47.0464,126.756,108.526,110.953,0.000289911,0.0561813,21.0154,0.69062,-0.196864,0.0,0.0
1683,420.5,45.2628,47.3346,132.236,108.532,111.191,0.000170395,0.0563984,21.016,0.680611,-0.215438,0.0,0.0
1700,424.75,45.0104,46.924,126.56,108.545,111.461,0.000375517,0.0561488,21.0139,0.700629,-0.236026,0.0,0.0
1717,429,45.023,46.9765,129.419,108.575,111.333,0.000248261,0.0563277,21.0131,0.69062,-0.223348,0.0,0.0
1734,433.25,44.9662,47.1939,130.852,108.626,111.42,2.99879e-05,0.0565903,21.0145,0.700629,-0.226064,0.0,0.0
1751,437.5,44.9038,47.0739,129.258,108.641,111.439,0.00041846,0.056326,21.0152,0.710638,-0.226375,0.0,0.0
1768,441.75,45.1191,46.9762,128.342,108.642,111.676,0.000241118,0.0560388,21.0171,0.720647,-0.245218,0.0,0.0
1785,446,45.2786,47.1044,129.071,108.659,111.681,0.00030151,0.055968,21.0175,0.740665,-0.244243,0.0,0.0
1802,450.25,45.0196,47.1271,129.778,108.644,111.155,0.00035942,0.0557919,21.0176,0.750674,-0.20341,0.0,0.0
1819,454.5,45.3267,47.0665,129.514,108.66,111.071,0.000362571,0.0559016,21.0177,0.730656,-0.195384,0.0,0.0
1836,458.75,45.3322,47.109,127.028,108.669,111.665,0.000160092,0.0558737,21.0178,0.730656,-0.24211,0.0,0.0
1853,463,45.2591,47.2686,132.321,108.663,111.845,0.000133601,0.055761,21.0178,0.710638,-0.256977,0.0,0.0
1870,467.25,45.2599,47.1005,127.969,108.637,111.026,0.000638865,0.0559231,21.0173,0.700629,-0.193584,0.0,0.0
1887,471.5,45.6484,47.4041,127.207,108.615,111.105,0.000965203,0.0564338,21.0155,0.720647,-0.201759,0.0,0.0
1904,475.75,45.7133,47.5132,127.215,108.619,111.691,0.000866875,0.0572104,21.0117,0.720647,-0.248277,0.0,0.0
1921,480,45.2646,46.9926,129.575,108.614,111.666,0.000897862,0.0572275,21.0111,0.720647,-0.246702,0.0,0.0
1938,484.25,45.5464,47.3674,127.788,108.607,111.997,0.000729212,0.0569594,21.0119,0.720647,-0.273546,0.0,0.0
1955,488.5,45.598,47.5019,129.013,108.609,111.531,0.000516413,0.0563905,21.0153,0.710638,-0.236349,0.0,0.0
1972,492.75,44.996,47.7647,131.089,108.611,111.842,0.000603422,0.0562233,21.0165,0.710638,-0.260963,0.0,0.0
1989,497,44.9688,47.7346,130.782,108.622,111.065,0.000523841,0.056092,21.017,0.680611,-0.198015,0.0,0.0
2006,501.25,45.3613,47.4552,127.446,108.658,111.997,0.00045539,0.0563134,21.0176,0.700629,-0.269429,0.0,0.0
2023,505.5,45.0877,47.3479,127.621,108.686,111.409,0.000536677,0.0566034,21.0176,0.700629,-0.220286,0.0,0.0
2040,509.75,44.9513,47.2251,129.687,108.724,110.905,0.000670083,0.0565197,21.0174,0.700629,-0.176766,0.0,0.0
2057,514,45.5803,47.4502,127.976,108.78,111.725,0.000538298,0.0568181,21.0168,0.740665,-0.237818,0.0,0.0
2074,518.25,45.8417,47.4504,131.053,108.821,112.369,0.000485036,0.0572097,21.0154,0.710638,-0.285666,0.0,0.0
2091,522.5,45.4376,47.1135,125.977,108.871,112.546,0.000596836,0.0570007,21.0151,0.720647,-0.295551,0.0,0.0
2108,526.75,45.3107,47.5944,129.51,108.94,111.575,0.000719685,0.0569187,21.0154,0.720647,-0.21273,0.0,0.0
2125,531,45.5349,47.6567,130.336,109.03,112.416,0.00067612,0.0568654,21.0143,0.69062,-0.272198,0.0,0.0
2142,535.25,45.8668,47.6561,131.993,109.123,111.785,0.000933805,0.0569021,21.0137,0.680611,-0.21453,0.0,0.0
2159,539.5,45.6335,47.5743,129.842,109.157,112.418,0.000865794,0.0569628,21.0132,0.710638,-0.262073,0.0,0.0
2176,543.75,45.7219,47.1824,134.97,109.222,111.799,0.000666176,0.0570939,21.0131,0.710638,-0.207657,0.0,0.0
2193,548,45.4607,47.8301,131.104,109.259,112.073,0.000386407,0.0570579,21.0123,0.710638,-0.226361,0.0,0.0
2210,552.25,45.4425,47.8445,127.04,109.29,112.657,0.000510581,0.0570253,21.0116,0.740665,-0.270092,0.0,0.0
2227,556.5,45.8428,47.6842,133.602,109.331,112.861,0.000423081,0.0568623,21.0132,0.720647,-0.282859,0.0,0.0
2244,560.75,45.5621,47.7386,128.098,109.334,112.618,0.000275635,0.0569459,21.0137,0.670602,-0.263456,0.0,0.0
2261,565,45.7068,47.6402,133.207,109.345,111.862,0.000358696,0.0569606,21.0138,0.69062,-0.202633,0.0,0.0
2278,569.25,45.8017,47.3082,127.307,109.338,112.244,0.00041636,0.0566792,21.0146,0.710638,-0.233534,0.0,0.0
2295,573.5,45.4333,47.8308,127.195,109.333,112.3,0.000653074,0.0565454,21.0158,0.69062,-0.238392,0.0,0.0
2312,577.75,45.5017,47.8591,129.431,109.311,112.055,0.000549183,0.0566564,21.0161,0.680611,-0.22071,0.0,0.0
2329,582,46.0604,48.0792,129.947,109.285,111.956,0.000471921,0.0566888,21.016,0.69062,-0.214942,0.0,0.0
2346,586.25,45.5211,47.5689,129.839,109.247,111.989,0.000664742,0.0567209,21.0155,0.700629,-0.220696,0.0,0.0
2363,590.5,45.376,47.7158,129.896,109.199,111.14,0.000793833,0.0565089,21.0155,0.710638,-0.156801,0.0,0.0
2380,594.75,45.4838,47.4235,134.246,109.138,112.543,0.000754649,0.0564389,21.0136,0.710638,-0.273502,0.0,0.0
2397,599,45.7614,47.1894,127.713,109.104,111.777,0.000617585,0.0565109,21.0127,0.680611,-0.215444,0.0,0.0
2414,603.25,45.5984,47.2549,130.213,109.079,112.5,0.000481237,0.0564049,21.0119,0.700629,-0.274925,0.0,0.0
2431,607.5,45.5488,47.5164,127.002,109.134,111.438,0.000254979,0.0563305,21.0131,0.670602,-0.185982,0.0,0.0
2448,611.75,45.5628,47.4637,129.604,109.134,112.575,0.000399433,0.0563431,21.0122,0.680611,-0.276404,0.0,0.0
2465,616,45.2925,47.3554,130.362,109.071,112.006,0.000510736,0.0562218,21.0131,0.700629,-0.236372,0.0,0.0
2482,620.25,45.6569,47.5919,130.038,109.032,111.581,0.000489565,0.0559941,21.0156,0.710638,-0.205679,0.0,0.0
2499,624.5,45.7323,47.7753,129.833,108.965,111.951,0.000387552,0.0562776,21.016,0.700629,-0.240647,0.0,0.0
2516,628.75,45.3942,47.697,129.559,108.914,111.261,0.000401337,0.0562777,21.0161,0.670602,-0.189801,0.0,0.0
2533,633,44.9205,47.6213,128.029,108.853,111.863,0.000716262,0.05636,21.0157,0.69062,-0.242807,0.0,0.0
2550,637.25,45.7481,47.5836,129.969,108.799,112.321,0.0004192,0.0562959,21.0164,0.700629,-0.283634,0.0,0.0
2567,641.5,45.4574,47.4356,131.163,108.775,111.619,0.000487678,0.0561149,21.0173,0.69062,-0.22979,0.0,0.0
2584,645.75,45.4063,47.306,131.003,108.726,111.56,0.000775158,0.0562989,21.0163,0.69062,-0.229068,0.0,0.0
2601,650,45.3893,47.7039,128.73,108.693,111.664,0.000688998,0.0564957,21.0145,0.69062,-0.24001,0.0,0.0
2618,654.25,45.4163,47.7043,130.802,108.678,112.108,0.000224088,0.0563532,21.0138,0.69062,-0.276596,0.0,0.0
2635,658.5,45.3504,47.3774,129.455,108.668,111.833,0.000417238,0.0566341,21.0122,0.700629,-0.255561,0.0,0.0
2652,662.75,46.0693,47.8303,127.363,108.747,111.65,0.000827494,0.056611,21.0134,0.69062,-0.234544,0.0,0.0
2669,667,46.0454,47.6243,129.533,108.836,111.101,0.000464408,0.0565995,21.015,0.700629,-0.183404,0.0,0.0
2686,671.25,45.4704,47.5168,128.314,108.911,111.18,0.000288989,0.0564814,21.0159,0.69062,-0.183495,0.0,0.0
2703,675.5,45.4023,47.4769,126.099,109.007,111.531,0.000528391,0.0562359,21.0161,0.680611,-0.203751,0.0,0.0
2720,679.75,45.5618,47.8673,130.198,109.081,111.977,0.00055657,0.056377,21.0161,0.69062,-0.233267,0.0,0.0
2737,684,45.6634,47.6161,127.73,109.159,112.325,0.000477018,0.0561752,21.0146,0.710638,-0.254535,0.0,0.0
2754,688.25,45.6241,47.3813,132.825,109.239,113.091,0.000492083,0.0562881,21.016,0.670602,-0.308456,0.0,0.0
2771,692.5,45.4033,47.7536,126.768,109.309,111.54,0.000266164,0.0560801,21.0166,0.69062,-0.179876,0.0,0.0
2788,696.75,45.3594,47.8105,130.358,109.365,111.713,0.000636392,0.0561146,21.0167,0.710638,-0.189067,0.0,0.0
2805,701,45.56,47.673,129.269,109.406,112.448,0.000621294,0.055937,21.0168,0.700629,-0.244173,0.0,0.0
2822,705.25,45.4712,47.8598,126.271,109.443,112.813,0.000318016,0.0560481,21.0168,0.700629,-0.270002,0.0,0.0
2839,709.5,46.284,47.6448,128.688,109.474,112.434,0.000139099,0.0561877,21.0175,0.680611,-0.23748,0.0,0.0
2856,713.75,45.7242,47.4605,130.752,109.488,111.716,0.000322399,0.0561972,21.0161,0.670602,-0.179304,0.0,0.0
2873,718,45.4469,47.7452,127.898,109.512,112.289,0.000501096,0.056117,21.0162,0.69062,-0.222974,0.0,0.0
2890,722.25,45.5202,47.651,129.842,109.539,111.756,0.000721595,0.0562561,21.017,0.700629,-0.178332,0.0,0.0
2907,726.5,45.5425,47.885,132.373,109.549,111.9,0.00054856,0.0560113,21.0173,0.700629,-0.189026,0.0,0.0
2924,730.75,45.1338,47.3436,127.837,109.569,112.362,0.000244175,0.056104,21.0165,0.700629,-0.224107,0.0,0.0
2941,735,45.5219,47.2718,128.572,109.584,113.359,0.000492797,0.0562738,21.0154,0.700629,-0.301498,0.0,0.0
2958,739.25,45.2338,47.4006,129.993,109.58,112.053,0.000548678,0.0562713,21.0151,0.700629,-0.198686,0.0,0.0
2975,743.5,45.1165,46.9069,126.852,109.591,113.374,0.000377473,0.056225,21.0169,0.720647,-0.302088,0.0,0.0
2992,747.75,45.5079,47.6371,128.692,109.592,112.092,0.000427507,0.0560966,21.0173,0.740665,-0.200786,0.0,0.0
3009,752,45.437,47.5767,128.087,109.609,112.128,0.000596941,0.056145,21.0158,0.750674,-0.202249,0.0,0.0
3026,756.25,45.7967,47.8144,130.037,109.595,112.658,0.000606712,0.0562073,21.0163,0.730656,-0.245367,0.0,0.0
3043,760.5,45.5886,47.4199,129.056,109.577,112.808,0.000716474,0.0564774,21.0169,0.720647,-0.258686,0.0,0.0
3060,764.75,45.7378,47.7956,129.897,109.566,112.445,0.000511661,0.0570242,21.0155,0.710638,-0.230856,0.0,0.0
3077,769,46.3578,48.0622,131.142,109.541,112.931,0.000594037,0.0572024,21.0149,0.700629,-0.271321,0.0,0.0
3094,773.25,46.3807,48.1487,129.923,109.522,112.901,0.000351164,0.0572804,21.0141,0.710638,-0.270489,0.0,0.0
3111,777.5,46.0443,48.0037,131.686,109.502,112.757,0.000373496,0.0575454,21.0127,0.710638,-0.260724,0.0,0.0
3128,781.75,46.3318,47.5962,130.815,109.455,112.183,0.000365722,0.0571999,21.014,0.720647,-0.21914,0.0,0.0
3145,786,45.8512,47.6807,127.031,109.43,112.919,0.000380762,0.0566078,21.0165,0.700629,-0.279455,0.0,0.0
3162,790.25,45.6079,47.9797,125.428,109.41,112.668,0.000566016,0.0562469,21.0184,0.69062,-0.261192,0.0,0.0
3179,794.5,45.9011,47.7616,128.637,109.411,111.963,0.000415659,0.0562171,21.0192,0.700629,-0.20527,0.0,0.0
3196,798.75,46.0961,47.4556,129.146,109.335,111.888,0.000360807,0.0561119,21.0194,0.710638,-0.205502,0.0,0.0
3213,803,45.4618,47.6445,125.66,109.294,112.724,0.000541183,0.0561097,21.0196,0.710638,-0.275113,0.0,0.0
3230,807.25,45.786,47.8482,130.252,109.257,111.747,0.000585295,0.0561169,21.0181,0.710638,-0.20054,0.0,0.0
3247,811.5,45.6394,47.7373,128.659,109.198,112.453,0.00051059,0.0562237,21.0181,0.700629,-0.261506,0.0,0.0
3264,815.75,45.4627,47.7727,131.34,109.14,112.662,0.000260771,0.0560989,21.0185,0.69062,-0.282771,0.0,0.0
3281,820,45.6468,48.1579,127.624,109.09,111.869,0.000189403,0.0562269,21.0186,0.680611,-0.22391,0.0,0.0
3298,824.25,46.0415,48.0959,127.722,109.101,112.21,0.000117169,0.0562854,21.0186,0.700629,-0.250084,0.0,0.0
3315,828.5,45.5659,47.6906,132.967,109.124,112.284,0.0004312,0.0561832,21.0173,0.69062,-0.254128,0.0,0.0
3332,832.75,46.0535,48.1212,127.701,109.165,112.107,0.000557172,0.0561482,21.0171,0.700629,-0.236756,0.0,0.0
3349,837,46.058,47.7658,131.075,109.182,112.251,0.000393395,0.0561034,21.0171,0.69062,-0.246793,0.0,0.0
3366,841.25,46.1623,47.4417,127.305,109.205,112.236,0.000539045,0.0561624,21.0189,0.680611,-0.243678,0.0,0.0
3383,845.5,45.7624,47.3475,129.012,109.256,112.426,0.000374465,0.056099,21.0179,0.720647,-0.254615,0.0,0.0
3400,849.75,45.9495,47.5328,131.172,109.276,112.23,0.00056172,0.0559242,21.0166,0.700629,-0.237426,0.0,0.0
3417,854,45.4721,48.0072,128.77,109.333,112.288,0.000558909,0.0557884,21.0175,0.670602,-0.237453,0.0,0.0
3434,858.25,45.8818,48.0682,130.51,109.375,111.907,0.000705329,0.0559844,21.0177,0.670602,-0.203694,0.0,0.0
3451,862.5,46.2826,47.9559,133.633,109.413,111.638,0.000513578,0.0558578,21.0169,0.700629,-0.179175,0.0,0.0
3468,866.75,45.9399,47.7397,128.091,109.44,112.745,0.000316421,0.0557296,21.0156,0.700629,-0.264878,0.0,0.0
3485,871,45.9562,47.2685,127.716,109.462,112.42,0.000411156,0.0558362,21.0162,0.670602,-0.237356,0.0,0.0
3502,875.25,46.0297,48.1567,131.62,109.492,112.78,0.000276859,0.0558533,21.018,0.680611,-0.263342,0.0,0.0
3519,879.5,46.1504,47.5676,129.162,109.506,112.372,0.000111502,0.055825,21.0183,0.69062,-0.229978,0.0,0.0
3536,883.75,45.7289,47.7703,132.358,109.517,112.536,0.000323687,0.0561702,21.0184,0.69062,-0.242058,0.0,0.0
3553,888,46.0354,47.5431,130.555,109.569,112.14,0.000465974,0.0560534,21.0184,0.700629,-0.206412,0.0,0.0
3570,892.25,46.0174,47.8778,126.937,109.566,112.935,0.000343671,0.0559272,21.0169,0.660593,-0.26963,0.0,0.0
3587,896.5,46.0013,48.0126,129.619,109.599,113.03,0.000500943,0.0558611,21.016,0.680611,-0.274451,0.0,0.0
3604,900.75,46.0912,48.0996,127.953,109.645,113.359,0.000560186,0.0560131,21.0174,0.69062,-0.29652,0.0,0.0
3621,905,45.573,48.1332,131.457,109.669,112.693,0.000297453,0.0560501,21.0169,0.700629,-0.242086,0.0,0.0
3638,909.25,45.7059,47.9297,132.068,109.703,112.216,0.000365564,0.0560329,21.0156,0.700629,-0.201679,0.0,0.0
3655,913.5,46.1335,48.05,129.959,109.73,112.909,0.000663607,0.0562885,21.0154,0.69062,-0.254217,0.0,0.0
3672,917.75,45.6737,47.3937,130.984,109.777,112.401,0.000631157,0.0561537,21.0167,0.680611,-0.210242,0.0,0.0
3689,922,46.2659,47.6934,130.883,109.816,113.054,0.000525942,0.0560535,21.0176,0.69062,-0.258691,0.0,0.0
3706,926.25,45.488,47.5032,126.963,109.867,112.512,0.000353869,0.05606,21.0177,0.720647,-0.211746,0.0,0.0
3723,930.5,45.5756,47.6885,128.195,109.928,113.092,0.000283015,0.0560949,21.0184,0.69062,-0.252611,0.0,0.0
3740,934.75,46.0902,47.7253,126.505,109.944,113.342,0.000243803,0.0559639,21.0186,0.710638,-0.270903,0.0,0.0
3757,939,45.9168,47.9595,130.567,109.971,113.178,0.000269544,0.0559271,21.0186,0.69062,-0.255879,0.0,0.0
3774,943.25,46.0859,47.9833,130.026,109.999,113.336,0.000458331,0.0559151,21.0184,0.700629,-0.266014,0.0,0.0
3791,947.5,46.0283,47.4946,131.68,110.009,112.536,0.00034445,0.0559556,21.0184,0.700629,-0.202173,0.0,0.0
3808,951.75,45.9651,47.6625,131.398,110.024,112.991,0.000329741,0.0560495,21.0177,0.710638,-0.236827,0.0,0.0
3825,956,45.8492,48.2134,130.194,110.049,113.612,0.000550431,0.0560632,21.0166,0.69062,-0.283679,0.0,0.0
3842,960.25,46.057,48.061,127.882,110.063,113.831,0.00075819,0.0562083,21.016,0.700629,-0.29966,0.0,0.0
3859,964.5,46.0331,47.8921,130.432,110.047,112.757,0.000524807,0.0561454,21.0165,0.710638,-0.216547,0.0,0.0
3876,968.75,45.8228,47.7738,127.441,110.06,112.854,0.000600862,0.0560263,21.0183,0.700629,-0.223119,0.0,0.0
3893,973,45.8851,47.7665,130.976,110.063,113.393,0.000401918,0.0561312,21.0186,0.730656,-0.265303,0.0,0.0
3910,977.25,46.2073,47.7994,129.341,110.056,114.176,0.000243498,0.0560301,21.0188,0.720647,-0.327185,0.0,0.0
3927,981.5,45.799,47.7812,126.183,110.051,112.365,0.000329529,0.0561598,21.0188,0.700629,-0.185259,0.0,0.0
3944,985.75,45.4118,48.0494,128.543,110.06,112.69,0.00030185,0.0561661,21.0188,0.700629,-0.210177,0.0,0.0
3961,990,46.1318,47.8128,125.428,110.043,113.922,0.00032145,0.0560608,21.0185,0.69062,-0.308407,0.0,0.0
3978,994.25,45.7067,47.8904,131.87,110.046,113.261,0.00022509,0.0559609,21.0184,0.720647,-0.256301,0.0,0.0
3995,998.5,46.3524,47.8347,131.73,110.06,112.758,0.000243878,0.0557958,21.0184,0.720647,-0.21567,0.0,0.0
4012,1002.75,45.587,48.279,129.956,110.041,113.33,0.000312854,0.055829,21.0184,0.720647,-0.262161,0.0,0.0
4029,1007,45.8497,47.9593,128.485,110.046,113.619,0.000318144,0.0556626,21.0184,0.720647,-0.28447,0.0,0.0
4046,1011.25,45.9409,47.7881,126.581,110.057,114.315,0.000235678,0.0556804,21.0193,0.700629,-0.337894,0.0,0.0
4063,1015.5,46.1404,47.5488,132.222,110.049,112.919,0.000355697,0.0557414,21.0202,0.720647,-0.229261,0.0,0.0
4080,1019.75,45.1933,47.8802,130.703,110.046,113.205,0.000202715,0.0558074,21.0203,0.710638,-0.251988,0.0,0.0
4097,1024,46.1307,47.2946,128.9,110.053,113.599,0.000413064,0.0556406,21.0203,0.710638,-0.282278,0.0,0.0
4114,1028.25,46.0723,47.6763,126.388,110.065,112.714,0.000427412,0.055751,21.0203,0.69062,-0.211658,0.0,0.0
4131,1032.5,46.0508,48.0311,131.771,110.071,112.646,0.000379192,0.0556851,21.0185,0.69062,-0.205849,0.0,0.0
4148,1036.75,45.8949,47.7569,125.638,110.03,113.005,0.000161176,0.0557527,21.0186,0.750674,-0.237566,0.0,0.0
4165,1041,45.768,48.0317,129.173,110.037,113.461,0.000231606,0.0562883,21.0203,0.710638,-0.272758,0.0,0.0
4182,1045.25,46.0173,48.094,131.86,110.022,112.793,0.00038997,0.0561622,21.0191,0.710638,-0.221425,0.0,0.0
4199,1049.5,45.4194,47.7074,130.413,110.008,112.924,0.000402517,0.0561829,21.0187,0.69062,-0.232896,0.0,0.0
4216,1053.75,45.816,47.6603,128.07,110.005,113.46,0.000345838,0.0562534,21.0179,0.69062,-0.275281,0.0,0.0
4233,1058,45.7323,47.799,128.583,109.978,112.876,-0.000103741,0.0563187,21.0164,0.710638,-0.231576,0.0,0.0
4250,1062.25,45.8022,47.8021,128.292,109.981,113.355,0.000276628,0.056315,21.0171,0.680611,-0.269025,0.0,0.0
4267,1066.5,45.8469,48.0927,130.35,109.961,113.35,0.000447651,0.0563706,21.0155,0.670602,-0.270203,0.0,0.0
4284,1070.75,46.084,48.1324,130.093,109.948,113.768,0.000342027,0.0566829,21.0151,0.69062,-0.304065,0.0,0.0
4301,1075,46.043,47.8072,129.433,109.918,113.464,0.000209299,0.0565716,21.0154,0.720647,-0.282619,0.0,0.0
4318,1079.25,45.904,48.2519,133.052,109.9,112.765,0.000420451,0.0565678,21.0157,0.720647,-0.229128,0.0,0.0
4335,1083.5,45.8317,47.8257,128.229,109.86,112.109,0.000372204,0.0564762,21.0151,0.710638,-0.180381,0.0,0.0
4352,1087.75,46.2457,47.8806,127.343,109.83,113.232,0.000348581,0.0562407,21.0147,0.710638,-0.271535,0.0,0.0
4369,1092,45.3746,48.1248,131.762,109.8,112.254,0.000202259,0.056339,21.0143,0.700629,-0.196795,0.0,0.0
4386,1096.25,45.2661,47.9974,129.906,109.765,112.458,-0.00013723,0.0559722,21.0142,0.720647,-0.215814,0.0,0.0
4403,1100.5,46.1416,48.1277,127.953,109.716,112.312,-5.06133e-05,0.0558958,21.016,0.69062,-0.208204,0.0,0.0
4420,1104.75,46.0556,47.993,131.85,109.698,112.812,0.000263495,0.0557687,21.0171,0.69062,-0.249193,0.0,0.0
4437,1109,46.4647,48.2119,128.543,109.674,112.621,0.000557169,0.0556409,21.0173,0.730656,-0.23607,0.0,0.0
4454,1113.25,45.8865,48.1293,128.965,109.632,112.615,0.000531636,0.0557072,21.0174,0.700629,-0.238926,0.0,0.0
4471,1117.5,46.1918,48.252,128.233,109.591,113.079,0.000596969,0.0555119,21.0174,0.730656,-0.278944,0.0,0.0
4488,1121.75,45.8327,47.9748,130.606,109.562,112.613,0.000859678,0.0555484,21.0174,0.700629,-0.244572,0.0,0.0
4505,1126,46.1689,47.8113,126.59,109.528,112.367,0.000744652,0.0556026,21.0183,0.710638,-0.227868,0.0,0.0
4522,1130.25,45.9772,47.5651,127.937,109.482,112.694,0.00065386,0.0555558,21.0191,0.700629,-0.25742,0.0,0.0
4539,1134.5,46.0754,47.7787,129.164,109.45,112.319,0.000596927,0.0557475,21.0174,0.710638,-0.230344,0.0,0.0
4556,1138.75,46.0017,48.0991,133.465,109.407,112.576,0.000476053,0.0559675,21.0178,0.710638,-0.254221,0.0,0.0
4573,1143,46.1517,47.8727,131.41,109.332,112.28,0.000462634,0.0560756,21.0171,0.670602,-0.236898,0.0,0.0
4590,1147.25,45.757,48.0341,129.704,109.288,112.298,0.000535137,0.055899,21.0189,0.710638,-0.24186,0.0,0.0
4607,1151.5,46.0162,48.0336,129.002,109.256,111.878,0.000733846,0.0556603,21.0183,0.710638,-0.211105,0.0,0.0
4624,1155.75,46.2126,47.8373,131.221,109.175,111.832,0.000670343,0.0557048,21.0186,0.700629,-0.213985,0.0,0.0
4641,1160,46.2858,47.8748,132.96,109.122,112.72,0.000588287,0.0557671,21.0192,0.680611,-0.288848,0.0,0.0
4658,1164.25,45.8111,47.4614,130.178,109.095,112.242,0.000540323,0.0559374,21.0179,0.710638,-0.253209,0.0,0.0
4675,1168.5,46.0032,47.6326,131.058,109.016,112.173,0.000306537,0.0559798,21.0177,0.69062,-0.254124,0.0,0.0
4692,1172.75,45.5953,47.9438,128.811,108.955,111.756,0.000424261,0.0564009,21.0183,0.710638,-0.22599,0.0,0.0
4709,1177,46.2315,47.7658,131.434,108.921,112.298,0.000254413,0.0563402,21.0166,0.720647,-0.271775,0.0,0.0
4726,1181.25,46.005,47.8744,129.93,108.866,111.818,0.000352692,0.0563165,21.0174,0.69062,-0.238147,0.0,0.0
4743,1185.5,45.6316,47.9756,133.385,108.797,111.872,0.000349737,0.0562793,21.0174,0.700629,-0.248093,0.0,0.0
4760,1189.75,45.5469,47.6095,130.403,108.746,112.742,0.000444508,0.0563552,21.0166,0.69062,-0.321246,0.0,0.0
4777,1194,45.9492,47.9534,128.509,108.707,112.494,0.000466865,0.0562454,21.0171,0.69062,-0.304901,0.0,0.0
4794,1198.25,46.1247,48.0813,133.999,108.665,111.087,0.000236808,0.0561755,21.0185,0.700629,-0.196254,0.0,0.0
4811,1202.5,45.6665,47.8682,129.862,108.613,111.972,0.000452364,0.05606,21.0189,0.710638,-0.271153,0.0,0.0
4828,1206.75,45.7344,47.6826,129.194,108.593,111.856,0.000695323,0.0560401,21.019,0.700629,-0.263584,0.0,0.0
4845,1211,45.9525,47.8116,129.931,108.556,112.254,0.0005281,0.0558562,21.019,0.69062,-0.298204,0.0,0.0
4862,1215.25,46.2341,47.6054,129.191,108.541,111.907,0.000575179,0.0558281,21.019,0.720647,-0.27182,0.0,0.0
4879,1219.5,46.6095,47.9345,130.664,108.531,111.345,0.000393011,0.0559118,21.0185,0.720647,-0.227909,0.0,0.0
4896,1223.75,46.2175,48.1962,127.618,108.51,111.728,0.000141868,0.0558139,21.0178,0.730656,-0.260154,0.0,0.0
4913,1228,46.0341,47.6145,128.688,108.495,111.238,0.000516768,0.0558909,21.0177,0.730656,-0.222305,0.0,0.0
4930,1232.25,46.0913,47.9101,130.126,108.488,111.472,0.000552,0.0560309,21.0174,0.720647,-0.241521,0.0,0.0
4947,1236.5,45.9712,47.8658,134.338,108.456,112.154,0.000668939,0.0564745,21.0157,0.720647,-0.298494,0.0,0.0
4964,1240.75,46.2216,47.6699,127.802,108.421,110.961,0.000879311,0.0568932,21.0154,0.730656,-0.206185,0.0,0.0
4981,1245,45.7735,47.9633,128.472,108.391,111.355,0.000636739,0.0572324,21.0159,0.740665,-0.240162,0.0,0.0
4998,1249.25,46.2864,47.8443,127.763,108.372,111.303,0.000561808,0.0572397,21.016,0.720647,-0.237612,0.0,0.0
5015,1253.5,45.9333,47.7954,133.979,108.341,111.37,0.000356042,0.0570023,21.016,0.730656,-0.245477,0.0,0.0
5032,1257.75,46.247,47.9413,132.505,108.316,111.658,0.000350155,0.0568607,21.016,0.710638,-0.270491,0.0,0.0
5049,1262,45.7403,47.7345,130.362,108.309,111.024,0.000280325,0.0566491,21.016,0.730656,-0.220374,0.0,0.0
5066,1266.25,46.1035,47.9416,127.705,108.273,111.639,0.000295482,0.0565569,21.0163,0.740665,-0.272506,0.0,0.0
5083,1270.5,45.9401,47.9844,128.646,108.25,111.589,0.000194671,0.0565166,21.0166,0.720647,-0.270373,0.0,0.0
5100,1274.75,46.3116,47.9066,133.059,108.232,111.169,0.000517947,0.0565553,21.0165,0.730656,-0.238349,0.0,0.0
5117,1279,45.8867,48.0067,126.023,108.194,110.938,0.000618599,0.0563571,21.014,0.710638,-0.222974,0.0,0.0
5134,1283.25,45.5486,47.9713,132.093,108.161,111.077,0.000708617,0.0563427,21.0151,0.710638,-0.236749,0.0,0.0
5151,1287.5,46.0717,47.9203,133.355,108.159,111.849,0.000912555,0.0563447,21.0153,0.710638,-0.298651,0.0,0.0
5168,1291.75,45.7836,47.9185,130.893,108.141,111.312,0.000632282,0.0567585,21.0145,0.720647,-0.257313,0.0,0.0
5185,1296,45.7658,47.7155,129.191,108.119,110.762,0.000508523,0.0568367,21.0145,0.710638,-0.21495,0.0,0.0
5202,1300.25,46.1595,47.8361,130.062,108.108,111.449,0.000407342,0.0568722,21.0151,0.740665,-0.270931,0.0,0.0
5219,1304.5,46.1472,48.1956,127.461,108.127,111.553,0.000282762,0.0565844,21.0152,0.750674,-0.27769,0.0,0.0
5236,1308.75,46.1779,47.573,127.733,108.147,110.852,0.000471013,0.0567509,21.0162,0.750674,-0.21996,0.0,0.0
5253,1313,46.0073,47.8175,125.431,108.15,111.18,0.000601379,0.0566919,21.0157,0.730656,-0.245961,0.0,0.0
5270,1317.25,46.1485,48.3392,130.148,108.199,111.33,0.000536672,0.0568181,21.0138,0.740665,-0.25395,0.0,0.0
5287,1321.5,46.1843,47.7395,130.412,108.229,111.652,0.000784846,0.056846,21.013,0.720647,-0.277191,0.0,0.0
5304,1325.75,45.9906,47.9964,127.862,108.258,111.328,0.000802005,0.0567564,21.0128,0.710638,-0.248935,0.0,0.0
5321,1330,45.7166,47.3419,133.247,108.331,110.987,0.000634621,0.0570577,21.0134,0.700629,-0.215553,0.0,0.0
5338,1334.25,45.6687,47.1414,131.178,108.354,111.787,0.000481005,0.057037,21.0143,0.720647,-0.27768,0.0,0.0
5355,1338.5,45.7049,48.1081,128.226,108.391,112.148,0.000278231,0.0572424,21.0149,0.730656,-0.303303,0.0,0.0
5372,1342.75,46.1997,47.8867,130.944,108.452,111.614,0.000311935,0.0573015,21.0126,0.740665,-0.255874,0.0,0.0
5389,1347,45.8793,47.8334,132.983,108.496,111.439,0.000624932,0.0575475,21.0122,0.710638,-0.238227,0.0,0.0
5406,1351.25,46.3754,47.9495,131.336,108.548,111.674,0.000493218,0.057594,21.0121,0.720647,-0.25268,0.0,0.0
5423,1355.5,46.4047,47.7952,133.576,108.603,111.621,0.000438953,0.0574957,21.0121,0.720647,-0.244023,0.0,0.0
5440,1359.75,46.1382,48.0623,132.64,108.662,111.453,0.000643467,0.0574734,21.0127,0.710638,-0.22575,0.0,0.0
5457,1364,46.3213,48.0911,127.037,108.693,111.925,0.000645964,0.0574568,21.0134,0.740665,-0.260848,0.0,0.0
5474,1368.25,46.8509,48.5548,127.53,108.723,111.689,0.000572464,0.0571074,21.0135,0.710638,-0.239639,0.0,0.0
5491,1372.5,46.3062,48.1545,128.444,108.762,112.031,0.000715347,0.0569087,21.0129,0.720647,-0.263587,0.0,0.0
5508,1376.75,46.2653,47.8767,126.41,108.783,111.681,0.0009963,0.0568428,21.0146,0.720647,-0.234063,0.0,0.0
5525,1381,46.2385,47.8959,135.408,108.798,111.815,0.000924246,0.0567311,21.0149,0.730656,-0.243498,0.0,0.0
5542,1385.25,45.8554,48.2109,129.697,108.836,112.886,0.000362658,0.0566165,21.0131,0.720647,-0.325268,0.0,0.0
5559,1389.5,45.5703,48.1248,130.391,108.848,111.53,0.000451765,0.0566269,21.0143,0.720647,-0.216677,0.0,0.0
5576,1393.75,45.8794,48.2587,127.544,108.863,112.594,0.000541471,0.0563432,21.0149,0.720647,-0.299952,0.0,0.0
5593,1398,45.8884,48.1328,132.193,108.9,111.964,0.000422046,0.0563735,21.015,0.720647,-0.246966,0.0,0.0
5610,1402.25,46.0563,47.9404,133.496,108.906,111.609,0.000429253,0.0562824,21.015,0.710638,-0.218222,0.0,0.0
5627,1406.5,45.4404,48.1833,127.854,108.912,111.629,0.000537102,0.0563733,21.0131,0.710638,-0.219332,0.0,0.0
5644,1410.75,45.7063,47.9466,133.236,108.939,112.437,0.000702685,0.0565578,21.0127,0.740665,-0.281331,0.0,0.0
5661,1415,45.9702,47.9538,128.638,108.946,111.734,0.00072417,0.0564981,21.0127,0.730656,-0.22494,0.0,0.0
5678,1419.25,45.8241,48.1264,131.714,108.967,112.433,0.000527497,0.0565643,21.0113,0.720647,-0.27871,0.0,0.0
5695,1423.5,46.1547,47.8743,128.153,108.972,112.148,0.000352078,0.0567499,21.0105,0.700629,-0.255689,0.0,0.0
5712,1427.75,46.1357,48.0065,125.37,108.998,112.647,0.000288125,0.0569398,21.0119,0.740665,-0.293183,0.0,0.0
5729,1432,45.8514,48.2484,128.477,109.004,112.521,0.000395094,0.0569267,21.0139,0.740665,-0.282686,0.0,0.0
5746,1436.25,46.0593,47.8665,128.195,109.051,111.98,0.000633211,0.056995,21.0145,0.720647,-0.235949,0.0,0.0
5763,1440.5,45.8213,48.2835,129.349,109.092,111.838,0.000731725,0.0570164,21.0146,0.730656,-0.221329,0.0,0.0
5780,1444.75,46.2713,47.776,132.088,109.116,112.103,0.000549737,0.0567721,21.0146,0.710638,-0.240356,0.0,0.0
5797,1449,46.1471,47.4133,129.027,109.153,112.157,0.00043843,0.0569743,21.0152,0.710638,-0.241685,0.0,0.0
5814,1453.25,45.9946,47.8523,131.63,109.187,112.452,0.000488186,0.0568156,21.0138,0.740665,-0.262251,0.0,0.0
5831,1457.5,46.4442,48.1546,132.28,109.214,111.631,0.000223315,0.0567016,21.0147,0.710638,-0.19481,0.0,0.0
5848,1461.75,46.4329,47.8456,127.738,109.251,112.635,0.000442109,0.0565323,21.0155,0.700629,-0.271531,0.0,0.0
5865,1466,45.8852,47.8378,127.79,109.299,112.709,0.000594857,0.0564418,21.0156,0.700629,-0.273473,0.0,0.0
5882,1470.25,46.0883,47.768,132.169,109.313,112.577,0.000714373,0.0566077,21.015,0.740665,-0.261938,0.0,0.0
5899,1474.5,46.2592,47.6291,137.387,109.322,113.267,0.000736083,0.0565088,21.0123,0.720647,-0.315534,0.0,0.0
5916,1478.75,45.7144,47.6184,130.34,109.328,112.16,0.000329502,0.0565488,21.0136,0.740665,-0.227627,0.0,0.0
5933,1483,45.7268,48.0024,133.371,109.367,112.066,0.000469867,0.0567366,21.0129,0.740665,-0.21698,0.0,0.0
5950,1487.25,46.0541,48.0909,132.291,109.353,111.814,0.000483903,0.0570624,21.0108,0.720647,-0.198139,0.0,0.0
5967,1491.5,46.0627,47.7693,132.141,109.356,112.53,0.000309533,0.0569912,21.011,0.720647,-0.254675,0.0,0.0
5984,1495.75,46.0161,47.8783,130.077,109.381,112.624,0.000213176,0.0569017,21.0118,0.720647,-0.26005,0.0,0.0
6001,1500,45.8795,48.613,132.451,109.381,113.406,0.000359513,0.0567657,21.015,0.720647,-0.321665,0.0,0.0
6018,1504.25,46.1949,47.8717,128.403,109.397,112.66,0.000318999,0.0567493,21.0141,0.720647,-0.261646,0.0,0.0
6035,1508.5,46.3425,47.9806,129.829,109.422,113.4,0.00037675,0.0568163,21.0143,0.730656,-0.317904,0.0,0.0
6052,1512.75,45.952,48.1255,133.255,109.445,112.607,0.000382419,0.0566928,21.0147,0.750674,-0.253598,0.0,0.0
6069,1517,45.8817,48.2198,131.522,109.435,113.277,0.000441454,0.0564743,21.0145,0.700629,-0.307092,0.0,0.0
6086,1521.25,46.1272,47.8575,129.443,109.455,112.435,0.000738997,0.0567648,21.0129,0.700629,-0.239102,0.0,0.0
6103,1525.5,46.1489,48.2406,129.243,109.468,113.293,0.000869344,0.0568066,21.0125,0.710638,-0.305756,0.0,0.0
6120,1529.75,46.1879,48.3877,133.531,109.475,112.877,0.0006453,0.0568634,21.0129,0.710638,-0.272451,0.0,0.0
6137,1534,46.171,47.9545,129.014,109.48,113.242,0.000440779,0.0568706,21.0132,0.720647,-0.300758,0.0,0.0
6154,1538.25,46.4623,47.5862,133.705,109.484,112.201,0.000358285,0.0571293,21.0131,0.750674,-0.218296,0.0,0.0
6171,1542.5,46.4579,48.2027,131.729,109.487,112.825,0.000254405,0.0571753,21.0123,0.760683,-0.267321,0.0,0.0
6188,1546.75,45.8722,48.0488,127.482,109.495,113.603,0.000503675,0.0572882,21.0141,0.720647,-0.327908,0.0,0.0
6205,1551,46.6344,47.7996,130.752,109.507,111.95,0.000621933,0.0569797,21.0141,0.720647,-0.196393,0.0,0.0
6222,1555.25,46.4223,48.3419,132.846,109.502,112.33,0.000365865,0.0566841,21.0143,0.740665,-0.226972,0.0,0.0
6239,1559.5,46.0121,47.9145,129.323,109.5,112.712,0.000395628,0.0565283,21.0147,0.720647,-0.257355,0.0,0.0
6256,1563.75,46.5893,48.0316,131.459,109.504,112.274,0.000280827,0.0565536,21.0141,0.710638,-0.22233,0.0,0.0
6273,1568,46.1632,48.015,135.625,109.502,112.834,0.000152535,0.0566441,21.0145,0.720647,-0.266837,0.0,0.0
6290,1572.25,45.8803,48.1251,131.506,109.504,113.121,0.000400505,0.0565898,21.0146,0.720647,-0.289307,0.0,0.0
6307,1576.5,45.9109,48.2207,130.836,109.502,112.884,0.000312062,0.056839,21.0146,0.730656,-0.270849,0.0,0.0
6324,1580.75,46.1922,47.6364,132.941,109.524,113.072,0.000392881,0.056848,21.0146,0.710638,-0.283805,0.0,0.0
6341,1585,45.9406,47.5718,128.943,109.513,112.373,0.00056542,0.056817,21.0153,0.730656,-0.229516,0.0,0.0
6358,1589.25,46.1022,48.0192,130.779,109.509,112.52,0.000474955,0.0567665,21.0148,0.710638,-0.241493,0.0,0.0
6375,1593.5,46.3474,48.3099,129.311,109.532,113.187,0.000577468,0.0567264,21.0143,0.720647,-0.292143,0.0,0.0
6392,1597.75,46.4143,47.8568,131.168,109.511,112.117,0.000570286,0.0567625,21.0138,0.710638,-0.209336,0.0,0.0
6409,1602,46.2178,47.6131,130.849,109.512,112.254,0.000340034,0.0565609,21.0138,0.730656,-0.22012,0.0,0.0
6426,1606.25,46.0016,47.9424,133.057,109.515,112.447,0.000272469,0.0565493,21.0138,0.720647,-0.235243,0.0,0.0
6443,1610.5,46.295,47.7865,132.139,109.504,112.298,0.000371233,0.0567385,21.0144,0.720647,-0.224284,0.0,0.0
6460,1614.75,45.9379,47.6773,131.283,109.511,112.14,0.000358791,0.0568446,21.014,0.720647,-0.21114,0.0,0.0
6477,1619,45.8716,47.8942,128.491,109.513,112.805,0.00041682,0.056906,21.0131,0.730656,-0.26372,0.0,0.0
6494,1623.25,45.5422,48.5594,127.905,109.506,113.337,0.000467454,0.0569573,21.013,0.720647,-0.306127,0.0,0.0
6511,1627.5,46.3385,47.6418,129.35,109.495,112.726,0.000439177,0.0569808,21.013,0.730656,-0.25888,0.0,0.0
6528,1631.75,46.4548,47.8499,132.307,109.502,112.847,0.00047776,0.0571842,21.013,0.740665,-0.267853,0.0,0.0
6545,1636,45.9005,48.0415,125.486,109.51,112.64,0.000653229,0.0570518,21.0118,0.730656,-0.250909,0.0,0.0
6562,1640.25,46.3264,47.8698,132.715,109.499,112.462,0.000716738,0.0571941,21.0134,0.750674,-0.23763,0.0,0.0
6579,1644.5,45.7823,47.8583,130.808,109.493,112.579,0.000652507,0.0571457,21.0138,0.710638,-0.247427,0.0,0.0
6596,1648.75,45.7702,47.6313,129.546,109.491,112.551,0.000483223,0.0571759,21.0115,0.740665,-0.245348,0.0,0.0
6613,1653,46.1633,47.6831,133.477,109.48,113.279,0.000600609,0.0571878,21.0125,0.750674,-0.303666,0.0,0.0
6630,1657.25,46.0693,47.9287,127.91,109.464,113.368,0.000454421,0.0573607,21.0129,0.730656,-0.311975,0.0,0.0
6647,1661.5,45.801,48.1511,131.292,109.469,112.227,0.000345154,0.0572297,21.0129,0.750674,-0.221512,0.0,0.0
6664,1665.75,46.0511,47.8023,127.297,109.431,113.34,0.000224173,0.0570409,21.0129,0.750674,-0.312416,0.0,0.0
6681,1670,46.0015,48.1306,128.279,109.415,112.837,0.000278885,0.0569251,21.0123,0.760683,-0.274171,0.0,0.0
6698,1674.25,46.1563,47.7428,129.392,109.376,112.469,0.000561124,0.0568687,21.0121,0.740665,-0.248179,0.0,0.0
6715,1678.5,45.9758,48.0604,129.03,109.341,112.902,0.000268965,0.056793,21.0125,0.750674,-0.285263,0.0,0.0
6732,1682.75,45.8752,47.6547,131.303,109.293,112.391,0.000415478,0.0566926,21.0116,0.750674,-0.248822,0.0,0.0
6749,1687,45.5228,48.1146,133.426,109.253,112.876,0.00028876,0.0568252,21.0112,0.740665,-0.290379,0.0,0.0
6766,1691.25,46.0409,47.8466,128.404,109.229,112.763,0.000185979,0.0570344,21.0105,0.770692,-0.283473,0.0,0.0
6783,1695.5,45.8659,47.5373,126.196,109.181,112.304,0.000183587,0.0570009,21.0104,0.740665,-0.251055,0.0,0.0
6800,1699.75,45.3558,47.8945,130.02,109.156,112.047,0.000521905,0.0570081,21.0104,0.760683,-0.232764,0.0,0.0
6817,1704,45.6663,47.7233,131.208,109.126,112.53,0.000611667,0.0569031,21.0113,0.740665,-0.273461,0.0,0.0
6834,1708.25,45.8883,47.7108,130.453,109.084,111.582,0.000539304,0.0569643,21.0127,0.740665,-0.201553,0.0,0.0
6851,1712.5,45.9551,47.8176,127.186,109.062,112.3,0.000491633,0.0569442,21.0129,0.750674,-0.260452,0.0,0.0
6868,1716.75,46.1033,47.9211,128.871,109.01,112.24,0.000634715,0.0571676,21.0129,0.750674,-0.25992,0.0,0.0
6885,1721,46.0978,47.957,127.929,108.977,112.476,0.000640975,0.0570192,21.0129,0.750674,-0.281323,0.0,0.0
6902,1725.25,46.0042,47.7985,128.668,108.948,111.904,0.000736543,0.0570495,21.0129,0.750674,-0.23836,0.0,0.0
6919,1729.5,45.6999,47.9096,130.084,108.919,112.727,0.000327732,0.0571824,21.013,0.760683,-0.305946,0.0,0.0
6936,1733.75,46.0125,47.6912,128.855,108.905,112.438,0.000139413,0.0570393,21.0125,0.740665,-0.284179,0.0,0.0
6953,1738,46.2169,47.8864,128.762,108.89,111.712,0.000279734,0.0571627,21.0116,0.770692,-0.227748,0.0,0.0
6970,1742.25,45.6785,48.1208,127.39,108.89,111.935,0.000520577,0.0569768,21.0122,0.740665,-0.245517,0.0,0.0
6987,1746.5,46.147,47.7365,130.987,108.904,111.54,0.000237105,0.0569437,21.0113,0.760683,-0.21285,0.0,0.0
7004,1750.75,45.7037,48.0867,129.692,108.901,113.408,0.000328456,0.0570681,21.0117,0.740665,-0.361002,0.0,0.0
7021,1755,45.9711,47.4883,130.617,108.89,111.231,0.000404219,0.0569392,21.0127,0.800719,-0.189372,0.0,0.0
7038,1759.25,45.9642,47.7734,131.46,108.896,111.754,0.000401517,0.0566726,21.0129,0.740665,-0.230659,0.0,0.0
7055,1763.5,46.1966,47.9329,129.04,108.871,111.82,0.000227091,0.0568718,21.0135,0.760683,-0.237907,0.0,0.0
7072,1767.75,45.7435,47.5856,128.895,108.847,111.867,0.000211652,0.0568176,21.0138,0.720647,-0.243627,0.0,0.0
7089,1772,46.3751,48.1675,127.371,108.841,111.968,0.000504245,0.0567652,21.0134,0.780701,-0.252148,0.0,0.0
7106,1776.25,46.1802,47.4526,129.516,108.829,112.078,0.000580497,0.0568493,21.0125,0.810728,-0.261869,0.0,0.0
7123,1780.5,45.7614,47.6168,129.005,108.804,112.429,0.000295819,0.0568951,21.0123,0.820737,-0.291693,0.0,0.0
7140,1784.75,46.4485,48.0526,127.881,108.88,112.117,0.000392273,0.0568421,21.0123,0.750674,-0.260747,0.0,0.0
7157,1789,46.1715,48.0027,126.878,108.93,112.469,0.000684141,0.0572901,21.0123,0.710638,-0.284589,0.0,0.0
7174,1793.25,45.9578,47.9329,129.788,108.96,113.233,0.00076012,0.0572225,21.0123,0.740665,-0.342479,0.0,0.0
7191,1797.5,45.7986,47.9001,128.515,109.009,112.458,0.000531478,0.0572839,21.0128,0.720647,-0.277285,0.0,0.0
7208,1801.75,46.2896,47.5205,129.987,109.063,112.98,0.000350284,0.05716,21.0129,0.740665,-0.314083,0.0,0.0
7225,1806,45.456,47.2115,127.839,109.116,112.758,0.000264409,0.0569335,21.0129,0.740665,-0.292353,0.0,0.0
7242,1810.25,45.0458,47.0953,130.145,109.193,111.506,0.000370228,0.0571395,21.0129,0.740665,-0.186565,0.0,0.0
7259,1814.5,45.13,47.0816,133.518,109.29,112.655,0.00043095,0.0574106,21.0116,0.750674,-0.270011,0.0,0.0
7276,1818.75,45.445,47.0924,129.88,109.337,113.112,0.000537512,0.0573885,21.0113,0.730656,-0.302119,0.0,0.0
7293,1823,45.2782,46.9169,132.342,109.387,112.434,0.000280071,0.057262,21.0121,0.740665,-0.244507,0.0,0.0
7310,1827.25,45.3839,47.0017,128.661,109.458,112.539,0.000304071,0.0572439,21.0129,0.770692,-0.24713,0.0,0.0
7327,1831.5,45.0439,47.2431,130.986,109.503,112.786,0.000369318,0.0572623,21.0131,0.760683,-0.262988,0.0,0.0
7344,1835.75,45.2121,47.2792,128.812,109.565,112.774,-4.80634e-06,0.0572777,21.0141,0.760683,-0.256964,0.0,0.0
7361,1840,45.0947,47.0523,128.795,109.609,113.41,0.000170321,0.0571976,21.0142,0.740665,-0.303487,0.0,0.0
7378,1844.25,45.2229,47.0617,131.863,109.652,112.841,0.000220877,0.0570838,21.0117,0.780701,-0.255215,0.0,0.0
7395,1848.5,45.0328,46.9223,130.694,109.668,113.228,0.000155821,0.0568766,21.0119,0.760683,-0.284341,0.0,0.0
7412,1852.75,45.1016,46.447,136.994,109.693,112.751,0.000533472,0.0567669,21.0125,0.760683,-0.244718,0.0,0.0
7429,1857,45.376,47.059,129.18,109.726,113.226,0.000713294,0.0565975,21.0124,0.770692,-0.279464,0.0,0.0
7446,1861.25,44.7623,46.9084,127.028,109.713,113.796,0.000432131,0.0571129,21.0129,0.750674,-0.325269,0.0,0.0
7463,1865.5,44.8314,47.2237,130.326,109.712,113.317,0.000305881,0.0572854,21.0124,0.730656,-0.28775,0.0,0.0
7480,1869.75,45.124,47.092,128.034,109.713,112.422,0.000512848,0.0573214,21.0113,0.740665,-0.217178,0.0,0.0
7497,1874,45.2009,47.4236,129.561,109.686,113.215,0.000449041,0.0571322,21.0116,0.750674,-0.281864,0.0,0.0
7514,1878.25,44.5782,46.8612,131.048,109.663,112.794,0.000417311,0.0571601,21.011,0.760683,-0.250541,0.0,0.0
7531,1882.5,45.324,47.419,127.654,109.643,112.837,0.00056444,0.057138,21.0089,0.750674,-0.25558,0.0,0.0
7548,1886.75,44.784,47.1363,128.962,109.615,112.904,0.000535573,0.0570046,21.0095,0.750674,-0.263128,0.0,0.0
7565,1891,44.8243,46.6296,130.197,109.546,112.887,0.000579937,0.0568833,21.0134,0.770692,-0.267465,0.0,0.0
7582,1895.25,44.9922,47.2834,127.642,109.509,112.953,0.000467369,0.056963,21.0128,0.730656,-0.275649,0.0,0.0
7599,1899.5,44.6931,46.6334,128.171,109.452,112.963,0.000417727,0.0568816,21.014,0.750674,-0.281091,0.0,0.0
7616,1903.75,45.5328,47.1119,131.164,109.36,112.582,0.000474138,0.0567933,21.0144,0.730656,-0.258489,0.0,0.0
7633,1908,45.0345,47.1404,130.833,109.309,113.049,0.000184451,0.0566332,21.0145,0.750674,-0.299482,0.0,0.0
7650,1912.25,45.1921,47.157,131.438,109.265,112.542,,0.0567891,,0.730656,-0.263081,0.0,0.0
7667,1916.5,44.8237,46.7328,131.427,109.218,112.45,,,,0.750674,-0.259619,0.0,0.0
7684,1920.75,44.9406,47.0021,129.565,109.235,113.251,,,,0.760683,-0.321365,0.0,0.0
7686,1921.25,45.1735,47.1221,130.514,109.244,112.701,,,,0.750674,-0.277338,0.0,0.0