File: 01_Data/Fiberglass_Insulation_R13_Paper_Faced/Cone/R13_Fiberglass_Insulation_Cone_HF25Scan_220429_R2.csv
Names,Time,Stack TC,Smoke TC,Exh Press,Smoke Comp,Smoke Meas,CO Meter,CO2 Meter,O2 Meter,Sample Mass,Ext Coeff,Start Test,Flame Verif
Chan Gain,,500,500,1,1,1,1,1,1,1,1,1.0,1.0
Offset,,0,0,0.134537,0,0,0,0,0,0,0,0.0,0.0
Gain,,1,1,25.011,14.8585,16.6522,1,1,1,1.00087,1.0138,1.0,1.0
Units,sec,C,C,Pa,%,%,%,%,%,g,/m,,
Baseline,,20.7685,21.3616,140.303,111.891,112.776,0.000309397,0.0521417,21.0125,-833.974,-0.0700326,,
7,1.5,19.6998,20.1446,144.793,111.516,112.042,0.000294161,0.0592719,21.0051,-330.767,-0.0418967,0.0,0.0
14,3.25,19.1836,19.7714,141.738,111.521,112.352,0.000364864,0.060882,21.004,-330.817,-0.0659934,0.0,0.0
21,5,19.4559,20.3563,139.927,111.506,112.571,0.00048414,0.0629147,21.0023,-330.847,-0.0845109,0.0,0.0
28,6.75,19.3145,20.0024,137.898,111.521,112.474,0.000543625,0.0634532,21.0023,-330.877,-0.075606,0.0,0.0
35,8.5,19.8024,20.1137,140.528,111.535,112.42,0.000583833,0.0628051,21.0026,-330.887,-0.0703376,0.0,0.0
42,10.25,19.7984,20.2053,143.841,111.566,112.573,0.000625157,0.0612638,21.0046,-330.907,-0.0798592,0.0,0.0
49,12,19.8862,19.8558,139.435,111.58,112.576,0.000582734,0.0595828,21.0061,-330.937,-0.0790195,0.0,0.0
56,13.75,19.7048,20.0631,139.161,111.608,112.456,0.000511348,0.0581867,21.0078,-330.957,-0.0673718,0.0,0.0
63,15.5,19.7688,20.1498,142.407,111.616,112.226,0.000483638,0.056713,21.0088,-330.957,-0.048422,0.0,0.0
70,17.25,19.9612,20.7216,136.863,111.642,112.719,0.000533777,0.0555687,21.0104,-330.987,-0.0853034,0.0,0.0
77,19,19.7419,20.601,142.049,111.681,112.642,0.000594517,0.0547341,21.0115,-330.987,-0.0761807,0.0,0.0
84,20.75,20.2405,20.4271,141.431,111.696,112.538,0.000645103,0.0541392,21.013,-330.997,-0.0668329,0.0,0.0
91,22.5,19.866,20.3472,139.169,111.72,112.774,0.000737501,0.0536291,21.0138,-330.997,-0.0835022,0.0,0.0
98,24.25,19.9839,20.6122,142.407,111.75,112.595,0.000778616,0.0532918,21.0141,-331.007,-0.0669627,0.0,0.0
105,26,20.1104,20.6416,140.415,111.768,112.682,0.000611713,0.0530257,21.0143,-331.017,-0.0724562,0.0,0.0
112,27.75,20.2473,20.5554,143.434,111.797,112.842,0.000459407,0.0529125,21.0144,-331.027,-0.0827687,0.0,0.0
119,29.5,20.4455,20.9265,141.098,111.808,112.729,0.000385457,0.0529311,21.0144,-331.027,-0.0729671,0.0,0.0
126,31.25,20.0728,20.7299,140.167,111.829,112.722,0.000379141,0.0529012,21.0144,-331.037,-0.0706747,0.0,0.0
133,33,20.1222,21.0599,138.871,111.843,113.006,0.000387588,0.052882,21.0132,-331.037,-0.091941,0.0,0.0
140,34.75,20.4434,20.5497,138.121,111.864,112.983,0.000370156,0.052743,21.0127,-331.047,-0.0885225,0.0,0.0
147,36.5,20.3079,20.6963,139.177,111.871,112.945,0.000345339,0.0527425,21.0124,-331.057,-0.0849812,0.0,0.0
154,38.25,20.6831,21.1503,140.805,111.898,112.848,0.000338234,0.0526268,21.0122,-331.067,-0.0752088,0.0,0.0
161,40,20.6185,20.7459,143.69,111.913,112.783,0.000275425,0.0525418,21.0125,-331.067,-0.0688562,0.0,0.0
168,41.75,20.1201,21.0746,140.147,111.93,112.83,0.000117312,0.0525814,21.0142,-331.067,-0.071209,0.0,0.0
175,43.5,20.4422,21.0612,137.433,111.934,113.013,1.22596e-05,0.05253,21.015,-331.057,-0.085328,0.0,0.0
182,45.25,20.6112,21.4152,138.589,111.946,113.041,7.62301e-05,0.0524701,21.0154,-331.067,-0.0865943,0.0,0.0
189,47,20.4719,21.2699,139.342,111.954,112.879,0.000257287,0.0524524,21.0156,-331.087,-0.0731077,0.0,0.0
196,48.75,20.5457,21.2815,141.867,111.97,112.794,0.000407498,0.0523351,21.0157,-331.087,-0.0652341,0.0,0.0
203,50.5,20.2972,21.1513,140.905,111.967,113.082,0.000434819,0.0521863,21.0157,-331.077,-0.0881355,0.0,0.0
210,52.25,20.7231,21.345,142.05,111.945,112.92,0.000363118,0.0522099,21.0157,-331.087,-0.0771463,0.0,0.0
217,54,20.7562,21.0869,138.503,111.927,112.93,0.00027968,0.0523889,21.0152,-331.097,-0.079312,0.0,0.0
224,55.75,20.579,21.204,138.422,111.937,112.77,0.000283366,0.0523646,21.016,-331.097,-0.0659048,0.0,0.0
231,57.5,20.8265,20.5808,142.995,111.925,113.088,0.000379596,0.0523633,21.0163,-331.097,-0.0919694,0.0,0.0
238,59.25,20.459,21.266,146.176,111.915,112.828,0.000522438,0.0524556,21.0164,-331.107,-0.0722008,0.0,0.0
245,61,20.8667,20.9396,138.161,111.914,112.927,0.00068071,0.0523997,21.0165,-331.097,-0.0801929,0.0,0.0
252,62.75,20.6785,21.1306,140.106,111.906,112.9,0.00073451,0.0522643,21.0166,-331.107,-0.0786847,0.0,0.0
259,64.5,20.6926,21.6405,138.512,111.922,112.727,0.000636038,0.0522335,21.0157,-331.097,-0.0636862,0.0,0.0
266,66.25,20.8418,21.1072,136.59,111.901,112.819,0.000497984,0.0522927,21.0146,-331.107,-0.0726732,0.0,0.0
273,68,20.8005,21.3814,141.934,111.898,112.867,0.000416916,0.0521637,21.0141,-331.107,-0.0766902,0.0,0.0
280,69.75,20.894,21.4081,139.983,111.891,112.795,0.000372047,0.0521202,21.0132,-331.107,-0.0715435,0.0,0.0
287,71.5,20.8158,21.5665,139.322,111.898,112.795,0.00033924,0.0520668,21.0122,-331.117,-0.0710071,0.0,0.0
294,73.25,21.0782,21.3163,142.037,111.884,112.949,0.000308001,0.0519664,21.0117,-331.117,-0.0842519,0.0,0.0
301,75,21.0037,21.166,139.743,111.899,112.754,0.000349855,0.0519958,21.0114,-331.117,-0.067649,0.0,0.0
308,76.75,20.6145,21.6777,142.669,111.912,112.731,0.000363893,0.052069,21.0108,-331.127,-0.0648357,0.0,0.0
315,78.5,21.3383,21.3232,137.719,111.906,113.176,0.000273613,0.0520473,21.0106,-331.127,-0.100394,0.0,0.0
322,80.25,21.1315,21.6926,139.045,111.921,113.203,0.000147216,0.0520882,21.0105,-331.127,-0.101284,0.0,0.0
329,82,20.6843,21.7989,140.341,111.935,112.92,8.04098e-05,0.0519813,21.0104,-331.127,-0.0778997,0.0,0.0
336,83.75,20.9137,21.6734,139.887,111.934,112.922,0.000103787,0.0519091,21.0104,-331.127,-0.0781719,0.0,0.0
343,85.5,21.0387,21.43,141.111,111.937,112.982,0.00025192,0.0519629,21.0104,-331.117,-0.0826365,0.0,0.0
350,87.25,21.1732,21.4158,140.568,111.953,112.879,0.000459178,0.0520012,21.0112,-331.127,-0.073252,0.0,0.0
357,89,21.0262,21.9981,138.175,111.969,112.627,0.000567353,0.0519336,21.0124,-331.147,-0.0520389,0.0,0.0
364,90.75,21.4349,21.7017,139.88,111.991,113.214,0.00053243,0.0518621,21.0129,-331.147,-0.096576,0.0,0.0
371,92.5,21.0514,21.1697,140.539,111.995,112.903,0.000445186,0.051853,21.0144,-331.147,-0.0718283,0.0,0.0
378,94.25,21.0057,21.626,140.294,112.02,113.106,0.000390532,0.0518507,21.0151,-331.147,-0.0857653,0.0,0.0
385,96,21.2027,21.4226,141.04,112.041,113.59,0.000433667,0.0517347,21.0154,-331.147,-0.122106,0.0,0.0
392,97.75,21.4994,21.7329,139.009,112.054,113.203,0.000530847,0.0516553,21.0156,-331.137,-0.0907698,0.0,0.0
399,99.5,20.9305,21.5448,136.83,112.071,113.067,0.000559237,0.0517138,21.0157,-331.157,-0.078697,0.0,0.0
406,101.25,21.0854,21.7632,137.324,112.078,112.907,0.000469371,0.0517889,21.0157,-331.157,-0.0654824,0.0,0.0
413,103,21.3728,22.0656,140.039,112.11,113.251,0.000362455,0.0517747,21.0149,-331.157,-0.0900608,0.0,0.0
420,104.75,21.0254,21.635,138.362,112.118,112.91,0.000285892,0.051716,21.0141,-331.157,-0.0625924,0.0,0.0
427,106.5,21.3222,21.921,138.151,112.131,113.462,0.000200694,0.0517136,21.0138,-331.147,-0.104955,0.0,0.0
434,108.25,21.54,21.8568,139.613,112.136,113.175,0.000129045,0.0517583,21.0136,-331.147,-0.0820266,0.0,0.0
441,110,21.5527,21.6148,138.508,112.158,113.703,0.000119132,0.0517051,21.0138,-331.157,-0.121694,0.0,0.0
448,111.75,21.0867,22.3268,141.887,112.182,113.146,0.000168234,0.0516788,21.0145,-331.157,-0.0761551,0.0,0.0
455,113.5,21.4856,21.9782,140.657,112.195,113.376,0.000192041,0.0517657,21.0152,-331.167,-0.0931123,0.0,0.0
462,115.25,21.0992,21.724,143.558,112.198,113.203,0.00022341,0.0516648,21.0161,-331.157,-0.0793329,0.0,0.0
469,117,20.946,22.0256,140.204,112.211,113.402,0.00028353,0.05164,21.0156,-331.157,-0.0938832,0.0,0.0
476,118.75,21.3657,22.0858,138.997,112.221,113.117,0.000369651,0.0516393,21.0157,-331.157,-0.0707116,0.0,0.0
483,120.5,21.0226,21.5534,138.524,112.239,113.304,0.00037748,0.0517626,21.0158,-331.167,-0.0840046,0.0,0.0
490,122.25,21.06,21.8818,137.05,112.244,113.57,0.000270875,0.0517999,21.0159,-331.167,-0.104445,0.0,0.0
497,124,21.3691,22.0376,141.912,112.257,113.314,0.000149014,0.0518046,21.0159,-331.157,-0.0832855,0.0,0.0
504,125.75,20.636,22.1721,141.916,112.272,113.075,4.38266e-05,0.0518043,21.0159,-331.157,-0.0633707,0.0,0.0
511,127.5,21.5265,21.8918,141.289,112.272,113.265,-1.17001e-05,0.0517781,21.0164,-331.157,-0.0783104,0.0,0.0
518,129.25,21.3066,22.0206,138.685,112.287,113.238,-4.03359e-05,0.0518324,21.0174,-331.157,-0.07501,0.0,0.0
525,131,21.4938,22.0683,142.177,112.281,113.385,-3.5188e-06,0.0518143,21.0178,-331.177,-0.0870392,0.0,0.0
532,132.75,21.4527,21.9696,138.533,112.295,113.099,5.91996e-05,0.0518492,21.0181,-331.167,-0.0634577,0.0,0.0
539,134.5,21.1204,21.8604,140.116,112.3,113.14,9.21726e-05,0.0518887,21.0162,-331.157,-0.0662225,0.0,0.0
546,136.25,20.9475,22.0558,140.956,112.314,113.076,0.000122028,0.0518227,21.0153,-331.167,-0.0600759,0.0,0.0
553,138,21.2678,21.8971,141.278,112.317,113.171,0.000149721,0.0519052,21.0148,-331.177,-0.0673707,0.0,0.0
560,139.75,21.023,21.5083,137.71,112.326,113.259,0.000159369,0.0519518,21.0146,-331.157,-0.0735182,0.0,0.0
567,141.5,21.8599,22.0281,141.824,112.353,113.71,0.000167191,0.0518692,21.0145,-331.167,-0.106764,0.0,0.0
574,143.25,21.4804,21.538,137.378,112.358,113.488,0.000155482,0.0519399,21.0145,-331.157,-0.0890188,0.0,0.0
581,145,21.2327,22.0514,140.584,112.388,113.678,8.41182e-05,0.0519141,21.0144,-331.177,-0.10146,0.0,0.0
588,146.75,21.1367,21.6568,141.518,112.374,113.709,-4.07859e-06,0.0519388,21.0144,-331.177,-0.105037,0.0,0.0
595,148.5,21.4787,21.8911,142.387,112.379,113.811,-2.84875e-05,0.0518561,21.0144,-331.177,-0.112584,0.0,0.0
602,150.25,21.1201,22.1738,143.043,112.387,113.381,3.71339e-06,0.0517634,21.0141,-331.167,-0.0783564,0.0,0.0
609,152,20.8817,22.0584,141.137,112.384,113.402,7.47202e-05,0.0516504,21.0138,-331.167,-0.0801303,0.0,0.0
616,153.75,21.5415,21.8129,139.271,112.399,113.419,0.000213787,0.0516328,21.0137,-331.167,-0.080301,0.0,0.0
623,155.5,21.5183,22.1367,139.813,112.407,113.413,0.000309493,0.05167,21.0136,-331.177,-0.0792527,0.0,0.0
630,157.25,21.3335,22.3778,135.942,112.425,113.924,0.0003291,0.0516003,21.0143,-331.187,-0.117851,0.0,0.0
637,159,21.237,21.8799,141.956,112.434,113.466,0.000340028,0.0515766,21.0151,-331.177,-0.0812434,0.0,0.0
644,160.75,21.2538,21.9648,138.751,112.435,113.713,0.000358701,0.0515788,21.0154,-331.187,-0.100508,0.0,0.0
651,162.5,21.4143,22.3117,134.825,112.426,113.427,0.000344725,0.051712,21.0156,-331.177,-0.0788259,0.0,0.0
658,164.25,21.6857,22.0297,138.087,112.441,113.675,0.000342969,0.0516687,21.0157,-331.177,-0.0970598,0.0,0.0
665,166,21.3831,21.9304,136.901,112.441,113.721,0.000350165,0.0516442,21.0157,-331.187,-0.100677,0.0,0.0
672,167.75,21.1574,22.0306,136.869,112.449,113.386,0.000329203,0.0515214,21.0157,-331.177,-0.073841,0.0,0.0
679,169.5,21.5355,22.2085,141.833,112.459,113.757,0.000266941,0.0515653,21.0157,-331.177,-0.102064,0.0,0.0
686,171.25,21.2474,22.2919,138.532,112.472,113.538,0.000179005,0.0515845,21.0157,-331.177,-0.0838816,0.0,0.0
693,173,21.0073,22.1458,139.18,112.483,113.369,0.00020121,0.0516437,21.0149,-331.177,-0.0697959,0.0,0.0
700,174.75,21.5584,22.3754,138.704,112.486,113.349,0.000245484,0.0516054,21.0141,-331.187,-0.0679508,0.0,0.0
707,176.5,21.5556,22.0119,136.501,112.49,113.669,0.000218682,0.0515797,21.0138,-331.157,-0.0926753,0.0,0.0
714,178.25,21.3814,22.1106,138.333,112.51,114.163,0.000100137,0.0516394,21.0136,-331.177,-0.129699,0.0,0.0
721,180,21.6307,22.6036,136.707,112.497,113.502,1.30109e-05,0.0515222,21.0141,-331.187,-0.0790831,0.0,0.0
728,181.75,21.3336,21.7521,136.709,112.515,114.035,2.49293e-05,0.0516291,21.015,-331.177,-0.11936,0.0,0.0
735,183.5,21.4638,21.9686,140.208,112.522,113.346,3.78912e-05,0.051739,21.0154,-331.187,-0.0648443,0.0,0.0
742,185.25,21.4305,21.9762,140.116,112.518,113.766,1.51804e-05,0.0516959,21.0156,-331.177,-0.0981547,0.0,0.0
749,187,21.3168,21.8596,142.937,112.523,113.591,-1.02422e-05,0.0516186,21.0157,-331.207,-0.0840095,0.0,0.0
756,188.75,21.3355,22.1995,140.879,112.535,113.569,-4.88503e-05,0.0516119,21.0157,-331.197,-0.081367,0.0,0.0
763,190.5,21.1755,22.3457,138.578,112.536,113.863,-4.64515e-05,0.0515211,21.0157,-331.207,-0.104269,0.0,0.0
770,192.25,21.287,21.8101,141.752,112.545,113.667,2.58807e-05,0.0515023,21.0157,-331.217,-0.0882158,0.0,0.0
777,194,21.1623,22.0826,136.654,112.529,113.666,0.00011967,0.0514491,21.0157,-331.217,-0.089354,0.0,0.0
784,195.75,21.7599,21.9888,140.256,112.54,113.492,0.000183022,0.0514193,21.0157,-331.207,-0.0749619,0.0,0.0
791,197.5,21.3751,22.13,139.516,112.53,113.599,0.0001796,0.051429,21.0157,-331.207,-0.084033,0.0,0.0
798,199.25,20.8451,21.8974,140.248,112.545,113.718,0.000135851,0.0514713,21.0157,-331.207,-0.0922302,0.0,0.0
805,201,21.5114,22.2875,139.959,112.532,113.92,0.000124845,0.0515508,21.0157,-331.207,-0.109072,0.0,0.0
812,202.75,21.7054,22.0889,139.044,112.551,113.698,0.000177819,0.051605,21.0157,-331.197,-0.0901786,0.0,0.0
819,204.5,21.4012,22.0364,137.6,112.544,113.801,0.000224316,0.0515632,21.0151,-331.197,-0.0987807,0.0,0.0
826,206.25,21.062,22.2703,138.872,112.534,113.553,0.000213414,0.0515283,21.0149,-331.207,-0.0802047,0.0,0.0
833,208,21.1315,22.1352,139.518,112.524,113.762,0.000169247,0.0514812,21.0141,-331.207,-0.0973315,0.0,0.0
840,209.75,21.3689,22.3724,136.931,112.542,113.792,9.96773e-05,0.0515062,21.015,-331.207,-0.0982056,0.0,0.0
847,211.5,21.5816,21.9333,141.161,112.537,113.785,2.00764e-05,0.0515092,21.0154,-331.207,-0.098084,0.0,0.0
854,213.25,21.2309,21.7085,139.867,112.523,113.575,-5.64716e-05,0.0514968,21.0156,-331.207,-0.0828115,0.0,0.0
861,215,21.6975,22.5734,139.743,112.514,113.829,-0.000125768,0.0515558,21.0157,-331.217,-0.10333,0.0,0.0
868,216.75,21.3726,22.3154,141.327,112.494,113.833,-0.000186124,0.0515305,21.0157,-331.197,-0.105296,0.0,0.0
875,218.5,21.1627,22.5618,141.14,112.526,113.562,-0.000249766,0.0515298,21.0157,-331.207,-0.0814906,0.0,0.0
882,220.25,21.6127,22.6114,138.384,112.502,113.585,-0.000311294,0.0515573,21.0149,-331.207,-0.0852558,0.0,0.0
889,222,21.84,22.3749,136.231,112.508,113.766,-0.00031248,0.0516029,21.0141,-331.207,-0.0988676,0.0,0.0
896,223.75,21.4163,22.1742,137.24,112.479,113.448,-0.000260334,0.0515339,21.0138,-331.207,-0.0763352,0.0,0.0
903,225.5,21.6359,22.0133,139.572,112.481,113.978,-0.000163459,0.051471,21.0144,-331.207,-0.117572,0.0,0.0
910,227.25,21.544,22.1655,140.998,112.481,113.402,-8.36902e-05,0.0514241,21.0151,-331.207,-0.0724942,0.0,0.0
917,229,21.1077,22.3948,136.51,112.472,113.52,-6.38812e-05,0.051364,21.0154,-331.207,-0.0824915,0.0,0.0
924,230.75,21.4797,22.6209,139.865,112.472,113.572,-4.65232e-05,0.0513286,21.0156,-331.207,-0.0865119,0.0,0.0
931,232.5,21.0881,22.16,138.907,112.459,113.489,3.27587e-05,0.0515173,21.0157,-331.207,-0.0811033,0.0,0.0
938,234.25,21.38,22.638,142.37,112.462,113.577,0.000134028,0.051577,21.0157,-331.217,-0.0877345,0.0,0.0
945,236,21.2894,22.6126,140.56,112.449,113.458,0.000158252,0.051546,21.0157,-331.207,-0.0794628,0.0,0.0
952,237.75,21.7614,22.3737,136.158,112.435,113.445,9.84874e-05,0.0514681,21.0148,-331.207,-0.0794992,0.0,0.0
959,239.5,21.3482,21.9698,137.475,112.423,113.896,-1.03467e-05,0.0515021,21.0141,-331.197,-0.115772,0.0,0.0
966,241.25,21.4161,22.4468,142.399,112.426,113.723,-3.49071e-05,0.0514814,21.0137,-331.207,-0.101945,0.0,0.0
973,243,21.4806,22.4779,140.89,112.404,113.692,-5.04396e-05,0.0515204,21.0142,-331.207,-0.101314,0.0,0.0
980,244.75,21.681,22.3039,136.503,112.405,113.604,-8.14487e-05,0.0514263,21.015,-331.207,-0.0943621,0.0,0.0
987,246.5,21.6761,22.2536,140.798,112.386,113.112,2.24595e-05,0.0513765,21.0154,-331.217,-0.0572773,0.0,0.0
994,248.25,21.5935,22.5649,147.825,112.367,113.728,0.000155935,0.0514047,21.0156,-331.227,-0.107042,0.0,0.0
1001,250,21.3473,22.4235,138.205,112.36,113.467,0.000197462,0.0513647,21.0166,-331.207,-0.0871671,0.0,0.0
1008,251.75,21.2693,22.4501,140.816,112.351,113.428,0.000201911,0.0513026,21.0172,-331.217,-0.0848218,0.0,0.0
1015,253.5,21.9735,22.2508,138.019,112.333,113.802,0.000120987,0.0511447,21.0175,-331.207,-0.115573,0.0,0.0
1022,255.25,21.4993,22.0571,139.887,112.326,113.266,3.85552e-05,0.0510834,21.0179,-331.217,-0.0740767,0.0,0.0
1029,257,21.4977,22.2828,141.976,112.323,113.154,4.18585e-05,0.0510002,21.0182,-331.217,-0.0655422,0.0,0.0
1036,258.75,21.1973,22.4252,140.554,112.302,113.111,6.55416e-05,0.0508994,21.0184,-331.227,-0.0638416,0.0,0.0
1043,260.5,21.2891,22.2608,136.308,112.291,113.655,1.83782e-05,0.0509939,21.0185,-331.227,-0.107389,0.0,0.0
1050,262.25,21.3249,22.001,135.611,112.289,113.482,6.79395e-06,0.0510391,21.0185,-331.227,-0.0939625,0.0,0.0
1057,264,21.5182,22.2064,137.887,112.262,113.772,4.47557e-05,0.0511147,21.0186,-331.227,-0.118867,0.0,0.0
1064,265.75,21.7158,21.684,138.123,112.262,113.546,4.62113e-05,0.0510681,21.0186,-331.217,-0.101137,0.0,0.0
1071,267.5,21.5464,22.633,144.347,112.249,112.989,2.31612e-05,0.0510383,21.0186,-331.217,-0.05845,0.0,0.0
1078,269.25,21.7618,21.9756,138.684,112.252,113.859,5.04909e-05,0.0512083,21.0186,-331.217,-0.126447,0.0,0.0
1085,271,21.2729,22.4052,138.586,112.221,113.108,7.37014e-05,0.0510829,21.0186,-331.217,-0.0700277,0.0,0.0
1092,272.75,21.4502,22.1809,140.072,112.21,113.063,9.38263e-05,0.050983,21.0174,-331.237,-0.0673371,0.0,0.0
1099,274.5,21.4043,22.4138,138.829,112.196,113.291,6.92239e-05,0.0509961,21.0165,-331.227,-0.0863412,0.0,0.0
1106,276.25,21.3637,22.5475,140.151,112.177,113.049,-2.01108e-05,0.0509776,21.0158,-331.237,-0.0688824,0.0,0.0
1113,278,21.7239,22.3059,142.187,112.174,113.462,-6.30746e-05,0.0510366,21.0147,-331.227,-0.10154,0.0,0.0
1120,279.75,21.5345,22.3302,137.116,112.165,113.366,-3.47176e-05,0.0510951,21.0148,-331.227,-0.0947269,0.0,0.0
1127,281.5,21.1261,22.1616,140.71,112.153,113.33,3.37144e-05,0.0510462,21.0148,-331.227,-0.0928274,0.0,0.0
1134,283.25,21.3146,21.9392,143.64,112.143,113.287,0.000108677,0.0510458,21.0148,-331.227,-0.0902284,0.0,0.0
1141,285,21.808,22.1384,137.874,112.102,113.536,0.000217612,0.0510408,21.0149,-331.227,-0.112991,0.0,0.0
1148,286.75,21.4781,22.6466,139.512,112.108,113.245,0.000317185,0.051049,21.0149,-331.227,-0.0897256,0.0,0.0
1155,288.5,21.6802,22.485,141.643,112.122,113.529,0.000390959,0.051113,21.0149,-331.217,-0.110927,0.0,0.0
1162,290.25,21.7898,22.2414,140.431,112.101,113.288,0.000421177,0.0511694,21.0149,-331.227,-0.0936169,0.0,0.0
1169,292,21.6747,22.2188,136.46,112.085,113.535,0.000409938,0.051139,21.0149,-331.227,-0.114278,0.0,0.0
1176,293.75,21.6011,22.2453,137.775,112.072,113.064,0.000365569,0.0511064,21.0149,-331.237,-0.0783457,0.0,0.0
1183,295.5,21.4909,22.3139,142.548,112.056,113.033,0.000312753,0.0510908,21.0152,-331.237,-0.0771297,0.0,0.0
1190,297.25,21.2736,22.3635,142.862,112.022,113.014,0.000282243,0.0512061,21.0149,-331.227,-0.0783901,0.0,0.0
1197,299,21.4976,22.416,138.144,112.012,112.808,0.000260236,0.051183,21.0145,-331.237,-0.0630435,0.0,0.0
1204,300.75,21.5352,22.1991,142.44,111.984,112.975,0.000256258,0.0510156,21.0143,-331.227,-0.0782949,0.0,0.0
1211,302.5,21.336,22.4864,137.612,111.992,113.52,0.000280502,0.0509735,21.0154,-331.237,-0.120502,0.0,0.0
1218,304.25,21.5432,22.4814,136.989,111.993,113.377,0.000360646,0.0509303,21.0159,-331.237,-0.109233,0.0,0.0
1225,306,21.5123,22.1323,137.311,112.007,112.848,0.00042146,0.0509703,21.0162,-331.227,-0.0664922,0.0,0.0
1232,307.75,21.5468,22.3926,137.519,111.998,113.123,0.000387508,0.0510772,21.0163,-331.247,-0.0888475,0.0,0.0
1239,309.5,21.779,22.1063,141.232,112.014,113.304,0.000225937,0.0511522,21.0163,-331.227,-0.101803,0.0,0.0
1246,311.25,21.8357,22.4313,140.603,112.023,113.002,3.87017e-05,0.0512331,21.0159,-331.227,-0.0773185,0.0,0.0
1253,313,22.1021,22.443,139.763,112.04,113.164,-6.12581e-05,0.0513022,21.015,-331.247,-0.0888116,0.0,0.0
1260,314.75,21.3127,22.5647,141.873,112.038,113.165,-9.45334e-05,0.0512941,21.0149,-331.237,-0.0889589,0.0,0.0
1267,316.5,21.8715,22.4489,144.47,112.057,113.146,-7.11378e-05,0.0511591,21.0157,-331.237,-0.0859703,0.0,0.0
1274,318.25,21.5902,22.1798,137.374,112.059,113.298,-2.0297e-05,0.0511537,21.0161,-331.247,-0.0978358,0.0,0.0
1281,320,21.7143,22.7932,139.168,112.068,113.475,5.85728e-05,0.0511807,21.0162,-331.237,-0.110951,0.0,0.0
1288,321.75,21.7113,22.8129,138.834,112.079,113.362,0.000148281,0.0510682,21.0163,-331.237,-0.101278,0.0,0.0
1295,323.5,22.0882,22.3761,138.838,112.079,113.166,0.000201104,0.051024,21.0164,-331.247,-0.0858761,0.0,0.0
1302,325.25,21.7792,22.7278,136.334,112.077,113.452,0.000160225,0.0510352,21.0164,-331.237,-0.10844,0.0,0.0
1309,327,21.4421,22.4197,133.983,112.103,113.103,7.34299e-05,0.0509834,21.0164,-331.237,-0.0790158,0.0,0.0
1316,328.75,21.5049,22.0476,139.368,112.108,114.215,-8.94409e-06,0.0511095,21.0162,-331.257,-0.16558,0.0,0.0
1323,330.5,21.743,22.3159,137.144,112.102,113.488,-6.32291e-05,0.051229,21.0159,-331.247,-0.109324,0.0,0.0
1330,332.25,21.7947,22.4039,137.104,112.11,113.204,-0.000149155,0.0512488,21.0157,-331.237,-0.0863487,0.0,0.0
1337,334,21.8489,22.1945,138.234,112.13,113.777,-0.000213406,0.0512863,21.0156,-331.247,-0.129684,0.0,0.0
1344,335.75,21.7568,22.3933,139.548,112.149,113.746,-0.000243913,0.0513365,21.0156,-331.237,-0.125711,0.0,0.0
1351,337.5,21.5741,22.7895,137.649,112.148,113.322,-0.000214977,0.051406,21.0155,-331.237,-0.0925848,0.0,0.0
1358,339.25,21.8301,22.456,138.209,112.153,113.361,-0.000162414,0.0513258,21.0159,-331.237,-0.095335,0.0,0.0
1365,341,21.5016,22.5459,140.38,112.155,113.169,-0.000116967,0.0513643,21.0163,-331.237,-0.080033,0.0,0.0
1372,342.75,21.2122,22.3689,142.269,112.164,113.373,-2.15657e-05,0.0513293,21.0172,-331.237,-0.0953173,0.0,0.0
1379,344.5,21.9142,22.484,137.506,112.174,113.509,9.277e-05,0.0513502,21.0177,-331.247,-0.105199,0.0,0.0
1386,346.25,21.7631,22.4784,140.37,112.189,113.394,0.000137618,0.0512065,21.0179,-331.227,-0.0950109,0.0,0.0
1393,348,21.6173,22.6554,139.052,112.18,113.173,0.000111406,0.0511686,21.018,-331.227,-0.0783398,0.0,0.0
1400,349.75,21.6243,22.2655,140.85,112.193,113.479,7.96359e-05,0.051186,21.0178,-331.217,-0.10138,0.0,0.0
1407,351.5,21.9777,22.2414,143.995,112.195,113.735,6.41896e-05,0.0512166,21.0175,-331.227,-0.12121,0.0,0.0
1414,353.25,21.7762,22.3339,140.814,112.196,113.576,0.000114532,0.0513531,21.0173,-331.227,-0.108692,0.0,0.0
1421,355,22.0806,22.5125,141.531,112.199,113.257,0.000219345,0.0514086,21.0167,-331.237,-0.0834519,0.0,0.0
1428,356.75,21.9137,22.2486,137.582,112.192,113.517,0.000308307,0.0515009,21.017,-331.237,-0.104402,0.0,0.0
1435,358.5,21.6847,22.7348,140.139,112.209,113.395,0.000371679,0.0516777,21.0171,-331.247,-0.0935489,0.0,0.0
1442,360.25,21.984,22.2886,138.007,112.204,113.536,0.000410921,0.0518758,21.0169,-331.247,-0.104941,0.0,0.0
1449,362,21.7733,22.4841,137.691,112.21,113.511,0.000419714,0.0519309,21.0158,-331.247,-0.102523,0.0,0.0
1456,363.75,21.9618,22.3392,144.007,112.218,113.118,0.000346345,0.0520742,21.0153,-331.237,-0.0710829,0.0,0.0
1463,365.5,21.6087,22.3998,139.576,112.222,113.061,0.000215336,0.0521737,21.015,-331.247,-0.0662033,0.0,0.0
1470,367.25,21.5597,22.5039,137.13,112.237,113.512,9.98516e-05,0.0521278,21.0149,-331.257,-0.100407,0.0,0.0
1477,369,21.6014,22.7137,138.584,112.241,113.443,8.67978e-06,0.0520156,21.0148,-331.247,-0.0946669,0.0,0.0
1484,370.75,21.8574,22.6651,141.433,112.231,113.284,-3.76534e-05,0.0519036,21.0148,-331.237,-0.0830196,0.0,0.0
1491,372.5,21.722,22.6267,137.74,112.25,113.492,-8.06522e-05,0.051858,21.0148,-331.237,-0.0978476,0.0,0.0
1498,374.25,21.5498,22.5849,137.169,112.269,113.669,-0.000160211,0.0517142,21.0147,-331.247,-0.110186,0.0,0.0
1505,376,21.5664,22.7712,140.835,112.265,113.108,-0.000222714,0.0515972,21.0159,-331.247,-0.066583,0.0,0.0
1512,377.75,21.7642,22.234,138.584,112.283,113.681,-0.00025159,0.0516007,21.0165,-331.247,-0.110026,0.0,0.0
1519,379.5,21.6193,22.0119,137.876,112.29,113.321,-0.000252893,0.0515637,21.0168,-331.267,-0.0812932,0.0,0.0
1526,381.25,22.1021,22.4673,138.947,112.325,113.626,-0.00020725,0.0514484,21.0172,-331.257,-0.102429,0.0,0.0
1533,383,21.8328,22.592,135.113,112.326,113.409,-0.000141503,0.0513911,21.0176,-331.247,-0.0852815,0.0,0.0
1540,384.75,21.8281,22.7675,139.807,112.343,113.293,-0.000132711,0.0513045,21.0178,-331.247,-0.0748672,0.0,0.0
1547,386.5,22.0065,22.4777,139.354,112.352,113.393,-0.000210332,0.0512969,21.0178,-331.247,-0.08204,0.0,0.0
1554,388.25,21.9099,22.4222,134.961,112.393,113.47,-0.000244548,0.0512971,21.0177,-331.247,-0.0848261,0.0,0.0
1561,390,21.647,22.8427,138.896,112.402,113.678,-0.000214968,0.0512634,21.0174,-331.257,-0.100419,0.0,0.0
1568,391.75,21.6793,22.6083,140.235,112.416,113.56,-0.000226445,0.0511136,21.0172,-331.247,-0.0899681,0.0,0.0
1575,393.5,21.7923,22.1076,139.816,112.434,113.811,-0.000243499,0.0511259,21.0171,-331.257,-0.108283,0.0,0.0
1582,395.25,21.5551,22.1675,139.394,112.46,113.532,-0.000132339,0.0510485,21.0171,-331.267,-0.0844119,0.0,0.0
1589,397,21.7419,22.389,139.942,112.487,113.508,3.04935e-05,0.0511526,21.0171,-331.267,-0.0803539,0.0,0.0
1596,398.75,21.5354,22.3994,139.219,112.5,113.639,0.000117211,0.0511331,21.0171,-331.257,-0.0896164,0.0,0.0
1603,400.5,21.5888,22.4163,141.572,112.519,113.396,0.000103979,0.0511178,21.0171,-331.257,-0.069041,0.0,0.0
1610,402.25,21.5215,22.6415,141.863,112.535,113.448,4.9536e-05,0.0510817,21.0168,-331.267,-0.071815,0.0,0.0
1617,404,22.0285,22.5649,143.795,112.566,113.648,-6.47042e-05,0.0512216,21.0165,-331.257,-0.0851359,0.0,0.0
1624,405.75,21.6275,22.4853,140.712,112.578,113.388,-0.000179557,0.0512479,21.0163,-331.267,-0.0637097,0.0,0.0
1631,407.5,22.1409,22.2803,140.706,112.597,113.671,-0.000168549,0.0511147,21.0152,-331.267,-0.0844536,0.0,0.0
1638,409.25,21.6541,22.2588,136.355,112.606,113.692,-7.31351e-05,0.0510691,21.0145,-331.267,-0.0853275,0.0,0.0
1645,411,22.2893,22.4529,136.353,112.636,113.718,-1.16597e-05,0.0511469,21.0154,-331.257,-0.084992,0.0,0.0
1652,412.75,21.6727,22.3653,137.339,112.665,113.959,2.76085e-05,0.0511479,21.0166,-331.257,-0.101558,0.0,0.0
1659,414.5,21.7932,22.5994,138.21,112.669,113.788,1.94811e-05,0.0512621,21.0172,-331.267,-0.0878614,0.0,0.0
1666,416.25,21.5768,22.5452,136.851,112.694,113.636,2.59347e-06,0.0511624,21.0175,-331.257,-0.0740457,0.0,0.0
1673,418,21.8721,22.3525,140.43,112.695,114.655,3.97623e-05,0.0510919,21.0176,-331.257,-0.153361,0.0,0.0
1680,419.75,21.4896,22.6081,137.854,112.718,114.019,8.76927e-05,0.0512066,21.017,-331.277,-0.102125,0.0,0.0
1687,421.5,21.875,22.6311,142.563,112.729,114.189,0.000139546,0.0511578,21.0162,-331.257,-0.114384,0.0,0.0
1694,423.25,21.8509,22.3919,132.079,112.748,113.917,0.000128658,0.0510792,21.0158,-331.257,-0.0917219,0.0,0.0
1701,425,21.6938,22.7197,140.051,112.762,114.112,7.89409e-05,0.0510173,21.0156,-331.257,-0.105906,0.0,0.0
1708,426.75,21.4191,22.3665,139.547,112.779,113.967,1.19995e-05,0.0511347,21.0155,-331.257,-0.0931772,0.0,0.0
1715,428.5,21.5387,22.3178,137.972,112.806,113.747,-7.3536e-05,0.0512449,21.0154,-331.247,-0.0738458,0.0,0.0
1722,430.25,21.3379,22.2656,139.891,112.818,113.542,-7.39313e-05,0.0512868,21.0154,-331.247,-0.0568862,0.0,0.0
1729,432,21.7807,22.7399,140.486,112.823,113.769,-7.5978e-06,0.0512049,21.016,-331.257,-0.0742306,0.0,0.0
1736,433.75,21.7462,22.5676,139.53,112.846,114.025,4.78076e-05,0.0510491,21.0169,-331.257,-0.0923662,0.0,0.0
1743,435.5,22.0824,22.4309,137.124,112.859,114.106,2.11325e-05,0.0509895,21.0168,-331.257,-0.0977806,0.0,0.0
1750,437.25,21.6389,22.3255,141.206,112.865,113.95,-0.000110209,0.0510168,21.0164,-331.257,-0.085038,0.0,0.0
1757,439,21.6201,22.4218,141.347,112.881,113.929,-0.000272827,0.0510775,21.0162,-331.267,-0.0821967,0.0,0.0
1764,440.75,21.2472,22.528,138.36,112.892,114.051,-0.000306295,0.0511395,21.0161,-331.267,-0.0908592,0.0,0.0
1771,442.5,21.6179,22.6892,138.587,112.903,114.08,-0.000244944,0.0511581,21.0161,-331.257,-0.0922206,0.0,0.0
1778,444.25,21.5857,22.2753,138.523,112.911,113.965,-0.0001881,0.0512158,21.0161,-331.247,-0.0826194,0.0,0.0
1785,446,21.6095,22.5203,134.411,112.913,114.193,-9.06929e-05,0.0511122,21.0161,-331.257,-0.100228,0.0,0.0
1792,447.75,21.738,22.3958,136.388,112.922,114.353,2.50005e-05,0.0508836,21.0161,-331.257,-0.111968,0.0,0.0
1799,449.5,21.6534,22.4203,138.193,112.931,114.041,9.63394e-05,0.0508998,21.015,-331.257,-0.086991,0.0,0.0
1806,451.25,21.6751,22.595,137.003,112.933,114.275,8.90417e-05,0.0510786,21.0143,-331.247,-0.105098,0.0,0.0
1813,453,21.4701,22.7477,141.464,112.947,114.588,8.26009e-05,0.0511459,21.014,-331.257,-0.128244,0.0,0.0
1820,454.75,21.7358,22.439,140.161,112.944,113.761,9.83366e-05,0.0509751,21.0139,-331.257,-0.0640973,0.0,0.0
1827,456.5,21.8252,22.2102,139.325,112.94,114.418,0.000146121,0.0509628,21.0149,-331.267,-0.115633,0.0,0.0
1834,458.25,21.8887,22.354,139.75,112.958,114.064,0.000191104,0.0509339,21.0159,-331.257,-0.086596,0.0,0.0
1841,460,21.6728,22.2321,144.358,112.968,114.106,0.00015369,0.0509706,21.0169,-331.247,-0.0890991,0.0,0.0
1848,461.75,21.6041,22.4241,138.038,112.96,113.882,8.01599e-05,0.0509384,21.0173,-331.257,-0.0723333,0.0,0.0
1855,463.5,21.3804,22.5596,142.324,112.964,113.988,4.76715e-05,0.0508369,21.0173,-331.257,-0.0802619,0.0,0.0
1862,465.25,21.6322,22.0657,138.742,112.978,114.182,3.35156e-05,0.0508698,21.0163,-331.257,-0.0942126,0.0,0.0
1869,467,21.3531,22.4233,136.94,112.978,113.977,4.82588e-07,0.0508505,21.0158,-331.257,-0.0782478,0.0,0.0
1876,468.75,21.698,22.224,138.397,112.977,114.088,-3.14844e-06,0.0507919,21.0164,-331.267,-0.0869589,0.0,0.0
1883,470.5,21.4355,22.5374,137.291,112.971,114.596,-3.19115e-07,0.0508787,21.0171,-331.257,-0.127058,0.0,0.0
1890,472.25,21.9204,22.4402,138.616,112.98,114.121,6.65803e-06,0.0509442,21.0174,-331.277,-0.0893947,0.0,0.0
1897,474,21.2746,22.6584,139.674,112.982,114.228,1.28056e-05,0.0508232,21.0169,-331.247,-0.0975287,0.0,0.0
1904,475.75,21.6897,22.4096,140.898,112.986,114.055,-9.19543e-06,0.050763,21.0161,-331.257,-0.0837457,0.0,0.0
1911,477.5,21.5639,22.3172,137.725,112.98,114.511,-9.50042e-05,0.0507587,21.0162,-331.257,-0.119681,0.0,0.0
1918,479.25,21.2498,22.3822,142.639,112.986,114.164,-0.000205204,0.050835,21.0162,-331.257,-0.0922206,0.0,0.0
1925,481,21.7689,22.31,140.135,112.981,114.102,-0.000266466,0.0506962,21.0161,-331.257,-0.087818,0.0,0.0
1932,482.75,21.6757,22.4169,140.22,113.003,114.035,-0.000247852,0.050587,21.0164,-331.277,-0.0808396,0.0,0.0
1939,484.5,21.5425,22.4004,136.933,112.982,114.081,-0.00017266,0.0506322,21.0171,-331.257,-0.0860511,0.0,0.0
1946,486.25,21.7927,22.2202,137.846,112.977,114.331,-5.82499e-05,0.0507921,21.0171,-331.257,-0.105984,0.0,0.0
1953,488,21.4527,22.4122,140.85,112.991,114.016,7.95368e-05,0.0508162,21.0165,-331.257,-0.0803764,0.0,0.0
1960,489.75,21.6537,22.5328,140.145,112.984,113.961,0.000143939,0.0509573,21.0155,-331.257,-0.0765149,0.0,0.0
1967,491.5,21.3076,22.1717,137.147,112.974,114.088,0.00013104,0.0510058,21.015,-331.257,-0.0872479,0.0,0.0
1974,493.25,21.7625,22.4415,139.353,112.985,113.921,0.000160012,0.0510298,21.0147,-331.257,-0.0733899,0.0,0.0
1981,495,21.6142,22.3615,140.648,112.976,113.819,0.000241663,0.0509215,21.0146,-331.257,-0.0660863,0.0,0.0
1988,496.75,21.4891,22.2365,139.573,112.987,113.972,0.000271131,0.0508241,21.0146,-331.257,-0.077173,0.0,0.0
1995,498.5,21.3807,22.622,138.75,112.977,114.173,0.000228944,0.0507491,21.0145,-331.267,-0.0936469,0.0,0.0
2002,500.25,21.5049,22.3568,136.985,112.982,114.201,0.000145449,0.0507906,21.0145,-331.257,-0.0954347,0.0,0.0
2009,502,21.3131,22.5379,137.759,112.968,114.063,2.70744e-05,0.0508462,21.0145,-331.247,-0.085807,0.0,0.0
2016,503.75,21.6461,22.2599,141.957,112.981,113.922,-4.61127e-05,0.050783,21.0147,-331.257,-0.0738255,0.0,0.0
2023,505.5,21.5689,22.1312,138.942,112.963,114.166,-2.48797e-05,0.0508101,21.0158,-331.247,-0.094203,0.0,0.0
2030,507.25,21.5587,22.2544,138.681,112.964,114.395,3.46152e-05,0.0508111,21.0164,-331.247,-0.111927,0.0,0.0
2037,509,21.3325,22.392,142.509,112.965,113.929,8.15049e-05,0.0508059,21.017,-331.257,-0.0755905,0.0,0.0
2044,510.75,21.1604,22.8791,141.235,112.956,113.975,0.000137585,0.0507606,21.0173,-331.247,-0.0799137,0.0,0.0
2051,512.5,21.5478,22.4103,137.299,112.951,114.407,0.000176745,0.0508536,21.0174,-331.257,-0.113907,0.0,0.0
2058,514.25,21.1556,22.2046,137.668,112.957,114.289,0.000164801,0.0508763,21.0181,-331.267,-0.104202,0.0,0.0
2065,516,21.666,22.2586,138.939,112.949,113.962,0.000191519,0.0507733,21.0191,-331.277,-0.0793431,0.0,0.0
2072,517.75,21.3901,22.3512,139.401,112.937,113.908,0.000219713,0.0506971,21.0193,-331.237,-0.0761775,0.0,0.0
2079,519.5,21.6036,22.5009,140.326,112.932,114.504,0.000206481,0.0507072,21.0191,-331.237,-0.122912,0.0,0.0
2086,521.25,21.8685,22.5565,137.596,112.929,113.794,0.00021626,0.050883,21.0183,-331.257,-0.0678568,0.0,0.0
2093,523,21.2805,22.3781,141.323,112.926,114.181,0.000220486,0.0511739,21.0175,-331.267,-0.0982389,0.0,0.0
2100,524.75,21.7395,22.4019,139.741,112.917,113.798,0.00013268,0.0514446,21.0171,-331.267,-0.069135,0.0,0.0
2107,526.5,21.6338,22.2401,139.029,112.918,114.364,-4.76969e-06,0.0515551,21.0169,-331.257,-0.113155,0.0,0.0
2114,528.25,21.3511,22.5365,140.369,112.92,113.757,-9.6648e-05,0.0514188,21.0165,-331.267,-0.0656719,0.0,0.0
2121,530,21.3759,22.3127,137.83,112.912,113.837,-3.81025e-05,0.0512102,21.0165,-331.257,-0.0725856,0.0,0.0
2128,531.75,21.6183,22.4443,138.462,112.904,114.068,4.91035e-05,0.0509882,21.0175,-331.257,-0.0912019,0.0,0.0
2135,533.5,21.7524,22.3268,140.316,112.902,113.737,0.000157796,0.0507866,21.0179,-331.257,-0.065547,0.0,0.0
2142,535.25,22.0393,22.1954,137.895,112.892,114.22,0.000210906,0.0507914,21.0182,-331.267,-0.104005,0.0,0.0
2149,537,21.4264,22.0267,139.86,112.897,114.152,0.000140453,0.0507597,21.0183,-331.267,-0.098308,0.0,0.0
2156,538.75,21.5834,22.3685,139.301,112.884,114.236,-2.5414e-05,0.0507347,21.0183,-331.247,-0.105913,0.0,0.0
2163,540.5,21.7028,22.5211,140.273,112.872,114.16,-0.000172157,0.0507216,21.0183,-331.257,-0.100942,0.0,0.0
2170,542.25,21.5097,22.2343,143.601,112.874,113.777,-0.000307786,0.0506428,21.0184,-331.277,-0.0708601,0.0,0.0
2177,544,21.5075,22.1488,138.078,112.86,114.221,-0.000410319,0.0505953,21.0176,-331.257,-0.10662,0.0,0.0
2184,545.75,21.7474,22.4657,140.375,112.852,114.467,-0.000424656,0.0505447,21.0168,-331.257,-0.126393,0.0,0.0
2191,547.5,21.3455,22.2383,140.207,112.867,114.192,-0.000369145,0.0505582,21.0164,-331.287,-0.103828,0.0,0.0
2198,549.25,21.5232,22.1326,143.965,112.826,114.094,-0.000305371,0.0505399,21.017,-331.267,-0.0994036,0.0,0.0
2205,551,21.7557,22.5528,136.587,112.824,114.577,-0.000232368,0.0506335,21.0177,-331.267,-0.137136,0.0,0.0
2212,552.75,21.6144,22.4601,139.798,112.822,113.729,-0.000144393,0.0506589,21.0181,-331.247,-0.0712037,0.0,0.0
2219,554.5,21.838,22.5184,140.248,112.809,114.006,-5.03703e-05,0.0506343,21.0182,-331.277,-0.0938703,0.0,0.0
2226,556.25,21.6263,22.663,138.778,112.791,114.242,-5.49505e-06,0.0507519,21.0181,-331.277,-0.113639,0.0,0.0
2233,558,21.6992,22.3389,136.497,112.788,113.663,9.37116e-06,0.0507266,21.017,-331.277,-0.068713,0.0,0.0
2240,559.75,21.5688,22.4555,137.518,112.778,113.852,1.03781e-05,0.0506709,21.0165,-331.287,-0.0842824,0.0,0.0
2247,561.5,21.7073,22.3,138.746,112.776,114.217,7.64164e-06,0.0507321,21.0172,-331.267,-0.112876,0.0,0.0
2254,563.25,21.5896,22.3233,137.676,112.74,113.778,-2.25735e-05,0.0506847,21.0182,-331.277,-0.0814494,0.0,0.0
2261,565,21.7767,22.3905,140.256,112.738,113.91,-3.25201e-05,0.0506928,21.0175,-331.297,-0.0919495,0.0,0.0
2268,566.75,21.1256,22.3051,139.905,112.732,113.768,-5.65897e-06,0.0507428,21.0172,-331.267,-0.081374,0.0,0.0
2275,568.5,21.7457,21.8654,137.744,112.711,114.021,2.30653e-05,0.0506433,21.0171,-331.277,-0.102745,0.0,0.0
2282,570.25,21.3469,22.355,138.488,112.69,113.808,2.5491e-05,0.0506452,21.017,-331.277,-0.0878036,0.0,0.0
2289,572,21.715,22.0728,137.492,112.681,113.95,1.92421e-05,0.0506605,21.0169,-331.277,-0.0996308,0.0,0.0
2296,573.75,21.6364,22.1594,137.107,112.676,113.74,-1.4833e-05,0.0506294,21.017,-331.267,-0.08359,0.0,0.0
2303,575.5,21.5271,22.4881,137.694,112.665,113.774,-7.50979e-05,0.0506308,21.0172,-331.267,-0.0870713,0.0,0.0
2310,577.25,21.8786,22.3954,138.277,112.645,113.969,-5.42518e-05,0.0506198,21.0173,-331.307,-0.103926,0.0,0.0
2317,579,21.4147,22.7787,145.836,112.622,113.814,8.90969e-05,0.0506219,21.0173,-331.287,-0.0936491,0.0,0.0
2324,580.75,21.4159,22.4936,139.854,112.609,113.73,0.000277699,0.0506741,21.017,-331.267,-0.0880937,0.0,0.0
2331,582.5,21.8833,22.2228,139.903,112.603,113.696,0.000360568,0.0507353,21.0168,-331.267,-0.0859002,0.0,0.0
2338,584.25,21.8168,22.5473,135.492,112.577,113.333,0.000328565,0.0507625,21.0166,-331.267,-0.0595118,0.0,0.0
2345,586,21.6817,22.5955,138.226,112.562,113.983,0.000230927,0.0508252,21.0166,-331.277,-0.11155,0.0,0.0
2352,587.75,21.8044,22.6515,137.805,112.525,113.856,0.000137899,0.050807,21.0165,-331.277,-0.10461,0.0,0.0
2359,589.5,21.6542,22.5772,141.816,112.512,114.092,9.43632e-05,0.0506507,21.0165,-331.277,-0.124048,0.0,0.0
2366,591.25,21.5818,22.5124,140.621,112.496,113.803,0.000123709,0.0505546,21.0165,-331.277,-0.102738,0.0,0.0
2373,593,21.5498,22.4289,135.557,112.479,113.394,0.000190903,0.0505038,21.0165,-331.267,-0.0720758,0.0,0.0
2380,594.75,21.7319,22.8214,140.594,112.457,113.632,0.000210676,0.0504136,21.0165,-331.287,-0.0923898,0.0,0.0
2387,596.5,21.8477,22.5312,141.084,112.448,113.416,0.000167751,0.0504607,21.0166,-331.257,-0.076224,0.0,0.0
2394,598.25,21.909,22.6879,137.653,112.433,113.404,8.6488e-05,0.0505362,21.017,-331.267,-0.0764507,0.0,0.0
2401,600,21.7852,22.49,139.347,112.421,113.344,4.4761e-05,0.0504051,21.0172,-331.277,-0.0727555,0.0,0.0
2408,601.75,21.4946,22.4374,138.48,112.389,113.424,0.000132221,0.0502662,21.0175,-331.257,-0.081528,0.0,0.0
2415,603.5,20.9657,22.0403,139.43,112.364,113.637,0.00030665,0.0504113,21.0179,-331.257,-0.100181,0.0,0.0
2422,605.25,20.9147,21.7288,138.045,112.345,113.545,0.000440947,0.050534,21.0187,-331.267,-0.0944869,0.0,0.0
2429,607,21.2784,21.8816,139.29,112.324,113.479,0.000455002,0.0506096,21.0197,-331.267,-0.0909582,0.0,0.0
2436,608.75,21.3201,22.0006,139.271,112.29,113.448,0.0004,0.0505849,21.0201,-331.277,-0.0911864,0.0,0.0
2443,610.5,20.8223,21.591,137.765,112.266,113.228,0.000395879,0.0505581,21.0203,-331.277,-0.0758958,0.0,0.0
2450,612.25,20.827,21.7684,136.926,112.244,113.292,0.000343325,0.0504194,21.0202,-331.297,-0.0826873,0.0,0.0
2457,614,21.2377,21.9061,136.446,112.212,113.651,0.000203804,0.0503988,21.0188,-331.287,-0.113285,0.0,0.0
2464,615.75,21.1546,22.1291,138.313,112.2,113.328,3.7677e-05,0.0502804,21.0181,-331.277,-0.0890049,0.0,0.0
2471,617.5,21.2343,21.9572,138.832,112.143,113.155,-0.000102142,0.0503312,21.0177,-331.277,-0.079926,0.0,0.0
2478,619.25,21.2642,21.9022,139.746,112.109,113.31,-0.00012347,0.0503635,21.0183,-331.257,-0.0947966,0.0,0.0
2485,621,21.2789,21.6351,139.492,112.088,112.973,-2.36555e-05,0.0502982,21.019,-331.277,-0.0699689,0.0,0.0
2492,622.75,21.4642,21.9644,138.456,112.049,112.952,0.000100569,0.0502338,21.0194,-331.277,-0.0714228,0.0,0.0
2499,624.5,20.9744,21.5899,143.779,112.023,113.09,0.000167729,0.0502802,21.0195,-331.277,-0.0843503,0.0,0.0
2506,626.25,21.1361,21.6379,140.806,111.972,113.316,0.000123648,0.0503852,21.0184,-331.277,-0.106145,0.0,0.0
2513,628,21.0366,22.2143,141.041,111.967,113.248,8.99931e-05,0.0504986,21.0179,-331.267,-0.101195,0.0,0.0
2520,629.75,21.1523,21.5161,142.611,111.926,113.356,0.000102599,0.0505166,21.0176,-331.277,-0.112893,0.0,0.0
2527,631.5,21.2515,21.7745,139.335,111.896,113.069,0.000128295,0.0505071,21.0175,-331.287,-0.0927208,0.0,0.0
2534,633.25,21.3123,21.473,139.811,111.837,112.691,8.1726e-05,0.050523,21.0174,-331.267,-0.0676923,0.0,0.0
2541,635,21.2219,21.8949,141.108,111.817,112.831,-1.77459e-05,0.0504845,21.0174,-331.277,-0.0803047,0.0,0.0
2548,636.75,21.3648,22.4345,137.207,111.791,112.762,-0.000113599,0.0505671,21.0174,-331.257,-0.0769068,0.0,0.0
2555,638.5,20.8312,22.3408,141.692,111.752,112.803,-0.000174749,0.0505475,21.0174,-331.257,-0.0832951,0.0,0.0
2562,640.25,21.0683,21.8868,138.261,111.723,113.123,-0.000167907,0.0505046,21.0174,-331.287,-0.110734,0.0,0.0
2569,642,21.0938,22.1942,143,111.674,113.114,-0.000114201,0.0504396,21.0174,-331.287,-0.113913,0.0,0.0
2576,643.75,21.5413,21.5671,140.664,111.655,112.715,-0.000125084,0.0505471,21.0173,-331.267,-0.0840876,0.0,0.0
2583,645.5,20.8652,21.708,137.534,111.64,112.892,-0.000166314,0.0507102,21.017,-331.267,-0.0991811,0.0,0.0
2590,647.25,20.9223,22.0424,141.505,111.598,112.578,-0.00012343,0.0506527,21.0168,-331.267,-0.077735,0.0,0.0
2597,649,20.3904,21.7474,138.684,111.568,112.459,-0.00013425,0.0505149,21.017,-331.287,-0.0707527,0.0,0.0
2604,650.75,20.9683,21.9278,141.218,111.543,112.467,-0.000113668,0.0503971,21.0174,-331.277,-0.0733888,0.0,0.0
2611,652.5,21.0701,21.7098,140.291,111.519,112.672,-3.87967e-05,0.0503664,21.0171,-331.277,-0.0914799,0.0,0.0
2618,654.25,21.265,21.9107,142.825,111.49,112.227,-3.05821e-05,0.0504186,21.0169,-331.267,-0.0586287,0.0,0.0
2625,656,20.8182,21.6414,140.47,111.46,112.617,-0.000106463,0.0504713,21.0168,-331.267,-0.0918124,0.0,0.0
2632,657.75,21.3399,21.9795,141.431,111.427,112.862,-0.00015084,0.0505231,21.0167,-331.277,-0.113816,0.0,0.0
2639,659.5,21.1986,21.9989,141.806,111.415,112.681,-8.31762e-05,0.0505415,21.0167,-331.277,-0.10045,0.0,0.0
2646,661.25,21.3398,22.0263,141.641,111.406,112.683,2.2378e-05,0.0505944,21.0167,-331.297,-0.101411,0.0,0.0
2653,663,21.132,21.9415,140.348,111.38,112.544,0.000101884,0.05063,21.0167,-331.287,-0.0924782,0.0,0.0
2660,664.75,21.345,21.8527,145.154,111.366,112.473,8.63233e-05,0.0506473,21.0167,-331.277,-0.0879411,0.0,0.0
2667,666.5,20.9504,21.672,142.152,111.371,112.476,3.65474e-05,0.0507204,21.018,-331.287,-0.0877436,0.0,0.0
2674,668.25,21.0799,22.1469,138.655,111.325,112.282,-7.54682e-05,0.0505795,21.0182,-331.287,-0.076116,0.0,0.0
2681,670,20.8055,21.8213,140.625,111.314,112.395,-0.000163567,0.0506598,21.0183,-331.277,-0.0859917,0.0,0.0
2688,671.75,21.1543,21.9819,137.635,111.278,112.279,-0.000134274,0.0506659,21.0183,-331.297,-0.0796463,0.0,0.0
2695,673.5,20.7302,22.1112,136.435,111.266,112.765,-6.22229e-07,0.0505326,21.0177,-331.277,-0.119017,0.0,0.0
2702,675.25,21.2197,21.6866,140.082,111.247,112.217,3.72641e-05,0.0504671,21.0168,-331.277,-0.0772313,0.0,0.0
2709,677,20.8619,21.9624,144.915,111.247,112.249,-3.44254e-05,0.0504659,21.0159,-331.287,-0.079772,0.0,0.0
2716,678.75,21.364,21.9657,138.024,111.216,112.265,-0.0001081,0.0504377,21.0155,-331.277,-0.083445,0.0,0.0
2723,680.5,21.473,21.7171,139.737,111.191,112.22,-6.08631e-05,0.0505345,21.0154,-331.297,-0.0819726,0.0,0.0
2730,682.25,21.2356,22.1783,137.386,111.18,112.547,4.59757e-05,0.0505176,21.0153,-331.277,-0.108624,0.0,0.0
2737,684,20.8204,21.7633,140.07,111.173,112.081,0.000126687,0.050488,21.0162,-331.297,-0.0723814,0.0,0.0
2744,685.75,20.5015,21.7872,143.802,111.167,112.376,0.000182873,0.0505377,21.0169,-331.297,-0.096173,0.0,0.0
2751,687.5,20.991,21.8414,140.422,111.136,112.457,0.000194525,0.0505845,21.0172,-331.287,-0.105104,0.0,0.0
2758,689.25,21.2953,22.2273,141.954,111.139,112.504,0.000191521,0.0505811,21.0174,-331.307,-0.108547,0.0,0.0
2765,691,21.034,21.7466,139.4,111.141,111.958,0.000220589,0.0505756,21.0176,-331.297,-0.0651177,0.0,0.0
2772,692.75,20.7403,22.0802,137.884,111.126,112.209,0.000268597,0.0505138,21.0184,-331.287,-0.0862705,0.0,0.0
2779,694.5,21.2119,22.1879,140.487,111.121,112.321,0.000291704,0.0504681,21.0187,-331.277,-0.095529,0.0,0.0
2786,696.25,21.697,21.8758,138.179,111.106,112.37,0.000277517,0.0505277,21.0189,-331.297,-0.100666,0.0,0.0
2793,698,21.031,22.145,140.393,111.117,111.916,0.000238177,0.0506247,21.0179,-331.277,-0.0636937,0.0,0.0
2800,699.75,21.1105,22.0654,139.975,111.089,112.678,0.000229106,0.0506538,21.0173,-331.297,-0.126307,0.0,0.0
2807,701.5,21.6204,21.6068,139.624,111.08,112.228,0.000186364,0.0506562,21.017,-331.277,-0.0914659,0.0,0.0
2814,703.25,21.6297,22.3994,137.049,111.073,112.103,7.5096e-05,0.0506253,21.0168,-331.287,-0.0820229,0.0,0.0
2821,705,21.2604,21.7424,140.673,111.061,112.214,-8.3292e-08,0.0505805,21.018,-331.297,-0.0918269,0.0,0.0
2828,706.75,21.2572,22.1938,140.88,111.048,112.212,4.4512e-05,0.0505754,21.0185,-331.287,-0.0927594,0.0,0.0
2835,708.5,21.0848,21.6942,141.799,111.044,112.186,0.000149896,0.0505866,21.0192,-331.287,-0.090992,0.0,0.0
2842,710.25,21.4676,22.0935,142.571,111.033,112.272,,0.0506422,,-331.287,-0.0986323,0.0,0.0
2849,712,21.1942,21.896,138.563,111.017,112.056,,0.0506446,,-331.297,-0.0828527,0.0,0.0
2856,713.75,20.9763,21.8176,140.752,111.028,112.423,,,,-331.287,-0.111051,0.0,0.0
2863,715.5,21.5775,21.7806,139.516,111.011,112.301,,,,-331.287,-0.102742,0.0,0.0
2870,717.25,21.8716,22.3701,141.415,111.003,112.376,,,,-331.267,-0.109314,0.0,0.0
2877,719,20.6538,22.1728,141.457,111.003,112.358,,,,-331.257,-0.107866,0.0,0.0
2884,720.75,21.1766,22.086,137.118,110.99,112.208,,,,-331.277,-0.0970459,0.0,0.0
2885,721,21.0232,21.9644,140.339,110.971,112.181,,,,-331.297,-0.0964007,0.0,0.0