File: 01_Data/Fiberglass_Insulation_R13_Paper_Faced/Cone/R13_Fiberglass_Insulation_Cone_HF75Scan_220429_R2.csv
Names,Time,Stack TC,Smoke TC,Exh Press,Smoke Comp,Smoke Meas,CO Meter,CO2 Meter,O2 Meter,Sample Mass,Ext Coeff,Start Test,Flame Verif
Chan Gain,,500,500,1,1,1,1,1,1,1,1,1.0,1.0
Offset,,0,0,0.13436,0,0,0,0,0,0,0,0.0,0.0
Gain,,1,1,25.011,14.4414,16.1819,1,1,1,1.0009,1.01483,1.0,1.0
Units,sec,C,C,Pa,%,%,%,%,%,g,/m,,
Baseline,,43.2657,44.9046,131.149,108.487,111.584,0.000717659,0.0566518,21.0118,-496.359,-0.250525,,
7,1.5,40.6268,42.5786,127.625,108.324,111.249,0.00128649,0.0648701,21.0023,11.09,-0.237216,0.0,0.0
14,3.25,40.9838,42.8932,132.796,108.322,112.271,0.00196887,0.0690023,20.9973,11.0799,-0.318783,0.0,0.0
21,5,40.6116,43.0424,129.14,108.322,112.19,0.00248384,0.0736055,20.9928,10.9999,-0.312319,0.0,0.0
28,6.75,41.5596,42.4853,132.677,108.324,110.788,0.00275126,0.0761682,20.99,10.9999,-0.200268,0.0,0.0
35,8.5,41.8559,42.8973,134.285,108.311,111.871,0.00264002,0.0759582,20.9891,10.9398,-0.287879,0.0,0.0
42,10.25,41.0908,43.2232,129.012,108.313,112.514,0.00240523,0.074567,20.9899,10.9298,-0.338787,0.0,0.0
49,12,41.817,43.1781,130.541,108.302,112.012,0.00220859,0.0723507,20.9922,10.8698,-0.299795,0.0,0.0
56,13.75,41.9808,43.4786,130.015,108.3,111.827,0.00206785,0.0703357,20.9941,10.8597,-0.285282,0.0,0.0
63,15.5,42.0658,43.3597,126.259,108.301,111.801,0.00197599,0.0685522,20.9976,10.8397,-0.28313,0.0,0.0
70,17.25,42.2526,43.6193,129.588,108.312,112.331,0.00192102,0.0672609,21.0002,10.8397,-0.324392,0.0,0.0
77,19,42.0627,43.6359,129.826,108.311,111.57,0.00193769,0.0659765,21.0017,10.8097,-0.263951,0.0,0.0
84,20.75,42.4817,43.5804,132.298,108.314,110.865,0.00201537,0.064957,21.0024,10.7997,-0.207213,0.0,0.0
91,22.5,42.4408,43.9216,129.648,108.312,111.247,0.00203816,0.0642192,21.0035,10.8197,-0.238033,0.0,0.0
98,24.25,42.5808,44.3142,131.385,108.322,111.811,0.00198556,0.0636196,21.0045,10.8197,-0.282253,0.0,0.0
105,26,42.3524,43.4973,129.338,108.335,111.721,0.00196908,0.0632864,21.0049,10.7797,-0.274009,0.0,0.0
112,27.75,42.2748,44.0899,127.699,108.33,111.684,0.0020161,0.063078,21.0051,10.7997,-0.271491,0.0,0.0
119,29.5,42.7439,44.3998,126.199,108.333,112.661,0.00204606,0.063079,21.0053,10.7797,-0.348717,0.0,0.0
126,31.25,42.8783,44.4998,132.106,108.348,112.123,0.00193704,0.0630796,21.0053,10.7697,-0.304895,0.0,0.0
133,33,42.5448,44.4993,130.888,108.347,111.441,0.00168998,0.0628859,21.0051,10.7697,-0.250656,0.0,0.0
140,34.75,42.9631,44.4954,132.07,108.349,110.98,0.00144475,0.0627321,21.0043,10.7296,-0.213591,0.0,0.0
147,36.5,42.97,44.4443,127.901,108.357,111.814,0.0013662,0.0627361,21.0041,10.7196,-0.279553,0.0,0.0
154,38.25,43.2909,44.9608,129.564,108.366,111.7,0.00137296,0.0627318,21.0039,10.7096,-0.269781,0.0,0.0
161,40,43.0648,44.8688,130.768,108.372,112.049,0.00142959,0.0628837,21.0038,10.7096,-0.29702,0.0,0.0
168,41.75,43.5624,44.9871,130.36,108.396,111.021,0.00152224,0.0629867,21.0037,10.7196,-0.212964,0.0,0.0
175,43.5,43.3057,44.6311,131.781,108.424,112.748,0.00157777,0.0630402,21.0041,10.7396,-0.348053,0.0,0.0
182,45.25,43.1447,44.8804,129.769,108.414,111.266,0.00158921,0.0628468,21.0048,10.7196,-0.231099,0.0,0.0
189,47,43.4444,45.068,128.593,108.419,112.394,0.00154665,0.0626287,21.005,10.6996,-0.320524,0.0,0.0
196,48.75,43.1765,44.7932,131.107,108.457,112.109,0.00144827,0.0623742,21.0051,10.6796,-0.294818,0.0,0.0
203,50.5,43.4146,45.0681,125.991,108.442,112.478,0.00128303,0.0621804,21.0051,10.6696,-0.325328,0.0,0.0
210,52.25,43.4413,45.2313,130.884,108.444,111.697,0.00117576,0.0618945,21.0051,10.6796,-0.263139,0.0,0.0
217,54,43.8955,45.4506,130.431,108.47,112.043,0.00114486,0.0616033,21.0051,10.6796,-0.288516,0.0,0.0
224,55.75,43.7667,44.756,131.249,108.486,111.975,0.00112273,0.0613011,21.0051,10.6896,-0.281795,0.0,0.0
231,57.5,42.9937,45.0245,127.161,108.506,110.987,0.00101041,0.0611679,21.0051,10.6796,-0.2013,0.0,0.0
238,59.25,43.5636,45.0726,131.295,108.498,111.896,0.00087062,0.0610361,21.0051,10.6696,-0.274538,0.0,0.0
245,61,43.7971,45.4532,131.099,108.514,111.812,0.000844977,0.0608503,21.0059,10.6896,-0.26648,0.0,0.0
252,62.75,43.881,45.3348,131.155,108.54,111.996,0.000911339,0.0607053,21.0063,10.6696,-0.27896,0.0,0.0
259,64.5,44.1172,45.7461,131.996,108.556,112.523,0.000989871,0.0606444,21.0065,10.6195,-0.319558,0.0,0.0
266,66.25,43.6738,45.3925,128.782,108.551,111.964,0.00105691,0.0604259,21.0079,10.6496,-0.27558,0.0,0.0
273,68,44.0345,45.2433,130.072,108.571,112.585,0.00110044,0.0601694,21.0089,10.6596,-0.323136,0.0,0.0
280,69.75,44.0068,45.357,128.941,108.581,112.138,0.00108869,0.0599416,21.0095,10.6796,-0.286972,0.0,0.0
287,71.5,43.6969,45.7759,128.405,108.591,112.11,0.00102586,0.0594958,21.0096,10.6496,-0.283906,0.0,0.0
294,73.25,44.1914,46.1423,130.811,108.591,111.968,0.000913113,0.0591892,21.0098,10.6796,-0.272606,0.0,0.0
301,75,44.1836,45.9387,127.387,108.603,112.311,0.000844849,0.059055,21.0106,10.6596,-0.298801,0.0,0.0
308,76.75,44.2958,46.0017,128.986,108.598,112.888,0.000811201,0.0588704,21.0114,10.6295,-0.344914,0.0,0.0
315,78.5,44.1512,45.5857,131.028,108.599,112.497,0.000753252,0.0586556,21.0113,10.6696,-0.313981,0.0,0.0
322,80.25,44.1317,45.8957,130.96,108.605,111.752,0.000694188,0.0585588,21.0113,10.6496,-0.254237,0.0,0.0
329,82,44.1427,45.2848,129.8,108.6,112.42,0.000699355,0.0584052,21.0113,10.6596,-0.307739,0.0,0.0
336,83.75,44.2723,46.0763,128.791,108.601,111.695,0.000772871,0.0581545,21.0113,10.6596,-0.250036,0.0,0.0
343,85.5,44.5642,46.0087,131.142,108.604,111.895,0.000841442,0.0580097,21.0113,10.6395,-0.265749,0.0,0.0
350,87.25,44.9533,46.2505,132.667,108.614,111.685,0.00085199,0.0579203,21.0113,10.6496,-0.248277,0.0,0.0
357,89,44.3362,45.959,128.859,108.623,112.995,0.000842145,0.0578077,21.0113,10.6596,-0.351224,0.0,0.0
364,90.75,44.1126,45.9715,129.482,108.615,112.075,0.000861491,0.0577441,21.0113,10.6696,-0.279132,0.0,0.0
371,92.5,44.9104,46.0639,131.582,108.614,111.776,0.000880408,0.0576371,21.0113,10.6496,-0.255516,0.0,0.0
378,94.25,44.0997,45.9822,128.597,108.617,112.062,0.000826173,0.0575262,21.0118,10.6596,-0.277968,0.0,0.0
385,96,44.4732,46.191,130.906,108.644,113.321,0.000728505,0.0575282,21.0128,10.6796,-0.37528,0.0,0.0
392,97.75,44.049,45.9331,129.488,108.629,112.839,0.000630605,0.0574805,21.0124,10.6496,-0.338526,0.0,0.0
399,99.5,44.3576,46.3169,127.867,108.637,111.92,0.000581643,0.0574345,21.013,10.6295,-0.26504,0.0,0.0
406,101.25,44.4909,46.4949,132.799,108.623,112.152,0.000513923,0.0574521,21.0134,10.6395,-0.284638,0.0,0.0
413,103,44.9485,46.5023,127.619,108.631,111.603,0.000449593,0.0574338,21.0135,10.6496,-0.240293,0.0,0.0
420,104.75,44.8372,46.7058,131.923,108.629,111.967,0.000409265,0.0572965,21.0136,10.6496,-0.26946,0.0,0.0
427,106.5,44.8082,46.5033,131.545,108.624,111.846,0.000378167,0.0573728,21.0134,10.6696,-0.260194,0.0,0.0
434,108.25,44.7509,46.1479,129.756,108.637,111.123,0.000322969,0.0573959,21.0121,10.6195,-0.201381,0.0,0.0
441,110,44.75,46.5533,131.2,108.647,112.423,0.000274565,0.0572556,21.0112,10.6596,-0.304145,0.0,0.0
448,111.75,44.6514,46.2147,129.496,108.649,111.952,0.00028817,0.0571885,21.0107,10.6295,-0.266543,0.0,0.0
455,113.5,44.6559,46.5869,128.375,108.637,112.875,0.000364832,0.0572063,21.0105,10.6395,-0.340684,0.0,0.0
462,115.25,44.732,46.7136,134.741,108.657,112.32,0.000483405,0.0570902,21.0104,10.6295,-0.295174,0.0,0.0
469,117,44.9521,46.5151,130.431,108.666,112.766,0.000538292,0.0570329,21.0104,10.6395,-0.329728,0.0,0.0
476,118.75,44.8751,47.0166,127.361,108.667,112.324,0.000532892,0.0571016,21.0103,10.6395,-0.29466,0.0,0.0
483,120.5,45.0146,46.8414,132.364,108.681,112.675,0.000477754,0.0571527,21.0103,10.6195,-0.321321,0.0,0.0
490,122.25,44.3375,46.484,130.401,108.676,111.562,0.000426895,0.0570926,21.0103,10.6395,-0.233343,0.0,0.0
497,124,44.7299,46.4769,129.63,108.677,112.399,0.000388471,0.0572112,21.0114,10.6395,-0.299737,0.0,0.0
504,125.75,44.6138,46.438,131.248,108.695,111.659,0.000386859,0.0570901,21.0121,10.6295,-0.239547,0.0,0.0
511,127.5,44.6411,46.32,130.017,108.692,111.581,0.000411607,0.0571116,21.0124,10.6395,-0.233541,0.0,0.0
518,129.25,44.5168,46.2596,129.617,108.71,112.155,0.000469643,0.0571325,21.0124,10.6496,-0.27765,0.0,0.0
525,131,44.288,46.6288,129.033,108.699,112.705,0.000566235,0.057054,21.0112,10.6295,-0.322221,0.0,0.0
532,132.75,44.8347,46.6585,127.864,108.708,112.054,0.000631127,0.0571517,21.0104,10.6295,-0.26983,0.0,0.0
539,134.5,44.7762,46.9502,131.193,108.723,111.155,0.000633481,0.0571275,21.01,10.6496,-0.196949,0.0,0.0
546,136.25,44.8047,47.068,130.104,108.725,112.899,0.000607959,0.057264,21.0098,10.6295,-0.335408,0.0,0.0
553,138,44.8523,46.8337,128.846,108.738,111.886,0.00056508,0.0573086,21.0097,10.6395,-0.254103,0.0,0.0
560,139.75,44.9333,47.2334,130.391,108.749,112.265,0.000540073,0.0572418,21.0095,10.6095,-0.283211,0.0,0.0
567,141.5,45.1392,47.0564,131.388,108.76,112.251,0.000581944,0.0572432,21.0101,10.6195,-0.281251,0.0,0.0
574,143.25,45.3106,47.2468,130.318,108.763,112.744,0.000649545,0.0573536,21.0106,10.6095,-0.320034,0.0,0.0
581,145,45.027,47.0599,135.395,108.762,112.049,0.000649265,0.0574108,21.0097,10.5895,-0.265111,0.0,0.0
588,146.75,45.1821,46.6766,128.903,108.776,113.529,0.000628844,0.0575031,21.0092,10.6295,-0.380695,0.0,0.0
595,148.5,45.1511,47.0756,132.09,108.807,111.43,0.000643151,0.0574996,21.009,10.6395,-0.212025,0.0,0.0
602,150.25,45.1831,47.2471,129.788,108.802,113.21,0.000628818,0.0575451,21.0079,10.6295,-0.353554,0.0,0.0
609,152,45.0317,46.9787,129.306,108.799,112.431,0.000611022,0.0574783,21.0077,10.6395,-0.292318,0.0,0.0
616,153.75,45.2914,47.149,130.388,108.81,113.337,0.000590295,0.0574463,21.01,10.5995,-0.362879,0.0,0.0
623,155.5,44.7101,47.1959,133.61,108.833,112.476,0.000520012,0.0574311,21.0112,10.6095,-0.2931,0.0,0.0
630,157.25,44.803,46.8436,134.102,108.832,113.542,0.000419499,0.0574513,21.0129,10.6195,-0.377197,0.0,0.0
637,159,44.794,46.8583,129.734,108.845,112.027,0.000331183,0.0573244,21.0136,10.6195,-0.256455,0.0,0.0
644,160.75,45.0894,46.9308,129.009,108.836,112.897,0.000318382,0.0571094,21.014,10.5995,-0.326125,0.0,0.0
651,162.5,45.442,47.0979,128.197,108.859,111.88,0.000354574,0.0571254,21.0142,10.6195,-0.243751,0.0,0.0
658,164.25,45.1363,47.0057,130.442,108.873,111.907,0.000369422,0.0572412,21.0142,10.6195,-0.244644,0.0,0.0
665,166,45.4081,47.3057,133.009,108.895,111.749,0.000339391,0.0573177,21.0137,10.6195,-0.230299,0.0,0.0
672,167.75,45.2677,47.4383,132.519,108.9,111.85,0.000308341,0.0574074,21.0128,10.5895,-0.23793,0.0,0.0
679,169.5,45.561,46.8117,130.4,108.912,111.887,0.00027214,0.0573731,21.0124,10.5995,-0.239865,0.0,0.0
686,171.25,45.4802,47.4297,129.231,108.922,112.173,0.000272804,0.0574392,21.0122,10.5995,-0.261829,0.0,0.0
693,173,44.8288,46.6513,128.298,108.938,112.129,0.000331345,0.0574458,21.0121,10.6195,-0.257008,0.0,0.0
700,174.75,45.4197,46.9659,133.126,108.948,112.85,0.000407199,0.0574308,21.012,10.5995,-0.313241,0.0,0.0
707,176.5,45.4711,46.8763,131.416,108.977,112.215,0.00051849,0.0575733,21.0115,10.5995,-0.260659,0.0,0.0
714,178.25,45.1002,47.0856,134.016,109.004,112.358,0.000563172,0.0576795,21.0103,10.6095,-0.269784,0.0,0.0
721,180,45.1193,47.3421,128.914,109.028,111.887,0.000568553,0.0577206,21.0094,10.6095,-0.230397,0.0,0.0
728,181.75,45.2379,47.3508,128.438,109.057,113.41,0.000569909,0.0576758,21.009,10.6195,-0.348413,0.0,0.0
735,183.5,45.4048,47.1661,131.258,109.061,112.503,0.000603528,0.0576543,21.0088,10.6095,-0.276559,0.0,0.0
742,185.25,45.0613,46.9388,127.93,109.077,112.539,0.000619719,0.0576738,21.0087,10.6095,-0.278192,0.0,0.0
749,187,45.5042,47.1927,132.256,109.1,112.555,0.000573116,0.0576322,21.0095,10.6095,-0.277497,0.0,0.0
756,188.75,45.3726,47.279,128.879,109.108,113.263,0.00045862,0.0575854,21.0092,10.6095,-0.332682,0.0,0.0
763,190.5,45.2091,47.2021,132.358,109.115,113.244,0.000410807,0.0575612,21.0095,10.6095,-0.330631,0.0,0.0
770,192.25,44.9775,47.0313,131.618,109.145,112.153,0.000482537,0.0574357,21.0103,10.6095,-0.242016,0.0,0.0
777,194,45.3938,47.1684,129.965,109.157,113.462,0.000604372,0.0573881,21.0106,10.6195,-0.344284,0.0,0.0
784,195.75,44.7726,47.1781,127.698,109.186,113.388,0.000772956,0.0572882,21.0108,10.6095,-0.336173,0.0,0.0
791,197.5,45.3603,47.2325,130.235,109.194,113.171,0.000858185,0.0571792,21.0109,10.5995,-0.318526,0.0,0.0
798,199.25,44.9235,47.7587,126.299,109.212,112.562,0.000892701,0.0571946,21.0101,10.5995,-0.268917,0.0,0.0
805,201,45.3113,47.2534,133.316,109.222,112.358,0.000900073,0.0572728,21.0101,10.5995,-0.252021,0.0,0.0
812,202.75,45.1426,47.0744,129.265,109.245,112.415,0.000839739,0.0573921,21.0103,10.6095,-0.254649,0.0,0.0
819,204.5,45.1503,46.7263,127.187,109.264,113.604,0.000712347,0.0574016,21.0102,10.5895,-0.346816,0.0,0.0
826,206.25,45.3683,47.5848,129.173,109.265,112.593,0.000563853,0.0573637,21.0101,10.6095,-0.267065,0.0,0.0
833,208,44.9394,46.7826,130.495,109.3,113.387,0.000462432,0.057334,21.0107,10.6195,-0.326791,0.0,0.0
840,209.75,45.4547,47.2056,131.413,109.325,112.817,0.00049069,0.0572475,21.011,10.6095,-0.279855,0.0,0.0
847,211.5,45.5588,47.3599,127.355,109.327,112.9,0.000548062,0.0572723,21.0112,10.6195,-0.286292,0.0,0.0
854,213.25,45.0603,47.1717,132.149,109.322,112.525,0.000558437,0.0572361,21.0113,10.6095,-0.257083,0.0,0.0
861,215,45.1884,47.9137,128.275,109.332,112.875,0.00051622,0.057161,21.0113,10.5995,-0.283839,0.0,0.0
868,216.75,45.3592,47.4201,130.316,109.343,112.422,0.000492395,0.0572112,21.0113,10.5995,-0.247195,0.0,0.0
875,218.5,45.5165,47.6632,130.945,109.362,112.885,0.000517844,0.0572429,21.0113,10.5795,-0.282253,0.0,0.0
882,220.25,45.6141,47.2654,133.264,109.37,113.323,0.000537788,0.0573674,21.0113,10.5895,-0.316083,0.0,0.0
889,222,45.3015,47.7124,130.772,109.352,112.54,0.000552599,0.0575662,21.0118,10.5695,-0.255854,0.0,0.0
896,223.75,45.5631,47.1401,132.338,109.357,112.597,0.000542736,0.0576914,21.0124,10.5995,-0.259878,0.0,0.0
903,225.5,45.1918,47.2363,128.02,109.373,113.528,0.000517592,0.057736,21.0115,10.5895,-0.331919,0.0,0.0
910,227.25,45.5228,47.3536,130.502,109.363,112.785,0.000523145,0.057721,21.0113,10.5995,-0.274311,0.0,0.0
917,229,45.0331,47.2621,128.126,109.365,112.609,0.000537686,0.0576971,21.0122,10.5895,-0.260281,0.0,0.0
924,230.75,45.2363,47.4514,134.068,109.342,113.136,0.000495013,0.057719,21.0127,10.5695,-0.303667,0.0,0.0
931,232.5,45.8016,47.4245,127.701,109.351,113.803,0.000465704,0.0576372,21.012,10.5695,-0.355291,0.0,0.0
938,234.25,45.5216,47.5493,129.983,109.361,113.491,0.000437368,0.0576394,21.0113,10.5795,-0.330019,0.0,0.0
945,236,45.4826,47.5059,129.448,109.341,113.362,0.000430697,0.0577375,21.011,10.5895,-0.321518,0.0,0.0
952,237.75,45.1617,47.5859,130.803,109.335,112.375,0.000369899,0.0577792,21.0108,10.5795,-0.244197,0.0,0.0
959,239.5,45.2814,47.047,129.14,109.346,112.122,0.000371823,0.0578173,21.0108,10.5895,-0.223137,0.0,0.0
966,241.25,45.8331,47.6281,129.143,109.347,112.351,0.000453068,0.0577402,21.0107,10.5995,-0.241275,0.0,0.0
973,243,45.4324,47.7349,129.732,109.343,112.97,0.0005404,0.0577229,21.0107,10.5895,-0.29053,0.0,0.0
980,244.75,45.1783,47.3033,132.064,109.352,112.421,0.000602333,0.0578115,21.0107,10.5795,-0.246399,0.0,0.0
987,246.5,45.6909,47.3703,129.988,109.342,113.326,0.000619736,0.0578787,21.0113,10.5795,-0.318651,0.0,0.0
994,248.25,45.4576,47.7646,129.952,109.348,113.226,0.00058585,0.0578136,21.0117,10.6195,-0.31027,0.0,0.0
1001,250,45.4871,47.3269,129.262,109.363,113.041,0.000518537,0.057681,21.0118,10.6195,-0.294478,0.0,0.0
1008,251.75,45.4674,47.5696,128.833,109.358,112.841,0.000404746,0.0576767,21.0119,10.5995,-0.279112,0.0,0.0
1015,253.5,45.3958,47.6982,127.786,109.362,113.523,0.000291717,0.0577304,21.012,10.6095,-0.332429,0.0,0.0
1022,255.25,45.6048,47.4873,126.766,109.367,112.439,0.000235401,0.0578581,21.0122,10.5895,-0.246623,0.0,0.0
1029,257,45.6381,47.8927,129.458,109.371,113.408,0.000296553,0.0578416,21.0125,10.5695,-0.322681,0.0,0.0
1036,258.75,45.5826,47.5274,130.942,109.383,112.623,0.000457491,0.0578705,21.0127,10.5795,-0.259831,0.0,0.0
1043,260.5,45.8528,47.5558,128.808,109.392,112.1,0.000522328,0.057864,21.0128,10.5895,-0.217718,0.0,0.0
1050,262.25,45.9318,47.7265,130.957,109.397,113.277,0.000541608,0.0578257,21.0128,10.5495,-0.310287,0.0,0.0
1057,264,45.5211,47.5015,128.844,109.41,112.625,0.000617989,0.0579165,21.0128,10.5695,-0.257796,0.0,0.0
1064,265.75,45.8175,47.725,131.964,109.425,112.911,0.000702016,0.0580236,21.0128,10.5695,-0.279152,0.0,0.0
1071,267.5,46.0904,47.7574,136.234,109.42,113.327,0.00072875,0.0580388,21.0126,10.5595,-0.312344,0.0,0.0
1078,269.25,46.0542,47.5199,130.487,109.44,112.516,0.000706269,0.0580292,21.012,10.5695,-0.246728,0.0,0.0
1085,271,45.5953,47.4984,129.516,109.456,112.048,0.000697788,0.0579718,21.0117,10.5595,-0.2084,0.0,0.0
1092,272.75,45.665,47.5047,130.799,109.473,112.084,0.000722898,0.0579193,21.0115,10.5595,-0.209791,0.0,0.0
1099,274.5,45.4579,47.2071,129.526,109.488,112.755,0.000750132,0.0578972,21.0114,10.5595,-0.261751,0.0,0.0
1106,276.25,45.4786,48.208,127.829,109.487,112.751,0.000717184,0.0579215,21.0114,10.5795,-0.261474,0.0,0.0
1113,278,45.7141,47.6115,131.85,109.505,112.965,0.000655238,0.0578613,21.0114,10.5495,-0.276947,0.0,0.0
1120,279.75,45.8711,47.9892,127.447,109.51,112.813,0.00056617,0.057836,21.0102,10.5695,-0.264594,0.0,0.0
1127,281.5,45.7677,47.4189,132.154,109.514,112.779,0.000489769,0.0578952,21.0098,10.5795,-0.261508,0.0,0.0
1134,283.25,45.4528,47.8161,133.368,109.522,113.469,0.000470406,0.0578491,21.0106,10.5695,-0.315152,0.0,0.0
1141,285,45.8484,47.8806,129.557,109.539,113.076,0.000495224,0.0577308,21.011,10.5495,-0.282865,0.0,0.0
1148,286.75,45.5517,47.8228,132.377,109.553,113.45,0.000556375,0.057605,21.0112,10.5695,-0.311137,0.0,0.0
1155,288.5,45.9607,47.7274,130.124,109.567,112.583,0.000605878,0.0577588,21.0112,10.5595,-0.241686,0.0,0.0
1162,290.25,45.7853,47.8323,126.209,109.578,113.798,0.000589756,0.0579575,21.0113,10.5795,-0.336334,0.0,0.0
1169,292,45.6153,47.7056,131.272,109.588,113.472,0.000522826,0.0579045,21.0102,10.5695,-0.310049,0.0,0.0
1176,293.75,46.2322,48.0089,128.068,109.587,113.703,0.000435444,0.057891,21.009,10.5495,-0.328236,0.0,0.0
1183,295.5,46.0128,48.2016,129.329,109.612,113.865,0.000413812,0.0579835,21.0085,10.5595,-0.338866,0.0,0.0
1190,297.25,46.424,47.8596,125.955,109.622,112.727,0.00043537,0.0580324,21.0082,10.5795,-0.24868,0.0,0.0
1197,299,45.5534,47.4938,127.577,109.621,113.126,0.000414808,0.058052,21.0091,10.5795,-0.280242,0.0,0.0
1204,300.75,45.7487,47.9986,126.996,109.618,112.902,0.000376241,0.057907,21.0097,10.5695,-0.262758,0.0,0.0
1211,302.5,45.8255,47.6276,128.272,109.633,113.319,0.000398123,0.0577055,21.01,10.5695,-0.294347,0.0,0.0
1218,304.25,45.4938,47.9417,130.264,109.64,113.322,0.000471295,0.0576031,21.0102,10.5595,-0.294117,0.0,0.0
1225,306,46.3901,47.8284,128.77,109.648,112.924,0.000558909,0.0574836,21.0103,10.5695,-0.262116,0.0,0.0
1232,307.75,46.0447,47.7328,130.532,109.647,112.46,0.000631202,0.0574489,21.0103,10.5395,-0.225515,0.0,0.0
1239,309.5,45.7058,47.1611,129.307,109.652,112.41,0.000650132,0.0574105,21.0103,10.5495,-0.22114,0.0,0.0
1246,311.25,45.9558,48.1152,127.875,109.669,112.609,0.000597012,0.0572755,21.0103,10.5695,-0.235491,0.0,0.0
1253,313,45.7914,47.9215,130.437,109.664,113.544,0.000487494,0.0572415,21.0103,10.5695,-0.309515,0.0,0.0
1260,314.75,46.0648,47.9647,129.565,109.658,113.251,0.000386561,0.057309,21.0105,10.5595,-0.287063,0.0,0.0
1267,316.5,45.905,48.038,128.079,109.662,112.346,0.000396168,0.0572897,21.0113,10.5495,-0.215303,0.0,0.0
1274,318.25,45.9231,48.004,130.267,109.669,112.984,0.000529949,0.0572465,21.0116,10.5595,-0.265105,0.0,0.0
1281,320,45.8626,47.7778,129.078,109.675,113.667,0.000642227,0.0572719,21.0118,10.5495,-0.318256,0.0,0.0
1288,321.75,45.7723,47.6488,131.374,109.669,114.115,0.000599886,0.0572857,21.0119,10.5595,-0.353803,0.0,0.0
1295,323.5,46.1677,47.4924,128.632,109.666,113.489,0.000435191,0.0572915,21.012,10.5595,-0.305038,0.0,0.0
1302,325.25,45.6285,47.8328,130.031,109.665,112.794,0.000293572,0.0572813,21.012,10.5595,-0.250398,0.0,0.0
1309,327,46.6339,47.9387,131.863,109.673,113.107,0.000270326,0.0572515,21.012,10.5595,-0.274433,0.0,0.0
1316,328.75,45.9123,48.4924,131.419,109.664,113.982,0.000315983,0.0571669,21.012,10.5495,-0.343827,0.0,0.0
1323,330.5,45.9609,48.0181,129.479,109.671,113.309,0.000413024,0.0571379,21.012,10.5595,-0.290494,0.0,0.0
1330,332.25,45.796,47.5673,128.705,109.673,112.703,0.000535534,0.0571563,21.012,10.5595,-0.242616,0.0,0.0
1337,334,45.9009,48.1655,128.63,109.678,113.326,0.000619527,0.0571161,21.012,10.5595,-0.29128,0.0,0.0
1344,335.75,46.0014,47.8451,129.031,109.69,112.66,0.000641476,0.0570643,21.012,10.5695,-0.237829,0.0,0.0
1351,337.5,45.9434,47.8653,128.322,109.672,112.656,0.00059177,0.0570893,21.012,10.5795,-0.238981,0.0,0.0
1358,339.25,45.6772,48.052,132.832,109.675,113.057,0.000551512,0.0571089,21.0104,10.5595,-0.270361,0.0,0.0
1365,341,45.822,47.7709,133.557,109.68,112.473,0.000531064,0.0570934,21.0097,10.5695,-0.223887,0.0,0.0
1372,342.75,45.9098,47.8753,129.311,109.686,113.089,0.000486896,0.0570215,21.0093,10.5595,-0.271997,0.0,0.0
1379,344.5,45.7772,48.0479,127.943,109.661,113.142,0.000505667,0.0570378,21.0092,10.5595,-0.278194,0.0,0.0
1386,346.25,45.985,47.8967,131.019,109.663,113.382,0.000602901,0.0569433,21.0091,10.5595,-0.296914,0.0,0.0
1393,348,45.9396,47.9863,130.801,109.673,113.186,0.000646373,0.0569094,21.009,10.5595,-0.28061,0.0,0.0
1400,349.75,45.9828,48.1333,133.204,109.674,112.482,0.000619202,0.0570092,21.009,10.5495,-0.225056,0.0,0.0
1407,351.5,46.1962,47.8515,126.568,109.681,113.456,0.000604678,0.0570947,21.009,10.5595,-0.301258,0.0,0.0
1414,353.25,45.94,47.8773,128.963,109.662,114.26,0.000565951,0.0571614,21.0098,10.5495,-0.365619,0.0,0.0
1421,355,45.9955,48.2247,130.855,109.668,113.037,0.000484143,0.0571916,21.0106,10.5495,-0.269342,0.0,0.0
1428,356.75,46.3265,48.2365,129.314,109.668,113.541,0.000370448,0.0571876,21.011,10.5495,-0.308996,0.0,0.0
1435,358.5,46.1824,48.2527,129.504,109.694,113.451,0.000266524,0.05718,21.0104,10.5295,-0.299801,0.0,0.0
1442,360.25,45.7092,47.9535,126.16,109.675,112.01,0.00019949,0.0571306,21.0097,10.5495,-0.187581,0.0,0.0
1449,362,46.1368,48.0054,129.755,109.66,113.234,0.000177987,0.0569903,21.009,10.5395,-0.285525,0.0,0.0
1456,363.75,45.9799,47.9139,129.472,109.662,114.074,0.000206063,0.057035,21.0087,10.5395,-0.351104,0.0,0.0
1463,365.5,46.0918,48.1426,129.888,109.675,113.106,0.000315417,0.0570397,21.0085,10.5194,-0.274209,0.0,0.0
1470,367.25,45.9453,48.2691,130.049,109.67,112.877,0.000475314,0.0569339,21.0084,10.5495,-0.256553,0.0,0.0
1477,369,46.4942,48.8293,131.996,109.666,112.404,0.000593115,0.0569393,21.0084,10.5595,-0.219526,0.0,0.0
1484,370.75,46.2968,48.1742,130.349,109.665,112.507,0.000593048,0.0569237,21.0084,10.5495,-0.227725,0.0,0.0
1491,372.5,46.1368,48.1315,126.757,109.655,113.282,0.000439933,0.056877,21.0084,10.5495,-0.289687,0.0,0.0
1498,374.25,46.4358,48.2064,129.036,109.655,112.564,0.000293834,0.0569073,21.0093,10.5295,-0.233082,0.0,0.0
1505,376,45.8506,47.7021,131.439,109.66,113.387,0.000223131,0.0569123,21.01,10.5295,-0.297516,0.0,0.0
1512,377.75,46.0044,48.1239,127.969,109.645,113.838,0.000275395,0.0568768,21.0104,10.5395,-0.334096,0.0,0.0
1519,379.5,46.339,48.2565,132.344,109.643,112.497,0.000361819,0.056856,21.0105,10.5495,-0.228735,0.0,0.0
1526,381.25,45.8201,48.2202,128.73,109.642,112.1,0.000366502,0.0568164,21.0104,10.5495,-0.19733,0.0,0.0
1533,383,47.0246,48.4241,129.018,109.639,114.024,0.000324653,0.0568487,21.0093,10.5194,-0.349105,0.0,0.0
1540,384.75,46.0501,48.2095,129.286,109.633,112.503,0.000314586,0.0568804,21.0096,10.5495,-0.230064,0.0,0.0
1547,386.5,46.2597,47.9593,130.552,109.642,112.439,0.000369758,0.0568542,21.0102,10.5495,-0.224267,0.0,0.0
1554,388.25,46.4318,48.1832,130.257,109.64,112.874,0.000419684,0.0567696,21.0104,10.5395,-0.258823,0.0,0.0
1561,390,46.1458,48.237,127.62,109.636,113.4,0.000412772,0.0568047,21.0106,10.5395,-0.300567,0.0,0.0
1568,391.75,46.256,47.9304,130.965,109.631,112.907,0.000395284,0.0568821,21.0107,10.5295,-0.262149,0.0,0.0
1575,393.5,46.0939,48.0457,131.203,109.63,114.552,0.000416164,0.0569084,21.0111,10.5395,-0.390978,0.0,0.0
1582,395.25,46.2937,48.2141,130.113,109.632,113.957,0.000428549,0.0570022,21.0113,10.5295,-0.344401,0.0,0.0
1589,397,46.0255,48.2826,130.125,109.635,112.898,0.000390301,0.0569439,21.0114,10.5495,-0.26109,0.0,0.0
1596,398.75,46.2991,48.0965,130.58,109.63,112.478,0.000338998,0.0569908,21.0115,10.5495,-0.228285,0.0,0.0
1603,400.5,46.3889,48.0231,130.542,109.621,113.477,0.000295742,0.0569098,21.0115,10.5194,-0.307755,0.0,0.0
1610,402.25,45.7858,47.9409,126.388,109.632,112.721,0.000273446,0.05682,21.0115,10.5395,-0.247315,0.0,0.0
1617,404,46.2522,48.244,127.192,109.612,113.99,0.000354459,0.0568439,21.0112,10.5495,-0.348631,0.0,0.0
1624,405.75,46.4839,48.1195,130.169,109.621,113.306,0.00045267,0.0567813,21.0109,10.5695,-0.29434,0.0,0.0
1631,407.5,45.9749,48.6442,128.404,109.61,113.942,0.000487035,0.0567907,21.0105,10.5795,-0.345032,0.0,0.0
1638,409.25,46.3303,48.0359,132.478,109.609,113.46,0.000520163,0.0567176,21.0101,10.5395,-0.307401,0.0,0.0
1645,411,46.3762,48.2151,127.805,109.617,113.025,0.000511503,0.0568436,21.0099,10.5395,-0.272559,0.0,0.0
1652,412.75,46.1759,48.4459,127.277,109.617,112.957,0.000429531,0.0569321,21.0098,10.5395,-0.267151,0.0,0.0
1659,414.5,46.5799,48.8926,127.461,109.609,112.961,0.000313811,0.0568687,21.0097,10.5595,-0.268181,0.0,0.0
1666,416.25,46.1598,47.9231,128.75,109.605,112.871,0.000260627,0.0568143,21.0097,10.5595,-0.261418,0.0,0.0
1673,418,46.21,48.3678,130.949,109.6,113.066,0.000369323,0.0568079,21.0097,10.5595,-0.277146,0.0,0.0
1680,419.75,46.0822,48.1498,130.226,109.603,112.389,0.000552052,0.0567043,21.0097,10.5395,-0.22343,0.0,0.0
1687,421.5,46.4822,48.5655,131.383,109.59,113.435,0.000708271,0.0568128,21.0097,10.5495,-0.306928,0.0,0.0
1694,423.25,46.754,48.7243,131.977,109.579,113.576,0.000756777,0.0569552,21.0097,10.5395,-0.318939,0.0,0.0
1701,425,46.4873,48.4817,131.716,109.574,113.814,0.000705968,0.0569179,21.01,10.5895,-0.33797,0.0,0.0
1708,426.75,46.4834,48.4319,129.331,109.571,113.2,0.000628752,0.0568561,21.0103,10.5295,-0.290079,0.0,0.0
1715,428.5,46.2191,48.3071,131.326,109.583,113.379,0.000547343,0.0568096,21.0104,10.5595,-0.303159,0.0,0.0
1722,430.25,46.2257,48.6932,133.534,109.565,114.333,0.000457776,0.0569002,21.0109,10.5695,-0.379221,0.0,0.0
1729,432,45.9426,48.0324,128.323,109.553,112.942,0.000299222,0.0568052,21.0115,10.5395,-0.271249,0.0,0.0
1736,433.75,46.2765,48.3509,130.815,109.55,113.339,0.000163699,0.0568575,21.0115,10.5395,-0.302739,0.0,0.0
1743,435.5,46.4686,48.7534,128.998,109.554,113.851,0.000179228,0.0568841,21.0113,10.5795,-0.342477,0.0,0.0
1750,437.25,46.3857,47.925,132.053,109.545,113.314,0.000316591,0.0567576,21.0112,10.5595,-0.301119,0.0,0.0
1757,439,46.3146,48.2678,131.171,109.53,113.096,0.000492187,0.0567105,21.0112,10.5995,-0.285208,0.0,0.0
1764,440.75,45.9564,48.1335,127.595,109.533,112.801,0.00058084,0.0567611,21.0112,10.5495,-0.261725,0.0,0.0
1771,442.5,46.2832,48.2835,132.144,109.531,112.145,0.000649949,0.0568247,21.0111,10.5395,-0.209959,0.0,0.0
1778,444.25,46.4026,48.7082,130.426,109.511,112.992,0.000723729,0.0567696,21.0112,10.5995,-0.278546,0.0,0.0
1785,446,45.9619,48.0043,125.325,109.513,112.759,0.00073837,0.0567209,21.0116,10.5995,-0.260096,0.0,0.0
1792,447.75,46.2937,48.3622,128.93,109.497,113.596,0.000608012,0.056681,21.0118,10.6095,-0.327149,0.0,0.0
1799,449.5,46.4647,48.5212,131.829,109.495,112.72,0.000436083,0.0567637,21.0119,10.5895,-0.258484,0.0,0.0
1806,451.25,46.1338,48.1787,129.659,109.502,112.815,0.000398273,0.0568026,21.0119,10.6095,-0.265284,0.0,0.0
1813,453,46.3363,48.7562,126.707,109.492,112.958,0.000477658,0.0567581,21.0116,10.5795,-0.277402,0.0,0.0
1820,454.75,46.6384,48.9151,128.928,109.492,112.689,0.000514556,0.0567911,21.0112,10.5795,-0.256206,0.0,0.0
1827,456.5,46.4178,48.2196,133.32,109.506,112.981,0.000498469,0.056855,21.0107,10.5295,-0.278084,0.0,0.0
1834,458.25,46.9989,48.6682,128.639,109.511,113.912,0.000454149,0.0568808,21.0104,10.5295,-0.350736,0.0,0.0
1841,460,46.9866,48.5136,130.02,109.512,113.349,0.000427735,0.0568215,21.0096,10.5295,-0.306557,0.0,0.0
1848,461.75,46.5434,48.5022,127.187,109.512,113.714,0.000456265,0.0569701,21.0091,10.5395,-0.335172,0.0,0.0
1855,463.5,46.3651,48.7552,132.071,109.52,112.919,0.000467874,0.0572244,21.0087,10.5895,-0.272109,0.0,0.0
1862,465.25,46.5958,48.4597,130.181,109.526,113.203,0.000443356,0.0574272,21.0094,10.5795,-0.293926,0.0,0.0
1869,467,46.5975,48.8272,130.355,109.539,112.851,0.000441344,0.0574004,21.0092,10.5795,-0.265159,0.0,0.0
1876,468.75,46.107,48.2279,128.704,109.533,113.049,0.000539087,0.0575693,21.0087,10.5595,-0.281268,0.0,0.0
1883,470.5,46.3245,48.8048,128.949,109.529,113.023,0.000583567,0.0575776,21.0094,10.5395,-0.279564,0.0,0.0
1890,472.25,46.5594,48.7786,130.223,109.538,112.844,0.000526446,0.0575936,21.0098,10.5595,-0.264721,0.0,0.0
1897,474,46.2334,48.5291,130.329,109.558,112.946,0.000428128,0.0574525,21.01,10.5595,-0.271128,0.0,0.0
1904,475.75,46.3217,48.703,130.044,109.546,112.776,0.000370433,0.0571794,21.01,10.5895,-0.258698,0.0,0.0
1911,477.5,46.7487,48.4002,127.514,109.551,113.64,0.000261834,0.0569117,21.0116,10.5595,-0.326261,0.0,0.0
1918,479.25,46.8297,48.1848,129.059,109.571,112.818,0.000190985,0.0568203,21.0125,10.5395,-0.25997,0.0,0.0
1925,481,46.4136,48.2849,130.322,109.566,112.789,0.000232832,0.0567569,21.0129,10.5695,-0.258025,0.0,0.0
1932,482.75,46.7825,48.6847,131.88,109.569,112.453,0.000319301,0.0567333,21.0129,10.5695,-0.231307,0.0,0.0
1939,484.5,46.9472,48.6328,127.104,109.564,113.031,0.000354355,0.0566171,21.0119,10.5495,-0.277357,0.0,0.0
1946,486.25,46.9503,48.2521,127.188,109.565,113.751,0.000286785,0.0565555,21.0114,10.5395,-0.333776,0.0,0.0
1953,488,46.5676,48.6255,131.29,109.571,113,0.000231426,0.0565411,21.0112,10.5395,-0.274373,0.0,0.0
1960,489.75,46.4948,48.9173,129.291,109.588,113.256,0.000297247,0.0565959,21.0119,10.5395,-0.29307,0.0,0.0
1967,491.5,46.4895,48.7002,129.746,109.569,112.495,0.000403399,0.0565325,21.0122,10.5695,-0.23459,0.0,0.0
1974,493.25,46.5854,48.5174,130.397,109.578,113.147,0.000442652,0.0565839,21.0123,10.5595,-0.285346,0.0,0.0
1981,495,46.5752,48.7517,126.989,109.588,113.062,0.000354221,0.05667,21.0124,10.5595,-0.277835,0.0,0.0
1988,496.75,46.7134,48.6645,135.652,109.597,112.51,0.000202834,0.0568024,21.0124,10.5495,-0.233545,0.0,0.0
1995,498.5,46.4527,48.6634,133.084,109.581,112.5,0.000176167,0.0569176,21.012,10.5295,-0.234053,0.0,0.0
2002,500.25,46.8336,48.5994,129.981,109.584,113.257,0.00024566,0.0570585,21.0111,10.5295,-0.293505,0.0,0.0
2009,502,46.4475,48.6954,126.8,109.573,113.057,0.000296558,0.0570768,21.0107,10.5194,-0.278628,0.0,0.0
2016,503.75,46.5692,48.2017,133.142,109.578,112.719,0.000245502,0.0570355,21.0105,10.5295,-0.251562,0.0,0.0
2023,505.5,46.4731,48.6747,128.914,109.596,113.725,0.000175073,0.0569938,21.0104,10.5595,-0.32926,0.0,0.0
2030,507.25,46.3926,48.0933,127.1,109.573,113.215,0.000173883,0.0569615,21.0104,10.5595,-0.291137,0.0,0.0
2037,509,46.7097,48.9808,131.587,109.568,113.033,0.00026528,0.057047,21.0103,10.5595,-0.277152,0.0,0.0
2044,510.75,46.5892,48.5406,132.706,109.568,112.862,0.000372668,0.0571605,21.0103,10.5595,-0.263724,0.0,0.0
2051,512.5,46.5399,48.5119,129.83,109.584,113.191,0.000455933,0.0572369,21.0103,10.5295,-0.288264,0.0,0.0
2058,514.25,46.5285,48.044,132.369,109.57,113.063,0.000474866,0.0572183,21.0103,10.5295,-0.279347,0.0,0.0
2065,516,46.66,47.4566,132.408,109.547,113.354,0.000371864,0.0570816,21.0103,10.5395,-0.304118,0.0,0.0
2072,517.75,46.4561,48.5421,124.044,109.552,113.096,0.000254706,0.057119,21.0103,10.5495,-0.283457,0.0,0.0
2079,519.5,46.749,49.103,132.128,109.558,113.673,0.000243262,0.0571016,21.0103,10.5495,-0.328238,0.0,0.0
2086,521.25,46.657,49.1312,126.268,109.56,113.296,0.000363955,0.0569635,21.0103,10.5194,-0.298502,0.0,0.0
2093,523,45.9254,48.8039,129.469,109.531,113.154,0.000568619,0.0569192,21.0103,10.5295,-0.289687,0.0,0.0
2100,524.75,46.7919,49.1576,132.88,109.522,113.568,0.000720297,0.0569898,21.0101,10.5495,-0.322939,0.0,0.0
2107,526.5,46.7995,48.2437,126.946,109.519,113.237,0.000709406,0.057137,21.01,10.5395,-0.297214,0.0,0.0
2114,528.25,46.7345,48.8796,126.751,109.53,113.931,0.000614675,0.0570917,21.01,10.5995,-0.350736,0.0,0.0
2121,530,46.8139,49.0611,128.592,109.531,113.23,0.000565194,0.0570048,21.0092,10.5395,-0.295629,0.0,0.0
2128,531.75,46.9094,48.6781,129.908,109.512,113.786,0.000616108,0.0570548,21.0084,10.5595,-0.340818,0.0,0.0
2135,533.5,46.8712,48.7019,129.103,109.514,113.478,0.000666787,0.0571544,21.0084,10.5395,-0.316459,0.0,0.0
2142,535.25,46.7449,48.7491,130.874,109.52,112.532,0.000658581,0.0573307,21.0092,10.5295,-0.241531,0.0,0.0
2149,537,46.6091,48.7112,129.096,109.524,112.999,0.000657506,0.0575122,21.0092,10.5194,-0.278127,0.0,0.0
2156,538.75,46.5778,48.5156,129.526,109.495,113.197,0.000684763,0.0576154,21.0084,10.5495,-0.295964,0.0,0.0
2163,540.5,46.7411,48.8255,129.127,109.484,113.74,0.000749889,0.0577886,21.0084,10.5495,-0.339443,0.0,0.0
2170,542.25,46.7837,48.5908,128.818,109.496,112.753,0.00083546,0.057703,21.0091,10.5495,-0.260911,0.0,0.0
2177,544,46.3191,48.6216,129.194,109.483,112.275,0.000879854,0.0575688,21.0096,10.5595,-0.224128,0.0,0.0
2184,545.75,46.8334,48.5948,128.343,109.464,112.444,0.000769925,0.0574924,21.0104,10.5495,-0.239165,0.0,0.0
2191,547.5,46.882,48.2045,126.779,109.45,112.332,0.000572455,0.0573813,21.0119,10.5595,-0.231393,0.0,0.0
2198,549.25,46.9179,49.0423,130.25,109.442,113.405,0.000447422,0.057215,21.0126,10.5295,-0.316714,0.0,0.0
2205,551,46.927,48.7713,124.702,109.452,112.439,0.000441091,0.0570259,21.013,10.5395,-0.239741,0.0,0.0
2212,552.75,46.6706,48.2748,127.801,109.437,113.04,0.0004766,0.0569613,21.0132,10.5395,-0.288376,0.0,0.0
2219,554.5,46.8119,48.9556,126.699,109.42,112.198,0.000478981,0.0569357,21.0132,10.5395,-0.223108,0.0,0.0
2226,556.25,46.8848,48.8684,129.364,109.412,111.995,0.000465472,0.057014,21.0133,10.5395,-0.207707,0.0,0.0
2233,558,46.4997,48.4704,127.553,109.426,113.648,0.000387367,0.0569105,21.0133,10.5194,-0.337056,0.0,0.0
2240,559.75,46.7486,48.9265,130.531,109.425,112.014,0.000306421,0.0567285,21.0133,10.5495,-0.208201,0.0,0.0
2247,561.5,46.5087,48.5488,127.721,109.421,113.958,0.00027021,0.0568056,21.0133,10.5295,-0.361596,0.0,0.0
2254,563.25,46.5338,48.6243,135.234,109.417,112.281,0.000217735,0.0566572,21.0133,10.5395,-0.229979,0.0,0.0
2261,565,46.4032,48.7208,128.346,109.42,112.061,0.000152697,0.0564847,21.0145,10.5495,-0.212287,0.0,0.0
2268,566.75,46.7027,48.6406,130.803,109.431,112.714,0.000174238,0.0563956,21.0151,10.5395,-0.263134,0.0,0.0
2275,568.5,46.6798,48.7125,128.472,109.433,112.668,0.000252031,0.0563989,21.0154,10.5495,-0.259331,0.0,0.0
2282,570.25,46.5046,48.4544,130.062,109.429,113.362,0.000316646,0.0565024,21.0155,10.5595,-0.314341,0.0,0.0
2289,572,46.5309,48.5772,134.289,109.436,113.099,0.000349911,0.0563936,21.0146,10.5695,-0.293113,0.0,0.0
2296,573.75,46.848,48.2106,127.634,109.453,112.458,0.000324707,0.0562974,21.0139,10.5595,-0.24108,0.0,0.0
2303,575.5,46.9602,48.3865,127.36,109.438,112.629,0.000259926,0.0562457,21.0136,10.5295,-0.255889,0.0,0.0
2310,577.25,46.6036,48.5194,128.623,109.434,112.488,0.000205246,0.0563014,21.0135,10.5295,-0.245045,0.0,0.0
2317,579,46.5893,48.3907,130.233,109.437,112.257,0.000155709,0.0563357,21.0134,10.5495,-0.226482,0.0,0.0
2324,580.75,46.7393,48.8103,129.901,109.433,112.998,0.000177833,0.0563703,21.0133,10.5495,-0.285392,0.0,0.0
2331,582.5,45.9779,48.6794,130.816,109.43,113.124,0.000320048,0.0563671,21.0133,10.5595,-0.295597,0.0,0.0
2338,584.25,46.6361,48.1752,128.363,109.442,113.655,0.000502737,0.0563475,21.0133,10.5495,-0.336269,0.0,0.0
2345,586,46.1316,48.2937,131.893,109.439,112.553,0.000590198,0.0563214,21.0133,10.5395,-0.249765,0.0,0.0
2352,587.75,46.2745,48.7156,132.642,109.449,112.821,0.000563161,0.0562374,21.0133,10.5595,-0.270089,0.0,0.0
2359,589.5,46.6332,48.7652,130.9,109.465,112.839,0.000504119,0.0561734,21.0133,10.5495,-0.270204,0.0,0.0
2366,591.25,46.7412,48.7115,129.55,109.463,113.072,0.000467423,0.0561654,21.0133,10.5194,-0.288788,0.0,0.0
2373,593,46.6784,48.4918,131.321,109.454,112.822,0.000398752,0.0561036,21.0136,10.5194,-0.269775,0.0,0.0
2380,594.75,46.7675,48.378,133.487,109.463,112.125,0.000302519,0.0561592,21.0138,10.5495,-0.213909,0.0,0.0
2387,596.5,46.7838,48.6787,126.068,109.476,113.113,0.000244166,0.0561527,21.0139,10.5595,-0.290865,0.0,0.0
2394,598.25,46.5387,48.9493,132.201,109.48,113.083,0.000220708,0.056159,21.0139,10.5595,-0.288282,0.0,0.0
2401,600,46.8207,48.5096,129.451,109.483,112.288,0.000232155,0.0562101,21.0139,10.5495,-0.225225,0.0,0.0
2408,601.75,46.5514,48.2286,129.776,109.481,113.525,0.000300202,0.0562208,21.014,10.5695,-0.322939,0.0,0.0
2415,603.5,46.7748,49.0164,131.951,109.492,113.076,0.00037711,0.0562018,21.014,10.5495,-0.28666,0.0,0.0
2422,605.25,46.5218,48.3945,128.795,109.503,113.197,0.000483347,0.0562341,21.014,10.5395,-0.295359,0.0,0.0
2429,607,46.4483,48.6102,129.403,109.509,112.928,0.000582086,0.056381,21.014,10.5695,-0.273741,0.0,0.0
2436,608.75,45.1364,47.036,129.497,109.497,112.563,0.000613166,0.0564538,21.014,10.5495,-0.245819,0.0,0.0
2443,610.5,45.0154,47.0647,128.657,109.495,113.428,0.00056393,0.0564197,21.014,10.5495,-0.314157,0.0,0.0
2450,612.25,45.4011,47.4412,129.104,109.503,112.812,0.000472591,0.056523,21.014,10.5595,-0.265018,0.0,0.0
2457,614,44.9969,46.8596,128.651,109.518,113.529,0.000400785,0.0565137,21.014,10.5495,-0.320164,0.0,0.0
2464,615.75,45.3212,47.5363,131.495,109.503,113.066,0.000447887,0.0563587,21.0147,10.5495,-0.285025,0.0,0.0
2471,617.5,45.5202,46.6696,131.106,109.497,113.58,0.000517614,0.0563795,21.015,10.5194,-0.325907,0.0,0.0
2478,619.25,45.1211,47.6906,127.157,109.497,113.137,0.000543388,0.0564604,21.0151,10.5395,-0.291085,0.0,0.0
2485,621,45.6729,47.369,130.694,109.521,112.92,0.000516497,0.0565137,21.0152,10.5695,-0.272079,0.0,0.0
2492,622.75,45.5008,47.4861,133.901,109.518,113.012,0.000427061,0.0563725,21.0152,10.5295,-0.279568,0.0,0.0
2499,624.5,45.5354,47.0524,127.751,109.499,112.512,0.000313485,0.0562993,21.0153,10.5495,-0.241617,0.0,0.0
2506,626.25,45.8338,47.4957,129.477,109.512,113.547,0.000226914,0.056257,21.0153,10.5295,-0.32206,0.0,0.0
2513,628,45.4133,47.326,127.11,109.516,112.664,0.000210674,0.0562867,21.0153,10.5695,-0.252278,0.0,0.0
2520,629.75,45.252,47.2893,128.146,109.51,113.445,0.000242213,0.0562058,21.0153,10.5495,-0.314224,0.0,0.0
2527,631.5,45.6782,47.632,130.63,109.5,112.599,0.000280532,0.0561328,21.0141,10.5495,-0.248416,0.0,0.0
2534,633.25,45.157,47.3073,129.988,109.503,113.189,0.000365944,0.0561219,21.0135,10.5395,-0.294663,0.0,0.0
2541,635,45.2929,47.3259,132.148,109.51,112.777,0.000548104,0.0561328,21.0132,10.5295,-0.261678,0.0,0.0
2548,636.75,45.1841,47.4068,129.618,109.513,113.198,0.00071524,0.0560856,21.0145,10.5495,-0.294648,0.0,0.0
2555,638.5,45.1961,46.9844,127.83,109.522,112.824,0.00071748,0.056129,21.0152,10.5295,-0.264374,0.0,0.0
2562,640.25,44.9552,47.2141,131.954,109.517,112.963,0.000542566,0.0561644,21.0156,10.5395,-0.275821,0.0,0.0
2569,642,45.359,47.3165,131.091,109.516,113.894,0.000304537,0.0560777,21.0147,10.5495,-0.348949,0.0,0.0
2576,643.75,44.7238,47.5314,127.969,109.51,112.978,0.000111447,0.0560234,21.0141,10.5395,-0.277561,0.0,0.0
2583,645.5,45.1112,47.0138,129.292,109.508,112.304,9.75235e-06,0.0560696,21.0143,10.5495,-0.224396,0.0,0.0
2590,647.25,45.0507,46.42,129.594,109.506,113.323,-2.71069e-05,0.0561106,21.0144,10.5495,-0.30497,0.0,0.0
2597,649,44.9202,47.5268,126.647,109.501,112.782,9.31909e-06,0.0561096,21.0144,10.5295,-0.262856,0.0,0.0
2604,650.75,44.9566,47.0165,131.126,109.502,112.81,0.00015489,0.0561267,21.0145,10.5194,-0.265006,0.0,0.0
2611,652.5,45.5296,47.3103,126.952,109.499,113.652,0.000318679,0.0562329,21.0145,10.5194,-0.331416,0.0,0.0
2618,654.25,45.0942,47.1953,130.879,109.483,112.697,0.000370859,0.0563361,21.0144,10.5395,-0.257582,0.0,0.0
2625,656,45.1647,47.5891,128.85,109.48,113.04,0.000369365,0.0563167,21.014,10.5295,-0.284863,0.0,0.0
2632,657.75,45.5233,47.2331,128.936,109.49,113.276,0.000398321,0.0561548,21.0138,10.5495,-0.302571,0.0,0.0
2639,659.5,45.163,47.0581,126.912,109.491,113.007,0.000420558,0.056092,21.0135,10.5595,-0.281326,0.0,0.0
2646,661.25,45.1445,47.4266,133.896,109.487,113.352,0.000425843,0.0561859,21.0132,10.5495,-0.308871,0.0,0.0
2653,663,45.3767,47.2896,127.067,109.468,113.585,0.000460748,0.0561895,21.0131,10.5595,-0.328623,0.0,0.0
2660,664.75,45.2113,46.8324,130.819,109.478,113.129,0.000551565,0.0562065,21.013,10.5295,-0.292043,0.0,0.0
2667,666.5,44.8711,47.6114,128.486,109.462,112.34,0.000633912,0.0562473,21.013,10.5094,-0.23098,0.0,0.0
2674,668.25,45.0625,47.2083,128.841,109.463,113.497,0.000666231,0.0562887,21.013,10.5295,-0.322126,0.0,0.0
2681,670,45.3437,47.2922,132.11,109.42,112.085,0.000600483,0.0563256,21.013,10.5495,-0.21421,0.0,0.0
2688,671.75,45.2096,47.102,131.247,109.422,112.668,0.000434755,0.0561901,21.013,10.5295,-0.260227,0.0,0.0
2695,673.5,45.0266,47.4882,136.033,109.41,113.436,0.0002752,0.0560875,21.013,10.5295,-0.321698,0.0,0.0
2702,675.25,45.1205,47.2873,127.041,109.413,112.267,0.000129298,0.0560921,21.013,10.5495,-0.22924,0.0,0.0
2709,677,44.8987,46.5896,129.083,109.395,113.379,-9.2269e-06,0.0560828,21.013,10.5495,-0.318385,0.0,0.0
2716,678.75,45.2076,47.2658,126.779,109.392,112.23,-6.76548e-05,0.0561196,21.014,10.5295,-0.227989,0.0,0.0
2723,680.5,44.914,46.765,131.532,109.372,112.389,2.33951e-05,0.0561549,21.0147,10.5295,-0.242243,0.0,0.0
2730,682.25,45.4263,47.2427,128.725,109.374,112.307,0.000187647,0.0561466,21.0157,10.5194,-0.235567,0.0,0.0
2737,684,44.9417,46.8327,134.398,109.373,112.592,0.000313768,0.0560494,21.0159,10.5395,-0.258158,0.0,0.0
2744,685.75,44.9626,46.8417,126.695,109.349,113.924,0.000423656,0.0559775,21.0155,10.5395,-0.364855,0.0,0.0
2751,687.5,45.1545,46.6452,129.608,109.358,112.588,0.000572139,0.0560227,21.0156,10.5595,-0.259104,0.0,0.0
2758,689.25,44.9903,47.1746,127.934,109.338,111.758,0.000701123,0.0559048,21.0159,10.5595,-0.194836,0.0,0.0
2765,691,44.9417,47.5606,126.753,109.342,112.555,0.000738374,0.0559884,21.0163,10.5495,-0.257852,0.0,0.0
2772,692.75,45.3098,46.9675,129.708,109.316,112.215,0.00070916,0.056079,21.016,10.5295,-0.232945,0.0,0.0
2779,694.5,45.0389,47.211,129.039,109.323,113.445,0.000722871,0.0562367,21.0159,10.5194,-0.329499,0.0,0.0
2786,696.25,45.2806,47.0143,131.01,109.304,112.818,0.000749744,0.0561738,21.0158,10.5295,-0.281731,0.0,0.0
2793,698,45.1858,47.1213,128.675,109.291,112.571,0.000705056,0.0562456,21.0163,10.5495,-0.263192,0.0,0.0
2800,699.75,45.408,47.3786,127.401,109.285,113.479,0.000594127,0.0563021,21.0168,10.5395,-0.335261,0.0,0.0
2807,701.5,45.4333,47.2779,125.712,109.257,113.056,0.000490335,0.0561569,21.017,10.5194,-0.304298,0.0,0.0
2814,703.25,45.3317,46.8933,128.389,109.253,112.4,0.00044733,0.0561206,21.0172,10.5495,-0.252829,0.0,0.0
2821,705,45.1603,46.8554,131.974,109.26,112.7,0.000412519,0.0561913,21.0164,10.5194,-0.275928,0.0,0.0
2828,706.75,45.5507,47.5079,129.215,109.236,112.047,0.000367165,0.056222,21.0156,10.5295,-0.226225,0.0,0.0
2835,708.5,45.0451,47.606,125.209,109.22,112.249,0.000340072,0.0561397,21.0153,10.5295,-0.243586,0.0,0.0
2842,710.25,45.3032,47.237,130.008,109.225,112.443,0.000368873,0.0560358,21.0151,10.5395,-0.258497,0.0,0.0
2849,712,45.144,47.2083,129.623,109.221,113.018,0.00047396,0.055987,21.015,10.5395,-0.304174,0.0,0.0
2856,713.75,45.4737,46.9077,126.047,109.219,112.187,0.000583998,0.0559473,21.015,10.5194,-0.238687,0.0,0.0
2863,715.5,45.1862,47.2324,131.584,109.208,112.321,,0.0560581,,10.5295,-0.250233,0.0,0.0
2870,717.25,45.5672,47.6191,130.381,109.205,112.54,,0.0561815,,10.5395,-0.267773,0.0,0.0
2877,719,45.2729,47.2584,132.199,109.208,112.587,,,,10.5395,-0.271229,0.0,0.0
2884,720.75,44.8773,47.1107,130.913,109.191,113.394,,,,10.5395,-0.336205,0.0,0.0
2891,722.5,44.7435,47.0202,133.688,109.184,112.625,,,,10.5395,-0.276214,0.0,0.0
2898,724.25,45.4678,47.3065,126.386,109.166,112.653,,,,10.6195,-0.279948,0.0,0.0
2905,726,45.586,47.2749,127.466,109.163,112.486,,,,10.5695,-0.266925,0.0,0.0
2906,726.25,45.2511,47.142,133.231,109.165,112.5,,,,10.5695,-0.267879,0.0,0.0