File: 01_Data/Polyisocyanurate_Foam_Board/MCC/Polyisocyanurate_Foam_Board_MCC_30K_min_220211_R1.txt
Sample ID:	C:\MCC\MCC Cal\Test\Polyisocyanurate_Foam_Board_MCC_30K_min_220211_R1.txt
Sample Weight (mg):	4.6
Heating Rate (C/s):	0.5
Combustor Temp (C):	900
N2 Flow Rate (cc/min):	80
O2 Flow Rate (cc/min):	20
Calibration File:	C:\MCC\MCC Cal\Coeff1 JN10440_30_210304.txt.txt
T Correction Coefficients:	0	1.024463	0
Time Shift (s):	14
*
Time (s)	Temperature (C)	N2 flow rate (cc/min)	O2 flow rate (cc/min)	Flow Rate (cc/min)	Oxygen (%)	HRR (W/g)	Heating rate (C/s)
0.000	112.568	80.009	19.995	103.644	19.865	0.085	0.000
1.500	112.573	80.009	19.995	103.644	19.861	0.381	0.005
3.000	112.609	80.008	19.993	103.632	19.861	0.376	0.039
4.500	112.599	80.009	19.993	103.628	19.854	0.853	0.023
6.001	112.591	80.009	19.996	103.622	19.855	0.781	-0.012
7.500	112.578	80.008	19.995	103.621	19.852	1.001	-0.001
9.000	112.572	80.009	19.994	103.628	19.850	1.167	0.000
10.500	112.554	80.008	19.995	103.627	19.847	1.348	-0.007
12.000	112.621	80.010	19.996	103.630	19.844	1.531	0.055
13.500	112.601	80.010	19.993	103.650	19.842	1.661	-0.011
15.000	112.614	80.012	19.994	103.665	19.838	2.002	-0.000
16.500	112.599	80.010	19.994	103.690	19.831	2.467	-0.011
18.000	112.651	80.010	19.993	103.732	19.830	2.549	0.039
19.500	112.644	80.010	19.993	103.755	19.825	2.905	0.009
21.000	112.714	80.009	19.995	103.783	19.830	2.551	0.050
22.500	112.791	80.009	19.995	103.785	19.827	2.754	0.052
24.000	112.890	80.008	19.995	103.784	19.823	3.016	0.053
25.500	113.033	80.008	19.994	103.786	19.822	3.105	0.097
27.000	113.161	80.008	19.994	103.800	19.822	3.128	0.105
28.500	113.314	80.008	19.995	103.817	19.821	3.175	0.097
30.000	113.444	80.007	19.994	103.813	19.816	3.520	0.078
31.500	113.664	80.008	19.994	103.818	19.818	3.414	0.151
33.001	113.880	80.009	19.994	103.832	19.817	3.449	0.149
34.500	114.100	80.008	19.995	103.840	19.817	3.479	0.157
36.000	114.303	80.008	19.995	103.839	19.818	3.361	0.137
37.500	114.584	80.007	19.995	103.854	19.815	3.605	0.191
39.000	114.885	80.007	19.996	103.854	19.820	3.261	0.204
40.501	115.152	80.009	19.995	103.860	19.815	3.616	0.205
42.000	115.540	80.008	19.995	103.861	19.815	3.587	0.238
43.500	115.887	80.008	19.995	103.865	19.815	3.567	0.241
45.000	116.107	80.009	19.995	103.877	19.816	3.559	0.159
46.501	116.471	80.008	19.995	103.883	19.815	3.569	0.240
48.000	116.831	80.009	19.995	103.889	19.816	3.504	0.222
49.500	117.214	80.009	19.994	103.884	19.816	3.510	0.256
51.001	117.633	80.007	19.994	103.879	19.814	3.643	0.254
52.500	118.014	80.009	19.993	103.882	19.814	3.655	0.270
54.000	118.442	80.007	19.994	103.865	19.814	3.686	0.285
55.501	118.849	80.009	19.994	103.863	19.818	3.373	0.298
57.001	119.276	80.008	19.994	103.877	19.816	3.551	0.263
58.500	119.740	80.009	19.994	103.886	19.814	3.682	0.290
60.001	120.201	80.008	19.994	103.886	19.810	3.981	0.309
61.500	120.684	80.007	19.994	103.897	19.812	3.794	0.300
63.000	121.150	80.007	19.993	103.902	19.813	3.762	0.316
64.500	121.654	80.009	19.993	103.903	19.810	3.930	0.338
66.000	122.169	80.009	19.993	103.903	19.813	3.752	0.355
67.501	122.716	80.008	19.994	103.906	19.813	3.721	0.376
69.000	123.226	80.010	19.993	103.903	19.812	3.827	0.328
70.500	123.787	80.010	19.994	103.903	19.812	3.819	0.365
72.000	124.312	80.009	19.995	103.905	19.812	3.777	0.351
73.501	124.833	80.010	19.993	103.916	19.811	3.884	0.345
75.001	125.413	80.011	19.993	103.918	19.811	3.891	0.370
76.500	126.016	80.009	19.994	103.903	19.811	3.911	0.405
78.000	126.586	80.010	19.994	103.902	19.810	3.957	0.403
79.500	127.202	80.009	19.993	103.904	19.815	3.631	0.414
81.001	127.766	80.010	19.994	103.903	19.811	3.911	0.376
82.500	128.403	80.008	19.993	103.912	19.812	3.796	0.414
84.001	129.015	80.008	19.995	103.925	19.812	3.825	0.426
85.500	129.624	80.008	19.993	103.924	19.812	3.810	0.407
87.000	130.260	80.009	19.994	103.926	19.812	3.781	0.430
88.500	130.884	80.009	19.994	103.926	19.813	3.715	0.435
90.000	131.557	80.009	19.995	103.922	19.812	3.777	0.421
91.501	132.196	80.009	19.993	103.924	19.808	4.123	0.427
93.000	132.851	80.009	19.993	103.905	19.810	3.926	0.440
94.500	133.534	80.011	19.993	103.909	19.811	3.881	0.450
96.000	134.202	80.010	19.993	103.912	19.811	3.864	0.457
97.500	134.902	80.011	19.993	103.913	19.810	3.918	0.454
99.000	135.538	80.011	19.993	103.907	19.809	4.020	0.439
100.500	136.271	80.011	19.994	103.910	19.810	3.920	0.491
102.000	136.979	80.010	19.994	103.910	19.806	4.250	0.459
103.500	137.692	80.010	19.994	103.910	19.806	4.247	0.494
105.000	138.356	80.010	19.993	103.905	19.806	4.260	0.457
106.500	139.051	80.010	19.993	103.904	19.805	4.317	0.452
108.000	139.755	80.010	19.996	103.904	19.807	4.173	0.448
109.500	140.500	80.008	19.994	103.911	19.807	4.174	0.481
111.000	141.204	80.009	19.995	103.905	19.804	4.356	0.472
112.500	141.910	80.009	19.996	103.909	19.807	4.149	0.477
114.000	142.642	80.007	19.996	103.922	19.804	4.350	0.477
115.500	143.348	80.009	19.994	103.909	19.803	4.464	0.475
117.000	144.113	80.009	19.995	103.900	19.799	4.721	0.520
118.500	144.829	80.007	19.994	103.909	19.802	4.549	0.475
120.000	145.584	80.008	19.994	103.907	19.799	4.694	0.500
121.500	146.321	80.008	19.994	103.900	19.799	4.756	0.506
123.000	147.045	80.008	19.993	103.899	19.803	4.454	0.498
124.501	147.795	80.008	19.994	103.906	19.800	4.626	0.485
126.000	148.543	80.007	19.994	103.907	19.800	4.624	0.497
127.500	149.321	80.007	19.993	103.903	19.796	4.962	0.521
129.000	150.060	80.006	19.995	103.901	19.798	4.769	0.479
130.500	150.788	80.006	19.994	103.902	19.798	4.831	0.518
132.000	151.561	80.007	19.995	103.900	19.798	4.796	0.518
133.500	152.298	80.007	19.995	103.902	19.799	4.711	0.523
135.000	153.104	80.007	19.994	103.902	19.800	4.647	0.517
136.500	153.820	80.007	19.995	103.900	19.799	4.759	0.496
138.000	154.557	80.007	19.994	103.900	19.797	4.900	0.488
139.500	155.328	80.008	19.995	103.898	19.799	4.696	0.506
141.000	156.087	80.007	19.995	103.900	19.796	4.904	0.511
142.500	156.880	80.008	19.995	103.899	19.796	4.919	0.512
144.000	157.605	80.007	19.996	103.895	19.795	5.029	0.497
145.500	158.364	80.007	19.995	103.901	19.792	5.245	0.509
147.000	159.137	80.009	19.994	103.896	19.792	5.197	0.511
148.500	159.907	80.008	19.993	103.896	19.791	5.313	0.489
150.000	160.646	80.008	19.993	103.901	19.789	5.421	0.502
151.500	161.413	80.007	19.994	103.898	19.793	5.155	0.503
153.000	162.187	80.009	19.994	103.891	19.789	5.404	0.498
154.500	162.948	80.009	19.993	103.887	19.790	5.384	0.504
156.000	163.696	80.011	19.993	103.880	19.789	5.417	0.493
157.500	164.495	80.010	19.994	103.886	19.786	5.608	0.539
159.000	165.245	80.010	19.993	103.880	19.786	5.648	0.507
160.500	166.009	80.010	19.993	103.879	19.782	5.934	0.502
162.000	166.795	80.009	19.993	103.885	19.787	5.584	0.511
163.500	167.543	80.009	19.994	103.892	19.785	5.685	0.506
165.000	168.312	80.010	19.993	103.883	19.786	5.630	0.539
166.500	169.038	80.009	19.993	103.882	19.783	5.841	0.480
168.000	169.831	80.009	19.995	103.879	19.782	5.960	0.519
169.500	170.595	80.008	19.993	103.880	19.779	6.138	0.523
171.000	171.347	80.010	19.993	103.869	19.783	5.840	0.505
172.500	172.069	80.011	19.993	103.870	19.777	6.290	0.498
174.000	172.827	80.011	19.993	103.870	19.780	6.093	0.510
175.500	173.589	80.010	19.993	103.872	19.778	6.224	0.493
177.000	174.323	80.010	19.993	103.869	19.777	6.284	0.485
178.500	175.103	80.012	19.993	103.881	19.774	6.471	0.530
180.000	175.861	80.012	19.993	103.873	19.774	6.456	0.518
181.500	176.609	80.012	19.993	103.860	19.773	6.528	0.530
183.000	177.323	80.012	19.992	103.859	19.773	6.533	0.506
184.500	178.090	80.010	19.993	103.859	19.769	6.856	0.498
186.000	178.818	80.011	19.994	103.859	19.767	6.958	0.501
187.500	179.590	80.009	19.993	103.856	19.768	6.875	0.517
189.000	180.352	80.008	19.993	103.855	19.765	7.116	0.495
190.500	181.073	80.007	19.993	103.859	19.763	7.261	0.489
192.000	181.837	80.007	19.993	103.863	19.765	7.090	0.522
193.500	182.582	80.008	19.994	103.864	19.760	7.493	0.506
195.000	183.305	80.008	19.992	103.863	19.758	7.601	0.493
196.500	184.038	80.007	19.994	103.865	19.757	7.682	0.476
198.000	184.791	80.009	19.993	103.863	19.760	7.506	0.519
199.500	185.580	80.008	19.993	103.862	19.758	7.595	0.494
201.000	186.296	80.007	19.993	103.867	19.763	7.251	0.466
202.500	187.085	80.007	19.993	103.867	19.755	7.817	0.502
204.000	187.798	80.007	19.995	103.863	19.755	7.840	0.484
205.500	188.539	80.008	19.994	103.867	19.754	7.884	0.490
207.000	189.277	80.007	19.994	103.869	19.753	7.977	0.482
208.500	190.017	80.008	19.996	103.864	19.752	8.014	0.484
210.000	190.717	80.008	19.993	103.861	19.750	8.209	0.463
211.500	191.484	80.008	19.993	103.861	19.751	8.081	0.525
213.000	192.238	80.008	19.994	103.861	19.747	8.359	0.501
214.500	192.958	80.007	19.994	103.861	19.746	8.477	0.469
216.000	193.713	80.007	19.994	103.858	19.745	8.514	0.496
217.500	194.431	80.008	19.993	103.864	19.742	8.765	0.487
219.000	195.151	80.009	19.993	103.865	19.742	8.747	0.482
220.500	195.886	80.007	19.993	103.864	19.744	8.633	0.461
222.000	196.624	80.007	19.993	103.863	19.740	8.890	0.501
223.501	197.325	80.007	19.994	103.863	19.737	9.070	0.476
225.000	198.082	80.009	19.995	103.859	19.738	9.052	0.506
226.500	198.817	80.006	19.994	103.862	19.738	9.056	0.492
228.000	199.565	80.007	19.995	103.864	19.737	9.106	0.495
229.500	200.289	80.007	19.993	103.861	19.736	9.194	0.506
231.000	201.010	80.006	19.994	103.862	19.735	9.225	0.490
232.500	201.771	80.007	19.994	103.863	19.732	9.432	0.505
234.000	202.488	80.008	19.995	103.863	19.732	9.455	0.474
235.500	203.263	80.009	19.995	103.863	19.736	9.170	0.507
237.000	203.965	80.007	19.995	103.860	19.739	8.967	0.462
238.500	204.662	80.009	19.994	103.863	19.735	9.222	0.455
240.000	205.463	80.009	19.993	103.872	19.737	9.102	0.519
241.500	206.189	80.009	19.994	103.878	19.733	9.399	0.493
243.000	206.940	80.009	19.992	103.861	19.733	9.399	0.500
244.500	207.686	80.009	19.993	103.860	19.733	9.357	0.510
246.000	208.417	80.009	19.992	103.861	19.733	9.403	0.498
247.500	209.169	80.010	19.994	103.860	19.734	9.281	0.505
249.000	209.938	80.009	19.993	103.857	19.733	9.381	0.529
250.500	210.691	80.009	19.992	103.861	19.737	9.099	0.506
252.000	211.392	80.010	19.993	103.861	19.734	9.297	0.488
253.500	212.183	80.009	19.994	103.860	19.736	9.137	0.508
255.000	212.925	80.010	19.993	103.863	19.735	9.245	0.490
256.500	213.595	80.009	19.994	103.874	19.733	9.382	0.466
258.000	214.401	80.011	19.994	103.878	19.731	9.486	0.534
259.500	215.144	80.011	19.993	103.871	19.737	9.087	0.492
261.000	215.899	80.010	19.993	103.871	19.734	9.273	0.499
262.500	216.651	80.011	19.993	103.862	19.736	9.151	0.493
264.000	217.403	80.010	19.995	103.864	19.736	9.143	0.511
265.500	218.139	80.010	19.993	103.865	19.735	9.228	0.497
267.000	218.940	80.011	19.994	103.863	19.737	9.080	0.516
268.500	219.616	80.010	19.994	103.862	19.739	8.962	0.474
270.000	220.373	80.010	19.994	103.862	19.735	9.207	0.501
271.500	221.126	80.008	19.994	103.868	19.740	8.852	0.488
273.000	221.860	80.009	19.993	103.866	19.735	9.252	0.483
274.500	222.618	80.008	19.993	103.861	19.738	9.038	0.517
276.000	223.381	80.008	19.994	103.865	19.735	9.211	0.520
277.500	224.120	80.009	19.993	103.867	19.737	9.089	0.502
279.000	224.883	80.007	19.993	103.864	19.737	9.097	0.507
280.500	225.592	80.009	19.992	103.864	19.738	8.999	0.490
282.000	226.381	80.006	19.992	103.867	19.735	9.201	0.530
283.500	227.111	80.008	19.994	103.870	19.737	9.120	0.471
285.000	227.862	80.008	19.993	103.869	19.737	9.095	0.492
286.500	228.623	80.007	19.993	103.871	19.739	8.980	0.504
288.000	229.397	80.009	19.992	103.868	19.736	9.153	0.497
289.500	230.122	80.008	19.993	103.863	19.735	9.264	0.484
291.000	230.883	80.009	19.994	103.846	19.735	9.263	0.481
292.500	231.586	80.008	19.993	103.809	19.732	9.446	0.483
294.000	232.351	80.009	19.993	103.838	19.733	9.386	0.509
295.500	233.093	80.009	19.994	103.898	19.734	9.309	0.502
297.000	233.823	80.008	19.994	103.895	19.733	9.389	0.501
298.500	234.554	80.009	19.993	103.825	19.733	9.388	0.492
300.000	235.337	80.008	19.995	103.894	19.731	9.549	0.492
301.500	236.023	80.007	19.995	103.892	19.731	9.536	0.483
303.000	236.888	80.007	19.994	103.866	19.736	9.168	0.587
304.500	237.505	80.010	19.995	103.866	19.734	9.331	0.431
306.000	238.309	80.007	19.996	103.866	19.731	9.512	0.526
307.500	239.007	80.008	19.994	103.867	19.734	9.285	0.465
309.000	239.725	80.007	19.994	103.885	19.728	9.757	0.476
310.500	240.513	80.007	19.995	103.892	19.725	9.923	0.528
312.000	241.210	80.007	19.994	103.883	19.723	10.064	0.468
313.500	241.961	80.008	19.994	103.880	19.726	9.893	0.506
315.000	242.722	80.009	19.994	103.880	19.723	10.070	0.522
316.500	243.474	80.008	19.994	103.872	19.726	9.847	0.496
318.000	244.259	80.009	19.994	103.878	19.726	9.897	0.516
319.500	244.983	80.009	19.994	103.869	19.722	10.126	0.484
321.000	245.734	80.010	19.994	103.868	19.721	10.208	0.495
322.500	246.481	80.011	19.996	103.872	19.721	10.225	0.509
324.000	247.219	80.009	19.996	103.870	19.719	10.376	0.460
325.500	247.943	80.010	19.995	103.868	19.718	10.439	0.456
327.000	248.674	80.008	19.994	103.861	19.711	10.952	0.491
328.500	249.497	80.009	19.995	103.874	19.712	10.827	0.540
330.000	250.290	80.009	19.996	103.893	19.713	10.821	0.532
331.500	251.058	80.008	19.995	103.887	19.713	10.802	0.520
333.000	251.764	80.008	19.996	103.876	19.708	11.126	0.483
334.500	252.480	80.008	19.994	103.877	19.707	11.218	0.492
336.000	253.349	80.010	19.993	103.884	19.705	11.371	0.551
337.500	254.037	80.009	19.994	103.890	19.706	11.309	0.452
339.000	254.808	80.010	19.993	103.875	19.700	11.734	0.541
340.500	255.582	80.010	19.994	103.884	19.701	11.616	0.510
342.000	256.323	80.009	19.994	103.892	19.698	11.819	0.482
343.500	257.090	80.010	19.993	103.887	19.695	12.052	0.491
345.000	257.842	80.011	19.993	103.895	19.691	12.338	0.510
346.501	258.622	80.010	19.993	103.904	19.688	12.554	0.537
348.000	259.359	80.011	19.993	103.904	19.694	12.147	0.517
349.500	260.145	80.011	19.992	103.903	19.686	12.682	0.509
351.000	260.859	80.010	19.993	103.903	19.683	12.912	0.476
352.500	261.598	80.010	19.992	103.903	19.679	13.177	0.480
354.000	262.360	80.009	19.993	103.903	19.682	12.973	0.510
355.500	263.139	80.008	19.993	103.905	19.676	13.367	0.511
357.000	263.967	80.009	19.992	103.904	19.669	13.873	0.559
358.500	264.644	80.009	19.993	103.900	19.669	13.896	0.464
360.000	265.387	80.008	19.993	103.900	19.670	13.821	0.509
361.500	266.164	80.008	19.993	103.902	19.660	14.495	0.504
363.000	266.880	80.009	19.994	103.906	19.655	14.845	0.501
364.500	267.664	80.009	19.993	103.912	19.652	15.069	0.535
366.000	268.456	80.009	19.995	103.910	19.653	15.042	0.521
367.500	269.237	80.009	19.994	103.912	19.652	15.066	0.545
369.000	269.941	80.008	19.994	103.913	19.644	15.634	0.459
370.500	270.770	80.010	19.993	103.918	19.639	16.016	0.517
372.000	271.475	80.010	19.994	103.927	19.637	16.167	0.466
373.500	272.261	80.010	19.993	103.939	19.631	16.542	0.545
375.000	273.074	80.009	19.993	103.935	19.629	16.737	0.539
376.500	273.775	80.009	19.993	103.935	19.626	16.910	0.475
378.000	274.544	80.010	19.993	103.936	19.622	17.233	0.530
379.500	275.321	80.010	19.993	103.938	19.617	17.534	0.503
381.000	276.052	80.009	19.993	103.939	19.614	17.787	0.494
382.500	276.812	80.011	19.994	103.939	19.612	17.924	0.513
384.000	277.518	80.009	19.994	103.942	19.601	18.697	0.470
385.500	278.315	80.009	19.995	103.949	19.600	18.790	0.513
387.000	279.077	80.009	19.995	103.946	19.594	19.155	0.513
388.500	279.851	80.007	19.995	103.947	19.590	19.482	0.518
390.000	280.602	80.008	19.993	103.956	19.585	19.814	0.487
391.500	281.306	80.007	19.995	103.953	19.580	20.173	0.466
393.000	282.097	80.006	19.994	103.966	19.577	20.375	0.525
394.500	282.860	80.009	19.994	103.979	19.576	20.466	0.519
396.000	283.593	80.006	19.993	103.981	19.572	20.747	0.491
397.500	284.344	80.008	19.993	103.980	19.569	20.985	0.524
399.000	285.110	80.009	19.993	103.982	19.561	21.524	0.515
400.500	285.855	80.010	19.993	103.985	19.556	21.846	0.489
402.000	286.591	80.010	19.994	103.980	19.548	22.459	0.488
403.500	287.339	80.009	19.994	103.984	19.537	23.215	0.507
405.000	288.090	80.010	19.993	103.982	19.531	23.642	0.488
406.500	288.855	80.009	19.993	103.994	19.525	24.045	0.524
408.000	289.651	80.011	19.993	104.002	19.516	24.678	0.510
409.500	290.469	80.009	19.993	104.006	19.507	25.314	0.552
411.000	291.200	80.009	19.993	104.014	19.494	26.226	0.505
412.500	291.931	80.008	19.994	104.014	19.489	26.589	0.506
414.000	292.699	80.009	19.994	104.021	19.477	27.434	0.504
415.500	293.400	80.008	19.994	104.025	19.470	27.972	0.463
417.000	294.229	80.007	19.994	104.020	19.454	29.060	0.578
418.500	294.961	80.008	19.995	104.021	19.445	29.686	0.520
420.000	295.738	80.010	19.993	104.023	19.433	30.521	0.519
421.500	296.484	80.009	19.994	104.022	19.416	31.732	0.497
423.000	297.197	80.009	19.995	104.020	19.404	32.563	0.473
424.500	297.943	80.010	19.993	104.017	19.391	33.517	0.505
426.000	298.686	80.010	19.993	104.015	19.374	34.723	0.516
427.500	299.449	80.011	19.994	104.017	19.361	35.606	0.509
429.000	300.233	80.011	19.994	104.016	19.346	36.679	0.512
430.500	300.983	80.010	19.993	104.014	19.332	37.693	0.486
432.000	301.706	80.010	19.995	104.013	19.319	38.595	0.475
433.500	302.483	80.010	19.993	104.012	19.301	39.857	0.520
435.000	303.220	80.011	19.993	104.008	19.288	40.784	0.518
436.500	303.993	80.010	19.994	104.009	19.272	41.907	0.530
438.000	304.751	80.009	19.993	104.003	19.260	42.719	0.514
439.500	305.505	80.009	19.994	103.996	19.249	43.495	0.512
441.000	306.278	80.010	19.994	103.989	19.234	44.546	0.500
442.500	307.068	80.010	19.994	103.979	19.222	45.421	0.515
444.000	307.795	80.010	19.995	103.979	19.215	45.910	0.496
445.500	308.577	80.010	19.994	103.978	19.210	46.269	0.525
447.000	309.304	80.010	19.995	103.978	19.207	46.486	0.488
448.500	310.084	80.009	19.994	103.976	19.198	47.100	0.498
450.000	310.845	80.010	19.994	103.968	19.195	47.339	0.516
451.500	311.665	80.009	19.994	103.975	19.194	47.365	0.525
453.000	312.425	80.010	19.993	103.970	19.194	47.349	0.522
454.500	313.219	80.009	19.994	103.952	19.192	47.513	0.512
456.000	313.928	80.009	19.994	103.958	19.190	47.674	0.482
457.500	314.723	80.010	19.992	103.947	19.191	47.584	0.535
459.000	315.523	80.009	19.994	103.937	19.197	47.180	0.538
460.500	316.279	80.009	19.994	103.940	19.199	46.994	0.528
462.000	317.038	80.008	19.993	103.943	19.201	46.904	0.507
463.500	317.821	80.009	19.993	103.943	19.209	46.294	0.533
465.000	318.611	80.008	19.992	103.937	19.212	46.133	0.539
466.500	319.410	80.008	19.993	103.923	19.216	45.839	0.538
468.000	320.125	80.008	19.993	103.916	19.221	45.442	0.487
469.500	320.866	80.009	19.995	103.923	19.229	44.912	0.492
471.000	321.649	80.007	19.995	103.938	19.231	44.749	0.515
472.500	322.431	80.008	19.994	103.936	19.243	43.923	0.513
474.000	323.157	80.009	19.992	103.930	19.246	43.671	0.479
475.500	323.951	80.009	19.992	103.932	19.255	43.093	0.524
477.000	324.692	80.008	19.994	103.931	19.263	42.534	0.495
478.500	325.494	80.008	19.993	103.930	19.267	42.250	0.512
480.000	326.279	80.009	19.992	103.924	19.275	41.632	0.536
481.500	327.008	80.010	19.993	103.913	19.282	41.165	0.487
483.000	327.782	80.009	19.994	103.908	19.287	40.778	0.505
484.500	328.534	80.011	19.993	103.904	19.293	40.398	0.495
486.000	329.309	80.010	19.993	103.903	19.304	39.578	0.516
487.500	330.094	80.010	19.993	103.900	19.307	39.357	0.546
489.000	330.846	80.010	19.993	103.901	19.316	38.743	0.498
490.500	331.620	80.009	19.994	103.900	19.327	37.980	0.517
492.000	332.388	80.010	19.993	103.893	19.334	37.490	0.519
493.500	333.151	80.009	19.995	103.877	19.343	36.843	0.512
495.000	333.889	80.009	19.995	103.871	19.353	36.115	0.478
496.500	334.686	80.009	19.994	103.866	19.359	35.716	0.527
498.000	335.409	80.009	19.995	103.862	19.370	34.974	0.481
499.500	336.171	80.009	19.995	103.863	19.378	34.351	0.511
501.000	336.904	80.009	19.993	103.863	19.387	33.739	0.499
502.500	337.711	80.009	19.992	103.862	19.396	33.116	0.522
504.000	338.469	80.009	19.994	103.861	19.405	32.500	0.497
505.500	339.145	80.009	19.994	103.859	19.410	32.124	0.466
507.000	339.960	80.010	19.995	103.860	19.418	31.572	0.544
508.500	340.682	80.011	19.993	103.859	19.426	31.022	0.506
510.000	341.445	80.011	19.994	103.857	19.434	30.406	0.515
511.500	342.183	80.010	19.993	103.857	19.441	29.931	0.507
513.000	342.919	80.010	19.993	103.851	19.445	29.621	0.484
514.500	343.672	80.010	19.994	103.830	19.452	29.176	0.484
516.000	344.410	80.010	19.994	103.829	19.453	29.124	0.509
517.500	345.146	80.010	19.996	103.827	19.460	28.598	0.486
519.000	345.906	80.009	19.994	103.832	19.462	28.455	0.490
520.500	346.643	80.007	19.995	103.830	19.463	28.370	0.491
522.000	347.418	80.008	19.995	103.839	19.467	28.081	0.534
523.500	348.189	80.009	19.996	103.829	19.468	28.039	0.510
525.000	348.905	80.007	19.995	103.823	19.470	27.861	0.468
526.500	349.648	80.008	19.994	103.838	19.471	27.845	0.501
528.000	350.383	80.008	19.996	103.850	19.469	27.971	0.502
529.500	351.133	80.007	19.994	103.848	19.470	27.878	0.505
531.000	351.906	80.008	19.995	103.845	19.469	27.986	0.501
532.500	352.658	80.007	19.993	103.838	19.469	27.975	0.479
534.000	353.441	80.007	19.993	103.830	19.466	28.178	0.527
535.500	354.224	80.009	19.993	103.833	19.463	28.361	0.540
537.000	354.980	80.007	19.994	103.841	19.461	28.543	0.499
538.500	355.729	80.008	19.993	103.845	19.460	28.599	0.519
540.000	356.448	80.009	19.993	103.841	19.457	28.823	0.481
541.500	357.218	80.009	19.992	103.833	19.462	28.457	0.513
543.000	357.976	80.010	19.994	103.835	19.459	28.655	0.504
544.500	358.735	80.008	19.992	103.839	19.459	28.679	0.527
546.000	359.450	80.009	19.992	103.833	19.457	28.809	0.486
547.500	360.239	80.010	19.992	103.844	19.457	28.838	0.509
549.000	360.954	80.008	19.993	103.848	19.454	29.012	0.464
550.500	361.733	80.009	19.993	103.851	19.456	28.884	0.486
552.000	362.489	80.009	19.993	103.851	19.457	28.838	0.499
553.500	363.255	80.007	19.994	103.842	19.459	28.685	0.504
555.000	363.992	80.009	19.993	103.829	19.458	28.767	0.513
556.500	364.783	80.008	19.994	103.828	19.457	28.830	0.511
558.000	365.534	80.008	19.994	103.837	19.454	29.049	0.520
559.500	366.263	80.008	19.995	103.847	19.456	28.871	0.509
561.000	367.004	80.010	19.994	103.850	19.457	28.812	0.486
562.500	367.796	80.010	19.994	103.837	19.461	28.544	0.537
564.000	368.548	80.010	19.995	103.828	19.459	28.676	0.491
565.500	369.348	80.009	19.994	103.843	19.464	28.347	0.538
567.000	370.100	80.011	19.994	103.833	19.465	28.256	0.520
568.500	370.842	80.011	19.993	103.835	19.463	28.387	0.485
570.000	371.577	80.011	19.992	103.835	19.465	28.248	0.468
571.500	372.343	80.011	19.993	103.834	19.465	28.264	0.524
573.000	373.118	80.011	19.993	103.829	19.468	28.069	0.504
574.500	373.902	80.011	19.993	103.824	19.468	28.044	0.504
576.000	374.643	80.010	19.993	103.832	19.471	27.841	0.516
577.500	375.396	80.011	19.993	103.827	19.471	27.853	0.513
579.000	376.158	80.010	19.994	103.823	19.475	27.575	0.492
580.500	376.922	80.010	19.993	103.824	19.478	27.320	0.519
582.000	377.671	80.009	19.994	103.825	19.479	27.243	0.521
583.500	378.432	80.009	19.994	103.830	19.478	27.346	0.503
585.000	379.176	80.010	19.994	103.836	19.481	27.098	0.494
586.500	379.943	80.009	19.993	103.834	19.480	27.206	0.513
588.000	380.709	80.010	19.994	103.837	19.481	27.086	0.538
589.500	381.453	80.009	19.994	103.830	19.485	26.810	0.501
591.000	382.228	80.009	19.994	103.831	19.487	26.712	0.517
592.500	382.967	80.011	19.993	103.824	19.486	26.767	0.510
594.000	383.743	80.010	19.993	103.824	19.489	26.541	0.515
595.500	384.491	80.011	19.993	103.824	19.484	26.915	0.491
597.000	385.263	80.011	19.994	103.830	19.490	26.518	0.499
598.500	386.027	80.010	19.992	103.833	19.486	26.780	0.500
600.000	386.830	80.010	19.994	103.828	19.485	26.863	0.537
601.501	387.563	80.011	19.993	103.826	19.485	26.809	0.506
603.000	388.337	80.009	19.994	103.825	19.486	26.736	0.511
604.500	389.069	80.008	19.993	103.826	19.486	26.742	0.490
606.000	389.820	80.009	19.994	103.824	19.485	26.821	0.517
607.500	390.606	80.008	19.993	103.824	19.487	26.670	0.512
609.000	391.353	80.008	19.994	103.824	19.489	26.522	0.499
610.500	392.153	80.008	19.994	103.826	19.487	26.693	0.537
612.000	392.873	80.006	19.996	103.826	19.488	26.626	0.491
613.500	393.653	80.006	19.994	103.825	19.488	26.606	0.519
615.000	394.419	80.007	19.994	103.824	19.489	26.531	0.477
616.500	395.164	80.007	19.993	103.825	19.492	26.375	0.511
618.000	395.966	80.007	19.994	103.826	19.489	26.538	0.524
619.500	396.700	80.008	19.995	103.827	19.492	26.352	0.489
621.000	397.491	80.008	19.994	103.825	19.494	26.197	0.514
622.500	398.196	80.008	19.994	103.819	19.497	25.999	0.469
624.000	398.999	80.009	19.996	103.817	19.496	26.036	0.546
625.500	399.722	80.008	19.996	103.823	19.495	26.125	0.501
627.000	400.500	80.010	19.994	103.819	19.496	26.055	0.502
628.500	401.281	80.008	19.995	103.818	19.496	26.056	0.505
630.000	402.026	80.008	19.994	103.819	19.495	26.111	0.508
631.500	402.784	80.008	19.994	103.816	19.497	26.002	0.497
633.000	403.538	80.007	19.995	103.817	19.498	25.933	0.509
634.500	404.304	80.009	19.994	103.817	19.497	25.967	0.510
636.000	405.051	80.010	19.994	103.819	19.502	25.627	0.522
637.500	405.775	80.008	19.994	103.817	19.506	25.385	0.498
639.000	406.530	80.008	19.993	103.820	19.504	25.513	0.496
640.500	407.307	80.009	19.994	103.827	19.506	25.354	0.502
642.000	408.035	80.008	19.993	103.821	19.512	24.909	0.488
643.500	408.813	80.009	19.993	103.815	19.511	25.033	0.508
645.000	409.550	80.009	19.993	103.822	19.513	24.870	0.499
646.500	410.297	80.010	19.992	103.816	19.514	24.790	0.491
648.000	411.085	80.011	19.995	103.813	19.518	24.532	0.522
649.500	411.815	80.011	19.994	103.819	19.521	24.275	0.493
651.000	412.596	80.011	19.992	103.811	19.522	24.249	0.527
652.500	413.353	80.010	19.994	103.800	19.521	24.265	0.498
654.000	414.107	80.010	19.993	103.801	19.522	24.203	0.511
655.500	414.867	80.011	19.993	103.797	19.525	24.045	0.494
657.000	415.626	80.010	19.994	103.795	19.526	23.950	0.501
658.500	416.355	80.010	19.993	103.801	19.528	23.788	0.494
660.000	417.087	80.010	19.994	103.795	19.529	23.741	0.486
661.500	417.877	80.011	19.992	103.799	19.530	23.659	0.537
663.000	418.618	80.009	19.992	103.793	19.533	23.451	0.487
664.500	419.415	80.011	19.993	103.794	19.533	23.418	0.508
666.000	420.157	80.010	19.993	103.797	19.536	23.267	0.489
667.500	420.944	80.011	19.993	103.792	19.538	23.114	0.508
669.000	421.661	80.011	19.992	103.800	19.538	23.077	0.502
670.500	422.432	80.010	19.993	103.795	19.538	23.091	0.540
672.000	423.181	80.011	19.992	103.786	19.543	22.722	0.507
673.500	423.942	80.011	19.994	103.790	19.541	22.920	0.508
675.000	424.688	80.011	19.991	103.803	19.541	22.921	0.489
676.501	425.472	80.012	19.994	103.802	19.540	22.990	0.533
678.000	426.230	80.011	19.993	103.808	19.543	22.722	0.511
679.500	426.920	80.010	19.992	103.811	19.541	22.903	0.489
681.000	427.761	80.010	19.993	103.817	19.540	22.953	0.527
682.500	428.547	80.010	19.993	103.811	19.542	22.828	0.508
684.001	429.267	80.009	19.995	103.817	19.542	22.784	0.470
685.500	430.081	80.009	19.994	103.817	19.551	22.184	0.534
687.000	430.811	80.008	19.993	103.814	19.552	22.097	0.444
688.500	431.495	80.008	19.996	103.807	19.551	22.156	0.435
690.000	432.363	80.008	19.995	103.800	19.553	22.055	0.532
691.500	432.966	80.009	19.993	103.795	19.554	21.971	0.486
693.000	433.946	80.008	19.994	103.789	19.555	21.882	0.551
694.500	434.313	80.008	19.995	103.789	19.557	21.789	0.395
696.000	435.663	80.008	19.993	103.788	19.551	22.168	1.095
697.500	436.371	80.009	19.994	103.787	19.555	21.888	0.502
699.000	436.789	80.009	19.993	103.782	19.559	21.602	0.436
700.500	437.694	80.010	19.993	103.785	19.560	21.549	0.637
702.000	438.492	80.009	19.993	103.792	19.558	21.660	0.495
703.500	439.220	80.008	19.993	103.796	19.558	21.711	0.433
705.000	439.946	80.009	19.994	103.789	19.558	21.702	0.485
706.500	440.708	80.009	19.994	103.792	19.558	21.689	0.543
708.000	441.519	80.008	19.995	103.789	19.558	21.704	0.531
709.500	442.179	80.008	19.995	103.797	19.556	21.822	0.474
711.000	442.996	80.008	19.995	103.805	19.558	21.686	0.537
712.500	443.784	80.008	19.995	103.803	19.556	21.797	0.528
714.000	444.503	80.009	19.994	103.796	19.558	21.714	0.479
715.500	445.325	80.008	19.996	103.791	19.558	21.668	0.544
717.000	446.082	80.007	19.994	103.790	19.557	21.789	0.481
718.500	446.780	80.009	19.993	103.787	19.555	21.935	0.494
720.000	447.579	80.009	19.995	103.798	19.553	22.017	0.519
721.500	448.313	80.008	19.995	103.802	19.552	22.124	0.503
723.000	449.096	80.008	19.995	103.804	19.550	22.282	0.510
724.500	449.882	80.008	19.993	103.793	19.546	22.513	0.491
726.000	450.566	80.009	19.993	103.789	19.544	22.675	0.490
727.500	451.351	80.007	19.993	103.802	19.544	22.707	0.520
729.000	452.159	80.008	19.995	103.815	19.542	22.821	0.545
730.501	452.925	80.009	19.993	103.812	19.540	22.953	0.493
732.000	453.659	80.009	19.992	103.804	19.539	22.997	0.506
733.500	454.379	80.011	19.993	103.790	19.538	23.134	0.473
735.000	455.185	80.012	19.994	103.788	19.534	23.369	0.514
736.500	455.913	80.010	19.992	103.804	19.533	23.445	0.476
738.000	456.659	80.011	19.994	103.806	19.530	23.671	0.510
739.500	457.450	80.009	19.993	103.809	19.526	23.968	0.512
741.000	458.199	80.009	19.992	103.806	19.525	24.021	0.533
742.500	458.951	80.009	19.993	103.805	19.523	24.134	0.499
744.000	459.738	80.009	19.995	103.807	19.522	24.255	0.537
745.500	460.510	80.010	19.994	103.815	19.522	24.213	0.492
747.000	461.259	80.009	19.995	103.815	19.520	24.397	0.519
748.500	462.010	80.008	19.993	103.812	19.520	24.384	0.499
750.000	462.768	80.009	19.993	103.819	19.516	24.653	0.490
751.500	463.578	80.008	19.993	103.818	19.516	24.680	0.533
753.000	464.321	80.010	19.993	103.822	19.510	25.090	0.485
754.500	465.030	80.010	19.993	103.811	19.511	25.001	0.485
756.000	465.802	80.010	19.993	103.809	19.510	25.099	0.497
757.500	466.580	80.012	19.994	103.821	19.507	25.299	0.508
759.000	467.366	80.013	19.993	103.818	19.502	25.617	0.536
760.500	468.129	80.012	19.993	103.813	19.505	25.410	0.519
762.000	468.893	80.012	19.994	103.815	19.503	25.594	0.515
763.500	469.666	80.013	19.993	103.800	19.499	25.875	0.527
765.000	470.445	80.010	19.993	103.785	19.497	25.986	0.518
766.500	471.198	80.010	19.993	103.796	19.497	25.956	0.502
768.000	471.961	80.010	19.992	103.794	19.495	26.154	0.498
769.500	472.678	80.009	19.994	103.803	19.496	26.024	0.468
771.000	473.481	80.009	19.994	103.802	19.495	26.134	0.533
772.500	474.268	80.009	19.993	103.800	19.495	26.100	0.509
774.000	475.064	80.010	19.993	103.813	19.494	26.177	0.539
775.500	475.838	80.009	19.994	103.819	19.497	25.961	0.505
777.000	476.638	80.008	19.995	103.819	19.493	26.260	0.527
778.500	477.411	80.009	19.994	103.803	19.496	26.076	0.541
780.000	478.158	80.009	19.994	103.801	19.498	25.917	0.490
781.500	478.928	80.010	19.995	103.807	19.497	26.017	0.520
783.000	479.715	80.009	19.996	103.794	19.498	25.949	0.505
784.500	480.505	80.007	19.994	103.804	19.499	25.846	0.521
786.000	481.325	80.010	19.994	103.820	19.499	25.833	0.533
787.500	482.093	80.008	19.995	103.819	19.500	25.811	0.506
789.000	482.896	80.010	19.993	103.811	19.504	25.523	0.532
790.500	483.659	80.009	19.994	103.815	19.503	25.587	0.528
792.000	484.447	80.008	19.993	103.815	19.505	25.389	0.517
793.500	485.222	80.009	19.992	103.815	19.507	25.295	0.525
795.000	486.010	80.008	19.992	103.820	19.509	25.110	0.530
796.500	486.788	80.009	19.994	103.811	19.510	25.075	0.516
798.000	487.548	80.008	19.993	103.817	19.510	25.063	0.483
799.500	488.336	80.008	19.993	103.815	19.514	24.821	0.513
801.000	489.075	80.007	19.994	103.808	19.512	24.900	0.503
802.500	489.872	80.008	19.993	103.800	19.518	24.528	0.526
804.000	490.694	80.007	19.996	103.801	19.521	24.307	0.530
805.500	491.428	80.005	19.996	103.812	19.521	24.263	0.495
807.000	492.222	80.007	19.994	103.816	19.526	23.927	0.532
808.500	493.006	80.008	19.994	103.800	19.528	23.786	0.547
810.000	493.782	80.008	19.995	103.807	19.530	23.642	0.514
811.500	494.565	80.008	19.995	103.800	19.534	23.344	0.538
813.000	495.344	80.009	19.994	103.799	19.537	23.161	0.518
814.501	496.084	80.010	19.994	103.791	19.539	23.007	0.496
816.000	496.924	80.009	19.994	103.796	19.544	22.671	0.557
817.500	497.683	80.009	19.994	103.813	19.546	22.508	0.504
819.000	498.434	80.009	19.993	103.808	19.548	22.383	0.475
820.500	499.255	80.012	19.993	103.795	19.552	22.137	0.522
822.000	499.981	80.010	19.993	103.794	19.551	22.212	0.469
823.500	500.763	80.011	19.993	103.791	19.557	21.778	0.527
825.000	501.534	80.010	19.993	103.794	19.559	21.587	0.506
826.500	502.320	80.010	19.994	103.784	19.562	21.404	0.533
828.000	503.078	80.011	19.994	103.787	19.564	21.278	0.522
829.500	503.882	80.010	19.994	103.802	19.569	20.941	0.532
831.000	504.629	80.009	19.994	103.804	19.571	20.785	0.500
832.500	505.438	80.009	19.994	103.808	19.576	20.425	0.551
834.000	506.160	80.009	19.994	103.813	19.579	20.196	0.498
835.500	506.949	80.011	19.994	103.814	19.583	19.928	0.538
837.000	507.675	80.012	19.993	103.797	19.588	19.592	0.481
838.500	508.461	80.011	19.994	103.791	19.591	19.385	0.519
840.000	509.219	80.012	19.994	103.786	19.593	19.201	0.497
841.500	510.008	80.012	19.994	103.783	19.596	19.040	0.530
843.000	510.764	80.011	19.994	103.781	19.597	18.941	0.505
844.500	511.558	80.012	19.995	103.780	19.600	18.725	0.513
846.000	512.320	80.013	19.993	103.781	19.606	18.316	0.519
847.500	513.026	80.010	19.993	103.784	19.609	18.077	0.452
849.000	513.881	80.013	19.993	103.788	19.605	18.361	0.551
850.500	514.664	80.012	19.993	103.781	19.614	17.711	0.529
852.000	515.450	80.010	19.993	103.777	19.614	17.737	0.527
853.500	516.237	80.009	19.993	103.780	19.617	17.535	0.538
855.001	517.051	80.011	19.995	103.783	19.619	17.397	0.521
856.500	517.817	80.011	19.992	103.784	19.621	17.267	0.533
858.000	518.575	80.010	19.992	103.785	19.626	16.885	0.513
859.500	519.305	80.010	19.993	103.785	19.623	17.092	0.505
861.000	520.086	80.009	19.993	103.786	19.626	16.889	0.510
862.500	520.895	80.010	19.993	103.782	19.629	16.692	0.507
864.000	521.663	80.009	19.995	103.784	19.631	16.572	0.520
865.500	522.394	80.009	19.994	103.786	19.634	16.328	0.486
867.000	523.193	80.010	19.995	103.782	19.635	16.266	0.515
868.500	523.934	80.010	19.994	103.782	19.636	16.230	0.486
870.000	524.703	80.009	19.994	103.783	19.639	15.975	0.495
871.501	525.431	80.007	19.994	103.783	19.639	16.009	0.499
873.000	526.197	80.008	19.994	103.784	19.646	15.495	0.516
874.500	526.961	80.010	19.994	103.781	19.644	15.659	0.523
876.000	527.714	80.008	19.994	103.782	19.647	15.446	0.501
877.500	528.470	80.008	19.994	103.785	19.645	15.548	0.504
879.000	529.246	80.008	19.995	103.786	19.649	15.313	0.526
880.500	529.976	80.009	19.993	103.785	19.654	14.955	0.489
882.000	530.758	80.010	19.995	103.781	19.653	15.009	0.508
883.500	531.572	80.008	19.994	103.783	19.656	14.809	0.536
885.000	532.344	80.008	19.994	103.785	19.657	14.711	0.520
886.500	533.109	80.009	19.994	103.783	19.659	14.541	0.509
888.000	533.912	80.009	19.995	103.778	19.659	14.586	0.539
889.500	534.633	80.009	19.994	103.780	19.658	14.670	0.493
891.000	535.432	80.008	19.993	103.772	19.663	14.316	0.561
892.500	536.220	80.010	19.994	103.770	19.661	14.427	0.507
894.000	536.959	80.010	19.994	103.762	19.661	14.430	0.505
895.500	537.765	80.010	19.994	103.769	19.662	14.332	0.534
897.000	538.498	80.011	19.993	103.777	19.661	14.439	0.494
898.500	539.308	80.009	19.994	103.773	19.663	14.274	0.537
900.000	540.019	80.011	19.995	103.770	19.663	14.278	0.460
901.500	540.811	80.010	19.994	103.780	19.664	14.188	0.529
903.000	541.582	80.010	19.995	103.778	19.667	14.036	0.516
904.500	542.379	80.010	19.996	103.775	19.669	13.897	0.500
906.000	543.178	80.010	19.995	103.770	19.668	13.919	0.525
907.500	543.944	80.010	19.994	103.775	19.666	14.085	0.506
909.000	544.696	80.010	19.995	103.778	19.666	14.054	0.477
910.500	545.473	80.011	19.994	103.765	19.668	13.966	0.518
912.000	546.240	80.011	19.995	103.761	19.664	14.192	0.505
913.500	547.000	80.009	19.994	103.772	19.669	13.891	0.511
915.000	547.803	80.010	19.994	103.777	19.666	14.055	0.522
916.500	548.591	80.010	19.994	103.771	19.665	14.123	0.529
918.000	549.372	80.011	19.993	103.765	19.669	13.897	0.516
919.500	550.136	80.011	19.994	103.773	19.667	14.018	0.501
921.000	550.900	80.011	19.994	103.759	19.665	14.183	0.524
922.500	551.692	80.012	19.993	103.760	19.664	14.237	0.519
924.000	552.462	80.011	19.995	103.774	19.665	14.141	0.504
925.500	553.260	80.013	19.993	103.778	19.667	13.990	0.540
927.000	554.018	80.011	19.993	103.779	19.670	13.834	0.514
928.500	554.777	80.012	19.993	103.780	19.670	13.813	0.494
930.000	555.573	80.011	19.993	103.777	19.666	14.107	0.537
931.500	556.371	80.011	19.993	103.783	19.670	13.822	0.537
933.000	557.141	80.011	19.993	103.783	19.668	13.938	0.499
934.500	557.877	80.010	19.994	103.779	19.667	14.021	0.511
936.000	558.651	80.008	19.993	103.768	19.668	13.974	0.526
937.500	559.427	80.009	19.994	103.775	19.667	13.979	0.516
939.000	560.261	80.010	19.993	103.782	19.670	13.808	0.564
940.500	560.997	80.008	19.993	103.781	19.670	13.816	0.514
942.000	561.785	80.009	19.993	103.777	19.671	13.753	0.534
943.500	562.580	80.009	19.993	103.783	19.671	13.727	0.538
945.000	563.349	80.010	19.994	103.779	19.669	13.877	0.509
946.500	564.112	80.010	19.993	103.779	19.672	13.637	0.523
948.000	564.899	80.009	19.993	103.774	19.674	13.554	0.518
949.500	565.678	80.009	19.993	103.776	19.675	13.479	0.496
951.000	566.446	80.010	19.993	103.779	19.675	13.467	0.521
952.500	567.238	80.010	19.994	103.773	19.674	13.547	0.523
954.000	567.977	80.010	19.993	103.764	19.672	13.638	0.513
955.501	568.788	80.011	19.993	103.773	19.673	13.584	0.533
957.000	569.517	80.010	19.992	103.780	19.674	13.539	0.488
958.500	570.302	80.010	19.993	103.779	19.676	13.361	0.532
960.000	571.089	80.012	19.993	103.781	19.680	13.087	0.540
961.500	571.847	80.010	19.993	103.779	19.674	13.548	0.507
963.000	572.660	80.010	19.993	103.776	19.677	13.304	0.548
964.500	573.414	80.010	19.994	103.775	19.677	13.324	0.518
966.000	574.241	80.008	19.993	103.770	19.679	13.186	0.547
967.500	575.023	80.009	19.993	103.771	19.678	13.228	0.499
969.000	575.752	80.008	19.994	103.766	19.679	13.135	0.487
970.500	576.510	80.008	19.994	103.762	19.679	13.151	0.520
972.000	577.305	80.008	19.994	103.759	19.679	13.137	0.540
973.500	578.079	80.008	19.994	103.772	19.682	12.975	0.524
975.000	578.846	80.011	19.995	103.765	19.680	13.071	0.484
976.500	579.591	80.009	19.994	103.762	19.681	13.035	0.502
978.000	580.356	80.011	19.994	103.776	19.682	12.956	0.527
979.500	581.129	80.010	19.992	103.776	19.685	12.768	0.520
981.000	581.870	80.011	19.993	103.771	19.687	12.615	0.510
982.500	582.632	80.010	19.994	103.753	19.689	12.496	0.521
984.000	583.419	80.011	19.994	103.755	19.687	12.587	0.538
985.500	584.140	80.010	19.994	103.776	19.690	12.361	0.502
987.000	584.874	80.009	19.994	103.763	19.689	12.493	0.483
988.500	585.700	80.010	19.993	103.757	19.690	12.395	0.535
990.000	586.404	80.010	19.993	103.769	19.691	12.314	0.480
991.500	587.164	80.009	19.994	103.765	19.692	12.271	0.505
993.000	587.939	80.009	19.994	103.765	19.692	12.275	0.514
994.500	588.707	80.009	19.994	103.776	19.695	12.006	0.515
996.000	589.499	80.009	19.994	103.772	19.695	12.031	0.521
997.500	590.247	80.009	19.993	103.758	19.695	12.032	0.507
999.000	591.010	80.009	19.994	103.763	19.696	11.940	0.516
1000.500	591.783	80.008	19.993	103.768	19.698	11.831	0.515
1002.000	592.537	80.009	19.994	103.757	19.701	11.648	0.489
1003.500	593.286	80.010	19.994	103.756	19.705	11.350	0.518
1005.000	594.070	80.010	19.994	103.754	19.703	11.450	0.525
1006.500	594.842	80.011	19.993	103.751	19.704	11.414	0.516
1008.000	595.631	80.010	19.992	103.750	19.707	11.215	0.533
1009.500	596.404	80.011	19.993	103.750	19.708	11.122	0.500
1011.000	597.169	80.010	19.993	103.751	19.707	11.175	0.517
1012.500	597.949	80.011	19.993	103.757	19.711	10.893	0.517
1014.000	598.659	80.010	19.993	103.751	19.711	10.887	0.485
1015.500	599.468	80.010	19.992	103.747	19.711	10.908	0.527
1017.000	600.252	80.010	19.993	103.747	19.712	10.808	0.529
1018.500	601.032	80.008	19.994	103.747	19.711	10.893	0.502
1020.000	601.766	80.009	19.993	103.744	19.712	10.836	0.490
1021.500	602.555	80.008	19.994	103.749	19.717	10.524	0.506
1023.000	603.316	80.010	19.992	103.749	19.717	10.476	0.497
1024.501	604.057	80.009	19.993	103.744	19.717	10.463	0.502
1026.000	604.839	80.009	19.994	103.746	19.716	10.569	0.535
1027.500	605.581	80.009	19.993	103.744	19.718	10.397	0.477
1029.000	606.361	80.009	19.993	103.743	19.719	10.326	0.547
1030.500	607.110	80.009	19.994	103.740	19.720	10.294	0.498
1032.000	607.854	80.009	19.994	103.737	19.720	10.275	0.507
1033.501	608.596	80.010	19.993	103.740	19.723	10.087	0.487
1035.001	609.398	80.010	19.994	103.743	19.726	9.844	0.521
1036.500	610.161	80.010	19.995	103.747	19.728	9.703	0.513
1038.000	610.921	80.009	19.994	103.759	19.733	9.391	0.513
1039.500	611.672	80.010	19.993	103.765	19.732	9.452	0.505
1041.000	612.454	80.010	19.994	103.752	19.735	9.190	0.506
1042.500	613.217	80.010	19.993	103.742	19.737	9.107	0.519
1044.000	614.019	80.010	19.995	103.742	19.737	9.107	0.547
1045.500	614.803	80.009	19.994	103.745	19.739	8.964	0.533
1047.001	615.568	80.010	19.994	103.746	19.740	8.862	0.532
1048.501	616.368	80.009	19.995	103.743	19.739	8.963	0.512
1050.000	617.165	80.010	19.994	103.742	19.742	8.725	0.509
1051.500	617.945	80.010	19.993	103.744	19.741	8.835	0.500
1053.000	618.711	80.009	19.993	103.745	19.742	8.734	0.516
1054.500	619.492	80.009	19.994	103.739	19.746	8.418	0.522
1056.001	620.282	80.010	19.993	103.738	19.751	8.074	0.538
1057.500	621.047	80.009	19.994	103.742	19.751	8.089	0.520
1059.000	621.840	80.009	19.993	103.743	19.753	7.957	0.527
1060.500	622.627	80.009	19.993	103.744	19.756	7.779	0.523
1062.000	623.391	80.011	19.993	103.738	19.756	7.747	0.507
1063.500	624.163	80.010	19.994	103.728	19.756	7.717	0.513
1065.000	624.948	80.011	19.994	103.727	19.761	7.401	0.516
1066.501	625.709	80.010	19.993	103.740	19.763	7.249	0.504
1068.000	626.484	80.010	19.993	103.739	19.765	7.126	0.519
1069.500	627.269	80.010	19.993	103.744	19.763	7.222	0.550
1071.000	628.038	80.011	19.994	103.744	19.764	7.203	0.532
1072.500	628.825	80.010	19.994	103.733	19.766	7.072	0.522
1074.000	629.632	80.009	19.993	103.730	19.767	6.942	0.528
1075.500	630.376	80.011	19.994	103.736	19.769	6.848	0.498
1077.000	631.135	80.009	19.993	103.746	19.771	6.715	0.522
1078.501	631.904	80.010	19.994	103.746	19.772	6.591	0.507
1080.000	632.665	80.011	19.994	103.745	19.772	6.595	0.509
1081.500	633.409	80.009	19.994	103.746	19.776	6.325	0.486
1083.000	634.218	80.010	19.993	103.746	19.775	6.416	0.554
1084.500	635.011	80.010	19.993	103.746	19.775	6.410	0.516
1086.000	635.746	80.011	19.995	103.743	19.774	6.458	0.499
1087.500	636.567	80.011	19.995	103.742	19.779	6.126	0.548
1089.000	637.289	80.011	19.993	103.741	19.775	6.375	0.479
1090.500	638.053	80.012	19.993	103.740	19.778	6.184	0.512
1092.001	638.810	80.011	19.994	103.739	19.784	5.800	0.496
1093.500	639.560	80.013	19.993	103.740	19.776	6.331	0.499
1095.000	640.344	80.010	19.994	103.739	19.781	5.972	0.486
1096.500	641.089	80.009	19.994	103.740	19.780	6.048	0.493
1098.000	641.856	80.010	19.994	103.730	19.783	5.821	0.473
1099.501	642.593	80.009	19.994	103.734	19.784	5.787	0.501
1101.000	643.363	80.009	19.995	103.736	19.779	6.105	0.502
1102.500	644.121	80.008	19.994	103.731	19.782	5.937	0.505
1104.000	644.869	80.009	19.995	103.736	19.780	6.065	0.513
1105.500	645.600	80.008	19.994	103.729	19.779	6.119	0.494
1107.000	646.377	80.009	19.994	103.720	19.782	5.924	0.510
1108.500	647.117	80.009	19.994	103.721	19.784	5.782	0.496
1110.000	647.913	80.010	19.995	103.727	19.785	5.691	0.533
1111.500	648.682	80.008	19.993	103.733	19.783	5.847	0.525
1113.000	649.458	80.011	19.993	103.730	19.780	6.038	0.523
1114.500	650.201	80.009	19.993	103.712	19.781	5.980	0.511
1116.000	651.005	80.010	19.993	103.704	19.783	5.872	0.525
1117.500	651.740	80.009	19.993	103.707	19.783	5.822	0.507
1119.001	652.523	80.009	19.993	103.710	19.783	5.825	0.510
1120.500	653.334	80.011	19.994	103.709	19.783	5.857	0.535
1122.000	654.092	80.009	19.993	103.724	19.785	5.731	0.504
1123.500	654.869	80.009	19.993	103.741	19.786	5.656	0.523
1125.000	655.653	80.010	19.993	103.743	19.789	5.451	0.514
1126.500	656.426	80.009	19.993	103.744	19.787	5.567	0.537
1128.001	657.189	80.009	19.993	103.742	19.784	5.798	0.518
1129.500	657.970	80.009	19.994	103.737	19.783	5.856	0.523
1131.000	658.763	80.009	19.994	103.717	19.782	5.908	0.518
1132.500	659.472	80.009	19.993	103.719	19.783	5.837	0.478
1134.001	660.259	80.008	19.993	103.736	19.787	5.582	0.514
1135.501	661.057	80.009	19.993	103.732	19.786	5.634	0.522
1137.000	661.784	80.008	19.994	103.723	19.783	5.823	0.491
1138.500	662.558	80.007	19.993	103.730	19.788	5.503	0.503
1140.001	663.329	80.009	19.993	103.725	19.787	5.545	0.505
1141.501	664.072	80.009	19.993	103.719	19.786	5.616	0.500
1143.000	664.873	80.009	19.992	103.720	19.788	5.526	0.529
1144.500	665.654	80.010	19.993	103.726	19.788	5.500	0.537
1146.000	666.409	80.011	19.993	103.725	19.788	5.518	0.505
1147.500	667.157	80.011	19.992	103.722	19.786	5.607	0.525
1149.000	667.944	80.011	19.992	103.714	19.790	5.347	0.534
1150.501	668.699	80.012	19.993	103.719	19.789	5.441	0.520
1152.000	669.460	80.011	19.992	103.717	19.789	5.455	0.502
1153.500	670.249	80.010	19.993	103.714	19.788	5.491	0.517
1155.000	671.009	80.009	19.994	103.711	19.786	5.666	0.517
1156.500	671.776	80.009	19.994	103.707	19.785	5.676	0.512
1158.000	672.523	80.010	19.993	103.716	19.786	5.657	0.510
1159.500	673.324	80.010	19.993	103.721	19.789	5.445	0.515
1161.001	674.056	80.010	19.993	103.718	19.787	5.530	0.485
1162.500	674.862	80.010	19.994	103.720	19.790	5.346	0.551
1164.000	675.645	80.010	19.994	103.721	19.788	5.494	0.521
1165.500	676.412	80.011	19.996	103.715	19.789	5.438	0.517
1167.000	677.164	80.011	19.993	103.709	19.790	5.385	0.489
1168.501	677.943	80.010	19.993	103.711	19.788	5.478	0.517
1170.000	678.693	80.012	19.993	103.721	19.788	5.529	0.499
1171.500	679.457	80.011	19.994	103.724	19.790	5.332	0.480
1173.001	680.237	80.011	19.993	103.714	19.786	5.601	0.512
1174.500	680.999	80.011	19.992	103.722	19.786	5.663	0.519
1176.001	681.787	80.013	19.993	103.733	19.789	5.410	0.501
1177.500	682.494	80.011	19.993	103.719	19.785	5.713	0.527
1179.000	683.278	80.011	19.993	103.715	19.785	5.692	0.545
1180.500	684.025	80.012	19.993	103.729	19.790	5.353	0.508
1182.000	684.807	80.009	19.994	103.731	19.786	5.660	0.504
1183.501	685.543	80.009	19.993	103.720	19.786	5.600	0.507
1185.000	686.282	80.009	19.993	103.718	19.784	5.790	0.499
1186.500	687.063	80.008	19.994	103.713	19.784	5.760	0.537
1188.000	687.816	80.007	19.994	103.719	19.786	5.664	0.498
1189.501	688.591	80.008	19.995	103.727	19.783	5.843	0.527
1191.000	689.337	80.008	19.993	103.731	19.783	5.846	0.527
1192.500	690.082	80.007	19.993	103.732	19.786	5.604	0.485
1194.000	690.843	80.009	19.993	103.727	19.784	5.766	0.516
1195.501	691.557	80.008	19.995	103.725	19.786	5.660	0.469
1197.000	692.352	80.007	19.994	103.721	19.786	5.640	0.532
1198.500	693.089	80.008	19.994	103.738	19.788	5.504	0.492
1200.000	693.852	80.009	19.994	103.732	19.785	5.739	0.483
1201.500	694.590	80.008	19.994	103.718	19.784	5.805	0.474
1203.000	695.339	80.008	19.996	103.726	19.782	5.904	0.489
1204.501	696.140	80.007	19.995	103.736	19.782	5.892	0.532
1206.000	696.897	80.008	19.994	103.734	19.785	5.709	0.501
1207.501	697.610	80.008	19.993	103.725	19.784	5.798	0.481
1209.000	698.406	80.009	19.993	103.719	19.782	5.943	0.520
1210.500	699.187	80.009	19.993	103.725	19.786	5.602	0.544
1212.000	699.887	80.009	19.994	103.740	19.787	5.598	0.453
1213.500	700.636	80.009	19.994	103.735	19.789	5.450	0.514
1215.000	701.364	80.009	19.994	103.716	19.788	5.471	0.486
1216.501	702.099	80.008	19.994	103.721	19.785	5.686	0.502
1218.001	702.881	80.008	19.994	103.724	19.784	5.797	0.509
1219.500	703.651	80.007	19.994	103.721	19.788	5.510	0.505
1221.000	704.397	80.009	19.993	103.727	19.784	5.744	0.500
1222.500	705.163	80.009	19.994	103.738	19.788	5.486	0.512
1224.000	705.930	80.010	19.995	103.738	19.786	5.667	0.529
1225.501	706.714	80.010	19.994	103.732	19.788	5.478	0.515
1227.000	707.448	80.010	19.994	103.726	19.790	5.354	0.491
1228.500	708.268	80.011	19.994	103.732	19.789	5.408	0.531
1230.001	708.986	80.010	19.993	103.722	19.788	5.497	0.478
1231.500	709.750	80.012	19.993	103.717	19.786	5.619	0.519
1233.000	710.507	80.011	19.994	103.725	19.790	5.339	0.485
1234.500	711.278	80.011	19.994	103.727	19.790	5.324	0.533
1236.000	712.051	80.010	19.993	103.734	19.787	5.580	0.537
1237.501	712.829	80.011	19.993	103.721	19.791	5.260	0.519
1239.000	713.598	80.009	19.993	103.726	19.791	5.275	0.511
1240.501	714.372	80.010	19.993	103.718	19.790	5.373	0.544
1242.001	715.132	80.010	19.993	103.717	19.790	5.360	0.515
1243.500	715.955	80.010	19.993	103.727	19.787	5.583	0.543
1245.000	716.679	80.011	19.993	103.724	19.787	5.556	0.482
1246.500	717.487	80.011	19.993	103.724	19.785	5.706	0.525
1248.001	718.244	80.010	19.993	103.723	19.786	5.606	0.485
1249.500	719.005	80.011	19.993	103.712	19.791	5.266	0.497
1251.000	719.769	80.012	19.993	103.707	19.789	5.395	0.523
1252.500	720.522	80.011	19.993	103.715	19.786	5.661	0.498
1254.000	721.269	80.011	19.994	103.733	19.789	5.410	0.497
1255.500	722.005	80.012	19.992	103.733	19.789	5.430	0.490
1257.000	722.748	80.011	19.994	103.730	19.789	5.433	0.500
1258.500	723.515	80.012	19.993	103.729	19.786	5.667	0.501
1260.000	724.294	80.010	19.994	103.728	19.789	5.439	0.508
1261.500	725.001	80.011	19.994	103.719	19.786	5.616	0.487
1263.000	725.781	80.011	19.994	103.721	19.788	5.508	0.509
1264.501	726.552	80.010	19.994	103.716	19.790	5.358	0.517
1266.000	727.280	80.008	19.992	103.722	19.788	5.516	0.497
1267.500	728.040	80.009	19.993	103.718	19.788	5.528	0.518
1269.000	728.812	80.008	19.994	103.731	19.786	5.614	0.505
1270.500	729.600	80.010	19.995	103.727	19.790	5.349	0.512
1272.000	730.366	80.009	19.994	103.715	19.788	5.511	0.499
1273.500	731.108	80.008	19.993	103.712	19.787	5.546	0.500
1275.000	731.911	80.009	19.994	103.715	19.786	5.604	0.551
1276.500	732.623	80.008	19.993	103.715	19.790	5.382	0.475
1278.000	733.401	80.008	19.993	103.725	19.789	5.423	0.536
1279.500	734.190	80.007	19.993	103.731	19.786	5.636	0.519
1281.000	734.972	80.010	19.994	103.734	19.791	5.258	0.536
1282.500	735.718	80.008	19.994	103.731	19.790	5.371	0.508
1284.000	736.493	80.008	19.995	103.732	19.792	5.202	0.500
1285.501	737.266	80.009	19.995	103.733	19.792	5.189	0.541
1287.001	738.049	80.008	19.995	103.726	19.787	5.566	0.507
1288.500	738.799	80.007	19.995	103.730	19.792	5.192	0.501
1290.001	739.595	80.008	19.995	103.726	19.788	5.499	0.537
1291.500	740.353	80.009	19.994	103.712	19.789	5.406	0.509
1293.000	741.138	80.010	19.995	103.708	19.787	5.561	0.541
1294.500	741.914	80.008	19.995	103.713	19.788	5.497	0.510
1296.000	742.656	80.009	19.994	103.719	19.789	5.436	0.493
1297.500	743.425	80.009	19.995	103.714	19.785	5.703	0.516