File: 01_Data/Polyisocyanurate_Foam_Board/MCC/Polyisocyanurate_Foam_Board_MCC_30K_min_220214_R3.txt
Sample ID:	C:\MCC\MCC Cal\Test\Polyisocyanurate_Foam_Board_MCC_30K_min_220214_R3.txt
Sample Weight (mg):	4.58
Heating Rate (C/s):	0.5
Combustor Temp (C):	900
N2 Flow Rate (cc/min):	80
O2 Flow Rate (cc/min):	20
Calibration File:	C:\MCC\MCC Cal\Coeff1 JN10440_30_210304.txt.txt
T Correction Coefficients:	0	1.024463	0
Time Shift (s):	14
*
Time (s)	Temperature (C)	N2 flow rate (cc/min)	O2 flow rate (cc/min)	Flow Rate (cc/min)	Oxygen (%)	HRR (W/g)	Heating rate (C/s)
0.000	112.832	80.004	19.993	103.675	20.175	0.328	-0.011
2.000	112.876	80.003	19.994	103.676	20.181	-0.082	0.007
4.000	112.838	80.004	19.994	103.677	20.177	0.193	0.013
6.000	112.845	80.003	19.994	103.679	20.178	0.129	-0.011
8.000	112.826	80.003	19.994	103.683	20.177	0.230	-0.030
10.000	112.844	80.001	19.995	103.686	20.179	0.064	-0.004
12.000	112.872	80.005	19.994	103.695	20.176	0.287	-0.002
14.000	112.833	80.002	19.994	103.715	20.173	0.469	0.011
16.000	112.898	80.006	19.994	103.727	20.171	0.649	-0.003
18.000	112.898	79.997	19.996	103.744	20.169	0.756	0.013
20.000	113.005	80.006	19.993	103.769	20.163	1.211	0.066
22.000	113.044	80.002	19.994	103.804	20.164	1.153	0.040
24.000	113.144	80.006	19.993	103.807	20.157	1.598	0.056
26.000	113.253	80.004	19.994	103.828	20.154	1.817	0.079
28.000	113.409	80.003	19.994	103.832	20.156	1.675	0.075
30.000	113.564	80.003	19.995	103.835	20.151	2.078	0.081
32.000	113.770	80.004	19.994	103.860	20.148	2.250	0.069
34.000	114.014	80.004	19.995	103.854	20.147	2.365	0.136
36.000	114.291	80.004	19.993	103.848	20.144	2.543	0.150
38.000	114.514	80.006	19.994	103.862	20.147	2.353	0.128
40.001	114.854	80.003	19.995	103.874	20.142	2.715	0.164
42.000	115.184	80.006	19.994	103.874	20.142	2.688	0.182
44.000	115.544	80.004	19.995	103.875	20.146	2.434	0.204
46.000	115.871	80.005	19.994	103.875	20.143	2.645	0.152
48.000	116.264	80.005	19.994	103.873	20.139	2.899	0.164
50.000	116.666	80.004	19.994	103.884	20.137	3.011	0.189
52.000	117.160	80.002	19.993	103.910	20.142	2.721	0.232
54.001	117.585	80.003	19.992	103.909	20.139	2.927	0.220
56.001	118.082	80.008	19.994	103.910	20.142	2.686	0.237
58.000	118.591	80.008	19.993	103.912	20.139	2.888	0.268
60.000	119.089	80.009	19.993	103.908	20.138	2.976	0.278
62.000	119.618	80.005	19.993	103.909	20.137	3.031	0.269
64.000	120.175	80.003	19.993	103.905	20.136	3.100	0.297
66.001	120.783	80.006	19.993	103.914	20.134	3.264	0.295
68.001	121.356	80.004	19.993	103.911	20.134	3.274	0.289
70.000	121.967	80.004	19.993	103.911	20.133	3.331	0.344
72.000	122.591	80.005	19.993	103.930	20.132	3.376	0.294
74.000	123.237	80.003	19.995	103.941	20.133	3.305	0.351
76.000	123.941	80.001	19.994	103.947	20.132	3.393	0.340
78.000	124.615	80.004	19.993	103.946	20.133	3.323	0.336
80.000	125.319	80.004	19.994	103.940	20.132	3.364	0.320
82.000	125.999	80.004	19.994	103.947	20.136	3.104	0.326
84.000	126.764	80.002	19.994	103.943	20.133	3.343	0.361
86.000	127.475	80.005	19.993	103.943	20.135	3.161	0.369
88.000	128.236	80.003	19.992	103.938	20.129	3.613	0.373
90.000	129.022	79.995	19.994	103.950	20.130	3.519	0.414
92.000	129.822	80.003	19.993	103.950	20.132	3.429	0.391
94.000	130.606	80.002	19.995	103.952	20.129	3.589	0.393
96.000	131.428	80.003	19.993	103.954	20.132	3.425	0.395
98.000	132.217	80.003	19.994	103.954	20.126	3.833	0.415
100.000	133.089	80.002	19.993	103.954	20.127	3.730	0.391
102.000	133.922	80.004	19.993	103.953	20.127	3.761	0.425
104.000	134.791	80.002	19.995	103.954	20.126	3.818	0.427
106.000	135.648	80.004	19.995	103.951	20.123	4.008	0.446
108.001	136.509	80.002	19.995	103.950	20.122	4.091	0.464
110.001	137.443	80.003	19.994	103.955	20.124	3.931	0.478
112.000	138.309	80.004	19.994	103.953	20.125	3.923	0.442
114.000	139.234	80.003	19.992	103.950	20.130	3.554	0.440
116.000	140.131	80.014	19.993	103.961	20.123	4.015	0.461
118.000	141.044	80.005	19.994	103.958	20.124	3.988	0.473
120.001	141.970	80.003	19.994	103.945	20.125	3.917	0.454
122.000	142.837	80.000	19.994	103.951	20.126	3.792	0.446
124.000	143.832	80.011	19.993	103.949	20.123	4.007	0.494
126.000	144.766	80.004	19.994	103.950	20.119	4.287	0.465
128.000	145.777	79.996	19.995	103.950	20.120	4.236	0.483
130.000	146.744	79.997	19.995	103.949	20.119	4.337	0.472
132.000	147.691	80.004	19.993	103.945	20.119	4.300	0.470
134.000	148.631	80.004	19.994	103.949	20.120	4.269	0.485
136.000	149.653	80.005	19.994	103.946	20.119	4.316	0.481
138.000	150.578	80.003	19.994	103.944	20.122	4.132	0.461
140.000	151.527	80.006	19.994	103.938	20.117	4.461	0.491
142.000	152.520	80.005	19.994	103.940	20.114	4.694	0.496
144.000	153.518	80.008	19.993	103.936	20.112	4.803	0.505
146.000	154.482	80.010	19.993	103.943	20.116	4.514	0.469
148.000	155.423	79.995	19.995	103.941	20.113	4.722	0.452
150.000	156.391	80.004	19.992	103.933	20.114	4.685	0.469
152.000	157.433	80.002	19.995	103.938	20.115	4.628	0.506
154.000	158.401	80.004	19.995	103.942	20.112	4.822	0.466
156.000	159.366	80.005	19.993	103.938	20.110	4.943	0.498
158.000	160.334	80.004	19.994	103.932	20.107	5.166	0.485
160.000	161.357	80.001	19.995	103.924	20.106	5.256	0.461
162.000	162.375	80.005	19.993	103.921	20.105	5.311	0.519
164.000	163.365	80.004	19.994	103.928	20.105	5.326	0.505
166.000	164.362	80.005	19.993	103.928	20.102	5.513	0.459
168.000	165.398	80.005	19.993	103.927	20.105	5.301	0.515
170.000	166.418	80.003	19.993	103.922	20.103	5.459	0.509
172.000	167.403	80.006	19.993	103.929	20.105	5.304	0.515
174.000	168.385	80.001	19.991	103.930	20.102	5.551	0.468
176.000	169.418	80.001	19.995	103.928	20.102	5.551	0.476
178.000	170.429	80.002	19.994	103.931	20.097	5.867	0.543
180.000	171.445	79.992	19.994	103.926	20.097	5.865	0.503
182.000	172.445	80.003	19.994	103.915	20.095	6.026	0.499
184.000	173.427	80.003	19.994	103.916	20.095	5.984	0.512
186.000	174.500	80.006	19.994	103.914	20.095	6.008	0.534
188.000	175.478	80.005	19.993	103.914	20.094	6.117	0.523
190.000	176.434	80.012	19.993	103.910	20.089	6.473	0.480
192.000	177.441	79.997	19.995	103.917	20.086	6.681	0.496
194.000	178.435	80.000	19.996	103.909	20.092	6.201	0.483
196.000	179.452	80.008	19.992	103.913	20.087	6.603	0.499
198.000	180.421	80.006	19.995	103.914	20.086	6.663	0.483
200.000	181.432	80.004	19.994	103.909	20.082	6.954	0.499
202.000	182.444	80.006	19.994	103.914	20.080	7.089	0.490
204.000	183.389	80.004	19.995	103.908	20.079	7.169	0.491
206.000	184.426	80.007	19.993	103.914	20.079	7.179	0.488
208.001	185.422	80.009	19.994	103.917	20.078	7.222	0.495
210.000	186.487	80.004	19.995	103.911	20.079	7.124	0.512
212.000	187.481	80.002	19.995	103.907	20.070	7.758	0.522
214.000	188.464	80.005	19.994	103.910	20.073	7.578	0.484
216.000	189.423	80.005	19.994	103.910	20.068	7.912	0.473
218.000	190.451	80.006	19.994	103.905	20.070	7.818	0.506
220.000	191.450	80.007	19.994	103.910	20.069	7.845	0.492
222.000	192.394	80.004	19.994	103.912	20.066	8.035	0.474
224.000	193.402	80.005	19.994	103.912	20.064	8.195	0.478
226.000	194.393	80.005	19.993	103.914	20.064	8.240	0.483
228.000	195.388	80.005	19.995	103.911	20.062	8.383	0.490
230.000	196.366	79.994	19.995	103.908	20.062	8.371	0.467
232.000	197.375	80.005	19.993	103.905	20.060	8.465	0.511
234.000	198.322	80.004	19.992	103.906	20.063	8.262	0.486
236.000	199.300	80.002	19.995	103.903	20.061	8.389	0.488
238.000	200.266	80.008	19.994	103.907	20.060	8.496	0.443
240.000	201.304	80.002	19.993	103.905	20.058	8.628	0.510
242.000	202.250	80.001	19.993	103.899	20.059	8.552	0.469
244.000	203.244	80.003	19.993	103.911	20.057	8.683	0.517
246.000	204.224	80.006	19.994	103.907	20.058	8.614	0.502
248.000	205.200	80.004	19.993	103.898	20.055	8.848	0.488
250.000	206.205	80.004	19.993	103.902	20.054	8.885	0.488
252.000	207.211	80.005	19.992	103.913	20.059	8.538	0.478
254.000	208.192	80.020	19.992	103.910	20.057	8.705	0.486
256.000	209.149	80.014	19.993	103.909	20.056	8.764	0.514
258.000	210.128	80.008	19.993	103.891	20.061	8.442	0.469
260.000	211.106	80.012	19.993	103.888	20.054	8.911	0.514
262.000	212.083	79.996	19.994	103.918	20.053	8.975	0.489
264.000	213.037	80.001	19.993	103.900	20.055	8.837	0.512
266.000	214.048	80.000	19.995	103.899	20.057	8.702	0.509
268.000	215.043	80.006	19.993	103.910	20.058	8.667	0.467
270.000	215.933	79.989	19.995	103.908	20.058	8.664	0.448
272.000	216.927	80.008	19.995	103.903	20.056	8.745	0.460
274.000	217.893	80.009	19.993	103.913	20.056	8.743	0.441
276.000	218.922	80.006	19.992	103.914	20.058	8.607	0.518
278.000	219.859	80.008	19.995	103.916	20.058	8.642	0.477
280.000	220.828	80.005	19.994	103.900	20.059	8.587	0.470
282.000	221.893	80.016	19.990	103.898	20.059	8.546	0.530
284.000	222.834	80.013	19.994	103.916	20.058	8.626	0.496
286.000	223.802	80.004	19.993	103.915	20.061	8.428	0.479
288.000	224.814	80.015	19.992	103.914	20.063	8.267	0.471
290.000	225.810	80.004	19.994	103.916	20.064	8.176	0.504
292.000	226.821	80.010	19.995	103.911	20.061	8.395	0.514
294.000	227.792	80.004	19.993	103.912	20.063	8.311	0.493
296.000	228.814	80.019	19.993	103.911	20.063	8.307	0.504
298.000	229.826	80.000	19.994	103.903	20.065	8.114	0.499
300.000	230.840	80.005	19.993	103.911	20.062	8.335	0.489
302.000	231.855	80.005	19.994	103.905	20.068	7.948	0.513
304.000	232.849	80.007	19.993	103.910	20.068	7.929	0.540
306.000	233.833	80.006	19.993	103.910	20.068	7.929	0.480
308.000	234.838	80.011	19.992	103.913	20.071	7.699	0.488
310.000	235.833	80.005	19.994	103.920	20.067	7.992	0.470
312.000	236.857	80.005	19.992	103.917	20.066	8.069	0.498
314.000	237.843	79.985	19.997	103.913	20.062	8.346	0.498
316.000	238.849	79.985	19.998	103.906	20.067	7.977	0.501
318.000	239.885	80.011	19.993	103.903	20.064	8.180	0.527
320.000	240.879	80.002	19.995	103.910	20.064	8.221	0.513
322.000	241.913	80.012	19.996	103.917	20.061	8.423	0.550
324.000	242.921	80.010	19.995	103.910	20.056	8.776	0.504
326.000	243.924	80.001	19.994	103.912	20.061	8.387	0.482
328.000	244.888	79.999	19.996	103.916	20.059	8.569	0.518
330.000	245.923	79.994	19.996	103.914	20.053	9.007	0.541
332.000	246.903	80.005	19.993	103.918	20.056	8.769	0.499
334.000	247.854	80.004	19.993	103.916	20.056	8.770	0.471
336.000	248.918	79.991	19.994	103.906	20.055	8.872	0.503
338.000	249.952	79.999	19.993	103.914	20.052	9.083	0.541
340.000	250.954	80.009	19.994	103.910	20.048	9.347	0.527
342.000	251.967	80.001	19.994	103.909	20.046	9.512	0.494
344.000	252.956	80.005	19.994	103.910	20.044	9.617	0.513
346.000	253.957	80.001	19.995	103.912	20.041	9.838	0.484
348.000	254.937	80.000	19.994	103.913	20.037	10.124	0.495
350.000	255.989	80.020	19.992	103.914	20.038	10.072	0.514
352.000	256.949	80.006	19.992	103.936	20.033	10.418	0.507
354.000	257.940	79.994	19.995	103.938	20.032	10.444	0.488
356.000	258.971	80.002	19.993	103.927	20.031	10.578	0.520
358.000	259.963	80.006	19.994	103.943	20.027	10.849	0.515
360.000	260.934	79.999	19.995	103.940	20.022	11.177	0.522
362.000	261.958	79.990	19.992	103.945	20.019	11.428	0.502
364.000	262.909	79.988	19.995	103.953	20.015	11.708	0.496
366.000	263.960	80.003	19.994	103.949	20.011	11.977	0.485
368.000	264.925	80.000	19.993	103.940	20.005	12.361	0.491
370.000	265.917	79.999	19.995	103.952	20.003	12.533	0.488
372.000	266.928	80.010	19.993	103.949	20.001	12.690	0.501
374.000	267.917	80.006	19.993	103.948	19.996	13.052	0.465
376.000	268.928	80.001	19.993	103.959	19.987	13.679	0.524
378.000	269.879	79.999	19.994	103.966	19.986	13.763	0.478
380.000	270.948	79.989	19.995	103.969	19.982	14.037	0.544
382.000	271.990	80.008	19.994	103.960	19.974	14.623	0.512
384.000	272.998	80.014	19.994	103.957	19.972	14.736	0.505
386.000	273.971	80.011	19.995	103.963	19.967	15.089	0.502
388.000	274.978	80.002	19.995	103.977	19.960	15.617	0.502
390.000	275.982	79.991	19.997	103.953	19.957	15.815	0.499
392.000	276.941	80.000	19.997	103.969	19.946	16.556	0.465
394.000	277.968	80.009	19.993	103.980	19.947	16.521	0.480
396.000	278.968	80.007	19.995	103.988	19.940	17.006	0.511
398.000	279.989	80.012	19.993	103.983	19.930	17.679	0.508
400.000	280.981	80.002	19.996	103.982	19.925	18.074	0.471
402.000	281.959	80.004	19.994	103.979	19.916	18.698	0.489
404.000	283.011	80.003	19.995	103.987	19.912	18.966	0.506
406.000	284.007	80.012	19.994	103.986	19.907	19.351	0.500
408.000	285.013	80.007	19.992	103.999	19.899	19.910	0.486
410.000	286.028	80.002	19.997	104.006	19.890	20.565	0.515
412.000	286.995	80.001	19.995	104.017	19.886	20.812	0.472
414.000	287.991	80.007	19.992	104.026	19.879	21.337	0.501
416.000	288.979	80.004	19.995	104.031	19.871	21.903	0.485
418.000	289.976	80.012	19.994	104.031	19.863	22.497	0.479
420.000	290.997	80.008	19.997	104.029	19.852	23.214	0.504
422.000	292.008	80.008	19.992	104.028	19.839	24.176	0.496
424.000	293.075	80.001	19.994	104.032	19.831	24.753	0.543
426.000	294.074	80.005	19.993	104.038	19.817	25.718	0.517
428.000	295.049	79.989	19.994	104.052	19.806	26.479	0.532
430.000	296.089	80.006	19.994	104.052	19.789	27.721	0.519
432.000	297.077	80.008	19.989	104.065	19.778	28.477	0.485
434.000	298.108	80.004	19.995	104.062	19.761	29.673	0.511
436.000	299.084	80.007	19.991	104.071	19.741	31.111	0.486
438.000	300.117	80.014	19.992	104.068	19.722	32.476	0.502
440.000	301.126	80.011	19.989	104.070	19.705	33.657	0.529
442.000	302.086	80.018	19.996	104.076	19.681	35.327	0.495
444.000	303.151	79.993	19.993	104.070	19.660	36.828	0.518
446.000	304.163	80.012	19.992	104.062	19.642	38.150	0.515
448.000	305.138	80.005	19.992	104.059	19.626	39.228	0.498
450.000	306.161	79.999	19.995	104.045	19.604	40.809	0.484
452.000	307.164	80.017	19.991	104.025	19.586	42.061	0.506
454.000	308.195	80.012	19.993	104.035	19.571	43.166	0.493
456.000	309.191	80.013	19.992	104.021	19.558	44.036	0.488
458.000	310.248	80.017	19.991	104.018	19.536	45.640	0.533
460.000	311.233	80.001	19.993	103.997	19.534	45.772	0.498
462.000	312.269	80.013	19.994	103.993	19.524	46.454	0.496
464.000	313.306	80.009	19.992	103.993	19.518	46.869	0.500
466.000	314.370	79.993	19.993	103.980	19.519	46.850	0.534
468.000	315.358	80.006	19.994	103.986	19.518	46.904	0.530
470.000	316.379	80.011	19.992	103.989	19.520	46.719	0.546
472.000	317.387	79.999	19.993	103.986	19.522	46.578	0.521
474.000	318.433	80.000	19.993	103.985	19.528	46.173	0.518
476.000	319.402	80.004	19.993	103.992	19.542	45.206	0.478
478.000	320.437	80.000	19.994	103.984	19.547	44.830	0.488
480.000	321.415	80.011	19.994	103.980	19.556	44.151	0.463
482.000	322.507	80.006	19.993	103.969	19.564	43.650	0.558
484.000	323.502	79.990	19.995	103.971	19.572	43.059	0.544
486.000	324.488	80.004	19.994	103.969	19.580	42.497	0.494
488.000	325.494	79.999	19.992	103.952	19.583	42.271	0.517
490.000	326.496	80.012	19.993	103.948	19.592	41.653	0.486
492.000	327.512	79.998	19.995	103.948	19.601	40.964	0.489
494.000	328.487	80.008	19.993	103.958	19.606	40.620	0.515
496.000	329.549	80.008	19.992	103.943	19.613	40.153	0.506
498.000	330.538	80.027	19.992	103.944	19.623	39.458	0.504
500.000	331.554	80.008	19.993	103.951	19.630	38.932	0.512
502.000	332.544	80.007	19.995	103.944	19.642	38.065	0.494
504.000	333.520	79.999	19.995	103.929	19.650	37.488	0.476
506.000	334.597	80.013	19.992	103.915	19.662	36.630	0.501
508.000	335.584	80.012	19.994	103.918	19.669	36.130	0.476
510.000	336.583	80.007	19.994	103.905	19.681	35.285	0.471
512.000	337.606	80.012	19.994	103.904	19.691	34.615	0.523
514.000	338.627	79.997	19.995	103.915	19.700	34.006	0.525
516.000	339.636	80.015	19.994	103.908	19.715	32.922	0.514
518.000	340.639	80.012	19.993	103.896	19.722	32.381	0.524
520.000	341.659	80.014	19.993	103.908	19.731	31.758	0.505
522.000	342.618	80.011	19.994	103.898	19.743	30.950	0.509
524.000	343.624	80.006	19.995	103.908	19.754	30.159	0.497
526.000	344.610	79.989	19.995	103.914	19.763	29.527	0.520
528.000	345.632	80.004	19.994	103.893	19.768	29.176	0.485
530.000	346.660	80.007	19.992	103.906	19.772	28.902	0.506
532.000	347.650	79.994	19.994	103.903	19.777	28.511	0.463
534.000	348.665	80.004	19.991	103.877	19.784	28.026	0.498
536.000	349.683	80.007	19.993	103.892	19.784	27.998	0.491
538.000	350.685	80.018	19.994	103.879	19.787	27.806	0.501
540.000	351.680	79.999	19.995	103.877	19.788	27.738	0.528
542.000	352.722	79.999	19.995	103.887	19.788	27.721	0.500
544.000	353.749	80.012	19.993	103.875	19.784	28.041	0.517
546.000	354.787	80.007	19.993	103.889	19.786	27.900	0.514
548.000	355.762	80.007	19.998	103.874	19.781	28.225	0.524
550.000	356.799	80.003	19.994	103.870	19.782	28.195	0.531
552.000	357.818	80.009	19.996	103.874	19.781	28.265	0.530
554.000	358.791	80.009	19.989	103.873	19.775	28.670	0.478
556.000	359.825	80.004	19.994	103.874	19.777	28.527	0.511
558.000	360.802	80.006	19.991	103.868	19.778	28.428	0.499
560.000	361.829	80.008	19.993	103.871	19.776	28.565	0.486
562.000	362.828	79.994	19.994	103.876	19.778	28.452	0.501
564.000	363.845	80.005	19.996	103.881	19.776	28.597	0.499
566.000	364.802	80.011	19.993	103.878	19.775	28.674	0.489
568.000	365.812	80.009	19.992	103.883	19.777	28.481	0.468
570.000	366.888	80.011	19.984	103.874	19.775	28.643	0.522
572.000	367.866	80.002	19.997	103.882	19.783	28.082	0.540
574.000	368.879	79.996	19.995	103.879	19.781	28.208	0.475
576.000	369.864	79.999	19.998	103.878	19.781	28.232	0.492
578.000	370.906	79.992	19.996	103.876	19.780	28.282	0.501
580.000	371.880	80.002	19.993	103.873	19.785	27.916	0.540
582.000	372.864	80.001	19.997	103.871	19.787	27.832	0.501
584.000	373.936	80.009	19.991	103.874	19.792	27.489	0.503
586.000	374.942	80.003	19.997	103.877	19.792	27.471	0.510
588.000	375.976	80.005	19.994	103.872	19.796	27.188	0.517
590.000	376.947	80.000	19.997	103.879	19.798	26.999	0.511
592.000	377.977	80.006	19.994	103.880	19.800	26.888	0.496
594.000	379.013	79.994	19.993	103.880	19.804	26.630	0.514
596.000	380.020	80.004	19.995	103.878	19.805	26.508	0.516
598.000	381.053	80.006	19.995	103.874	19.808	26.328	0.522
600.000	382.054	79.999	19.998	103.873	19.811	26.104	0.515
602.000	383.069	79.995	20.000	103.866	19.808	26.319	0.529
604.000	384.115	80.003	19.995	103.870	19.808	26.291	0.477
606.000	385.110	80.007	19.996	103.868	19.814	25.865	0.499
608.000	386.181	80.010	19.992	103.873	19.812	26.055	0.540
610.000	387.142	80.009	19.994	103.877	19.813	25.943	0.505
612.000	388.176	80.003	19.993	103.879	19.812	26.034	0.505
614.000	389.191	80.010	19.992	103.870	19.814	25.898	0.481
616.000	390.214	80.005	19.990	103.870	19.812	26.005	0.511
618.000	391.215	80.001	19.994	103.871	19.816	25.758	0.495
620.000	392.255	80.000	19.999	103.869	19.811	26.078	0.514
622.000	393.283	80.007	19.991	103.868	19.813	25.965	0.505
624.000	394.284	80.001	19.996	103.864	19.815	25.816	0.508
626.000	395.357	80.008	19.994	103.873	19.814	25.858	0.554
628.000	396.373	80.008	19.995	103.875	19.815	25.811	0.512
630.000	397.389	80.009	19.994	103.869	19.815	25.803	0.502
632.000	398.377	80.009	19.992	103.870	19.816	25.736	0.509
634.000	399.412	80.008	19.990	103.862	19.814	25.894	0.498
636.000	400.411	80.006	19.994	103.852	19.818	25.574	0.494
638.000	401.407	80.012	19.990	103.858	19.823	25.248	0.510
640.000	402.435	80.008	19.994	103.852	19.820	25.442	0.486
642.000	403.440	80.008	19.989	103.851	19.824	25.196	0.538
644.000	404.472	80.008	19.994	103.850	19.830	24.787	0.508
646.000	405.476	80.011	19.993	103.843	19.825	25.151	0.505
648.000	406.473	80.000	19.996	103.846	19.830	24.755	0.493
650.000	407.502	79.997	19.994	103.847	19.832	24.647	0.524
652.000	408.493	80.005	19.993	103.855	19.835	24.386	0.466
654.000	409.532	80.006	19.987	103.856	19.839	24.091	0.500
656.000	410.564	80.004	19.994	103.863	19.843	23.865	0.531
658.000	411.562	79.998	20.006	103.859	19.845	23.680	0.494
660.000	412.574	80.008	19.994	103.840	19.849	23.381	0.495
662.000	413.555	80.003	19.992	103.841	19.849	23.397	0.501
664.000	414.563	80.008	19.993	103.850	19.854	23.060	0.502
666.000	415.560	80.001	19.997	103.844	19.855	22.996	0.485
668.000	416.575	80.004	19.998	103.838	19.856	22.926	0.494
670.000	417.631	80.004	19.993	103.834	19.861	22.561	0.541
672.000	418.585	79.995	20.009	103.850	19.863	22.423	0.482
674.000	419.621	80.007	19.991	103.838	19.866	22.218	0.506
676.000	420.632	80.004	19.992	103.841	19.866	22.181	0.508
678.000	421.647	80.003	19.995	103.838	19.870	21.944	0.529
680.000	422.636	80.008	19.993	103.834	19.871	21.860	0.503
682.000	423.597	80.005	19.993	103.836	19.876	21.533	0.498
684.000	424.642	80.013	19.990	103.843	19.875	21.543	0.509
686.000	425.644	80.007	19.992	103.838	19.879	21.320	0.512
688.000	426.648	80.005	19.998	103.842	19.880	21.211	0.515
690.000	427.669	80.009	19.991	103.835	19.882	21.059	0.497
692.000	428.705	80.012	19.989	103.832	19.885	20.872	0.541
694.000	429.738	79.999	19.994	103.839	19.884	20.959	0.513
696.000	430.708	80.004	19.993	103.836	19.886	20.760	0.506
698.000	431.739	80.003	19.994	103.840	19.888	20.625	0.512
700.000	432.750	80.002	19.998	103.833	19.887	20.706	0.523
702.000	433.770	80.006	19.994	103.839	19.892	20.338	0.520
704.000	434.846	80.008	19.994	103.834	19.890	20.519	0.544
706.000	435.847	80.015	19.986	103.835	19.894	20.232	0.504
708.000	436.859	80.007	19.991	103.845	19.894	20.245	0.521
710.000	437.899	80.007	19.991	103.848	19.896	20.107	0.513
712.000	438.947	80.008	19.989	103.839	19.897	20.050	0.517
714.000	439.966	80.012	19.988	103.848	19.895	20.181	0.505
716.000	441.012	80.003	19.996	103.865	19.898	19.920	0.521
718.000	441.998	80.006	19.995	103.847	19.900	19.818	0.460
720.000	443.028	80.009	19.990	103.837	19.899	19.907	0.501
722.000	444.023	80.001	19.994	103.837	19.898	19.942	0.483
724.000	445.059	80.003	19.993	103.836	19.895	20.176	0.533
726.000	446.082	80.002	19.994	103.835	19.895	20.129	0.523
728.000	447.079	80.002	19.995	103.840	19.891	20.415	0.501
730.000	448.111	80.005	19.994	103.832	19.890	20.493	0.532
732.000	449.175	80.003	19.994	103.833	19.887	20.735	0.546
734.000	450.176	80.005	19.993	103.837	19.886	20.817	0.530
736.000	451.189	80.002	19.994	103.853	19.886	20.766	0.500
738.000	452.238	80.006	19.994	103.838	19.882	21.103	0.511
740.000	453.273	80.004	19.994	103.845	19.883	21.011	0.521
742.000	454.283	80.007	19.993	103.837	19.872	21.760	0.516
744.000	455.308	80.008	19.992	103.840	19.873	21.742	0.523
746.000	456.323	80.006	19.991	103.840	19.872	21.779	0.496
748.000	457.356	80.006	19.996	103.844	19.870	21.941	0.510
750.001	458.390	80.008	19.991	103.849	19.868	22.098	0.539
752.000	459.414	80.005	19.990	103.860	19.864	22.323	0.516
754.000	460.462	80.005	19.992	103.842	19.858	22.774	0.520
756.000	461.458	80.005	19.990	103.840	19.856	22.895	0.497
758.000	462.482	80.005	19.992	103.840	19.857	22.840	0.498
760.000	463.523	80.007	19.992	103.841	19.851	23.239	0.518
762.000	464.511	80.005	19.995	103.842	19.851	23.251	0.503
764.000	465.555	80.004	19.995	103.843	19.849	23.384	0.520
766.000	466.557	80.004	19.999	103.846	19.848	23.473	0.497
768.000	467.624	80.001	19.989	103.853	19.841	23.977	0.538
770.000	468.628	80.009	19.989	103.842	19.841	24.000	0.495
772.000	469.663	80.003	19.991	103.841	19.838	24.206	0.511
774.000	470.674	80.001	19.993	103.838	19.841	23.970	0.519
776.000	471.697	80.007	19.995	103.851	19.840	24.070	0.526
778.000	472.676	80.007	19.992	103.842	19.838	24.209	0.469
780.000	473.737	80.008	19.990	103.857	19.838	24.177	0.517
782.000	474.752	80.004	19.992	103.862	19.834	24.457	0.506
784.000	475.792	80.004	19.993	103.855	19.833	24.554	0.493
786.000	476.802	80.003	19.995	103.868	19.833	24.525	0.534
788.000	477.832	80.007	19.996	103.855	19.836	24.322	0.493
790.000	478.879	80.003	20.000	103.859	19.833	24.547	0.536
792.000	479.885	80.008	19.995	103.835	19.837	24.290	0.518
794.000	480.866	80.005	19.997	103.831	19.838	24.167	0.499
796.000	481.886	80.008	19.992	103.849	19.837	24.245	0.490
798.000	482.928	80.005	19.989	103.845	19.839	24.092	0.515
800.000	483.909	80.002	19.996	103.842	19.844	23.783	0.512
802.000	484.953	80.003	19.993	103.839	19.845	23.712	0.523
804.000	485.998	80.006	19.992	103.848	19.842	23.942	0.517
806.000	486.981	80.003	19.994	103.860	19.842	23.888	0.502
808.000	488.024	80.004	19.993	103.849	19.850	23.324	0.522
810.000	489.056	80.003	19.996	103.844	19.854	23.050	0.519
812.000	490.130	80.005	19.993	103.855	19.860	22.663	0.551
814.000	491.133	80.001	19.998	103.842	19.860	22.623	0.514
816.000	492.180	80.001	19.999	103.852	19.864	22.370	0.514
818.000	493.166	80.001	19.996	103.837	19.866	22.219	0.508
820.000	494.217	80.002	19.992	103.841	19.872	21.778	0.523
822.000	495.262	80.006	19.993	103.854	19.873	21.748	0.521
824.000	496.311	80.006	19.996	103.851	19.879	21.310	0.522
826.000	497.297	80.005	19.995	103.850	19.881	21.180	0.503
828.000	498.390	80.001	19.990	103.835	19.887	20.728	0.504
830.000	499.420	80.006	19.989	103.848	19.891	20.439	0.525
832.000	500.451	80.003	19.996	103.840	19.893	20.330	0.533
834.000	501.481	80.002	19.995	103.839	19.898	19.924	0.526
836.000	502.521	80.002	20.000	103.842	19.900	19.775	0.539
838.000	503.536	80.007	19.990	103.829	19.911	19.000	0.527
840.000	504.578	80.002	19.990	103.835	19.914	18.804	0.520
842.000	505.599	80.005	19.999	103.836	19.919	18.466	0.526
844.000	506.668	80.004	19.997	103.839	19.922	18.270	0.531
846.000	507.742	80.007	19.989	103.834	19.923	18.159	0.524
848.000	508.713	80.008	19.991	103.836	19.928	17.833	0.512
850.000	509.838	80.006	19.992	103.837	19.932	17.527	0.532
852.000	510.881	80.013	19.988	103.831	19.938	17.119	0.529
854.000	511.853	80.007	19.993	103.831	19.942	16.832	0.508
856.000	512.866	80.004	19.997	103.831	19.942	16.850	0.474
858.000	513.982	80.006	19.996	103.835	19.948	16.442	0.554
860.000	514.996	80.004	19.993	103.831	19.951	16.225	0.538
862.000	516.050	80.006	19.994	103.830	19.956	15.859	0.537
864.000	517.039	80.007	19.993	103.835	19.962	15.408	0.507
866.000	518.102	80.007	19.995	103.833	19.964	15.283	0.530
868.000	519.140	80.005	19.995	103.835	19.966	15.124	0.539
870.000	520.172	80.008	19.994	103.835	19.972	14.692	0.507
872.000	521.211	80.007	19.995	103.836	19.976	14.411	0.530
874.000	522.258	80.010	19.991	103.831	19.980	14.122	0.506
876.000	523.240	80.011	19.988	103.832	19.979	14.191	0.485
878.000	524.289	80.006	19.994	103.827	19.987	13.646	0.520
880.000	525.305	80.003	19.998	103.831	19.986	13.734	0.518
882.000	526.294	80.006	19.992	103.833	19.992	13.274	0.513
884.000	527.368	80.004	19.993	103.829	19.994	13.154	0.505
886.000	528.377	80.005	19.993	103.827	19.997	12.908	0.490
888.000	529.418	80.000	20.001	103.822	20.000	12.758	0.506
890.000	530.431	80.003	19.994	103.831	19.996	13.028	0.515
892.000	531.453	80.005	19.994	103.829	20.004	12.469	0.529
894.000	532.444	80.004	19.991	103.831	20.004	12.436	0.471
896.000	533.480	80.008	19.990	103.826	20.005	12.345	0.499
898.000	534.512	80.001	19.997	103.823	20.006	12.281	0.513
900.000	535.541	80.003	19.993	103.821	20.008	12.155	0.513
902.000	536.525	80.000	19.995	103.808	20.011	11.931	0.487
904.000	537.585	80.003	19.990	103.826	20.014	11.768	0.539
906.000	538.611	80.007	19.993	103.802	20.013	11.828	0.492
908.000	539.659	80.004	19.994	103.814	20.016	11.600	0.507
910.000	540.667	80.004	19.995	103.822	20.014	11.767	0.506
912.000	541.697	80.006	19.994	103.814	20.017	11.551	0.514
914.000	542.734	80.003	19.995	103.826	20.019	11.370	0.532
916.000	543.803	80.006	19.995	103.826	20.022	11.193	0.505
918.000	544.752	80.004	19.994	103.821	20.018	11.486	0.495
920.000	545.806	80.004	19.995	103.803	20.020	11.320	0.540
922.000	546.882	80.006	19.995	103.808	20.023	11.132	0.545
924.000	547.904	80.006	19.989	103.815	20.018	11.452	0.544
926.000	548.916	80.010	19.986	103.812	20.022	11.184	0.538
928.000	549.981	80.006	19.992	103.818	20.020	11.299	0.536
930.000	551.017	80.007	19.995	103.815	20.023	11.073	0.544
932.000	552.036	80.006	19.995	103.806	20.019	11.349	0.551
934.000	553.073	80.006	19.989	103.831	20.022	11.184	0.530
936.000	554.030	80.005	19.999	103.821	20.022	11.169	0.479
938.000	555.103	80.006	19.994	103.809	20.021	11.249	0.513
940.000	556.137	80.008	19.991	103.819	20.019	11.368	0.512
942.000	557.199	80.007	19.993	103.809	20.018	11.438	0.550
944.000	558.163	80.004	20.000	103.808	20.020	11.283	0.472
946.000	559.243	80.005	19.991	103.815	20.021	11.267	0.505
948.000	560.233	80.005	19.995	103.803	20.022	11.166	0.467
950.000	561.265	80.004	19.994	103.805	20.018	11.470	0.492
952.000	562.301	80.006	19.994	103.810	20.019	11.408	0.509
954.000	563.360	80.014	19.987	103.808	20.021	11.237	0.530
956.000	564.340	80.007	19.993	103.801	20.020	11.295	0.519
958.000	565.366	80.004	19.999	103.816	20.022	11.161	0.488
960.000	566.451	80.007	19.993	103.820	20.023	11.113	0.503
962.000	567.444	80.006	19.994	103.803	20.021	11.227	0.475
964.000	568.527	80.004	19.994	103.810	20.025	10.965	0.557
966.000	569.487	80.007	19.992	103.807	20.025	10.953	0.529
968.000	570.571	80.004	19.997	103.799	20.022	11.154	0.541
970.000	571.589	80.002	19.997	103.797	20.021	11.256	0.528
972.000	572.684	80.010	19.984	103.809	20.014	11.717	0.558
974.000	573.684	80.003	19.994	103.818	20.019	11.393	0.570
976.000	574.749	80.003	19.995	103.798	20.015	11.676	0.542
978.000	575.919	80.006	19.997	103.803	20.032	10.493	0.584
980.000	576.895	80.006	19.994	103.806	20.021	11.230	0.461
982.000	577.844	80.005	19.994	103.810	20.026	10.905	0.462
984.000	579.004	80.005	19.996	103.806	20.027	10.792	0.781
986.000	579.305	80.006	19.995	103.811	20.027	10.834	0.219
988.000	580.434	80.003	19.994	103.802	20.033	10.420	0.207
990.000	582.103	80.005	19.993	103.800	20.033	10.363	0.596
992.000	583.180	80.006	19.994	103.805	20.029	10.679	0.756
994.000	584.080	80.004	19.993	103.797	20.029	10.693	0.529
996.000	585.204	80.005	19.993	103.799	20.033	10.425	0.595
998.000	586.178	80.004	19.993	103.813	20.034	10.329	0.559
1000.000	587.258	80.004	19.994	103.807	20.034	10.349	0.537
1002.000	588.412	80.006	19.993	103.804	20.034	10.316	0.564
1004.000	589.399	80.005	19.994	103.800	20.036	10.156	0.557
1006.000	590.425	80.002	19.995	103.807	20.036	10.146	0.508
1008.000	591.372	80.004	19.995	103.796	20.038	10.060	0.473
1010.000	592.473	80.004	19.993	103.796	20.040	9.917	0.544
1012.000	593.556	80.007	19.993	103.799	20.043	9.684	0.526
1014.000	594.604	80.006	19.991	103.798	20.048	9.356	0.545
1016.000	595.625	80.006	19.994	103.803	20.046	9.450	0.516
1018.000	596.693	80.005	19.994	103.798	20.049	9.280	0.537
1020.000	597.782	80.004	19.994	103.795	20.048	9.317	0.568
1022.000	598.760	80.006	19.991	103.795	20.055	8.805	0.548
1024.000	599.801	80.003	19.996	103.794	20.052	9.046	0.512
1026.000	600.889	80.006	19.993	103.793	20.056	8.762	0.486
1028.000	601.934	80.006	19.994	103.794	20.059	8.551	0.504
1030.000	602.901	80.006	19.993	103.791	20.063	8.270	0.515
1032.000	603.971	80.009	19.992	103.785	20.065	8.126	0.518
1034.000	604.953	80.010	19.991	103.791	20.065	8.096	0.491
1036.000	605.977	80.012	19.998	103.791	20.066	8.028	0.506
1038.000	607.010	80.008	19.993	103.790	20.071	7.718	0.501
1040.000	608.066	80.006	19.995	103.789	20.075	7.452	0.532
1042.000	609.079	80.006	19.997	103.792	20.075	7.444	0.519
1044.000	610.163	80.006	19.994	103.790	20.080	7.058	0.534
1046.000	611.172	80.005	19.994	103.788	20.081	6.985	0.534
1048.000	612.217	80.004	19.995	103.790	20.078	7.194	0.514
1050.000	613.252	80.006	19.993	103.791	20.083	6.872	0.508
1052.000	614.284	80.007	19.993	103.790	20.083	6.864	0.527
1054.000	615.319	80.007	19.994	103.790	20.087	6.607	0.517
1056.000	616.359	80.006	19.994	103.789	20.087	6.591	0.507
1058.000	617.427	80.006	19.992	103.789	20.092	6.192	0.522
1060.001	618.409	80.006	19.995	103.791	20.092	6.233	0.471
1062.001	619.488	80.005	19.993	103.793	20.095	5.975	0.544
1064.000	620.517	80.004	19.995	103.778	20.095	6.024	0.524
1066.000	621.522	80.004	19.993	103.778	20.095	6.015	0.514
1068.000	622.536	80.006	19.994	103.793	20.101	5.573	0.504
1070.000	623.617	80.004	19.992	103.791	20.102	5.522	0.494
1072.000	624.626	80.003	19.994	103.782	20.104	5.368	0.494
1074.001	625.653	80.004	19.995	103.789	20.107	5.140	0.523
1076.000	626.673	80.005	19.996	103.793	20.109	5.014	0.512
1078.000	627.742	80.003	19.993	103.788	20.110	4.950	0.543
1080.000	628.781	80.005	19.994	103.779	20.112	4.780	0.503
1082.000	629.799	80.004	19.994	103.781	20.117	4.448	0.499
1084.000	630.868	80.004	19.992	103.786	20.122	4.065	0.513
1086.000	631.892	80.004	19.993	103.789	20.119	4.282	0.520
1088.000	632.886	80.007	19.993	103.780	20.119	4.275	0.488
1090.000	633.999	80.007	19.993	103.784	20.123	4.034	0.568
1092.000	634.993	80.007	19.994	103.784	20.123	4.030	0.489
1094.000	636.073	80.008	19.993	103.774	20.126	3.821	0.524
1096.000	637.112	80.005	19.995	103.785	20.129	3.611	0.530
1098.000	638.145	80.008	19.992	103.763	20.129	3.583	0.500
1100.000	639.128	80.006	19.991	103.766	20.128	3.689	0.513
1102.000	640.132	80.001	19.995	103.789	20.130	3.534	0.526
1104.000	641.126	80.007	19.993	103.776	20.130	3.557	0.513
1106.000	642.145	80.006	19.993	103.789	20.134	3.265	0.507
1108.001	643.179	80.006	19.994	103.782	20.134	3.284	0.524
1110.000	644.195	80.008	19.992	103.776	20.136	3.101	0.500
1112.000	645.225	80.007	19.994	103.784	20.135	3.147	0.524
1114.000	646.204	80.008	19.993	103.767	20.133	3.290	0.479
1116.001	647.233	80.007	19.993	103.775	20.137	3.067	0.525
1118.001	648.225	80.009	19.991	103.781	20.137	3.009	0.487
1120.000	649.268	80.007	19.993	103.774	20.135	3.165	0.506
1122.000	650.287	80.008	19.994	103.768	20.136	3.140	0.503
1124.000	651.343	80.006	19.994	103.768	20.138	2.972	0.517
1126.000	652.326	80.005	19.993	103.763	20.140	2.816	0.500
1128.001	653.349	80.004	19.994	103.771	20.137	3.016	0.509
1130.000	654.406	80.005	19.993	103.776	20.137	3.073	0.508
1132.000	655.444	80.003	19.994	103.763	20.137	3.003	0.530
1134.000	656.484	80.004	19.993	103.781	20.136	3.097	0.542
1136.000	657.476	80.006	19.996	103.783	20.138	2.966	0.502
1138.000	658.541	80.005	19.995	103.767	20.142	2.696	0.530
1140.000	659.566	80.005	19.994	103.776	20.141	2.766	0.502
1142.000	660.610	80.003	19.995	103.774	20.141	2.788	0.492
1144.000	661.572	80.003	19.995	103.766	20.143	2.630	0.507
1146.001	662.684	80.004	19.992	103.777	20.141	2.776	0.542
1148.000	663.648	80.005	19.995	103.766	20.141	2.739	0.491
1150.000	664.811	80.006	19.994	103.763	20.143	2.632	0.537
1152.000	665.775	80.004	19.994	103.766	20.143	2.643	0.813
1154.000	666.850	80.004	19.995	103.767	20.144	2.519	0.520
1156.000	667.912	80.004	19.994	103.764	20.145	2.462	0.502
1158.000	668.945	80.003	19.995	103.763	20.145	2.499	0.498
1160.000	669.977	80.004	19.994	103.758	20.144	2.577	0.509
1162.000	671.039	80.004	19.994	103.758	20.139	2.880	0.492
1164.000	672.102	80.006	19.994	103.772	20.143	2.647	0.503
1166.000	673.152	80.004	19.995	103.771	20.141	2.759	0.549
1168.000	674.186	80.005	19.994	103.772	20.142	2.720	0.556
1170.000	675.257	80.006	19.995	103.772	20.143	2.646	0.517
1172.000	676.333	80.006	19.992	103.774	20.141	2.775	0.531
1174.001	677.354	80.008	19.993	103.769	20.143	2.585	0.523
1176.000	678.348	80.008	19.994	103.777	20.143	2.642	0.464
1178.000	679.402	80.007	19.993	103.784	20.144	2.517	0.519
1180.000	680.449	80.006	19.994	103.773	20.146	2.428	0.495
1182.000	681.464	80.006	19.993	103.780	20.144	2.519	0.495
1184.000	682.538	80.007	19.994	103.771	20.145	2.470	0.535
1186.000	683.539	80.004	19.994	103.765	20.147	2.320	0.598
1188.000	684.543	80.005	19.992	103.786	20.144	2.538	0.386
1190.001	685.637	80.004	19.993	103.763	20.145	2.479	0.540
1192.000	686.662	80.004	19.993	103.761	20.147	2.325	0.506
1194.001	687.700	80.004	19.993	103.783	20.145	2.503	0.509
1196.000	688.657	80.008	19.994	103.779	20.143	2.581	0.488
1198.000	689.732	80.007	19.994	103.763	20.146	2.421	0.520
1200.000	690.708	80.007	19.993	103.761	20.142	2.673	0.497
1202.000	691.756	80.008	19.993	103.764	20.146	2.386	0.517
1204.000	692.773	80.006	19.993	103.768	20.144	2.511	0.488
1206.000	693.855	80.008	19.993	103.760	20.144	2.513	0.568
1208.000	694.811	80.005	19.993	103.766	20.146	2.437	0.494
1210.000	695.838	80.004	19.993	103.761	20.147	2.312	0.547
1212.000	696.809	80.005	19.993	103.775	20.144	2.558	0.507
1214.001	697.826	80.004	19.994	103.769	20.147	2.309	0.499
1216.000	698.867	80.005	19.994	103.758	20.146	2.413	0.509
1218.000	699.864	80.005	19.993	103.768	20.148	2.231	0.510
1220.000	700.870	80.004	19.993	103.768	20.148	2.231	0.503
1222.000	701.856	80.004	19.995	103.760	20.149	2.155	0.521
1224.000	702.884	80.005	19.996	103.763	20.149	2.192	0.503
1226.001	703.891	80.004	19.995	103.760	20.147	2.303	0.507
1228.000	704.927	80.005	19.995	103.760	20.147	2.357	0.494
1230.000	705.962	80.006	19.994	103.759	20.146	2.417	0.522
1232.000	706.940	80.005	19.994	103.761	20.146	2.429	0.502
1234.000	707.976	80.006	19.994	103.762	20.144	2.565	0.509
1236.000	708.994	80.005	19.994	103.755	20.144	2.540	0.493
1238.000	709.971	80.005	19.994	103.759	20.148	2.233	0.514
1240.000	710.994	80.005	19.994	103.780	20.147	2.325	0.486
1242.000	712.031	80.006	19.994	103.771	20.144	2.555	0.514
1244.000	713.023	80.005	19.994	103.767	20.147	2.296	0.505
1246.000	714.025	80.005	19.994	103.770	20.149	2.185	0.492
1248.000	715.088	80.005	19.994	103.771	20.148	2.247	0.485
1250.000	716.098	80.005	19.994	103.758	20.147	2.321	0.524
1252.000	717.204	80.005	19.994	103.756	20.148	2.259	0.562
1254.001	718.225	80.003	19.993	103.768	20.149	2.196	0.522
1256.000	719.224	80.007	19.996	103.772	20.147	2.298	0.502
1258.000	720.324	80.005	19.995	103.761	20.151	2.062	0.537
1260.001	721.328	80.006	19.993	103.763	20.148	2.231	0.521
1262.000	722.367	80.007	19.994	103.756	20.147	2.345	0.505
1264.000	723.440	80.004	19.995	103.755	20.146	2.370	0.537
1266.000	724.440	80.005	19.994	103.759	20.149	2.200	0.508
1268.000	725.522	80.006	19.993	103.770	20.147	2.343	0.541
1270.000	726.508	80.005	19.994	103.760	20.147	2.362	0.493
1272.000	727.616	80.006	19.994	103.762	20.145	2.464	0.534
1274.000	728.650	80.008	19.994	103.764	20.146	2.388	0.516
1276.000	729.677	80.007	19.993	103.768	20.147	2.364	0.530
1278.000	730.712	80.008	19.994	103.762	20.145	2.442	0.530
1280.000	731.772	80.008	19.994	103.759	20.149	2.206	0.531
1282.000	732.766	80.008	19.993	103.762	20.149	2.194	0.483
1284.000	733.764	80.008	19.993	103.759	20.146	2.372	0.488
1286.000	734.760	80.008	19.994	103.766	20.147	2.329	0.476
1288.000	735.768	80.006	19.994	103.761	20.150	2.105	0.491
1290.000	736.820	80.004	19.995	103.768	20.148	2.278	0.510
1292.000	737.816	80.005	19.993	103.755	20.147	2.315	0.498
1294.000	738.869	80.007	19.993	103.771	20.146	2.388	0.519
1296.001	739.906	80.006	19.994	103.771	20.148	2.288	0.513
1298.000	740.927	80.004	19.994	103.772	20.149	2.167	0.482
1300.000	741.943	80.006	19.994	103.757	20.148	2.266	0.515
1302.000	742.941	80.006	19.993	103.756	20.147	2.331	0.505
1303.000	743.459	80.006	19.993	103.755	20.146	2.399	0.494