File: 01_Data/Polyisocyanurate_Foam_Board/MCC/Polyisocyanurate_Foam_Board_MCC_30K_min_220214_R2.txt
Sample ID:	C:\MCC\MCC Cal\Test\Polyisocyanurate_Foam_Board_MCC_30K_min_220214_R2.txt
Sample Weight (mg):	4.66
Heating Rate (C/s):	0.5
Combustor Temp (C):	900
N2 Flow Rate (cc/min):	80
O2 Flow Rate (cc/min):	20
Calibration File:	C:\MCC\MCC Cal\Coeff1 JN10440_30_210304.txt.txt
T Correction Coefficients:	0	1.024463	0
Time Shift (s):	14
*
Time (s)	Temperature (C)	N2 flow rate (cc/min)	O2 flow rate (cc/min)	Flow Rate (cc/min)	Oxygen (%)	HRR (W/g)	Heating rate (C/s)
0.000	113.717	80.001	19.992	103.645	20.099	-0.161	-0.031
2.000	113.671	80.001	19.993	103.649	20.097	-0.052	-0.017
4.000	113.648	80.001	19.993	103.648	20.097	-0.056	-0.043
6.000	113.691	80.001	19.992	103.649	20.097	0.002	-0.019
8.000	113.664	80.001	19.994	103.645	20.097	-0.056	-0.028
10.000	113.695	80.002	19.992	103.641	20.099	-0.144	-0.002
12.000	113.671	80.001	19.993	103.636	20.095	0.105	0.001
14.001	113.658	80.003	19.993	103.646	20.096	0.017	0.002
16.000	113.659	80.003	19.994	103.675	20.101	-0.326	-0.014
18.000	113.688	80.003	19.993	103.686	20.093	0.219	0.038
20.000	113.680	80.005	19.993	103.687	20.089	0.533	-0.003
22.000	113.714	80.003	19.993	103.703	20.088	0.605	0.018
24.000	113.744	80.003	19.993	103.721	20.088	0.599	0.017
26.000	113.809	80.002	19.992	103.739	20.080	1.187	0.025
28.000	113.899	80.004	19.992	103.761	20.078	1.262	0.051
30.000	114.023	80.003	19.994	103.718	20.073	1.651	0.075
32.000	114.144	80.002	19.993	103.831	20.069	1.914	0.063
34.000	114.300	80.003	19.993	103.852	20.070	1.878	0.062
36.000	114.522	80.004	19.994	103.834	20.070	1.884	0.111
38.000	114.793	80.004	19.995	103.839	20.065	2.187	0.161
40.000	115.020	80.005	19.993	103.836	20.067	2.045	0.131
42.000	115.363	80.005	19.993	103.835	20.063	2.366	0.172
44.000	115.632	80.004	19.993	103.833	20.063	2.318	0.138
46.001	115.943	80.004	19.993	103.839	20.061	2.482	0.140
48.000	116.310	80.003	19.994	103.851	20.061	2.511	0.166
50.000	116.726	80.002	19.994	103.849	20.059	2.611	0.192
52.000	117.106	80.001	19.994	103.870	20.060	2.544	0.190
54.000	117.606	80.001	19.994	103.872	20.056	2.842	0.218
56.000	118.034	80.002	19.993	103.878	20.060	2.546	0.225
58.000	118.531	80.001	19.993	103.894	20.054	2.952	0.259
60.000	119.027	80.003	19.993	103.898	20.055	2.865	0.250
62.000	119.565	80.002	19.995	103.903	20.052	3.092	0.273
64.001	120.129	80.002	19.994	103.910	20.049	3.280	0.278
66.000	120.709	80.002	19.994	103.911	20.054	2.934	0.292
68.000	121.337	80.001	19.993	103.917	20.054	2.990	0.291
70.000	121.959	80.002	19.994	103.917	20.050	3.232	0.304
72.000	122.580	80.002	19.994	103.918	20.052	3.103	0.323
74.001	123.245	80.002	19.996	103.920	20.050	3.276	0.326
76.000	123.942	80.000	19.993	103.919	20.050	3.226	0.375
78.000	124.580	80.001	19.995	103.915	20.045	3.593	0.324
80.000	125.372	80.001	19.996	103.913	20.048	3.411	0.368
82.000	126.085	80.003	19.995	103.913	20.048	3.370	0.347
84.001	126.844	80.001	19.995	103.913	20.047	3.476	0.348
86.000	127.625	80.002	19.994	103.914	20.047	3.474	0.374
88.000	128.421	80.001	19.994	103.910	20.045	3.559	0.403
90.000	129.228	80.001	19.994	103.913	20.046	3.488	0.411
92.001	130.015	80.002	19.993	103.914	20.045	3.570	0.412
94.000	130.863	80.002	19.993	103.907	20.047	3.445	0.417
96.000	131.700	80.004	19.994	103.914	20.046	3.530	0.437
98.000	132.551	80.004	19.993	103.914	20.050	3.227	0.409
100.000	133.415	80.004	19.995	103.921	20.043	3.745	0.428
102.001	134.283	80.004	19.993	103.915	20.047	3.472	0.472
104.001	135.166	80.003	19.993	103.912	20.046	3.553	0.403
106.000	136.084	80.005	19.994	103.912	20.047	3.457	0.465
108.000	136.990	80.003	19.994	103.922	20.046	3.516	0.448
110.000	137.952	80.003	19.994	103.918	20.042	3.772	0.508
112.000	138.889	80.002	19.993	103.914	20.046	3.499	0.482
114.000	139.802	80.003	19.993	103.908	20.041	3.872	0.449
116.001	140.752	80.003	19.993	103.914	20.042	3.830	0.499
118.000	141.694	80.004	19.993	103.911	20.041	3.870	0.478
120.000	142.640	80.005	19.993	103.914	20.045	3.622	0.485
122.000	143.609	80.006	19.993	103.911	20.043	3.697	0.470
124.000	144.609	80.005	19.993	103.914	20.041	3.887	0.507
126.000	145.600	80.006	19.993	103.915	20.040	3.909	0.514
128.000	146.575	80.003	19.992	103.913	20.037	4.149	0.500
130.000	147.538	80.003	19.993	103.914	20.038	4.078	0.479
132.000	148.552	80.001	19.993	103.911	20.044	3.687	0.486
134.000	149.553	80.003	19.993	103.894	20.041	3.866	0.502
136.000	150.588	80.002	19.994	103.914	20.038	4.046	0.499
138.000	151.545	80.002	19.993	103.914	20.038	4.089	0.480
140.000	152.593	80.001	19.994	103.910	20.035	4.275	0.516
142.000	153.550	80.003	19.993	103.914	20.038	4.106	0.481
144.000	154.585	80.002	19.994	103.904	20.033	4.408	0.524
146.000	155.585	80.002	19.994	103.891	20.034	4.362	0.516
148.000	156.598	80.001	19.994	103.901	20.036	4.234	0.516
150.000	157.641	80.003	19.993	103.904	20.035	4.311	0.538
152.000	158.614	80.002	19.994	103.896	20.033	4.397	0.502
154.000	159.630	80.001	19.994	103.913	20.032	4.507	0.506
156.000	160.623	80.002	19.996	103.906	20.030	4.626	0.516
158.000	161.643	80.003	19.994	103.895	20.029	4.691	0.504
160.000	162.637	80.002	19.994	103.885	20.027	4.849	0.519
162.000	163.612	80.002	19.994	103.876	20.029	4.701	0.497
164.000	164.665	80.002	19.994	103.879	20.026	4.877	0.515
166.000	165.700	80.003	19.996	103.879	20.023	5.108	0.513
168.000	166.697	80.001	19.996	103.876	20.025	4.965	0.513
170.000	167.746	80.002	19.995	103.879	20.021	5.269	0.537
172.000	168.695	80.001	19.994	103.880	20.019	5.390	0.462
174.000	169.717	80.001	19.995	103.879	20.018	5.488	0.509
176.000	170.735	80.002	19.994	103.877	20.017	5.567	0.508
178.000	171.775	80.003	19.995	103.876	20.017	5.528	0.474
180.000	172.760	80.002	19.993	103.877	20.013	5.814	0.511
182.000	173.797	80.004	19.993	103.875	20.016	5.628	0.511
184.000	174.716	80.004	19.993	103.877	20.013	5.820	0.469
186.000	175.738	80.005	19.993	103.876	20.009	6.122	0.494
188.000	176.783	80.002	19.993	103.876	20.010	6.043	0.531
190.000	177.715	80.003	19.993	103.875	20.008	6.177	0.478
192.000	178.734	80.003	19.994	103.879	20.003	6.531	0.519
194.000	179.713	80.002	19.993	103.878	20.002	6.585	0.462
196.000	180.725	80.001	19.994	103.874	20.003	6.504	0.498
198.000	181.710	80.003	19.992	103.876	20.001	6.615	0.461
200.000	182.705	80.003	19.993	103.867	19.997	6.915	0.491
202.000	183.718	80.004	19.993	103.872	19.993	7.182	0.493
204.000	184.720	80.005	19.993	103.878	19.994	7.170	0.497
206.000	185.729	80.005	19.993	103.874	19.993	7.206	0.508
208.000	186.739	80.005	19.993	103.868	19.991	7.355	0.504
210.000	187.748	80.005	19.992	103.872	19.987	7.589	0.534
212.000	188.694	80.004	19.994	103.869	19.990	7.418	0.482
214.000	189.673	80.004	19.994	103.865	19.984	7.801	0.491
216.000	190.715	80.004	19.994	103.864	19.984	7.853	0.516
218.000	191.660	80.002	19.994	103.863	19.984	7.864	0.464
220.000	192.655	80.002	19.994	103.846	19.980	8.093	0.506
222.000	193.694	80.001	19.993	103.860	19.979	8.189	0.495
224.000	194.640	80.002	19.993	103.859	19.979	8.191	0.507
226.000	195.612	80.004	19.993	103.854	19.977	8.319	0.481
228.000	196.608	80.003	19.993	103.853	19.977	8.342	0.519
230.000	197.568	80.001	19.993	103.854	19.976	8.399	0.483
232.000	198.559	80.002	19.994	103.854	19.975	8.450	0.494
234.000	199.532	80.003	19.994	103.871	19.970	8.795	0.509
236.000	200.495	80.003	19.994	103.871	19.973	8.583	0.466
238.000	201.516	80.001	19.993	103.871	19.970	8.787	0.518
240.000	202.542	80.003	19.994	103.857	19.968	8.958	0.511
242.000	203.508	80.003	19.994	103.843	19.969	8.855	0.493
244.000	204.491	80.001	19.994	103.849	19.968	8.951	0.505
246.000	205.466	80.001	19.994	103.855	19.969	8.868	0.495
248.000	206.490	80.001	19.994	103.863	19.971	8.733	0.509
250.000	207.463	80.001	19.993	103.873	19.966	9.072	0.508
252.000	208.469	80.002	19.996	103.859	19.965	9.135	0.493
254.000	209.439	80.002	19.994	103.858	19.969	8.853	0.493
256.000	210.445	80.002	19.993	103.870	19.965	9.155	0.499
258.000	211.485	80.003	19.994	103.864	19.968	8.914	0.526
260.000	212.410	80.003	19.994	103.867	19.965	9.145	0.505
262.000	213.480	80.004	19.994	103.866	19.966	9.071	0.523
264.000	214.440	80.003	19.994	103.845	19.969	8.853	0.493
266.000	215.386	80.003	19.994	103.846	19.965	9.171	0.495
268.000	216.394	80.003	19.994	103.867	19.968	8.926	0.504
270.000	217.358	80.004	19.995	103.858	19.972	8.694	0.480
272.000	218.366	80.003	19.995	103.861	19.970	8.833	0.513
274.000	219.307	80.002	19.994	103.859	19.969	8.882	0.488
276.000	220.347	80.003	19.997	103.859	19.967	8.999	0.510
278.000	221.309	80.003	19.993	103.875	19.970	8.801	0.484
280.000	222.322	80.004	19.994	103.861	19.971	8.743	0.514
282.000	223.290	80.005	19.995	103.855	19.971	8.710	0.490
284.000	224.297	80.004	19.994	103.856	19.968	8.929	0.510
286.000	225.311	80.006	19.993	103.862	19.973	8.629	0.511
288.000	226.259	80.006	19.994	103.870	19.973	8.578	0.474
290.000	227.269	80.005	19.993	103.866	19.973	8.618	0.527
292.000	228.263	80.004	19.992	103.856	19.976	8.392	0.500
294.000	229.281	80.004	19.993	103.861	19.977	8.327	0.504
296.001	230.233	80.004	19.993	103.862	19.976	8.418	0.468
298.000	231.276	80.003	19.994	103.862	19.976	8.365	0.513
300.000	232.251	80.003	19.994	103.870	19.980	8.135	0.484
302.000	233.233	80.003	19.994	103.864	19.978	8.236	0.488
304.000	234.254	80.003	19.993	103.867	19.983	7.911	0.500
306.000	235.279	80.002	19.994	103.847	19.977	8.301	0.495
308.000	236.267	80.002	19.993	103.871	19.977	8.311	0.468
310.000	237.249	80.003	19.993	103.859	19.978	8.230	0.497
312.000	238.225	80.003	19.993	103.859	19.980	8.105	0.478
314.000	239.280	80.003	19.993	103.855	19.979	8.204	0.509
316.000	240.210	80.005	19.994	103.855	19.975	8.456	0.484
318.000	241.213	80.004	19.993	103.863	19.979	8.157	0.488
320.000	242.217	80.003	19.993	103.867	19.974	8.523	0.522
322.000	243.206	80.004	19.994	103.885	19.973	8.626	0.502
324.000	244.230	80.002	19.993	103.872	19.974	8.519	0.508
326.000	245.183	80.002	19.993	103.847	19.974	8.497	0.501
328.000	246.247	80.002	19.993	103.869	19.974	8.547	0.522
330.000	247.214	80.001	19.993	103.870	19.967	9.040	0.473
332.000	248.218	80.002	19.993	103.874	19.963	9.273	0.509
334.000	249.210	80.003	19.994	103.873	19.964	9.228	0.483
336.000	250.226	80.003	19.996	103.874	19.960	9.486	0.516
338.000	251.254	80.003	19.993	103.869	19.963	9.318	0.535
340.000	252.208	80.004	19.994	103.856	19.957	9.742	0.472
342.000	253.198	80.006	19.994	103.865	19.955	9.863	0.516
344.000	254.192	80.005	19.993	103.851	19.957	9.742	0.515
346.000	255.176	80.004	19.993	103.863	19.953	10.004	0.506
348.000	256.135	80.005	19.993	103.859	19.949	10.246	0.504
350.000	257.154	80.004	19.994	103.858	19.949	10.279	0.470
352.000	258.148	80.004	19.993	103.873	19.951	10.098	0.518
354.000	259.113	80.004	19.995	103.869	19.943	10.697	0.489
356.000	260.133	80.004	19.995	103.874	19.941	10.791	0.478
358.000	261.111	80.004	19.995	103.874	19.939	10.992	0.485
360.000	262.102	80.003	19.994	103.875	19.935	11.228	0.470
362.000	263.098	80.005	19.994	103.876	19.933	11.400	0.513
364.000	264.101	80.004	19.994	103.881	19.926	11.853	0.475
366.000	265.128	80.006	19.994	103.893	19.924	12.037	0.532
368.000	266.098	80.006	19.994	103.886	19.916	12.586	0.482
370.000	267.080	80.006	19.993	103.883	19.915	12.629	0.490
372.000	268.128	80.005	19.994	103.877	19.911	12.924	0.530
374.000	269.081	80.005	19.994	103.896	19.908	13.132	0.489
376.000	270.086	80.005	19.994	103.908	19.902	13.506	0.510
378.000	271.116	80.003	19.994	103.916	19.900	13.704	0.492
380.000	272.122	80.003	19.993	103.912	19.893	14.139	0.511
382.000	273.084	80.003	19.994	103.900	19.891	14.273	0.478
384.000	274.115	80.003	19.993	103.913	19.886	14.673	0.494
386.000	275.120	80.003	19.993	103.909	19.880	15.084	0.507
388.000	276.113	80.002	19.993	103.920	19.875	15.390	0.496
390.000	277.077	80.003	19.993	103.921	19.868	15.935	0.500
392.000	278.087	80.003	19.994	103.927	19.866	16.035	0.480
394.000	279.087	80.003	19.994	103.930	19.862	16.351	0.496
396.000	280.092	80.003	19.995	103.938	19.856	16.780	0.523
398.000	281.141	80.004	19.993	103.951	19.851	17.080	0.537
400.000	282.099	80.003	19.993	103.952	19.843	17.620	0.486
402.000	283.108	80.004	19.994	103.951	19.839	17.941	0.507
404.000	284.072	80.004	19.993	103.949	19.831	18.472	0.459
406.000	285.056	80.003	19.993	103.952	19.823	19.015	0.509
408.000	286.086	80.002	19.994	103.953	19.817	19.451	0.485
410.000	287.134	80.003	19.992	103.955	19.808	20.108	0.518
412.000	288.096	80.003	19.994	103.956	19.801	20.601	0.502
414.001	289.082	80.003	19.994	103.966	19.794	21.076	0.470
416.000	290.115	80.004	19.995	103.965	19.786	21.627	0.490
418.000	291.118	80.002	19.996	103.981	19.776	22.352	0.493
420.000	292.122	80.004	19.996	103.992	19.769	22.807	0.492
422.000	293.168	80.005	19.995	103.984	19.762	23.321	0.516
424.000	294.153	80.004	19.994	103.991	19.746	24.384	0.514
426.000	295.176	80.006	19.993	103.995	19.740	24.808	0.516
428.000	296.152	80.006	19.995	103.993	19.724	25.926	0.475
430.000	297.189	80.004	19.996	103.999	19.708	27.099	0.521
432.000	298.179	80.005	19.994	104.013	19.696	27.939	0.488
434.000	299.191	80.005	19.995	104.020	19.676	29.311	0.486
436.000	300.189	80.005	19.995	103.959	19.659	30.491	0.486
438.000	301.198	80.004	19.994	103.998	19.647	31.287	0.475
440.000	302.220	80.005	19.994	104.029	19.628	32.610	0.516
442.000	303.238	80.005	19.994	104.084	19.609	33.967	0.507
444.000	304.227	80.004	19.993	104.028	19.590	35.263	0.497
446.000	305.244	80.005	19.994	104.021	19.572	36.536	0.519
448.000	306.278	80.003	19.995	104.013	19.557	37.599	0.519
450.000	307.269	80.003	19.995	104.006	19.531	39.354	0.507
452.000	308.345	80.004	19.995	104.004	19.518	40.289	0.575
454.000	309.320	80.005	19.994	104.008	19.495	41.888	0.495
456.000	310.346	80.002	19.996	103.995	19.483	42.678	0.503
458.000	311.380	80.002	19.995	104.000	19.469	43.673	0.506
460.000	312.475	80.003	19.995	103.992	19.454	44.718	0.542
462.000	313.470	80.002	19.995	103.979	19.450	45.026	0.510
464.000	314.491	80.003	19.994	103.962	19.437	45.880	0.496
466.000	315.546	80.004	19.994	103.963	19.433	46.177	0.533
468.000	316.574	80.002	19.993	103.949	19.426	46.648	0.532
470.000	317.562	80.004	19.992	103.947	19.423	46.857	0.523
472.000	318.617	80.003	19.995	103.947	19.431	46.319	0.492
474.000	319.667	80.003	19.994	103.936	19.434	46.128	0.553
476.000	320.628	80.005	19.994	103.935	19.435	46.043	0.483
478.000	321.655	80.004	19.993	103.927	19.443	45.509	0.479
480.000	322.690	80.005	19.993	103.918	19.447	45.164	0.497
482.000	323.728	80.004	19.992	103.927	19.459	44.332	0.509
484.000	324.752	80.003	19.994	103.916	19.462	44.140	0.497
486.000	325.764	80.003	19.995	103.915	19.472	43.446	0.521
488.000	326.817	80.003	19.994	103.915	19.481	42.787	0.520
490.000	327.811	80.002	19.994	103.914	19.489	42.229	0.502
492.000	328.848	80.004	19.993	103.907	19.499	41.595	0.511
494.000	329.861	80.002	19.994	103.867	19.504	41.241	0.497
496.000	330.937	80.004	19.993	103.858	19.515	40.434	0.530
498.000	331.920	80.003	19.995	103.878	19.524	39.876	0.491
500.000	332.922	80.003	19.993	103.886	19.531	39.306	0.499
502.000	333.992	80.004	19.992	103.885	19.543	38.524	0.517
504.000	335.041	80.005	19.993	103.884	19.555	37.647	0.532
506.000	336.007	80.004	19.992	103.880	19.563	37.086	0.505
508.000	337.023	80.005	19.994	103.936	19.579	36.019	0.500
510.000	338.039	80.004	19.994	103.905	19.584	35.671	0.502
512.000	339.056	80.005	19.994	103.869	19.600	34.536	0.500
514.000	340.089	80.003	19.993	103.868	19.607	34.008	0.500
516.000	341.072	80.003	19.996	103.872	19.620	33.135	0.491
518.000	342.107	80.004	19.996	103.861	19.629	32.497	0.510
520.000	343.095	80.004	19.994	103.851	19.635	32.121	0.479
522.000	344.056	80.004	19.994	103.848	19.649	31.137	0.469
524.000	345.083	80.003	19.993	103.847	19.654	30.743	0.514
526.000	346.083	80.007	19.995	103.842	19.665	29.983	0.501
528.000	347.078	80.007	19.996	103.840	19.667	29.880	0.505
530.000	348.028	80.006	19.995	103.839	19.679	29.057	0.448
532.000	349.089	80.007	19.996	103.837	19.677	29.179	0.523
534.000	350.123	80.005	19.993	103.834	19.682	28.821	0.528
536.000	351.084	80.005	19.993	103.837	19.685	28.589	0.502
538.000	352.086	80.005	19.995	103.834	19.686	28.516	0.498
540.000	353.097	80.004	19.994	103.835	19.694	27.984	0.540
542.000	354.112	80.004	19.995	103.821	19.694	28.016	0.524
544.000	355.139	80.004	19.996	103.828	19.694	27.957	0.507
546.000	356.127	80.003	19.994	103.831	19.689	28.307	0.519
548.000	357.120	80.002	19.994	103.829	19.688	28.415	0.492
550.000	358.141	80.000	19.994	103.829	19.689	28.312	0.500
552.000	359.107	80.002	19.995	103.834	19.687	28.507	0.480
554.000	360.114	80.004	19.996	103.829	19.692	28.162	0.501
556.000	361.129	80.005	19.994	103.825	19.689	28.325	0.514
558.000	362.173	80.005	19.994	103.822	19.690	28.262	0.544
560.000	363.125	80.004	19.995	103.822	19.692	28.151	0.481
562.000	364.149	80.004	19.995	103.840	19.688	28.442	0.494
564.000	365.159	80.003	19.995	103.835	19.694	28.016	0.509
566.000	366.178	80.003	19.994	103.836	19.691	28.235	0.510
568.000	367.172	80.003	19.993	103.828	19.690	28.264	0.513
570.000	368.204	80.002	19.993	103.829	19.691	28.209	0.522
572.000	369.220	80.003	19.994	103.832	19.693	28.090	0.537
574.000	370.209	80.004	19.996	103.840	19.694	27.991	0.487
576.000	371.211	80.002	19.995	103.839	19.694	28.014	0.493
578.000	372.245	80.004	19.994	103.840	19.701	27.473	0.513
580.000	373.279	80.002	19.993	103.839	19.698	27.679	0.523
582.000	374.283	80.004	19.993	103.834	19.696	27.836	0.516
584.000	375.282	80.004	19.994	103.835	19.696	27.850	0.487
586.000	376.316	80.004	19.992	103.837	19.703	27.381	0.528
588.000	377.321	80.005	19.994	103.829	19.701	27.509	0.515
590.000	378.307	80.003	19.994	103.836	19.701	27.478	0.488
592.000	379.302	80.006	19.995	103.834	19.700	27.555	0.491
594.000	380.353	80.008	19.993	103.837	19.704	27.258	0.459
596.000	381.385	80.005	19.993	103.833	19.706	27.178	0.510
598.000	382.366	80.006	19.994	103.830	19.705	27.245	0.509
600.000	383.364	80.005	19.994	103.832	19.706	27.169	0.511
602.000	384.394	80.005	19.993	103.830	19.713	26.670	0.486
604.000	385.399	80.004	19.993	103.821	19.713	26.703	0.485
606.000	386.430	80.003	19.992	103.818	19.712	26.764	0.525
608.000	387.415	80.005	19.994	103.838	19.717	26.358	0.496
610.000	388.460	80.006	19.996	103.843	19.712	26.749	0.498
612.000	389.500	80.004	19.993	103.766	19.714	26.572	0.517
614.000	390.519	80.007	19.994	103.836	19.717	26.388	0.511
616.000	391.574	80.007	19.995	103.860	19.713	26.650	0.517
618.000	392.583	80.005	19.994	103.812	19.717	26.364	0.492
620.000	393.609	80.005	19.995	103.821	19.717	26.376	0.514
622.000	394.657	80.004	19.994	103.805	19.716	26.425	0.526
624.000	395.633	80.004	19.995	103.802	19.720	26.209	0.507
626.000	396.669	80.003	19.995	103.804	19.720	26.181	0.503
628.000	397.724	80.004	19.995	103.810	19.719	26.274	0.513
630.000	398.712	80.003	19.994	103.800	19.724	25.917	0.485
632.000	399.723	80.003	19.995	103.800	19.720	26.191	0.527
634.000	400.712	80.002	19.994	103.799	19.719	26.252	0.470
636.000	401.723	80.003	19.996	103.815	19.722	26.064	0.486
638.000	402.760	80.002	19.995	103.825	19.729	25.528	0.508
640.000	403.786	80.003	19.996	103.803	19.729	25.555	0.524
642.000	404.808	80.003	19.995	103.799	19.728	25.635	0.498
644.000	405.818	80.003	19.996	103.800	19.733	25.306	0.508
646.000	406.820	80.003	19.995	103.806	19.732	25.346	0.508
648.000	407.821	80.002	19.993	103.801	19.737	24.983	0.486
650.000	408.799	80.005	19.993	103.815	19.742	24.632	0.483
652.000	409.866	80.005	19.995	103.803	19.744	24.482	0.539
654.000	410.815	80.002	19.992	103.810	19.749	24.132	0.473
656.000	411.845	80.002	19.992	103.803	19.749	24.192	0.511
658.000	412.839	80.004	19.994	103.795	19.753	23.887	0.532
660.000	413.856	80.004	19.994	103.798	19.758	23.496	0.504
662.000	414.835	80.004	19.993	103.798	19.763	23.211	0.524
664.000	415.839	80.004	19.995	103.798	19.762	23.265	0.508
666.000	416.843	80.004	19.995	103.793	19.767	22.916	0.513
668.000	417.853	80.005	19.995	103.796	19.764	23.083	0.516
670.000	418.850	80.004	19.993	103.794	19.765	23.077	0.514
672.000	419.851	80.006	19.994	103.776	19.769	22.739	0.487
674.000	420.880	80.007	19.994	103.777	19.770	22.691	0.529
676.000	421.947	80.004	19.995	103.795	19.772	22.542	0.506
678.000	422.907	80.005	19.993	103.799	19.775	22.360	0.485
680.000	423.950	80.004	19.994	103.797	19.782	21.881	0.505
682.000	424.925	80.003	19.993	103.795	19.774	22.401	0.491
684.000	425.954	80.006	19.993	103.797	19.774	22.427	0.516
686.000	426.977	80.005	19.995	103.793	19.782	21.882	0.526
688.000	427.965	80.006	19.993	103.791	19.783	21.819	0.503
690.000	428.952	80.006	19.993	103.796	19.782	21.891	0.508
692.000	429.980	80.006	19.992	103.780	19.783	21.777	0.501
694.000	430.951	80.006	19.993	103.792	19.789	21.383	0.486
696.000	431.937	80.007	19.997	103.800	19.787	21.500	0.477
698.000	432.974	80.005	19.993	103.796	19.790	21.295	0.520
700.000	434.032	80.005	19.993	103.795	19.792	21.180	0.534
702.000	435.019	80.002	19.994	103.783	19.794	21.037	0.505
704.000	436.013	80.002	19.993	103.789	19.794	21.037	0.478
706.000	437.076	80.004	19.994	103.793	19.793	21.071	0.537
708.000	438.046	80.002	19.994	103.793	19.793	21.083	0.507
710.000	439.058	80.003	19.994	103.788	19.798	20.787	0.502
712.000	440.043	80.004	19.993	103.801	19.799	20.689	0.494
714.000	441.053	80.003	19.995	103.799	19.797	20.843	0.492
716.000	442.095	80.004	19.994	103.802	19.803	20.401	0.512
718.000	443.082	80.003	19.994	103.796	19.802	20.485	0.507
720.000	444.135	80.003	19.993	103.797	19.802	20.470	0.508
722.000	445.136	80.003	19.994	103.794	19.799	20.674	0.513
724.000	446.161	80.004	19.993	103.793	19.798	20.727	0.516
726.000	447.188	80.003	19.994	103.799	19.797	20.816	0.515
728.000	448.231	80.003	19.995	103.794	19.797	20.839	0.528
730.000	449.256	80.004	19.995	103.793	19.793	21.116	0.543
732.000	450.288	80.004	19.996	103.797	19.794	21.039	0.531
734.000	451.336	80.004	19.994	103.794	19.788	21.423	0.503
736.000	452.388	80.002	19.995	103.795	19.787	21.488	0.523
738.000	453.439	80.002	19.995	103.794	19.782	21.869	0.544
740.000	454.450	80.004	19.994	103.791	19.779	22.046	0.539
742.000	455.466	80.003	19.994	103.794	19.795	20.938	0.542
744.000	456.501	80.004	19.993	103.786	19.788	21.422	0.501
746.000	457.544	80.005	19.994	103.795	19.778	22.117	0.534
748.000	458.579	80.006	19.993	103.794	19.775	22.350	0.542
750.000	459.607	80.006	19.994	103.794	19.769	22.772	0.533
752.000	460.651	80.006	19.994	103.795	19.765	23.072	0.519
754.000	461.669	80.007	19.993	103.780	19.759	23.491	0.534
756.000	462.637	80.006	19.994	103.796	19.760	23.400	0.527
758.000	463.672	80.005	19.993	103.795	19.752	23.941	0.495
760.000	464.723	80.006	19.995	103.790	19.755	23.753	0.502
762.000	465.717	80.004	19.994	103.798	19.751	24.027	0.525
764.000	466.789	80.004	19.994	103.795	19.745	24.437	0.536
766.000	467.833	80.005	19.993	103.795	19.744	24.480	0.526
768.000	468.886	80.004	19.994	103.798	19.746	24.396	0.525
770.000	469.920	80.004	19.993	103.801	19.742	24.633	0.533
772.000	470.930	80.005	19.993	103.805	19.744	24.479	0.510
774.000	471.980	80.006	19.992	103.801	19.741	24.728	0.515
776.000	472.990	80.006	19.992	103.800	19.736	25.063	0.536
778.000	474.047	80.005	19.992	103.803	19.739	24.830	0.537
780.000	475.096	80.006	19.993	103.800	19.739	24.837	0.516
782.000	476.165	80.005	19.992	103.800	19.737	24.979	0.515
784.000	477.203	80.003	19.993	103.800	19.734	25.225	0.542
786.000	478.241	80.005	19.993	103.800	19.733	25.254	0.519
788.000	479.243	80.003	19.994	103.801	19.736	25.066	0.521
790.000	480.308	80.003	19.994	103.799	19.736	25.062	0.523
792.000	481.317	80.003	19.994	103.796	19.739	24.860	0.501
794.000	482.338	80.004	19.994	103.798	19.741	24.745	0.488
796.000	483.331	80.005	19.994	103.800	19.740	24.780	0.487
798.000	484.382	80.003	19.995	103.798	19.742	24.628	0.524
800.000	485.431	80.003	19.995	103.798	19.742	24.662	0.545
802.000	486.490	80.004	19.995	103.797	19.743	24.584	0.566
804.000	487.508	80.003	19.994	103.796	19.749	24.186	0.520
806.000	488.519	80.003	19.995	103.799	19.751	24.040	0.505
808.000	489.559	80.004	19.994	103.797	19.751	24.023	0.492
810.000	490.627	80.004	19.995	103.795	19.754	23.791	0.501
812.000	491.633	80.005	19.993	103.795	19.759	23.434	0.518
814.000	492.692	80.004	19.994	103.793	19.760	23.427	0.530
816.001	493.697	80.004	19.996	103.795	19.767	22.894	0.494
818.000	494.777	80.004	19.997	103.793	19.770	22.693	0.540
820.000	495.813	80.003	19.995	103.796	19.774	22.420	0.503
822.000	496.875	80.002	19.995	103.796	19.780	21.972	0.513
824.000	497.900	80.002	19.995	103.798	19.781	21.912	0.514
826.000	498.946	80.003	19.995	103.792	19.787	21.500	0.543
828.000	499.928	80.003	19.994	103.793	19.792	21.200	0.488
830.000	500.968	80.004	19.995	103.798	19.793	21.116	0.527
832.000	502.004	80.004	19.995	103.796	19.801	20.536	0.509
834.000	503.051	80.005	19.993	103.798	19.808	20.050	0.505
836.000	504.037	80.005	19.994	103.796	19.808	20.038	0.499
838.000	505.064	80.004	19.993	103.794	19.814	19.653	0.527
840.000	506.104	80.004	19.994	103.799	19.816	19.526	0.504
842.000	507.112	80.004	19.993	103.798	19.819	19.259	0.518
844.000	508.170	80.004	19.992	103.799	19.821	19.129	0.541
846.000	509.170	80.005	19.993	103.794	19.828	18.644	0.496
848.000	510.226	80.004	19.994	103.796	19.835	18.206	0.527
850.000	511.242	80.005	19.994	103.797	19.836	18.079	0.531
852.000	512.234	80.006	19.994	103.793	19.843	17.593	0.493
854.000	513.280	80.006	19.993	103.786	19.846	17.441	0.534
856.000	514.295	80.006	19.993	103.772	19.850	17.123	0.527
858.000	515.369	80.006	19.993	103.777	19.855	16.773	0.515
860.000	516.356	80.007	19.993	103.775	19.861	16.369	0.484
862.000	517.428	80.007	19.994	103.764	19.865	16.097	0.504
864.000	518.450	80.005	19.994	103.777	19.870	15.737	0.508
866.000	519.481	80.003	19.994	103.766	19.871	15.652	0.526
868.000	520.556	80.004	19.993	103.764	19.874	15.486	0.513
870.000	521.605	80.004	19.994	103.759	19.880	15.030	0.530
872.000	522.616	80.005	19.993	103.768	19.882	14.909	0.530
874.000	523.665	80.005	19.994	103.779	19.887	14.581	0.523
876.000	524.686	80.004	19.994	103.779	19.889	14.400	0.506
878.000	525.698	80.005	19.995	103.779	19.893	14.166	0.535
880.000	526.721	80.004	19.994	103.771	19.894	14.081	0.497
882.000	527.774	80.005	19.993	103.765	19.894	14.087	0.516
884.000	528.850	80.005	19.994	103.763	19.898	13.823	0.529
886.000	529.829	80.005	19.994	103.762	19.904	13.402	0.478
888.000	530.872	80.005	19.993	103.759	19.904	13.362	0.518
890.000	531.874	80.003	19.995	103.760	19.906	13.231	0.527
892.000	532.884	80.004	19.994	103.772	19.906	13.222	0.510
894.000	533.903	80.004	19.994	103.771	19.907	13.192	0.488
896.000	534.889	80.003	19.995	103.761	19.910	12.982	0.528
898.000	535.920	80.003	19.994	103.761	19.908	13.082	0.530
900.000	536.920	80.004	19.993	103.757	19.910	12.967	0.474
902.000	537.966	80.002	19.993	103.758	19.910	12.995	0.488
904.000	539.007	80.003	19.994	103.763	19.915	12.608	0.498
906.000	539.997	80.004	19.993	103.766	19.915	12.629	0.474
908.000	540.977	80.003	19.994	103.759	19.916	12.527	0.526
910.000	542.022	80.004	19.993	103.761	19.914	12.669	0.492
912.000	543.032	80.005	19.993	103.760	19.918	12.417	0.500
914.000	544.039	80.005	19.993	103.759	19.921	12.224	0.520
916.000	545.064	80.006	19.995	103.759	19.922	12.130	0.499
918.000	546.051	80.006	19.994	103.757	19.922	12.108	0.516
920.000	547.118	80.004	19.995	103.755	19.922	12.098	0.545
922.000	548.143	80.004	19.994	103.756	19.920	12.281	0.492
924.000	549.145	80.005	19.995	103.756	19.924	11.996	0.518
926.000	550.219	80.004	19.994	103.755	19.923	12.059	0.545
928.000	551.205	80.004	19.994	103.760	19.925	11.943	0.508
930.000	552.246	80.005	19.994	103.766	19.923	12.037	0.529
932.000	553.301	80.006	19.993	103.758	19.922	12.148	0.526
934.000	554.352	80.006	19.992	103.758	19.921	12.195	0.527
936.000	555.378	80.005	19.993	103.758	19.925	11.901	0.501
938.000	556.427	80.006	19.993	103.756	19.921	12.175	0.533
940.000	557.451	80.007	19.992	103.750	19.921	12.226	0.525
942.000	558.461	80.007	19.993	103.752	19.924	11.993	0.529
944.000	559.487	80.008	19.994	103.757	19.926	11.853	0.522
946.000	560.563	80.005	19.994	103.765	19.925	11.894	0.552
948.000	561.594	80.004	19.995	103.763	19.924	11.999	0.549
950.000	562.661	80.004	19.994	103.762	19.920	12.255	0.517
952.000	563.694	80.003	19.993	103.758	19.922	12.164	0.539
954.000	564.715	80.003	19.992	103.753	19.921	12.224	0.520
956.000	565.764	80.003	19.993	103.760	19.918	12.416	0.548
958.000	566.813	80.003	19.994	103.756	19.918	12.388	0.525
960.000	567.852	80.003	19.993	103.759	19.919	12.306	0.522
962.000	568.923	80.005	19.993	103.753	19.916	12.535	0.550
964.000	569.918	80.004	19.993	103.758	19.919	12.316	0.528
966.000	570.996	80.004	19.994	103.761	19.916	12.541	0.532
968.000	572.021	80.005	19.993	103.764	19.926	11.877	0.552
970.000	573.063	80.004	19.994	103.770	19.920	12.247	0.506
972.000	574.141	80.004	19.992	103.762	19.923	12.084	0.537
974.000	575.242	80.002	19.991	103.760	19.925	11.919	0.537
976.000	576.312	80.004	19.993	103.763	19.920	12.303	0.524
978.000	577.319	80.004	19.994	103.763	19.922	12.147	0.509
980.000	578.347	80.003	19.993	103.761	19.922	12.112	0.534
982.000	579.434	80.004	19.994	103.758	19.924	11.987	0.512
984.000	580.494	80.003	19.995	103.759	19.926	11.859	0.551
986.000	581.500	80.004	19.996	103.757	19.931	11.515	0.505
988.000	582.566	80.004	19.994	103.757	19.930	11.600	0.491
990.000	583.641	80.005	19.994	103.757	19.935	11.225	0.533
992.000	584.658	80.005	19.993	103.750	19.934	11.330	0.498
994.000	585.735	80.004	19.993	103.752	19.934	11.279	0.542
996.000	586.785	80.007	19.996	103.751	19.937	11.082	0.507
998.000	587.828	80.005	19.994	103.755	19.933	11.348	0.544
1000.000	588.937	80.006	19.994	103.746	19.935	11.194	0.559
1002.000	589.947	80.007	19.994	103.733	19.938	10.996	0.532
1004.000	591.016	80.003	19.994	103.747	19.943	10.694	0.524
1006.000	592.121	80.006	19.993	103.756	19.942	10.771	0.574
1008.000	593.042	80.006	19.996	103.747	19.948	10.298	0.508
1010.000	594.119	80.005	19.995	103.744	19.936	11.171	0.547
1012.000	595.223	80.006	19.994	103.749	19.943	10.664	0.558
1014.000	596.172	80.005	19.995	103.757	19.952	10.035	0.430
1016.000	597.135	80.007	19.995	103.746	19.955	9.841	0.517
1018.000	598.324	80.008	19.994	103.752	19.949	10.245	0.571
1020.000	599.424	80.008	19.994	103.728	19.954	9.932	0.721
1022.000	600.383	80.006	19.993	103.729	19.956	9.794	0.391
1024.000	600.716	80.005	19.994	103.746	19.954	9.890	0.045
1026.000	602.176	80.004	19.992	103.745	19.959	9.560	0.448
1028.000	603.392	80.004	19.992	103.736	19.962	9.353	0.395
1030.000	604.462	80.004	19.994	103.740	19.963	9.299	0.503
1032.001	605.448	80.004	19.993	103.754	19.965	9.139	0.515
1034.000	606.476	80.004	19.993	103.744	19.967	9.034	0.497
1036.000	607.522	80.005	19.993	103.741	19.967	9.032	0.575
1038.000	608.485	80.005	19.993	103.752	19.969	8.861	0.523
1040.000	609.499	80.004	19.992	103.747	19.977	8.320	0.503
1042.000	610.559	80.006	19.993	103.743	19.972	8.669	0.475
1044.000	611.608	80.005	19.993	103.749	19.979	8.192	0.508
1046.000	612.662	80.004	19.993	103.746	19.979	8.136	0.527
1048.000	613.678	80.005	19.993	103.748	19.984	7.823	0.522
1050.000	614.707	80.006	19.993	103.747	19.985	7.752	0.485
1052.000	615.749	80.005	19.994	103.745	19.986	7.665	0.565
1054.000	616.832	80.005	19.993	103.744	19.990	7.374	0.515
1056.000	617.796	80.004	19.995	103.748	19.990	7.394	0.510
1058.001	618.790	80.005	19.995	103.744	19.994	7.111	0.500
1060.000	619.826	80.005	19.994	103.736	19.994	7.110	0.501
1062.000	620.846	80.004	19.994	103.733	19.996	7.015	0.500
1064.000	621.887	80.005	19.994	103.732	20.000	6.744	0.508
1066.001	622.911	80.005	19.994	103.733	19.998	6.853	0.497
1068.000	623.920	80.003	19.993	103.726	20.001	6.613	0.567
1070.000	624.932	80.005	19.993	103.743	20.003	6.527	0.483
1072.000	625.969	80.004	19.993	103.739	20.007	6.237	0.493
1074.000	627.040	80.006	19.994	103.721	20.005	6.335	0.550
1076.000	628.029	80.005	19.995	103.720	20.007	6.239	0.500
1078.001	629.049	80.005	19.992	103.717	20.013	5.833	0.504
1080.000	630.047	80.007	19.994	103.714	20.010	6.000	0.504
1082.001	631.079	80.005	19.994	103.719	20.014	5.743	0.523
1084.000	632.095	80.004	19.994	103.721	20.013	5.779	0.534
1086.000	633.112	80.006	19.994	103.727	20.016	5.631	0.528
1088.000	634.141	80.005	19.993	103.721	20.019	5.420	0.522
1090.000	635.128	80.005	19.993	103.724	20.019	5.390	0.500
1092.000	636.183	80.005	19.993	103.723	20.021	5.276	0.524
1094.000	637.184	80.004	19.993	103.722	20.022	5.156	0.488
1096.000	638.224	80.007	19.996	103.723	20.020	5.355	0.491
1098.000	639.182	80.007	19.995	103.721	20.023	5.100	0.498
1100.001	640.250	80.004	19.993	103.720	20.025	4.979	0.517
1102.000	641.287	80.005	19.995	103.720	20.026	4.873	0.553
1104.000	642.298	80.004	19.993	103.725	20.026	4.891	0.508
1106.000	643.251	80.003	19.994	103.723	20.022	5.173	0.509
1108.000	644.288	80.003	19.995	103.719	20.026	4.927	0.518
1110.000	645.308	80.002	19.994	103.719	20.026	4.896	0.529
1112.000	646.288	80.003	19.994	103.718	20.025	4.954	0.506
1114.000	647.313	80.004	19.994	103.715	20.027	4.827	0.512
1116.001	648.338	80.004	19.995	103.715	20.028	4.741	0.481
1118.000	649.348	80.004	19.994	103.719	20.031	4.565	0.514
1120.000	650.389	80.004	19.995	103.717	20.032	4.505	0.527
1122.001	651.390	80.003	19.993	103.720	20.033	4.415	0.493
1124.001	652.419	80.004	19.993	103.715	20.030	4.624	0.513
1126.000	653.416	80.004	19.994	103.716	20.029	4.687	0.521
1128.000	654.468	80.004	19.993	103.717	20.030	4.622	0.507
1130.000	655.510	80.002	19.994	103.719	20.033	4.405	0.514
1132.000	656.547	80.003	19.994	103.712	20.031	4.578	0.521
1134.000	657.574	80.004	19.993	103.714	20.035	4.273	0.515
1136.000	658.623	80.003	19.994	103.711	20.038	4.095	0.512
1138.000	659.644	80.005	19.993	103.713	20.033	4.417	0.508
1140.000	660.674	80.003	19.994	103.708	20.037	4.169	0.503
1142.001	661.679	80.002	19.994	103.706	20.038	4.068	0.494
1144.000	662.703	80.003	19.994	103.710	20.036	4.217	0.416
1146.000	663.583	80.001	19.995	103.716	20.038	4.073	0.998
1148.000	664.844	80.004	19.994	103.717	20.039	4.029	0.439
1150.000	665.800	80.002	19.994	103.718	20.036	4.179	0.511
1152.000	666.826	80.004	19.993	103.712	20.035	4.265	0.499
1154.000	667.798	80.006	19.994	103.713	20.039	3.977	0.469
1156.000	668.837	80.003	19.993	103.706	20.036	4.187	0.499
1158.000	669.895	80.005	19.994	103.707	20.040	3.960	0.518
1160.000	670.929	80.004	19.992	103.714	20.037	4.167	0.526
1162.000	671.934	80.006	19.993	103.722	20.039	3.997	0.512
1164.000	672.921	80.004	19.994	103.704	20.037	4.149	0.512
1166.001	673.963	80.003	19.994	103.707	20.038	4.099	0.503
1168.000	674.999	80.004	19.995	103.706	20.038	4.085	0.512
1170.000	676.012	80.004	19.994	103.699	20.039	3.997	0.464
1172.000	677.022	80.004	19.993	103.713	20.040	3.901	0.511
1174.000	678.050	80.005	19.994	103.721	20.036	4.179	0.511
1176.000	679.054	80.006	19.995	103.718	20.040	3.914	0.525
1178.001	680.069	80.006	19.995	103.718	20.039	3.968	0.500
1180.000	681.103	80.006	19.994	103.707	20.039	3.988	0.513
1182.001	682.130	80.009	19.994	103.704	20.040	3.897	0.555
1184.000	683.145	80.008	19.993	103.704	20.037	4.160	0.497
1186.001	684.195	80.007	19.993	103.700	20.038	4.043	0.489
1188.000	684.957	80.007	19.993	103.703	20.038	4.070	0.520
1190.000	686.179	80.005	19.993	103.730	20.040	3.966	0.504
1192.000	687.262	80.005	19.994	103.719	20.040	3.902	0.510
1194.000	688.233	80.003	19.994	103.708	20.042	3.781	0.502
1196.000	689.283	80.002	19.995	103.704	20.040	3.908	0.494
1198.000	690.302	80.003	19.997	103.713	20.040	3.966	0.519
1200.000	691.339	80.003	19.996	103.716	20.038	4.043	0.498
1202.001	692.320	80.002	19.995	103.701	20.039	3.981	0.492
1204.000	693.344	80.005	19.995	103.696	20.041	3.893	0.522
1206.000	694.397	80.003	19.995	103.700	20.043	3.738	0.505
1208.000	695.421	80.003	19.995	103.710	20.043	3.718	0.477
1210.000	696.459	80.002	19.994	103.709	20.043	3.751	0.524
1212.000	697.468	80.006	19.993	103.701	20.042	3.806	0.506
1214.000	698.485	80.003	19.993	103.708	20.041	3.849	0.497
1216.000	699.486	80.002	19.994	103.711	20.043	3.750	0.474
1218.000	700.530	80.003	19.993	103.705	20.041	3.849	0.514
1220.000	701.526	80.005	19.994	103.704	20.040	3.899	0.500
1222.000	702.576	80.006	19.994	103.699	20.044	3.678	0.529
1224.000	703.556	80.008	19.994	103.692	20.044	3.663	0.487
1226.001	704.585	80.004	19.994	103.718	20.040	3.930	0.481
1228.000	705.571	80.003	19.994	103.719	20.041	3.872	0.480
1230.001	706.577	80.002	19.994	103.711	20.043	3.732	0.514
1232.000	707.644	80.004	19.993	103.703	20.043	3.693	0.522
1234.001	708.591	80.004	19.995	103.709	20.041	3.843	0.516
1236.000	709.643	80.004	19.994	103.713	20.042	3.797	0.505
1238.001	710.631	80.005	19.994	103.713	20.045	3.611	0.481
1240.000	711.675	80.004	19.994	103.708	20.040	3.914	0.527
1242.000	712.680	80.010	19.993	103.704	20.047	3.444	0.509
1244.000	713.714	80.001	19.993	103.701	20.042	3.804	0.480
1246.000	714.695	80.005	19.993	103.697	20.043	3.723	0.482
1248.000	715.769	80.008	19.992	103.705	20.044	3.663	0.521
1250.000	716.823	80.003	19.993	103.701	20.042	3.815	0.513
1252.000	717.848	80.007	19.993	103.700	20.044	3.676	0.523
1254.000	718.855	80.006	19.994	103.691	20.042	3.795	0.517
1256.000	719.880	80.003	19.995	103.711	20.044	3.657	0.488
1258.000	720.909	79.998	19.994	103.714	20.043	3.739	0.531
1260.000	721.912	80.004	19.996	103.712	20.042	3.811	0.488
1262.001	722.924	80.006	19.995	103.716	20.045	3.604	0.497
1264.000	723.934	80.009	19.994	103.691	20.044	3.676	0.505
1266.001	724.980	80.004	19.995	103.689	20.045	3.561	0.515
1268.000	725.998	80.012	19.994	103.704	20.043	3.705	0.518
1270.000	726.994	80.004	19.995	103.706	20.040	3.915	0.501
1272.000	728.036	80.005	19.994	103.712	20.041	3.835	0.510
1274.000	729.070	80.005	19.995	103.714	20.041	3.862	0.490
1276.000	730.090	80.005	19.994	103.700	20.044	3.678	0.492
1278.000	731.090	80.002	19.994	103.697	20.041	3.895	0.486
1280.000	732.126	80.003	19.995	103.688	20.037	4.131	0.490
1282.000	733.118	79.999	19.994	103.685	20.040	3.951	0.517
1284.000	734.114	80.006	19.995	103.695	20.041	3.894	0.488
1286.000	735.193	80.003	19.994	103.705	20.042	3.812	0.537
1288.000	736.187	80.004	19.994	103.717	20.044	3.682	0.484
1290.000	737.180	80.017	19.992	103.720	20.042	3.809	0.525
1292.000	738.192	80.010	19.995	103.716	20.042	3.812	0.541
1294.000	739.211	80.007	19.995	103.698	20.045	3.594	0.473
1296.000	740.206	80.002	19.995	103.698	20.043	3.743	0.484
1298.000	741.208	80.003	19.995	103.710	20.044	3.662	0.514
1300.001	742.219	80.003	19.994	103.713	20.045	3.570	0.525
1302.000	743.202	80.006	19.993	103.705	20.042	3.791	0.496
1303.000	743.719	80.009	19.995	103.705	20.043	3.745	0.528