File: 01_Data/PP/Cone/PP_Cone_HF25Scan_220203_R1.csv
Names,Time,Stack TC,Smoke TC,Exh Press,Smoke Comp,Smoke Meas,CO Meter,CO2 Meter,O2 Meter,Sample Mass,Ext Coeff,Start Test,Flame Verif
Chan Gain,,500,500,1,1,1,1,1,1,1,1,1.0,1.0
Offset,,0,0,0.14021,0,0,0,0,0,0,0,0.0,0.0
Gain,,1,1,25.011,13.3046,13.3037,1,1,1,1.00093,1.10262,1.0,1.0
Units,sec,C,C,Pa,%,%,%,%,%,g,/m,,
Baseline,,16.7869,17.9104,144.929,100.482,106.399,0.00266438,0.115968,20.8692,-869.987,-0.553478,,
4,0.75,14.6334,15.9119,146.927,99.3621,105.115,0.0022525,0.125209,20.8568,30.2381,-0.544346,0.0,0.0
8,1.75,15.8577,16.2688,144.032,99.3049,105.257,0.00223725,0.124801,20.8576,30.208,-0.563024,0.0,0.0
12,2.75,14.6689,15.6663,146.326,99.2541,105.055,0.00227346,0.124448,20.8583,30.228,-0.549335,0.0,0.0
16,3.75,15.2665,16.0791,141.972,99.2087,104.769,0.0023345,0.124262,20.8588,30.218,-0.527454,0.0,0.0
20,4.75,15.1446,15.9102,145.281,99.1551,105.115,0.00238546,0.124738,20.8586,30.198,-0.5646,0.0,0.0
24,5.75,15.4183,15.8886,144.272,99.1254,105.098,0.00241365,0.125376,20.8582,30.208,-0.565922,0.0,0.0
28,6.75,15.3182,16.0351,145.062,99.0828,105.271,0.00242025,0.125843,20.8571,30.208,-0.585986,0.0,0.0
32,7.75,15.0511,15.8759,143.056,99.0491,105.126,0.00241319,0.126111,20.8564,30.198,-0.575951,0.0,0.0
36,8.75,15.3793,16.3972,143.163,99.0048,104.655,0.00237892,0.126204,20.8559,30.208,-0.536771,0.0,0.0
40,9.75,15.3795,16.1419,146.571,98.9886,104.903,0.00231542,0.126022,20.8564,30.198,-0.561293,0.0,0.0
44,10.75,15.7371,16.3122,147.234,98.9724,105.004,0.00223747,0.125678,20.8575,30.198,-0.572159,0.0,0.0
48,11.75,15.1331,16.6756,145.919,98.9476,104.991,0.00215876,0.125213,20.8582,30.168,-0.573383,0.0,0.0
52,12.75,15.5283,16.4138,144.896,98.9431,104.968,0.00209749,0.124627,20.8594,30.188,-0.571726,0.0,0.0
56,13.75,15.7104,16.7282,144.039,98.9387,104.972,0.0020715,0.12403,20.8603,30.208,-0.572536,0.0,0.0
60,14.75,15.9254,16.4913,146.767,98.9569,105.011,0.00206228,0.123365,20.8613,30.188,-0.574303,0.0,0.0
64,15.75,16.0405,16.468,145.86,98.9472,104.705,0.00205403,0.122673,20.8625,30.188,-0.547057,0.0,0.0
68,16.75,15.7217,16.6528,142.721,98.95,104.91,0.00206256,0.121901,20.8639,30.178,-0.565699,0.0,0.0
72,17.75,15.8541,17.0116,146.489,98.9744,104.931,0.00211203,0.121238,20.8648,30.188,-0.565264,0.0,0.0
76,18.75,15.7765,16.9555,142.491,99.0008,104.471,0.00220549,0.120679,20.8654,30.188,-0.520155,0.0,0.0
80,19.75,15.7057,17.3059,146.139,99.028,105.169,0.00232953,0.120245,20.8658,30.168,-0.581933,0.0,0.0
84,20.75,15.9921,16.9092,146.475,99.0653,105.071,0.00243459,0.12001,20.8655,30.168,-0.569245,0.0,0.0
88,21.75,15.8437,16.8309,143.444,99.1128,104.926,0.00252156,0.11998,20.8651,30.178,-0.551295,0.0,0.0
92,22.75,15.8467,16.9663,146.52,99.1656,104.931,0.00258807,0.120234,20.8643,30.168,-0.546594,0.0,0.0
96,23.75,16.1732,16.6995,147.062,99.2078,105.438,0.00263345,0.120675,20.863,30.168,-0.589105,0.0,0.0
100,24.75,15.2602,17.4112,145.495,99.2655,105.106,0.00265238,0.121338,20.8628,30.158,-0.55301,0.0,0.0
104,25.75,15.7806,16.9581,147.048,99.3248,105.374,0.00266724,0.122096,20.862,30.178,-0.571863,0.0,0.0
108,26.75,16.1264,16.7073,148.552,99.3792,105.494,0.00269697,0.122746,20.8613,30.158,-0.577516,0.0,0.0
112,27.75,16.1968,16.8386,141.103,99.4458,105.324,0.00274313,0.123375,20.8603,30.178,-0.555502,0.0,0.0
116,28.75,15.377,16.7949,144.146,99.5193,105.319,0.00277866,0.124306,20.8584,30.158,-0.547873,0.0,0.0
120,29.75,16.1176,16.9388,141.257,99.5915,105.565,0.00279639,0.125235,20.8565,30.168,-0.563419,0.0,0.0
124,30.75,16.0256,16.8727,145.809,99.6886,105.484,0.00278134,0.126308,20.8541,30.178,-0.546595,0.0,0.0
128,31.75,16.4415,16.7639,142.586,99.7523,105.509,0.00274936,0.127373,20.8532,30.168,-0.542683,0.0,0.0
132,32.75,15.8364,16.6273,146.188,99.8323,105.855,0.00270944,0.128339,20.8523,30.158,-0.566551,0.0,0.0
136,33.75,15.1862,17.0621,147.155,99.9058,106.122,0.00264969,0.129325,20.8518,30.158,-0.583813,0.0,0.0
140,34.75,16.3295,17.4,148.312,99.9878,105.977,0.00258165,0.129806,20.8514,30.168,-0.562656,0.0,0.0
144,35.75,16.011,16.9175,147.801,100.066,106.07,0.00251658,0.1304,20.8511,30.168,-0.563561,0.0,0.0
148,36.75,15.5084,16.4316,147.773,100.152,106.348,0.00244286,0.130751,20.851,30.158,-0.580534,0.0,0.0
152,37.75,15.9864,17.136,142.697,100.225,106.234,0.00239449,0.130793,20.8517,30.178,-0.563173,0.0,0.0
156,38.75,15.9128,17.0521,147.547,100.3,106.167,0.0023799,0.130593,20.8521,30.168,-0.549786,0.0,0.0
160,39.75,15.693,16.6816,143.258,100.382,106.193,0.00240226,0.130192,20.8524,30.168,-0.544211,0.0,0.0
164,40.75,16.1739,17.3358,146.677,100.444,106.544,0.00247323,0.129763,20.8526,30.168,-0.5702,0.0,0.0
168,41.75,15.9961,17.5971,146.236,100.521,106.715,0.00255744,0.129322,20.8532,30.168,-0.578354,0.0,0.0
172,42.75,16.2784,16.8518,144.666,100.593,106.802,0.00263418,0.128857,20.8539,30.168,-0.579277,0.0,0.0
176,43.75,15.839,16.8624,147.664,100.655,106.691,0.00269018,0.128402,20.8544,30.158,-0.563297,0.0,0.0
180,44.75,16.0311,16.8949,144.085,100.726,106.529,0.00272341,0.128104,20.8547,30.148,-0.541853,0.0,0.0
184,45.75,16.138,17.2176,145.373,100.789,107.042,0.00274048,0.127869,20.8549,30.158,-0.582178,0.0,0.0
188,46.75,16.1925,17.6522,143.739,100.817,106.931,0.00275169,0.127606,20.8555,30.158,-0.569433,0.0,0.0
192,47.75,15.9569,16.705,144.579,100.868,106.987,0.00275681,0.127328,20.8562,30.168,-0.569556,0.0,0.0
196,48.75,16.2509,17.2576,145.826,100.902,106.682,0.00275456,0.126959,20.8574,30.168,-0.53876,0.0,0.0
200,49.75,16.0114,17.0912,146.79,100.955,106.934,0.00273633,0.126583,20.8585,30.158,-0.556533,0.0,0.0
204,50.75,16.7809,17.1048,143.98,100.973,107.084,0.00267846,0.126097,20.86,30.148,-0.568358,0.0,0.0
208,51.75,16.3576,17.1058,143.241,101.005,107.174,0.00258567,0.125385,20.8618,30.148,-0.573387,0.0,0.0
212,52.75,16.2624,17.3209,145.166,101.013,107.028,0.00249161,0.124338,20.8638,30.148,-0.559451,0.0,0.0
216,53.75,16.4394,17.3336,149.697,101.041,107.16,0.00243006,0.123434,20.8657,30.168,-0.568759,0.0,0.0
220,54.75,16.4948,17.5439,142.534,101.034,107.241,0.00240833,0.122641,20.8671,30.158,-0.57667,0.0,0.0
224,55.75,16.1406,17.1185,145.765,101.034,107.077,0.00240508,0.12198,20.8681,30.138,-0.561905,0.0,0.0
228,56.75,15.9568,17.5033,150.051,101.036,106.992,0.00240294,0.121273,20.8687,30.138,-0.554005,0.0,0.0
232,57.75,16.0077,17.3688,144.014,101.022,107.086,0.00240819,0.120652,20.8691,30.138,-0.5638,0.0,0.0
236,58.75,16.237,17.0126,144.785,101.014,107.192,0.00241829,0.120065,20.8693,30.138,-0.574218,0.0,0.0
240,59.75,16.1942,17.2344,144.908,100.987,107.239,0.00241268,0.119584,20.8695,30.148,-0.580958,0.0,0.0
244,60.75,16.3498,17.8003,143.449,100.968,106.978,0.00240327,0.119212,20.8696,30.138,-0.559253,0.0,0.0
248,61.75,16.1969,18.0744,145.449,100.942,107.108,0.00240368,0.118948,20.8697,30.138,-0.573443,0.0,0.0
252,62.75,16.4151,18.0403,144.676,100.912,107.102,0.00241824,0.118786,20.8691,30.148,-0.575885,0.0,0.0
256,63.75,16.1563,17.4138,141.737,100.875,107.171,0.00243865,0.118679,20.8686,30.158,-0.585584,0.0,0.0
260,64.75,16.4796,17.2825,142.676,100.836,107.047,0.00246213,0.118684,20.8682,30.158,-0.578177,0.0,0.0
264,65.75,16.1775,17.523,146.7,100.787,107.014,0.00248741,0.118712,20.868,30.138,-0.579841,0.0,0.0
268,66.75,15.8832,17.325,146.321,100.751,106.803,0.00250796,0.118706,20.8678,30.148,-0.564172,0.0,0.0
272,67.75,16.262,17.4494,145.817,100.707,106.753,0.00250592,0.118702,20.8677,30.158,-0.563899,0.0,0.0
276,68.75,16.0391,17.5686,144.921,100.649,106.571,0.00244029,0.118699,20.8677,30.148,-0.552944,0.0,0.0
280,69.75,16.2567,17.6935,142.628,100.61,106.594,0.00238055,0.118647,20.8676,30.148,-0.558828,0.0,0.0
284,70.75,16.698,17.6952,143.618,100.565,106.772,0.00230257,0.118641,20.8673,30.138,-0.579247,0.0,0.0
288,71.75,16.4886,17.2883,142.68,100.515,106.544,0.00226384,0.1187,20.8672,30.128,-0.563397,0.0,0.0
292,72.75,16.763,17.7935,144.111,100.47,106.462,0.00225728,0.118772,20.8673,30.158,-0.560325,0.0,0.0
296,73.75,16.2098,17.8397,142.467,100.434,106.377,0.00228399,0.118821,20.8675,30.158,-0.556017,0.0,0.0
300,74.75,16.6328,17.5539,140.438,100.386,106.562,0.00232596,0.118775,20.8683,30.148,-0.577414,0.0,0.0
304,75.75,16.4306,17.612,141.826,100.373,106.168,0.00237406,0.118646,20.8688,30.138,-0.542855,0.0,0.0
308,76.75,16.8973,17.5965,144.215,100.331,106.331,0.00241636,0.11843,20.8691,30.148,-0.561706,0.0,0.0
312,77.75,16.8021,17.5075,145.733,100.29,106.173,0.00244425,0.118163,20.8693,30.148,-0.551397,0.0,0.0
316,78.75,16.8542,17.7116,147.658,100.263,105.698,0.00244461,0.117878,20.8694,30.148,-0.510612,0.0,0.0
320,79.75,16.6183,17.5305,145.779,100.294,105.724,0.00243392,0.117638,20.8695,30.138,-0.510012,0.0,0.0
324,80.75,16.6525,17.8003,144.121,100.396,106.191,0.00242186,0.117481,20.8696,30.138,-0.542809,0.0,0.0
328,81.75,16.8223,18.0276,145.07,100.481,105.883,0.00242061,0.117502,20.8688,30.138,-0.50649,0.0,0.0
332,82.75,16.0254,17.3667,145.662,100.564,105.828,0.0024353,0.11774,20.868,30.128,-0.493473,0.0,0.0
336,83.75,16.2117,17.8036,143.533,100.633,105.855,0.00245368,0.117949,20.8675,30.128,-0.489364,0.0,0.0
340,84.75,16.3784,17.9396,145.523,100.706,105.693,0.00247682,0.118087,20.8672,30.128,-0.467491,0.0,0.0
344,85.75,16.3441,18.1074,145.169,100.765,105.871,0.00251359,0.118043,20.8669,30.128,-0.478021,0.0,0.0
348,86.75,16.7083,18.3209,146.756,100.79,105.65,0.00257087,0.117907,20.8674,30.138,-0.455485,0.0,0.0
352,87.75,16.4893,17.9045,145.717,100.833,105.63,0.00261843,0.11768,20.8679,30.138,-0.449534,0.0,0.0
356,88.75,16.3661,17.7739,140.758,100.857,105.796,0.00264388,0.117414,20.8682,30.158,-0.462429,0.0,0.0
360,89.75,15.8662,17.9267,144.404,100.873,105.482,0.00263007,0.117258,20.8684,30.148,-0.432214,0.0,0.0
364,90.75,16.5979,18.2349,146.374,100.887,105.683,0.00259269,0.11708,20.8686,30.138,-0.449224,0.0,0.0
368,91.75,16.5337,18.0051,142.125,100.882,105.421,0.00253712,0.116788,20.8687,30.1079,-0.425695,0.0,0.0
372,92.75,16.5297,18.2351,144.483,100.859,105.423,0.00248071,0.11649,20.8687,30.1179,-0.428101,0.0,0.0
376,93.75,16.9146,17.6867,142.422,100.838,105.288,0.00245992,0.116279,20.8688,30.128,-0.417638,0.0,0.0
380,94.75,16.6185,18.1322,141.287,100.804,105.018,0.00245888,0.116113,20.8686,30.128,-0.396037,0.0,0.0
384,95.75,17.3543,17.8663,146.479,100.745,105.15,0.00250921,0.115982,20.8684,30.1179,-0.41387,0.0,0.0
388,96.75,16.8272,18.0492,145.696,100.696,104.95,0.00258662,0.115816,20.869,30.1079,-0.400234,0.0,0.0
392,97.75,16.8057,17.8468,146.568,100.641,104.841,0.00265962,0.115608,20.8695,30.1079,-0.39547,0.0,0.0
396,98.75,16.8159,17.74,144.291,100.559,104.572,0.00272529,0.115405,20.8698,30.0979,-0.37845,0.0,0.0
400,99.75,16.878,18.1559,140.598,100.478,104.225,0.00278238,0.115219,20.8701,30.0879,-0.354104,0.0,0.0
404,100.75,16.8573,18.0778,144.553,100.385,104.652,0.00283923,0.115069,20.8702,30.0879,-0.402652,0.0,0.0
408,101.75,15.9822,17.3837,147.841,100.287,104.094,0.00288461,0.114858,20.8703,30.0579,-0.36043,0.0,0.0
412,102.75,16.5179,17.2826,140.793,100.171,103.834,0.00291931,0.114651,20.8701,30.0779,-0.347462,0.0,0.0
416,103.75,16.6825,17.8832,144.991,100.064,103.711,0.00292265,0.114427,20.8699,30.0779,-0.346274,0.0,0.0
420,104.75,16.8898,17.9614,149.035,100.076,104.227,0.00289918,0.114129,20.8698,30.0679,-0.393064,0.0,0.0
424,105.75,16.2392,17.6176,143.032,100.071,103.706,0.00286859,0.113993,20.8698,30.0679,-0.345115,0.0,0.0
428,106.75,16.8725,18.0291,146.663,100.088,102.98,0.00284222,0.113958,20.8697,30.0579,-0.275488,0.0,0.0
432,107.75,16.9705,17.9995,143.047,100.11,103.647,0.00283158,0.113965,20.8697,30.0579,-0.335895,0.0,0.0
436,108.75,16.9583,18.6996,144.898,100.131,103.474,0.0028316,0.113934,20.8697,30.0379,-0.317665,0.0,0.0
440,109.75,16.618,17.7682,145.38,100.157,103.182,0.00283964,0.113825,20.8697,30.0379,-0.28783,0.0,0.0
444,110.75,17.138,17.9905,143.577,100.181,102.886,0.00285875,0.113717,20.8697,30.0379,-0.257655,0.0,0.0
448,111.75,16.9017,18.6917,141.619,100.204,103.063,0.0029172,0.113664,20.8689,30.0379,-0.272049,0.0,0.0
452,112.75,16.597,17.8675,144.193,100.224,102.885,0.00301275,0.114149,20.8678,29.9378,-0.253464,0.0,0.0
456,113.75,16.7951,17.9534,142.792,100.246,104.817,0.00311491,0.115928,20.86,29.9578,-0.431187,0.0,0.0
460,114.75,16.6969,18.6087,140.892,100.268,105.594,0.00319753,0.11963,20.8467,30.0178,-0.500626,0.0,1.0
464,115.75,17.3019,18.5038,141.753,100.289,105.335,0.0032219,0.126098,20.8358,29.9178,-0.474721,0.0,1.0
468,116.75,17.6012,19.2324,134.285,100.313,105.23,0.00322987,0.134682,20.819,29.9077,-0.462903,0.0,1.0
472,117.75,17.5803,19.4512,139.527,100.322,104.258,0.00321728,0.144085,20.8032,29.9077,-0.372175,0.0,1.0
476,118.75,18.4091,19.8297,139.097,100.34,104.972,0.00321348,0.154673,20.784,29.8877,-0.436482,0.0,1.0
480,119.75,18.3511,19.7774,136.764,100.352,103.431,0.00319986,0.16635,20.7618,29.8377,-0.29229,0.0,1.0
484,120.75,18.3501,20.2495,136.137,100.36,104.007,0.00317163,0.180288,20.7347,29.8377,-0.345269,0.0,1.0
488,121.75,18.7015,20.4395,135.971,100.36,104.119,0.00314424,0.192694,20.7099,29.7776,-0.355684,0.0,1.0
492,122.75,19.1155,21.3208,137.517,100.367,103.825,0.00312772,0.205066,20.6939,29.7976,-0.327676,0.0,0.0
496,123.75,19.8933,21.9956,131.23,100.371,103.063,0.00316362,0.215881,20.6735,29.7476,-0.256032,0.0,0.0
500,124.75,20.4113,22.8094,134.616,100.358,103.281,0.0032384,0.226433,20.6555,29.6976,-0.277646,0.0,0.0
504,125.75,20.8889,23.5338,136.451,100.364,102.017,0.00334764,0.234005,20.6378,29.6575,-0.158009,0.0,0.0
508,126.75,21.5856,23.416,137.725,100.365,101.563,0.00346616,0.243971,20.6204,29.6575,-0.114683,0.0,0.0
512,127.75,20.7578,25.1938,134.146,100.358,100.926,0.00357516,0.253445,20.6041,29.6075,-0.0545326,0.0,0.0
516,128.75,21.7503,25.0494,131.315,100.352,99.8561,0.00368018,0.262259,20.5886,29.5875,0.0479509,0.0,0.0
520,129.75,22.6763,25.8005,134.34,100.333,101.82,0.00379663,0.27062,20.5752,29.5274,-0.142256,0.0,0.0
524,130.75,22.8125,26.2744,130.86,100.32,99.9853,0.00393773,0.278631,20.5632,29.5174,0.0323223,0.0,0.0
528,131.75,23.8751,26.9201,134.651,100.307,97.9934,0.00411609,0.285836,20.552,29.4874,0.225732,0.0,0.0
532,132.75,23.8942,27.3993,130.33,100.277,98.0271,0.00437697,0.292622,20.5399,29.4273,0.219509,0.0,0.0
536,133.75,24.3203,28.2395,130.953,100.26,96.3967,0.00467099,0.300443,20.525,29.4273,0.380093,0.0,0.0
540,134.75,24.4467,28.2158,129.511,100.225,95.3796,0.00496896,0.308137,20.5073,29.3672,0.479231,0.0,0.0
544,135.75,24.8246,29.4561,135.023,100.188,95.0954,0.00522997,0.316411,20.4901,29.3072,0.504528,0.0,0.0
548,136.75,25.0318,28.8858,132.404,100.156,95.6322,0.00546879,0.324642,20.4751,29.2571,0.447032,0.0,0.0
552,137.75,26.2547,30.6874,127.072,100.113,94.6285,0.00568281,0.332859,20.4611,29.2171,0.544957,0.0,0.0
556,138.75,26.7709,31.7502,128.818,100.068,95.3833,0.00590776,0.340969,20.4456,29.1871,0.463764,0.0,0.0
560,139.75,27.328,32.1585,130.184,100.014,91.3294,0.00606155,0.349072,20.4331,29.127,0.878606,0.0,0.0
564,140.75,27.1108,32.231,130.094,99.9691,93.443,0.00616339,0.356999,20.4254,29.057,0.652958,0.0,0.0
568,141.75,27.9304,33.6701,128.641,99.9082,92.9916,0.00631874,0.366729,20.4146,28.9969,0.693908,0.0,0.0
572,142.75,29.1563,34.1587,127.541,99.8481,93.0379,0.00646692,0.375197,20.4043,28.9769,0.683276,0.0,0.0
576,143.75,28.9848,35.1061,124.578,99.7945,94.0127,0.00660099,0.382164,20.3925,28.8768,0.577271,0.0,0.0
580,144.75,30.5279,35.4548,127.925,99.7393,91.7817,0.00676763,0.390588,20.3765,28.8468,0.804206,0.0,0.0
584,145.75,31.0767,36.7385,130.576,99.6865,91.5946,0.00694812,0.398548,20.3605,28.7667,0.81883,0.0,0.0
588,146.75,30.731,36.6274,130.527,99.6281,90.5446,0.00715334,0.406656,20.3443,28.7467,0.924663,0.0,0.0
592,147.75,31.9713,38.4975,127.222,99.5688,87.7226,0.00735416,0.415567,20.3266,28.6866,1.22516,0.0,0.0
596,148.75,32.4088,38.801,129.466,99.5136,89.8748,0.0075771,0.424762,20.3086,28.6065,0.985366,0.0,0.0
600,149.75,33.14,39.7409,124.783,99.4531,86.2119,0.00778954,0.433647,20.2872,28.5465,1.38193,0.0,0.0
604,150.75,34.1208,40.2671,127.38,99.4056,88.2877,0.00798292,0.443534,20.2687,28.4764,1.14718,0.0,0.0
608,151.75,33.9307,41.4328,120.525,99.3386,89.9028,0.00815084,0.454206,20.2507,28.4264,0.965329,0.0,0.0
612,152.75,35.1337,41.9881,122.321,99.3,88.6186,0.00830179,0.465256,20.2319,28.3463,1.10072,0.0,0.0
616,153.75,35.7279,43.3821,118.898,99.2464,88.1525,0.00846986,0.474266,20.2161,28.2562,1.14651,0.0,0.0
620,154.75,35.9506,44.2256,128.808,99.1835,85.8485,0.00866667,0.483824,20.1983,28.2462,1.39653,0.0,0.0
624,155.75,37.0495,44.882,124.491,99.1344,83.8859,0.00884274,0.493605,20.1794,28.0961,1.61542,0.0,0.0
628,156.75,37.6031,46.0649,118.191,99.1112,84.9512,0.00897469,0.503526,20.1601,28.066,1.4911,0.0,0.0
632,157.75,38.3135,46.5882,123.05,99.0657,87.5983,0.00910258,0.513918,20.1412,27.986,1.18988,0.0,0.0
636,158.75,39.0024,47.4694,117.436,99.0284,86.4084,0.00923702,0.524696,20.1209,27.8759,1.31852,0.0,0.0
640,159.75,39.4676,48.5325,119.942,99.0012,84.0341,0.00939188,0.536289,20.1002,27.7958,1.58535,0.0,0.0
644,160.75,40.4455,49.0026,118.466,98.9732,83.065,0.00954871,0.5477,20.0769,27.7858,1.6948,0.0,0.0
648,161.75,40.9468,50.6986,115.556,98.9508,85.2245,0.00971147,0.560052,20.0594,27.6657,1.44438,0.0,0.0
652,162.75,42.1677,51.208,121.654,98.9322,84.959,0.00981826,0.571721,20.0392,27.5856,1.47273,0.0,0.0
656,163.75,42.8276,52.6193,117.701,98.909,83.5648,0.010059,0.584239,20.0228,27.5055,1.63051,0.0,0.0
660,164.75,43.4347,53.8606,123.219,98.9037,84.9557,0.0103255,0.59556,20.0092,27.4154,1.47032,0.0,0.0
664,165.75,44.4274,54.5478,121.759,98.9066,81.6424,0.0106755,0.606646,19.9928,27.3354,1.85537,0.0,0.0
668,166.75,45.0479,55.428,113.705,98.9114,79.5913,0.0110526,0.61837,19.9734,27.2553,2.10194,0.0,0.0
672,167.75,45.938,56.9881,114.202,98.9094,79.2405,0.0114255,0.629685,19.9503,27.1051,2.14447,0.0,0.0
676,168.75,46.7993,57.9484,119.89,98.9248,80.9567,0.0117752,0.642123,19.9245,27.0451,1.93874,0.0,0.0
680,169.75,47.3303,59.3213,111.768,98.9362,79.9238,0.012091,0.654877,19.8967,26.985,2.06404,0.0,0.0
684,170.75,48.299,60.1805,117.829,98.9569,79.9742,0.0123327,0.667867,19.8711,26.895,2.05998,0.0,0.0
688,171.75,49.0264,61.2729,113.748,98.9837,78.5024,0.0125543,0.681698,19.8447,26.8249,2.24225,0.0,0.0
692,172.75,49.6586,62.309,113.269,99.0085,78.4931,0.0126974,0.696848,19.8204,26.6747,2.24582,0.0,0.0
696,173.75,50.9271,63.7192,104.062,99.0454,78.3831,0.0127725,0.711544,19.7974,26.5847,2.26299,0.0,0.0
700,174.75,51.7549,65.1495,119.966,99.0905,81.022,0.0128458,0.726213,19.7709,26.4646,1.94712,0.0,0.0
704,175.75,52.8251,66.0575,114.032,99.1287,77.9645,0.0129593,0.742113,19.7417,26.3344,2.32291,0.0,0.0
708,176.75,52.5177,66.5486,113.566,99.1701,79.3282,0.0131178,0.756949,19.7122,26.2443,2.15923,0.0,0.0
712,177.75,54.6859,68.9062,114.278,99.207,76.8021,0.0132866,0.772489,19.6886,26.1042,2.47583,0.0,0.0
716,178.75,55.3777,69.6682,113.05,99.2712,79.7866,0.0135459,0.787769,19.6643,26.0542,2.11336,0.0,0.0
720,179.75,56.3004,71.3405,113.433,99.3012,77.7266,0.0138397,0.801461,19.6396,25.914,2.36929,0.0,0.0
724,180.75,56.4555,72.0145,107.801,99.3662,78.0059,0.0141521,0.816016,19.6154,25.7839,2.34092,0.0,0.0
728,181.75,57.9431,74.022,114.407,99.4332,77.7826,0.0144564,0.829995,19.5884,25.6438,2.37516,0.0,0.0
732,182.75,59.158,75.3452,97.5096,99.4783,75.9499,0.0147484,0.844384,19.5611,25.5237,2.61016,0.0,0.0
736,183.75,59.6702,76.0013,111.737,99.5375,76.2471,0.015002,0.858772,19.5352,25.4236,2.57815,0.0,0.0
740,184.75,61.0508,77.8688,122.495,99.5968,76.7014,0.0152325,0.873083,19.5182,25.3335,2.52645,0.0,0.0
744,185.75,62.2538,79.1167,108.177,99.6553,77.3104,0.0154356,0.887982,19.4995,25.2134,2.45563,0.0,0.0
748,186.75,63.1655,80.6172,107.954,99.7178,76.2313,0.0157658,0.903331,19.4818,25.0432,2.59766,0.0,0.0
752,187.75,63.8627,82.0506,101.573,99.7734,75.6609,0.0161098,0.916941,19.4622,24.9131,2.6757,0.0,0.0
756,188.75,65.0294,83.7325,107.57,99.8396,75.0632,0.0164805,0.930855,19.4365,24.783,2.75882,0.0,0.0
760,189.75,66.0573,84.9459,105.662,99.9013,75.5817,0.0168777,0.945408,19.4087,24.6929,2.69822,0.0,0.0
764,190.75,67.0469,86.0704,102.202,99.9643,76.0064,0.0172849,0.959725,19.3808,24.5428,2.65012,0.0,0.0
768,191.75,67.7482,87.5983,99.1743,100.03,76.727,0.017634,0.974395,19.3583,24.4227,2.56521,0.0,0.0
772,192.75,68.6471,88.3758,109.368,100.075,75.9528,0.0180162,0.9908,19.3299,24.2825,2.66766,0.0,0.0
776,193.75,69.6648,90.5554,101.769,100.138,76.5719,0.0183333,1.0068,19.2993,24.1324,2.59517,0.0,0.0
780,194.75,70.7144,92.2049,106.355,100.189,74.6276,0.0186232,1.02463,19.2708,23.9923,2.84888,0.0,0.0
784,195.75,72.0165,92.9526,104.805,100.261,75.0584,0.0188588,1.04078,19.2442,23.8721,2.80022,0.0,0.0
788,196.75,73.3193,94.7556,107.374,100.311,73.9821,0.0190811,1.05631,19.2113,23.702,2.9447,0.0,0.0
792,197.75,74.0195,96.4869,97.0814,100.353,76.9377,0.0192993,1.07157,19.1769,23.5418,2.56984,0.0,0.0
796,198.75,75.4421,97.7384,99.7002,100.404,75.7043,0.0195385,1.08805,19.1497,23.4117,2.73108,0.0,0.0
800,199.75,76.1818,99.3213,100.087,100.447,73.516,0.0198695,1.10375,19.1252,23.2716,3.01889,0.0,0.0
804,200.75,77.612,100.938,99.7208,100.501,76.7976,0.0202532,1.11731,19.1032,23.1014,2.60178,0.0,0.0
808,201.75,78.1809,102.567,102.65,100.547,74.4693,0.020508,1.13126,19.0883,22.9813,2.90389,0.0,0.0
812,202.75,79.4748,103.575,93.3284,100.598,75.6422,0.0209091,1.14624,19.0651,22.8112,2.75774,0.0,0.0
816,203.75,80.606,105.076,100.083,100.646,72.5672,0.0213525,1.16023,19.0385,22.7211,3.16367,0.0,0.0
820,204.75,81.6053,106.532,108.899,100.68,74.8521,0.0217433,1.17198,19.0121,22.5709,2.86718,0.0,0.0
824,205.75,82.8765,107.597,103.507,100.727,72.8457,0.0220806,1.18902,18.9814,22.3808,3.13442,0.0,0.0
828,206.75,83.8046,109.596,98.9453,100.772,71.9196,0.0225322,1.2072,18.9519,22.1606,3.26254,0.0,0.0
832,207.75,84.8568,111.338,102.567,100.795,73.8274,0.0229536,1.22204,18.9251,22.0505,3.0115,0.0,0.0
836,208.75,85.6136,112.22,103.389,100.827,72.3532,0.0233457,1.23962,18.8975,21.9303,3.20966,0.0,0.0
840,209.75,86.9082,114.358,89.5532,100.855,74.4814,0.0237728,1.25794,18.8707,21.7202,2.93199,0.0,0.0
844,210.75,88.0559,116.057,102.253,100.884,74.5042,0.0240768,1.27759,18.8477,21.56,2.93172,0.0,0.0
848,211.75,88.4881,117.212,95.3175,100.916,72.2058,0.0245353,1.29357,18.8027,21.4099,3.23791,0.0,0.0
852,212.75,90.0949,119.601,101.3,100.933,74.6905,0.0247852,1.3167,18.7761,21.2998,2.91231,0.0,0.0
856,213.75,91.9831,121,94.5328,100.952,71.678,0.0251336,1.33347,18.7423,21.1096,3.31233,0.0,0.0
860,214.75,93.019,122.983,88.7297,100.966,72.0447,0.0254842,1.35645,18.7154,20.9194,3.26427,0.0,0.0
864,215.75,93.3439,123.843,86.5314,100.972,70.4418,0.0258565,1.36965,18.6908,20.7092,3.48251,0.0,0.0
868,216.75,94.9136,125.523,85.5048,100.995,70.5222,0.0263188,1.38609,18.6621,20.489,3.47365,0.0,0.0
872,217.75,95.7218,127.774,88.8472,101.011,71.285,0.0267989,1.40236,18.6293,20.3689,3.3711,0.0,0.0
876,218.75,97.2601,128.989,96.4265,101.022,71.2997,0.027247,1.42128,18.595,20.2087,3.37021,0.0,0.0
880,219.75,98.3326,129.614,98.7942,101.026,70.959,0.0277568,1.44139,18.557,20.0486,3.41696,0.0,0.0
884,220.75,100.156,131.513,91.8011,101.018,70.6285,0.0282164,1.46493,18.5097,19.8784,3.46133,0.0,0.0
888,221.75,100.985,134.17,91.3546,101.033,72.259,0.0286791,1.4887,18.469,19.6883,3.24199,0.0,0.0
892,222.75,102.704,135.44,99.4735,101.045,68.7853,0.0291136,1.50922,18.4376,19.4581,3.71966,0.0,0.0
896,223.75,103.159,136.791,90.7821,101.021,68.495,0.0295898,1.52534,18.4041,19.3379,3.75824,0.0,0.0
900,224.75,104.318,138.503,101.282,101.037,69.9676,0.0300954,1.54587,18.3731,19.1378,3.55406,0.0,0.0
904,225.75,105.837,140.042,86.7848,101.014,69.32,0.0306524,1.56694,18.3399,18.8875,3.64178,0.0,0.0
908,226.75,106.027,141.202,93.9818,101.005,67.9656,0.0313775,1.58827,18.3031,18.7074,3.83181,0.0,0.0
912,227.75,108.172,142.827,87.2657,100.996,69.0866,0.03204,1.61176,18.2697,18.5272,3.67269,0.0,0.0
916,228.75,109.428,145.56,91.8622,100.982,69.9554,0.0327381,1.63483,18.2313,18.297,3.55049,0.0,0.0
920,229.75,110.499,147.327,85.8063,100.969,68.534,0.0333895,1.65454,18.1911,18.1769,3.74776,0.0,0.0
924,230.75,111.801,149.103,89.1823,100.963,69.1178,0.0339857,1.67993,18.1499,17.8766,3.66517,0.0,0.0
928,231.75,113.489,150.423,78.1904,100.949,68.8024,0.0344461,1.7085,18.1053,17.7264,3.70805,0.0,0.0
932,232.75,114.531,152.348,99.4621,100.931,68.8909,0.0349528,1.73574,18.0629,17.5463,3.69387,0.0,0.0
936,233.75,115.611,154.673,85.0637,100.918,66.4703,0.0354046,1.7623,18.0228,17.3361,4.03861,0.0,0.0
940,234.75,117.775,156.363,85.917,100.883,68.0558,0.0358217,1.78333,17.9896,17.0959,3.80728,0.0,0.0
944,235.75,119.255,157.736,82.0884,100.868,66.6173,0.0363011,1.80853,17.9513,16.8256,4.01246,0.0,0.0
948,236.75,119.581,160.278,85.0354,100.849,69.8945,0.0366179,1.83148,17.9195,16.6955,3.54615,0.0,0.0
952,237.75,121.4,161.819,79.5971,100.825,66.5349,0.037196,1.85688,17.8748,16.4953,4.02031,0.0,0.0
956,238.75,122.447,163.783,81.8396,100.802,65.5991,0.0378034,1.8833,17.8323,16.215,4.15509,0.0,0.0
960,239.75,123.998,165.378,75.0571,100.775,67.1102,0.0383966,1.90453,17.7869,16.0449,3.93225,0.0,0.0
964,240.75,124.879,167.375,88.8839,100.744,64.5394,0.0389677,1.93119,17.737,15.7746,4.30703,0.0,0.0
968,241.75,126.126,169.146,72.6406,100.726,67.4906,0.0395591,1.95896,17.6928,15.5945,3.8729,0.0,0.0
972,242.75,127.211,171.383,77.0829,100.691,64.6137,0.0401704,1.9849,17.6533,15.4143,4.29087,0.0,0.0
976,243.75,129.035,172.753,84.5607,100.671,66.8905,0.0407877,2.00819,17.6189,15.1541,3.95397,0.0,0.0
980,244.75,129.964,173.956,84.6797,100.649,65.3104,0.0414028,2.03087,17.5719,14.9439,4.18305,0.0,0.0
984,245.75,131.345,175.887,70.5477,100.631,66.1037,0.0418662,2.05739,17.5347,14.6436,4.06455,0.0,0.0
988,246.75,133.026,178.225,73.055,100.587,66.703,0.0424659,2.08384,17.4874,14.3433,3.97305,0.0,0.0
992,247.75,133.575,179.597,91.8515,100.568,65.3461,0.0429493,2.11217,17.4436,14.2432,4.16995,0.0,0.0
996,248.75,135.269,181.92,82.151,100.54,63.1858,0.0434315,2.13128,17.4058,13.993,4.49242,0.0,0.0
1000,249.75,136.676,183.902,66.9,100.51,65.6498,0.0438175,2.15759,17.3666,13.7127,4.11956,0.0,0.0
1004,250.75,138.378,185.757,88.9838,100.477,64.6446,0.0441002,2.18112,17.3281,13.5626,4.26564,0.0,0.0
1008,251.75,139.003,188.039,80.9839,100.46,63.3072,0.0443137,2.20316,17.298,13.2923,4.46615,0.0,0.0
1012,252.75,140.067,189.492,79.7146,100.431,63.2735,0.0445451,2.22238,17.2759,13.0221,4.46857,0.0,0.0
1016,253.75,141.444,190.533,77.8354,100.411,62.8862,0.0447572,2.23901,17.2565,12.7618,4.52604,0.0,0.0
1020,254.75,141.898,191.334,89.9066,100.409,63.0121,0.0452694,2.25546,17.2398,12.5116,4.50651,0.0,0.0
1024,255.75,143.625,193.071,69.7333,100.368,61.0666,0.0459394,2.27428,17.2224,12.3214,4.80585,0.0,0.0
1028,256.75,144.24,195.159,77.7293,100.348,63.4311,0.0466769,2.29434,17.1886,12.0612,4.43654,0.0,0.0
1032,257.75,145.86,196.717,82.957,100.333,59.8697,0.0474777,2.32014,17.1468,11.821,4.9939,0.0,0.0
1036,258.75,146.515,197.831,82.5937,100.317,64.2987,0.0484486,2.35267,17.0903,11.5407,4.30212,0.0,0.0
1040,259.75,147.991,201.089,82.6067,100.3,62.9979,0.0493486,2.38715,17.0259,11.4606,4.4982,0.0,0.0
1044,260.75,149.881,202.747,84.0218,100.287,65.1314,0.0501478,2.42601,16.9644,11.0102,4.17481,0.0,0.0
1048,261.75,151.211,204.587,78.5438,100.272,63.1335,0.0508276,2.46155,16.9016,10.6599,4.47466,0.0,0.0
1052,262.75,152.896,206.378,73.1115,100.257,62.7441,0.0515236,2.49499,16.8472,10.5598,4.53309,0.0,0.0
1056,263.75,153.9,208.554,63.9568,100.253,58.9432,0.0522784,2.52604,16.7982,10.2595,5.13703,0.0,0.0
1060,264.75,154.484,210.702,60.2221,100.289,60.7933,0.0531186,2.55471,16.7537,9.92921,4.84167,0.0,0.0
1064,265.75,155.873,212.178,75.7616,100.335,61.8586,0.0540298,2.5824,16.6992,9.75905,4.67799,0.0,0.0
1068,266.75,157.304,213.763,67.2175,100.394,57.5462,0.0549103,2.60963,16.6365,9.43876,5.3827,0.0,0.0
1072,267.75,158.112,215.886,75.7105,100.442,60.1807,0.0558575,2.64154,16.5788,9.14849,4.95431,0.0,0.0
1076,268.75,160.021,218.024,73.5489,100.49,61.0219,0.0566429,2.67364,16.5302,8.92828,4.8247,0.0,0.0
1080,269.75,160.742,220.145,73.5161,100.525,61.1007,0.0574712,2.70581,16.4857,8.68806,4.81562,0.0,0.0
1084,270.75,161.831,221.994,75.3594,100.57,57.532,0.058345,2.73741,16.4435,8.33774,5.40197,0.0,0.0
1088,271.75,163.539,223.299,73.713,100.598,59.3675,0.0592406,2.7662,16.3978,8.11753,5.1009,0.0,0.0
1092,272.75,164.64,225.507,78.8895,100.632,60.9793,0.0601701,2.79446,16.3513,7.77722,4.84509,0.0,0.0
1096,273.75,165.617,227.185,68.5044,100.664,59.6988,0.0610613,2.82329,16.3015,7.48695,5.05348,0.0,0.0
1100,274.75,167.354,230.045,66.9649,100.702,61.0499,0.061837,2.85401,16.2474,7.30678,4.84064,0.0,0.0
1104,275.75,168.62,231.788,70.7332,100.725,60.6277,0.0624063,2.88481,16.2025,6.97647,4.90999,0.0,0.0
1108,276.75,170.601,233.324,77.1851,100.749,61.6715,0.0627464,2.91065,16.1731,6.69621,4.74714,0.0,0.0
1112,277.75,170.581,234.339,72.3475,100.766,59.322,0.0629266,2.92903,16.1538,6.38592,5.1245,0.0,0.0
1116,278.75,172.078,236.555,75.6677,100.786,60.0203,0.062779,2.94069,16.1428,6.16572,5.01318,0.0,0.0
1120,279.75,172.845,237.694,73.4771,100.806,59.633,0.06228,2.94891,16.1403,5.75534,5.07778,0.0,0.0
1124,280.75,174.689,239.39,89.9845,100.835,59.5327,0.061706,2.95274,16.1398,5.67527,5.09683,0.0,0.0
1128,281.75,174.954,240.259,75.4243,100.838,64.0859,0.0610281,2.95107,16.1528,5.35497,4.38427,0.0,0.0
1132,282.75,175.762,241.384,88.1343,100.852,59.6923,0.0604147,2.94172,16.1885,5.05469,5.07254,0.0,0.0
1136,283.75,175.981,241.158,73.3321,100.864,57.3886,0.0598153,2.92656,16.2253,4.81447,5.4544,0.0,0.0
1140,284.75,177.202,241.735,73.8115,100.875,60.9789,0.0593079,2.91021,16.2592,4.50418,4.86846,0.0,0.0
1144,285.75,177.451,242.602,80.2039,100.877,59.4767,0.0588629,2.89397,16.2908,4.35404,5.10995,0.0,0.0
1148,286.75,177.653,243.391,80.2153,100.89,59.4129,0.0583438,2.87588,16.3308,4.07378,5.1216,0.0,0.0
1152,287.75,178.102,244.022,90.0952,100.903,60.2367,0.0575458,2.85066,16.3924,3.81354,4.98963,0.0,0.0
1156,288.75,178.406,243.23,79.6818,100.898,62.665,0.0565046,2.82095,16.4582,3.58332,4.60687,0.0,0.0
1160,289.75,178.756,244.126,80.7199,100.894,63.7437,0.0555096,2.78502,16.5067,3.46321,4.44148,0.0,0.0
1164,290.75,178.919,244.236,81.3221,100.897,63.7136,0.0538708,2.73811,16.5889,3.11289,4.44627,0.0,0.0
1168,291.75,178.946,242.535,87.2665,100.898,61.8586,0.0519958,2.6885,16.6941,2.92271,4.73213,0.0,0.0
1172,292.75,178.925,241.199,90.6394,100.9,65.5666,0.0498843,2.6188,16.8136,2.77257,4.16931,0.0,0.0
1176,293.75,177.707,240.388,75.3052,100.897,67.5162,0.0475583,2.54162,16.9809,2.55237,3.88559,0.0,0.0
1180,294.75,177.45,238.733,89.6868,100.908,67.0672,0.0450846,2.46517,17.1523,2.40223,3.95122,0.0,0.0
1184,295.75,176.58,236.728,85.3942,100.889,68.5965,0.0428296,2.38081,17.3288,2.27211,3.73127,0.0,0.0
1188,296.75,175.276,234.767,86.9383,100.884,69.942,0.0403722,2.2895,17.4945,2.11196,3.54293,0.0,0.0
1192,297.75,173.804,232.492,90.5005,100.891,70.5311,0.0378211,2.19359,17.6511,1.93179,3.46251,0.0,0.0
1196,298.75,172.542,229.675,95.3908,100.883,72.0309,0.0358693,2.10151,17.773,1.79166,3.25822,0.0,0.0
1200,299.75,170.961,226.337,96.1907,100.881,72.0495,0.0335542,1.99607,17.9267,1.67155,3.25548,0.0,0.0
1204,300.75,168.758,223.656,96.6441,100.881,76.5236,0.0314386,1.88306,18.0784,1.57146,2.67282,0.0,0.0
1208,301.75,167.152,220.449,101.711,100.869,73.9419,0.0291733,1.80438,18.2557,1.47137,3.0036,0.0,0.0
1212,302.75,164.853,217.026,103.949,100.868,76.1631,0.027134,1.69543,18.4186,1.35125,2.71721,0.0,0.0
1216,303.75,162.585,213.155,104.288,100.861,76.9889,0.0255392,1.62395,18.5669,1.28119,2.61224,0.0,0.0
1220,304.75,160.722,209.489,106.713,100.87,72.164,0.0239089,1.51529,18.7435,1.15107,3.23911,0.0,0.0
1224,305.75,157.872,205.499,105.843,100.852,75.8383,0.0224306,1.41297,18.9149,1.13105,2.75703,0.0,0.0
1228,306.75,155.589,201.613,111.218,100.848,78.0258,0.0209274,1.31713,19.084,1.04097,2.48164,0.0,0.0
1232,307.75,153.544,197.539,112.297,100.862,74.5419,0.0193642,1.22576,19.2635,1.02095,2.92472,0.0,0.0
1236,308.75,151.041,193.733,116.599,100.84,73.4234,0.0178317,1.13333,19.4232,0.900836,3.06893,0.0,0.0
1240,309.75,147.477,189.079,113.064,100.84,76.291,0.0162299,1.05118,19.5748,0.910845,2.69834,0.0,0.0
1244,310.75,145.532,184.973,115.371,100.835,81.9647,0.0150552,0.96838,19.6946,0.880817,2.004,0.0,0.0
1248,311.75,142.484,180.595,121.171,100.827,86.9317,0.0133381,0.888769,19.8092,0.850789,1.43426,0.0,0.0
1252,312.75,139.644,177.139,127.967,100.828,93.9692,0.011709,0.818397,19.9296,0.870808,0.681416,0.0,0.0
1256,313.75,135.987,171.46,128.826,100.821,97.179,0.0102843,0.742581,20.0529,0.880817,0.355814,0.0,0.0
1260,314.75,133.239,167.48,130.133,100.816,98.101,0.00893193,0.672557,20.1949,0.880817,0.264051,0.0,0.0
1264,315.75,130.532,163.133,130.121,100.802,98.4936,0.0077467,0.604563,20.3266,0.880817,0.224057,0.0,0.0
1268,316.75,127.379,158.675,131.904,100.807,98.2707,0.00672403,0.541401,20.4366,0.890826,0.246437,0.0,0.0
1272,317.75,123.729,153.879,131.366,100.796,97.8412,0.00590212,0.484099,20.518,0.900836,0.287756,0.0,0.0
1276,318.75,122.137,150.377,130.244,100.794,99.4818,0.00517029,0.433495,20.5863,0.880817,0.12676,0.0,0.0
1280,319.75,120.04,147.155,133.851,100.784,98.3881,0.00458023,0.389586,20.6422,0.890826,0.232714,0.0,0.0
1284,320.75,117.202,142.84,130.469,100.784,99.5277,0.00411453,0.35303,20.6851,0.880817,0.121365,0.0,0.0
1288,321.75,113.932,139.346,129.503,100.772,98.8517,0.00378009,0.319844,20.7237,0.890826,0.186074,0.0,0.0
1292,322.75,112.503,136.694,128.922,100.771,98.4128,0.00352711,0.292018,20.7538,0.900836,0.229033,0.0,0.0
1296,323.75,109.555,134.025,127.956,100.754,99.2252,0.00336336,0.268546,20.7746,0.910845,0.147842,0.0,0.0
1300,324.75,107.852,130.724,131.749,100.754,99.2528,0.00325592,0.249742,20.7909,0.890826,0.145151,0.0,0.0
1304,325.75,106.231,127.683,129.149,100.745,99.073,0.00317395,0.232614,20.8021,0.880817,0.161875,0.0,0.0
1308,326.75,104.559,124.973,132.754,100.736,98.8558,0.00311386,0.219731,20.8126,0.890826,0.182207,0.0,0.0
1312,327.75,102.426,122.073,132.947,100.726,99.6032,0.00303887,0.207201,20.8219,0.900836,0.108378,0.0,0.0
1316,328.75,100.524,119.39,130.297,100.703,99.4298,0.00294968,0.196293,20.83,0.910845,0.123083,0.0,0.0
1320,329.75,99.0952,116.796,133.445,100.717,99.2171,0.00287784,0.186705,20.8364,0.900836,0.145125,0.0,0.0
1324,330.75,97.2135,114.53,128.613,100.713,99.0003,0.00284625,0.178515,20.842,0.900836,0.165893,0.0,0.0
1328,331.75,95.7023,112.034,131,100.696,99.118,0.00285878,0.171469,20.8462,0.900836,0.15276,0.0,0.0
1332,332.75,94.4364,109.921,135.458,100.723,99.3263,0.00288053,0.165346,20.8496,0.890826,0.135029,0.0,0.0
1336,333.75,93.0177,107.513,130.703,100.706,98.3503,0.0029008,0.160266,20.8518,0.900836,0.228942,0.0,0.0
1340,334.75,91.6978,105.84,131.435,100.703,98.5379,0.0028905,0.155893,20.8544,0.920854,0.210241,0.0,0.0
1344,335.75,89.6179,103.639,131.584,100.689,98.7908,0.00284275,0.151773,20.8568,0.920854,0.184081,0.0,0.0
1348,336.75,88.6144,100.944,131.743,100.694,99.7165,0.00276646,0.148098,20.8584,0.910845,0.0943819,0.0,0.0
1352,337.75,88.0533,99.7217,132.497,100.683,99.1586,0.00269122,0.144922,20.8603,0.910845,0.147511,0.0,0.0
1356,338.75,86.4013,97.4897,131.903,100.69,99.6682,0.00262438,0.142124,20.8615,0.910845,0.0986798,0.0,0.0
1360,339.75,85.2283,95.8723,134.403,100.68,99.8115,0.00257408,0.139664,20.8628,0.910845,0.0838064,0.0,0.0
1364,340.75,84.0705,94.3401,131.915,100.658,98.9183,0.00254061,0.137577,20.864,0.900836,0.168604,0.0,0.0
1368,341.75,82.4045,92.1416,133.535,100.655,100.02,0.00251864,0.135774,20.8647,0.910845,0.0612264,0.0,0.0
1372,342.75,81.9636,91.0312,130.15,100.647,99.1798,0.00250424,0.134218,20.8652,0.890826,0.142058,0.0,0.0
1376,343.75,80.9374,89.6329,137.033,100.646,100.712,0.00248813,0.132822,20.8656,0.900836,-0.00637937,0.0,0.0
1380,344.75,79.1914,87.5949,134.706,100.629,100.188,0.00245539,0.13143,20.8658,0.900836,0.0425272,0.0,0.0
1384,345.75,79.2348,85.9028,133.545,100.627,99.2204,0.00242167,0.130222,20.8659,0.900836,0.136148,0.0,0.0
1388,346.75,78.2374,84.9287,137.166,100.625,99.3957,0.00238439,0.129157,20.866,0.910845,0.118871,0.0,0.0
1392,347.75,77.0294,83.9452,129.827,100.617,99.3178,0.00235852,0.128207,20.8661,0.910845,0.125678,0.0,0.0
1396,348.75,76.0658,82.0049,133.824,100.628,100.172,0.00236149,0.127354,20.8653,0.910845,0.0439,0.0,0.0
1400,349.75,75.4187,81.3642,131.629,100.603,99.6917,0.00239226,0.126394,20.8647,0.920854,0.0880439,0.0,0.0
1404,350.75,74.4718,79.218,135.153,100.601,100.214,0.0024324,0.125641,20.8649,0.910845,0.0372486,0.0,0.0
1408,351.75,73.6773,79.0758,133.487,100.59,99.8342,0.00246983,0.12501,20.8651,0.910845,0.072979,0.0,0.0
1412,352.75,72.3179,76.8918,132.204,100.598,100.234,0.00248704,0.124411,20.8653,0.910845,0.0350558,0.0,0.0
1416,353.75,72.1572,75.9933,131.308,100.581,98.9366,0.00248651,0.123875,20.8655,0.910845,0.159402,0.0,0.0
1420,354.75,72.0884,74.8423,132.421,100.564,100.158,0.00247447,0.123365,20.8655,0.900836,0.0391436,0.0,0.0
1424,355.75,70.8149,74.28,132.561,100.566,100.52,0.00247286,0.12283,20.8653,0.920854,0.00442883,0.0,0.0
1428,356.75,69.9072,72.6289,134.928,100.558,101.062,0.00248732,0.122322,20.8651,0.930864,-0.048363,0.0,0.0
1432,357.75,69.7782,72.2404,133.819,100.543,101.121,0.00250153,0.12185,20.865,0.920854,-0.0554411,0.0,0.0
1436,358.75,69.2865,71.3909,131.596,100.526,100.413,0.00250614,0.121406,20.8658,0.920854,0.0108817,0.0,0.0
1440,359.75,67.5243,69.8445,132.136,100.517,100.147,0.00250217,0.121029,20.8662,0.920854,0.0356715,0.0,0.0
1444,360.75,67.621,69.1289,131.175,100.525,100.554,0.00249768,0.120679,20.8666,0.920854,-0.00279644,0.0,0.0
1448,361.75,67.2125,68.6193,133.526,100.521,100.593,0.00250762,0.120298,20.8667,0.920854,-0.00697358,0.0,0.0
1452,362.75,66.4989,67.8383,134.187,100.507,99.6962,0.0025406,0.11997,20.8671,0.920854,0.0783559,0.0,0.0
1456,363.75,66.1903,67.3508,135.865,100.492,100.821,0.00259034,0.119531,20.8679,0.910845,-0.0315839,0.0,0.0
1460,364.75,65.5412,66.4964,130.462,100.495,100.866,0.00266478,0.119167,20.8685,0.920854,-0.0356329,0.0,0.0
1464,365.75,65.0469,65.38,134.499,100.485,100.874,0.00273108,0.11878,20.8688,0.920854,-0.0373498,0.0,0.0
1468,366.75,64.7644,64.2859,135.462,100.487,100.429,0.00275882,0.118468,20.8692,0.920854,0.00552708,0.0,0.0
1472,367.75,64.0841,63.7361,135.582,100.498,101.426,0.00275178,0.118193,20.8696,0.910845,-0.0889354,0.0,0.0
1476,368.75,63.4212,62.7987,131.123,100.494,101.088,0.00271178,0.117962,20.8699,0.910845,-0.0569441,0.0,0.0
1480,369.75,63.0091,62.5362,135.749,100.485,99.397,0.00264956,0.117764,20.87,0.920854,0.105279,0.0,0.0
1484,370.75,62.7427,61.6705,133.814,100.477,100.474,0.00260122,0.117564,20.8708,0.930864,0.000366649,0.0,0.0
1488,371.75,62.2354,61.1543,134.027,100.465,99.9844,0.00252738,0.117336,20.8709,0.930864,0.0464053,0.0,0.0
1492,372.75,61.8075,60.8981,133.4,100.456,100.197,0.00245898,0.117134,20.8702,0.930864,0.0249477,0.0,0.0
1496,373.75,61.6704,59.8381,137.762,100.463,100.437,0.00240887,0.116905,20.8696,0.920854,0.00247749,0.0,0.0
1500,374.75,60.7838,59.6184,134.825,100.466,101.084,0.00237845,0.116704,20.8692,0.920854,-0.0592919,0.0,0.0
1504,375.75,60.625,59.0435,132.732,100.461,101.183,0.00236856,0.116595,20.8689,0.930864,-0.0692739,0.0,0.0
1508,376.75,60.1896,58.4755,136.96,100.46,100.704,0.00235978,0.116523,20.8687,0.930864,-0.0234875,0.0,0.0
1512,377.75,59.6542,57.4853,135.521,100.453,100.759,0.00233815,0.116398,20.8686,0.920854,-0.0294927,0.0,0.0
1516,378.75,58.9199,57.0682,135.843,100.45,100.813,0.00229924,0.11624,20.8685,0.930864,-0.0348703,0.0,0.0
1520,379.75,58.8433,56.6487,135.254,100.446,101.109,0.00225172,0.116131,20.8685,0.930864,-0.0636543,0.0,0.0
1524,380.75,58.9766,56.1269,136.052,100.447,100.922,0.0021752,0.116031,20.8684,0.910845,-0.0456553,0.0,0.0
1528,381.75,58.1965,56.0086,133.552,100.455,101.271,0.00209015,0.115856,20.8684,0.930864,-0.0782781,0.0,0.0
1532,382.75,57.8462,55.2778,136.33,100.444,101.392,0.00202651,0.115661,20.8688,0.940873,-0.0908428,0.0,0.0
1536,383.75,57.5069,55.1874,136.864,100.444,100.703,0.001993,0.115481,20.8695,0.930864,-0.0248948,0.0,0.0
1540,384.75,57.3829,54.7816,137.06,100.435,100.93,0.00199291,0.115331,20.8699,0.920854,-0.0475664,0.0,0.0
1544,385.75,56.1878,52.7847,134.409,100.449,101.64,0.00202408,0.115205,20.8702,0.920854,-0.11393,0.0,0.0
1548,386.75,56.637,53.9464,137.242,100.438,101.621,0.00208208,0.115139,20.8704,0.930864,-0.113248,0.0,0.0
1552,387.75,55.8081,52.4967,133.655,100.439,101.846,0.00216886,0.115072,20.8703,0.930864,-0.134592,0.0,0.0
1556,388.75,55.9965,52.6843,137.518,100.431,102.587,0.00222801,0.114928,20.8701,0.920854,-0.205446,0.0,0.0
1560,389.75,55.5902,52.2997,136.293,100.434,101.96,0.00225111,0.114807,20.87,0.920854,-0.145812,0.0,0.0
1564,390.75,55.0806,52.2167,135.683,100.443,101.474,0.00224459,0.114742,20.8704,0.930864,-0.0988577,0.0,0.0
1568,391.75,54.7662,50.9529,137.367,100.436,101.467,0.00221991,0.114742,20.871,0.930864,-0.0987482,0.0,0.0
1572,392.75,54.7996,51.3791,133.14,100.433,101.734,0.00220822,0.114745,20.8714,0.920854,-0.124531,0.0,0.0
1576,393.75,54.4171,50.8531,135.658,100.441,101.361,0.00220289,0.114712,20.8709,0.920854,-0.0881336,0.0,0.0
1580,394.75,54.448,50.3239,135.759,100.431,100.443,0.00225526,0.114669,20.8704,0.910845,-0.00115769,0.0,0.0
1584,395.75,53.3869,49.6327,133.635,100.432,100.836,0.0023316,0.114587,20.8701,0.920854,-0.0388489,0.0,0.0
1588,396.75,53.3249,49.8574,135.182,100.446,101.45,0.00240997,0.114527,20.8698,0.920854,-0.0962232,0.0,0.0
1592,397.75,53.5964,49.7556,138.985,100.446,102.055,0.00247647,0.114469,20.8697,0.920854,-0.153724,0.0,0.0
1596,398.75,52.9313,49.1924,136.883,100.449,102.027,0.00251337,0.114357,20.8696,0.920854,-0.150756,0.0,0.0
1600,399.75,53.1998,49.0967,134.725,100.437,101.796,0.00251726,0.114323,20.8695,0.920854,-0.129967,0.0,0.0
1604,400.75,52.8362,48.3701,139.045,100.445,101.719,0.00250093,0.11435,20.8695,0.920854,-0.121891,0.0,0.0
1608,401.75,52.4353,48.5888,135.454,100.442,101.446,0.00246227,0.114339,20.8695,0.910845,-0.0962267,0.0,0.0
1612,402.75,52.1913,47.624,135.284,100.438,102.056,0.00240669,0.114322,20.8694,0.910845,-0.154545,0.0,0.0
1616,403.75,52.3248,47.5095,134.176,100.452,101.72,0.00234666,0.114269,20.8694,0.920854,-0.121303,0.0,0.0
1620,404.75,51.5976,47.2525,137.904,100.437,101.196,0.00228513,0.114187,20.8694,0.920854,-0.0728606,0.0,0.0
1624,405.75,51.0856,46.9788,134.911,100.44,101.66,0.00223151,0.114097,20.8696,0.920854,-0.1168,0.0,0.0
1628,406.75,50.909,46.6759,134.327,100.443,102.348,0.00219069,0.114039,20.8704,0.910845,-0.181701,0.0,0.0
1632,407.75,50.86,46.9784,132.012,100.45,101.997,0.00216704,0.114001,20.8708,0.920854,-0.147869,0.0,0.0
1636,408.75,50.9292,46.4423,135.637,100.441,102.031,0.00218252,0.113951,20.8711,0.920854,-0.151923,0.0,0.0
1640,409.75,50.5658,46.3089,133.226,100.447,101.581,0.00221482,0.113879,20.8713,0.920854,-0.108522,0.0,0.0
1644,410.75,49.4517,45.2325,132.872,100.462,101.323,0.00224474,0.11378,20.8715,0.940873,-0.0824978,0.0,0.0
1648,411.75,50.2337,45.883,136.908,100.463,102.048,0.0022545,0.113703,20.8716,0.920854,-0.151429,0.0,0.0
1652,412.75,49.6097,45.0338,136.018,100.482,101.401,0.00224191,0.113713,20.8716,0.920854,-0.0880975,0.0,0.0
1656,413.75,49.5627,45.5207,138.931,100.497,102.034,0.00221896,0.11373,20.8712,0.920854,-0.14676,0.0,0.0
1660,414.75,48.2523,43.9072,133.79,100.499,102.112,0.00219722,0.113723,20.8706,0.920854,-0.15399,0.0,0.0
1664,415.75,49.3245,44.8318,136.777,100.51,102.621,0.00216775,0.113719,20.8702,0.920854,-0.201038,0.0,0.0
1668,416.75,49.3075,44.5242,135.806,100.508,103.267,0.00213429,0.113716,20.8699,0.920854,-0.261962,0.0,0.0
1672,417.75,48.5806,44.2773,140.632,100.523,102.786,0.00209278,0.113665,20.8698,0.920854,-0.215312,0.0,0.0
1676,418.75,48.3592,44.1293,136.366,100.533,102.312,0.0020497,0.11369,20.8701,0.920854,-0.169649,0.0,0.0
1680,419.75,48.7226,43.8809,137.543,100.544,103.128,0.00202633,0.113722,20.8709,0.920854,-0.245472,0.0,0.0
1684,420.75,48.3234,43.6896,137.831,100.567,102.978,0.00202351,0.113793,20.8712,0.920854,-0.229148,0.0,0.0
1688,421.75,48.3128,43.4247,133.329,100.574,102.004,0.00203985,0.113839,20.8707,0.920854,-0.136529,0.0,0.0
1692,422.75,47.6037,42.4338,135.125,100.574,102.124,0.00206733,0.11385,20.8705,0.930864,-0.147879,0.0,0.0
1696,423.75,48.3226,43.0755,135.67,100.58,103.274,0.00212374,0.113793,20.8704,0.930864,-0.255655,0.0,0.0
1700,424.75,47.7222,43.0607,135.373,100.584,101.77,0.00220728,0.113691,20.8703,0.920854,-0.113314,0.0,0.0
1704,425.75,47.483,43.0329,136.802,100.594,102.783,,0.113665,,0.920854,-0.208172,0.0,0.0
1708,426.75,47.1367,42.9513,138.129,100.613,103.238,,0.113656,,0.920854,-0.249147,0.0,0.0
1712,427.75,47.1865,42.2472,139.315,100.6,102.491,,0.113643,,0.920854,-0.180079,0.0,0.0
1716,428.75,46.7364,42.2645,135.322,100.622,102.319,,,,0.930864,-0.161828,0.0,0.0
1720,429.75,46.4246,41.7188,136.971,100.622,103.26,,,,0.930864,-0.250342,0.0,0.0
1724,430.75,46.4553,41.7763,135.631,100.641,103.863,,,,0.920854,-0.304779,0.0,0.0
1728,431.75,46.4598,41.5016,137.581,100.661,102.756,,,,0.910845,-0.199288,0.0,0.0
1732,432.75,46.1388,41.6412,137.691,100.655,103.318,,,,0.920854,-0.252619,0.0,0.0
1736,433.75,45.9333,41.5999,134.32,100.663,103.444,,,,0.920854,-0.263652,0.0,0.0
1740,434.75,45.9401,40.9259,138.837,100.675,103.279,,,,0.920854,-0.246942,0.0,0.0
1744,435.75,45.6027,41.1716,135.256,100.683,103.782,,,,0.920854,-0.293272,0.0,0.0