File: 01_Data/PP/Cone/PP_Cone_HF25Scan_220203_R3.csv
Names,Time,Stack TC,Smoke TC,Exh Press,Smoke Comp,Smoke Meas,CO Meter,CO2 Meter,O2 Meter,Sample Mass,Ext Coeff,Start Test,Flame Verif
Chan Gain,,500,500,1,1,1,1,1,1,1,1,1.0,1.0
Offset,,0,0,0.14021,0,0,0,0,0,0,0,0.0,0.0
Gain,,1,1,25.011,13.3046,13.3037,1,1,1,1.00093,1.10262,1.0,1.0
Units,sec,C,C,Pa,%,%,%,%,%,g,/m,,
Baseline,,24.093,24.1405,141.62,100.661,104.837,0.00249599,0.113394,20.87,-870.133,-0.393135,,
4,0.75,21.4855,21.0567,141.686,100.06,103.901,0.00255312,0.127386,20.8546,29.5374,-0.364293,0.0,0.0
8,1.75,22.18,21.9225,138.465,100.043,103.408,0.0025358,0.126116,20.8565,29.4974,-0.319952,0.0,0.0
12,2.75,22.0613,21.8432,141.419,99.9907,104.234,0.00253553,0.125107,20.8574,29.5374,-0.401949,0.0,0.0
16,3.75,21.7352,21.6064,142.659,99.9801,103.594,0.00257024,0.124259,20.8587,29.5474,-0.343452,0.0,0.0
20,4.75,21.7521,21.5885,139.436,99.9736,103.834,0.00262517,0.123548,20.8599,29.5474,-0.366458,0.0,0.0
24,5.75,22.2203,21.9204,138.779,100.149,103.845,0.00267101,0.123112,20.8608,29.5374,-0.350564,0.0,0.0
28,6.75,21.4914,21.3884,139.33,100.341,104.471,0.0026967,0.122615,20.8615,29.5374,-0.390205,0.0,0.0
32,7.75,21.7833,22.0589,138.115,100.505,103.993,0.00269469,0.122015,20.8626,29.5374,-0.329988,0.0,0.0
36,8.75,22.3962,22.1055,141.294,100.62,104.796,0.00266188,0.121546,20.8633,29.5474,-0.39334,0.0,0.0
40,9.75,22.3842,21.8467,141.676,100.74,104.151,0.00260526,0.121164,20.8637,29.5374,-0.322031,0.0,0.0
44,10.75,21.7832,21.912,143.358,100.804,104.873,0.00255545,0.120776,20.864,29.5474,-0.382831,0.0,0.0
48,11.75,22.3001,22.4272,139.456,100.833,104.342,0.00251619,0.120484,20.865,29.5474,-0.330887,0.0,0.0
52,12.75,21.9776,22.4743,142.51,100.845,104.225,0.00249358,0.11967,20.8657,29.5374,-0.318913,0.0,0.0
56,13.75,22.2445,22.5715,140.874,100.819,104.399,0.00246766,0.118812,20.8667,29.5274,-0.337519,0.0,0.0
60,14.75,22.7865,22.3732,139.919,100.753,104.481,0.00243292,0.117916,20.8684,29.5174,-0.351427,0.0,0.0
64,15.75,22.2462,22.5414,141.537,100.661,105.007,0.0024057,0.117089,20.8695,29.5074,-0.408787,0.0,0.0
68,16.75,22.1989,22.105,143.089,100.539,104.066,0.00242108,0.1163,20.8709,29.4974,-0.3335,0.0,0.0
72,17.75,22.5374,22.2119,141.622,100.391,104.383,0.00244956,0.115573,20.8719,29.4974,-0.377118,0.0,0.0
76,18.75,22.175,22.7125,140.651,100.292,104.329,0.00248318,0.114897,20.8726,29.5174,-0.381738,0.0,0.0
80,19.75,22.4631,22.6568,137.821,100.346,103.914,0.00249923,0.114365,20.8731,29.5174,-0.337989,0.0,0.0
84,20.75,22.433,22.5465,145.181,100.405,104.235,0.00249378,0.113768,20.8739,29.5174,-0.362086,0.0,0.0
88,21.75,22.3868,22.5019,141.246,100.491,104.281,0.00246902,0.113357,20.875,29.5074,-0.358128,0.0,0.0
92,22.75,22.4948,22.1798,143.834,100.578,104.188,0.00243061,0.113025,20.876,29.4974,-0.341065,0.0,0.0
96,23.75,22.6702,22.7989,141.219,100.676,104.44,0.00238905,0.112643,20.8772,29.5074,-0.354998,0.0,0.0
100,24.75,22.4791,22.6139,141.233,100.767,104.877,0.00235252,0.112219,20.8779,29.5174,-0.386674,0.0,0.0
104,25.75,22.4322,22.7093,141.678,100.853,104.047,0.00234426,0.111866,20.8785,29.5174,-0.301543,0.0,0.0
108,26.75,22.3606,22.6029,141.372,100.926,104.611,0.00238095,0.111557,20.8788,29.5274,-0.346856,0.0,0.0
112,27.75,22.2093,23.0296,140.449,100.997,104.751,0.002426,0.111274,20.879,29.5274,-0.352989,0.0,0.0
116,28.75,22.4658,22.9895,141.034,101.043,104.517,0.00246643,0.111005,20.8792,29.5074,-0.326866,0.0,0.0
120,29.75,22.3723,22.8628,142.669,101.09,105.036,0.00250822,0.110758,20.8793,29.5174,-0.370369,0.0,0.0
124,30.75,22.6393,22.8981,143.124,101.091,104.49,0.00256266,0.110561,20.8793,29.5174,-0.319839,0.0,0.0
128,31.75,22.5603,22.7768,140.813,101.078,104.743,0.00261725,0.110432,20.8791,29.5274,-0.344468,0.0,0.0
132,32.75,22.3585,22.6158,139.369,101.039,104.849,0.00267582,0.110345,20.8791,29.5274,-0.357976,0.0,0.0
136,33.75,22.7714,22.4414,142.589,100.977,105.255,0.00269237,0.110165,20.8796,29.5174,-0.401343,0.0,0.0
140,34.75,22.5821,22.7138,141.524,100.892,104.422,0.00267121,0.110003,20.8802,29.5074,-0.332616,0.0,0.0
144,35.75,22.281,22.5944,140.553,100.792,104.662,0.0026385,0.109814,20.8807,29.5074,-0.364434,0.0,0.0
148,36.75,22.3118,22.9385,142.865,100.672,104.679,0.00259801,0.109742,20.881,29.5074,-0.377473,0.0,0.0
152,37.75,22.5234,22.8503,146.12,100.534,104.45,0.00255497,0.109687,20.8812,29.5274,-0.3696,0.0,0.0
156,38.75,22.3972,22.874,141.996,100.375,103.843,0.00249685,0.10962,20.8813,29.5274,-0.328481,0.0,0.0
160,39.75,22.3057,22.722,139.864,100.22,103.656,0.00245208,0.10954,20.8814,29.5274,-0.326025,0.0,0.0
164,40.75,22.1943,22.7362,141.557,100.063,103.375,0.00243378,0.10941,20.8815,29.5374,-0.314953,0.0,0.0
168,41.75,22.7146,22.592,141.07,99.8973,103.912,0.00243286,0.109343,20.8815,29.5274,-0.381142,0.0,0.0
172,42.75,22.583,21.9848,144.864,99.7385,103.657,0.00243225,0.109323,20.8815,29.5174,-0.372725,0.0,0.0
176,43.75,22.0378,22.6054,138.023,99.5818,102.731,0.0024252,0.109321,20.8815,29.5074,-0.301175,0.0,0.0
180,44.75,22.8779,23.3289,140.545,99.4389,102.812,0.00242303,0.109278,20.8815,29.4874,-0.32267,0.0,0.0
184,45.75,22.2503,22.494,144.192,99.3171,102.79,0.00243216,0.109217,20.8815,29.5074,-0.332424,0.0,0.0
188,46.75,22.6099,22.4661,150.04,99.2212,103.25,0.00245,0.109228,20.8816,29.5174,-0.384985,0.0,0.0
192,47.75,21.9129,22.9514,142.03,99.1429,102.642,0.0024618,0.109357,20.8816,29.5274,-0.335448,0.0,0.0
196,48.75,23,23.1785,138.933,99.1051,102.971,0.00245818,0.109665,20.8816,29.5174,-0.370072,0.0,0.0
200,49.75,22.1794,22.7758,143.129,99.1039,102.54,0.00245108,0.109917,20.8816,29.5074,-0.329682,0.0,0.0
204,50.75,22.3691,23.0033,141.815,99.1132,102.453,0.0024553,0.110101,20.8809,29.4974,-0.320534,0.0,0.0
208,51.75,22.3123,22.724,140.836,99.1737,103.073,0.00248602,0.110227,20.8803,29.5074,-0.373021,0.0,0.0
212,52.75,22.6646,22.8099,139.291,99.2415,102.773,0.00254868,0.110283,20.88,29.5074,-0.338177,0.0,0.0
216,53.75,22.2895,22.9025,142.608,99.354,103.137,0.00263245,0.110276,20.8797,29.4874,-0.361473,0.0,0.0
220,54.75,22.161,22.5849,138.974,99.473,103.435,0.00268281,0.110218,20.8796,29.4974,-0.377728,0.0,0.0
224,55.75,22.0131,22.7261,143.151,99.6041,103.235,0.00270052,0.110156,20.8793,29.5174,-0.346289,0.0,0.0
228,56.75,22.4455,23.0888,144.444,99.7239,103.512,0.00267219,0.110164,20.8798,29.5074,-0.360609,0.0,0.0
232,57.75,22.3606,22.4922,142.434,99.8542,103.622,0.00262476,0.110182,20.8802,29.5074,-0.358214,0.0,0.0
236,58.75,22.5347,22.8526,139.223,99.9842,104.028,0.00259486,0.110193,20.8804,29.4974,-0.383497,0.0,0.0
240,59.75,22.5548,22.8923,139.295,100.09,102.436,0.00257799,0.110175,20.8806,29.4974,-0.224059,0.0,0.0
244,60.75,22.5468,23.246,140.791,100.19,103.777,0.00255524,0.110138,20.8807,29.4974,-0.340247,0.0,0.0
248,61.75,22.7523,23.1216,139.913,100.276,103.519,0.00252144,0.110078,20.8811,29.4874,-0.307769,0.0,0.0
252,62.75,22.492,23.2034,139.163,100.343,103.889,0.00247467,0.109965,20.8813,29.4974,-0.335919,0.0,0.0
256,63.75,22.4392,23.1279,139.381,100.391,104.074,0.0024435,0.109853,20.8815,29.5174,-0.348446,0.0,0.0
260,64.75,22.312,22.9917,144.294,100.417,103.69,0.00243719,0.109828,20.8816,29.4974,-0.310221,0.0,0.0
264,65.75,22.5452,22.8615,141.196,100.421,103.664,0.0024508,0.109847,20.881,29.5074,-0.307445,0.0,0.0
268,66.75,22.3293,23.0877,143.176,100.408,103.589,0.00245797,0.109981,20.8805,29.4874,-0.301686,0.0,0.0
272,67.75,22.5828,23.5211,137.714,100.372,103.785,0.00246396,0.11017,20.8801,29.4773,-0.323345,0.0,0.0
276,68.75,22.5462,23.4329,141.609,100.315,103.391,0.00249108,0.110384,20.8799,29.4773,-0.292169,0.0,0.0
280,69.75,23.3393,22.9459,140.43,100.252,103.518,0.00254121,0.110599,20.8797,29.4874,-0.310082,0.0,0.0
284,70.75,22.5286,23.2733,148.135,100.172,103.689,0.00259711,0.110668,20.8796,29.4974,-0.33372,0.0,0.0
288,71.75,22.6757,22.6151,142.131,100.107,103.793,0.00264669,0.110626,20.8796,29.5074,-0.34976,0.0,0.0
292,72.75,22.8122,22.9953,142.133,100.045,103.666,0.00268046,0.110524,20.8795,29.4974,-0.343916,0.0,0.0
296,73.75,22.6238,22.8069,144.617,99.9817,103.409,0.00269747,0.110408,20.8803,29.4974,-0.325957,0.0,0.0
300,74.75,22.7174,22.902,144.345,99.9318,103.307,0.00269875,0.110249,20.8808,29.4974,-0.321292,0.0,0.0
304,75.75,22.3912,22.9755,141.548,99.9021,103.26,0.00269212,0.110065,20.8811,29.4874,-0.319712,0.0,0.0
308,76.75,22.3717,22.856,139.265,100.03,103.094,0.00268683,0.109908,20.8813,29.4974,-0.29177,0.0,0.0
312,77.75,22.5692,22.6252,140.37,100.253,103.511,0.0026989,0.109756,20.8812,29.4773,-0.309281,0.0,0.0
316,78.75,22.7413,23.0303,140.103,100.436,103.576,0.00272681,0.109649,20.8809,29.4974,-0.297814,0.0,0.0
320,79.75,22.756,23.1767,141.609,100.589,103.374,0.00273407,0.109561,20.8799,29.4974,-0.264148,0.0,0.0
324,80.75,22.3355,23.3874,141.838,100.696,103.506,0.00270537,0.109387,20.8792,29.5174,-0.266222,0.0,0.0
328,81.75,22.6378,22.5803,142.357,100.767,103.584,0.00265308,0.109255,20.8788,29.5174,-0.266719,0.0,0.0
332,82.75,22.7013,23.2975,143.834,100.811,102.854,0.00258109,0.109204,20.8787,29.5074,-0.19403,0.0,0.0
336,83.75,22.6903,23.3017,141.063,100.791,103.244,0.00252286,0.10917,20.879,29.4974,-0.232522,0.0,0.0
340,84.75,22.3565,23.3176,144.952,100.757,103.112,0.00248022,0.109088,20.8791,29.4974,-0.223464,0.0,0.0
344,85.75,22.6914,22.7928,141.374,100.68,103.841,0.00245224,0.10898,20.8792,29.5074,-0.298914,0.0,0.0
348,86.75,22.3473,23.1874,137.731,100.572,103.072,0.00243511,0.108898,20.8793,29.4974,-0.237483,0.0,0.0
352,87.75,22.5148,23.388,143.487,100.478,101.68,0.00243466,0.108824,20.8793,29.5074,-0.115018,0.0,0.0
356,88.75,22.5832,23.3717,144.705,100.369,102.416,0.00246314,0.108689,20.8793,29.5274,-0.195225,0.0,0.0
360,89.75,22.6025,23.1822,141.064,100.36,102.235,0.00250708,0.108534,20.8794,29.5174,-0.179008,0.0,0.0
364,90.75,22.4122,23.4263,142.65,100.274,102.5,0.00256476,0.108383,20.8794,29.4974,-0.212357,0.0,0.0
368,91.75,22.7922,23.1479,137.153,100.32,102.187,0.00262307,0.108358,20.8794,29.4974,-0.178311,0.0,0.0
372,92.75,22.7864,23.0633,140.344,100.365,102.343,0.0026902,0.108341,20.8794,29.4974,-0.188789,0.0,0.0
376,93.75,22.9886,23.6528,141.324,100.438,102.286,0.00274406,0.108355,20.8794,29.4773,-0.176299,0.0,0.0
380,94.75,22.6734,23.4452,142.781,100.511,102.151,0.0027849,0.10831,20.8794,29.4673,-0.156587,0.0,0.0
384,95.75,22.4731,23.7412,142.806,100.594,102.178,0.00280602,0.108221,20.8794,29.4673,-0.151079,0.0,0.0
388,96.75,22.0505,23.7499,143.564,100.675,102.541,0.00282058,0.108128,20.8794,29.4773,-0.177648,0.0,0.0
392,97.75,22.9613,23.4908,140.19,100.743,102.501,0.00285031,0.108017,20.8794,29.4673,-0.167305,0.0,0.0
396,98.75,22.6137,23.1404,146.141,100.83,102.727,0.00289602,0.10792,20.8794,29.4573,-0.180321,0.0,0.0
400,99.75,22.476,23.4021,139.466,100.885,102.157,0.00295597,0.107906,20.8794,29.4673,-0.121207,0.0,0.0
404,100.75,22.2329,23.1426,143.185,100.955,102.149,0.00299789,0.10797,20.8794,29.4773,-0.113744,0.0,0.0
408,101.75,22.6288,23.588,142.832,101.019,102.214,0.00303171,0.107993,20.8795,29.4773,-0.113788,0.0,0.0
412,102.75,22.7103,23.3565,142.185,101.051,102.874,0.00301831,0.10812,20.8796,29.4673,-0.172983,0.0,0.0
416,103.75,23.1119,23.5719,139.676,101.096,101.567,0.00298063,0.108235,20.879,29.4173,-0.044933,0.0,0.0
420,104.75,22.7554,23.7009,140.976,101.098,102.958,0.0029559,0.109188,20.8769,29.4773,-0.176336,0.0,0.0
424,105.75,22.8387,23.7994,142.043,101.095,102.45,0.00297747,0.110556,20.8731,29.3672,-0.128816,0.0,0.0
428,106.75,23.0244,23.33,137.655,101.075,102.107,0.00304723,0.11255,20.8688,29.4173,-0.098199,0.0,0.0
432,107.75,22.6681,23.3141,138.31,101.05,103.377,0.00314214,0.116082,20.8631,29.3873,-0.220125,0.0,1.0
436,108.75,22.7877,23.5139,137.17,100.996,102.747,0.00322624,0.121211,20.853,29.4173,-0.166277,0.0,1.0
440,109.75,22.9576,24.0328,138.988,100.92,101.545,0.00328347,0.127532,20.84,29.3372,-0.0597571,0.0,1.0
444,110.75,23.6259,24.2806,131.984,100.85,102.368,0.00330226,0.135001,20.8251,29.3272,-0.144445,0.0,1.0
448,111.75,23.2799,24.776,133.471,100.754,103.167,0.00329616,0.144887,20.8054,29.3372,-0.228878,0.0,1.0
452,112.75,23.7504,24.672,131.544,100.661,101.459,0.00326342,0.156238,20.7859,29.2471,-0.0762982,0.0,1.0
456,113.75,23.9348,25.6322,135.178,100.555,101.796,0.00321037,0.166846,20.7672,29.2071,-0.118711,0.0,0.0
460,114.75,24.6054,25.9595,134.964,100.439,100.334,0.00315103,0.178899,20.7492,29.2271,0.0100697,0.0,0.0
464,115.75,24.0292,25.7855,132.52,100.329,101.327,0.00311776,0.190402,20.7303,29.2071,-0.0957929,0.0,0.0
468,116.75,25.1977,26.7889,132.759,100.206,100.091,0.00312382,0.201297,20.7106,29.1771,0.0111097,0.0,0.0
472,117.75,25.1834,27.005,132.478,100.087,99.7839,0.00317846,0.211574,20.6905,29.147,0.0293662,0.0,0.0
476,118.75,25.8439,27.6298,132.128,99.9708,99.0746,0.00326754,0.222035,20.6717,29.097,0.0870944,0.0,0.0
480,119.75,25.7489,27.7991,136.228,99.8481,99.794,0.00337177,0.231486,20.6554,29.0469,0.0052436,0.0,0.0
484,120.75,26.5301,28.7543,133.759,99.7324,99.6158,0.00344629,0.239855,20.6428,29.0469,0.011317,0.0,0.0
488,121.75,27.1448,29.3977,133.174,99.6293,98.598,0.00351527,0.247239,20.6321,29.0369,0.100644,0.0,0.0
492,122.75,27.4465,29.6162,129.737,99.5278,98.8781,0.00358866,0.253472,20.6246,28.9869,0.0633435,0.0,0.0
496,123.75,27.8459,30.195,132.147,99.4372,96.5412,0.00364438,0.260098,20.6148,28.9469,0.285879,0.0,0.0
500,124.75,28.1216,30.9187,129.595,99.3609,96.1214,0.00381947,0.265372,20.6072,28.9168,0.320601,0.0,0.0
504,125.75,28.6048,31.5237,131.178,99.2955,96.8136,0.00402612,0.27109,20.5994,28.8568,0.244831,0.0,0.0
508,126.75,28.8384,32.0403,131.252,99.2452,94.5624,0.00423118,0.276765,20.5887,28.8668,0.467491,0.0,0.0
512,127.75,29.3155,32.3372,132.315,99.2058,95.5652,0.00441057,0.282952,20.577,28.7867,0.361622,0.0,0.0
516,128.75,29.9071,32.962,129.668,99.1758,94.8027,0.00458842,0.288853,20.567,28.8067,0.43617,0.0,0.0
520,129.75,29.7905,33.1209,133.526,99.1713,92.4037,0.00476556,0.294813,20.5565,28.7767,0.683641,0.0,0.0
524,130.75,30.4735,33.7568,130.088,99.1802,94.2481,0.00491854,0.300506,20.5464,28.7267,0.493353,0.0,0.0
528,131.75,30.6564,34.014,130.244,99.1843,92.4,0.00505022,0.306237,20.5347,28.6966,0.685291,0.0,0.0
532,132.75,31.1982,34.8343,127.966,99.2099,92.031,0.00515563,0.313166,20.5231,28.6366,0.726493,0.0,0.0
536,133.75,30.7773,34.6554,127.088,99.2489,90.9571,0.00525445,0.320304,20.5099,28.5865,0.843813,0.0,0.0
540,134.75,31.6562,35.51,126.037,99.3077,91.353,0.005372,0.327619,20.4964,28.5365,0.807548,0.0,0.0
544,135.75,32.3412,36.4107,129.145,99.3479,91.2957,0.00556467,0.335702,20.4831,28.4764,0.817525,0.0,0.0
548,136.75,32.5485,36.8468,120.948,99.4096,90.7079,0.00580943,0.343723,20.4693,28.4764,0.886015,0.0,0.0
552,137.75,33.4969,37.8201,126.659,99.4697,90.5483,0.00605948,0.351395,20.4543,28.3963,0.908887,0.0,0.0
556,138.75,34.6608,38.8874,128.035,99.5351,89.9482,0.00630915,0.358657,20.4392,28.3663,0.979553,0.0,0.0
560,139.75,34.4775,39.1054,128.792,99.6037,89.1159,0.00658958,0.36625,20.4241,28.2963,1.07613,0.0,0.0
564,140.75,34.7559,39.5353,135.705,99.6874,88.3186,0.00689141,0.37295,20.409,28.2562,1.17118,0.0,0.0
568,141.75,34.8576,39.8756,123.943,99.7641,89.528,0.0071511,0.380255,20.3966,28.1962,1.04707,0.0,0.0
572,142.75,35.6322,40.8216,125.084,99.8258,88.0226,0.00741194,0.388454,20.3828,28.1161,1.21707,0.0,0.0
576,143.75,36.3065,41.5451,122.291,99.8778,86.4498,0.00765607,0.396841,20.3687,28.0861,1.39649,0.0,0.0
580,144.75,36.1971,41.7711,121.597,99.9817,85.5883,0.00786842,0.4061,20.3531,28.056,1.50343,0.0,0.0
584,145.75,37.785,43.3864,126.242,100.051,86.7206,0.00807891,0.41479,20.3389,27.9459,1.38298,0.0,0.0
588,146.75,37.5848,43.5857,126.545,100.114,86.4745,0.00824629,0.423785,20.3234,27.8759,1.41658,0.0,0.0
592,147.75,38.562,44.3766,123.788,100.183,87.4412,0.00844281,0.433598,20.31,27.8458,1.31572,0.0,0.0
596,148.75,39.0095,45.2936,121.56,100.246,84.6285,0.00860912,0.442591,20.2933,27.7758,1.63808,0.0,0.0
600,149.75,39.7574,46.313,121.175,100.319,87.8436,0.00873087,0.453212,20.2754,27.6456,1.28441,0.0,0.0
604,150.75,39.8255,46.3813,121.572,100.351,85.0312,0.00881234,0.464771,20.2564,27.6056,1.60222,0.0,0.0
608,151.75,41.007,47.8676,123.894,100.377,86.0308,0.00886892,0.475507,20.2361,27.5556,1.49173,0.0,0.0
612,152.75,41.3051,48.6653,118.914,100.426,84.9935,0.00894496,0.485797,20.2172,27.4755,1.61371,0.0,0.0
616,153.75,42.1378,49.6348,117.086,100.456,85.2574,0.009071,0.497143,20.1958,27.4154,1.58666,0.0,0.0
620,154.75,42.3911,50.0277,119.632,100.478,83.43,0.00928588,0.50853,20.1743,27.3554,1.79837,0.0,0.0
624,155.75,43.3062,51.0957,119.32,100.494,85.622,0.00949067,0.518814,20.1546,27.2253,1.54906,0.0,0.0
628,156.75,44.2746,52.367,116.301,100.508,80.197,0.00974945,0.530319,20.1347,27.1552,2.18348,0.0,0.0
632,157.75,44.4622,52.7812,120.74,100.511,83.523,0.00997923,0.541177,20.116,27.1452,1.79073,0.0,0.0
636,158.75,45.477,54.1552,116.291,100.521,82.13,0.0101554,0.551475,20.0976,27.0251,1.95437,0.0,0.0
640,159.75,46.2712,55.1632,113.827,100.512,85.9094,0.0102928,0.562703,20.078,26.8649,1.51836,0.0,0.0
644,160.75,46.9187,56.3818,122.262,100.51,82.3184,0.0104289,0.573544,20.0557,26.8749,1.9312,0.0,0.0
648,161.75,47.9181,56.9489,116.361,100.475,82.182,0.0105745,0.58533,20.0326,26.7248,1.94388,0.0,0.0
652,162.75,48.5045,58.4017,117.109,100.451,82.5575,0.0107058,0.597913,20.0107,26.6747,1.89743,0.0,0.0
656,163.75,48.9305,58.9219,113.196,100.423,80.59,0.0108764,0.611274,19.9896,26.5847,2.12803,0.0,0.0
660,164.75,50.0887,60.2269,111.867,100.402,81.0435,0.0110541,0.62358,19.9677,26.4846,2.07168,0.0,0.0
664,165.75,50.7967,61.3619,110.357,100.365,80.7029,0.011273,0.637368,19.947,26.3845,2.10886,0.0,0.0
668,166.75,51.7288,62.3737,115.411,100.326,78.597,0.0115166,0.649904,19.9218,26.3044,2.36088,0.0,0.0
672,167.75,52.4679,63.1783,113.363,100.288,78.7269,0.0117788,0.663397,19.8957,26.1943,2.34122,0.0,0.0
676,168.75,53.3266,64.682,115.325,100.245,78.6165,0.0120698,0.677485,19.8732,26.1042,2.35069,0.0,0.0
680,169.75,53.7967,65.6042,109.391,100.216,78.3514,0.0122606,0.691086,19.85,26.0241,2.38058,0.0,0.0
684,170.75,54.9122,67.056,124.281,100.179,78.4976,0.0126196,0.705743,19.8288,25.9441,2.35899,0.0,0.0
688,171.75,55.2194,67.8006,109.637,100.165,78.4176,0.0129418,0.719118,19.8084,25.7639,2.36743,0.0,0.0
692,172.75,56.3749,68.8943,103.117,100.123,78.0745,0.0132708,0.73404,19.7836,25.6838,2.40584,0.0,0.0
696,173.75,57.1508,70.1053,107.714,100.098,77.4744,0.0136084,0.750845,19.7559,25.5537,2.47799,0.0,0.0
700,174.75,58.3256,71.0856,106.93,100.067,73.326,0.0139286,0.768549,19.7213,25.4536,3.0073,0.0,0.0
704,175.75,58.926,72.4716,105.777,100.05,71.892,0.0142272,0.786064,19.6907,25.3535,3.19667,0.0,0.0
708,176.75,60.0867,73.7304,114.864,100.029,76.5163,0.014495,0.801729,19.6594,25.2134,2.59169,0.0,0.0
712,177.75,60.9378,74.9714,106.887,100.007,74.8014,0.0148074,0.819544,19.6285,25.0933,2.80881,0.0,0.0
716,178.75,61.8842,76.4045,105.116,99.987,74.5992,0.0151093,0.836844,19.5985,24.9732,2.83306,0.0,0.0
720,179.75,62.5475,77.7731,105.947,99.9781,74.5261,0.0154117,0.852758,19.5669,24.843,2.84168,0.0,0.0
724,180.75,64.0034,79.2465,109.986,99.9622,75.9345,0.0157073,0.868804,19.5333,24.7229,2.65907,0.0,0.0
728,181.75,64.7058,80.2345,112.816,99.9647,74.5375,0.0160058,0.885379,19.5022,24.6128,2.83891,0.0,0.0
732,182.75,65.1886,81.276,101.464,100.058,75.4566,0.0162841,0.902191,19.4761,24.4627,2.72936,0.0,0.0
736,183.75,66.4587,83.2699,106.43,100.155,73.1214,0.0165363,0.918474,19.4528,24.3426,3.0428,0.0,0.0
740,184.75,67.6138,84.135,102.938,100.238,74.7234,0.016754,0.934108,19.43,24.2225,2.84125,0.0,0.0
744,185.75,68.6766,85.6554,104.513,100.315,76.3048,0.0169306,0.950115,19.3999,24.1024,2.6461,0.0,0.0
748,186.75,69.4244,87.278,96.883,100.376,76.0624,0.0170799,0.968822,19.37,23.9722,2.6827,0.0,0.0
752,187.75,70.6358,88.712,105.299,100.439,74.2362,0.0172065,0.986812,19.3395,23.8621,2.92385,0.0,0.0
756,188.75,71.7971,90.24,106.857,100.493,73.7433,0.0173373,1.00289,19.3091,23.692,2.99348,0.0,0.0
760,189.75,72.7718,91.6733,99.2964,100.549,74.2691,0.0175043,1.01853,19.2805,23.5719,2.9302,0.0,0.0
764,190.75,73.4554,92.5251,114.051,100.59,75.0791,0.0177328,1.03329,19.2585,23.4417,2.82923,0.0,0.0
768,191.75,74.7908,94.6087,98.6064,100.637,72.7572,0.0179968,1.04746,19.2401,23.3216,3.13752,0.0,0.0
772,192.75,76.0371,95.6328,96.5647,100.685,73.1587,0.0182365,1.06129,19.221,23.1415,3.08893,0.0,0.0
776,193.75,77.0138,97.4205,100.393,100.717,74.2419,0.0186006,1.07599,19.1993,22.9813,2.94986,0.0,0.0
780,194.75,77.4013,98.4302,101.842,100.745,72.7625,0.0189864,1.09468,19.1703,22.8512,3.14727,0.0,0.0
784,195.75,79.6671,100.869,101.869,100.773,73.3658,0.0194497,1.10988,19.1366,22.6911,3.0701,0.0,0.0
788,196.75,80.203,101.747,101.45,100.8,73.0633,0.0199179,1.1307,19.1025,22.5509,3.11263,0.0,0.0
792,197.75,81.5257,103.652,100.366,100.816,74.548,0.0203926,1.14943,19.0697,22.3808,2.91957,0.0,0.0
796,198.75,82.8241,105.391,106.851,100.828,73.3093,0.0208509,1.16834,19.0403,22.2607,3.0828,0.0,0.0
800,199.75,83.3009,106.662,102.773,100.843,70.7394,0.0213167,1.18438,19.0121,22.1005,3.42936,0.0,0.0
804,200.75,84.6551,108.034,90.9081,100.858,72.8445,0.0217946,1.20267,18.9824,21.9804,3.14721,0.0,0.0
808,201.75,85.5935,109.778,90.8806,100.87,73.2882,0.02226,1.2207,18.9485,21.8403,3.08956,0.0,0.0
812,202.75,86.9498,111.603,98.324,100.873,70.7694,0.0226809,1.24086,18.9094,21.6301,3.42817,0.0,0.0
816,203.75,88.3305,113.517,97.7859,100.895,70.0614,0.0230266,1.26279,18.8693,21.4699,3.52749,0.0,0.0
820,204.75,89.5124,115.242,98.9522,100.884,73.0917,0.0233212,1.285,18.8328,21.2998,3.11693,0.0,0.0
824,205.75,91.1373,117.098,96.1411,100.886,70.8981,0.0236045,1.30611,18.8014,21.1596,3.41176,0.0,0.0
828,206.75,92.1567,118.587,97.6081,100.884,69.6395,0.0239417,1.32568,18.7733,21.0095,3.58481,0.0,0.0
832,207.75,93.033,120.183,91.2653,100.877,68.1621,0.0243722,1.34501,18.7402,20.7392,3.79159,0.0,0.0
836,208.75,94.6332,122.093,94.7305,100.887,70.2364,0.0249379,1.36768,18.6989,20.6091,3.50258,0.0,0.0
840,209.75,95.8155,123.552,86.1559,100.865,66.3668,0.0255594,1.3895,18.655,20.449,4.04859,0.0,0.0
844,210.75,97.3959,125.749,97.5272,100.861,66.7708,0.0260763,1.41231,18.6136,20.2688,3.98951,0.0,0.0
848,211.75,98.3357,127.03,100.154,100.847,67.3603,0.0267454,1.43843,18.5705,20.0586,3.90316,0.0,0.0
852,212.75,99.375,128.92,109.535,100.837,69.0253,0.0273749,1.46489,18.5295,19.8684,3.66603,0.0,0.0
856,213.75,100.509,130.422,85.8498,100.829,68.5702,0.0279413,1.49131,18.4859,19.6482,3.72923,0.0,0.0
860,214.75,102.158,132.695,100.322,100.806,67.6217,0.0284765,1.51674,18.4487,19.5081,3.86176,0.0,0.0
864,215.75,103.182,134.432,83.5821,100.793,67.204,0.0289284,1.54243,18.4086,19.3079,3.92045,0.0,0.0
868,216.75,104.98,136.405,92.4873,100.769,69.5807,0.0295315,1.56751,18.3746,19.1378,3.58205,0.0,0.0
872,217.75,105.997,138.218,96.351,100.761,67.4029,0.0299609,1.58773,18.3451,18.9276,3.88882,0.0,0.0
876,218.75,107.534,140.068,79.0506,100.729,65.4213,0.0305661,1.61331,18.3089,18.7174,4.17437,0.0,0.0
880,219.75,108.478,141.638,92.0667,100.706,67.0574,0.0312911,1.6395,18.2706,18.5272,3.93323,0.0,0.0
884,220.75,109.919,143.762,89.3029,100.681,66.1776,0.0320817,1.65859,18.2223,18.357,4.05855,0.0,0.0
888,221.75,111.125,145.93,100.56,100.657,66.2292,0.0329331,1.68398,18.1775,18.1568,4.04871,0.0,0.0
892,222.75,112.882,147.779,82.1991,100.628,64.3312,0.033731,1.71422,18.1163,17.9467,4.32714,0.0,0.0
896,223.75,114.31,150.223,78.243,100.602,65.5934,0.0346018,1.74681,18.0532,17.6664,4.1367,0.0,0.0
900,224.75,115.554,151.882,94.2779,100.593,64.4542,0.035273,1.78067,17.9976,17.4862,4.30531,0.0,0.0
904,225.75,116.39,153.325,80.8168,100.558,64.5776,0.0360025,1.81053,17.9491,17.236,4.28348,0.0,0.0
908,226.75,118.442,155.923,88.4869,100.526,62.4928,0.0366974,1.83893,17.9073,17.0558,4.59776,0.0,0.0
912,227.75,119.184,156.959,84.205,100.501,65.4363,0.0374305,1.87164,17.8678,16.7756,4.15022,0.0,0.0
916,228.75,121.077,160.102,79.4398,100.471,63.2216,0.0381873,1.90229,17.8142,16.5854,4.48031,0.0,0.0
920,229.75,122.561,161.799,95.9243,100.441,63.8647,0.0390538,1.94218,17.7419,16.2951,4.37953,0.0,0.0
924,230.75,124.472,164.712,83.3348,100.398,61.6317,0.0399648,1.98162,17.6564,16.1049,4.71965,0.0,0.0
928,231.75,126.485,166.699,95.6778,100.367,63.4765,0.0408319,2.02442,17.5888,15.9248,4.43141,0.0,0.0
932,232.75,128.126,169.432,76.8966,100.357,64.1655,0.0417461,2.06234,17.53,15.6946,4.32605,0.0,0.0
936,233.75,129.308,171.772,89.0167,100.377,63.1777,0.0425152,2.09409,17.481,15.4543,4.47802,0.0,0.0
940,234.75,130.785,173.727,81.2496,100.37,62.6183,0.0431499,2.12235,17.4368,15.1841,4.56339,0.0,0.0
944,235.75,131.825,175.341,88.6236,100.38,60.7617,0.0437131,2.1486,17.3885,14.9138,4.8554,0.0,0.0
948,236.75,133.665,177.971,90.4066,100.393,60.5802,0.0442221,2.17525,17.3432,14.7837,4.88562,0.0,0.0
952,237.75,134.677,179.787,86.7299,100.404,62.233,0.044921,2.2028,17.3079,14.4734,4.62637,0.0,0.0
956,238.75,135.747,181.989,77.5729,100.406,60.6825,0.0453796,2.23178,17.2711,14.1832,4.87056,0.0,0.0
960,239.75,137.891,184.325,85.2056,100.421,61.1709,0.0464508,2.26225,17.2358,13.983,4.79451,0.0,0.0
964,240.75,139.289,186.809,68.3006,100.429,59.8128,0.0474276,2.28763,17.1939,13.7227,5.01236,0.0,0.0
968,241.75,140.188,188.574,69.8745,100.44,64.254,0.0482439,2.32623,17.1427,13.4825,4.32066,0.0,0.0
972,242.75,142.28,191.36,79.5001,100.454,62.2058,0.048959,2.36217,17.0733,13.1522,4.63541,0.0,0.0
976,243.75,143.855,193.504,69.7592,100.443,61.4977,0.0496422,2.40125,16.9987,12.8519,4.74508,0.0,0.0
980,244.75,144.937,195.569,89.2891,100.447,60.4653,0.0503961,2.44069,16.9269,12.7418,4.90923,0.0,0.0
984,245.75,146.575,198.215,81.4152,100.466,59.1567,0.0512785,2.47965,16.8651,12.4315,5.1226,0.0,0.0
988,246.75,148.111,200.639,77.8164,100.473,60.5042,0.0523539,2.51607,16.808,12.1813,4.90542,0.0,0.0
992,247.75,149.772,202.95,71.1843,100.495,59.6342,0.0534149,2.54743,16.7581,11.861,5.0477,0.0,0.0
996,248.75,150.98,204.652,88.7243,100.494,60.0524,0.0546363,2.58473,16.7036,11.6808,4.97999,0.0,0.0
1000,249.75,153.031,207.959,88.1336,100.507,58.0427,0.0557535,2.62705,16.6318,11.3906,5.31047,0.0,0.0
1004,250.75,154.527,210.347,74.1969,100.513,59.9261,0.0569483,2.67529,16.5497,11.0803,5.00215,0.0,0.0
1008,251.75,156.991,213.302,82.9265,100.523,59.4174,0.0579556,2.72574,16.4675,10.73,5.08555,0.0,0.0
1012,252.75,157.401,214.151,73.1657,100.542,58.6302,0.0587402,2.77005,16.3958,10.4797,5.21642,0.0,0.0
1016,253.75,159.176,217.086,64.2201,100.548,57.0354,0.0595126,2.81109,16.3346,10.1294,5.48374,0.0,0.0
1020,254.75,160.54,219.179,63.982,100.558,61.8189,0.060393,2.84763,16.2776,9.88918,4.70576,0.0,0.0
1024,255.75,161.911,221.604,89.5448,100.572,54.6936,0.0614446,2.88304,16.2097,9.64895,5.89154,0.0,0.0
1028,256.75,163.247,223.811,81.3396,100.581,59.637,0.0626448,2.9351,16.1161,9.27861,5.05548,0.0,0.0
1032,257.75,165.761,227.182,70.5378,100.595,54.9048,0.0639139,2.99111,16.0279,9.00836,5.85647,0.0,0.0
1036,258.75,166.647,229.352,73.4489,100.601,58.4694,0.0649481,3.04335,15.9475,8.68806,5.24868,0.0,0.0
1040,259.75,169.132,232.296,69.8592,100.616,59.078,0.0661492,3.088,15.8809,8.38778,5.14994,0.0,0.0
1044,260.75,169.91,234.085,61.5746,100.629,57.9611,0.0673814,3.12922,15.8334,8.0875,5.33575,0.0,0.0
1048,261.75,172.482,237.046,72.7925,100.637,57.8592,0.0683681,3.16939,15.783,7.71716,5.35355,0.0,0.0
1052,262.75,173.614,239.715,67.6839,100.659,58.1876,0.0692701,3.21186,15.7289,7.42689,5.30091,0.0,0.0
1056,263.75,175.038,241.888,64.9781,100.659,59.9074,0.069914,3.2579,15.6492,7.07657,5.01918,0.0,0.0
1060,264.75,177.423,245.17,69.0471,100.676,59.6752,0.0703588,3.30435,15.5576,6.80631,5.05839,0.0,0.0
1064,265.75,178.661,247.455,61.7311,100.711,60.557,0.0706072,3.35599,15.4855,6.51605,4.9199,0.0,0.0
1068,266.75,180.423,249.887,55.718,100.723,62.3937,0.0709435,3.40066,15.4144,6.16572,4.63207,0.0,0.0
1072,267.75,182.073,252.501,76.8447,100.736,56.5109,0.0713399,3.43815,15.3601,5.89547,5.59113,0.0,0.0
1076,268.75,183.706,255.011,71.3499,100.755,60.2826,0.0717729,3.46144,15.3178,5.66526,4.96809,0.0,0.0
1080,269.75,185.105,257.05,68.077,100.76,61.7673,0.0722452,3.49503,15.271,5.385,4.73322,0.0,0.0
1084,270.75,186.381,258.828,72.3276,100.781,61.0284,0.0726251,3.53106,15.2106,5.0647,4.85161,0.0,0.0
1088,271.75,187.826,261.353,61.9845,100.804,63.9024,0.0728479,3.57232,15.1614,4.65432,4.40874,0.0,0.0
1092,272.75,189.413,263.885,59.2993,100.834,60.4917,0.0728998,3.60265,15.1288,4.34403,4.94219,0.0,0.0
1096,273.75,190.895,265.695,84.6751,100.842,59.6553,0.0724726,3.61734,15.1074,4.05376,5.07759,0.0,0.0
1100,274.75,191.406,266.543,67.7045,100.852,62.7985,0.0715901,3.6151,15.1155,3.7735,4.58188,0.0,0.0
1104,275.75,192.558,267.8,73.4092,100.866,59.7897,0.0702829,3.59192,15.1673,3.48323,5.05809,0.0,0.0
1108,276.75,192.883,268.014,76.4623,100.894,58.9456,0.0685945,3.54803,15.2812,3.20297,5.19829,0.0,0.0
1112,277.75,192.301,267.004,70.6553,100.89,60.9115,0.0665799,3.47598,15.4252,2.95274,4.88068,0.0,0.0
1116,278.75,192.884,266.34,81.0412,100.917,60.1644,0.0643351,3.38294,15.5769,2.76256,5.00256,0.0,0.0
1120,279.75,192.584,265.91,80.2833,100.937,61.1181,0.0620609,3.28439,15.7066,2.55237,4.85235,0.0,0.0
1124,280.75,191.576,264.233,78.5567,100.956,61.1904,0.0595972,3.17805,15.8368,2.27211,4.84279,0.0,0.0
1128,281.75,191.36,262.231,85.2896,100.973,61.8509,0.0569,3.07263,15.9977,2.12197,4.74053,0.0,0.0
1132,282.75,190.316,260.662,78.9132,100.981,61.6723,0.0541017,2.96457,16.1814,1.92178,4.76933,0.0,0.0
1136,283.75,189.989,258.912,83.4562,100.992,65.4314,0.0515066,2.82554,16.3976,1.75163,4.19802,0.0,0.0
1140,284.75,188.648,256.018,84.06,101.013,67.3773,0.0482975,2.68588,16.655,1.55144,3.91659,0.0,0.0
1144,285.75,186.798,253.182,86.839,101.02,69.2936,0.0446712,2.53749,16.8994,1.50139,3.64608,0.0,0.0
1148,286.75,184.809,249.697,95.1519,101.038,70.7759,0.0414983,2.40424,17.1352,1.34124,3.44304,0.0,0.0
1152,287.75,182.824,246.098,100.709,101.063,71.5599,0.0375824,2.24236,17.4076,1.23114,3.33893,0.0,0.0
1156,288.75,180.752,242.019,102.038,101.071,75.0519,0.0342146,2.09813,17.6735,1.11103,2.87881,0.0,0.0
1160,289.75,178.033,237.159,104.438,101.073,74.7051,0.0310153,1.93627,17.9411,1.04097,2.92383,0.0,0.0
1164,290.75,174.909,232.813,101.718,101.092,77.1119,0.0282157,1.78137,18.2307,0.880817,2.61893,0.0,0.0
1168,291.75,172.162,228.127,109.701,101.105,78.8804,0.0255368,1.63223,18.4846,0.850789,2.40086,0.0,0.0
1172,292.75,169.279,223.107,110.568,101.113,81.5989,0.0230708,1.49193,18.7207,0.790734,2.07387,0.0,0.0
1176,293.75,166.172,218.465,113.446,101.13,81.9534,0.0209422,1.36295,18.9142,0.790734,2.03362,0.0,0.0
1180,294.75,163.054,213.665,120.425,101.134,85.1559,0.0185973,1.23007,19.1476,0.770715,1.66325,0.0,0.0
1184,295.75,159.711,208.04,120.35,101.149,92.5876,0.0165128,1.10842,19.3757,0.750696,0.855437,0.0,0.0
1188,296.75,156.662,203.205,124.717,101.147,95.5083,0.0148795,0.995084,19.5421,0.770715,0.554845,0.0,0.0
1192,297.75,153.195,197.945,122.448,101.149,96.5371,0.0129454,0.876423,19.7669,0.750696,0.451371,0.0,0.0
1196,298.75,149.642,192.26,124.033,101.16,96.9813,0.0112618,0.766143,19.9676,0.760706,0.407983,0.0,0.0
1200,299.75,145.983,187.357,128.328,101.174,97.466,0.00999282,0.688452,20.1278,0.770715,0.361116,0.0,0.0
1204,300.75,142.04,181.696,127.391,101.171,97.4336,0.00873369,0.599575,20.2595,0.780724,0.364106,0.0,0.0
1208,301.75,139.236,177.156,131.167,101.173,97.1538,0.00766218,0.522826,20.3672,0.780724,0.39207,0.0,0.0
1212,302.75,136.31,173.012,131.905,101.185,96.8579,0.00673741,0.459501,20.4607,0.790734,0.422706,0.0,0.0
1216,303.75,132.625,168.047,130.795,101.184,96.9606,0.00595979,0.406122,20.5435,0.780724,0.412416,0.0,0.0
1220,304.75,130.57,164.323,128.811,101.179,97.0284,0.00532322,0.360499,20.6146,0.790734,0.405111,0.0,0.0
1224,305.75,127.976,159.357,126.539,101.186,96.745,0.00481576,0.321077,20.6666,0.800743,0.434139,0.0,0.0
1228,306.75,124.955,155.474,128.866,101.19,96.9634,0.00446529,0.288672,20.708,0.810752,0.412675,0.0,0.0
1232,307.75,122.913,151.491,129.708,101.19,97.3499,0.00415624,0.260838,20.737,0.800743,0.374236,0.0,0.0
1236,308.75,120.567,148.396,130.674,101.191,96.9919,0.00390935,0.239292,20.7602,0.790734,0.409957,0.0,0.0
1240,309.75,118.288,145.288,131.693,101.199,97.0312,0.00372893,0.221594,20.7802,0.800743,0.406769,0.0,0.0
1244,310.75,115.811,142.028,129.942,101.206,96.8274,0.00359848,0.207097,20.7969,0.820762,0.427804,0.0,0.0
1248,311.75,113.654,138.797,129.637,101.198,97.2017,0.00349763,0.193967,20.8113,0.820762,0.38967,0.0,0.0
1252,312.75,112.343,135.79,131.418,101.224,97.3422,0.00338189,0.182851,20.8231,0.810752,0.378186,0.0,0.0
1256,313.75,110.111,133.452,133.2,101.188,97.2756,0.00326178,0.173498,20.8324,0.800743,0.381388,0.0,0.0
1260,314.75,108.15,130.381,127.165,101.194,97.3646,0.00312404,0.165725,20.8393,0.810752,0.373095,0.0,0.0
1264,315.75,106.264,127.562,132.885,101.194,97.9764,0.00296508,0.159223,20.8447,0.800743,0.312546,0.0,0.0
1268,316.75,104.498,125.181,133.572,101.193,97.6309,0.00284023,0.153702,20.8496,0.800743,0.346597,0.0,0.0
1272,317.75,103.253,122.109,131.852,101.194,97.2894,0.00275533,0.148918,20.8536,0.810752,0.380559,0.0,0.0
1276,318.75,101.089,119.871,128.427,101.195,96.8587,0.00269473,0.144498,20.8572,0.820762,0.423557,0.0,0.0
1280,319.75,99.3416,117.482,128.42,101.187,97.1587,0.00264609,0.140695,20.86,0.820762,0.392944,0.0,0.0
1284,320.75,97.5055,114.513,130.117,101.189,97.3053,0.00260828,0.137474,20.8618,0.830771,0.378558,0.0,0.0
1288,321.75,97.2341,112.739,131.265,101.178,97.1754,0.00257875,0.134785,20.8638,0.820762,0.390394,0.0,0.0
1292,322.75,96.0081,110.814,127.87,101.173,97.2939,0.00257685,0.13247,20.8651,0.820762,0.378176,0.0,0.0
1296,323.75,93.5949,108.066,131.439,101.175,97.3057,0.00260801,0.13048,20.8661,0.830771,0.37716,0.0,0.0
1300,324.75,92.9634,106.637,131.043,101.16,97.2367,0.00264815,0.128674,20.8668,0.830771,0.382625,0.0,0.0
1304,325.75,91.1716,104.596,131.488,101.161,97.3028,0.00268129,0.127035,20.8673,0.820762,0.376122,0.0,0.0
1308,326.75,90.4308,102.58,131.824,101.147,97.1067,0.00271096,0.125505,20.8676,0.820762,0.394315,0.0,0.0
1312,327.75,88.7328,100.9,128.866,101.151,96.8952,0.00274201,0.124235,20.8678,0.800743,0.415756,0.0,0.0
1316,328.75,87.9803,99.1134,130.409,101.141,97.6443,0.00278924,0.123138,20.8679,0.810752,0.34034,0.0,0.0
1320,329.75,87.1264,97.8188,133.312,101.143,97.3215,0.00282811,0.122207,20.868,0.820762,0.372558,0.0,0.0
1324,330.75,86.2958,95.8762,130.439,101.14,97.1092,0.00283785,0.121272,20.8682,0.810752,0.393333,0.0,0.0
1328,331.75,84.0863,94.1243,128.698,101.128,97.0454,0.00282775,0.120443,20.8684,0.810752,0.39852,0.0,0.0
1332,332.75,84.0917,92.8252,131.109,101.138,97.3227,0.00280678,0.119776,20.8685,0.820762,0.371893,0.0,0.0
1336,333.75,82.9366,91.8508,131.495,101.106,97.2387,0.00277182,0.11918,20.8686,0.820762,0.37722,0.0,0.0
1340,334.75,82.1003,90.3532,132.027,101.134,96.7223,0.00273894,0.11864,20.8687,0.820762,0.431404,0.0,0.0
1344,335.75,81.9872,88.8119,131.537,101.104,97.5383,0.00270183,0.118136,20.8687,0.820762,0.347308,0.0,0.0
1348,336.75,80.6116,87.4251,134.418,101.098,97.5728,0.00268964,0.11761,20.8687,0.820762,0.343304,0.0,0.0
1352,337.75,79.8864,85.9259,134.206,101.091,96.7369,0.00269061,0.117017,20.8692,0.820762,0.425865,0.0,0.0
1356,338.75,79.2725,85.0187,131.833,101.093,97.6459,0.0027019,0.116533,20.8696,0.830771,0.335597,0.0,0.0
1360,339.75,78.0205,84.0869,132.955,101.09,97.408,0.00272052,0.116236,20.8693,0.820762,0.358841,0.0,0.0
1364,340.75,77.5879,82.5896,132.574,101.08,97.6086,0.00273415,0.115913,20.8696,0.830771,0.337975,0.0,0.0
1368,341.75,76.797,81.8494,131.432,101.067,97.1798,0.00274632,0.115578,20.8701,0.830771,0.379348,0.0,0.0
1372,342.75,75.6111,80.1404,130.321,101.079,97.3674,0.00276218,0.115258,20.8704,0.830771,0.361825,0.0,0.0
1376,343.75,74.9032,79.1389,129.572,101.061,97.8046,0.0027948,0.115049,20.87,0.830771,0.316776,0.0,0.0
1380,344.75,74.2839,77.9311,130.101,101.068,98.602,0.00281341,0.114886,20.8697,0.830771,0.238902,0.0,0.0
1384,345.75,73.8585,77.3707,132.158,101.066,97.3016,0.00280438,0.114702,20.8694,0.830771,0.367117,0.0,0.0
1388,346.75,73.4874,76.171,131.595,101.065,97.8932,0.00275465,0.114504,20.8692,0.820762,0.308456,0.0,0.0
1392,347.75,72.634,75.2104,131.796,101.069,97.5424,0.00266999,0.114353,20.869,0.830771,0.343524,0.0,0.0
1396,348.75,71.7978,74.4886,131.775,101.052,96.9943,0.00260542,0.114189,20.8689,0.820762,0.396394,0.0,0.0
1400,349.75,71.1242,73.4587,132.678,101.054,98.0848,0.00255006,0.114106,20.8689,0.820762,0.288491,0.0,0.0
1404,350.75,70.3087,72.5435,128.808,101.052,97.4949,0.00254737,0.11407,20.8688,0.84078,0.346605,0.0,0.0
1408,351.75,69.7629,71.9979,129.453,101.051,98.4814,0.00257909,0.113872,20.8688,0.84078,0.249106,0.0,0.0
1412,352.75,69.4531,70.7935,130.079,101.045,98.043,0.00261249,0.113742,20.8688,0.860799,0.291722,0.0,0.0
1416,353.75,69.0948,70.6626,133.187,101.046,97.5797,0.00261601,0.113637,20.8688,0.850789,0.337569,0.0,0.0
1420,354.75,68.5188,69.0439,129.647,101.045,97.1352,0.0025974,0.113524,20.8689,0.850789,0.381657,0.0,0.0
1424,355.75,68.0385,69.2178,134.083,101.046,97.2009,0.0025803,0.113418,20.8691,0.850789,0.375226,0.0,0.0
1428,356.75,68.1264,68.4051,136.563,101.058,98.3328,0.0025713,0.113296,20.8693,0.860799,0.26441,0.0,0.0
1432,357.75,66.6435,66.9046,138.266,101.048,97.5375,0.00259203,0.113236,20.8694,0.850789,0.342026,0.0,0.0
1436,358.75,67.049,66.9375,135.853,101.057,97.2931,0.00263448,0.113164,20.8695,0.84078,0.367109,0.0,0.0
1440,359.75,66.9806,66.3159,135.989,101.047,96.9525,0.00267283,0.113079,20.8695,0.850789,0.400098,0.0,0.0
1444,360.75,66.0286,65.7072,136.673,101.062,97.518,0.00268507,0.112973,20.8696,0.84078,0.345242,0.0,0.0
1448,361.75,65.5699,64.7407,132.558,101.066,97.4725,0.00264864,0.112867,20.8696,0.84078,0.350179,0.0,0.0
1452,362.75,65.0073,64.266,130.811,101.056,98.1851,0.00258363,0.112741,20.8696,0.830771,0.278801,0.0,0.0
1456,363.75,64.8025,63.167,135.673,101.07,98.3077,0.00246709,0.112598,20.8696,0.820762,0.268013,0.0,0.0
1460,364.75,64.2053,62.4492,133.636,101.067,97.2984,0.00234839,0.112487,20.8696,0.830771,0.367594,0.0,0.0
1464,365.75,63.4996,62.3938,133.553,101.063,98.2699,0.00227493,0.112463,20.8694,0.830771,0.271029,0.0,0.0
1468,366.75,62.2235,60.5034,136.298,101.068,97.5692,0.00224002,0.112409,20.8692,0.84078,0.340751,0.0,0.0
1472,367.75,63.1349,61.4987,131.945,101.076,98.8513,0.00221886,0.112369,20.869,0.84078,0.215258,0.0,0.0
1476,368.75,62.6954,60.6888,135.557,101.074,97.7787,0.00221243,0.112367,20.8689,0.830771,0.320551,0.0,0.0
1480,369.75,61.8631,59.5619,133.685,101.079,97.8997,0.00222477,0.112376,20.8689,0.830771,0.309096,0.0,0.0
1484,370.75,61.5276,58.9518,134.561,101.074,98.7011,0.00225055,0.112378,20.8688,0.84078,0.229811,0.0,0.0
1488,371.75,61.5298,59.0768,131.628,101.076,98.4555,0.00228097,0.112415,20.8688,0.830771,0.254028,0.0,0.0
1492,372.75,61.3343,58.793,132.462,101.081,98.9816,0.0023,0.112439,20.8688,0.820762,0.202982,0.0,0.0
1496,373.75,60.7132,58.1492,131.096,101.071,98.3264,0.00231728,0.112494,20.8688,0.820762,0.266253,0.0,0.0
1500,374.75,59.8285,57.5873,134.581,101.067,99.4262,0.00233647,0.112521,20.8688,0.830771,0.158316,0.0,0.0
1504,375.75,60.043,57.1398,131.572,101.075,98.6215,0.00237566,0.112575,20.8688,0.84078,0.237652,0.0,0.0
1508,376.75,59.891,56.989,134.012,101.08,97.9362,0.00240138,0.112682,20.8688,0.860799,0.305642,0.0,0.0
1512,377.75,58.6849,56.0747,136.339,101.08,98.0389,0.00242269,0.112742,20.8681,0.870808,0.295425,0.0,0.0
1516,378.75,59.3522,56.5085,135.165,101.077,98.5874,0.00241228,0.112728,20.8675,0.880817,0.241231,0.0,0.0
1520,379.75,58.7528,55.4137,130.936,101.07,98.5793,0.00237053,0.112664,20.8672,0.870808,0.241327,0.0,0.0
1524,380.75,58.6419,55.2601,132.842,101.074,98.2066,0.00230234,0.112578,20.8669,0.870808,0.278314,0.0,0.0
1528,381.75,58.0049,54.8638,135.227,101.076,97.6885,0.00223345,0.112507,20.8667,0.880817,0.329742,0.0,0.0
1532,382.75,57.9273,54.6782,134.445,101.08,98.5091,0.00218846,0.112403,20.8673,0.860799,0.249154,0.0,0.0
1536,383.75,57.7059,54.2606,132.939,101.085,99.2626,0.00218829,0.112254,20.8678,0.850789,0.175993,0.0,0.0
1540,384.75,57.2354,53.9689,132.11,101.085,98.3913,0.00223522,0.112079,20.8681,0.84078,0.261226,0.0,0.0
1544,385.75,56.003,52.6516,136.483,101.08,98.6467,0.00227433,0.111975,20.8683,0.820762,0.235728,0.0,0.0
1548,386.75,56.7342,53.0193,137.643,101.096,98.9284,0.00232842,0.111977,20.8685,0.850789,0.209655,0.0,0.0
1552,387.75,56.3517,53.0312,133.645,101.087,98.7295,0.00235504,0.111879,20.8688,0.850789,0.22827,0.0,0.0
1556,388.75,56.1353,52.3375,133.333,101.087,98.1461,0.00233468,0.111808,20.8691,0.860799,0.285594,0.0,0.0
1560,389.75,55.2208,51.2756,135.023,101.081,98.0681,0.00229933,0.111696,20.8693,0.830771,0.292697,0.0,0.0
1564,390.75,55.6974,51.7901,133.958,101.091,98.671,0.0022627,0.111608,20.8694,0.820762,0.234388,0.0,0.0
1568,391.75,55.8755,51.8562,134.198,101.09,98.6041,0.00222011,0.11154,20.8694,0.830771,0.240801,0.0,0.0
1572,392.75,55.1915,51.4819,136.312,101.08,98.7311,0.00220172,0.111468,20.8695,0.84078,0.227412,0.0,0.0
1576,393.75,53.5093,50.1509,137.433,101.082,98.8736,0.00220516,0.111413,20.8695,0.850789,0.213695,0.0,0.0
1580,394.75,54.9532,50.5142,134.423,101.095,98.4084,0.00222291,0.111412,20.8696,0.84078,0.260482,0.0,0.0
1584,395.75,54.4935,50.9507,134.374,101.082,99.1176,0.00224021,0.111362,20.8696,0.830771,0.189855,0.0,0.0
1588,396.75,53.5131,49.9681,133.024,101.09,98.2171,0.00224842,0.111403,20.8696,0.830771,0.278829,0.0,0.0
1592,397.75,53.8792,50.0251,135.163,101.087,97.9874,0.00222331,0.111455,20.87,0.820762,0.301251,0.0,0.0
1596,398.75,53.6576,49.7809,135.069,101.088,99.2589,0.00216096,0.11145,20.8707,0.84078,0.176622,0.0,0.0
1600,399.75,53.602,49.5818,132.732,101.089,98.5452,0.00210125,0.111429,20.8711,0.830771,0.246538,0.0,0.0
1604,400.75,53.551,49.232,134.76,101.093,99.129,0.00206428,0.111404,20.8711,0.830771,0.189756,0.0,0.0
1608,401.75,53.3914,48.8268,131.827,101.101,99.4497,0.00207764,0.111481,20.8704,0.84078,0.15925,0.0,0.0
1612,402.75,53.0525,48.543,132.075,101.1,99.2906,0.00214397,0.111531,20.8697,0.860799,0.174701,0.0,0.0
1616,403.75,53.0449,48.5002,135.853,101.113,99.1688,0.00223403,0.111578,20.8693,0.850789,0.18774,0.0,0.0
1620,404.75,52.4915,48.1328,133.399,101.129,99.5569,0.00229923,0.111644,20.869,0.850789,0.151551,0.0,0.0
1624,405.75,52.9187,47.5731,134.298,101.12,99.1676,0.00234118,0.111756,20.8688,0.84078,0.188596,0.0,0.0
1628,406.75,52.2343,47.7257,133.15,101.135,99.8257,0.00235454,0.111885,20.8687,0.850789,0.126057,0.0,0.0
1632,407.75,52.1272,47.2412,135.817,101.131,99.5062,0.00233008,0.111969,20.8686,0.850789,0.156675,0.0,0.0
1636,408.75,51.4545,47.012,137.788,101.125,99.3166,,0.11195,,0.84078,0.174502,0.0,0.0
1640,409.75,51.5269,46.8331,133.695,101.133,100.332,,0.111993,,0.84078,0.0769342,0.0,0.0
1644,410.75,51.5462,46.5601,137.363,101.141,98.5752,,0.112092,,0.830771,0.248485,0.0,0.0
1648,411.75,51.5215,46.2749,137.775,101.144,99.5715,,,,0.830771,0.151529,0.0,0.0
1652,412.75,51.4802,46.4523,134.098,101.15,99.1262,,,,0.830771,0.19547,0.0,0.0
1656,413.75,51.0619,46.0137,134.439,101.152,99.3978,,,,0.830771,0.169237,0.0,0.0
1660,414.75,50.6572,45.7103,132.1875,101.159,100.249,,,,0.830771,0.0874063,0.0,0.0
1664,415.75,50.6632,45.8907,133.953,101.159,99.5309,,,,0.820762,0.156909,0.0,0.0
1668,416.75,50.6046,45.5583,136.889,101.161,99.9414,,,,0.820762,0.117337,0.0,0.0
1672,417.75,49.8084,45.7429,134.083,101.177,99.6333,,,,0.810752,0.14868,0.0,0.0
1676,418.75,50.2385,45.1296,136.735,101.174,100.323,,,,0.820762,0.0816378,0.0,0.0
1679,419.5,50.0572,44.8084,132.16,101.174,99.5581,,,,0.830771,0.155742,0.0,0.0