File: 01_Data/PP/Cone/PP_Cone_HF50Scan_220203_R1.csv
Names,Time,Stack TC,Smoke TC,Exh Press,Smoke Comp,Smoke Meas,CO Meter,CO2 Meter,O2 Meter,Sample Mass,Ext Coeff,Start Test,Flame Verif
Chan Gain,,500,500,1,1,1,1,1,1,1,1,1.0,1.0
Offset,,0,0,0.14021,0,0,0,0,0,0,0,0.0,0.0
Gain,,1,1,25.011,13.3046,13.3037,1,1,1,1.00093,1.10262,1.0,1.0
Units,sec,C,C,Pa,%,%,%,%,%,g,/m,,
Baseline,,29.4126,31.6101,137.855,100.271,103.344,0.00287884,0.113576,20.8644,-870.756,-0.291869,,
3,0.5,26.228,26.8419,136.047,101.337,103.873,0.00295788,0.126149,20.8491,28.1561,-0.238995,0.0,0.0
6,1.25,26.2129,27.9775,142.334,101.307,105.261,0.00293627,0.12579,20.8493,28.1361,-0.370299,0.0,0.0
9,2,26.3274,27.0089,138.092,101.266,104.416,0.00291319,0.125458,20.85,28.1161,-0.296345,0.0,0.0
12,2.75,25.7178,27.3434,135.507,101.244,104.853,0.00285436,0.124901,20.8507,28.1261,-0.338743,0.0,0.0
15,3.5,26.3394,27.8226,139.866,101.212,105.095,0.00277592,0.124336,20.8512,28.1161,-0.364065,0.0,0.0
18,4.25,25.8511,27.3995,140.239,101.178,104.642,0.00270358,0.123652,20.852,28.1161,-0.325574,0.0,0.0
21,5,26.0983,27.7549,136.206,101.137,104.556,0.0026159,0.122878,20.853,28.1261,-0.321575,0.0,0.0
24,5.75,26.2828,28.1305,141.185,101.105,104.979,0.00253975,0.122198,20.8541,28.1161,-0.363735,0.0,0.0
27,6.5,26.3841,28.0783,139.137,101.076,104.157,0.00247901,0.121505,20.8549,28.1161,-0.290412,0.0,0.0
30,7.25,26.4978,27.904,137.22,101.038,104.678,0.00243228,0.120779,20.8557,28.1161,-0.342312,0.0,0.0
33,8,26.49,28.1428,134.341,100.983,103.47,0.00240039,0.119978,20.8567,28.1161,-0.235274,0.0,0.0
36,8.75,26.8457,28.3508,136.897,100.946,104.504,0.00238266,0.119318,20.8575,28.1161,-0.33511,0.0,0.0
39,9.5,26.488,27.8692,140.361,100.922,104.178,0.00236973,0.118621,20.8587,28.1061,-0.307031,0.0,0.0
42,10.25,26.6891,28.3191,139.17,100.888,104.312,0.00238112,0.118114,20.8596,28.0861,-0.322884,0.0,0.0
45,11,26.3662,28.1824,139.613,100.849,103.837,0.00239959,0.11745,20.8606,28.0861,-0.282362,0.0,0.0
48,11.75,26.8315,28.1976,140.757,100.815,103.18,0.00241525,0.116966,20.8619,28.066,-0.224327,0.0,0.0
51,12.5,26.8181,28.2237,135.451,100.801,104.186,0.00241969,0.116527,20.8628,28.076,-0.319503,0.0,0.0
54,13.25,26.7709,28.858,137.768,100.769,103.933,0.00242099,0.116058,20.8635,28.0861,-0.298957,0.0,0.0
57,14,27.3666,28.6722,139.042,100.738,104.421,0.00241863,0.11556,20.8647,28.0861,-0.347343,0.0,0.0
60,14.75,27.266,28.8863,139.083,100.734,104.756,0.00242013,0.115102,20.8655,28.076,-0.378591,0.0,0.0
63,15.5,26.6949,28.2253,139.068,100.697,104.668,0.00242673,0.114697,20.8661,28.076,-0.374155,0.0,0.0
66,16.25,27.5763,28.6605,136.813,100.677,104.479,0.00244204,0.114353,20.8666,28.076,-0.35853,0.0,0.0
69,17,27.6764,28.5001,134.983,100.637,104.196,0.00245196,0.114088,20.8669,28.056,-0.33616,0.0,0.0
72,17.75,27.5746,28.8451,135.525,100.675,103.949,0.00245739,0.11387,20.8671,28.076,-0.30959,0.0,0.0
75,18.5,27.7762,29.2634,138.165,100.745,104.477,0.00245914,0.113643,20.8673,28.0961,-0.35179,0.0,0.0
78,19.25,27.1457,28.263,138.101,100.815,104.307,0.00246042,0.113433,20.8674,28.0861,-0.329364,0.0,0.0
81,20,27.4533,29.0311,137.306,100.857,104.401,0.00246393,0.113256,20.8675,28.076,-0.334047,0.0,0.0
84,20.75,27.5273,29.329,138.412,100.9,104.77,0.0024709,0.113088,20.8676,28.0861,-0.363973,0.0,0.0
87,21.5,27.8102,29.7694,137.266,100.953,103.614,0.0024625,0.11291,20.8676,28.0961,-0.251615,0.0,0.0
90,22.25,27.5061,29.5138,142.686,100.99,104.223,0.00245418,0.112757,20.8676,28.0861,-0.304832,0.0,0.0
93,23,28.0725,29.4703,138.554,101.035,105.087,0.00242711,0.112568,20.8677,28.0861,-0.380288,0.0,0.0
96,23.75,27.4052,29.0927,134.961,101.059,104.175,0.00240608,0.112437,20.8677,28.076,-0.293779,0.0,0.0
99,24.5,27.3864,29.0439,140.122,101.101,104.031,0.00238597,0.112354,20.8677,28.076,-0.276346,0.0,0.0
102,25.25,27.6049,29.5163,139.787,101.135,104.207,0.00236691,0.112319,20.8677,28.066,-0.289452,0.0,0.0
105,26,27.7212,29.9722,140.529,101.149,104.449,0.00233904,0.112287,20.8677,28.056,-0.310527,0.0,0.0
108,26.75,27.7772,29.5934,138.999,101.161,103.897,0.00230894,0.112206,20.8677,28.066,-0.258135,0.0,0.0
111,27.5,27.7071,29.6966,137.66,101.191,103.931,0.00228282,0.112132,20.8677,28.056,-0.258399,0.0,0.0
114,28.25,27.5486,30.1879,140.775,101.202,103.952,0.00227479,0.112052,20.8673,28.056,-0.259316,0.0,0.0
117,29,27.6607,29.3508,139.655,101.199,102.963,0.00228974,0.111956,20.8661,28.046,-0.167088,0.0,0.0
120,29.75,27.5221,29.4756,135.218,101.215,103.221,0.00232819,0.111925,20.8653,28.046,-0.1898,0.0,0.0
123,30.5,28.2793,29.7701,137.235,101.2,103.163,0.00243139,0.112026,20.8647,28.1261,-0.185756,0.0,0.0
126,31.25,27.7342,29.3249,139.497,101.211,101.707,0.00255327,0.112152,20.8643,28.036,-0.0472367,0.0,0.0
129,32,28.1168,29.5447,139.428,101.203,102.851,0.002662,0.112693,20.8631,27.9659,-0.156206,0.0,0.0
132,32.75,28.0024,29.5358,134.877,101.195,102.75,0.00282365,0.114103,20.8605,27.996,-0.147548,0.0,0.0
135,33.5,28.2105,29.8079,135.106,101.198,103.748,0.00300059,0.116405,20.8564,27.976,-0.240684,0.0,0.0
138,34.25,28.1456,30.3309,136.169,101.173,104.047,0.0031706,0.119521,20.8508,27.976,-0.270869,0.0,1.0
141,35,28.3015,30.7437,134.442,101.151,102.827,0.00329454,0.121793,20.8455,27.9559,-0.158922,0.0,1.0
144,35.75,28.758,30.8733,132.589,101.123,103.704,0.00345525,0.128516,20.8364,27.9259,-0.2437,0.0,1.0
147,36.5,28.9585,31.2428,133.544,101.095,102.355,0.00356995,0.136641,20.8235,27.9259,-0.119765,0.0,1.0
150,37.25,28.9014,31.1449,127.728,101.082,101.604,0.00363562,0.143939,20.8074,27.9059,-0.0498493,0.0,1.0
153,38,28.9453,31.9046,133.113,101.04,101.77,0.00365464,0.155634,20.7842,27.8959,-0.0695683,0.0,1.0
156,38.75,29.919,32.3617,132.623,100.993,101.911,0.00363334,0.166332,20.7589,27.8058,-0.0875356,0.0,1.0
159,39.5,29.191,32.2472,129.638,100.955,99.8789,0.00362028,0.177848,20.7369,27.8458,0.103688,0.0,1.0
162,40.25,30.0419,32.7198,130.073,100.916,99.1867,0.00361181,0.191273,20.712,27.7658,0.167181,0.0,0.0
165,41,30.3426,33.3166,124.647,100.876,99.0368,0.00366366,0.204053,20.6881,27.8158,0.177947,0.0,0.0
168,41.75,30.4626,33.662,128.947,100.823,98.6792,0.00370147,0.214644,20.6682,27.7658,0.207919,0.0,0.0
171,42.5,30.8137,33.9454,125.516,100.77,95.2177,0.00387703,0.227127,20.648,27.7558,0.548153,0.0,0.0
174,43.25,31.4729,34.6441,125.532,100.718,95.2623,0.00412272,0.240153,20.6268,27.7357,0.538667,0.0,0.0
177,44,32.0421,35.2488,126.935,100.666,92.7947,0.00442203,0.251322,20.6046,27.6857,0.787481,0.0,0.0
180,44.75,32.0223,35.5861,126.215,100.601,92.4569,0.00475994,0.265254,20.5822,27.6356,0.816509,0.0,0.0
183,45.5,32.9,36.6312,124.414,100.527,92.0773,0.00519491,0.278141,20.5522,27.6056,0.849156,0.0,0.0
186,46.25,34.0464,37.8164,122.096,100.463,89.5772,0.00560586,0.292204,20.5205,27.5255,1.10931,0.0,0.0
189,47,33.8887,38.3106,122.385,100.396,89.759,0.00598835,0.308721,20.4886,27.5055,1.08324,0.0,0.0
192,47.75,34.1525,38.5556,117.484,100.329,87.1879,0.00634057,0.323633,20.4514,27.4455,1.35789,0.0,0.0
195,48.5,35.5554,40.305,123.195,100.322,87.805,0.00666022,0.339417,20.4244,27.3954,1.28893,0.0,0.0
198,49.25,36.0354,40.8678,121.371,100.34,86.7263,0.00700077,0.357232,20.3933,27.3754,1.41029,0.0,0.0
201,50,36.7456,42.2209,114.794,100.349,84.2306,0.00736233,0.376489,20.3662,27.2953,1.69352,0.0,0.0
204,50.75,37.9216,43.4497,117.981,100.358,85.3913,0.00767912,0.393575,20.3388,27.2553,1.56205,0.0,0.0
207,51.5,38.2691,43.9455,113.119,100.361,85.3796,0.00800106,0.411242,20.3069,27.1752,1.56361,0.0,0.0
210,52.25,39.1386,44.9619,114.506,100.363,84.1498,0.00838216,0.427921,20.2686,27.1252,1.70421,0.0,0.0
213,53,40.1047,46.4717,111.117,100.393,83.8904,0.00876799,0.446577,20.2291,27.0751,1.7369,0.0,0.0
216,53.75,40.8175,47.5084,117.588,100.408,80.4508,0.00915634,0.469045,20.1916,27.0451,2.14327,0.0,0.0
219,54.5,41.4791,48.5764,111.986,100.405,80.4207,0.00954382,0.488527,20.1577,26.945,2.14665,0.0,0.0
222,55.25,42.7722,49.8316,114.452,100.429,80.3554,0.00982629,0.508036,20.1219,26.895,2.15682,0.0,0.0
225,56,43.2739,50.614,109.63,100.443,79.7988,0.0101596,0.529368,20.0957,26.8049,2.22542,0.0,0.0
228,56.75,44.4197,52.5409,115.463,100.469,79.5767,0.0106203,0.552319,20.0678,26.6547,2.25487,0.0,0.0
231,57.5,45.732,53.7675,115.099,100.485,78.3831,0.0111102,0.56905,20.0386,26.6147,2.40254,0.0,0.0
234,58.25,45.9338,54.6697,112.796,100.496,77.1436,0.0115998,0.590048,20.0021,26.5046,2.55776,0.0,0.0
237,59,47.3237,56.5344,110.109,100.523,78.407,0.0120406,0.609107,19.9614,26.4746,2.40329,0.0,0.0
240,59.75,48.1776,57.7249,108.073,100.556,78.2284,0.0124381,0.630368,19.9162,26.3545,2.42848,0.0,0.0
243,60.5,48.8618,58.774,110.709,100.568,78.8106,0.0127965,0.651552,19.8713,26.2744,2.3579,0.0,0.0
246,61.25,50.3661,60.192,109.074,100.583,76.2175,0.013137,0.671345,19.8348,26.2143,2.68301,0.0,0.0
249,62,51.0288,61.4708,108.076,100.606,75.0673,0.0134189,0.692093,19.8018,26.1643,2.83223,0.0,0.0
252,62.75,52.9372,63.7176,110.61,100.619,74.7981,0.0137349,0.711333,19.7706,26.0642,2.86823,0.0,0.0
255,63.5,53.2095,64.3718,104.642,100.65,77.172,0.0140639,0.729172,19.7449,25.9741,2.56904,0.0,0.0
258,64.25,54.0682,65.9137,113.861,100.655,75.8967,0.0145302,0.745698,19.7083,25.894,2.73067,0.0,0.0
261,65,54.9229,66.88,110.423,100.679,73.6914,0.0147668,0.763495,19.6862,25.7939,3.01822,0.0,0.0
264,65.75,56.2602,68.5339,110.921,100.715,74.8135,0.0151293,0.778921,19.6606,25.6438,2.87548,0.0,0.0
267,66.5,56.8825,69.5593,104.042,100.718,74.8168,0.0154315,0.799675,19.6243,25.5937,2.87537,0.0,0.0
270,67.25,58.031,71.372,99.7483,100.737,71.97,0.0158336,0.827514,19.5858,25.5237,3.25242,0.0,0.0
273,68,59.4638,72.9471,102.797,100.747,71.7316,0.0162637,0.842445,19.5459,25.4236,3.28547,0.0,0.0
276,68.75,60.4988,74.2609,103.935,100.769,71.8234,0.0166357,0.864262,19.5053,25.3535,3.27517,0.0,0.0
279,69.5,61.7029,76.4034,98.4263,100.776,69.6115,0.0171292,0.889887,19.4661,25.2434,3.57838,0.0,0.0
282,70.25,62.7623,77.8179,99.5827,100.785,71.0553,0.0176712,0.912713,19.4212,24.9932,3.38073,0.0,0.0
285,71,64.0475,79.5238,96.8555,100.794,71.8242,0.018216,0.941392,19.367,24.9031,3.27744,0.0,0.0
288,71.75,65.0622,81.1498,101.257,100.809,69.2132,0.0188201,0.971448,19.3207,24.823,3.63707,0.0,0.0
291,72.5,66.3094,83.0339,95.5717,100.808,68.9457,0.0195421,0.997259,19.264,24.7229,3.67446,0.0,0.0
294,73.25,68.1295,85.1298,90.4516,100.803,67.8418,0.0202687,1.03149,19.2031,24.5728,3.83003,0.0,0.0
297,74,69.4655,87.2685,100.599,100.803,68.6704,0.021,1.06629,19.1328,24.4727,3.7126,0.0,0.0
300,74.75,71.1396,89.5255,101.353,100.796,67.2511,0.0218716,1.09587,19.0607,24.2925,3.91395,0.0,0.0
303,75.5,72.4494,91.282,90.2868,100.792,68.344,0.0225071,1.13401,18.9993,24.2025,3.75764,0.0,0.0
306,76.25,74.1538,93.7559,92.2453,100.769,64.7834,0.0235376,1.17208,18.9372,24.1024,4.27295,0.0,0.0
309,77,75.2772,95.7721,93.1238,100.75,66.9364,0.0246432,1.20933,18.8846,23.9522,3.95491,0.0,0.0
312,77.75,77.0685,98.0457,98.7774,100.749,65.867,0.0256002,1.24526,18.8299,23.8121,4.11056,0.0,0.0
315,78.5,78.359,100.199,91.3752,100.733,63.4997,0.026564,1.28601,18.783,23.662,4.46307,0.0,0.0
318,79.25,80.0685,102.327,95.6251,100.705,65.3811,0.0277217,1.32174,18.7327,23.5018,4.17802,0.0,0.0
321,80,81.8255,104.919,85.9025,100.674,64.9487,0.0289947,1.35809,18.6753,23.3917,4.23923,0.0,0.0
324,80.75,83.1319,107.349,87.4,100.661,64.5244,0.0302158,1.3846,18.5983,23.2015,4.30129,0.0,0.0
327,81.5,85.4381,110,98.2118,100.633,65.1971,0.0314658,1.43026,18.531,23.0314,4.19832,0.0,0.0
330,82.25,86.5966,112.395,83.1036,100.601,62.0206,0.0324773,1.47548,18.4434,22.9313,4.67838,0.0,0.0
333,83,88.4002,115.185,75.7486,100.562,63.5131,0.03354,1.51881,18.3714,22.7011,4.4446,0.0,0.0
336,83.75,90.6291,118.302,87.1741,100.528,61.4567,0.0344534,1.55944,18.3049,22.5309,4.7597,0.0,0.0
339,84.5,91.826,119.684,90.5081,100.498,62.814,0.0354278,1.60377,18.2396,22.3607,4.54553,0.0,0.0
342,85.25,93.561,122.77,80.771,100.473,60.6204,0.0360593,1.64401,18.1893,22.1806,4.88695,0.0,0.0
345,86,95.9158,125.769,89.9219,100.435,58.5132,0.0371386,1.6869,18.1159,22.1105,5.22545,0.0,0.0
348,86.75,97.2265,128.109,77.0981,100.387,59.4312,0.0382301,1.73427,18.0213,21.8803,5.0702,0.0,0.0
351,87.5,98.9342,130.757,84.0561,100.358,59.5749,0.0394912,1.78288,17.9387,21.7001,5.04406,0.0,0.0
354,88.25,101.016,133.796,72.0315,100.32,57.4081,0.0408202,1.81637,17.8554,21.4299,5.3988,0.0,0.0
357,89,102.782,136.821,75.5761,100.269,59.5404,0.0421504,1.86964,17.7606,21.3198,5.04109,0.0,0.0
360,89.75,104.774,139.407,70.9309,100.23,58.3139,0.0433921,1.92293,17.6914,21.0495,5.23869,0.0,0.0
363,90.5,106.352,142.283,86.3635,100.19,57.2843,0.0447624,1.97588,17.6037,20.8794,5.40711,0.0,0.0
366,91.25,108.629,145.506,75.0548,100.152,56.6091,0.046374,2.03801,17.5127,20.7092,5.5181,0.0,0.0
369,92,110.972,149.124,83.6417,100.108,58.0208,0.0479733,2.09461,17.4348,20.479,5.27564,0.0,0.0
372,92.75,112.38,151.919,83.5653,100.053,59.0045,0.0493201,2.15519,17.3325,20.449,5.10769,0.0,0.0
375,93.5,115.217,155.642,75.8738,100.011,59.3301,0.0510411,2.22044,17.2215,20.1987,5.05045,0.0,0.0
378,94.25,117.072,158.243,77.9667,99.9655,58.2445,0.0527479,2.28501,17.1106,19.9285,5.22464,0.0,0.0
381,95,119.313,161.599,69.0761,99.9273,58.659,0.0544109,2.34579,17.0049,19.7683,5.15235,0.0,0.0
384,95.75,121.428,164.958,67.7335,99.8713,58.2676,0.0560099,2.40547,16.8949,19.368,5.21168,0.0,0.0
387,96.5,123.362,168.261,64.5529,99.8453,54.2085,0.0574518,2.45553,16.8042,19.1978,5.90757,0.0,0.0
390,97.25,125.179,171.646,79.1208,99.8051,54.5227,0.0589754,2.51143,16.7202,18.9676,5.84777,0.0,0.0
393,98,127.488,174.964,75.9494,99.7738,58.687,0.0606815,2.57636,16.631,18.8975,5.13287,0.0,0.0
396,98.75,129.21,177.594,60.387,99.7186,59.253,0.0622649,2.63613,16.5354,18.6373,5.03468,0.0,0.0
399,99.5,131.735,182.124,84.6507,99.693,58.9956,0.0635639,2.70098,16.4337,18.3771,5.07431,0.0,0.0
402,100.25,135.044,185.792,70.3538,99.6642,57.398,0.0649285,2.77272,16.3597,18.0467,5.33705,0.0,0.0
405,101,136.6,189.588,74.8213,99.626,56.4853,0.0659232,2.83545,16.2468,17.8966,5.48837,0.0,0.0
408,101.75,138.562,193.127,71.066,99.5944,55.5767,0.0672006,2.90633,16.1382,17.6764,5.64214,0.0,0.0
411,102.5,140.528,195.858,65.1689,99.5729,56.7041,0.0683225,2.97538,16.0338,17.3561,5.44581,0.0,0.0
414,103.25,143.171,199.786,74.0817,99.5457,58.4722,0.0692216,3.03313,15.9337,17.0758,5.14618,0.0,0.0
417,104,144.999,203.84,67.7533,99.5339,56.4467,0.0700333,3.10238,15.8437,16.8857,5.48603,0.0,0.0
420,104.75,147.14,206.866,73.213,99.5107,57.741,0.071022,3.16443,15.7489,16.6254,5.2645,0.0,0.0
423,105.5,149.661,210.985,78.7788,99.4835,53.0027,0.0719644,3.23275,15.6307,16.4453,6.09004,0.0,0.0
426,106.25,151.371,213.824,67.0908,99.4815,55.5531,0.0730551,3.29248,15.5187,16.125,5.63528,0.0,0.0
429,107,153.984,217.595,68.0228,99.4718,56.6875,0.0741129,3.35298,15.4097,15.8847,5.43882,0.0,0.0
432,107.75,155.679,220.98,63.2233,99.4551,54.025,0.074996,3.4153,15.3024,15.6045,5.9025,0.0,0.0
435,108.5,158.064,224.454,69.8905,99.4433,55.2032,0.0760285,3.47636,15.1988,15.4043,5.69269,0.0,0.0
438,109.25,159.174,227.37,63.0836,99.4624,59.3488,0.0770211,3.53431,15.1017,15.0239,4.99417,0.0,0.0
441,110,161.906,231.381,71.1263,99.4547,52.0185,0.0778469,3.59614,15.0126,14.9038,6.26851,0.0,0.0
444,110.75,163.642,234.781,81.7747,99.4539,56.3379,0.0788109,3.65449,14.9285,14.5435,5.49691,0.0,0.0
447,111.5,165.393,236.514,72.1819,99.46,53.9888,0.0798067,3.70269,14.8591,14.3133,5.90945,0.0,0.0
450,112.25,168.215,241.306,67.7129,99.486,56.0732,0.0807699,3.77389,14.7522,13.9429,5.54558,0.0,0.0
453,113,169.035,243.842,68.3243,99.4949,54.3002,0.0818428,3.83928,14.6365,13.6927,5.85721,0.0,0.0
456,113.75,170.766,247.087,65.4536,99.5002,52.9166,0.0827633,3.91002,14.536,13.4124,6.10738,0.0,0.0
459,114.5,173.894,251.514,63.5027,99.5197,52.0892,0.083671,3.98496,14.4217,13.2623,6.2617,0.0,0.0
462,115.25,175.398,253.707,70.8064,99.5408,55.2129,0.084652,4.05043,14.325,12.962,5.70046,0.0,0.0
465,116,177.239,256.038,63.5851,99.5676,55.3453,0.085583,4.10278,14.2308,12.5917,5.6799,0.0,0.0
468,116.75,178.349,258.214,55.9081,99.5879,56.9437,0.0863538,4.17733,14.1314,12.3114,5.40649,0.0,0.0
471,117.5,180.414,262.537,69.1341,99.624,56.2925,0.0872962,4.26235,14.0017,12.1613,5.52125,0.0,0.0
474,118.25,182.498,266.263,49.1126,99.6484,63.6503,0.0882264,4.35458,13.8827,11.5607,4.33546,0.0,0.0
477,119,185.563,271.233,78.6689,99.6711,57.2405,0.0890081,4.45119,13.7238,11.4606,5.3643,0.0,0.0
480,119.75,187.639,275.302,59.6634,99.7052,54.0286,0.0900833,4.5527,13.5689,11.1503,5.92614,0.0,0.0
483,120.5,190.304,279.866,53.764,99.7483,56.5247,0.0912604,4.63995,13.4174,10.6299,5.49349,0.0,0.0
486,121.25,191.42,282.136,45.3214,99.7771,56.4078,0.0925218,4.74006,13.2694,10.3696,5.51631,0.0,0.0
489,122,193.686,285.714,51.1979,99.8185,61.8867,0.0938442,4.83997,13.1148,10.1794,4.62374,0.0,0.0
492,122.75,196.308,290.103,81.4175,99.864,54.8987,0.0954232,4.93511,12.9823,9.84914,5.78701,0.0,0.0
495,123.5,198.216,293.295,54.0434,99.905,57.3529,0.0964141,5.02297,12.8849,9.3787,5.36798,0.0,0.0
498,124.25,200.469,296.427,46.4076,99.9423,55.7935,0.0975588,5.09909,12.7722,9.03839,5.63822,0.0,0.0
501,125,201.734,298.718,52.5603,99.9947,56.3964,0.0996022,5.16808,12.6769,8.76814,5.53933,0.0,0.0
504,125.75,203.354,300.618,53.664,100.032,59.9042,0.101815,5.23263,12.6018,8.47787,4.95936,0.0,0.0
507,126.5,205.313,304.703,69.634,100.075,53.5394,0.103784,5.26562,12.5109,8.16758,6.04993,0.0,0.0
510,127.25,207.161,308.435,60.2893,100.112,56.9518,0.1054,5.34847,12.3949,7.71716,5.45589,0.0,0.0
513,128,208.732,311.411,50.356,100.153,58.5275,0.106502,5.42793,12.2524,7.35683,5.19593,0.0,0.0
516,128.75,210.714,314.968,74.3702,100.194,62.5265,0.107178,5.53208,12.0858,7.10659,4.56054,0.0,0.0
519,129.5,213.088,318.598,54.9273,100.235,56.562,0.107511,5.62331,11.9352,6.86637,5.53419,0.0,0.0
522,130.25,214.925,321.148,48.0792,100.273,65.7197,0.107568,5.70313,11.8085,6.39593,4.08643,0.0,0.0
525,131,217.015,323.695,47.7349,100.318,54.5856,0.10761,5.7729,11.7089,6.09566,5.88615,0.0,0.0
528,131.75,218.108,326.306,46.4748,100.359,55.057,0.10764,5.83649,11.6363,5.85543,5.80701,0.0,0.0
531,132.5,219.979,329.653,57.9292,100.393,60.0633,0.107743,5.88225,11.5834,5.47508,4.96849,0.0,0.0
534,133.25,221.515,331.626,58.6513,100.433,54.3611,0.107852,5.91535,11.5449,5.11475,5.93716,0.0,0.0
537,134,222.925,333.744,71.3896,100.468,53.8354,0.108035,5.9139,11.527,4.88453,6.03452,0.0,0.0
540,134.75,223.282,334.477,58.1055,100.511,51.2025,0.108187,5.91284,11.5468,4.58425,6.52361,0.0,0.0
543,135.5,224.098,335.548,68.1312,100.553,51.1838,0.108267,5.86853,11.61,4.32401,6.53116,0.0,0.0
546,136.25,224.707,335.881,65.9077,100.58,59.0553,0.108258,5.81306,11.7068,4.19389,5.15022,0.0,0.0
549,137,225.482,336.929,63.8416,100.625,54.2138,0.107991,5.75192,11.8085,3.79352,5.9819,0.0,0.0
552,137.75,226.824,337.873,53.7694,100.665,55.7959,0.107796,5.68883,11.8958,3.51326,5.70749,0.0,0.0
555,138.5,226.784,338.319,87.8351,100.709,52.7217,0.106948,5.61684,12.0013,3.15293,6.25985,0.0,0.0
558,139.25,227.883,338.243,75.6082,100.746,54.6214,0.10605,5.54031,12.096,2.99278,5.92103,0.0,0.0
561,140,228.002,338.793,57.9239,100.78,55.3376,0.104915,5.46233,12.2207,2.73254,5.79835,0.0,0.0
564,140.75,228.874,338.691,79.0689,100.819,50.7924,0.103262,5.36697,12.3655,2.46228,6.63103,0.0,0.0
567,141.5,228.814,337.672,57.7979,100.847,53.96,0.101738,5.25854,12.4939,2.16201,6.04856,0.0,0.0
570,142.25,228.406,336.799,69.9684,100.89,49.6739,0.099751,5.14104,12.6984,1.89176,6.85322,0.0,0.0
573,143,228.68,336.22,79.6994,100.907,52.7664,0.09774,5.01536,12.9387,1.74162,6.27071,0.0,0.0
576,143.75,228.453,335.092,67.7778,100.953,56.6915,0.0956052,4.90667,13.1761,1.56145,5.58109,0.0,0.0
579,144.5,227.836,333.763,65.678,100.975,53.1781,0.0937638,4.77083,13.4105,1.2912,6.20204,0.0,0.0
582,145.25,228.123,333.068,65.0277,101.011,50.3361,0.0921535,4.63129,13.5721,1.04097,6.73665,0.0,0.0
585,146,226.941,330.717,66.655,101.043,52.7108,0.0894342,4.4926,13.7588,0.890826,6.29386,0.0,0.0
588,146.75,226.213,328.842,64.3705,101.078,53.9929,0.0874518,4.35777,13.9566,0.680631,6.06476,0.0,0.0
591,147.5,225.961,327.439,82.438,101.096,52.8451,0.0841265,4.20967,14.1591,0.470436,6.27437,0.0,0.0
594,148.25,224.826,324.802,68.6693,101.125,54.9592,0.080793,4.11909,14.3615,0.370344,5.8977,0.0,0.0
597,149,224.45,322.844,77.0294,101.147,56.7967,0.0775151,3.96161,14.5907,0.210195,5.58174,0.0,0.0
600,149.75,223.285,320.764,75.3853,101.168,57.3302,0.0743385,3.82428,14.8595,0.0200186,5.4933,0.0,0.0
603,150.5,222.22,317.93,74.8732,101.201,60.7958,0.0702801,3.66007,15.0989,-0.130121,4.9288,0.0,0.0
606,151.25,220.843,315.129,83.7844,101.224,61.6565,0.0661588,3.49236,15.4089,-0.290269,4.79504,0.0,0.0
609,152,219.131,311.751,74.4366,101.233,62.76,0.0626586,3.33475,15.6709,-0.460427,4.62435,0.0,0.0
612,152.75,217.799,308.365,88.1564,101.258,61.7653,0.0592387,3.16035,15.9235,-0.450418,4.7812,0.0,0.0
615,153.5,215.896,304.711,88.3702,101.277,65.5938,0.0546615,3.00296,16.2325,-0.520483,4.20131,0.0,0.0
618,154.25,213.671,299.919,94.6054,101.297,65.5236,0.0502999,2.83649,16.5787,-0.590548,4.21361,0.0,0.0
621,155,211.16,296.126,101.267,101.308,68.0152,0.0456699,2.657,16.9332,-0.690641,3.85372,0.0,0.0
624,155.75,208.346,291.017,105.843,101.327,72.309,0.0413135,2.50136,17.2352,-0.660613,3.2634,0.0,0.0
627,156.5,204.912,285.424,109.812,101.351,75.5261,0.0377193,2.31357,17.5707,-0.720669,2.8447,0.0,0.0
630,157.25,202.034,280.522,112.624,101.362,82.4771,0.0340292,2.12136,17.8899,-0.720669,1.99415,0.0,0.0
633,158,199.102,274.733,115.378,101.363,88.8269,0.0304659,1.94085,18.1544,-0.720669,1.2769,0.0,0.0
636,158.75,195.467,269.582,116.755,101.372,92.4955,0.027155,1.75252,18.4473,-0.730678,0.886283,0.0,0.0
639,159.5,191.723,263.301,115.197,101.396,95.9505,0.0254627,1.59278,18.597,-0.730678,0.533906,0.0,0.0
642,160.25,188.238,257.62,123.485,101.415,97.7056,0.0222361,1.43795,18.872,-0.730678,0.360403,0.0,0.0
645,161,185.094,252.791,118.591,101.413,99.1883,0.0193834,1.27292,19.1019,-0.730678,0.214536,0.0,0.0
648,161.75,182.098,247.633,123.363,101.417,99.0328,0.0169396,1.13769,19.3198,-0.720669,0.23006,0.0,0.0
651,162.5,178.404,241.62,121.917,101.433,99.3129,0.0149002,1.05068,19.5383,-0.710659,0.204288,0.0,0.0
654,163.25,175.222,237.025,117.757,101.437,99.2825,0.0130778,0.95016,19.7379,-0.720669,0.207681,0.0,0.0
657,164,172.115,232.311,124.945,101.436,99.1789,0.0115756,0.841317,19.9129,-0.710659,0.217616,0.0,0.0
660,164.75,169.468,227.284,120.25,101.448,98.9995,0.0103346,0.748886,20.0612,-0.740687,0.236294,0.0,0.0
663,165.5,166.511,222.698,123.881,101.456,98.9118,0.00930702,0.670639,20.1902,-0.730678,0.245679,0.0,0.0
666,166.25,163.614,218.512,120.387,101.46,99.1302,0.00839437,0.599943,20.2902,-0.730678,0.224652,0.0,0.0
669,167,161.31,213.993,120.217,101.468,99.034,0.00765933,0.540521,20.373,-0.720669,0.234819,0.0,0.0
672,167.75,158.767,209.648,121.172,101.453,99.3081,0.00696739,0.487425,20.4427,-0.730678,0.206659,0.0,0.0
675,168.5,155.798,206.526,125.042,101.461,99.0604,0.00639596,0.445142,20.4975,-0.730678,0.231584,0.0,0.0
678,169.25,153.972,202.343,124.501,101.472,99.2597,0.00595082,0.408203,20.545,-0.710659,0.213185,0.0,0.0
681,170,152.127,198.94,122.513,101.467,98.9776,0.00554459,0.374812,20.5868,-0.70065,0.240254,0.0,0.0
684,170.75,149.693,194.751,121.841,101.466,98.7397,0.00521361,0.345744,20.6242,-0.690641,0.263416,0.0,0.0
687,171.5,147.171,191.652,123.083,101.473,98.7417,0.00489124,0.321183,20.6563,-0.690641,0.263914,0.0,0.0
690,172.25,145.471,188.266,122.283,101.469,99.2508,0.00462413,0.300761,20.6837,-0.690641,0.213784,0.0,0.0
693,173,143.224,184.764,125.812,101.464,99.3235,0.00441572,0.281568,20.7069,-0.690641,0.206241,0.0,0.0
696,173.75,140.97,181.975,121.791,101.459,98.9337,0.00423666,0.264755,20.7282,-0.690641,0.243766,0.0,0.0
699,174.5,139.289,178.842,122.724,101.48,98.7685,0.00408352,0.251296,20.7456,-0.70065,0.261908,0.0,0.0
702,175.25,137.128,175.694,121.891,101.47,99.0088,0.00395303,0.237766,20.7621,-0.690641,0.237472,0.0,0.0
705,176,135.822,173.168,120.186,101.454,98.7348,0.00382978,0.225705,20.776,-0.680631,0.262732,0.0,0.0
708,176.75,133.971,169.871,120.56,101.449,98.6901,0.00373624,0.215975,20.7877,-0.680631,0.266682,0.0,0.0
711,177.5,132.818,167.582,126.786,101.438,98.7161,0.00366972,0.206297,20.7979,-0.680631,0.263051,0.0,0.0
714,178.25,130.58,164.661,126.816,101.445,98.9418,0.00362676,0.19785,20.8066,-0.670622,0.241618,0.0,0.0
717,179,129.584,162.446,127.129,101.436,98.76,0.00358666,0.190482,20.8138,-0.690641,0.258601,0.0,0.0
720,179.75,127.528,159.837,123.33,101.421,99.0263,0.00355743,0.184053,20.8194,-0.690641,0.231121,0.0,0.0
723,180.5,126.329,157.537,127.194,101.428,98.5793,0.00350276,0.178282,20.8249,-0.680631,0.275576,0.0,0.0
726,181.25,124.969,155,124.449,101.424,98.6702,0.00345448,0.17314,20.8294,-0.70065,0.266193,0.0,0.0
729,182,123.28,153.245,122.669,101.412,98.7015,0.00340489,0.168581,20.834,-0.690641,0.262045,0.0,0.0
732,182.75,121.979,150.344,124.37,101.388,98.2728,0.00335646,0.164264,20.8373,-0.690641,0.301863,0.0,0.0
735,183.5,121.283,148.379,125.03,101.38,98.4128,0.00331255,0.160692,20.8402,-0.70065,0.287275,0.0,0.0
738,184.25,119.632,145.849,122.911,101.394,98.7697,0.00327557,0.156834,20.8431,-0.70065,0.253659,0.0,0.0
741,185,117.739,144.577,122.118,101.379,98.4303,0.0032464,0.153338,20.8459,-0.70065,0.285519,0.0,0.0
744,185.75,117.254,142.7,121.683,101.362,98.192,0.00321812,0.150499,20.8483,-0.710659,0.307339,0.0,0.0
747,186.5,115.321,140.371,123.117,101.357,98.5671,0.0031975,0.147734,20.8503,-0.720669,0.269954,0.0,0.0
750,187.25,114.72,138.968,125.78,101.346,98.436,0.00315092,0.145303,20.8522,-0.730678,0.281784,0.0,0.0
753,188,113.759,136.905,126.173,101.34,98.598,0.00307889,0.142936,20.854,-0.740687,0.265299,0.0,0.0
756,188.75,112.373,135.34,124.375,101.321,98.4088,0.00301016,0.141033,20.8557,-0.70065,0.282055,0.0,0.0
759,189.5,111.39,133.325,125.809,101.316,98.1936,0.00290406,0.139013,20.857,-0.730678,0.302762,0.0,0.0
762,190.25,110.757,131.677,123.519,101.292,98.2468,0.0028071,0.137322,20.8579,-0.720669,0.295237,0.0,0.0
765,191,109.573,130.346,123.917,101.295,98.1108,0.00273296,0.135716,20.8585,-0.720669,0.308946,0.0,0.0
768,191.75,109.113,129.077,125.56,101.28,98.6361,0.00268101,0.134186,20.8595,-0.710659,0.255819,0.0,0.0
771,192.5,107.628,127.025,127.321,101.258,98.4737,0.00264313,0.132771,20.861,-0.710659,0.269702,0.0,0.0
774,193.25,106.753,125.221,126.573,101.261,98.3527,0.00268548,0.131492,20.8601,-0.710659,0.281864,0.0,0.0
777,194,105.584,124.089,127.139,101.236,98.1952,0.00274415,0.130244,20.8595,-0.70065,0.294962,0.0,0.0
780,194.75,104.77,123.166,125.118,101.237,98.3885,0.00283445,0.129334,20.859,-0.720669,0.276063,0.0,0.0
783,195.5,103.395,120.976,124.83,101.212,98.084,0.00292482,0.128277,20.8587,-0.730678,0.303599,0.0,0.0
786,196.25,103.519,119.914,123.65,101.204,98.7514,0.00298423,0.127507,20.8587,-0.730678,0.237266,0.0,0.0
789,197,102.544,118.646,123.956,101.202,98.3097,0.00301648,0.12667,20.859,-0.710659,0.280472,0.0,0.0
792,197.75,101.15,117.082,126.13,101.182,97.8879,0.00298042,0.125952,20.8593,-0.720669,0.320161,0.0,0.0
795,198.5,101.321,116.163,122.122,101.168,97.8018,0.00292507,0.125242,20.8595,-0.730678,0.327311,0.0,0.0
798,199.25,99.7783,114.32,124.541,101.151,97.991,0.00283504,0.124489,20.8597,-0.710659,0.307026,0.0,0.0
801,200,99.2489,113.547,125.765,101.15,98.1879,0.00272396,0.123802,20.8602,-0.720669,0.287455,0.0,0.0
804,200.75,98.7331,112.316,124.981,101.136,97.8631,0.00263461,0.123243,20.8608,-0.730678,0.318144,0.0,0.0
807,201.5,97.7115,110.645,124.116,101.115,98.151,0.00255515,0.122639,20.8613,-0.720669,0.287756,0.0,0.0
810,202.25,97.1184,110.067,128.24,101.108,97.8298,0.00250071,0.122033,20.8616,-0.710659,0.318794,0.0,0.0
813,203,96.8299,109.376,127.244,101.087,97.9638,0.00247289,0.121522,20.8617,-0.690641,0.303576,0.0,0.0
816,203.75,95.2948,107.963,125.339,101.08,97.9057,0.00244074,0.120953,20.8626,-0.690641,0.30861,0.0,0.0
819,204.5,95.2181,106.676,125.406,101.063,97.6386,0.00243827,0.120487,20.8632,-0.710659,0.333445,0.0,0.0
822,205.25,94.5813,106.017,128.849,101.051,98.1364,0.00245975,0.120061,20.8636,-0.730678,0.283057,0.0,0.0
825,206,93.7952,104.703,128.592,101.036,97.7356,0.00249759,0.119789,20.8639,-0.720669,0.321195,0.0,0.0
828,206.75,92.765,103.781,122.989,101.03,97.7373,0.00254614,0.119445,20.8641,-0.720669,0.320529,0.0,0.0
831,207.5,92.7189,102.703,122.983,101.02,97.926,0.00258863,0.119109,20.8643,-0.720669,0.300815,0.0,0.0
834,208.25,92.3389,101.886,126.349,101.005,97.8542,0.00263175,0.118802,20.8644,-0.720669,0.306477,0.0,0.0
837,209,91.5159,100.633,125.15,101.001,97.7442,0.00266319,0.118482,20.8645,-0.720669,0.317047,0.0,0.0
840,209.75,90.716,99.8653,126.453,100.994,97.8716,0.00268288,0.118208,20.8646,-0.740687,0.303702,0.0,0.0
843,210.5,91.0204,99.2766,123.205,100.979,97.8822,0.00269171,0.11791,20.8646,-0.720669,0.301259,0.0,0.0
846,211.25,89.3836,98.2974,126.083,100.977,98.5241,0.0026859,0.117624,20.8647,-0.730678,0.237883,0.0,0.0
849,212,89.5629,97.529,125.69,100.961,97.7722,0.00266573,0.117387,20.8647,-0.720669,0.310464,0.0,0.0
852,212.75,88.7398,96.6447,125.696,100.951,97.7381,0.0026352,0.117159,20.8647,-0.730678,0.312865,0.0,0.0
855,213.5,88.4244,95.8024,125.4,100.935,98.0933,0.0025975,0.116969,20.8652,-0.740687,0.276179,0.0,0.0
858,214.25,87.6238,95.0148,123.293,100.917,97.4725,0.00257002,0.116809,20.8657,-0.720669,0.335871,0.0,0.0
861,215,87.4747,94.5381,128.205,100.916,97.7567,0.00252028,0.116655,20.8661,-0.720669,0.307594,0.0,0.0
864,215.75,86.5787,93.4741,124.451,100.904,97.7758,0.00248403,0.116488,20.8664,-0.730678,0.304617,0.0,0.0
867,216.5,86.7682,92.6031,127.065,100.892,97.33,0.00245934,0.116343,20.8663,-0.710659,0.347608,0.0,0.0
870,217.25,85.5898,92.3411,124.465,100.88,98.0072,0.00244257,0.116159,20.8661,-0.710659,0.279455,0.0,0.0
873,218,86.2577,91.7823,128.918,100.869,97.9853,0.00242442,0.116025,20.8659,-0.730678,0.280529,0.0,0.0
876,218.75,85.2132,90.9674,128.628,100.863,98.0129,0.00240018,0.115873,20.8658,-0.710659,0.277221,0.0,0.0
879,219.5,84.3768,90.585,127.483,100.872,97.935,0.00236536,0.115731,20.8657,-0.730678,0.285771,0.0,0.0
882,220.25,83.932,89.6839,125.466,100.841,97.2959,0.00233332,0.115615,20.8657,-0.710659,0.346131,0.0,0.0
885,221,84.0556,89.2145,129.166,100.834,97.7543,0.00231107,0.115448,20.8656,-0.740687,0.300009,0.0,0.0
888,221.75,83.5118,88.9582,128.089,100.836,98.5894,0.00230644,0.115277,20.8656,-0.710659,0.217924,0.0,0.0
891,222.5,82.9683,87.3108,128.818,100.824,97.5529,0.0023229,0.115128,20.8656,-0.70065,0.319021,0.0,0.0
894,223.25,82.7493,87.3053,129.233,100.8,97.2318,0.00236459,0.115019,20.8655,-0.710659,0.348615,0.0,0.0
897,224,81.9699,86.7087,128.844,100.808,97.5111,0.00239821,0.11494,20.8655,-0.710659,0.32157,0.0,0.0
900,224.75,82.1335,86.154,125.08,100.805,97.6191,0.00242823,0.114882,20.8655,-0.710659,0.310591,0.0,0.0
903,225.5,81.3943,85.8136,129.402,100.799,97.4035,0.00243089,0.114804,20.8655,-0.70065,0.331468,0.0,0.0
906,226.25,81.5109,85.1974,123.63,100.787,98.0239,0.00242253,0.114685,20.8655,-0.70065,0.268854,0.0,0.0
909,227,81.1663,84.434,127.204,100.769,97.3788,0.00239879,0.114618,20.8655,-0.710659,0.331006,0.0,0.0
912,227.75,80.1445,83.777,126.772,100.769,97.3869,0.0023745,0.114533,20.8655,-0.730678,0.330199,0.0,0.0
915,228.5,80.3259,83.5724,121.77,100.762,97.2058,0.00236195,0.114409,20.8655,-0.730678,0.347537,0.0,0.0
918,229.25,80.0309,83.1611,123.998,100.751,97.1563,0.00236162,0.114339,20.8655,-0.710659,0.351415,0.0,0.0
921,230,79.8744,82.5965,127.983,100.736,97.1453,0.00236995,0.114219,20.8655,-0.730678,0.351062,0.0,0.0
924,230.75,79.0715,82.1484,126.487,100.732,97.5521,0.00238161,0.114102,20.8655,-0.710659,0.310293,0.0,0.0
927,231.5,79.0661,81.7174,128.32,100.736,96.7174,0.00239341,0.113919,20.8655,-0.70065,0.393724,0.0,0.0
930,232.25,78.7321,81.1969,124.908,100.724,97.2716,0.0024125,0.113793,20.8659,-0.70065,0.337369,0.0,0.0
933,233,78.5746,80.8339,127.33,100.71,97.898,0.00244112,0.113714,20.8665,-0.70065,0.273914,0.0,0.0
936,233.75,78.0203,80.2384,128.292,100.705,96.9939,0.00247406,0.113629,20.8668,-0.690641,0.36315,0.0,0.0
939,234.5,77.141,79.84,126.589,100.711,97.8148,0.002508,0.113533,20.8671,-0.70065,0.282257,0.0,0.0
942,235.25,77.7028,79.1462,124.07,100.706,97.5334,0.00253984,0.113426,20.8673,-0.710659,0.309573,0.0,0.0
945,236,76.9898,78.9274,127.196,100.691,97.5696,0.00257519,0.113329,20.8674,-0.720669,0.304585,0.0,0.0
948,236.75,76.9111,78.0155,128.259,100.687,98.2224,0.00260096,0.113244,20.8675,-0.730678,0.239695,0.0,0.0
951,237.5,76.4597,77.9572,128.6,100.691,97.5416,0.00261729,0.113177,20.8676,-0.730678,0.307402,0.0,0.0
954,238.25,75.9103,77.6673,131.405,100.688,97.9922,0.00262816,0.11305,20.8677,-0.730678,0.262468,0.0,0.0
957,239,76.0935,76.7359,127.492,100.676,97.4198,0.00262833,0.112942,20.8676,-0.730678,0.318004,0.0,0.0
960,239.75,75.7029,76.9538,126.403,100.674,98.4469,0.00261522,0.112839,20.8672,-0.710659,0.216325,0.0,0.0
963,240.5,75.1763,76.3539,126.66,100.672,97.9009,0.00258818,0.112764,20.8669,-0.710659,0.269928,0.0,0.0
966,241.25,75.6267,76.0314,126.818,100.664,97.9378,0.00255866,0.11271,20.8667,-0.740687,0.265538,0.0,0.0
969,242,75.6066,75.8881,128.447,100.653,97.6946,0.00253297,0.112631,20.8665,-0.730678,0.288531,0.0,0.0
972,242.75,74.7122,75.3193,128.631,100.655,97.4916,0.00250201,0.11256,20.8664,-0.730678,0.308805,0.0,0.0
975,243.5,74.36,75.0301,124.239,100.652,97.3256,0.00247821,0.112502,20.8664,-0.750696,0.325059,0.0,0.0
978,244.25,74.6194,74.5475,126.624,100.663,97.0337,0.00246034,0.11246,20.8663,-0.720669,0.355204,0.0,0.0
981,245,73.4064,73.949,128.424,100.662,97.6634,0.00245431,0.112374,20.8663,-0.720669,0.292485,0.0,0.0
984,245.75,73.7656,74.446,126.102,100.668,98.0284,0.00245186,0.112289,20.8662,-0.720669,0.256952,0.0,0.0
987,246.5,72.9682,72.9696,127.492,100.698,98.2423,0.00244987,0.112246,20.8662,-0.720669,0.238828,0.0,0.0
990,247.25,73.2853,73.5668,128.712,100.709,98.2772,0.00245191,0.112187,20.8666,-0.730678,0.236405,0.0,0.0
993,248,72.7991,72.7727,129.257,100.724,97.818,0.0024583,0.112125,20.8671,-0.730678,0.283107,0.0,0.0
996,248.75,72.6608,72.1505,127.719,100.735,98.438,0.00246505,0.112085,20.8675,-0.720669,0.22313,0.0,0.0
999,249.5,72.4722,72.1276,128.432,100.756,97.9419,0.00248835,0.112066,20.8678,-0.730678,0.274027,0.0,0.0
1002,250.25,71.9097,72.1047,127.994,100.775,97.3373,0.00251317,0.112064,20.868,-0.720669,0.335703,0.0,0.0
1005,251,71.7083,71.7728,129.409,100.793,98.0783,0.00255925,0.112063,20.8681,-0.730678,0.264033,0.0,0.0
1008,251.75,71.7653,71.1523,126.978,100.799,97.7015,0.00260388,0.112034,20.868,-0.740687,0.301921,0.0,0.0
1011,252.5,71.9303,71.1194,128.423,100.823,98.1786,0.00263983,0.112002,20.8675,-0.730678,0.25707,0.0,0.0
1014,253.25,71.5095,70.6985,128.973,100.829,98.0434,0.00266383,0.111939,20.8671,-0.70065,0.270983,0.0,0.0
1017,254,71.0942,70.0633,128.623,100.852,98.522,0.00265858,0.111886,20.8669,-0.710659,0.226097,0.0,0.0
1020,254.75,70.3198,69.7156,128.223,100.848,98.6922,0.00264637,0.111835,20.8667,-0.710659,0.208983,0.0,0.0
1023,255.5,71.0113,70.1035,128.898,100.871,97.7174,0.00262312,0.111837,20.8672,-0.70065,0.307209,0.0,0.0
1026,256.25,70.2878,69.5516,130.095,100.892,98.0998,0.00260863,0.111866,20.8675,-0.720669,0.271414,0.0,0.0
1029,257,70.1969,69.8801,127.691,100.903,97.2342,0.00259911,0.111877,20.8678,-0.710659,0.358185,0.0,0.0
1032,257.75,70.1081,69.5391,128.46,100.903,97.5253,0.00261665,0.111848,20.868,-0.710659,0.329272,0.0,0.0
1035,258.5,69.6801,69.0246,126.372,100.922,98.4372,0.0026391,0.111834,20.8681,-0.710659,0.241087,0.0,0.0
1038,259.25,69.8318,68.6966,126.596,100.926,98.4778,0.00266376,0.111836,20.8682,-0.710659,0.237487,0.0,0.0
1041,260,69.8371,68.9673,124.117,100.94,99.0535,0.00267952,0.111824,20.8683,-0.720669,0.182432,0.0,0.0
1044,260.75,69.7683,68.2884,128.249,100.95,98.2285,0.00265603,0.111809,20.8683,-0.730678,0.264336,0.0,0.0
1047,261.5,69.3559,68.4157,133.596,100.951,97.952,0.00263891,0.111802,20.8684,-0.720669,0.291715,0.0,0.0
1050,262.25,68.7097,68.0041,127.851,100.973,97.9707,0.00257498,0.111807,20.8682,-0.710659,0.291933,0.0,0.0
1053,263,68.5972,68.0662,126.561,100.974,98.5797,0.00250643,0.111831,20.8677,-0.720669,0.232074,0.0,0.0
1056,263.75,68.6728,67.4142,130.069,100.993,98.4993,0.00243077,0.111873,20.8674,-0.720669,0.241832,0.0,0.0
1059,264.5,68.3573,66.9667,127.009,101.006,99.0766,0.00235886,0.111904,20.8672,-0.710659,0.186512,0.0,0.0
1062,265.25,68.236,67.0404,125.806,101.007,97.967,0.00229654,0.111946,20.8664,-0.720669,0.29556,0.0,0.0
1065,266,67.9744,66.8565,128.491,101.029,98.7068,0.00225477,0.11199,20.8658,-0.710659,0.224902,0.0,0.0
1068,266.75,67.8429,66.7675,127.486,101.035,98.3312,0.00223425,0.112028,20.8653,-0.710659,0.262315,0.0,0.0
1071,267.5,67.304,66.5528,129.729,101.041,98.9642,0.00223361,0.112056,20.865,-0.710659,0.20084,0.0,0.0
1074,268.25,67.3121,66.0195,128.513,101.045,98.5996,0.00226456,0.112083,20.8648,-0.720669,0.236927,0.0,0.0
1077,269,66.9779,66.4967,126.709,101.056,98.4343,0.00231652,0.112115,20.8646,-0.730678,0.254276,0.0,0.0
1080,269.75,67.5121,66.1462,127.248,101.054,99.2313,0.00236693,0.112166,20.8645,-0.720669,0.17601,0.0,0.0
1083,270.5,66.8038,65.605,128.004,101.062,97.4628,,0.112188,,-0.720669,0.350759,0.0,0.0
1086,271.25,66.7861,65.6078,130.614,101.075,98.5046,,0.112192,,-0.720669,0.249127,0.0,0.0
1089,272,66.8891,65.1018,131.604,101.085,98.6743,,0.112214,,-0.710659,0.233487,0.0,0.0
1092,272.75,66.7517,65.2564,130.731,101.085,98.1258,,0.112189,,-0.730678,0.287401,0.0,0.0
1095,273.5,65.9639,64.8763,127.918,101.087,99.1582,,,,-0.740687,0.186322,0.0,0.0
1098,274.25,66.1676,64.7338,128.649,101.098,98.5748,,,,-0.710659,0.244446,0.0,0.0
1101,275,66.2626,64.5485,128.483,101.11,98.3909,,,,-0.730678,0.263674,0.0,0.0
1104,275.75,66.166,63.8984,125.582,101.11,98.1558,,,,-0.750696,0.286848,0.0,0.0
1107,276.5,65.4973,64.2292,127.944,101.119,98.1299,,,,-0.740687,0.290264,0.0,0.0
1110,277.25,65.8419,63.8986,130.174,101.124,98.8529,,,,-0.740687,0.219683,0.0,0.0
1113,278,65.6036,64.0536,127.804,101.127,98.4583,,,,-0.720669,0.258643,0.0,0.0
1116,278.75,65.1578,63.3111,129.097,101.144,98.8472,,,,-0.730678,0.222142,0.0,0.0
1119,279.5,65.6052,63.1435,129.27,101.137,98.3726,,,,-0.720669,0.268033,0.0,0.0
1122,280.25,65.1862,63.0943,127.485,101.128,99.559,,,,-0.730678,0.151236,0.0,0.0
1125,281,64.9457,63.2751,126.726,101.147,98.9573,,,,-0.730678,0.211693,0.0,0.0
1126,281.25,64.4337,63.2402,129.552,101.14,99.1083,,,,-0.730678,0.196282,0.0,0.0