File: 01_Data/PP/Cone/PP_Cone_HF50Scan_220203_R3.csv
Names,Time,Stack TC,Smoke TC,Exh Press,Smoke Comp,Smoke Meas,CO Meter,CO2 Meter,O2 Meter,Sample Mass,Ext Coeff,Start Test,Flame Verif
Chan Gain,,500,500,1,1,1,1,1,1,1,1,1.0,1.0
Offset,,0,0,0.14021,0,0,0,0,0,0,0,0.0,0.0
Gain,,1,1,25.011,13.3046,13.3037,1,1,1,1.00093,1.10262,1.0,1.0
Units,sec,C,C,Pa,%,%,%,%,%,g,/m,,
Baseline,,33.7104,35.3397,135.805,100.858,101.741,0.00260003,0.115433,20.8773,-871.182,-0.0840867,,
3,0.5,30.776,32.0763,135.505,100.6,102.118,0.00248025,0.123916,20.8649,27.4755,-0.144881,0.0,0.0
6,1.25,30.7573,32.421,134.066,100.631,101.734,0.00253256,0.123863,20.8655,27.6857,-0.105468,0.0,0.0
9,2,30.2093,31.537,137.249,100.66,102.135,0.00259277,0.123819,20.866,27.5355,-0.140758,0.0,0.0
12,2.75,30.7561,31.7095,136.337,100.68,102.511,0.0026563,0.123759,20.8663,27.6557,-0.174345,0.0,0.0
15,3.5,31.0285,32.3074,137.649,100.727,101.926,0.00271933,0.123704,20.8665,27.5656,-0.114465,0.0,0.0
18,4.25,30.7632,31.8066,137.8,100.768,101.583,0.00277956,0.123608,20.8667,27.6456,-0.0779177,0.0,0.0
21,5,30.616,32.0663,137.242,100.813,101.271,0.00283574,0.12353,20.8667,27.5856,-0.0438975,0.0,0.0
24,5.75,30.6571,32.218,136.023,100.838,102.167,0.00288453,0.123497,20.8666,27.6356,-0.126722,0.0,0.0
27,6.5,31.283,32.3111,134.858,100.866,101.996,0.00292451,0.123492,20.8665,27.6156,-0.107803,0.0,0.0
30,7.25,31.1133,32.3562,136.686,100.902,101.968,0.00296104,0.12343,20.8667,27.5956,-0.101681,0.0,0.0
33,8,31.5566,32.6549,136.266,100.944,101.942,0.00299469,0.123285,20.8672,27.5756,-0.0951693,0.0,0.0
36,8.75,30.7984,32.5166,135.702,100.96,102.553,0.00302585,0.123102,20.8682,27.5856,-0.151413,0.0,0.0
39,9.5,31.4075,32.1294,139.119,100.989,102.88,0.00304331,0.122953,20.8689,27.5856,-0.179465,0.0,0.0
42,10.25,31.1802,32.652,133.771,101.007,102.856,0.00304764,0.12282,20.8695,27.5856,-0.175425,0.0,0.0
45,11,31.7763,32.6554,135.961,101.024,102.35,0.00302478,0.122586,20.8699,27.6156,-0.126183,0.0,0.0
48,11.75,31.4983,32.7991,134.519,101.033,102.63,0.00298822,0.122387,20.8695,27.6056,-0.151687,0.0,0.0
51,12.5,31.1951,32.4855,133.824,101.038,102.796,0.00294192,0.122231,20.8693,27.5756,-0.166857,0.0,0.0
54,13.25,31.7347,32.5944,135.78,101.052,102.581,0.0028998,0.122117,20.8691,27.5956,-0.145269,0.0,0.0
57,14,31.7132,32.4438,133.38,101.037,102.414,0.00284702,0.12202,20.8689,27.5956,-0.130999,0.0,0.0
60,14.75,31.2168,32.8268,135.49,101.028,102.191,0.00279912,0.12198,20.8688,27.5756,-0.110626,0.0,0.0
63,15.5,31.3705,32.7133,134.586,101.01,102.271,0.00275775,0.122013,20.8688,27.5756,-0.120058,0.0,0.0
66,16.25,31.6167,32.9758,137.362,101.009,103.15,0.00271656,0.122105,20.8693,27.5756,-0.202832,0.0,0.0
69,17,32.1545,33.2357,135.29,100.99,101.113,0.0026708,0.122202,20.8697,27.5756,-0.011717,0.0,0.0
72,17.75,31.8833,33.1296,135.399,100.972,102.63,0.00261783,0.122273,20.87,27.5756,-0.157518,0.0,0.0
75,18.5,31.5494,32.9939,137.793,100.938,102.336,0.00256055,0.122363,20.8702,27.5656,-0.132968,0.0,0.0
78,19.25,31.8967,32.8192,133.356,100.923,102.081,0.00250115,0.122429,20.8703,27.5956,-0.110318,0.0,0.0
81,20,31.5455,33.2823,137.084,100.894,103.311,0.00245611,0.122478,20.8704,27.5756,-0.228944,0.0,0.0
84,20.75,32.0372,32.8456,137.237,100.853,101.884,0.00242328,0.122454,20.8705,27.5856,-0.0982997,0.0,0.0
87,21.5,31.7873,33.4355,138.81,100.802,101.622,0.00244476,0.122456,20.8706,27.5956,-0.0783158,0.0,0.0
90,22.25,31.003,33.0584,132.674,100.764,101.895,0.00247074,0.122458,20.8706,27.5856,-0.107911,0.0,0.0
93,23,31.483,33.412,140.614,100.734,102.03,0.00250733,0.122459,20.8707,27.6256,-0.123659,0.0,0.0
96,23.75,31.6411,33.2593,134.584,100.684,102.269,0.00254099,0.122474,20.8707,27.5856,-0.15106,0.0,0.0
99,24.5,31.5325,32.9096,134.57,100.629,102.636,0.00256043,0.12249,20.8707,27.5956,-0.190976,0.0,0.0
102,25.25,31.6433,33.1073,135.7,100.59,102.418,0.00256586,0.122385,20.8707,27.5956,-0.174194,0.0,0.0
105,26,31.5587,33.1201,136.61,100.549,101.268,0.00256282,0.122225,20.8709,27.5856,-0.0688633,0.0,0.0
108,26.75,31.4514,32.7565,135.492,100.498,101.049,0.00256674,0.122073,20.8711,27.5856,-0.0529013,0.0,0.0
111,27.5,31.8353,33.0112,134.118,100.443,100.865,0.00257221,0.121807,20.8712,27.5756,-0.0405583,0.0,0.0
114,28.25,32.0512,32.6121,132.642,100.38,100.419,0.00261817,0.1216,20.8713,27.5756,-0.00373934,0.0,0.0
117,29,31.9404,33.188,133.708,100.349,100.82,0.00266395,0.121428,20.8714,27.5656,-0.0452719,0.0,0.0
120,29.75,32.0803,33.5737,132.387,100.288,99.7433,0.00271831,0.121278,20.8715,27.5856,0.0527041,0.0,0.0
123,30.5,32.3241,33.748,134.664,100.225,99.358,0.00276575,0.121141,20.8713,27.5756,0.084067,0.0,0.0
126,31.25,31.6018,33.6635,134.338,100.183,98.2269,0.00283542,0.12103,20.8707,27.5756,0.190692,0.0,0.0
129,32,32.2701,34.0464,133.062,100.138,98.6394,0.00291165,0.120968,20.8697,27.5556,0.145848,0.0,0.0
132,32.75,32.0804,33.3953,137.802,100.086,99.5728,0.00300756,0.12124,20.8659,27.3854,0.0496946,0.0,0.0
135,33.5,31.9993,32.8631,134.074,100.032,99.1883,0.00309347,0.121473,20.8586,27.5456,0.0818927,0.0,0.0
138,34.25,31.9755,33.6789,134.046,99.9943,99.8058,0.00316292,0.122652,20.8477,27.5756,0.0182521,0.0,1.0
141,35,32.1809,33.3532,131.975,99.9371,100.454,0.00320707,0.125116,20.8364,27.5255,-0.0498782,0.0,1.0
144,35.75,32.4522,33.768,133.564,99.9034,100.213,0.00322819,0.128308,20.8222,27.4555,-0.0299709,0.0,1.0
147,36.5,32.512,34.1724,129.747,99.8851,100.058,0.00322238,0.132135,20.806,27.5155,-0.0167209,0.0,1.0
150,37.25,32.764,34.1932,129.225,99.8356,100.165,0.00322184,0.137522,20.7916,27.4455,-0.0318355,0.0,1.0
153,38,32.4989,34.2918,124.659,99.8193,99.6897,0.00322301,0.142558,20.7746,27.4455,0.0125677,0.0,1.0
156,38.75,32.7311,34.556,127.493,99.7836,99.1664,0.00325709,0.149456,20.7548,27.3954,0.0600141,0.0,1.0
159,39.5,32.8675,35.1338,124.762,99.7649,98.4429,0.00331425,0.157283,20.7324,27.3654,0.129026,0.0,0.0
162,40.25,33.7614,35.4774,129.087,99.7446,98.0828,0.00338696,0.165423,20.7054,27.3354,0.162505,0.0,0.0
165,41,33.8774,36.0807,123.119,99.7377,96.7669,0.00350854,0.171356,20.6783,27.3354,0.29247,0.0,0.0
168,41.75,34.2887,36.2851,130.558,99.7576,96.8944,0.00359718,0.181428,20.6553,27.2953,0.281666,0.0,0.0
171,42.5,34.5794,36.4521,124.681,99.7617,94.4515,0.00380983,0.191593,20.6298,27.3153,0.529035,0.0,0.0
174,43.25,34.8024,37.3288,126.474,99.7539,93.6379,0.00401897,0.201654,20.6075,27.2553,0.611965,0.0,0.0
177,44,35.6758,38.1516,123.98,99.7738,91.083,0.00426399,0.211461,20.5825,27.2153,0.881467,0.0,0.0
180,44.75,35.7412,38.3343,121.873,99.7994,90.9791,0.00462697,0.222476,20.5564,27.1752,0.89499,0.0,0.0
183,45.5,36.5584,39.912,124.841,99.8169,91.446,0.00489159,0.232153,20.5339,27.1051,0.847172,0.0,0.0
186,46.25,36.9816,39.5679,118.52,99.8514,87.7786,0.00531601,0.245035,20.5026,27.1051,1.2464,0.0,0.0
189,47,37.3957,40.8338,117.626,99.8818,86.801,0.0057969,0.25808,20.4694,27.0751,1.35768,0.0,0.0
192,47.75,38.2386,41.6574,115.986,99.9314,87.3328,0.00626682,0.269148,20.4357,27.0351,1.30339,0.0,0.0
195,48.5,38.464,41.8331,116.251,99.976,85.8992,0.00666028,0.283883,20.4025,26.995,1.4678,0.0,0.0
198,49.25,39.0013,42.5761,112.591,100.021,83.2546,0.00710095,0.298599,20.3722,26.895,1.77462,0.0,0.0
201,50,40.1707,44.1293,112.158,100.068,84.2582,0.00754237,0.311021,20.3399,26.8649,1.66327,0.0,0.0
204,50.75,40.7963,44.4458,119.559,100.138,82.8031,0.00795754,0.326406,20.3026,26.8349,1.83847,0.0,0.0
207,51.5,41.275,45.7621,115.684,100.195,82.8104,0.00836676,0.340377,20.2699,26.7448,1.84315,0.0,0.0
210,52.25,42.6276,47.3013,114.475,100.258,82.9464,0.00876406,0.355272,20.2366,26.7148,1.83339,0.0,0.0
213,53,42.9722,47.9265,111.689,100.322,82.3456,0.00914529,0.373505,20.1792,26.6147,1.90985,0.0,0.0
216,53.75,43.9633,48.7608,118.519,100.395,83.0768,0.00954869,0.389184,20.129,26.5446,1.83139,0.0,0.0
219,54.5,44.7688,50.4993,112.288,100.471,79.8856,0.00992968,0.404696,20.0788,26.4846,2.21755,0.0,0.0
222,55.25,45.0938,50.5334,111.636,100.54,78.2511,0.0102445,0.42152,20.0379,26.4145,2.42419,0.0,0.0
225,56,46.0704,51.8381,110.331,100.601,79.9656,0.0106124,0.438828,20.0032,26.3344,2.22033,0.0,0.0
228,56.75,46.8202,52.9568,109.852,100.684,77.9381,0.0109836,0.458789,19.9697,26.2343,2.47673,0.0,0.0
231,57.5,47.8443,54.7934,104.858,100.752,78.0875,0.0113293,0.478029,19.9314,26.2043,2.4648,0.0,0.0
234,58.25,49.4923,56.366,106.274,100.821,77.5053,0.0117008,0.497952,19.8948,26.1242,2.54373,0.0,0.0
237,59,50.4545,57.236,111.816,100.875,76.6438,0.012062,0.51499,19.8579,26.0041,2.65706,0.0,0.0
240,59.75,51.3214,58.7392,105.825,100.95,80.035,0.012432,0.537209,19.82,25.9241,2.24545,0.0,0.0
243,60.5,52.1638,59.958,108.025,101.035,77.6247,0.0128182,0.555994,19.7882,25.824,2.54935,0.0,0.0
246,61.25,53.9754,61.0758,104.057,101.084,75.33,0.0130997,0.574111,19.7579,25.7439,2.84432,0.0,0.0
249,62,54.3478,62.8405,108.211,101.139,75.6535,0.0136388,0.594336,19.7303,25.7439,2.80811,0.0,0.0
252,62.75,55.2227,64.0032,104.971,101.191,76.4051,0.0140318,0.61414,19.7079,25.5637,2.71751,0.0,0.0
255,63.5,56.6675,65.3193,108.56,101.264,71.717,0.0146223,0.630736,19.6814,25.5237,3.33686,0.0,0.0
258,64.25,57.3499,67.2743,97.7203,101.307,72.0556,0.0151842,0.651656,19.6504,25.4236,3.29541,0.0,0.0
261,65,58.4508,68.1548,104.509,101.365,72.2148,0.015719,0.670668,19.6152,25.3535,3.27965,0.0,0.0
264,65.75,59.3733,69.6306,97.299,101.401,70.836,0.0162276,0.69243,19.562,25.2434,3.46951,0.0,0.0
267,66.5,60.6918,71.4992,99.443,101.445,73.0893,0.0167556,0.715487,19.5158,25.1033,3.1709,0.0,0.0
270,67.25,61.5718,72.5911,103.138,101.487,71.0146,0.0172809,0.738833,19.4695,25.0232,3.4534,0.0,0.0
273,68,62.8728,74.1406,101.931,101.524,71.0508,0.017789,0.764544,19.4155,24.9131,3.452,0.0,0.0
276,68.75,63.9541,75.933,104.235,101.562,68.4167,0.0183646,0.786705,19.363,24.833,3.82099,0.0,0.0
279,69.5,65.0129,77.2646,111.609,101.579,71.1953,0.0188968,0.808706,19.3191,24.7329,3.4376,0.0,0.0
282,70.25,66.2804,79.0037,102.678,101.609,67.9222,0.0194774,0.833493,19.262,24.6028,3.89563,0.0,0.0
285,71,67.5784,80.9776,97.8836,101.626,69.3277,0.0201497,0.859108,19.2064,24.4727,3.69915,0.0,0.0
288,71.75,68.8045,82.8088,92.8422,101.643,70.4617,0.0207351,0.884306,19.1522,24.2825,3.54381,0.0,0.0
291,72.5,69.9346,84.4566,95.793,101.661,70.391,0.0211483,0.915665,19.1154,24.2225,3.55522,0.0,0.0
294,73.25,71.6856,86.7136,96.8265,101.662,67.4687,0.0218617,0.94322,19.0641,24.0723,3.96549,0.0,0.0
297,74,72.1057,87.6489,93.7581,101.694,66.2645,0.0226289,0.971334,19.0117,23.9622,4.14269,0.0,0.0
300,74.75,74.0582,89.86,97.4241,101.669,67.0862,0.0234386,1.00257,18.9529,23.8621,4.02113,0.0,0.0
303,75.5,75.5429,91.824,92.5163,101.666,65.0352,0.0246674,1.02387,18.8876,23.742,4.32119,0.0,0.0
306,76.25,76.5464,93.9936,90.6043,101.669,66.2434,0.0251129,1.0553,18.8304,23.6119,4.14342,0.0,0.0
309,77,78.1694,96.0017,96.8937,101.658,66.8154,0.0261464,1.09215,18.766,23.4317,4.05917,0.0,0.0
312,77.75,79.7711,98.1446,81.2893,101.636,66.4123,0.0270423,1.12881,18.701,23.2616,4.11562,0.0,0.0
315,78.5,80.9225,99.9367,102.136,101.62,64.7083,0.0279389,1.1597,18.6393,23.1315,4.36551,0.0,0.0
318,79.25,83.2863,102.827,85.0568,101.603,66.6206,0.0289565,1.193,18.5809,23.0113,4.08217,0.0,0.0
321,80,84.7376,104.784,90.4089,101.577,63.7481,0.0299819,1.22187,18.5246,22.9113,4.50605,0.0,0.0
324,80.75,86.0168,106.756,83.4432,101.551,62.3316,0.0313438,1.26047,18.4326,22.7411,4.72084,0.0,0.0
327,81.5,87.7555,108.964,92.9254,101.51,62.5756,0.0319537,1.29776,18.3853,22.4809,4.67915,0.0,0.0
330,82.25,88.8993,110.979,85.5987,101.489,62.3877,0.0330557,1.33427,18.3099,22.4108,4.70627,0.0,0.0
333,83,90.9271,114.055,83.3982,101.46,59.3053,0.0338591,1.37015,18.2462,22.2506,5.19363,0.0,0.0
336,83.75,92.5225,116.337,87.5474,101.425,61.5383,0.0351683,1.41932,18.1998,22.1506,4.83277,0.0,0.0
339,84.5,94.5405,119.017,74.6381,101.379,64.3742,0.0361228,1.44524,18.1444,21.8803,4.3926,0.0,0.0
342,85.25,95.9755,121.375,88.3099,101.341,61.79,0.0374243,1.48253,18.0836,21.7101,4.78523,0.0,0.0
345,86,97.4719,123.334,80.5474,101.332,62.1867,0.0386313,1.53112,18.02,21.52,4.72249,0.0,0.0
348,86.75,99.4004,126.398,89.1502,101.274,60.6066,0.0401178,1.56654,17.9494,21.4499,4.96589,0.0,0.0
351,87.5,101.712,129.655,79.3925,101.23,60.4921,0.0415289,1.59237,17.8704,21.1997,4.98003,0.0,0.0
354,88.25,103.307,132.289,85.401,101.202,58.8989,0.0426973,1.64562,17.7831,21.0295,5.23545,0.0,0.0
357,89,105.09,134.987,79.868,101.157,62.1355,0.0439806,1.69809,17.6701,20.8093,4.71377,0.0,0.0
360,89.75,106.996,138.124,78.1408,101.126,60.1169,0.0451681,1.74874,17.5797,20.6692,5.03026,0.0,0.0
363,90.5,109.096,141.004,77.1882,101.082,59.9026,0.0461412,1.7969,17.5003,20.3989,5.06054,0.0,0.0
366,91.25,110.901,143.502,66.4458,101.046,59.2505,0.0475316,1.84604,17.4142,20.2788,5.16293,0.0,0.0
369,92,112.067,145.885,76.5104,101.015,57.7394,0.0487334,1.89509,17.3396,20.0386,5.40985,0.0,0.0
372,92.75,114.472,149,92.3583,100.982,59.0581,0.0499314,1.94322,17.2494,19.9185,5.1883,0.0,0.0
375,93.5,116.54,152.08,78.4827,100.946,58.0484,0.051394,1.99808,17.1499,19.7383,5.35167,0.0,0.0
378,94.25,118.161,154.691,71.2804,100.912,58.0865,0.0526987,2.0465,17.042,19.5481,5.34208,0.0,0.0
381,95,120.619,158.132,86.7833,100.9,60.3605,0.0540576,2.10921,16.9273,19.3079,4.96945,0.0,0.0
384,95.75,122.778,161.65,66.268,100.877,55.7651,0.055572,2.17143,16.8074,19.0377,5.73322,0.0,0.0
387,96.5,123.498,163.335,66.2199,100.863,57.2709,0.0570909,2.22383,16.702,18.7574,5.47411,0.0,0.0
390,97.25,126.907,167.893,72.2399,100.841,58.6724,0.058375,2.28905,16.5943,18.6273,5.23817,0.0,0.0
393,98,128.489,170.51,70.55,100.929,57.0456,0.060129,2.3536,16.4859,18.4371,5.51858,0.0,0.0
396,98.75,130.431,173.443,75.08,100.995,57.1296,0.0616799,2.41734,16.3942,18.1869,5.51068,0.0,0.0
399,99.5,132.642,176.818,75.5166,101.061,58.0013,0.0632759,2.47993,16.2766,17.9667,5.37056,0.0,0.0
402,100.25,133.128,178.424,77.3324,101.104,56.5397,0.0649777,2.55768,16.1533,17.8365,5.62145,0.0,0.0
405,101,137.31,184.07,72.3139,101.168,62.6333,0.0665272,2.61436,16.0298,17.5763,4.63761,0.0,0.0
408,101.75,139.979,188.335,73.9618,101.205,57.6197,0.0677886,2.69232,15.9098,17.256,5.44812,0.0,0.0
411,102.5,141.846,191.383,71.2881,101.25,56.7236,0.0691327,2.76712,15.7916,17.0258,5.60401,0.0,0.0
414,103.25,144.254,195.207,62.6554,101.276,57.4126,0.0705135,2.83842,15.6795,16.8256,5.48976,0.0,0.0
417,104,146.174,198.375,62.1311,101.298,58.3281,0.0715201,2.906,15.5868,16.5053,5.33888,0.0,0.0
420,104.75,148.508,202.18,70.0538,101.332,56.1033,0.0729056,2.98088,15.4849,16.4152,5.71821,0.0,0.0
423,105.5,150.65,205.578,80.8008,101.353,63.6856,0.0740704,3.05551,15.3961,16.0449,4.49414,0.0,0.0
426,106.25,153.005,209.615,67.9251,101.367,60.3297,0.0751841,3.11846,15.2894,15.8447,5.01913,0.0,0.0
429,107,155.52,213.588,67.819,101.359,56.6103,0.0763274,3.19378,15.2,15.6145,5.63374,0.0,0.0
432,107.75,157.464,216.793,73.4848,101.379,50.4205,0.0771609,3.24869,15.1151,15.3342,6.75567,0.0,0.0
435,108.5,159.583,220.415,64.2064,101.378,58.659,0.0782145,3.32338,15.0069,15.0339,5.29176,0.0,0.0
438,109.25,161.579,223.799,58.4788,101.369,58.4682,0.0793217,3.39716,14.9076,14.6736,5.32242,0.0,0.0
441,110,163.272,226.655,76.7264,101.362,58.6663,0.0804741,3.45919,14.8005,14.5635,5.28904,0.0,0.0
444,110.75,165.356,230.495,58.9513,101.356,57.629,0.081304,3.53388,14.7039,14.3333,5.46097,0.0,0.0
447,111.5,168.407,234.52,62.9684,101.342,61.0142,0.0826057,3.60089,14.5924,14.063,4.9076,0.0,0.0
450,112.25,170.345,238.23,73.4168,101.323,57.3639,0.0841411,3.67962,14.4761,13.8128,5.50247,0.0,0.0
453,113,172.181,241.087,57.6338,101.291,57.1049,0.0858698,3.76328,14.3561,13.4024,5.54314,0.0,0.0
456,113.75,174.325,244.589,71.5316,101.274,56.5454,0.0875936,3.80604,14.2314,13.2123,5.63674,0.0,0.0
459,114.5,176.289,248.208,74.7739,101.239,59.1466,0.0890478,3.8903,14.1026,12.932,5.19844,0.0,0.0
462,115.25,179.535,252.561,81.8174,101.193,57.2409,0.090861,3.98035,13.9524,12.4916,5.51082,0.0,0.0
465,116,180.716,255.102,38.0398,101.158,62.1644,0.0926998,4.07005,13.8189,12.2614,4.70932,0.0,0.0
468,116.75,182.871,258.567,60.8068,101.1,54.761,0.0942608,4.15569,13.6728,11.831,5.93026,0.0,0.0
471,117.5,184.228,260.644,67.7831,101.069,58.1186,0.0961039,4.25919,13.4803,11.5707,5.35175,0.0,0.0
474,118.25,186.333,264.526,69.3959,101.024,59.2562,0.0977648,4.33463,13.3401,11.2705,5.15995,0.0,0.0
477,119,188.057,267.401,71.0141,100.967,58.9196,0.0995181,4.4461,13.1338,10.9201,5.2096,0.0,0.0
480,119.75,190.669,271.84,67.3702,100.923,51.7615,0.101116,4.56458,12.9241,10.6299,6.45819,0.0,0.0
483,120.5,193.2,275.711,59.842,100.849,55.8625,0.10247,4.66682,12.7373,10.5798,5.71361,0.0,0.0
486,121.25,195.001,279.307,56.9881,100.788,62.7177,0.10355,4.78425,12.5866,10.0794,4.58818,0.0,0.0
489,122,197.356,283.469,60.3045,100.721,58.1868,0.104223,4.89461,12.4661,9.68899,5.30705,0.0,0.0
492,122.75,200.167,287.43,69.9562,100.651,55.0391,0.104462,4.98563,12.338,9.46879,5.83825,0.0,0.0
495,123.5,201.372,289.189,53.4938,100.585,61.5883,0.10435,5.09163,12.1833,9.11846,4.74448,0.0,0.0
498,124.25,203.405,292.838,67.6373,100.521,58.9261,0.103959,5.19437,12.0367,8.82819,5.16569,0.0,0.0
501,125,206.321,297.549,70.3073,100.471,59.9221,0.103675,5.29047,11.9298,8.47787,4.99874,0.0,0.0
504,125.75,208.618,301.324,64.3178,100.465,60.1628,0.10302,5.37819,11.8518,8.27768,4.95941,0.0,0.0
507,126.5,211.166,305.586,57.9987,100.472,56.1897,0.102695,5.45978,11.795,7.91735,5.62088,0.0,0.0
510,127.25,212.94,308.617,50.1308,100.484,59.6293,0.102718,5.51926,11.7536,7.48695,5.0474,0.0,0.0
513,128,214.374,311.366,43.7766,100.49,65.3153,0.103068,5.57475,11.7391,7.18667,4.16706,0.0,0.0
516,128.75,216.435,313.687,50.8483,100.509,54.4598,0.103926,5.61616,11.7518,6.92643,5.92693,0.0,0.0
519,129.5,217.554,315.749,48.5043,100.518,56.2636,0.104745,5.64797,11.771,6.55608,5.61262,0.0,0.0
522,130.25,219.418,317.908,53.7129,100.528,54.6506,0.105425,5.66817,11.7905,6.34589,5.89494,0.0,0.0
525,131,219.917,318.9,56.4317,100.55,58.8271,0.10584,5.67842,11.8256,5.90548,5.18474,0.0,0.0
528,131.75,221.305,321.368,53.3259,100.557,58.255,0.106006,5.68399,11.8705,5.67527,5.27991,0.0,0.0
531,132.5,223.057,323.632,42.1332,100.58,56.3115,0.105754,5.67341,11.9274,5.37499,5.61036,0.0,0.0
534,133.25,224.151,325.093,68.2342,100.591,58.6123,0.105411,5.6657,12.0104,5.09473,5.2241,0.0,0.0
537,134,225.162,326.333,69.9088,100.616,49.5408,0.104764,5.61947,12.1355,4.80446,6.85283,0.0,0.0
540,134.75,225.75,326.944,54.9296,100.627,54.016,0.10407,5.57431,12.2787,4.49417,6.01739,0.0,0.0
543,135.5,226.094,327.216,54.1029,100.642,58.1133,0.10347,5.5218,12.4251,4.17387,5.31163,0.0,0.0
546,136.25,226.776,328.136,55.715,100.663,50.6041,0.102734,5.45724,12.6326,3.78351,6.65192,0.0,0.0
549,137,227.584,328.575,62.4669,100.68,51.9503,0.101959,5.39141,12.7218,3.65339,6.39968,0.0,0.0
552,137.75,227.386,328.096,71.9704,100.677,55.3156,0.101127,5.33046,12.8289,3.42318,5.79228,0.0,0.0
555,138.5,229.134,329.45,62.5165,100.707,55.2003,0.100241,5.27397,12.919,3.14292,5.81531,0.0,0.0
558,139.25,228.785,328.939,58.2551,100.728,57.1962,0.0993499,5.22765,12.9846,2.8026,5.47376,0.0,0.0
561,140,229.577,329.897,45.9282,100.749,58.4893,0.0982821,5.17388,13.0789,2.63244,5.25955,0.0,0.0
564,140.75,230.383,330.384,60.9884,100.76,54.6616,0.0971375,5.11287,13.1682,2.28212,5.91528,0.0,0.0
567,141.5,230.065,329.786,67.0252,100.773,51.8578,0.0959366,5.05698,13.2685,2.13198,6.42586,0.0,0.0
570,142.25,230.521,329.868,54.5433,100.807,54.2219,0.0947012,4.99672,13.3957,1.81168,5.99788,0.0,0.0
573,143,230.419,329.457,79.3597,100.812,55.545,0.0931613,4.92714,13.5421,1.7216,5.76519,0.0,0.0
576,143.75,230.186,328.539,63.0813,100.846,56.7305,0.0915222,4.8655,13.698,1.41131,5.56417,0.0,0.0
579,144.5,230.396,328.544,71.0614,100.863,52.4806,0.0897659,4.78456,13.8568,1.17109,6.319,0.0,0.0
582,145.25,230.401,327.885,65.9161,100.889,54.6291,0.087902,4.71107,14.0491,0.940873,5.93341,0.0,0.0
585,146,230.219,327.002,75.2899,100.894,55.2446,0.0865432,4.63274,14.1892,0.750696,5.82556,0.0,0.0
588,146.75,229.834,325.905,68.0442,100.91,54.3088,0.0839784,4.53964,14.381,0.480446,5.99228,0.0,0.0
591,147.5,229.694,324.972,60.361,100.923,56.2267,0.0813543,4.44157,14.5549,0.250232,5.65785,0.0,0.0
594,148.25,230.012,324.189,68.67,100.942,53.1565,0.0786399,4.3572,14.7398,0.180167,6.20277,0.0,0.0
597,149,228.594,321.854,82.854,100.969,54.3587,0.0758405,4.23436,14.983,-0.0100093,5.98903,0.0,0.0
600,149.75,228.201,320.229,81.6969,100.97,56.2031,0.0724781,4.1201,15.2632,-0.130121,5.66637,0.0,0.0
603,150.5,226.802,318.012,84.4179,100.973,56.981,0.0689954,3.99456,15.5113,-0.320297,5.53377,0.0,0.0
606,151.25,225.771,315.453,77.0523,100.987,57.2023,0.0660168,3.86291,15.8138,-0.480446,5.49761,0.0,0.0
609,152,225.011,313.505,80.1848,101.005,60.1125,0.0620301,3.70973,16.1148,-0.600557,5.01932,0.0,0.0
612,152.75,223.36,310.549,75.7746,101.005,61.6081,0.0599925,3.5602,16.2926,-0.770715,4.78169,0.0,0.0
615,153.5,221.896,307.613,83.2776,101.013,63.8395,0.0556372,3.41564,16.4981,-0.84078,4.43835,0.0,0.0
618,154.25,219.756,303.838,82.5326,101.021,62.7924,0.0524621,3.25884,16.7558,-0.890826,4.599,0.0,0.0
621,155,217.961,300.315,92.2965,101.039,63.7372,0.0480329,3.12261,16.9938,-0.970901,4.45631,0.0,0.0
624,155.75,215.783,296.492,104.088,101.027,62.9134,0.044192,3.00185,17.2532,-1.04097,4.58101,0.0,0.0
627,156.5,213.203,292.065,99.33,101.03,71.3561,0.0393106,2.86234,17.572,-1.15107,3.36334,0.0,0.0
630,157.25,210.15,287.39,104.426,101.042,76.0835,0.0364402,2.72066,17.8739,-1.13105,2.74401,0.0,0.0
633,158,207.042,282.393,108.195,101.048,83.4649,0.032648,2.54901,18.2126,-1.13105,1.84897,0.0,0.0
636,158.75,204.514,277.757,112.72,101.042,89.2398,0.0290697,2.35815,18.6125,-1.14106,1.20139,0.0,0.0
639,159.5,199.147,270.8,117.395,101.042,93.9976,0.025514,2.17864,18.9593,-1.15107,0.698957,0.0,0.0
642,160.25,196.962,266.618,119.25,101.04,97.4064,0.0229218,2.03057,19.2358,-1.17109,0.354262,0.0,0.0
645,161,193.634,261.239,119.813,101.044,98.7181,0.0200599,1.86172,19.4853,-1.14106,0.225227,0.0,0.0
648,161.75,190.05,256.077,120.339,101.039,98.76,0.0175814,1.72308,19.7026,-1.13105,0.220703,0.0,0.0
651,162.5,186.517,250.857,119.156,101.032,98.6633,0.0154811,1.59542,19.8868,-1.13105,0.229432,0.0,0.0
654,163.25,182.924,245.614,119.516,101.033,98.4814,0.0137338,1.46138,20.0465,-1.14106,0.247434,0.0,0.0
657,164,180.588,241.391,122.192,101.041,98.6142,0.0122132,1.35058,20.1809,-1.15107,0.235104,0.0,0.0
660,164.75,177.157,236.121,119.291,101.034,98.1879,0.0109636,1.24743,20.2917,-1.14106,0.276384,0.0,0.0
663,165.5,174.435,231.714,120.651,101.018,98.9857,0.00993386,1.15357,20.3812,-1.13105,0.196561,0.0,0.0
666,166.25,171.544,227.745,116.816,101.023,98.6759,0.0090827,1.07017,20.4551,-1.12104,0.227383,0.0,0.0
669,167,168.386,223.524,121.154,101.024,98.8424,0.00840098,0.990985,20.5091,-1.11103,0.211195,0.0,0.0
672,167.75,166.141,219.204,122.308,100.998,99.2236,0.00779933,0.922366,20.5559,-1.11103,0.171436,0.0,0.0
675,168.5,163.417,214.813,121.529,100.992,98.6191,0.00729088,0.861717,20.5924,-1.10102,0.229961,0.0,0.0
678,169.25,160.986,211.208,120.167,100.991,98.6426,0.00686814,0.806455,20.6229,-1.11103,0.227575,0.0,0.0
681,170,158.292,208.14,118.908,100.992,98.0275,0.00652184,0.755024,20.6496,-1.13105,0.28819,0.0,0.0
684,170.75,156.648,204.052,123.904,100.977,98.2793,0.00621615,0.711731,20.673,-1.13105,0.261946,0.0,0.0
687,171.5,154.088,200.561,121.547,100.977,98.3779,0.00595725,0.670252,20.6931,-1.13105,0.252242,0.0,0.0
690,172.25,152.022,197.182,122.086,100.964,98.1526,0.00575315,0.630458,20.7101,-1.13105,0.273176,0.0,0.0
693,173,149.948,194.182,118.642,100.963,98.1031,0.0055496,0.595556,20.7248,-1.14106,0.27798,0.0,0.0
696,173.75,147.708,190.268,124.328,100.948,98.2281,0.00538815,0.564855,20.7364,-1.10102,0.264221,0.0,0.0
699,174.5,145.77,186.78,121.405,100.935,98.1802,0.00524813,0.537778,20.7463,-1.11103,0.267654,0.0,0.0
702,175.25,142.715,182.975,120.874,100.921,98.4969,0.00513189,0.5128,20.7549,-1.09101,0.235185,0.0,0.0
705,176,141.541,181.219,121.251,100.918,98.4002,0.00504096,0.489741,20.7617,-1.13105,0.244328,0.0,0.0
708,176.75,139.541,178.355,119.642,100.916,97.9078,0.00497202,0.468457,20.7679,-1.09101,0.292662,0.0,0.0
711,177.5,137.94,175.013,119.838,100.899,97.8712,0.00489574,0.450483,20.7746,-1.09101,0.294639,0.0,0.0
714,178.25,136.639,172.564,119.901,100.89,98.3759,0.00482904,0.431403,20.7819,-1.10102,0.244115,0.0,0.0
717,179,134.688,169.354,124.894,100.88,98.436,0.00472212,0.414464,20.7881,-1.10102,0.237198,0.0,0.0
720,179.75,132.885,166.212,123.565,100.862,98.2175,0.00461944,0.402115,20.7935,-1.09101,0.257009,0.0,0.0
723,180.5,131.494,165.395,122.299,100.859,98.0377,0.00453403,0.386575,20.7982,-1.09101,0.274426,0.0,0.0
726,181.25,129.939,162.19,123.082,100.84,97.7109,0.00446683,0.371592,20.8025,-1.081,0.304853,0.0,0.0
729,182,128.609,160.067,123.172,100.845,98.1343,0.00441247,0.359022,20.806,-1.081,0.263574,0.0,0.0
732,182.75,127.707,158.473,122.439,100.813,97.7892,0.00436728,0.347041,20.8095,-1.10102,0.294569,0.0,0.0
735,183.5,125.585,155.499,122.803,100.819,97.9886,0.00429555,0.335628,20.8137,-1.10102,0.275419,0.0,0.0
738,184.25,124.425,153.75,125.701,100.776,97.8363,0.00421239,0.326166,20.8173,-1.11103,0.286288,0.0,0.0
741,185,123.324,151.656,121.954,100.764,97.622,0.00411847,0.315811,20.82,-1.11103,0.306412,0.0,0.0
744,185.75,122.174,150.096,117.931,100.758,97.6889,0.00401557,0.307133,20.8232,-1.11103,0.299232,0.0,0.0
747,186.5,119.575,146.78,120.101,100.737,97.9333,0.00387201,0.298876,20.8264,-1.11103,0.27296,0.0,0.0
750,187.25,120.011,146.257,124.123,100.714,97.7129,0.00376735,0.290571,20.8291,-1.13105,0.292612,0.0,0.0
753,188,118.431,143.997,126.216,100.719,97.8302,0.0036033,0.283059,20.8315,-1.14106,0.281472,0.0,0.0
756,188.75,117.45,142.066,124.605,100.693,97.6703,0.00345298,0.276182,20.8334,-1.13105,0.294845,0.0,0.0
759,189.5,116.002,140.059,121.267,100.676,97.3913,0.0033303,0.269837,20.8355,-1.13105,0.320866,0.0,0.0
762,190.25,115.24,138.757,122.401,100.656,97.5574,0.0032251,0.263047,20.8378,-1.13105,0.3024,0.0,0.0
765,191,114.303,137.12,124.301,100.65,97.7799,0.00316069,0.257226,20.8402,-1.12104,0.279859,0.0,0.0
768,191.75,113.016,135.303,124.072,100.62,97.4332,0.00312479,0.251491,20.8423,-1.13105,0.31129,0.0,0.0
771,192.5,111.831,133.931,124.171,100.617,97.7218,0.00310857,0.245928,20.8438,-1.12104,0.282405,0.0,0.0
774,193.25,110.526,132.295,121.579,100.59,97.6626,0.00310044,0.24062,20.8454,-1.13105,0.285657,0.0,0.0
777,194,110.262,130.558,123.189,100.576,97.108,0.00309608,0.235616,20.8473,-1.13105,0.33941,0.0,0.0
780,194.75,108.96,129.111,121.178,100.566,97.2302,0.00308675,0.230471,20.8492,-1.13105,0.32631,0.0,0.0
783,195.5,108.59,127.549,123.059,100.542,97.7738,0.00307217,0.226169,20.8514,-1.13105,0.270038,0.0,0.0
786,196.25,107.176,125.919,123.072,100.525,97.3816,0.00305269,0.222092,20.8536,-1.15107,0.307273,0.0,0.0
789,197,106.872,124.984,121.903,100.52,97.596,0.00302096,0.217903,20.8556,-1.12104,0.285497,0.0,0.0
792,197.75,106.144,123.398,124.785,100.498,97.3179,0.00299719,0.21433,20.8573,-1.13105,0.311026,0.0,0.0
795,198.5,105.117,122.261,125.81,100.48,97.4112,0.00297876,0.210245,20.8598,-1.12104,0.300031,0.0,0.0
798,199.25,103.938,120.862,124.217,100.47,96.9017,0.00297233,0.206827,20.8616,-1.14106,0.349739,0.0,0.0
801,200,102.811,119.388,123.924,100.437,97.0024,0.00296764,0.203586,20.8629,-1.13105,0.336568,0.0,0.0
804,200.75,102.523,118.548,121.13,100.433,97.1348,0.00298142,0.200118,20.8632,-1.12104,0.322989,0.0,0.0
807,201.5,101.145,117.004,126.361,100.417,96.9707,0.0029988,0.196889,20.8623,-1.13105,0.337809,0.0,0.0
810,202.25,101.116,116.474,124.843,100.396,97.1299,0.00302899,0.194236,20.8626,-1.12104,0.319914,0.0,0.0
813,203,100.001,114.662,120.529,100.376,97.0065,0.00305101,0.191739,20.8631,-1.11103,0.330218,0.0,0.0
816,203.75,99.5754,113.438,124.221,100.356,96.8388,0.00306706,0.188955,20.8635,-1.10102,0.345033,0.0,0.0
819,204.5,99.0515,112.637,125.459,100.346,96.8668,0.00304896,0.186243,20.8643,-1.11103,0.341297,0.0,0.0
822,205.25,97.9657,111.024,123.577,100.327,97.6577,0.00300875,0.183602,20.8652,-1.12104,0.260849,0.0,0.0
825,206,97.7372,110.582,122.263,100.302,96.907,0.00296017,0.181037,20.8663,-1.13105,0.333095,0.0,0.0
828,206.75,96.9892,109.548,122.569,100.299,97.1258,0.0029115,0.178601,20.8671,-1.13105,0.310965,0.0,0.0
831,207.5,96.3167,107.821,122.969,100.275,96.7036,0.00287111,0.176316,20.8681,-1.12104,0.350795,0.0,0.0
834,208.25,95.535,107.507,121.265,100.255,96.8851,0.00283957,0.174192,20.869,-1.13105,0.330663,0.0,0.0
837,209,95.1932,106.352,122.779,100.224,96.8059,0.00280433,0.172121,20.8697,-1.13105,0.335631,0.0,0.0
840,209.75,94.4076,105.07,123.263,100.217,96.8453,0.00277006,0.170129,20.8702,-1.14106,0.33103,0.0,0.0
843,210.5,93.8805,104.55,122.534,100.198,96.5164,0.00274141,0.168233,20.8706,-1.14106,0.362049,0.0,0.0
846,211.25,92.9905,104.14,123.998,100.177,97.0195,0.00271703,0.166372,20.8713,-1.15107,0.309771,0.0,0.0
849,212,93.2118,103.129,120.918,100.156,96.5038,0.0027103,0.164553,20.872,-1.15107,0.359233,0.0,0.0
852,212.75,92.1325,102.416,122.384,100.14,96.2785,0.00271655,0.162783,20.8725,-1.1811,0.380393,0.0,0.0
855,213.5,91.8198,101.326,122.172,100.131,96.9013,0.00273215,0.161129,20.8735,-1.15107,0.317087,0.0,0.0
858,214.25,91.7406,100.873,126.527,100.112,96.7515,0.00274002,0.159583,20.8747,-1.15107,0.330248,0.0,0.0
861,215,90.1888,98.9182,124.959,100.09,96.8388,0.00274576,0.15814,20.8757,-1.13105,0.319407,0.0,0.0
864,215.75,89.4568,98.2314,124.895,100.071,96.769,0.00273405,0.156629,20.8763,-1.13105,0.3245,0.0,0.0
867,216.5,89.2164,98.1234,122.209,100.066,96.5128,0.00271571,0.155206,20.8767,-1.12104,0.349669,0.0,0.0
870,217.25,89.2723,97.4976,123.592,100.048,96.7462,0.00269234,0.154031,20.8769,-1.11103,0.324536,0.0,0.0
873,218,88.8246,96.9939,128.895,100.013,96.5217,0.00266538,0.152555,20.8771,-1.11103,0.343711,0.0,0.0
876,218.75,88.5119,96.2216,123.546,100.002,96.4137,0.00263873,0.151288,20.8775,-1.11103,0.353439,0.0,0.0
879,219.5,87.1042,94.8041,126.52,99.9866,96.4389,0.00262175,0.150038,20.8784,-1.11103,0.349421,0.0,0.0
882,220.25,87.4743,94.0869,126.948,99.9789,96.1048,0.002613,0.148748,20.8794,-1.13105,0.382244,0.0,0.0
885,221,86.5833,94.2169,124.607,99.9553,96.775,0.00261104,0.147544,20.8802,-1.13105,0.31274,0.0,0.0
888,221.75,86.7663,93.1871,125.755,99.9452,96.6269,0.0026096,0.146553,20.8808,-1.13105,0.326579,0.0,0.0
891,222.5,86.2015,92.6088,127.393,99.9399,96.5721,0.00261555,0.145512,20.8812,-1.13105,0.331556,0.0,0.0
894,223.25,85.7292,91.5861,125.117,99.9241,96.4925,0.00261989,0.144531,20.8815,-1.13105,0.337997,0.0,0.0
897,224,85.5423,91.5023,126.273,99.9151,96.2773,0.00261256,0.143721,20.881,-1.14106,0.358726,0.0,0.0
900,224.75,85.1855,91.2728,125.558,99.8977,96.162,0.00258921,0.142734,20.8803,-1.15107,0.368625,0.0,0.0
903,225.5,83.8609,90.1049,128.43,99.8839,96.391,0.00254141,0.142015,20.8798,-1.15107,0.344285,0.0,0.0
906,226.25,84.4516,89.6227,127.45,99.8827,96.5116,0.00245592,0.141129,20.8797,-1.15107,0.332074,0.0,0.0
909,227,84.189,88.7965,122.534,99.8741,96.274,0.00236424,0.140329,20.8796,-1.15107,0.355082,0.0,0.0
912,227.75,83.5757,88.5309,126.413,99.8555,96.5477,0.00227911,0.139451,20.8795,-1.13105,0.32582,0.0,0.0
915,228.5,83.5237,88.2876,126.038,99.8425,96.2249,0.00220715,0.138602,20.8801,-1.12104,0.35695,0.0,0.0
918,229.25,82.7553,87.5931,126.02,99.851,96.0698,0.00215469,0.137895,20.8806,-1.12104,0.373378,0.0,0.0
921,230,82.988,86.7387,126.054,99.8323,96.2667,0.00211644,0.137123,20.8809,-1.14106,0.351765,0.0,0.0
924,230.75,82.4021,86.2579,122.927,99.8169,96.0499,0.00208856,0.136322,20.8811,-1.15107,0.372077,0.0,0.0
927,231.5,81.6646,85.6301,127.474,99.8088,96.4222,0.00207431,0.135637,20.8812,-1.14106,0.333874,0.0,0.0
930,232.25,81.4736,85.2951,125.197,99.8031,96.0292,0.00206134,0.134963,20.8814,-1.13105,0.372824,0.0,0.0
933,233,81.493,84.9456,126.964,99.8015,96.4722,0.00206931,0.134263,20.8815,-1.14106,0.328156,0.0,0.0
936,233.75,80.8699,84.1636,126.49,99.799,96.1405,0.00209836,0.133665,20.8815,-1.13105,0.361232,0.0,0.0
939,234.5,80.4037,84.0964,128.619,99.7803,96.1571,0.00212945,0.133263,20.8816,-1.12104,0.357748,0.0,0.0
942,235.25,80.5535,83.4535,129.51,99.7803,96.1928,0.00219128,0.13271,20.8816,-1.12104,0.354155,0.0,0.0
945,236,79.6226,83.0682,125.438,99.7783,96.1555,0.00225306,0.132158,20.8816,-1.13105,0.357715,0.0,0.0
948,236.75,79.2103,82.5088,127.1,99.7645,95.7698,0.00234878,0.131578,20.8817,-1.13105,0.39525,0.0,0.0
951,237.5,79.5107,82.1371,127.347,99.7649,96.2192,0.00243696,0.131059,20.8817,-1.14106,0.350006,0.0,0.0
954,238.25,79.0582,81.3939,127.168,99.7645,96.5956,0.0025123,0.130639,20.8817,-1.12104,0.312209,0.0,0.0
957,239,79.0884,81.2612,125.915,99.773,96.3488,0.00257275,0.130194,20.8817,-1.14106,0.337784,0.0,0.0
960,239.75,78.6205,80.1711,124.643,99.7487,96.7917,0.00260283,0.129812,20.8821,-1.12104,0.291058,0.0,0.0
963,240.5,77.8239,80.2413,126.697,99.7336,96.6321,0.00260758,0.129355,20.8824,-1.12104,0.305558,0.0,0.0
966,241.25,77.9735,80.0404,123.835,99.7434,95.7312,0.00259534,0.128904,20.8822,-1.14106,0.3971,0.0,0.0
969,242,77.5123,79.6157,123.586,99.7401,96.0918,0.00257208,0.128493,20.8821,-1.15107,0.360428,0.0,0.0
972,242.75,77.3665,78.5223,124.065,99.7369,96.4941,0.00254352,0.128114,20.882,-1.15107,0.3197,0.0,0.0
975,243.5,77.2461,78.5485,127.473,99.7239,96.3041,0.00250285,0.127763,20.8819,-1.16108,0.337504,0.0,0.0
978,244.25,76.804,78.2516,121.79,99.7227,96.0102,0.00244352,0.12737,20.8819,-1.12104,0.366952,0.0,0.0
981,245,76.7851,77.9951,127.717,99.7308,95.9667,0.00237702,0.127003,20.8818,-1.11103,0.372117,0.0,0.0
984,245.75,76.9471,77.7654,124.43,99.7247,96.5676,0.00231863,0.1266,20.8818,-1.13105,0.311156,0.0,0.0
987,246.5,75.7766,76.809,127.506,99.7178,96.0625,0.00226706,0.126291,20.8818,-1.13105,0.361205,0.0,0.0
990,247.25,76.0875,76.4321,124.088,99.7255,95.5124,0.0022299,0.126061,20.881,-1.13105,0.417501,0.0,0.0
993,248,75.5361,75.9497,125.9,99.7162,96.1003,0.00219726,0.125795,20.8801,-1.11103,0.357247,0.0,0.0
996,248.75,74.7343,75.7403,123.975,99.7243,96.084,0.0021988,0.1256,20.8794,-1.12104,0.359668,0.0,0.0
999,249.5,75.4915,76.3919,124.729,99.715,96.529,0.00221314,0.125266,20.8789,-1.10102,0.314074,0.0,0.0
1002,250.25,74.5541,75.3958,122.324,99.7113,96.3605,0.00222617,0.125037,20.8786,-1.12104,0.330617,0.0,0.0
1005,251,74.7833,75.2027,126.685,99.7231,95.6711,0.00224008,0.124675,20.8783,-1.11103,0.401205,0.0,0.0
1008,251.75,74.864,74.6821,127.751,99.7166,96.3041,0.0022537,0.124356,20.8781,-1.12104,0.336795,0.0,0.0
1011,252.5,74.2457,74.6827,127.357,99.7085,95.9204,0.00226686,0.124041,20.8782,-1.13105,0.374617,0.0,0.0
1014,253.25,73.8781,74.4134,123.377,99.7016,96.4734,0.00228196,0.123713,20.8787,-1.13105,0.31835,0.0,0.0
1017,254,73.5956,73.7114,124.472,99.7158,96.0357,0.0023017,0.123419,20.879,-1.13105,0.363706,0.0,0.0
1020,254.75,73.4983,73.0466,128.937,99.7133,96.7474,0.00231119,0.123152,20.8793,-1.11103,0.292055,0.0,0.0
1023,255.5,73.4052,73.5137,127.244,99.7133,96.3666,0.00231151,0.122908,20.8794,-1.14106,0.330203,0.0,0.0
1026,256.25,72.9309,73.3107,125.973,99.7089,96.4344,0.00230403,0.122647,20.8796,-1.11103,0.322967,0.0,0.0
1029,257,73.3114,72.7923,125.155,99.7263,96.5587,0.00229918,0.122378,20.8797,-1.12104,0.312208,0.0,0.0
1032,257.75,73.1613,72.8035,132.26,99.7223,96.8575,0.00229665,0.122108,20.8797,-1.13105,0.281929,0.0,0.0
1035,258.5,72.4936,71.8807,127.91,99.7158,96.5262,0.00231052,0.121813,20.8801,-1.14106,0.314438,0.0,0.0
1038,259.25,72.6238,71.7703,124.327,99.7178,96.7081,0.00232321,0.121598,20.8804,-1.15107,0.296426,0.0,0.0
1041,260,71.609,72.0343,129.467,99.715,96.5765,0.00233687,0.121381,20.8807,-1.13105,0.309316,0.0,0.0
1044,260.75,72.5029,71.7359,127.125,99.7373,95.7081,0.00234158,0.121186,20.8809,-1.14106,0.398847,0.0,0.0
1047,261.5,71.4968,71.7227,129.852,99.7442,95.9513,0.00234257,0.120983,20.881,-1.14106,0.374971,0.0,0.0
1050,262.25,71.9993,71.0681,126.761,99.7255,96.5781,0.00234934,0.120697,20.8811,-1.13105,0.310177,0.0,0.0
1053,263,71.7092,71.6154,127.793,99.7466,96.5185,0.0023664,0.12042,20.8812,-1.17109,0.318203,0.0,0.0
1056,263.75,72.134,70.5003,124.114,99.7572,96.2099,0.00240398,0.120167,20.8812,-1.14106,0.350197,0.0,0.0
1059,264.5,71.1982,70.6321,125.835,99.7519,96.8181,0.0024744,0.119946,20.8813,-1.14106,0.288736,0.0,0.0
1062,265.25,71.5305,69.9848,123.412,99.743,96.8039,0.00256073,0.119725,20.8813,-1.13105,0.28929,0.0,0.0
1065,266,70.8323,70.2926,125.868,99.7495,96.8591,0.0026298,0.119565,20.8813,-1.12104,0.284406,0.0,0.0
1068,266.75,70.523,69.8601,128.89,99.7527,95.918,0.00268277,0.11935,20.8813,-1.14106,0.379155,0.0,0.0
1071,267.5,70.3689,68.996,129.772,99.7747,97.0548,0.00269513,0.119171,20.8818,-1.14106,0.267323,0.0,0.0
1074,268.25,70.1122,69.3158,125.092,99.7783,96.9167,0.00267594,0.119004,20.8823,-1.12104,0.281444,0.0,0.0
1077,269,69.8416,68.7371,129.536,99.7694,95.9846,0.00264992,0.118804,20.8827,-1.10102,0.374057,0.0,0.0
1080,269.75,70.2381,69.0941,129.291,99.7783,96.4977,0.00258686,0.118614,20.8829,-1.12104,0.323349,0.0,0.0
1083,270.5,69.5724,68.1218,127.87,99.7876,96.0438,0.00252208,0.118402,20.8831,-1.11103,0.369857,0.0,0.0
1086,271.25,69.5436,68.4039,126.597,99.7974,96.1271,0.00245772,0.11815,20.8832,-1.12104,0.362424,0.0,0.0
1089,272,69.437,67.8703,123.776,99.801,95.9497,0.00241252,0.117965,20.8833,-1.13105,0.380646,0.0,0.0
1092,272.75,69.1553,68.5862,127.541,99.8108,96.5761,0.00239499,0.117733,20.8834,-1.13105,0.318647,0.0,0.0
1095,273.5,69.2944,67.5253,127.538,99.8218,96.6419,0.00242018,0.117523,20.8834,-1.14106,0.313124,0.0,0.0
1098,274.25,68.8553,67.0099,125.971,99.8185,95.9237,0.00246506,0.117352,20.8834,-1.15107,0.384957,0.0,0.0
1101,275,67.9999,67.1857,128.021,99.8189,97.5058,0.00251543,0.117227,20.8835,-1.12104,0.226766,0.0,0.0
1104,275.75,67.8856,66.5901,127.673,99.8372,96.5274,0.0025539,0.117129,20.8835,-1.12104,0.326084,0.0,0.0
1107,276.5,68.1363,67.1387,128.96,99.8429,97.2882,0.00255987,0.117045,20.8835,-1.11103,0.250697,0.0,0.0
1110,277.25,68.0984,66.5212,128.389,99.8437,96.8027,0.00255482,0.116867,20.8835,-1.14106,0.299171,0.0,0.0
1113,278,67.5878,66.1367,125.232,99.8469,96.6447,0.00250215,0.116709,20.8835,-1.15107,0.315278,0.0,0.0
1116,278.75,67.9625,66.3134,127.803,99.864,97.1473,0.00242677,0.116583,20.8835,-1.14106,0.266758,0.0,0.0
1119,279.5,67.1428,65.4289,129.898,99.8676,96.4917,0.0023443,0.11649,20.8831,-1.13105,0.332615,0.0,0.0
1122,280.25,67.6044,65.782,127.751,99.8733,96.2923,0.00225104,0.116409,20.8826,-1.13105,0.353167,0.0,0.0
1125,281,67.093,65.8986,128.731,99.8733,96.3057,0.00218184,0.116324,20.8822,-1.12104,0.351822,0.0,0.0
1128,281.75,67.3508,65.1893,128.676,99.8766,96.2546,0.00214374,0.116249,20.8819,-1.12104,0.357275,0.0,0.0
1131,282.5,67.0539,65.1785,127.166,99.8961,96.6293,0.00213796,0.116181,20.8817,-1.13105,0.321581,0.0,0.0
1134,283.25,66.7043,65.1253,127.364,99.9009,96.6577,0.002157,0.116119,20.8816,-1.12104,0.319208,0.0,0.0
1137,284,66.627,64.4888,127.449,99.8973,97.6094,,0.116035,,-1.12104,0.224092,0.0,0.0
1140,284.75,66.3144,64.8645,126.425,99.9123,96.4247,,0.115988,,-1.11103,0.343655,0.0,0.0
1143,285.5,66.6023,64.753,126.632,99.922,97.0219,,0.115944,,-1.10102,0.284879,0.0,0.0
1146,286.25,66.007,64.3016,126.651,99.9367,96.0345,,0.115888,,-1.10102,0.38523,0.0,0.0
1149,287,66.0185,64.2205,130.163,99.9184,96.0524,,,,-1.13105,0.381662,0.0,0.0
1152,287.75,66.1648,64.0893,125.645,99.9224,96.8489,,,,-1.13105,0.302175,0.0,0.0
1155,288.5,65.7348,64.1437,128.596,99.9553,96.8538,,,,-1.13105,0.304871,0.0,0.0
1158,289.25,65.9867,64.1886,126.068,99.9456,97.0105,,,,-1.081,0.288291,0.0,0.0
1161,290,65.6283,63.3927,130.766,99.9411,96.8859,,,,-1.07099,0.300294,0.0,0.0
1164,290.75,65.9973,63.537,127.303,99.9529,97.6037,,,,-1.06098,0.23004,0.0,0.0
1167,291.5,65.2075,63.2079,127.848,99.9614,96.8177,,,,-1.07099,0.30907,0.0,0.0
1170,292.25,65.4303,63.1989,130.516,99.9496,97.1234,,,,-1.081,0.277437,0.0,0.0
1173,293,65.1258,63.1805,128.491,99.9651,96.5103,,,,-1.07099,0.340176,0.0,0.0
1176,293.75,64.9197,63.2327,126.712,99.9578,97.3337,,,,-1.081,0.257303,0.0,0.0
1178,294.25,64.6335,63.2519,126.835,99.9724,96.5846,,,,-1.07099,0.33344,0.0,0.0