File: 01_Data/PP/Cone/PP_Cone_HF75Scan_220204_R2.csv
Names,Time,Stack TC,Smoke TC,Exh Press,Smoke Comp,Smoke Meas,CO Meter,CO2 Meter,O2 Meter,Sample Mass,Ext Coeff,Start Test,Flame Verif
Chan Gain,,500,500,1,1,1,1,1,1,1,1,1.0,1.0
Offset,,0,0,0.14021,0,0,0,0,0,0,0,0.0,0.0
Gain,,1,1,25.011,13.3046,13.3037,1,1,1,1.00093,1.10262,1.0,1.0
Units,sec,C,C,Pa,%,%,%,%,%,g,/m,,
Baseline,,52.409,53.1388,129.006,100.612,99.961,0.00086055,0.119,20.8399,-871.934,0.0629721,,
2,0.25,45.4273,45.6498,128.809,100.977,101.254,0.00121865,0.136738,20.8212,28.1761,-0.0264665,0.0,0.0
4,0.75,45.6677,45.4823,130.356,100.975,101.546,0.00125367,0.135875,20.8228,28.026,-0.0545436,0.0,0.0
6,1.25,45.6674,46.2012,135.118,101.006,101.012,0.00128716,0.135176,20.8241,28.066,-0.000524631,0.0,0.0
8,1.75,45.9204,46.6007,131.021,101,100.912,0.00131891,0.134319,20.8256,28.0861,0.00842019,0.0,0.0
10,2.25,45.8251,45.6635,130.246,101.031,99.5906,0.0013395,0.133625,20.8268,28.036,0.138875,0.0,0.0
12,2.75,45.4866,45.7564,129.929,101.037,100.707,0.00135156,0.132773,20.8277,28.016,0.0317075,0.0,0.0
14,3.25,45.9536,46.0069,131.852,101.057,99.9248,0.00134978,0.132083,20.8285,28.036,0.108965,0.0,0.0
16,3.75,45.7631,46.0656,131.588,101.05,101.541,0.00133797,0.131342,20.8296,28.076,-0.0468874,0.0,0.0
18,4.25,46.0251,46.2073,131.082,101.076,100.985,0.00132839,0.130578,20.8305,28.026,0.00868745,0.0,0.0
20,4.75,45.6733,46.4247,131.085,101.078,100.85,0.00129143,0.12996,20.8314,28.0861,0.0218386,0.0,0.0
22,5.25,46.5134,46.6275,129.778,101.098,100.22,0.00126149,0.129155,20.8324,28.056,0.0843619,0.0,0.0
24,5.75,46.3365,46.5025,131.219,101.099,100.392,0.00121657,0.128504,20.8332,28.066,0.0678418,0.0,0.0
26,6.25,46.0445,46.3809,131.797,101.127,99.9613,0.00118018,0.127824,20.8338,28.066,0.112112,0.0,0.0
28,6.75,46.6132,46.7836,131.635,101.119,100.78,0.0011507,0.127274,20.8343,28.056,0.0324223,0.0,0.0
30,7.25,46.084,46.5612,129.682,101.144,100.372,0.00112683,0.126704,20.8352,28.056,0.0740695,0.0,0.0
32,7.75,46.7642,46.9865,133.541,101.125,100.345,0.00110749,0.126242,20.8359,28.026,0.0749047,0.0,0.0
34,8.25,45.803,46.1261,128.941,101.152,100.488,0.00110642,0.125772,20.8364,28.046,0.0637409,0.0,0.0
36,8.75,46.0658,46.5503,130.969,101.153,101.52,0.00110555,0.125391,20.8369,28.056,-0.0350496,0.0,0.0
38,9.25,46.4012,46.8294,130.312,101.163,100.695,0.00110485,0.125032,20.8373,28.056,0.0448412,0.0,0.0
40,9.75,46.4025,46.8366,129.876,101.154,100.456,0.00110556,0.124695,20.8376,28.056,0.067022,0.0,0.0
42,10.25,46.4285,46.8063,130.381,101.174,101.097,0.00110729,0.124422,20.8381,28.056,0.00731996,0.0,0.0
44,10.75,46.798,47.0157,128.639,101.166,100.336,0.00110421,0.124132,20.8386,28.046,0.0796871,0.0,0.0
46,11.25,46.6428,46.8058,129.485,101.177,100.222,0.00109768,0.123898,20.839,28.076,0.0917394,0.0,0.0
48,11.75,47.1711,47.2526,131.638,101.185,100.524,0.00109047,0.123708,20.8393,28.066,0.0634477,0.0,0.0
50,12.25,46.8238,46.8993,132.197,101.204,100.51,0.0010829,0.123474,20.8395,28.056,0.0665216,0.0,0.0
52,12.75,46.6671,47.2684,130.113,101.188,100.318,0.00108061,0.123213,20.8397,28.056,0.0835046,0.0,0.0
54,13.25,47.04,47.1896,133.84,101.208,100.095,0.00108221,0.122965,20.839,28.066,0.106959,0.0,0.0
56,13.75,46.7484,47.3482,130.972,101.204,100.502,0.00109632,0.122732,20.8384,28.036,0.0673804,0.0,0.0
58,14.25,46.8348,47.1636,132.768,101.21,100.841,0.00111927,0.122579,20.837,28.006,0.0353143,0.0,0.0
60,14.75,47.1773,47.9413,130.914,101.19,99.2143,0.00113786,0.122488,20.8359,28.006,0.190721,0.0,0.0
62,15.25,46.4411,47.1106,131.907,101.22,100.305,0.0011683,0.122647,20.835,27.9659,0.0878234,0.0,0.0
64,15.75,47.0389,47.5542,133.647,101.211,99.8277,0.00120679,0.122983,20.8321,27.976,0.133079,0.0,0.0
66,16.25,46.7921,47.4037,127.393,101.214,99.4169,0.00123797,0.12383,20.8297,27.9559,0.17328,0.0,0.0
68,16.75,46.9778,47.1732,128.484,101.214,100.131,0.00127054,0.125032,20.8254,27.976,0.104089,0.0,0.0
70,17.25,47.2609,47.6429,127.557,101.207,99.2005,0.00128442,0.126006,20.8225,27.9659,0.193696,0.0,1.0
72,17.75,47.0239,47.1083,128.077,101.222,99.7234,0.00132278,0.129028,20.814,27.9559,0.144281,0.0,1.0
74,18.25,47.283,47.5984,125.765,101.218,100.276,0.00135386,0.131475,20.804,33.5912,0.0903699,0.0,1.0
76,18.75,47.1744,47.9236,121.697,101.206,100.137,0.00140585,0.13572,20.7893,27.9059,0.102686,0.0,1.0
78,19.25,47.4156,47.9427,123.599,101.206,99.0584,0.00144796,0.141195,20.7715,27.9459,0.207445,0.0,1.0
80,19.75,47.3055,48.787,123.464,101.205,99.7043,0.00151163,0.145629,20.7506,27.9259,0.144503,0.0,1.0
82,20.25,47.879,48.8601,123.508,101.201,100.071,0.00158979,0.150031,20.7278,27.9259,0.108614,0.0,1.0
84,20.75,48.1444,48.646,120.07,101.196,98.6942,0.00174484,0.157559,20.7026,27.8558,0.242138,0.0,1.0
86,21.25,48.09,49.698,121.962,101.21,97.181,0.00187043,0.166569,20.676,27.8659,0.392932,0.0,1.0
88,21.75,48.4852,49.6478,120.396,101.199,95.1474,0.00197216,0.176487,20.6545,27.8959,0.596434,0.0,1.0
90,22.25,48.5546,49.6591,117.91,101.201,93.767,0.00225719,0.187684,20.6292,27.8358,0.737938,0.0,1.0
92,22.75,48.7617,49.8497,123.373,101.186,92.2876,0.00248806,0.199601,20.6015,27.8058,0.890324,0.0,0.0
94,23.25,48.8967,50.4649,114.175,101.197,90.353,0.00287388,0.212856,20.5704,27.7558,1.09632,0.0,0.0
96,23.75,49.084,51.2827,115.983,101.192,90.0388,0.00318638,0.226833,20.5375,27.7157,1.12951,0.0,0.0
98,24.25,49.7125,51.5708,116.852,101.187,87.6,0.0036506,0.243129,20.501,27.6557,1.39464,0.0,0.0
100,24.75,50.2144,52.1209,111.922,101.175,86.887,0.00402661,0.260808,20.4627,27.6356,1.47251,0.0,0.0
102,25.25,50.6931,52.8231,111.814,101.197,85.1977,0.00452468,0.275127,20.4316,27.6456,1.66455,0.0,0.0
104,25.75,51.5102,53.2928,114.518,101.166,84.8079,0.00492812,0.297966,20.3799,27.5656,1.70591,0.0,0.0
106,26.25,52.0617,54.4142,108.531,101.166,83.039,0.00537589,0.316465,20.3379,27.5255,1.90979,0.0,0.0
108,26.75,52.329,55.3354,111.993,101.159,80.0371,0.00584746,0.341376,20.28,27.4955,2.26526,0.0,0.0
110,27.25,52.4924,55.4954,105.157,101.172,80.9717,0.00635975,0.361555,20.2331,27.4555,2.15421,0.0,0.0
112,27.75,53.6554,56.954,107.846,101.153,82.2916,0.006892,0.383041,20.1753,27.3954,1.996,0.0,0.0
114,28.25,54.0842,57.4777,111.771,101.153,79.6554,0.00732312,0.405072,20.1285,27.3053,2.31087,0.0,0.0
116,28.75,55.2233,58.5501,104.293,101.142,79.9831,0.00782565,0.429499,20.0906,27.3053,2.27012,0.0,0.0
118,29.25,55.7729,59.6724,103.47,101.143,79.0793,0.00837071,0.455208,20.0382,27.3254,2.38018,0.0,0.0
120,29.75,56.4433,60.6885,105.107,101.142,77.3957,0.00891123,0.476032,19.9957,27.1452,2.58822,0.0,0.0
122,30.25,57.5843,61.8353,104.596,101.126,76.0851,0.00943819,0.504311,19.9396,27.1552,2.75184,0.0,0.0
124,30.75,58.3621,62.8993,101.15,101.117,78.3693,0.00996251,0.527218,19.8941,27.0451,2.46486,0.0,0.0
126,31.25,59.2674,64.3379,101.198,101.12,76.9808,0.0104749,0.551787,19.8573,27.0051,2.63807,0.0,0.0
128,31.75,60.0643,65.3802,105.56,101.106,75.0969,0.01089,0.577101,19.8128,26.975,2.87635,0.0,0.0
130,32.25,60.9895,66.455,95.6014,101.101,74.939,0.0112262,0.603406,19.7768,26.995,2.89624,0.0,0.0
132,32.75,61.8156,67.7729,105.134,101.093,75.1615,0.0117728,0.629933,19.7329,26.895,2.86679,0.0,0.0
134,33.25,62.4416,68.7176,96.8708,101.086,73.4721,0.0122155,0.65142,19.6973,26.8149,3.08605,0.0,0.0
136,33.75,63.3634,70.0902,100.589,101.084,73.1161,0.0128019,0.677869,19.6587,26.7148,3.13288,0.0,0.0
138,34.25,64.3075,71.3308,106.808,101.08,73.3824,0.0132769,0.699292,19.6186,26.6447,3.09724,0.0,0.0
140,34.75,65.0862,72.525,96.7257,101.073,70.6862,0.0139118,0.716645,19.5748,26.5646,3.45865,0.0,0.0
142,35.25,65.6387,73.3071,108.512,101.053,69.6176,0.014426,0.745804,19.5293,26.5146,3.60411,0.0,0.0
144,35.75,66.656,74.6214,91.3286,101.062,71.8315,0.0148426,0.769422,19.4925,26.4145,3.30218,0.0,0.0
146,36.25,67.8516,76.0686,93.7291,101.046,70.5522,0.0156171,0.79869,19.4479,26.3545,3.47439,0.0,0.0
148,36.75,68.3441,77.4394,95.1404,101.04,70.4353,0.0162445,0.822396,19.3986,26.2544,3.48989,0.0,0.0
150,37.25,69.7601,79.2983,94.8313,101.028,70.0196,0.0169457,0.852571,19.3586,26.2544,3.54598,0.0,0.0
152,37.75,71.154,80.7968,92.6735,101.044,67.9246,0.0176872,0.877013,19.3074,26.1443,3.84138,0.0,0.0
154,38.25,71.8931,82.1029,89.4418,101.019,68.0858,0.0182879,0.903684,19.2659,26.0942,3.816,0.0,0.0
156,38.75,73.0659,83.6569,91.7927,101.018,67.2734,0.0191566,0.931474,19.2137,25.9541,3.93203,0.0,0.0
158,39.25,74.2963,85.344,88.7976,100.996,65.6088,0.0200311,0.953984,19.1714,25.834,4.1723,0.0,0.0
160,39.75,75.0047,86.6636,100.105,100.99,65.9373,0.020893,0.980419,19.1056,25.834,4.12342,0.0,0.0
162,40.25,76.2246,88.0285,88.0252,100.971,65.7777,0.0217567,1.00921,19.0523,25.7439,4.14498,0.0,0.0
164,40.75,76.8097,89.3015,85.5064,100.984,65.5439,0.0222033,1.03253,19.0161,25.6338,4.18068,0.0,0.0
166,41.25,78.485,91.3782,92.7018,100.951,65.5918,0.022967,1.06539,18.954,25.5237,4.1705,0.0,0.0
168,41.75,79.7797,92.9232,92.0484,100.944,61.4742,0.0239427,1.09201,18.8919,25.4536,4.79687,0.0,0.0
170,42.25,80.2324,94.7684,85.0308,100.935,63.2061,0.0247329,1.12517,18.8308,25.3836,4.52732,0.0,0.0
172,42.75,81.4603,96.1198,90.0761,100.935,60.827,0.025373,1.15202,18.7814,25.2835,4.89837,0.0,0.0
174,43.25,82.7432,97.5958,89.1571,100.921,61.9009,0.0263815,1.1863,18.7291,25.1533,4.72779,0.0,0.0
176,43.75,83.5641,99.6787,94.068,100.914,62.2963,0.0271984,1.20091,18.6759,25.1233,4.66553,0.0,0.0
178,44.25,84.3322,100.461,87.9549,100.905,62.8992,0.0282765,1.23289,18.6204,25.0232,4.57148,0.0,0.0
180,44.75,85.6856,102.307,86.3879,100.908,63.0933,0.0291498,1.26509,18.5643,24.8531,4.54196,0.0,0.0
182,45.25,87.4991,104.363,83.1425,100.885,59.7856,0.0300777,1.29964,18.5189,24.773,5.06061,0.0,0.0
184,45.75,88.2349,106.235,75.8441,100.889,60.0434,0.0310277,1.33524,18.4568,24.6529,5.01938,0.0,0.0
186,46.25,89.8127,108.36,82.2655,100.857,62.1424,0.0319987,1.36408,18.4065,24.6128,4.68393,0.0,0.0
188,46.75,91.3217,110.373,87.9267,100.856,61.4766,0.0329665,1.40356,18.3382,24.4327,4.78808,0.0,0.0
190,47.25,92.5134,111.837,81.3259,100.833,64.2958,0.0339429,1.43554,18.2829,24.3926,4.35214,0.0,0.0
192,47.75,93.8391,114.142,91.1973,100.832,63.3706,0.034907,1.46928,18.2248,24.2425,4.49222,0.0,0.0
194,48.25,95.071,115.975,88.7014,100.809,61.0743,0.0356879,1.50366,18.1657,24.2225,4.84703,0.0,0.0
196,48.75,95.9742,118.044,80.2352,100.799,60.2067,0.0367552,1.53829,18.1048,24.0823,4.98444,0.0,0.0
198,49.25,97.8932,120.252,89.0586,100.752,57.7102,0.0376197,1.57242,18.0437,23.9622,5.38953,0.0,0.0
200,49.75,98.782,121.796,84.824,100.742,56.1755,0.03832,1.60008,17.9941,23.8221,5.64932,0.0,0.0
202,50.25,100.214,123.983,78.3659,100.747,59.1649,0.0393869,1.63971,17.9379,23.702,5.14828,0.0,0.0
204,50.75,101.88,126.294,79.4269,100.732,60.0759,0.0402511,1.67182,17.8779,23.6219,4.99908,0.0,0.0
206,51.25,103.255,128.262,89.6632,100.714,58.6951,0.0414399,1.70759,17.8112,23.4818,5.22222,0.0,0.0
208,51.75,104.649,130.192,89.2472,100.696,59.188,0.0424029,1.74534,17.7411,23.3717,5.13959,0.0,0.0
210,52.25,105.099,131.671,85.3232,100.68,56.8694,0.0436923,1.78534,17.6698,23.2716,5.52466,0.0,0.0
212,52.75,107.15,133.684,79.3154,100.687,58.0045,0.0447367,1.82622,17.599,23.1215,5.33416,0.0,0.0
214,53.25,108.258,135.361,85.2148,100.691,53.5548,0.0461269,1.85934,17.5215,23.0214,6.10649,0.0,0.0
216,53.75,110.347,138.604,71.3972,100.704,55.4926,0.047253,1.90746,17.4407,22.8412,5.76391,0.0,0.0
218,54.25,111.922,141.111,85.9605,100.71,51.4465,0.0487873,1.94644,17.3752,22.7611,6.49679,0.0,0.0
220,54.75,113.279,142.696,75.8273,100.714,53.7651,0.0500302,1.98754,17.3033,22.591,6.07077,0.0,0.0
222,55.25,114.841,145.329,78.0255,100.707,55.4188,0.0510369,2.0294,17.228,22.4208,5.77715,0.0,0.0
224,55.75,115.624,147.116,95.1427,100.72,50.3012,0.0528406,2.08209,17.1512,22.3607,6.71549,0.0,0.0
226,56.25,117.775,149.645,80.1474,100.723,50.598,0.0543017,2.12477,17.0747,22.1606,6.6589,0.0,0.0
228,56.75,118.649,151.403,82.1502,100.732,52.7303,0.0554851,2.18035,17.0128,22.0304,6.26051,0.0,0.0
230,57.25,120.628,154.168,69.9897,100.743,53.9426,0.0570067,2.22538,16.9626,21.9404,6.04175,0.0,0.0
232,57.75,121.292,155.892,79.7955,100.742,50.6386,0.058746,2.26184,16.8815,21.7302,6.65297,0.0,0.0
234,58.25,123.689,159.339,65.5513,100.75,53.9681,0.0605392,2.31304,16.8158,21.56,6.03783,0.0,0.0
236,58.75,124.893,161.476,66.5275,100.751,54.3437,0.0623376,2.374,16.7061,21.4499,5.97084,0.0,0.0
238,59.25,126.636,164.287,59.8924,100.754,50.9617,0.0641432,2.42338,16.6173,21.2898,6.59257,0.0,0.0
240,59.75,128.76,167.103,91.5278,100.766,53.0246,0.0659197,2.49667,16.5104,21.1296,6.20994,0.0,0.0
242,60.25,130.671,169.828,61.4151,100.775,54.4058,0.0676867,2.55604,16.3925,20.9394,5.96205,0.0,0.0
244,60.75,132.091,171.981,69.6646,100.781,54.6409,0.0694131,2.62631,16.2133,20.8293,5.92093,0.0,0.0
246,61.25,133.367,174.957,84.0676,100.78,50.3605,0.0708115,2.70319,16.0682,20.5991,6.70986,0.0,0.0
248,61.75,135.072,177.968,74.79,100.784,53.8593,0.0726064,2.76547,15.8982,20.489,6.06058,0.0,0.0
250,62.25,137.925,181.059,52.7619,100.801,58.7361,0.0740603,2.84911,15.7604,20.2087,5.22389,0.0,0.0
252,62.75,139.187,184.358,81.909,100.794,53.502,0.0758866,2.91686,15.6229,20.0686,6.12593,0.0,0.0
254,63.25,141.461,188.215,66.5893,100.807,54.5507,0.0773659,3.00404,15.4881,19.9385,5.93943,0.0,0.0
256,63.75,142.478,190.474,92.0797,100.817,53.6295,0.0789455,3.07465,15.3789,19.5882,6.10509,0.0,0.0
258,64.25,144.791,194.077,75.754,100.825,53.9426,0.0805682,3.16394,15.2388,19.438,6.04962,0.0,0.0
260,64.75,146.537,196.914,67.8762,100.822,51.3446,0.0818826,3.23626,15.1254,19.2879,6.52673,0.0,0.0
262,65.25,148.505,200.195,53.9732,100.833,54.4866,0.0834571,3.33267,14.9982,19.3379,5.95327,0.0,0.0
264,65.75,149.801,202.486,65.9635,100.845,50.4461,0.0847324,3.41076,14.8633,18.9776,6.69962,0.0,0.0
266,66.25,151.852,205.909,51.9429,100.851,55.4102,0.0861887,3.50339,14.7047,18.9075,5.79247,0.0,0.0
268,66.75,153.747,209.152,70.2401,100.851,55.9644,0.0873683,3.60485,14.5317,18.5072,5.69614,0.0,0.0
270,67.25,155.407,212.025,86.1841,100.872,56.5097,0.088492,3.68703,14.3916,18.5172,5.60443,0.0,0.0
272,67.75,157.573,216.156,49.2348,100.871,65.0717,0.0895538,3.81659,14.1647,18.0768,4.23983,0.0,0.0
274,68.25,159.9,220.019,63.4088,100.895,57.78,0.0905294,3.92153,13.9809,18.0868,5.39162,0.0,0.0
276,68.75,162.379,224.809,83.2387,100.884,54.4042,0.0914239,4.05934,13.792,17.7264,5.97285,0.0,0.0
278,69.25,164.412,228.588,68.6967,100.901,57.3882,0.0921483,4.17096,13.6029,17.4762,5.45793,0.0,0.0
280,69.75,166.102,231.644,63.7301,100.897,57.1747,0.0929541,4.28812,13.4119,17.3261,5.49364,0.0,0.0
282,70.25,168.442,235.421,44.9284,100.928,65.0023,0.0936068,4.40709,13.223,17.0058,4.2556,0.0,0.0
284,70.75,170.688,239.681,62.2295,100.918,59.1649,0.0942328,4.50346,13.07,16.8857,5.16476,0.0,0.0
286,71.25,172.248,243.385,68.4128,100.941,56.6376,0.0948276,4.63525,12.8585,16.6855,5.58918,0.0,0.0
288,71.75,175.428,248.395,40.5449,100.945,58.2197,0.0953093,4.74199,12.6871,16.3652,5.32304,0.0,0.0
290,72.25,177.198,251.101,36.3476,100.96,60.8928,0.0957234,4.88111,12.508,16.0649,4.89033,0.0,0.0
292,72.75,178.734,254.738,45.0146,100.958,56.3611,0.0960588,4.99379,12.3267,15.8747,5.6381,0.0,0.0
294,73.25,181.737,259.57,45.8397,100.97,54.5653,0.0963102,5.10953,12.1323,15.6145,5.95249,0.0,0.0
296,73.75,183.419,262.491,55.4249,100.975,64.6592,0.0965139,5.2253,11.9748,15.4043,4.31126,0.0,0.0
298,74.25,185.108,266.23,73.0558,100.99,56.9737,0.0966789,5.31907,11.7658,15.2341,5.53665,0.0,0.0
300,74.75,187.601,269.983,55.7554,100.979,59.4418,0.0968126,5.44515,11.5966,15.0339,5.12539,0.0,0.0
302,75.25,189.651,273.653,83.3409,101.006,58.8149,0.0969172,5.54727,11.4171,14.5535,5.2305,0.0,0.0
304,75.75,191.378,277.423,32.9602,101.009,65.8447,0.0970019,5.67535,11.2336,14.3233,4.13883,0.0,0.0
306,76.25,193.513,281.21,57.0385,101.036,60.9553,0.0970723,5.77909,11.0468,14.0931,4.88768,0.0,0.0
308,76.75,196.237,286.002,42.505,101.026,65.8236,0.0971294,5.91305,10.8611,14.003,4.14357,0.0,0.0
310,77.25,198.061,289.757,46.5931,101.043,65.1602,0.097136,6.02155,10.7107,13.7728,4.24309,0.0,0.0
312,77.75,200.563,294.265,39.5625,101.052,68.016,0.0971058,6.15129,10.5889,13.4525,3.82912,0.0,0.0
314,78.25,202.669,297.345,57.8201,101.059,62.2711,0.0970813,6.25639,10.4329,13.0821,4.68329,0.0,0.0
316,78.75,205.224,302.307,64.3262,101.064,63.751,0.0970615,6.37611,10.3065,12.8719,4.45663,0.0,0.0
318,79.25,207.142,305.552,48.015,101.084,59.4409,0.0966235,6.47309,10.2041,12.8419,5.13559,0.0,0.0
320,79.75,208.334,308.896,50.7995,101.086,62.8956,0.0958889,6.56888,10.0855,12.5216,4.58935,0.0,0.0
322,80.25,211.816,313.884,61.6258,101.104,58.8494,0.0948908,6.66198,9.98948,12.1012,5.23419,0.0,0.0
324,80.75,213.301,317.403,71.5415,101.089,63.2021,0.0937195,6.73739,9.88005,11.9511,4.54267,0.0,0.0
326,81.25,215.093,320.738,51.6978,101.113,76.8659,0.092418,6.79847,9.79141,11.6708,2.65186,0.0,0.0
328,81.75,216.613,323.746,56.7866,101.128,69.5502,0.0910463,6.87755,9.65409,11.4306,3.62059,0.0,0.0
330,82.25,218.802,327.478,50.1614,101.141,65.3198,0.0896073,6.96824,9.54287,11.0302,4.22884,0.0,0.0
332,82.75,220.78,331.425,64.3293,101.161,72.7568,0.0881464,7.06181,9.38147,11.0202,3.18783,0.0,0.0
334,83.25,222.835,335.153,27.9775,101.169,71.1803,0.0867105,7.15569,9.25074,10.5398,3.40048,0.0,0.0
336,83.75,225.334,338.865,74.0145,101.172,68.3391,0.0853199,7.25184,9.07399,10.3496,3.79473,0.0,0.0
338,84.25,227.263,342.01,44.1445,101.188,74.438,0.0841935,7.34781,8.93081,9.92921,2.96943,0.0,0.0
340,84.75,228.546,344.387,54.0442,101.177,77.6251,0.083071,7.44771,8.7806,9.65896,2.56289,0.0,0.0
342,85.25,230.838,348.72,29.5591,101.203,76.4396,0.0819728,7.54858,8.6281,9.44877,2.71427,0.0,0.0
344,85.75,233.056,352.729,82.8815,101.206,59.5599,0.0809398,7.65542,8.50458,9.35868,5.12794,0.0,0.0
346,86.25,235.162,356.613,36.5453,101.231,86.0564,0.0799738,7.76459,8.32787,8.89826,1.57082,0.0,0.0
348,86.75,236.962,359.119,60.6205,101.229,73.9597,0.0789993,7.85301,8.18474,8.62801,3.03569,0.0,0.0
350,87.25,238.851,363.497,39.4343,101.247,78.5934,0.0780369,7.98466,7.98769,8.4078,2.4497,0.0,0.0
352,87.75,240.962,367.978,47.1174,101.253,72.6902,0.0770247,8.09129,7.82807,7.98741,3.20545,0.0,0.0
354,88.25,243.057,372.335,62.702,101.262,78.1078,0.0759954,8.21117,7.64414,7.69714,2.51112,0.0,0.0
356,88.75,245.562,376.012,46.3374,101.287,78.9921,0.0751617,8.33843,7.44596,7.45692,2.40456,0.0,0.0
358,89.25,246.776,379.173,34.8005,101.288,86.8956,0.0739333,8.47207,7.2336,7.17666,1.48235,0.0,0.0
360,89.75,248.686,382.845,51.5727,101.29,78.1326,0.0729383,8.60782,7.01493,6.77629,2.51073,0.0,0.0
362,90.25,251.135,387.138,47.9899,101.314,88.876,0.0719156,8.75378,6.83781,6.61614,1.2669,0.0,0.0
364,90.75,253.537,391.222,54.5662,101.296,86.4648,0.0708921,8.90441,6.58426,6.28583,1.53115,0.0,0.0
366,91.25,255.318,395.908,53.632,101.341,81.5035,0.0700631,9.02641,6.37888,5.94552,2.10702,0.0,0.0
368,91.75,258.55,401.474,48.8485,101.333,84.5643,0.0692243,9.17768,6.17945,5.64524,1.74964,0.0,0.0
370,92.25,260.613,406.024,54.6975,101.334,80.9055,0.0685448,9.30021,5.98815,5.50511,2.17756,0.0,0.0
372,92.75,263.478,411.121,61.8509,101.355,76.6093,0.0681374,9.41521,5.8332,5.12475,2.70732,0.0,0.0
374,93.25,265.101,414.289,58.7307,101.359,80.0172,0.0678074,9.52254,5.70768,4.78444,2.28671,0.0,0.0
376,93.75,266.781,417.384,47.7151,101.375,82.3444,0.0679205,9.60947,5.60602,4.44412,2.01097,0.0,0.0
378,94.25,268.78,420.675,54.2243,101.381,77.1801,0.0680121,9.68693,5.52367,4.37406,2.638,0.0,0.0
380,94.75,270.292,423.838,59.007,101.381,71.6744,0.068662,9.74967,5.45697,4.18388,3.35385,0.0,0.0
382,95.25,271.841,426.543,41.6509,101.398,76.8281,0.0691885,9.80005,5.40294,3.60334,2.68388,0.0,0.0
384,95.75,273.282,428.27,46.1389,101.403,84.2408,0.0703675,9.84046,5.37653,3.3431,1.79342,0.0,0.0
386,96.25,274.787,431.588,29.6155,101.403,78.4951,0.0713226,9.86767,5.37076,3.17294,2.47668,0.0,0.0
388,96.75,276.521,434.899,62.715,101.406,67.461,0.0730272,9.88474,5.39283,2.83263,3.94223,0.0,0.0
390,97.25,277.791,437.169,28.1493,101.43,79.1074,0.074408,9.88854,5.43477,2.45228,2.40413,0.0,0.0
392,97.75,279.423,439.091,43.5789,101.432,72.691,0.0755264,9.88259,5.46875,2.44227,3.22243,0.0,0.0
394,98.25,279.908,440.317,40.496,101.435,67.6307,0.0781927,9.8482,5.5284,1.96182,3.92068,0.0,0.0
396,98.75,281.065,441.795,55.715,101.452,78.0505,0.0803523,9.82035,5.60564,1.91177,2.53634,0.0,0.0
398,99.25,281.967,442.807,41.286,101.442,70.052,0.0836358,9.76849,5.66821,1.74162,3.58107,0.0,0.0
400,99.75,282.823,444.086,55.8699,101.446,58.4024,0.0862954,9.70013,5.85259,1.41131,5.34067,0.0,0.0
402,100.25,283.92,445.675,69.3028,101.456,58.7727,0.0884496,9.64475,6.00193,1.13105,5.28051,0.0,0.0
404,100.75,284.291,445.282,55.892,101.467,61.3913,0.0919819,9.50048,6.12291,1.11103,4.85993,0.0,0.0
406,101.25,284.384,444.791,50.0988,101.455,51.8635,0.0948431,9.38362,6.40852,0.890826,6.49001,0.0,0.0
408,101.75,284.33,443.751,83.0303,101.475,49.2838,0.0971606,9.16096,6.63987,0.830771,6.98541,0.0,0.0
410,102.25,284.096,442.22,45.6031,101.472,55.4435,0.0998915,8.9806,6.95579,0.350325,5.84602,0.0,0.0
412,102.75,283.835,440.446,61.4464,101.486,53.5634,0.102103,8.76782,7.32736,0.260241,6.18106,0.0,0.0
414,103.25,283.282,439.201,49.9561,101.491,58.8636,0.103494,8.53545,7.75189,0.070065,5.2688,0.0,0.0
416,103.75,283.48,437.987,58.6414,101.497,55.9656,0.104621,8.34723,8.20695,0.170158,5.75772,0.0,0.0
418,104.25,282.676,435.607,62.8722,101.504,52.4619,0.104075,8.19478,8.71316,-0.110102,6.38365,0.0,0.0
420,104.75,282.017,433.206,69.7898,101.511,50.0661,0.103632,7.87345,9.24705,-0.230214,6.83645,0.0,0.0
422,105.25,280.972,430.771,55.8119,101.501,56.1004,0.103274,7.61317,9.67949,-0.440409,5.73484,0.0,0.0
424,105.75,280.517,428.598,68.3014,101.515,53.3157,0.0998377,7.28372,10.3189,-0.460427,6.22859,0.0,0.0
426,106.25,278.639,425.147,66.3077,101.508,54.4533,0.0970545,7.01686,10.8367,-0.620576,6.02377,0.0,0.0
428,106.75,277.335,421.297,77.5927,101.514,54.7334,0.0923309,6.66084,11.3774,-0.720669,5.97472,0.0,0.0
430,107.25,276.343,418.132,71.0377,101.518,57.0042,0.0885048,6.37247,11.9245,-0.720669,5.5819,0.0,0.0
432,107.75,274.437,414.034,78.0156,101.534,58.6846,0.082733,6.05329,12.5047,-0.810752,5.30237,0.0,0.0
434,108.25,272.825,410.081,84.4897,101.525,61.9325,0.0780578,5.71774,13.0982,-0.850789,4.78049,0.0,0.0
436,108.75,270.605,405.413,92.4346,101.544,68.4244,0.0719526,5.44593,13.7319,-0.880817,3.81816,0.0,0.0
438,109.25,268.262,400.424,95.8793,101.512,76.0953,0.0670074,5.07574,14.3831,-0.860799,2.78738,0.0,0.0
440,109.75,266.134,395.741,101.489,101.532,85.3763,0.0611497,4.77588,14.9105,-0.860799,1.67618,0.0,0.0
442,110.25,262.855,389.731,105.916,101.523,92.7772,0.0564049,4.42474,15.503,-0.870808,0.871265,0.0,0.0
444,110.75,259.363,383.077,110.672,101.523,94.2059,0.0525616,4.14032,15.9829,-0.900836,0.723497,0.0,0.0
446,111.25,256.12,377.572,107.211,101.52,96.3861,0.0474449,3.80622,16.44,-0.920854,0.501898,0.0,0.0
448,111.75,253.201,372.25,106.576,101.532,96.5993,0.0433003,3.53561,16.872,-0.890826,0.481692,0.0,0.0
450,112.25,250.101,366.48,110.08,101.522,97.5891,0.0392237,3.23612,17.2218,-0.890826,0.382162,0.0,0.0
452,112.75,246.999,360.902,106.309,101.521,96.8242,0.0352742,2.99353,17.592,-0.870808,0.458194,0.0,0.0
454,113.25,243.811,355.355,114.008,101.519,96.9793,0.0317176,2.75723,17.8919,-0.830771,0.44248,0.0,0.0
456,113.75,241.594,351.013,106.873,101.523,97.2115,0.028515,2.53001,18.2137,-0.830771,0.419772,0.0,0.0
458,114.25,237.974,345.128,108.242,101.527,97.8818,0.0256646,2.34597,18.4743,-0.830771,0.353697,0.0,0.0
460,114.75,234.787,339.652,109.566,101.524,97.8968,0.0231253,2.1633,18.7411,-0.860799,0.351903,0.0,0.0
462,115.25,233.029,335.932,108.553,101.508,99.0519,0.0208775,1.98511,18.9572,-0.870808,0.236867,0.0,0.0
464,115.75,229.554,330.079,109.45,101.519,99.5529,0.0188852,1.84078,19.1777,-0.860799,0.189152,0.0,0.0
466,116.25,227.652,326.505,111.302,101.506,100.365,0.0171156,1.68249,19.3562,-0.870808,0.109345,0.0,0.0
468,116.75,224.886,321.809,110.359,101.503,100.612,0.0155421,1.55428,19.5281,-0.84078,0.0852762,0.0,0.0
470,117.25,222.059,316.957,113.204,101.491,100.888,0.014138,1.4241,19.6672,-0.860799,0.057651,0.0,0.0
472,117.75,219.557,312.572,112.403,101.494,101.066,0.0128843,1.30748,19.7996,-0.84078,0.0408109,0.0,0.0
474,118.25,217.482,308.995,112.033,101.481,100.795,0.0118688,1.20295,19.9068,-0.830771,0.0656387,0.0,0.0
476,118.75,214.993,304.59,110.177,101.492,100.987,0.0109024,1.10914,20.002,-0.790734,0.0482354,0.0,0.0
478,119.25,212.06,300.181,110.897,101.479,101.284,0.00999036,1.02492,20.0868,-0.810752,0.0185364,0.0,0.0
480,119.75,210.555,295.697,113.116,101.473,101.262,0.00917225,0.949014,20.1554,-0.820762,0.0200887,0.0,0.0
482,120.25,208.07,291.871,112.756,101.47,100.992,0.0087859,0.880617,20.2226,-0.830771,0.0456789,0.0,0.0
484,120.75,205.797,287.68,112.221,101.46,100.898,0.00812524,0.825215,20.2513,-0.820762,0.0537373,0.0,0.0
486,121.25,203.296,284.918,112.777,101.444,100.94,0.00743875,0.766312,20.3003,-0.820762,0.0481803,0.0,0.0
488,121.75,201.634,281.078,113.16,101.464,101.155,0.0068827,0.7186,20.3497,-0.800743,0.0294421,0.0,0.0
490,122.25,199.053,277.418,111.094,101.43,100.955,0.00636919,0.673515,20.3952,-0.770715,0.0454253,0.0,0.0
492,122.75,197.427,273.175,111.088,101.433,100.987,0.00589645,0.631203,20.4369,-0.780724,0.0426615,0.0,0.0
494,123.25,195.308,270.408,117.527,101.417,100.947,0.00546293,0.592967,20.4706,-0.780724,0.0448859,0.0,0.0
496,123.75,193.821,266.788,115.448,101.408,101.104,0.00506625,0.574789,20.498,-0.790734,0.0290696,0.0,0.0
498,124.25,192.061,263.526,113.132,101.394,100.412,0.00474493,0.543705,20.5259,-0.790734,0.0941227,0.0,0.0
500,124.75,189.609,260.146,113.989,101.4,101.043,0.00443227,0.514033,20.5486,-0.800743,0.0341229,0.0,0.0
502,125.25,187.707,257.273,114.323,101.374,101.148,0.00413184,0.485955,20.574,-0.790734,0.0215832,0.0,0.0
504,125.75,186.438,254.34,114.418,101.378,100.835,0.0038885,0.460669,20.5947,-0.790734,0.0519885,0.0,0.0
506,126.25,184.742,251.269,115.386,101.36,101.134,0.00366815,0.437901,20.6114,-0.800743,0.0215476,0.0,0.0
508,126.75,182.663,248.639,113.193,101.367,101.01,0.00346875,0.419459,20.628,-0.800743,0.0341332,0.0,0.0
510,127.25,180.761,245.013,113.528,101.339,100.651,0.00329175,0.404521,20.6415,-0.790734,0.065964,0.0,0.0
512,127.75,179.53,242.739,116.391,101.365,101.112,0.00313445,0.386108,20.6551,-0.820762,0.0241863,0.0,0.0
514,128.25,178.105,239.984,116.445,101.322,100.777,0.00300703,0.371194,20.6661,-0.830771,0.052094,0.0,0.0
516,128.75,175.999,236.699,112.718,101.325,100.801,0.0028622,0.355072,20.6773,-0.810752,0.0501064,0.0,0.0
518,129.25,175.197,234.345,120.805,101.301,101.055,0.00274489,0.342012,20.6863,-0.800743,0.0234628,0.0,0.0
520,129.75,173.156,231.422,114.392,101.287,100.866,0.00260828,0.32971,20.6946,-0.810752,0.0402701,0.0,0.0
522,130.25,171.989,229.123,116.735,101.28,100.977,0.00249763,0.318193,20.7021,-0.810752,0.028988,0.0,0.0
524,130.75,170.704,226.357,114.197,101.275,100.42,0.00237991,0.307726,20.7087,-0.810752,0.0819865,0.0,0.0
526,131.25,168.635,224.553,113.786,101.254,100.943,0.00228455,0.298224,20.7144,-0.830771,0.0297731,0.0,0.0
528,131.75,167.231,221.73,114.743,101.247,100.485,0.00218777,0.290526,20.7191,-0.830771,0.0730168,0.0,0.0
530,132.25,166.446,219.364,116.168,101.226,101.076,0.00210939,0.281952,20.7242,-0.850789,0.0143466,0.0,0.0
532,132.75,165.361,216.789,115.433,101.225,100.461,0.00204589,0.275007,20.7283,-0.830771,0.0733063,0.0,0.0
534,133.25,163.993,214.695,114.576,101.203,101.171,0.00199253,0.267548,20.7321,-0.830771,0.00304806,0.0,0.0
536,133.75,162.86,212.672,116.415,101.205,100.481,0.00194758,0.261505,20.7357,-0.850789,0.0694504,0.0,0.0
538,134.25,161.616,210.073,113.589,101.19,100.219,0.00192093,0.255038,20.739,-0.84078,0.0932937,0.0,0.0
540,134.75,159.932,208.831,113.966,101.179,100.699,0.00189935,0.249799,20.7421,-0.830771,0.0460427,0.0,0.0
542,135.25,158.763,205.98,115.471,101.159,100.212,0.00188431,0.245556,20.7453,-0.84078,0.0909707,0.0,0.0
544,135.75,157.934,204.109,116.546,101.149,100.418,0.00187212,0.240102,20.7485,-0.850789,0.0702322,0.0,0.0
546,136.25,156.388,201.891,113.252,101.131,100.644,0.00185615,0.235685,20.7514,-0.860799,0.0467278,0.0,0.0
548,136.75,155.659,200.401,117.446,101.138,100.436,0.00184321,0.231373,20.7539,-0.860799,0.0673461,0.0,0.0
550,137.25,154.79,199.084,112.512,101.113,100.926,0.00182541,0.227219,20.7562,-0.870808,0.0179011,0.0,0.0
552,137.75,153.209,196.661,114.035,101.093,100.688,0.00181099,0.223276,20.7583,-0.880817,0.0388244,0.0,0.0
554,138.25,152.899,194.95,114.762,101.082,100.197,0.00179609,0.219561,20.7602,-0.890826,0.0850031,0.0,0.0
556,138.75,151.857,193.3,113.274,101.069,100.518,0.00178114,0.216089,20.7619,-0.880817,0.0528486,0.0,0.0
558,139.25,150.454,190.803,111.693,101.052,100.595,0.00176903,0.212861,20.7634,-0.890826,0.0438748,0.0,0.0
560,139.75,149.877,189.419,116.532,101.042,99.7047,0.00174336,0.209821,20.765,-0.890826,0.12889,0.0,0.0
562,140.25,148.433,187.807,116.221,101.025,100.482,0.00172257,0.206978,20.7667,-0.890826,0.0521674,0.0,0.0
564,140.75,147.993,186.284,114.161,101.012,100.71,0.00168377,0.204275,20.7681,-0.890826,0.0289857,0.0,0.0
566,141.25,147.018,184.655,112.95,100.993,100.721,0.00165235,0.201726,20.7693,-0.880817,0.0260666,0.0,0.0
568,141.75,145.73,182.754,116.983,100.977,100.743,0.0016001,0.199661,20.7702,-0.890826,0.0224057,0.0,0.0
570,142.25,144.798,181.532,118.109,100.958,100.165,0.00155777,0.197101,20.7714,-0.880817,0.0762432,0.0,0.0
572,142.75,143.901,179.9,113.502,100.958,100.372,0.00152348,0.195028,20.7723,-0.870808,0.0563478,0.0,0.0
574,143.25,143.3,178.3,114.249,100.932,99.8809,0.00146162,0.192944,20.7733,-0.870808,0.101235,0.0,0.0
576,143.75,142.716,177.285,116.524,100.918,100.343,0.00141151,0.19089,20.7744,-0.870808,0.0552736,0.0,0.0
578,144.25,141.697,175.426,117.461,100.905,100.02,0.00135876,0.188897,20.7755,-0.870808,0.0852294,0.0,0.0
580,144.75,141.046,174.336,117.782,100.876,100.255,0.00131603,0.186986,20.7765,-0.870808,0.0597219,0.0,0.0
582,145.25,139.889,172.168,117.439,100.873,100.179,0.00128077,0.185438,20.7774,-0.890826,0.0667381,0.0,0.0
584,145.75,138.702,171.018,117.75,100.852,99.8854,0.00125164,0.183574,20.7781,-0.900836,0.0931349,0.0,0.0
586,146.25,138.925,169.849,115.424,100.844,100.081,0.00122805,0.182064,20.7787,-0.890826,0.0734642,0.0,0.0
588,146.75,138.188,168.4,113.434,100.821,99.898,0.00121745,0.180259,20.7792,-0.880817,0.0889556,0.0,0.0
590,147.25,136.918,167.086,119.452,100.802,100.247,0.00120887,0.178798,20.78,-0.860799,0.0533795,0.0,0.0
592,147.75,136.352,165.865,116.589,100.804,99.8277,0.00120192,0.177375,20.7811,-0.870808,0.0941227,0.0,0.0
594,148.25,135.431,164.946,113.286,100.785,100.021,0.00120846,0.176009,20.7814,-0.870808,0.0735466,0.0,0.0
596,148.75,135.438,163.987,114.652,100.759,99.4238,0.00121375,0.174678,20.7811,-0.880817,0.129016,0.0,0.0
598,149.25,133.909,162.218,117.352,100.753,99.7323,0.00123143,0.1734,20.781,-0.860799,0.0985006,0.0,0.0
600,149.75,133.13,160.631,115.789,100.73,99.6613,0.00124575,0.172365,20.7812,-0.860799,0.10317,0.0,0.0
602,150.25,133.283,160.446,112.699,100.715,99.4985,0.00126101,0.171526,20.7816,-0.870808,0.117541,0.0,0.0
604,150.75,132.198,158.922,116.192,100.708,99.9057,0.00127336,0.170446,20.7821,-0.860799,0.0773357,0.0,0.0
606,151.25,131.552,157.416,116.366,100.699,99.833,0.00126633,0.16921,20.7828,-0.860799,0.0835549,0.0,0.0
608,151.75,130.965,156.532,113.528,100.676,99.7481,0.00126063,0.167871,20.7835,-0.850789,0.0895177,0.0,0.0
610,152.25,130.316,155.188,119.281,100.657,99.8432,0.00123168,0.166786,20.7841,-0.860799,0.0785149,0.0,0.0
612,152.75,130.458,154.691,116.631,100.655,99.5768,0.00121933,0.165682,20.7846,-0.860799,0.104115,0.0,0.0
614,153.25,128.799,153.083,117.362,100.633,99.5845,0.00119823,0.164788,20.7854,-0.880817,0.10126,0.0,0.0
616,153.75,127.895,151.931,117.846,100.617,99.5265,0.00118113,0.163755,20.7861,-0.870808,0.105378,0.0,0.0
618,154.25,128.046,151.628,116.233,100.605,99.3438,0.00114661,0.162918,20.7871,-0.860799,0.121978,0.0,0.0
620,154.75,127.277,150.969,113.601,100.579,99.5711,0.00111865,0.162033,20.7884,-0.860799,0.0973695,0.0,0.0
622,155.25,127.134,149.563,117.515,100.573,99.1014,0.00109965,0.16113,20.7894,-0.850789,0.142599,0.0,0.0
624,155.75,126.598,148.081,115.96,100.558,100.153,0.00108426,0.160745,20.7906,-0.84078,0.0390678,0.0,0.0
626,156.25,125.809,147.382,117.382,100.547,99.3446,0.00107244,0.159902,20.7917,-0.820762,0.116355,0.0,0.0
628,156.75,125.25,146.215,115.462,100.523,99.1051,0.00106343,0.159053,20.7929,-0.820762,0.13736,0.0,0.0
630,157.25,124.601,145.745,120.177,100.506,99.6012,0.00105294,0.158365,20.794,-0.830771,0.08746,0.0,0.0
632,157.75,124.064,145.104,117.122,100.501,98.7819,0.00104156,0.157402,20.7957,-0.820762,0.166919,0.0,0.0
634,158.25,124.272,143.812,122.434,100.475,98.963,0.00102403,0.156622,20.7971,-0.810752,0.146627,0.0,0.0
636,158.75,122.826,143.246,115.65,100.455,98.6922,0.00100235,0.155813,20.7987,-0.820762,0.171253,0.0,0.0
638,159.25,123.03,142.24,116.949,100.45,99.1668,0.000976469,0.154998,20.8,-0.820762,0.124343,0.0,0.0
640,159.75,122.278,141.111,117.415,100.429,99.1708,0.000948029,0.154206,20.8014,-0.800743,0.121954,0.0,0.0
642,160.25,122.109,140.514,117.4,100.417,98.9098,0.000924992,0.153446,20.8026,-0.820762,0.146313,0.0,0.0
644,160.75,121.197,139.115,117.365,100.389,98.8436,0.000903904,0.152719,20.8039,-0.800743,0.150089,0.0,0.0
646,161.25,120.336,138.824,116.924,100.389,98.909,0.000886822,0.152031,20.805,-0.790734,0.143617,0.0,0.0
648,161.75,120.822,137.498,113.825,100.367,99.1323,0.000891207,0.151371,20.806,-0.830771,0.11977,0.0,0.0
650,162.25,119.901,137.383,121.821,100.364,98.9593,0.000894759,0.150744,20.8068,-0.820762,0.136307,0.0,0.0
652,162.75,119.062,136.504,118.882,100.336,99.0202,0.000924377,0.150236,20.8074,-0.820762,0.127696,0.0,0.0
654,163.25,118.908,135.632,117.204,100.333,99.2451,0.000948368,0.149517,20.8084,-0.84078,0.105477,0.0,0.0
656,163.75,118.033,135.196,117.46,100.312,99.4725,0.000979964,0.148935,20.8091,-0.84078,0.0813085,0.0,0.0
658,164.25,117.955,134.534,117.259,100.295,99.0425,0.0010165,0.148317,20.8102,-0.850789,0.121561,0.0,0.0
660,164.75,117.575,133.275,115.841,100.284,98.5545,0.0010568,0.147684,20.8121,-0.860799,0.168239,0.0,0.0
662,165.25,117.229,132.701,116.079,100.288,99.5452,0.00106642,0.147054,20.8126,-0.84078,0.0719365,0.0,0.0
664,165.75,116.666,132.262,119.803,100.259,98.7705,0.00108289,0.146439,20.8135,-0.860799,0.144638,0.0,0.0
666,166.25,116.51,131.579,118.368,100.255,99.358,0.00107068,0.145874,20.8144,-0.84078,0.0869276,0.0,0.0
668,166.75,115.909,130.503,118.999,100.234,98.829,0.0010608,0.145357,20.8154,-0.820762,0.136564,0.0,0.0
670,167.25,115.055,130.107,119.339,100.232,99.1997,0.00105279,0.144938,20.8162,-0.830771,0.100119,0.0,0.0
672,167.75,115.04,129.884,119.4,100.201,98.9191,0.00101349,0.144137,20.8168,-0.830771,0.124535,0.0,0.0
674,168.25,114.749,128.894,118.452,100.209,98.7259,0.000981661,0.143922,20.8173,-0.850789,0.144231,0.0,0.0
676,168.75,114.369,128.117,115.608,100.188,98.3527,0.000940092,0.143414,20.818,-0.84078,0.178777,0.0,0.0
678,169.25,113.87,127.675,115.756,100.176,98.818,0.00090642,0.143003,20.8187,-0.850789,0.132032,0.0,0.0
680,169.75,113.263,126.871,115.024,100.157,98.9106,0.00087429,0.14267,20.8193,-0.860799,0.121133,0.0,0.0
682,170.25,113.324,125.949,116.364,100.152,98.9958,0.000848265,0.142219,20.82,-0.870808,0.112289,0.0,0.0
684,170.75,113.176,125.962,118.323,100.132,98.725,0.000827185,0.141854,20.8208,-0.870808,0.136863,0.0,0.0
686,171.25,112.552,125.134,118.425,100.124,98.1469,0.000808193,0.141463,20.8214,-0.850789,0.192885,0.0,0.0
688,171.75,112.07,124.334,114.538,100.108,98.3032,0.000791085,0.141061,20.8193,-0.860799,0.175964,0.0,0.0
690,172.25,111.477,123.971,116.557,100.098,97.8355,0.00077595,0.140663,20.8176,-0.880817,0.221111,0.0,0.0
692,172.75,111.127,123.21,115.157,100.082,98.5423,0.00076254,0.140274,20.8167,-0.870808,0.149992,0.0,0.0
694,173.25,110.76,122.881,116.051,100.077,98.5574,0.000751678,0.139959,20.8159,-0.870808,0.147969,0.0,0.0
696,173.75,110.599,122.824,119.411,100.058,98.075,0.00074288,0.139587,20.8158,-0.890826,0.193574,0.0,0.0
698,174.25,110.514,121.433,115.179,100.045,98.5955,0.000735754,0.13918,20.8156,-0.850789,0.141202,0.0,0.0
700,174.75,109.965,121.04,114.733,100.033,98.1213,0.000729981,0.138749,20.8155,-0.860799,0.186654,0.0,0.0
702,175.25,109.931,121.126,116.268,100.02,98.0393,0.000721665,0.138307,20.8157,-0.880817,0.193447,0.0,0.0
704,175.75,109.381,119.983,119.345,100.008,98.1932,0.000714929,0.137906,20.816,-0.870808,0.177101,0.0,0.0
706,176.25,109.505,119.616,119.851,100.007,98.3613,0.000693699,0.137541,20.8162,-0.850789,0.16048,0.0,0.0
708,176.75,108.743,119.396,115.347,99.9777,99.1359,0.000676504,0.137246,20.8165,-0.860799,0.0817784,0.0,0.0
710,177.25,108.47,118.515,117.641,99.9866,98.1299,0.000638322,0.136934,20.8166,-0.870808,0.181299,0.0,0.0
712,177.75,107.962,117.759,116.119,99.9622,97.6918,0.000607394,0.136615,20.8168,-0.870808,0.222216,0.0,0.0
714,178.25,108.169,117.349,117.774,99.9594,98.4157,0.000559318,0.136357,20.8171,-0.910845,0.150537,0.0,0.0
716,178.75,107.96,117.386,119.138,99.9578,97.8867,0.000520376,0.13609,20.8176,-0.900836,0.20251,0.0,0.0
718,179.25,106.44,116.036,117.08,99.9294,98.1871,0.000469455,0.135821,20.818,-0.910845,0.17012,0.0,0.0
720,179.75,106.352,115.185,117.307,99.9277,98.2581,0.000428209,0.135545,20.8183,-0.920854,0.162965,0.0,0.0
722,180.25,106.987,115.521,114.473,99.92,97.6264,0.000382693,0.135268,20.8186,-0.910845,0.224604,0.0,0.0
724,180.75,106.803,115.271,115.631,99.9139,98.0564,0.000345826,0.135015,20.8188,-0.900836,0.181511,0.0,0.0
726,181.25,105.964,114.361,120.616,99.8981,97.7563,0.000315963,0.134784,20.819,-0.910845,0.209618,0.0,0.0
728,181.75,105.76,114.192,115.657,99.89,97.9577,0.000299038,0.134575,20.8191,-0.900836,0.188928,0.0,0.0
730,182.25,105.413,114.52,116.028,99.8766,98.1112,0.000285329,0.134386,20.8192,-0.900836,0.172491,0.0,0.0
732,182.75,105.683,113.964,121.354,99.8672,98.2033,0.000305714,0.134219,20.8193,-0.930864,0.162505,0.0,0.0
734,183.25,104.995,112.852,116.991,99.8587,97.9813,0.000322226,0.13407,20.8194,-0.910845,0.183576,0.0,0.0
736,183.75,104.424,112.761,119.351,99.8473,97.9646,0.000367119,0.133927,20.8192,-0.900836,0.184118,0.0,0.0
738,184.25,104.622,112.393,121.257,99.8408,97.7247,0.000403483,0.133792,20.8189,-0.890826,0.207208,0.0,0.0
740,184.75,104.535,112.118,117.948,99.8372,97.7535,0.000450179,0.133682,20.8186,-0.880817,0.204001,0.0,0.0
742,185.25,103.706,111.104,119.89,99.825,97.8156,0.000503522,0.133594,20.8184,-0.880817,0.196677,0.0,0.0
744,185.75,103.265,110.411,118.478,99.8181,97.6987,0.000562068,0.133522,20.8182,-0.890826,0.207577,0.0,0.0
746,186.25,103.407,111.078,119.181,99.8059,97.7884,0.000623297,0.133464,20.818,-0.860799,0.197518,0.0,0.0
748,186.75,103.521,110.725,120.31,99.8262,97.3487,0.00067609,0.133417,20.8179,-0.880817,0.243073,0.0,0.0
750,187.25,102.962,109.966,117.211,99.7937,97.641,0.00072173,0.133371,20.8178,-0.890826,0.210926,0.0,0.0
752,187.75,103.147,109.805,117.801,99.7945,97.9415,0.000758698,0.133328,20.8177,-0.890826,0.181288,0.0,0.0
754,188.25,102.376,109.415,118.265,99.7812,98.1607,0.000781609,0.133293,20.8177,-0.900836,0.158365,0.0,0.0
756,188.75,102.85,108.898,119.4,99.7755,98.0442,0.000793836,0.133292,20.8176,-0.900836,0.169301,0.0,0.0
758,189.25,102.008,108.014,122.52,99.7596,97.2501,0.000801183,0.133291,20.8176,-0.900836,0.246426,0.0,0.0
760,189.75,101.581,107.78,118.249,99.7742,97.7913,0.000803103,0.133277,20.8175,-0.880817,0.194168,0.0,0.0
762,190.25,101.348,107.523,116.53,99.7568,97.4494,0.000807667,0.133265,20.8175,-0.880817,0.226345,0.0,0.0
764,190.75,101.333,107.228,117.926,99.7475,98.0446,0.00081458,0.133201,20.8175,-0.870808,0.166545,0.0,0.0
766,191.25,101.652,106.97,118.021,99.7458,97.5509,0.000818358,0.133148,20.8175,-0.890826,0.215213,0.0,0.0
768,191.75,101.039,106.197,118.522,99.7466,97.924,0.000824818,0.133055,20.8174,-0.880817,0.178368,0.0,0.0
770,192.25,100.697,106.239,118.475,99.7304,97.5099,0.000825576,0.132933,20.8174,-0.870808,0.217784,0.0,0.0
772,192.75,100.345,106.118,118.251,99.7332,97.8607,0.000822162,0.13282,20.8174,-0.890826,0.183327,0.0,0.0
774,193.25,100.261,105.693,119.794,99.7194,97.7161,0.000819397,0.132765,20.8174,-0.880817,0.196284,0.0,0.0
776,193.75,100.224,105.778,118.394,99.7243,97.3507,0.000805017,0.132587,20.8174,-0.890826,0.232992,0.0,0.0
778,194.25,99.9898,105.168,121.515,99.7194,97.3982,0.000782444,0.132511,20.8165,-0.880817,0.227801,0.0,0.0
780,194.75,99.8133,104.824,119.337,99.7182,97.108,0.00076416,0.132382,20.8158,-0.880817,0.256553,0.0,0.0
782,195.25,99.4632,103.919,119.714,99.6987,97.8672,0.00074935,0.132208,20.8152,-0.870808,0.179338,0.0,0.0
784,195.75,99.4428,103.411,117.305,99.6999,97.3987,0.000724006,0.132068,20.8148,-0.860799,0.22587,0.0,0.0
786,196.25,98.6396,103.859,118.101,99.6971,97.2943,0.000703478,0.131954,20.8144,-0.870808,0.235962,0.0,0.0
788,196.75,98.8382,103.515,119.685,99.6865,97.2285,0.00069132,0.131834,20.8141,-0.880817,0.241477,0.0,0.0
790,197.25,99.0544,102.758,122.444,99.687,97.7584,0.000685495,0.131737,20.8138,-0.890826,0.188954,0.0,0.0
792,197.75,98.6093,102.833,118.138,99.6886,97.5566,0.000694128,0.131651,20.8139,-0.860799,0.209097,0.0,0.0
794,198.25,98.345,102.584,123.094,99.6703,97.6447,0.00070112,0.131574,20.8141,-0.890826,0.198592,0.0,0.0
796,198.75,97.9741,102.52,123.345,99.678,97.1542,0.000710425,0.131513,20.8143,-0.880817,0.248044,0.0,0.0
798,199.25,97.7182,102.207,117.872,99.6687,97.5996,0.000717962,0.131448,20.8144,-0.890826,0.202899,0.0,0.0
800,199.75,97.766,101.918,117.263,99.6711,97.1408,0.000722853,0.131383,20.8146,-0.900836,0.248709,0.0,0.0
802,200.25,97.6884,101.038,119.39,99.6593,97.2647,0.000726814,0.131301,20.8147,-0.890826,0.235244,0.0,0.0
804,200.75,97.4997,101.302,116.082,99.6683,97.4145,0.000730662,0.131208,20.8148,-0.890826,0.221225,0.0,0.0
806,201.25,97.0971,101.147,119.906,99.65,97.4677,0.000734354,0.131104,20.8148,-0.890826,0.214172,0.0,0.0
808,201.75,97.1961,100.983,120.663,99.6642,97.9675,0.000737345,0.130993,20.8149,-0.880817,0.166084,0.0,0.0
810,202.25,97.0206,100.778,121.113,99.6488,97.1356,0.000753124,0.130867,20.8149,-0.910845,0.247067,0.0,0.0
812,202.75,96.4824,99.7869,120.572,99.6573,97.2553,0.000765904,0.130732,20.815,-0.890826,0.235975,0.0,0.0
814,203.25,96.4295,99.6333,119.435,99.6423,97.7973,0.000785974,0.130609,20.815,-0.900836,0.180764,0.0,0.0
816,203.75,96.2289,99.9406,118.713,99.6524,97.6942,0.000802231,0.130495,20.815,-0.880817,0.191955,0.0,0.0
818,204.25,96.9395,99.41,122.357,99.6447,97.1266,0.000819235,0.130404,20.8153,-0.900836,0.247562,0.0,0.0
820,204.75,95.8184,99.3254,121.918,99.6447,97.1932,0.000836462,0.130329,20.8157,-0.890826,0.240934,0.0,0.0
822,205.25,95.596,98.7294,117.882,99.6431,96.9464,0.000850415,0.130269,20.816,-0.890826,0.265372,0.0,0.0
824,205.75,95.8752,98.2782,118.23,99.6468,96.6273,0.000861718,0.130206,20.8163,-0.860799,0.297617,0.0,0.0
826,206.25,95.2893,97.7996,115.423,99.6382,96.9249,0.000868315,0.130141,20.8165,-0.890826,0.267046,0.0,0.0
828,206.75,95.3275,98.0309,125.935,99.6463,96.8806,0.000871357,0.130046,20.8167,-0.890826,0.27225,0.0,0.0
830,207.25,95.0127,98.2897,119.072,99.637,97.2135,0.000873821,0.129929,20.8168,-0.890826,0.238165,0.0,0.0
832,207.75,94.8009,97.1956,121.342,99.6358,97.19,0.000869743,0.129783,20.817,-0.880817,0.240391,0.0,0.0
834,208.25,94.3115,97.6334,114.018,99.6329,97.3089,0.00086644,0.129619,20.8171,-0.880817,0.228282,0.0,0.0
836,208.75,94.2956,97.2975,119.919,99.6362,97.1526,0.000863764,0.129487,20.8171,-0.880817,0.244146,0.0,0.0
838,209.25,94.435,96.7274,120.43,99.6281,96.8879,0.00083367,0.129379,20.8172,-0.860799,0.269748,0.0,0.0
840,209.75,94.0905,96.6068,118.913,99.6325,96.8327,0.000809293,0.129292,20.8172,-0.880817,0.275696,0.0,0.0
842,210.25,93.5855,96.3724,119.1,99.6277,96.8765,0.000765282,0.129229,20.8173,-0.880817,0.270843,0.0,0.0
844,210.75,93.7277,95.8278,117.828,99.6403,97.1482,0.000729634,0.129185,20.8173,-0.860799,0.244986,0.0,0.0
846,211.25,94.4071,96.0741,117.443,99.6334,97.2598,0.000690547,0.129105,20.8176,-0.860799,0.233207,0.0,0.0
848,211.75,93.0938,95.8389,119.701,99.6342,97.4669,0.000649697,0.129001,20.818,-0.880817,0.212716,0.0,0.0
850,212.25,93.2249,95.5044,122.93,99.6362,96.8692,0.000602064,0.128917,20.8183,-0.890826,0.272401,0.0,0.0
852,212.75,92.9561,95.2428,123.366,99.6451,97.1392,0.000563481,0.128827,20.8186,-0.900836,0.246349,0.0,0.0
854,213.25,92.8293,94.6368,120.619,99.6297,96.8977,0.000520114,0.128734,20.8188,-0.870808,0.268933,0.0,0.0
856,213.75,92.0815,94.4984,120.751,99.6338,96.6614,0.000484987,0.128623,20.819,-0.880817,0.292942,0.0,0.0
858,214.25,92.5581,94.4922,121.566,99.6492,97.1425,0.000453984,0.1285,20.8192,-0.880817,0.246419,0.0,0.0
860,214.75,92.7725,94.4149,118.87,99.6362,97.369,0.000426576,0.128379,20.8193,-0.870808,0.222628,0.0,0.0
862,215.25,92.2378,93.8843,120.989,99.6358,97.0369,0.000404376,0.128261,20.8194,-0.870808,0.255634,0.0,0.0
864,215.75,92.5445,94.0187,120.622,99.6232,97.2395,0.000404566,0.128173,20.8195,-0.870808,0.23424,0.0,0.0
866,216.25,91.4563,93.4839,118.644,99.6366,97.0536,0.000404721,0.128108,20.8195,-0.860799,0.254054,0.0,0.0
868,216.75,91.1181,93.1735,121.294,99.6455,97.0101,0.000404845,0.128041,20.8196,-0.880817,0.259251,0.0,0.0
870,217.25,91.55,93.4742,118.723,99.6403,96.8217,0.000404946,0.127974,20.8196,-0.890826,0.277539,0.0,0.0
872,217.75,91.9077,93.1915,118.481,99.6321,97.0097,0.000446253,0.127919,20.8192,-0.900836,0.257991,0.0,0.0
874,218.25,91.1867,93.4008,120.25,99.6435,96.7243,0.000479711,0.127806,20.8185,-0.910845,0.287594,0.0,0.0
876,218.75,91.7512,92.6786,119.858,99.6366,96.7945,0.000525014,0.127714,20.8179,-0.860799,0.279901,0.0,0.0
878,219.25,90.9826,92.7032,117.905,99.6423,96.5461,0.000561711,0.12764,20.8175,-0.900836,0.305314,0.0,0.0
880,219.75,90.9474,92.8594,118.394,99.6459,96.594,0.000599932,0.127579,20.8173,-0.890826,0.30087,0.0,0.0
882,220.25,91.3168,92.1145,120.371,99.6541,96.6041,0.000630891,0.127489,20.8174,-0.880817,0.300642,0.0,0.0
884,220.75,90.2258,91.7958,120.973,99.6386,96.8225,0.000653539,0.127416,20.8175,-0.880817,0.2773,0.0,0.0
886,221.25,91.0366,92.426,121.399,99.6553,96.9269,0.000671885,0.127329,20.8176,-0.870808,0.268499,0.0,0.0
888,221.75,90.2866,91.8698,118.917,99.6447,96.5692,0.000681889,0.127259,20.8176,-0.850789,0.303232,0.0,0.0
890,222.25,90.8084,91.8326,119.821,99.6573,96.7629,0.000689993,0.127202,20.8177,-0.850789,0.285076,0.0,0.0
892,222.75,90.4253,91.9571,122.217,99.6496,96.896,0.000694001,0.127156,20.8177,-0.84078,0.271026,0.0,0.0
894,223.25,90.5754,91.3155,121.28,99.6646,96.7962,0.000694948,0.127119,20.8177,-0.84078,0.282458,0.0,0.0
896,223.75,90.1711,91.1392,120.1,99.6512,96.9809,0.000693799,0.127089,20.8177,-0.870808,0.262717,0.0,0.0
898,224.25,90.0132,90.7252,119.057,99.6723,96.8973,0.000691144,0.127064,20.8178,-0.870808,0.273111,0.0,0.0
900,224.75,90.272,90.6412,115.949,99.6606,96.8262,0.000684523,0.127044,20.8178,-0.880817,0.279064,0.0,0.0
902,225.25,89.4394,90.5543,125.067,99.6622,97.0467,0.000675136,0.126992,20.8173,-0.870808,0.257224,0.0,0.0
904,225.75,88.8132,90.5192,123.09,99.652,96.9695,0.00066434,0.126917,20.817,-0.860799,0.26393,0.0,0.0
906,226.25,89.4733,90.1277,121.069,99.6695,96.7231,0.000652722,0.126856,20.8167,-0.850789,0.290237,0.0,0.0
908,226.75,89.2974,90.399,123.661,99.661,96.6001,0.000642035,0.126862,20.8165,-0.870808,0.301719,0.0,0.0
910,227.25,89.0316,89.8698,120.828,99.6691,96.8567,0.000632229,0.126867,20.8165,-0.870808,0.27685,0.0,0.0
912,227.75,88.79,89.6399,117.844,99.665,96.5172,,0.126857,,-0.880817,0.310408,0.0,0.0
914,228.25,89.0743,88.8464,121.755,99.676,96.8335,,0.126849,,-0.880817,0.27983,0.0,0.0
916,228.75,88.7972,89.4604,116.771,99.6727,96.2777,,0.126842,,-0.860799,0.335192,0.0,0.0
918,229.25,88.9371,89.1003,121.45,99.6687,96.3605,,0.126837,,-0.84078,0.32648,0.0,0.0
920,229.75,88.4413,89.3206,121.156,99.6593,96.9139,,0.126819,,-0.830771,0.270189,0.0,0.0
922,230.25,88.9882,88.944,123.951,99.6687,97.0666,,0.126804,,-0.860799,0.255872,0.0,0.0
924,230.75,88.1976,88.7694,121.726,99.6752,96.6114,,,,-0.850789,0.301959,0.0,0.0
926,231.25,88.0872,88.3254,120.922,99.6833,96.8989,,,,-0.860799,0.274013,0.0,0.0
928,231.75,88.1318,88.6507,121.596,99.6723,96.5522,,,,-0.850789,0.307619,0.0,0.0
930,232.25,87.876,88.489,119.856,99.6736,96.4555,,,,-0.850789,0.317422,0.0,0.0
932,232.75,87.9384,88.5822,120.557,99.689,96.6143,,,,-0.84078,0.303014,0.0,0.0
934,233.25,87.7852,87.6926,124.322,99.6926,97.0117,,,,-0.850789,0.26366,0.0,0.0
936,233.75,87.5904,87.6874,120.99,99.6809,96.6504,,,,-0.850789,0.298609,0.0,0.0
938,234.25,87.7355,87.5856,122.444,99.6849,96.6208,,,,-0.84078,0.301971,0.0,0.0
940,234.75,87.0104,87.4909,120.303,99.6845,96.341,,,,-0.84078,0.329973,0.0,0.0
942,235.25,87.4739,87.6664,121.744,99.6837,96.322,,,,-0.84078,0.33181,0.0,0.0
944,235.75,87.0602,87.3585,120.172,99.693,96.4486,,,,-0.84078,0.320006,0.0,0.0
946,236.25,86.7458,86.8869,122.727,99.6841,96.7413,,,,-0.830771,0.289828,0.0,0.0
948,236.75,86.7925,86.7278,121.783,99.6853,96.4527,,,,-0.84078,0.318849,0.0,0.0
950,237.25,86.7199,87.0916,123.847,99.7142,96.4251,,,,-0.84078,0.324415,0.0,0.0
952,237.75,86.2816,86.4491,120.144,99.687,96.2801,,,,-0.860799,0.336326,0.0,0.0
954,238.25,86.5975,86.5255,120.393,99.7036,96.2895,,,,-0.850789,0.337003,0.0,0.0