File: 01_Data/PP/Cone/PP_Cone_HF50Scan_220203_R2.csv
Names,Time,Stack TC,Smoke TC,Exh Press,Smoke Comp,Smoke Meas,CO Meter,CO2 Meter,O2 Meter,Sample Mass,Ext Coeff,Start Test,Flame Verif
Chan Gain,,500,500,1,1,1,1,1,1,1,1,1.0,1.0
Offset,,0,0,0.14021,0,0,0,0,0,0,0,0.0,0.0
Gain,,1,1,25.011,13.3046,13.3037,1,1,1,1.00093,1.10262,1.0,1.0
Units,sec,C,C,Pa,%,%,%,%,%,g,/m,,
Baseline,,37.5987,38.2422,135.199,100.491,101.969,0.00230897,0.109378,20.8705,-870.913,-0.141012,,
3,0.5,32.8539,33.0219,138.374,100.571,102.791,0.00254762,0.125347,20.8456,28.7867,-0.211238,0.0,0.0
6,1.25,33.3262,33.0235,137.633,100.562,102.75,0.00257461,0.125312,20.8456,28.7267,-0.208277,0.0,0.0
9,2,33.5076,33.3862,136.36,100.563,102.857,0.00260054,0.124932,20.846,28.7667,-0.218168,0.0,0.0
12,2.75,33.3403,33.7343,138.14,100.555,102.046,0.00259614,0.124491,20.8465,28.7667,-0.142406,0.0,0.0
15,3.5,33.4644,33.2217,132.81,100.547,102.628,0.00258301,0.123982,20.8469,28.7367,-0.198173,0.0,0.0
18,4.25,32.8204,33.4634,134.076,100.542,102.79,0.00254897,0.123583,20.8481,28.7567,-0.213858,0.0,0.0
21,5,32.6168,32.7667,132.993,100.529,102.705,0.00250701,0.122999,20.8493,28.7367,-0.207044,0.0,0.0
24,5.75,32.6565,33.3143,132.649,100.53,103.147,0.0024646,0.122363,20.8502,28.7367,-0.248552,0.0,0.0
27,6.5,33.548,33.3277,137.224,100.531,101.834,0.00242597,0.121693,20.8521,28.7267,-0.124486,0.0,0.0
30,7.25,33.3572,33.1849,136.357,100.52,102.275,0.00239956,0.121045,20.8539,28.7267,-0.167406,0.0,0.0
33,8,33.5653,33.5833,135.646,100.51,102.593,0.0023803,0.120448,20.8555,28.7166,-0.198397,0.0,0.0
36,8.75,33.5478,33.777,136.408,100.502,102.779,0.00238547,0.119798,20.8572,28.7066,-0.216733,0.0,0.0
39,9.5,32.8848,32.9897,133.677,100.496,102.75,0.00239537,0.119159,20.8585,28.6966,-0.21453,0.0,0.0
42,10.25,33.8644,33.3925,134.811,100.479,102.938,0.00240519,0.118623,20.8594,28.6766,-0.233849,0.0,0.0
45,11,33.3864,33.5048,136.245,100.482,102.344,0.00240886,0.11788,20.8601,28.6866,-0.177603,0.0,0.0
48,11.75,33.5277,33.5232,137.487,100.473,103.738,0.00241643,0.117338,20.861,28.6966,-0.309333,0.0,0.0
51,12.5,33.7873,33.9175,131.083,100.461,102.163,0.0024292,0.116611,20.8619,28.7166,-0.162507,0.0,0.0
54,13.25,33.3144,33.6304,136.357,100.446,102.91,0.00245543,0.115943,20.8632,28.6966,-0.234382,0.0,0.0
57,14,34.0709,34.3,134.917,100.439,103.035,0.00247519,0.115348,20.8643,28.6966,-0.246792,0.0,0.0
60,14.75,33.5687,34.566,134.151,100.423,102.353,0.00248528,0.114828,20.8648,28.7166,-0.184155,0.0,0.0
63,15.5,33.7965,34.0405,135.168,100.423,102.093,0.00247598,0.114312,20.8657,28.6866,-0.159454,0.0,0.0
66,16.25,33.1949,34.5037,133.31,100.397,102.537,0.00245695,0.113906,20.8666,28.6866,-0.203983,0.0,0.0
69,17,33.6467,34.1769,133.75,100.402,102.07,0.00243206,0.113469,20.8672,28.6866,-0.159295,0.0,0.0
72,17.75,34.0517,34.191,137.242,100.393,102.418,0.00240399,0.113242,20.8677,28.7166,-0.193147,0.0,0.0
75,18.5,33.6798,34.2083,136.369,100.386,102.365,0.00237131,0.112951,20.868,28.7066,-0.188827,0.0,0.0
78,19.25,33.7273,34.2574,135.908,100.36,103.227,0.00234871,0.11269,20.8683,28.7066,-0.272468,0.0,0.0
81,20,33.1681,33.9769,138.111,100.357,102.478,0.00233276,0.11246,20.8689,28.7267,-0.202341,0.0,0.0
84,20.75,34.0824,34.1138,136.163,100.361,102.906,0.00231624,0.112251,20.8697,28.7166,-0.242215,0.0,0.0
87,21.5,33.9712,34.9502,138.62,100.347,103.175,0.0023021,0.112046,20.8706,28.7166,-0.268851,0.0,0.0
90,22.25,33.7679,34.3893,138.626,100.331,101.898,0.00229547,0.111835,20.8712,28.7166,-0.149893,0.0,0.0
93,23,33.6659,34.2559,136.575,100.325,103.044,0.0022922,0.11168,20.8717,28.6966,-0.258664,0.0,0.0
96,23.75,33.9491,34.3414,134.77,100.314,102.925,0.00232474,0.111412,20.872,28.7166,-0.248548,0.0,0.0
99,24.5,34.5181,34.4837,136.444,100.307,101.376,0.00236561,0.111161,20.8723,28.6966,-0.102517,0.0,0.0
102,25.25,34.0854,34.3803,136.475,100.286,101.373,0.00240917,0.110956,20.8724,28.6866,-0.104204,0.0,0.0
105,26,34.0808,34.2769,134.677,100.272,101.827,0.00245195,0.110786,20.8726,28.6866,-0.148824,0.0,0.0
108,26.75,34.1615,35.2735,138.651,100.278,101.519,0.00250587,0.110641,20.8727,28.6966,-0.118961,0.0,0.0
111,27.5,33.8882,34.5545,140.094,100.263,100.671,0.00256481,0.110498,20.8725,28.6166,-0.0393443,0.0,0.0
114,28.25,34.6203,34.312,135.583,100.241,101.135,0.00261614,0.110476,20.872,28.6866,-0.085865,0.0,0.0
117,29,34.4477,35.1017,133.863,100.231,101.074,0.00268857,0.110668,20.8707,28.6666,-0.0809786,0.0,0.0
120,29.75,34.3141,35.2688,138.737,100.209,100.955,0.00274977,0.111392,20.8694,28.6566,-0.0717832,0.0,0.0
123,30.5,33.9485,34.8543,134.038,100.209,100.932,0.00280875,0.112413,20.8672,28.6766,-0.0695264,0.0,0.0
126,31.25,34.0802,34.9889,137.244,100.197,100.515,0.00287979,0.114311,20.8638,28.6266,-0.0307025,0.0,0.0
129,32,34.6002,35.3109,131.872,100.181,100.533,0.00294192,0.116186,20.8592,28.5965,-0.0339498,0.0,1.0
132,32.75,34.5402,35.3587,130.831,100.166,102.173,0.00302729,0.120485,20.8509,28.6065,-0.191891,0.0,1.0
135,33.5,34.653,35.4938,127.328,100.146,101.636,0.00311277,0.126384,20.8423,28.6166,-0.142792,0.0,1.0
138,34.25,34.7402,35.8305,130.939,100.13,100.46,0.00319602,0.133397,20.8316,28.5265,-0.0318962,0.0,1.0
141,35,35.0024,35.8892,126.963,100.104,100.832,0.00326563,0.13882,20.8185,28.5665,-0.0700665,0.0,1.0
144,35.75,35.4475,36.4386,136.041,100.094,100.811,0.00333238,0.148282,20.8067,28.5465,-0.0690619,0.0,1.0
147,36.5,35.3123,37.0189,126.212,100.091,100.252,0.003395,0.159113,20.7904,28.4964,-0.0156283,0.0,1.0
150,37.25,35.809,37.0831,133.262,100.065,98.9284,0.00345286,0.168104,20.7706,28.4364,0.110483,0.0,1.0
153,38,36.1897,37.4587,129.279,100.046,97.2935,0.00353195,0.18223,20.7472,28.4564,0.26982,0.0,0.0
156,38.75,36.5443,37.6639,125.423,100.028,95.8957,0.00364021,0.195193,20.7205,28.3963,0.408101,0.0,0.0
159,39.5,36.8724,38.7553,124.933,100.034,95.7909,0.00378495,0.209201,20.6884,28.3763,0.419182,0.0,0.0
162,40.25,37.1094,38.8692,124.525,100.013,92.9587,0.00396613,0.22383,20.6605,28.2963,0.707504,0.0,0.0
165,41,37.0615,38.9079,122.269,99.9947,91.785,0.00425733,0.240618,20.6327,28.2862,0.828599,0.0,0.0
168,41.75,38.3545,40.0677,121.468,99.9659,90.4143,0.00446962,0.256917,20.6052,28.2662,0.971334,0.0,0.0
171,42.5,38.1716,40.4987,125.832,99.9529,90.1289,0.00485151,0.272648,20.5822,28.2362,1.00066,0.0,0.0
174,43.25,39.146,41.4248,120.771,99.9423,88.794,0.00512991,0.290337,20.5574,28.1661,1.14396,0.0,0.0
177,44,40.0665,42.3868,123.575,99.9107,89.2808,0.00559133,0.303232,20.5314,28.1161,1.08802,0.0,0.0
180,44.75,40.542,43.1349,119.523,99.8952,86.6625,0.0060103,0.322225,20.5045,28.1161,1.37441,0.0,0.0
183,45.5,40.382,43.3789,122.579,99.8904,84.7921,0.00645695,0.33607,20.4697,28.066,1.58498,0.0,0.0
186,46.25,41.5886,44.8035,113.448,99.8766,83.2554,0.00695329,0.351343,20.439,28.006,1.76054,0.0,0.0
189,47,42.1793,45.9995,116.288,99.8559,84.9301,0.00741367,0.371332,20.4006,27.9659,1.5659,0.0,0.0
192,47.75,43.1314,46.6284,116.92,99.8266,83.5067,0.0077913,0.392093,20.3611,27.9059,1.72655,0.0,0.0
195,48.5,44.1021,47.668,110.374,99.8197,82.9529,0.00818764,0.412544,20.3164,27.8258,1.79023,0.0,0.0
198,49.25,43.6371,47.9853,112.299,99.8047,83.0138,0.00853939,0.43203,20.2839,27.7958,1.78168,0.0,0.0
201,50,45.7272,50.2201,118.542,99.8051,81.9172,0.00890325,0.453015,20.2481,27.6857,1.91034,0.0,0.0
204,50.75,46.2045,50.8208,122.675,99.7698,81.0301,0.00931201,0.47293,20.2178,27.6857,2.01222,0.0,0.0
207,51.5,46.6298,51.6707,111.484,99.7539,79.7602,0.00967116,0.489418,20.1885,27.5756,2.16348,0.0,0.0
210,52.25,47.7282,53.1254,119.167,99.741,80.845,0.0100376,0.509501,20.1558,27.5155,2.03155,0.0,0.0
213,53,48.5764,54.0458,113.935,99.7292,80.3225,0.0104234,0.527207,20.1195,27.5055,2.09313,0.0,0.0
216,53.75,49.0904,54.7963,108.339,99.7077,78.4338,0.0107958,0.545357,20.0829,27.3554,2.32118,0.0,0.0
219,54.5,50.3152,56.5126,113.574,99.6939,78.4935,0.0111561,0.566105,20.0477,27.2553,2.31249,0.0,0.0
222,55.25,51.4445,57.5058,109.929,99.691,77.5763,0.0115045,0.586225,20.0089,27.1452,2.42589,0.0,0.0
225,56,52.5544,59.5696,114.051,99.6825,77.2556,0.0118427,0.605675,19.9805,27.1452,2.46513,0.0,0.0
228,56.75,53.408,60.7612,111.523,99.6654,77.4249,0.0121165,0.624389,19.9571,27.0551,2.44231,0.0,0.0
231,57.5,54.0853,62.0344,113.065,99.6378,74.7462,0.0125287,0.645138,19.9257,26.985,2.78019,0.0,0.0
234,58.25,55.2789,62.9449,114.11,99.6415,75.6714,0.012911,0.660264,19.8893,26.8749,2.66155,0.0,0.0
237,59,56.4032,64.186,109.11,99.6187,76.2475,0.0132911,0.68133,19.8528,26.7849,2.58599,0.0,0.0
240,59.75,57.6008,66,104.088,99.6066,74.6934,0.0136221,0.695065,19.8156,26.7448,2.78399,0.0,0.0
243,60.5,58.052,66.7432,107.606,99.5859,75.7128,0.0139599,0.714745,19.7804,26.6047,2.65086,0.0,0.0
246,61.25,59.3713,68.5463,105.934,99.5911,76.4931,0.0142501,0.734816,19.7487,26.5346,2.5522,0.0,0.0
249,62,60.3207,70.2064,103.49,99.5761,74.7766,0.0145368,0.753597,19.7155,26.4646,2.77026,0.0,0.0
252,62.75,61.4067,71.1521,110.517,99.5578,73.9094,0.0148002,0.771557,19.6913,26.3444,2.88131,0.0,0.0
255,63.5,61.8003,72.1445,103.563,99.5351,73.8838,0.0150851,0.788921,19.6616,26.2644,2.88245,0.0,0.0
258,64.25,63.3638,73.9267,107.592,99.5351,74.2549,0.0154012,0.809174,19.6351,26.1142,2.83399,0.0,0.0
261,65,64.0488,75.2956,102.362,99.5233,73.5018,0.0157209,0.823939,19.6073,26.1142,2.93145,0.0,0.0
264,65.75,65.1579,76.7598,93.0498,99.5087,73.0621,0.015992,0.846057,19.5811,26.0241,2.98806,0.0,0.0
267,66.5,66.832,78.7189,102.898,99.4921,72.0382,0.0161896,0.86592,19.5515,25.9241,3.12295,0.0,0.0
270,67.25,67.6868,80.5139,97.2127,99.4843,73.3024,0.0166419,0.886791,19.5175,25.814,2.95392,0.0,0.0
273,68,68.7531,81.6815,101.347,99.4754,69.9449,0.0171305,0.908848,19.4827,25.6238,3.40655,0.0,0.0
276,68.75,69.8258,82.9691,110.809,99.4734,70.2567,0.0176356,0.924928,19.4494,25.5837,3.36333,0.0,0.0
279,69.5,71.013,84.6362,100.682,99.4547,71.2688,0.0181425,0.945738,19.4086,25.4836,3.22317,0.0,0.0
282,70.25,71.2393,85.8058,101.047,99.4498,71.1925,0.0186371,0.968777,19.3788,25.3836,3.23306,0.0,0.0
285,71,72.8556,87.6483,95.0198,99.4531,68.4082,0.0192116,0.992405,19.3325,25.1734,3.61924,0.0,0.0
288,71.75,74.6399,89.8544,102.991,99.4551,70.8214,0.0198869,1.02074,19.2909,25.1033,3.28412,0.0,0.0
291,72.5,75.6849,91.5028,93.562,99.4344,69.5295,0.0204821,1.04606,19.2475,24.9532,3.46016,0.0,0.0
294,73.25,76.9917,93.0552,90.6936,99.4462,68.9518,0.0210919,1.0725,19.1987,24.8831,3.54201,0.0,0.0
297,74,78.103,94.8412,91.6072,99.4429,68.0777,0.0217739,1.09653,19.1463,24.8631,3.66509,0.0,0.0
300,74.75,79.1513,96.3662,91.7499,99.4348,66.4862,0.022471,1.12217,19.0929,24.6629,3.8931,0.0,0.0
303,75.5,80.3707,98.759,97.215,99.4255,67.7756,0.0230644,1.14903,19.0404,24.4827,3.70641,0.0,0.0
306,76.25,82.2955,100.838,85.8483,99.421,65.103,0.0238617,1.17638,18.987,24.3226,4.09511,0.0,0.0
309,77,83.0919,102.302,88.9121,99.4259,65.729,0.0244429,1.20847,18.9417,24.2825,4.00302,0.0,0.0
312,77.75,84.5241,104.212,91.9141,99.4295,65.2312,0.0253654,1.24008,18.8935,24.1524,4.07689,0.0,0.0
315,78.5,86.4565,106.851,96.2319,99.4251,64.1481,0.0262806,1.27747,18.8433,23.9422,4.23842,0.0,0.0
318,79.25,87.2091,108.292,88.2755,99.419,63.1018,0.0271848,1.30472,18.7919,23.7821,4.39688,0.0,0.0
321,80,89.1171,110.705,92.3674,99.4316,62.0592,0.0280724,1.34502,18.7241,23.6319,4.55924,0.0,0.0
324,80.75,90.7532,113.276,86.375,99.4287,61.0081,0.0291398,1.3744,18.6453,23.4417,4.72419,0.0,0.0
327,81.5,91.6556,114.77,95.9426,99.4307,58.4702,0.0300868,1.41746,18.5754,23.3817,5.13535,0.0,0.0
330,82.25,93.7419,117.665,88.9861,99.432,64.0932,0.031066,1.46724,18.4921,23.2316,4.24736,0.0,0.0
333,83,95.484,120.442,79.6864,99.447,63.1623,0.0322816,1.51097,18.4083,22.9913,4.39034,0.0,0.0
336,83.75,97.3331,122.857,71.688,99.4482,60.2119,0.0331678,1.55556,18.3373,22.8812,4.85314,0.0,0.0
339,84.5,98.4249,124.79,83.1982,99.4515,57.6862,0.0341241,1.60644,18.2894,22.7011,5.26792,0.0,0.0
342,85.25,100.648,127.918,85.9597,99.4417,59.8672,0.0354508,1.6585,18.219,22.4909,4.90804,0.0,0.0
345,86,102.529,130.718,81.5053,99.4535,56.6968,0.0367974,1.70283,18.1373,22.4008,5.43545,0.0,0.0
348,86.75,104.328,133.364,83.834,99.464,55.4033,0.0385379,1.75933,18.0515,22.2206,5.6597,0.0,0.0
351,87.5,106.025,135.981,85.4316,99.4714,59.3228,0.0400256,1.78821,17.9589,21.9303,4.99928,0.0,0.0
354,88.25,107.37,138.613,70.8553,99.4746,58.0878,0.0417035,1.84974,17.8592,21.7802,5.20308,0.0,0.0
357,89,110.109,142.26,79.5719,99.4758,58.7426,0.0433017,1.90974,17.7722,21.57,5.09477,0.0,0.0
360,89.75,110.212,143.79,76.5211,99.4904,57.3785,0.0444667,1.95994,17.6609,21.4099,5.32345,0.0,0.0
363,90.5,113.944,148.173,82.3098,99.5018,57.7427,0.0461655,2.01919,17.5954,21.1796,5.26336,0.0,0.0
366,91.25,115.978,151.546,90.876,99.5055,53.6238,0.0476499,2.07464,17.5198,21.0796,5.97948,0.0,0.0
369,92,117.12,153.495,70.6278,99.5156,58.3801,0.049153,2.12029,17.4375,20.7392,5.15852,0.0,0.0
372,92.75,118.561,155.673,72.2002,99.5225,56.3797,0.0507739,2.19354,17.3645,20.6191,5.49641,0.0,0.0
375,93.5,121.374,159.541,78.0721,99.5343,55.7505,0.0522037,2.22469,17.2894,20.3189,5.60611,0.0,0.0
378,94.25,123.334,162.861,81.7228,99.5485,56.4788,0.0536704,2.28789,17.1826,20.2188,5.48195,0.0,0.0
381,95,125.424,166.191,69.3264,99.5452,53.6884,0.0553196,2.35844,17.0608,19.9685,5.97171,0.0,0.0
384,95.75,127.86,169.631,68.4006,99.57,55.6035,0.0570751,2.4203,16.9312,19.7583,5.63512,0.0,0.0
387,96.5,130.409,173.689,74.8266,99.5761,54.2211,0.0587734,2.50126,16.7992,19.6282,5.87922,0.0,0.0
390,97.25,131.984,176.509,65.1834,99.5806,56.1345,0.0601899,2.57919,16.6617,19.2779,5.54421,0.0,0.0
393,98,134.228,179.904,64.9689,99.5842,55.0761,0.061562,2.65401,16.5461,19.0277,5.72867,0.0,0.0
396,98.75,136.472,183.297,70.9118,99.5952,55.2998,0.0631428,2.72557,16.4354,18.8475,5.69053,0.0,0.0
399,99.5,138.406,187.016,58.0147,99.6062,57.2457,0.0649082,2.80862,16.3185,18.5072,5.3571,0.0,0.0
402,100.25,141.099,191.418,73.1413,99.6196,57.1824,0.066599,2.88418,16.1978,18.3771,5.36911,0.0,0.0
405,101,143.259,195.349,87.5122,99.626,55.7805,0.06821,2.96494,16.0754,18.1068,5.60982,0.0,0.0
408,101.75,145.564,198.623,60.2794,99.6313,54.8016,0.0697374,3.04697,15.9298,17.8766,5.78156,0.0,0.0
411,102.5,146.869,201.409,62.0051,99.6354,55.2795,0.0714606,3.12757,15.7889,17.4462,5.69799,0.0,0.0
414,103.25,150.446,206.766,75.9685,99.6508,51.0299,0.0731054,3.20501,15.6523,17.4061,6.47315,0.0,0.0
417,104,152.538,210.294,70.8713,99.6577,57.4853,0.0744703,3.29516,15.5199,17.0959,5.32172,0.0,0.0
420,104.75,154.827,214.272,69.2578,99.6569,56.5738,0.0760188,3.38422,15.4052,16.8656,5.47622,0.0,0.0
423,105.5,157.325,218.539,66.1024,99.6772,56.2961,0.0775138,3.47082,15.2903,16.6054,5.52579,0.0,0.0
426,106.25,159.34,221.851,45.8099,99.687,52.878,0.0788261,3.55398,15.1571,16.195,6.13257,0.0,0.0
429,107,161.988,225.862,53.6305,99.6906,57.698,0.0800102,3.63052,15.0183,15.8947,5.28918,0.0,0.0
432,107.75,164.273,229.936,56.3134,99.6971,59.944,0.0811524,3.71351,14.8992,15.6846,4.92045,0.0,0.0
435,108.5,166.663,234.14,47.9448,99.6991,61.2996,0.0822964,3.81761,14.7408,15.3442,4.70436,0.0,0.0
438,109.25,169.006,238.238,56.9385,99.7316,57.8917,0.0837331,3.91009,14.5738,15.104,5.26075,0.0,0.0
441,110,171.775,243.547,56.7607,99.7174,54.6668,0.0852869,4.00588,14.4076,14.7036,5.81374,0.0,0.0
444,110.75,174.194,247.416,65.072,99.7227,58.0183,0.0866355,4.10821,14.248,14.4134,5.23874,0.0,0.0
447,111.5,176.492,251.238,54.1228,99.7349,54.9644,0.0882714,4.2197,14.1317,14.1431,5.76292,0.0,0.0
450,112.25,179.53,255.555,94.7443,99.7345,56.2364,0.0897422,4.31079,14.0038,13.9329,5.5416,0.0,0.0
453,113,180.709,258.379,83.8104,99.7365,56.3278,0.0913439,4.4057,13.8762,13.6627,5.5261,0.0,0.0
456,113.75,182.819,261.501,69.1043,99.7385,58.115,0.0927373,4.49536,13.7559,13.2923,5.22418,0.0,0.0
459,114.5,184.972,265.012,59.2474,99.7389,52.2029,0.0940825,4.56945,13.6423,12.8019,6.2619,0.0,0.0
462,115.25,186.937,268.263,69.8226,99.7414,57.5316,0.0950871,4.62346,13.5261,12.4816,5.32205,0.0,0.0
465,116,188.524,271.43,60.49,99.7556,59.8023,0.0957755,4.71373,13.4029,12.3414,4.94901,0.0,0.0
468,116.75,191.426,275.787,67.9762,99.7519,58.0423,0.0961848,4.81179,13.2205,12.0312,5.23758,0.0,0.0
471,117.5,193.827,280.419,43.7995,99.76,67.6749,0.0963238,4.89703,13.0315,11.6408,3.75328,0.0,0.0
474,118.25,195.765,284.799,86.0834,99.7572,57.5494,0.0963572,5.01584,12.8698,11.3205,5.32058,0.0,0.0
477,119,198.476,288.656,65.2643,99.7629,61.27,0.096227,5.13174,12.6866,10.9101,4.71521,0.0,0.0
480,119.75,201.002,292.538,54.683,99.7592,58.7625,0.0958679,5.2409,12.5215,10.74,5.11901,0.0,0.0
483,120.5,203.383,296.586,61.9379,99.7657,60.8161,0.0954687,5.34128,12.3633,10.1494,4.78741,0.0,0.0
486,121.25,205.27,299.79,43.6514,99.758,70.2461,0.0950871,5.43946,12.2064,9.83913,3.39242,0.0,0.0
489,122,208.123,305.29,63.2951,99.769,54.852,0.0947036,5.55379,12.0248,9.51883,5.78604,0.0,0.0
492,122.75,210.65,309.829,72.9604,99.7706,61.8164,0.0943101,5.71907,11.7926,9.22856,4.63008,0.0,0.0
495,123.5,213.096,314.086,37.4773,99.7686,65.9389,0.0937814,5.8798,11.5629,8.9483,4.00546,0.0,0.0
498,124.25,215.662,318.664,44.0262,99.7653,67.07,0.0932467,6.01413,11.3437,8.58797,3.84064,0.0,0.0
501,125,218.585,323.283,35.1531,99.76,68.7825,0.0927933,6.16059,11.1615,8.12754,3.59627,0.0,0.0
504,125.75,220.494,326.87,57.2377,99.7515,64.4513,0.0925346,6.29096,10.9902,7.66711,4.2245,0.0,0.0
507,126.5,223.101,330.842,42.792,99.7462,70.141,0.0925514,6.41055,10.8356,7.50696,3.40577,0.0,0.0
510,127.25,224.636,334.166,65.13,99.7487,56.2056,0.0928623,6.5039,10.6998,7.03653,5.54829,0.0,0.0
513,128,227.375,337.886,57.3049,99.7446,58.8031,0.0934997,6.58506,10.5832,6.73625,5.11091,0.0,0.0
516,128.75,229.893,342.152,56.0523,99.745,60.4389,0.0941395,6.64982,10.4747,6.45599,4.84557,0.0,0.0
519,129.5,230.33,343.898,44.2223,99.7393,67.3213,0.095242,6.71337,10.3762,6.05562,3.80194,0.0,0.0
522,130.25,233.001,347.737,67.6053,99.7385,56.9132,0.0963467,6.7641,10.2885,5.4951,5.42629,0.0,0.0
525,131,234.76,350.696,54.1594,99.7442,68.1747,0.0974054,6.80296,10.2246,5.16479,3.68058,0.0,0.0
528,131.75,236.598,353.452,58.188,99.7361,69.0894,0.0983911,6.8314,10.178,4.86451,3.55088,0.0,0.0
531,132.5,237.043,355.186,41.0395,99.7385,63.9747,0.0992589,6.85066,10.144,4.57424,4.29504,0.0,0.0
534,133.25,240.136,358.693,67.0725,99.7324,59.89,0.100147,6.85811,10.1224,4.33402,4.9326,0.0,0.0
537,134,241.464,360.602,54.9242,99.7288,67.0773,0.100952,6.85663,10.1079,3.90362,3.83604,0.0,0.0
540,134.75,242.882,363.186,71.1278,99.7223,56.9002,0.101539,6.84381,10.1041,3.70344,5.42692,0.0,0.0
543,135.5,244.134,364.645,60.5625,99.7178,63.2455,0.101972,6.82946,10.113,3.15293,4.4039,0.0,0.0
546,136.25,245.468,366.511,60.4175,99.7113,66.9819,0.10227,6.80214,10.1429,3.13291,3.84811,0.0,0.0
549,137,245.926,367.409,55.6455,99.7097,63.2467,0.102456,6.77205,10.1855,2.57239,4.40293,0.0,0.0
552,137.75,247.485,368.981,48.1204,99.7044,58.0017,0.102582,6.73269,10.2255,2.34217,5.23974,0.0,0.0
555,138.5,247.98,369.253,58.4109,99.691,55.9559,0.102638,6.66782,10.334,2.20204,5.58576,0.0,0.0
558,139.25,247.046,367.707,62.2959,99.6845,54.761,0.102663,6.55865,10.4131,1.93179,5.7939,0.0,0.0
561,140,247.904,368.32,61.7197,99.6796,53.9641,0.102473,6.42113,10.6344,1.54143,5.93522,0.0,0.0
564,140.75,246.905,366.463,63.7752,99.6707,53.649,0.101977,6.26107,10.898,1.34124,5.99099,0.0,0.0
567,141.5,247.852,366.078,57.2469,99.6614,54.4448,0.100615,6.08434,11.1837,1.12104,5.84767,0.0,0.0
570,142.25,248.244,365.335,68.7113,99.6671,53.3096,0.0985953,5.86524,11.4772,0.910845,6.05202,0.0,0.0
573,143,246.964,362.428,80.0352,99.6492,53.515,0.096013,5.66704,11.9037,0.800743,6.01308,0.0,0.0
576,143.75,245.608,359.318,73.0123,99.6573,52.7566,0.093887,5.43078,12.2006,0.640594,6.15192,0.0,0.0
579,144.5,244.482,356.438,71.6247,99.6395,54.8495,0.0893586,5.18095,12.6448,0.450418,5.7739,0.0,0.0
582,145.25,242.562,352.576,85.2346,99.6216,55.3676,0.0851113,4.93304,13.14,0.290269,5.68124,0.0,0.0
585,146,239.798,348.025,76.6119,99.6216,57.8129,0.0803971,4.64355,13.5009,0.200186,5.26324,0.0,0.0
588,146.75,238.526,344.347,83.3669,99.5936,61.7165,0.0755442,4.42459,13.9328,0.160149,4.62854,0.0,0.0
591,147.5,236.828,340.44,91.3706,99.5968,64.874,0.0695846,4.13155,14.3101,0.070065,4.14627,0.0,0.0
594,148.25,234.061,335.111,91.4553,99.5972,68.7399,0.0628692,3.84941,14.6921,0.0300279,3.58647,0.0,0.0
597,149,231.261,329.623,104.724,99.6005,75.1798,0.057142,3.54345,15.1647,-0.0200186,2.72062,0.0,0.0
600,149.75,227.055,323.041,103.707,99.5879,79.4825,0.0515448,3.27765,15.6075,-0.0300279,2.1811,0.0,0.0
603,150.5,223.913,317.319,110.178,99.5696,87.3657,0.0460167,2.97649,16.0984,-0.0200186,1.26467,0.0,0.0
606,151.25,219.685,309.944,113.783,99.5757,91.9421,0.0407608,2.67292,16.6029,-0.0300279,0.771441,0.0,0.0
609,152,215.869,303.688,118.936,99.5716,95.4876,0.0358886,2.38622,17.0932,-0.0400371,0.405074,0.0,0.0
612,152.75,212.163,296.984,117.218,99.5684,97.1303,0.0311667,2.11443,17.553,-0.0200186,0.239785,0.0,0.0
615,153.5,207.674,290.192,120.999,99.5554,97.4721,0.0277244,1.86629,17.9776,-0.0200186,0.204543,0.0,0.0
618,154.25,202.825,283.193,119.4,99.5404,97.4945,0.0239735,1.64568,18.3253,-0.0300279,0.200868,0.0,0.0
621,155,199.595,278.062,121.693,99.5522,97.7596,0.020784,1.4471,18.6796,-0.0200186,0.175747,0.0,0.0
624,155.75,196.146,271.918,121.375,99.5363,97.898,0.0181036,1.28624,18.9859,-0.0200186,0.160519,0.0,0.0
627,156.5,191.559,265.032,118.027,99.5278,98.1668,0.0158737,1.12508,19.2534,0,0.133173,0.0,0.0
630,157.25,189.387,260.773,118.866,99.516,97.4839,0.0139631,0.995117,19.4888,0,0.199546,0.0,0.0
633,158,185.926,255.129,122.233,99.5022,97.4941,0.0124487,0.879053,19.6786,-0.0100093,0.197199,0.0,0.0
636,158.75,182.914,250.435,118.252,99.5059,97.7604,0.0110541,0.77432,19.8482,0,0.171168,0.0,0.0
639,159.5,179.473,244.537,119.673,99.5022,97.8168,0.009836,0.687275,19.9988,-0.0100093,0.16523,0.0,0.0
642,160.25,176.742,240.13,120.709,99.4795,97.818,0.0088152,0.61926,20.1085,0.0100093,0.162901,0.0,0.0
645,161,173.642,235.636,119.002,99.4843,97.4648,0.00807103,0.554905,20.2145,0.0100093,0.198362,0.0,0.0
648,161.75,170.131,231.051,123.282,99.4904,97.5952,0.00728169,0.50799,20.2995,0.0100093,0.186031,0.0,0.0
651,162.5,168.726,226.729,123.169,99.4795,97.6784,0.00665412,0.458242,20.3746,0.0100093,0.17672,0.0,0.0
654,163.25,165.378,222.353,120.698,99.4665,97.1234,0.00630081,0.418192,20.4259,0.0300279,0.230568,0.0,0.0
657,164,162.884,218.022,122.133,99.4616,97.2947,0.00587086,0.382525,20.4901,0.0200186,0.213048,0.0,0.0
660,164.75,160.308,214.564,122.483,99.4624,97.4275,0.00550971,0.351338,20.5453,0,0.199937,0.0,0.0
663,165.5,157.868,210.369,123.392,99.4555,97.086,0.00519877,0.324606,20.5951,0.0400371,0.233224,0.0,0.0
666,166.25,156.092,206.744,122.379,99.4498,97.2838,0.00489275,0.308801,20.6354,0.0300279,0.212992,0.0,0.0
669,167,153.479,202.71,120.896,99.4515,97.2302,0.00466966,0.287802,20.6664,0.0300279,0.21848,0.0,0.0
672,167.75,151.701,200.153,122.988,99.4506,97.3102,0.00443914,0.26896,20.6909,0.0100093,0.210447,0.0,0.0
675,168.5,149.453,196.197,121.857,99.4478,96.8323,0.00422595,0.253065,20.712,0.0100093,0.257785,0.0,0.0
678,169.25,147.588,193.096,120.008,99.4307,97.257,0.0040428,0.239508,20.7312,0,0.2138,0.0,0.0
681,170,145.628,189.612,124.48,99.4377,97.2655,0.00386888,0.227425,20.7478,0.0100093,0.213624,0.0,0.0
684,170.75,143.88,186.823,124.188,99.449,97.4015,0.00372784,0.217679,20.7611,0.0200186,0.201214,0.0,0.0
687,171.5,141.862,183.184,120.509,99.4368,97.8928,0.00360066,0.20764,20.7746,0.0100093,0.15137,0.0,0.0
690,172.25,140.795,180.63,122.475,99.4299,97.5091,0.0034869,0.199501,20.7862,0.0200186,0.188681,0.0,0.0
693,173,138.136,177.658,125.851,99.4287,97.4587,0.00339905,0.192161,20.7959,0.0100093,0.193557,0.0,0.0
696,173.75,136.69,175.397,118.287,99.4344,97.4864,0.00333291,0.185217,20.8037,0.0100093,0.19137,0.0,0.0
699,174.5,135.349,172.162,121.133,99.4328,96.9565,0.00329207,0.17893,20.8102,0,0.243923,0.0,0.0
702,175.25,133.821,169.692,122.354,99.432,97.0219,0.00326674,0.173329,20.8161,0.0200186,0.237325,0.0,0.0
705,176,132.093,167.376,127.017,99.4275,96.9301,0.00325048,0.168399,20.821,-0.0100093,0.246042,0.0,0.0
708,176.75,131.199,165.162,121.095,99.4401,97.2204,0.00322511,0.163882,20.825,0.0200186,0.218344,0.0,0.0
711,177.5,129.299,162.381,120.396,99.4312,96.8372,0.00320085,0.160195,20.8288,0.0100093,0.255679,0.0,0.0
714,178.25,127.632,160.282,121.635,99.434,97.1335,0.00311832,0.156641,20.8328,0,0.226398,0.0,0.0
717,179,126.578,158.008,120.61,99.432,97.1782,0.00301399,0.153366,20.836,0,0.221755,0.0,0.0
720,179.75,125.933,155.961,118.724,99.4389,97.5087,0.00289781,0.15044,20.8387,0.0100093,0.18959,0.0,0.0
723,180.5,124.239,153.635,124.881,99.4539,96.7734,0.00277671,0.147493,20.8413,-0.0100093,0.264259,0.0,0.0
726,181.25,123.073,151.865,122.211,99.4442,96.9983,0.00267361,0.145046,20.8432,-0.0100093,0.240857,0.0,0.0
729,182,121.016,149.171,122.45,99.4494,96.8851,0.0025731,0.142749,20.8448,-0.0100093,0.252672,0.0,0.0
732,182.75,120.076,146.792,122.656,99.4563,96.8834,0.00250241,0.140482,20.8464,0.0100093,0.253506,0.0,0.0
735,183.5,119.427,145.665,123.671,99.4722,96.8652,0.00245528,0.13861,20.8465,0.0200186,0.256869,0.0,0.0
738,184.25,118.075,144.187,122.545,99.4665,97.5103,0.00244712,0.136872,20.8471,0.0100093,0.192114,0.0,0.0
741,185,117.509,142.128,122.292,99.4709,97.2022,0.00245149,0.135605,20.8477,0.0100093,0.223162,0.0,0.0
744,185.75,116.587,140.685,124.61,99.4677,96.5379,0.00247231,0.134128,20.8482,0,0.289165,0.0,0.0
747,186.5,114.884,138.496,125.453,99.486,96.6419,0.00250847,0.132685,20.8489,0.0100093,0.280533,0.0,0.0
750,187.25,114.328,137.005,122.976,99.4815,96.9541,0.00254465,0.131409,20.8499,0.0400371,0.248903,0.0,0.0
753,188,113.534,135.265,122.197,99.4904,96.6878,0.0025752,0.130144,20.851,0.0300279,0.276378,0.0,0.0
756,188.75,112.145,133.553,124.291,99.4925,96.9687,0.00259992,0.129043,20.8519,0.0100093,0.248512,0.0,0.0
759,189.5,111.744,132.24,123.195,99.5018,96.7219,0.00261705,0.128076,20.8525,0.0100093,0.274072,0.0,0.0
762,190.25,109.97,130.401,122.398,99.5071,96.7742,0.00262623,0.127223,20.8529,0.0200186,0.269349,0.0,0.0
765,191,109.822,129.33,123.421,99.5071,96.8152,0.00261369,0.126435,20.8536,0,0.265252,0.0,0.0
768,191.75,108.752,127.837,126.655,99.5103,96.7905,0.00259422,0.125791,20.8544,-0.0100093,0.268042,0.0,0.0
771,192.5,107.796,126.464,122.42,99.5412,96.3881,0.00256239,0.125125,20.8549,0.0100093,0.31133,0.0,0.0
774,193.25,106.582,124.63,123.898,99.5339,96.8603,0.00252345,0.124529,20.8553,0.0100093,0.263356,0.0,0.0
777,194,106.76,123.816,122.892,99.5298,96.663,0.00249752,0.124018,20.8556,-0.0100093,0.282683,0.0,0.0
780,194.75,106.144,122.353,121.764,99.544,96.5972,0.00247966,0.123597,20.8558,0,0.290648,0.0,0.0
783,195.5,104.785,121.184,122.498,99.5696,96.4929,0.00246909,0.123124,20.856,0,0.303585,0.0,0.0
786,196.25,104.063,120.213,121.398,99.5566,96.5042,0.00246372,0.122637,20.8561,0.0100093,0.301184,0.0,0.0
789,197,103.576,119.306,126.912,99.572,96.6938,0.00246201,0.122158,20.8562,0,0.283699,0.0,0.0
792,197.75,102.539,117.825,119.22,99.5806,97.0154,0.00247474,0.121712,20.8562,-0.0200186,0.252417,0.0,0.0
795,198.5,102.316,116.589,123.436,99.5879,96.9111,0.00249499,0.121347,20.8563,-0.0100093,0.263535,0.0,0.0
798,199.25,101.254,115.8,127.087,99.6021,96.9171,0.0025285,0.120942,20.8569,-0.0100093,0.264307,0.0,0.0
801,200,100.7,114.153,127.592,99.6049,96.309,0.00257217,0.120553,20.8574,-0.0100093,0.325469,0.0,0.0
804,200.75,99.754,113.395,122.996,99.6025,96.743,0.00260769,0.120207,20.8578,-0.0100093,0.281744,0.0,0.0
807,201.5,99.081,112.639,122.414,99.6191,96.4787,0.00263515,0.119936,20.858,0.0100093,0.309822,0.0,0.0
810,202.25,98.7874,111.298,124.095,99.6265,96.2874,0.00264045,0.119702,20.8582,0,0.32972,0.0,0.0
813,203,98.1092,110.256,122.159,99.635,96.87,0.00263804,0.119447,20.8584,0,0.272201,0.0,0.0
816,203.75,97.0415,109.134,123.043,99.6528,96.4125,0.00260482,0.119225,20.8585,-0.0100093,0.319729,0.0,0.0
819,204.5,96.8918,108.466,123.672,99.6443,96.3711,0.00255732,0.119008,20.8585,0,0.323057,0.0,0.0
822,205.25,96.4748,107.305,126.796,99.6512,96.7953,0.00251277,0.118826,20.8586,0,0.281239,0.0,0.0
825,206,95.686,106.707,124.717,99.6577,96.6423,0.00245092,0.118584,20.8588,0,0.297176,0.0,0.0
828,206.75,94.9559,105.489,123.626,99.6565,96.5038,0.00238236,0.118367,20.8591,-0.0200186,0.310924,0.0,0.0
831,207.5,94.9171,104.326,123.677,99.6809,96.542,0.0023098,0.118222,20.8594,-0.0200186,0.309463,0.0,0.0
834,208.25,94.1532,104.765,122.596,99.6894,96.4547,0.00225031,0.118058,20.8596,0,0.31904,0.0,0.0
837,209,93.5647,102.963,121.611,99.6971,96.2533,0.00220693,0.11784,20.8597,-0.0100093,0.340003,0.0,0.0
840,209.75,93.3858,102.112,121.789,99.6882,96.3548,0.00222591,0.117603,20.8598,0.0100093,0.328942,0.0,0.0
843,210.5,92.7281,100.956,124.071,99.7064,96.2732,0.00227648,0.117402,20.8601,0,0.33891,0.0,0.0
846,211.25,92.3662,101.209,124.862,99.7194,96.5063,0.00233932,0.117216,20.8608,0.0100093,0.316786,0.0,0.0
849,212,91.8632,100.058,124.63,99.7296,96.3483,0.00240278,0.11703,20.8612,0.0100093,0.333612,0.0,0.0
852,212.75,91.3008,98.8222,124.145,99.7336,96.6346,0.00244555,0.116873,20.8616,0.0200186,0.305314,0.0,0.0
855,213.5,91.096,98.3674,122.114,99.7308,96.6126,0.00246705,0.116722,20.8618,0,0.307234,0.0,0.0
858,214.25,89.9815,97.67,128.184,99.745,97.1165,0.00246618,0.116455,20.862,-0.0100093,0.258302,0.0,0.0
861,215,89.9533,96.8037,125.02,99.7527,96.3849,0.00243586,0.116164,20.8621,0.0100093,0.332189,0.0,0.0
864,215.75,89.4652,96.696,124.988,99.7442,96.6419,0.00240666,0.115911,20.8622,-0.0100093,0.305606,0.0,0.0
867,216.5,88.8569,95.4773,122.417,99.7543,96.6325,0.00237326,0.115668,20.8623,-0.0300279,0.307526,0.0,0.0
870,217.25,87.8317,94.5331,122.83,99.7706,96.4226,0.00235625,0.115464,20.8623,-0.0100093,0.330132,0.0,0.0
873,218,87.9943,94.257,123.971,99.7759,96.4661,0.00234892,0.115303,20.8624,0,0.326287,0.0,0.0
876,218.75,87.7301,93.5111,125.3,99.7828,96.1835,0.00234688,0.115127,20.8624,-0.0100093,0.355331,0.0,0.0
879,219.5,87.4727,92.5345,127.277,99.7807,96.2038,0.00234172,0.114985,20.8626,-0.0100093,0.353092,0.0,0.0
882,220.25,87.4361,92.3796,126.792,99.795,96.4356,0.00233123,0.114856,20.8632,-0.0100093,0.33119,0.0,0.0
885,221,86.0189,91.101,124.858,99.8116,96.2322,0.00231478,0.114684,20.8636,-0.0100093,0.353226,0.0,0.0
888,221.75,86.1885,90.9587,126.324,99.8104,96.0763,0.00228883,0.114544,20.864,0,0.36879,0.0,0.0
891,222.5,86.205,90.8345,123.542,99.8148,96.8035,0.0022699,0.114417,20.8642,-0.0100093,0.296297,0.0,0.0
894,223.25,85.6248,90.1523,127.319,99.8282,96.4267,0.0022639,0.114311,20.8643,-0.0100093,0.335313,0.0,0.0
897,224,85.2318,89.554,126.797,99.8498,96.4145,0.00226534,0.114201,20.8644,0,0.33862,0.0,0.0
900,224.75,85.2917,88.8038,126.733,99.8579,96.4807,0.00228071,0.114109,20.8645,0,0.33277,0.0,0.0
903,225.5,83.8908,87.8356,127.113,99.8514,96.5384,0.00230783,0.113973,20.8646,-0.0100093,0.326363,0.0,0.0
906,226.25,84.0698,88.235,127.151,99.8538,96.1019,0.00234535,0.113883,20.8647,-0.0100093,0.370424,0.0,0.0
909,227,84.1329,87.7879,126.072,99.8798,96.9439,0.00239145,0.113779,20.8647,-0.0200186,0.288565,0.0,0.0
912,227.75,82.8708,86.8171,126.449,99.8754,96.2984,0.00245652,0.113689,20.8647,-0.0200186,0.352752,0.0,0.0
915,228.5,83.1005,86.4223,124.088,99.8863,96.782,0.00250395,0.113599,20.8654,-0.0200186,0.305368,0.0,0.0
918,229.25,82.6591,85.9692,125.709,99.8981,96.6232,0.00255603,0.113533,20.8652,-0.0200186,0.322387,0.0,0.0
921,230,82.5691,85.2677,123.437,99.9159,96.4275,0.00259399,0.11354,20.8647,-0.0200186,0.343725,0.0,0.0
924,230.75,82.2814,85.3558,124.879,99.918,96.3236,0.00261991,0.113568,20.8644,-0.0100093,0.354352,0.0,0.0
927,231.5,81.6973,84.2867,126.242,99.9245,96.5477,0.00263636,0.113589,20.8641,-0.0100093,0.332503,0.0,0.0
930,232.25,81.903,84.4249,123.504,99.9371,96.3869,0.0026473,0.113604,20.8639,0,0.349841,0.0,0.0
933,233,81.494,83.8807,124.986,99.9452,96.5761,0.00264828,0.113556,20.8638,0,0.331661,0.0,0.0
936,233.75,80.8727,83.4602,124.262,99.9553,97.015,0.00263674,0.113521,20.8637,0.0100093,0.288789,0.0,0.0
939,234.5,80.6861,82.5587,122.981,99.959,96.7003,0.00262309,0.113476,20.863,0,0.320563,0.0,0.0
942,235.25,81.0185,82.7341,125.907,99.9521,96.4677,0.00258868,0.113499,20.8625,0,0.343192,0.0,0.0
945,236,80.4056,82.2561,121.525,99.9813,97.032,0.00255256,0.113552,20.8621,0.0100093,0.289604,0.0,0.0
948,236.75,80.3549,81.2646,125.788,99.9769,97.1591,0.00252153,0.113616,20.8619,-0.0100093,0.276513,0.0,0.0
951,237.5,79.8951,80.8298,125.663,99.9744,96.4458,0.00249769,0.113649,20.8617,0,0.34755,0.0,0.0
954,238.25,79.5701,81.1283,128.521,99.9797,96.4482,0.00247488,0.113653,20.8615,-0.0200186,0.347817,0.0,0.0
957,239,79.6,80.2675,127.117,99.9736,96.4762,0.00245617,0.113631,20.8614,-0.0300279,0.344418,0.0,0.0
960,239.75,78.9311,80.0211,124.207,99.9963,96.2432,0.00242681,0.113601,20.8613,-0.0100093,0.37001,0.0,0.0
963,240.5,78.9445,79.9333,125.355,99.9919,96.7888,0.00239768,0.113574,20.8613,-0.0200186,0.314897,0.0,0.0
966,241.25,78.9302,79.7605,126.202,100.002,96.9675,0.00236322,0.113554,20.8612,-0.0200186,0.298004,0.0,0.0
969,242,78.1808,78.9905,124.511,99.9939,97.3422,0.00232588,0.113539,20.8612,-0.0100093,0.259951,0.0,0.0
972,242.75,77.7233,78.4552,128.522,99.9915,96.6305,0.00229132,0.11355,20.8612,-0.0300279,0.330692,0.0,0.0
975,243.5,77.8287,78.0032,125.083,100.011,97.086,0.002263,0.113595,20.8612,-0.0100093,0.287089,0.0,0.0
978,244.25,77.8249,77.9407,124.237,99.9996,96.6196,0.00223188,0.113601,20.8612,0.0100093,0.332575,0.0,0.0
981,245,77.5048,77.4828,130.675,99.9959,96.6918,0.00221049,0.113593,20.8612,-0.0100093,0.32499,0.0,0.0
984,245.75,77.2037,77.2873,128.953,100.009,96.8059,0.00219709,0.113587,20.8605,-0.0100093,0.314842,0.0,0.0
987,246.5,76.5008,77.0786,128.648,100.008,96.8018,0.00219779,0.113583,20.8601,0.0100093,0.31513,0.0,0.0
990,247.25,76.2308,76.5578,129.157,100.004,96.9167,0.00219953,0.11358,20.8597,0.0100093,0.303263,0.0,0.0
993,248,76.3272,76.289,125.041,100.014,96.5611,0.00220131,0.113597,20.8595,0.0100093,0.339843,0.0,0.0
996,248.75,76.2165,75.9379,131.509,100.026,96.7982,0.00220262,0.113625,20.8593,0.0100093,0.317301,0.0,0.0
999,249.5,75.708,75.8385,125.339,100.035,96.6285,0.00219135,0.113669,20.8591,-0.0100093,0.335059,0.0,0.0
1002,250.25,75.3237,75.3002,125.965,100.041,96.6468,0.00218314,0.11376,20.8591,-0.0300279,0.333818,0.0,0.0
1005,251,75.8682,75.0016,123.438,100.043,97.1559,0.0021789,0.11384,20.859,-0.0200186,0.283237,0.0,0.0
1008,251.75,75.0314,75.244,127.309,100.065,96.186,0.00217581,0.113919,20.8589,-0.0200186,0.382438,0.0,0.0
1011,252.5,74.5934,73.9673,126.988,100.073,97.4279,0.00218457,0.114001,20.8591,-0.0200186,0.259099,0.0,0.0
1014,253.25,74.4674,73.7504,123.62,100.078,96.5952,0.00219822,0.114047,20.8594,-0.0100093,0.34259,0.0,0.0
1017,254,74.479,73.734,128.077,100.072,96.2607,0.00221258,0.114074,20.8597,-0.0100093,0.375596,0.0,0.0
1020,254.75,74.4588,73.9441,130.166,100.089,97.3812,0.00223352,0.11408,20.8599,-0.0100093,0.265265,0.0,0.0
1023,255.5,73.6214,73.2534,126.18,100.112,97.1193,0.00224943,0.11406,20.8601,0,0.293507,0.0,0.0
1026,256.25,73.3469,72.9319,124.627,100.122,96.7974,0.00226213,0.114059,20.8596,0,0.326604,0.0,0.0
1029,257,73.2384,73.0551,125.736,100.11,97.8692,0.00226282,0.114064,20.8592,0.0100093,0.218996,0.0,0.0
1032,257.75,73.7123,73.1756,125.782,100.127,96.8327,0.00225967,0.114067,20.8589,0,0.323625,0.0,0.0
1035,258.5,73.4897,72.6979,128.366,100.142,96.717,0.00225003,0.11405,20.8591,-0.0100093,0.336562,0.0,0.0
1038,259.25,73.3871,72.0234,124.508,100.138,96.7198,0.00224503,0.114038,20.8595,-0.0300279,0.335924,0.0,0.0
1041,260,72.5658,71.576,122.912,100.145,96.9285,0.00225019,0.114029,20.8598,-0.0100093,0.315706,0.0,0.0
1044,260.75,72.5653,71.0945,128.245,100.185,96.5587,0.00227491,0.114063,20.86,-0.0200186,0.356565,0.0,0.0
1047,261.5,72.0698,71.5932,125.523,100.182,97.447,0.00229357,0.114106,20.8601,-0.0100093,0.267716,0.0,0.0
1050,262.25,72.4972,71.3402,127.567,100.207,97.0138,,0.114118,,-0.0100093,0.3132,0.0,0.0
1053,263,72.1203,71.2947,127.011,100.224,97.5744,,0.114097,,-0.0200186,0.259108,0.0,0.0
1056,263.75,72.4805,71.0595,125.749,100.238,97.1295,,0.114012,,-0.0100093,0.304727,0.0,0.0
1059,264.5,71.4671,70.4435,129.721,100.274,96.8246,,0.113912,,-0.0200186,0.338623,0.0,0.0
1062,265.25,72.0807,70.3605,129.014,100.29,96.8985,,,,-0.0200186,0.332772,0.0,0.0
1065,266,72.046,70.0765,125.723,100.31,97.0799,,,,0.0100093,0.316592,0.0,0.0
1068,266.75,71.7367,69.996,132.178,100.336,97.3313,,,,0.0100093,0.294053,0.0,0.0
1071,267.5,71.4589,69.4468,127.831,100.356,96.9074,,,,-0.0100093,0.338221,0.0,0.0
1074,268.25,70.8445,68.8207,124.332,100.377,97.1076,,,,-0.0200186,0.320299,0.0,0.0
1077,269,70.5849,68.9466,124.191,100.389,97.0613,,,,-0.0200186,0.326006,0.0,0.0
1080,269.75,70.8503,69.4923,129.96,100.415,97.9005,,,,-0.0300279,0.245283,0.0,0.0
1083,270.5,70.0002,68.8533,126.283,100.431,97.2359,,,,-0.0400371,0.312731,0.0,0.0
1086,271.25,70.0988,68.6717,128.154,100.467,97.5611,,,,-0.0200186,0.283839,0.0,0.0
1089,272,69.906,68.0975,126.776,100.493,97.1729,,,,-0.0300279,0.324975,0.0,0.0
1092,272.75,69.8025,68.195,129.307,100.487,98.2013,,,,0,0.222526,0.0,0.0
1093,273,70.0277,68.1253,130.617,100.499,97.5923,,,,0.0100093,0.283906,0.0,0.0