File: 01_Data/PP/Cone/PP_Cone_HF75Scan_220204_R3.csv
Names,Time,Stack TC,Smoke TC,Exh Press,Smoke Comp,Smoke Meas,CO Meter,CO2 Meter,O2 Meter,Sample Mass,Ext Coeff,Start Test,Flame Verif
Chan Gain,,500,500,1,1,1,1,1,1,1,1,1.0,1.0
Offset,,0,0,0.14021,0,0,0,0,0,0,0,0.0,0.0
Gain,,1,1,25.011,13.3046,13.3037,1,1,1,1.00093,1.10262,1.0,1.0
Units,sec,C,C,Pa,%,%,%,%,%,g,/m,,
Baseline,,59.5171,58.7178,127.543,100.259,98.3813,0.000626929,0.124113,20.8225,-872.024,0.183076,,
2,0.25,53.9325,52.6281,130.992,100.365,98.2931,0.000798796,0.127676,20.8205,26.5646,0.201724,0.0,0.0
4,0.75,53.2595,51.7956,130.525,100.371,99.427,0.000765271,0.127614,20.8208,26.7748,0.091367,0.0,0.0
6,1.25,53.5406,52.4751,128.28,100.378,99.1785,0.000738116,0.127531,20.8209,26.8649,0.116273,0.0,0.0
8,1.75,53.6326,52.7134,124.589,100.365,98.8956,0.000711267,0.127449,20.8211,26.7048,0.142695,0.0,0.0
10,2.25,53.4425,52.0406,127.161,100.369,98.1246,0.00068952,0.12737,20.8212,26.6747,0.218747,0.0,0.0
12,2.75,53.193,52.5658,129.191,100.361,98.9341,0.000674331,0.127291,20.8213,26.8249,0.138454,0.0,0.0
14,3.25,53.1,52.5319,131.007,100.362,99.0535,0.000662028,0.127215,20.8214,26.7448,0.12695,0.0,0.0
16,3.75,52.6075,51.772,126.75,100.357,99.0291,0.000652701,0.127152,20.8214,26.6547,0.128819,0.0,0.0
18,4.25,53.3264,52.3273,127.298,100.366,98.1396,0.000645721,0.127116,20.8215,26.8149,0.216954,0.0,0.0
20,4.75,53.0624,52.3009,128.63,100.346,99.1448,0.000640067,0.127086,20.8215,26.7748,0.116469,0.0,0.0
22,5.25,52.821,52.2734,128.008,100.358,98.7973,0.00063868,0.127117,20.8216,26.7148,0.151567,0.0,0.0
24,5.75,53.1721,52.0196,125.381,100.35,98.3008,0.00064043,0.127143,20.8212,26.7648,0.199555,0.0,0.0
26,6.25,53.7014,52.3102,127.026,100.356,99.4116,0.000643125,0.127265,20.8208,26.7849,0.0914207,0.0,0.0
28,6.75,53.4003,52.3557,123.636,100.356,99.0478,0.000646457,0.127455,20.8201,26.7148,0.126879,0.0,0.0
30,7.25,53.3368,52.5002,129.092,100.356,99.207,0.000651073,0.12761,20.8195,26.7548,0.11135,0.0,0.0
32,7.75,53.5099,52.6512,131.165,100.346,98.6414,0.000656535,0.127931,20.8186,26.7448,0.165668,0.0,0.0
34,8.25,53.631,52.5879,129.092,100.352,99.1363,0.000661599,0.128368,20.8179,26.6747,0.117887,0.0,0.0
36,8.75,53.2432,52.4892,129.139,100.352,98.7494,0.000666275,0.128918,20.8173,26.7148,0.15571,0.0,0.0
38,9.25,53.4072,52.2636,124.818,100.346,99.2159,0.000670063,0.129541,20.8168,26.7048,0.109579,0.0,0.0
40,9.75,53.3763,52.7847,128.464,100.342,97.7697,0.000673131,0.130155,20.8164,26.6848,0.251165,0.0,0.0
42,10.25,53.3063,52.6954,129.438,100.344,99.2679,0.000675617,0.13075,20.8156,26.6747,0.104318,0.0,0.0
44,10.75,53.5692,52.3283,128.815,100.328,98.5013,0.00067763,0.131269,20.815,26.6948,0.177729,0.0,0.0
46,11.25,53.0068,52.7575,127.886,100.335,99.2309,0.000671979,0.131722,20.8147,26.6747,0.106979,0.0,0.0
48,11.75,52.6349,52.0875,127.343,100.324,98.6264,0.000667403,0.132089,20.8145,26.6848,0.165026,0.0,0.0
50,12.25,53.6794,52.7632,127.318,100.324,98.6909,0.000675833,0.132358,20.8144,26.7048,0.158698,0.0,0.0
52,12.75,53.4964,52.7158,129.414,100.312,98.7746,0.000693585,0.132577,20.8142,26.6948,0.149409,0.0,0.0
54,13.25,53.2958,52.868,131.799,100.32,99.1063,0.000707964,0.132754,20.8141,26.6848,0.117688,0.0,0.0
56,13.75,53.062,52.6386,127.548,100.311,98.3052,0.00074455,0.1328,20.814,26.6948,0.195397,0.0,0.0
58,14.25,53.7603,52.8752,127.448,100.301,97.5448,0.000796629,0.132837,20.8135,26.6747,0.269527,0.0,0.0
60,14.75,53.5641,53.5169,125.31,100.311,96.7746,0.000838813,0.133014,20.8131,26.6647,0.347175,0.0,0.0
62,15.25,53.7261,52.9901,128.916,100.302,98.0316,0.000924079,0.133287,20.8121,26.6147,0.221496,0.0,0.0
64,15.75,53.5756,52.6816,125.59,100.289,97.9382,0.000993145,0.133509,20.8106,26.6747,0.229422,0.0,0.0
66,16.25,53.6296,52.6427,128.931,100.284,97.0633,0.00109294,0.13491,20.8068,26.6447,0.315706,0.0,0.0
68,16.75,53.4927,53.1283,125.447,100.288,97.3877,0.00117378,0.136045,20.8015,26.6247,0.283866,0.0,0.0
70,17.25,53.877,52.6438,125.147,100.281,97.8176,0.00126975,0.13825,20.7927,26.6647,0.240555,0.0,1.0
72,17.75,53.493,52.8498,126.638,100.261,98.1035,0.00134748,0.141193,20.7815,26.6047,0.210454,0.0,1.0
74,18.25,54.1492,53.13,124.343,100.274,97.9813,0.00143363,0.143576,20.7674,26.5146,0.223762,0.0,1.0
76,18.75,53.619,53.7385,121.035,100.276,97.8063,0.00150341,0.149595,20.7512,26.6247,0.241208,0.0,1.0
78,19.25,53.9141,53.8742,122.718,100.276,98.097,0.00155993,0.154469,20.7382,26.5446,0.212543,0.0,1.0
80,19.75,53.7462,53.6105,119.514,100.273,98.1839,0.00166681,0.162675,20.7169,26.5046,0.203629,0.0,1.0
82,20.25,54.249,54.1767,122.483,100.268,96.2619,0.00180365,0.169321,20.6997,26.5146,0.39441,0.0,1.0
84,20.75,54.9592,54.5214,117.104,100.257,94.2859,0.00195972,0.17971,20.6795,26.5346,0.59392,0.0,1.0
86,21.25,54.9153,54.936,114.965,100.277,94.1791,0.00208615,0.188124,20.6574,26.4646,0.606799,0.0,1.0
88,21.75,55.2722,55.0394,117.446,100.265,92.8994,0.00234829,0.198532,20.6329,26.4946,0.737949,0.0,1.0
90,22.25,55.2714,55.6087,114.425,100.25,89.392,0.00256062,0.210196,20.6072,26.4545,1.10874,0.0,0.0
92,22.75,55.4073,55.9214,115.408,100.262,88.3015,0.00292027,0.219643,20.5742,26.4345,1.22863,0.0,0.0
94,23.25,55.8808,56.6878,115.348,100.244,87.9138,0.00321158,0.235847,20.5365,26.3945,1.26951,0.0,0.0
96,23.75,56.6958,57.5039,115.789,100.243,86.7104,0.00365109,0.248972,20.506,26.3545,1.40266,0.0,0.0
98,24.25,56.7891,57.2617,114.206,100.249,86.5687,0.0040071,0.268367,20.4622,26.3044,1.41906,0.0,0.0
100,24.75,57.1631,58.6095,109.814,100.236,85.557,0.00441569,0.284076,20.4266,26.2443,1.53156,0.0,0.0
102,25.25,57.2765,58.7155,112.93,100.238,84.1482,0.00485486,0.306618,20.3774,26.2544,1.69226,0.0,0.0
104,25.75,58.4217,59.416,110.848,100.242,83.2526,0.00521059,0.324876,20.3375,26.2343,1.79615,0.0,0.0
106,26.25,58.7191,60.4602,110.874,100.232,81.2242,0.00565287,0.344485,20.3052,26.1643,2.03378,0.0,0.0
108,26.75,59.3946,61.6069,111.397,100.236,81.1089,0.00614984,0.364705,20.2581,26.1443,2.04791,0.0,0.0
110,27.25,60.2147,62.2677,108.529,100.236,80.5584,0.00664825,0.386986,20.22,26.0742,2.11378,0.0,0.0
112,27.75,60.7049,63.1468,106.773,100.24,79.6656,0.00713823,0.410346,20.1691,25.9841,2.222,0.0,0.0
114,28.25,61.0118,64.0673,105.409,100.225,78.3266,0.00762941,0.429268,20.1279,26.0241,2.3845,0.0,0.0
116,28.75,61.8281,65.3437,107.824,100.253,78.8183,0.00811214,0.457282,20.0754,25.9741,2.3266,0.0,0.0
118,29.25,62.9113,65.7905,107.081,100.222,77.6908,0.00860665,0.479974,20.0328,25.854,2.46305,0.0,0.0
120,29.75,63.1994,67.0659,102.343,100.226,76.8443,0.00910035,0.503818,19.9792,25.864,2.56937,0.0,0.0
122,30.25,64.5166,68.1605,100.566,100.219,78.6876,0.00960562,0.528048,19.9358,25.7639,2.33944,0.0,0.0
124,30.75,65.3938,69.2235,106.361,100.227,79.4139,0.0101097,0.551867,19.8851,25.7139,2.25132,0.0,0.0
126,31.25,65.8762,70.3317,104.789,100.221,76.3299,0.010641,0.574933,19.844,25.6438,2.63386,0.0,0.0
128,31.75,66.7442,71.1376,95.6488,100.225,76.9093,0.0111819,0.59863,19.7916,25.6638,2.56112,0.0,0.0
130,32.25,67.6828,71.8043,97.8256,100.218,74.1725,0.0116201,0.622337,19.7491,25.6138,2.91083,0.0,0.0
132,32.75,68.0365,73.394,93.7314,100.22,74.4291,0.0121529,0.64154,19.7148,25.5037,2.87762,0.0,0.0
134,33.25,68.4309,75.2312,96.8341,100.201,73.1132,0.0127445,0.668608,19.6869,25.4236,3.04838,0.0,0.0
136,33.75,69.6738,76.0543,101.379,100.216,73.1376,0.0132238,0.690533,19.6425,25.3836,3.04661,0.0,0.0
138,34.25,70.1467,77.6827,102.914,100.214,71.0341,0.0136119,0.719064,19.6066,25.2734,3.32867,0.0,0.0
140,34.75,71.5434,78.6587,96.2662,100.221,72.8619,0.014304,0.742174,19.5679,25.2134,3.08357,0.0,0.0
142,35.25,72.6254,80.3394,98.9202,100.208,72.2976,0.0148646,0.774581,19.5279,25.1533,3.15756,0.0,0.0
144,35.75,73.93,81.6464,97.1356,100.218,71.19,0.0154551,0.80083,19.4847,25.0933,3.30781,0.0,0.0
146,36.25,74.4324,83.1061,94.2688,100.217,70.1637,0.016056,0.822092,19.44,25.0332,3.44815,0.0,0.0
148,36.75,75.5516,84.4013,95.6793,100.228,69.573,0.0167808,0.839314,19.3897,24.9431,3.53103,0.0,0.0
150,37.25,76.4993,85.8817,99.2484,100.209,73.7868,0.0173679,0.871807,19.3363,24.803,2.96039,0.0,0.0
152,37.75,77.5516,87.7469,93.6123,100.214,70.3874,0.0181433,0.898127,19.28,24.803,3.41709,0.0,0.0
154,38.25,79.0169,88.6377,91.8156,100.22,67.8312,0.0184738,0.930573,19.2497,24.7129,3.77546,0.0,0.0
156,38.75,79.6428,90.6037,93.8268,100.217,67.2182,0.0192358,0.956854,19.198,24.5628,3.863,0.0,0.0
158,39.25,80.5641,91.5158,87.7275,100.205,68.21,0.02003,0.984208,19.133,24.5328,3.72011,0.0,0.0
160,39.75,81.7366,93.2825,98.3317,100.23,64.9604,0.0206734,1.01182,19.0803,24.3826,4.19471,0.0,0.0
162,40.25,82.7011,94.3611,87.4359,100.196,64.377,0.0214658,1.04582,19.0254,24.3326,4.27863,0.0,0.0
164,40.75,83.5091,95.8927,90.7829,100.206,64.7298,0.0223518,1.07335,18.97,24.2825,4.22679,0.0,0.0
166,41.25,84.9053,97.9339,84.0767,100.197,63.9475,0.0232668,1.08509,18.9251,24.1424,4.34354,0.0,0.0
168,41.75,85.926,99.2489,94.8023,100.208,62.8164,0.0241854,1.11822,18.8616,24.0423,4.51721,0.0,0.0
170,42.25,86.8013,101.436,82.8815,100.194,63.0539,0.0251286,1.14505,18.8101,23.9022,4.47938,0.0,0.0
172,42.75,88.1361,103.151,84.924,100.207,63.3474,0.0260717,1.18393,18.7422,23.8421,4.43563,0.0,0.0
174,43.25,89.3698,104.406,85.3682,100.202,64.5488,0.0269934,1.21542,18.6871,23.8021,4.25345,0.0,0.0
176,43.75,90.6177,106.753,78.5873,100.213,63.695,0.0278821,1.24961,18.6132,23.6519,4.38334,0.0,0.0
178,44.25,92.1968,108.576,86.4269,100.208,62.4043,0.0286019,1.28512,18.5532,23.662,4.58083,0.0,0.0
180,44.75,93.3422,110.376,82.4876,100.208,62.5046,0.0295365,1.32139,18.4913,23.4618,4.56534,0.0,0.0
182,45.25,94.3666,111.971,79.6795,100.205,60.8152,0.0302935,1.35754,18.4292,23.3717,4.83,0.0,0.0
184,45.75,95.8577,113.966,94.3039,100.208,61.2687,0.0313584,1.38681,18.3788,23.3216,4.75849,0.0,0.0
186,46.25,96.977,116.009,86.8177,100.202,59.6273,0.0322209,1.42591,18.3118,23.2015,5.02056,0.0,0.0
188,46.75,97.9142,117.263,83.4409,100.209,61.682,0.0329196,1.45758,18.2575,23.1014,4.69355,0.0,0.0
190,47.25,99.6519,119.295,80.5687,100.208,60.8721,0.0339108,1.49789,18.2135,22.9613,4.82132,0.0,0.0
192,47.75,100.953,121.041,76.9569,100.207,62.4534,0.0350964,1.53053,18.1493,22.8812,4.57318,0.0,0.0
194,48.25,100.835,123.42,72.0269,100.205,63.8748,0.0363145,1.5665,18.0974,22.7311,4.35528,0.0,0.0
196,48.75,103.159,125.294,87.8771,100.201,60.9066,0.0375333,1.60421,18.0254,22.651,4.81517,0.0,0.0
198,49.25,105.065,127.374,92.2476,100.197,60.4425,0.0387938,1.63475,17.9672,22.5109,4.88871,0.0,0.0
200,49.75,106.332,129.916,79.4147,100.203,59.3947,0.0400606,1.68069,17.8888,22.4008,5.05849,0.0,0.0
202,50.25,107.277,131.883,69.2059,100.194,58.5132,0.0413498,1.71791,17.8253,22.3107,5.2022,0.0,0.0
204,50.75,109.076,134.228,82.2838,100.189,59.4531,0.0426306,1.75865,17.7321,22.1606,5.04756,0.0,0.0
206,51.25,110.57,135.947,85.7834,100.191,60.0089,0.043668,1.80118,17.6565,22.0705,4.9578,0.0,0.0
208,51.75,111.872,137.993,79.1864,100.18,59.4324,0.0451128,1.83563,17.5628,21.9203,5.05007,0.0,0.0
210,52.25,113.33,140.394,82.7257,100.187,56.5494,0.046283,1.88182,17.4869,21.7802,5.53172,0.0,0.0
212,52.75,114.429,142.667,91.4874,100.199,57.4309,0.0478573,1.91923,17.4071,21.6201,5.3833,0.0,0.0
214,53.25,116.534,144.842,92.4262,100.193,54.2734,0.0491325,1.97022,17.3261,21.6501,5.92964,0.0,0.0
216,53.75,117.38,147.245,67.8747,100.184,56.7086,0.0506865,2.01153,17.2604,21.4399,5.50426,0.0,0.0
218,54.25,119.074,149.716,80.3649,100.184,52.1107,0.0524141,2.06716,17.16,21.3198,6.32201,0.0,0.0
220,54.75,120.579,151.976,65.0475,100.185,56.7703,0.0542574,2.11221,17.0787,21.1696,5.49378,0.0,0.0
222,55.25,121.965,153.919,74.5984,100.184,54.8569,0.0561501,2.17388,16.9877,20.9995,5.82536,0.0,0.0
224,55.75,123.953,156.458,74.1519,100.179,53.1521,0.0576831,2.22383,16.8915,20.9394,6.1302,0.0,0.0
226,56.25,125.069,158.792,75.3281,100.183,54.4963,0.0599582,2.28211,16.8135,20.6191,5.88902,0.0,0.0
228,56.75,127.205,160.967,91.4049,100.179,54.31,0.061801,2.34535,16.7504,20.3889,5.92172,0.0,0.0
230,57.25,128.769,164.35,76.2959,100.183,54.485,0.0632937,2.39658,16.6507,20.3289,5.89104,0.0,0.0
232,57.75,130.272,166.777,61.0411,100.184,54.8175,0.065135,2.47626,16.5699,20.1987,5.83223,0.0,0.0
234,58.25,131.921,169.886,63.1981,100.184,57.4069,0.0671956,2.5408,16.4308,20.0786,5.38588,0.0,0.0
236,58.75,133.69,172.647,60.4412,100.174,55.8316,0.0691608,2.63493,16.3181,19.9185,5.65398,0.0,0.0
238,59.25,135.962,175.362,59.3756,100.174,55.2559,0.0710191,2.71118,16.1509,19.6582,5.75427,0.0,0.0
240,59.75,137.692,178.745,86.6528,100.182,56.0221,0.0727848,2.77293,16.0155,19.5481,5.62187,0.0,0.0
242,60.25,138.948,181.585,55.3486,100.175,61.1002,0.0744494,2.85688,15.8237,19.2779,4.78195,0.0,0.0
244,60.75,141.019,184.546,51.1613,100.159,55.614,0.0757977,2.95541,15.6684,19.1378,5.69034,0.0,0.0
246,61.25,143.594,188.853,87.7618,100.168,54.3985,0.0772017,3.05455,15.5041,18.8775,5.90491,0.0,0.0
248,61.75,145.628,191.686,82.1289,100.155,55.15,0.0786196,3.15225,15.3363,18.7474,5.77099,0.0,0.0
250,62.25,147.415,194.843,52.3344,100.177,57.9615,0.0801207,3.24896,15.2004,18.6173,5.29223,0.0,0.0
252,62.75,149.175,199.075,65.9505,100.153,57.3627,0.0813367,3.34312,15.0381,18.4071,5.39029,0.0,0.0
254,63.25,151.201,202.834,46.9503,100.162,58.8912,0.0825935,3.41938,14.8851,18.2269,5.13686,0.0,0.0
256,63.75,153.702,205.913,71.4819,100.148,52.7477,0.0836115,3.51942,14.7417,17.9867,6.20108,0.0,0.0
258,64.25,155.941,209.863,53.9426,100.152,53.0132,0.0846419,3.60046,14.5868,17.7965,6.15287,0.0,0.0
260,64.75,157.467,212.426,59.0062,100.156,61.7681,0.0854765,3.68698,14.4264,17.5463,4.67492,0.0,0.0
262,65.25,158.795,215.769,56.4248,100.157,56.737,0.0863807,3.77584,14.2965,17.3461,5.49675,0.0,0.0
264,65.75,161.543,219.103,74.99,100.151,60.3179,0.0871131,3.86672,14.1306,17.1559,4.90429,0.0,0.0
266,66.25,163.754,223.123,59.2963,100.158,65.2483,0.0878988,3.95735,13.9963,16.7555,4.145,0.0,0.0
268,66.75,165.556,226.393,54.2426,100.16,56.4321,0.0887084,4.04832,13.8388,16.7756,5.54922,0.0,0.0
270,67.25,167.303,229.447,65.4124,100.165,55.6343,0.0893642,4.13782,13.7112,16.5454,5.6874,0.0,0.0
272,67.75,169.1,234.114,48.8264,100.155,57.2027,0.0898954,4.226,13.5691,16.4052,5.41753,0.0,0.0
274,68.25,172.09,237.856,56.6286,100.16,54.6709,0.091153,4.31155,13.454,15.9748,5.85589,0.0,0.0
276,68.75,173.826,241.221,67.4328,100.17,52.2406,0.0921717,4.39775,13.3134,15.8847,6.29663,0.0,0.0
278,69.25,175.478,244.473,69.3165,100.176,55.0761,0.0935967,4.48278,13.1996,15.6745,5.786,0.0,0.0
280,69.75,177.143,246.668,63.0905,100.167,55.6287,0.094751,4.55165,13.0883,15.5144,5.68854,0.0,0.0
282,70.25,179.429,250.735,64.4445,100.178,53.9649,0.096295,4.62583,12.9811,15.1941,5.98329,0.0,0.0
284,70.75,180.933,254.185,67.4755,100.174,54.7834,0.0975455,4.70247,12.8741,15.044,5.83735,0.0,0.0
286,71.25,182.453,256.438,76.3287,100.197,48.9074,0.0988301,4.76455,12.7692,14.7637,6.93692,0.0,0.0
288,71.75,183.537,259.86,67.2198,100.177,56.9327,0.100115,4.8476,12.6511,14.5335,5.46541,0.0,0.0
290,72.25,185.841,262.516,50.1293,100.176,61.4693,0.10144,4.91487,12.5257,14.2432,4.72379,0.0,0.0
292,72.75,187.887,265.63,61.9952,100.18,54.9661,0.102514,5.00341,12.3924,14.1131,5.80573,0.0,0.0
294,73.25,189.153,269.248,48.8569,100.201,62.1437,0.103563,5.07513,12.2559,13.8729,4.62069,0.0,0.0
296,73.75,191.424,272.017,56.6752,100.183,56.9713,0.104412,5.17225,12.1453,13.6427,5.45941,0.0,0.0
298,74.25,193.082,275.497,59.8267,100.197,58.7321,0.1051,5.25091,11.9906,13.2923,5.16633,0.0,0.0
300,74.75,194.929,278.877,73.0711,100.185,53.5569,0.105993,5.35632,11.8653,12.982,6.05737,0.0,0.0
302,75.25,196.818,281.786,51.9734,100.194,63.7733,0.106716,5.4417,11.683,12.8519,4.36961,0.0,0.0
304,75.75,198.289,284.647,60.519,100.193,68.2364,0.107506,5.56017,11.5354,12.6718,3.71523,0.0,0.0
306,76.25,200.337,288.287,41.7516,100.201,65.3664,0.108329,5.65612,11.3369,12.3014,4.13158,0.0,0.0
308,76.75,202.618,291.837,57.0232,100.191,61.3244,0.109168,5.76218,11.176,12.1613,4.74807,0.0,0.0
310,77.25,204.557,295.932,78.6262,100.206,56.0062,0.110002,5.87357,10.9918,11.6608,5.62692,0.0,0.0
312,77.75,206.916,300.248,62.9958,100.189,54.6539,0.110677,5.9638,10.8425,11.5807,5.86169,0.0,0.0
314,78.25,207.945,302.745,63.9675,100.206,49.7929,0.111285,6.06517,10.7216,11.3005,6.76423,0.0,0.0
316,78.75,210.585,305.595,39.7541,100.204,72.5623,0.111777,6.17273,10.5993,11.1103,3.12182,0.0,0.0
318,79.25,212.403,308.037,54.8036,100.206,55.4772,0.112175,6.25985,10.4782,10.79,5.71867,0.0,0.0
320,79.75,213.391,312.272,72.1185,100.203,58.6858,0.112171,6.37698,10.3398,10.5598,5.17458,0.0,0.0
322,80.25,215.315,315.686,53.7946,100.215,68.5523,0.112168,6.47185,10.1914,10.3196,3.67268,0.0,0.0
324,80.75,217.127,318.233,45.6756,100.214,70.2148,0.111909,6.60357,10.0284,10.1194,3.44079,0.0,0.0
326,81.25,219.43,322.606,38.4672,100.214,63.5297,0.111698,6.71026,9.85789,9.73904,4.40858,0.0,0.0
328,81.75,221.632,325.975,53.3183,100.217,71.5786,0.111528,6.79668,9.71974,9.43876,3.25505,0.0,0.0
330,82.25,223.656,330.377,50.4728,100.219,63.1976,0.110874,6.90789,9.55445,9.24858,4.45971,0.0,0.0
332,82.75,225.231,333.362,35.0157,100.233,66.2503,0.110344,7.03506,9.37252,8.97833,4.00477,0.0,0.0
334,83.25,227.68,336.743,48.9943,100.227,64.3957,0.109265,7.17797,9.18635,8.64802,4.27888,0.0,0.0
336,83.75,229.385,340.379,40.6235,100.232,64.6978,0.108392,7.29373,9.00062,8.17759,4.23405,0.0,0.0
338,84.25,230.917,343.519,57.0797,100.24,60.0816,0.10714,7.4081,8.83089,8.12754,4.95083,0.0,0.0
340,84.75,232.714,346.284,49.7942,100.244,70.9607,0.106607,7.51929,8.7494,7.77722,3.34154,0.0,0.0
342,85.25,233.771,348.573,45.8405,100.246,81.0821,0.105417,7.60935,8.56136,7.46693,2.05205,0.0,0.0
344,85.75,235.48,352.272,51.5879,100.251,73.9143,0.104453,7.70933,8.36523,7.35683,2.94773,0.0,0.0
346,86.25,238.496,357.122,53.2839,100.246,65.4566,0.103695,7.81462,8.20637,6.72624,4.12268,0.0,0.0
348,86.75,240.58,360.632,43.6384,100.257,79.5844,0.103081,7.94443,8.00396,6.59612,2.23343,0.0,0.0
350,87.25,242.628,364.124,52.9969,100.251,70.6602,0.10274,8.04958,7.84,6.55608,3.38324,0.0,0.0
352,87.75,244.089,367.476,44.7902,100.278,74.6934,0.102605,8.11697,7.67545,5.88546,2.84894,0.0,0.0
354,88.25,246.355,371.638,66.497,100.258,67.7151,0.102548,8.23221,7.59026,5.61521,3.79568,0.0,0.0
356,88.75,248.249,374.395,48.3715,100.272,73.067,0.102449,8.34907,7.44458,5.54514,3.06136,0.0,0.0
358,89.25,249.605,377.58,37.7146,100.252,68.0184,0.102583,8.4649,7.29341,5.46507,3.75187,0.0,0.0
360,89.75,251.492,380.619,46.2794,100.284,80.0424,0.102691,8.55873,7.14113,4.90455,2.18056,0.0,0.0
362,90.25,253.412,384.256,70.3561,100.281,61.9236,0.10253,8.68507,6.97356,4.55423,4.66271,0.0,0.0
364,90.75,255.169,387.932,49.2798,100.29,75.4989,0.1024,8.78742,6.79803,4.22392,2.74637,0.0,0.0
366,91.25,256.697,391.101,39.7419,100.285,78.4358,0.101809,8.85769,6.62245,4.05376,2.37682,0.0,0.0
368,91.75,258.877,395.115,57.7079,100.296,70.6935,0.101331,8.97787,6.45018,3.91363,3.38303,0.0,0.0
370,92.25,260.869,399.056,47.9609,100.306,62.3605,0.100559,9.07521,6.31064,3.48323,4.59711,0.0,0.0
372,92.75,262.432,402.334,45.8122,100.302,71.9931,0.0999333,9.17806,6.19761,3.09287,3.20739,0.0,0.0
374,93.25,264.714,404.872,50.0881,100.295,76.3592,0.0994623,9.26136,6.10605,3.03281,2.63725,0.0,0.0
376,93.75,265.823,407.004,46.964,100.294,70.9034,0.099113,9.3293,6.03189,2.71252,3.35412,0.0,0.0
378,94.25,267.543,410.495,35.6675,100.308,78.2361,0.0991245,9.38433,5.97327,2.43226,2.40363,0.0,0.0
380,94.75,268.991,413.454,58.1193,100.309,67.3708,0.0991929,9.40808,5.97456,2.16201,3.84991,0.0,0.0
382,95.25,270.592,415.717,35.4691,100.311,64.943,0.0997871,9.42732,5.97772,1.85172,4.20506,0.0,0.0
384,95.75,272.401,417.686,43.5827,100.323,63.3288,0.100217,9.41959,6.02796,1.69157,4.44972,0.0,0.0
386,96.25,273.117,418.75,52.658,100.326,60.9553,0.100951,9.39235,6.11388,1.52141,4.8195,0.0,0.0
388,96.75,273.453,419.573,60.4847,100.345,62.5326,0.102139,9.34654,6.18347,1.28119,4.57416,0.0,0.0
390,97.25,273.97,419.907,64.8926,100.33,65.7302,0.103101,9.26314,6.31089,1.01094,4.09044,0.0,0.0
392,97.75,274.729,420.877,53.3282,100.346,70.5226,0.104321,9.24071,6.4141,0.660613,3.41126,0.0,0.0
394,98.25,275.571,421.897,53.822,100.343,67.1025,0.105708,9.10848,6.53768,0.600557,3.89177,0.0,0.0
396,98.75,276.309,422.694,78.2644,100.357,55.9149,0.107214,9.07291,6.67377,0.330306,5.65724,0.0,0.0
398,99.25,276.777,423.672,54.7647,100.361,54.6234,0.10878,8.93605,6.96555,0.0500464,5.88365,0.0,0.0
400,99.75,276.914,423.666,58.8406,100.378,55.6388,0.110281,8.82519,7.20189,-0.120111,5.70718,0.0,0.0
402,100.25,278.035,423.843,56.3905,100.376,52.8443,0.111707,8.68343,7.577,-0.340316,6.20536,0.0,0.0
404,100.75,277.806,422.857,56.9278,100.395,55.5397,0.112868,8.52183,7.88083,-0.410381,5.72602,0.0,0.0
406,101.25,277.596,421.206,54.7319,100.394,50.9232,0.113815,8.39093,8.12694,-0.660613,6.56526,0.0,0.0
408,101.75,277.484,419.858,61.9578,100.413,49.9963,0.114581,8.18209,8.41308,-0.70065,6.74473,0.0,0.0
410,102.25,277.672,419.556,79.7955,100.417,50.4713,0.115202,8.01293,8.72296,-0.98091,6.65374,0.0,0.0
412,102.75,276.617,417.833,56.8446,100.435,49.9236,0.114703,7.78945,8.97396,-1.27118,6.76099,0.0,0.0
414,103.25,276.499,416.648,58.0315,100.426,51.6937,0.113396,7.60843,9.32012,-1.30121,6.42309,0.0,0.0
416,103.75,275.892,415.169,70.3454,100.45,54.2787,0.11137,7.36335,9.60051,-1.49138,5.95348,0.0,0.0
418,104.25,275.269,412.583,65.7795,100.444,53.5828,0.108858,7.16483,10.0054,-1.54143,6.07765,0.0,0.0
420,104.75,274.612,410.02,71.6819,100.463,51.9702,0.106824,7.00403,10.3333,-1.59148,6.37505,0.0,0.0
422,105.25,273.653,408.012,68.5907,100.456,53.3238,0.102665,6.77629,10.8227,-1.75163,6.12574,0.0,0.0
424,105.75,272.759,405.073,77.6523,100.48,56.0026,0.0992958,6.50407,11.219,-1.81168,5.65393,0.0,0.0
426,106.25,271.373,401.493,80.9771,100.473,53.1123,0.0942902,6.28358,11.7171,-1.89176,6.16582,0.0,0.0
428,106.75,269.425,398.076,82.6174,100.498,55.843,0.0902356,5.97232,12.2798,-1.95181,5.68324,0.0,0.0
430,107.25,268.194,394.678,75.9395,100.498,54.094,0.0848037,5.72021,12.8348,-1.99185,5.99106,0.0,0.0
432,107.75,265.961,390.593,78.2232,100.512,60.5087,0.0804038,5.40482,13.3736,-2.01187,4.90845,0.0,0.0
434,108.25,264.574,386.899,87.139,100.505,62.7015,0.0745929,5.14936,13.81,-2.152,4.56348,0.0,0.0
436,108.75,262.553,382.995,86.4597,100.523,66.2954,0.069886,4.83895,14.3234,-2.19203,4.02613,0.0,0.0
438,109.25,259.846,378.023,92.0263,100.519,69.0395,0.0660735,4.58751,14.7392,-2.16201,3.63349,0.0,0.0
440,109.75,258.157,373.722,92.3484,100.54,71.7109,0.0616067,4.28483,15.0761,-2.25209,3.26829,0.0,0.0
442,110.25,255.873,369.951,93.5994,100.544,72.6658,0.0567479,4.03965,15.4992,-2.28212,3.14081,0.0,0.0
444,110.75,253.416,365.149,98.4736,100.557,75.5829,0.0520876,3.79078,15.842,-2.33216,2.76138,0.0,0.0
446,111.25,250.944,360.774,98.7782,100.558,76.995,0.0476606,3.54393,16.2621,-2.31214,2.58243,0.0,0.0
448,111.75,247.878,355.19,102.324,100.566,80.2973,0.0435276,3.34398,16.6024,-2.36219,2.17694,0.0,0.0
450,112.25,245.655,350.949,102.095,100.567,81.3334,0.0396874,3.08353,16.9901,-2.32215,2.05309,0.0,0.0
452,112.75,243.201,346.225,105.335,100.58,84.7081,0.0361357,2.87256,17.3042,-2.33216,1.66113,0.0,0.0
454,113.25,240.318,341.485,107.814,100.582,87.8123,0.0328618,2.66208,17.6751,-2.32215,1.31318,0.0,0.0
456,113.75,237.72,337.514,106.795,100.601,90.8045,0.0298523,2.45595,17.9756,-2.33216,0.990894,0.0,0.0
458,114.25,235.652,333.245,107.925,100.599,95.6098,0.0270928,2.26423,18.2846,-2.32215,0.492015,0.0,0.0
460,114.75,232.995,329.009,110.119,100.618,96.9939,0.0245825,2.08665,18.5349,-2.32215,0.354801,0.0,0.0
462,115.25,230.095,323.984,108.102,100.608,98.3596,0.0223015,1.92233,18.7836,-2.31214,0.218583,0.0,0.0
464,115.75,227.255,319.208,109.423,100.633,98.5322,0.0204539,1.77079,18.9851,-2.32215,0.204089,0.0,0.0
466,116.25,225.129,315.554,113.271,100.639,98.3284,0.0184414,1.63164,19.1676,-2.31214,0.224662,0.0,0.0
468,116.75,222.808,311.713,109.291,100.657,97.8189,0.0168113,1.50415,19.3327,-2.27211,0.27659,0.0,0.0
470,117.25,220.326,307.011,110.233,100.654,98.5062,0.0152059,1.38769,19.4665,-2.29213,0.20863,0.0,0.0
472,117.75,218.012,303.635,111.858,100.662,99.1684,0.0139054,1.28147,19.6025,-2.30214,0.144571,0.0,0.0
474,118.25,216.375,300.049,106.92,100.665,99.2264,0.0127097,1.19543,19.7127,-2.30214,0.139183,0.0,0.0
476,118.75,214.032,296.653,111.651,100.677,99.4234,0.0116131,1.10269,19.823,-2.31214,0.121218,0.0,0.0
478,119.25,211.093,291.366,112.13,100.687,99.6341,0.0107249,1.02758,19.9123,-2.30214,0.101639,0.0,0.0
480,119.75,208.863,287.678,114.647,100.691,100.048,0.00980288,0.956671,19.9968,-2.30214,0.0619894,0.0,0.0
482,120.25,207.3,284.99,111.378,100.697,100.107,0.00905606,0.890183,20.0763,-2.30214,0.0568453,0.0,0.0
484,120.75,205.029,281.54,109.946,100.707,100.178,0.00831549,0.829413,20.1478,-2.29213,0.0509586,0.0,0.0
486,121.25,202.986,278.744,110.516,100.721,100.414,0.00765753,0.773966,20.212,-2.30214,0.0295363,0.0,0.0
488,121.75,201.269,275.193,112.621,100.72,100.345,0.00707229,0.729054,20.2769,-2.32215,0.0360701,0.0,0.0
490,122.25,198.617,270.256,111.572,100.728,100.073,0.00659824,0.679219,20.3295,-2.32215,0.0630273,0.0,0.0
492,122.75,196.832,267.494,110.665,100.732,100.455,0.00614659,0.638851,20.3722,-2.34217,0.0266404,0.0,0.0
494,123.25,195.262,265.072,111.281,100.74,100.531,0.00571985,0.597685,20.4156,-2.34217,0.0201128,0.0,0.0
496,123.75,193.751,261.833,113.829,100.757,100.415,0.0053359,0.56434,20.4508,-2.36219,0.0328888,0.0,0.0
498,124.25,191.438,258.771,112.278,100.753,100.183,0.00499044,0.530341,20.4793,-2.34217,0.0548942,0.0,0.0
500,124.75,189.82,256.091,112.568,100.76,100.312,0.00471062,0.502802,20.5082,-2.36219,0.0430989,0.0,0.0
502,125.25,188.148,252.77,114.012,100.769,100.37,0.00443087,0.474081,20.5316,-2.36219,0.0384385,0.0,0.0
504,125.75,186.762,249.514,112.8,100.767,100.354,0.0041565,0.450816,20.5573,-2.36219,0.0397304,0.0,0.0
506,126.25,185.142,247.335,111.779,100.792,100.115,0.00403953,0.431972,20.5682,-2.34217,0.065223,0.0,0.0
508,126.75,183.7,244.277,111.192,100.776,100.478,0.00367371,0.410848,20.5998,-2.35218,0.0286615,0.0,0.0
510,127.25,181.622,241.836,114.285,100.793,100.509,0.00357531,0.393738,20.6091,-2.34217,0.0272497,0.0,0.0
512,127.75,180.43,239.047,110.23,100.789,100.548,0.00336291,0.379879,20.6266,-2.33216,0.02315,0.0,0.0
514,128.25,178.757,236.554,111.693,100.797,100.4,0.00319086,0.362916,20.6422,-2.34217,0.0381939,0.0,0.0
516,128.75,176.964,233.633,113.138,100.811,100.263,0.00302895,0.355684,20.6549,-2.34217,0.0526686,0.0,0.0
518,129.25,176.112,231.331,112.176,100.806,100.097,0.00287751,0.34026,20.6683,-2.33216,0.0681945,0.0,0.0
520,129.75,174.329,229.246,112.248,100.814,100.377,0.00275484,0.322439,20.6792,-2.32215,0.0419429,0.0,0.0
522,130.25,173.104,226.599,114.379,100.832,100.526,0.00263038,0.316242,20.688,-2.34217,0.029349,0.0,0.0
524,130.75,171.896,224.58,112.693,100.832,100.362,0.00250698,0.305646,20.6964,-2.32215,0.0452211,0.0,0.0
526,131.25,170.26,221.72,110.188,100.832,100.371,0.00239352,0.295852,20.7033,-2.33216,0.0443993,0.0,0.0
528,131.75,169.369,219.822,115.324,100.832,100.087,0.00228947,0.286831,20.7102,-2.31214,0.0717465,0.0,0.0
530,132.25,167.687,217.366,114.128,100.843,99.7051,0.00219812,0.279523,20.7158,-2.33216,0.109749,0.0,0.0
532,132.75,166.285,215.871,114.099,100.841,100.333,0.00211777,0.271088,20.7212,-2.34217,0.048817,0.0,0.0
534,133.25,165.249,213.4,113.61,100.849,100.269,0.00205268,0.264255,20.7256,-2.34217,0.0557035,0.0,0.0
536,133.75,164.071,211.473,110.605,100.851,100.083,0.00199142,0.257623,20.7309,-2.34217,0.0740077,0.0,0.0
538,134.25,163.353,209.425,112.14,100.86,100.467,0.00194179,0.251263,20.7352,-2.33216,0.0377402,0.0,0.0
540,134.75,161.89,206.839,113.503,100.864,100.68,0.00188574,0.246112,20.7396,-2.34217,0.0176318,0.0,0.0
542,135.25,160.685,205.162,114.251,100.878,100.061,0.00184033,0.240451,20.7432,-2.35218,0.0786189,0.0,0.0
544,135.75,159.55,203.439,116.652,100.869,100.351,0.00179136,0.235865,20.7463,-2.34217,0.0498208,0.0,0.0
546,136.25,158.919,200.769,115.032,100.878,100.416,0.00175169,0.2308,20.749,-2.35218,0.0444578,0.0,0.0
548,136.75,157.252,199.41,116.71,100.875,100.367,0.00171506,0.226697,20.7513,-2.35218,0.048762,0.0,0.0
550,137.25,156.66,197.769,114.993,100.884,100.325,0.00168136,0.222332,20.7539,-2.34217,0.0536891,0.0,0.0
552,137.75,155.358,196.088,114.943,100.877,100.41,0.00165405,0.218797,20.7561,-2.34217,0.0448492,0.0,0.0
554,138.25,154.397,194.218,115.515,100.887,100.109,0.00161487,0.214967,20.7579,-2.35218,0.0748063,0.0,0.0
556,138.75,153.333,192.508,114.53,100.883,100.119,0.00158314,0.211865,20.7593,-2.35218,0.0735145,0.0,0.0
558,139.25,152.464,190.971,114.777,100.892,100.147,0.00151725,0.208838,20.7607,-2.35218,0.071703,0.0,0.0
560,139.75,151.077,188.804,114.219,100.905,100.421,0.00146387,0.205924,20.7621,-2.34217,0.0464788,0.0,0.0
562,140.25,150.437,187.56,116.216,100.901,100.049,0.00140143,0.203563,20.7631,-2.33216,0.0820539,0.0,0.0
564,140.75,149.728,185.703,115.626,100.893,100.327,0.00133356,0.200691,20.7649,-2.33216,0.0544275,0.0,0.0
566,141.25,148.435,184.566,115.392,100.904,100.192,0.00127539,0.198364,20.7663,-2.33216,0.0684818,0.0,0.0
568,141.75,148.065,182.974,116.353,100.903,100.256,0.0012254,0.19578,20.768,-2.35218,0.0622128,0.0,0.0
570,142.25,147.109,180.687,116.977,100.897,100.03,0.00119322,0.193687,20.7693,-2.32215,0.0835092,0.0,0.0
572,142.75,145.856,179.655,113.691,100.897,100.135,0.00118344,0.191593,20.7701,-2.33216,0.0733086,0.0,0.0
574,143.25,145.179,178.395,117.291,100.922,99.8042,0.00116672,0.18954,20.7714,-2.31214,0.107734,0.0,0.0
576,143.75,144.396,177.03,114.639,100.892,99.9382,0.00116855,0.187555,20.7725,-2.33216,0.0918399,0.0,0.0
578,144.25,143.832,176.093,112.86,100.904,100.201,0.00118386,0.185658,20.7738,-2.32215,0.0675796,0.0,0.0
580,144.75,142.414,174.592,116.132,100.896,99.8208,0.00120395,0.184121,20.7749,-2.33216,0.103669,0.0,0.0
582,145.25,142.33,172.775,117.327,100.903,100.185,0.00122715,0.182294,20.7767,-2.33216,0.0690703,0.0,0.0
584,145.75,141.617,172.18,115.117,100.912,100.188,0.00124722,0.181515,20.7781,-2.33216,0.0696118,0.0,0.0
586,146.25,140.798,170.624,117.141,100.915,99.9613,0.00126463,0.179892,20.7797,-2.34217,0.0918582,0.0,0.0
588,146.75,139.773,169.236,118.393,100.907,99.9268,0.00127104,0.178316,20.781,-2.33216,0.0943807,0.0,0.0
590,147.25,138.865,167.22,117.293,100.917,100.128,0.00126932,0.176764,20.7821,-2.33216,0.0758817,0.0,0.0
592,147.75,137.343,166.188,115.403,100.918,99.9325,0.00126792,0.175259,20.7834,-2.32215,0.0948808,0.0,0.0
594,148.25,137.764,165.643,114.191,100.925,100.252,0.00126678,0.173802,20.7844,-2.31214,0.0647832,0.0,0.0
596,148.75,137.303,164.382,115.808,100.921,100.621,0.00121964,0.172408,20.7835,-2.32215,0.0288156,0.0,0.0
598,149.25,136.482,163.216,118.071,100.922,100.243,0.00118145,0.171108,20.7827,-2.31214,0.0652952,0.0,0.0
600,149.75,135.868,162.125,117.489,100.912,100.439,0.00110921,0.169901,20.7823,-2.33216,0.0454586,0.0,0.0
602,150.25,134.366,160.778,115.195,100.933,99.6442,0.00105069,0.168924,20.7822,-2.34217,0.12426,0.0,0.0
604,150.75,133.966,159.275,116.236,100.927,99.9321,0.00100329,0.168132,20.7821,-2.34217,0.0957759,0.0,0.0
606,151.25,134.072,159.143,116.437,100.934,100.066,0.000924936,0.166984,20.7824,-2.34217,0.0835183,0.0,0.0
608,151.75,132.918,157.67,114.635,100.937,100.224,0.00086147,0.166054,20.7829,-2.35218,0.068538,0.0,0.0
610,152.25,132.541,156.849,118.864,100.929,100.172,0.000812489,0.164963,20.7835,-2.36219,0.0727753,0.0,0.0
612,152.75,132.532,155.759,119.043,100.922,99.8237,0.000772814,0.164079,20.7842,-2.35218,0.105846,0.0,0.0
614,153.25,131.125,154.814,114.218,100.928,99.6929,0.000749617,0.163156,20.7851,-2.36219,0.119105,0.0,0.0
616,153.75,130.954,153.471,116.593,100.919,100.29,0.000738875,0.162224,20.7859,-2.34217,0.0604805,0.0,0.0
618,154.25,129.721,151.901,114.912,100.925,99.7965,0.000750813,0.161468,20.7869,-2.33216,0.108716,0.0,0.0
620,154.75,129.028,150.798,114.159,100.931,99.8586,0.000760482,0.160642,20.7879,-2.34217,0.103358,0.0,0.0
622,155.25,129.125,151.323,114.08,100.933,100.252,0.000786534,0.15978,20.7887,-2.32215,0.0655231,0.0,0.0
624,155.75,128.828,149.846,115.294,100.917,99.5918,0.000807636,0.158971,20.7893,-2.31214,0.127828,0.0,0.0
626,156.25,128.306,148.581,115.014,100.937,100.216,0.000836881,0.158216,20.79,-2.30214,0.0692821,0.0,0.0
628,156.75,127.669,147.64,114.688,100.922,99.8566,0.000860569,0.15738,20.7909,-2.31214,0.102699,0.0,0.0
630,157.25,126.609,146.962,116.564,100.929,99.5391,0.000879756,0.156703,20.7915,-2.31214,0.134122,0.0,0.0
632,157.75,126.524,146.593,117.088,100.922,99.6548,0.000901375,0.155959,20.7921,-2.29213,0.122185,0.0,0.0
634,158.25,124.874,145.093,111.544,100.921,100.03,0.000918887,0.155356,20.7925,-2.28212,0.0857654,0.0,0.0
636,158.75,125.246,144.24,119.662,100.918,99.6182,0.000933071,0.154742,20.7929,-2.25209,0.125343,0.0,0.0
638,159.25,125.235,143.722,114.795,100.93,99.321,0.000944561,0.154132,20.7932,-2.29213,0.155408,0.0,0.0
640,159.75,124.566,142.647,116.045,100.92,99.5983,0.000936853,0.153536,20.7934,-2.29213,0.12747,0.0,0.0
642,160.25,123.85,142.605,114.465,100.916,99.9369,0.000930609,0.152959,20.7945,-2.29213,0.0943316,0.0,0.0
644,160.75,123.843,141.416,115.716,100.921,99.1834,0.000914045,0.152493,20.7953,-2.30214,0.167965,0.0,0.0
646,161.25,123.362,140.207,116.885,100.926,99.5772,0.000890271,0.151919,20.7961,-2.29213,0.130143,0.0,0.0
648,161.75,122.534,139.781,116.731,100.922,100.041,0.000871014,0.151454,20.7966,-2.30214,0.0848236,0.0,0.0
650,162.25,122.394,139.017,114.711,100.922,99.6324,0.000837206,0.150967,20.7971,-2.28212,0.124431,0.0,0.0
652,162.75,121.62,138.227,116.541,100.926,99.8488,0.000809822,0.150474,20.7975,-2.30214,0.103757,0.0,0.0
654,163.25,121.454,137.719,115.54,100.929,99.4887,0.000781573,0.150074,20.7978,-2.29213,0.139055,0.0,0.0
656,163.75,120.609,136.964,113.596,100.916,100.232,0.000758692,0.149513,20.798,-2.27211,0.0658082,0.0,0.0
658,164.25,120.689,136.165,118.844,100.93,98.9118,0.000740157,0.149059,20.7982,-2.30214,0.195344,0.0,0.0
660,164.75,120.221,135.534,117.514,100.922,99.697,0.000722718,0.148551,20.7993,-2.30214,0.118127,0.0,0.0
662,165.25,119.646,135.209,113.731,100.921,99.5699,0.000708591,0.14814,20.8001,-2.31214,0.130386,0.0,0.0
664,165.75,118.848,134.046,117.785,100.932,99.2748,0.000698362,0.147709,20.8008,-2.32215,0.160111,0.0,0.0
666,166.25,119.065,133.192,117.016,100.92,99.5232,0.000690077,0.14736,20.8014,-2.31214,0.134804,0.0,0.0
668,166.75,118.765,132.966,115.182,100.919,99.1635,0.000684579,0.147012,20.8018,-2.30214,0.169711,0.0,0.0
670,167.25,118.115,132.308,113.964,100.932,99.2772,0.000680127,0.14667,20.8022,-2.32215,0.159874,0.0,0.0
672,167.75,117.373,131.459,116.454,100.923,98.8602,0.000670453,0.146393,20.8025,-2.30214,0.199764,0.0,0.0
674,168.25,117.076,130.716,117.568,100.92,100.052,0.000662618,0.145974,20.8027,-2.32215,0.0834909,0.0,0.0
676,168.75,116.89,130.056,116.036,100.925,99.7453,0.000641714,0.145634,20.8029,-2.28212,0.113675,0.0,0.0
678,169.25,116.559,129.558,117.712,100.92,99.6353,0.000624783,0.14522,20.8031,-2.28212,0.123921,0.0,0.0
680,169.75,116.06,129.23,116.961,100.925,99.2784,0.000598943,0.144884,20.8032,-2.28212,0.159094,0.0,0.0
682,170.25,115.73,128.219,113.274,100.931,99.2983,0.000578012,0.144501,20.8033,-2.29213,0.157738,0.0,0.0
684,170.75,115.467,127.971,119.65,100.93,99.0945,0.000561059,0.14419,20.8034,-2.30214,0.177534,0.0,0.0
686,171.25,114.261,127.149,115.825,100.931,98.9739,0.000547326,0.143895,20.8035,-2.30214,0.189427,0.0,0.0
688,171.75,114.659,126.346,115.619,100.94,99.0697,0.000547692,0.143616,20.8035,-2.29213,0.180846,0.0,0.0
690,172.25,114.468,126.054,120.072,100.933,98.8468,0.000558328,0.143324,20.8029,-2.31214,0.20197,0.0,0.0
692,172.75,113.987,125.286,120.355,100.935,98.9695,0.000566944,0.143028,20.8017,-2.30214,0.190214,0.0,0.0
694,173.25,113.84,124.968,115.284,100.933,99.4339,0.000604262,0.142789,20.8008,-2.28212,0.144774,0.0,0.0
696,173.75,113.213,124.013,116.387,100.949,98.9406,0.00063449,0.142595,20.8,-2.27211,0.194354,0.0,0.0
698,174.25,113.039,123.741,116.324,100.929,99.2244,0.000668562,0.142327,20.7996,-2.29213,0.164744,0.0,0.0
700,174.75,112.503,123.312,116.205,100.944,99.2472,0.00070479,0.142109,20.7995,-2.28212,0.163969,0.0,0.0
702,175.25,112.176,122.53,116.714,100.931,99.4883,0.000732216,0.141933,20.7994,-2.30214,0.139289,0.0,0.0
704,175.75,111.916,121.876,116.853,100.939,99.4981,0.000752706,0.141624,20.7993,-2.29213,0.139081,0.0,0.0
706,176.25,111.706,121.84,116.419,100.942,99.0734,0.000765467,0.141373,20.7993,-2.32215,0.180723,0.0,0.0
708,176.75,111.805,121.58,116.814,100.947,99.0632,0.000772352,0.141128,20.7997,-2.30214,0.182181,0.0,0.0
710,177.25,111.333,120.417,118.171,100.931,99.2098,0.000770643,0.14093,20.8,-2.30214,0.166325,0.0,0.0
712,177.75,110.769,120.032,119.159,100.932,99.2825,0.000769258,0.140718,20.8003,-2.30214,0.159399,0.0,0.0
714,178.25,110.221,119.737,117.847,100.925,99.1838,0.000768668,0.140501,20.8004,-2.29213,0.168275,0.0,0.0
716,178.75,110.613,119.08,116.212,100.934,99.8042,0.000757437,0.140273,20.8006,-2.30214,0.108863,0.0,0.0
718,179.25,109.907,118.74,115.795,100.933,99.0912,0.000739142,0.140043,20.8007,-2.2621,0.178084,0.0,0.0
720,179.75,109.558,117.728,116.254,100.932,98.9703,0.000714106,0.13982,20.8008,-2.27211,0.189824,0.0,0.0
722,180.25,109.422,117.523,115.057,100.926,98.9086,0.000684633,0.139606,20.801,-2.29213,0.195311,0.0,0.0
724,180.75,108.409,117.007,116.611,100.931,98.8773,0.000651825,0.139433,20.801,-2.33216,0.198796,0.0,0.0
726,181.25,108.698,116.685,115.176,100.921,99.6787,0.00061721,0.139323,20.8011,-2.34217,0.119783,0.0,0.0
728,181.75,108.488,116.276,117.597,100.933,99.334,0.000589172,0.139134,20.8012,-2.35218,0.154494,0.0,0.0
730,182.25,108.329,115.814,117.52,100.934,99.3016,0.000566461,0.138894,20.8014,-2.33216,0.157735,0.0,0.0
732,182.75,107.764,115.629,118.535,100.932,99.8967,0.000548065,0.13862,20.8019,-2.31214,0.0997024,0.0,0.0
734,183.25,107.58,115.067,116.972,100.925,100.137,0.000542098,0.138362,20.8025,-2.32215,0.075836,0.0,0.0
736,183.75,107.376,114.875,119.027,100.947,98.8761,0.000545306,0.13812,20.8031,-2.29213,0.200511,0.0,0.0
738,184.25,106.245,113.873,116.668,100.921,98.8842,0.000560037,0.137924,20.8037,-2.29213,0.197188,0.0,0.0
740,184.75,106.005,113.237,118.69,100.924,99.371,0.000582888,0.137626,20.8042,-2.31214,0.150002,0.0,0.0
742,185.25,106.194,113.645,115.668,100.915,99.1794,0.000601398,0.137385,20.8045,-2.29213,0.167815,0.0,0.0
744,185.75,106.587,113.622,118.642,100.912,98.8813,0.000629742,0.137051,20.8051,-2.28212,0.196649,0.0,0.0
746,186.25,105.773,112.209,117.705,100.91,98.831,0.000652701,0.136781,20.8057,-2.30214,0.20134,0.0,0.0
748,186.75,105.268,111.811,117.436,100.923,99.3592,0.000666441,0.136518,20.8062,-2.31214,0.151069,0.0,0.0
750,187.25,105.989,111.837,116.96,100.904,98.7567,0.000677571,0.136266,20.8066,-2.31214,0.20807,0.0,0.0
752,187.75,105.453,111.513,115.907,100.906,98.5281,0.00067956,0.136061,20.807,-2.31214,0.230638,0.0,0.0
754,188.25,105.045,111.067,118.782,100.913,98.8257,0.000674847,0.13573,20.8073,-2.33216,0.202169,0.0,0.0
756,188.75,105.136,111.154,117.888,100.915,98.4676,0.000663367,0.135461,20.8075,-2.30214,0.237473,0.0,0.0
758,189.25,104.412,110.526,119.265,100.917,99.561,0.000647173,0.135119,20.8086,-2.31214,0.130825,0.0,0.0
760,189.75,104.56,110.31,117.688,100.905,98.6597,0.000625759,0.134841,20.8094,-2.29213,0.217694,0.0,0.0
762,190.25,104.226,109.586,120.504,100.915,99.3117,0.000600946,0.134558,20.8101,-2.30214,0.154917,0.0,0.0
764,190.75,103.79,109.65,117.124,100.9,98.7202,0.000573829,0.134277,20.8107,-2.30214,0.21126,0.0,0.0
766,191.25,103.463,108.66,115.031,100.899,98.5951,0.000545549,0.133976,20.8112,-2.32215,0.223363,0.0,0.0
768,191.75,103.015,108.634,116.428,100.895,98.6621,0.000522642,0.133666,20.8115,-2.32215,0.216483,0.0,0.0
770,192.25,103.302,108.117,117.011,100.887,99.1286,0.000500452,0.133372,20.8118,-2.33216,0.17008,0.0,0.0
772,192.75,102.835,108.117,120.586,100.892,98.6552,0.000482477,0.133094,20.8125,-2.32215,0.216886,0.0,0.0
774,193.25,102.011,107.429,115.702,100.887,99.1554,0.000467918,0.13284,20.8131,-2.31214,0.167428,0.0,0.0
776,193.75,102.187,106.628,118.308,100.892,98.8371,0.000463397,0.132608,20.8136,-2.33216,0.199071,0.0,0.0
778,194.25,102.417,107.379,118.94,100.879,98.7494,0.000459736,0.13242,20.8139,-2.35218,0.206372,0.0,0.0
780,194.75,102.166,106.917,122.026,100.872,98.5346,0.00045677,0.132199,20.8142,-2.33216,0.22673,0.0,0.0
782,195.25,101.459,106.029,120.638,100.874,98.6974,0.000460428,0.13202,20.8142,-2.32215,0.210997,0.0,0.0
784,195.75,101.187,105.395,116.698,100.871,98.2679,0.000463391,0.131853,20.8139,-2.32215,0.252871,0.0,0.0
786,196.25,101.108,105.564,118.437,100.862,98.2305,0.000460942,0.131698,20.8137,-2.33216,0.255691,0.0,0.0
788,196.75,101.563,105.894,118.137,100.864,98.6784,0.000458959,0.131572,20.8136,-2.30214,0.211893,0.0,0.0
790,197.25,100.589,104.448,117.903,100.857,98.611,0.000444022,0.13147,20.8134,-2.32215,0.217839,0.0,0.0
792,197.75,100.518,104.57,115.724,100.875,98.535,0.000431923,0.131333,20.8133,-2.32215,0.226964,0.0,0.0
794,198.25,100.264,104.399,117.175,100.839,98.4429,0.000406375,0.131221,20.8132,-2.32215,0.232586,0.0,0.0
796,198.75,100.684,104.42,121.593,100.842,98.0539,0.000385681,0.131075,20.8132,-2.33216,0.271149,0.0,0.0
798,199.25,100.062,103.68,119.069,100.838,98.7084,0.000359996,0.130957,20.8131,-2.31214,0.206456,0.0,0.0
800,199.75,99.773,103.703,117.23,100.84,98.5838,0.000331162,0.130862,20.813,-2.34217,0.218833,0.0,0.0
802,200.25,99.8667,103.468,118.322,100.837,99.0324,0.000302073,0.130785,20.813,-2.29213,0.174646,0.0,0.0
804,200.75,99.4382,102.84,116.865,100.822,99.1107,0.000273351,0.130749,20.813,-2.33216,0.165594,0.0,0.0
806,201.25,99.6995,103.385,119.606,100.822,98.4279,0.000246265,0.130721,20.813,-2.29213,0.232427,0.0,0.0
808,201.75,99.3442,102.505,118.72,100.817,98.5866,0.000220887,0.130669,20.8129,-2.32215,0.216373,0.0,0.0
810,202.25,99.3061,102.483,119.431,100.81,100.049,0.000197147,0.130601,20.8129,-2.32215,0.0732925,0.0,0.0
812,202.75,98.6821,102.355,119.157,100.798,98.5939,0.000175052,0.130545,20.8129,-2.34217,0.213864,0.0,0.0
814,203.25,98.5929,101.478,117.563,100.804,98.341,0.000157155,0.130473,20.8129,-2.34217,0.239293,0.0,0.0
816,203.75,98.3772,101.52,119.707,100.793,97.991,0.000154075,0.130414,20.8129,-2.35218,0.272684,0.0,0.0
818,204.25,98.6082,101.767,119.861,100.8,98.0836,0.000161856,0.130339,20.8129,-2.33216,0.264253,0.0,0.0
820,204.75,98.0878,100.776,116.969,100.781,98.5265,0.000191107,0.130278,20.8129,-2.35218,0.218801,0.0,0.0
822,205.25,98.0525,100.898,115.252,100.79,98.1457,0.000235454,0.130242,20.8127,-2.33216,0.257155,0.0,0.0
824,205.75,97.9685,100.269,118.412,100.765,98.2273,0.000271374,0.130213,20.8126,-2.32215,0.246662,0.0,0.0
826,206.25,97.4729,100.606,117.832,100.767,98.4027,0.000357476,0.130203,20.8125,-2.33216,0.229602,0.0,0.0
828,206.75,97.5467,100.11,118.782,100.757,98.1749,0.000427218,0.130194,20.8124,-2.33216,0.251119,0.0,0.0
830,207.25,97.5991,99.3483,118.15,100.75,97.9959,0.000499492,0.13018,20.8121,-2.33216,0.268034,0.0,0.0
832,207.75,97.1278,99.7123,117.062,100.74,98.6438,0.000558034,0.130162,20.8116,-2.34217,0.203394,0.0,0.0
834,208.25,96.8639,99.5027,119.773,100.738,98.2175,0.000597785,0.130147,20.8112,-2.34217,0.245049,0.0,0.0
836,208.75,96.7453,98.6384,117.932,100.725,98.2123,0.000623082,0.130163,20.8109,-2.36219,0.244321,0.0,0.0
838,209.25,96.6587,98.8175,118.491,100.715,97.9407,0.000631438,0.130176,20.8107,-2.33216,0.27021,0.0,0.0
840,209.75,96.7037,98.4227,119.522,100.72,97.8412,0.000627285,0.130186,20.8105,-2.35218,0.280467,0.0,0.0
842,210.25,96.7452,98.8198,117.859,100.718,98.0495,0.00061307,0.130195,20.8103,-2.34217,0.259744,0.0,0.0
844,210.75,95.9544,98.1123,118.442,100.708,97.9313,0.000591789,0.130216,20.8102,-2.36219,0.270392,0.0,0.0
846,211.25,95.8033,97.6246,120.49,100.7,98.0876,0.000571362,0.130247,20.8101,-2.35218,0.254225,0.0,0.0
848,211.75,95.8127,97.8762,120.537,100.69,98.2188,0.000551945,0.130286,20.81,-2.34217,0.240329,0.0,0.0
850,212.25,95.5324,97.4686,120.496,100.697,97.6345,0.000536217,0.130331,20.8099,-2.33216,0.298694,0.0,0.0
852,212.75,94.9481,97.1731,120.606,100.675,98.3613,0.000530751,0.13036,20.8096,-2.32215,0.224901,0.0,0.0
854,213.25,95.3478,96.9846,116.73,100.675,98.0377,0.000526323,0.130377,20.8092,-2.30214,0.256771,0.0,0.0
856,213.75,95.3735,96.8657,118.488,100.666,97.8103,0.00053295,0.130383,20.8088,-2.31214,0.27837,0.0,0.0
858,214.25,95.1561,97.1289,119.1,100.657,97.9472,0.000547509,0.130382,20.8085,-2.30214,0.263951,0.0,0.0
860,214.75,94.74,96.7804,120.224,100.65,97.9066,0.000559303,0.130381,20.8083,-2.31214,0.267299,0.0,0.0
862,215.25,94.7331,96.5876,121.497,100.638,97.9845,0.000596767,0.130394,20.8077,-2.30214,0.258431,0.0,0.0
864,215.75,94.5657,96.1915,118.236,100.621,97.9029,0.000627114,0.130404,20.8071,-2.31214,0.26485,0.0,0.0
866,216.25,94.7881,95.6857,118.204,100.624,97.5956,0.000668695,0.130385,20.8067,-2.30214,0.295573,0.0,0.0
868,216.75,94.2641,95.5831,117.267,100.607,97.7978,0.000702376,0.130369,20.8064,-2.32215,0.273955,0.0,0.0
870,217.25,93.4535,95.7449,119.585,100.598,97.5209,0.000729657,0.130357,20.8061,-2.30214,0.300442,0.0,0.0
872,217.75,93.6843,94.832,118.051,100.585,97.4632,0.00075054,0.130388,20.8061,-2.32215,0.304912,0.0,0.0
874,218.25,93.8686,94.8794,116.719,100.578,97.121,0.000767456,0.130414,20.8064,-2.32215,0.338272,0.0,0.0
876,218.75,93.8942,94.6647,118.247,100.562,97.816,0.000760516,0.13042,20.8066,-2.32215,0.267776,0.0,0.0
878,219.25,93.3699,94.41,119.598,100.589,98.1778,0.000754894,0.130426,20.8068,-2.31214,0.234689,0.0,0.0
880,219.75,92.9322,94.6674,119.073,100.559,97.9086,0.00075034,0.13043,20.8069,-2.31214,0.258315,0.0,0.0
882,220.25,93.0475,94.2744,119.103,100.566,97.6199,0.000701766,0.130434,20.807,-2.29213,0.287615,0.0,0.0
884,220.75,92.9894,93.9408,120.882,100.547,97.2931,0.000662421,0.130437,20.8071,-2.30214,0.318177,0.0,0.0
886,221.25,93.2697,94.4215,117.248,100.555,97.5935,0.000607524,0.130467,20.8072,-2.31214,0.289098,0.0,0.0
888,221.75,93.053,94.0368,121.296,100.537,97.6057,0.000563058,0.130491,20.8072,-2.32215,0.286211,0.0,0.0
890,222.25,91.936,92.7915,120.078,100.536,97.5793,0.000516137,0.130511,20.8073,-2.29213,0.288749,0.0,0.0
892,222.75,92.336,93.1018,116.742,100.529,97.9508,0.000478132,0.130596,20.8073,-2.31214,0.251294,0.0,0.0
894,223.25,92.3945,93.5842,119.388,100.531,97.7084,0.000455826,0.130665,20.8074,-2.31214,0.275413,0.0,0.0
896,223.75,92.5576,93.6002,118.454,100.514,97.8046,0.000437759,0.130748,20.8074,-2.31214,0.264331,0.0,0.0
898,224.25,92.2833,92.9914,116.881,100.517,97.4319,0.000434653,0.130816,20.8074,-2.30214,0.301532,0.0,0.0
900,224.75,92.0751,92.9554,120.468,100.507,97.8842,0.000442514,0.130898,20.8074,-2.29213,0.255761,0.0,0.0
902,225.25,92.0762,92.4206,121.889,100.506,98.1822,0.000461007,0.130965,20.8074,-2.31214,0.226282,0.0,0.0
904,225.75,92.1037,91.7475,119.426,100.493,98.0344,0.000486901,0.131047,20.8076,-2.32215,0.239522,0.0,0.0
906,226.25,91.2355,92.3835,126.11,100.508,97.814,0.000507874,0.131113,20.8077,-2.32215,0.262782,0.0,0.0
908,226.75,91.5923,91.7557,121.522,100.489,97.6922,0.000529332,0.131139,20.8079,-2.32215,0.273036,0.0,0.0
910,227.25,91.6097,92.0851,121.338,100.497,97.1542,0.000550736,0.13116,20.8084,-2.31214,0.327186,0.0,0.0
912,227.75,91.1363,91.8279,122.555,100.479,97.6975,0.000566158,0.131177,20.8088,-2.33216,0.271536,0.0,0.0
914,228.25,91.1893,91.36,119.414,100.483,97.0406,0.000576925,0.131081,20.8092,-2.32215,0.33718,0.0,0.0
916,228.75,91.0703,91.3823,121.489,100.468,96.9711,0.000581177,0.131004,20.8095,-2.33216,0.342617,0.0,0.0
918,229.25,91.041,91.0366,124.11,100.47,97.2687,0.000580599,0.130872,20.8097,-2.34217,0.313213,0.0,0.0
920,229.75,91.0499,90.3996,120.385,100.465,97.3771,0.000579493,0.130765,20.8099,-2.33216,0.301934,0.0,0.0
922,230.25,90.3598,90.6835,122.805,100.477,97.4502,,0.130664,,-2.32215,0.295811,0.0,0.0
924,230.75,90.7548,90.3473,118.039,100.455,97.5976,,0.130569,,-2.32215,0.279084,0.0,0.0
926,231.25,90.0822,90.8516,122.688,100.458,97.4997,,0.130492,,-2.31214,0.289098,0.0,0.0
928,231.75,90.0762,90.569,117.091,100.441,97.5448,,0.130374,,-2.33216,0.282987,0.0,0.0
930,232.25,89.7804,90.4628,119.577,100.453,97.5026,,0.130322,,-2.32215,0.288346,0.0,0.0
932,232.75,89.9646,89.8778,121.705,100.434,97.6902,,0.13032,,-2.32215,0.267881,0.0,0.0
934,233.25,90.1077,89.9121,119.68,100.445,97.7129,,,,-2.33216,0.266686,0.0,0.0
936,233.75,90.0839,89.6412,120.388,100.434,97.425,,,,-2.34217,0.294204,0.0,0.0
938,234.25,89.8057,89.5763,119.817,100.428,97.3804,,,,-2.34217,0.298092,0.0,0.0
940,234.75,89.1629,89.0203,122.74,100.421,97.3292,,,,-2.33216,0.302431,0.0,0.0
942,235.25,89.2149,89.5222,121.56,100.422,97.3199,,,,-2.34217,0.303476,0.0,0.0
944,235.75,89.3132,89.0927,118.113,100.422,97.1997,,,,-2.33216,0.315427,0.0,0.0
946,236.25,89.4863,89.1422,119.73,100.426,97.352,,,,-2.32215,0.30072,0.0,0.0
948,236.75,89.1014,89.1264,116.094,100.41,97.3877,,,,-2.33216,0.295567,0.0,0.0
950,237.25,88.7138,88.7491,120.27,100.408,97.609,,,,-2.33216,0.27346,0.0,0.0
952,237.75,89.1544,88.5825,118.963,100.407,97.4222,,,,-2.34217,0.291866,0.0,0.0
954,238.25,88.7775,88.1144,119.527,100.405,97.1685,,,,-2.33216,0.316934,0.0,0.0
956,238.75,88.6768,88.5974,120.767,100.415,97.2484,,,,-2.34217,0.309917,0.0,0.0
958,239.25,88.5443,88.3723,120.671,100.412,97.473,,,,-2.32215,0.287337,0.0,0.0
960,239.75,88.2547,87.8593,121.582,100.397,97.3763,,,,-2.32215,0.295483,0.0,0.0
962,240.25,87.9399,87.5534,118.387,100.393,97.2525,,,,-2.32215,0.307361,0.0,0.0
964,240.75,87.9194,87.5858,119.317,100.387,96.9236,,,,-2.32215,0.339575,0.0,0.0
965,241,88.2808,87.928,119.119,100.397,97.1904,,,,-2.31214,0.31401,0.0,0.0