File: 01_Data/PP/Cone/PP_Cone_HF25Scan_220203_R2.csv
Names,Time,Stack TC,Smoke TC,Exh Press,Smoke Comp,Smoke Meas,CO Meter,CO2 Meter,O2 Meter,Sample Mass,Ext Coeff,Start Test,Flame Verif
Chan Gain,,500,500,1,1,1,1,1,1,1,1,1.0,1.0
Offset,,0,0,0.14021,0,0,0,0,0,0,0,0.0,0.0
Gain,,1,1,25.011,13.3046,13.3037,1,1,1,1.00093,1.10262,1.0,1.0
Units,sec,C,C,Pa,%,%,%,%,%,g,/m,,
Baseline,,26.3193,25.4849,141.302,100.123,104.832,0.00274799,0.114071,20.8706,-870.037,-0.444453,,
4,0.75,20.0054,19.5018,147.694,99.2501,102.901,0.0024988,0.125975,20.8616,28.7467,-0.349375,0.0,0.0
8,1.75,20.7806,20.5804,146.52,99.2078,102.798,0.00243905,0.12533,20.8626,28.7467,-0.343868,0.0,0.0
12,2.75,20.6425,20.6364,140.193,99.2099,102.703,0.00239908,0.124715,20.8633,28.7567,-0.334689,0.0,0.0
16,3.75,20.9706,20.722,143.471,99.1725,102.554,0.00239014,0.124188,20.8638,28.7567,-0.324328,0.0,0.0
20,4.75,20.7927,20.8094,145.511,99.1473,102.226,0.00242197,0.123717,20.8649,28.7567,-0.295719,0.0,0.0
24,5.75,20.8976,20.6125,142.507,99.1311,102.075,0.00246724,0.123381,20.8656,28.7667,-0.283041,0.0,0.0
28,6.75,20.7621,21.1153,141.896,99.1055,102.813,0.00250138,0.123014,20.8663,28.7367,-0.355262,0.0,0.0
32,7.75,20.8643,20.5337,140.767,99.0942,102.782,0.00251643,0.122508,20.8672,28.7467,-0.353431,0.0,0.0
36,8.75,21.0796,20.8643,141.06,99.0917,102.316,0.00252035,0.121836,20.8673,28.7467,-0.309671,0.0,0.0
40,9.75,21.1725,20.974,139.243,99.0808,102.466,0.00252292,0.121228,20.8679,28.7367,-0.324931,0.0,0.0
44,10.75,20.7328,20.7419,144.45,99.0836,102.669,0.00252285,0.120398,20.869,28.7367,-0.343834,0.0,0.0
48,11.75,21.149,21.1217,146.755,99.0799,102.447,0.0025206,0.11949,20.8702,28.7267,-0.323208,0.0,0.0
52,12.75,20.6222,21.0256,142.254,99.0804,102.795,0.00251864,0.118564,20.8709,28.7367,-0.355963,0.0,0.0
56,13.75,21.0694,21.6377,144.988,99.0804,103.113,0.00251246,0.117639,20.8716,28.7367,-0.385828,0.0,0.0
60,14.75,21.3302,21.5984,140.785,99.09375,102.349,0.00250508,0.11671,20.8726,28.7367,-0.312657,0.0,0.0
64,15.75,20.9749,21.2462,146.233,99.0962,102.553,0.00250181,0.115927,20.8733,28.7367,-0.331622,0.0,0.0
68,16.75,20.9657,21.484,143.392,99.1197,103.245,0.00252628,0.115276,20.8744,28.7367,-0.394391,0.0,0.0
72,17.75,21.5042,21.7527,143.632,99.1327,102.483,0.00255787,0.114617,20.8753,28.7166,-0.321468,0.0,0.0
76,18.75,21.2738,21.4389,144.978,99.1433,102.551,0.00258303,0.114049,20.8758,28.7267,-0.326835,0.0,0.0
80,19.75,21.2899,20.9519,141.567,99.1652,103.327,0.00260176,0.113596,20.8762,28.7467,-0.397634,0.0,0.0
84,20.75,21.3322,21.6368,142.238,99.1827,102.915,0.00262454,0.113236,20.8765,28.7367,-0.357242,0.0,0.0
88,21.75,21.5186,20.6942,145.266,99.1965,102.677,0.00265981,0.112923,20.8766,28.7267,-0.333511,0.0,0.0
92,22.75,21.2635,21.1438,146.282,99.2087,102.933,0.00269411,0.112638,20.8767,28.7066,-0.356425,0.0,0.0
96,23.75,21.055,21.5051,143.431,99.2399,102.93,0.00273237,0.112362,20.8768,28.7166,-0.353111,0.0,0.0
100,24.75,20.9518,21.3474,143.239,99.2683,102.766,0.00274192,0.112182,20.8769,28.7267,-0.334955,0.0,0.0
104,25.75,20.8448,21.5722,148.555,99.2809,102.964,0.00269713,0.112137,20.8769,28.7166,-0.352318,0.0,0.0
108,26.75,21.3246,21.1306,144.7,99.3,102.35,0.00259054,0.112136,20.8769,28.7267,-0.292623,0.0,0.0
112,27.75,20.7445,20.7142,145.652,99.3207,103.1,0.00248595,0.112171,20.8769,28.7166,-0.361249,0.0,0.0
116,28.75,21.0013,20.7149,140.314,99.3398,102.973,0.00240947,0.112246,20.8769,28.7267,-0.347386,0.0,0.0
120,29.75,21.0242,21.1409,148.951,99.3617,103.275,0.00236453,0.112301,20.8769,28.7267,-0.373621,0.0,0.0
124,30.75,20.7425,21.4288,142.141,99.3837,103.34,0.00234241,0.112246,20.8769,28.7166,-0.377606,0.0,0.0
128,31.75,21.0137,21.097,145.429,99.4048,103.066,0.0023394,0.112155,20.8772,28.7066,-0.349868,0.0,0.0
132,32.75,20.3992,20.6477,143.227,99.4381,103.367,0.00235784,0.112095,20.8777,28.6966,-0.37482,0.0,0.0
136,33.75,20.8686,21.2792,141.576,99.4482,103.234,0.00239688,0.112043,20.8778,28.7166,-0.361402,0.0,0.0
140,34.75,20.6753,21.3134,143.295,99.4701,102.945,0.00245189,0.11194,20.8773,28.7267,-0.332149,0.0,0.0
144,35.75,20.6211,21.1954,143.574,99.4868,103.189,0.00251297,0.111855,20.8769,28.7166,-0.35339,0.0,0.0
148,36.75,20.7707,20.8677,144.156,99.5128,103.344,0.00255801,0.111774,20.8767,28.7166,-0.365352,0.0,0.0
152,37.75,20.5988,21.2247,145.71,99.5388,103.256,0.00257647,0.111647,20.8772,28.7267,-0.354654,0.0,0.0
156,38.75,20.8263,21.1491,144.337,99.5493,103.53,0.00257305,0.111505,20.8777,28.7166,-0.379227,0.0,0.0
160,39.75,20.526,20.7442,144.195,99.5676,103.445,0.00253753,0.111383,20.878,28.6766,-0.369521,0.0,0.0
164,40.75,21.1112,20.6626,145.225,99.5879,103.003,0.00249502,0.111291,20.8782,28.6966,-0.326084,0.0,0.0
168,41.75,21.0077,20.6788,141.983,99.6058,103.34,0.00244274,0.111209,20.8783,28.6966,-0.355977,0.0,0.0
172,42.75,20.864,20.6396,142.221,99.62,103.456,0.00240153,0.111067,20.8784,28.6866,-0.365459,0.0,0.0
176,43.75,20.6328,20.9692,142.031,99.6399,103.534,0.0023824,0.110893,20.8785,28.6966,-0.370851,0.0,0.0
180,44.75,20.6132,21.3179,141.913,99.6472,103.432,0.00239028,0.110818,20.8785,28.6966,-0.360579,0.0,0.0
184,45.75,21.24,21.2825,148.564,99.6646,103.796,0.00242206,0.110822,20.8786,28.6966,-0.392804,0.0,0.0
188,46.75,21.4142,20.9565,139.819,99.6719,103.522,0.00245399,0.110725,20.8786,28.7066,-0.366599,0.0,0.0
192,47.75,20.9599,21.3933,143.46,99.6898,103.64,0.00247273,0.110621,20.8786,28.7066,-0.375822,0.0,0.0
196,48.75,20.9801,21.3665,143.826,99.6991,103.264,0.00247628,0.110546,20.879,28.7066,-0.339767,0.0,0.0
200,49.75,21.2697,20.903,142.354,99.7174,103.768,0.00247626,0.110519,20.8797,28.6866,-0.385072,0.0,0.0
204,50.75,20.7934,21.0177,143.889,99.732,103.917,0.0024836,0.11048,20.8801,28.6966,-0.397608,0.0,0.0
208,51.75,20.8715,21.7201,143.859,99.7434,102.976,0.00249953,0.110402,20.8804,28.7066,-0.308476,0.0,0.0
212,52.75,20.5794,21.3418,140.964,99.745,103.594,0.00253238,0.110351,20.8806,28.6966,-0.366184,0.0,0.0
216,53.75,21.0131,21.2616,146.236,99.7617,103.706,0.00256187,0.110292,20.8807,28.7066,-0.375026,0.0,0.0
220,54.75,21.0906,21.7603,142.46,99.7682,104.037,0.00258647,0.110293,20.8808,28.7066,-0.405283,0.0,0.0
224,55.75,20.68,21.6575,138.452,99.7767,103.854,0.00259177,0.110265,20.8808,28.7066,-0.387419,0.0,0.0
228,56.75,21.0754,21.2693,143.914,99.7832,103.485,0.00257623,0.110214,20.8809,28.7066,-0.35232,0.0,0.0
232,57.75,21.3977,21.3432,144.749,99.7901,103.453,0.00255148,0.110128,20.8809,28.7066,-0.348652,0.0,0.0
236,58.75,21.0629,21.884,142.655,99.8124,103.811,0.00250557,0.110022,20.8809,28.6866,-0.379909,0.0,0.0
240,59.75,21.5567,21.1976,140.955,99.8181,103.576,0.00245929,0.110027,20.8809,28.6866,-0.357469,0.0,0.0
244,60.75,20.9334,21.0258,139.413,99.8157,103.812,0.00240991,0.110055,20.8809,28.7066,-0.379708,0.0,0.0
248,61.75,20.5913,21.1248,141.755,99.8282,103.888,0.0023618,0.110074,20.8809,28.7066,-0.385559,0.0,0.0
252,62.75,20.7747,21.9247,144.54,99.84,103.78,0.00231473,0.110203,20.8809,28.6966,-0.37432,0.0,0.0
256,63.75,20.9003,21.5988,141.442,99.8465,103.373,0.00226688,0.110332,20.8805,28.7066,-0.335742,0.0,0.0
260,64.75,20.9274,21.4714,143.592,99.7868,103.533,0.00223578,0.110497,20.8798,28.7166,-0.356442,0.0,0.0
264,65.75,20.9663,21.6875,142.602,99.8636,103.336,0.00220169,0.110682,20.8794,28.6866,-0.330595,0.0,0.0
268,66.75,20.8374,21.8586,145.406,99.8839,103.221,0.00218541,0.110947,20.8791,28.6866,-0.31783,0.0,0.0
272,67.75,20.7342,20.9889,144.923,99.8814,103.421,0.00218764,0.111169,20.8782,28.6766,-0.336841,0.0,0.0
276,68.75,20.3682,21.3837,141.697,99.8875,103.724,0.00219833,0.111608,20.8775,28.6766,-0.364573,0.0,0.0
280,69.75,21.5096,21.6278,139.227,99.8973,103.667,0.00222471,0.112069,20.8771,28.6866,-0.358252,0.0,0.0
284,70.75,20.5586,21.0361,139.33,99.8993,104.096,0.00226244,0.112538,20.8768,28.6866,-0.398012,0.0,0.0
288,71.75,21.2855,21.5901,140.222,99.8944,103.525,0.0023099,0.112867,20.8766,28.7066,-0.345298,0.0,0.0
292,72.75,21.2083,21.3674,142.829,99.8985,103.584,0.00234715,0.113069,20.8765,28.6966,-0.350365,0.0,0.0
296,73.75,20.5682,21.0897,138.946,99.9034,103.903,0.00236669,0.113163,20.8762,28.6666,-0.379682,0.0,0.0
300,74.75,21.2429,21.3732,145.001,99.9086,103.591,0.00236452,0.113181,20.8754,28.6666,-0.350103,0.0,0.0
304,75.75,21.3439,21.662,143.392,99.8961,103.445,0.00234071,0.11314,20.8749,28.6666,-0.337666,0.0,0.0
308,76.75,20.9433,21.6086,143.053,99.909,103.875,0.00231418,0.113163,20.8746,28.6766,-0.376524,0.0,0.0
312,77.75,21.023,21.6382,142.989,99.9046,104.109,0.00229852,0.113217,20.8744,28.6966,-0.398669,0.0,0.0
316,78.75,21.2883,21.6216,138.121,99.9017,103.422,0.0022958,0.113312,20.8742,28.6966,-0.334913,0.0,0.0
320,79.75,20.8802,21.9878,145.395,99.9107,103.758,0.00231903,0.113346,20.8741,28.6866,-0.365435,0.0,0.0
324,80.75,20.9189,21.1902,145.062,99.9115,103.773,0.0023641,0.113298,20.8741,28.6766,-0.366795,0.0,0.0
328,81.75,20.8911,21.5549,137.69,99.9131,102.964,0.0024275,0.113316,20.874,28.6766,-0.290888,0.0,0.0
332,82.75,21.3549,21.0973,141.1,99.9017,103.368,0.0024864,0.113191,20.874,28.6766,-0.3299,0.0,0.0
336,83.75,20.9808,21.5657,144.397,99.9017,103.223,0.00251395,0.113033,20.874,28.6766,-0.316366,0.0,0.0
340,84.75,20.9688,21.6112,144.24,99.9082,103.344,0.00250098,0.112906,20.874,28.6766,-0.326991,0.0,0.0
344,85.75,21.2014,21.6226,145.215,99.9095,103.027,0.00248757,0.112783,20.874,28.6666,-0.297228,0.0,0.0
348,86.75,21.2356,21.6977,143.767,99.9021,103.094,0.00249221,0.112626,20.874,28.6666,-0.304184,0.0,0.0
352,87.75,21.0938,21.4953,140.159,99.9123,103.743,0.00256486,0.112479,20.874,28.6666,-0.363916,0.0,0.0
356,88.75,21.0778,21.2369,140.86,99.9046,102.517,0.00270389,0.112431,20.8737,28.6666,-0.249709,0.0,0.0
360,89.75,20.8775,21.0063,143.735,99.8863,102.519,0.00288121,0.1124,20.873,28.6666,-0.251631,0.0,0.0
364,90.75,21.1901,21.1992,140.06,99.8737,102.552,0.00301941,0.112439,20.8725,28.6666,-0.25599,0.0,0.0
368,91.75,21.2371,21.6431,140.278,99.8782,102.331,0.00311483,0.112577,20.8722,28.6566,-0.234705,0.0,0.0
372,92.75,20.9577,21.6122,146.583,99.8733,102.686,0.00314626,0.112851,20.8714,28.6566,-0.268658,0.0,0.0
376,93.75,21.3491,22.1155,141.821,99.8567,101.988,0.00315285,0.113248,20.8707,28.6766,-0.204232,0.0,0.0
380,94.75,20.8048,21.4911,142.884,99.8473,102.197,0.00317094,0.113638,20.8702,28.6666,-0.224946,0.0,0.0
384,95.75,20.9631,21.4964,139.64,99.8388,102.548,0.00320683,0.113975,20.8699,28.6666,-0.258951,0.0,0.0
388,96.75,21.2346,21.5195,141.465,99.8384,102.361,0.00324083,0.114232,20.8697,28.6466,-0.241321,0.0,0.0
392,97.75,20.8306,20.8912,142.36,99.8303,101.951,0.00324364,0.114425,20.8696,28.6466,-0.203362,0.0,0.0
396,98.75,20.9919,21.5086,147.725,99.8266,102.625,0.00322855,0.114452,20.8695,28.6366,-0.267404,0.0,0.0
400,99.75,21.1308,21.5793,142.318,99.8019,102.146,0.00314301,0.114371,20.8694,28.6366,-0.224547,0.0,0.0
404,100.75,20.8579,22.0926,142.071,99.7836,102.291,0.00305742,0.114298,20.8694,28.6366,-0.240072,0.0,0.0
408,101.75,20.1739,21.1209,144.509,99.7783,101.727,0.00297223,0.114245,20.8695,28.6366,-0.187074,0.0,0.0
412,102.75,20.7381,21.4002,142.95,99.7718,101.538,0.00289728,0.11421,20.8696,28.6166,-0.169699,0.0,0.0
416,103.75,21.1795,21.7581,139.191,99.7702,101.239,0.00283236,0.11405,20.8696,28.6266,-0.141351,0.0,0.0
420,104.75,20.924,22.3373,144.321,99.7584,101.644,0.00279085,0.113928,20.8696,28.6466,-0.181125,0.0,0.0
424,105.75,20.7891,21.3663,140.178,99.7548,101.461,0.00278251,0.113873,20.8696,28.6366,-0.164002,0.0,0.0
428,106.75,20.9995,21.7418,142.126,99.7442,101.547,0.00282081,0.113823,20.8696,28.6266,-0.173227,0.0,0.0
432,107.75,20.9792,21.5838,141.99,99.7255,100.919,0.00287122,0.113798,20.8697,28.6266,-0.115069,0.0,0.0
436,108.75,20.0748,21.3357,143.792,99.7146,101.107,0.00292015,0.113858,20.8694,28.6065,-0.134092,0.0,0.0
440,109.75,20.936,21.8586,142.162,99.7105,101.23,0.00295624,0.114149,20.8685,28.5965,-0.146324,0.0,0.0
444,110.75,20.8806,21.6321,147.244,99.6918,101.583,0.00297425,0.114569,20.8675,28.5765,-0.181748,0.0,0.0
448,111.75,20.8051,21.4536,143.767,99.6902,101.088,0.00298563,0.115192,20.8659,28.5765,-0.134629,0.0,0.0
452,112.75,21.4435,21.6086,140.057,99.6593,102.153,0.00298363,0.116048,20.864,28.5765,-0.239023,0.0,0.0
456,113.75,21.2451,21.9949,140.983,99.6468,100.692,0.00298454,0.116706,20.8627,28.5765,-0.100896,0.0,0.0
460,114.75,21.2121,21.5772,143.368,99.6196,100.632,0.00299741,0.117491,20.8615,28.4564,-0.0977634,0.0,0.0
464,115.75,21.0582,21.6945,140.38,99.607,100.746,0.00302492,0.118962,20.8581,28.5064,-0.109945,0.0,0.0
468,116.75,21.093,22.029,139.058,99.5899,102.523,0.00306125,0.121753,20.8492,28.4964,-0.280719,0.0,1.0
472,117.75,21.3434,22.5412,136.082,99.5692,101.804,0.00310463,0.127592,20.8367,28.5064,-0.214658,0.0,1.0
476,118.75,21.9172,22.4244,134.052,99.5627,101.773,0.00314595,0.136058,20.8188,28.5365,-0.212358,0.0,1.0
480,119.75,21.7194,22.7397,138.823,99.5432,100.737,0.00318004,0.146379,20.8004,28.4264,-0.115279,0.0,1.0
484,120.75,21.6793,22.7825,137.191,99.5306,100.955,0.00320685,0.156743,20.7807,28.4264,-0.137452,0.0,1.0
488,121.75,21.9954,23.2251,139.339,99.5144,101.027,0.00321567,0.168204,20.7581,28.4264,-0.145873,0.0,0.0
492,122.75,22.4281,23.7374,135.473,99.5051,100.609,0.00319806,0.181546,20.7413,28.3963,-0.106701,0.0,0.0
496,123.75,22.9286,24.4384,129.904,99.4803,99.2459,0.00318213,0.193194,20.7215,28.3463,0.0228118,0.0,0.0
500,124.75,22.6617,24.9117,133.058,99.4726,99.0693,0.00317638,0.206184,20.704,28.3063,0.0392883,0.0,0.0
504,125.75,23.5885,25.3989,132.289,99.4567,99.8545,0.00323786,0.217844,20.6798,28.2963,-0.0386075,0.0,0.0
508,126.75,23.8502,26.0945,136.079,99.4401,98.7393,0.00337628,0.229948,20.6583,28.2662,0.0684086,0.0,0.0
512,127.75,24.6836,26.8873,136.318,99.4251,98.4648,0.00351817,0.238844,20.6424,28.2362,0.0938692,0.0,0.0
516,128.75,25.241,27.5454,132.261,99.3979,96.9695,0.00372207,0.249922,20.6242,28.1861,0.239229,0.0,0.0
520,129.75,25.2632,27.3973,129.34,99.393,97.3901,0.00388881,0.25974,20.6069,28.1461,0.196893,0.0,0.0
524,130.75,25.9896,28.4669,134.296,99.3699,96.5538,0.00400222,0.266706,20.5903,28.1061,0.27806,0.0,0.0
528,131.75,26.4399,29.1811,130.245,99.3495,96.1803,0.00409269,0.276251,20.5734,28.0861,0.313572,0.0,0.0
532,132.75,26.4836,29.2849,131.921,99.3313,95.1222,0.00420963,0.284708,20.5576,28.026,0.41878,0.0,0.0
536,133.75,26.867,29.7331,128.979,99.3244,96.2026,0.00432243,0.292767,20.5438,28.056,0.308876,0.0,0.0
540,134.75,27.9582,31.2255,130.6,99.3134,94.5786,0.00455127,0.301215,20.5309,27.986,0.472475,0.0,0.0
544,135.75,28.3358,31.9289,130.653,99.2939,92.8324,0.00479531,0.308943,20.5184,27.9059,0.65082,0.0,0.0
548,136.75,28.0066,31.7565,128.599,99.2895,94.2128,0.00504279,0.317114,20.505,27.8759,0.507622,0.0,0.0
552,137.75,29.0182,32.9139,127.544,99.2639,91.7797,0.00526982,0.32513,20.4901,27.8458,0.758204,0.0,0.0
556,138.75,29.3282,33.3168,131.201,99.2493,90.6847,0.0054779,0.332849,20.4749,27.8058,0.872865,0.0,0.0
560,139.75,29.8797,34.0679,129.083,99.2424,91.5645,0.00565804,0.340743,20.4613,27.7658,0.778809,0.0,0.0
564,140.75,29.8155,34.4774,131.638,99.231,91.5909,0.0058212,0.348624,20.4478,27.7457,0.774914,0.0,0.0
568,141.75,30.3476,34.7722,129.415,99.2147,89.4152,0.00598621,0.355968,20.4334,27.6657,1.00586,0.0,0.0
572,142.75,31.4939,36.2767,133.231,99.2074,91.8174,0.00611852,0.364254,20.4183,27.5756,0.748725,0.0,0.0
576,143.75,32.0137,36.425,125.942,99.1908,90.379,0.0062506,0.372441,20.402,27.5856,0.899827,0.0,0.0
580,144.75,32.5313,37.4095,127.152,99.1798,88.8114,0.00646706,0.380893,20.3813,27.4855,1.06799,0.0,0.0
584,145.75,33.4786,38.7708,128.261,99.1705,87.3941,0.00661243,0.389977,20.3722,27.4154,1.22267,0.0,0.0
588,146.75,34.1155,40.0346,126.76,99.1579,90.6965,0.0067991,0.39877,20.3574,27.3654,0.862703,0.0,0.0
592,147.75,35.1649,40.3866,123.72,99.1705,85.669,0.0070489,0.409245,20.3478,27.3254,1.4155,0.0,0.0
596,148.75,35.243,41.2622,123.234,99.1465,89.2101,0.00730387,0.414067,20.3378,27.2753,1.02142,0.0,0.0
600,149.75,35.4896,41.2844,128.497,99.1319,88.7619,0.00754302,0.422098,20.3266,27.2253,1.06871,0.0,0.0
604,150.75,36.1415,41.8155,118.85,99.1279,86.9321,0.00777861,0.429827,20.3138,27.1652,1.26978,0.0,0.0
608,151.75,36.82,43.4353,124.298,99.1189,86.2707,0.00799596,0.437059,20.2992,27.0751,1.34278,0.0,0.0
612,152.75,37.3837,43.8504,123.073,99.1088,83.827,0.00817643,0.444115,20.2825,27.0651,1.61971,0.0,0.0
616,153.75,37.9616,44.6255,122.94,99.1128,84.3301,0.00833299,0.45218,20.2667,26.965,1.56224,0.0,0.0
620,154.75,38.7952,45.4146,120.725,99.1076,83.9468,0.00847069,0.4603,20.2523,26.935,1.60578,0.0,0.0
624,155.75,38.753,45.6746,120.402,99.108,83.9675,0.00861137,0.468917,20.2381,26.8649,1.60344,0.0,0.0
628,156.75,39.1313,46.5787,125.497,99.1067,82.2981,0.0087816,0.477849,20.2231,26.8449,1.79756,0.0,0.0
632,157.75,39.7115,47.2802,115.762,99.108,83.3443,0.00896211,0.48669,20.2066,26.7248,1.67549,0.0,0.0
636,158.75,40.6167,48.0468,124.038,99.1157,84.2241,0.00914209,0.495219,20.1914,26.6647,1.57468,0.0,0.0
640,159.75,40.6214,49.0528,118.35,99.1084,84.8014,0.00935828,0.503368,20.1754,26.5446,1.50789,0.0,0.0
644,160.75,41.9094,49.9185,127.709,99.1059,79.964,0.0096219,0.512163,20.1585,26.4646,2.07576,0.0,0.0
648,161.75,42.1427,50.5776,120.861,99.112,82.5352,0.00987543,0.521553,20.1445,26.3845,1.77025,0.0,0.0
652,162.75,42.9711,51.5278,126.349,99.1246,82.3906,0.0102091,0.530426,20.1273,26.3144,1.78843,0.0,0.0
656,163.75,43.6282,52.1012,121.122,99.1335,82.6724,0.0105166,0.541569,20.1057,26.2443,1.75628,0.0,0.0
660,164.75,44.2478,52.5793,114.497,99.14,80.5762,0.0108134,0.555136,20.0826,26.1443,2.00531,0.0,0.0
664,165.75,44.8117,54.3824,121.18,99.1591,79.4228,0.0110824,0.569189,20.0538,26.0742,2.14663,0.0,0.0
668,166.75,46.1131,55.3947,114.796,99.179,81.6907,0.0113448,0.582075,20.0274,25.9941,1.87626,0.0,0.0
672,167.75,46.5249,55.7791,120.204,99.1847,78.9429,0.0116288,0.594616,20.0045,25.864,2.20774,0.0,0.0
676,168.75,47.4061,57.0596,115.488,99.2038,79.582,0.0119044,0.607635,19.9858,25.7939,2.13162,0.0,0.0
680,169.75,47.9237,58.5975,116.195,99.2074,78.9441,0.0121332,0.620912,19.9648,25.6738,2.20981,0.0,0.0
684,170.75,48.1618,59.0784,118.533,99.2237,80.1702,0.0123275,0.635296,19.9431,25.6238,2.06233,0.0,0.0
688,171.75,49.7794,60.4926,123.506,99.233,80.2669,0.0125036,0.652166,19.9174,25.5137,2.05159,0.0,0.0
692,172.75,49.7671,61.8911,116.099,99.2728,79.3546,0.0126898,0.666438,19.885,25.3335,2.16602,0.0,0.0
696,173.75,51.2018,63.1859,112.816,99.2752,76.9799,0.0129058,0.685648,19.8466,25.2734,2.46011,0.0,0.0
700,174.75,52.5471,64.6068,111.342,99.3089,77.9901,0.013146,0.705006,19.8108,25.1834,2.33731,0.0,0.0
704,175.75,52.6704,65.6342,118.139,99.3154,77.7188,0.0134191,0.723865,19.78,25.0833,2.37163,0.0,0.0
708,176.75,53.6554,66.4772,108.133,99.3382,76.241,0.0137266,0.740486,19.7494,24.9632,2.55953,0.0,0.0
712,177.75,54.6068,68.0726,115.934,99.3629,75.3852,0.0140625,0.758212,19.7198,24.8531,2.67113,0.0,0.0
716,178.75,55.7701,68.9831,106.18,99.393,75.8903,0.0144103,0.776603,19.6871,24.7229,2.60947,0.0,0.0
720,179.75,57.1207,71.092,109.971,99.4141,74.7729,0.01474,0.795252,19.6496,24.6028,2.75498,0.0,0.0
724,180.75,57.0888,71.23,108.156,99.4498,76.0932,0.0150391,0.813843,19.6121,24.5127,2.58916,0.0,0.0
728,181.75,58.9938,73.8761,100.025,99.4823,74.7388,0.0152969,0.834187,19.5738,24.3826,2.76603,0.0,0.0
732,182.75,59.6297,75.0074,113.498,99.5116,74.8399,0.0155219,0.854406,19.5403,24.2325,2.7558,0.0,0.0
736,183.75,61.0693,76.6964,107.242,99.5509,76.0397,0.0157485,0.872193,19.5067,24.1224,2.6058,0.0,0.0
740,184.75,61.8313,78.1545,108.384,99.5887,74.8858,0.015972,0.892004,19.4756,24.0023,2.75736,0.0,0.0
744,185.75,63.2779,79.9226,105.176,99.6346,74.0032,0.0162371,0.912825,19.4424,23.8922,2.8765,0.0,0.0
748,186.75,64.3148,81.4211,109.194,99.6654,74.0454,0.0165109,0.932825,19.4062,23.762,2.87397,0.0,0.0
752,187.75,65.4942,82.9539,110.023,99.702,74.1412,0.016797,0.952542,19.3712,23.6119,2.86501,0.0,0.0
756,188.75,66.3443,84.4005,106.696,99.7381,72.7288,0.017071,0.97231,19.3362,23.4518,3.05456,0.0,0.0
760,189.75,67.3242,85.9718,107.028,99.7747,73.8453,0.0173487,0.992646,19.3062,23.3717,2.91075,0.0,0.0
764,190.75,68.3912,87.5871,102.249,99.827,73.5472,0.0176196,1.01194,19.2728,23.2015,2.95493,0.0,0.0
768,191.75,69.8001,89.3989,117.335,99.8396,74.7019,0.0178656,1.03143,19.2445,23.0514,2.80549,0.0,0.0
772,192.75,71.5274,91.2079,105.223,99.8904,73.3666,0.0180689,1.04825,19.2215,22.9012,2.98486,0.0,0.0
776,193.75,72.4607,92.2377,94.2764,99.9294,72.8368,0.0183309,1.0626,19.2034,22.7411,3.05873,0.0,0.0
780,194.75,72.7436,93.7723,104.653,99.9578,73.0747,0.0186644,1.0769,19.1856,22.5409,3.02994,0.0,0.0
784,195.75,73.9581,95.4082,97.8615,100.007,72.2862,0.0190371,1.0891,19.1659,22.4508,3.13962,0.0,0.0
788,196.75,75.2504,97.2349,104.176,100.043,73.8298,0.0193638,1.10577,19.1422,22.3708,2.93879,0.0,0.0
792,197.75,76.4188,98.2497,99.4331,100.086,71.881,0.0196997,1.12296,19.1122,22.2206,3.20164,0.0,0.0
796,198.75,77.3986,100.011,99.9239,100.129,73.2968,0.0200097,1.1387,19.0843,22.0004,3.01716,0.0,0.0
800,199.75,78.814,101.73,98.2935,100.168,73.6297,0.0202215,1.15431,19.0619,21.9103,2.97713,0.0,0.0
804,200.75,79.9897,102.917,98.824,100.213,72.7235,0.0204684,1.17064,19.0329,21.7001,3.10122,0.0,0.0
808,201.75,80.7684,104.539,99.8979,100.251,72.3524,0.020674,1.18545,19.0068,21.54,3.15438,0.0,0.0
812,202.75,82.1432,106.08,103.304,100.282,73.2168,0.0208532,1.19604,18.9827,21.3798,3.04245,0.0,0.0
816,203.75,82.939,107.842,101.356,100.32,71.5156,0.0210181,1.21097,18.9643,21.2597,3.27355,0.0,0.0
820,204.75,84.2053,108.896,96.4158,100.351,70.5344,0.0212577,1.22512,18.9429,21.0996,3.41012,0.0,0.0
824,205.75,85.4277,111.252,99.7712,100.388,70.78,0.0215858,1.23965,18.9111,20.9494,3.38005,0.0,0.0
828,206.75,86.3283,112.053,94.184,100.423,69.1629,0.0220138,1.25851,18.88,20.7793,3.60695,0.0,0.0
832,207.75,87.6228,113.569,86.7589,100.458,70.985,0.0225286,1.2795,18.8363,20.6091,3.35888,0.0,0.0
836,208.75,89.0111,115.848,96.4555,100.488,70.2445,0.0230475,1.30161,18.7976,20.459,3.46317,0.0,0.0
840,209.75,89.5945,116.838,90.3173,100.527,71.3325,0.0235949,1.32365,18.7587,20.2688,3.31821,0.0,0.0
844,210.75,91.6448,118.613,99.9094,100.565,69.2368,0.0240468,1.34603,18.7233,20.1087,3.6103,0.0,0.0
848,211.75,92.5661,120.144,95.5259,100.585,69.389,0.0244882,1.3667,18.6943,19.9285,3.59105,0.0,0.0
852,212.75,93.8037,122.603,90.4157,100.618,70.4523,0.0248998,1.38621,18.6632,19.7383,3.44708,0.0,0.0
856,213.75,94.8505,124.068,94.9725,100.655,69.4593,0.0254034,1.40508,18.6308,19.5982,3.58798,0.0,0.0
860,214.75,95.639,125.462,101,100.666,70.864,0.025998,1.4272,18.5901,19.378,3.39537,0.0,0.0
864,215.75,97.1868,126.904,87.8519,100.698,68.2559,0.0265935,1.4498,18.5527,19.2378,3.76107,0.0,0.0
868,216.75,98.3908,129.301,96.2227,100.737,67.681,0.0273539,1.47452,18.5118,19.0377,3.84662,0.0,0.0
872,217.75,99.7152,130.918,88.1564,100.759,67.1277,0.0280637,1.5008,18.4785,18.8375,3.92821,0.0,0.0
876,218.75,101.762,133.308,87.0047,100.786,67.804,0.028878,1.52436,18.4391,18.6273,3.83381,0.0,0.0
880,219.75,102.962,135.12,96.6952,100.815,68.0554,0.0296619,1.55003,18.398,18.4571,3.8008,0.0,0.0
884,220.75,103.858,137.178,96.6166,100.829,67.4943,0.0303293,1.57485,18.3563,18.277,3.88223,0.0,0.0
888,221.75,105.003,138.298,89.609,100.856,69.5299,0.0309787,1.59742,18.3146,18.0568,3.5974,0.0,0.0
892,222.75,106.207,140.214,90.7959,100.877,67.167,0.0316271,1.61809,18.2776,17.9266,3.93379,0.0,0.0
896,223.75,107.859,142.265,92.9666,100.9,65.4318,0.0322665,1.63891,18.2413,17.6664,4.18917,0.0,0.0
900,224.75,108.316,143.871,85.2568,100.909,69.601,0.0328587,1.66025,18.2077,17.4462,3.59266,0.0,0.0
904,225.75,110.175,146.157,94.4619,100.947,68.3785,0.0333816,1.68179,18.1683,17.3061,3.76767,0.0,0.0
908,226.75,111.022,147.546,84.337,100.954,67.1569,0.0337866,1.70533,18.1216,17.0358,3.94269,0.0,0.0
912,227.75,113.147,149.978,83.1135,100.971,69.6574,0.0341225,1.732,18.0791,16.8156,3.5907,0.0,0.0
916,228.75,113.831,151.66,87.6947,100.987,67.4695,0.0344395,1.75681,18.04,16.6454,3.90092,0.0,0.0
920,229.75,115.205,153.292,101.259,101.004,64.7903,0.0348726,1.77883,18.0031,16.4553,4.29446,0.0,0.0
924,230.75,116.239,154.809,93.2941,101.014,65.6299,0.0353572,1.80337,17.958,16.2451,4.17086,0.0,0.0
928,231.75,117.833,157.112,92.5491,101.023,65.7124,0.0359889,1.83191,17.9152,16.0048,4.15961,0.0,0.0
932,232.75,119.508,159.352,90.8058,101.038,66.1594,0.0367104,1.86044,17.8648,15.7947,4.09544,0.0,0.0
936,233.75,120.997,161.644,78.5201,101.048,68.0846,0.0374015,1.89151,17.8178,15.6445,3.81894,0.0,0.0
940,234.75,121.627,162.872,81.519,101.056,67.5341,0.0381212,1.91725,17.769,15.3743,3.89824,0.0,0.0
944,235.75,123.968,165.71,83.8623,101.055,66.4541,0.038819,1.94681,17.7169,15.1741,4.05408,0.0,0.0
948,236.75,124.976,167.829,86.0406,101.072,65.2158,0.0394435,1.97709,17.6678,14.9038,4.23768,0.0,0.0
952,237.75,126.255,169.683,89.4433,101.073,65.1099,0.0399136,2.00613,17.6243,14.7437,4.25345,0.0,0.0
956,238.75,127.326,170.908,81.5175,101.079,65.7351,0.0404103,2.03315,17.5906,14.4734,4.16159,0.0,0.0
960,239.75,129.194,173.148,84.5385,101.086,66.8276,0.0408475,2.06007,17.5559,14.2232,4.00282,0.0,0.0
964,240.75,130.243,175.712,80.0238,101.093,67.8402,0.0414876,2.08503,17.5224,13.973,3.85811,0.0,0.0
968,241.75,132.053,177.09,73.4046,101.087,64.5179,0.0421891,2.1058,17.4892,13.7928,4.34314,0.0,0.0
972,242.75,132.637,179.273,73.7092,101.091,63.9682,0.0429314,2.13496,17.4361,13.5326,4.42633,0.0,0.0
976,243.75,134.67,181.271,78.6094,101.099,65.7351,0.0436149,2.16601,17.3804,13.3124,4.16354,0.0,0.0
980,244.75,136.089,184.02,81.129,101.111,66.707,0.0443386,2.19425,17.3334,13.0121,4.0227,0.0,0.0
984,245.75,137.494,185.074,82.093,101.102,66.161,0.0450097,2.2197,17.2969,12.8519,4.10131,0.0,0.0
988,246.75,138.18,187.008,80.3176,101.105,62.1339,0.0456033,2.24194,17.2625,12.5516,4.70902,0.0,0.0
992,247.75,139.881,189.248,83.9867,101.11,64.6629,0.0460884,2.26135,17.2312,12.3114,4.32365,0.0,0.0
996,248.75,140.944,190.581,77.3752,101.107,64.7136,0.0464743,2.2795,17.2013,12.1012,4.31579,0.0,0.0
1000,249.75,142.192,192.89,67.9938,101.112,64.3872,0.0468438,2.29568,17.1713,11.851,4.36513,0.0,0.0
1004,250.75,143.534,194.303,102.341,101.104,61.6378,0.0472617,2.31423,17.1439,11.7109,4.78644,0.0,0.0
1008,251.75,144.229,195.686,85.0827,101.113,61.5635,0.0476556,2.3313,17.1173,11.3806,4.79904,0.0,0.0
1012,252.75,145.409,197.854,76.515,101.105,63.3892,0.0482922,2.3508,17.0879,11.1604,4.51555,0.0,0.0
1016,253.75,146.407,199.573,79.494,101.097,61.397,0.0489326,2.37134,17.0552,10.9001,4.82367,0.0,0.0
1020,254.75,148.308,201.149,77.421,101.089,64.4168,0.0493702,2.39148,17.0284,10.6699,4.35854,0.0,0.0
1024,255.75,149.202,203.294,79.8658,101.081,64.7944,0.0495188,2.41017,17.0087,10.4097,4.3012,0.0,0.0
1028,256.75,150.608,204.721,92.2957,101.082,63.4363,0.0494213,2.42213,16.9957,10.1895,4.50615,0.0,0.0
1032,257.75,151.583,205.478,77.3248,101.076,62.5708,0.0492093,2.42743,16.9936,9.87917,4.63849,0.0,0.0
1036,258.75,152.301,206.552,78.7735,101.071,64.0084,0.0490846,2.42787,16.994,9.72903,4.41831,0.0,0.0
1040,259.75,152.805,207.608,85.3323,101.057,62.6905,0.0489561,2.42741,16.9949,9.46879,4.61821,0.0,0.0
1044,260.75,154.222,208.653,74.4152,101.045,61.6975,0.0489115,2.42659,16.9955,9.25859,4.77148,0.0,0.0
1048,261.75,154.52,209.521,90.9745,101.045,61.5574,0.0489406,2.42584,16.9959,9.00836,4.79347,0.0,0.0
1052,262.75,155.269,210.144,73.5649,101.033,63.3048,0.0490548,2.42572,16.9965,8.7281,4.52161,0.0,0.0
1056,263.75,156.443,211.674,103.637,101.028,62.0284,0.0492448,2.42747,16.9945,8.57796,4.71816,0.0,0.0
1060,264.75,157.077,212.54,80.3069,101.024,62.0685,0.0495623,2.42908,16.9862,8.30771,4.71146,0.0,0.0
1064,265.75,157.696,213.839,80.9778,101.009,63.9873,0.0498679,2.44008,16.97,8.06748,4.41556,0.0,0.0
1068,266.75,158.626,214.727,85.9468,101.008,62.0426,0.0501738,2.45176,16.9616,7.78723,4.71396,0.0,0.0
1072,267.75,159.601,215.803,75.0838,100.987,65.6567,0.0504569,2.4595,16.9539,7.49696,4.16438,0.0,0.0
1076,268.75,160.833,216.678,86.8581,100.974,63.8034,0.0505229,2.46004,16.9514,7.27675,4.44002,0.0,0.0
1080,269.75,161.002,218.128,75.0121,100.966,65.2187,0.0503646,2.45736,16.9564,7.10659,4.22703,0.0,0.0
1084,270.75,161.915,219.135,93.6795,100.959,64.2362,0.0500824,2.44932,16.9728,6.77629,4.37319,0.0,0.0
1088,271.75,162.027,219.811,85.0713,100.958,65.4119,0.0495883,2.44106,16.9916,6.61614,4.19768,0.0,0.0
1092,272.75,163.078,219.91,95.764,100.942,63.3982,0.0491466,2.43123,17.0097,6.42596,4.49856,0.0,0.0
1096,273.75,163.338,220.505,71.7842,100.946,64.1103,0.0485921,2.4177,17.0322,6.21577,4.39095,0.0,0.0
1100,274.75,163.481,220.478,70.7034,100.933,62.3426,0.0480405,2.40212,17.06,5.97554,4.66018,0.0,0.0
1104,275.75,163.865,220.904,74.5266,100.939,67.1333,0.0474883,2.38435,17.0876,5.65525,3.94464,0.0,0.0
1108,276.75,164.787,221.782,82.9211,100.924,62.7928,0.0469149,2.36551,17.1227,5.55515,4.58968,0.0,0.0
1112,277.75,164.158,221.334,81.116,100.915,65.9011,0.0463361,2.34329,17.1638,5.29491,4.12152,0.0,0.0
1116,278.75,164.518,221.582,93.6085,100.916,64.7928,0.0457839,2.32155,17.2073,5.10474,4.28562,0.0,0.0
1120,279.75,165.294,221.352,97.8256,100.906,63.9775,0.045311,2.2975,17.2434,4.88453,4.40719,0.0,0.0
1124,280.75,165.27,221.338,78.4781,100.899,64.9008,0.0447249,2.27158,17.2839,4.70436,4.26795,0.0,0.0
1128,281.75,165.089,220.695,78.9597,100.892,65.4956,0.0441181,2.24656,17.3298,4.48416,4.17905,0.0,0.0
1132,282.75,164.956,220.699,84.1317,100.88,64.0677,0.0431954,2.21337,17.3807,4.23393,4.39108,0.0,0.0
1136,283.75,164.845,219.549,80.6283,100.871,64.5504,0.0420872,2.17823,17.4444,4.08379,4.31758,0.0,0.0
1140,284.75,164.618,219.324,79.8276,100.861,64.9572,0.0409285,2.14564,17.4928,3.8836,4.25585,0.0,0.0
1144,285.75,164.092,218.12,81.7175,100.849,65.1708,0.0401684,2.11354,17.5406,3.70344,4.22297,0.0,0.0
1148,286.75,163.959,217.535,89.6616,100.845,67.2007,0.0390605,2.08368,17.5852,3.48323,3.92587,0.0,0.0
1152,287.75,163.66,217.173,86.9207,100.827,66.5885,0.0380083,2.05429,17.6322,3.37313,4.01275,0.0,0.0
1156,288.75,163.153,216.069,92.4529,100.817,66.4716,0.036998,2.01431,17.6945,3.13291,4.02878,0.0,0.0
1160,289.75,162.672,214.753,90.5096,100.827,64.8541,0.0360392,1.97626,17.7755,2.95274,4.26794,0.0,0.0
1164,290.75,161.592,213.3,88.9922,100.819,66.392,0.0351631,1.93605,17.8571,2.81261,4.04056,0.0,0.0
1168,291.75,160.56,211.991,103.283,100.815,66.5069,0.0342273,1.89259,17.9386,2.62243,4.02345,0.0,0.0
1172,292.75,161.339,209.99,93.1773,100.809,68.8028,0.0333354,1.85174,18.0064,2.51233,3.6946,0.0,0.0
1176,293.75,160.154,209.488,96.0006,100.807,67.0493,0.0324906,1.81175,18.0717,2.29213,3.94407,0.0,0.0
1180,294.75,159.414,207.2,88.4343,100.804,66.6612,0.0315855,1.77094,18.1282,2.14199,3.99998,0.0,0.0
1184,295.75,158.294,206.17,98.9186,100.81,69.8831,0.0306119,1.72834,18.1925,1.9418,3.54403,0.0,0.0
1188,296.75,157.445,203.994,82.4487,100.793,69.0322,0.0296805,1.68804,18.2568,1.81168,3.66081,0.0,0.0
1192,297.75,156.071,202.021,90.7401,100.81,68.8308,0.0287225,1.64656,18.3314,1.69157,3.6907,0.0,0.0
1196,298.75,155.822,201.326,95.9938,100.788,68.7987,0.0277762,1.60705,18.4118,1.52141,3.69315,0.0,0.0
1200,299.75,154.853,199.532,97.4562,100.787,70.0435,0.0268266,1.56511,18.4943,1.44134,3.5196,0.0,0.0
1204,300.75,153.569,197.577,101.166,100.786,73.4043,0.0260543,1.51862,18.5723,1.26117,3.06622,0.0,0.0
1208,301.75,152.681,194.808,95.5434,100.785,73.2663,0.0250682,1.47123,18.6469,1.12104,3.08431,0.0,0.0
1212,302.75,151.294,193.458,100.215,100.778,72.8692,0.0241033,1.42147,18.7286,1.06098,3.13621,0.0,0.0
1216,303.75,149.717,190.597,98.8454,100.79,70.9594,0.0232494,1.37193,18.8067,0.890826,3.39425,0.0,0.0
1220,304.75,149.422,188.699,102.04,100.771,73.3885,0.0224539,1.32901,18.8932,0.790734,3.06683,0.0,0.0
1224,305.75,147.427,186.223,108.414,100.76,74.4201,0.0217529,1.28126,18.9845,0.720669,2.93076,0.0,0.0
1228,306.75,145.697,183.604,105.543,100.759,74.2366,0.0211243,1.2371,19.0682,0.660613,2.95456,0.0,0.0
1232,307.75,144.52,181.797,105.354,100.752,73.9386,0.0205836,1.18279,19.147,0.550511,2.9928,0.0,0.0
1236,308.75,143.022,178.753,107.177,100.752,73.5671,0.0200034,1.12849,19.2173,0.470436,3.04156,0.0,0.0
1240,309.75,140.774,175.638,110.788,100.747,74.8947,0.0193739,1.0791,19.2961,0.430399,2.86803,0.0,0.0
1244,310.75,139.155,172.817,111.742,100.737,74.6162,0.0185579,1.02422,19.375,0.350325,2.90309,0.0,0.0
1248,311.75,137.548,170.487,116.411,100.732,72.9025,0.017659,0.982175,19.4732,0.270251,3.12742,0.0,0.0
1252,312.75,135.339,166.727,118.207,100.736,76.4087,0.0166985,0.921,19.5994,0.200186,2.67344,0.0,0.0
1256,313.75,133.115,163.372,117.292,100.731,77.4874,0.0157609,0.860903,19.7131,0.180167,2.53734,0.0,0.0
1260,314.75,131.324,160.339,118.051,100.721,77.9564,0.0148083,0.801851,19.8104,0.130121,2.47801,0.0,0.0
1264,315.75,129.486,157.806,123.315,100.73,81.8787,0.013606,0.746186,19.8996,0.130121,2.00415,0.0,0.0
1268,316.75,127.633,155.236,124.114,100.724,80.9859,0.0124011,0.69295,19.9876,0.0800743,2.10953,0.0,0.0
1272,317.75,125.091,151.27,123.048,100.711,87.6219,0.0112612,0.644709,20.08,0.070065,1.34659,0.0,0.0
1276,318.75,122.826,148.614,126.067,100.71,90.3794,0.0101188,0.596507,20.1699,0.0600557,1.04677,0.0,0.0
1280,319.75,120.541,145.279,126.827,100.707,91.7224,0.00926489,0.546512,20.2382,0.070065,0.90387,0.0,0.0
1284,320.75,118.85,141.845,128.796,100.707,93.4581,0.00821213,0.498077,20.3265,0.070065,0.722558,0.0,0.0
1288,321.75,116.105,138.482,126.677,100.704,94.9201,0.00739596,0.45379,20.4038,0.070065,0.572114,0.0,0.0
1292,322.75,114.277,136.08,125.471,100.698,96.1924,0.00654086,0.421283,20.4703,0.0600557,0.442698,0.0,0.0
1296,323.75,112.064,133.347,131.568,100.708,95.8303,0.00581162,0.380622,20.527,0.0600557,0.480194,0.0,0.0
1300,324.75,110.793,129.578,130.273,100.693,96.287,0.00520624,0.347536,20.5794,0.070065,0.432723,0.0,0.0
1304,325.75,108.19,127.456,127.887,100.687,97.2728,0.00470276,0.318035,20.6278,0.0800743,0.333661,0.0,0.0
1308,326.75,106.326,124.76,131.979,100.674,97.5156,0.00438527,0.29043,20.6604,0.070065,0.308341,0.0,0.0
1312,327.75,104.666,122.301,128.986,100.678,97.613,0.00404298,0.265918,20.6987,0.0600557,0.298993,0.0,0.0
1316,328.75,102.783,119.462,130.032,100.692,96.9216,0.00375522,0.244277,20.729,0.070065,0.369112,0.0,0.0
1320,329.75,101.213,116.909,130.962,100.672,97.8172,0.00348634,0.230698,20.7533,0.0800743,0.278194,0.0,0.0
1324,330.75,98.7423,113.867,133.252,100.667,97.6301,0.0032677,0.214305,20.7726,0.0800743,0.29625,0.0,0.0
1328,331.75,97.1775,112.097,128.702,100.663,97.654,0.00308649,0.201065,20.7871,0.0800743,0.293488,0.0,0.0
1332,332.75,96.1625,109.207,128.874,100.658,98.287,0.00295856,0.189467,20.8006,0.0800743,0.230532,0.0,0.0
1336,333.75,94.1796,107.281,130.44,100.652,97.7791,0.00285194,0.179083,20.8115,0.070065,0.280057,0.0,0.0
1340,334.75,92.8389,105.332,131.994,100.642,98.2841,0.00278041,0.170847,20.821,0.070065,0.229328,0.0,0.0
1344,335.75,91.6262,103.343,131.369,100.641,98.6402,0.00274902,0.163348,20.8285,0.070065,0.194196,0.0,0.0
1348,336.75,89.9791,100.997,133.513,100.645,97.5497,0.00276342,0.15683,20.8346,0.070065,0.302111,0.0,0.0
1352,337.75,88.8424,99.611,132.365,100.629,97.8603,0.00279947,0.151284,20.8399,0.070065,0.269881,0.0,0.0
1356,338.75,87.7119,97.2631,127.864,100.643,98.2488,0.00284351,0.14702,20.8444,0.0800743,0.232884,0.0,0.0
1360,339.75,86.3509,95.8468,129.084,100.607,97.38,0.00288816,0.143349,20.8479,0.0800743,0.315322,0.0,0.0
1364,340.75,85.1061,93.0997,131.917,100.615,97.9983,0.00290764,0.139913,20.8513,0.0800743,0.254843,0.0,0.0
1368,341.75,83.7082,92.2204,132.39,100.605,99.0681,0.0029047,0.137026,20.8535,0.0800743,0.148893,0.0,0.0
1372,342.75,83.3359,90.9772,129.15,100.598,98.6317,0.00288386,0.134548,20.855,0.070065,0.190895,0.0,0.0
1376,343.75,81.9167,89.3504,130.759,100.585,97.1396,0.0028502,0.132477,20.856,0.0800743,0.337077,0.0,0.0
1380,344.75,80.701,86.9505,130.873,100.562,98.0308,0.00282589,0.130692,20.8572,0.0900836,0.246601,0.0,0.0
1384,345.75,79.7593,85.8988,134.406,100.557,97.8197,0.00281519,0.129156,20.8582,0.0900836,0.266986,0.0,0.0
1388,346.75,79.3616,84.8907,132.071,100.551,98.9057,0.00283235,0.127845,20.8589,0.0800743,0.159608,0.0,0.0
1392,347.75,77.6979,82.7091,130.408,100.54,98.4729,0.00287425,0.126652,20.8598,0.0800743,0.200891,0.0,0.0
1396,348.75,77.1463,82.6145,133.679,100.53,97.5497,0.00291693,0.125649,20.8607,0.070065,0.291102,0.0,0.0
1400,349.75,76.6056,81.2925,135.052,100.528,98.3523,0.00294091,0.124668,20.8613,0.0800743,0.211608,0.0,0.0
1404,350.75,75.8751,80.2315,132.757,100.513,98.021,0.00292984,0.123824,20.8617,0.0900836,0.242838,0.0,0.0
1408,351.75,75.0715,78.9566,129.966,100.514,97.7502,0.00287148,0.12313,20.862,0.0900836,0.269635,0.0,0.0
1412,352.75,74.411,78.0319,138.104,100.502,98.5464,0.00278657,0.122458,20.8628,0.0900836,0.190042,0.0,0.0
1416,353.75,73.3699,76.9612,133.045,100.499,97.9118,0.00270667,0.121822,20.8635,0.0800743,0.252252,0.0,0.0
1420,354.75,72.6153,75.3325,131.87,100.482,98.6682,0.00263851,0.121184,20.8639,0.0800743,0.17618,0.0,0.0
1424,355.75,72.1525,74.5017,133.549,100.473,98.222,0.00257574,0.120675,20.8639,0.0800743,0.219119,0.0,0.0
1428,356.75,70.7487,73.0524,136.144,100.464,98.4388,0.00249054,0.12026,20.8632,0.070065,0.196973,0.0,0.0
1432,357.75,70.9539,72.2869,130.593,100.471,97.6784,0.00240584,0.11992,20.8627,0.0800743,0.272606,0.0,0.0
1436,358.75,69.9888,72.0184,133.766,100.451,98.1944,0.00234805,0.119498,20.8624,0.0900836,0.219728,0.0,0.0
1440,359.75,69.5001,70.7819,134.358,100.444,97.3808,0.00232934,0.119153,20.8622,0.0800743,0.299537,0.0,0.0
1444,360.75,69.0413,69.9067,132.287,100.44,98.2419,0.00233794,0.118805,20.8621,0.0800743,0.213994,0.0,0.0
1448,361.75,67.863,69.1127,132.023,100.425,97.544,0.00236353,0.118383,20.862,0.0900836,0.281503,0.0,0.0
1452,362.75,67.4606,68.6386,134.894,100.431,98.7563,0.00239678,0.117988,20.8624,0.0900836,0.162623,0.0,0.0
1456,363.75,67.4,67.3824,131.72,100.421,98.1234,0.00241931,0.117645,20.863,0.0900836,0.223874,0.0,0.0
1460,364.75,66.2852,66.0475,132.697,100.408,98.3791,0.0024131,0.117399,20.8634,0.0900836,0.197482,0.0,0.0
1464,365.75,66.0255,66.4393,133.192,100.407,98.3527,0.00237142,0.117272,20.8636,0.0100093,0.19996,0.0,0.0
1468,366.75,65.4854,65.3387,134.477,100.391,97.7689,0.00231617,0.117065,20.8638,0.0900836,0.255942,0.0,0.0
1472,367.75,65.0243,64.3316,132.531,100.379,98.2448,0.00226973,0.11687,20.8639,0.100093,0.207887,0.0,0.0
1476,368.75,64.4582,63.7785,136.747,100.374,98.4482,0.00227007,0.116668,20.864,0.100093,0.187335,0.0,0.0
1480,369.75,64.0778,62.8151,136.473,100.374,97.9484,0.00230328,0.116442,20.864,0.0900836,0.236601,0.0,0.0
1484,370.75,63.761,62.5437,132.914,100.357,97.922,0.00237749,0.116194,20.8641,0.0800743,0.237603,0.0,0.0
1488,371.75,62.6356,61.2669,132.059,100.348,98.4072,0.00245131,0.115951,20.8641,0.0900836,0.188899,0.0,0.0
1492,372.75,62.2633,61.2351,132.817,100.346,98.9528,0.00251743,0.115762,20.8641,0.120111,0.13526,0.0,0.0
1496,373.75,62.2235,60.6046,135.389,100.338,98.6418,0.00257174,0.115628,20.8641,0.100093,0.164883,0.0,0.0
1500,374.75,62.0161,60.2515,132.589,100.32,98.2403,0.00263533,0.115514,20.8646,0.0900836,0.202614,0.0,0.0
1504,375.75,60.6065,58.9666,129.071,100.313,98.9524,0.0027011,0.11549,20.8652,0.100093,0.132129,0.0,0.0
1508,376.75,61.1426,59.0616,131.412,100.318,98.9524,0.00275917,0.115473,20.8657,0.0900836,0.132599,0.0,0.0
1512,377.75,60.6471,58.4832,135.905,100.309,99.1335,0.00281727,0.115388,20.8659,0.0900836,0.114016,0.0,0.0
1516,378.75,60.3542,57.8666,134.699,100.303,98.6162,0.0028382,0.115233,20.8664,0.100093,0.164025,0.0,0.0
1520,379.75,59.9477,57.4097,134.662,100.293,99.1903,0.00281838,0.115151,20.8672,0.100093,0.106944,0.0,0.0
1524,380.75,59.5145,56.2417,133.537,100.285,99.5281,0.00278495,0.115102,20.8677,0.110102,0.073241,0.0,0.0
1528,381.75,59.2944,56.776,133.591,100.323,98.6296,0.00274554,0.114971,20.8681,0.100093,0.164629,0.0,0.0
1532,382.75,58.7667,56.0698,135.534,100.32,99.5184,0.0026904,0.114846,20.8675,0.100093,0.0776331,0.0,0.0
1536,383.75,58.8611,55.718,132.396,100.343,98.5667,0.00262118,0.114753,20.8672,0.0900836,0.17276,0.0,0.0
1540,384.75,57.8595,54.6438,135.384,100.371,99.7193,0.00252861,0.114747,20.8669,0.0900836,0.0629735,0.0,0.0
1544,385.75,57.7707,54.7838,137.436,100.403,98.9207,0.00243423,0.114856,20.8668,0.100093,0.143872,0.0,0.0
1548,386.75,58.0648,54.0778,133.822,100.421,98.0275,0.00235567,0.115027,20.8667,0.0900836,0.233323,0.0,0.0
1552,387.75,57.3671,53.818,132.537,100.453,98.9877,0.00229032,0.115244,20.8666,0.100093,0.142134,0.0,0.0
1556,388.75,57.1871,53.6231,132.537,100.469,98.4165,0.00224412,0.115461,20.8666,0.100093,0.199597,0.0,0.0
1560,389.75,56.9754,53.3623,133.651,100.501,99.5318,0.00222027,0.115653,20.8665,0.100093,0.0936956,0.0,0.0
1564,390.75,56.3253,53.0769,134.373,100.536,99.2727,0.00220859,0.115829,20.8665,0.100093,0.12226,0.0,0.0
1568,391.75,56.4091,52.4869,129.507,100.545,98.0288,0.00219871,0.116023,20.8665,0.110102,0.245161,0.0,0.0
1572,392.75,55.7468,52.251,134.961,100.565,99.4936,0.00217304,0.116112,20.8665,0.100093,0.103577,0.0,0.0
1576,393.75,56.1876,51.7795,133.58,100.594,100.083,0.00214754,0.116096,20.8665,0.100093,0.0492105,0.0,0.0
1580,394.75,55.4114,51.6909,134.7,100.623,99.7457,0.00215312,0.116056,20.8665,0.100093,0.0846808,0.0,0.0
1584,395.75,54.7669,51.4301,132.483,100.635,99.1932,0.00220497,0.115994,20.8665,0.0900836,0.139581,0.0,0.0
1588,396.75,54.1276,50.5315,135.079,100.672,100.286,0.00228116,0.115854,20.8665,0.0900836,0.0371441,0.0,0.0
1592,397.75,54.4914,50.0185,138.678,100.672,100.958,0.00234603,0.115712,20.8665,0.100093,-0.027521,0.0,0.0
1596,398.75,53.9735,50.4077,133.818,100.686,100.124,0.00238981,0.11562,20.8673,0.0900836,0.0541455,0.0,0.0
1600,399.75,53.8562,50.2267,133.738,100.693,100.753,0.00242076,0.115484,20.8678,0.100093,-0.00583077,0.0,0.0
1604,400.75,53.648,49.4038,136.501,100.717,99.993,0.00244205,0.115299,20.8681,0.100093,0.0698235,0.0,0.0
1608,401.75,53.4717,48.8975,136.837,100.733,99.7957,0.00248574,0.1151,20.8684,0.100093,0.090411,0.0,0.0
1612,402.75,53.098,48.1311,132.965,100.741,99.8176,0.00252607,0.11497,20.8681,0.110102,0.0891041,0.0,0.0
1616,403.75,53.1774,48.6483,137.094,100.764,99.3547,0.00254693,0.114859,20.8671,0.120111,0.136239,0.0,0.0
1620,404.75,52.8921,47.9688,138.107,100.767,100.155,0.00253968,0.114751,20.8664,0.110102,0.0588842,0.0,0.0
1624,405.75,52.0866,48.183,137.204,100.773,100.807,0.00252342,0.114584,20.8667,0.100093,-0.00333276,0.0,0.0
1628,406.75,52.2343,47.6921,132.326,100.8,99.8306,0.00251238,0.11445,20.8669,0.0800743,0.0934581,0.0,0.0
1632,407.75,52.2709,47.9058,136.62,100.794,100.189,0.00250918,0.114345,20.8671,0.100093,0.0582814,0.0,0.0
1636,408.75,51.8806,46.8828,132.656,100.795,100.231,0.00251337,0.114263,20.8675,0.100093,0.0542051,0.0,0.0
1640,409.75,51.7126,47.0516,132.69,100.812,100.093,0.00251612,0.114152,20.8683,0.0900836,0.0692489,0.0,0.0
1644,410.75,50.6455,45.6674,136.055,100.821,100.137,0.0025024,0.11403,20.8688,0.100093,0.0657532,0.0,0.0
1648,411.75,51.0347,46.883,134.649,100.831,100.484,0.00248466,0.113904,20.8692,0.100093,0.0332945,0.0,0.0
1652,412.75,50.8775,46.1747,133.209,100.842,101.25,0.00247648,0.113761,20.8694,0.100093,-0.0389994,0.0,0.0
1656,413.75,51.0489,46.1533,138.533,100.847,100.22,0.00249365,0.113686,20.8695,0.0900836,0.060288,0.0,0.0
1660,414.75,50.0184,44.9444,135.889,100.851,100.615,0.00253182,0.113648,20.8696,0.100093,0.022706,0.0,0.0
1664,415.75,50.2056,45.8295,135.505,100.857,100.664,0.0025726,0.11357,20.8697,0.100093,0.0184512,0.0,0.0
1668,416.75,50.2361,44.8155,138.668,100.848,100.64,0.00261239,0.11348,20.8697,0.100093,0.0200139,0.0,0.0
1672,417.75,49.5353,45.2203,132.697,100.857,100.498,0.00264709,0.11345,20.8698,0.100093,0.0344584,0.0,0.0
1676,418.75,49.199,44.9278,136.291,100.845,101.065,0.00267931,0.113401,20.8698,0.0800743,-0.0211421,0.0,0.0
1680,419.75,49.456,44.6463,142.309,100.845,100.837,0.00269922,0.113379,20.8698,0.0900836,0.000796694,0.0,0.0
1684,420.75,49.0302,45.1065,139.998,100.847,99.8086,0.00270025,0.11333,20.8698,0.0900836,0.100062,0.0,0.0
1688,421.75,48.2166,43.8447,135.909,100.843,100.937,0.00267972,0.113233,20.8698,0.0900836,-0.00901147,0.0,0.0
1692,422.75,49.0051,44.3206,131.452,100.846,100.59,0.00264774,0.113124,20.8698,0.0900836,0.0246199,0.0,0.0
1696,423.75,48.908,44.262,133.8125,100.834,100.377,0.00261981,0.113046,20.8698,0.110102,0.0438897,0.0,0.0
1700,424.75,48.4615,44.0054,139.187,100.819,100.885,0.00258575,0.11297,20.8698,0.100093,-0.00632861,0.0,0.0
1704,425.75,48.6528,43.8547,134.323,100.821,100.888,0.00256113,0.112902,20.8694,0.100093,-0.00636784,0.0,0.0
1708,426.75,48.4893,43.1429,135.632,100.807,101.803,0.00253637,0.112784,20.8691,0.100093,-0.0950674,0.0,0.0
1712,427.75,47.765,43.8185,133.971,100.786,100.697,0.00253121,0.112706,20.8689,0.0900836,0.00863215,0.0,0.0
1716,428.75,48.1098,42.7527,136.412,100.79,100.686,0.00254557,0.112655,20.8688,0.0900836,0.00995799,0.0,0.0
1720,429.75,47.9915,43.3204,139.097,100.781,101.918,0.00257496,0.112589,20.8687,0.0900836,-0.10851,0.0,0.0
1724,430.75,47.5408,43.5553,136.808,100.77,101.362,0.00260649,0.11257,20.8686,0.110102,-0.0566316,0.0,0.0
1728,431.75,47.4081,42.6737,131.803,100.757,101.211,0.00263222,0.11259,20.8686,0.120111,-0.0434956,0.0,0.0
1732,432.75,47.099,42.4615,135.109,100.742,100.243,0.00265132,0.112645,20.8686,0.100093,0.0480415,0.0,0.0
1736,433.75,46.3442,42.4662,132.322,100.722,101.986,0.00265335,0.112685,20.8693,0.14013,-0.12071,0.0,0.0
1740,434.75,46.8689,41.7796,137.198,100.705,101.018,0.00261374,0.112634,20.8699,0.14013,-0.0300391,0.0,0.0
1744,435.75,46.2936,41.4057,135.824,100.681,101.069,0.00254155,0.112576,20.8702,0.130121,-0.0371976,0.0,0.0
1748,436.75,46.5544,41.807,135.089,100.678,101.384,0.00245944,0.11252,20.8704,0.120111,-0.0676128,0.0,0.0
1752,437.75,46.2349,41.8413,135.794,100.647,100.686,0.0023918,0.112542,20.8706,0.120111,-0.00372838,0.0,0.0
1756,438.75,46.0141,41.7063,134.615,100.621,100.998,,0.112558,,0.120111,-0.0361317,0.0,0.0
1760,439.75,46.3268,41.0477,135.222,100.602,101.232,,0.112531,,0.110102,-0.0604138,0.0,0.0
1764,440.75,45.6843,40.926,137.506,100.577,100.958,,0.112477,,0.120111,-0.0365367,0.0,0.0
1768,441.75,45.3449,41.4428,136.938,100.541,101.681,,,,0.110102,-0.109076,0.0,0.0
1772,442.75,45.8934,41.6246,137.163,100.509,100.916,,,,0.120111,-0.0390532,0.0,0.0
1776,443.75,45.6194,40.6693,133.805,100.489,101.726,,,,0.120111,-0.118286,0.0,0.0
1780,444.75,45.2521,40.5502,136.737,100.459,101.696,,,,0.110102,-0.11836,0.0,0.0
1784,445.75,45.4921,40.4621,140.944,100.434,100.928,,,,0.100093,-0.0474511,0.0,0.0
1788,446.75,44.1209,39.6043,135.038,100.41,101.932,,,,0.120111,-0.145423,0.0,0.0
1792,447.75,45.2609,40.5835,131.295,100.366,101.614,,,,0.130121,-0.119554,0.0,0.0
1796,448.75,44.8698,40.2069,138.738,100.341,100.582,,,,0.120111,-0.0232419,0.0,0.0
1798,449.25,44.4819,40.5789,137.575,100.328,100.355,,,,0.130121,-0.00256808,0.0,0.0