File: 01_Data/PP/Cone/PP_Cone_HF75Scan_220204_R1.csv
Names,Time,Stack TC,Smoke TC,Exh Press,Smoke Comp,Smoke Meas,CO Meter,CO2 Meter,O2 Meter,Sample Mass,Ext Coeff,Start Test,Flame Verif
Chan Gain,,500,500,1,1,1,1,1,1,1,1,1.0,1.0
Offset,,0,0,0.14021,0,0,0,0,0,0,0,0.0,0.0
Gain,,1,1,25.011,13.3046,13.3037,1,1,1,1.00093,1.10262,1.0,1.0
Units,sec,C,C,Pa,%,%,%,%,%,g,/m,,
Baseline,,39.2725,42.4986,131.939,100.913,104.718,0.000891173,0.121797,20.838,-871.643,-0.357919,,
2,0.25,35.2034,37.2635,135.495,101.314,106.019,0.000986952,0.132536,20.8231,27.0551,-0.439001,0.0,0.0
4,0.75,34.8012,36.8896,131.969,101.311,105.856,0.000989327,0.132066,20.824,27.1452,-0.424449,0.0,0.0
6,1.25,34.9059,37.2306,133.361,101.311,105.755,0.000991251,0.131606,20.8248,26.905,-0.415206,0.0,0.0
8,1.75,35.3404,37.0699,132.204,101.32,104.944,0.000985773,0.131169,20.8254,26.945,-0.339954,0.0,0.0
10,2.25,34.6674,36.696,135.139,101.316,105.361,0.000975003,0.130756,20.8258,26.975,-0.378658,0.0,0.0
12,2.75,34.625,37.3062,130.478,101.322,105.607,0.00096628,0.130348,20.8262,26.965,-0.400558,0.0,0.0
14,3.25,34.9827,37.2543,134.506,101.316,105.339,0.000959213,0.129953,20.8265,26.995,-0.376568,0.0,0.0
16,3.75,35.4343,37.3585,130.617,101.323,105.169,0.000938146,0.129633,20.8269,27.0151,-0.36039,0.0,0.0
18,4.25,35.2242,37.7371,128.578,101.313,105.451,0.000907273,0.129235,20.8274,27.0551,-0.387198,0.0,0.0
20,4.75,35.222,37.5303,132.41,101.313,104.704,0.000881626,0.128913,20.8277,26.985,-0.318398,0.0,0.0
22,5.25,35.1329,37.1637,135.764,101.304,105.64,0.000860277,0.128653,20.828,27.0351,-0.405388,0.0,0.0
24,5.75,35.139,37.5116,131.426,101.317,105.14,0.000849376,0.128441,20.828,26.955,-0.358206,0.0,0.0
26,6.25,35.4896,37.5777,132.034,101.315,104.852,0.000846299,0.12827,20.8278,26.955,-0.331922,0.0,0.0
28,6.75,35.8467,37.7973,130.946,101.313,105.254,0.000851094,0.128132,20.8276,26.945,-0.36916,0.0,0.0
30,7.25,35.8375,37.8401,130.382,101.308,105.934,0.000854978,0.128092,20.8275,26.965,-0.431838,0.0,0.0
32,7.75,35.8922,38.3186,131.566,101.313,104.612,0.000858124,0.128125,20.8274,26.965,-0.309958,0.0,0.0
34,8.25,35.988,38.1991,134.556,101.314,105.703,0.000860672,0.128145,20.8273,26.945,-0.410218,0.0,0.0
36,8.75,35.5998,38.4907,129.817,101.314,105.219,0.000862736,0.128154,20.8272,26.965,-0.365795,0.0,0.0
38,9.25,36.1019,38.3205,127.813,101.318,105.629,0.000841334,0.128133,20.8271,26.975,-0.403067,0.0,0.0
40,9.75,35.9577,38.4421,134.441,101.318,105.349,0.000823998,0.12809,20.8271,26.985,-0.37742,0.0,0.0
42,10.25,35.8453,38.7597,133.186,101.303,105.68,0.000790538,0.128011,20.827,26.965,-0.409071,0.0,0.0
44,10.75,36.1948,38.4713,131.617,101.314,104.88,0.000763435,0.127908,20.827,26.995,-0.334546,0.0,0.0
46,11.25,36.2894,38.1256,131.94,101.31,104.575,0.000746335,0.127795,20.827,26.975,-0.306736,0.0,0.0
48,11.75,36.3061,38.4673,128.446,101.32,105.312,0.000732484,0.127678,20.827,27.0151,-0.373682,0.0,0.0
50,12.25,36.4536,38.2165,128.403,101.313,105.845,0.000726579,0.127583,20.827,26.985,-0.42325,0.0,0.0
52,12.75,36.385,38.7308,136.114,101.317,105.719,0.000752906,0.127464,20.8269,26.975,-0.411358,0.0,0.0
54,13.25,36.332,38.6379,129.426,101.322,104.418,0.000774231,0.127368,20.8269,26.995,-0.291107,0.0,0.0
56,13.75,36.0347,39.1774,128.712,101.32,103.755,0.00084621,0.127291,20.8265,26.975,-0.229653,0.0,0.0
58,14.25,36.1962,38.3934,130.119,101.314,103.798,0.000904513,0.127228,20.8257,26.935,-0.234285,0.0,0.0
60,14.75,36.3504,38.8191,133.113,101.32,104.984,0.000976727,0.127366,20.825,26.935,-0.343543,0.0,0.0
62,15.25,36.1535,38.6219,132.283,101.316,104.705,0.00105771,0.127514,20.8218,26.945,-0.318277,0.0,0.0
64,15.75,36.0285,38.7681,131.334,101.32,103.452,0.00112331,0.127768,20.8193,26.925,-0.201378,0.0,0.0
66,16.25,36.2749,38.7896,126.719,101.307,105.253,0.00120813,0.129343,20.8141,26.935,-0.36959,0.0,1.0
68,16.75,36.3799,38.9348,130.272,101.316,104.703,0.00127684,0.130619,20.8073,26.8049,-0.318091,0.0,1.0
70,17.25,36.9192,39.1283,132.428,101.326,104.834,0.00135688,0.132994,20.7978,26.8549,-0.329113,0.0,1.0
72,17.75,36.8653,39.3457,128.708,101.316,105.47,0.00142172,0.136124,20.7865,26.8249,-0.388678,0.0,1.0
74,18.25,36.9738,39.5597,127.435,101.324,103.491,0.00151452,0.138659,20.7718,26.8449,-0.204673,0.0,1.0
76,18.75,37.1734,39.6746,125.984,101.308,102.755,0.00158969,0.144309,20.7549,26.8249,-0.137109,0.0,1.0
78,19.25,37.1445,39.7255,124.808,101.318,103.201,0.00171416,0.148886,20.7335,26.8149,-0.178087,0.0,1.0
80,19.75,37.0189,39.6917,123.414,101.321,103.211,0.00181497,0.157793,20.7093,26.8349,-0.178804,0.0,1.0
82,20.25,37.7443,40.6203,126.308,101.313,101.913,0.00199465,0.165008,20.6825,26.7849,-0.0570961,0.0,1.0
84,20.75,37.365,40.8793,121.409,101.317,99.8821,0.0021402,0.175865,20.6543,26.7849,0.137971,0.0,1.0
86,21.25,37.9991,41.2558,125.419,101.315,99.9885,0.00238714,0.184659,20.624,26.7548,0.127443,0.0,0.0
88,21.75,38.0024,41.4759,124.681,101.317,95.5502,0.00258717,0.197657,20.5928,26.7548,0.566827,0.0,0.0
90,22.25,38.6889,42.0062,117.868,101.324,93.9079,0.00274919,0.208186,20.5675,26.7148,0.735169,0.0,0.0
92,22.75,39.0425,42.5896,120.02,101.326,93.1109,0.00303528,0.220074,20.547,26.6948,0.817797,0.0,0.0
94,23.25,38.6095,42.2009,118.984,101.326,91.6721,0.00340637,0.232725,20.514,26.6747,0.968465,0.0,0.0
96,23.75,39.2979,43.3157,122.638,101.313,89.6941,0.0038341,0.247476,20.4874,26.6347,1.1782,0.0,0.0
98,24.25,40.2169,44.4517,114.559,101.323,87.4753,0.00429497,0.263477,20.4546,26.6147,1.42136,0.0,0.0
100,24.75,40.9091,44.3404,116.424,101.322,86.4242,0.00466828,0.276437,20.418,26.5747,1.53821,0.0,0.0
102,25.25,40.9895,45.3635,112.473,101.326,84.2464,0.00525781,0.297877,20.3884,26.5546,1.78548,0.0,0.0
104,25.75,41.8535,46.2209,119.592,101.319,84.6533,0.00573533,0.315243,20.3514,26.5146,1.73819,0.0,0.0
106,26.25,42.0969,46.5285,113.586,101.341,83.1921,0.00612212,0.329309,20.3097,26.4545,1.90873,0.0,0.0
108,26.75,42.9343,47.31,111.516,101.327,78.5771,0.00661307,0.355598,20.2759,26.4545,2.45934,0.0,0.0
110,27.25,43.7384,48.3497,112.503,101.333,80.5401,0.00717064,0.376892,20.2189,26.3645,2.22122,0.0,0.0
112,27.75,44.198,50.5856,112.173,101.319,80.7569,0.00772007,0.400807,20.1727,26.2443,2.19394,0.0,0.0
114,28.25,45.2348,51.0214,111.851,101.33,79.7996,0.00825314,0.426178,20.1141,26.2644,2.31029,0.0,0.0
116,28.75,45.8,52.1068,107.076,101.318,78.8508,0.00877444,0.446729,20.0666,26.1743,2.42482,0.0,0.0
118,29.25,46.8272,53.0825,103.566,101.324,79.7362,0.00927724,0.471931,20.0056,26.1142,2.31743,0.0,0.0
120,29.75,47.5754,53.7951,107.417,101.321,78.2174,0.00968451,0.500045,19.9562,26.0342,2.50313,0.0,0.0
122,30.25,48.487,55.2636,107.904,101.325,79.2965,0.0102986,0.528196,19.9162,26.0141,2.37099,0.0,0.0
124,30.75,49.4843,56.5172,107.805,101.327,76.7266,0.0107961,0.555839,19.8599,25.9341,2.68988,0.0,0.0
126,31.25,50.0689,57.6058,105.173,101.33,76.0405,0.0113305,0.583309,19.8143,25.9441,2.77704,0.0,0.0
128,31.75,51.3387,59.2474,102.214,101.319,75.9174,0.0118818,0.610132,19.7588,25.8039,2.79161,0.0,0.0
130,32.25,51.6743,60.53,102.74,101.33,73.5659,0.0124841,0.631858,19.7138,25.7038,3.09699,0.0,0.0
132,32.75,53.3266,61.7039,105.229,101.329,72.2663,0.0131121,0.661148,19.6571,25.6538,3.26934,0.0,0.0
134,33.25,54.3505,62.8326,102.233,101.327,74.4287,0.0136208,0.684872,19.6111,25.5337,2.98399,0.0,0.0
136,33.75,55.1455,64.3109,102.134,101.32,75.2959,0.0143427,0.711457,19.5429,25.5437,2.87125,0.0,0.0
138,34.25,55.8028,65.892,100.48,101.328,73.0564,0.015073,0.739621,19.4877,25.5137,3.16402,0.0,0.0
140,34.75,56.9862,67.0385,96.6799,101.327,72.3999,0.0157954,0.768917,19.4176,25.3735,3.25125,0.0,0.0
142,35.25,57.9538,69.0506,92.201,101.326,68.7049,0.0163806,0.798481,19.3609,25.2835,3.75787,0.0,0.0
144,35.75,59.0047,70.157,94.4741,101.32,68.4756,0.0171973,0.822428,19.3,25.2734,3.7896,0.0,0.0
146,36.25,60.1135,71.6666,89.7433,101.325,67.8999,0.0178587,0.857507,19.2373,25.1734,3.87176,0.0,0.0
148,36.75,61.6441,73.8259,95.8274,101.324,68.2835,0.0183945,0.885922,19.1865,25.1033,3.81711,0.0,0.0
150,37.25,62.278,75.6478,87.7336,101.324,67.2158,0.0192212,0.92142,19.1332,24.9932,3.96955,0.0,0.0
152,37.75,63.9841,77.2634,98.4523,101.321,67.7029,0.0198908,0.950174,19.0792,24.9431,3.89946,0.0,0.0
154,38.25,65.3324,78.942,96.1151,101.333,67.8191,0.0206744,0.98687,19.0204,24.8531,3.88405,0.0,0.0
156,38.75,66.292,80.5716,98.7438,101.301,66.8223,0.0213091,1.01659,18.9728,24.743,4.02419,0.0,0.0
158,39.25,67.6868,82.2307,88.5541,101.335,65.5297,0.0220946,1.04827,18.9214,24.7029,4.21635,0.0,0.0
160,39.75,68.7157,83.9649,98.6148,101.32,65.1988,0.0227308,1.08076,18.8683,24.5328,4.26392,0.0,0.0
162,40.25,69.691,85.5993,93.0574,101.325,63.2423,0.0234848,1.10708,18.812,24.5428,4.55903,0.0,0.0
164,40.75,70.7468,86.936,92.6972,101.316,63.4221,0.0240955,1.14252,18.7545,24.4126,4.53071,0.0,0.0
166,41.25,72.0699,89.0159,95.0496,101.326,64.7087,0.0248233,1.17122,18.6981,24.3226,4.33747,0.0,0.0
168,41.75,74.2554,91.2474,91.008,101.32,63.4725,0.0254128,1.20635,18.6437,24.1824,4.52346,0.0,0.0
170,42.25,74.586,92.7265,88.7465,101.316,63.3694,0.0260621,1.2348,18.5996,24.1224,4.53872,0.0,0.0
172,42.75,75.8191,94.3842,92.0949,101.321,61.732,0.0267425,1.26378,18.5448,23.9823,4.79243,0.0,0.0
174,43.25,77.0346,96.0209,84.4309,101.323,62.4551,0.0272936,1.29259,18.5005,23.9022,4.67999,0.0,0.0
176,43.75,78.7414,98.2742,79.7177,101.309,62.792,0.0280466,1.32144,18.4646,23.8321,4.62663,0.0,0.0
178,44.25,79.4871,99.4928,97.6577,101.326,62.5541,0.0289325,1.34978,18.4182,23.722,4.66501,0.0,0.0
180,44.75,80.7257,102.116,86.8619,101.318,59.9557,0.0298756,1.37887,18.3807,23.6219,5.0745,0.0,0.0
182,45.25,81.8758,102.799,86.333,101.324,61.2013,0.0308427,1.40796,18.3392,23.5118,4.87624,0.0,0.0
184,45.75,83.3786,104.987,90.8813,101.32,62.1579,0.031626,1.43153,18.2956,23.4317,4.72589,0.0,0.0
186,46.25,84.0428,106.783,74.1946,101.318,60.341,0.032855,1.46541,18.2478,23.1915,5.01258,0.0,0.0
188,46.75,85.8,108.638,82.5418,101.316,60.2671,0.0338505,1.49285,18.1977,23.1315,5.0242,0.0,0.0
190,47.25,86.6936,111.245,86.2773,101.331,58.2859,0.0351235,1.5241,18.1373,23.0113,5.34898,0.0,0.0
192,47.75,87.9234,112.655,87.7046,101.319,56.1682,0.0361546,1.55752,18.0707,22.9313,5.70581,0.0,0.0
194,48.25,89.6063,113.971,89.9051,101.315,59.3005,0.0374761,1.58459,18.0167,22.7811,5.18056,0.0,0.0
196,48.75,90.5831,115.806,78.0301,101.328,57.305,0.0385465,1.61524,17.9606,22.7511,5.51283,0.0,0.0
198,49.25,92.1348,117.923,74.3641,101.324,58.4925,0.0394135,1.64793,17.9041,22.5709,5.31409,0.0,0.0
200,49.75,93.643,120.225,93.3627,101.322,55.271,0.0406131,1.6816,17.8583,22.5609,5.86188,0.0,0.0
202,50.25,94.5373,122.182,82.08,101.328,56.886,0.0420324,1.71535,17.8021,22.3307,5.58384,0.0,0.0
204,50.75,96.3829,123.606,91.5935,101.319,57.0038,0.043182,1.75023,17.7565,22.2406,5.56295,0.0,0.0
206,51.25,97.1095,124.908,88.8045,101.322,58.4613,0.0446495,1.78528,17.7197,22.1305,5.31907,0.0,0.0
208,51.75,98.4394,127.649,84.2309,101.321,56.3769,0.0463208,1.81367,17.6575,21.9804,5.6701,0.0,0.0
210,52.25,99.7063,129.706,75.0243,101.319,59.3317,0.0480435,1.85514,17.6071,21.7902,5.17581,0.0,0.0
212,52.75,101.394,131.998,96.8837,101.319,57.6688,0.049771,1.90536,17.5051,21.7402,5.45081,0.0,0.0
214,53.25,102.804,133.991,69.0875,101.323,56.601,0.0515599,1.94605,17.4226,21.6401,5.63192,0.0,0.0
216,53.75,104.082,136.557,58.52,101.329,57.1873,0.0533597,2.00959,17.2844,21.4799,5.5328,0.0,0.0
218,54.25,105.502,138.78,86.2788,101.324,57.3931,0.0548175,2.06107,17.1725,21.3298,5.49766,0.0,0.0
220,54.75,107.736,141.297,73.7702,101.322,58.6005,0.056885,2.11845,17.0541,21.1997,5.2961,0.0,0.0
222,55.25,110.108,144.512,78.469,101.317,58.834,0.0585598,2.17905,16.9332,21.0195,5.25714,0.0,0.0
224,55.75,111.452,147.429,67.477,101.324,58.1677,0.0607689,2.24295,16.8353,20.8293,5.36799,0.0,0.0
226,56.25,113.359,149.94,69.8356,101.323,56.0363,0.0625583,2.30805,16.7024,20.6892,5.72891,0.0,0.0
228,56.75,115.227,152.215,94.7802,101.321,55.2803,0.0645444,2.36077,16.5948,20.6291,5.86012,0.0,0.0
230,57.25,116.342,155.598,67.9213,101.311,55.4967,0.0666362,2.43959,16.4535,20.2788,5.82141,0.0,0.0
232,57.75,118.711,157.765,70.6828,101.316,54.6608,0.0683305,2.50344,16.3391,20.2188,5.96859,0.0,0.0
234,58.25,119.464,160.416,57.4919,101.306,57.5129,0.0707776,2.57245,16.2129,20.0386,5.47575,0.0,0.0
236,58.75,121.444,163.438,58.9138,101.323,59.9545,0.0727597,2.64392,16.0805,20.0286,5.0752,0.0,0.0
238,59.25,123.474,166.589,61.438,101.31,56.394,0.0746693,2.72114,15.9389,19.5682,5.66617,0.0,0.0
240,59.75,125.623,170.116,64.5415,101.319,59.5867,0.0764897,2.80108,15.7934,19.6382,5.13433,0.0,0.0
242,60.25,127.458,172.914,72.2765,101.315,54.3481,0.0781894,2.86584,15.6485,19.358,6.02403,0.0,0.0
244,60.75,129.451,175.803,87.1512,101.318,53.3405,0.0797688,2.95712,15.5068,19.2178,6.20536,0.0,0.0
246,61.25,131.131,179.476,65.7192,101.3,57.8202,0.0812527,3.03106,15.3645,19.1378,5.42358,0.0,0.0
248,61.75,133.459,182.115,68.6914,101.312,54.748,0.0826389,3.10998,15.2245,18.8975,5.95281,0.0,0.0
250,62.25,134.582,185.719,80.9114,101.302,54.5946,0.0839954,3.19104,15.1111,18.7574,5.97903,0.0,0.0
252,62.75,136.987,188.815,57.2156,101.314,58.6212,0.0853044,3.27356,14.9537,18.4771,5.29186,0.0,0.0
254,63.25,139.057,192.696,91.5057,101.306,53.0782,0.0866889,3.35558,14.8262,18.4171,6.25183,0.0,0.0
256,63.75,141.154,195.904,60.8121,101.312,59.9809,0.0881023,3.43937,14.6769,18.0868,5.0699,0.0,0.0
258,64.25,142.922,198.745,56.0569,101.298,61.5115,0.0892472,3.52286,14.5559,17.8866,4.82486,0.0,0.0
260,64.75,145.505,202.756,63.3279,101.301,57.4877,0.0907494,3.60748,14.458,17.6764,5.47952,0.0,0.0
262,65.25,148.301,207.372,75.9066,101.29,55.3566,0.0924835,3.69133,14.3396,17.4262,5.84376,0.0,0.0
264,65.75,149.619,210.952,63.5172,101.305,55.191,0.0938882,3.77472,14.2438,17.196,5.87425,0.0,0.0
266,66.25,152.168,213.973,54.4975,101.291,54.9502,0.0957274,3.85621,14.1396,17.0558,5.91518,0.0,0.0
268,66.75,153.398,217.114,54.8387,101.297,54.7172,0.0972171,3.92222,14.0312,17.0258,5.95687,0.0,0.0
270,67.25,155.248,220.111,67.9678,101.282,54.3161,0.0989943,4.01573,13.9118,16.6755,6.0266,0.0,0.0
272,67.75,156.733,223.634,78.9613,101.287,48.2854,0.100434,4.09148,13.7865,16.4252,7.16542,0.0,0.0
274,68.25,159.498,226.467,61.9616,101.276,57.0399,0.101769,4.15283,13.6095,16.205,5.55276,0.0,0.0
276,68.75,161.015,229.397,40.2999,101.282,60.8705,0.103003,4.26998,13.3981,15.9148,4.92464,0.0,0.0
278,69.25,162.693,232.405,73.8344,101.263,57.7183,0.104125,4.36487,13.2269,15.6345,5.43712,0.0,0.0
280,69.75,165.752,237.073,66.6993,101.287,64.7883,0.105143,4.5128,12.9687,15.6345,4.32186,0.0,0.0
282,70.25,167.86,241.272,64.872,101.26,60.4263,0.106034,4.63261,12.7595,15.2341,4.99342,0.0,0.0
284,70.75,170.157,245.676,45.6893,101.268,59.6443,0.106815,4.76546,12.4802,15.0039,5.1201,0.0,0.0
286,71.25,171.952,249.875,57.3751,101.251,58.7771,0.107447,4.90529,12.254,14.8838,5.26017,0.0,0.0
288,71.75,175.397,254.663,56.85,101.253,64.9706,0.108023,5.04659,12.0708,14.4634,4.29139,0.0,0.0
290,72.25,177.398,258.738,46.4908,101.239,58.7252,0.108547,5.18629,11.9224,14.3633,5.2676,0.0,0.0
292,72.75,178.992,263.281,46.6045,101.236,64.2252,0.108972,5.32571,11.7282,14.003,4.40137,0.0,0.0
294,73.25,181.436,267.144,73.9114,101.223,59.1803,0.109354,5.46228,11.5709,13.8929,5.19134,0.0,0.0
296,73.75,183.922,271.302,55.0341,101.229,61.7835,0.109699,5.5729,11.4034,13.5225,4.77563,0.0,0.0
298,74.25,185.889,275.509,45.9229,101.204,58.3854,0.109978,5.68616,11.2678,13.2022,5.32039,0.0,0.0
300,74.75,188.755,279.302,53.7862,101.209,59.2854,0.109959,5.79921,11.1345,13.0921,5.17285,0.0,0.0
302,75.25,190.325,282.691,61.6143,101.199,63.8062,0.109944,5.89078,11.0056,12.8219,4.46118,0.0,0.0
304,75.75,192.284,286.524,39.9465,101.177,62.1761,0.109347,5.96495,10.8518,12.5717,4.70932,0.0,0.0
306,76.25,193.978,289.767,79.5627,101.18,54.8824,0.108863,6.09499,10.683,12.3114,5.91649,0.0,0.0
308,76.75,197.061,294.031,42.2134,101.16,59.0126,0.107834,6.20033,10.5462,12.0512,5.2128,0.0,0.0
310,77.25,198.61,297.849,83.1249,101.164,58.3529,0.107001,6.33919,10.3058,11.9711,5.32193,0.0,0.0
312,77.75,200.571,301.764,58.2506,101.157,66.6742,0.105904,6.45166,10.111,11.5807,4.03186,0.0,0.0
314,78.25,202.663,305.496,48.5921,101.136,69.4479,0.104635,6.57371,9.86722,11.3105,3.63561,0.0,0.0
316,78.75,204.607,309.713,60.8701,101.123,65.0323,0.103607,6.70042,9.66972,11.0703,4.26975,0.0,0.0
318,79.25,206.799,313.856,47.138,101.106,66.9064,0.102392,6.82373,9.50975,10.75,3.99341,0.0,0.0
320,79.75,209.396,318.133,54.9311,101.089,59.0902,0.101066,6.94223,9.35798,10.6899,5.19327,0.0,0.0
322,80.25,211.515,321.81,48.4524,101.077,65.3766,0.0998524,7.05173,9.23505,10.1995,4.21433,0.0,0.0
324,80.75,213.193,325.736,58.3116,101.067,62.6654,0.0987448,7.15258,9.13325,9.95924,4.62307,0.0,0.0
326,81.25,215.586,329,56.4599,101.044,70.7179,0.0978505,7.23428,9.0508,9.71902,3.45156,0.0,0.0
328,81.75,217.288,332.705,64.73,101.029,69.5807,0.0971287,7.3147,8.98401,9.57889,3.60692,0.0,0.0
330,82.25,219.245,335.88,46.3725,101.012,66.1614,0.0966233,7.37985,8.92991,9.24858,4.0927,0.0,0.0
332,82.75,221.183,339.178,49.5118,100.986,60.1112,0.0962853,7.43786,8.88831,8.82819,5.01773,0.0,0.0
334,83.25,223.244,343.175,36.372,100.972,74.8891,0.0961535,7.48958,8.85461,8.63801,2.89033,0.0,0.0
336,83.75,223.953,345.339,63.8606,100.946,66.705,0.0961745,7.53167,8.83486,8.37777,4.00721,0.0,0.0
338,84.25,225.948,348.282,44.604,100.922,63.2228,0.0963905,7.56594,8.81887,8.1876,4.52353,0.0,0.0
340,84.75,227.798,351.688,47.8815,100.896,68.5555,0.0967444,7.58879,8.84852,7.8673,3.73779,0.0,0.0
342,85.25,229.901,354.2,72.3895,100.877,65.7124,0.097031,7.60288,8.87253,7.79723,4.14557,0.0,0.0
344,85.75,231.057,356.363,46.948,100.849,61.6967,0.0972632,7.60829,8.89198,7.33681,4.75282,0.0,0.0
346,86.25,233.108,358.5,52.6939,100.817,65.4606,0.097977,7.60728,8.91662,7.26674,4.17693,0.0,0.0
348,86.75,234.121,360.443,63.1577,100.777,70.9132,0.0985551,7.60645,8.93657,7.12661,3.39931,0.0,0.0
350,87.25,235.132,361.34,57.2629,100.752,65.3506,0.0991277,7.5952,8.95273,6.76628,4.18704,0.0,0.0
352,87.75,235.951,363.61,41.2166,100.712,60.5863,0.0995915,7.58609,8.98579,6.50604,4.91531,0.0,0.0
354,88.25,237.05,365.358,54.7135,100.706,62.6357,0.0998859,7.5702,9.01257,6.18574,4.59296,0.0,0.0
356,88.75,238.166,366.978,54.2693,100.699,58.3054,0.100051,7.54968,9.04492,5.95553,5.28526,0.0,0.0
358,89.25,239.541,369.195,49.3218,100.711,63.7404,0.10008,7.53306,9.07112,5.74533,4.42432,0.0,0.0
360,89.75,240.651,370.065,45.8374,100.722,65.7477,0.10001,7.51136,9.10743,5.66526,4.12557,0.0,0.0
362,90.25,241.17,371.482,52.0184,100.739,63.2825,0.0998571,7.49378,9.13684,5.43504,4.4968,0.0,0.0
364,90.75,241.959,372.875,45.4092,100.744,67.3404,0.0996463,7.48077,9.16421,5.34496,3.89616,0.0,0.0
366,91.25,243.674,374.996,50.8376,100.768,70.2388,0.0994504,7.47135,9.18639,5.03467,3.49088,0.0,0.0
368,91.75,244.89,376.771,38.297,100.769,70.3399,0.099269,7.45954,9.2292,4.45413,3.47704,0.0,0.0
370,92.25,246.663,378.403,47.6998,100.789,64.2284,0.099122,7.44622,9.26388,4.5242,4.35808,0.0,0.0
372,92.75,247.058,380.712,74.5587,100.805,54.4042,0.0994157,7.42394,9.32584,4.06377,5.96526,0.0,0.0
374,93.25,248.957,382.306,52.023,100.827,63.0994,0.0996535,7.39557,9.40651,4.0938,4.53332,0.0,0.0
376,93.75,249.269,382.144,40.3838,100.831,67.0627,0.100444,7.35686,9.50082,3.85358,3.94447,0.0,0.0
378,94.25,249.907,382.519,73.5733,100.85,52.4562,0.101085,7.31134,9.60328,3.60334,6.32225,0.0,0.0
380,94.75,250.894,383.797,40.8181,100.868,69.2007,0.101931,7.27447,9.68627,3.19296,3.64452,0.0,0.0
382,95.25,251.009,384.392,79.2887,100.892,53.6515,0.102911,7.21172,9.75349,3.26303,6.10838,0.0,0.0
384,95.75,251.069,385.118,55.5135,100.905,55.014,0.103706,7.16088,9.85055,2.87267,5.86703,0.0,0.0
386,96.25,252.115,385.286,59.2054,100.927,53.068,0.104349,7.10324,9.92917,2.83263,6.21741,0.0,0.0
388,96.75,252.497,385.635,59.165,100.946,50.8513,0.105399,7.04174,10.0133,2.39222,6.63197,0.0,0.0
390,97.25,252.92,385.987,70.9385,100.968,56.0911,0.106251,6.97814,10.0999,2.42225,5.68548,0.0,0.0
392,97.75,253.793,386.779,60.5396,100.998,60.6951,0.106844,6.9142,10.1701,2.04189,4.92545,0.0,0.0
394,98.25,253.284,386.733,45.4039,101.012,55.0708,0.107325,6.86241,10.2802,1.99185,5.86727,0.0,0.0
396,98.75,254.156,387.173,55.302,101.024,55.5272,0.107714,6.79568,10.3694,1.69157,5.78862,0.0,0.0
398,99.25,255.334,388.116,73.2207,101.05,49.462,0.107559,6.71933,10.51,1.69157,6.90986,0.0,0.0
400,99.75,255.208,387.56,60.1473,101.075,56.4983,0.107434,6.65748,10.624,1.30121,5.62582,0.0,0.0
402,100.25,255.382,387.387,67.8808,101.098,55.2799,0.107025,6.5599,10.7163,1.19111,5.83886,0.0,0.0
404,100.75,255.336,387.02,51.014,101.113,61.7324,0.106417,6.48085,10.8994,1.00093,4.7725,0.0,0.0
406,101.25,255.499,387.071,55.4387,101.15,53.636,0.105709,6.38923,11.0477,0.740687,6.13585,0.0,0.0
408,101.75,255.868,386.835,57.7056,101.161,53.1537,0.104941,6.29019,11.2674,0.720669,6.22423,0.0,0.0
410,102.25,255.744,385.675,69.2501,101.198,53.148,0.104039,6.20996,11.4453,0.510474,6.22884,0.0,0.0
412,102.75,255.466,384.746,63.7362,101.211,51.6324,0.103056,6.08003,11.6871,0.42039,6.5099,0.0,0.0
414,103.25,256.081,384.571,57.2148,101.241,50.0227,0.101929,5.97478,11.883,0.110102,6.81912,0.0,0.0
416,103.75,256.181,383.331,66.0596,101.268,50.9447,0.10072,5.85642,12.1638,0.0500464,6.64499,0.0,0.0
418,104.25,255.232,382.007,57.9643,101.289,52.0932,0.0991891,5.73074,12.3913,-0.0600557,6.43137,0.0,0.0
420,104.75,254.725,380.839,68.5403,101.293,49.1116,0.097454,5.59866,12.6937,-0.230214,7.00187,0.0,0.0
422,105.25,254.364,380.192,72.7398,101.331,49.4693,0.0954523,5.46441,12.9386,-0.450418,6.93528,0.0,0.0
424,105.75,253.844,378.042,67.9266,101.336,51.7246,0.0932943,5.32373,13.2374,-0.630585,6.50455,0.0,0.0
426,106.25,253.417,376.295,78.4094,101.368,50.4274,0.0915463,5.18104,13.4794,-0.640594,6.7533,0.0,0.0
428,106.75,252.422,374.38,56.8446,101.373,52.12,0.0908011,5.03284,13.5826,-0.940873,6.43445,0.0,0.0
430,107.25,251.73,371.539,65.3658,101.4,49.3467,0.0875696,4.88346,13.8111,-0.990919,6.96583,0.0,0.0
432,107.75,250.743,370.187,70.9622,101.421,50.9536,0.0849521,4.76246,14.0432,-1.04097,6.65794,0.0,0.0
434,108.25,250.064,367.443,70.7843,101.422,52.5959,0.0814143,4.60054,14.2312,-1.06098,6.35124,0.0,0.0
436,108.75,248.72,364.676,72.897,101.441,54.3936,0.0785486,4.46939,14.4807,-1.26117,6.02799,0.0,0.0
438,109.25,247.952,362.311,74.5625,101.455,55.1687,0.0753136,4.2963,14.6828,-1.33124,5.89242,0.0,0.0
440,109.75,246.321,359.694,76.9844,101.453,57.2023,0.0718707,4.22251,14.9398,-1.43133,5.54215,0.0,0.0
442,110.25,245.607,356.837,80.529,101.469,54.0518,0.0683983,4.09633,15.148,-1.49138,6.09164,0.0,0.0
444,110.75,244.174,354.018,88.8877,101.467,53.824,0.0649703,3.91536,15.4605,-1.58147,6.13221,0.0,0.0
446,111.25,242.654,350.834,82.9372,101.481,56.8328,0.0621937,3.76877,15.7136,-1.66154,5.60745,0.0,0.0
448,111.75,240.741,347.432,90.3951,101.475,57.2896,0.0585559,3.61304,16.0555,-1.70158,5.52949,0.0,0.0
450,112.25,239.494,344.176,85.301,101.478,60.4429,0.0556093,3.45358,16.3324,-1.8317,5.01152,0.0,0.0
452,112.75,237.171,340.565,90.2967,101.471,63.172,0.051817,3.2922,16.6161,-1.82169,4.58368,0.0,0.0
454,113.25,235.365,337.87,92.7598,101.473,66.9186,0.0487451,3.13248,16.8993,-1.84171,4.0267,0.0,0.0
456,113.75,234.354,334.481,92.5132,101.459,69.1946,0.046257,3.00311,17.1287,-1.89176,3.70185,0.0,0.0
458,114.25,232.215,330.517,95.9884,101.459,71.1511,0.0425137,2.83551,17.4251,-1.93179,3.43217,0.0,0.0
460,114.75,229.804,326.714,105.074,101.437,77.2978,0.0394816,2.69975,17.6652,-1.99185,2.6286,0.0,0.0
462,115.25,227.397,322.685,106.688,101.431,82.5672,0.0358932,2.52982,17.9079,-1.98184,1.99021,0.0,0.0
464,115.75,224.88,318.718,108.854,101.408,88.0076,0.0329865,2.39218,18.1477,-1.96182,1.37083,0.0,0.0
466,116.25,223.211,314.711,110.767,101.382,93.8133,0.0298055,2.24777,18.3846,-1.98184,0.750457,0.0,0.0
468,116.75,219.828,309.424,110.543,101.363,96.6167,0.0272289,2.10117,18.6147,-1.9418,0.46388,0.0,0.0
470,117.25,217.658,305.565,112.332,101.337,98.0998,0.0247427,1.98242,18.8428,-1.92178,0.31398,0.0,0.0
472,117.75,215.384,301.332,116.845,101.3,98.6698,0.0223694,1.83031,19.0649,-1.92178,0.254493,0.0,0.0
474,118.25,212.46,297.029,111.21,101.279,99.321,0.0201827,1.7071,19.2449,-1.9418,0.188812,0.0,0.0
476,118.75,210.167,293.047,113.941,101.239,99.2735,0.0181735,1.57188,19.3906,-1.95181,0.189638,0.0,0.0
478,119.25,207.187,289.053,115.851,101.206,99.546,0.016546,1.46234,19.5513,-1.9418,0.159951,0.0,0.0
480,119.75,205.322,285.139,115.284,101.151,99.8959,0.0152277,1.34577,19.6815,-1.93179,0.120768,0.0,0.0
482,120.25,202.613,280.836,114.818,101.124,99.8021,0.0136552,1.25134,19.8008,-1.9418,0.12729,0.0,0.0
484,120.75,199.741,276.829,113.396,101.076,99.7559,0.0123815,1.15983,19.9098,-1.97183,0.127153,0.0,0.0
486,121.25,197.55,273.202,113.183,101.024,99.7019,0.0112149,1.07218,19.9982,-1.93179,0.127416,0.0,0.0
488,121.75,195.235,269.429,119.371,100.965,99.3694,0.0101487,1.00118,20.0933,-1.93179,0.15409,0.0,0.0
490,122.25,193.059,265.417,113.825,100.916,99.6117,0.00928513,0.930263,20.1703,-1.96182,0.12578,0.0,0.0
492,122.75,191.182,262.571,115.234,100.858,99.4769,0.00842782,0.86075,20.2414,-1.95181,0.133349,0.0,0.0
494,123.25,189.003,258.795,118.131,100.805,100.068,0.0077334,0.804444,20.3067,-1.92178,0.0709018,0.0,0.0
496,123.75,186.788,255.513,114.417,100.745,99.5277,0.00704221,0.750279,20.3667,-1.93179,0.117585,0.0,0.0
498,124.25,185.313,252.524,115.799,100.684,99.8123,0.00648234,0.698704,20.4215,-1.93179,0.0840796,0.0,0.0
500,124.75,182.988,249.249,115.82,100.628,99.6454,0.00594987,0.656929,20.4702,-1.93179,0.0949174,0.0,0.0
502,125.25,181.053,245.865,116.679,100.585,99.5699,0.00551856,0.612043,20.5134,-1.95181,0.0980738,0.0,0.0
504,125.75,179.55,242.865,114.873,100.513,99.2333,0.00511377,0.575685,20.5505,-1.93179,0.12391,0.0,0.0
506,126.25,176.97,239.651,114.235,100.441,98.9427,0.00478589,0.538763,20.5824,-1.95181,0.145326,0.0,0.0
508,126.75,175.453,236.535,114.323,100.377,99.1546,0.00447356,0.508856,20.6099,-1.95181,0.118492,0.0,0.0
510,127.25,174.93,234.558,119.024,100.312,98.9224,0.00422057,0.478697,20.6337,-1.96182,0.13491,0.0,0.0
512,127.75,172.604,231.642,115.19,100.264,99.2536,0.00401565,0.454269,20.6529,-1.96182,0.0979505,0.0,0.0
514,128.25,171.273,228.667,114.867,100.19,98.7583,0.00377608,0.429581,20.6685,-1.95181,0.139169,0.0,0.0
516,128.75,169.504,226.103,114,100.125,98.8408,0.00358202,0.409584,20.6833,-1.96182,0.124867,0.0,0.0
518,129.25,168.163,223.592,118.562,100.067,98.5099,0.00339774,0.389406,20.6954,-1.96182,0.15165,0.0,0.0
520,129.75,166.349,221.154,113.424,100.001,98.7023,0.00322407,0.373061,20.707,-1.96182,0.126453,0.0,0.0
522,130.25,164.923,218.751,116.445,99.9326,98.5346,0.0030834,0.357621,20.7165,-1.96182,0.136259,0.0,0.0
524,130.75,163.451,216.551,115.44,99.8786,98.5561,0.00291192,0.343133,20.7251,-1.96182,0.128919,0.0,0.0
526,131.25,162.153,213.494,112.981,99.8209,98.6646,0.00277303,0.331397,20.7329,-1.97183,0.112702,0.0,0.0
528,131.75,160.775,211.701,115.075,99.7775,98.3389,0.0026104,0.319795,20.7399,-1.98184,0.140464,0.0,0.0
530,132.25,159.302,209.3,116.766,99.7166,98.034,0.00254107,0.30851,20.7433,-1.98184,0.164594,0.0,0.0
532,132.75,157.57,206.602,117.086,99.6727,98.5748,0.00239746,0.299369,20.7489,-1.97183,0.107132,0.0,0.0
534,133.25,156.551,204.103,118.773,99.624,98.0714,0.00225858,0.289191,20.7549,-1.97183,0.151925,0.0,0.0
536,133.75,155.215,202.374,116.057,99.5867,97.9476,0.00213069,0.280946,20.7597,-1.97183,0.160518,0.0,0.0
538,134.25,154.187,200.624,115.671,99.5221,97.9577,0.00201323,0.271859,20.7645,-1.97183,0.153244,0.0,0.0
540,134.75,152.799,197.949,116.717,99.4986,97.9845,0.00191809,0.264498,20.7684,-1.96182,0.14831,0.0,0.0
542,135.25,151.692,196.149,116.102,99.4596,98.3901,0.00183397,0.26136,20.7715,-1.96182,0.104567,0.0,0.0
544,135.75,150.734,194.025,118.238,99.4263,98.3483,0.00175948,0.254219,20.7749,-1.9418,0.10544,0.0,0.0
546,136.25,149.281,192.262,116.508,99.4113,98.1895,0.00170107,0.247597,20.7777,-1.96182,0.119602,0.0,0.0
548,136.75,147.896,189.933,117.706,99.397,97.9147,0.00165549,0.241481,20.7804,-1.95181,0.145333,0.0,0.0
550,137.25,146.889,188.051,119.41,99.3792,97.5728,0.00162306,0.236526,20.7826,-1.96182,0.177422,0.0,0.0
552,137.75,146.074,186.575,115.822,99.3743,97.3142,0.00160083,0.230874,20.7848,-1.96182,0.202618,0.0,0.0
554,138.25,144.722,184.455,117.182,99.365,97.4985,0.00158283,0.226295,20.7866,-1.95181,0.183406,0.0,0.0
556,138.75,143.922,183.162,118.354,99.3832,97.788,0.00158044,0.221819,20.7885,-1.9418,0.156511,0.0,0.0
558,139.25,143.094,181.13,117.762,99.3654,97.7612,0.0015785,0.217503,20.7905,-1.93179,0.157422,0.0,0.0
560,139.75,141.925,179.598,118.167,99.393,97.8314,0.00159757,0.21347,20.7925,-1.93179,0.153164,0.0,0.0
562,140.25,140.722,177.15,115.424,99.4113,97.84,0.00162715,0.20972,20.7944,-1.95181,0.154098,0.0,0.0
564,140.75,139.598,176.07,117.229,99.4348,97.5192,0.00166382,0.206177,20.7962,-1.95181,0.188148,0.0,0.0
566,141.25,138.97,174.785,114.611,99.4462,98.1014,0.00169353,0.202852,20.7979,-1.92178,0.131682,0.0,0.0
568,141.75,138.292,173.572,121.667,99.4961,97.8156,0.00171759,0.200159,20.7993,-1.9418,0.16476,0.0,0.0
570,142.25,137.03,171.272,119.416,99.512,98.3243,0.0017664,0.196963,20.8004,-1.95181,0.116126,0.0,0.0
572,142.75,135.927,169.796,118.82,99.5725,98.075,0.00180593,0.194374,20.8015,-1.95181,0.146559,0.0,0.0
574,143.25,135.092,168.644,116.308,99.6066,97.7669,0.00183795,0.191508,20.8026,-1.95181,0.180307,0.0,0.0
576,143.75,134.528,166.81,118.115,99.6581,98.4656,0.00186145,0.189186,20.8034,-1.9418,0.116435,0.0,0.0
578,144.25,133.036,165.567,117.626,99.6947,97.9845,0.00188047,0.18685,20.8038,-1.97183,0.167354,0.0,0.0
580,144.75,132.233,163.841,116.859,99.7641,97.8136,0.00187757,0.184547,20.8042,-1.97183,0.190976,0.0,0.0
582,145.25,131.858,162.948,116.021,99.8039,98.233,0.00187521,0.182682,20.8045,-1.97183,0.15345,0.0,0.0
584,145.75,131.19,161.683,117.404,99.8693,98.2171,0.00183912,0.181171,20.8052,-1.97183,0.161342,0.0,0.0
586,146.25,130.387,159.798,117.915,99.931,97.8631,0.0018099,0.178913,20.8062,-1.96182,0.202243,0.0,0.0
588,146.75,129.12,158.368,119.41,99.9911,98.2001,0.00174598,0.177085,20.807,-1.96182,0.174811,0.0,0.0
590,147.25,128.986,157.311,118.104,100.052,98.0052,0.00171873,0.175067,20.8073,-1.97183,0.199953,0.0,0.0
592,147.75,127.858,156.099,116.289,100.134,98.2561,0.00164714,0.173432,20.8079,-1.95181,0.183109,0.0,0.0
594,148.25,127.359,155.295,119.765,100.164,98.2496,0.00156665,0.171804,20.8088,-2.00186,0.186651,0.0,0.0
596,148.75,126.741,153.726,120.26,100.245,98.3556,0.00150146,0.170212,20.8096,-1.98184,0.184023,0.0,0.0
598,149.25,125.925,152.836,116.985,100.282,98.2748,0.0014192,0.168443,20.8102,-1.96182,0.195574,0.0,0.0
600,149.75,125.596,151.616,115.561,100.352,98.4254,0.00132608,0.16701,20.8116,-1.97183,0.187456,0.0,0.0
602,150.25,125.023,150.37,119.803,100.402,98.5208,0.00124106,0.1664,20.8127,-1.97183,0.182936,0.0,0.0
604,150.75,123.706,149.325,115.355,100.466,98.8326,0.00116356,0.165046,20.8136,-1.97183,0.158551,0.0,0.0
606,151.25,123,148.162,119.971,100.508,98.7364,0.00110079,0.16395,20.8143,-1.96182,0.172037,0.0,0.0
608,151.75,122.944,147.096,119.032,100.558,98.4538,0.00105359,0.162598,20.8149,-1.98184,0.204524,0.0,0.0
610,152.25,121.557,145.247,118.856,100.591,98.5147,0.00101535,0.161503,20.8154,-1.98184,0.201743,0.0,0.0
612,152.75,121.048,144.548,115.811,100.633,98.766,0.00100261,0.160617,20.8162,-1.99185,0.181162,0.0,0.0
614,153.25,120.482,143.999,119.888,100.689,99.1254,0.000992286,0.15938,20.8174,-1.99185,0.151383,0.0,0.0
616,153.75,120.033,142.831,123.408,100.705,98.6394,0.000994161,0.158378,20.8183,-2.00186,0.200479,0.0,0.0
618,154.25,119.813,142.334,119.292,100.723,98.764,0.00100489,0.157202,20.8194,-1.99185,0.18998,0.0,0.0
620,154.75,118.638,141.205,119.908,100.752,98.4648,0.00102063,0.15625,20.8204,-2.01187,0.222096,0.0,0.0
622,155.25,118.547,139.858,117.816,100.763,98.5289,0.00103971,0.155302,20.8216,-2.02188,0.216849,0.0,0.0
624,155.75,117.874,139.692,119.135,100.795,98.777,0.00105516,0.154375,20.8226,-2.01187,0.195568,0.0,0.0
626,156.25,116.646,137.884,117.084,100.774,98.5691,0.00107409,0.153484,20.8234,-2.01187,0.213957,0.0,0.0
628,156.75,116.006,136.852,121.754,100.797,98.6788,0.00109518,0.152637,20.824,-2.01187,0.205465,0.0,0.0
630,157.25,115.899,136.053,119.789,100.775,98.4932,0.00111931,0.151804,20.8246,-1.99185,0.221487,0.0,0.0
632,157.75,115.641,135.23,116.872,100.772,98.9163,0.00114519,0.150997,20.825,-2.00186,0.179798,0.0,0.0
634,158.25,114.511,133.994,118.978,100.758,98.5923,0.00116616,0.150343,20.8253,-2.02188,0.210204,0.0,0.0
636,158.75,114.513,133.593,113.868,100.755,98.44,0.00119288,0.1496,20.8258,-2.02188,0.224801,0.0,0.0
638,159.25,113.984,132.668,115.795,100.752,98.8066,0.00121453,0.148807,20.8265,-2.01187,0.188613,0.0,0.0
640,159.75,113.725,132.509,118.973,100.749,98.7153,0.00124488,0.148165,20.8272,-2.00186,0.197208,0.0,0.0
642,160.25,113.036,131.199,116.205,100.75,98.7799,0.00128101,0.14738,20.828,-1.99185,0.191041,0.0,0.0
644,160.75,112.018,130.555,120.599,100.731,98.5196,0.00133099,0.146744,20.8287,-2.01187,0.214726,0.0,0.0
646,161.25,111.651,129.073,120.482,100.723,98.6089,0.00137148,0.145992,20.8292,-1.99185,0.205181,0.0,0.0
648,161.75,111.503,128.791,116.376,100.702,98.2046,0.00140684,0.145383,20.8296,-2.00186,0.242897,0.0,0.0
650,162.25,110.77,128.035,118.881,100.68,98.4453,0.00143779,0.144668,20.8304,-1.99185,0.217108,0.0,0.0
652,162.75,110.708,127.291,116.052,100.651,98.5724,0.00146286,0.144088,20.8311,-1.97183,0.201823,0.0,0.0
654,163.25,110.376,126.672,119.508,100.615,98.1445,0.00147354,0.143523,20.8316,-2.00186,0.240429,0.0,0.0
656,163.75,109.884,126.038,121.049,100.602,98.2435,0.00147353,0.14298,20.832,-1.97183,0.229461,0.0,0.0
658,164.25,108.626,124.715,116.674,100.572,98.6065,0.00146391,0.142459,20.8323,-1.98184,0.190904,0.0,0.0
660,164.75,108.318,124.063,116.569,100.545,98.1424,0.00144746,0.141965,20.8331,-1.97183,0.233913,0.0,0.0
662,165.25,108.738,124.045,121.035,100.52,98.3247,0.0014258,0.141565,20.8336,-1.99185,0.213543,0.0,0.0
664,165.75,108.461,123.45,117.773,100.505,98.654,0.00140075,0.141019,20.8341,-2.01187,0.17984,0.0,0.0
666,166.25,107.206,122.575,120.319,100.473,98.1721,0.00138047,0.140576,20.8345,-2.01187,0.224038,0.0,0.0
668,166.75,107.798,122.19,118.305,100.483,98.2464,0.00135699,0.140101,20.8348,-2.00186,0.217698,0.0,0.0
670,167.25,106.934,121.475,119.209,100.454,98.2224,0.00133163,0.139611,20.834,-2.00186,0.217241,0.0,0.0
672,167.75,106.638,120.635,117.023,100.536,98.0925,0.00130853,0.139213,20.8334,-1.98184,0.238016,0.0,0.0
674,168.25,106.245,120.195,119.465,100.628,98.1181,0.00128751,0.138767,20.8333,-1.99185,0.244317,0.0,0.0
676,168.75,106.359,118.927,120.711,100.728,98.6158,0.00126536,0.138405,20.8332,-2.00186,0.20501,0.0,0.0
678,169.25,105.655,119.113,118.836,100.835,98.5744,0.00124281,0.138112,20.8332,-2.02188,0.219321,0.0,0.0
680,169.75,105.434,118.281,119.027,100.923,98.7096,0.00122454,0.137667,20.8331,-2.00186,0.214473,0.0,0.0
682,170.25,104.574,117.767,116.686,101.008,98.665,0.00119886,0.137306,20.8331,-2.00186,0.227019,0.0,0.0
684,170.75,104.533,117.548,116.353,101.082,98.9719,0.00116827,0.136889,20.833,-2.00186,0.204011,0.0,0.0
686,171.25,103.891,116.825,121.218,101.147,98.5626,0.00114157,0.136551,20.833,-2.00186,0.250301,0.0,0.0
688,171.75,103.482,116.504,124.659,101.188,99.004,0.00111821,0.136125,20.8335,-2.00186,0.21105,0.0,0.0
690,172.25,103.273,115.996,120.545,101.228,98.7835,0.0010993,0.13578,20.8338,-2.00186,0.236453,0.0,0.0
692,172.75,103.249,114.859,119.29,101.255,98.7514,0.00109735,0.13539,20.8341,-2.01187,0.242115,0.0,0.0
694,173.25,102.757,114.364,119.788,101.281,98.6552,0.00109652,0.135074,20.8342,-2.02188,0.254026,0.0,0.0
696,173.75,102.416,113.714,119.245,101.29,98.5322,0.00110086,0.134818,20.8344,-2.02188,0.266946,0.0,0.0
698,174.25,101.974,113.193,118.724,101.294,98.7742,0.00110956,0.134486,20.8346,-2.00186,0.243689,0.0,0.0
700,174.75,101.874,112.596,120.58,101.277,98.76,0.00111725,0.134217,20.8347,-2.02188,0.243452,0.0,0.0
702,175.25,101.526,112.494,118.519,101.266,98.8883,0.00112406,0.133897,20.8352,-2.02188,0.229849,0.0,0.0
704,175.75,100.919,111.658,123.457,101.225,98.4335,0.00112637,0.133546,20.8357,-2.04189,0.270431,0.0,0.0
706,176.25,100.891,110.575,118.281,101.199,98.5151,0.00112536,0.133338,20.8365,-2.01187,0.259933,0.0,0.0
708,176.75,100.334,110.864,120.873,101.133,98.5334,0.00112454,0.132983,20.8372,-2.01187,0.251851,0.0,0.0
710,177.25,100.075,110.236,120.032,101.08,98.5817,0.00111172,0.132695,20.8377,-2.01187,0.24202,0.0,0.0
712,177.75,99.341,109.772,122.125,101.003,98.4059,0.00109039,0.132365,20.8386,-2.01187,0.251939,0.0,0.0
714,178.25,99.4262,109.366,121.708,100.927,98.749,0.00106927,0.132098,20.8393,-2.01187,0.211043,0.0,0.0
716,178.75,98.521,109.004,118.952,100.82,98.2127,0.00104871,0.131798,20.8398,-2.01187,0.2534,0.0,0.0
718,179.25,99.251,108.05,117.805,100.71,98.2858,0.00103142,0.131556,20.8403,-2.03189,0.235684,0.0,0.0
720,179.75,98.8687,107.956,124.386,100.694,98.0422,0.00101684,0.131263,20.8407,-2.03189,0.258125,0.0,0.0
722,180.25,98.4084,107.391,119.416,100.731,97.8022,0.00100822,0.131025,20.841,-2.01187,0.285374,0.0,0.0
724,180.75,98.0618,107.102,118.009,100.747,98.2667,0.00100413,0.130796,20.8412,-2.03189,0.241109,0.0,0.0
726,181.25,97.4749,106.504,124.85,100.806,98.6053,0.00100081,0.130578,20.8414,-2.00186,0.21349,0.0,0.0
728,181.75,98.0334,106.203,119.41,100.838,98.1169,0.00100663,0.130351,20.8418,-1.99185,0.264555,0.0,0.0
730,182.25,97.34,106.109,121.889,100.888,98.6926,0.00101134,0.130121,20.8424,-1.99185,0.212836,0.0,0.0
732,182.75,96.7024,105.326,117.517,100.938,98.3231,0.00101395,0.129934,20.843,-2.01187,0.25382,0.0,0.0
734,183.25,96.9649,104.975,120.334,100.998,98.4408,0.00101606,0.129714,20.8438,-2.00186,0.248079,0.0,0.0
736,183.75,96.4672,104.352,118.739,101.027,98.222,0.00101777,0.129536,20.8444,-1.99185,0.272325,0.0,0.0
738,184.25,96.3763,104.541,119.358,101.091,98.3828,0.00100335,0.129295,20.8449,-2.00186,0.262685,0.0,0.0
740,184.75,95.5647,103.836,118.278,101.141,98.5679,0.000991668,0.1291,20.8453,-2.00186,0.24924,0.0,0.0
742,185.25,95.7847,103.37,120.411,101.193,98.7267,0.000972488,0.128817,20.8458,-2.00186,0.238644,0.0,0.0
744,185.75,95.453,102.707,118.684,101.224,98.384,0.000956952,0.128589,20.8465,-2.01187,0.275261,0.0,0.0
746,186.25,95.4206,102.457,119.426,101.279,98.2606,0.000944574,0.128403,20.8468,-2.03189,0.292638,0.0,0.0
748,186.75,94.491,102.246,121.143,101.321,98.5789,0.000923409,0.128198,20.8472,-2.02188,0.26535,0.0,0.0
750,187.25,95.195,101.73,122.989,101.362,98.6788,0.000898596,0.128032,20.8476,-2.01187,0.25947,0.0,0.0
752,187.75,94.0146,101.357,119.584,101.384,98.8391,0.000871595,0.127875,20.8479,-2.04189,0.245894,0.0,0.0
754,188.25,94.3244,101.065,117.402,101.426,98.7985,0.000841419,0.127729,20.8482,-2.04189,0.253896,0.0,0.0
756,188.75,94.1456,100.773,123.158,101.43,99.0295,0.000795895,0.127567,20.8487,-2.03189,0.231616,0.0,0.0
758,189.25,93.321,99.6417,120.074,101.473,99.1428,0.000783649,0.127477,20.849,-2.01187,0.224702,0.0,0.0
760,189.75,92.8533,99.9231,121.819,101.471,98.6723,0.000740436,0.127287,20.8486,-2.00186,0.270483,0.0,0.0
762,190.25,93.8952,99.9985,122.525,101.484,98.5907,0.000726712,0.127101,20.8477,-1.99185,0.279724,0.0,0.0
764,190.75,93.3309,99.587,121.231,101.491,98.5472,0.000693239,0.126906,20.8457,-1.99185,0.284722,0.0,0.0
766,191.25,92.8036,98.8324,120.677,101.473,98.8257,0.000677851,0.12671,20.8451,-1.99185,0.255646,0.0,0.0
768,191.75,92.6911,98.3947,122.201,101.445,98.9508,0.000651538,0.126482,20.8441,-2.00186,0.240784,0.0,0.0
770,192.25,92.6218,98.6825,121.507,101.436,98.4413,0.000625118,0.12637,20.8434,-2.01187,0.289826,0.0,0.0
772,192.75,92.0787,98.0745,124.085,101.404,98.5533,0.000599124,0.126097,20.8432,-2.01187,0.275841,0.0,0.0
774,193.25,91.9248,97.7214,117.256,101.377,98.4952,0.000578069,0.126024,20.843,-2.02188,0.278907,0.0,0.0
776,193.75,91.6667,97.2254,119.833,101.323,98.7015,0.000559802,0.125746,20.8429,-2.02188,0.253522,0.0,0.0
778,194.25,91.433,97.0647,123.255,101.283,98.9443,0.000545005,0.125672,20.8428,-2.01187,0.22596,0.0,0.0
780,194.75,91.8534,97.3395,117.363,101.223,98.9865,0.000543933,0.125544,20.8428,-2.00186,0.216054,0.0,0.0
782,195.25,91.0562,96.0536,119.828,101.177,98.6848,0.000543064,0.125441,20.8427,-2.00186,0.24119,0.0,0.0
784,195.75,90.563,95.8308,122.763,101.103,97.9244,0.000548105,0.125357,20.8426,-1.99185,0.308942,0.0,0.0
786,196.25,90.8858,96.3107,120.859,101.041,98.0243,0.000557358,0.125261,20.8426,-2.01187,0.293176,0.0,0.0
788,196.75,90.9565,95.5371,119.917,100.954,98.7072,0.000572133,0.125184,20.8426,-2.00186,0.217669,0.0,0.0
790,197.25,90.8103,95.4703,121.592,100.877,98.0527,0.0005841,0.125085,20.843,-2.02188,0.274696,0.0,0.0
792,197.75,90.0644,95.174,122.262,100.789,97.8209,0.000593793,0.124973,20.8433,-2.03189,0.2891,0.0,0.0
794,198.25,90.4749,94.8852,121.689,100.7,97.8343,0.000630776,0.124845,20.8436,-2.04189,0.279278,0.0,0.0
796,198.75,90.2838,94.6876,119.146,100.614,97.9772,0.000660731,0.124709,20.8438,-2.03189,0.256888,0.0,0.0
798,199.25,89.1844,93.8052,118.438,100.515,97.7036,0.000710504,0.12457,20.844,-2.01187,0.274371,0.0,0.0
800,199.75,89.3081,93.4975,122.856,100.417,97.2716,0.00075082,0.124431,20.8441,-1.99185,0.307849,0.0,0.0
802,200.25,89.3425,93.9715,117.532,100.323,97.7174,0.000802924,0.124319,20.8443,-1.98184,0.254508,0.0,0.0
804,200.75,89.6505,93.8719,120.386,100.232,97.7986,0.000845127,0.124159,20.8444,-1.99185,0.237701,0.0,0.0
806,201.25,89.2538,93.3052,122.141,100.145,97.259,0.000891472,0.124029,20.8444,-2.00186,0.282823,0.0,0.0
808,201.75,88.7502,92.8616,123.297,100.044,97.0166,0.000929011,0.123897,20.8445,-2.01187,0.297187,0.0,0.0
810,202.25,88.9247,92.5338,119.148,99.9545,97.0982,0.000963258,0.123789,20.8445,-2.00186,0.280416,0.0,0.0
812,202.75,88.795,92.2186,122.679,99.8721,96.894,0.000994456,0.123647,20.845,-2.00186,0.292801,0.0,0.0
814,203.25,88.228,91.8134,122.665,99.797,97.2119,0.00101781,0.123532,20.8454,-2.01187,0.253843,0.0,0.0
816,203.75,87.3891,91.3917,120.915,99.7341,96.827,0.00103499,0.123432,20.846,-2.03189,0.286113,0.0,0.0
818,204.25,87.823,91.4941,121.338,99.6524,96.5664,0.00104891,0.123344,20.8466,-2.04189,0.304266,0.0,0.0
820,204.75,87.8288,92.0503,119.237,99.5997,96.799,0.00105186,0.123251,20.8472,-2.02188,0.275868,0.0,0.0
822,205.25,87.8799,91.3068,119.6,99.5302,96.9866,0.00104677,0.123156,20.8476,-2.00186,0.2504,0.0,0.0
824,205.75,87.4807,91.2411,119.53,99.5002,96.4502,0.00104264,0.12308,20.8479,-2.00186,0.301113,0.0,0.0
826,206.25,87.1263,90.542,120.164,99.4506,96.8201,0.0010393,0.123031,20.8482,-2.01187,0.259277,0.0,0.0
828,206.75,87.5326,90.4514,121.991,99.4356,97.0942,0.00103659,0.122992,20.8485,-2.01187,0.230478,0.0,0.0
830,207.25,87.4145,90.5658,121.205,99.4072,96.5997,0.0010344,0.122924,20.8486,-2.01187,0.2771,0.0,0.0
832,207.75,87.0693,90.2334,123.082,99.4048,96.4636,0.00103262,0.122836,20.8488,-2.01187,0.29049,0.0,0.0
834,208.25,86.8215,90.0647,120.055,99.3975,96.3755,0.00102024,0.122729,20.8489,-2.00186,0.298617,0.0,0.0
836,208.75,86.7699,90.0322,118.24,99.4092,96.6476,0.000998065,0.12261,20.849,-2.03189,0.272501,0.0,0.0
838,209.25,86.8433,89.71,122.163,99.4364,96.8696,0.000969165,0.122513,20.8491,-2.04189,0.252949,0.0,0.0
840,209.75,86.4764,89.2017,119.43,99.4446,96.6585,0.000931059,0.122393,20.8492,-2.02188,0.274842,0.0,0.0
842,210.25,86.3138,89.0211,120.578,99.4608,96.9269,0.000886965,0.122296,20.8497,-2.03189,0.249604,0.0,0.0
844,210.75,86.2162,88.703,121.016,99.5152,96.7779,0.000851249,0.122204,20.8501,-2.01187,0.269774,0.0,0.0
846,211.25,85.9171,88.7154,120.351,99.5412,96.5676,0.000812101,0.122129,20.8504,-2.01187,0.29334,0.0,0.0
848,211.75,85.5984,88.1685,121.47,99.6013,97.2537,0.000771195,0.122069,20.8506,-2.01187,0.230698,0.0,0.0
850,212.25,85.3985,88.5872,123.449,99.6374,96.758,0.000738062,0.12202,20.8509,-2.01187,0.283633,0.0,0.0
852,212.75,85.5602,88.0098,120.868,99.7024,97.6317,0.000711223,0.121939,20.851,-1.99185,0.202992,0.0,0.0
854,213.25,85.2059,87.4862,121.118,99.7543,96.7572,0.000697147,0.121873,20.8512,-1.99185,0.295057,0.0,0.0
856,213.75,85.0415,87.2012,118.523,99.8356,97.1575,0.000692642,0.121834,20.8498,-2.00186,0.262995,0.0,0.0
858,214.25,84.9894,87.1359,120.432,99.9042,97.2834,0.000699902,0.121802,20.8487,-1.99185,0.25712,0.0,0.0
860,214.75,85.3503,87.3735,122.192,99.9744,97.2655,0.000715601,0.121776,20.8484,-1.99185,0.265694,0.0,0.0
862,215.25,84.6987,87.0963,125.855,100.048,97.0678,0.000735348,0.121755,20.8481,-2.01187,0.292481,0.0,0.0
864,215.75,84.8673,87.1178,122.118,100.144,97.5131,0.000757671,0.1216,20.8479,-2.00186,0.257503,0.0,0.0
866,216.25,84.4866,86.5769,119.671,100.196,97.1774,0.000780869,0.121475,20.8478,-2.00186,0.295843,0.0,0.0
868,216.75,84.5539,86.553,124.341,100.275,97.7007,0.000804262,0.121338,20.8476,-2.01187,0.251575,0.0,0.0
870,217.25,84.3158,86.6337,119.093,100.335,97.6345,0.000828967,0.121195,20.8475,-2.03189,0.263884,0.0,0.0
872,217.75,84.1606,86.355,118.342,100.392,97.6906,0.000854159,0.121079,20.8474,-2.02188,0.263812,0.0,0.0
874,218.25,83.7521,86.1563,120.074,100.469,97.1571,0.000874564,0.120958,20.8474,-2.02188,0.324206,0.0,0.0
876,218.75,83.6723,85.7621,123.202,100.534,97.7807,0.000893523,0.120874,20.8473,-2.01187,0.268613,0.0,0.0
878,219.25,83.4645,85.8687,121.214,100.587,97.8302,0.00090888,0.120819,20.8473,-2.01187,0.268753,0.0,0.0
880,219.75,83.5904,85.5554,121.944,100.651,97.4364,0.000903092,0.12076,20.8472,-2.00186,0.313972,0.0,0.0
882,220.25,83.4435,85.2438,124.865,100.683,98.1558,0.000898404,0.120699,20.8472,-2.02188,0.245902,0.0,0.0
884,220.75,83.4781,84.9128,119.948,100.726,97.503,0.000879787,0.12065,20.8472,-2.00186,0.314503,0.0,0.0
886,221.25,82.8797,84.5609,121.634,100.747,97.7957,0.000847954,0.120569,20.8472,-2.02188,0.287615,0.0,0.0
888,221.75,83.2613,85.1849,121.661,100.773,97.7397,0.000808119,0.120503,20.8472,-2.01187,0.295573,0.0,0.0
890,222.25,82.8366,84.8629,121.485,100.781,98.7108,0.00076321,0.120443,20.8471,-2.03189,0.200764,0.0,0.0
892,222.75,82.5563,84.5663,120.986,100.796,97.9098,0.000726833,0.120387,20.8471,-2.02188,0.281014,0.0,0.0
894,223.25,81.9756,84.2907,121.258,100.781,97.719,0.00067433,0.120328,20.8474,-2.02188,0.298402,0.0,0.0
896,223.75,82.8401,84.3435,119.052,100.791,97.9305,0.000631803,0.120296,20.8477,-2.02188,0.278462,0.0,0.0
898,224.25,83.0738,84.1779,121.763,100.758,97.9496,0.00059667,0.120241,20.8481,-2.03189,0.273382,0.0,0.0
900,224.75,82.3506,84.0786,123.473,100.741,97.885,0.000567596,0.120169,20.8483,-2.02188,0.278161,0.0,0.0
902,225.25,82.498,83.6827,120.886,100.713,97.8229,0.000544046,0.12011,20.8485,-2.00186,0.281611,0.0,0.0
904,225.75,81.8651,83.3212,123.521,100.7,97.6418,0.00052497,0.120077,20.8485,-1.99185,0.298321,0.0,0.0
906,226.25,82.0679,83.7913,119.091,100.671,98.2805,0.000544685,0.12005,20.8485,-1.99185,0.232458,0.0,0.0
908,226.75,82.3532,83.7052,121.922,100.658,98.4425,0.000560654,0.119998,20.8485,-2.01187,0.215242,0.0,0.0
910,227.25,81.0957,82.8556,120.264,100.626,97.6094,0.00060029,0.11993,20.8485,-2.02188,0.294439,0.0,0.0
912,227.75,81.1982,82.6425,121.947,100.619,98.0832,0.000641983,0.119875,20.8485,-2.02188,0.246863,0.0,0.0
914,228.25,81.341,82.5415,121.788,100.568,97.7815,0.000684383,0.119816,20.8485,-2.01187,0.271814,0.0,0.0
916,228.75,80.8806,82.197,123.585,100.557,98.0616,,0.119769,,-2.01187,0.243089,0.0,0.0
918,229.25,81.3838,82.0648,121.726,100.52,98.0434,,0.119745,,-1.99185,0.241298,0.0,0.0
920,229.75,81.1333,82.055,121.157,100.491,97.8063,,0.119738,,-2.00186,0.261943,0.0,0.0
922,230.25,80.885,82.0091,120.801,100.464,98.4011,,0.119741,,-2.01187,0.200684,0.0,0.0
924,230.75,81.0331,82.5212,122.948,100.429,97.4555,,0.119749,,-2.01187,0.290673,0.0,0.0
926,231.25,80.1721,81.1744,121.968,100.414,97.2777,,0.119755,,-2.01187,0.306891,0.0,0.0
928,231.75,80.104,81.4042,123.224,100.418,97.2748,,,,-1.99185,0.307604,0.0,0.0
930,232.25,80.5267,81.7843,125.128,100.541,98.0637,,,,-2.00186,0.241288,0.0,0.0
932,232.75,80.7147,81.67,125.645,100.685,97.9013,,,,-2.00186,0.271214,0.0,0.0
934,233.25,80.3725,81.2896,122.647,100.807,98.2354,,,,-2.00186,0.249914,0.0,0.0
936,233.75,80.3094,81.2837,120.84,100.914,98.5034,,,,-2.00186,0.233885,0.0,0.0
938,234.25,80.1603,80.9717,123.211,101.006,98.9159,,,,-2.01187,0.202259,0.0,0.0
940,234.75,79.5188,81.1767,120.841,101.081,98.7514,,,,-2.03189,0.22554,0.0,0.0
942,235.25,79.562,80.2839,121.866,101.147,97.7316,,,,-2.03189,0.33224,0.0,0.0
944,235.75,79.4204,80.2582,123.224,101.192,98.3158,,,,-2.02188,0.278864,0.0,0.0
946,236.25,79.4286,80.7916,121.349,101.236,98.3369,,,,-2.02188,0.280978,0.0,0.0
948,236.75,79.7012,80.2205,121.908,101.255,98.5862,,,,-2.02188,0.258352,0.0,0.0
950,237.25,79.4629,80.0556,120.648,101.261,98.5436,,,,-2.01187,0.263078,0.0,0.0
952,237.75,79.0855,80.1579,120.705,101.26,98.3974,,,,-2.00186,0.277356,0.0,0.0
954,238.25,79.283,81.048,121.421,101.24,98.0694,,,,-2.01187,0.307795,0.0,0.0
956,238.75,79.2729,80.137,120.543,101.195,98.9727,,,,-2.03189,0.214804,0.0,0.0
958,239.25,78.2538,79.2704,124.859,101.151,98.3653,,,,-2.04189,0.270149,0.0,0.0
959,239.5,78.716,79.4641,124.188,101.131,98.7835,,,,-2.03189,0.227138,0.0,0.0