File: 01_Data/PlasticC/STA/N2/3K_min/PlasticC_STA_N2_3KData_211027_R1.csv
##Temp./Â°C,Time/min,Mass loss(subtr.2)/mg,DSC(subtr.2)/(mW/mg),Sensit./(uV/mW)
50.249,10.0158,-0.00571,-0.004475459,0.99788
50.849,12.1729,-0.0101238,0.01055696,0.99834
51.449,12.83929,-0.009095294,0.01672149,0.9988
52.049,13.35392,-0.01657369,0.02059074,0.99926
52.649,13.80035,-0.01239378,0.02464506,0.99971
53.249,14.20526,-0.0129478,0.0301422,1.00016
53.849,14.5801,-0.01341958,0.03082045,1.0006
54.449,14.92999,-0.01792886,0.03176753,1.00104
55.049,15.26334,-0.01267533,0.03313005,1.00147
55.649,15.5805,-0.01516201,0.03615044,1.0019
56.249,15.88698,-0.01539419,0.03661525,1.00233
56.849,16.18422,-0.01130345,0.03882263,1.00276
57.449,16.47145,-0.01434746,0.04016977,1.00318
58.049,16.75009,-0.01446392,0.04085532,1.00359
58.649,17.02303,-0.01461489,0.04035635,1.004
59.249,17.29,-0.01466779,0.04125373,1.00441
59.849,17.55027,-0.01338052,0.04400269,1.00482
60.449,17.8039,-0.01505568,0.04727315,1.00522
61.049,18.0553,-0.01609756,0.04764935,1.00561
61.649,18.3034,-0.01930296,0.0493486,1.00601
62.249,18.5492,-0.02061965,0.05158939,1.0064
62.849,18.791,-0.0186826,0.05193883,1.00678
63.449,19.0285,-0.01773231,0.05047032,1.00716
64.049,19.26437,-0.01481382,0.05259056,1.00754
64.649,19.4968,-0.01449661,0.05249513,1.00791
65.249,19.72855,-0.0170701,0.05368576,1.00828
65.849,19.95647,-0.01669621,0.05428653,1.00865
66.449,20.18265,-0.01809068,0.05697378,1.00901
67.049,20.407,-0.01634733,0.05511364,1.00937
67.649,20.63,-0.01646339,0.05637244,1.00972
68.249,20.8517,-0.01923135,0.05563486,1.01007
68.849,21.072,-0.0212123,0.05525026,1.01042
69.449,21.29187,-0.01838043,0.05512799,1.01076
70.049,21.511,-0.02016265,0.05520727,1.0111
70.649,21.72879,-0.01649649,0.0578486,1.01144
71.249,21.94606,-0.01900219,0.05746231,1.01177
71.849,22.16218,-0.01925309,0.05726375,1.0121
72.449,22.37726,-0.01650835,0.05890505,1.01242
73.049,22.59091,-0.02307185,0.05738898,1.01274
73.649,22.80325,-0.01389169,0.06036045,1.01306
74.249,23.01543,-0.020255,0.05785732,1.01337
74.849,23.22685,-0.01905504,0.0587189,1.01368
75.449,23.43804,-0.0217929,0.05799005,1.01398
76.049,23.64915,-0.01854001,0.05907354,1.01428
76.649,23.85926,-0.01983882,0.05721118,1.01458
77.249,24.06905,-0.01986039,0.0560914,1.01488
77.849,24.27571,-0.01877801,0.05602617,1.01517
78.449,24.48258,-0.01876052,0.0564364,1.01545
79.049,24.68956,-0.02139315,0.05488465,1.01573
79.649,24.89805,-0.01699879,0.05411896,1.01601
80.249,25.10623,-0.02135697,0.05674865,1.01629
80.849,25.31251,-0.01995993,0.05611311,1.01656
81.449,25.51819,-0.02278325,0.05659366,1.01683
82.049,25.7229,-0.02259999,0.05810368,1.01709
82.649,25.92788,-0.01776235,0.0588338,1.01735
83.249,26.13322,-0.01994123,0.0598874,1.01761
83.849,26.3387,-0.0180289,0.05997047,1.01786
84.449,26.54284,-0.02164926,0.05711428,1.01811
85.049,26.7477,-0.01958357,0.05596291,1.01835
85.649,26.9514,-0.02107077,0.05826829,1.0186
86.249,27.15485,-0.02062721,0.05895851,1.01883
86.849,27.35803,-0.01613207,0.05741362,1.01907
87.449,27.56039,-0.02093515,0.05801173,1.0193
88.049,27.7626,-0.02257675,0.06006959,1.01953
88.649,27.9627,-0.02314797,0.05991051,1.01975
89.249,28.16243,-0.02131681,0.06225408,1.01997
89.849,28.362,-0.02226151,0.06124243,1.02018
90.449,28.56195,-0.01863254,0.06012159,1.0204
91.049,28.76265,-0.02234316,0.06219643,1.02061
91.649,28.96408,-0.02040517,0.06232882,1.02081
92.249,29.1656,-0.0162396,0.06417801,1.02101
92.849,29.36676,-0.02045739,0.06477591,1.02121
93.449,29.5661,-0.01799387,0.06721867,1.0214
94.049,29.76486,-0.01970648,0.06310653,1.02159
94.649,29.9638,-0.01980075,0.06682916,1.02178
95.249,30.16167,-0.01836686,0.0647605,1.02196
95.849,30.3597,-0.02120979,0.06763893,1.02214
96.449,30.55661,-0.0196192,0.06794854,1.02232
97.049,30.75425,-0.0205481,0.06893355,1.02249
97.649,30.952,-0.02243104,0.06906225,1.02266
98.249,31.15039,-0.02018921,0.07274419,1.02283
98.849,31.34774,-0.02363233,0.07183371,1.02299
99.449,31.54438,-0.01959112,0.07666738,1.02315
100.049,31.74105,-0.02228959,0.07267357,1.0233
100.649,31.9371,-0.02295857,0.07360809,1.02345
101.249,32.1333,-0.02161342,0.0754756,1.0236
101.849,32.3292,-0.01838249,0.07585875,1.02374
102.449,32.52597,-0.02809791,0.07633101,1.02388
103.049,32.72233,-0.01737589,0.07603458,1.02402
103.649,32.9183,-0.008427873,0.07793752,1.02415
104.249,33.11391,-0.01915018,0.0765506,1.02428
104.849,33.30914,-0.02374449,0.07623645,1.02441
105.449,33.5044,-0.02196736,0.07573691,1.02453
106.049,33.69968,-0.0173489,0.07682748,1.02465
106.649,33.89524,-0.02373921,0.07427882,1.02477
107.249,34.09097,-0.02405098,0.07745046,1.02488
107.849,34.28613,-0.02454904,0.07681773,1.02499
108.449,34.48083,-0.02261754,0.07712378,1.02509
109.049,34.67494,-0.01910434,0.07791471,1.02519
109.649,34.86974,-0.0271482,0.07725147,1.02529
110.249,35.0645,-0.02345188,0.07899868,1.02539
110.849,35.2594,-0.02337331,0.07753452,1.02548
111.449,35.45422,-0.02007257,0.07777131,1.02557
112.049,35.6479,-0.02294556,0.07614838,1.02565
112.649,35.84185,-0.02294021,0.07848888,1.02573
113.249,36.03559,-0.01997319,0.07874834,1.02581
113.849,36.22977,-0.02478553,0.07809076,1.02588
114.449,36.42439,-0.01852464,0.07830653,1.02595
115.049,36.619,-0.02151348,0.07845607,1.02602
115.649,36.81412,-0.02327527,0.07782705,1.02608
116.249,37.00895,-0.01626743,0.07793598,1.02614
116.849,37.20337,-0.02117929,0.08145993,1.0262
117.449,37.3979,-0.02556549,0.0804059,1.02625
118.049,37.59192,-0.02250583,0.08170683,1.0263
118.649,37.7855,-0.02256563,0.07986408,1.02635
119.249,37.9799,-0.02510416,0.07739628,1.02639
119.849,38.17337,-0.01794931,0.07784463,1.02643
120.449,38.36745,-0.01944776,0.07806271,1.02647
121.049,38.56111,-0.02398164,0.08149562,1.0265
121.649,38.75496,-0.02401117,0.08112697,1.02653
122.249,38.94898,-0.02336999,0.07995234,1.02656
122.849,39.14281,-0.02346721,0.07989473,1.02658
123.449,39.3362,-0.0208191,0.07910631,1.0266
124.049,39.52943,-0.02672391,0.08101321,1.02662
124.649,39.72244,-0.02666624,0.0810918,1.02663
125.249,39.91471,-0.01623089,0.0817983,1.02664
125.849,40.1075,-0.02544809,0.08133928,1.02664
126.449,40.30076,-0.02588447,0.08258002,1.02665
127.049,40.49406,-0.02578663,0.08387696,1.02665
127.649,40.68813,-0.02553441,0.08223432,1.02664
128.249,40.88142,-0.02583192,0.08204699,1.02664
128.849,41.074,-0.02446922,0.08408186,1.02663
129.449,41.26699,-0.03031494,0.08271553,1.02661
130.049,41.45967,-0.02434716,0.08434681,1.02659
130.649,41.65222,-0.01981069,0.08311097,1.02657
131.249,41.84449,-0.02545865,0.08053302,1.02655
131.849,42.03722,-0.02085617,0.08326854,1.02652
132.449,42.2299,-0.02455073,0.08196057,1.02649
133.049,42.42184,-0.02588805,0.08244479,1.02646
133.649,42.6144,-0.02545244,0.08333327,1.02642
134.249,42.80622,-0.02252648,0.0824428,1.02638
134.849,42.99857,-0.02249939,0.08248675,1.02634
135.449,43.19059,-0.02524102,0.082143,1.02629
136.049,43.38173,-0.02555825,0.08254412,1.02624
136.649,43.57288,-0.02564821,0.08103381,1.02619
137.249,43.7639,-0.02336964,0.08232793,1.02614
137.849,43.95511,-0.02468903,0.0818247,1.02608
138.449,44.1468,-0.02336762,0.07891151,1.02601
139.049,44.33898,-0.02610109,0.08136818,1.02595
139.649,44.53103,-0.02315008,0.07937221,1.02588
140.249,44.72263,-0.02314997,0.08111155,1.02581
140.849,44.91387,-0.02437757,0.07924034,1.02573
141.449,45.10478,-0.02803155,0.08010618,1.02565
142.049,45.29558,-0.0258092,0.081464,1.02557
142.649,45.48633,-0.02502163,0.07992977,1.02549
143.249,45.677,-0.02764448,0.08087094,1.0254
143.849,45.86738,-0.02559512,0.08183324,1.02531
144.449,46.058,-0.02403498,0.0828581,1.02521
145.049,46.24876,-0.02598555,0.08212795,1.02512
145.649,46.43923,-0.02717291,0.08128386,1.02502
146.249,46.6294,-0.02410269,0.08304447,1.02491
146.849,46.81987,-0.02612032,0.0826062,1.02481
147.449,47.01085,-0.02657007,0.08283219,1.0247
148.049,47.20127,-0.0211351,0.08266555,1.02458
148.649,47.39209,-0.0229195,0.08319779,1.02447
149.249,47.5817,-0.02421343,0.08267546,1.02435
149.849,47.7712,-0.02842863,0.08323782,1.02423
150.449,47.96089,-0.02710048,0.08330958,1.0241
151.049,48.1509,-0.02710492,0.08203876,1.02397
151.649,48.34081,-0.0190716,0.0839874,1.02384
152.249,48.53118,-0.03138367,0.07989693,1.02371
152.849,48.72133,-0.02243444,0.07963145,1.02357
153.449,48.91056,-0.0265398,0.08161693,1.02343
154.049,49.10022,-0.02523713,0.08286022,1.02329
154.649,49.29002,-0.02426646,0.08198649,1.02314
155.249,49.48022,-0.02469255,0.08033507,1.02299
155.849,49.6708,-0.02534352,0.08390478,1.02284
156.449,49.86115,-0.02367047,0.08197561,1.02268
157.049,50.05025,-0.02715816,0.0840287,1.02252
157.649,50.24072,-0.02546997,0.08174426,1.02236
158.249,50.43067,-0.02643207,0.08348842,1.0222
158.849,50.6206,-0.02655171,0.08163606,1.02203
159.449,50.81127,-0.02921299,0.07947875,1.02186
160.049,51.00029,-0.02622009,0.08230152,1.02168
160.649,51.18956,-0.01574067,0.08169057,1.02151
161.249,51.37887,-0.02615032,0.08194194,1.02133
161.849,51.56865,-0.02573191,0.0829973,1.02115
162.449,51.75849,-0.02743977,0.0807953,1.02096
163.049,51.94831,-0.02566427,0.08101814,1.02077
163.649,52.1376,-0.02630452,0.08176636,1.02058
164.249,52.3274,-0.02568147,0.08067403,1.02039
164.849,52.5174,-0.02435301,0.08355382,1.02019
165.449,52.7073,-0.02294273,0.08432202,1.01999
166.049,52.8971,-0.02370013,0.08188224,1.01979
166.649,53.08709,-0.02492483,0.08343484,1.01958
167.249,53.27751,-0.02632997,0.08381774,1.01937
167.849,53.4675,-0.02695672,0.08414729,1.01916
168.449,53.65815,-0.02747567,0.08558022,1.01895
169.049,53.84876,-0.03212288,0.08219745,1.01873
169.649,54.0389,-0.03080745,0.08239389,1.01851
170.249,54.2294,-0.0311583,0.08389003,1.01829
170.849,54.4201,-0.02714716,0.08499708,1.01806
171.449,54.61011,-0.02539727,0.08336868,1.01783
172.049,54.80072,-0.02456982,0.08424847,1.0176
172.649,54.99086,-0.02661717,0.08299265,1.01737
173.249,55.17994,-0.02503594,0.08391689,1.01713
173.849,55.3689,-0.02625701,0.08547743,1.01689
174.449,55.5572,-0.02567024,0.08538556,1.01665
175.049,55.7459,-0.02546241,0.08599642,1.0164
175.649,55.93651,-0.02627299,0.08337108,1.01615
176.249,56.12778,-0.02362702,0.08652994,1.0159
176.849,56.3192,-0.02578545,0.08401257,1.01565
177.449,56.5105,-0.02670936,0.08575952,1.01539
178.049,56.70117,-0.02424847,0.0832075,1.01513
178.649,56.89125,-0.02752861,0.08426246,1.01487
179.249,57.08016,-0.02753,0.08726054,1.01461
179.849,57.2697,-0.02752858,0.08643332,1.01434
180.449,57.4593,-0.02229135,0.0854947,1.01407
181.049,57.64934,-0.02569008,0.08462604,1.0138
181.649,57.83996,-0.0263915,0.08433552,1.01352
182.249,58.02955,-0.02970063,0.08245135,1.01324
182.849,58.21943,-0.02659258,0.08363007,1.01296
183.449,58.4093,-0.02765104,0.08331373,1.01268
184.049,58.59969,-0.028298,0.08398291,1.01239
184.649,58.7897,-0.02544563,0.08364816,1.0121
185.249,58.98,-0.02667975,0.08365636,1.01181
185.849,59.16945,-0.02653546,0.08377715,1.01151
186.449,59.35926,-0.02449493,0.08477171,1.01122
187.049,59.54889,-0.0256834,0.08633135,1.01092
187.649,59.73765,-0.02698045,0.08580702,1.01061
188.249,59.9269,-0.02567015,0.08567148,1.01031
188.849,60.1158,-0.02566837,0.08493057,1.01
189.449,60.30551,-0.03163408,0.08546312,1.00969
190.049,60.4956,-0.03156862,0.08563912,1.00938
190.649,60.68518,-0.02401011,0.08489537,1.00906
191.249,60.87425,-0.02795425,0.08696851,1.00874
191.849,61.06219,-0.02989591,0.08730919,1.00842
192.449,61.24975,-0.02545761,0.08768909,1.0081
193.049,61.43756,-0.02769119,0.08709277,1.00777
193.649,61.62543,-0.02380713,0.08496573,1.00745
194.249,61.81437,-0.0306593,0.08700614,1.00712
194.849,62.00363,-0.02730999,0.08748799,1.00678
195.449,62.19426,-0.0254556,0.08401909,1.00645
196.049,62.3854,-0.02841591,0.08504946,1.00611
196.649,62.57666,-0.02751391,0.08462044,1.00577
197.249,62.76615,-0.03083844,0.08623653,1.00542
197.849,62.95505,-0.0287398,0.08260555,1.00508
198.449,63.1432,-0.02940386,0.0838002,1.00473
199.049,63.33249,-0.02863006,0.08559565,1.00438
199.649,63.52162,-0.02733996,0.08652573,1.00402
200.249,63.7108,-0.02827863,0.08495536,1.00367
200.849,63.9001,-0.03032635,0.08608802,1.00331
201.449,64.08906,-0.03159997,0.08770847,1.00295
202.049,64.27884,-0.03291043,0.08657885,1.00258
202.649,64.46842,-0.03159705,0.08670787,1.00222
203.249,64.6584,-0.03290921,0.0873324,1.00185
203.849,64.84835,-0.033719,0.0871509,1.00148
204.449,65.03825,-0.03276597,0.08700166,1.0011
205.049,65.22802,-0.02988184,0.08472153,1.00073
205.649,65.41795,-0.0337804,0.08718317,1.00035
206.249,65.60719,-0.03208607,0.08472108,0.99997
206.849,65.79701,-0.02992789,0.08421504,0.99958
207.449,65.98657,-0.033774,0.08180029,0.9992
208.049,66.17608,-0.03313836,0.08521454,0.99881
208.649,66.36529,-0.03270016,0.08286447,0.99842
209.249,66.55381,-0.03567863,0.08487257,0.99803
209.849,66.74345,-0.03646068,0.08371204,0.99763
210.449,66.9326,-0.03554983,0.08564877,0.99724
211.049,67.12228,-0.03192729,0.0809379,0.99684
211.649,67.31141,-0.03602669,0.08423894,0.99643
212.249,67.50032,-0.0360928,0.08697741,0.99603
212.849,67.69,-0.03454825,0.08237711,0.99562
213.449,67.87941,-0.03347819,0.08054335,0.99521
214.049,68.06895,-0.03721218,0.08291956,0.9948
214.649,68.25796,-0.03597919,0.08252665,0.99439
215.249,68.4467,-0.03739888,0.08432835,0.99397
215.849,68.6364,-0.03465941,0.08320688,0.99356
216.449,68.8259,-0.03588409,0.08276362,0.99314
217.049,69.0157,-0.03971292,0.0826548,0.99271
217.649,69.20524,-0.03769521,0.08433259,0.99229
218.249,69.39457,-0.03444634,0.08332249,0.99186
218.849,69.58411,-0.03521338,0.08449482,0.99143
219.449,69.77355,-0.03729886,0.08507223,0.991
220.049,69.96383,-0.03728311,0.08304727,0.99057
220.649,70.15396,-0.0436074,0.08323387,0.99013
221.249,70.344,-0.04122896,0.08615505,0.98969
221.849,70.53356,-0.0404159,0.08557249,0.98925
222.449,70.72371,-0.0391618,0.08271963,0.98881
223.049,70.91418,-0.03761976,0.08617419,0.98836
223.649,71.10406,-0.03894316,0.08495051,0.98791
224.249,71.29432,-0.04293817,0.0843169,0.98747
224.849,71.4838,-0.04387745,0.08623381,0.98701
225.449,71.6739,-0.04356064,0.08622313,0.98656
226.049,71.86489,-0.03948248,0.08197072,0.9861
226.649,72.0556,-0.04403328,0.08380444,0.98565
227.249,72.2454,-0.04399628,0.08619583,0.98519
227.849,72.43468,-0.04664034,0.08632638,0.98472
228.449,72.6239,-0.04233522,0.08846949,0.98426
229.049,72.8139,-0.04090691,0.08790163,0.98379
229.649,73.0034,-0.04508949,0.08619434,0.98332
230.249,73.19377,-0.04221164,0.08856059,0.98285
230.849,73.38328,-0.04567948,0.08655045,0.98238
231.449,73.57321,-0.04497932,0.08867338,0.98191
232.049,73.76309,-0.04348756,0.08649481,0.98143
232.649,73.95263,-0.04561566,0.08707857,0.98095
233.249,74.14242,-0.04607076,0.08770492,0.98047
233.849,74.33247,-0.0502498,0.08791741,0.97999
234.449,74.52208,-0.0449707,0.08896936,0.9795
235.049,74.71118,-0.04419626,0.085294,0.97901
235.649,74.90066,-0.05035562,0.08657237,0.97852
236.249,75.09017,-0.04926549,0.08592732,0.97803
236.849,75.28055,-0.05133953,0.08860365,0.97754
237.449,75.47071,-0.04667566,0.08689292,0.97704
238.049,75.66068,-0.04853727,0.08561145,0.97655
238.649,75.85034,-0.04944767,0.08546059,0.97605
239.249,76.04006,-0.05079,0.08667633,0.97555
239.849,76.2304,-0.05079,0.08674662,0.97504
240.449,76.4203,-0.05109666,0.088435,0.97454
241.049,76.61057,-0.05342033,0.0887534,0.97403
241.649,76.80075,-0.0534185,0.08789178,0.97352
242.249,76.99067,-0.0520853,0.08539408,0.97301
242.849,77.18046,-0.04926981,0.08496148,0.9725
243.449,77.3704,-0.05430656,0.0876215,0.97198
244.049,77.56004,-0.05689205,0.08789339,0.97147
244.649,77.7501,-0.05123158,0.08470356,0.97095
245.249,77.94068,-0.0569204,0.08412842,0.97043
245.849,78.13131,-0.0568815,0.08754733,0.9699
246.449,78.32128,-0.05324881,0.08570869,0.96938
247.049,78.5103,-0.05585451,0.08527688,0.96885
247.649,78.69848,-0.0611079,0.0866658,0.96832
248.249,78.88795,-0.05933946,0.08828658,0.9678
248.849,79.07813,-0.05816006,0.08753825,0.96726
249.449,79.2688,-0.06165946,0.08594159,0.96673
250.049,79.45951,-0.06099681,0.08657358,0.96619
250.649,79.649,-0.0622,0.08691199,0.96566
251.249,79.8391,-0.0629225,0.08489404,0.96512
251.849,80.02864,-0.0623767,0.08577706,0.96458
252.449,80.21842,-0.06189425,0.08808821,0.96403
253.049,80.4086,-0.0611913,0.08509654,0.96349
253.649,80.59902,-0.06450135,0.0869596,0.96294
254.249,80.78953,-0.06449365,0.08935906,0.96239
254.849,80.98035,-0.06447268,0.08541543,0.96184
255.449,81.17092,-0.06548988,0.08580267,0.96129
256.049,81.36126,-0.06441157,0.08564577,0.96074
256.649,81.5504,-0.06916211,0.08668639,0.96018
257.249,81.73902,-0.06879485,0.08660999,0.95963
257.849,81.9279,-0.06749345,0.08653429,0.95907
258.449,82.1173,-0.07140126,0.08850151,0.95851
259.049,82.30928,-0.06852444,0.08538693,0.95795
259.649,82.50069,-0.0675553,0.08325365,0.95738
260.249,82.69234,-0.07200055,0.08527206,0.95682
260.849,82.88308,-0.07381185,0.08445916,0.95625
261.449,83.0733,-0.0722897,0.08293851,0.95568
262.049,83.26388,-0.07173164,0.08401933,0.95511
262.649,83.45434,-0.07444928,0.08288838,0.95454
263.249,83.64411,-0.07826977,0.08283969,0.95396
263.849,83.83417,-0.07997128,0.08496425,0.95339
264.449,84.0244,-0.07440143,0.08139674,0.95281
265.049,84.21445,-0.07821034,0.08441211,0.95223
265.649,84.40422,-0.0769814,0.08575267,0.95165
266.249,84.59438,-0.0768525,0.0851886,0.95107
266.849,84.78478,-0.08075491,0.08596938,0.95049
267.449,84.97551,-0.07642203,0.08317311,0.9499
268.049,85.1661,-0.07909364,0.08431982,0.94931
268.649,85.35636,-0.08069016,0.08439158,0.94873
269.249,85.54603,-0.08284375,0.08657887,0.94814
269.849,85.73524,-0.08145405,0.08658337,0.94754
270.449,85.92436,-0.08412016,0.08587336,0.94695
271.049,86.11339,-0.08402454,0.08494884,0.94636
271.649,86.30297,-0.08666001,0.08597756,0.94576
272.249,86.49336,-0.08813388,0.08391245,0.94516
272.849,86.68333,-0.08884553,0.08356274,0.94456
273.449,86.8736,-0.08599861,0.0805631,0.94396
274.049,87.06376,-0.08666455,0.07908477,0.94336
274.649,87.25406,-0.0869764,0.0813447,0.94276
275.249,87.4447,-0.09145918,0.0810752,0.94215
275.849,87.63552,-0.08873814,0.08308911,0.94154
276.449,87.8263,-0.08967402,0.08001199,0.94094
277.049,88.01729,-0.0972936,0.08311047,0.94033
277.649,88.2076,-0.09469971,0.0813161,0.93971
278.249,88.39783,-0.09587794,0.08040897,0.9391
278.849,88.58803,-0.09252316,0.07889036,0.93849
279.449,88.7786,-0.09563978,0.08070649,0.93787
280.049,88.96934,-0.08698577,0.08101049,0.93726
280.649,89.1606,-0.09764387,0.08181951,0.93664
281.249,89.35163,-0.0962679,0.08270428,0.93602
281.849,89.5424,-0.09862413,0.08435654,0.9354
282.449,89.73284,-0.10122,0.08241698,0.93477
283.049,89.92313,-0.10191,0.08278227,0.93415
283.649,90.11373,-0.10294,0.08188581,0.93352
284.249,90.30439,-0.0988275,0.0811583,0.9329
284.849,90.4953,-0.10354,0.08080277,0.93227
285.449,90.68637,-0.10467,0.07888313,0.93164
286.049,90.87744,-0.10487,0.07955561,0.93101
286.649,91.06859,-0.1047,0.07983478,0.93038
287.249,91.25953,-0.10729,0.07986801,0.92974
287.849,91.45059,-0.10794,0.08017473,0.92911
288.449,91.64155,-0.10761,0.08319317,0.92847
289.049,91.83259,-0.1076,0.08162973,0.92783
289.649,92.023,-0.11146,0.08132851,0.92719
290.249,92.2134,-0.10907,0.08148194,0.92655
290.849,92.40445,-0.10883,0.0823053,0.92591
291.449,92.5958,-0.11183,0.08120544,0.92527
292.049,92.78908,-0.11166,0.0804925,0.92463
292.649,92.98165,-0.11384,0.0771016,0.92398
293.249,93.17362,-0.11515,0.07913415,0.92333
293.849,93.3648,-0.11003,0.07695143,0.92269
294.449,93.55561,-0.11746,0.08007076,0.92204
295.049,93.74579,-0.11298,0.0786718,0.92139
295.649,93.93847,-0.11572,0.07933096,0.92074
296.249,94.13126,-0.11967,0.08098072,0.92008
296.849,94.32375,-0.11945,0.07780923,0.91943
297.449,94.5158,-0.11945,0.07817911,0.91877
298.049,94.70725,-0.11942,0.07944453,0.91812
298.649,94.8984,-0.11944,0.076695,0.91746
299.249,95.08975,-0.12077,0.07830088,0.9168
299.849,95.28085,-0.12077,0.07820393,0.91614
300.449,95.47281,-0.12198,0.07846168,0.91548
301.049,95.66411,-0.12199,0.07495412,0.91482
301.649,95.8559,-0.126,0.07993389,0.91416
302.249,96.0484,-0.12599,0.07736051,0.91349
302.849,96.24054,-0.12448,0.07704354,0.91283
303.449,96.43292,-0.12514,0.07725412,0.91216
304.049,96.62531,-0.12499,0.07583732,0.91149
304.649,96.8177,-0.12658,0.07545324,0.91082
305.249,97.00994,-0.12663,0.07856364,0.91015
305.849,97.20223,-0.12612,0.07593473,0.90948
306.449,97.39453,-0.12859,0.07617063,0.90881
307.049,97.587,-0.12827,0.07603448,0.90814
307.649,97.77937,-0.12811,0.07617357,0.90746
308.249,97.97192,-0.13123,0.07694311,0.90679
308.849,98.16409,-0.12577,0.07167298,0.90611
309.449,98.35631,-0.12807,0.07143475,0.90543
310.049,98.54764,-0.13514,0.07253265,0.90476
310.649,98.73897,-0.13558,0.07330955,0.90408
311.249,98.93145,-0.13465,0.07156632,0.9034
311.849,99.12388,-0.13398,0.06937451,0.90272
312.449,99.31689,-0.13933,0.0719691,0.90203
313.049,99.5087,-0.12912,0.06991626,0.90135
313.649,99.69959,-0.13975,0.07208397,0.90066
314.249,99.8909,-0.13423,0.0721199,0.89998
314.849,100.082,-0.13196,0.07097303,0.89929
315.449,100.275,-0.13642,0.07020667,0.89861
316.049,100.468,-0.13485,0.06829881,0.89792
316.649,100.661,-0.13618,0.07057535,0.89723
317.249,100.8521,-0.14117,0.07029379,0.89654
317.849,101.043,-0.14251,0.07042237,0.89585
318.449,101.236,-0.14351,0.07125688,0.89516
319.049,101.4275,-0.14245,0.07157572,0.89446
319.649,101.62,-0.14258,0.07059573,0.89377
320.249,101.812,-0.14123,0.06818975,0.89307
320.849,102.005,-0.14271,0.06823552,0.89238
321.449,102.197,-0.14496,0.06738897,0.89168
322.049,102.389,-0.14086,0.06521328,0.89099
322.649,102.581,-0.14479,0.06383672,0.89029
323.249,102.773,-0.14817,0.06559956,0.88959
323.849,102.964,-0.14322,0.06452369,0.88889
324.449,103.157,-0.1453,0.06136053,0.88819
325.049,103.3492,-0.14676,0.06122591,0.88749
325.649,103.543,-0.15207,0.0643991,0.88678
326.249,103.737,-0.14863,0.06037115,0.88608
326.849,103.929,-0.14843,0.0589531,0.88538
327.449,104.122,-0.15455,0.05993919,0.88467
328.049,104.314,-0.15238,0.0616354,0.88397
328.649,104.506,-0.14976,0.06128894,0.88326
329.249,104.699,-0.15059,0.05981595,0.88255
329.849,104.892,-0.15423,0.06225183,0.88185
330.449,105.085,-0.15374,0.06218496,0.88114
331.049,105.278,-0.15538,0.06060221,0.88043
331.649,105.47,-0.15327,0.05615297,0.87972
332.249,105.663,-0.15904,0.05981731,0.87901
332.849,105.856,-0.15707,0.05774576,0.87829
333.449,106.049,-0.15839,0.05873564,0.87758
334.049,106.243,-0.15182,0.05351391,0.87687
334.649,106.436,-0.15602,0.05456699,0.87616
335.249,106.629,-0.1631,0.0557579,0.87544
335.849,106.8221,-0.16019,0.05691636,0.87473
336.449,107.015,-0.15918,0.05206109,0.87401
337.049,107.208,-0.16356,0.05268572,0.87329
337.649,107.401,-0.15947,0.05266063,0.87258
338.249,107.594,-0.1616,0.05094326,0.87186
338.849,107.788,-0.16591,0.04959444,0.87114
339.449,107.981,-0.16348,0.05284453,0.87042
340.049,108.174,-0.16289,0.05105644,0.8697
340.649,108.367,-0.16705,0.05448643,0.86898
341.249,108.56,-0.16659,0.05335735,0.86826
341.849,108.753,-0.16757,0.05402808,0.86754
342.449,108.945,-0.16833,0.05371233,0.86682
343.049,109.138,-0.16846,0.05395152,0.86609
343.649,109.331,-0.16833,0.05095928,0.86537
344.249,109.524,-0.17074,0.05165935,0.86465
344.849,109.717,-0.16991,0.05394421,0.86392
345.449,109.912,-0.16988,0.05239745,0.8632
346.049,110.106,-0.1722,0.05274175,0.86247
346.649,110.3,-0.17803,0.0539659,0.86174
347.249,110.494,-0.17672,0.05298844,0.86102
347.849,110.687,-0.1746,0.05529847,0.86029
348.449,110.881,-0.17505,0.05527243,0.85956
349.049,111.0743,-0.17758,0.05782269,0.85883
349.649,111.268,-0.17311,0.05262263,0.85811
350.249,111.462,-0.17601,0.05352733,0.85738
350.849,111.656,-0.17932,0.05704749,0.85665
351.449,111.851,-0.17814,0.05518066,0.85592
352.049,112.046,-0.18042,0.05317434,0.85518
352.649,112.241,-0.17885,0.05360638,0.85445
353.249,112.435,-0.18045,0.05366366,0.85372
353.849,112.629,-0.18461,0.05777867,0.85299
354.449,112.823,-0.18396,0.05798552,0.85226
355.049,113.016,-0.19075,0.05719037,0.85152
355.649,113.21,-0.19395,0.05908747,0.85079
356.249,113.404,-0.18842,0.05736163,0.85006
356.849,113.597,-0.18627,0.05593527,0.84932
357.449,113.7909,-0.19028,0.05679542,0.84859
358.049,113.984,-0.19044,0.05876911,0.84785
358.649,114.178,-0.1927,0.06261934,0.84712
359.249,114.372,-0.19315,0.06003006,0.84638
359.849,114.565,-0.19305,0.05968353,0.84564
360.449,114.7589,-0.19733,0.06353745,0.84491
361.049,114.953,-0.19644,0.0655548,0.84417
361.649,115.147,-0.19669,0.0671822,0.84343
362.249,115.341,-0.20204,0.06650383,0.84269
362.849,115.535,-0.20304,0.06796166,0.84195
363.449,115.731,-0.20338,0.07076563,0.84122
364.049,115.925,-0.20534,0.07151434,0.84048
364.649,116.121,-0.20799,0.07396197,0.83974
365.249,116.315,-0.20995,0.07393726,0.839
365.849,116.509,-0.20846,0.07742319,0.83826
366.449,116.703,-0.2185,0.07994096,0.83752
367.049,116.897,-0.21835,0.07971274,0.83678
367.649,117.09,-0.21454,0.08340715,0.83604
368.249,117.285,-0.2206,0.08767131,0.8353
368.849,117.479,-0.22112,0.08592931,0.83455
369.449,117.673,-0.22112,0.08668295,0.83381
370.049,117.867,-0.22617,0.09489045,0.83307
370.649,118.061,-0.22651,0.09471806,0.83233
371.249,118.256,-0.23121,0.09970617,0.83159
371.849,118.451,-0.22498,0.09849272,0.83084
372.449,118.646,-0.23799,0.10926,0.8301
373.049,118.84,-0.24188,0.11093,0.82936
373.649,119.035,-0.24331,0.11258,0.82861
374.249,119.229,-0.24264,0.11792,0.82787
374.849,119.424,-0.24531,0.11787,0.82713
375.449,119.618,-0.25166,0.12358,0.82638
376.049,119.8123,-0.25464,0.12779,0.82564
376.649,120.0067,-0.25688,0.12883,0.82489
377.249,120.201,-0.25996,0.136,0.82415
377.849,120.3957,-0.26484,0.13716,0.82341
378.449,120.59,-0.27182,0.14332,0.82266
379.049,120.7856,-0.27397,0.1512,0.82192
379.649,120.981,-0.28078,0.15947,0.82117
380.249,121.177,-0.28688,0.16667,0.82043
380.849,121.373,-0.29116,0.17025,0.81968
381.449,121.568,-0.29845,0.17245,0.81893
382.049,121.764,-0.30384,0.17814,0.81819
382.649,121.959,-0.31147,0.1896,0.81744
383.249,122.155,-0.30973,0.19774,0.8167
383.849,122.35,-0.31963,0.20423,0.81595
384.449,122.5459,-0.32313,0.21257,0.81521
385.049,122.741,-0.33432,0.21965,0.81446
385.649,122.936,-0.34091,0.22845,0.81371
386.249,123.131,-0.35321,0.24173,0.81297
386.849,123.327,-0.36204,0.25037,0.81222
387.449,123.524,-0.36799,0.25956,0.81147
388.049,123.721,-0.37613,0.27208,0.81073
388.649,123.917,-0.38573,0.28857,0.80998
389.249,124.113,-0.40097,0.30076,0.80923
389.849,124.309,-0.41066,0.31574,0.80849
390.449,124.505,-0.4277,0.33287,0.80774
391.049,124.701,-0.43585,0.3483,0.807
391.649,124.897,-0.44668,0.36289,0.80625
392.249,125.092,-0.46828,0.38462,0.8055
392.849,125.288,-0.48437,0.40513,0.80476
393.449,125.483,-0.50513,0.42733,0.80401
394.049,125.68,-0.52159,0.4466,0.80326
394.649,125.876,-0.53821,0.47047,0.80252
395.249,126.072,-0.55813,0.49484,0.80177
395.849,126.267,-0.57963,0.51919,0.80102
396.449,126.4626,-0.60405,0.55129,0.80028
397.049,126.658,-0.62256,0.57435,0.79953
397.649,126.854,-0.64935,0.60206,0.79878
398.249,127.049,-0.67879,0.63357,0.79804
398.849,127.245,-0.71086,0.66605,0.79729
399.449,127.441,-0.73603,0.69968,0.79655
400.049,127.636,-0.7662,0.73352,0.7958
400.649,127.832,-0.79983,0.76809,0.79505
401.249,128.029,-0.83022,0.80292,0.79431
401.849,128.225,-0.86941,0.84,0.79356
402.449,128.422,-0.91085,0.87634,0.79282
403.049,128.619,-0.94914,0.9117,0.79207
403.649,128.817,-0.99657,0.94984,0.79133
404.249,129.015,-1.03734,0.98315,0.79058
404.849,129.212,-1.08388,1.01669,0.78984
405.449,129.41,-1.13077,1.04761,0.78909
406.049,129.608,-1.18142,1.0831,0.78835
406.649,129.806,-1.2323,1.11804,0.7876
407.249,130.003,-1.28722,1.14789,0.78686
407.849,130.2,-1.33741,1.17565,0.78612
408.449,130.3962,-1.3923,1.20027,0.78537
409.049,130.593,-1.45285,1.22849,0.78463
409.649,130.789,-1.51573,1.25104,0.78388
410.249,130.986,-1.5753,1.26854,0.78314
410.849,131.183,-1.63522,1.28505,0.7824
411.449,131.379,-1.69766,1.2982,0.78165
412.049,131.5751,-1.7594,1.30772,0.78091
412.649,131.771,-1.81205,1.31415,0.78017
413.249,131.968,-1.87991,1.31782,0.77943
413.849,132.164,-1.94756,1.3166,0.77869
414.449,132.362,-2.00834,1.31081,0.77794
415.049,132.559,-2.07005,1.30568,0.7772
415.649,132.756,-2.13623,1.29608,0.77646
416.249,132.953,-2.19702,1.27767,0.77572
416.849,133.149,-2.25713,1.26473,0.77498
417.449,133.344,-2.32222,1.24727,0.77424
418.049,133.54,-2.37786,1.22245,0.7735
418.649,133.735,-2.44066,1.2044,0.77276
419.249,133.931,-2.49989,1.18047,0.77202
419.849,134.127,-2.55706,1.15377,0.77128
420.449,134.322,-2.61173,1.12636,0.77054
421.049,134.517,-2.66815,1.10129,0.7698
421.649,134.712,-2.72015,1.06701,0.76907
422.249,134.907,-2.77213,1.03821,0.76833
422.849,135.102,-2.82335,1.00357,0.76759
423.449,135.298,-2.8726,0.9735,0.76685
424.049,135.4946,-2.92654,0.93872,0.76612
424.649,135.691,-2.97229,0.90623,0.76538
425.249,135.8871,-3.01503,0.86897,0.76464
425.849,136.083,-3.05601,0.83206,0.76391
426.449,136.279,-3.09892,0.79558,0.76317
427.049,136.476,-3.13894,0.76022,0.76244
427.649,136.673,-3.17761,0.71994,0.7617
428.249,136.87,-3.21457,0.68407,0.76097
428.849,137.066,-3.25154,0.64595,0.76023
429.449,137.262,-3.28473,0.61061,0.7595
430.049,137.457,-3.31559,0.57249,0.75877
430.649,137.651,-3.3454,0.53817,0.75804
431.249,137.845,-3.37314,0.50762,0.7573
431.849,138.041,-3.40375,0.47282,0.75657
432.449,138.237,-3.43167,0.43884,0.75584
433.049,138.433,-3.45385,0.40904,0.75511
433.649,138.631,-3.47638,0.37983,0.75438
434.249,138.8275,-3.4971,0.35507,0.75365
434.849,139.025,-3.51582,0.32644,0.75292
435.449,139.222,-3.53806,0.30536,0.75219
436.049,139.419,-3.55323,0.28459,0.75146
436.649,139.615,-3.57316,0.26042,0.75073
437.249,139.811,-3.58849,0.24485,0.75001
437.849,140.007,-3.60442,0.22592,0.74928
438.449,140.203,-3.62124,0.21262,0.74855
439.049,140.4,-3.63638,0.20096,0.74783
439.649,140.597,-3.64605,0.18818,0.7471
440.249,140.795,-3.66319,0.17922,0.74638
440.849,140.993,-3.67526,0.16999,0.74565
441.449,141.191,-3.68599,0.15873,0.74493
442.049,141.389,-3.69914,0.1522,0.7442
442.649,141.586,-3.70952,0.14172,0.74348
443.249,141.783,-3.72026,0.13449,0.74276
443.849,141.98,-3.73705,0.12706,0.74204
444.449,142.177,-3.74888,0.12056,0.74131
445.049,142.375,-3.75807,0.11227,0.74059
445.649,142.573,-3.76643,0.10342,0.73987
446.249,142.77,-3.77527,0.1013,0.73915
446.849,142.968,-3.78282,0.09079097,0.73843
447.449,143.165,-3.79158,0.0832266,0.73772
448.049,143.363,-3.80215,0.07380666,0.737
448.649,143.559,-3.81064,0.06668383,0.73628
449.249,143.756,-3.81887,0.06164653,0.73556
449.849,143.953,-3.82781,0.05251663,0.73485
450.449,144.15,-3.83116,0.04530483,0.73413
451.049,144.346,-3.83967,0.03697002,0.73342
451.649,144.544,-3.8487,0.03102473,0.7327
452.249,144.7403,-3.85419,0.02537423,0.73199
452.849,144.937,-3.86105,0.01848911,0.73128
453.449,145.134,-3.8663,0.0147008,0.73056
454.049,145.332,-3.87018,0.001828015,0.72985
454.649,145.53,-3.87213,-0.004900243,0.72914
455.249,145.729,-3.88263,-0.009103356,0.72843
455.849,145.926,-3.88572,-0.01177876,0.72772
456.449,146.124,-3.89,-0.01841107,0.72701
457.049,146.321,-3.89279,-0.02458681,0.7263
457.649,146.519,-3.89871,-0.03215813,0.7256
458.249,146.718,-3.89976,-0.03890616,0.72489
458.849,146.916,-3.90395,-0.04321977,0.72418
459.449,147.115,-3.90944,-0.04601855,0.72348
460.049,147.314,-3.91181,-0.04931674,0.72277
460.649,147.512,-3.913,-0.05230764,0.72207
461.249,147.711,-3.91795,-0.05888564,0.72136
461.849,147.909,-3.91403,-0.06266046,0.72066
462.449,148.108,-3.91785,-0.06435807,0.71996
463.049,148.307,-3.92035,-0.06148895,0.71926
463.649,148.507,-3.91965,-0.06879412,0.71856
464.249,148.705,-3.91971,-0.07450867,0.71786
464.849,148.904,-3.92187,-0.07496009,0.71716
465.449,149.102,-3.92177,-0.07972274,0.71646
466.049,149.3,-3.92549,-0.08003469,0.71576
466.649,149.498,-3.924,-0.08440725,0.71507
467.249,149.696,-3.92789,-0.08340127,0.71437
467.849,149.894,-3.92551,-0.08658219,0.71367
468.449,150.092,-3.92549,-0.08998593,0.71298
469.049,150.2903,-3.92914,-0.08843586,0.71229
469.649,150.489,-3.92825,-0.0928156,0.71159
470.249,150.688,-3.92908,-0.09090359,0.7109
470.849,150.887,-3.93116,-0.09450409,0.71021
471.449,151.086,-3.92763,-0.09376182,0.70952
472.049,151.286,-3.93032,-0.09853172,0.70883
472.649,151.485,-3.93026,-0.1033,0.70814
473.249,151.684,-3.92759,-0.10149,0.70745
473.849,151.881,-3.92773,-0.10098,0.70676
474.449,152.079,-3.93314,-0.10201,0.70608
475.049,152.277,-3.92945,-0.10402,0.70539
475.649,152.476,-3.93294,-0.10911,0.70471
476.249,152.675,-3.92753,-0.11093,0.70402
476.849,152.874,-3.92885,-0.11486,0.70334
477.449,153.073,-3.9294,-0.11334,0.70265
478.049,153.272,-3.93296,-0.11223,0.70197
478.649,153.47,-3.92841,-0.10905,0.70129
479.249,153.669,-3.92841,-0.11112,0.70061
479.849,153.868,-3.92973,-0.11061,0.69993
480.449,154.068,-3.92843,-0.1128,0.69926
481.049,154.268,-3.9311,-0.10853,0.69858
481.649,154.4677,-3.92766,-0.1115,0.6979
482.249,154.666,-3.93029,-0.11236,0.69723
482.849,154.864,-3.93021,-0.11088,0.69655
483.449,155.062,-3.93025,-0.10902,0.69588
484.049,155.261,-3.92637,-0.11204,0.6952
484.649,155.46,-3.93326,-0.10747,0.69453
485.249,155.659,-3.9302,-0.10821,0.69386
485.849,155.858,-3.93161,-0.10934,0.69319
486.449,156.056,-3.92974,-0.10884,0.69252
487.049,156.254,-3.92674,-0.11007,0.69185
487.649,156.453,-3.92863,-0.11231,0.69119
488.249,156.65,-3.93282,-0.1103,0.69052
488.849,156.848,-3.93142,-0.11183,0.68985
489.449,157.046,-3.92743,-0.112,0.68919
490.049,157.245,-3.93163,-0.11173,0.68853
490.649,157.445,-3.93083,-0.11256,0.68786
491.249,157.646,-3.93162,-0.10753,0.6872
491.849,157.847,-3.93301,-0.11464,0.68654
492.449,158.046,-3.93038,-0.11683,0.68588
493.049,158.246,-3.93093,-0.11625,0.68522
493.649,158.446,-3.93056,-0.11811,0.68456
494.249,158.646,-3.93299,-0.11882,0.68391
494.849,158.845,-3.93071,-0.11679,0.68325
495.449,159.045,-3.93333,-0.11075,0.6826
496.049,159.245,-3.93401,-0.11499,0.68194
496.649,159.445,-3.93492,-0.10801,0.68129
497.249,159.645,-3.92951,-0.11246,0.68064
497.849,159.845,-3.92959,-0.11523,0.67999
498.449,160.046,-3.92827,-0.1138,0.67934
499.049,160.246,-3.92621,-0.11685,0.67869
499.649,160.447,-3.9291,-0.11852,0.67804
500.249,160.647,-3.93387,-0.11954,0.67739
500.849,160.847,-3.93423,-0.11533,0.67675
501.449,161.0471,-3.93532,-0.1137,0.6761
502.049,161.247,-3.93039,-0.11619,0.67546
502.649,161.447,-3.93169,-0.11382,0.67482
503.249,161.648,-3.93039,-0.11585,0.67417
503.849,161.848,-3.93352,-0.11264,0.67353
504.449,162.049,-3.93829,-0.11339,0.67289
505.049,162.25,-3.93207,-0.11723,0.67225
505.649,162.451,-3.93036,-0.11966,0.67162
506.249,162.651,-3.93431,-0.12187,0.67098
506.849,162.851,-3.9329,-0.11945,0.67035
507.449,163.05,-3.93145,-0.12007,0.66971
508.049,163.251,-3.92679,-0.12249,0.66908
508.649,163.451,-3.92579,-0.12377,0.66845
509.249,163.651,-3.92996,-0.12645,0.66781
509.849,163.851,-3.92863,-0.12607,0.66718
510.449,164.051,-3.93125,-0.12793,0.66655
511.049,164.252,-3.9313,-0.12877,0.66593
511.649,164.452,-3.93127,-0.1288,0.6653
512.249,164.653,-3.9272,-0.12912,0.66467
512.849,164.853,-3.92965,-0.12847,0.66405
513.449,165.053,-3.92589,-0.12994,0.66343
514.049,165.253,-3.93211,-0.13118,0.6628
514.649,165.452,-3.93336,-0.13004,0.66218
515.249,165.651,-3.93345,-0.13244,0.66156
515.849,165.85,-3.9306,-0.13259,0.66094
516.449,166.049,-3.93291,-0.13329,0.66033
517.049,166.248,-3.93159,-0.13095,0.65971
517.649,166.448,-3.93093,-0.1306,0.65909
518.249,166.649,-3.92964,-0.13081,0.65848
518.849,166.849,-3.9283,-0.13235,0.65787
519.449,167.049,-3.92831,-0.12994,0.65725
520.049,167.248,-3.92963,-0.13758,0.65664
520.649,167.448,-3.93093,-0.13187,0.65603
521.249,167.648,-3.93258,-0.137,0.65542
521.849,167.848,-3.92997,-0.13856,0.65482
522.449,168.048,-3.93185,-0.14,0.65421
523.049,168.249,-3.93026,-0.14181,0.6536
523.649,168.45,-3.92963,-0.14221,0.653
524.249,168.651,-3.93227,-0.1402,0.6524
524.849,168.852,-3.93097,-0.14065,0.65179
525.449,169.054,-3.92968,-0.14151,0.65119
526.049,169.254,-3.92969,-0.14197,0.65059
526.649,169.454,-3.93237,-0.13943,0.65
527.249,169.655,-3.93271,-0.14539,0.6494
527.849,169.855,-3.93313,-0.14756,0.6488
528.449,170.0554,-3.93402,-0.14196,0.64821
529.049,170.257,-3.92946,-0.14284,0.64762
529.649,170.458,-3.92977,-0.1422,0.64702
530.249,170.659,-3.92993,-0.14625,0.64643
530.849,170.86,-3.92871,-0.1396,0.64584
531.449,171.061,-3.9301,-0.13968,0.64525
532.049,171.262,-3.93013,-0.14346,0.64467
532.649,171.462,-3.93073,-0.14607,0.64408
533.249,171.6621,-3.93079,-0.14344,0.6435
533.849,171.862,-3.93381,-0.14483,0.64291
534.449,172.062,-3.93225,-0.15034,0.64233
535.049,172.261,-3.92992,-0.14995,0.64175
535.649,172.461,-3.92699,-0.15052,0.64117
536.249,172.662,-3.93055,-0.14763,0.64059
536.849,172.864,-3.92907,-0.15463,0.64001
537.449,173.066,-3.93289,-0.15022,0.63943
538.049,173.268,-3.93028,-0.15417,0.63886
538.649,173.471,-3.93183,-0.14802,0.63829
539.249,173.672,-3.93445,-0.15038,0.63771
539.849,173.873,-3.93445,-0.15241,0.63714
540.449,174.0738,-3.93437,-0.15315,0.63657
541.049,174.275,-3.92961,-0.15377,0.636
541.649,174.478,-3.93066,-0.15346,0.63544
542.249,174.68,-3.93212,-0.15193,0.63487
542.849,174.881,-3.9317,-0.14894,0.6343
543.449,175.082,-3.93213,-0.15003,0.63374
544.049,175.283,-3.93246,-0.15166,0.63318
544.649,175.485,-3.92978,-0.14987,0.63262
545.249,175.687,-3.93166,-0.15299,0.63206
545.849,175.889,-3.93369,-0.15124,0.6315
546.449,176.092,-3.93266,-0.15287,0.63094
547.049,176.293,-3.92918,-0.1563,0.63039
547.649,176.495,-3.92786,-0.15679,0.62983
548.249,176.696,-3.93007,-0.15608,0.62928
548.849,176.897,-3.93203,-0.15667,0.62873
549.449,177.098,-3.92918,-0.15146,0.62817
550.049,177.299,-3.92786,-0.15977,0.62763
550.649,177.499,-3.92984,-0.15754,0.62708
551.249,177.698,-3.92952,-0.15799,0.62653
551.849,177.899,-3.92852,-0.16104,0.62598
552.449,178.1,-3.92847,-0.15931,0.62544
553.049,178.3025,-3.92855,-0.16199,0.6249
553.649,178.504,-3.92719,-0.1662,0.62436
554.249,178.707,-3.92703,-0.17019,0.62382
554.849,178.908,-3.92597,-0.17087,0.62328
555.449,179.109,-3.92935,-0.17239,0.62274
556.049,179.312,-3.92902,-0.17354,0.6222
556.649,179.513,-3.92711,-0.17744,0.62167
557.249,179.7147,-3.92852,-0.18296,0.62113
557.849,179.916,-3.92852,-0.18562,0.6206
558.449,180.1186,-3.92865,-0.18322,0.62007
559.049,180.321,-3.93119,-0.18528,0.61954
559.649,180.5219,-3.9294,-0.18171,0.61901
560.249,180.723,-3.92808,-0.18202,0.61849
560.849,180.925,-3.92668,-0.17883,0.61796
561.449,181.127,-3.9339,-0.17482,0.61744
562.049,181.329,-3.92541,-0.17788,0.61691
562.649,181.531,-3.92637,-0.1774,0.61639
563.249,181.734,-3.92947,-0.17593,0.61587
563.849,181.935,-3.92799,-0.17376,0.61535
564.449,182.136,-3.93084,-0.17175,0.61484
565.049,182.338,-3.92497,-0.17669,0.61432
565.649,182.539,-3.92484,-0.17757,0.61381
566.249,182.741,-3.92831,-0.17706,0.61329
566.849,182.943,-3.92575,-0.1775,0.61278
567.449,183.145,-3.92906,-0.17823,0.61227
568.049,183.348,-3.92611,-0.18035,0.61176
568.649,183.55,-3.92721,-0.17837,0.61125
569.249,183.7527,-3.92697,-0.18263,0.61075
569.849,183.955,-3.92484,-0.18341,0.61024
570.449,184.156,-3.92463,-0.18309,0.60974
571.049,184.358,-3.92394,-0.1826,0.60924
571.649,184.561,-3.92489,-0.18329,0.60874
572.249,184.764,-3.92491,-0.18846,0.60824
572.849,184.966,-3.92623,-0.19008,0.60774
573.449,185.168,-3.92689,-0.19128,0.60724
574.049,185.369,-3.92656,-0.19001,0.60675
574.649,185.57,-3.92771,-0.18807,0.60625
575.249,185.772,-3.9272,-0.18952,0.60576
575.849,185.974,-3.92497,-0.19207,0.60527
576.449,186.175,-3.92568,-0.18899,0.60478
577.049,186.377,-3.92831,-0.18723,0.60429
577.649,186.579,-3.9289,-0.18626,0.6038
578.249,186.7813,-3.92698,-0.19328,0.60332
578.849,186.984,-3.92574,-0.1863,0.60284
579.449,187.187,-3.92798,-0.19387,0.60235
580.049,187.39,-3.92797,-0.19116,0.60187
580.649,187.593,-3.92699,-0.19859,0.60139
581.249,187.796,-3.9279,-0.19619,0.60091
581.849,187.9984,-3.92963,-0.19849,0.60044
582.449,188.201,-3.92964,-0.19703,0.59996
583.049,188.404,-3.92786,-0.19503,0.59949
583.649,188.607,-3.92699,-0.19865,0.59902
584.249,188.811,-3.92708,-0.19646,0.59854
584.849,189.014,-3.92993,-0.19183,0.59807
585.449,189.216,-3.9272,-0.19053,0.59761
586.049,189.417,-3.92615,-0.19171,0.59714
586.649,189.6193,-3.9272,-0.18865,0.59667
587.249,189.822,-3.92852,-0.18989,0.59621
587.849,190.026,-3.92721,-0.19114,0.59575
588.449,190.23,-3.92852,-0.19577,0.59529
589.049,190.434,-3.92844,-0.19837,0.59483
589.649,190.638,-3.9271,-0.20048,0.59437
590.249,190.842,-3.92912,-0.20048,0.59391
590.849,191.046,-3.92773,-0.20012,0.59346
591.449,191.249,-3.92776,-0.19989,0.593
592.049,191.453,-3.92743,-0.19988,0.59255
592.649,191.6566,-3.92743,-0.19234,0.5921
593.249,191.86,-3.92711,-0.19387,0.59165
593.849,192.062,-3.92719,-0.19629,0.5912
594.449,192.264,-3.92578,-0.19804,0.59076
595.049,192.467,-3.92585,-0.20101,0.59031
595.649,192.669,-3.92579,-0.19932,0.58987
596.249,192.872,-3.92852,-0.19885,0.58943
596.849,193.074,-3.93115,-0.19815,0.58899
597.449,193.276,-3.93033,-0.19996,0.58855
598.049,193.478,-3.9286,-0.20105,0.58811
598.649,193.68,-3.92611,-0.19814,0.58767
599.249,193.883,-3.92743,-0.2041,0.58724
599.849,194.086,-3.92638,-0.20314,0.5868
600.449,194.29,-3.92479,-0.20197,0.58637
601.049,194.493,-3.92611,-0.20343,0.58594
601.649,194.696,-3.92548,-0.20554,0.58551
602.249,194.899,-3.92774,-0.20546,0.58509
602.849,195.101,-3.92842,-0.21389,0.58466
603.449,195.304,-3.92736,-0.21128,0.58424
604.049,195.5051,-3.92842,-0.20902,0.58381
604.649,195.706,-3.92608,-0.20884,0.58339
605.249,195.908,-3.92743,-0.2101,0.58297
605.849,196.111,-3.92745,-0.21498,0.58255
606.449,196.314,-3.92938,-0.21893,0.58214
607.049,196.518,-3.92643,-0.21868,0.58172
607.649,196.722,-3.92678,-0.21855,0.58131
608.249,196.925,-3.92533,-0.21686,0.58089
608.849,197.128,-3.9282,-0.20864,0.58048
609.449,197.332,-3.92952,-0.21386,0.58007
610.049,197.536,-3.92884,-0.21409,0.57966
610.649,197.741,-3.926,-0.21652,0.57926
611.249,197.946,-3.92929,-0.21291,0.57885
611.849,198.15,-3.92792,-0.21559,0.57845
612.449,198.355,-3.92666,-0.21966,0.57805
613.049,198.56,-3.92502,-0.22067,0.57765
613.649,198.765,-3.9283,-0.2232,0.57725
614.249,198.969,-3.92779,-0.21929,0.57685
614.849,199.172,-3.92961,-0.22203,0.57645
615.449,199.375,-3.92961,-0.22259,0.57606
616.049,199.579,-3.92962,-0.2218,0.57567
616.649,199.7827,-3.92763,-0.22641,0.57527
617.249,199.986,-3.92694,-0.22782,0.57488
617.849,200.188,-3.93095,-0.23069,0.57449
618.449,200.39,-3.93356,-0.22891,0.57411
619.049,200.593,-3.93214,-0.22925,0.57372
619.649,200.796,-3.93092,-0.23407,0.57334
620.249,201,-3.9295,-0.23056,0.57296
620.849,201.204,-3.92819,-0.2349,0.57257
621.449,201.407,-3.92686,-0.23837,0.57219
622.049,201.611,-3.92818,-0.23518,0.57182
622.649,201.815,-3.93181,-0.23549,0.57144
623.249,202.019,-3.93181,-0.23934,0.57106
623.849,202.222,-3.93043,-0.23619,0.57069
624.449,202.426,-3.93082,-0.2328,0.57032
625.049,202.63,-3.93214,-0.23345,0.56995
625.649,202.8337,-3.92797,-0.23762,0.56958
626.249,203.037,-3.92903,-0.23632,0.56921
626.849,203.241,-3.92926,-0.24168,0.56885
627.449,203.4436,-3.92927,-0.24123,0.56848
628.049,203.647,-3.928,-0.24605,0.56812
628.649,203.851,-3.92893,-0.24648,0.56776
629.249,204.0565,-3.93027,-0.24613,0.5674
629.849,204.2622,-3.93027,-0.24798,0.56704
630.449,204.468,-3.92764,-0.24755,0.56668
631.049,204.673,-3.92896,-0.24438,0.56633
631.649,204.878,-3.93102,-0.24716,0.56597
632.249,205.083,-3.92896,-0.2521,0.56562
632.849,205.287,-3.93002,-0.24734,0.56527
633.449,205.49,-3.93303,-0.25109,0.56492
634.049,205.693,-3.933,-0.24719,0.56457
634.649,205.896,-3.93094,-0.24937,0.56422
635.249,206.1,-3.9307,-0.25483,0.56388
635.849,206.303,-3.92939,-0.25327,0.56354
636.449,206.507,-3.92841,-0.25672,0.56319
637.049,206.71,-3.92973,-0.25679,0.56285
637.649,206.912,-3.9282,-0.2587,0.56251
638.249,207.113,-3.92818,-0.26052,0.56218
638.849,207.316,-3.92688,-0.26268,0.56184
639.449,207.521,-3.92848,-0.26416,0.56151
640.049,207.726,-3.92929,-0.25334,0.56117
640.649,207.93,-3.92929,-0.25271,0.56084
641.249,208.133,-3.92827,-0.25431,0.56051
641.849,208.338,-3.9307,-0.24922,0.56018
642.449,208.543,-3.92962,-0.24872,0.55986
643.049,208.749,-3.92962,-0.24675,0.55953
643.649,208.954,-3.93106,-0.2487,0.55921
644.249,209.16,-3.9306,-0.25057,0.55889
644.849,209.365,-3.93192,-0.25024,0.55857
645.449,209.57,-3.92799,-0.2527,0.55825
646.049,209.775,-3.92699,-0.25336,0.55793
646.649,209.98,-3.9283,-0.25635,0.55761