File: 01_Data/Masonite_Board/STA/N2/10K_min/Masonite_Board_STA_N2_10KData_222406_R1.csv
##Temp./Â°C,Time/min,DSC(subtr.)/mW,Mass loss(subtr.)/mg,Sensit./(uV/mW)
49.706,10.01,0.03279391,0.00131,1.07018
50.306,10.7362,0.18443,0.003011883,1.07001
50.906,10.9267,0.30207,0.004378509,1.06985
51.506,11.06777,0.39279,0.002952404,1.06968
52.106,11.18753,0.47059,0.004518026,1.06952
52.706,11.29297,0.55504,0.004125351,1.06935
53.306,11.3902,0.60962,0.00218857,1.06918
53.906,11.481,0.65684,0.002373746,1.06902
54.506,11.5672,0.71668,0.00310134,1.06885
55.106,11.64983,0.74739,0.002733856,1.06868
55.706,11.72908,0.7904,0.003913629,1.06851
56.306,11.80599,0.83262,0.003471459,1.06834
56.906,11.88053,0.86098,0.003266127,1.06818
57.506,11.9536,0.88979,0.003145078,1.06801
58.106,12.0258,0.92062,0.003628161,1.06784
58.706,12.09713,0.94737,0.002613435,1.06767
59.306,12.16682,0.96739,0.003107936,1.0675
59.906,12.2356,0.99527,0.002246844,1.06732
60.506,12.30384,1.01522,0.005420734,1.06715
61.106,12.3719,1.03366,0.003828288,1.06698
61.706,12.43954,1.05055,0.001615189,1.06681
62.306,12.50662,1.06933,0.0015442,1.06664
62.906,12.57347,1.08709,0.001551077,1.06647
63.506,12.6394,1.09736,0.001312488,1.06629
64.106,12.7053,1.11833,0.00176792,1.06612
64.706,12.77011,1.133,0.001199653,1.06595
65.306,12.83597,1.14067,0.001193028,1.06577
65.906,12.90114,1.15845,0.002540662,1.0656
66.506,12.96667,1.1602,0.001179098,1.06542
67.106,13.03102,1.17521,0.00194568,1.06525
67.706,13.09543,1.18788,0.002614079,1.06507
68.306,13.15988,1.20007,0.001208507,1.06489
68.906,13.2244,1.21181,0.001201464,1.06472
69.506,13.28864,1.22122,0.001204321,1.06454
70.106,13.3527,1.22975,-0.0001334256,1.06436
70.706,13.41661,1.24671,-0.0001155782,1.06419
71.306,13.4804,1.25408,-0.0001190653,1.06401
71.906,13.544,1.25831,-0.0007486925,1.06383
72.506,13.6074,1.27199,-0.0001256601,1.06365
73.106,13.6708,1.27938,-0.00137132,1.06347
73.706,13.7329,1.29059,-0.000106014,1.06329
74.306,13.7958,1.30081,-0.0001669177,1.06311
74.906,13.85883,1.30092,-0.000120002,1.06293
75.506,13.9224,1.30975,-0.0001199828,1.06275
76.106,13.9856,1.32076,-2.313395e-05,1.06257
76.706,14.04841,1.32419,-0.001412056,1.06239
77.306,14.11094,1.33759,-0.00141793,1.06221
77.906,14.1734,1.33802,-0.001431244,1.06203
78.506,14.2355,1.33821,-0.002756092,1.06185
79.106,14.2975,1.35179,-0.00277324,1.06166
79.706,14.3591,1.35883,-0.002754206,1.06148
80.306,14.42097,1.36428,-0.004109664,1.0613
80.906,14.4824,1.36718,-0.002787295,1.06111
81.506,14.5444,1.3702,-0.00284997,1.06093
82.106,14.606,1.37884,-0.002850036,1.06074
82.706,14.66744,1.36996,-0.002938497,1.06056
83.306,14.7285,1.38151,-0.002852758,1.06037
83.906,14.7893,1.38403,-0.00285982,1.06019
84.506,14.85016,1.38263,-0.00418065,1.06
85.106,14.9113,1.38351,-0.004179175,1.05981
85.706,14.9719,1.39352,-0.005488886,1.05963
86.306,15.03249,1.38443,-0.00554796,1.05944
86.906,15.0927,1.39161,-0.004180098,1.05925
87.506,15.1533,1.38891,-0.004837279,1.05906
88.106,15.21386,1.39841,-0.005489855,1.05888
88.706,15.2741,1.40279,-0.005447105,1.05869
89.306,15.33443,1.39849,-0.005540135,1.0585
89.906,15.39439,1.39959,-0.00549002,1.05831
90.506,15.4537,1.40423,-0.005489974,1.05812
91.106,15.51348,1.39999,-0.006173385,1.05793
91.706,15.57293,1.39722,-0.005450926,1.05774
92.306,15.6334,1.39907,-0.00550002,1.05755
92.906,15.69329,1.39377,-0.005622763,1.05735
93.506,15.7531,1.3939,-0.00549822,1.05716
94.106,15.8129,1.39223,-0.005832404,1.05697
94.706,15.87226,1.39133,-0.00578701,1.05678
95.306,15.9318,1.39179,-0.00678298,1.05658
95.906,15.9912,1.40064,-0.006810256,1.05639
96.506,16.0507,1.39871,-0.00780625,1.0562
97.106,16.11024,1.39719,-0.00679027,1.056
97.706,16.16957,1.39444,-0.006479397,1.05581
98.306,16.2289,1.39931,-0.006810437,1.05561
98.906,16.28801,1.40184,-0.005983235,1.05542
99.506,16.34711,1.41098,-0.0068196,1.05522
100.106,16.40622,1.41663,-0.006810288,1.05503
100.706,16.4652,1.42128,-0.005768191,1.05483
101.306,16.52413,1.42425,-0.006820601,1.05463
101.906,16.58311,1.43325,-0.006843429,1.05444
102.506,16.6421,1.4386,-0.008115737,1.05424
103.106,16.70091,1.4392,-0.006830157,1.05404
103.706,16.75968,1.43263,-0.008122918,1.05384
104.306,16.81825,1.4386,-0.00761605,1.05364
104.906,16.8768,1.43906,-0.008081762,1.05344
105.506,16.93572,1.44399,-0.006464274,1.05324
106.106,16.9945,1.44074,-0.007140316,1.05304
106.706,17.0534,1.44394,-0.00622892,1.05284
107.306,17.1124,1.44486,-0.007241566,1.05264
107.906,17.1711,1.44974,-0.00712869,1.05244
108.506,17.2298,1.44359,-0.008570064,1.05224
109.106,17.2883,1.45234,-0.009401015,1.05204
109.706,17.34676,1.44911,-0.009893694,1.05184
110.306,17.40521,1.45108,-0.008582777,1.05163
110.906,17.46369,1.44804,-0.00854924,1.05143
111.506,17.52221,1.45367,-0.00674132,1.05123
112.106,17.58071,1.44903,-0.006270266,1.05102
112.706,17.63936,1.4528,-0.00757717,1.05082
113.306,17.698,1.45611,-0.00758,1.05061
113.906,17.75655,1.45628,-0.007579929,1.05041
114.506,17.81505,1.46121,-0.007312565,1.0502
115.106,17.87339,1.46617,-0.007675684,1.05
115.706,17.9318,1.45986,-0.008081114,1.04979
116.306,17.99032,1.46178,-0.008899924,1.04958
116.906,18.04873,1.45631,-0.00762647,1.04938
117.506,18.107,1.465,-0.00758004,1.04917
118.106,18.1657,1.46459,-0.007579998,1.04896
118.706,18.2242,1.47049,-0.00757628,1.04875
119.306,18.2828,1.4693,-0.00856587,1.04855
119.906,18.34129,1.46503,-0.008569547,1.04834
120.506,18.39956,1.47554,-0.00725425,1.04813
121.106,18.45792,1.46692,-0.007765705,1.04792
121.706,18.51623,1.47127,-0.008890377,1.04771
122.306,18.57464,1.48048,-0.00889,1.0475
122.906,18.6328,1.481,-0.008889981,1.04729
123.506,18.6911,1.48219,-0.008871747,1.04708
124.106,18.7494,1.48559,-0.00856037,1.04686
124.706,18.8074,1.48999,-0.008228282,1.04665
125.306,18.8654,1.48733,-0.008903946,1.04644
125.906,18.9236,1.4917,-0.008933014,1.04623
126.506,18.98179,1.49354,-0.00889934,1.04601
127.106,19.04007,1.497,-0.007579737,1.0458
127.706,19.0981,1.49361,-0.0075796,1.04559
128.306,19.15608,1.49908,-0.008879605,1.04537
128.906,19.21402,1.50726,-0.00888884,1.04516
129.506,19.27223,1.50535,-0.00757683,1.04494
130.106,19.33033,1.51388,-0.007579998,1.04473
130.706,19.38873,1.5158,-0.007815433,1.04451
131.306,19.4468,1.51073,-0.008898483,1.04429
131.906,19.50483,1.5115,-0.007574593,1.04408
132.506,19.56285,1.52156,-0.008937673,1.04386
133.106,19.62086,1.52158,-0.00889001,1.04364
133.706,19.67902,1.52835,-0.00889057,1.04342
134.306,19.73712,1.5316,-0.009889582,1.04321
134.906,19.79526,1.53328,-0.009880005,1.04299
135.506,19.8533,1.53524,-0.009880025,1.04277
136.106,19.9112,1.53445,-0.009441898,1.04255
136.706,19.96903,1.53867,-0.008569914,1.04233
137.306,20.02684,1.53792,-0.008570003,1.04211
137.906,20.08469,1.55031,-0.008578575,1.04189
138.506,20.14268,1.55472,-0.008938056,1.04167
139.106,20.2006,1.55211,-0.00958938,1.04144
139.706,20.25834,1.55299,-0.0095531,1.04122
140.306,20.31612,1.55814,-0.00923056,1.041
140.906,20.3739,1.5717,-0.009285603,1.04078
141.506,20.4317,1.57031,-0.007534091,1.04055
142.106,20.4892,1.57015,-0.0081617,1.04033
142.706,20.5469,1.57492,-0.00912025,1.04011
143.306,20.60446,1.5755,-0.00912,1.03988
143.906,20.6623,1.57971,-0.00912,1.03966
144.506,20.72016,1.58693,-0.00912,1.03943
145.106,20.77775,1.59753,-0.009120059,1.03921
145.706,20.83527,1.59355,-0.009397813,1.03898
146.306,20.89283,1.60558,-0.01043163,1.03876
146.906,20.9506,1.60285,-0.01006333,1.03853
147.506,21.00797,1.61016,-0.008780051,1.0383
148.106,21.06557,1.61725,-0.00878,1.03807
148.706,21.12305,1.61693,-0.00878,1.03785
149.306,21.1805,1.62298,-0.008779997,1.03762
149.906,21.23808,1.62396,-0.008795113,1.03739
150.506,21.2954,1.63158,-0.01012179,1.03716
151.106,21.3529,1.63678,-0.01009997,1.03693
151.706,21.4104,1.63889,-0.01008675,1.0367
152.306,21.46793,1.6446,-0.00879038,1.03647
152.906,21.52555,1.63906,-0.008729146,1.03624
153.506,21.58304,1.64831,-0.009757984,1.03601
154.106,21.6406,1.64475,-0.01011006,1.03578
154.706,21.69797,1.65099,-0.01011012,1.03555
155.306,21.75529,1.65237,-0.01154224,1.03531
155.906,21.8126,1.65621,-0.01071333,1.03508
156.506,21.87019,1.65883,-0.01011161,1.03485
157.106,21.9278,1.65767,-0.0087852,1.03461
157.706,21.98541,1.66782,-0.01009781,1.03438
158.306,22.04274,1.66827,-0.01011,1.03415
158.906,22.10016,1.67659,-0.01011005,1.03391
159.506,22.1572,1.6911,-0.01139703,1.03368
160.106,22.21495,1.68653,-0.01132026,1.03344
160.706,22.2725,1.69123,-0.0124105,1.0332
161.306,22.32995,1.69506,-0.01240996,1.03297
161.906,22.3877,1.68706,-0.01175857,1.03273
162.506,22.44506,1.69558,-0.01175001,1.03249
163.106,22.50279,1.70673,-0.01175,1.03226
163.706,22.56022,1.70177,-0.01175,1.03202
164.306,22.6178,1.7041,-0.01174997,1.03178
164.906,22.67505,1.71337,-0.01161593,1.03154
165.506,22.73253,1.71779,-0.01108988,1.0313
166.106,22.7898,1.71967,-0.01109001,1.03106
166.706,22.84698,1.72742,-0.01025666,1.03082
167.306,22.90445,1.72834,-0.0101513,1.03058
167.906,22.96152,1.73204,-0.01139187,1.03034
168.506,23.01888,1.73891,-0.0127401,1.0301
169.106,23.0762,1.75103,-0.01274,1.02986
169.706,23.13373,1.7428,-0.01273471,1.02962
170.306,23.19136,1.75948,-0.01405886,1.02937
170.906,23.2488,1.75831,-0.01406367,1.02913
171.506,23.30627,1.76168,-0.01274141,1.02889
172.106,23.36375,1.76786,-0.01274,1.02864
172.706,23.42097,1.76307,-0.01274,1.0284
173.306,23.47811,1.77037,-0.01274,1.02816
173.906,23.53535,1.77665,-0.01273952,1.02791
174.506,23.59277,1.77512,-0.01389954,1.02767
175.106,23.65064,1.79182,-0.01405001,1.02742
175.706,23.70841,1.79162,-0.0137864,1.02717
176.306,23.76582,1.79394,-0.01338989,1.02693
176.906,23.8233,1.79392,-0.01339,1.02668
177.506,23.88031,1.80633,-0.01338997,1.02643
178.106,23.93747,1.80295,-0.01475926,1.02619
178.706,23.99482,1.80621,-0.01470543,1.02594
179.306,24.0522,1.80678,-0.01537427,1.02569
179.906,24.10973,1.81678,-0.01536999,1.02544
180.506,24.167,1.81162,-0.01496595,1.02519
181.106,24.2239,1.81766,-0.0140597,1.02494
181.706,24.28102,1.81983,-0.01448181,1.02469
182.306,24.33821,1.82767,-0.01537017,1.02444
182.906,24.39551,1.83511,-0.01536997,1.02419
183.506,24.45285,1.83839,-0.01532933,1.02394
184.106,24.50999,1.8431,-0.01603,1.02369
184.706,24.56693,1.85043,-0.0160578,1.02343
185.306,24.62398,1.85281,-0.01701794,1.02318
185.906,24.68082,1.85305,-0.01702,1.02293
186.506,24.73801,1.85596,-0.01702,1.02267
187.106,24.79511,1.85608,-0.01702,1.02242
187.706,24.85237,1.86553,-0.01702001,1.02217
188.306,24.9096,1.87397,-0.01701834,1.02191
188.906,24.96666,1.87166,-0.01801516,1.02166
189.506,25.02384,1.8734,-0.01800714,1.0214
190.106,25.08073,1.87946,-0.01931488,1.02114
190.706,25.13778,1.88405,-0.01932001,1.02089
191.306,25.19482,1.89237,-0.01932,1.02063
191.906,25.2518,1.89189,-0.01932,1.02037
192.506,25.3091,1.89424,-0.01932,1.02012
193.106,25.36628,1.89813,-0.01931997,1.01986
193.706,25.42331,1.90825,-0.01926786,1.0196
194.306,25.4805,1.90509,-0.02129961,1.01934
194.906,25.53758,1.91934,-0.0213,1.01908
195.506,25.59465,1.91439,-0.0213,1.01882
196.106,25.65152,1.91663,-0.02130004,1.01856
196.706,25.7085,1.91778,-0.02251053,1.0183
197.306,25.76546,1.92297,-0.02261987,1.01804
197.906,25.8226,1.92407,-0.02259961,1.01778
198.506,25.8797,1.93226,-0.02130009,1.01752
199.106,25.93683,1.93692,-0.02173608,1.01725
199.706,25.99377,1.93541,-0.02361724,1.01699
200.306,26.05096,1.94181,-0.02361,1.01673
200.906,26.1081,1.94423,-0.02361,1.01647
201.506,26.1651,1.95191,-0.02360644,1.0162
202.106,26.22232,1.95129,-0.02491789,1.01594
202.706,26.2794,1.96114,-0.02493,1.01567
203.306,26.33667,1.96235,-0.02493004,1.01541
203.906,26.39397,1.97172,-0.02503476,1.01514
204.506,26.4514,1.96781,-0.02393766,1.01488
205.106,26.50875,1.97441,-0.02492433,1.01461
205.706,26.5658,1.97255,-0.02661433,1.01434
206.306,26.62275,1.97494,-0.02786819,1.01408
206.906,26.67982,1.98522,-0.02657853,1.01381
207.506,26.73685,1.98822,-0.02763276,1.01354
208.106,26.7939,1.9896,-0.02788987,1.01327
208.706,26.8511,1.99752,-0.02789,1.013
209.306,26.90839,2.00567,-0.0278874,1.01273
209.906,26.9656,2.00382,-0.02919831,1.01246
210.506,27.023,2.01362,-0.02920999,1.01219
211.106,27.0801,2.01455,-0.02920999,1.01192
211.706,27.13727,2.0195,-0.0296371,1.01165
212.306,27.1945,2.01821,-0.0307486,1.01138
212.906,27.25165,2.03544,-0.0318402,1.01111
213.506,27.30857,2.03653,-0.03184,1.01084
214.106,27.36532,2.04051,-0.03184001,1.01056
214.706,27.42258,2.04107,-0.03185346,1.01029
215.306,27.4799,2.05149,-0.03315996,1.01002
215.906,27.5371,2.04977,-0.03424415,1.00974
216.506,27.5945,2.05577,-0.03447987,1.00947
217.106,27.65168,2.06551,-0.03448,1.00919
217.706,27.70904,2.07023,-0.03448,1.00892
218.306,27.76616,2.07188,-0.03447311,1.00864
218.906,27.8232,2.07778,-0.03578818,1.00837
219.506,27.8802,2.07966,-0.03580209,1.00809
220.106,27.93753,2.08678,-0.03785774,1.00781
220.706,27.99486,2.09081,-0.03843016,1.00754
221.306,28.052,2.09169,-0.0398279,1.00726
221.906,28.10878,2.09944,-0.03974997,1.00698
222.506,28.1654,2.10742,-0.03975,1.0067
223.106,28.22233,2.10995,-0.03975003,1.00642
223.706,28.27937,2.11706,-0.03973343,1.00614
224.306,28.33673,2.12185,-0.04239398,1.00586
224.906,28.39435,2.12879,-0.04238987,1.00558
225.506,28.45157,2.13561,-0.04289137,1.0053
226.106,28.5088,2.14015,-0.04238003,1.00502
226.706,28.56597,2.14221,-0.04294791,1.00474
227.306,28.6231,2.14551,-0.04468563,1.00446
227.906,28.68008,2.15091,-0.04468957,1.00418
228.506,28.7371,2.15728,-0.04503282,1.00389
229.106,28.7943,2.15664,-0.04634372,1.00361
229.706,28.8514,2.16171,-0.04634018,1.00333
230.306,28.9088,2.16398,-0.0466637,1.00304
230.906,28.96619,2.16747,-0.04797864,1.00276
231.506,29.0232,2.17297,-0.04821865,1.00247
232.106,29.08022,2.1689,-0.04962005,1.00219
232.706,29.1372,2.18299,-0.04997138,1.0019
233.306,29.1942,2.18284,-0.05127087,1.00161
233.906,29.25129,2.19074,-0.05258906,1.00133
234.506,29.3083,2.18655,-0.05293145,1.00104
235.106,29.3654,2.18467,-0.05321574,1.00075
235.706,29.4226,2.19229,-0.05481234,1.00047
236.306,29.4798,2.19841,-0.05555002,1.00018
236.906,29.53694,2.20776,-0.05560041,0.99989
237.506,29.59412,2.21738,-0.05819059,0.9996
238.106,29.65118,2.21491,-0.05949536,0.99931
238.706,29.7083,2.22097,-0.05916858,0.99902
239.306,29.76571,2.21839,-0.05966243,0.99873
239.906,29.823,2.22703,-0.06170345,0.99844
240.506,29.8803,2.23338,-0.0629073,0.99815
241.106,29.9375,2.23876,-0.06325737,0.99785
241.706,29.9947,2.23707,-0.06496565,0.99756
242.306,30.05201,2.23768,-0.0671941,0.99727
242.906,30.10926,2.24558,-0.06851682,0.99698
243.506,30.1664,2.24268,-0.06850632,0.99668
244.106,30.2236,2.25042,-0.06985182,0.99639
244.706,30.2808,2.25206,-0.07082042,0.99609
245.306,30.3381,2.25505,-0.07213397,0.9958
245.906,30.39542,2.25975,-0.07345616,0.9955
246.506,30.4527,2.2658,-0.0740439,0.99521
247.106,30.50988,2.26293,-0.07609078,0.99491
247.706,30.567,2.26317,-0.07802677,0.99462
248.306,30.6241,2.27468,-0.07937815,0.99432
248.906,30.6812,2.28282,-0.07938003,0.99402
249.506,30.7385,2.29217,-0.08111887,0.99372
250.106,30.7956,2.29265,-0.08403772,0.99343
250.706,30.85288,2.29561,-0.08610031,0.99313
251.306,30.9101,2.29617,-0.08740002,0.99283
251.906,30.96722,2.30391,-0.08869794,0.99253
252.506,31.02448,2.30881,-0.09101114,0.99223
253.106,31.0816,2.30689,-0.0937333,0.99193
253.706,31.13873,2.31863,-0.09505151,0.99163
254.306,31.19585,2.31996,-0.09777713,0.99133
254.906,31.2531,2.32432,-0.09913924,0.99102
255.506,31.3102,2.32649,-0.10046,0.99072
256.106,31.36737,2.32493,-0.10318,0.99042
256.706,31.42468,2.32655,-0.10533,0.99012
257.306,31.4817,2.32923,-0.10783,0.98981
257.906,31.5389,2.33889,-0.1098,0.98951
258.506,31.5958,2.3444,-0.1117,0.9892
259.106,31.65281,2.34082,-0.11676,0.9889
259.706,31.71005,2.3438,-0.12,0.98859
260.306,31.76727,2.34636,-0.12164,0.98829
260.906,31.82465,2.35049,-0.12358,0.98798
261.506,31.8819,2.35013,-0.125,0.98768
262.106,31.93897,2.34849,-0.12778,0.98737
262.706,31.99615,2.34915,-0.12949,0.98706
263.306,32.05336,2.35028,-0.13394,0.98675
263.906,32.1107,2.3561,-0.13711,0.98645
264.506,32.16803,2.36451,-0.14136,0.98614
265.106,32.22511,2.36261,-0.14462,0.98583
265.706,32.28217,2.37184,-0.14713,0.98552
266.306,32.3393,2.37042,-0.15101,0.98521
266.906,32.3964,2.3698,-0.15423,0.9849
267.506,32.4535,2.376,-0.15814,0.98459
268.106,32.51076,2.385,-0.16175,0.98428
268.706,32.56803,2.38443,-0.1633,0.98397
269.306,32.62534,2.38379,-0.16792,0.98365
269.906,32.68265,2.38196,-0.17187,0.98334
270.506,32.74003,2.39277,-0.17719,0.98303
271.106,32.7973,2.3953,-0.18091,0.98271
271.706,32.85436,2.39493,-0.18546,0.9824
272.306,32.91154,2.39405,-0.1904,0.98209
272.906,32.96873,2.4119,-0.19484,0.98177
273.506,33.02597,2.40188,-0.19946,0.98146
274.106,33.08321,2.40272,-0.20401,0.98114
274.706,33.1405,2.40534,-0.20875,0.98083
275.306,33.19791,2.4007,-0.21392,0.98051
275.906,33.25527,2.40124,-0.21812,0.98019
276.506,33.31262,2.39879,-0.22354,0.97987
277.106,33.36988,2.39957,-0.229,0.97956
277.706,33.427,2.40243,-0.23419,0.97924
278.306,33.4842,2.40921,-0.24016,0.97892
278.906,33.54135,2.40331,-0.24561,0.9786
279.506,33.59884,2.40899,-0.25206,0.97828
280.106,33.65647,2.4102,-0.25831,0.97796
280.706,33.71386,2.4091,-0.26481,0.97764
281.306,33.7715,2.40962,-0.27082,0.97732
281.906,33.8289,2.4044,-0.2759,0.977
282.506,33.88646,2.40251,-0.2821,0.97668
283.106,33.9438,2.40348,-0.28808,0.97636
283.706,34.00108,2.40466,-0.29446,0.97603
284.306,34.05847,2.40441,-0.30175,0.97571
284.906,34.1156,2.40877,-0.30859,0.97539
285.506,34.17252,2.40365,-0.3164,0.97506
286.106,34.2297,2.39839,-0.32174,0.97474
286.706,34.28696,2.40114,-0.32897,0.97441
287.306,34.34433,2.39469,-0.33589,0.97409
287.906,34.4024,2.39565,-0.34195,0.97376
288.506,34.46008,2.39438,-0.34902,0.97344
289.106,34.5174,2.39458,-0.35591,0.97311
289.706,34.57515,2.3885,-0.36423,0.97278
290.306,34.6327,2.38866,-0.37141,0.97246
290.906,34.69018,2.39598,-0.37878,0.97213
291.506,34.74787,2.38532,-0.38566,0.9718
292.106,34.80533,2.3828,-0.39216,0.97147
292.706,34.86285,2.37653,-0.39917,0.97114
293.306,34.92034,2.38273,-0.40726,0.97081
293.906,34.97773,2.36979,-0.41601,0.97048
294.506,35.0351,2.37547,-0.42391,0.97015
295.106,35.09234,2.37443,-0.43114,0.96982
295.706,35.1495,2.37187,-0.4394,0.96949
296.306,35.20687,2.35966,-0.44757,0.96916
296.906,35.26446,2.36078,-0.45459,0.96883
297.506,35.32196,2.35306,-0.46131,0.96849
298.106,35.3797,2.35545,-0.46882,0.96816
298.706,35.4373,2.34327,-0.4785,0.96783
299.306,35.49465,2.3493,-0.48561,0.96749
299.906,35.55212,2.34575,-0.49341,0.96716
300.506,35.60964,2.34519,-0.50136,0.96682
301.106,35.66725,2.33772,-0.50777,0.96649
301.706,35.72507,2.33798,-0.51596,0.96615
302.306,35.7825,2.33246,-0.5229,0.96582
302.906,35.8401,2.3359,-0.53171,0.96548
303.506,35.89751,2.33187,-0.53892,0.96514
304.106,35.95519,2.3327,-0.54871,0.96481
304.706,36.0126,2.33041,-0.5559,0.96447
305.306,36.07011,2.3391,-0.56342,0.96413
305.906,36.12774,2.33299,-0.56988,0.96379
306.506,36.18523,2.33806,-0.57831,0.96345
307.106,36.24279,2.33583,-0.58573,0.96311
307.706,36.30032,2.34325,-0.5931,0.96277
308.306,36.35792,2.33976,-0.60051,0.96243
308.906,36.41571,2.34126,-0.60989,0.96209
309.506,36.4734,2.34669,-0.61736,0.96175
310.106,36.53113,2.34597,-0.62542,0.96141
310.706,36.58891,2.35814,-0.63394,0.96107
311.306,36.6466,2.3627,-0.64154,0.96072
311.906,36.70393,2.3662,-0.6497,0.96038
312.506,36.7614,2.36804,-0.65792,0.96004
313.106,36.8189,2.37635,-0.6647,0.95969
313.706,36.8765,2.38096,-0.67308,0.95935
314.306,36.93465,2.39009,-0.68155,0.959
314.906,36.99212,2.39827,-0.6901,0.95866
315.506,37.04953,2.41075,-0.69892,0.95831
316.106,37.107,2.42471,-0.70567,0.95796
316.706,37.16421,2.43042,-0.71407,0.95762
317.306,37.22177,2.43987,-0.72283,0.95727
317.906,37.27941,2.44609,-0.73164,0.95692
318.506,37.3369,2.46817,-0.74054,0.95658
319.106,37.3947,2.46707,-0.74908,0.95623
319.706,37.45238,2.48355,-0.75854,0.95588
320.306,37.51018,2.49122,-0.7662,0.95553
320.906,37.5678,2.50348,-0.77631,0.95518
321.506,37.6255,2.5229,-0.786,0.95483
322.106,37.6832,2.53666,-0.79407,0.95448
322.706,37.74069,2.54999,-0.80335,0.95413
323.306,37.7984,2.57208,-0.81219,0.95378
323.906,37.85614,2.57629,-0.82139,0.95342
324.506,37.91388,2.59909,-0.83089,0.95307
325.106,37.97161,2.61166,-0.84124,0.95272
325.706,38.02939,2.641,-0.85083,0.95237
326.306,38.08703,2.6578,-0.86217,0.95201
326.906,38.14484,2.68519,-0.87184,0.95166
327.506,38.2025,2.69657,-0.88262,0.9513
328.106,38.2603,2.7239,-0.89203,0.95095
328.706,38.31815,2.74212,-0.90313,0.95059
329.306,38.3761,2.76508,-0.91409,0.95024
329.906,38.43395,2.80293,-0.92431,0.94988
330.506,38.49177,2.82025,-0.9348,0.94952
331.106,38.54937,2.84962,-0.94674,0.94917
331.706,38.60719,2.87506,-0.95888,0.94881
332.306,38.66457,2.90323,-0.97014,0.94845
332.906,38.7226,2.93683,-0.98182,0.94809
333.506,38.78052,2.9715,-0.99375,0.94773
334.106,38.83859,3.00365,-1.0053,0.94737
334.706,38.89676,3.04034,-1.01972,0.94701
335.306,38.95467,3.08271,-1.03338,0.94665
335.906,39.01259,3.1217,-1.04524,0.94629
336.506,39.0709,3.16169,-1.05994,0.94593
337.106,39.12885,3.19437,-1.07227,0.94557
337.706,39.18705,3.24384,-1.08619,0.94521
338.306,39.24511,3.28064,-1.10221,0.94485
338.906,39.3031,3.32921,-1.11572,0.94448
339.506,39.361,3.36813,-1.13029,0.94412
340.106,39.4192,3.41947,-1.14493,0.94376
340.706,39.47737,3.47091,-1.1597,0.94339
341.306,39.5356,3.51491,-1.17496,0.94303
341.906,39.59394,3.58202,-1.19163,0.94266
342.506,39.6519,3.62581,-1.20892,0.9423
343.106,39.70991,3.6926,-1.22537,0.94193
343.706,39.76802,3.75962,-1.24215,0.94156
344.306,39.82627,3.81725,-1.26045,0.9412
344.906,39.8847,3.86268,-1.27889,0.94083
345.506,39.94288,3.93518,-1.29736,0.94046
346.106,40.001,3.98973,-1.31739,0.94009
346.706,40.05918,4.06613,-1.33592,0.93972
347.306,40.1173,4.1488,-1.35777,0.93936
347.906,40.17565,4.20694,-1.37788,0.93899
348.506,40.23388,4.28791,-1.39913,0.93862
349.106,40.292,4.3573,-1.41956,0.93825
349.706,40.35,4.43181,-1.44201,0.93787
350.306,40.40787,4.50678,-1.46452,0.9375
350.906,40.46546,4.58561,-1.48654,0.93713
351.506,40.52361,4.65947,-1.51106,0.93676
352.106,40.58123,4.74335,-1.53471,0.93639
352.706,40.6394,4.81997,-1.55963,0.93601
353.306,40.6976,4.90073,-1.5849,0.93564
353.906,40.756,4.98428,-1.61084,0.93527
354.506,40.8145,5.0543,-1.63652,0.93489
355.106,40.873,5.13072,-1.66304,0.93452
355.706,40.9313,5.20829,-1.69,0.93414
356.306,40.98952,5.28909,-1.71882,0.93377
356.906,41.0478,5.34988,-1.74746,0.93339
357.506,41.10601,5.42401,-1.77577,0.93301
358.106,41.16433,5.48617,-1.80713,0.93264
358.706,41.2224,5.54948,-1.83539,0.93226
359.306,41.28071,5.60672,-1.86666,0.93188
359.906,41.33893,5.66034,-1.89576,0.9315
360.506,41.3969,5.71837,-1.92871,0.93112
361.106,41.45512,5.77121,-1.95915,0.93074
361.706,41.51285,5.7993,-1.99228,0.93036
362.306,41.57128,5.84182,-2.02302,0.92998
362.906,41.62965,5.86879,-2.05547,0.9296
363.506,41.68796,5.88979,-2.0889,0.92922
364.106,41.74661,5.90488,-2.12096,0.92884
364.706,41.80489,5.89877,-2.15492,0.92846
365.306,41.86305,5.90244,-2.18684,0.92808
365.906,41.9215,5.88504,-2.22039,0.9277
366.506,41.9799,5.85382,-2.25326,0.92731
367.106,42.03837,5.81665,-2.28687,0.92693
367.706,42.09668,5.76131,-2.32017,0.92654
368.306,42.1548,5.6991,-2.35125,0.92616
368.906,42.213,5.6243,-2.38265,0.92578
369.506,42.271,5.546,-2.41392,0.92539
370.106,42.32893,5.44358,-2.44433,0.925
370.706,42.38692,5.33475,-2.47241,0.92462
371.306,42.445,5.21215,-2.50088,0.92423
371.906,42.50314,5.07849,-2.53148,0.92384
372.506,42.56127,4.93139,-2.55834,0.92346
373.106,42.61937,4.77252,-2.58507,0.92307
373.706,42.67727,4.58664,-2.61083,0.92268
374.306,42.73485,4.40948,-2.63478,0.92229
374.906,42.79291,4.22713,-2.65879,0.9219
375.506,42.8508,4.04065,-2.67978,0.92151
376.106,42.90882,3.83348,-2.70207,0.92112
376.706,42.96673,3.62325,-2.72122,0.92073
377.306,43.02429,3.42368,-2.73914,0.92034
377.906,43.0819,3.21633,-2.75704,0.91995
378.506,43.13963,3.00401,-2.77192,0.91956
379.106,43.1974,2.80365,-2.78696,0.91917
379.706,43.2551,2.6107,-2.8004,0.91877
380.306,43.31282,2.41704,-2.81258,0.91838
380.906,43.37057,2.2313,-2.82354,0.91799
381.506,43.42843,2.05707,-2.83276,0.91759
382.106,43.48605,1.88922,-2.84151,0.9172
382.706,43.54367,1.7462,-2.85069,0.9168
383.306,43.60143,1.60823,-2.85895,0.91641
383.906,43.6593,1.48316,-2.86562,0.91601
384.506,43.71739,1.37936,-2.87014,0.91562
385.106,43.77533,1.27666,-2.87503,0.91522
385.706,43.83341,1.18673,-2.87931,0.91482
386.306,43.8915,1.10763,-2.88269,0.91442
386.906,43.9497,1.05131,-2.88693,0.91403
387.506,44.0078,1.00342,-2.8905,0.91363
388.106,44.0659,0.95369,-2.89382,0.91323
388.706,44.1239,0.92384,-2.89642,0.91283
389.306,44.1822,0.88695,-2.89843,0.91243
389.906,44.24041,0.85459,-2.90159,0.91203
390.506,44.29868,0.84208,-2.90296,0.91163
391.106,44.357,0.82116,-2.90582,0.91123
391.706,44.41498,0.82182,-2.9071,0.91083
392.306,44.47294,0.8003,-2.91027,0.91042
392.906,44.53112,0.78693,-2.91199,0.91002
393.506,44.58928,0.78085,-2.91414,0.90962
394.106,44.64775,0.7745,-2.91635,0.90922
394.706,44.70621,0.7694,-2.91778,0.90881
395.306,44.76447,0.75987,-2.91906,0.90841
395.906,44.8223,0.76033,-2.92053,0.908
396.506,44.88041,0.74395,-2.92278,0.9076
397.106,44.9386,0.73275,-2.92407,0.90719
397.706,44.99694,0.72671,-2.92608,0.90679
398.306,45.05571,0.72029,-2.92796,0.90638
398.906,45.1141,0.7184,-2.93057,0.90598
399.506,45.17263,0.71732,-2.93164,0.90557
400.106,45.23103,0.70401,-2.93439,0.90516
400.706,45.28944,0.69582,-2.93573,0.90475
401.306,45.34773,0.68708,-2.93721,0.90435
401.906,45.4061,0.6902,-2.93901,0.90394
402.506,45.4645,0.67938,-2.94026,0.90353
403.106,45.5229,0.66536,-2.94183,0.90312
403.706,45.5813,0.65981,-2.94317,0.90271
404.306,45.63973,0.64533,-2.94548,0.9023
404.906,45.6981,0.63955,-2.947,0.90189
405.506,45.75667,0.62879,-2.94857,0.90147
406.106,45.815,0.63146,-2.94991,0.90106
406.706,45.8737,0.62341,-2.95124,0.90065
407.306,45.93224,0.61236,-2.95272,0.90024
407.906,45.9908,0.60724,-2.95541,0.89983
408.506,46.04952,0.59196,-2.95811,0.89941
409.106,46.1081,0.58517,-2.95819,0.899
409.706,46.16655,0.57586,-2.95953,0.89858
410.306,46.22503,0.56396,-2.96361,0.89817
410.906,46.28351,0.55661,-2.96488,0.89775
411.506,46.342,0.55727,-2.96617,0.89734
412.106,46.40044,0.55466,-2.96768,0.89692
412.706,46.45878,0.54082,-2.96901,0.89651
413.306,46.51722,0.54417,-2.9703,0.89609
413.906,46.57508,0.54011,-2.972,0.89567
414.506,46.6338,0.53458,-2.97454,0.89525
415.106,46.69206,0.53014,-2.97714,0.89484
415.706,46.75063,0.51419,-2.97735,0.89442
416.306,46.80968,0.51112,-2.97929,0.894
416.906,46.86807,0.52124,-2.98246,0.89358
417.506,46.9268,0.5034,-2.98264,0.89316
418.106,46.98525,0.49703,-2.98452,0.89274
418.706,47.04392,0.49578,-2.98632,0.89232
419.306,47.1029,0.49278,-2.98803,0.8919
419.906,47.16158,0.48854,-2.9894,0.89147
420.506,47.22002,0.48891,-2.99215,0.89105
421.106,47.27833,0.48358,-2.99347,0.89063
421.706,47.33683,0.48176,-2.99479,0.89021
422.306,47.39537,0.48128,-2.99619,0.88978
422.906,47.45406,0.47737,-2.99817,0.88936
423.506,47.513,0.48463,-3.00027,0.88894
424.106,47.57184,0.47775,-3.00176,0.88851
424.706,47.63082,0.48573,-3.00367,0.88809
425.306,47.6897,0.48385,-3.00434,0.88766
425.906,47.74845,0.48834,-3.00565,0.88724
426.506,47.80713,0.48564,-3.00696,0.88681
427.106,47.86592,0.48535,-3.00824,0.88638
427.706,47.9245,0.49754,-3.01038,0.88596
428.306,47.9833,0.50256,-3.01244,0.88553
428.906,48.04214,0.50446,-3.01388,0.8851
429.506,48.10085,0.51047,-3.01521,0.88467
430.106,48.15979,0.50986,-3.01683,0.88424
430.706,48.21866,0.51709,-3.01939,0.88381
431.306,48.27749,0.52773,-3.02063,0.88338
431.906,48.33625,0.52746,-3.0219,0.88295
432.506,48.39502,0.52565,-3.02422,0.88252
433.106,48.45367,0.53825,-3.02587,0.88209
433.706,48.51258,0.54083,-3.0285,0.88166
434.306,48.5713,0.5482,-3.03002,0.88123
434.906,48.63017,0.55437,-3.03036,0.8808
435.506,48.68902,0.55457,-3.03165,0.88037
436.106,48.7477,0.56734,-3.03375,0.87993
436.706,48.8064,0.57067,-3.036,0.8795
437.306,48.8654,0.58532,-3.03794,0.87907
437.906,48.92434,0.59202,-3.03922,0.87863
438.506,48.98338,0.60572,-3.03928,0.8782
439.106,49.04235,0.60158,-3.03937,0.87776
439.706,49.1012,0.62198,-3.04101,0.87733
440.306,49.1599,0.62296,-3.04463,0.87689
440.906,49.21866,0.63564,-3.04596,0.87645
441.506,49.27746,0.63962,-3.04726,0.87602
442.106,49.33633,0.65409,-3.04725,0.87558
442.706,49.3953,0.66601,-3.0486,0.87514
443.306,49.45414,0.67393,-3.05073,0.87471
443.906,49.51305,0.67743,-3.05258,0.87427
444.506,49.57201,0.68978,-3.05263,0.87383
445.106,49.63067,0.69717,-3.05395,0.87339
445.706,49.68967,0.72004,-3.05601,0.87295
446.306,49.74845,0.73116,-3.05855,0.87251
446.906,49.80745,0.73813,-3.05934,0.87207
447.506,49.8667,0.75625,-3.06069,0.87163
448.106,49.9257,0.76069,-3.06198,0.87119
448.706,49.9847,0.77789,-3.06199,0.87075
449.306,50.04358,0.78661,-3.06332,0.8703
449.906,50.10244,0.79901,-3.06461,0.86986
450.506,50.16141,0.81039,-3.06591,0.86942
451.106,50.22039,0.82092,-3.06724,0.86897
451.706,50.27953,0.82489,-3.06856,0.86853
452.306,50.33845,0.83486,-3.06982,0.86809
452.906,50.3975,0.84869,-3.07117,0.86764
453.506,50.45655,0.85883,-3.07257,0.8672
454.106,50.51566,0.87728,-3.07382,0.86675
454.706,50.5749,0.88468,-3.07389,0.86631
455.306,50.63411,0.89297,-3.07515,0.86586
455.906,50.69321,0.89899,-3.07633,0.86541
456.506,50.7522,0.90535,-3.0776,0.86497
457.106,50.81111,0.91835,-3.08043,0.86452
457.706,50.87017,0.92627,-3.08042,0.86407
458.306,50.92931,0.93377,-3.08042,0.86362
458.906,50.98837,0.93884,-3.08174,0.86317
459.506,51.04743,0.94376,-3.08305,0.86273
460.106,51.1067,0.95325,-3.08437,0.86228
460.706,51.16608,0.95952,-3.08432,0.86183
461.306,51.22535,0.9612,-3.08569,0.86138
461.906,51.28463,0.97349,-3.08664,0.86093
462.506,51.3438,0.97638,-3.088,0.86047
463.106,51.40299,0.97742,-3.08862,0.86002
463.706,51.46215,0.98758,-3.08947,0.85957
464.306,51.5213,0.98368,-3.09067,0.85912
464.906,51.58055,1.00161,-3.09194,0.85867
465.506,51.63975,1.00642,-3.09193,0.85821
466.106,51.69918,1.01114,-3.09227,0.85776
466.706,51.75857,1.01165,-3.0933,0.85731
467.306,51.81785,1.01014,-3.09457,0.85685
467.906,51.8772,1.02523,-3.09528,0.8564
468.506,51.9364,1.02117,-3.09589,0.85594
469.106,51.99558,1.02576,-3.09698,0.85549
469.706,52.05495,1.03914,-3.09754,0.85503
470.306,52.1143,1.04083,-3.09854,0.85457
470.906,52.1734,1.04217,-3.09886,0.85412
471.506,52.23274,1.04991,-3.10117,0.85366
472.106,52.29193,1.05118,-3.10229,0.8532
472.706,52.351,1.0567,-3.1012,0.85275
473.306,52.41017,1.05087,-3.10248,0.85229
473.906,52.4693,1.06767,-3.1038,0.85183
474.506,52.52844,1.06771,-3.10511,0.85137
475.106,52.5877,1.07567,-3.10511,0.85091
475.706,52.64676,1.07474,-3.10522,0.85045
476.306,52.706,1.07716,-3.10654,0.84999
476.906,52.76536,1.07892,-3.10762,0.84953
477.506,52.8247,1.07754,-3.10784,0.84907
478.106,52.884,1.08635,-3.11014,0.84861
478.706,52.94324,1.08995,-3.11145,0.84814
479.306,53.00255,1.10443,-3.11269,0.84768
479.906,53.0619,1.10684,-3.11148,0.84722
480.506,53.12101,1.10055,-3.11155,0.84676
481.106,53.1802,1.11421,-3.11281,0.84629
481.706,53.2393,1.11236,-3.1141,0.84583
482.306,53.29851,1.1207,-3.11406,0.84537
482.906,53.35754,1.11062,-3.11412,0.8449
483.506,53.41672,1.11381,-3.11642,0.84444
484.106,53.4758,1.1253,-3.11643,0.84397
484.706,53.53499,1.12292,-3.11776,0.84351
485.306,53.59406,1.12546,-3.11774,0.84304
485.906,53.6533,1.13658,-3.11905,0.84257
486.506,53.7125,1.13906,-3.12038,0.84211
487.106,53.7719,1.14328,-3.12089,0.84164
487.706,53.8309,1.15087,-3.1217,0.84117
488.306,53.8902,1.14984,-3.12302,0.8407
488.906,53.94924,1.1504,-3.12303,0.84023
489.506,54.00841,1.15551,-3.12433,0.83976
490.106,54.0674,1.14908,-3.12564,0.8393
490.706,54.12639,1.1614,-3.12564,0.83883
491.306,54.18549,1.15699,-3.12697,0.83836
491.906,54.2447,1.16272,-3.12697,0.83789
492.506,54.30412,1.16603,-3.12773,0.83741
493.106,54.3635,1.17018,-3.1283,0.83694
493.706,54.4228,1.17272,-3.1296,0.83647
494.306,54.48214,1.17211,-3.12946,0.836
494.906,54.54153,1.16733,-3.12993,0.83553
495.506,54.60108,1.17747,-3.1313,0.83506
496.106,54.6603,1.17089,-3.13125,0.83458
496.706,54.7193,1.17609,-3.13153,0.83411
497.306,54.7788,1.17091,-3.13388,0.83363
497.906,54.83824,1.17937,-3.13519,0.83316
498.506,54.89827,1.17801,-3.13519,0.83269
499.106,54.958,1.18986,-3.13636,0.83221
499.706,55.0174,1.19711,-3.13652,0.83174
500.306,55.0769,1.18443,-3.13652,0.83126
500.906,55.13629,1.19277,-3.1378,0.83078
501.506,55.1958,1.19694,-3.1391,0.83031
502.106,55.2553,1.19859,-3.13915,0.82983
502.706,55.3147,1.19737,-3.14045,0.82935
503.306,55.3744,1.19892,-3.14047,0.82888
503.906,55.434,1.19728,-3.14082,0.8284
504.506,55.49364,1.2012,-3.14137,0.82792
505.106,55.55325,1.19764,-3.14211,0.82744
505.706,55.6128,1.20315,-3.14211,0.82696
506.306,55.6723,1.20152,-3.14211,0.82648
506.906,55.73195,1.20874,-3.14344,0.826
507.506,55.79152,1.20299,-3.14343,0.82552
508.106,55.851,1.20179,-3.14474,0.82504
508.706,55.91065,1.20899,-3.14579,0.82456
509.306,55.9702,1.21281,-3.14607,0.82408
509.906,56.0295,1.2162,-3.14738,0.8236
510.506,56.08879,1.21811,-3.14738,0.82311
511.106,56.14815,1.21785,-3.1487,0.82263
511.706,56.20811,1.21615,-3.14872,0.82215
512.306,56.26764,1.21637,-3.15002,0.82166
512.906,56.32754,1.21824,-3.14976,0.82118
513.506,56.3872,1.22078,-3.15101,0.8207
514.106,56.4468,1.23385,-3.14996,0.82021
514.706,56.50645,1.22597,-3.14959,0.81973
515.306,56.5659,1.22689,-3.1524,0.81924
515.906,56.62555,1.22317,-3.15365,0.81876
516.506,56.68495,1.22095,-3.15364,0.81827
517.106,56.74442,1.22301,-3.15355,0.81779
517.706,56.8041,1.22138,-3.15364,0.8173
518.306,56.8637,1.22003,-3.15364,0.81681
518.906,56.92325,1.22274,-3.15629,0.81632
519.506,56.98276,1.22517,-3.15488,0.81584
520.106,57.04229,1.23438,-3.15627,0.81535
520.706,57.1019,1.23037,-3.15627,0.81486
521.306,57.16137,1.23535,-3.15762,0.81437
521.906,57.22084,1.23066,-3.15759,0.81388
522.506,57.2802,1.23065,-3.15759,0.81339
523.106,57.33965,1.23601,-3.15891,0.8129
523.706,57.39905,1.22746,-3.16023,0.81241
524.306,57.45836,1.22908,-3.16153,0.81192
524.906,57.51794,1.23135,-3.16156,0.81143
525.506,57.57721,1.23092,-3.16286,0.81094
526.106,57.63655,1.22938,-3.16285,0.81045
526.706,57.6961,1.22952,-3.16418,0.80996
527.306,57.7556,1.22831,-3.16418,0.80946
527.906,57.81536,1.24207,-3.16548,0.80897
528.506,57.87494,1.23147,-3.1655,0.80848
529.106,57.93433,1.23399,-3.16551,0.80798
529.706,57.9938,1.23228,-3.16681,0.80749
530.306,58.0533,1.23872,-3.16823,0.807
530.906,58.11295,1.23071,-3.16813,0.8065
531.506,58.17259,1.23261,-3.16871,0.80601
532.106,58.23199,1.22814,-3.16945,0.80551
532.706,58.29136,1.23479,-3.16945,0.80502
533.306,58.35063,1.2384,-3.16911,0.80452
533.906,58.4101,1.23834,-3.17043,0.80402
534.506,58.4698,1.23064,-3.17175,0.80353
535.106,58.52949,1.24165,-3.17175,0.80303
535.706,58.5889,1.23986,-3.173,0.80253
536.306,58.6485,1.24028,-3.17307,0.80203
536.906,58.70808,1.23807,-3.17451,0.80154
537.506,58.76769,1.23212,-3.1734,0.80104
538.106,58.8274,1.23641,-3.17387,0.80054
538.706,58.887,1.24296,-3.1757,0.80004
539.306,58.94681,1.24323,-3.17687,0.79954
539.906,59.0066,1.23702,-3.17702,0.79904
540.506,59.06664,1.24067,-3.17702,0.79854
541.106,59.1265,1.23245,-3.17831,0.79804
541.706,59.18634,1.23313,-3.17835,0.79754
542.306,59.2461,1.22707,-3.17932,0.79704
542.906,59.30568,1.23275,-3.17838,0.79654
543.506,59.36537,1.23172,-3.17966,0.79604
544.106,59.42494,1.23667,-3.18071,0.79553
544.706,59.48441,1.22601,-3.18098,0.79503
545.306,59.5439,1.23081,-3.18117,0.79453
545.906,59.60363,1.22271,-3.1823,0.79402
546.506,59.66324,1.22424,-3.1823,0.79352
547.106,59.7232,1.22684,-3.18263,0.79302
547.706,59.7829,1.22321,-3.18359,0.79251
548.306,59.8427,1.21363,-3.18362,0.79201
548.906,59.90229,1.20931,-3.18493,0.7915
549.506,59.962,1.22366,-3.18493,0.791
550.106,60.02176,1.21858,-3.18625,0.79049
550.706,60.08166,1.21472,-3.18625,0.78999
551.306,60.14128,1.21656,-3.18626,0.78948
551.906,60.20078,1.21578,-3.18757,0.78897
552.506,60.26036,1.22499,-3.18755,0.78847
553.106,60.32023,1.22384,-3.18757,0.78796
553.706,60.38001,1.21981,-3.18757,0.78745
554.306,60.4399,1.21196,-3.18888,0.78694
554.906,60.4996,1.21361,-3.18888,0.78643
555.506,60.55936,1.21124,-3.18985,0.78593
556.106,60.61909,1.21098,-3.1902,0.78542
556.706,60.67896,1.21691,-3.19148,0.78491
557.306,60.73879,1.21643,-3.19152,0.7844
557.906,60.79869,1.21915,-3.19248,0.78389
558.506,60.85844,1.22118,-3.19284,0.78338
559.106,60.9183,1.22464,-3.19286,0.78287
559.706,60.97817,1.21733,-3.19415,0.78236
560.306,61.0381,1.20954,-3.19437,0.78184
560.906,61.09785,1.22069,-3.19513,0.78133
561.506,61.1578,1.21681,-3.19379,0.78082
562.106,61.21779,1.22246,-3.1953,0.78031
562.706,61.2778,1.20563,-3.19683,0.7798
563.306,61.3378,1.21425,-3.19565,0.77928
563.906,61.39781,1.21499,-3.19678,0.77877
564.506,61.45782,1.2169,-3.19678,0.77826
565.106,61.5175,1.213,-3.19809,0.77774
565.706,61.57734,1.21486,-3.19808,0.77723
566.306,61.63709,1.21079,-3.20074,0.77671
566.906,61.69712,1.20693,-3.19942,0.7762
567.506,61.75715,1.21207,-3.19917,0.77568
568.106,61.8171,1.21003,-3.1991,0.77517
568.706,61.87704,1.21987,-3.20041,0.77465
569.306,61.93699,1.218,-3.20175,0.77414
569.906,61.99691,1.21896,-3.20174,0.77362
570.506,62.0568,1.22232,-3.20086,0.7731
571.106,62.11681,1.21694,-3.20205,0.77259
571.706,62.1767,1.23034,-3.20407,0.77207
572.306,62.2366,1.22026,-3.20426,0.77155
572.906,62.29631,1.21857,-3.20568,0.77103
573.506,62.3562,1.22097,-3.20568,0.77051
574.106,62.4161,1.22152,-3.20558,0.77
574.706,62.47569,1.22716,-3.20699,0.76948
575.306,62.5353,1.22176,-3.20693,0.76896
575.906,62.5951,1.22498,-3.20796,0.76844
576.506,62.65491,1.22883,-3.20682,0.76792
577.106,62.715,1.23365,-3.20699,0.7674
577.706,62.7751,1.24146,-3.20699,0.76688
578.306,62.83494,1.23863,-3.20832,0.76636
578.906,62.89496,1.24373,-3.20831,0.76583
579.506,62.95511,1.2537,-3.20831,0.76531
580.106,63.01509,1.23537,-3.20792,0.76479
580.706,63.0749,1.24239,-3.20833,0.76427
581.306,63.13496,1.24753,-3.20963,0.76375
581.906,63.195,1.24486,-3.21096,0.76322
582.506,63.2553,1.24611,-3.21226,0.7627
583.106,63.31519,1.23151,-3.21226,0.76218
583.706,63.3749,1.23858,-3.21331,0.76165
584.306,63.43456,1.24714,-3.21325,0.76113
584.906,63.49455,1.24502,-3.2134,0.76061
585.506,63.5545,1.24802,-3.21379,0.76008
586.106,63.6145,1.2501,-3.21359,0.75956
586.706,63.6744,1.24707,-3.2149,0.75903
587.306,63.7342,1.25835,-3.21585,0.75851
587.906,63.7941,1.24789,-3.2149,0.75798
588.506,63.85402,1.24769,-3.21491,0.75745
589.106,63.91395,1.25999,-3.21758,0.75693
589.706,63.97387,1.2536,-3.21659,0.7564
590.306,64.03365,1.25357,-3.21754,0.75587
590.906,64.0933,1.24727,-3.21754,0.75535
591.506,64.15306,1.24568,-3.21886,0.75482
592.106,64.21302,1.25136,-3.21886,0.75429
592.706,64.27314,1.24199,-3.21886,0.75376
593.306,64.33295,1.23868,-3.2191,0.75324
593.906,64.39275,1.23986,-3.22017,0.75271
594.506,64.45218,1.24643,-3.22031,0.75218
595.106,64.51174,1.24046,-3.2213,0.75165
595.706,64.57172,1.24207,-3.22177,0.75112
596.306,64.6315,1.24717,-3.22149,0.75059
596.906,64.69192,1.2479,-3.222,0.75006
597.506,64.7517,1.25069,-3.22281,0.74953
598.106,64.81164,1.24858,-3.22281,0.749
598.706,64.87168,1.24867,-3.22279,0.74847
599.306,64.93176,1.24839,-3.22412,0.74794
599.906,64.99199,1.25026,-3.22509,0.7474
600.506,65.0519,1.24529,-3.22511,0.74687
601.106,65.11186,1.24954,-3.22516,0.74634
601.706,65.17195,1.25097,-3.22596,0.74581
602.306,65.23201,1.25567,-3.22676,0.74528
602.906,65.29217,1.25706,-3.22676,0.74474
603.506,65.3523,1.24907,-3.22676,0.74421
604.106,65.4126,1.25325,-3.22807,0.74368
604.706,65.47285,1.2642,-3.2294,0.74314
605.306,65.53313,1.25636,-3.22939,0.74261
605.906,65.5933,1.27192,-3.22839,0.74207
606.506,65.6535,1.2684,-3.22972,0.74154
607.106,65.71347,1.27206,-3.22972,0.741
607.706,65.77365,1.27695,-3.23037,0.74047
608.306,65.83383,1.27585,-3.23039,0.73993
608.906,65.89401,1.27468,-3.2317,0.7394
609.506,65.9542,1.27595,-3.23208,0.73886
610.106,66.01442,1.26822,-3.23222,0.73832
610.706,66.07467,1.2676,-3.23169,0.73779
611.306,66.13494,1.26747,-3.23169,0.73725
611.906,66.19527,1.27312,-3.23407,0.73671
612.506,66.25546,1.2735,-3.23442,0.73618
613.106,66.31569,1.27296,-3.23426,0.73564
613.706,66.37572,1.27187,-3.23358,0.7351
614.306,66.43584,1.29097,-3.23467,0.73456
614.906,66.49597,1.27377,-3.23478,0.73402
615.506,66.55606,1.26705,-3.23619,0.73349
616.106,66.61629,1.27007,-3.23541,0.73295
616.706,66.67656,1.27079,-3.23521,0.73241
617.306,66.73684,1.27241,-3.23649,0.73187
617.906,66.79705,1.27914,-3.2376,0.73133
618.506,66.85724,1.28618,-3.23784,0.73079
619.106,66.9172,1.2747,-3.23784,0.73025
619.706,66.97715,1.27631,-3.23915,0.72971
620.306,67.03735,1.274,-3.23916,0.72917
620.906,67.0972,1.28036,-3.23867,0.72863
621.506,67.15731,1.28986,-3.23986,0.72808
622.106,67.21729,1.27757,-3.24054,0.72754
622.706,67.27744,1.28278,-3.24114,0.727
623.306,67.33761,1.28411,-3.24115,0.72646
623.906,67.39777,1.28627,-3.23999,0.72592
624.506,67.4576,1.28421,-3.24117,0.72537
625.106,67.51743,1.28968,-3.24224,0.72483
625.706,67.57728,1.29434,-3.24224,0.72429
626.306,67.63722,1.28698,-3.24267,0.72374
626.906,67.69734,1.28564,-3.24337,0.7232
627.506,67.75735,1.28258,-3.24257,0.72266
628.106,67.81746,1.28012,-3.24257,0.72211
628.706,67.87762,1.28244,-3.24388,0.72157
629.306,67.93776,1.29095,-3.2438,0.72102
629.906,67.9979,1.29298,-3.24514,0.72048
630.506,68.05789,1.27643,-3.24578,0.71993
631.106,68.11803,1.2817,-3.24718,0.71939
631.706,68.17826,1.27987,-3.24718,0.71884
632.306,68.23868,1.27581,-3.24631,0.7183
632.906,68.2988,1.28486,-3.24718,0.71775
633.506,68.35885,1.29049,-3.24718,0.7172
634.106,68.4187,1.28331,-3.24718,0.71666
634.706,68.47885,1.28498,-3.24718,0.71611
635.306,68.53905,1.29107,-3.24846,0.71556
635.906,68.5993,1.30201,-3.24849,0.71502
636.506,68.65938,1.29533,-3.24981,0.71447
637.106,68.71951,1.28922,-3.24981,0.71392
637.706,68.77979,1.30904,-3.24981,0.71337
638.306,68.83978,1.29504,-3.24981,0.71282
638.906,68.8998,1.30562,-3.25113,0.71227
639.506,68.96006,1.29492,-3.25113,0.71173
640.106,69.02055,1.30037,-3.25113,0.71118
640.706,69.08081,1.30333,-3.25146,0.71063
641.306,69.14099,1.31497,-3.25014,0.71008
641.906,69.2011,1.31274,-3.25116,0.70953
642.506,69.26131,1.31962,-3.25113,0.70898
643.106,69.3215,1.3133,-3.25247,0.70843
643.706,69.3815,1.32251,-3.25244,0.70788
644.306,69.4416,1.32497,-3.25244,0.70733
644.906,69.50176,1.33111,-3.25244,0.70678
645.506,69.56224,1.33356,-3.25376,0.70622
646.106,69.6225,1.33988,-3.25376,0.70567
646.706,69.6828,1.33752,-3.25376,0.70512
647.306,69.74308,1.33365,-3.25509,0.70457
647.906,69.80335,1.33895,-3.25637,0.70402
648.506,69.86372,1.33475,-3.25507,0.70347
649.106,69.92418,1.32785,-3.2564,0.70291
649.706,69.98493,1.33134,-3.2564,0.70236
649.806,69.99501,1.33303,-3.2564,0.70227