File: 01_Data/PET/STA/N2/30K_min/PET_STA_N2_30KData_210827_R1.csv
##Temp./Â°C,Time/min,Mass loss(subtr.2)/mg,DSC(subtr.2)/(mW/mg),Sensit./(uV/mW)
49.381,10.01,0.00625,-0.01236721,1.05401
49.881,10.9777,0.00363701,-0.001077388,1.05402
50.381,11.18755,0.002435496,0.00645755,1.05403
50.881,11.33187,0.004917093,0.01348108,1.05404
51.381,11.44417,0.002877766,0.01713853,1.05404
51.881,11.54021,0.001106709,0.02421497,1.05405
52.381,11.62186,0.002823638,0.02972126,1.05406
52.881,11.6976,0.00302813,0.03719763,1.05406
53.381,11.76717,0.001216925,0.03978045,1.05406
53.881,11.83024,0.001104318,0.04457936,1.05406
54.381,11.88875,0.00285293,0.046671,1.05406
54.881,11.94471,0.00284545,0.0506365,1.05406
55.381,11.99742,0.003310498,0.05566083,1.05406
55.881,12.04822,0.004347131,0.05986144,1.05405
56.381,12.09651,0.002907223,0.06377305,1.05405
56.881,12.1428,0.002565857,0.06741776,1.05404
57.381,12.1878,0.00285947,0.06714048,1.05404
57.881,12.23145,0.002505162,0.06833274,1.05403
58.381,12.27403,0.002175134,0.0726202,1.05402
58.881,12.31552,0.00346995,0.0774367,1.05401
59.381,12.35597,0.00296202,0.07693573,1.05399
59.881,12.39558,0.00258927,0.08157571,1.05398
60.381,12.43426,0.003649175,0.0835041,1.05397
60.881,12.4713,0.00263947,0.08474697,1.05395
61.381,12.50822,0.001169137,0.08416923,1.05393
61.881,12.5449,0.00170167,0.08828948,1.05391
62.381,12.5815,0.00255924,0.09190554,1.05389
62.881,12.6166,0.001792245,0.09097983,1.05387
63.381,12.65127,0.00305519,0.09416349,1.05385
63.881,12.68559,0.00137586,0.0949388,1.05383
64.381,12.7198,0.001090314,0.09713293,1.0538
64.881,12.7535,0.00311167,0.09807413,1.05378
65.381,12.78647,0.00305443,0.1026,1.05375
65.881,12.81944,0.002848363,0.10228,1.05372
66.381,12.8519,0.00184817,0.10462,1.05369
66.881,12.884,0.00204982,0.10662,1.05366
67.381,12.9156,0.00149359,0.10916,1.05363
67.881,12.94709,0.001311522,0.11225,1.0536
68.381,12.97818,0.002557063,0.1149,1.05357
68.881,13.009,0.00288795,0.11395,1.05353
69.381,13.03975,0.002659257,0.12023,1.05349
69.881,13.07008,0.001319251,0.12011,1.05346
70.381,13.10013,0.0023167,0.12082,1.05342
70.881,13.12987,0.003386949,0.12464,1.05338
71.381,13.15966,0.00350562,0.12572,1.05334
71.881,13.18927,0.00195942,0.13061,1.05329
72.381,13.21858,0.00241296,0.13365,1.05325
72.881,13.24758,0.003331217,0.13196,1.05321
73.381,13.2765,0.004011331,0.13251,1.05316
73.881,13.3053,0.003613869,0.13512,1.05311
74.381,13.3338,0.002492598,0.1314,1.05307
74.881,13.3619,0.00256083,0.13263,1.05302
75.381,13.3899,0.00351927,0.13235,1.05297
75.881,13.4178,0.003484,0.13005,1.05291
76.381,13.4458,0.00254233,0.12814,1.05286
76.881,13.4735,0.003191797,0.12714,1.05281
77.381,13.50085,0.00340445,0.1266,1.05275
77.881,13.5278,0.00287443,0.1257,1.0527
78.381,13.55475,0.00201293,0.1265,1.05264
78.881,13.5815,0.00134061,0.12724,1.05258
79.381,13.6082,0.001336022,0.12945,1.05252
79.881,13.63483,0.00237799,0.13374,1.05246
80.381,13.66111,0.0031981,0.13525,1.0524
80.881,13.68718,0.00340158,0.13976,1.05233
81.381,13.71297,0.003223817,0.14315,1.05227
81.881,13.73879,0.00319093,0.14745,1.0522
82.381,13.7645,0.0031699,0.1509,1.05214
82.881,13.79014,0.002858648,0.15637,1.05207
83.381,13.8155,0.00264126,0.15842,1.052
83.881,13.8408,0.002563245,0.16351,1.05193
84.381,13.8659,0.001959155,0.16665,1.05186
84.881,13.89088,0.00258784,0.16777,1.05178
85.381,13.91566,0.002193871,0.17211,1.05171
85.881,13.9402,0.00307993,0.17793,1.05164
86.381,13.96475,0.003880196,0.17857,1.05156
86.881,13.9892,0.004956202,0.18166,1.05148
87.381,14.01326,0.00409507,0.18409,1.0514
87.881,14.0373,0.00325826,0.18659,1.05133
88.381,14.06119,0.003332183,0.18843,1.05124
88.881,14.08485,0.002623248,0.19263,1.05116
89.381,14.10861,0.00276875,0.19582,1.05108
89.881,14.13215,0.00204827,0.19742,1.051
90.381,14.15524,0.003023623,0.19888,1.05091
90.881,14.1784,0.00206008,0.19971,1.05082
91.381,14.2016,-0.004245432,0.2005,1.05074
91.881,14.2247,-0.01109581,0.20384,1.05065
92.381,14.24804,-0.00382629,0.20696,1.05056
92.881,14.271,0.01008874,0.21094,1.05047
93.381,14.2937,0.01137598,0.21284,1.05038
93.881,14.31613,0.005893054,0.21378,1.05028
94.381,14.3383,0.00194164,0.21695,1.05019
94.881,14.3605,0.0001701191,0.2194,1.05009
95.381,14.38274,0.0004569326,0.22196,1.05
95.881,14.4048,0.0009707639,0.22395,1.0499
96.381,14.4268,0.00189803,0.22683,1.0498
96.881,14.44878,0.00310199,0.2266,1.0497
97.381,14.47055,0.001778308,0.22656,1.0496
97.881,14.49235,0.00105254,0.22718,1.0495
98.381,14.5141,0.001617596,0.23256,1.0494
98.881,14.53563,0.001829489,0.23137,1.04929
99.381,14.557,0.00307893,0.23268,1.04919
99.881,14.5783,0.002825759,0.23318,1.04908
100.381,14.5995,0.00330996,0.23745,1.04897
100.881,14.6207,0.001648216,0.23833,1.04886
101.381,14.6417,0.001709745,0.24065,1.04875
101.881,14.6626,0.001477432,0.24152,1.04864
102.381,14.68361,0.001551865,0.24299,1.04853
102.881,14.70429,0.003296629,0.24467,1.04842
103.381,14.72512,0.002172323,0.24621,1.0483
103.881,14.7458,0.001976315,0.24642,1.04819
104.381,14.7664,0.002772232,0.24943,1.04807
104.881,14.78699,0.00184529,0.24919,1.04796
105.381,14.80741,0.002550697,0.252,1.04784
105.881,14.8278,0.001631034,0.25367,1.04772
106.381,14.84811,0.001670045,0.25519,1.0476
106.881,14.86835,0.002495725,0.25619,1.04747
107.381,14.8884,0.001641388,0.26115,1.04735
107.881,14.9085,0.003183074,0.2594,1.04723
108.381,14.92845,0.002461698,0.25983,1.0471
108.881,14.9484,0.00333624,0.26199,1.04698
109.381,14.9683,0.002988008,0.26481,1.04685
109.881,14.9882,0.003513403,0.2639,1.04672
110.381,15.008,0.002261317,0.26565,1.04659
110.881,15.02774,0.002140681,0.26636,1.04646
111.381,15.0473,0.00198707,0.26833,1.04633
111.881,15.0667,0.00200672,0.26926,1.0462
112.381,15.08624,0.002617791,0.27299,1.04606
112.881,15.1057,0.00182418,0.27414,1.04593
113.381,15.1252,0.00312675,0.275,1.04579
113.881,15.14463,0.00299384,0.277,1.04566
114.381,15.1638,0.00341002,0.27784,1.04552
114.881,15.183,0.002144068,0.27948,1.04538
115.381,15.20212,0.003138745,0.28245,1.04524
115.881,15.2212,0.003019838,0.28466,1.0451
116.381,15.2403,0.002726282,0.28585,1.04496
116.881,15.2594,0.002419631,0.28438,1.04481
117.381,15.2783,0.002410678,0.28681,1.04467
117.881,15.2973,0.00239929,0.28819,1.04452
118.381,15.31616,0.002172031,0.28752,1.04438
118.881,15.33496,0.00247269,0.29122,1.04423
119.381,15.35369,0.00255646,0.29078,1.04408
119.881,15.37251,0.002490559,0.29337,1.04393
120.381,15.3911,0.002528153,0.29333,1.04378
120.881,15.40965,0.00189159,0.29497,1.04363
121.381,15.4282,0.001710749,0.29548,1.04348
121.881,15.4468,0.002649168,0.29711,1.04332
122.381,15.46529,0.001180394,0.29953,1.04317
122.881,15.48371,0.002462029,0.29963,1.04301
123.381,15.50206,0.00263317,0.29934,1.04286
123.881,15.52031,0.002996444,0.3012,1.0427
124.381,15.53839,0.00376793,0.30348,1.04254
124.881,15.5562,0.00265917,0.30622,1.04238
125.381,15.5744,0.004208784,0.30559,1.04222
125.881,15.5925,0.003222205,0.30756,1.04206
126.381,15.6106,0.004091658,0.31016,1.04189
126.881,15.6287,0.004084234,0.31042,1.04173
127.381,15.64706,0.002878752,0.3122,1.04157
127.881,15.66495,0.002844962,0.31106,1.0414
128.381,15.68283,0.002031044,0.31247,1.04123
128.881,15.70071,0.002512859,0.31195,1.04106
129.381,15.71845,0.002308596,0.31354,1.04089
129.881,15.7362,0.002127315,0.3156,1.04072
130.381,15.754,0.002491435,0.31758,1.04055
130.881,15.7717,0.003020755,0.31704,1.04038
131.381,15.78938,0.003849938,0.31894,1.04021
131.881,15.8071,0.003830615,0.31877,1.04003
132.381,15.8246,0.00360167,0.32111,1.03986
132.881,15.842,0.003023262,0.32327,1.03968
133.381,15.85951,0.003960241,0.32274,1.03951
133.881,15.87694,0.005117849,0.32403,1.03933
134.381,15.89429,0.004011388,0.32542,1.03915
134.881,15.91172,0.003934597,0.32563,1.03897
135.381,15.929,0.004575939,0.3287,1.03879
135.881,15.9463,0.004025758,0.33023,1.0386
136.381,15.96349,0.003959884,0.33173,1.03842
136.881,15.98071,0.00396081,0.33052,1.03824
137.381,15.9979,0.00319459,0.33427,1.03805
137.881,16.01504,0.002966743,0.33527,1.03787
138.381,16.03218,0.0034367,0.3357,1.03768
138.881,16.04926,0.00258998,0.33853,1.03749
139.381,16.06626,0.003908055,0.33756,1.0373
139.881,16.08321,0.00394791,0.34021,1.03711
140.381,16.1002,0.003950113,0.34273,1.03692
140.881,16.11714,0.003813082,0.34161,1.03673
141.381,16.1341,0.002377105,0.34318,1.03654
141.881,16.15096,0.003279865,0.34602,1.03634
142.381,16.16783,0.003635363,0.34501,1.03615
142.881,16.18463,0.003124482,0.34668,1.03595
143.381,16.2014,0.004064749,0.34864,1.03575
143.881,16.2181,0.004152378,0.35162,1.03556
144.381,16.2348,0.002978399,0.35089,1.03536
144.881,16.25153,0.003072177,0.35492,1.03516
145.381,16.2682,0.003106975,0.35518,1.03496
145.881,16.28479,0.002706585,0.35672,1.03475
146.381,16.3014,0.00270905,0.35684,1.03455
146.881,16.31803,0.00248808,0.36156,1.03435
147.381,16.33452,0.00251383,0.36032,1.03414
147.881,16.35107,0.002518304,0.36032,1.03394
148.381,16.36759,0.002545517,0.36208,1.03373
148.881,16.384,0.002901575,0.36494,1.03352
149.381,16.40042,0.00326954,0.3662,1.03332
149.881,16.4168,0.002603505,0.3661,1.03311
150.381,16.43323,0.002636109,0.36789,1.0329
150.881,16.44956,0.002639855,0.36936,1.03268
151.381,16.46591,0.00255866,0.37154,1.03247
151.881,16.48232,0.001117632,0.3725,1.03226
152.381,16.49861,0.001196614,0.3741,1.03205
152.881,16.51484,0.001599479,0.37699,1.03183
153.381,16.53106,0.001184474,0.37783,1.03161
153.881,16.5473,0.001642698,0.37941,1.0314
154.381,16.5635,0.002704613,0.37945,1.03118
154.881,16.57961,0.002638867,0.38219,1.03096
155.381,16.59571,0.00263846,0.38336,1.03074
155.881,16.61178,0.002637545,0.38567,1.03052
156.381,16.62782,0.002662281,0.38718,1.0303
156.881,16.64386,0.002974902,0.38915,1.03008
157.381,16.65989,0.003959568,0.39144,1.02985
157.881,16.67592,0.003961725,0.39231,1.02963
158.381,16.69195,0.003976772,0.39371,1.0294
158.881,16.7079,0.00365774,0.39587,1.02918
159.381,16.72399,0.003992645,0.39651,1.02895
159.881,16.73988,0.003950282,0.39914,1.02872
160.381,16.75584,0.002997763,0.39891,1.02849
160.881,16.7717,0.002649733,0.39996,1.02826
161.381,16.78749,0.002620193,0.40096,1.02803
161.881,16.80337,0.00330396,0.40411,1.0278
162.381,16.81918,0.003957339,0.40488,1.02757
162.881,16.83501,0.00363714,0.40603,1.02733
163.381,16.85079,0.00154005,0.40811,1.0271
163.881,16.86666,-0.0002910857,0.40932,1.02687
164.381,16.88253,-0.00437741,0.41008,1.02663
164.881,16.89825,-0.002980408,0.415,1.02639
165.381,16.914,0.00227326,0.41565,1.02615
165.881,16.9297,0.007598181,0.41794,1.02592
166.381,16.94533,0.009734969,0.41775,1.02568
166.881,16.9609,0.01031131,0.41907,1.02543
167.381,16.97653,0.007593659,0.4205,1.02519
167.881,16.99215,0.005684019,0.42224,1.02495
168.381,17.00776,0.00381819,0.42395,1.02471
168.881,17.0233,0.003373438,0.42483,1.02446
169.381,17.03894,0.00230374,0.42393,1.02422
169.881,17.05452,0.002301193,0.42775,1.02397
170.381,17.07005,0.002299999,0.42787,1.02373
170.881,17.08557,0.002301801,0.43166,1.02348
171.381,17.101,0.00230481,0.42922,1.02323
171.881,17.11652,0.002203814,0.43247,1.02298
172.381,17.13196,0.00342771,0.43246,1.02273
172.881,17.14741,0.003623617,0.43518,1.02248
173.381,17.16289,0.003620477,0.43684,1.02223
173.881,17.17829,0.003619962,0.43727,1.02197
174.381,17.19371,0.003620085,0.43773,1.02172
174.881,17.20906,0.003619776,0.4384,1.02147
175.381,17.22448,0.003614234,0.44132,1.02121
175.881,17.23979,0.003932622,0.44255,1.02095
176.381,17.25506,0.004994126,0.44346,1.0207
176.881,17.27047,0.00490351,0.4434,1.02044
177.381,17.28571,0.00366654,0.44699,1.02018
177.881,17.3009,0.003620877,0.44823,1.01992
178.381,17.31604,0.003617708,0.44834,1.01966
178.881,17.3312,0.0036133,0.45002,1.0194
179.381,17.3464,0.002606429,0.45056,1.01914
179.881,17.36146,0.002315202,0.45333,1.01887
180.381,17.37663,0.002417,0.45496,1.01861
180.881,17.39183,0.003694,0.45493,1.01834
181.381,17.40694,0.00360493,0.45604,1.01808
181.881,17.42205,0.003624277,0.45675,1.01781
182.381,17.4371,0.003568366,0.45937,1.01754
182.881,17.45216,0.004443604,0.4623,1.01728
183.381,17.46722,0.003880057,0.46289,1.01701
183.881,17.48222,0.00365519,0.46473,1.01674
184.381,17.49721,0.00362549,0.46663,1.01647
184.881,17.51219,0.00362909,0.46791,1.0162
185.381,17.52719,0.003633588,0.46889,1.01592
185.881,17.54213,0.00365176,0.46946,1.01565
186.381,17.557,0.00321401,0.47088,1.01538
186.881,17.5719,0.00226888,0.47301,1.0151
187.381,17.58686,0.002318789,0.47288,1.01483
187.881,17.6018,0.002310788,0.47561,1.01455
188.381,17.6165,0.002309381,0.47694,1.01427
188.881,17.6314,0.002308416,0.48065,1.01399
189.381,17.64629,0.002411838,0.47953,1.01372
189.881,17.6612,0.003675046,0.48085,1.01344
190.381,17.67595,0.00358428,0.48364,1.01316
190.881,17.69076,0.003591951,0.48221,1.01287
191.381,17.70567,0.002544291,0.48509,1.01259
191.881,17.7205,0.002332522,0.48683,1.01231
192.381,17.73522,0.0035567,0.48922,1.01203
192.881,17.74996,0.00362005,0.49054,1.01174
193.381,17.76473,0.00362055,0.49123,1.01146
193.881,17.7794,0.003619985,0.49309,1.01117
194.381,17.79415,0.00361999,0.49408,1.01088
194.881,17.80886,0.003620002,0.49803,1.0106
195.381,17.8235,0.003620027,0.49873,1.01031
195.881,17.8382,0.0036199,0.5026,1.01002
196.381,17.85286,0.00361889,0.50267,1.00973
196.881,17.8675,0.003626443,0.50219,1.00944
197.381,17.88216,0.003083057,0.50489,1.00915
197.881,17.89678,0.00224747,0.50598,1.00886
198.381,17.91142,0.00230459,0.51016,1.00856
198.881,17.92604,0.00232548,0.50997,1.00827
199.381,17.9406,0.00233051,0.51221,1.00797
199.881,17.95516,0.00337193,0.51416,1.00768
200.381,17.9696,0.003623248,0.51757,1.00738
200.881,17.98413,0.003623628,0.51949,1.00709
201.381,17.99866,0.003619752,0.51919,1.00679
201.881,18.01315,0.003619903,0.52119,1.00649
202.381,18.02769,0.003620156,0.52245,1.00619
202.881,18.04221,0.00362103,0.52333,1.00589
203.381,18.05676,0.003611359,0.52653,1.00559
203.881,18.07124,0.00405767,0.52709,1.00529
204.381,18.08567,0.00408721,0.53028,1.00499
204.881,18.10015,0.003622877,0.53156,1.00468
205.381,18.11453,0.003617712,0.53159,1.00438
205.881,18.12898,0.00336769,0.53355,1.00408
206.381,18.14336,0.00219994,0.53521,1.00377
206.881,18.15767,0.00232399,0.53741,1.00346
207.381,18.17213,0.002388309,0.53869,1.00316
207.881,18.18654,0.003464993,0.53786,1.00285
208.381,18.201,0.003630668,0.53909,1.00254
208.881,18.21538,0.003117286,0.5416,1.00223
209.381,18.22976,0.002310842,0.54242,1.00192
209.881,18.24425,0.002313079,0.54456,1.00161
210.381,18.25862,0.00230548,0.54588,1.0013
210.881,18.27299,0.00293953,0.54887,1.00099
211.381,18.2873,0.003682521,0.55239,1.00068
211.881,18.30165,0.003634947,0.55266,1.00037
212.381,18.31599,0.003628777,0.55237,1.00005
212.881,18.3303,0.003630161,0.55331,0.99974
213.381,18.3446,0.00361771,0.5592,0.99942
213.881,18.35885,0.003658529,0.55945,0.99911
214.381,18.37313,0.002712806,0.55896,0.99879
214.881,18.38741,0.002287555,0.56332,0.99847
215.381,18.40166,0.002329837,0.56378,0.99815
215.881,18.41592,0.00190875,0.5648,0.99783
216.381,18.4302,0.001652434,0.56543,0.99751
216.881,18.4445,0.001644971,0.56802,0.99719
217.381,18.45872,0.001650328,0.57002,0.99687
217.881,18.4729,0.001650095,0.57002,0.99655
218.381,18.48715,0.001649985,0.57257,0.99623
218.881,18.50139,0.001649998,0.57271,0.99591
219.381,18.5156,0.00165001,0.57599,0.99558
219.881,18.52979,0.00165,0.57707,0.99526
220.381,18.54397,0.00164961,0.57656,0.99493
220.881,18.55816,0.001651422,0.57891,0.99461
221.381,18.57235,0.001662043,0.58076,0.99428
221.881,18.58652,0.00155337,0.58095,0.99395
222.381,18.60067,0.002692865,0.58168,0.99363
222.881,18.61484,0.00297664,0.58255,0.9933
223.381,18.629,0.00296966,0.58458,0.99297
223.881,18.6432,0.002969865,0.58677,0.99264
224.381,18.65736,0.00297004,0.58591,0.99231
224.881,18.67151,0.002970092,0.58928,0.99198
225.381,18.68564,0.002909464,0.58923,0.99164
225.881,18.69978,0.00165121,0.58838,0.99131
226.381,18.71385,0.00288174,0.59367,0.99098
226.881,18.72795,0.00296016,0.59301,0.99064
227.381,18.74205,0.002960023,0.59532,0.99031
227.881,18.75611,0.002959994,0.59614,0.98997
228.381,18.77018,0.00296,0.5972,0.98964
228.881,18.7842,0.00296,0.59927,0.9893
229.381,18.79832,0.00296,0.60013,0.98896
229.881,18.8124,0.00296,0.60089,0.98863
230.381,18.82645,0.00296,0.60155,0.98829
230.881,18.84048,0.00296,0.60408,0.98795
231.381,18.85452,0.00296,0.6058,0.98761
231.881,18.8686,0.002960001,0.60635,0.98727
232.381,18.88256,0.002960013,0.60901,0.98693
232.881,18.8965,0.00295991,0.60763,0.98658
233.381,18.91056,0.00295988,0.60996,0.98624
233.881,18.92454,0.00296416,0.60984,0.9859
234.381,18.93853,0.002948395,0.61294,0.98556
234.881,18.9526,0.00282295,0.61232,0.98521
235.381,18.96654,0.002186831,0.61504,0.98487
235.881,18.9806,0.002991375,0.6149,0.98452
236.381,18.99458,0.00295272,0.6168,0.98417
236.881,19.00845,0.002971418,0.61951,0.98383
237.381,19.02244,0.002970305,0.61912,0.98348
237.881,19.03639,0.002969936,0.62013,0.98313
238.381,19.05039,0.002970001,0.62485,0.98278
238.881,19.06436,0.00296989,0.62459,0.98243
239.381,19.07834,0.00297035,0.62488,0.98208
239.881,19.09228,0.002973052,0.62753,0.98173
240.381,19.10633,0.00294439,0.62921,0.98138
240.881,19.12025,0.003310574,0.6286,0.98103
241.381,19.13414,0.00361581,0.63177,0.98068
241.881,19.14803,0.00389399,0.63371,0.98033
242.381,19.16187,0.00394363,0.63619,0.97997
242.881,19.1758,0.003938346,0.63795,0.97962
243.381,19.18971,0.003958471,0.63732,0.97926
243.881,19.20365,0.00299292,0.64096,0.97891
244.381,19.21755,0.002605108,0.64232,0.97855
244.881,19.2315,0.002629428,0.64509,0.97819
245.381,19.24537,0.002606308,0.64557,0.97784
245.881,19.25924,0.002667637,0.64459,0.97748
246.381,19.27307,0.001456558,0.64734,0.97712
246.881,19.2869,0.0013154,0.65059,0.97676
247.381,19.30076,0.00131979,0.64979,0.9764
247.881,19.31462,0.001320137,0.65154,0.97604
248.381,19.3285,0.00131999,0.6533,0.97568
248.881,19.34233,0.001320002,0.65538,0.97532
249.381,19.35625,0.001319965,0.65663,0.97496
249.881,19.37009,0.001319993,0.65893,0.9746
250.381,19.38391,0.00132146,0.66059,0.97423
250.881,19.39771,0.001313942,0.66202,0.97387
251.381,19.41154,0.001793755,0.66034,0.9735
251.881,19.42536,0.00272639,0.66412,0.97314
252.381,19.43913,0.00263587,0.66448,0.97277
252.881,19.4529,0.002636303,0.66549,0.97241
253.381,19.46676,0.002652227,0.66872,0.97204
253.881,19.4805,0.002655465,0.66922,0.97168
254.381,19.4943,0.00286327,0.67064,0.97131
254.881,19.50798,0.002611591,0.67418,0.97094
255.381,19.52176,0.00262755,0.67632,0.97057
255.881,19.53556,0.002630752,0.67856,0.9702
256.381,19.5493,0.00262999,0.67648,0.96983
256.881,19.56314,0.00263036,0.68049,0.96946
257.381,19.5769,0.00262783,0.68035,0.96909
257.881,19.59072,0.002626027,0.6824,0.96872
258.381,19.6046,0.00182565,0.68352,0.96835
258.881,19.61819,0.00128679,0.68491,0.96797
259.381,19.63195,0.001314639,0.68778,0.9676
259.881,19.64573,0.001321522,0.69013,0.96723
260.381,19.6595,0.001319958,0.69039,0.96685
260.881,19.67332,0.00131994,0.69087,0.96648
261.381,19.68704,0.00132013,0.69339,0.9661
261.881,19.7009,0.00132029,0.69407,0.96573
262.381,19.71473,0.001313849,0.69348,0.96535
262.881,19.7285,0.001337295,0.69721,0.96498
263.381,19.7422,0.001484399,0.69771,0.9646
263.881,19.7559,0.002585052,0.69852,0.96422
264.381,19.76965,0.002630436,0.70168,0.96384
264.881,19.78337,0.00263052,0.70005,0.96346
265.381,19.79711,0.00262992,0.70516,0.96308
265.881,19.81081,0.002629996,0.70631,0.9627
266.381,19.82453,0.00263,0.70729,0.96232
266.881,19.83824,0.00263001,0.70822,0.96194
267.381,19.85193,0.0026301,0.71194,0.96156
267.881,19.8656,0.002629036,0.71104,0.96118
268.381,19.8793,0.00263136,0.716,0.9608
268.881,19.893,0.002660509,0.7133,0.96041
269.381,19.9067,0.0022501,0.71523,0.96003
269.881,19.92032,0.001310659,0.71756,0.95965
270.381,19.93402,0.001333961,0.72019,0.95926
270.881,19.94774,0.001318331,0.71926,0.95888
271.381,19.96144,0.001319815,0.72077,0.95849
271.881,19.97511,0.0013202,0.72409,0.95811
272.381,19.98883,0.0013197,0.72452,0.95772
272.881,20.0025,0.00131627,0.7227,0.95733
273.381,20.0162,0.00134799,0.72672,0.95695
273.881,20.0299,0.001313409,0.72743,0.95656
274.381,20.04353,0.002671737,0.73044,0.95617
274.881,20.05721,0.002858817,0.73279,0.95578
275.381,20.0709,0.002850434,0.7326,0.95539
275.881,20.08456,0.002851318,0.73405,0.955
276.381,20.0982,0.002844889,0.73374,0.95461
276.881,20.1119,0.00336528,0.73494,0.95422
277.381,20.12559,0.004239265,0.73775,0.95383
277.881,20.1393,0.004185558,0.74017,0.95344
278.381,20.15294,0.00326698,0.74143,0.95305
278.881,20.1666,0.00281454,0.74307,0.95265
279.381,20.18027,0.002849354,0.74427,0.95226
279.881,20.19395,0.00285652,0.7456,0.95187
280.381,20.20759,0.002682252,0.74774,0.95147
280.881,20.22123,0.00147396,0.74924,0.95108
281.381,20.23486,0.001554588,0.74982,0.95068
281.881,20.24851,0.001528048,0.75202,0.95029
282.381,20.26217,0.00152958,0.75304,0.94989
282.881,20.27583,0.00153011,0.75441,0.9495
283.381,20.2895,0.00153,0.7536,0.9491
283.881,20.30314,0.00153,0.75521,0.9487
284.381,20.31682,0.00153,0.75777,0.94831
284.881,20.3305,0.001529999,0.75929,0.94791
285.381,20.34412,0.001530039,0.76138,0.94751
285.881,20.35776,0.00152985,0.76309,0.94711
286.381,20.3714,0.001529346,0.76494,0.94671
286.881,20.38494,0.00153871,0.76432,0.94631
287.381,20.39854,0.001507365,0.7653,0.94591
287.881,20.41219,0.001896045,0.76435,0.94551
288.381,20.42586,0.001800572,0.76745,0.94511
288.881,20.4395,0.002480641,0.77015,0.94471
289.381,20.4531,0.003230652,0.77203,0.94431
289.881,20.4668,0.003171747,0.77361,0.94391
290.381,20.48064,0.00318043,0.77318,0.9435
290.881,20.49428,0.00315852,0.77366,0.9431
291.381,20.50789,0.00326022,0.77559,0.9427
291.881,20.52148,0.002081538,0.77693,0.94229
292.381,20.53509,0.001853495,0.77997,0.94189
292.881,20.54872,0.001860462,0.7839,0.94148
293.381,20.56234,0.001860266,0.78209,0.94108
293.881,20.576,0.0018588,0.78249,0.94067
294.381,20.58964,0.001860884,0.78442,0.94027
294.881,20.60331,0.001912609,0.78691,0.93986
295.381,20.61694,0.00268983,0.78613,0.93945
295.881,20.6306,0.00284499,0.78891,0.93905
296.381,20.64419,0.002854412,0.78985,0.93864
296.881,20.6578,0.002849483,0.79311,0.93823
297.381,20.67135,0.00284995,0.79337,0.93782
297.881,20.68499,0.002850021,0.79606,0.93741
298.381,20.6986,0.002849999,0.7943,0.93701
298.881,20.7122,0.00285,0.79847,0.9366
299.381,20.72589,0.00284999,0.79811,0.93619
299.881,20.7395,0.002850009,0.80194,0.93578
300.381,20.75319,0.002850315,0.80179,0.93537
300.881,20.76687,0.002848211,0.80204,0.93495
301.381,20.7805,0.00284769,0.80355,0.93454
301.881,20.79417,0.002086824,0.80483,0.93413
302.381,20.80781,0.00148781,0.80707,0.93372
302.881,20.82143,0.001525374,0.80763,0.93331
303.381,20.83501,0.001532699,0.81019,0.93289
303.881,20.84862,0.00152751,0.81056,0.93248
304.381,20.86221,0.001507141,0.81459,0.93207
304.881,20.87583,0.00185387,0.81386,0.93165
305.381,20.88942,0.00283053,0.81551,0.93124
305.881,20.903,0.00283308,0.8174,0.93082
306.381,20.91662,0.00287343,0.81853,0.93041
306.881,20.93026,0.002505949,0.8202,0.92999
307.381,20.94386,0.002406035,0.82271,0.92958
307.881,20.95748,0.00288919,0.82295,0.92916
308.381,20.97107,0.0028529,0.82258,0.92875
308.881,20.9847,0.002848556,0.82576,0.92833
309.381,20.99832,0.002850128,0.82599,0.92791
309.881,21.01201,0.00285002,0.8272,0.9275
310.381,21.02565,0.002849993,0.83154,0.92708
310.881,21.03932,0.00285,0.83072,0.92666
311.381,21.05293,0.002850004,0.83363,0.92624
311.881,21.06656,0.002849978,0.83491,0.92582
312.381,21.08021,0.00284999,0.835,0.9254
312.881,21.0938,0.002850896,0.8358,0.92498
313.381,21.10734,0.002845887,0.83943,0.92456
313.881,21.12088,0.002840139,0.84136,0.92414
314.381,21.13448,0.002195437,0.83999,0.92372
314.881,21.14811,0.00183741,0.84311,0.9233
315.381,21.1617,0.001856767,0.84247,0.92288
315.881,21.17531,0.00186106,0.84447,0.92246
316.381,21.1889,0.001859937,0.84627,0.92204
316.881,21.20259,0.00185998,0.84857,0.92162
317.381,21.21621,0.001860005,0.84931,0.92119
317.881,21.22984,0.00186,0.84901,0.92077
318.381,21.2434,0.00186,0.85029,0.92035
318.881,21.25691,0.00186,0.85151,0.91993
319.381,21.27044,0.00186,0.85428,0.9195
319.881,21.28404,0.00186,0.85624,0.91908
320.381,21.2976,0.00186001,0.85872,0.91865
320.881,21.31127,0.00186003,0.86007,0.91823
321.381,21.3249,0.00185954,0.86262,0.9178
321.881,21.33863,0.001861153,0.8649,0.91738
322.381,21.3524,0.001872247,0.86416,0.91695
322.881,21.36608,0.001763254,0.8648,0.91653
323.381,21.3797,0.00282559,0.86498,0.9161
323.881,21.39334,0.003186745,0.86895,0.91568
324.381,21.40695,0.003179426,0.8711,0.91525
324.881,21.4206,0.00318074,0.87158,0.91482
325.381,21.43417,0.003155245,0.87413,0.9144
325.881,21.44781,0.00327492,0.87433,0.91397
326.381,21.46145,0.00166606,0.8747,0.91354
326.881,21.4751,0.000816181,0.87788,0.91311
327.381,21.48871,0.0008844321,0.87786,0.91268
327.881,21.50235,0.0008811559,0.87971,0.91226
328.381,21.516,0.0008797206,0.87986,0.91183
328.881,21.52967,0.0008800053,0.88375,0.9114
329.381,21.54331,0.000880007,0.88681,0.91097
329.881,21.55696,0.0008799989,0.88634,0.91054
330.381,21.57062,0.00088,0.88693,0.91011
330.881,21.5843,0.00088,0.89081,0.90968
331.381,21.5979,0.00088,0.88949,0.90925
331.881,21.61156,0.00088,0.89258,0.90882
332.381,21.62521,0.0008800004,0.89508,0.90839
332.881,21.63887,0.0008799992,0.89644,0.90796
333.381,21.6525,0.0008799903,0.90052,0.90752
333.881,21.66611,0.0008800728,0.89914,0.90709
334.381,21.67977,0.000879965,0.90148,0.90666
334.881,21.69341,0.000877424,0.90119,0.90623
335.381,21.7071,0.000893469,0.90231,0.9058
335.881,21.72073,0.0009052479,0.9048,0.90536
336.381,21.73441,0.00188941,0.90545,0.90493
336.881,21.74811,0.002208685,0.90871,0.9045
337.381,21.7618,0.002192749,0.90863,0.90406
337.881,21.7755,0.002189145,0.91023,0.90363
338.381,21.78915,0.002190039,0.91316,0.9032
338.881,21.80284,0.00219002,0.91476,0.90276
339.381,21.81648,0.00219,0.91368,0.90233
339.881,21.83015,0.002190001,0.91844,0.90189
340.381,21.84385,0.002189899,0.91847,0.90146
340.881,21.85753,0.002190444,0.91793,0.90102
341.381,21.8712,0.00219156,0.92098,0.90059
341.881,21.8849,0.002166266,0.92387,0.90015
342.381,21.89864,0.002249515,0.92512,0.89972
342.881,21.91232,0.001053061,0.92591,0.89928
343.381,21.926,0.0008742445,0.92762,0.89885
343.881,21.93967,0.0008801022,0.93046,0.89841
344.381,21.95339,0.0008797983,0.93091,0.89797
344.881,21.96705,0.0008817714,0.9323,0.89754
345.381,21.98076,0.0008835002,0.93292,0.8971
345.881,21.9944,0.000796716,0.93797,0.89666
346.381,22.0081,0.00169184,0.93961,0.89622
346.881,22.0218,0.002206479,0.94234,0.89579
347.381,22.03548,0.002185523,0.94133,0.89535
347.881,22.0492,0.002219911,0.94443,0.89491
348.381,22.0629,0.0012704,0.94276,0.89447
348.881,22.07666,0.000728308,0.94569,0.89403
349.381,22.09038,0.0007699447,0.94798,0.8936
349.881,22.10412,0.000728317,0.94955,0.89316
350.381,22.1179,0.00125655,0.95366,0.89272
350.881,22.13166,0.002116685,0.95433,0.89228
351.381,22.1454,0.00206611,0.95692,0.89184
351.881,22.1591,0.002083653,0.95912,0.8914
352.381,22.1728,0.00213431,0.9593,0.89096
352.881,22.1865,0.001450646,0.96071,0.89052
353.381,22.20028,0.0007689796,0.96143,0.89008
353.881,22.214,0.000762354,0.96419,0.88964
354.381,22.22769,0.0008091856,0.96592,0.8892
354.881,22.2414,-3.186422e-05,0.96747,0.88876
355.381,22.25519,-0.0001077226,0.97134,0.88832
355.881,22.26898,0.000766677,0.97292,0.88788
356.381,22.2827,0.000761664,0.97548,0.88744
356.881,22.29644,0.0008211831,0.97858,0.88699
357.381,22.3102,0.0001011558,0.97797,0.88655
357.881,22.32404,-0.00059228,0.98009,0.88611
358.381,22.33783,-0.0005339785,0.98353,0.88567
358.881,22.3516,-0.0005393005,0.98507,0.88523
359.381,22.36536,-0.0005401964,0.98516,0.88478
359.881,22.37915,-0.0005400618,0.9869,0.88434
360.381,22.39291,-0.0005413798,0.98958,0.8839
360.881,22.4067,-0.0005312232,0.9891,0.88346
361.381,22.4204,-0.000164175,0.99365,0.88301
361.881,22.43414,0.001474204,0.99419,0.88257
362.381,22.44793,0.001303078,0.9983,0.88213
362.881,22.4617,0.0013175,0.99909,0.88169
363.381,22.47549,0.00132436,1.00116,0.88124
363.881,22.48926,0.001314595,1.00539,0.8808
364.381,22.5031,0.001180098,1.00642,0.88035
364.881,22.51688,0.0001480103,1.00771,0.87991
365.381,22.53068,1.318993e-05,1.01234,0.87947
365.881,22.54449,5.15793e-05,1.01415,0.87902
366.381,22.5583,-0.000508832,1.01733,0.87858
366.881,22.5721,-0.001352729,1.02002,0.87813
367.381,22.58595,-0.001298866,1.02216,0.87769
367.881,22.59978,-0.00131014,1.02525,0.87725
368.381,22.61361,-0.001310266,1.02615,0.8768
368.881,22.62745,-0.00130996,1.02894,0.87636
369.381,22.64125,-0.001309997,1.03241,0.87591
369.881,22.6551,-0.001310001,1.0316,0.87547
370.381,22.66889,-0.00131,1.0365,0.87502
370.881,22.68273,-0.00131,1.04181,0.87457
371.381,22.69651,-0.00131,1.04443,0.87413
371.881,22.71032,-0.00131,1.04667,0.87368
372.381,22.72419,-0.001310004,1.05119,0.87324
372.881,22.73806,-0.001309985,1.05497,0.87279
373.381,22.7519,-0.0013099,1.0577,0.87235
373.881,22.76576,-0.001311,1.06239,0.8719
374.381,22.77964,-0.00130926,1.06529,0.87145
374.881,22.79351,-0.001273413,1.06553,0.87101
375.381,22.80738,-0.001753762,1.07205,0.87056
375.881,22.82121,-0.002659485,1.07532,0.87011
376.381,22.8351,-0.002617145,1.07675,0.86967
376.881,22.84894,-0.00263072,1.08195,0.86922
377.381,22.86283,-0.00263025,1.08406,0.86877
377.881,22.87676,-0.002629963,1.08563,0.86833
378.381,22.8906,-0.002630013,1.092,0.86788
378.881,22.90456,-0.002629556,1.09482,0.86743
379.381,22.91848,-0.002631285,1.0987,0.86699
379.881,22.93236,-0.002646769,1.10418,0.86654
380.381,22.9463,-0.00362295,1.10476,0.86609
380.881,22.96014,-0.00393849,1.11016,0.86564
381.381,22.97403,-0.00470532,1.11457,0.8652
381.881,22.9879,-0.00525628,1.11821,0.86475
382.381,23.00176,-0.006071018,1.12422,0.8643
382.881,23.01566,-0.00662444,1.12952,0.86385
383.381,23.02956,-0.00657719,1.1318,0.86341
383.881,23.04346,-0.006504731,1.13858,0.86296
384.381,23.05735,-0.00738462,1.14321,0.86251
384.881,23.0713,-0.008125729,1.14903,0.86206
385.381,23.08522,-0.008987396,1.14903,0.86161
385.881,23.09916,-0.009447429,1.15347,0.86117
386.381,23.1131,-0.009495667,1.15537,0.86072
386.881,23.12708,-0.008741431,1.16297,0.86027
387.381,23.14111,-0.007989723,1.16894,0.85982
387.881,23.1551,-0.008004295,1.17123,0.85937
388.381,23.16905,-0.008000645,1.17766,0.85892
388.881,23.18305,-0.00801582,1.18163,0.85848
389.381,23.197,-0.007906561,1.19041,0.85803
389.881,23.21099,-0.009065131,1.19524,0.85758
390.381,23.22492,-0.00933782,1.19942,0.85713
390.881,23.2389,-0.009295186,1.206,0.85668
391.381,23.25285,-0.01026965,1.21393,0.85623
391.881,23.2668,-0.01101298,1.21957,0.85578
392.381,23.28075,-0.01243126,1.22578,0.85533
392.881,23.2947,-0.01260368,1.23085,0.85488
393.381,23.30876,-0.0136644,1.23508,0.85444
393.881,23.3228,-0.01367264,1.23843,0.85399
394.381,23.33681,-0.01408235,1.2489,0.85354
394.881,23.35081,-0.01525757,1.25358,0.85309
395.381,23.36487,-0.01564975,1.26576,0.85264
395.881,23.37891,-0.01667353,1.27767,0.85219
396.381,23.393,-0.01695823,1.28609,0.85174
396.881,23.40696,-0.01775502,1.29105,0.85129
397.381,23.421,-0.01729512,1.29323,0.85084
397.881,23.43506,-0.01869436,1.30331,0.85039
398.381,23.4491,-0.01847644,1.31011,0.84994
398.881,23.46315,-0.01987379,1.31608,0.84949
399.381,23.4772,-0.02017677,1.32407,0.84904
399.881,23.49129,-0.02187832,1.33501,0.84859
400.381,23.50535,-0.02239678,1.34172,0.84814
400.881,23.51942,-0.02355649,1.35346,0.84769
401.381,23.53351,-0.0247784,1.36531,0.84725
401.881,23.54756,-0.02560931,1.37386,0.8468
402.381,23.56161,-0.02747154,1.38745,0.84635
402.881,23.5757,-0.02969272,1.40199,0.8459
403.381,23.58979,-0.03101549,1.41421,0.84545
403.881,23.60388,-0.03366517,1.42864,0.845
404.381,23.61798,-0.03508118,1.44471,0.84455
404.881,23.63212,-0.03718376,1.45804,0.8441
405.381,23.6463,-0.03919222,1.47417,0.84365
405.881,23.6604,-0.0401925,1.49027,0.8432
406.381,23.67455,-0.04272187,1.50727,0.84275
406.881,23.6887,-0.04539552,1.52011,0.8423
407.381,23.70281,-0.04666939,1.53732,0.84185
407.881,23.7169,-0.04926747,1.55632,0.8414
408.381,23.73102,-0.0514723,1.57003,0.84095
408.881,23.74514,-0.05479765,1.58978,0.8405
409.381,23.75926,-0.0570978,1.60837,0.84005
409.881,23.77336,-0.05937868,1.62447,0.8396
410.381,23.78744,-0.06234392,1.64768,0.83915
410.881,23.8016,-0.06453588,1.66939,0.8387
411.381,23.8157,-0.06798717,1.69229,0.83825
411.881,23.82985,-0.07137887,1.71697,0.8378
412.381,23.844,-0.07413093,1.74047,0.83735
412.881,23.85819,-0.07675641,1.76534,0.8369
413.381,23.8723,-0.07986708,1.78808,0.83645
413.881,23.8865,-0.08420961,1.81233,0.836
414.381,23.9007,-0.08814673,1.83221,0.83555
414.881,23.91483,-0.09238197,1.85864,0.83511
415.381,23.929,-0.09753361,1.88741,0.83466
415.881,23.94313,-0.1009,1.91353,0.83421
416.381,23.9573,-0.10486,1.9379,0.83376
416.881,23.9715,-0.10968,1.96811,0.83331
417.381,23.98563,-0.11371,1.9975,0.83286
417.881,23.9998,-0.11913,2.02995,0.83241
418.381,24.01397,-0.12628,2.06512,0.83196
418.881,24.02814,-0.13186,2.10576,0.83151
419.381,24.04233,-0.13817,2.14086,0.83106
419.881,24.05653,-0.14434,2.1785,0.83061
420.381,24.07062,-0.15,2.21915,0.83016
420.881,24.08472,-0.15727,2.26011,0.82971
421.381,24.09887,-0.16374,2.3048,0.82926
421.881,24.11307,-0.17064,2.34261,0.82882
422.381,24.1273,-0.17944,2.38663,0.82837
422.881,24.14145,-0.18619,2.43042,0.82792
423.381,24.1557,-0.19359,2.47728,0.82747
423.881,24.17009,-0.20384,2.51955,0.82702
424.381,24.18439,-0.2112,2.56434,0.82657
424.881,24.19864,-0.22028,2.60996,0.82612
425.381,24.21294,-0.23168,2.66202,0.82567
425.881,24.22721,-0.24066,2.72431,0.82522
426.381,24.24145,-0.25355,2.78979,0.82478
426.881,24.2557,-0.26569,2.84996,0.82433
427.381,24.26998,-0.2754,2.91086,0.82388
427.881,24.28425,-0.28799,2.98342,0.82343
428.381,24.2985,-0.29985,3.05956,0.82298
428.881,24.31273,-0.31222,3.13546,0.82253
429.381,24.32703,-0.3286,3.20948,0.82209
429.881,24.34136,-0.34228,3.29698,0.82164
430.381,24.35565,-0.3578,3.37742,0.82119
430.881,24.36993,-0.37746,3.44865,0.82074
431.381,24.38427,-0.39295,3.52506,0.82029
431.881,24.39859,-0.4113,3.61405,0.81985
432.381,24.41294,-0.43281,3.70734,0.8194
432.881,24.42728,-0.44928,3.82905,0.81895
433.381,24.44163,-0.47017,3.91115,0.8185
433.881,24.456,-0.49392,3.98626,0.81805
434.381,24.47043,-0.51524,4.06069,0.81761
434.881,24.4848,-0.54269,4.11491,0.81716
435.381,24.49922,-0.56826,4.19081,0.81671
435.881,24.51363,-0.59368,4.25759,0.81627
436.381,24.52808,-0.62531,4.35677,0.81582
436.881,24.54245,-0.64979,4.42606,0.81537
437.381,24.55684,-0.6781,4.5016,0.81492
437.881,24.5713,-0.71249,4.57287,0.81448
438.381,24.58568,-0.73843,4.62024,0.81403
438.881,24.60011,-0.77106,4.66231,0.81358
439.381,24.61449,-0.80728,4.72129,0.81314
439.881,24.62892,-0.8368,4.81098,0.81269
440.381,24.64335,-0.87189,4.87919,0.81224
440.881,24.65778,-0.90575,4.95211,0.8118
441.381,24.6722,-0.94719,4.9878,0.81135
441.881,24.6867,-0.99175,5.01616,0.81091
442.381,24.70126,-1.05891,5.04569,0.81046
442.881,24.71576,-1.09308,5.05405,0.81001
443.381,24.73029,-1.12676,5.08557,0.80957
443.881,24.74481,-1.16764,5.10804,0.80912
444.381,24.75931,-1.21118,5.1019,0.80868
444.881,24.7738,-1.25605,5.09234,0.80823
445.381,24.78829,-1.30007,5.0756,0.80779
445.881,24.8028,-1.34251,5.05453,0.80734
446.381,24.81725,-1.38686,5.02338,0.8069
446.881,24.83173,-1.43374,4.99202,0.80645
447.381,24.84627,-1.47806,4.95113,0.80601
447.881,24.86081,-1.52091,4.91434,0.80556
448.381,24.8753,-1.56657,4.84557,0.80512
448.881,24.8899,-1.61282,4.77306,0.80467
449.381,24.9044,-1.65578,4.69919,0.80423
449.881,24.91902,-1.69918,4.61016,0.80378
450.381,24.93358,-1.74482,4.52418,0.80334
450.881,24.9481,-1.78872,4.44122,0.80289
451.381,24.96256,-1.82864,4.34689,0.80245
451.881,24.9771,-1.87034,4.24995,0.80201
452.381,24.99166,-1.91305,4.15579,0.80156
452.881,25.00617,-1.95276,4.05572,0.80112
453.381,25.02064,-1.9914,3.95601,0.80068
453.881,25.03518,-2.03167,3.84914,0.80023
454.381,25.04975,-2.07087,3.74889,0.79979
454.881,25.0642,-2.10664,3.65349,0.79935
455.381,25.07873,-2.14218,3.56244,0.7989
455.881,25.0932,-2.17929,3.47133,0.79846
456.381,25.10774,-2.21532,3.37433,0.79802
456.881,25.1222,-2.24921,3.2775,0.79758
457.381,25.13668,-2.28607,3.18318,0.79713
457.881,25.1512,-2.32011,3.08908,0.79669
458.381,25.16568,-2.35024,3.00001,0.79625
458.881,25.18017,-2.37701,2.9137,0.79581
459.381,25.19465,-2.41106,2.84324,0.79536
459.881,25.2091,-2.44163,2.77321,0.79492
460.381,25.22361,-2.4702,2.70875,0.79448
460.881,25.238,-2.50403,2.64965,0.79404
461.381,25.25246,-2.53039,2.5937,0.7936
461.881,25.26688,-2.55966,2.53709,0.79316
462.381,25.28136,-2.595,2.48494,0.79272
462.881,25.29581,-2.62031,2.43191,0.79228
463.381,25.3103,-2.64963,2.38143,0.79184
463.881,25.32478,-2.67991,2.33388,0.7914
464.381,25.33928,-2.70417,2.28579,0.79096
464.881,25.35381,-2.73365,2.24033,0.79052
465.381,25.36833,-2.76055,2.19365,0.79008
465.881,25.38283,-2.78543,2.14643,0.78964
466.381,25.39735,-2.81524,2.10107,0.7892
466.881,25.41177,-2.83854,2.05458,0.78876
467.381,25.42619,-2.86337,2.00656,0.78832
467.881,25.44069,-2.89205,1.96022,0.78788
468.381,25.45521,-2.91287,1.9153,0.78744
468.881,25.46979,-2.9371,1.86583,0.787
469.381,25.48431,-2.96303,1.81535,0.78656
469.881,25.49888,-2.98304,1.76616,0.78612
470.381,25.51354,-3.00787,1.71264,0.78569
470.881,25.52812,-3.02909,1.66048,0.78525
471.381,25.54265,-3.04821,1.60872,0.78481
471.881,25.55714,-3.0709,1.55669,0.78437
472.381,25.5717,-3.08808,1.50273,0.78393
472.881,25.58624,-3.1062,1.4491,0.7835
473.381,25.60077,-3.12697,1.39076,0.78306
473.881,25.61531,-3.1415,1.33566,0.78262
474.381,25.62979,-3.15792,1.27761,0.78219
474.881,25.6443,-3.17496,1.22245,0.78175
475.381,25.6589,-3.18826,1.16387,0.78131
475.881,25.67351,-3.20372,1.109,0.78088
476.381,25.68814,-3.21671,1.05609,0.78044
476.881,25.7028,-3.22796,1.00004,0.78001
477.381,25.71748,-3.2414,0.94714,0.77957
477.881,25.7322,-3.25184,0.89328,0.77913
478.381,25.74685,-3.26297,0.84121,0.7787
478.881,25.76153,-3.27492,0.79091,0.77826
479.381,25.77621,-3.28317,0.74202,0.77783
479.881,25.7909,-3.29251,0.69057,0.77739
480.381,25.80554,-3.30174,0.64373,0.77696
480.881,25.82021,-3.30902,0.59445,0.77653
481.381,25.8349,-3.3173,0.54836,0.77609
481.881,25.84958,-3.3244,0.50525,0.77566
482.381,25.86425,-3.33162,0.46066,0.77522
482.881,25.87894,-3.34045,0.41828,0.77479
483.381,25.8936,-3.34685,0.37605,0.77436
483.881,25.90831,-3.35332,0.33836,0.77392
484.381,25.92298,-3.35963,0.29737,0.77349
484.881,25.93764,-3.36441,0.25691,0.77306
485.381,25.9523,-3.37045,0.22034,0.77263
485.881,25.96702,-3.37668,0.18288,0.77219
486.381,25.9817,-3.3822,0.14374,0.77176
486.881,25.99645,-3.38851,0.1095,0.77133
487.381,26.01122,-3.39267,0.06949929,0.7709
487.881,26.02597,-3.3969,0.03336065,0.77047
488.381,26.04072,-3.40168,-0.0004171717,0.77004
488.881,26.05547,-3.40583,-0.03735963,0.7696
489.381,26.07026,-3.41078,-0.0688089,0.76917
489.881,26.08496,-3.41506,-0.09922928,0.76874
490.381,26.09965,-3.41785,-0.12487,0.76831
490.881,26.11441,-3.42114,-0.15267,0.76788
491.381,26.12915,-3.42415,-0.17602,0.76745
491.881,26.14388,-3.42709,-0.19968,0.76702
492.381,26.1586,-3.43081,-0.21943,0.76659
492.881,26.1735,-3.43297,-0.23885,0.76616
493.381,26.18831,-3.43579,-0.25534,0.76574
493.881,26.2031,-3.43808,-0.26884,0.76531
494.381,26.218,-3.44055,-0.28253,0.76488
494.881,26.23285,-3.44283,-0.29478,0.76445
495.381,26.24768,-3.4444,-0.30407,0.76402
495.881,26.2625,-3.44659,-0.31194,0.76359
496.381,26.27733,-3.44793,-0.32247,0.76317
496.881,26.29222,-3.44996,-0.32587,0.76274
497.381,26.30705,-3.45202,-0.33121,0.76231
497.881,26.32193,-3.45292,-0.33741,0.76189
498.381,26.33685,-3.45412,-0.34305,0.76146
498.881,26.3517,-3.45538,-0.34667,0.76103
499.381,26.36662,-3.45567,-0.34928,0.76061
499.881,26.3815,-3.45615,-0.35079,0.76018
500.381,26.3964,-3.4573,-0.35367,0.75975
500.881,26.4113,-3.45729,-0.35923,0.75933
501.381,26.42612,-3.45867,-0.35882,0.7589
501.881,26.44102,-3.4592,-0.35978,0.75848
502.381,26.45595,-3.4606,-0.36252,0.75805
502.881,26.4709,-3.4619,-0.36536,0.75763
503.381,26.48582,-3.46242,-0.36294,0.75721
503.881,26.50078,-3.46404,-0.3659,0.75678
504.381,26.51575,-3.464,-0.36701,0.75636
504.881,26.5307,-3.46406,-0.367,0.75593
505.381,26.5457,-3.46636,-0.36709,0.75551
505.881,26.5606,-3.46661,-0.36899,0.75509
506.381,26.57553,-3.46712,-0.37041,0.75467
506.881,26.5905,-3.46681,-0.37326,0.75424
507.381,26.6054,-3.46737,-0.37296,0.75382
507.881,26.6204,-3.46816,-0.36991,0.7534
508.381,26.6353,-3.46816,-0.37572,0.75298
508.881,26.65023,-3.46816,-0.37706,0.75256
509.381,26.6652,-3.46901,-0.37691,0.75213
509.881,26.68014,-3.47059,-0.37744,0.75171
510.381,26.6951,-3.47094,-0.37819,0.75129
510.881,26.71,-3.47091,-0.38038,0.75087
511.381,26.72505,-3.47196,-0.37988,0.75045
511.881,26.73994,-3.47222,-0.37978,0.75003
512.381,26.75495,-3.47222,-0.38305,0.74961
512.881,26.76995,-3.47222,-0.38558,0.74919
513.381,26.78497,-3.47228,-0.38158,0.74877
513.881,26.79999,-3.47354,-0.38551,0.74836
514.381,26.815,-3.47352,-0.38688,0.74794
514.881,26.8302,-3.47354,-0.38903,0.74752
515.381,26.8452,-3.47354,-0.38898,0.7471
515.881,26.8603,-3.47354,-0.391,0.74668
516.381,26.87527,-3.47353,-0.39121,0.74627
516.881,26.8903,-3.47354,-0.39165,0.74585
517.381,26.90532,-3.47404,-0.39355,0.74543
517.881,26.92036,-3.47486,-0.39519,0.74502
518.381,26.93542,-3.47477,-0.39539,0.7446
518.881,26.9505,-3.47589,-0.39538,0.74418
519.381,26.96555,-3.47608,-0.39436,0.74377
519.881,26.9806,-3.4772,-0.40199,0.74335
520.381,26.9957,-3.47749,-0.40025,0.74294
520.881,27.0107,-3.47748,-0.40238,0.74252
521.381,27.02576,-3.47748,-0.40097,0.74211
521.881,27.0408,-3.47748,-0.40306,0.74169
522.381,27.05583,-3.47757,-0.40205,0.74128
522.881,27.0709,-3.47884,-0.40381,0.74086
523.381,27.08597,-3.47878,-0.40579,0.74045
523.881,27.10108,-3.4788,-0.41003,0.74004
524.381,27.1162,-3.47879,-0.40627,0.73962
524.881,27.13133,-3.47925,-0.40789,0.73921
525.381,27.1464,-3.48018,-0.41179,0.7388
525.881,27.16153,-3.48012,-0.41002,0.73839
526.381,27.17667,-3.48006,-0.41337,0.73798
526.881,27.19175,-3.48091,-0.41305,0.73756
527.381,27.20682,-3.48159,-0.4165,0.73715
527.881,27.22195,-3.48283,-0.41485,0.73674
528.381,27.237,-3.48273,-0.41909,0.73633
528.881,27.25198,-3.48271,-0.41864,0.73592
529.381,27.26707,-3.48344,-0.41952,0.73551
529.881,27.2822,-3.48405,-0.42042,0.7351
530.381,27.2973,-3.4846,-0.42379,0.73469
530.881,27.31243,-3.48486,-0.42593,0.73428
531.381,27.3276,-3.48528,-0.42709,0.73387
531.881,27.34295,-3.48606,-0.42547,0.73346
532.381,27.3582,-3.48597,-0.43102,0.73306
532.881,27.3734,-3.48723,-0.42615,0.73265
533.381,27.3886,-3.48736,-0.4311,0.73224
533.881,27.4038,-3.48746,-0.43376,0.73183
534.381,27.41903,-3.48954,-0.43696,0.73143
534.881,27.4342,-3.48998,-0.43511,0.73102
535.381,27.44933,-3.48999,-0.43423,0.73061
535.881,27.4645,-3.49079,-0.43859,0.73021
536.381,27.4797,-3.49131,-0.43661,0.7298
536.881,27.49492,-3.49122,-0.4373,0.7294
537.381,27.5101,-3.4923,-0.44072,0.72899
537.881,27.5253,-3.49227,-0.44114,0.72859
538.381,27.5405,-3.49229,-0.43932,0.72818
538.881,27.5557,-3.49261,-0.44037,0.72778
539.381,27.5709,-3.49365,-0.4402,0.72737
539.881,27.58602,-3.49302,-0.44488,0.72697
540.381,27.60127,-3.49229,-0.44242,0.72657
540.881,27.6165,-3.49229,-0.44283,0.72616
541.381,27.63165,-3.49176,-0.44189,0.72576
541.881,27.6469,-3.49062,-0.44703,0.72536
542.381,27.66214,-3.48964,-0.44704,0.72496
542.881,27.67737,-3.48898,-0.44865,0.72455
543.381,27.69262,-3.48911,-0.44722,0.72415
543.881,27.70792,-3.49023,-0.44516,0.72375
544.381,27.7232,-3.49024,-0.44892,0.72335
544.881,27.7384,-3.49116,-0.44647,0.72295
545.381,27.75372,-3.49164,-0.44822,0.72255
545.881,27.76897,-3.49163,-0.44964,0.72215
546.381,27.7842,-3.49163,-0.45086,0.72175
546.881,27.7995,-3.49163,-0.45193,0.72135
547.381,27.8148,-3.49163,-0.45346,0.72095
547.881,27.83012,-3.49163,-0.45494,0.72055
548.381,27.8454,-3.49163,-0.4568,0.72015
548.881,27.86075,-3.49162,-0.4549,0.71976
549.381,27.87603,-3.49197,-0.45869,0.71936
549.881,27.89128,-3.49298,-0.45765,0.71896
550.381,27.90656,-3.49294,-0.45653,0.71856
550.881,27.92183,-3.49293,-0.45692,0.71817
551.381,27.93713,-3.49337,-0.46142,0.71777
551.881,27.9524,-3.49432,-0.46043,0.71738
552.381,27.96776,-3.49425,-0.46018,0.71698
552.881,27.9831,-3.4941,-0.46102,0.71658
553.381,27.99837,-3.49354,-0.46449,0.71619
553.881,28.0137,-3.49433,-0.46248,0.71579
554.381,28.029,-3.49426,-0.46644,0.7154
554.881,28.04435,-3.49426,-0.46629,0.71501
555.381,28.05968,-3.49426,-0.46611,0.71461
555.881,28.075,-3.49426,-0.46674,0.71422
556.381,28.09038,-3.49426,-0.46801,0.71383
556.881,28.1057,-3.49429,-0.47059,0.71343
557.381,28.121,-3.49433,-0.46579,0.71304
557.881,28.1363,-3.49554,-0.46519,0.71265
558.381,28.1517,-3.49558,-0.47013,0.71226
558.881,28.16708,-3.49558,-0.46503,0.71187
559.381,28.1824,-3.49558,-0.47197,0.71148
559.881,28.1978,-3.49558,-0.47279,0.71108
560.381,28.21319,-3.49632,-0.47124,0.71069
560.881,28.2285,-3.49837,-0.47157,0.7103
561.381,28.2439,-3.49842,-0.47285,0.70991
561.881,28.25923,-3.49845,-0.47704,0.70953
562.381,28.2746,-3.49871,-0.47694,0.70914
562.881,28.28994,-3.49942,-0.4774,0.70875
563.381,28.30531,-3.49978,-0.47599,0.70836
563.881,28.32071,-3.49975,-0.47545,0.70797
564.381,28.33608,-3.49975,-0.47652,0.70758
564.881,28.3515,-3.49974,-0.47478,0.7072
565.381,28.36688,-3.49984,-0.47495,0.70681
565.881,28.3823,-3.4986,-0.47836,0.70642
566.381,28.3976,-3.49844,-0.4758,0.70604
566.881,28.41295,-3.49856,-0.48101,0.70565
567.381,28.4283,-3.49968,-0.47861,0.70527
567.881,28.44367,-3.49966,-0.48107,0.70488
568.381,28.45904,-3.50065,-0.48095,0.7045
568.881,28.47445,-3.50108,-0.48054,0.70411
569.381,28.4899,-3.50107,-0.48269,0.70373
569.881,28.5054,-3.50107,-0.48386,0.70334
570.381,28.5208,-3.50107,-0.48545,0.70296
570.881,28.53619,-3.50107,-0.48583,0.70258
571.381,28.55163,-3.50108,-0.4867,0.70219
571.881,28.56707,-3.50098,-0.48829,0.70181
572.381,28.5825,-3.50224,-0.48704,0.70143
572.881,28.5979,-3.50364,-0.4853,0.70105
573.381,28.6134,-3.50378,-0.48787,0.70067
573.881,28.62882,-3.50381,-0.48714,0.70029
574.381,28.64428,-3.50382,-0.49046,0.69991
574.881,28.6597,-3.5038,-0.49053,0.69953
575.381,28.67512,-3.50487,-0.49067,0.69915
575.881,28.6905,-3.50512,-0.49042,0.69877
576.381,28.70597,-3.50554,-0.49104,0.69839
576.881,28.72144,-3.50563,-0.49259,0.69801
577.381,28.73692,-3.50524,-0.49359,0.69763
577.881,28.7524,-3.50649,-0.49405,0.69725
578.381,28.76789,-3.50666,-0.49403,0.69687
578.881,28.7834,-3.50666,-0.49455,0.6965
579.381,28.79888,-3.50666,-0.49679,0.69612
579.881,28.81435,-3.50666,-0.4961,0.69574
580.381,28.8298,-3.50666,-0.49898,0.69537
580.881,28.8452,-3.50671,-0.49993,0.69499
581.381,28.86069,-3.50594,-0.49795,0.69462
581.881,28.87612,-3.50519,-0.50342,0.69424
582.381,28.8916,-3.50529,-0.50109,0.69387
582.881,28.9071,-3.50641,-0.50133,0.69349
583.381,28.92257,-3.50648,-0.50534,0.69312
583.881,28.93805,-3.50755,-0.50629,0.69274
584.381,28.9536,-3.50928,-0.50756,0.69237
584.881,28.9691,-3.50918,-0.507,0.692
585.381,28.9845,-3.50941,-0.50997,0.69163
585.881,29,-3.5105,-0.51108,0.69125
586.381,29.01553,-3.51049,-0.50858,0.69088
586.881,29.03105,-3.5105,-0.50977,0.69051
587.381,29.04655,-3.51053,-0.51022,0.69014
587.881,29.06206,-3.51065,-0.51021,0.68977
588.381,29.0776,-3.51181,-0.51118,0.6894
588.881,29.09313,-3.51117,-0.51388,0.68903
589.381,29.1086,-3.51047,-0.51266,0.68866
589.881,29.1242,-3.51125,-0.51798,0.68829
590.381,29.13968,-3.51183,-0.51744,0.68792
590.881,29.15519,-3.51185,-0.51843,0.68755
591.381,29.1707,-3.51186,-0.52025,0.68718
591.881,29.1862,-3.51309,-0.52165,0.68682
592.381,29.2018,-3.51312,-0.52383,0.68645
592.881,29.2173,-3.51344,-0.52255,0.68608
593.381,29.23276,-3.51595,-0.52569,0.68571
593.881,29.24825,-3.51575,-0.52367,0.68535
594.381,29.26387,-3.51649,-0.52701,0.68498
594.881,29.27944,-3.5171,-0.52855,0.68462
595.381,29.29495,-3.51719,-0.52685,0.68425
595.881,29.3105,-3.51606,-0.52992,0.68389
596.381,29.3262,-3.51586,-0.5299,0.68352
596.881,29.3418,-3.51716,-0.53274,0.68316
597.381,29.35742,-3.51705,-0.53364,0.68279
597.881,29.373,-3.5176,-0.53479,0.68243
598.381,29.3886,-3.51727,-0.53446,0.68207
598.881,29.40423,-3.51721,-0.53665,0.68171
599.381,29.41985,-3.51719,-0.53983,0.68134
599.881,29.43545,-3.51719,-0.54095,0.68098
600.381,29.451,-3.51719,-0.53879,0.68062
600.881,29.4666,-3.51719,-0.5425,0.68026
601.381,29.48217,-3.51719,-0.54363,0.6799
601.881,29.4977,-3.51735,-0.54546,0.67954
602.381,29.51315,-3.51888,-0.54521,0.67918
602.881,29.52867,-3.51836,-0.54569,0.67882
603.381,29.54433,-3.51964,-0.54799,0.67846
603.881,29.5599,-3.51972,-0.55239,0.6781
604.381,29.5756,-3.51972,-0.55133,0.67774
604.881,29.59123,-3.51972,-0.55346,0.67739
605.381,29.607,-3.51972,-0.55491,0.67703
605.881,29.6226,-3.51972,-0.55461,0.67667
606.381,29.63823,-3.51971,-0.55703,0.67631
606.881,29.65392,-3.51964,-0.55518,0.67596
607.381,29.6696,-3.52067,-0.55921,0.6756
607.881,29.6852,-3.5211,-0.56065,0.67525
608.381,29.70095,-3.52031,-0.55756,0.67489
608.881,29.71665,-3.52075,-0.56048,0.67454
609.381,29.73227,-3.5216,-0.56506,0.67418
609.881,29.74796,-3.52155,-0.56277,0.67383
610.381,29.76363,-3.52271,-0.56483,0.67347
610.881,29.77928,-3.52419,-0.57025,0.67312
611.381,29.795,-3.5242,-0.57107,0.67277
611.881,29.8106,-3.52421,-0.56976,0.67241
612.381,29.82635,-3.52421,-0.57672,0.67206
612.881,29.842,-3.52421,-0.5801,0.67171
613.381,29.85775,-3.52422,-0.58444,0.67136
613.881,29.87345,-3.52436,-0.58603,0.67101
614.381,29.8891,-3.52551,-0.58608,0.67066
614.881,29.9048,-3.52448,-0.58587,0.67031
615.381,29.92052,-3.52421,-0.58699,0.66996
615.881,29.93621,-3.52417,-0.59048,0.66961
616.381,29.9519,-3.52457,-0.59127,0.66926
616.881,29.9676,-3.52455,-0.59556,0.66891
617.381,29.98328,-3.52473,-0.59736,0.66856
617.881,29.99884,-3.52523,-0.59871,0.66821