File: 01_Data/PET/STA/N2/30K_min/PET_STA_N2_30KData_210830_R2.csv
##Temp./Â°C,Time/min,Mass loss(subtr.2)/mg,DSC(subtr.2)/(mW/mg),Sensit./(uV/mW)
48.804,10.01,-0.02786,0.03608536,1.05399
49.304,10.95858,-0.02941626,0.05707226,1.05401
49.804,11.17137,-0.0298315,0.07473764,1.05402
50.304,11.31798,-0.02865878,0.09079109,1.05403
50.804,11.4344,-0.02981513,0.10717,1.05404
51.304,11.53123,-0.02839588,0.12066,1.05404
51.804,11.6153,-0.03100349,0.13488,1.05405
52.304,11.689,-0.0297149,0.14783,1.05405
52.804,11.75881,-0.02994524,0.15986,1.05406
53.304,11.8233,-0.03015652,0.17386,1.05406
53.804,11.88332,-0.03082924,0.18013,1.05406
54.304,11.9397,-0.02972634,0.19007,1.05406
54.804,11.9926,-0.03179493,0.20011,1.05406
55.304,12.0434,-0.03123591,0.20691,1.05406
55.804,12.09178,-0.03148935,0.21748,1.05406
56.304,12.1383,-0.03082043,0.22726,1.05405
56.804,12.1844,-0.03136588,0.2329,1.05404
57.304,12.22837,-0.03184534,0.24224,1.05404
57.804,12.27085,-0.03212742,0.24734,1.05403
58.304,12.31224,-0.02965466,0.25693,1.05402
58.804,12.35262,-0.03005441,0.26017,1.05401
59.304,12.39145,-0.03103485,0.26832,1.054
59.804,12.43005,-0.03137869,0.27279,1.05398
60.304,12.46848,-0.02947402,0.2803,1.05397
60.804,12.50597,-0.0291839,0.28687,1.05395
61.304,12.54268,-0.03002463,0.2929,1.05394
61.804,12.57872,-0.03053503,0.29852,1.05392
62.304,12.6141,-0.02944721,0.30595,1.0539
62.804,12.64904,-0.02964643,0.30722,1.05388
63.304,12.68343,-0.02939236,0.31562,1.05386
63.804,12.71752,-0.03001603,0.32114,1.05383
64.304,12.75116,-0.03019083,0.3265,1.05381
64.804,12.78444,-0.03104154,0.33236,1.05378
65.304,12.8172,-0.03042268,0.33688,1.05376
65.804,12.84961,-0.03068424,0.3409,1.05373
66.304,12.88141,-0.03076601,0.34669,1.0537
66.804,12.91307,-0.02972845,0.35292,1.05367
67.304,12.9442,-0.03105738,0.35648,1.05364
67.804,12.9755,-0.03095444,0.36106,1.0536
68.304,13.00667,-0.03028179,0.36934,1.05357
68.804,13.0375,-0.03129617,0.37339,1.05354
69.304,13.06783,-0.03198719,0.38043,1.0535
69.804,13.09791,-0.03119454,0.38336,1.05346
70.304,13.12793,-0.03082864,0.38938,1.05342
70.804,13.1578,-0.03025947,0.39548,1.05338
71.304,13.1874,-0.03047224,0.40068,1.05334
71.804,13.21665,-0.03209133,0.40615,1.0533
72.304,13.2455,-0.03249229,0.40924,1.05326
72.804,13.2742,-0.03232108,0.41276,1.05321
73.304,13.30282,-0.03229054,0.41538,1.05317
73.804,13.33131,-0.03237153,0.4189,1.05312
74.304,13.35955,-0.03300367,0.42215,1.05307
74.804,13.38739,-0.03223041,0.42189,1.05302
75.304,13.4153,-0.03035663,0.42164,1.05297
75.804,13.4431,-0.03066834,0.42434,1.05292
76.304,13.4709,-0.03181709,0.42757,1.05287
76.804,13.49845,-0.03249205,0.42736,1.05282
77.304,13.52554,-0.03221573,0.43024,1.05276
77.804,13.5526,-0.03198424,0.43242,1.0527
78.304,13.5794,-0.03173109,0.43869,1.05265
78.804,13.60612,-0.03172993,0.44391,1.05259
79.304,13.63279,-0.0312237,0.44981,1.05253
79.804,13.6592,-0.03097653,0.45784,1.05247
80.304,13.68552,-0.02994188,0.46342,1.05241
80.804,13.71149,-0.03042415,0.47168,1.05234
81.304,13.73724,-0.03109354,0.48504,1.05228
81.804,13.76286,-0.03111905,0.49533,1.05221
82.304,13.7884,-0.03156198,0.50855,1.05215
82.804,13.81386,-0.03165253,0.52265,1.05208
83.304,13.8392,-0.03186226,0.53512,1.05201
83.804,13.8643,-0.03258151,0.54681,1.05194
84.304,13.88935,-0.0318216,0.55462,1.05187
84.804,13.91421,-0.03125369,0.55993,1.0518
85.304,13.93883,-0.03142122,0.55974,1.05172
85.804,13.96325,-0.03098422,0.55833,1.05165
86.304,13.98755,-0.03165548,0.55212,1.05157
86.804,14.01177,-0.03229049,0.54314,1.05149
87.304,14.0358,-0.03180668,0.53339,1.05142
87.804,14.0597,-0.03258809,0.52509,1.05134
88.304,14.0834,-0.03189608,0.51862,1.05126
88.804,14.107,-0.03166551,0.51061,1.05118
89.304,14.13062,-0.03157447,0.50472,1.05109
89.804,14.1541,-0.03192017,0.4966,1.05101
90.304,14.17729,-0.03209564,0.49325,1.05092
90.804,14.2004,-0.03061001,0.48765,1.05084
91.304,14.2233,-0.03122461,0.48386,1.05075
91.804,14.2462,-0.03183372,0.48187,1.05066
92.304,14.26917,-0.03075401,0.47663,1.05057
92.804,14.292,-0.03221082,0.47509,1.05048
93.304,14.3145,-0.03206126,0.47371,1.05039
93.804,14.3368,-0.03288853,0.47375,1.0503
94.304,14.3591,-0.03278769,0.47038,1.0502
94.804,14.3813,-0.03234696,0.47312,1.05011
95.304,14.40356,-0.0322406,0.47126,1.05001
95.804,14.42569,-0.0321102,0.47083,1.04992
96.304,14.4476,-0.03119437,0.4699,1.04982
96.804,14.4694,-0.03209754,0.46916,1.04972
97.304,14.49107,-0.03265121,0.46877,1.04962
97.804,14.51271,-0.03193601,0.46983,1.04951
98.304,14.5343,-0.0328932,0.47128,1.04941
98.804,14.55561,-0.03222311,0.47238,1.04931
99.304,14.57688,-0.03293197,0.47209,1.0492
99.804,14.59805,-0.03289945,0.46065,1.0491
100.304,14.6191,-0.03264963,0.45429,1.04899
100.804,14.64016,-0.03149369,0.45245,1.04888
101.304,14.6611,-0.03204955,0.45341,1.04877
101.804,14.68203,-0.03204239,0.45536,1.04866
102.304,14.7028,-0.03278939,0.45876,1.04855
102.804,14.72355,-0.03305884,0.46275,1.04844
103.304,14.74425,-0.03147971,0.46426,1.04832
103.804,14.76482,-0.03158951,0.46708,1.04821
104.304,14.78527,-0.03149445,0.4689,1.04809
104.804,14.8057,-0.03193001,0.47416,1.04797
105.304,14.826,-0.03216676,0.47532,1.04785
105.804,14.8463,-0.03287645,0.47773,1.04774
106.304,14.86653,-0.03278501,0.47891,1.04762
106.804,14.8864,-0.03304627,0.48278,1.04749
107.304,14.9062,-0.03267417,0.48421,1.04737
107.804,14.9263,-0.03244659,0.48752,1.04725
108.304,14.94625,-0.03131982,0.48889,1.04712
108.804,14.9662,-0.03239685,0.49123,1.047
109.304,14.9864,-0.03148886,0.49364,1.04687
109.804,15.0062,-0.03246746,0.49581,1.04674
110.304,15.0259,-0.03151239,0.49838,1.04661
110.804,15.04551,-0.03202231,0.4997,1.04648
111.304,15.06512,-0.03152919,0.50229,1.04635
111.804,15.08465,-0.03194614,0.50145,1.04622
112.304,15.10411,-0.03145408,0.50275,1.04608
112.804,15.1236,-0.03251831,0.50663,1.04595
113.304,15.1429,-0.03265815,0.5079,1.04581
113.804,15.16211,-0.03212035,0.51149,1.04568
114.304,15.1813,-0.03291849,0.5123,1.04554
114.804,15.2004,-0.03176499,0.51306,1.0454
115.304,15.2196,-0.03200218,0.51564,1.04526
115.804,15.2387,-0.03148287,0.51779,1.04512
116.304,15.25775,-0.03231542,0.51936,1.04498
116.804,15.27685,-0.03162382,0.52189,1.04484
117.304,15.2959,-0.03259055,0.52291,1.04469
117.804,15.3148,-0.03184001,0.52555,1.04455
118.304,15.3336,-0.03230791,0.52527,1.0444
118.804,15.35232,-0.03291854,0.52858,1.04425
119.304,15.37106,-0.03219859,0.5306,1.0441
119.804,15.38969,-0.03289705,0.53474,1.04396
120.304,15.40829,-0.03287863,0.53458,1.0438
120.804,15.4269,-0.03207313,0.53486,1.04365
121.304,15.4454,-0.03262102,0.53597,1.0435
121.804,15.4637,-0.03189545,0.53883,1.04335
122.304,15.4821,-0.03212359,0.54064,1.04319
122.804,15.50041,-0.03258586,0.5449,1.04304
123.304,15.51874,-0.03164985,0.54708,1.04288
123.804,15.537,-0.03254545,0.55031,1.04272
124.304,15.55524,-0.03263803,0.55093,1.04256
124.804,15.57345,-0.03344362,0.55103,1.0424
125.304,15.59145,-0.03278207,0.55459,1.04224
125.804,15.60955,-0.03337204,0.55654,1.04208
126.304,15.62766,-0.0326609,0.55999,1.04192
126.804,15.64569,-0.03278074,0.56305,1.04176
127.304,15.66365,-0.03338708,0.56457,1.04159
127.804,15.68176,-0.03269365,0.56623,1.04142
128.304,15.6996,-0.03270524,0.56761,1.04126
128.804,15.71744,-0.03212595,0.57159,1.04109
129.304,15.7352,-0.03269051,0.57446,1.04092
129.804,15.75286,-0.03329831,0.57633,1.04075
130.304,15.7705,-0.0339854,0.57846,1.04058
130.804,15.7882,-0.03275958,0.5827,1.04041
131.304,15.8058,-0.03363947,0.58316,1.04023
131.804,15.82335,-0.03401044,0.58558,1.04006
132.304,15.84085,-0.03326834,0.58823,1.03989
132.804,15.8583,-0.03267992,0.59275,1.03971
133.304,15.87566,-0.03286839,0.59702,1.03953
133.804,15.89301,-0.03292149,0.602,1.03935
134.304,15.91032,-0.03269162,0.60529,1.03918
134.804,15.92765,-0.03268587,0.60953,1.039
135.304,15.94496,-0.03263052,0.61018,1.03881
135.804,15.96221,-0.0325729,0.61817,1.03863
136.304,15.9794,-0.03257,0.61989,1.03845
136.804,15.9966,-0.03257711,0.62625,1.03827
137.304,16.01375,-0.0325826,0.62978,1.03808
137.804,16.03081,-0.03258772,0.63685,1.03789
138.304,16.0479,-0.03208593,0.64422,1.03771
138.804,16.065,-0.03112073,0.6495,1.03752
139.304,16.08201,-0.03238903,0.65125,1.03733
139.804,16.09905,-0.03257808,0.6565,1.03714
140.304,16.116,-0.03248321,0.66136,1.03695
140.804,16.13291,-0.03373096,0.66638,1.03676
141.304,16.14976,-0.03390358,0.67045,1.03657
141.804,16.16657,-0.03259412,0.67594,1.03637
142.304,16.1833,-0.03323732,0.68192,1.03618
142.804,16.20006,-0.03388891,0.68662,1.03598
143.304,16.2168,-0.03284154,0.69118,1.03578
143.804,16.23349,-0.03329197,0.69549,1.03559
144.304,16.2502,-0.03389608,0.69925,1.03539
144.804,16.2669,-0.03399674,0.70359,1.03519
145.304,16.28356,-0.03268986,0.71224,1.03499
145.804,16.30016,-0.03291309,0.71506,1.03479
146.304,16.3167,-0.03400591,0.72117,1.03458
146.804,16.33323,-0.03297746,0.72553,1.03438
147.304,16.3497,-0.03257614,0.72981,1.03418
147.804,16.36621,-0.03248033,0.73455,1.03397
148.304,16.38265,-0.03374516,0.74116,1.03376
148.804,16.39915,-0.03390011,0.74662,1.03356
149.304,16.41552,-0.03381379,0.7547,1.03335
149.804,16.43185,-0.03247104,0.75355,1.03314
150.304,16.44824,-0.03341309,0.7634,1.03293
150.804,16.4646,-0.03389785,0.76495,1.03272
151.304,16.48089,-0.03389113,0.77034,1.03251
151.804,16.49717,-0.03387034,0.77584,1.03229
152.304,16.51351,-0.03365729,0.782,1.03208
152.804,16.5297,-0.03354553,0.7841,1.03186
153.304,16.5459,-0.03390738,0.78852,1.03165
153.804,16.56212,-0.03389411,0.79501,1.03143
154.304,16.57826,-0.0338708,0.80118,1.03121
154.804,16.5944,-0.03350056,0.80545,1.03099
155.304,16.61055,-0.0325772,0.80785,1.03077
155.804,16.62663,-0.03270348,0.81251,1.03055
156.304,16.64272,-0.03399093,0.81672,1.03033
156.804,16.65878,-0.03389496,0.81984,1.03011
157.304,16.6748,-0.03391685,0.82464,1.02989
157.804,16.69079,-0.03394035,0.8318,1.02966
158.304,16.70674,-0.03440014,0.83199,1.02944
158.804,16.72267,-0.03387494,0.83702,1.02921
159.304,16.7386,-0.03387249,0.83991,1.02899
159.804,16.7546,-0.03342952,0.84455,1.02876
160.304,16.77049,-0.03326923,0.84689,1.02853
160.804,16.78634,-0.03392992,0.85478,1.0283
161.304,16.8022,-0.03389591,0.85577,1.02807
161.804,16.81805,-0.0337046,0.86136,1.02784
162.304,16.83384,-0.03247608,0.86533,1.0276
162.804,16.84954,-0.03287531,0.86647,1.02737
163.304,16.86535,-0.03398839,0.86811,1.02714
163.804,16.88111,-0.0339039,0.87639,1.0269
164.304,16.89684,-0.03389707,0.88151,1.02667
164.804,16.91253,-0.03388758,0.88506,1.02643
165.304,16.92822,-0.03396779,0.88775,1.02619
165.804,16.9439,-0.03260153,0.88927,1.02595
166.304,16.95951,-0.03351743,0.89629,1.02571
166.804,16.97513,-0.03389631,0.90137,1.02547
167.304,16.9907,-0.03389026,0.90661,1.02523
167.804,17.0063,-0.03388758,0.90965,1.02499
168.304,17.02188,-0.03387586,0.91257,1.02475
168.804,17.03752,-0.0329383,0.91738,1.0245
169.304,17.0531,-0.0340193,0.92041,1.02426
169.804,17.06869,-0.03389191,0.92582,1.02401
170.304,17.0842,-0.03389677,0.92918,1.02376
170.804,17.09971,-0.03390065,0.93285,1.02352
171.304,17.11523,-0.03395157,0.93934,1.02327
171.804,17.1307,-0.03318767,0.94124,1.02302
172.304,17.14604,-0.03243002,0.94661,1.02277
172.804,17.1614,-0.03363502,0.95076,1.02252
173.304,17.17689,-0.03355275,0.95213,1.02227
173.804,17.19228,-0.03356715,0.95782,1.02201
174.304,17.2076,-0.03357831,0.96162,1.02176
174.804,17.22302,-0.03365686,0.96413,1.0215
175.304,17.23847,-0.03390118,0.9671,1.02125
175.804,17.2538,-0.0339121,0.97225,1.02099
176.304,17.26906,-0.03384444,0.97488,1.02074
176.804,17.2843,-0.03512339,0.98046,1.02048
177.304,17.29958,-0.03521062,0.97885,1.02022
177.804,17.3148,-0.0352165,0.98478,1.01996
178.304,17.33004,-0.03487626,0.98842,1.0197
178.804,17.34525,-0.03387447,0.98973,1.01944
179.304,17.36045,-0.03523171,0.99432,1.01918
179.804,17.3756,-0.0351961,0.9982,1.01891
180.304,17.3908,-0.03522289,1.00237,1.01865
180.804,17.40594,-0.03464825,1.00682,1.01838
181.304,17.42101,-0.03389644,1.00851,1.01812
181.804,17.43606,-0.03390273,1.01088,1.01785
182.304,17.45111,-0.03390359,1.01403,1.01759
182.804,17.46614,-0.03383552,1.01508,1.01732
183.304,17.48115,-0.03460299,1.0185,1.01705
183.804,17.49614,-0.03411941,1.02161,1.01678
184.304,17.51109,-0.0339049,1.02595,1.01651
184.804,17.52604,-0.0348608,1.02774,1.01624
185.304,17.541,-0.03519852,1.03153,1.01597
185.804,17.55594,-0.0351899,1.03415,1.01569
186.304,17.5709,-0.03515343,1.0368,1.01542
186.804,17.58578,-0.0339367,1.04078,1.01514
187.304,17.60071,-0.0338907,1.04441,1.01487
187.804,17.61561,-0.03388956,1.04894,1.01459
188.304,17.63046,-0.03388999,1.04795,1.01432
188.804,17.64526,-0.03388998,1.05673,1.01404
189.304,17.66006,-0.03389,1.05964,1.01376
189.804,17.6749,-0.03389172,1.06108,1.01348
190.304,17.68964,-0.03388861,1.06244,1.0132
190.804,17.70438,-0.03380699,1.06774,1.01292
191.304,17.7192,-0.03480459,1.0724,1.01264
191.804,17.73391,-0.03521689,1.07331,1.01235
192.304,17.74865,-0.03520953,1.07685,1.01207
192.804,17.76335,-0.03520979,1.08123,1.01179
193.304,17.77805,-0.03521032,1.08453,1.0115
193.804,17.79278,-0.03521304,1.08896,1.01122
194.304,17.80751,-0.03505608,1.08857,1.01093
194.804,17.82225,-0.03382204,1.09324,1.01064
195.304,17.8369,-0.03386716,1.09474,1.01035
195.804,17.85156,-0.03468012,1.09529,1.01006
196.304,17.8663,-0.03524889,1.09934,1.00977
196.804,17.88096,-0.03521179,1.10521,1.00948
197.304,17.89554,-0.03520912,1.10745,1.00919
197.804,17.91009,-0.03521,1.10942,1.0089
198.304,17.92468,-0.03520959,1.11319,1.00861
198.804,17.93929,-0.03521065,1.11717,1.00831
199.304,17.9538,-0.03522899,1.11947,1.00802
199.804,17.9683,-0.03514335,1.12309,1.00772
200.304,17.9829,-0.03641494,1.12288,1.00743
200.804,17.99744,-0.03608512,1.12473,1.00713
201.304,18.01194,-0.03516946,1.1293,1.00683
201.804,18.02646,-0.03521973,1.13303,1.00654
202.304,18.04099,-0.03521048,1.13641,1.00624
202.804,18.05549,-0.03520977,1.13995,1.00594
203.304,18.07,-0.03521,1.14226,1.00564
203.804,18.08447,-0.03521,1.14321,1.00534
204.304,18.09896,-0.03521,1.14618,1.00503
204.804,18.11347,-0.03520995,1.1453,1.00473
205.304,18.1279,-0.03521023,1.15087,1.00443
205.804,18.14236,-0.03521181,1.15485,1.00412
206.304,18.1568,-0.03519569,1.15781,1.00382
206.804,18.17122,-0.03516318,1.15978,1.00351
207.304,18.18564,-0.03420204,1.16307,1.00321
207.804,18.19999,-0.03520938,1.16413,1.0029
208.304,18.21434,-0.03518108,1.16749,1.00259
208.804,18.2287,-0.03521187,1.16962,1.00228
209.304,18.24309,-0.03521055,1.17233,1.00197
209.804,18.25743,-0.03520992,1.17585,1.00166
210.304,18.27179,-0.03520998,1.17877,1.00135
210.804,18.28611,-0.03521013,1.18033,1.00104
211.304,18.30044,-0.03521014,1.18431,1.00073
211.804,18.31471,-0.03520371,1.18423,1.00041
212.304,18.329,-0.03522271,1.18677,1.0001
212.804,18.34328,-0.03548445,1.18917,0.99979
213.304,18.35756,-0.03651101,1.19032,0.99947
213.804,18.37186,-0.03651914,1.19472,0.99915
214.304,18.3861,-0.03662764,1.19864,0.99884
214.804,18.40042,-0.03550642,1.1994,0.99852
215.304,18.4147,-0.03520327,1.20186,0.9982
215.804,18.42896,-0.03521022,1.20418,0.99788
216.304,18.44325,-0.0352077,1.20612,0.99756
216.804,18.45748,-0.03522252,1.20731,0.99724
217.304,18.4718,-0.03528101,1.20757,0.99692
217.804,18.4861,-0.03633691,1.21301,0.9966
218.304,18.50027,-0.03652791,1.21162,0.99628
218.804,18.51454,-0.03653367,1.21531,0.99596
219.304,18.52872,-0.03652976,1.21892,0.99563
219.804,18.5429,-0.03652993,1.22132,0.99531
220.304,18.55709,-0.03653,1.22245,0.99498
220.804,18.5713,-0.03652997,1.2227,0.99466
221.304,18.58545,-0.03653053,1.22373,0.99433
221.804,18.5996,-0.03652958,1.22953,0.994
222.304,18.61378,-0.03650853,1.23168,0.99368
222.804,18.62796,-0.03661629,1.2315,0.99335
223.304,18.6421,-0.03544967,1.23579,0.99302
223.804,18.65626,-0.03557517,1.23749,0.99269
224.304,18.67039,-0.0355532,1.23996,0.99236
224.804,18.68447,-0.03653854,1.24111,0.99203
225.304,18.69856,-0.03688746,1.24073,0.99169
225.804,18.71271,-0.03649026,1.245,0.99136
226.304,18.72681,-0.03652575,1.24805,0.99103
226.804,18.7409,-0.03652089,1.24729,0.9907
227.304,18.755,-0.03650715,1.2487,0.99036
227.804,18.76911,-0.0365428,1.25401,0.99003
228.304,18.78319,-0.03561038,1.25475,0.98969
228.804,18.79726,-0.035181,1.25693,0.98935
229.304,18.81128,-0.03520802,1.25752,0.98902
229.804,18.82534,-0.03520664,1.26247,0.98868
230.304,18.8394,-0.03521525,1.26302,0.98834
230.804,18.85343,-0.0353957,1.26495,0.988
231.304,18.86746,-0.03615553,1.26818,0.98766
231.804,18.88147,-0.03618726,1.26975,0.98732
232.304,18.89548,-0.03619097,1.26938,0.98698
232.804,18.90955,-0.03618998,1.27115,0.98664
233.304,18.92357,-0.03618998,1.27539,0.9863
233.804,18.9376,-0.03619,1.27589,0.98595
234.304,18.9516,-0.03619,1.27884,0.98561
234.804,18.9656,-0.03619,1.28188,0.98526
235.304,18.97965,-0.03619,1.28743,0.98492
235.804,18.99359,-0.03618997,1.28797,0.98457
236.304,19.00754,-0.03619012,1.2901,0.98423
236.804,19.0215,-0.03619053,1.29057,0.98388
237.304,19.03546,-0.03618325,1.2918,0.98353
237.804,19.04941,-0.0361982,1.29171,0.98319
238.304,19.06332,-0.03646787,1.2965,0.98284
238.804,19.07725,-0.03748889,1.29942,0.98249
239.304,19.09119,-0.03750895,1.30052,0.98214
239.804,19.10509,-0.03751046,1.30448,0.98179
240.304,19.11903,-0.03750998,1.30628,0.98144
240.804,19.13295,-0.03750998,1.30357,0.98108
241.304,19.14688,-0.03751004,1.30843,0.98073
241.804,19.16079,-0.03751008,1.30985,0.98038
242.304,19.1747,-0.03750818,1.31457,0.98003
242.804,19.1886,-0.03751487,1.31486,0.97967
243.304,19.20244,-0.03756131,1.31583,0.97932
243.804,19.21634,-0.03686673,1.32101,0.97896
244.304,19.23023,-0.03653375,1.31936,0.97861
244.804,19.2441,-0.03652245,1.32314,0.97825
245.304,19.258,-0.03653079,1.32609,0.97789
245.804,19.2719,-0.03653011,1.3267,0.97753
246.304,19.28579,-0.03652997,1.32684,0.97718
246.804,19.29966,-0.03653,1.32959,0.97682
247.304,19.31352,-0.03653,1.33201,0.97646
247.804,19.32741,-0.03653,1.33537,0.9761
248.304,19.34133,-0.03653,1.33409,0.97574
248.804,19.35516,-0.03652996,1.33546,0.97538
249.304,19.369,-0.03653007,1.34084,0.97501
249.804,19.38283,-0.03653112,1.34131,0.97465
250.304,19.39665,-0.03652272,1.34114,0.97429
250.804,19.4105,-0.03690571,1.34414,0.97393
251.304,19.42429,-0.03794609,1.34589,0.97356
251.804,19.43811,-0.03784053,1.3457,0.9732
252.304,19.45192,-0.03784854,1.35124,0.97283
252.804,19.46574,-0.0378504,1.35262,0.97247
253.304,19.47952,-0.03785,1.35444,0.9721
253.804,19.49335,-0.03785045,1.35423,0.97173
254.304,19.50711,-0.0378476,1.35542,0.97136
254.804,19.5209,-0.03784409,1.35928,0.971
255.304,19.5347,-0.03706056,1.36196,0.97063
255.804,19.5485,-0.03621134,1.36235,0.97026
256.304,19.56229,-0.03620231,1.36441,0.96989
256.804,19.57609,-0.03619896,1.36712,0.96952
257.304,19.58986,-0.03620016,1.36864,0.96915
257.804,19.6036,-0.0362345,1.37072,0.96878
258.304,19.6174,-0.03731439,1.37398,0.9684
258.804,19.63116,-0.03750559,1.37567,0.96803
259.304,19.6449,-0.03752658,1.3787,0.96766
259.804,19.6587,-0.03751955,1.37847,0.96729
260.304,19.6724,-0.03751988,1.38171,0.96691
260.804,19.68621,-0.03752003,1.38081,0.96654
261.304,19.69997,-0.03752,1.38435,0.96616
261.804,19.71371,-0.03752,1.38483,0.96579
262.304,19.7274,-0.03751999,1.38653,0.96541
262.804,19.74117,-0.03751997,1.38774,0.96503
263.304,19.75485,-0.03752047,1.39235,0.96466
263.804,19.76855,-0.03751875,1.39121,0.96428
264.304,19.78225,-0.03750446,1.39465,0.9639
264.804,19.79598,-0.03655497,1.39615,0.96352
265.304,19.80968,-0.03619367,1.39343,0.96314
265.804,19.82341,-0.03612708,1.39703,0.96276
266.304,19.8371,-0.03689799,1.40174,0.96238
266.804,19.85087,-0.03751321,1.40155,0.962
267.304,19.8646,-0.0375081,1.40344,0.96162
267.804,19.8783,-0.03751017,1.40622,0.96124
268.304,19.89208,-0.03751003,1.40602,0.96086
268.804,19.90586,-0.03751001,1.40877,0.96047
269.304,19.9195,-0.03750998,1.41101,0.96009
269.804,19.93328,-0.03750934,1.41126,0.95971
270.304,19.947,-0.03751362,1.41312,0.95932
270.804,19.96069,-0.03751632,1.41321,0.95894
271.304,19.9744,-0.03728559,1.41475,0.95855
271.804,19.98806,-0.03627607,1.41763,0.95817
272.304,20.00177,-0.03621006,1.41725,0.95778
272.804,20.01547,-0.0361968,1.4206,0.95739
273.304,20.02911,-0.03620019,1.42287,0.95701
273.804,20.04279,-0.03620061,1.42441,0.95662
274.304,20.0565,-0.03619635,1.42754,0.95623
274.804,20.07015,-0.03619877,1.42866,0.95584
275.304,20.08384,-0.0363821,1.42832,0.95545
275.804,20.0975,-0.03740329,1.4296,0.95506
276.304,20.1112,-0.03750195,1.43085,0.95467
276.804,20.1249,-0.03751578,1.43385,0.95428
277.304,20.1385,-0.03750372,1.43692,0.95389
277.804,20.15213,-0.0374516,1.43411,0.9535
278.304,20.1658,-0.03601488,1.43867,0.95311
278.804,20.17944,-0.03552829,1.43816,0.95271
279.304,20.1931,-0.03553146,1.43926,0.95232
279.804,20.2067,-0.03554162,1.44087,0.95193
280.304,20.22035,-0.03554007,1.4435,0.95153
280.804,20.234,-0.03553794,1.44534,0.95114
281.304,20.2477,-0.03554823,1.44856,0.95075
281.804,20.26125,-0.03557163,1.44572,0.95035
282.304,20.27489,-0.03590323,1.44961,0.94995
282.804,20.28856,-0.03586753,1.45323,0.94956
283.304,20.3022,-0.03587024,1.45313,0.94916
283.804,20.31588,-0.03586322,1.45474,0.94877
284.304,20.32953,-0.03616241,1.45216,0.94837
284.804,20.3432,-0.03728418,1.45685,0.94797
285.304,20.3569,-0.0371739,1.45997,0.94757
285.804,20.37056,-0.03718943,1.46092,0.94717
286.304,20.38424,-0.0371908,1.46139,0.94677
286.804,20.39787,-0.0371888,1.46037,0.94637
287.304,20.41144,-0.03718479,1.4621,0.94597
287.804,20.42505,-0.03725686,1.46365,0.94557
288.304,20.4387,-0.03659693,1.46593,0.94517
288.804,20.4523,-0.03654307,1.46776,0.94477
289.304,20.46586,-0.03655417,1.46716,0.94437
289.804,20.4795,-0.03650034,1.46958,0.94397
290.304,20.49309,-0.03761224,1.46985,0.94356
290.804,20.50675,-0.03749156,1.47187,0.94316
291.304,20.52037,-0.03750959,1.47391,0.94276
291.804,20.534,-0.03751053,1.47625,0.94235
292.304,20.54765,-0.03750996,1.47642,0.94195
292.804,20.5613,-0.03751011,1.47814,0.94155
293.304,20.5749,-0.0375083,1.47926,0.94114
293.804,20.58857,-0.03751445,1.47917,0.94074
294.304,20.60218,-0.03755136,1.48367,0.94033
294.804,20.6158,-0.03696104,1.48367,0.93992
295.304,20.62942,-0.03620272,1.48155,0.93952
295.804,20.64305,-0.03620194,1.48352,0.93911
296.304,20.6567,-0.03619915,1.48394,0.9387
296.804,20.6703,-0.03619966,1.48632,0.93829
297.304,20.68388,-0.03623981,1.48749,0.93789
297.804,20.6975,-0.03732389,1.48836,0.93748
298.304,20.71111,-0.03750617,1.48842,0.93707
298.804,20.72477,-0.03752663,1.49093,0.93666
299.304,20.73836,-0.03751942,1.49269,0.93625
299.804,20.75202,-0.03751989,1.49185,0.93584
300.304,20.7656,-0.03752003,1.49265,0.93543
300.804,20.77926,-0.03752,1.49578,0.93502
301.304,20.79293,-0.03752,1.49843,0.93461
301.804,20.80654,-0.03752,1.49604,0.9342
302.304,20.82016,-0.03752,1.4971,0.93378
302.804,20.8338,-0.03752,1.49909,0.93337
303.304,20.84743,-0.03752001,1.50151,0.93296
303.804,20.86105,-0.03752002,1.5011,0.93254
304.304,20.8746,-0.03751956,1.50453,0.93213
304.804,20.88815,-0.03752141,1.50514,0.93172
305.304,20.90175,-0.03752865,1.50707,0.9313
305.804,20.91541,-0.03742756,1.50744,0.93089
306.304,20.92902,-0.03841206,1.50721,0.93047
306.804,20.94262,-0.03883612,1.50871,0.93006
307.304,20.9562,-0.0388323,1.50797,0.92964
307.804,20.9699,-0.0388293,1.50638,0.92923
308.304,20.98351,-0.03866404,1.51001,0.92881
308.804,20.99708,-0.03764786,1.5127,0.92839
309.304,21.01062,-0.03752443,1.51571,0.92798
309.804,21.0242,-0.03751638,1.5129,0.92756
310.304,21.0378,-0.03752043,1.51459,0.92714
310.804,21.0514,-0.03752004,1.51729,0.92672
311.304,21.065,-0.03751998,1.51689,0.92631
311.804,21.0786,-0.03752,1.51663,0.92589
312.304,21.0923,-0.03752,1.5195,0.92547
312.804,21.1059,-0.03751998,1.52085,0.92505
313.304,21.11955,-0.03752002,1.52047,0.92463
313.804,21.1332,-0.03752063,1.52431,0.92421
314.304,21.14684,-0.03751642,1.52538,0.92379
314.804,21.16046,-0.03751606,1.52449,0.92337
315.304,21.174,-0.03771484,1.52556,0.92295
315.804,21.18763,-0.03872966,1.52613,0.92252
316.304,21.20123,-0.03882193,1.5278,0.9221
316.804,21.21483,-0.03883357,1.5304,0.92168
317.304,21.22841,-0.0388297,1.53331,0.92126
317.804,21.242,-0.03882994,1.52996,0.92084
318.304,21.25554,-0.03883002,1.53265,0.92041
318.804,21.26914,-0.03883,1.53156,0.91999
319.304,21.2828,-0.03882998,1.53173,0.91957
319.804,21.2964,-0.03883013,1.53444,0.91914
320.304,21.30999,-0.03883,1.53495,0.91872
320.804,21.3236,-0.03882505,1.53924,0.91829
321.304,21.3373,-0.03885349,1.53998,0.91787
321.804,21.35096,-0.03889286,1.54239,0.91744
322.304,21.36453,-0.04005986,1.53842,0.91702
322.804,21.3781,-0.04014259,1.5399,0.91659
323.304,21.39176,-0.04014034,1.54073,0.91617
323.804,21.40542,-0.04014027,1.54306,0.91574
324.304,21.41901,-0.04013928,1.54259,0.91531
324.804,21.43267,-0.04012894,1.54444,0.91489
325.304,21.4463,-0.04013718,1.54517,0.91446
325.804,21.45982,-0.03787206,1.54598,0.91403
326.304,21.4734,-0.03790284,1.55188,0.91361
326.804,21.487,-0.03784258,1.55033,0.91318
327.304,21.50068,-0.03785159,1.54833,0.91275
327.804,21.51432,-0.03779802,1.5478,0.91232
328.304,21.52794,-0.03836918,1.5495,0.91189
328.804,21.54166,-0.03884109,1.55524,0.91146
329.304,21.55542,-0.03882604,1.55327,0.91103
329.804,21.56905,-0.03883065,1.55469,0.9106
330.304,21.5827,-0.03883746,1.55748,0.91018
330.804,21.59635,-0.03877928,1.55791,0.90974
331.304,21.60998,-0.03947849,1.55755,0.90931
331.804,21.62361,-0.04019183,1.55925,0.90888
332.304,21.63727,-0.04013217,1.5584,0.90845
332.804,21.65083,-0.04013928,1.557,0.90802
333.304,21.66447,-0.04014685,1.55875,0.90759
333.804,21.67811,-0.04011795,1.56156,0.90716
334.304,21.69175,-0.04000226,1.56329,0.90673
334.804,21.7054,-0.03906632,1.56484,0.9063
335.304,21.71903,-0.03916495,1.56493,0.90586
335.804,21.73268,-0.03916186,1.56727,0.90543
336.304,21.74642,-0.03915961,1.56518,0.905
336.804,21.76003,-0.03916,1.56598,0.90456
337.304,21.7737,-0.03916004,1.56974,0.90413
337.804,21.78736,-0.03915987,1.56891,0.9037
338.304,21.80108,-0.03915963,1.57234,0.90326
338.804,21.8148,-0.03916628,1.57126,0.90283
339.304,21.82844,-0.03914205,1.57345,0.90239
339.804,21.84212,-0.03957776,1.5745,0.90196
340.304,21.8558,-0.03984154,1.57508,0.90153
340.804,21.86949,-0.03981939,1.57607,0.90109
341.304,21.88315,-0.03981951,1.5743,0.90066
341.804,21.89682,-0.03982009,1.57522,0.90022
342.304,21.9105,-0.03982001,1.5803,0.89978
342.804,21.92417,-0.03981992,1.58399,0.89935
343.304,21.9378,-0.03982029,1.58222,0.89891
343.804,21.9515,-0.03982134,1.58297,0.89848
344.304,21.9652,-0.03980323,1.58075,0.89804
344.804,21.97895,-0.03985347,1.5823,0.8976
345.304,21.99263,-0.03905748,1.58642,0.89717
345.804,22.00637,-0.03960852,1.58369,0.89673
346.304,22.02008,-0.03981915,1.58752,0.89629
346.804,22.03383,-0.03985958,1.58927,0.89585
347.304,22.04751,-0.04093437,1.59296,0.89542
347.804,22.0612,-0.04111528,1.59417,0.89498
348.304,22.07491,-0.04113479,1.59386,0.89454
348.804,22.0886,-0.04113401,1.59553,0.8941
349.304,22.10238,-0.04056934,1.59517,0.89366
349.804,22.1161,-0.03974575,1.5939,0.89322
350.304,22.12985,-0.03982061,1.59877,0.89279
350.804,22.14361,-0.03982185,1.59934,0.89235
351.304,22.1573,-0.03981974,1.59856,0.89191
351.804,22.171,-0.03981999,1.60009,0.89147
352.304,22.18476,-0.03981988,1.60022,0.89103
352.804,22.19843,-0.03982038,1.60283,0.89059
353.304,22.21213,-0.03982321,1.60398,0.89015
353.804,22.2258,-0.03979149,1.60666,0.88971
354.304,22.23955,-0.03984637,1.60848,0.88927
354.804,22.25328,-0.03872499,1.60858,0.88883
355.304,22.267,-0.03884725,1.60682,0.88839
355.804,22.28076,-0.0388308,1.61129,0.88794
356.304,22.2945,-0.03882939,1.61281,0.8875
356.804,22.30828,-0.03883028,1.61718,0.88706
357.304,22.322,-0.03883175,1.61754,0.88662
357.804,22.3358,-0.03881374,1.61792,0.88618
358.304,22.34956,-0.039133,1.61869,0.88574
358.804,22.3633,-0.03987667,1.62099,0.88529
359.304,22.37706,-0.03994405,1.62215,0.88485
359.804,22.39084,-0.04117065,1.62441,0.88441
360.304,22.40465,-0.04110519,1.62792,0.88397
360.804,22.41846,-0.04113201,1.62603,0.88353
361.304,22.43225,-0.04113042,1.62806,0.88308
361.804,22.44608,-0.0411299,1.63052,0.88264
362.304,22.4599,-0.04113,1.63182,0.8822
362.804,22.4737,-0.04113004,1.63784,0.88175
363.304,22.48744,-0.04112983,1.63627,0.88131
363.804,22.50124,-0.04112941,1.63948,0.88087
364.304,22.51501,-0.04113892,1.64109,0.88042
364.804,22.5288,-0.04110953,1.64316,0.87998
365.304,22.5426,-0.04149246,1.64346,0.87954
365.804,22.5564,-0.04145329,1.64815,0.87909
366.304,22.57024,-0.04145998,1.65136,0.87865
366.804,22.58409,-0.0414547,1.65199,0.8782
367.304,22.5979,-0.04164475,1.65245,0.87776
367.804,22.6118,-0.04285336,1.65615,0.87731
368.304,22.62568,-0.04275785,1.65735,0.87687
368.804,22.63948,-0.04278064,1.65981,0.87642
369.304,22.65331,-0.04278118,1.66402,0.87598
369.804,22.66713,-0.04277632,1.66302,0.87553
370.304,22.68095,-0.04277103,1.66556,0.87509
370.804,22.69479,-0.04303111,1.66859,0.87464
371.304,22.70857,-0.04403286,1.67039,0.8742
371.804,22.72242,-0.04464502,1.67145,0.87375
372.304,22.73629,-0.0454851,1.67513,0.87331
372.804,22.75013,-0.04541055,1.6768,0.87286
373.304,22.76395,-0.04540808,1.67906,0.87241
373.804,22.7778,-0.04541011,1.6852,0.87197
374.304,22.79166,-0.04540943,1.68959,0.87152
374.804,22.80552,-0.04541682,1.68978,0.87108
375.304,22.8194,-0.04540133,1.69137,0.87063
375.804,22.83324,-0.04514033,1.69256,0.87018
376.304,22.84711,-0.04411326,1.69697,0.86974
376.804,22.861,-0.04409091,1.69711,0.86929
377.304,22.87485,-0.04408952,1.70267,0.86884
377.804,22.88873,-0.04409003,1.70558,0.8684
378.304,22.9026,-0.04409005,1.71186,0.86795
378.804,22.9165,-0.04408973,1.71483,0.8675
379.304,22.93047,-0.0440897,1.71961,0.86706
379.804,22.9444,-0.04410183,1.72427,0.86661
380.304,22.95831,-0.04405247,1.72655,0.86616
380.804,22.97223,-0.04493519,1.72917,0.86571
381.304,22.9862,-0.04544279,1.73196,0.86527
381.804,23.00003,-0.04540955,1.73429,0.86482
382.304,23.01398,-0.04575619,1.73943,0.86437
382.804,23.0279,-0.04671793,1.74692,0.86392
383.304,23.04184,-0.04673787,1.74895,0.86347
383.804,23.05579,-0.04663386,1.75247,0.86303
384.304,23.06973,-0.04769677,1.75575,0.86258
384.804,23.08367,-0.04806373,1.7625,0.86213
385.304,23.09766,-0.04786947,1.76466,0.86168
385.804,23.11158,-0.04712813,1.76896,0.86123
386.304,23.1254,-0.04832977,1.77557,0.86079
386.804,23.1393,-0.04837035,1.78219,0.86034
387.304,23.15326,-0.04837136,1.78556,0.85989
387.804,23.16724,-0.04836371,1.79383,0.85944
388.304,23.1812,-0.04834979,1.80075,0.85899
388.804,23.19516,-0.04883562,1.80752,0.85854
389.304,23.2092,-0.04979512,1.81519,0.8581
389.804,23.22332,-0.0499406,1.82322,0.85765
390.304,23.23732,-0.05107991,1.82789,0.8572
390.804,23.25129,-0.05120904,1.83705,0.85675
391.304,23.26526,-0.05123748,1.8441,0.8563
391.804,23.27926,-0.05119995,1.85154,0.85585
392.304,23.29322,-0.05214076,1.8561,0.8554
392.804,23.30716,-0.05258725,1.86378,0.85495
393.304,23.32108,-0.0525946,1.86484,0.8545
393.804,23.33509,-0.05430738,1.87457,0.85406
394.304,23.34911,-0.05540248,1.87706,0.85361
394.804,23.36308,-0.05563869,1.88445,0.85316
395.304,23.37708,-0.05677558,1.89152,0.85271
395.804,23.39114,-0.05729563,1.89554,0.85226
396.304,23.40522,-0.05860096,1.90287,0.85181
396.804,23.41927,-0.05969587,1.91366,0.85136
397.304,23.4333,-0.06051326,1.91956,0.85091
397.804,23.44735,-0.0619065,1.92665,0.85046
398.304,23.46143,-0.06258308,1.93188,0.85001
398.804,23.47547,-0.06371858,1.94021,0.84956
399.304,23.48948,-0.06499331,1.95077,0.84911
399.804,23.50358,-0.0660354,1.959,0.84866
400.304,23.51762,-0.06730827,1.96871,0.84821
400.804,23.53171,-0.06881971,1.97556,0.84776
401.304,23.54577,-0.06956927,1.98492,0.84731
401.804,23.5598,-0.07107151,1.99947,0.84687
402.304,23.5739,-0.07204354,2.01152,0.84642
402.804,23.588,-0.07326054,2.02361,0.84597
403.304,23.60207,-0.07505331,2.04249,0.84552
403.804,23.61618,-0.07656819,2.0543,0.84507
404.304,23.63027,-0.07812357,2.07027,0.84462
404.804,23.6444,-0.08022582,2.08019,0.84417
405.304,23.6585,-0.08182587,2.09958,0.84372
405.804,23.6726,-0.08433472,2.11646,0.84327
406.304,23.68674,-0.08583858,2.13586,0.84282
406.804,23.70084,-0.08842173,2.14983,0.84237
407.304,23.71493,-0.0908399,2.16805,0.84192
407.804,23.729,-0.092906,2.18886,0.84147
408.304,23.74315,-0.09557393,2.20871,0.84102
408.804,23.75724,-0.09777718,2.23004,0.84057
409.304,23.77135,-0.10115,2.25285,0.84012
409.804,23.78545,-0.1029,2.27332,0.83967
410.304,23.79956,-0.10579,2.295,0.83922
410.804,23.81372,-0.10824,2.32218,0.83877
411.304,23.82787,-0.11102,2.34659,0.83832
411.804,23.84202,-0.11442,2.37118,0.83787
412.304,23.85615,-0.118,2.39638,0.83742
412.804,23.8703,-0.12152,2.42844,0.83697
413.304,23.88446,-0.12582,2.45399,0.83652
413.804,23.89861,-0.12927,2.48351,0.83607
414.304,23.91275,-0.13329,2.51674,0.83562
414.804,23.9269,-0.13711,2.54932,0.83517
415.304,23.94117,-0.14087,2.5762,0.83472
415.804,23.95543,-0.14625,2.60673,0.83428
416.304,23.96966,-0.15093,2.63852,0.83383
416.804,23.98386,-0.15639,2.6742,0.83338
417.304,23.99806,-0.16242,2.71504,0.83293
417.804,24.01216,-0.16683,2.75308,0.83248
418.304,24.02636,-0.172,2.79628,0.83203
418.804,24.04051,-0.17901,2.82966,0.83158
419.304,24.05465,-0.18446,2.87061,0.83113
419.804,24.0688,-0.19109,2.91807,0.83068
420.304,24.08308,-0.19878,2.96694,0.83023
420.804,24.0974,-0.20463,3.02324,0.82978
421.304,24.1115,-0.21198,3.07685,0.82933
421.804,24.12578,-0.21979,3.13147,0.82888
422.304,24.13997,-0.22758,3.18438,0.82844
422.804,24.15418,-0.23697,3.23908,0.82799
423.304,24.16842,-0.24575,3.29311,0.82754
423.804,24.18264,-0.2543,3.33755,0.82709
424.304,24.19688,-0.26538,3.38341,0.82664
424.804,24.21112,-0.27456,3.42683,0.82619
425.304,24.22541,-0.28454,3.4698,0.82574
425.804,24.23967,-0.29677,3.51778,0.82529
426.304,24.25389,-0.30599,3.57536,0.82485
426.804,24.26816,-0.31718,3.64344,0.8244
427.304,24.28244,-0.33012,3.72445,0.82395
427.804,24.2967,-0.34029,3.80214,0.8235
428.304,24.31093,-0.35332,3.87072,0.82305
428.804,24.3252,-0.36789,3.90801,0.8226
429.304,24.33955,-0.38081,3.94428,0.82215
429.804,24.35388,-0.39746,3.99252,0.82171
430.304,24.36823,-0.41273,4.07165,0.82126
430.804,24.38261,-0.42734,4.12673,0.82081
431.304,24.39695,-0.44544,4.16916,0.82036
431.804,24.41133,-0.45989,4.22141,0.81991
432.304,24.42569,-0.47644,4.28363,0.81947
432.804,24.44006,-0.49608,4.3322,0.81902
433.304,24.45441,-0.51183,4.3681,0.81857
433.804,24.46876,-0.53074,4.39718,0.81812
434.304,24.48312,-0.55229,4.44676,0.81768
434.804,24.4975,-0.56886,4.48467,0.81723
435.304,24.51192,-0.58957,4.5184,0.81678
435.804,24.5263,-0.61058,4.57063,0.81633
436.304,24.5407,-0.62937,4.61665,0.81589
436.804,24.55508,-0.65353,4.6542,0.81544
437.304,24.56951,-0.67481,4.68232,0.81499
437.804,24.58394,-0.69712,4.72674,0.81455
438.304,24.59836,-0.72454,4.77628,0.8141
438.804,24.61275,-0.74479,4.8073,0.81365
439.304,24.62719,-0.76825,4.83673,0.81321
439.804,24.64161,-0.79685,4.86377,0.81276
440.304,24.65604,-0.81879,4.89834,0.81231
440.804,24.6705,-0.84602,4.92635,0.81187
441.304,24.68489,-0.87514,4.96256,0.81142
441.804,24.69935,-0.89941,5.02496,0.81097
442.304,24.71375,-0.92992,5.06566,0.81053
442.804,24.7282,-0.95843,5.08267,0.81008
443.304,24.7426,-0.98591,5.09597,0.80964
443.804,24.75712,-1.02114,5.08962,0.80919
444.304,24.77157,-1.04897,5.09707,0.80875
444.804,24.78605,-1.07948,5.10332,0.8083
445.304,24.80058,-1.11577,5.09592,0.80785
445.804,24.81503,-1.14246,5.07543,0.80741
446.304,24.8295,-1.1747,5.06814,0.80696
446.804,24.84402,-1.21052,5.0528,0.80652
447.304,24.8585,-1.23918,5.02493,0.80607
447.804,24.87303,-1.27503,5.01748,0.80563
448.304,24.88756,-1.30887,4.9907,0.80518
448.804,24.9021,-1.33981,4.95806,0.80474
449.304,24.91662,-1.37838,4.92143,0.8043
449.804,24.93112,-1.40905,4.86103,0.80385
450.304,24.94567,-1.44209,4.83077,0.80341
450.804,24.9602,-1.48156,4.81324,0.80296
451.304,24.97466,-1.51006,4.7735,0.80252
451.804,24.98917,-1.54366,4.72545,0.80207
452.304,25.0037,-1.58259,4.66968,0.80163
452.804,25.0182,-1.61265,4.59905,0.80119
453.304,25.0327,-1.64968,4.53588,0.80074
453.804,25.0472,-1.68543,4.44635,0.8003
454.304,25.06174,-1.71696,4.37488,0.79986
454.804,25.07624,-1.75492,4.27993,0.79941
455.304,25.09072,-1.78508,4.17771,0.79897
455.804,25.10525,-1.8166,4.08361,0.79853
456.304,25.11973,-1.85396,3.9999,0.79809
456.804,25.13423,-1.88115,3.92215,0.79764
457.304,25.14872,-1.91283,3.85711,0.7972
457.804,25.16327,-1.94783,3.78177,0.79676
458.304,25.17778,-1.97394,3.70672,0.79632
458.804,25.19233,-2.00541,3.63222,0.79587
459.304,25.20684,-2.03562,3.56361,0.79543
459.804,25.22135,-2.06088,3.48322,0.79499
460.304,25.2359,-2.09368,3.40648,0.79455
460.804,25.25038,-2.11987,3.3313,0.79411
461.304,25.26491,-2.14741,3.25542,0.79367
461.804,25.2794,-2.17954,3.18085,0.79323
462.304,25.294,-2.20234,3.11433,0.79279
462.804,25.3085,-2.22837,3.04702,0.79234
463.304,25.32309,-2.25703,2.98356,0.7919
463.804,25.33765,-2.27869,2.9197,0.79146
464.304,25.3522,-2.30523,2.86271,0.79102
464.804,25.36675,-2.33033,2.80722,0.79058
465.304,25.38125,-2.35193,2.75251,0.79014
465.804,25.39581,-2.37819,2.69486,0.7897
466.304,25.41038,-2.39931,2.63949,0.78926
466.804,25.4249,-2.42135,2.58757,0.78882
467.304,25.43944,-2.44807,2.52764,0.78839
467.804,25.45401,-2.46686,2.47715,0.78795
468.304,25.46862,-2.48874,2.42471,0.78751
468.804,25.4832,-2.51234,2.36744,0.78707
469.304,25.49771,-2.52939,2.31619,0.78663
469.804,25.51224,-2.55016,2.26009,0.78619
470.304,25.52678,-2.56947,2.20762,0.78575
470.804,25.5413,-2.58607,2.15289,0.78532
471.304,25.55588,-2.60656,2.1004,0.78488
471.804,25.57045,-2.62271,2.04703,0.78444
472.304,25.58503,-2.63909,1.9905,0.784
472.804,25.59966,-2.65809,1.9351,0.78356
473.304,25.61426,-2.67147,1.88068,0.78313
473.804,25.6289,-2.6868,1.82253,0.78269
474.304,25.64356,-2.70309,1.76623,0.78225
474.804,25.65819,-2.71498,1.71088,0.78182
475.304,25.67288,-2.72865,1.65505,0.78138
475.804,25.68751,-2.74106,1.59861,0.78094
476.304,25.7022,-2.75184,1.54291,0.78051
476.804,25.71686,-2.76464,1.49218,0.78007
477.304,25.73145,-2.7743,1.4355,0.77964
477.804,25.7461,-2.78425,1.38457,0.7792
478.304,25.76077,-2.79528,1.33084,0.77877
478.804,25.77546,-2.80296,1.28189,0.77833
479.304,25.79019,-2.81205,1.22895,0.7779
479.804,25.80487,-2.82107,1.18143,0.77746
480.304,25.81958,-2.82793,1.13437,0.77703
480.804,25.83427,-2.83588,1.09194,0.77659
481.304,25.849,-2.84217,1.04726,0.77616
481.804,25.86372,-2.84819,1.00391,0.77572
482.304,25.8784,-2.85572,0.96462,0.77529
482.804,25.89319,-2.86107,0.92238,0.77486
483.304,25.908,-2.86695,0.88467,0.77442
483.804,25.92276,-2.87328,0.84719,0.77399
484.304,25.9375,-2.87776,0.81044,0.77356
484.804,25.95224,-2.88348,0.77589,0.77312
485.304,25.967,-2.88954,0.7435,0.77269
485.804,25.98177,-2.89377,0.71106,0.77226
486.304,25.99654,-2.89873,0.67927,0.77183
486.804,26.01126,-2.90239,0.65129,0.7714
487.304,26.02606,-2.90659,0.62296,0.77096
487.804,26.04083,-2.91176,0.59327,0.77053
488.304,26.0556,-2.91532,0.56636,0.7701
488.804,26.0704,-2.9192,0.54014,0.76967
489.304,26.08523,-2.92307,0.51436,0.76924
489.804,26.10008,-2.92645,0.49015,0.76881
490.304,26.11486,-2.93053,0.46397,0.76838
490.804,26.12966,-2.9348,0.44155,0.76795
491.304,26.1445,-2.93835,0.41672,0.76752
491.804,26.15926,-2.94136,0.39591,0.76709
492.304,26.174,-2.9448,0.3735,0.76666
492.804,26.18883,-2.94701,0.35303,0.76623
493.304,26.2036,-2.94946,0.33636,0.7658
493.804,26.2184,-2.95135,0.31648,0.76537
494.304,26.2332,-2.95389,0.29987,0.76494
494.804,26.24802,-2.9571,0.28583,0.76452
495.304,26.2629,-2.95937,0.2682,0.76409
495.804,26.2777,-2.96276,0.25516,0.76366
496.304,26.29255,-2.96494,0.24424,0.76323
496.804,26.3074,-2.96683,0.23098,0.76281
497.304,26.3223,-2.96846,0.22268,0.76238
497.804,26.33713,-2.97017,0.21117,0.76195
498.304,26.352,-2.97202,0.20354,0.76152
498.804,26.36685,-2.9744,0.19601,0.7611
499.304,26.38175,-2.97583,0.18746,0.76067
499.804,26.39663,-2.97745,0.18137,0.76025
500.304,26.4115,-2.97894,0.18064,0.75982
500.804,26.4264,-2.98008,0.1757,0.75939
501.304,26.4414,-2.98189,0.17409,0.75897
501.804,26.4563,-2.98259,0.16915,0.75854
502.304,26.4712,-2.98373,0.16693,0.75812
502.804,26.4861,-2.98521,0.16529,0.7577
503.304,26.50096,-2.98598,0.16231,0.75727
503.804,26.51588,-2.98732,0.16227,0.75685
504.304,26.5307,-2.98847,0.15862,0.75642
504.804,26.5455,-2.98893,0.15913,0.756
505.304,26.56042,-2.99017,0.16027,0.75558
505.804,26.57538,-2.99007,0.15754,0.75515
506.304,26.59035,-2.99096,0.15887,0.75473
506.804,26.6053,-2.99183,0.15882,0.75431
507.304,26.62029,-2.99437,0.15786,0.75389
507.804,26.6354,-2.99478,0.15697,0.75346
508.304,26.65035,-2.99589,0.15391,0.75304
508.804,26.6653,-2.99621,0.15474,0.75262
509.304,26.68027,-2.99754,0.15441,0.7522
509.804,26.6953,-2.99803,0.15557,0.75178
510.304,26.71027,-2.99874,0.15206,0.75136
510.804,26.72519,-2.99966,0.15183,0.75094
511.304,26.7402,-2.99959,0.15563,0.75052
511.804,26.75512,-2.99983,0.15325,0.7501
512.304,26.7701,-3.00146,0.15341,0.74968
512.804,26.7851,-3.00302,0.15309,0.74926
513.304,26.8001,-3.00397,0.15024,0.74884
513.804,26.81516,-3.00387,0.14952,0.74842
514.304,26.83018,-3.00497,0.14767,0.748
514.804,26.8452,-3.0053,0.14512,0.74758
515.304,26.8602,-3.00494,0.14329,0.74717
515.804,26.87521,-3.00391,0.14379,0.74675
516.304,26.89023,-3.00399,0.14277,0.74633
516.804,26.90527,-3.00508,0.13637,0.74591
517.304,26.9203,-3.00574,0.1369,0.7455
517.804,26.93538,-3.00694,0.13238,0.74508
518.304,26.95045,-3.0077,0.13008,0.74466
518.804,26.9656,-3.00771,0.12857,0.74425
519.304,26.9806,-3.00772,0.12803,0.74383
519.804,26.99563,-3.0088,0.1235,0.74342
520.304,27.01065,-3.00901,0.12268,0.743
520.804,27.0257,-3.00911,0.12408,0.74259
521.304,27.04076,-3.01038,0.11942,0.74217
521.804,27.0558,-3.00976,0.11795,0.74176
522.304,27.0709,-3.00902,0.11874,0.74134
522.804,27.086,-3.00892,0.11782,0.74093
523.304,27.1011,-3.00765,0.11689,0.74051
523.804,27.1162,-3.00772,0.11643,0.7401
524.304,27.1313,-3.0077,0.11612,0.73969
524.804,27.14643,-3.00771,0.11486,0.73928
525.304,27.1616,-3.00771,0.11617,0.73886
525.804,27.1767,-3.00771,0.11481,0.73845
526.304,27.19186,-3.00771,0.1149,0.73804
526.804,27.207,-3.00771,0.11488,0.73763
527.304,27.22215,-3.00772,0.11508,0.73722
527.804,27.2372,-3.00766,0.11335,0.73681
528.304,27.25232,-3.00856,0.10874,0.73639
528.804,27.2675,-3.00905,0.10991,0.73598
529.304,27.28254,-3.00902,0.11228,0.73557
529.804,27.29764,-3.00902,0.1146,0.73516
530.304,27.3128,-3.00902,0.11247,0.73475
530.804,27.32797,-3.0092,0.11519,0.73435
531.304,27.3431,-3.01056,0.11491,0.73394
531.804,27.3583,-3.01044,0.11654,0.73353
532.304,27.3735,-3.01048,0.11353,0.73312
532.804,27.3887,-3.01168,0.11542,0.73271
533.304,27.4039,-3.01174,0.11319,0.7323
533.804,27.41903,-3.01178,0.11437,0.7319
534.304,27.43425,-3.01214,0.11666,0.73149
534.804,27.4495,-3.01308,0.11487,0.73108
535.304,27.46463,-3.01308,0.11395,0.73068
535.804,27.4798,-3.01308,0.11682,0.73027
536.304,27.495,-3.01308,0.1159,0.72986
536.804,27.51013,-3.01308,0.11734,0.72946
537.304,27.52526,-3.01336,0.11814,0.72905
537.804,27.5404,-3.01441,0.11305,0.72865
538.304,27.5556,-3.0144,0.11698,0.72824
538.804,27.5708,-3.01443,0.11959,0.72784
539.304,27.586,-3.01551,0.11614,0.72743
539.804,27.6012,-3.01614,0.11762,0.72703
540.304,27.61641,-3.01709,0.11452,0.72663
540.804,27.63164,-3.01703,0.1155,0.72622
541.304,27.6469,-3.01702,0.11527,0.72582
541.804,27.6621,-3.01702,0.11542,0.72542
542.304,27.67727,-3.01702,0.11808,0.72502
542.804,27.69241,-3.01702,0.11818,0.72462
543.304,27.7076,-3.01701,0.12089,0.72421
543.804,27.7228,-3.01697,0.11886,0.72381
544.304,27.738,-3.01782,0.11875,0.72341
544.804,27.7532,-3.01835,0.1185,0.72301
545.304,27.76851,-3.01834,0.11858,0.72261
545.804,27.7838,-3.01834,0.11791,0.72221
546.304,27.79907,-3.01834,0.11721,0.72181
546.804,27.8143,-3.01834,0.11916,0.72141
547.304,27.82958,-3.01834,0.11982,0.72101
547.804,27.84485,-3.01829,0.12438,0.72061
548.304,27.86008,-3.01901,0.12258,0.72022
548.804,27.8754,-3.01971,0.12206,0.71982
549.304,27.8906,-3.01966,0.12279,0.71942
549.804,27.90588,-3.01966,0.1248,0.71902
550.304,27.9212,-3.01966,0.12353,0.71863
550.804,27.9364,-3.01966,0.12237,0.71823
551.304,27.9517,-3.01966,0.12342,0.71783
551.804,27.967,-3.01965,0.12354,0.71744
552.304,27.9823,-3.02021,0.12477,0.71704
552.804,27.99757,-3.02102,0.12594,0.71665
553.304,28.01285,-3.02098,0.12742,0.71625
553.804,28.0281,-3.02097,0.12837,0.71586
554.304,28.0434,-3.02097,0.12611,0.71546
554.804,28.05872,-3.02098,0.12459,0.71507
555.304,28.07403,-3.02117,0.12638,0.71467
555.804,28.08935,-3.02227,0.12733,0.71428
556.304,28.1046,-3.02227,0.12674,0.71389
556.804,28.11999,-3.02262,0.12533,0.71349
557.304,28.1353,-3.0237,0.12754,0.7131
557.804,28.1506,-3.02361,0.1286,0.71271
558.304,28.16593,-3.02361,0.12374,0.71232
558.804,28.1812,-3.02361,0.12365,0.71193
559.304,28.1966,-3.02364,0.12592,0.71154
559.804,28.21187,-3.02375,0.12495,0.71114
560.304,28.2272,-3.02491,0.1233,0.71075
560.804,28.2426,-3.02493,0.12679,0.71036
561.304,28.2579,-3.02493,0.12704,0.70997
561.804,28.27325,-3.02493,0.1282,0.70959
562.304,28.28858,-3.02493,0.1252,0.7092
562.804,28.30397,-3.02489,0.12466,0.70881
563.304,28.3193,-3.02552,0.12547,0.70842
563.804,28.33462,-3.02629,0.12666,0.70803
564.304,28.35003,-3.02624,0.127,0.70764
564.804,28.36542,-3.02624,0.1269,0.70726
565.304,28.3807,-3.02624,0.12454,0.70687
565.804,28.3961,-3.02625,0.12838,0.70648
566.304,28.41152,-3.0263,0.12905,0.7061
566.804,28.4269,-3.02742,0.12737,0.70571
567.304,28.44228,-3.02755,0.12915,0.70533
567.804,28.4576,-3.02756,0.12818,0.70494
568.304,28.4731,-3.0282,0.13111,0.70456
568.804,28.4885,-3.0289,0.13123,0.70417
569.304,28.5039,-3.02888,0.13215,0.70379
569.804,28.51929,-3.02887,0.13085,0.7034
570.304,28.5347,-3.02887,0.1279,0.70302
570.804,28.55013,-3.02887,0.12984,0.70264
571.304,28.56555,-3.02887,0.1297,0.70225
571.804,28.5809,-3.02887,0.12975,0.70187
572.304,28.59637,-3.02887,0.1306,0.70149
572.804,28.61178,-3.02888,0.12994,0.70111
573.304,28.62722,-3.02997,0.12858,0.70073
573.804,28.64268,-3.03016,0.13092,0.70035
574.304,28.6581,-3.0302,0.13048,0.69996
574.804,28.67352,-3.03036,0.12778,0.69958
575.304,28.689,-3.03147,0.1326,0.6992
575.804,28.7044,-3.0315,0.12956,0.69883
576.304,28.71984,-3.03151,0.13121,0.69845
576.804,28.73528,-3.03142,0.1317,0.69807
577.304,28.7507,-3.03256,0.13179,0.69769
577.804,28.7662,-3.03282,0.13024,0.69731
578.304,28.7816,-3.03282,0.13046,0.69693
578.804,28.7971,-3.03282,0.1343,0.69656
579.304,28.81255,-3.03282,0.13256,0.69618
579.804,28.828,-3.03282,0.13215,0.6958
580.304,28.84348,-3.03281,0.13201,0.69543
580.804,28.85895,-3.03307,0.13105,0.69505
581.304,28.8744,-3.03422,0.13232,0.69467
581.804,28.88989,-3.03413,0.1366,0.6943
582.304,28.90539,-3.03412,0.13585,0.69392
582.804,28.92088,-3.03411,0.13755,0.69355
583.304,28.93635,-3.03475,0.14107,0.69318
583.804,28.95188,-3.03546,0.14246,0.6928
584.304,28.96736,-3.03545,0.14109,0.69243
584.804,28.98289,-3.03545,0.13986,0.69206
585.304,28.9984,-3.03545,0.14113,0.69168
585.804,29.0139,-3.03547,0.13995,0.69131
586.304,29.02937,-3.03542,0.13893,0.69094
586.804,29.0449,-3.0367,0.14365,0.69057
587.304,29.06043,-3.03677,0.14526,0.6902
587.804,29.0759,-3.03677,0.14383,0.68983
588.304,29.09143,-3.03677,0.14504,0.68945
588.804,29.10698,-3.03677,0.14148,0.68908
589.304,29.12252,-3.03679,0.14027,0.68871
589.804,29.13802,-3.03775,0.13883,0.68835
590.304,29.15356,-3.03665,0.13902,0.68798
590.804,29.16913,-3.03677,0.1378,0.68761
591.304,29.1847,-3.03677,0.13403,0.68724
591.804,29.20024,-3.03677,0.13211,0.68687
592.304,29.2158,-3.03741,0.13227,0.6865
592.804,29.2314,-3.03947,0.13172,0.68614
593.304,29.2469,-3.03938,0.13285,0.68577
593.804,29.2625,-3.0394,0.13469,0.6854
594.304,29.27804,-3.0394,0.13182,0.68504
594.804,29.2936,-3.03936,0.13066,0.68467
595.304,29.30915,-3.03999,0.1281,0.68431
595.804,29.3247,-3.04076,0.12865,0.68394
596.304,29.34024,-3.04071,0.12847,0.68358
596.804,29.35585,-3.04071,0.12817,0.68321
597.304,29.3714,-3.04071,0.12543,0.68285
597.804,29.38702,-3.04072,0.12374,0.68249
598.304,29.40265,-3.04082,0.12392,0.68212
598.804,29.4183,-3.04196,0.12698,0.68176
599.304,29.43392,-3.04202,0.12375,0.6814
599.804,29.44949,-3.04203,0.1257,0.68104
600.304,29.4651,-3.04201,0.12192,0.68068
600.804,29.48078,-3.04198,0.11734,0.68032
601.304,29.49638,-3.04198,0.11755,0.67995
601.804,29.51192,-3.04234,0.11785,0.67959
602.304,29.5275,-3.04237,0.11818,0.67923
602.804,29.5432,-3.04237,0.11712,0.67887
603.304,29.55878,-3.04237,0.11917,0.67852
603.804,29.5744,-3.04242,0.11585,0.67816
604.304,29.59003,-3.04368,0.1159,0.6778
604.804,29.60568,-3.04366,0.11443,0.67744
605.304,29.62133,-3.04368,0.1133,0.67708
605.804,29.63693,-3.04368,0.11346,0.67673
606.304,29.65255,-3.04369,0.11418,0.67637
606.804,29.6682,-3.04361,0.11316,0.67601
607.304,29.68389,-3.0449,0.11073,0.67566
607.804,29.69955,-3.045,0.10764,0.6753
608.304,29.71523,-3.04503,0.10985,0.67495
608.804,29.73102,-3.04507,0.11033,0.67459
609.304,29.7467,-3.04629,0.11109,0.67424
609.804,29.7624,-3.04632,0.1048,0.67388
610.304,29.7781,-3.04632,0.10471,0.67353
610.804,29.7938,-3.04632,0.10342,0.67317
611.304,29.8095,-3.04632,0.10255,0.67282
611.804,29.82514,-3.04632,0.10451,0.67247
612.304,29.8408,-3.04632,0.10552,0.67212
612.804,29.85647,-3.04622,0.10332,0.67177
613.304,29.87215,-3.04745,0.10196,0.67141
613.804,29.8878,-3.04763,0.10174,0.67106
614.304,29.9033,-3.04763,0.10015,0.67071
614.804,29.919,-3.04763,0.09922693,0.67036
615.304,29.93474,-3.04763,0.09403064,0.67001
615.804,29.9504,-3.04763,0.09242314,0.66966
616.304,29.9662,-3.04763,0.09583207,0.66931
616.804,29.98207,-3.04763,0.09526697,0.66896
617.304,29.998,-3.04763,0.09372121,0.66862