File: 01_Data/PET/STA/N2/30K_min/PET_STA_N2_30KData_210830_R3.csv
##Temp./Â°C,Time/min,Mass loss(subtr.2)/mg,DSC(subtr.2)/(mW/mg),Sensit./(uV/mW)
49.284,10.01,-0.02446,-0.00582838,1.05401
49.784,10.97451,-0.02471229,0.01831261,1.05402
50.284,11.1861,-0.02695917,0.03767777,1.05403
50.784,11.3308,-0.02769672,0.05620984,1.05404
51.284,11.4427,-0.02527412,0.07167036,1.05404
51.784,11.5389,-0.02748293,0.08424652,1.05405
52.284,11.6221,-0.02883079,0.09865083,1.05405
52.784,11.69794,-0.02712472,0.11279,1.05406
53.284,11.76598,-0.02905984,0.12419,1.05406
53.784,11.82962,-0.028193,0.13398,1.05406
54.284,11.88917,-0.02722746,0.14559,1.05406
54.784,11.9451,-0.02746806,0.15706,1.05406
55.284,11.99819,-0.02787093,0.16545,1.05406
55.784,12.04883,-0.03002237,0.17495,1.05406
56.284,12.09778,-0.0294365,0.18423,1.05405
56.784,12.14434,-0.02911811,0.19487,1.05404
57.284,12.18931,-0.02830136,0.20144,1.05404
57.784,12.23345,-0.02853876,0.21122,1.05403
58.284,12.27617,-0.02867804,0.2167,1.05402
58.784,12.31737,-0.02816504,0.22361,1.05401
59.284,12.35781,-0.0276001,0.23248,1.054
59.784,12.39777,-0.02816304,0.23882,1.05398
60.284,12.4366,-0.02816881,0.24498,1.05397
60.784,12.47435,-0.02691978,0.25215,1.05395
61.284,12.5113,-0.02871322,0.25745,1.05394
61.784,12.5477,-0.02972591,0.26315,1.05392
62.284,12.5839,-0.0297278,0.27034,1.0539
62.784,12.61935,-0.02975544,0.27356,1.05388
63.284,12.65422,-0.02902258,0.2799,1.05386
63.784,12.68871,-0.02808673,0.28731,1.05383
64.284,12.72287,-0.02929272,0.29154,1.05381
64.784,12.75652,-0.02893972,0.2983,1.05378
65.284,12.78923,-0.02700107,0.30232,1.05376
65.784,12.82217,-0.02840919,0.30841,1.05373
66.284,12.8545,-0.02849389,0.31549,1.0537
66.784,12.88725,-0.02899978,0.31798,1.05367
67.284,12.91889,-0.02965358,0.32447,1.05364
67.784,12.95042,-0.03061063,0.33035,1.05361
68.284,12.98172,-0.02984594,0.33544,1.05357
68.784,13.01275,-0.0279868,0.34148,1.05354
69.284,13.0434,-0.02953169,0.34522,1.0535
69.784,13.0737,-0.03000094,0.35358,1.05346
70.284,13.10405,-0.02993888,0.35892,1.05343
70.784,13.1343,-0.03024753,0.36542,1.05339
71.284,13.1642,-0.03035591,0.36933,1.05335
71.784,13.1938,-0.02959272,0.37469,1.0533
72.284,13.22303,-0.02974275,0.38206,1.05326
72.784,13.25179,-0.03058226,0.38569,1.05322
73.284,13.28069,-0.02927169,0.39116,1.05317
73.784,13.3093,-0.03002595,0.3949,1.05312
74.284,13.338,-0.03013264,0.39874,1.05308
74.784,13.3664,-0.02914906,0.40078,1.05303
75.284,13.39461,-0.02877696,0.40291,1.05298
75.784,13.42257,-0.02930667,0.40452,1.05292
76.284,13.4502,-0.03005739,0.40411,1.05287
76.784,13.47754,-0.03051534,0.40703,1.05282
77.284,13.50484,-0.02976773,0.4074,1.05276
77.784,13.5321,-0.02909825,0.40863,1.05271
78.284,13.55918,-0.02933104,0.41052,1.05265
78.784,13.5861,-0.03023256,0.41288,1.05259
79.284,13.6127,-0.03068544,0.41708,1.05253
79.784,13.63915,-0.03038083,0.42106,1.05247
80.284,13.6656,-0.02929418,0.42713,1.05241
80.784,13.69183,-0.0286264,0.43233,1.05235
81.284,13.71785,-0.02924981,0.43934,1.05228
81.784,13.7437,-0.03105986,0.44644,1.05222
82.284,13.76934,-0.03152019,0.45182,1.05215
82.784,13.795,-0.03042765,0.46078,1.05208
83.284,13.82032,-0.03092729,0.4676,1.05201
83.784,13.84554,-0.03230677,0.47217,1.05194
84.284,13.87059,-0.03240906,0.4793,1.05187
84.784,13.8955,-0.03216817,0.48296,1.0518
85.284,13.9206,-0.03353971,0.48964,1.05173
85.784,13.9452,-0.03371149,0.49667,1.05165
86.284,13.96967,-0.03223896,0.50138,1.05157
86.784,13.994,-0.03141298,0.50782,1.0515
87.284,14.01805,-0.03137577,0.5129,1.05142
87.784,14.0422,-0.03069063,0.51825,1.05134
88.284,14.0662,-0.03155126,0.52135,1.05126
88.784,14.09,-0.03104103,0.52672,1.05118
89.284,14.1137,-0.03082932,0.53114,1.0511
89.784,14.1373,-0.03171872,0.53686,1.05101
90.284,14.1606,-0.03131247,0.54111,1.05093
90.784,14.18397,-0.03129597,0.54375,1.05084
91.284,14.2072,-0.03191963,0.54829,1.05075
91.784,14.2303,-0.03181389,0.55475,1.05067
92.284,14.25322,-0.03209032,0.55774,1.05058
92.784,14.27609,-0.0331088,0.56187,1.05049
93.284,14.29885,-0.03350121,0.56493,1.05039
93.784,14.32136,-0.03326608,0.56796,1.0503
94.284,14.34379,-0.03286389,0.57143,1.05021
94.784,14.36594,-0.03287195,0.57499,1.05011
95.284,14.3882,-0.03325741,0.58034,1.05002
95.784,14.41035,-0.03225924,0.58518,1.04992
96.284,14.43249,-0.03153717,0.5884,1.04982
96.784,14.4545,-0.03188974,0.59044,1.04972
97.284,14.4763,-0.03267325,0.59507,1.04962
97.784,14.49806,-0.03280278,0.59842,1.04952
98.284,14.5197,-0.03324814,0.60383,1.04942
98.784,14.5413,-0.03294925,0.60626,1.04931
99.284,14.56265,-0.03279563,0.60822,1.04921
99.784,14.58399,-0.03301689,0.61208,1.0491
100.284,14.6053,-0.03176173,0.61651,1.04899
100.784,14.6264,-0.03172334,0.61921,1.04888
101.284,14.64746,-0.03208556,0.62206,1.04878
101.784,14.6685,-0.03245688,0.62519,1.04866
102.284,14.6893,-0.03209488,0.62965,1.04855
102.784,14.71011,-0.03314019,0.6332,1.04844
103.284,14.7307,-0.03356229,0.63505,1.04833
103.784,14.75129,-0.03378455,0.64036,1.04821
104.284,14.7719,-0.03378812,0.64368,1.0481
104.784,14.79245,-0.03373115,0.64786,1.04798
105.284,14.81289,-0.03472647,0.6501,1.04786
105.784,14.8333,-0.03362534,0.65393,1.04774
106.284,14.8536,-0.03287898,0.65793,1.04762
106.784,14.8739,-0.03367677,0.66094,1.0475
107.284,14.894,-0.03343375,0.66215,1.04738
107.784,14.9139,-0.0336571,0.66641,1.04725
108.284,14.93401,-0.0336558,0.66925,1.04713
108.784,14.954,-0.03373562,0.67197,1.047
109.284,14.9739,-0.03449854,0.67565,1.04687
109.784,14.9939,-0.03419189,0.67915,1.04675
110.284,15.0138,-0.03403985,0.68053,1.04662
110.784,15.0334,-0.03483801,0.6836,1.04649
111.284,15.05309,-0.03456091,0.68769,1.04636
111.784,15.07272,-0.03393965,0.69037,1.04622
112.284,15.09225,-0.03350663,0.69386,1.04609
112.784,15.11174,-0.03382115,0.69675,1.04596
113.284,15.1312,-0.03300528,0.70128,1.04582
113.784,15.15044,-0.03349628,0.70339,1.04568
114.284,15.1698,-0.03324264,0.70866,1.04555
114.784,15.189,-0.03382243,0.71067,1.04541
115.284,15.20824,-0.03303065,0.71418,1.04527
115.784,15.2274,-0.03377551,0.71652,1.04513
116.284,15.24644,-0.03394586,0.71881,1.04498
116.784,15.26551,-0.03310423,0.7218,1.04484
117.284,15.2845,-0.03396503,0.72313,1.0447
117.784,15.3035,-0.03391292,0.72713,1.04455
118.284,15.3224,-0.03398476,0.73095,1.04441
118.784,15.3412,-0.03385813,0.73568,1.04426
119.284,15.35999,-0.03421949,0.73754,1.04411
119.784,15.3787,-0.03404407,0.73943,1.04396
120.284,15.39734,-0.03396289,0.74382,1.04381
120.784,15.41596,-0.03409509,0.74828,1.04366
121.284,15.43449,-0.03390402,0.75039,1.04351
121.784,15.4529,-0.0337925,0.75322,1.04335
122.284,15.47131,-0.03390832,0.75573,1.0432
122.784,15.4897,-0.0342144,0.75951,1.04304
123.284,15.50809,-0.03409494,0.76343,1.04289
123.784,15.5264,-0.03398824,0.76559,1.04273
124.284,15.5447,-0.03492824,0.76747,1.04257
124.784,15.563,-0.03395269,0.772,1.04241
125.284,15.58124,-0.03431874,0.77488,1.04225
125.784,15.5994,-0.03399537,0.77556,1.04209
126.284,15.6176,-0.03530402,0.78012,1.04193
126.784,15.6356,-0.03542668,0.78151,1.04176
127.284,15.6536,-0.03414337,0.78509,1.0416
127.784,15.67155,-0.03429346,0.78778,1.04143
128.284,15.6894,-0.03520495,0.78954,1.04126
128.784,15.70716,-0.03526715,0.79195,1.0411
129.284,15.725,-0.03431964,0.79445,1.04093
129.784,15.74266,-0.03423966,0.79738,1.04076
130.284,15.7603,-0.03424255,0.80084,1.04059
130.784,15.778,-0.0350336,0.80452,1.04041
131.284,15.79566,-0.03417531,0.80661,1.04024
131.784,15.8132,-0.03423834,0.80915,1.04007
132.284,15.831,-0.03569196,0.81308,1.03989
132.784,15.8485,-0.03563108,0.8133,1.03972
133.284,15.86597,-0.03565274,0.81524,1.03954
133.784,15.88344,-0.03568405,0.81863,1.03936
134.284,15.90086,-0.03491347,0.82202,1.03918
134.784,15.9182,-0.03416138,0.82348,1.039
135.284,15.93556,-0.03433417,0.82656,1.03882
135.784,15.9529,-0.03413871,0.83021,1.03864
136.284,15.97021,-0.03377235,0.83068,1.03846
136.784,15.98749,-0.03395291,0.83378,1.03827
137.284,16.00477,-0.03417792,0.83705,1.03809
137.784,16.0219,-0.03472666,0.84111,1.0379
138.284,16.03905,-0.03557968,0.8433,1.03772
138.784,16.05613,-0.03434139,0.84574,1.03753
139.284,16.0732,-0.0341107,0.84874,1.03734
139.784,16.09017,-0.03409991,0.85142,1.03715
140.284,16.10717,-0.03283078,0.85356,1.03696
140.784,16.12411,-0.0329257,0.85568,1.03677
141.284,16.14105,-0.03308928,0.85826,1.03657
141.784,16.15791,-0.03277333,0.8624,1.03638
142.284,16.17465,-0.03274119,0.8647,1.03618
142.784,16.1915,-0.03357243,0.8661,1.03599
143.284,16.20826,-0.03412705,0.86737,1.03579
143.784,16.22502,-0.0341069,0.86935,1.03559
144.284,16.2418,-0.03461035,0.87385,1.0354
144.784,16.25858,-0.03545611,0.87709,1.0352
145.284,16.2752,-0.03543597,0.88145,1.035
145.784,16.2918,-0.03542795,0.88042,1.03479
146.284,16.30818,-0.03563101,0.88548,1.03459
146.784,16.32455,-0.03683503,0.88726,1.03439
147.284,16.3411,-0.03675412,0.89005,1.03418
147.784,16.35762,-0.03626921,0.89471,1.03398
148.284,16.37415,-0.03530101,0.89581,1.03377
148.784,16.39068,-0.03647214,0.89875,1.03356
149.284,16.40739,-0.03674214,0.90191,1.03336
149.784,16.42381,-0.03656822,0.90445,1.03315
150.284,16.4402,-0.03542544,0.90862,1.03294
150.784,16.45651,-0.03646431,0.91222,1.03273
151.284,16.4728,-0.03672865,0.91311,1.03251
151.784,16.48911,-0.03649474,0.91485,1.0323
152.284,16.50541,-0.03519519,0.91692,1.03209
152.784,16.52169,-0.03517735,0.92035,1.03187
153.284,16.53793,-0.03450467,0.92327,1.03166
153.784,16.5541,-0.0353735,0.92418,1.03144
154.284,16.57036,-0.03532056,0.92749,1.03122
154.784,16.58651,-0.03533201,0.93138,1.031
155.284,16.60259,-0.03542473,0.93309,1.03078
155.784,16.6187,-0.03662248,0.93587,1.03056
156.284,16.6348,-0.03558723,0.94061,1.03034
156.784,16.65084,-0.03532979,0.94195,1.03012
157.284,16.6669,-0.03637898,0.94349,1.0299
157.784,16.68298,-0.03661559,0.94608,1.02967
158.284,16.69906,-0.03635542,0.94921,1.02945
158.784,16.71496,-0.03553389,0.9527,1.02922
159.284,16.73089,-0.03637201,0.95666,1.02899
159.784,16.7468,-0.03699667,0.95923,1.02877
160.284,16.76267,-0.03698244,0.96122,1.02854
160.784,16.77854,-0.03666659,0.9639,1.02831
161.284,16.79443,-0.03662873,0.9667,1.02808
161.784,16.81034,-0.03662053,0.96943,1.02785
162.284,16.82621,-0.03543402,0.97159,1.02761
162.784,16.84204,-0.03604899,0.97291,1.02738
163.284,16.8579,-0.03597016,0.97617,1.02715
163.784,16.87367,-0.03597462,0.97902,1.02691
164.284,16.88944,-0.03598573,0.98089,1.02668
164.784,16.90524,-0.03632754,0.98243,1.02644
165.284,16.9209,-0.03663141,0.98675,1.0262
165.784,16.9365,-0.03663983,0.98968,1.02596
166.284,16.95218,-0.03661769,0.99289,1.02572
166.784,16.96789,-0.03712631,0.99405,1.02548
167.284,16.98357,-0.03800281,0.99423,1.02524
167.784,16.99921,-0.03794458,0.99963,1.025
168.284,17.01483,-0.03872642,1.00139,1.02476
168.784,17.03044,-0.03792004,1.00442,1.02451
169.284,17.046,-0.03798356,1.00744,1.02427
169.784,17.0615,-0.03747974,1.00669,1.02402
170.284,17.07704,-0.03658329,1.01028,1.02377
170.784,17.0924,-0.03663861,1.01268,1.02353
171.284,17.1079,-0.03660989,1.01519,1.02328
171.784,17.1233,-0.0369754,1.01731,1.02303
172.284,17.13878,-0.03573169,1.0202,1.02278
172.784,17.15423,-0.03567465,1.02065,1.02253
173.284,17.1696,-0.03565,1.02389,1.02228
173.784,17.18512,-0.03567625,1.02409,1.02202
174.284,17.20052,-0.03568591,1.029,1.02177
174.784,17.21594,-0.03672576,1.03057,1.02152
175.284,17.23132,-0.0366433,1.03479,1.02126
175.784,17.24663,-0.03675337,1.03638,1.021
176.284,17.262,-0.0380272,1.03354,1.02075
176.784,17.27725,-0.03793544,1.03884,1.02049
177.284,17.2925,-0.03794779,1.04215,1.02023
177.784,17.30767,-0.03795353,1.04395,1.01997
178.284,17.32284,-0.03797991,1.04548,1.01971
178.784,17.3381,-0.03744927,1.04565,1.01945
179.284,17.35333,-0.0365826,1.04612,1.01919
179.784,17.36851,-0.03661682,1.04908,1.01892
180.284,17.38366,-0.03631913,1.05204,1.01866
180.784,17.39886,-0.03532713,1.05407,1.0184
181.284,17.414,-0.03536359,1.05673,1.01813
181.784,17.42898,-0.03657206,1.05926,1.01786
182.284,17.444,-0.03661419,1.05995,1.0176
182.784,17.45903,-0.03664108,1.06148,1.01733
183.284,17.47407,-0.03663747,1.06387,1.01706
183.784,17.48901,-0.03664687,1.06514,1.01679
184.284,17.504,-0.03683755,1.06786,1.01652
184.784,17.51902,-0.0379158,1.07158,1.01625
185.284,17.534,-0.03793686,1.07425,1.01598
185.784,17.54899,-0.03794964,1.07633,1.0157
186.284,17.56392,-0.03792748,1.07607,1.01543
186.784,17.5789,-0.03800872,1.0792,1.01516
187.284,17.5938,-0.03687917,1.08129,1.01488
187.784,17.60864,-0.03667202,1.08431,1.0146
188.284,17.62353,-0.03664615,1.08895,1.01433
188.784,17.6384,-0.03661181,1.09032,1.01405
189.284,17.65321,-0.03637907,1.09186,1.01377
189.784,17.66808,-0.03524711,1.09324,1.01349
190.284,17.68275,-0.03648166,1.09403,1.01321
190.784,17.6975,-0.03663319,1.09442,1.01293
191.284,17.71227,-0.03662997,1.09892,1.01265
191.784,17.72701,-0.03663342,1.0993,1.01236
192.284,17.7418,-0.03664728,1.10374,1.01208
192.784,17.7564,-0.0362662,1.10691,1.0118
193.284,17.7713,-0.03528779,1.11064,1.01151
193.784,17.78612,-0.03533108,1.11339,1.01123
194.284,17.80079,-0.03532042,1.11261,1.01094
194.784,17.81545,-0.03531974,1.11506,1.01065
195.284,17.83014,-0.03531999,1.11775,1.01036
195.784,17.84487,-0.03532098,1.11789,1.01008
196.284,17.8595,-0.03531884,1.12127,1.00979
196.784,17.87408,-0.0361162,1.12438,1.0095
197.284,17.8887,-0.03677611,1.12469,1.0092
197.784,17.90333,-0.03675753,1.12748,1.00891
198.284,17.9179,-0.03674995,1.12925,1.00862
198.784,17.93244,-0.03675651,1.13052,1.00833
199.284,17.947,-0.03670076,1.13096,1.00803
199.784,17.96162,-0.03753391,1.13597,1.00774
200.284,17.97619,-0.03810004,1.13994,1.00744
200.784,17.99069,-0.03806135,1.14176,1.00714
201.284,18.00522,-0.03805908,1.14086,1.00685
201.784,18.01977,-0.03806001,1.14262,1.00655
202.284,18.03426,-0.03806005,1.14768,1.00625
202.784,18.04874,-0.03805992,1.14592,1.00595
203.284,18.06319,-0.0380588,1.14837,1.00565
203.784,18.0777,-0.03806594,1.15152,1.00535
204.284,18.09221,-0.03810225,1.15507,1.00505
204.784,18.10665,-0.03740943,1.1562,1.00474
205.284,18.12114,-0.03673612,1.15712,1.00444
205.784,18.13559,-0.03674147,1.15718,1.00413
206.284,18.15008,-0.03673998,1.16059,1.00383
206.784,18.16453,-0.03674816,1.1632,1.00352
207.284,18.17889,-0.03672121,1.16488,1.00322
207.784,18.1933,-0.03711003,1.16564,1.00291
208.284,18.20766,-0.03704107,1.1707,1.0026
208.784,18.22204,-0.03747264,1.17056,1.00229
209.284,18.23639,-0.03794118,1.17159,1.00198
209.784,18.25071,-0.03801141,1.17631,1.00167
210.284,18.26511,-0.03680989,1.17618,1.00136
210.784,18.27944,-0.03674937,1.17858,1.00105
211.284,18.2938,-0.03674954,1.18014,1.00074
211.784,18.30809,-0.03675002,1.18184,1.00043
212.284,18.32241,-0.03674977,1.18417,1.00011
212.784,18.33667,-0.03675184,1.18387,0.9998
213.284,18.3509,-0.03675462,1.18725,0.99948
213.784,18.36523,-0.03763389,1.18887,0.99917
214.284,18.37954,-0.03807758,1.18953,0.99885
214.784,18.3938,-0.03807699,1.19158,0.99853
215.284,18.40812,-0.03806932,1.19286,0.99822
215.784,18.42245,-0.03806988,1.19364,0.9979
216.284,18.43676,-0.03807003,1.1933,0.99758
216.784,18.45107,-0.03807001,1.19642,0.99726
217.284,18.4653,-0.03806987,1.19932,0.99694
217.784,18.47958,-0.03807012,1.20136,0.99661
218.284,18.4938,-0.03807545,1.20189,0.99629
218.784,18.508,-0.03787953,1.20161,0.99597
219.284,18.52215,-0.03666845,1.20535,0.99565
219.784,18.5363,-0.03676906,1.20785,0.99532
220.284,18.55048,-0.03675018,1.2081,0.995
220.784,18.56465,-0.03676175,1.20955,0.99467
221.284,18.57882,-0.03672137,1.21183,0.99434
221.784,18.59301,-0.03764617,1.21652,0.99402
222.284,18.60719,-0.03808927,1.21655,0.99369
222.784,18.62142,-0.0380624,1.22011,0.99336
223.284,18.6356,-0.03805913,1.21919,0.99303
223.784,18.64971,-0.03806001,1.21808,0.9927
224.284,18.66386,-0.03806012,1.22129,0.99237
224.784,18.678,-0.03805959,1.22223,0.99204
225.284,18.69211,-0.0380571,1.22361,0.99171
225.784,18.7062,-0.03808613,1.22531,0.99138
226.284,18.72025,-0.0380752,1.22838,0.99104
226.784,18.7344,-0.03929553,1.22968,0.99071
227.284,18.74844,-0.03938205,1.2295,0.99037
227.784,18.76248,-0.03938046,1.23259,0.99004
228.284,18.7765,-0.03937977,1.23709,0.9897
228.784,18.7906,-0.03937981,1.23717,0.98937
229.284,18.80464,-0.03938624,1.23718,0.98903
229.784,18.81867,-0.03914867,1.23997,0.98869
230.284,18.8327,-0.03796979,1.23925,0.98835
230.784,18.8468,-0.03807685,1.2411,0.98801
231.284,18.8608,-0.03806074,1.24052,0.98767
231.784,18.8748,-0.03805959,1.24204,0.98733
232.284,18.88876,-0.03805986,1.24828,0.98699
232.784,18.9028,-0.0380577,1.24789,0.98665
233.284,18.91682,-0.03807494,1.24912,0.98631
233.784,18.9308,-0.03809046,1.24956,0.98597
234.284,18.9448,-0.03903716,1.25082,0.98562
234.784,18.95884,-0.03999389,1.25266,0.98528
235.284,18.97285,-0.04002934,1.25545,0.98493
235.784,18.98682,-0.0400172,1.2571,0.98459
236.284,19.00076,-0.03999075,1.25846,0.98424
236.784,19.01475,-0.0387934,1.26093,0.98389
237.284,19.02867,-0.03871819,1.26189,0.98355
237.784,19.04252,-0.03871952,1.26185,0.9832
238.284,19.05651,-0.03872019,1.26346,0.98285
238.784,19.07048,-0.03872011,1.26458,0.9825
239.284,19.08444,-0.03871562,1.26434,0.98215
239.784,19.0984,-0.03873342,1.26735,0.9818
240.284,19.11228,-0.03884654,1.27075,0.98145
240.784,19.1264,-0.03942107,1.26956,0.9811
241.284,19.1403,-0.03937081,1.2742,0.98075
241.784,19.15415,-0.03936864,1.27403,0.98039
242.284,19.168,-0.03937014,1.27549,0.98004
242.784,19.18196,-0.03936999,1.27686,0.97969
243.284,19.19585,-0.03937026,1.2784,0.97933
243.784,19.20973,-0.03936985,1.28011,0.97898
244.284,19.22358,-0.03936013,1.28008,0.97862
244.784,19.23749,-0.0394163,1.28012,0.97826
245.284,19.25142,-0.0386027,1.28337,0.97791
245.784,19.26526,-0.03801288,1.28508,0.97755
246.284,19.2791,-0.03806218,1.28694,0.97719
246.784,19.293,-0.03806097,1.28635,0.97683
247.284,19.30687,-0.03805983,1.28748,0.97647
247.784,19.32068,-0.03805999,1.28942,0.97611
248.284,19.3345,-0.03806007,1.29245,0.97575
248.784,19.34841,-0.03805981,1.29469,0.97539
249.284,19.36228,-0.03805831,1.29344,0.97503
249.784,19.37611,-0.03807405,1.29715,0.97467
250.284,19.38993,-0.03805794,1.29743,0.9743
250.784,19.40381,-0.03902859,1.29716,0.97394
251.284,19.41765,-0.03940433,1.29831,0.97358
251.784,19.43144,-0.03938244,1.3006,0.97321
252.284,19.44524,-0.03937909,1.30302,0.97285
252.784,19.45908,-0.03938004,1.3044,0.97248
253.284,19.47288,-0.03938002,1.30737,0.97211
253.784,19.48665,-0.03938,1.30659,0.97175
254.284,19.50044,-0.03938,1.30851,0.97138
254.784,19.5143,-0.03937999,1.30907,0.97101
255.284,19.52815,-0.03938001,1.30995,0.97064
255.784,19.54192,-0.0393801,1.31154,0.97027
256.284,19.55573,-0.03937903,1.31288,0.9699
256.784,19.5696,-0.03938083,1.31554,0.96953
257.284,19.58342,-0.03941532,1.31384,0.96916
257.784,19.59715,-0.03895444,1.31794,0.96879
258.284,19.6109,-0.03803689,1.32041,0.96842
258.784,19.6247,-0.0380689,1.32156,0.96805
259.284,19.6384,-0.0380722,1.32044,0.96767
259.784,19.6521,-0.03817425,1.32166,0.9673
260.284,19.6658,-0.03877861,1.3251,0.96693
260.784,19.67955,-0.03871855,1.3253,0.96655
261.284,19.6933,-0.03871865,1.32699,0.96618
261.784,19.70702,-0.03872023,1.32765,0.9658
262.284,19.72075,-0.03872002,1.32856,0.96543
262.784,19.73457,-0.03871967,1.3306,0.96505
263.284,19.74833,-0.03872098,1.33232,0.96467
263.784,19.7621,-0.03872783,1.3317,0.96429
264.284,19.77585,-0.03864928,1.3323,0.96392
264.784,19.7896,-0.03936212,1.33473,0.96354
265.284,19.80336,-0.0393611,1.33642,0.96316
265.784,19.81707,-0.03938303,1.33674,0.96278
266.284,19.83075,-0.03938014,1.33627,0.9624
266.784,19.84446,-0.03937991,1.3365,0.96202
267.284,19.85815,-0.03937998,1.33751,0.96164
267.784,19.87185,-0.03937982,1.33982,0.96125
268.284,19.88554,-0.0393818,1.34259,0.96087
268.784,19.89923,-0.03937729,1.34502,0.96049
269.284,19.91295,-0.03932303,1.34316,0.96011
269.784,19.92654,-0.04001754,1.34379,0.95972
270.284,19.94019,-0.04070077,1.34684,0.95934
270.784,19.95391,-0.04069828,1.3494,0.95895
271.284,19.96762,-0.04069935,1.35093,0.95857
271.784,19.9813,-0.04069664,1.3516,0.95818
272.284,19.99495,-0.0407491,1.35189,0.9578
272.784,20.0087,-0.04014824,1.35308,0.95741
273.284,20.0225,-0.03933296,1.35368,0.95702
273.784,20.03616,-0.03939097,1.35393,0.95663
274.284,20.04972,-0.03937974,1.35731,0.95625
274.784,20.0633,-0.03937518,1.3602,0.95586
275.284,20.07698,-0.03951686,1.35861,0.95547
275.784,20.09066,-0.04073287,1.36102,0.95508
276.284,20.1043,-0.04068984,1.3617,0.95469
276.784,20.11795,-0.04064613,1.36344,0.9543
277.284,20.1316,-0.04140098,1.36379,0.95391
277.784,20.14537,-0.04130853,1.36645,0.95351
278.284,20.15905,-0.04139692,1.36709,0.95312
278.784,20.17267,-0.04018813,1.36635,0.95273
279.284,20.18629,-0.03999854,1.3668,0.95234
279.784,20.19996,-0.04035849,1.36891,0.95194
280.284,20.2136,-0.04071601,1.37454,0.95155
280.784,20.2273,-0.04068623,1.37213,0.95116
281.284,20.24093,-0.04068977,1.37126,0.95076
281.784,20.2546,-0.04069013,1.37495,0.95037
282.284,20.26827,-0.04068999,1.37493,0.94997
282.784,20.28193,-0.04068999,1.37768,0.94957
283.284,20.2956,-0.04069013,1.37656,0.94918
283.784,20.30923,-0.0406898,1.37795,0.94878
284.284,20.32289,-0.04068598,1.3816,0.94838
284.784,20.33661,-0.04071571,1.38064,0.94799
285.284,20.35023,-0.04070389,1.38085,0.94759
285.784,20.3639,-0.04190845,1.38223,0.94719
286.284,20.3775,-0.04201249,1.38464,0.94679
286.784,20.39115,-0.04200668,1.38277,0.94639
287.284,20.4048,-0.04112232,1.3843,0.94599
287.784,20.4184,-0.04054676,1.38849,0.94559
288.284,20.432,-0.04057373,1.38962,0.94519
288.784,20.4456,-0.04058179,1.39091,0.94479
289.284,20.45928,-0.04057993,1.3908,0.94439
289.784,20.4729,-0.04057995,1.39161,0.94398
290.284,20.48648,-0.04058011,1.38981,0.94358
290.784,20.50008,-0.04058002,1.39026,0.94318
291.284,20.51369,-0.04057623,1.39308,0.94277
291.784,20.52732,-0.04059765,1.39608,0.94237
292.284,20.54097,-0.0406272,1.39724,0.94197
292.784,20.5546,-0.04223674,1.39652,0.94156
293.284,20.5682,-0.04321124,1.39862,0.94116
293.784,20.58186,-0.04321892,1.40048,0.94075
294.284,20.5955,-0.04322032,1.40069,0.94035
294.784,20.60912,-0.04321998,1.40133,0.93994
295.284,20.62276,-0.04321999,1.40336,0.93953
295.784,20.63638,-0.04322,1.40235,0.93913
296.284,20.64999,-0.04322,1.40468,0.93872
296.784,20.66364,-0.04321999,1.40685,0.93831
297.284,20.67726,-0.04322002,1.40515,0.9379
297.784,20.69088,-0.04322004,1.40716,0.93749
298.284,20.70448,-0.04321913,1.40665,0.93709
298.784,20.71806,-0.04322296,1.41005,0.93668
299.284,20.73167,-0.04323662,1.41056,0.93627
299.784,20.7453,-0.04293759,1.41034,0.93586
300.284,20.75887,-0.04194094,1.41195,0.93545
300.784,20.77251,-0.04191262,1.41308,0.93503
301.284,20.7861,-0.04189727,1.41452,0.93462
301.784,20.79969,-0.04189994,1.41571,0.93421
302.284,20.8132,-0.04117727,1.41513,0.9338
302.784,20.82672,-0.04121106,1.41602,0.93339
303.284,20.8403,-0.04156341,1.41692,0.93297
303.784,20.8539,-0.04157972,1.41763,0.93256
304.284,20.8675,-0.04156784,1.42192,0.93215
304.784,20.88118,-0.04156683,1.42108,0.93173
305.284,20.89479,-0.0416178,1.42226,0.93132
305.784,20.90854,-0.04103189,1.42059,0.93091
306.284,20.9222,-0.04020615,1.42549,0.93049
306.784,20.9358,-0.04025787,1.42706,0.93008
307.284,20.9494,-0.04025403,1.42655,0.92966
307.784,20.963,-0.04038431,1.42655,0.92924
308.284,20.9766,-0.04141115,1.42818,0.92883
308.784,20.99021,-0.04156837,1.42599,0.92841
309.284,21.00382,-0.04157374,1.42584,0.92799
309.784,21.01744,-0.04156949,1.42963,0.92758
310.284,21.03106,-0.04156997,1.43252,0.92716
310.784,21.0447,-0.04156999,1.43281,0.92674
311.284,21.05837,-0.04157009,1.43285,0.92632
311.784,21.072,-0.04157073,1.43498,0.9259
312.284,21.08565,-0.04156311,1.4372,0.92548
312.784,21.0992,-0.0415804,1.43859,0.92507
313.284,21.11284,-0.04112309,1.43538,0.92465
313.784,21.12645,-0.04089149,1.4346,0.92423
314.284,21.14005,-0.04090995,1.4394,0.9238
314.784,21.15364,-0.0409105,1.44283,0.92338
315.284,21.16722,-0.04090991,1.4418,0.92296
315.784,21.18088,-0.04090996,1.44269,0.92254
316.284,21.19454,-0.04091088,1.44557,0.92212
316.784,21.20815,-0.04090714,1.44287,0.9217
317.284,21.22178,-0.04089224,1.44329,0.92128
317.784,21.23542,-0.04120333,1.4432,0.92085
318.284,21.249,-0.0421946,1.44531,0.92043
318.784,21.26265,-0.0422171,1.44782,0.92001
319.284,21.2762,-0.04223281,1.44952,0.91958
319.784,21.2898,-0.04222997,1.44799,0.91916
320.284,21.30344,-0.04222993,1.44818,0.91874
320.784,21.31705,-0.04222999,1.4494,0.91831
321.284,21.33066,-0.04222997,1.45019,0.91789
321.784,21.34427,-0.04223088,1.4514,0.91746
322.284,21.35791,-0.04222677,1.45434,0.91704
322.784,21.37153,-0.04221422,1.45435,0.91661
323.284,21.38518,-0.04251485,1.45384,0.91618
323.784,21.39876,-0.0432626,1.45735,0.91576
324.284,21.4124,-0.04206997,1.45866,0.91533
324.784,21.42602,-0.04186034,1.45869,0.91491
325.284,21.4396,-0.04222182,1.456,0.91448
325.784,21.4532,-0.04222056,1.45905,0.91405
326.284,21.4668,-0.04223299,1.45774,0.91362
326.784,21.48039,-0.04223127,1.46139,0.9132
327.284,21.49401,-0.04217297,1.46352,0.91277
327.784,21.50767,-0.04275911,1.46456,0.91234
328.284,21.5213,-0.04287849,1.46514,0.91191
328.784,21.53497,-0.04289649,1.46473,0.91148
329.284,21.54866,-0.04288537,1.46511,0.91105
329.784,21.56234,-0.04284081,1.465,0.91062
330.284,21.57593,-0.0423302,1.46689,0.91019
330.784,21.5895,-0.04222773,1.46874,0.90976
331.284,21.6031,-0.04222805,1.4701,0.90933
331.784,21.61668,-0.04223125,1.47233,0.9089
332.284,21.63025,-0.04223053,1.47328,0.90847
332.784,21.64384,-0.04219305,1.47458,0.90804
333.284,21.65747,-0.04266797,1.47603,0.90761
333.784,21.6712,-0.04353536,1.47466,0.90718
334.284,21.68492,-0.04248561,1.47646,0.90674
334.784,21.6986,-0.04221735,1.47677,0.90631
335.284,21.7122,-0.04222706,1.47852,0.90588
335.784,21.7259,-0.04223066,1.48136,0.90545
336.284,21.7396,-0.04223005,1.48106,0.90501
336.784,21.75326,-0.0422329,1.48184,0.90458
337.284,21.76688,-0.04221374,1.47972,0.90415
337.784,21.78056,-0.04259597,1.48193,0.90371
338.284,21.79423,-0.04328111,1.48372,0.90328
338.784,21.8079,-0.04321321,1.48711,0.90285
339.284,21.8216,-0.04321918,1.48774,0.90241
339.784,21.83526,-0.04322029,1.48814,0.90198
340.284,21.84894,-0.04321998,1.48808,0.90154
340.784,21.86262,-0.04321999,1.49252,0.90111
341.284,21.87627,-0.04322,1.4925,0.90067
341.784,21.89,-0.04322,1.49313,0.90024
342.284,21.90365,-0.04322,1.49179,0.8998
342.784,21.9173,-0.04322,1.4918,0.89937
343.284,21.931,-0.04322,1.49592,0.89893
343.784,21.9446,-0.04322,1.49783,0.89849
344.284,21.95828,-0.04322,1.49803,0.89806
344.784,21.97196,-0.04322,1.49895,0.89762
345.284,21.98562,-0.04322,1.50093,0.89718
345.784,21.99926,-0.04322,1.49973,0.89675
346.284,22.01296,-0.04322008,1.50136,0.89631
346.784,22.02668,-0.04321949,1.50288,0.89587
347.284,22.04041,-0.0432195,1.50315,0.89543
347.784,22.05409,-0.04326439,1.50491,0.895
348.284,22.0678,-0.04436457,1.50467,0.89456
348.784,22.0815,-0.04451249,1.50929,0.89412
349.284,22.09522,-0.04453626,1.51041,0.89368
349.784,22.1089,-0.04452965,1.50893,0.89324
350.284,22.12264,-0.04452995,1.51088,0.8928
350.784,22.13638,-0.04452954,1.50986,0.89236
351.284,22.1501,-0.04452986,1.51149,0.89192
351.784,22.1638,-0.0445682,1.51357,0.89148
352.284,22.17756,-0.0456589,1.51475,0.89104
352.784,22.19118,-0.0458354,1.51712,0.89061
353.284,22.20492,-0.04585661,1.51721,0.89017
353.784,22.21856,-0.04584955,1.51976,0.88972
354.284,22.2322,-0.0458504,1.52016,0.88928
354.784,22.24596,-0.04584569,1.52161,0.88884
355.284,22.2597,-0.04585274,1.52108,0.8884
355.784,22.27346,-0.0452731,1.52124,0.88796
356.284,22.28728,-0.04482584,1.52434,0.88752
356.784,22.30104,-0.04485774,1.52807,0.88708
357.284,22.31484,-0.04486114,1.52752,0.88664
357.784,22.32858,-0.04485992,1.52815,0.8862
358.284,22.34229,-0.04485998,1.52679,0.88575
358.784,22.35606,-0.04486001,1.52797,0.88531
359.284,22.36981,-0.04486,1.53046,0.88487
359.784,22.38354,-0.04486,1.53293,0.88443
360.284,22.3973,-0.04486,1.53471,0.88399
360.784,22.41108,-0.04486,1.53703,0.88354
361.284,22.42485,-0.04485998,1.5375,0.8831
361.784,22.43864,-0.04486005,1.53842,0.88266
362.284,22.45244,-0.04486048,1.53942,0.88221
362.784,22.46624,-0.04485632,1.53983,0.88177
363.284,22.48005,-0.04485963,1.5436,0.88133
363.784,22.49384,-0.04504356,1.5463,0.88088
364.284,22.50761,-0.04608748,1.54862,0.88044
364.784,22.5214,-0.04620742,1.55001,0.88
365.284,22.5352,-0.04654526,1.55216,0.87955
365.784,22.54899,-0.04650905,1.55505,0.87911
366.284,22.56281,-0.04653183,1.55405,0.87866
366.784,22.5766,-0.04753988,1.5579,0.87822
367.284,22.59046,-0.04781357,1.55774,0.87778
367.784,22.60431,-0.04782722,1.56065,0.87733
368.284,22.61816,-0.04781778,1.56304,0.87689
368.784,22.63194,-0.04780921,1.56514,0.87644
369.284,22.64574,-0.04792468,1.56766,0.876
369.784,22.65955,-0.04686989,1.56692,0.87555
370.284,22.6734,-0.04686803,1.56967,0.87511
370.784,22.68723,-0.04683594,1.57343,0.87466
371.284,22.70104,-0.04684009,1.57462,0.87422
371.784,22.71493,-0.0468336,1.57644,0.87377
372.284,22.72881,-0.04708032,1.57983,0.87332
372.784,22.74266,-0.04824764,1.58319,0.87288
373.284,22.7565,-0.04815571,1.5859,0.87243
373.784,22.77034,-0.04817078,1.58928,0.87199
374.284,22.78418,-0.04915306,1.59342,0.87154
374.784,22.79799,-0.04948981,1.59444,0.87109
375.284,22.81189,-0.04947272,1.59749,0.87065
375.784,22.82575,-0.04947019,1.60004,0.8702
376.284,22.8396,-0.04946916,1.60337,0.86975
376.784,22.8535,-0.04943357,1.6079,0.86931
377.284,22.86739,-0.04991476,1.60869,0.86886
377.784,22.88126,-0.05082077,1.61233,0.86841
378.284,22.8951,-0.05077712,1.61532,0.86797
378.784,22.90895,-0.0507907,1.61779,0.86752
379.284,22.92282,-0.05079005,1.62098,0.86707
379.784,22.93671,-0.05079131,1.62433,0.86663
380.284,22.9506,-0.05079186,1.62866,0.86618
380.784,22.96441,-0.05072865,1.63403,0.86573
381.284,22.9783,-0.05136014,1.63711,0.86528
381.784,22.99222,-0.05143424,1.63931,0.86484
382.284,23.00611,-0.05145026,1.6427,0.86439
382.784,23.02,-0.05144968,1.64854,0.86394
383.284,23.03395,-0.05163911,1.65189,0.86349
383.784,23.04778,-0.05266788,1.65546,0.86304
384.284,23.0616,-0.05275005,1.65672,0.8626
384.784,23.07541,-0.05276437,1.66114,0.86215
385.284,23.0893,-0.05275836,1.6644,0.8617
385.784,23.1032,-0.05272392,1.66855,0.86125
386.284,23.1171,-0.05319452,1.67169,0.8608
386.784,23.13104,-0.0542938,1.67537,0.86036
387.284,23.1451,-0.05537114,1.67778,0.85991
387.784,23.15919,-0.05609458,1.68195,0.85946
388.284,23.17328,-0.05686237,1.68698,0.85901
388.784,23.18722,-0.05679881,1.69144,0.85856
389.284,23.2012,-0.05679872,1.69842,0.85811
389.784,23.21518,-0.0570746,1.70414,0.85766
390.284,23.22914,-0.05820428,1.70873,0.85722
390.784,23.24308,-0.05825062,1.71486,0.85677
391.284,23.25702,-0.05797397,1.71935,0.85632
391.784,23.271,-0.05827166,1.72605,0.85587
392.284,23.28499,-0.05823435,1.73239,0.85542
392.784,23.29895,-0.05849632,1.73903,0.85497
393.284,23.3129,-0.0597878,1.74421,0.85452
393.784,23.32689,-0.05956018,1.75337,0.85407
394.284,23.3409,-0.06073449,1.76115,0.85362
394.784,23.3549,-0.06113528,1.77019,0.85317
395.284,23.36887,-0.06106118,1.7777,0.85273
395.784,23.38286,-0.06251715,1.78467,0.85228
396.284,23.3968,-0.06358744,1.79142,0.85183
396.784,23.4108,-0.06488727,1.79897,0.85138
397.284,23.42486,-0.06555308,1.80725,0.85093
397.784,23.43887,-0.0670142,1.81263,0.85048
398.284,23.45285,-0.06819402,1.82066,0.85003
398.784,23.4669,-0.06949,1.83038,0.84958
399.284,23.48094,-0.07103181,1.83811,0.84913
399.784,23.495,-0.07238432,1.84723,0.84868
400.284,23.50904,-0.07304852,1.85626,0.84823
400.784,23.52306,-0.07417851,1.86432,0.84778
401.284,23.53717,-0.07543904,1.87241,0.84733
401.784,23.55128,-0.07688273,1.8834,0.84688
402.284,23.56531,-0.07828691,1.89399,0.84643
402.784,23.57938,-0.07853557,1.90484,0.84598
403.284,23.59347,-0.07972227,1.91573,0.84553
403.784,23.60753,-0.08129831,1.92699,0.84508
404.284,23.62161,-0.08281051,1.93772,0.84463
404.784,23.63569,-0.08458125,1.95368,0.84419
405.284,23.6497,-0.08630299,1.96773,0.84374
405.784,23.66389,-0.08753017,1.9821,0.84329
406.284,23.678,-0.08950958,1.99832,0.84284
406.784,23.69204,-0.09120344,2.01499,0.84239
407.284,23.7061,-0.09337256,2.03353,0.84194
407.784,23.72021,-0.0953627,2.04877,0.84149
408.284,23.7343,-0.09833786,2.06405,0.84104
408.784,23.74839,-0.10181,2.08349,0.84059
409.284,23.76248,-0.10373,2.10398,0.84014
409.784,23.77659,-0.10688,2.12532,0.83969
410.284,23.7907,-0.1092,2.14619,0.83924
410.784,23.80482,-0.11248,2.16038,0.83879
411.284,23.8189,-0.1151,2.18454,0.83834
411.784,23.83306,-0.11843,2.20578,0.83789
412.284,23.8472,-0.12225,2.23073,0.83744
412.784,23.86131,-0.12459,2.25224,0.83699
413.284,23.87549,-0.12807,2.27442,0.83654
413.784,23.88961,-0.1311,2.29844,0.83609
414.284,23.90379,-0.13484,2.32315,0.83564
414.784,23.91796,-0.13883,2.34798,0.83519
415.284,23.9321,-0.14271,2.37408,0.83474
415.784,23.94635,-0.14789,2.40076,0.83429
416.284,23.9605,-0.15205,2.42422,0.83384
416.784,23.97467,-0.15671,2.45283,0.83339
417.284,23.98886,-0.16287,2.48373,0.83295
417.784,24.00303,-0.16703,2.5093,0.8325
418.284,24.01718,-0.17175,2.53864,0.83205
418.784,24.03129,-0.17746,2.57099,0.8316
419.284,24.0455,-0.18168,2.60351,0.83115
419.784,24.05969,-0.18752,2.63979,0.8307
420.284,24.07386,-0.19441,2.67934,0.83025
420.784,24.08802,-0.20012,2.72313,0.8298
421.284,24.10225,-0.20773,2.76001,0.82935
421.784,24.11646,-0.21568,2.79628,0.8289
422.284,24.1307,-0.22305,2.83645,0.82845
422.784,24.14485,-0.2321,2.87852,0.828
423.284,24.15908,-0.2398,2.92406,0.82756
423.784,24.1733,-0.24702,2.97316,0.82711
424.284,24.18749,-0.25645,3.01865,0.82666
424.784,24.20174,-0.26419,3.06925,0.82621
425.284,24.216,-0.27351,3.12274,0.82576
425.784,24.23023,-0.28546,3.17331,0.82531
426.284,24.24449,-0.29432,3.22303,0.82486
426.784,24.25879,-0.30506,3.27687,0.82441
427.284,24.27306,-0.31763,3.32645,0.82397
427.784,24.28728,-0.32746,3.37709,0.82352
428.284,24.30152,-0.33982,3.43169,0.82307
428.784,24.31577,-0.35315,3.48543,0.82262
429.284,24.33004,-0.36496,3.53555,0.82217
429.784,24.3443,-0.38014,3.58619,0.82172
430.284,24.35856,-0.39434,3.63059,0.82128
430.784,24.3729,-0.40837,3.68182,0.82083
431.284,24.38717,-0.42639,3.73769,0.82038
431.784,24.40149,-0.4399,3.79309,0.81993
432.284,24.4158,-0.45524,3.8475,0.81948
432.784,24.4301,-0.47487,3.90609,0.81904
433.284,24.44444,-0.49031,3.96167,0.81859
433.784,24.45873,-0.50929,4.0153,0.81814
434.284,24.47309,-0.53117,4.06772,0.81769
434.784,24.48744,-0.54824,4.12217,0.81725
435.284,24.5018,-0.56938,4.17539,0.8168
435.784,24.5162,-0.59112,4.23376,0.81635
436.284,24.53054,-0.61021,4.28593,0.81591
436.784,24.54495,-0.63451,4.33573,0.81546
437.284,24.5593,-0.65608,4.3901,0.81501
437.784,24.5737,-0.67821,4.44872,0.81456
438.284,24.58809,-0.70569,4.50625,0.81412
438.784,24.60254,-0.72826,4.55641,0.81367
439.284,24.61694,-0.75425,4.6103,0.81322
439.784,24.63138,-0.78586,4.66034,0.81278
440.284,24.64573,-0.80974,4.70388,0.81233
440.784,24.66016,-0.83915,4.75495,0.81188
441.284,24.6746,-0.87152,4.80227,0.81144
441.784,24.68896,-0.89836,4.84757,0.81099
442.284,24.70338,-0.93192,4.88907,0.81055
442.784,24.71782,-0.96367,4.92368,0.8101
443.284,24.73236,-0.99415,4.97145,0.80965
443.784,24.74682,-1.03231,4.99252,0.80921
444.284,24.7613,-1.06293,5.03385,0.80876
444.784,24.77584,-1.09736,5.06306,0.80832
445.284,24.7904,-1.13018,5.08649,0.80787
445.784,24.80481,-1.16927,5.11608,0.80743
446.284,24.81932,-1.21187,5.15053,0.80698
446.784,24.83381,-1.269,5.16763,0.80654
447.284,24.84829,-1.3171,5.16572,0.80609
447.784,24.8628,-1.34346,5.18378,0.80565
448.284,24.8773,-1.37892,5.18837,0.8052
448.784,24.89187,-1.41931,5.19508,0.80476
449.284,24.90636,-1.46391,5.19691,0.80431
449.784,24.9209,-1.50469,5.18809,0.80387
450.284,24.93548,-1.54789,5.18613,0.80342
450.784,24.95,-1.591,5.17638,0.80298
451.284,24.96454,-1.63152,5.15404,0.80254
451.784,24.979,-1.67265,5.12417,0.80209
452.284,24.9936,-1.71738,5.09501,0.80165
452.784,25.00812,-1.76123,5.04961,0.80121
453.284,25.02264,-1.80299,4.98984,0.80076
453.784,25.03714,-1.84645,4.93264,0.80032
454.284,25.05172,-1.89095,4.87525,0.79988
454.784,25.06622,-1.93274,4.80952,0.79943
455.284,25.08075,-1.97313,4.7414,0.79899
455.784,25.0953,-2.01542,4.6608,0.79855
456.284,25.10981,-2.05762,4.57732,0.7981
456.784,25.12431,-2.09706,4.49604,0.79766
457.284,25.1388,-2.13659,4.40431,0.79722
457.784,25.1534,-2.17774,4.29564,0.79678
458.284,25.16797,-2.21701,4.19873,0.79633
458.784,25.18255,-2.25344,4.09705,0.79589
459.284,25.19708,-2.29057,3.98652,0.79545
459.784,25.2117,-2.32831,3.89038,0.79501
460.284,25.22625,-2.36297,3.80112,0.79457
460.784,25.2408,-2.40281,3.71296,0.79413
461.284,25.2553,-2.43618,3.62519,0.79368
461.784,25.2698,-2.47011,3.54177,0.79324
462.284,25.2843,-2.5018,3.46381,0.7928
462.784,25.29884,-2.52947,3.38852,0.79236
463.284,25.3133,-2.56212,3.3145,0.79192
463.784,25.32779,-2.58742,3.24399,0.79148
464.284,25.34234,-2.62021,3.17437,0.79104
464.784,25.3569,-2.65206,3.10148,0.7906
465.284,25.3715,-2.67996,3.03464,0.79016
465.784,25.386,-2.71353,2.96384,0.78972
466.284,25.40063,-2.73999,2.89992,0.78928
466.784,25.41517,-2.76628,2.83007,0.78884
467.284,25.42969,-2.79782,2.76379,0.7884
467.784,25.4442,-2.82157,2.6975,0.78796
468.284,25.45874,-2.84827,2.63375,0.78752
468.784,25.4733,-2.8771,2.56659,0.78709
469.284,25.48785,-2.89888,2.50152,0.78665
469.784,25.50231,-2.92415,2.43832,0.78621
470.284,25.51689,-2.948,2.37614,0.78577
470.784,25.5314,-2.96696,2.31389,0.78533
471.284,25.54596,-2.99113,2.24915,0.78489
471.784,25.56052,-3.01065,2.1848,0.78446
472.284,25.57509,-3.03037,2.12293,0.78402
472.784,25.58975,-3.05353,2.06194,0.78358
473.284,25.60436,-3.07034,2.00025,0.78314
473.784,25.61901,-3.08901,1.93808,0.78271
474.284,25.6336,-3.10849,1.87621,0.78227
474.784,25.6482,-3.12324,1.81659,0.78183
475.284,25.6629,-3.14013,1.7565,0.7814
475.784,25.6775,-3.15543,1.69429,0.78096
476.284,25.69213,-3.16854,1.63466,0.78053
476.784,25.7068,-3.18395,1.57619,0.78009
477.284,25.72145,-3.19738,1.51947,0.77965
477.784,25.73607,-3.21012,1.4659,0.77922
478.284,25.7507,-3.22401,1.40753,0.77878
478.784,25.76538,-3.23376,1.35304,0.77835
479.284,25.7801,-3.24457,1.29844,0.77791
479.784,25.79475,-3.25519,1.24498,0.77748
480.284,25.8094,-3.26345,1.19229,0.77704
480.784,25.82408,-3.27315,1.14169,0.77661
481.284,25.83879,-3.28155,1.09558,0.77618
481.784,25.8535,-3.28942,1.05284,0.77574
482.284,25.8681,-3.29807,1.00741,0.77531
482.784,25.88278,-3.30532,0.96438,0.77487
483.284,25.89745,-3.31234,0.92451,0.77444
483.784,25.9122,-3.31991,0.88603,0.77401
484.284,25.92695,-3.32499,0.85135,0.77357
484.784,25.94165,-3.33053,0.80835,0.77314
485.284,25.95644,-3.33495,0.76807,0.77271
485.784,25.97123,-3.33868,0.73633,0.77228
486.284,25.986,-3.34486,0.70017,0.77185
486.784,26.0007,-3.35014,0.6679,0.77141
487.284,26.01538,-3.35549,0.63507,0.77098
487.784,26.03012,-3.3607,0.60489,0.77055
488.284,26.04482,-3.36379,0.57505,0.77012
488.784,26.0595,-3.36775,0.54595,0.76969
489.284,26.07426,-3.37261,0.51895,0.76926
489.784,26.089,-3.37661,0.49146,0.76883
490.284,26.1038,-3.38082,0.467,0.7684
490.784,26.11852,-3.38348,0.44027,0.76797
491.284,26.13325,-3.38655,0.4153,0.76754
491.784,26.14801,-3.38905,0.39195,0.76711
492.284,26.1628,-3.39332,0.37288,0.76668
492.784,26.17752,-3.3964,0.35128,0.76625
493.284,26.1923,-3.40093,0.32999,0.76582
493.784,26.20713,-3.40386,0.30939,0.76539
494.284,26.22199,-3.40554,0.2924,0.76496
494.784,26.23682,-3.40823,0.27331,0.76453
495.284,26.25168,-3.41057,0.25933,0.76411
495.784,26.2665,-3.41389,0.24226,0.76368
496.284,26.2813,-3.41665,0.22507,0.76325
496.784,26.29617,-3.41853,0.21152,0.76282
497.284,26.311,-3.42075,0.19669,0.7624
497.784,26.32583,-3.42093,0.18407,0.76197
498.284,26.3407,-3.42294,0.17055,0.76154
498.784,26.3555,-3.4249,0.15973,0.76112
499.284,26.3704,-3.42586,0.14932,0.76069
499.784,26.38525,-3.42843,0.13938,0.76026
500.284,26.40007,-3.43055,0.12931,0.75984
500.784,26.41485,-3.43189,0.11973,0.75941
501.284,26.42972,-3.43445,0.11474,0.75899
501.784,26.44456,-3.43681,0.10725,0.75856
502.284,26.4594,-3.43904,0.09917799,0.75814
502.784,26.47431,-3.44078,0.09027385,0.75771
503.284,26.4893,-3.43903,0.08410758,0.75729
503.784,26.50427,-3.43511,0.08041932,0.75686
504.284,26.519,-3.43105,0.07665784,0.75644
504.784,26.53395,-3.43304,0.07066849,0.75602
505.284,26.54887,-3.4434,0.06570747,0.75559
505.784,26.56373,-3.45279,0.06442631,0.75517
506.284,26.57866,-3.45879,0.06421853,0.75475
506.784,26.5935,-3.45773,0.05771645,0.75433
507.284,26.6086,-3.45591,0.05668893,0.7539
507.784,26.6235,-3.45519,0.05185642,0.75348
508.284,26.63843,-3.45523,0.05229024,0.75306
508.784,26.6534,-3.45536,0.04911479,0.75264
509.284,26.66832,-3.45666,0.04711194,0.75222
509.784,26.68334,-3.45676,0.045491,0.7518
510.284,26.6983,-3.45795,0.04339927,0.75137
510.784,26.7134,-3.45805,0.041129,0.75095
511.284,26.7283,-3.45807,0.04045783,0.75053
511.784,26.7433,-3.45876,0.04135507,0.75011
512.284,26.75824,-3.45955,0.03952908,0.74969
512.784,26.7732,-3.45965,0.03664473,0.74928
513.284,26.78815,-3.46073,0.03500167,0.74886
513.784,26.80313,-3.46076,0.03387641,0.74844
514.284,26.8182,-3.46131,0.03428295,0.74802
514.784,26.8332,-3.46232,0.03522556,0.7476
515.284,26.8482,-3.46216,0.03383147,0.74718
515.784,26.8632,-3.46412,0.03549383,0.74676
516.284,26.87807,-3.46502,0.03538046,0.74635
516.784,26.8929,-3.46499,0.03500613,0.74593
517.284,26.9079,-3.46498,0.03264662,0.74551
517.784,26.92295,-3.46499,0.03145562,0.7451
518.284,26.93794,-3.46494,0.03226949,0.74468
518.784,26.953,-3.46591,0.03235054,0.74426
519.284,26.96815,-3.46645,0.03118676,0.74385
519.784,26.9834,-3.4667,0.02992141,0.74343
520.284,26.99845,-3.46772,0.03174505,0.74302
520.784,27.0135,-3.46773,0.03071167,0.7426
521.284,27.0286,-3.46793,0.02920093,0.74219
521.784,27.04369,-3.4701,0.03151357,0.74177
522.284,27.0588,-3.47037,0.03040958,0.74136
522.784,27.07388,-3.47039,0.03061503,0.74094
523.284,27.08894,-3.47171,0.02941467,0.74053
523.784,27.10404,-3.47177,0.03050775,0.74012
524.284,27.11905,-3.47178,0.03187725,0.7397
524.784,27.1342,-3.47202,0.03083263,0.73929
525.284,27.14923,-3.47226,0.02904681,0.73888
525.784,27.16426,-3.47354,0.02833278,0.73847
526.284,27.17926,-3.47369,0.02852653,0.73806
526.784,27.19432,-3.47511,0.02720203,0.73764
527.284,27.20944,-3.47494,0.02690405,0.73723
527.784,27.2245,-3.47636,0.02540492,0.73682
528.284,27.23965,-3.47651,0.02633534,0.73641
528.784,27.25478,-3.47694,0.02566726,0.736
529.284,27.27,-3.47782,0.02532317,0.73559
529.784,27.2852,-3.47775,0.02587678,0.73518
530.284,27.3003,-3.47649,0.02672236,0.73477
530.784,27.3154,-3.47652,0.02580602,0.73436
531.284,27.33057,-3.4765,0.02485299,0.73395
531.784,27.3457,-3.4765,0.02511729,0.73354
532.284,27.36085,-3.47651,0.02470289,0.73314
532.784,27.376,-3.47615,0.02682217,0.73273
533.284,27.39112,-3.47555,0.02456473,0.73232
533.784,27.4062,-3.47672,0.0260792,0.73191
534.284,27.4214,-3.47693,0.02677494,0.73151
534.784,27.43652,-3.47689,0.02682162,0.7311
535.284,27.45172,-3.47774,0.02642573,0.73069
535.784,27.4669,-3.47829,0.02700478,0.73029
536.284,27.4821,-3.47826,0.02536793,0.72988
536.784,27.49734,-3.47825,0.02590396,0.72947
537.284,27.5125,-3.47821,0.02519193,0.72907
537.784,27.52771,-3.47903,0.02535773,0.72866
538.284,27.54284,-3.47959,0.02739807,0.72826
538.784,27.558,-3.47958,0.02542987,0.72786
539.284,27.5732,-3.47958,0.02586187,0.72745
539.784,27.58843,-3.47958,0.02692687,0.72705
540.284,27.6037,-3.4796,0.02809226,0.72664
540.784,27.61887,-3.47953,0.02867405,0.72624
541.284,27.6341,-3.48079,0.02870199,0.72584
541.784,27.6493,-3.48116,0.02895902,0.72544
542.284,27.6645,-3.48229,0.02762301,0.72503
542.784,27.6797,-3.4825,0.02922842,0.72463
543.284,27.69486,-3.48361,0.0286877,0.72423
543.784,27.7101,-3.48352,0.02682589,0.72383
544.284,27.72533,-3.48344,0.02704606,0.72343
544.784,27.74056,-3.48218,0.02853564,0.72303
545.284,27.7558,-3.48223,0.02934185,0.72263
545.784,27.77103,-3.48221,0.02977214,0.72223
546.284,27.7863,-3.48221,0.03057917,0.72183
546.784,27.80153,-3.48221,0.02971683,0.72143
547.284,27.8168,-3.48224,0.03091764,0.72103
547.784,27.8321,-3.48237,0.03003392,0.72063
548.284,27.84736,-3.4835,0.03015857,0.72023
548.784,27.86269,-3.48352,0.03003015,0.71983
549.284,27.878,-3.48352,0.03030104,0.71944
549.784,27.8933,-3.48352,0.0307407,0.71904
550.284,27.9086,-3.48352,0.03059406,0.71864
550.784,27.92385,-3.48425,0.03168431,0.71824
551.284,27.9392,-3.48485,0.03125307,0.71785
551.784,27.95455,-3.48485,0.03075355,0.71745
552.284,27.96988,-3.48484,0.03259494,0.71706
552.784,27.98522,-3.48475,0.0318891,0.71666
553.284,28.00054,-3.48587,0.03133446,0.71627
553.784,28.01587,-3.48617,0.03129244,0.71587
554.284,28.0312,-3.48617,0.03311192,0.71548
554.784,28.04652,-3.48718,0.03456172,0.71508
555.284,28.0618,-3.48745,0.03448764,0.71469
555.784,28.07718,-3.48748,0.03431904,0.7143
556.284,28.0925,-3.4875,0.03672159,0.7139
556.784,28.10786,-3.48731,0.0375511,0.71351
557.284,28.12319,-3.48984,0.04066514,0.71312
557.784,28.13852,-3.4901,0.04086699,0.71273
558.284,28.15385,-3.4901,0.04029705,0.71233
558.784,28.1691,-3.4901,0.03919627,0.71194
559.284,28.1845,-3.49005,0.03512408,0.71155
559.784,28.19983,-3.49075,0.035946,0.71116
560.284,28.21515,-3.49147,0.03436578,0.71077
560.784,28.23047,-3.49142,0.03654817,0.71038
561.284,28.2458,-3.49133,0.03632603,0.70999
561.784,28.26118,-3.49006,0.03538102,0.7096
562.284,28.27651,-3.49013,0.03453907,0.70921
562.784,28.2919,-3.49011,0.0360565,0.70882
563.284,28.30728,-3.49011,0.03630821,0.70844
563.784,28.32263,-3.49011,0.03707674,0.70805
564.284,28.338,-3.49011,0.03856105,0.70766
564.784,28.35337,-3.49011,0.03826207,0.70727
565.284,28.3687,-3.49011,0.03845978,0.70689
565.784,28.38405,-3.49015,0.04129163,0.7065
566.284,28.3994,-3.49138,0.0420208,0.70611
566.784,28.4147,-3.49139,0.04269084,0.70573
567.284,28.4301,-3.49142,0.04241217,0.70534
567.784,28.4454,-3.49149,0.04365027,0.70496
568.284,28.4608,-3.49277,0.04411621,0.70457
568.784,28.47622,-3.49271,0.04478214,0.70419
569.284,28.49162,-3.49274,0.04544977,0.7038
569.784,28.50706,-3.49264,0.04588034,0.70342
570.284,28.52249,-3.49387,0.04410673,0.70304
570.784,28.5379,-3.49413,0.04347589,0.70265
571.284,28.5533,-3.49287,0.04402986,0.70227
571.784,28.56865,-3.49274,0.04463753,0.70189
572.284,28.5839,-3.49276,0.04301848,0.7015
572.784,28.59934,-3.49271,0.04284383,0.70112
573.284,28.61477,-3.49398,0.04535724,0.70074
573.784,28.6302,-3.49405,0.04245968,0.70036
574.284,28.6457,-3.49414,0.04402627,0.69998
574.784,28.6612,-3.49543,0.04639212,0.6996
575.284,28.67677,-3.49535,0.04390908,0.69922
575.784,28.6922,-3.49537,0.0425775,0.69884
576.284,28.7076,-3.49535,0.04107713,0.69846
576.784,28.72305,-3.49493,0.03715644,0.69808
577.284,28.73847,-3.49304,0.03577512,0.6977
577.784,28.7539,-3.49091,0.03689791,0.69733
578.284,28.76932,-3.49321,0.03968673,0.69695
578.784,28.7847,-3.49752,0.03978341,0.69657
579.284,28.8002,-3.50342,0.04015401,0.69619
579.784,28.8156,-3.5051,0.04020193,0.69582
580.284,28.8311,-3.50556,0.04048554,0.69544
580.784,28.8466,-3.50389,0.04026236,0.69506
581.284,28.8621,-3.50325,0.04139889,0.69469
581.784,28.87753,-3.50221,0.03840243,0.69431
582.284,28.89299,-3.50227,0.03814697,0.69394
582.784,28.9085,-3.50225,0.03714318,0.69356
583.284,28.92394,-3.50193,0.03718808,0.69319
583.784,28.9394,-3.50096,0.0397145,0.69282
584.284,28.95487,-3.50096,0.03810676,0.69244
584.784,28.9704,-3.50096,0.03753143,0.69207
585.284,28.98586,-3.50096,0.03916248,0.6917
585.784,29.0014,-3.50096,0.04030325,0.69133
586.284,29.01688,-3.5009,0.03911055,0.69095
586.784,29.03241,-3.50172,0.03935779,0.69058
587.284,29.0479,-3.50244,0.03821156,0.69021
587.784,29.06346,-3.50331,0.03816382,0.68984
588.284,29.079,-3.50326,0.03832703,0.68947
588.784,29.0945,-3.50349,0.03860376,0.6891
589.284,29.11007,-3.50458,0.03941271,0.68873
589.784,29.12557,-3.50457,0.03849412,0.68836
590.284,29.1411,-3.50458,0.0384341,0.68799
590.784,29.15662,-3.50461,0.03724955,0.68762
591.284,29.1722,-3.50474,0.03620553,0.68725
591.784,29.1877,-3.50586,0.03721401,0.68689
592.284,29.20314,-3.5057,0.03541665,0.68652
592.784,29.21864,-3.50522,0.03641053,0.68615
593.284,29.2341,-3.50525,0.03450555,0.68579
593.784,29.2497,-3.50493,0.03643329,0.68542
594.284,29.2652,-3.50505,0.03597709,0.68505
594.784,29.2808,-3.5059,0.03548757,0.68469
595.284,29.2964,-3.50591,0.03596011,0.68432
595.784,29.31205,-3.50598,0.0355767,0.68396
596.284,29.3276,-3.50712,0.0343974,0.68359
596.784,29.34323,-3.50721,0.03275318,0.68323
597.284,29.3588,-3.50722,0.03594567,0.68287
597.784,29.3744,-3.50721,0.03349001,0.6825
598.284,29.3899,-3.50754,0.03399326,0.68214
598.784,29.40547,-3.50833,0.03488855,0.68178
599.284,29.42105,-3.50956,0.0344647,0.68141
599.784,29.43662,-3.50949,0.03397219,0.68105
600.284,29.45218,-3.50951,0.03445791,0.68069
600.784,29.46776,-3.50951,0.03146936,0.68033
601.284,29.4834,-3.50951,0.03069956,0.67997
601.784,29.499,-3.50951,0.02910361,0.67961
602.284,29.51462,-3.50947,0.02750366,0.67925
602.784,29.53026,-3.5102,0.02767863,0.67889
603.284,29.5459,-3.51106,0.0247491,0.67853
603.784,29.5615,-3.51184,0.0232584,0.67817
604.284,29.5772,-3.51239,0.02048965,0.67781
604.784,29.59275,-3.51236,0.01892138,0.67745
605.284,29.60837,-3.51238,0.01867081,0.6771
605.784,29.624,-3.51274,0.01920404,0.67674
606.284,29.6396,-3.51336,0.01674086,0.67638
606.784,29.65527,-3.51305,0.01595909,0.67603
607.284,29.67094,-3.51237,0.01737725,0.67567
607.784,29.6866,-3.51232,0.01553945,0.67532
608.284,29.70223,-3.51322,0.01511991,0.67496
608.784,29.71793,-3.51371,0.01053228,0.6746
609.284,29.7335,-3.51369,0.01329958,0.67425
609.784,29.7492,-3.51369,0.01181781,0.6739
610.284,29.7648,-3.51369,0.01155748,0.67354
610.784,29.78045,-3.51369,0.009097211,0.67319
611.284,29.7961,-3.51364,0.009231442,0.67284
611.784,29.8118,-3.5145,0.007068805,0.67248
612.284,29.82747,-3.51503,0.005446549,0.67213
612.784,29.8431,-3.51503,0.00418868,0.67178
613.284,29.85881,-3.51623,0.003580135,0.67143
613.784,29.8745,-3.51628,0.003232375,0.67108
614.284,29.8902,-3.51631,-1.85091e-05,0.67073
614.784,29.90584,-3.51664,0.0002217042,0.67038
615.284,29.9215,-3.51766,0.001285444,0.67003
615.784,29.93719,-3.51762,0.001056589,0.66968
616.284,29.95283,-3.51763,0.000155759,0.66933
616.784,29.9685,-3.51763,-0.00323169,0.66898
617.284,29.98422,-3.51763,-0.00255099,0.66863
617.784,29.9998,-3.51763,-0.008783153,0.66828