File: 01_Data/Triexta_Carpet_High_Pile/STA/N2/10K_min/Triexta_Carpet_High_Pile_STA_N2_10KData_220110_R1.csv
##Temp./Â°C,Time/min,Mass loss(subtr.2)/mg,DSC(subtr.2)/(mW/mg),Sensit./(uV/mW)
49.442,10.01,0.02765,0.004292604,1.07446
50.042,10.72689,0.02519879,0.04252943,1.07442
50.642,10.9175,0.02487383,0.06846781,1.07438
51.242,11.05764,0.02917895,0.09066111,1.07433
51.842,11.17822,0.02813905,0.10685,1.07429
52.442,11.28481,0.03303572,0.12525,1.07424
53.042,11.38182,0.03386866,0.13688,1.0742
53.642,11.47185,0.02992324,0.14561,1.07415
54.242,11.55735,0.02916031,0.1564,1.0741
54.842,11.6398,0.02928551,0.1644,1.07406
55.442,11.71909,0.02839079,0.1724,1.07401
56.042,11.7964,0.02967297,0.17962,1.07396
56.642,11.87165,0.03120294,0.18701,1.07391
57.242,11.94539,0.03091438,0.19411,1.07385
57.842,12.0174,0.0297634,0.19784,1.0738
58.442,12.08862,0.02954899,0.20014,1.07375
59.042,12.15878,0.03112349,0.20481,1.07369
59.642,12.22831,0.030641,0.20892,1.07364
60.242,12.29689,0.03112348,0.21043,1.07358
60.842,12.36467,0.03115846,0.21371,1.07353
61.442,12.4321,0.03093818,0.21644,1.07347
62.042,12.49896,0.03106635,0.21553,1.07341
62.642,12.56551,0.03104361,0.21624,1.07335
63.242,12.63177,0.03101716,0.2188,1.07329
63.842,12.6982,0.03317778,0.21867,1.07323
64.442,12.76367,0.0349733,0.21894,1.07317
65.042,12.82938,0.03463337,0.22148,1.07311
65.642,12.89439,0.03320387,0.22198,1.07304
66.242,12.95988,0.03214996,0.22406,1.07298
66.842,13.02468,0.03043926,0.22442,1.07291
67.442,13.08952,0.03019834,0.22572,1.07285
68.042,13.1542,0.02936668,0.22728,1.07278
68.642,13.2187,0.03046841,0.22426,1.07271
69.242,13.28305,0.03007902,0.22589,1.07265
69.842,13.3475,0.03034463,0.22955,1.07258
70.442,13.4119,0.03100958,0.23124,1.07251
71.042,13.47594,0.03181364,0.2316,1.07243
71.642,13.5397,0.03049068,0.23384,1.07236
72.242,13.6032,0.03108293,0.23473,1.07229
72.842,13.6667,0.03312982,0.2344,1.07222
73.442,13.73015,0.03313,0.23696,1.07214
74.042,13.79349,0.03244278,0.23779,1.07207
74.642,13.85655,0.03306852,0.23882,1.07199
75.242,13.9196,0.03444125,0.2397,1.07191
75.842,13.9826,0.03343969,0.23857,1.07184
76.442,14.0455,0.03165815,0.24526,1.07176
77.042,14.1075,0.03138171,0.24813,1.07168
77.642,14.1698,0.03269018,0.24622,1.0716
78.242,14.23223,0.03269,0.2496,1.07152
78.842,14.29478,0.03269012,0.24936,1.07144
79.442,14.35723,0.0340638,0.25036,1.07135
80.042,14.41937,0.03401245,0.24937,1.07127
80.642,14.48143,0.03268975,0.25337,1.07119
81.242,14.54335,0.03176424,0.25403,1.0711
81.842,14.60506,0.03089502,0.25835,1.07101
82.442,14.6664,0.02983963,0.25766,1.07093
83.042,14.72719,0.03033617,0.25827,1.07084
83.642,14.7882,0.03049782,0.26351,1.07075
84.242,14.84927,0.03212608,0.26234,1.07066
84.842,14.9108,0.03463679,0.26116,1.07057
85.442,14.97127,0.0381134,0.26243,1.07048
86.042,15.0322,0.03835313,0.26307,1.07039
86.642,15.0928,0.03663117,0.26302,1.0703
87.242,15.1537,0.03530392,0.26682,1.0702
87.842,15.21459,0.0331523,0.2662,1.07011
88.442,15.27506,0.03018018,0.26838,1.07001
89.042,15.33562,0.03139422,0.2692,1.06992
89.642,15.39611,0.03137671,0.26786,1.06982
90.242,15.4563,0.03016013,0.2711,1.06972
90.842,15.51651,0.0288825,0.27056,1.06962
91.442,15.57659,0.02885012,0.27305,1.06953
92.042,15.6366,0.03012864,0.27407,1.06943
92.642,15.69677,0.03149202,0.27413,1.06932
93.242,15.757,0.03141812,0.27348,1.06922
93.842,15.81701,0.02876514,0.27447,1.06912
94.442,15.87684,0.0286301,0.27467,1.06902
95.042,15.93653,0.02960159,0.27856,1.06891
95.642,15.99616,0.03021591,0.27649,1.06881
96.242,16.05578,0.03313557,0.27764,1.0687
96.842,16.1152,0.03340561,0.27837,1.06859
97.442,16.1746,0.03445025,0.27953,1.06849
98.042,16.23405,0.03444701,0.28309,1.06838
98.642,16.29335,0.03179571,0.28217,1.06827
99.242,16.35268,0.03129217,0.28367,1.06816
99.842,16.41204,0.03183278,0.28479,1.06805
100.442,16.47149,0.03181966,0.28416,1.06794
101.042,16.53087,0.03181216,0.28609,1.06782
101.642,16.5901,0.03180238,0.28834,1.06771
102.242,16.6493,0.03312627,0.291,1.0676
102.842,16.70845,0.03311982,0.29144,1.06748
103.442,16.7677,0.03434398,0.29153,1.06737
104.042,16.82688,0.03443995,0.29252,1.06725
104.642,16.8858,0.03443895,0.29302,1.06713
105.242,16.94464,0.03295127,0.2944,1.06701
105.842,17.0037,0.03169947,0.29669,1.0669
106.442,17.06258,0.03228331,0.29843,1.06678
107.042,17.12181,0.03301228,0.30018,1.06666
107.642,17.1809,0.03163265,0.30163,1.06653
108.242,17.24004,0.03158994,0.30059,1.06641
108.842,17.29924,0.0302818,0.30171,1.06629
109.442,17.3585,0.03027881,0.30344,1.06616
110.042,17.41744,0.03007495,0.30591,1.06604
110.642,17.47639,0.02897858,0.30548,1.06591
111.242,17.53514,0.03024839,0.30532,1.06579
111.842,17.59382,0.03301396,0.3076,1.06566
112.442,17.65277,0.03557493,0.30949,1.06553
113.042,17.7115,0.03424333,0.30868,1.0654
113.642,17.77051,0.03290896,0.31178,1.06527
114.242,17.82907,0.03295277,0.31411,1.06514
114.842,17.88788,0.02972886,0.31253,1.06501
115.442,17.94655,0.02701999,0.31452,1.06488
116.042,18.00535,0.0273107,0.316,1.06475
116.642,18.064,0.02857755,0.31711,1.06461
117.242,18.1229,0.03042366,0.31716,1.06448
117.842,18.18157,0.03138022,0.32001,1.06434
118.442,18.24015,0.03138,0.31725,1.06421
119.042,18.29874,0.03139527,0.31865,1.06407
119.642,18.35717,0.03278368,0.32159,1.06393
120.242,18.41572,0.03139607,0.32097,1.0638
120.842,18.4746,0.03354983,0.32061,1.06366
121.442,18.53301,0.03410985,0.32178,1.06352
122.042,18.59178,0.03411009,0.32175,1.06338
122.642,18.65052,0.03341702,0.32437,1.06323
123.242,18.70925,0.03137924,0.32572,1.06309
123.842,18.768,0.02857494,0.32794,1.06295
124.442,18.8262,0.0270779,0.3301,1.0628
125.042,18.8846,0.02700267,0.33079,1.06266
125.642,18.94282,0.02710025,0.33189,1.06251
126.242,19.00134,0.02777424,0.33387,1.06237
126.842,19.05989,0.02907011,0.33292,1.06222
127.442,19.1182,0.02968535,0.3359,1.06207
128.042,19.17664,0.02984262,0.33633,1.06192
128.642,19.23497,0.0311298,0.33726,1.06177
129.242,19.29346,0.02979645,0.33494,1.06162
129.842,19.35175,0.02840777,0.33812,1.06147
130.442,19.40985,0.02973017,0.33824,1.06132
131.042,19.46804,0.02973011,0.33807,1.06117
131.642,19.52616,0.03112042,0.34045,1.06101
132.242,19.58369,0.03234089,0.3399,1.06086
132.842,19.6415,0.03367875,0.34135,1.0607
133.442,19.69965,0.03238165,0.34262,1.06055
134.042,19.75809,0.03110054,0.34436,1.06039
134.642,19.81703,0.02848297,0.34599,1.06023
135.242,19.87509,0.02515982,0.34532,1.06007
135.842,19.933,0.02513002,0.34589,1.05991
136.442,19.9909,0.02513259,0.34691,1.05975
137.042,20.04883,0.02743404,0.34838,1.05959
137.642,20.10642,0.0294316,0.35111,1.05943
138.242,20.1644,0.02973216,0.35054,1.05927
138.842,20.2224,0.0308346,0.35171,1.0591
139.442,20.28058,0.03389667,0.35304,1.05894
140.042,20.33856,0.03520971,0.35377,1.05878
140.642,20.3963,0.03212627,0.3564,1.05861
141.242,20.454,0.02870345,0.35616,1.05844
141.842,20.51195,0.02714884,0.35954,1.05828
142.442,20.56985,0.02720942,0.35723,1.05811
143.042,20.62781,0.02851915,0.36063,1.05794
143.642,20.68579,0.02852,0.36145,1.05777
144.242,20.74362,0.02851865,0.36187,1.0576
144.842,20.80164,0.02720482,0.36176,1.05743
145.442,20.85961,0.02784466,0.363,1.05726
146.042,20.9174,0.02956037,0.36251,1.05708
146.642,20.97522,0.02844258,0.36303,1.05691
147.242,21.03284,0.02683063,0.3625,1.05673
147.842,21.0905,0.02688085,0.36558,1.05656
148.442,21.1483,0.02721081,0.36709,1.05638
149.042,21.20628,0.02720987,0.36833,1.05621
149.642,21.2641,0.02684877,0.36907,1.05603
150.242,21.32193,0.02589257,0.37315,1.05585
150.842,21.37979,0.02457976,0.3736,1.05567
151.442,21.43746,0.0245737,0.37385,1.05549
152.042,21.49557,0.02588838,0.37776,1.05531
152.642,21.55337,0.02588996,0.37749,1.05513
153.242,21.61115,0.02674952,0.37852,1.05495
153.842,21.66883,0.02852022,0.38192,1.05477
154.442,21.72618,0.02852,0.38282,1.05458
155.042,21.78365,0.02851865,0.38518,1.0544
155.642,21.84102,0.02719641,0.38578,1.05421
156.242,21.898,0.02720019,0.38777,1.05403
156.842,21.95574,0.02597473,0.39202,1.05384
157.442,22.01339,0.02423709,0.3958,1.05365
158.042,22.07173,0.02293156,0.39803,1.05346
158.642,22.1298,0.02324687,0.40103,1.05327
159.242,22.18761,0.02438671,0.40164,1.05308
159.842,22.24524,0.02427429,0.40648,1.05289
160.442,22.303,0.02684583,0.40712,1.0527
161.042,22.3605,0.02690331,0.41116,1.05251
161.642,22.41815,0.02798971,0.41319,1.05232
162.242,22.4758,0.02549026,0.41668,1.05212
162.842,22.53347,0.02327725,0.42313,1.05193
163.442,22.5914,0.02402166,0.42621,1.05173
164.042,22.649,0.02360038,0.42918,1.05154
164.642,22.70656,0.02551638,0.43396,1.05134
165.242,22.7642,0.02550948,0.43505,1.05114
165.842,22.822,0.0247897,0.43995,1.05094
166.442,22.87956,0.02479043,0.44177,1.05074
167.042,22.93713,0.0241192,0.44346,1.05054
167.642,22.99473,0.02279859,0.4418,1.05034
168.242,23.05236,0.02116729,0.44076,1.05014
168.842,23.10999,0.02117041,0.43983,1.04994
169.442,23.16747,0.01986221,0.43708,1.04974
170.042,23.225,0.02117539,0.43531,1.04953
170.642,23.2826,0.02137818,0.43364,1.04933
171.242,23.3402,0.02247938,0.43012,1.04912
171.842,23.39785,0.0225171,0.43011,1.04892
172.442,23.45531,0.02112342,0.42773,1.04871
173.042,23.51282,0.02116998,0.42378,1.0485
173.642,23.57062,0.02117005,0.42674,1.04829
174.242,23.62804,0.02036772,0.42603,1.04808
174.842,23.68574,0.02039494,0.42441,1.04787
175.442,23.7431,0.01985319,0.42528,1.04766
176.042,23.80059,0.01985921,0.42647,1.04745
176.642,23.85795,0.02091799,0.42789,1.04724
177.242,23.9154,0.01952994,0.42676,1.04703
177.842,23.9728,0.0198972,0.42775,1.04681
178.442,24.0304,0.02117185,0.43079,1.0466
179.042,24.08782,0.02253321,0.4309,1.04638
179.642,24.14503,0.02117801,0.43297,1.04617
180.242,24.20241,0.01856432,0.43456,1.04595
180.842,24.25967,0.01853999,0.43486,1.04573
181.442,24.31718,0.01844886,0.43786,1.04552
182.042,24.37487,0.01860527,0.44138,1.0453
182.642,24.43242,0.01848203,0.4415,1.04508
183.242,24.49016,0.01722304,0.44455,1.04486
183.842,24.54766,0.01514691,0.44802,1.04463
184.442,24.60515,0.0146001,0.45099,1.04441
185.042,24.6625,0.01599763,0.45331,1.04419
185.642,24.71971,0.01560335,0.45577,1.04397
186.242,24.7769,0.01458969,0.45788,1.04374
186.842,24.83408,0.01459008,0.45916,1.04352
187.442,24.89134,0.01465812,0.46068,1.04329
188.042,24.94882,0.01525008,0.46528,1.04306
188.642,25.0063,0.01525801,0.46643,1.04284
189.242,25.06381,0.01576814,0.46988,1.04261
189.842,25.1212,0.01568484,0.47135,1.04238
190.442,25.17868,0.01569,0.47433,1.04215
191.042,25.23609,0.01558839,0.47639,1.04192
191.642,25.29328,0.01437953,0.47933,1.04169
192.242,25.3506,0.01438,0.48148,1.04146
192.842,25.4082,0.01438021,0.48433,1.04123
193.442,25.46612,0.0132556,0.48828,1.04099
194.042,25.52393,0.01173884,0.49205,1.04076
194.642,25.58173,0.01118244,0.49331,1.04052
195.242,25.63944,0.009990053,0.4977,1.04029
195.842,25.6971,0.01135598,0.4998,1.04005
196.442,25.75465,0.01130004,0.50467,1.03982
197.042,25.81201,0.0113002,0.50777,1.03958
197.642,25.86937,0.01037452,0.51222,1.03934
198.242,25.92694,0.008636024,0.51381,1.0391
198.842,25.98464,0.0073432,0.51832,1.03886
199.442,26.0423,0.007349994,0.52335,1.03862
200.042,26.09979,0.00735085,0.5269,1.03838
200.642,26.15705,0.006031095,0.52996,1.03814
201.242,26.21395,0.006032872,0.53452,1.03789
201.842,26.2713,0.004726903,0.53946,1.03765
202.442,26.3286,0.00603853,0.54321,1.03741
203.042,26.3864,0.006701836,0.54979,1.03716
203.642,26.44388,0.005413414,0.55211,1.03692
204.242,26.50136,0.004060688,0.55964,1.03667
204.842,26.5588,0.002606242,0.56524,1.03642
205.442,26.61625,0.00260354,0.57024,1.03617
206.042,26.67355,0.00132096,0.57596,1.03593
206.642,26.7309,0.00264313,0.58282,1.03568
207.242,26.7884,0.00264,0.58655,1.03543
207.842,26.84587,0.002639926,0.59314,1.03518
208.442,26.9033,0.001106044,0.6002,1.03492
209.042,26.96078,-0.0004939892,0.61017,1.03467
209.642,27.0183,-0.00142037,0.61859,1.03442
210.242,27.076,-0.0003009686,0.62941,1.03417
210.842,27.1338,-0.0008272622,0.63992,1.03391
211.442,27.19125,-0.001429921,0.65113,1.03366
212.042,27.24874,-0.001431147,0.66685,1.0334
212.642,27.3059,-0.002737205,0.68013,1.03314
213.242,27.3634,-0.005247728,0.69798,1.03289
213.842,27.4207,-0.005346955,0.71472,1.03263
214.442,27.478,-0.005357636,0.7279,1.03237
215.042,27.53545,-0.005369992,0.73916,1.03211
215.642,27.5929,-0.005370078,0.74536,1.03185
216.242,27.65045,-0.006713824,0.74739,1.03159
216.842,27.70795,-0.00800701,0.74811,1.03133
217.442,27.7654,-0.00932043,0.74553,1.03106
218.042,27.8228,-0.009320074,0.74525,1.0308
218.642,27.88011,-0.01064637,0.74782,1.03054
219.242,27.93732,-0.01063945,0.75045,1.03027
219.842,27.9948,-0.01192544,0.75627,1.03001
220.442,28.05214,-0.01203818,0.76109,1.02974
221.042,28.1096,-0.01326996,0.77291,1.02948
221.642,28.167,-0.01396034,0.78713,1.02921
222.242,28.22445,-0.01582407,0.80841,1.02894
222.842,28.2819,-0.01719525,0.8329,1.02867
223.442,28.33946,-0.01852872,0.86437,1.0284
224.042,28.39694,-0.01866519,0.89572,1.02813
224.642,28.45457,-0.01985025,0.92248,1.02786
225.242,28.5123,-0.02069999,0.93943,1.02759
225.842,28.5697,-0.02117001,0.9508,1.02732
226.442,28.62715,-0.02117,0.94879,1.02705
227.042,28.6845,-0.02015693,0.94084,1.02677
227.642,28.74179,-0.02196884,0.9314,1.0265
228.242,28.79928,-0.02245455,0.91794,1.02622
228.842,28.8567,-0.02533258,0.90603,1.02595
229.442,28.91415,-0.0266569,0.89639,1.02567
230.042,28.97155,-0.02712511,0.88954,1.02539
230.642,29.0292,-0.02796743,0.88793,1.02512
231.242,29.0868,-0.02789278,0.88378,1.02484
231.842,29.14415,-0.02928439,0.88306,1.02456
232.442,29.2016,-0.03224675,0.88617,1.02428
233.042,29.2591,-0.03535422,0.8879,1.024
233.642,29.31673,-0.0360835,0.89174,1.02372
234.242,29.3741,-0.03733151,0.89883,1.02343
234.842,29.43151,-0.04003041,0.9073,1.02315
235.442,29.489,-0.04135136,0.91497,1.02287
236.042,29.54655,-0.04203461,0.92698,1.02258
236.642,29.60425,-0.04258225,0.94138,1.0223
237.242,29.6617,-0.0426386,0.95536,1.02201
237.842,29.719,-0.04393168,0.97113,1.02173
238.442,29.77641,-0.04598405,0.98858,1.02144
239.042,29.8339,-0.04891664,1.00681,1.02115
239.642,29.89143,-0.05267876,1.02634,1.02086
240.242,29.949,-0.05592015,1.04502,1.02058
240.842,30.0066,-0.0572399,1.06629,1.02029
241.442,30.06425,-0.05914341,1.08879,1.02
242.042,30.1219,-0.06209091,1.11227,1.0197
242.642,30.1795,-0.06239074,1.1344,1.01941
243.242,30.237,-0.0664417,1.16153,1.01912
243.842,30.29447,-0.06777309,1.18463,1.01883
244.442,30.35213,-0.07087066,1.21168,1.01853
245.042,30.40979,-0.07073347,1.23745,1.01824
245.642,30.4677,-0.07378388,1.26759,1.01794
246.242,30.5254,-0.07742411,1.29313,1.01765
246.842,30.5831,-0.08011294,1.32607,1.01735
247.442,30.64081,-0.08119117,1.3545,1.01705
248.042,30.69843,-0.0843012,1.38845,1.01676
248.642,30.7564,-0.08924742,1.41095,1.01646
249.242,30.814,-0.09187149,1.43641,1.01616
249.842,30.8719,-0.09415123,1.44996,1.01586
250.442,30.9296,-0.09696331,1.46213,1.01556
251.042,30.98759,-0.09968241,1.47044,1.01526
251.642,31.0454,-0.10127,1.47582,1.01496
252.242,31.10315,-0.10424,1.48119,1.01465
252.842,31.1609,-0.10663,1.48657,1.01435
253.442,31.21847,-0.10998,1.49125,1.01405
254.042,31.2761,-0.1132,1.49435,1.01374
254.642,31.3336,-0.11589,1.49571,1.01344
255.242,31.3911,-0.11879,1.50009,1.01313
255.842,31.4487,-0.12415,1.50197,1.01282
256.442,31.50618,-0.12757,1.50024,1.01252
257.042,31.56366,-0.13078,1.50129,1.01221
257.642,31.6211,-0.13415,1.49894,1.0119
258.242,31.67871,-0.13833,1.495,1.01159
258.842,31.7363,-0.14113,1.48899,1.01128
259.442,31.7938,-0.14317,1.48033,1.01097
260.042,31.85117,-0.14753,1.468,1.01066
260.642,31.90842,-0.15048,1.45472,1.01035
261.242,31.9657,-0.15345,1.43841,1.01004
261.842,32.0229,-0.15685,1.41877,1.00972
262.442,32.0801,-0.16014,1.39337,1.00941
263.042,32.13726,-0.16355,1.36775,1.00909
263.642,32.1945,-0.16778,1.33568,1.00878
264.242,32.25173,-0.16997,1.2999,1.00846
264.842,32.30897,-0.16998,1.26515,1.00815
265.442,32.36616,-0.17143,1.21886,1.00783
266.042,32.42317,-0.17251,1.1784,1.00751
266.642,32.4801,-0.1754,1.13083,1.00719
267.242,32.53702,-0.178,1.08512,1.00687
267.842,32.59406,-0.18193,1.03876,1.00656
268.442,32.6509,-0.18373,0.99472,1.00623
269.042,32.70783,-0.18652,0.95034,1.00591
269.642,32.76475,-0.18843,0.9095,1.00559
270.242,32.8215,-0.18932,0.87122,1.00527
270.842,32.8784,-0.18932,0.83543,1.00495
271.442,32.93521,-0.1898,0.80086,1.00462
272.042,32.99207,-0.19014,0.77297,1.0043
272.642,33.04892,-0.19064,0.7431,1.00397
273.242,33.10581,-0.19195,0.71838,1.00365
273.842,33.1627,-0.19331,0.6969,1.00332
274.442,33.2196,-0.19326,0.6782,1.003
275.042,33.27655,-0.19441,0.65877,1.00267
275.642,33.3335,-0.19606,0.64427,1.00234
276.242,33.3904,-0.19722,0.62893,1.00201
276.842,33.4475,-0.19723,0.61361,1.00168
277.442,33.50466,-0.19853,0.60114,1.00135
278.042,33.5617,-0.19853,0.59219,1.00102
278.642,33.61885,-0.19985,0.58073,1.00069
279.242,33.67597,-0.20091,0.57195,1.00036
279.842,33.73292,-0.20242,0.56315,1.00003
280.442,33.78992,-0.2038,0.5546,0.99969
281.042,33.84695,-0.20377,0.54713,0.99936
281.642,33.90404,-0.20444,0.54014,0.99902
282.242,33.96116,-0.20314,0.53612,0.99869
282.842,34.01838,-0.20231,0.5282,0.99835
283.442,34.07567,-0.2025,0.52234,0.99802
284.042,34.13292,-0.20511,0.51963,0.99768
284.642,34.19021,-0.20511,0.5129,0.99734
285.242,34.24731,-0.20578,0.50871,0.997
285.842,34.30454,-0.20708,0.50644,0.99667
286.442,34.36169,-0.20899,0.5026,0.99633
287.042,34.41907,-0.20972,0.49781,0.99599
287.642,34.47634,-0.21103,0.49615,0.99564
288.242,34.53367,-0.21102,0.49252,0.9953
288.842,34.59095,-0.21344,0.49359,0.99496
289.442,34.6483,-0.21529,0.49016,0.99462
290.042,34.70576,-0.21894,0.48829,0.99428
290.642,34.76325,-0.21922,0.48513,0.99393
291.242,34.82079,-0.21356,0.4813,0.99359
291.842,34.87831,-0.21189,0.47944,0.99324
292.442,34.9356,-0.21198,0.48033,0.9929
293.042,34.99293,-0.21312,0.47657,0.99255
293.642,35.0503,-0.21311,0.47471,0.9922
294.242,35.10783,-0.21456,0.47295,0.99186
294.842,35.16545,-0.2144,0.47173,0.99151
295.442,35.22306,-0.21442,0.47386,0.99116
296.042,35.2806,-0.21254,0.47021,0.99081
296.642,35.33824,-0.21288,0.47088,0.99046
297.242,35.3959,-0.21551,0.47036,0.99011
297.842,35.4536,-0.22027,0.47032,0.98976
298.442,35.51119,-0.22145,0.46986,0.98941
299.042,35.56885,-0.22122,0.47052,0.98905
299.642,35.62647,-0.22014,0.4695,0.9887
300.242,35.68396,-0.22014,0.46687,0.98835
300.842,35.7415,-0.22025,0.46601,0.98799
301.442,35.79908,-0.21959,0.46612,0.98764
302.042,35.8568,-0.22033,0.46526,0.98728
302.642,35.91457,-0.22152,0.46615,0.98693
303.242,35.97233,-0.22437,0.46562,0.98657
303.842,36.0298,-0.22299,0.46605,0.98621
304.442,36.08742,-0.222,0.46327,0.98585
305.042,36.14477,-0.22156,0.4625,0.9855
305.642,36.20223,-0.22069,0.46124,0.98514
306.242,36.26012,-0.22069,0.46094,0.98478
306.842,36.31774,-0.22069,0.46115,0.98442
307.442,36.37535,-0.22226,0.46126,0.98406
308.042,36.43319,-0.22259,0.46189,0.98369
308.642,36.49092,-0.22517,0.46229,0.98333
309.242,36.54899,-0.22679,0.46094,0.98297
309.842,36.60688,-0.2265,0.46051,0.98261
310.442,36.66471,-0.22683,0.46125,0.98224
311.042,36.72252,-0.22834,0.45999,0.98188
311.642,36.78028,-0.22837,0.45975,0.98151
312.242,36.83789,-0.22627,0.45878,0.98115
312.842,36.8956,-0.22439,0.45917,0.98078
313.442,36.95316,-0.22278,0.46283,0.98041
314.042,37.01093,-0.2228,0.46044,0.98005
314.642,37.0686,-0.22715,0.4602,0.97968
315.242,37.12627,-0.23141,0.46062,0.97931
315.842,37.18407,-0.23402,0.46283,0.97894
316.442,37.24173,-0.23333,0.46389,0.97857
317.042,37.29959,-0.23416,0.46273,0.9782
317.642,37.35731,-0.23385,0.46063,0.97783
318.242,37.415,-0.23386,0.46368,0.97746
318.842,37.47269,-0.23251,0.46463,0.97709
319.442,37.5304,-0.22967,0.46417,0.97671
320.042,37.58812,-0.22686,0.46455,0.97634
320.642,37.64578,-0.22769,0.4626,0.97597
321.242,37.70349,-0.23046,0.46268,0.97559
321.842,37.76125,-0.23185,0.46381,0.97522
322.442,37.81893,-0.23862,0.46717,0.97484
323.042,37.87662,-0.23931,0.46595,0.97447
323.642,37.93394,-0.23889,0.46531,0.97409
324.242,37.99152,-0.24021,0.46545,0.97371
324.842,38.04927,-0.24021,0.4662,0.97333
325.442,38.107,-0.24011,0.46636,0.97296
326.042,38.16474,-0.2412,0.46737,0.97258
326.642,38.22215,-0.2425,0.46823,0.9722
327.242,38.27973,-0.24282,0.46823,0.97182
327.842,38.33732,-0.24383,0.46835,0.97144
328.442,38.39529,-0.24246,0.47102,0.97106
329.042,38.45322,-0.24138,0.46806,0.97067
329.642,38.51109,-0.24122,0.47035,0.97029
330.242,38.56905,-0.24251,0.47019,0.96991
330.842,38.6269,-0.24357,0.47121,0.96952
331.442,38.68458,-0.24424,0.47061,0.96914
332.042,38.7423,-0.24514,0.47176,0.96876
332.642,38.80005,-0.24646,0.47311,0.96837
333.242,38.85773,-0.24641,0.46982,0.96799
333.842,38.9157,-0.24971,0.47132,0.9676
334.442,38.9737,-0.25041,0.47116,0.96721
335.042,39.03157,-0.25248,0.46981,0.96682
335.642,39.08955,-0.25371,0.4714,0.96644
336.242,39.14734,-0.2545,0.4719,0.96605
336.842,39.20485,-0.25652,0.47299,0.96566
337.442,39.26255,-0.25537,0.47125,0.96527
338.042,39.3206,-0.25282,0.47176,0.96488
338.642,39.37878,-0.2521,0.46919,0.96449
339.242,39.43723,-0.25348,0.46941,0.9641
339.842,39.49532,-0.25348,0.47181,0.96371
340.442,39.55322,-0.25357,0.47042,0.96331
341.042,39.61119,-0.25624,0.47164,0.96292
341.642,39.6692,-0.25954,0.4723,0.96253
342.242,39.72707,-0.26147,0.47242,0.96213
342.842,39.78523,-0.26171,0.47106,0.96174
343.442,39.84341,-0.26171,0.46942,0.96134
344.042,39.90169,-0.26091,0.46947,0.96095
344.642,39.96012,-0.26029,0.46738,0.96055
345.242,40.0184,-0.26167,0.4683,0.96015
345.842,40.07656,-0.26388,0.46601,0.95976
346.442,40.13475,-0.26516,0.47009,0.95936
347.042,40.19296,-0.26651,0.46994,0.95896
347.642,40.25137,-0.26785,0.47108,0.95856
348.242,40.30959,-0.27511,0.47289,0.95816
348.842,40.3679,-0.28597,0.47582,0.95776
349.442,40.42629,-0.28836,0.475,0.95736
350.042,40.48453,-0.28711,0.47633,0.95696
350.642,40.54272,-0.28628,0.47291,0.95656
351.242,40.60106,-0.28378,0.47626,0.95616
351.842,40.6592,-0.28193,0.47787,0.95576
352.442,40.71761,-0.28056,0.47918,0.95535
353.042,40.77584,-0.28189,0.47817,0.95495
353.642,40.83396,-0.28185,0.48106,0.95454
354.242,40.89184,-0.2832,0.4821,0.95414
354.842,40.95,-0.28726,0.4828,0.95374
355.442,41.0084,-0.2903,0.48609,0.95333
356.042,41.06685,-0.2935,0.48878,0.95292
356.642,41.12531,-0.29607,0.48828,0.95252
357.242,41.1837,-0.30038,0.49264,0.95211
357.842,41.24184,-0.30409,0.49295,0.9517
358.442,41.30017,-0.30227,0.49716,0.95129
359.042,41.3583,-0.30172,0.49551,0.95088
359.642,41.4165,-0.3032,0.49882,0.95047
360.242,41.47462,-0.30685,0.50207,0.95006
360.842,41.53287,-0.31123,0.50413,0.94965
361.442,41.5912,-0.31799,0.50694,0.94924
362.042,41.64951,-0.32338,0.50937,0.94883
362.642,41.7077,-0.32539,0.51248,0.94842
363.242,41.76585,-0.32773,0.51779,0.94801
363.842,41.82418,-0.33124,0.51799,0.94759
364.442,41.88245,-0.33692,0.52193,0.94718
365.042,41.94085,-0.33993,0.52628,0.94677
365.642,41.99917,-0.34408,0.52729,0.94635
366.242,42.0575,-0.34538,0.53032,0.94594
366.842,42.11594,-0.34745,0.53424,0.94552
367.442,42.17411,-0.35267,0.5377,0.94511
368.042,42.23231,-0.35964,0.5403,0.94469
368.642,42.2904,-0.36629,0.54215,0.94427
369.242,42.3487,-0.37116,0.54478,0.94385
369.842,42.4071,-0.3736,0.55061,0.94344
370.442,42.46501,-0.37621,0.5522,0.94302
371.042,42.5231,-0.38,0.556,0.9426
371.642,42.5815,-0.38653,0.56074,0.94218
372.242,42.6398,-0.39321,0.56582,0.94176
372.842,42.69882,-0.40191,0.57003,0.94134
373.442,42.7573,-0.40954,0.57465,0.94092
374.042,42.8155,-0.41582,0.58007,0.9405
374.642,42.87396,-0.42351,0.58437,0.94007
375.242,42.93224,-0.42946,0.59073,0.93965
375.842,42.99064,-0.43665,0.5947,0.93923
376.442,43.04906,-0.44381,0.60218,0.9388
377.042,43.10733,-0.45441,0.60665,0.93838
377.642,43.16578,-0.46396,0.61234,0.93796
378.242,43.22421,-0.47098,0.61848,0.93753
378.842,43.28267,-0.47934,0.62401,0.93711
379.442,43.34122,-0.48639,0.62951,0.93668
380.042,43.39971,-0.49157,0.63613,0.93625
380.642,43.4582,-0.499,0.64141,0.93583
381.242,43.5167,-0.5082,0.64778,0.9354
381.842,43.57527,-0.52379,0.65835,0.93497
382.442,43.6338,-0.54045,0.66648,0.93454
383.042,43.6924,-0.55158,0.67496,0.93411
383.642,43.7509,-0.56039,0.67697,0.93368
384.242,43.80942,-0.56974,0.68992,0.93325
384.842,43.86805,-0.58032,0.6952,0.93282
385.442,43.92666,-0.59272,0.70685,0.93239
386.042,43.98525,-0.60659,0.71159,0.93196
386.642,44.04367,-0.6198,0.723,0.93153
387.242,44.10235,-0.63469,0.73122,0.9311
387.842,44.16101,-0.64943,0.73958,0.93066
388.442,44.21973,-0.6633,0.747,0.93023
389.042,44.27847,-0.68075,0.75799,0.9298
389.642,44.3371,-0.69559,0.76848,0.92936
390.242,44.39565,-0.71236,0.77805,0.92893
390.842,44.45422,-0.72656,0.78748,0.92849
391.442,44.5127,-0.74478,0.7962,0.92806
392.042,44.57131,-0.76008,0.807,0.92762
392.642,44.62977,-0.77892,0.81409,0.92719
393.242,44.6884,-0.79467,0.82407,0.92675
393.842,44.74711,-0.81254,0.83298,0.92631
394.442,44.80573,-0.82896,0.84227,0.92587
395.042,44.86444,-0.84954,0.85086,0.92544
395.642,44.92297,-0.87086,0.85889,0.925
396.242,44.98146,-0.89047,0.86722,0.92456
396.842,45.04014,-0.90944,0.87281,0.92412
397.442,45.0986,-0.92927,0.88301,0.92368
398.042,45.15724,-0.95123,0.8917,0.92324
398.642,45.2157,-0.97046,0.89569,0.9228
399.242,45.27428,-0.99502,0.90396,0.92235
399.842,45.33292,-1.0154,0.91021,0.92191
400.442,45.39147,-1.03703,0.9168,0.92147
401.042,45.45013,-1.05753,0.91703,0.92103
401.642,45.5087,-1.08212,0.92268,0.92058
402.242,45.56735,-1.10549,0.92683,0.92014
402.842,45.6261,-1.1287,0.92825,0.9197
403.442,45.6847,-1.14937,0.93057,0.91925
404.042,45.74333,-1.17366,0.93054,0.91881
404.642,45.80222,-1.19942,0.93029,0.91836
405.242,45.86105,-1.22074,0.92752,0.91791
405.842,45.91976,-1.24442,0.92545,0.91747
406.442,45.97853,-1.26649,0.91985,0.91702
407.042,46.03733,-1.29021,0.91357,0.91657
407.642,46.09625,-1.31447,0.91122,0.91612
408.242,46.15487,-1.33903,0.90232,0.91568
408.842,46.21376,-1.36119,0.89074,0.91523
409.442,46.2725,-1.38567,0.87971,0.91478
410.042,46.33135,-1.40809,0.86949,0.91433
410.642,46.39034,-1.43704,0.85747,0.91388
411.242,46.44895,-1.46,0.84448,0.91343
411.842,46.50765,-1.48059,0.82689,0.91298
412.442,46.56629,-1.50136,0.81155,0.91253
413.042,46.62488,-1.52355,0.79784,0.91207
413.642,46.68351,-1.54255,0.78531,0.91162
414.242,46.74224,-1.56419,0.77186,0.91117
414.842,46.8008,-1.58673,0.76155,0.91072
415.442,46.8596,-1.60585,0.74758,0.91026
416.042,46.9182,-1.62533,0.74015,0.90981
416.642,46.97696,-1.64243,0.72992,0.90935
417.242,47.03563,-1.65978,0.71737,0.9089
417.842,47.09426,-1.67729,0.70738,0.90844
418.442,47.15307,-1.69606,0.69404,0.90799
419.042,47.21156,-1.71409,0.68675,0.90753
419.642,47.27025,-1.73651,0.6752,0.90708
420.242,47.329,-1.75136,0.66627,0.90662
420.842,47.3879,-1.76558,0.65504,0.90616
421.442,47.44628,-1.78202,0.64404,0.9057
422.042,47.50478,-1.79742,0.63393,0.90525
422.642,47.56328,-1.8106,0.62505,0.90479
423.242,47.622,-1.82412,0.61786,0.90433
423.842,47.6807,-1.83959,0.60542,0.90387
424.442,47.73937,-1.85943,0.59768,0.90341
425.042,47.79804,-1.87139,0.59259,0.90295
425.642,47.8568,-1.88594,0.58366,0.90249
426.242,47.91548,-1.8978,0.57595,0.90203
426.842,47.9743,-1.91116,0.57011,0.90157
427.442,48.03322,-1.92205,0.56465,0.9011
428.042,48.09206,-1.93653,0.55505,0.90064
428.642,48.15076,-1.94624,0.55313,0.90018
429.242,48.20928,-1.95906,0.54423,0.89972
429.842,48.26805,-1.96811,0.5444,0.89925
430.442,48.32687,-1.97987,0.53589,0.89879
431.042,48.386,-1.99282,0.53373,0.89832
431.642,48.4449,-2.0051,0.52843,0.89786
432.242,48.50378,-2.01438,0.52587,0.89739
432.842,48.56268,-2.02542,0.52272,0.89693
433.442,48.62162,-2.03276,0.51867,0.89646
434.042,48.68036,-2.04231,0.51499,0.896
434.642,48.7391,-2.05014,0.51041,0.89553
435.242,48.79793,-2.05894,0.50902,0.89506
435.842,48.857,-2.06673,0.50523,0.89459
436.442,48.9161,-2.07561,0.49968,0.89413
437.042,48.975,-2.08355,0.49545,0.89366
437.642,49.0338,-2.09055,0.49044,0.89319
438.242,49.09267,-2.09764,0.48668,0.89272
438.842,49.1515,-2.10394,0.48095,0.89225
439.442,49.21043,-2.10831,0.47883,0.89178
440.042,49.2693,-2.11399,0.47162,0.89131
440.642,49.3282,-2.12073,0.47288,0.89084
441.242,49.38702,-2.12784,0.46667,0.89037
441.842,49.4459,-2.13644,0.46119,0.8899
442.442,49.50482,-2.14342,0.45738,0.88942
443.042,49.56371,-2.15116,0.45511,0.88895
443.642,49.6227,-2.15746,0.45177,0.88848
444.242,49.6817,-2.16181,0.44809,0.88801
444.842,49.74051,-2.16743,0.44687,0.88753
445.442,49.79954,-2.17085,0.44239,0.88706
446.042,49.85838,-2.17735,0.44161,0.88658
446.642,49.91741,-2.18245,0.44033,0.88611
447.242,49.976,-2.1852,0.43538,0.88564
447.842,50.03472,-2.1902,0.42941,0.88516
448.442,50.09369,-2.19643,0.42672,0.88468
449.042,50.1526,-2.20537,0.43183,0.88421
449.642,50.2119,-2.21204,0.4275,0.88373
450.242,50.27078,-2.21632,0.42695,0.88325
450.842,50.32953,-2.22141,0.42374,0.88278
451.442,50.38843,-2.22595,0.42066,0.8823
452.042,50.44747,-2.23061,0.41599,0.88182
452.642,50.50642,-2.23604,0.41423,0.88134
453.242,50.5653,-2.24009,0.41238,0.88086
453.842,50.62393,-2.24684,0.41368,0.88039
454.442,50.6826,-2.25147,0.40703,0.87991
455.042,50.74134,-2.25659,0.40826,0.87943
455.642,50.80035,-2.26319,0.40702,0.87895
456.242,50.85918,-2.26965,0.40281,0.87847
456.842,50.91792,-2.27547,0.40372,0.87798
457.442,50.97655,-2.28077,0.39713,0.8775
458.042,51.03528,-2.28575,0.39687,0.87702
458.642,51.09411,-2.28928,0.39391,0.87654
459.242,51.15317,-2.29438,0.39104,0.87606
459.842,51.21217,-2.29861,0.38947,0.87557
460.442,51.2712,-2.3042,0.38718,0.87509
461.042,51.33037,-2.308,0.37854,0.87461
461.642,51.38945,-2.31128,0.37427,0.87412
462.242,51.44853,-2.31563,0.36815,0.87364
462.842,51.50715,-2.31884,0.36219,0.87316
463.442,51.56619,-2.32107,0.35627,0.87267
464.042,51.62529,-2.32495,0.34941,0.87219
464.642,51.6847,-2.33045,0.34636,0.8717
465.242,51.74398,-2.33225,0.33803,0.87121
465.842,51.80321,-2.3323,0.32838,0.87073
466.442,51.86248,-2.33366,0.32216,0.87024
467.042,51.92167,-2.3369,0.31623,0.86975
467.642,51.98075,-2.34101,0.30971,0.86927
468.242,52.03983,-2.34452,0.30261,0.86878
468.842,52.0989,-2.34655,0.2956,0.86829
469.442,52.15817,-2.34899,0.28964,0.8678
470.042,52.21728,-2.35079,0.28344,0.86732
470.642,52.27661,-2.35069,0.27712,0.86683
471.242,52.33589,-2.35382,0.27198,0.86634
471.842,52.3951,-2.35604,0.26714,0.86585
472.442,52.4543,-2.35671,0.26128,0.86536
473.042,52.51336,-2.35921,0.25556,0.86487
473.642,52.5724,-2.36027,0.25239,0.86438
474.242,52.6316,-2.36044,0.24772,0.86389
474.842,52.69085,-2.36176,0.24562,0.86339
475.442,52.7503,-2.36045,0.24053,0.8629
476.042,52.8098,-2.36306,0.24022,0.86241
476.642,52.8691,-2.36487,0.23472,0.86192
477.242,52.9282,-2.36643,0.23468,0.86142
477.842,52.9872,-2.36854,0.23325,0.86093
478.442,53.0463,-2.36855,0.22709,0.86044
479.042,53.10553,-2.36873,0.22758,0.85995
479.642,53.16476,-2.37008,0.22471,0.85945
480.242,53.22401,-2.36943,0.22212,0.85896
480.842,53.28331,-2.37238,0.21785,0.85846
481.442,53.3428,-2.37391,0.21762,0.85797
482.042,53.4025,-2.37498,0.21914,0.85747
482.642,53.4621,-2.37477,0.2169,0.85698
483.242,53.52157,-2.37663,0.21855,0.85648
483.842,53.58093,-2.37788,0.21427,0.85598
484.442,53.6401,-2.37656,0.21095,0.85549
485.042,53.69911,-2.37658,0.20919,0.85499
485.642,53.7584,-2.37492,0.21025,0.85449
486.242,53.8179,-2.37492,0.21111,0.854
486.842,53.87724,-2.37635,0.20988,0.8535
487.442,53.9369,-2.3783,0.21079,0.853
488.042,53.9961,-2.3819,0.2086,0.8525
488.642,54.0556,-2.3831,0.20483,0.852
489.242,54.1149,-2.38315,0.20336,0.8515
489.842,54.1744,-2.38315,0.2026,0.851
490.442,54.2339,-2.38186,0.20181,0.8505
491.042,54.29331,-2.38183,0.19968,0.85
491.642,54.3527,-2.38064,0.19954,0.8495
492.242,54.412,-2.38183,0.19828,0.849
492.842,54.47156,-2.38184,0.19941,0.8485
493.442,54.53114,-2.38502,0.19924,0.848
494.042,54.5907,-2.38895,0.19731,0.8475
494.642,54.65022,-2.38896,0.19925,0.847
495.242,54.7096,-2.39028,0.19898,0.8465
495.842,54.76891,-2.39159,0.20027,0.84599
496.442,54.82826,-2.39153,0.19691,0.84549
497.042,54.88779,-2.3916,0.19709,0.84499
497.642,54.9472,-2.39276,0.19862,0.84448
498.242,55.0067,-2.39159,0.19518,0.84398
498.842,55.0661,-2.39159,0.19496,0.84348
499.442,55.12539,-2.39159,0.19373,0.84297
500.042,55.1848,-2.38899,0.19479,0.84247
500.642,55.2444,-2.39028,0.19491,0.84196
501.242,55.30385,-2.39191,0.19386,0.84146
501.842,55.3632,-2.39445,0.19461,0.84095
502.442,55.4223,-2.39586,0.19324,0.84045
503.042,55.4815,-2.39707,0.19302,0.83994
503.642,55.5409,-2.39699,0.19395,0.83943
504.242,55.60041,-2.39565,0.1943,0.83893
504.842,55.66,-2.39697,0.19071,0.83842
505.442,55.71955,-2.39826,0.19313,0.83791
506.042,55.779,-2.401,0.1913,0.83741
506.642,55.83846,-2.40256,0.19096,0.8369
507.242,55.8979,-2.40366,0.1911,0.83639
507.842,55.9572,-2.40334,0.18952,0.83588
508.442,56.01673,-2.40333,0.19112,0.83537
509.042,56.07631,-2.40234,0.18899,0.83487
509.642,56.1359,-2.40092,0.18725,0.83436
510.242,56.19549,-2.40162,0.18979,0.83385
510.842,56.255,-2.40646,0.1889,0.83334
511.442,56.31465,-2.40889,0.1923,0.83283
512.042,56.3742,-2.41058,0.19106,0.83232
512.642,56.43379,-2.4099,0.18887,0.83181
513.242,56.4933,-2.40983,0.18946,0.8313
513.842,56.5528,-2.40963,0.18824,0.83079
514.442,56.61226,-2.41007,0.18947,0.83027
515.042,56.6713,-2.4098,0.18607,0.82976
515.642,56.73089,-2.41112,0.18709,0.82925
516.242,56.7904,-2.41245,0.18645,0.82874
516.842,56.8499,-2.41243,0.18728,0.82823
517.442,56.90964,-2.41374,0.1883,0.82771
518.042,56.96906,-2.41696,0.18708,0.8272
518.642,57.0286,-2.41773,0.18589,0.82669
519.242,57.08801,-2.41493,0.1874,0.82617
519.842,57.14753,-2.41485,0.18444,0.82566
520.442,57.20714,-2.41391,0.18369,0.82515
521.042,57.26675,-2.41193,0.18508,0.82463
521.642,57.32637,-2.41069,0.1837,0.82412
522.242,57.386,-2.41524,0.18687,0.8236
522.842,57.44556,-2.4189,0.18439,0.82309
523.442,57.50516,-2.42053,0.18434,0.82257
524.042,57.5648,-2.42098,0.18541,0.82206
524.642,57.62429,-2.42186,0.18289,0.82154
525.242,57.6838,-2.41987,0.18357,0.82103
525.842,57.74352,-2.4216,0.18276,0.82051
526.442,57.8033,-2.42274,0.18487,0.81999
527.042,57.86309,-2.42411,0.18538,0.81948
527.642,57.92276,-2.4268,0.18474,0.81896
528.242,57.9823,-2.4281,0.18453,0.81844
528.842,58.04212,-2.42676,0.18332,0.81792
529.442,58.10182,-2.42669,0.18306,0.81741
530.042,58.1616,-2.42946,0.18087,0.81689
530.642,58.22136,-2.43205,0.18271,0.81637
531.242,58.2809,-2.43206,0.18366,0.81585
531.842,58.3405,-2.43072,0.1807,0.81533
532.442,58.4003,-2.42943,0.18254,0.81481
533.042,58.46014,-2.42811,0.1789,0.8143
533.642,58.52004,-2.43086,0.18018,0.81378
534.242,58.5798,-2.43372,0.18296,0.81326
534.842,58.6396,-2.43444,0.18275,0.81274
535.442,58.6993,-2.43535,0.18267,0.81222
536.042,58.759,-2.43535,0.18385,0.8117
536.642,58.81873,-2.43568,0.18295,0.81118
537.242,58.87859,-2.43568,0.18433,0.81065
537.842,58.9384,-2.43565,0.18329,0.81013
538.442,58.9983,-2.43838,0.18299,0.80961
539.042,59.058,-2.44192,0.18514,0.80909
539.642,59.11769,-2.44478,0.184,0.80857
540.242,59.17734,-2.44526,0.18401,0.80805
540.842,59.23718,-2.44609,0.18748,0.80752
541.442,59.297,-2.44468,0.18416,0.807
542.042,59.35689,-2.44471,0.18766,0.80648
542.642,59.41659,-2.44461,0.18729,0.80596
543.242,59.47606,-2.44731,0.18845,0.80543
543.842,59.53569,-2.44974,0.18684,0.80491
544.442,59.59535,-2.44995,0.18555,0.80439
545.042,59.65557,-2.45134,0.18788,0.80386
545.642,59.7154,-2.45183,0.18623,0.80334
546.242,59.77519,-2.45267,0.18479,0.80281
546.842,59.83506,-2.45253,0.18807,0.80229
547.442,59.8951,-2.45518,0.18862,0.80177
548.042,59.9551,-2.45608,0.19154,0.80124
548.642,60.01517,-2.455,0.18793,0.80072
549.242,60.07512,-2.45654,0.18906,0.80019
549.842,60.135,-2.46055,0.18899,0.79966
550.442,60.195,-2.46359,0.19397,0.79914
551.042,60.2548,-2.46463,0.18998,0.79861
551.642,60.31468,-2.46432,0.1892,0.79809
552.242,60.37471,-2.46432,0.19332,0.79756
552.842,60.4348,-2.46432,0.19443,0.79703
553.442,60.49505,-2.46497,0.19443,0.79651
554.042,60.555,-2.46494,0.19215,0.79598
554.642,60.61486,-2.46669,0.19186,0.79545
555.242,60.675,-2.4692,0.19347,0.79493
555.842,60.73491,-2.47148,0.19494,0.7944
556.442,60.7951,-2.47236,0.19747,0.79387
557.042,60.855,-2.47684,0.19616,0.79334
557.642,60.915,-2.47494,0.19749,0.79281
558.242,60.97481,-2.47641,0.19794,0.79229
558.842,61.0348,-2.47638,0.19901,0.79176
559.442,61.09471,-2.47778,0.19856,0.79123
560.042,61.15478,-2.47901,0.19656,0.7907
560.642,61.2147,-2.48042,0.19743,0.79017
561.242,61.2746,-2.48033,0.19843,0.78964
561.842,61.3347,-2.48136,0.19858,0.78911
562.442,61.39467,-2.48327,0.20387,0.78858
563.042,61.4545,-2.48505,0.20437,0.78805
563.642,61.5144,-2.48741,0.20108,0.78752
564.242,61.57421,-2.48954,0.20478,0.78699
564.842,61.6341,-2.49238,0.20691,0.78646
565.442,61.694,-2.49137,0.20866,0.78593
566.042,61.75369,-2.4931,0.21017,0.7854
566.642,61.81332,-2.49424,0.21048,0.78487
567.242,61.87294,-2.49371,0.21071,0.78434
567.842,61.9328,-2.49512,0.21301,0.7838
568.442,61.9927,-2.49591,0.21418,0.78327
569.042,62.0527,-2.49634,0.21149,0.78274
569.642,62.11255,-2.49896,0.21375,0.78221
570.242,62.1724,-2.50029,0.2135,0.78168
570.842,62.2324,-2.50159,0.2188,0.78114
571.442,62.29255,-2.50302,0.22093,0.78061
572.042,62.3525,-2.50408,0.21709,0.78008
572.642,62.4124,-2.5063,0.22156,0.77955
573.242,62.47231,-2.50798,0.22376,0.77901
573.842,62.53245,-2.50916,0.22409,0.77848
574.442,62.5924,-2.51358,0.22712,0.77795
575.042,62.65231,-2.51488,0.23098,0.77741
575.642,62.71226,-2.51619,0.23112,0.77688
576.242,62.7723,-2.51619,0.23264,0.77634
576.842,62.8325,-2.51834,0.23344,0.77581
577.442,62.8926,-2.51913,0.23793,0.77528
578.042,62.95255,-2.51924,0.2418,0.77474
578.642,63.0126,-2.52153,0.24318,0.77421
579.242,63.07265,-2.52286,0.24747,0.77367
579.842,63.1327,-2.5255,0.25277,0.77314
580.442,63.19251,-2.52817,0.25679,0.7726
581.042,63.25249,-2.53024,0.262,0.77207
581.642,63.3125,-2.52971,0.26523,0.77153
582.242,63.3725,-2.531,0.27121,0.771
582.842,63.43252,-2.53229,0.28033,0.77046
583.442,63.4924,-2.53495,0.28119,0.76992
584.042,63.55242,-2.53768,0.2906,0.76939
584.642,63.61244,-2.53992,0.29861,0.76885
585.242,63.67247,-2.5405,0.30637,0.76831
585.842,63.73254,-2.54514,0.31419,0.76778
586.442,63.7927,-2.54916,0.3226,0.76724
587.042,63.85301,-2.55372,0.3289,0.7667
587.642,63.9132,-2.55815,0.33518,0.76617
588.242,63.9733,-2.56203,0.33887,0.76563
588.842,64.03327,-2.565,0.34143,0.76509
589.442,64.0933,-2.56667,0.33641,0.76455
590.042,64.15346,-2.5666,0.33522,0.76402
590.642,64.2137,-2.57041,0.33421,0.76348
591.242,64.27388,-2.57524,0.3319,0.76294
591.842,64.33412,-2.57853,0.33199,0.7624
592.442,64.3942,-2.58108,0.32762,0.76186
593.042,64.45421,-2.58608,0.32852,0.76133
593.642,64.51417,-2.58733,0.32669,0.76079
594.242,64.57421,-2.59076,0.32596,0.76025
594.842,64.63416,-2.59469,0.32174,0.75971
595.442,64.69428,-2.59527,0.32456,0.75917
596.042,64.75434,-2.59665,0.32199,0.75863
596.642,64.8142,-2.5985,0.32256,0.75809
597.242,64.87427,-2.60706,0.32292,0.75755
597.842,64.93441,-2.61248,0.3218,0.75701
598.442,64.99452,-2.61971,0.32002,0.75647
599.042,65.05487,-2.62454,0.31911,0.75593
599.642,65.11502,-2.62777,0.31875,0.75539
600.242,65.17527,-2.6316,0.3163,0.75485
600.842,65.2355,-2.63567,0.31399,0.75431
601.442,65.29575,-2.63957,0.30752,0.75377
602.042,65.35595,-2.64384,0.30391,0.75323
602.642,65.4161,-2.64651,0.29712,0.75269
603.242,65.47629,-2.65075,0.29539,0.75215
603.842,65.5364,-2.65518,0.28987,0.75161
604.442,65.59645,-2.65567,0.28545,0.75107
605.042,65.65671,-2.65878,0.27929,0.75053
605.642,65.71678,-2.66241,0.27688,0.74999
606.242,65.77684,-2.66552,0.26895,0.74944
606.842,65.83683,-2.6686,0.2705,0.7489
607.442,65.89706,-2.67442,0.26472,0.74836
608.042,65.95711,-2.6783,0.2614,0.74782
608.642,66.0173,-2.67697,0.2595,0.74728
609.242,66.07765,-2.67703,0.25541,0.74674
609.842,66.13792,-2.67966,0.2475,0.74619
610.442,66.19819,-2.67994,0.24457,0.74565
611.042,66.25834,-2.68237,0.23639,0.74511
611.642,66.3185,-2.68489,0.22939,0.74457
612.242,66.37864,-2.68368,0.22346,0.74402
612.842,66.4388,-2.6826,0.22135,0.74348
613.442,66.49888,-2.68458,0.21846,0.74294
614.042,66.55894,-2.685,0.21572,0.74239
614.642,66.61914,-2.68649,0.21592,0.74185
615.242,66.6793,-2.68654,0.21145,0.74131
615.842,66.73942,-2.68786,0.21422,0.74076
616.442,66.7996,-2.68815,0.21266,0.74022
617.042,66.8599,-2.68917,0.21383,0.73968
617.642,66.92027,-2.69049,0.2142,0.73913
618.242,66.98053,-2.69312,0.2181,0.73859
618.842,67.0408,-2.69456,0.21868,0.73805
619.442,67.10088,-2.69894,0.22013,0.7375
620.042,67.16101,-2.70025,0.22174,0.73696
620.642,67.2213,-2.69884,0.22685,0.73641
621.242,67.28151,-2.69761,0.22674,0.73587
621.842,67.34166,-2.69631,0.23052,0.73533
622.442,67.40175,-2.69777,0.23419,0.73478
623.042,67.46189,-2.69941,0.23898,0.73424
623.642,67.52198,-2.70157,0.24199,0.73369
624.242,67.58205,-2.70149,0.24999,0.73315
624.842,67.64242,-2.70167,0.25195,0.7326
625.442,67.70281,-2.70196,0.25221,0.73206
626.042,67.76318,-2.69882,0.25646,0.73151
626.642,67.82339,-2.6962,0.25785,0.73097
627.242,67.88361,-2.69487,0.26216,0.73042
627.842,67.944,-2.69442,0.26689,0.72988
628.442,68.00426,-2.69478,0.27268,0.72933
629.042,68.06459,-2.69854,0.27888,0.72878
629.642,68.12493,-2.70148,0.28177,0.72824
630.242,68.18522,-2.70608,0.28444,0.72769
630.842,68.24557,-2.70823,0.28779,0.72715
631.442,68.30596,-2.71051,0.29112,0.7266
632.042,68.36628,-2.71188,0.29264,0.72605
632.642,68.42673,-2.71188,0.29554,0.72551
633.242,68.4871,-2.71183,0.29818,0.72496
633.842,68.5476,-2.71365,0.30009,0.72442
634.442,68.60804,-2.71318,0.30426,0.72387
635.042,68.66853,-2.71041,0.30803,0.72332
635.642,68.7288,-2.70866,0.30691,0.72278
636.242,68.78923,-2.71035,0.31149,0.72223
636.842,68.8496,-2.71187,0.31716,0.72168
637.442,68.91003,-2.71528,0.32031,0.72114
638.042,68.9705,-2.71736,0.32237,0.72059
638.642,69.0308,-2.71642,0.32599,0.72004
639.242,69.09119,-2.7167,0.32602,0.7195
639.842,69.15165,-2.71718,0.33068,0.71895
640.442,69.21217,-2.71994,0.33844,0.7184
641.042,69.2727,-2.7236,0.33813,0.71785
641.642,69.33312,-2.72272,0.33944,0.71731
642.242,69.39362,-2.7205,0.33999,0.71676
642.842,69.45406,-2.71748,0.34586,0.71621
643.442,69.51446,-2.71729,0.3474,0.71566
644.042,69.57509,-2.72047,0.35306,0.71512
644.642,69.63571,-2.72455,0.35237,0.71457
645.242,69.69654,-2.72299,0.35325,0.71402
645.842,69.75721,-2.72748,0.35968,0.71347
646.442,69.8178,-2.72951,0.36323,0.71292
647.042,69.8779,-2.72942,0.3663,0.71238
647.642,69.93847,-2.72879,0.36567,0.71183
648.242,69.99911,-2.72876,0.37099,0.71128
648.842,70.0599,-2.72876,0.37421,0.71073
649.442,70.1207,-2.73006,0.37769,0.71018
650.042,70.18115,-2.73305,0.37875,0.70964
650.642,70.24129,-2.73453,0.38559,0.70909
651.242,70.3018,-2.7346,0.38633,0.70854
651.842,70.3622,-2.73327,0.3943,0.70799
652.442,70.42255,-2.73328,0.39785,0.70744
653.042,70.48329,-2.73615,0.40449,0.70689
653.642,70.5436,-2.73766,0.40794,0.70634
654.242,70.60414,-2.73634,0.41116,0.7058
654.842,70.66464,-2.7364,0.41614,0.70525
655.442,70.7252,-2.73914,0.42265,0.7047
656.042,70.78573,-2.73998,0.43062,0.70415
656.642,70.84629,-2.74128,0.4337,0.7036
657.242,70.90679,-2.74193,0.43993,0.70305
657.842,70.96726,-2.74407,0.44301,0.7025
658.442,71.02767,-2.74592,0.44667,0.70195
659.042,71.08802,-2.74854,0.44969,0.7014
659.642,71.14843,-2.75001,0.45409,0.70085
660.242,71.2088,-2.74994,0.46073,0.70031
660.842,71.26941,-2.74967,0.46477,0.69976
661.442,71.33,-2.75136,0.4656,0.69921
662.042,71.39021,-2.75136,0.46896,0.69866
662.642,71.45076,-2.75138,0.47694,0.69811
663.242,71.51123,-2.75427,0.48588,0.69756
663.842,71.57151,-2.75554,0.48647,0.69701
664.442,71.63181,-2.7583,0.49602,0.69646
665.042,71.6922,-2.76082,0.49843,0.69591
665.642,71.75255,-2.75959,0.5022,0.69536
666.242,71.81316,-2.75964,0.50827,0.69481
666.842,71.87365,-2.75963,0.51685,0.69426
667.442,71.93409,-2.76258,0.52006,0.69371
668.042,71.99452,-2.76392,0.52611,0.69316
668.642,72.05495,-2.76239,0.53315,0.69261
669.242,72.1152,-2.76618,0.53957,0.69206
669.842,72.1755,-2.76806,0.54702,0.69151
670.442,72.23568,-2.77151,0.55024,0.69096
671.042,72.29599,-2.77093,0.55978,0.69041
671.642,72.35631,-2.77356,0.56291,0.68986
672.242,72.4166,-2.77461,0.5724,0.68931
672.842,72.47681,-2.77528,0.5781,0.68876
673.442,72.537,-2.77584,0.58807,0.68821
674.042,72.59721,-2.77767,0.59494,0.68766
674.642,72.6575,-2.77833,0.60146,0.68711
675.242,72.71776,-2.7779,0.607,0.68656
675.842,72.77816,-2.77943,0.61107,0.68601
676.442,72.8386,-2.78225,0.61822,0.68546
677.042,72.89902,-2.78439,0.62173,0.68491
677.642,72.95951,-2.78806,0.62794,0.68436
678.242,73.02017,-2.79141,0.63344,0.68381
678.842,73.08089,-2.79403,0.63118,0.68326
679.442,73.14169,-2.79522,0.63616,0.68271
680.042,73.2024,-2.79361,0.6406,0.68216
680.642,73.26313,-2.79745,0.64207,0.68161
681.242,73.3235,-2.79898,0.64382,0.68106
681.842,73.38421,-2.79937,0.64472,0.68051
682.442,73.4448,-2.79918,0.63777,0.67996
683.042,73.50572,-2.80032,0.63566,0.67941
683.642,73.56619,-2.80279,0.63443,0.67886
684.242,73.62683,-2.80608,0.62725,0.67831
684.842,73.68746,-2.80741,0.62209,0.67775
685.442,73.74813,-2.80873,0.61325,0.6772
686.042,73.80888,-2.8107,0.60061,0.67665
686.642,73.86936,-2.81341,0.58851,0.6761
687.242,73.92996,-2.81345,0.57465,0.67555
687.842,73.99074,-2.81668,0.55844,0.675
688.442,74.05131,-2.82285,0.53835,0.67445
689.042,74.11198,-2.82407,0.52037,0.6739
689.642,74.1725,-2.82541,0.49776,0.67335
690.242,74.23294,-2.82673,0.47611,0.6728
690.842,74.2935,-2.8254,0.4511,0.67225
691.442,74.35398,-2.82661,0.42309,0.6717
692.042,74.4144,-2.8303,0.386,0.67115
692.642,74.4748,-2.82991,0.33022,0.6706
693.242,74.5351,-2.82963,0.28256,0.67005
693.842,74.5955,-2.82723,0.25346,0.6695
694.442,74.65581,-2.82859,0.22912,0.66894
695.042,74.71632,-2.82848,0.21811,0.66839
695.642,74.77696,-2.82995,0.20411,0.66784
696.242,74.8377,-2.82666,0.19754,0.66729
696.842,74.89824,-2.82683,0.19185,0.66674
697.442,74.95875,-2.82684,0.18429,0.66619
698.042,75.01906,-2.82946,0.18429,0.66564
698.642,75.07959,-2.83078,0.17915,0.66509
699.242,75.1401,-2.83011,0.17409,0.66454
699.842,75.20058,-2.82946,0.17684,0.66399
700.442,75.2611,-2.83076,0.17224,0.66344
701.042,75.3216,-2.82966,0.16859,0.66289
701.642,75.3821,-2.82815,0.16796,0.66234
702.242,75.4428,-2.82944,0.16661,0.66179
702.842,75.5034,-2.82946,0.16921,0.66124
703.442,75.5641,-2.83228,0.16697,0.66069
704.042,75.62472,-2.83492,0.16403,0.66013
704.642,75.68518,-2.83363,0.16508,0.65958
705.242,75.74584,-2.83363,0.16515,0.65903
705.842,75.80651,-2.8336,0.16516,0.65848
706.442,75.86716,-2.83273,0.16557,0.65793
707.042,75.928,-2.83362,0.16158,0.65738
707.642,75.98846,-2.83366,0.15939,0.65683
708.242,76.04901,-2.83198,0.16209,0.65628
708.842,76.10959,-2.83199,0.1607,0.65573
709.442,76.17007,-2.83341,0.15983,0.65518
710.042,76.2307,-2.83341,0.1613,0.65463
710.642,76.29126,-2.83473,0.15887,0.65408
711.242,76.3519,-2.83524,0.16132,0.65353
711.842,76.41255,-2.83506,0.15706,0.65298
712.442,76.47329,-2.8344,0.15708,0.65243
713.042,76.5342,-2.83374,0.15563,0.65188
713.642,76.595,-2.83374,0.1539,0.65133
714.242,76.6558,-2.83371,0.15799,0.65078
714.842,76.71661,-2.8323,0.15711,0.65023
715.442,76.77736,-2.83237,0.15387,0.64968
716.042,76.83819,-2.83176,0.15318,0.64913
716.642,76.8985,-2.83176,0.15449,0.64858
717.242,76.95917,-2.83235,0.14823,0.64803
717.842,77.01997,-2.83165,0.14958,0.64748
718.442,77.08064,-2.83165,0.14934,0.64693
719.042,77.14186,-2.83166,0.14938,0.64638
719.642,77.2026,-2.83317,0.14585,0.64583
720.242,77.26342,-2.83431,0.14833,0.64528
720.842,77.32423,-2.8356,0.14847,0.64473
721.442,77.38494,-2.8355,0.15082,0.64418
722.042,77.44572,-2.83563,0.14938,0.64363
722.642,77.50615,-2.83694,0.15016,0.64308
723.242,77.56703,-2.83783,0.14896,0.64253
723.842,77.62786,-2.83646,0.14807,0.64198
724.442,77.68889,-2.83505,0.14802,0.64143
725.042,77.74972,-2.83605,0.15203,0.64088
725.642,77.81047,-2.83736,0.14895,0.64033
726.242,77.87128,-2.83736,0.1497,0.63978
726.842,77.932,-2.83654,0.14666,0.63923
727.442,77.9926,-2.8361,0.14733,0.63868
728.042,78.0534,-2.83703,0.15224,0.63813
728.642,78.11414,-2.83703,0.15036,0.63758
729.242,78.17492,-2.83703,0.15185,0.63703
729.842,78.23564,-2.83567,0.14898,0.63648
730.442,78.2963,-2.83441,0.14794,0.63593
731.042,78.3569,-2.83439,0.1467,0.63538
731.642,78.4177,-2.83341,0.1452,0.63483
732.242,78.4783,-2.83518,0.14978,0.63428
732.842,78.53891,-2.83738,0.14683,0.63374
733.442,78.59961,-2.83813,0.15178,0.63319
734.042,78.6604,-2.83943,0.14775,0.63264
734.642,78.7213,-2.83944,0.14723,0.63209
735.242,78.78209,-2.83944,0.14798,0.63154
735.842,78.84299,-2.83944,0.14416,0.63099
736.442,78.90375,-2.83824,0.14759,0.63044
737.042,78.96461,-2.83911,0.14693,0.62989
737.642,79.02526,-2.83849,0.14666,0.62934
738.242,79.086,-2.83812,0.14288,0.6288
738.842,79.14666,-2.83554,0.14459,0.62825
739.442,79.2072,-2.83791,0.14309,0.6277
740.042,79.26799,-2.83947,0.14414,0.62715
740.642,79.32852,-2.83997,0.14471,0.6266
741.242,79.38915,-2.83868,0.14019,0.62605
741.842,79.4496,-2.83868,0.14556,0.6255
742.442,79.51017,-2.8369,0.14485,0.62496
743.042,79.57093,-2.83534,0.14451,0.62441
743.642,79.63175,-2.8385,0.13869,0.62386
744.242,79.69259,-2.83977,0.14126,0.62331
744.842,79.75331,-2.84008,0.14074,0.62276
745.442,79.81385,-2.84403,0.14474,0.62222
746.042,79.87448,-2.84404,0.14492,0.62167
746.642,79.93468,-2.84268,0.14385,0.62112
747.242,79.9936,-2.84273,0.14382,0.62057