File: 01_Data/Triexta_Carpet_High_Pile/STA/N2/10K_min/Triexta_Carpet_High_Pile_STA_N2_10KData_220110_R2.csv
##Temp./Â°C,Time/min,Mass loss(subtr.2)/mg,DSC(subtr.2)/(mW/mg),Sensit./(uV/mW)
49.306,10.00917,-0.03928,0.000706529,1.07447
50.006,10.76939,-0.04233772,0.0344528,1.07442
50.706,10.97165,-0.04263522,0.0569321,1.07437
51.406,11.12387,-0.0423774,0.07621445,1.07432
52.106,11.25216,-0.04473456,0.09101103,1.07427
52.806,11.3684,-0.04424366,0.1058,1.07422
53.506,11.47488,-0.04399605,0.11743,1.07416
54.206,11.5738,-0.04336142,0.12758,1.07411
54.906,11.6683,-0.04584616,0.13433,1.07405
55.606,11.75948,-0.04595586,0.14237,1.07399
56.306,11.8484,-0.04364417,0.1503,1.07394
57.006,11.93458,-0.04259419,0.15562,1.07388
57.706,12.01883,-0.04538654,0.16021,1.07381
58.406,12.10173,-0.0475431,0.16151,1.07375
59.106,12.18339,-0.0458158,0.16641,1.07369
59.806,12.26427,-0.04448695,0.16704,1.07362
60.506,12.34402,-0.04577244,0.17137,1.07356
61.206,12.42325,-0.04732272,0.1704,1.07349
61.906,12.50202,-0.04607094,0.17094,1.07342
62.606,12.5799,-0.04738232,0.17321,1.07336
63.306,12.65726,-0.04869117,0.17343,1.07329
64.006,12.7341,-0.0487484,0.17478,1.07321
64.706,12.8108,-0.04716749,0.17326,1.07314
65.406,12.88715,-0.05100605,0.17525,1.07307
66.106,12.96331,-0.05112,0.17318,1.07299
66.806,13.03918,-0.05079152,0.17813,1.07292
67.506,13.11484,-0.0524862,0.17558,1.07284
68.206,13.1902,-0.05201951,0.17782,1.07276
68.906,13.2654,-0.05113384,0.17849,1.07268
69.606,13.33985,-0.05112551,0.18176,1.0726
70.306,13.41434,-0.05017897,0.18169,1.07252
71.006,13.4886,-0.05099763,0.18013,1.07244
71.706,13.56298,-0.05001269,0.18259,1.07236
72.406,13.6367,-0.05231194,0.18498,1.07227
73.106,13.7104,-0.05167454,0.18612,1.07218
73.806,13.78377,-0.05206312,0.18709,1.0721
74.506,13.85726,-0.05332443,0.18864,1.07201
75.206,13.93079,-0.05399966,0.19015,1.07192
75.906,14.00406,-0.05267709,0.19252,1.07183
76.606,14.07729,-0.05474714,0.19326,1.07174
77.306,14.15015,-0.05474924,0.19281,1.07164
78.006,14.2231,-0.05420678,0.19759,1.07155
78.706,14.29571,-0.05469517,0.19677,1.07145
79.406,14.36844,-0.05473971,0.19905,1.07136
80.106,14.4407,-0.0560633,0.19532,1.07126
80.806,14.51299,-0.057369,0.19886,1.07116
81.506,14.58508,-0.05736991,0.1998,1.07106
82.206,14.6572,-0.05737043,0.20018,1.07096
82.906,14.7295,-0.05605877,0.20003,1.07086
83.606,14.80175,-0.05342192,0.20225,1.07076
84.306,14.87365,-0.05421956,0.20469,1.07065
85.006,14.94505,-0.0547366,0.20332,1.07055
85.706,15.0161,-0.05731315,0.20327,1.07044
86.406,15.08722,-0.05888934,0.20504,1.07033
87.106,15.15804,-0.05882494,0.20737,1.07022
87.806,15.2288,-0.06022354,0.20802,1.07011
88.506,15.2994,-0.05910516,0.20981,1.07
89.206,15.37004,-0.05735443,0.21153,1.06989
89.906,15.44051,-0.06008076,0.21095,1.06978
90.606,15.51104,-0.06067003,0.21288,1.06966
91.306,15.58129,-0.06050623,0.21361,1.06955
92.006,15.6514,-0.06065441,0.2131,1.06943
92.706,15.72127,-0.06031716,0.21303,1.06931
93.406,15.7911,-0.06033252,0.21344,1.06919
94.106,15.8607,-0.05900966,0.21466,1.06907
94.806,15.9304,-0.05901042,0.21404,1.06895
95.506,16.00001,-0.05960956,0.21698,1.06883
96.206,16.07,-0.05942401,0.21691,1.06871
96.906,16.13963,-0.06103148,0.21653,1.06858
97.606,16.20919,-0.06176035,0.21812,1.06846
98.306,16.27846,-0.06176233,0.21814,1.06833
99.006,16.34768,-0.06175244,0.21902,1.0682
99.706,16.4172,-0.06306709,0.21974,1.06807
100.406,16.48665,-0.06308177,0.22169,1.06794
101.106,16.55612,-0.06436733,0.223,1.06781
101.806,16.62536,-0.06570026,0.22358,1.06768
102.506,16.69438,-0.06442457,0.22355,1.06755
103.206,16.76349,-0.06342788,0.22638,1.06741
103.906,16.83267,-0.06176104,0.22546,1.06728
104.606,16.90192,-0.06175998,0.22675,1.06714
105.306,16.97118,-0.06314857,0.22995,1.067
106.006,17.04015,-0.06308188,0.22851,1.06686
106.706,17.10911,-0.06439007,0.22968,1.06672
107.406,17.17793,-0.06435039,0.23252,1.06658
108.106,17.24693,-0.06635316,0.23344,1.06644
108.806,17.31588,-0.06768448,0.23502,1.0663
109.506,17.38505,-0.06767992,0.2365,1.06615
110.206,17.4541,-0.06768081,0.23482,1.06601
110.906,17.523,-0.06769213,0.23711,1.06586
111.606,17.5916,-0.06768,0.23833,1.06571
112.306,17.66025,-0.06768001,0.23756,1.06556
113.006,17.72893,-0.06638402,0.23692,1.06541
113.706,17.79715,-0.06636423,0.23803,1.06526
114.406,17.86583,-0.06638798,0.23976,1.06511
115.106,17.93445,-0.06743555,0.23979,1.06496
115.806,18.00349,-0.06768002,0.2414,1.0648
116.506,18.07198,-0.06768211,0.23983,1.06464
117.206,18.14037,-0.06635481,0.24314,1.06449
117.906,18.20874,-0.06504974,0.24284,1.06433
118.606,18.277,-0.06505323,0.24414,1.06417
119.306,18.34533,-0.06854987,0.24379,1.06401
120.006,18.41382,-0.06943001,0.24464,1.06385
120.706,18.48215,-0.06803,0.24715,1.06369
121.406,18.55037,-0.0681171,0.24655,1.06352
122.106,18.61872,-0.06710408,0.24522,1.06336
122.806,18.687,-0.06813489,0.24995,1.06319
123.506,18.7552,-0.06802217,0.25052,1.06303
124.206,18.82333,-0.07151639,0.25062,1.06286
124.906,18.89125,-0.07339529,0.25174,1.06269
125.606,18.95947,-0.07207204,0.25306,1.06252
126.306,19.02744,-0.07219227,0.25433,1.06235
127.006,19.09534,-0.0720866,0.25464,1.06218
127.706,19.16346,-0.07302964,0.25631,1.06201
128.406,19.23156,-0.07338996,0.25804,1.06183
129.106,19.2999,-0.07339,0.25723,1.06166
129.806,19.36799,-0.07462937,0.25894,1.06148
130.506,19.43607,-0.07446935,0.25968,1.0613
131.206,19.50405,-0.07479515,0.26012,1.06112
131.906,19.57197,-0.0756698,0.25991,1.06094
132.606,19.63983,-0.07602084,0.26049,1.06076
133.306,19.70756,-0.07470323,0.26345,1.06058
134.006,19.7753,-0.07337739,0.26386,1.0604
134.706,19.84325,-0.0720409,0.26695,1.06021
135.406,19.9113,-0.07338995,0.26475,1.06003
136.106,19.97907,-0.07437136,0.26772,1.05984
136.806,20.04649,-0.07333802,0.26942,1.05966
137.506,20.11411,-0.07555453,0.26861,1.05947
138.206,20.18167,-0.07687552,0.27071,1.05928
138.906,20.24925,-0.07558027,0.27238,1.05909
139.606,20.31658,-0.07675077,0.27138,1.0589
140.306,20.38393,-0.07690048,0.27275,1.0587
141.006,20.45133,-0.07557422,0.27422,1.05851
141.706,20.51865,-0.07557805,0.27576,1.05831
142.406,20.5862,-0.078268,0.27575,1.05812
143.106,20.6537,-0.07950466,0.27676,1.05792
143.806,20.72126,-0.07953,0.2784,1.05772
144.506,20.78857,-0.0795277,0.27766,1.05752
145.206,20.85587,-0.07689033,0.27781,1.05732
145.906,20.9232,-0.07689202,0.2796,1.05712
146.606,20.99061,-0.07794345,0.28161,1.05692
147.306,21.05798,-0.07915695,0.28376,1.05672
148.006,21.12531,-0.07936555,0.28191,1.05651
148.706,21.19254,-0.0805168,0.2852,1.05631
149.406,21.2599,-0.08182035,0.28713,1.0561
150.106,21.32721,-0.08183,0.28763,1.05589
150.806,21.39477,-0.08183,0.28948,1.05568
151.506,21.46203,-0.08183688,0.29345,1.05547
152.206,21.52939,-0.08183011,0.2937,1.05526
152.906,21.59664,-0.08295115,0.29391,1.05505
153.606,21.6642,-0.08315002,0.29717,1.05484
154.306,21.7316,-0.08258391,0.29918,1.05462
155.006,21.79911,-0.08183001,0.30382,1.05441
155.706,21.86635,-0.0830259,0.30244,1.05419
156.406,21.93366,-0.08314464,0.30576,1.05397
157.106,22.00095,-0.08446037,0.30936,1.05376
157.806,22.06825,-0.08446,0.31042,1.05354
158.506,22.1355,-0.08446,0.31709,1.05332
159.206,22.2026,-0.08445526,0.31703,1.05309
159.906,22.26973,-0.08578015,0.31944,1.05287
160.606,22.33684,-0.08577672,0.32587,1.05265
161.306,22.40413,-0.08710061,0.32999,1.05242
162.006,22.47139,-0.08739958,0.33213,1.0522
162.706,22.53877,-0.08742,0.33914,1.05197
163.406,22.60613,-0.08849119,0.34164,1.05174
164.106,22.6734,-0.08873931,0.34384,1.05152
164.806,22.7407,-0.08762414,0.34948,1.05129
165.506,22.80801,-0.08610993,0.35242,1.05105
166.206,22.87527,-0.08610974,0.3563,1.05082
166.906,22.9424,-0.08747913,0.35548,1.05059
167.606,23.00964,-0.09029428,0.35498,1.05036
168.306,23.07689,-0.09128807,0.35578,1.05012
169.006,23.14402,-0.09126092,0.35335,1.04988
169.706,23.21115,-0.09257175,0.35093,1.04965
170.406,23.27821,-0.09126036,0.34716,1.04941
171.106,23.34531,-0.09220351,0.34495,1.04917
171.806,23.41239,-0.09087863,0.34381,1.04893
172.506,23.47938,-0.09093,0.34149,1.04869
173.206,23.5465,-0.09114383,0.33915,1.04844
173.906,23.61362,-0.09216313,0.3386,1.0482
174.606,23.68075,-0.09357002,0.33823,1.04796
175.306,23.74774,-0.09357,0.33747,1.04771
176.006,23.81491,-0.09357097,0.33902,1.04746
176.706,23.88206,-0.09491159,0.34042,1.04722
177.406,23.9493,-0.09718986,0.34099,1.04697
178.106,24.01636,-0.09718906,0.33898,1.04672
178.806,24.08332,-0.09434754,0.34332,1.04647
179.506,24.15028,-0.093403,0.34344,1.04622
180.206,24.21736,-0.09477233,0.34475,1.04596
180.906,24.28436,-0.09609339,0.34746,1.04571
181.606,24.35134,-0.09609,0.34945,1.04546
182.306,24.4183,-0.09608998,0.35306,1.0452
183.006,24.4857,-0.09672337,0.35282,1.04494
183.706,24.553,-0.09741006,0.35536,1.04468
184.406,24.62009,-0.10006,0.35669,1.04443
185.106,24.68702,-0.10003,0.36015,1.04417
185.806,24.75408,-0.10071,0.36222,1.04391
186.506,24.8212,-0.10069,0.36661,1.04364
187.206,24.88809,-0.10069,0.37093,1.04338
187.906,24.95506,-0.10069,0.37278,1.04312
188.606,25.02219,-0.10247,0.37547,1.04285
189.306,25.08929,-0.10267,0.37754,1.04259
190.006,25.15639,-0.10282,0.38039,1.04232
190.706,25.22327,-0.10399,0.38466,1.04205
191.406,25.28987,-0.10267,0.38759,1.04178
192.106,25.35688,-0.10399,0.39234,1.04151
192.806,25.4239,-0.10398,0.39683,1.04124
193.506,25.49118,-0.10629,0.39973,1.04097
194.206,25.55799,-0.10627,0.40337,1.04069
194.906,25.6248,-0.10624,0.40808,1.04042
195.606,25.69156,-0.10798,0.41154,1.04015
196.306,25.75827,-0.1092,0.41334,1.03987
197.006,25.82514,-0.11057,0.42071,1.03959
197.706,25.892,-0.11057,0.42368,1.03931
198.406,25.95883,-0.10925,0.42891,1.03904
199.106,26.02569,-0.10794,0.43173,1.03876
199.806,26.0925,-0.10926,0.4365,1.03847
200.506,26.15946,-0.1106,0.44055,1.03819
201.206,26.2262,-0.11294,0.4461,1.03791
201.906,26.2929,-0.11288,0.44992,1.03762
202.606,26.3598,-0.11419,0.45588,1.03734
203.306,26.42667,-0.11453,0.46285,1.03705
204.006,26.49335,-0.11583,0.4677,1.03677
204.706,26.5601,-0.11583,0.475,1.03648
205.406,26.627,-0.11715,0.47989,1.03619
206.106,26.69411,-0.11843,0.48585,1.0359
206.806,26.76108,-0.11978,0.49295,1.03561
207.506,26.8279,-0.12105,0.50134,1.03532
208.206,26.89488,-0.1211,0.50831,1.03502
208.906,26.9618,-0.12076,0.51806,1.03473
209.606,27.0288,-0.12044,0.52837,1.03443
210.306,27.09587,-0.12179,0.53789,1.03414
211.006,27.1628,-0.12246,0.55206,1.03384
211.706,27.2298,-0.12307,0.56721,1.03354
212.406,27.2969,-0.12486,0.58561,1.03324
213.106,27.36415,-0.12438,0.60223,1.03294
213.806,27.43155,-0.12572,0.62038,1.03264
214.506,27.49868,-0.12702,0.63313,1.03234
215.206,27.56573,-0.12833,0.64205,1.03204
215.906,27.6327,-0.12965,0.64552,1.03174
216.606,27.6998,-0.13097,0.65125,1.03143
217.306,27.7669,-0.13361,0.64862,1.03112
218.006,27.8338,-0.13459,0.64826,1.03082
218.706,27.9005,-0.13568,0.64888,1.03051
219.406,27.9673,-0.13755,0.65225,1.0302
220.106,28.0342,-0.13888,0.65987,1.02989
220.806,28.10125,-0.1397,0.66935,1.02958
221.506,28.1681,-0.14018,0.68534,1.02927
222.206,28.235,-0.13867,0.709,1.02896
222.906,28.30165,-0.13876,0.73949,1.02864
223.606,28.36877,-0.14139,0.77524,1.02833
224.306,28.43575,-0.14416,0.81082,1.02801
225.006,28.50317,-0.14742,0.83516,1.0277
225.706,28.57028,-0.14776,0.84898,1.02738
226.406,28.63747,-0.14809,0.84642,1.02706
227.106,28.7043,-0.14677,0.84051,1.02674
227.806,28.77122,-0.14544,0.82659,1.02642
228.506,28.83809,-0.14697,0.81517,1.0261
229.206,28.9053,-0.14947,0.80449,1.02578
229.906,28.9723,-0.15068,0.79652,1.02546
230.606,29.0393,-0.15336,0.79328,1.02513
231.306,29.1062,-0.15316,0.78907,1.02481
232.006,29.173,-0.15507,0.7925,1.02448
232.706,29.24005,-0.15926,0.79756,1.02415
233.406,29.307,-0.16326,0.80014,1.02383
234.106,29.3742,-0.16398,0.80828,1.0235
234.806,29.4413,-0.16408,0.81741,1.02317
235.506,29.5083,-0.16365,0.8279,1.02284
236.206,29.5755,-0.16397,0.8417,1.02251
236.906,29.6427,-0.16693,0.85861,1.02217
237.606,29.7102,-0.1698,0.87487,1.02184
238.306,29.7775,-0.17326,0.89553,1.0215
239.006,29.84487,-0.17645,0.91754,1.02117
239.706,29.9121,-0.17956,0.93886,1.02083
240.406,29.9795,-0.18263,0.9618,1.0205
241.106,30.0466,-0.18548,0.98569,1.02016
241.806,30.11399,-0.1885,1.01411,1.01982
242.506,30.1814,-0.19284,1.04014,1.01948
243.206,30.2489,-0.19415,1.06762,1.01914
243.906,30.31663,-0.19545,1.09733,1.0188
244.606,30.3841,-0.19796,1.12743,1.01845
245.306,30.45154,-0.20322,1.15622,1.01811
246.006,30.5191,-0.20457,1.19171,1.01776
246.706,30.5867,-0.21013,1.22367,1.01742
247.406,30.6543,-0.21159,1.25844,1.01707
248.106,30.7216,-0.21264,1.29009,1.01673
248.806,30.78913,-0.21882,1.31903,1.01638
249.506,30.8567,-0.22284,1.33978,1.01603
250.206,30.9241,-0.22571,1.35443,1.01568
250.906,30.9916,-0.23132,1.36846,1.01533
251.606,31.05902,-0.23548,1.3738,1.01497
252.306,31.12661,-0.23893,1.37794,1.01462
253.006,31.19405,-0.24198,1.38121,1.01427
253.706,31.26162,-0.2446,1.38672,1.01391
254.406,31.32868,-0.24809,1.39224,1.01356
255.106,31.39593,-0.25181,1.39321,1.0132
255.806,31.46313,-0.25479,1.39506,1.01284
256.506,31.5305,-0.25979,1.3936,1.01248
257.206,31.5976,-0.26302,1.39028,1.01213
257.906,31.66442,-0.26806,1.38612,1.01177
258.606,31.7314,-0.26994,1.38123,1.0114
259.306,31.79808,-0.27594,1.3677,1.01104
260.006,31.86484,-0.28085,1.35449,1.01068
260.706,31.93147,-0.2844,1.33497,1.01032
261.406,31.99819,-0.28735,1.31304,1.00995
262.106,32.0646,-0.29073,1.28598,1.00958
262.806,32.131,-0.29577,1.25452,1.00922
263.506,32.19765,-0.29872,1.21726,1.00885
264.206,32.26406,-0.3,1.17196,1.00848
264.906,32.33041,-0.3066,1.12429,1.00811
265.606,32.39663,-0.31022,1.06935,1.00774
266.306,32.46298,-0.30932,1.01293,1.00737
267.006,32.52926,-0.31085,0.95393,1.007
267.706,32.59505,-0.31502,0.89552,1.00663
268.406,32.6614,-0.31635,0.84099,1.00625
269.106,32.7275,-0.31698,0.78638,1.00588
269.806,32.79391,-0.31701,0.73806,1.0055
270.506,32.85988,-0.31766,0.69621,1.00513
271.206,32.9259,-0.31897,0.65474,1.00475
271.906,32.9921,-0.31899,0.62107,1.00437
272.606,33.05826,-0.32285,0.59005,1.00399
273.306,33.12455,-0.32564,0.56461,1.00361
274.006,33.1909,-0.32687,0.54163,1.00323
274.706,33.25727,-0.32821,0.5194,1.00285
275.406,33.32377,-0.3295,0.50154,1.00247
276.106,33.3901,-0.32882,0.48605,1.00209
276.806,33.4567,-0.33011,0.46997,1.0017
277.506,33.52325,-0.3315,0.45832,1.00132
278.206,33.58974,-0.3328,0.44786,1.00093
278.906,33.65643,-0.33298,0.43719,1.00054
279.606,33.72332,-0.33542,0.42805,1.00016
280.306,33.79027,-0.33671,0.42272,0.99977
281.006,33.85709,-0.33808,0.41574,0.99938
281.706,33.92392,-0.33937,0.40975,0.99899
282.406,33.9908,-0.33808,0.40213,0.9986
283.106,34.05772,-0.338,0.39887,0.99821
283.806,34.12466,-0.3394,0.39426,0.99781
284.506,34.19173,-0.34069,0.39039,0.99742
285.206,34.25873,-0.34201,0.38782,0.99702
285.906,34.3258,-0.34085,0.38407,0.99663
286.606,34.3927,-0.3394,0.38107,0.99623
287.306,34.45964,-0.34071,0.38047,0.99584
288.006,34.52687,-0.34069,0.37993,0.99544
288.706,34.5941,-0.34174,0.37324,0.99504
289.406,34.66137,-0.34069,0.37427,0.99464
290.106,34.7284,-0.34069,0.37208,0.99424
290.806,34.7956,-0.34383,0.37129,0.99384
291.506,34.86272,-0.3458,0.37381,0.99344
292.206,34.93,-0.34881,0.36829,0.99303
292.906,34.9972,-0.34783,0.36784,0.99263
293.606,35.0645,-0.34634,0.36814,0.99222
294.306,35.13147,-0.34551,0.36716,0.99182
295.006,35.19833,-0.34563,0.36866,0.99141
295.706,35.26532,-0.34558,0.36454,0.99101
296.406,35.33245,-0.34688,0.36351,0.9906
297.106,35.3996,-0.34957,0.36285,0.99019
297.806,35.46645,-0.35001,0.36408,0.98978
298.506,35.53348,-0.35109,0.36167,0.98937
299.206,35.60045,-0.35089,0.36125,0.98896
299.906,35.6675,-0.35089,0.36309,0.98854
300.606,35.73452,-0.35219,0.36146,0.98813
301.306,35.80133,-0.35334,0.3609,0.98772
302.006,35.86833,-0.35221,0.35956,0.9873
302.706,35.9353,-0.3549,0.36007,0.98689
303.406,36.00255,-0.35484,0.36009,0.98647
304.106,36.06953,-0.35615,0.35894,0.98605
304.806,36.1365,-0.35615,0.35796,0.98564
305.506,36.20364,-0.35616,0.3578,0.98522
306.206,36.27084,-0.35714,0.35805,0.9848
306.906,36.33802,-0.35714,0.35873,0.98438
307.606,36.40486,-0.35709,0.35878,0.98396
308.306,36.47201,-0.35846,0.35717,0.98353
309.006,36.5393,-0.35879,0.35715,0.98311
309.706,36.60666,-0.35879,0.35802,0.98269
310.406,36.67392,-0.35747,0.35665,0.98226
311.106,36.74107,-0.3588,0.35391,0.98184
311.806,36.80851,-0.36008,0.35682,0.98141
312.506,36.87583,-0.36142,0.35552,0.98099
313.206,36.94328,-0.36238,0.35522,0.98056
313.906,37.01063,-0.36274,0.35243,0.98013
314.606,37.078,-0.36406,0.35523,0.9797
315.306,37.14543,-0.36405,0.35317,0.97927
316.006,37.21298,-0.36633,0.35277,0.97884
316.706,37.2804,-0.36744,0.35262,0.97841
317.406,37.34802,-0.368,0.35218,0.97798
318.106,37.41558,-0.36799,0.35331,0.97754
318.806,37.48335,-0.36863,0.35172,0.97711
319.506,37.5505,-0.37002,0.35056,0.97667
320.206,37.61804,-0.36865,0.34774,0.97624
320.906,37.68555,-0.36937,0.34822,0.9758
321.606,37.75355,-0.36726,0.34784,0.97536
322.306,37.82138,-0.36741,0.34835,0.97493
323.006,37.88929,-0.36987,0.34512,0.97449
323.706,37.9572,-0.3712,0.34906,0.97405
324.406,38.0249,-0.37118,0.34695,0.97361
325.106,38.09247,-0.37251,0.34695,0.97317
325.806,38.1601,-0.37545,0.34556,0.97273
326.506,38.22782,-0.37669,0.34844,0.97228
327.206,38.29549,-0.37678,0.34781,0.97184
327.906,38.36327,-0.37686,0.34967,0.9714
328.606,38.43108,-0.37685,0.34752,0.97095
329.306,38.49902,-0.37809,0.35021,0.97051
330.006,38.56668,-0.37809,0.34967,0.97006
330.706,38.63423,-0.37941,0.35187,0.96961
331.406,38.70172,-0.38072,0.35257,0.96916
332.106,38.7691,-0.38072,0.35108,0.96872
332.806,38.83657,-0.38205,0.35384,0.96827
333.506,38.90403,-0.38336,0.35502,0.96782
334.206,38.97183,-0.38347,0.35504,0.96736
334.906,39.0391,-0.38467,0.35624,0.96691
335.606,39.10647,-0.38591,0.36183,0.96646
336.306,39.17391,-0.38557,0.35955,0.96601
337.006,39.24145,-0.38619,0.35858,0.96555
337.706,39.30917,-0.38731,0.36046,0.9651
338.406,39.3765,-0.38994,0.35851,0.96464
339.106,39.44399,-0.39257,0.36013,0.96419
339.806,39.5111,-0.39393,0.36272,0.96373
340.506,39.5788,-0.39272,0.36035,0.96327
341.206,39.64649,-0.39223,0.36022,0.96281
341.906,39.71451,-0.39332,0.36223,0.96235
342.606,39.78205,-0.39487,0.3606,0.96189
343.306,39.84962,-0.3975,0.36093,0.96143
344.006,39.9172,-0.39884,0.3604,0.96097
344.706,39.98486,-0.39913,0.36191,0.96051
345.406,40.05265,-0.4003,0.36384,0.96005
346.106,40.12045,-0.40287,0.36041,0.95958
346.806,40.1883,-0.40445,0.36131,0.95912
347.506,40.25614,-0.40683,0.35841,0.95865
348.206,40.3239,-0.40829,0.36127,0.95819
348.906,40.3917,-0.41083,0.35991,0.95772
349.606,40.45961,-0.41511,0.36144,0.95725
350.306,40.52752,-0.41772,0.35864,0.95679
351.006,40.5955,-0.41765,0.36229,0.95632
351.706,40.66343,-0.41791,0.36045,0.95585
352.406,40.7314,-0.41921,0.3605,0.95538
353.106,40.79919,-0.42043,0.3639,0.95491
353.806,40.86699,-0.42307,0.36457,0.95443
354.506,40.93513,-0.4274,0.36501,0.95396
355.206,41.00351,-0.43034,0.36539,0.95349
355.906,41.07173,-0.43289,0.3701,0.95302
356.606,41.13978,-0.43434,0.36816,0.95254
357.306,41.20803,-0.436,0.37058,0.95207
358.006,41.2763,-0.43646,0.37297,0.95159
358.706,41.34437,-0.4422,0.37578,0.95111
359.406,41.41268,-0.44511,0.37691,0.95064
360.106,41.481,-0.44922,0.37816,0.95016
360.806,41.5497,-0.45244,0.38209,0.94968
361.506,41.61793,-0.4563,0.38148,0.9492
362.206,41.68635,-0.45989,0.38468,0.94872
362.906,41.75457,-0.46442,0.38737,0.94824
363.606,41.8228,-0.46728,0.39091,0.94776
364.306,41.89098,-0.47338,0.39397,0.94727
365.006,41.9592,-0.47901,0.3983,0.94679
365.706,42.02745,-0.48402,0.40052,0.94631
366.406,42.09551,-0.48991,0.40445,0.94582
367.106,42.16352,-0.49354,0.40973,0.94534
367.806,42.23157,-0.50022,0.4128,0.94485
368.506,42.2997,-0.50408,0.41711,0.94437
369.206,42.36783,-0.50891,0.42015,0.94388
369.906,42.43582,-0.51715,0.42582,0.94339
370.606,42.5038,-0.52358,0.43053,0.9429
371.306,42.5717,-0.53082,0.43591,0.94241
372.006,42.63958,-0.53663,0.44104,0.94192
372.706,42.7076,-0.54277,0.4446,0.94143
373.406,42.77554,-0.55001,0.45167,0.94094
374.106,42.84369,-0.55978,0.45721,0.94045
374.806,42.9116,-0.5699,0.46458,0.93996
375.506,42.97979,-0.5769,0.46588,0.93946
376.206,43.0477,-0.58505,0.47235,0.93897
376.906,43.11587,-0.59249,0.47966,0.93848
377.606,43.18399,-0.60335,0.48459,0.93798
378.306,43.25217,-0.61161,0.49137,0.93749
379.006,43.32018,-0.6237,0.49884,0.93699
379.706,43.38832,-0.63534,0.50354,0.93649
380.406,43.45642,-0.64692,0.5133,0.93599
381.106,43.52448,-0.66078,0.51947,0.9355
381.806,43.59264,-0.67249,0.52648,0.935
382.506,43.6609,-0.68636,0.53237,0.9345
383.206,43.72922,-0.69959,0.54314,0.934
383.906,43.7975,-0.71125,0.54766,0.93349
384.606,43.86582,-0.72496,0.55592,0.93299
385.306,43.9341,-0.74015,0.56571,0.93249
386.006,44.0025,-0.75497,0.57499,0.93199
386.706,44.07082,-0.77197,0.58501,0.93148
387.406,44.13935,-0.78881,0.59261,0.93098
388.106,44.20779,-0.80603,0.60373,0.93047
388.806,44.2763,-0.82372,0.61402,0.92997
389.506,44.3448,-0.84298,0.62215,0.92946
390.206,44.41342,-0.86216,0.63141,0.92896
390.906,44.48186,-0.88161,0.64125,0.92845
391.606,44.5503,-0.90198,0.65014,0.92794
392.306,44.61874,-0.92308,0.6609,0.92743
393.006,44.68727,-0.94351,0.67075,0.92692
393.706,44.7558,-0.96548,0.68114,0.92641
394.406,44.82434,-0.98963,0.68966,0.9259
395.106,44.8929,-1.01294,0.70358,0.92539
395.806,44.96155,-1.0359,0.71178,0.92488
396.506,45.03,-1.05922,0.71996,0.92436
397.206,45.09848,-1.08408,0.72594,0.92385
397.906,45.1669,-1.10881,0.73476,0.92334
398.606,45.2355,-1.13327,0.74319,0.92282
399.306,45.30395,-1.15927,0.74856,0.92231
400.006,45.37236,-1.1825,0.75402,0.92179
400.706,45.44062,-1.20814,0.75879,0.92127
401.406,45.50909,-1.23647,0.76346,0.92076
402.106,45.57763,-1.264,0.7681,0.92024
402.806,45.64612,-1.2924,0.77042,0.91972
403.506,45.71468,-1.3197,0.77199,0.9192
404.206,45.78327,-1.34756,0.77442,0.91868
404.906,45.8517,-1.3745,0.77246,0.91816
405.606,45.91995,-1.4018,0.77109,0.91764
406.306,45.9882,-1.42889,0.76594,0.91712
407.006,46.05675,-1.45527,0.76092,0.9166
407.706,46.1252,-1.48366,0.75368,0.91608
408.406,46.1937,-1.51381,0.74712,0.91555
409.106,46.26171,-1.54228,0.73617,0.91503
409.806,46.3299,-1.56978,0.72195,0.91451
410.506,46.39823,-1.5984,0.7093,0.91398
411.206,46.46674,-1.62786,0.69449,0.91346
411.906,46.5351,-1.65215,0.67825,0.91293
412.606,46.60328,-1.67741,0.6627,0.9124
413.306,46.67176,-1.70283,0.64457,0.91188
414.006,46.7403,-1.7275,0.63224,0.91135
414.706,46.80881,-1.75157,0.61752,0.91082
415.406,46.87704,-1.77565,0.60516,0.91029
416.106,46.94533,-1.79843,0.58946,0.90976
416.806,47.01383,-1.82022,0.5786,0.90923
417.506,47.0822,-1.84422,0.5633,0.9087
418.206,47.1505,-1.86783,0.55287,0.90817
418.906,47.21873,-1.88634,0.54162,0.90764
419.606,47.28747,-1.9089,0.53432,0.9071
420.306,47.35567,-1.9309,0.52036,0.90657
421.006,47.424,-1.94877,0.51016,0.90604
421.706,47.49205,-1.96809,0.49991,0.9055
422.406,47.56046,-1.98594,0.48739,0.90497
423.106,47.62878,-2.00169,0.47673,0.90443
423.806,47.69704,-2.01778,0.46781,0.9039
424.506,47.76528,-2.03327,0.45923,0.90336
425.206,47.83344,-2.04978,0.45108,0.90282
425.906,47.9018,-2.06711,0.44089,0.90229
426.606,47.97032,-2.08234,0.43493,0.90175
427.306,48.03909,-2.09698,0.42602,0.90121
428.006,48.10759,-2.11278,0.42017,0.90067
428.706,48.17605,-2.12698,0.4134,0.90013
429.406,48.24431,-2.14117,0.4107,0.89959
430.106,48.31278,-2.15436,0.40299,0.89905
430.806,48.38123,-2.16618,0.39755,0.89851
431.506,48.44944,-2.17766,0.39385,0.89796
432.206,48.51783,-2.18865,0.38842,0.89742
432.906,48.58635,-2.19869,0.38237,0.89688
433.606,48.65522,-2.21,0.38046,0.89633
434.306,48.72379,-2.2245,0.3748,0.89579
435.006,48.79244,-2.2351,0.37305,0.89524
435.706,48.8611,-2.24145,0.36879,0.8947
436.406,48.92974,-2.25251,0.36332,0.89415
437.106,48.99824,-2.26417,0.3591,0.89361
437.806,49.0669,-2.27214,0.35579,0.89306
438.506,49.1357,-2.28093,0.34952,0.89251
439.206,49.20455,-2.28889,0.34367,0.89196
439.906,49.27322,-2.29384,0.33718,0.89142
440.606,49.34191,-2.30202,0.33262,0.89087
441.306,49.41067,-2.30803,0.32714,0.89032
442.006,49.47961,-2.31609,0.32196,0.88977
442.706,49.54847,-2.32374,0.32014,0.88922
443.406,49.6175,-2.33447,0.31426,0.88867
444.106,49.68629,-2.33923,0.31054,0.88811
444.806,49.7551,-2.34442,0.30799,0.88756
445.506,49.82363,-2.35116,0.30355,0.88701
446.206,49.8923,-2.35865,0.30558,0.88646
446.906,49.9611,-2.37028,0.30083,0.8859
447.606,50.03,-2.37543,0.29811,0.88535
448.306,50.0989,-2.3816,0.29666,0.88479
449.006,50.16768,-2.3871,0.29202,0.88424
449.706,50.23638,-2.39345,0.2905,0.88368
450.406,50.30516,-2.39994,0.2883,0.88312
451.106,50.37406,-2.40642,0.28763,0.88257
451.806,50.4431,-2.41315,0.2828,0.88201
452.506,50.51202,-2.41723,0.28033,0.88145
453.206,50.5811,-2.42346,0.27919,0.88089
453.906,50.64998,-2.43184,0.27601,0.88033
454.606,50.7185,-2.44023,0.27534,0.87978
455.306,50.78727,-2.44755,0.26737,0.87922
456.006,50.85613,-2.45267,0.26653,0.87865
456.706,50.9253,-2.45834,0.2635,0.87809
457.406,50.99432,-2.46368,0.25815,0.87753
458.106,51.0632,-2.46868,0.25572,0.87697
458.806,51.1323,-2.47287,0.25064,0.87641
459.506,51.20125,-2.47756,0.24479,0.87585
460.206,51.27019,-2.48273,0.2425,0.87528
460.906,51.339,-2.48626,0.23455,0.87472
461.606,51.4078,-2.49098,0.22697,0.87415
462.306,51.4767,-2.49578,0.22053,0.87359
463.006,51.54573,-2.50217,0.21459,0.87302
463.706,51.61472,-2.50627,0.20734,0.87246
464.406,51.68365,-2.50966,0.20242,0.87189
465.106,51.75238,-2.51356,0.19309,0.87132
465.806,51.82113,-2.51601,0.18741,0.87076
466.506,51.89,-2.52019,0.17896,0.87019
467.206,51.95901,-2.52301,0.1735,0.86962
467.906,52.02812,-2.52704,0.16223,0.86905
468.606,52.0972,-2.53181,0.15939,0.86848
469.306,52.16642,-2.53325,0.14973,0.86791
470.006,52.2356,-2.53451,0.14123,0.86734
470.706,52.305,-2.536,0.13516,0.86677
471.406,52.37426,-2.53774,0.12807,0.8662
472.106,52.4436,-2.54,0.12139,0.86563
472.806,52.5129,-2.54138,0.11617,0.86506
473.506,52.58198,-2.54256,0.1111,0.86449
474.206,52.65112,-2.54526,0.10611,0.86391
474.906,52.7203,-2.5466,0.10383,0.86334
475.606,52.78951,-2.5479,0.0987363,0.86277
476.306,52.8587,-2.54922,0.0959687,0.86219
477.006,52.9277,-2.55053,0.09381651,0.86162
477.706,52.99686,-2.55056,0.08882735,0.86104
478.406,53.066,-2.55053,0.08589427,0.86047
479.106,53.13491,-2.54924,0.08314472,0.85989
479.806,53.20405,-2.55062,0.08079017,0.85932
480.506,53.2732,-2.55315,0.08056405,0.85874
481.206,53.34256,-2.55411,0.07769709,0.85816
481.906,53.41151,-2.55449,0.07490378,0.85758
482.606,53.4807,-2.55551,0.07470073,0.85701
483.306,53.5497,-2.55582,0.07436514,0.85643
484.006,53.619,-2.55712,0.07273189,0.85585
484.706,53.68821,-2.55843,0.07174034,0.85527
485.406,53.7574,-2.55875,0.07002727,0.85469
486.106,53.82668,-2.56008,0.07001475,0.85411
486.806,53.8958,-2.56139,0.06580713,0.85353
487.506,53.96485,-2.56233,0.06801483,0.85295
488.206,54.03379,-2.56353,0.06890555,0.85236
488.906,54.1029,-2.5653,0.06645347,0.85178
489.606,54.1722,-2.56599,0.06660271,0.8512
490.306,54.2415,-2.56699,0.06656088,0.85062
491.006,54.3108,-2.56699,0.06861907,0.85003
491.706,54.37984,-2.56601,0.06601053,0.84945
492.406,54.44915,-2.56732,0.06707405,0.84887
493.106,54.5181,-2.56731,0.06352513,0.84828
493.806,54.58741,-2.56862,0.0621021,0.8477
494.506,54.65648,-2.57127,0.06103781,0.84711
495.206,54.72582,-2.57259,0.06297741,0.84653
495.906,54.79484,-2.57388,0.059455,0.84594
496.606,54.86416,-2.57495,0.06040899,0.84535
497.306,54.9335,-2.57408,0.05961945,0.84477
498.006,55.0027,-2.57442,0.05872718,0.84418
498.706,55.0718,-2.57379,0.05964887,0.84359
499.406,55.14095,-2.5749,0.05635841,0.843
500.106,55.2105,-2.57642,0.0563844,0.84241
500.806,55.28,-2.57775,0.05629011,0.84182
501.506,55.34955,-2.5784,0.05421124,0.84124
502.206,55.41879,-2.57838,0.05409244,0.84065
502.906,55.48811,-2.57873,0.05357907,0.84006
503.606,55.55738,-2.58003,0.05399167,0.83946
504.306,55.62692,-2.58136,0.05380041,0.83887
505.006,55.69614,-2.58202,0.05220155,0.83828
505.706,55.7655,-2.58205,0.05214851,0.83769
506.406,55.8351,-2.58333,0.05179476,0.8371
507.106,55.9045,-2.58332,0.04867361,0.83651
507.806,55.974,-2.58489,0.04764664,0.83591
508.506,56.04329,-2.5865,0.05087464,0.83532
509.206,56.11274,-2.58898,0.04705084,0.83473
509.906,56.1824,-2.59056,0.04979203,0.83413
510.606,56.25212,-2.59188,0.04922841,0.83354
511.306,56.32198,-2.59189,0.04921778,0.83294
512.006,56.39154,-2.59197,0.04855346,0.83235
512.706,56.46108,-2.59058,0.04670907,0.83175
513.406,56.5307,-2.59485,0.04838635,0.83116
514.106,56.6003,-2.59474,0.04619413,0.83056
514.806,56.6699,-2.59547,0.04534082,0.82996
515.506,56.7396,-2.59606,0.04813982,0.82937
516.206,56.80916,-2.59606,0.04603023,0.82877
516.906,56.8788,-2.59737,0.04742786,0.82817
517.606,56.9484,-2.59605,0.04746171,0.82757
518.306,57.01803,-2.59605,0.04532242,0.82697
519.006,57.08769,-2.5974,0.04481213,0.82638
519.706,57.15736,-2.59757,0.04692363,0.82578
520.406,57.2271,-2.59868,0.04693307,0.82518
521.106,57.29665,-2.59936,0.04165897,0.82458
521.806,57.366,-2.59864,0.04686614,0.82398
522.506,57.43558,-2.60281,0.04803846,0.82338
523.206,57.50525,-2.60508,0.04731661,0.82278
523.906,57.57493,-2.60538,0.04505336,0.82217
524.606,57.6442,-2.60419,0.04380988,0.82157
525.306,57.7134,-2.6066,0.04437082,0.82097
526.006,57.7828,-2.60805,0.04523522,0.82037
526.706,57.85241,-2.60933,0.04124447,0.81977
527.406,57.9221,-2.60802,0.0404372,0.81916
528.106,57.99116,-2.60801,0.04362772,0.81856
528.806,58.06083,-2.608,0.03824752,0.81796
529.506,58.1305,-2.60947,0.04222564,0.81735
530.206,58.2007,-2.61109,0.04258901,0.81675
530.906,58.27032,-2.61228,0.04304935,0.81614
531.606,58.3399,-2.61295,0.04028872,0.81554
532.306,58.40951,-2.61361,0.03746911,0.81493
533.006,58.4792,-2.6136,0.0375251,0.81433
533.706,58.54899,-2.61524,0.04196219,0.81372
534.406,58.61874,-2.61624,0.03469663,0.81311
535.106,58.6885,-2.6169,0.0340979,0.81251
535.806,58.75832,-2.61821,0.0354181,0.8119
536.506,58.82806,-2.61952,0.03472123,0.81129
537.206,58.89805,-2.62085,0.03476243,0.81069
537.906,58.9678,-2.62019,0.03236998,0.81008
538.606,59.0379,-2.62082,0.03299957,0.80947
539.306,59.10764,-2.62216,0.03235468,0.80886
540.006,59.1776,-2.62484,0.03326559,0.80825
540.706,59.24737,-2.62491,0.03335841,0.80764
541.406,59.31736,-2.62572,0.0290717,0.80703
542.106,59.38734,-2.62758,0.03234517,0.80642
542.806,59.45725,-2.62885,0.03058887,0.80581
543.506,59.5272,-2.63017,0.03255404,0.8052
544.206,59.59705,-2.63152,0.03109696,0.80459
544.906,59.66695,-2.6328,0.03221595,0.80398
545.606,59.7366,-2.63511,0.02816357,0.80337
546.306,59.8064,-2.63639,0.02685172,0.80276
547.006,59.87615,-2.6374,0.02789951,0.80215
547.706,59.9458,-2.63872,0.0286432,0.80153
548.406,60.01563,-2.64044,0.02990351,0.80092
549.106,60.0854,-2.64231,0.02753567,0.80031
549.806,60.1554,-2.64373,0.03293707,0.7997
550.506,60.22509,-2.64691,0.02789841,0.79908
551.206,60.2948,-2.64685,0.03007742,0.79847
551.906,60.3647,-2.64651,0.03273727,0.79786
552.606,60.4346,-2.64818,0.02873258,0.79724
553.306,60.50461,-2.64947,0.02932032,0.79663
554.006,60.5743,-2.65079,0.02979072,0.79601
554.706,60.64388,-2.65211,0.02801845,0.7954
555.406,60.7135,-2.65339,0.03115416,0.79478
556.106,60.78314,-2.65474,0.02812555,0.79417
556.806,60.8528,-2.65605,0.03076068,0.79355
557.506,60.9224,-2.65737,0.03289275,0.79293
558.206,60.9923,-2.65871,0.03240054,0.79232
558.906,61.06219,-2.66001,0.0310581,0.7917
559.606,61.13202,-2.6613,0.03137016,0.79108
560.306,61.2017,-2.66143,0.03186758,0.79047
561.006,61.2716,-2.66415,0.03093378,0.78985
561.706,61.3413,-2.66565,0.02873346,0.78923
562.406,61.41101,-2.66703,0.0325935,0.78861
563.106,61.48061,-2.6683,0.03375985,0.78799
563.806,61.5503,-2.66703,0.03389318,0.78738
564.506,61.6198,-2.67002,0.03457145,0.78676
565.206,61.68954,-2.67264,0.03528344,0.78614
565.906,61.75931,-2.67395,0.03378052,0.78552
566.606,61.82925,-2.67679,0.03867995,0.7849
567.306,61.8991,-2.6781,0.03993225,0.78428
568.006,61.9687,-2.68073,0.04114999,0.78366
568.706,62.03866,-2.68205,0.04033428,0.78304
569.406,62.10853,-2.6827,0.04204387,0.78242
570.106,62.17875,-2.68532,0.04349476,0.7818
570.806,62.24866,-2.68599,0.04077982,0.78118
571.506,62.3185,-2.6874,0.04333378,0.78055
572.206,62.38848,-2.69001,0.04530491,0.77993
572.906,62.45821,-2.69133,0.04713314,0.77931
573.606,62.52808,-2.69269,0.04964672,0.77869
574.306,62.59779,-2.69391,0.05146042,0.77807
575.006,62.6678,-2.69668,0.05530757,0.77744
575.706,62.73755,-2.69988,0.05770181,0.77682
576.406,62.8074,-2.70173,0.05926692,0.7762
577.106,62.8772,-2.70439,0.06145358,0.77558
577.806,62.9472,-2.70588,0.0622318,0.77495
578.506,63.01712,-2.70585,0.06720176,0.77433
579.206,63.087,-2.70707,0.07315847,0.7737
579.906,63.15695,-2.71081,0.07506634,0.77308
580.606,63.2269,-2.71278,0.07797163,0.77246
581.306,63.29671,-2.71503,0.08560033,0.77183
582.006,63.3667,-2.71655,0.08919218,0.77121
582.706,63.4367,-2.71934,0.0970612,0.77058
583.406,63.507,-2.72292,0.10283,0.76996
584.106,63.5772,-2.72477,0.11594,0.76933
584.806,63.6475,-2.72816,0.12067,0.7687
585.506,63.7176,-2.73168,0.1274,0.76808
586.206,63.7876,-2.73446,0.13551,0.76745
586.906,63.85804,-2.73617,0.14145,0.76683
587.606,63.92825,-2.73955,0.14081,0.7662
588.306,63.99847,-2.74388,0.14404,0.76557
589.006,64.06837,-2.74925,0.14521,0.76495
589.706,64.1385,-2.75247,0.14155,0.76432
590.406,64.20869,-2.75739,0.13865,0.76369
591.106,64.27896,-2.76047,0.13852,0.76306
591.806,64.34921,-2.7642,0.13691,0.76244
592.506,64.41939,-2.76805,0.134,0.76181
593.206,64.48965,-2.77227,0.12957,0.76118
593.906,64.55976,-2.77805,0.12745,0.76055
594.606,64.62994,-2.78333,0.12785,0.75992
595.306,64.7,-2.78642,0.12803,0.75929
596.006,64.77,-2.79114,0.12522,0.75866
596.706,64.84025,-2.79397,0.12225,0.75803
597.406,64.91033,-2.79954,0.12309,0.75741
598.106,64.98045,-2.80575,0.12085,0.75678
598.806,65.0505,-2.81039,0.11524,0.75615
599.506,65.1207,-2.81462,0.11505,0.75552
600.206,65.19081,-2.81948,0.10808,0.75489
600.906,65.2608,-2.8228,0.10401,0.75426
601.606,65.33058,-2.82596,0.09619227,0.75362
602.306,65.40058,-2.83118,0.09250464,0.75299
603.006,65.47059,-2.83552,0.09011742,0.75236
603.706,65.54097,-2.84163,0.08417616,0.75173
604.406,65.61117,-2.84583,0.07510156,0.7511
605.106,65.68155,-2.8504,0.07201077,0.75047
605.806,65.75171,-2.85315,0.06515641,0.74984
606.506,65.82206,-2.85577,0.06082085,0.74921
607.206,65.8918,-2.85923,0.05398824,0.74857
607.906,65.9619,-2.86215,0.04795931,0.74794
608.606,66.03196,-2.86481,0.04437775,0.74731
609.306,66.10262,-2.86747,0.03778516,0.74668
610.006,66.1729,-2.86838,0.03075724,0.74605
610.706,66.24333,-2.8681,0.02657949,0.74541
611.406,66.31356,-2.86938,0.01943807,0.74478
612.106,66.38379,-2.87077,0.01653837,0.74415
612.806,66.4537,-2.87203,0.01586666,0.74351
613.506,66.52382,-2.87074,0.01711575,0.74288
614.206,66.59349,-2.87193,0.02102291,0.74225
614.906,66.66371,-2.87465,0.02187688,0.74161
615.606,66.73384,-2.87468,0.02597033,0.74098
616.306,66.80422,-2.87597,0.02442211,0.74034
617.006,66.8742,-2.87703,0.02742283,0.73971
617.706,66.94435,-2.87731,0.02890067,0.73908
618.406,67.01461,-2.87805,0.02899093,0.73844
619.106,67.08505,-2.87706,0.02972079,0.73781
619.806,67.15531,-2.87718,0.03299667,0.73717
620.506,67.22553,-2.87717,0.03568078,0.73654
621.206,67.29584,-2.8786,0.03807329,0.7359
621.906,67.36613,-2.88122,0.04517555,0.73527
622.606,67.43639,-2.88327,0.0419321,0.73463
623.306,67.50629,-2.88517,0.05458259,0.734
624.006,67.57634,-2.88642,0.05297491,0.73336
624.706,67.64646,-2.88779,0.0579439,0.73272
625.406,67.71679,-2.8865,0.06224987,0.73209
626.106,67.787,-2.88646,0.06738901,0.73145
626.806,67.8574,-2.88782,0.07088132,0.73082
627.506,67.92753,-2.88782,0.07042779,0.73018
628.206,67.99781,-2.88782,0.07728538,0.72954
628.906,68.068,-2.88782,0.07587087,0.72891
629.606,68.13857,-2.89008,0.08092768,0.72827
630.306,68.20913,-2.89012,0.08033278,0.72763
631.006,68.2797,-2.89144,0.0861366,0.727
631.706,68.35014,-2.89403,0.08498929,0.72636
632.406,68.42035,-2.89276,0.08899769,0.72572
633.106,68.4905,-2.89407,0.09033363,0.72509
633.806,68.5608,-2.89401,0.09322722,0.72445
634.506,68.63114,-2.89276,0.09907654,0.72381
635.206,68.70136,-2.89463,0.10187,0.72317
635.906,68.77159,-2.89539,0.10481,0.72254
636.606,68.84188,-2.89626,0.10299,0.7219
637.306,68.91251,-2.89799,0.10727,0.72126
638.006,68.98307,-2.89791,0.11143,0.72062
638.706,69.05354,-2.89933,0.11688,0.71998
639.406,69.12391,-2.90057,0.12088,0.71935
640.106,69.19428,-2.90323,0.12199,0.71871
640.806,69.26474,-2.90329,0.12766,0.71807
641.506,69.33503,-2.90338,0.13141,0.71743
642.206,69.40521,-2.90592,0.13638,0.71679
642.906,69.47551,-2.90592,0.13769,0.71615
643.606,69.54585,-2.90727,0.13972,0.71551
644.306,69.6159,-2.90719,0.14429,0.71488
645.006,69.68615,-2.90847,0.14562,0.71424
645.706,69.7566,-2.90723,0.1482,0.7136
646.406,69.82725,-2.90905,0.15506,0.71296
647.106,69.89764,-2.91119,0.15988,0.71232
647.806,69.96794,-2.91373,0.16539,0.71168
648.506,70.03817,-2.91572,0.16845,0.71104
649.206,70.10862,-2.91645,0.17859,0.7104
649.906,70.17916,-2.91744,0.17996,0.70976
650.606,70.2498,-2.91902,0.18353,0.70912
651.306,70.32025,-2.91829,0.18851,0.70848
652.006,70.39055,-2.91832,0.18979,0.70784
652.706,70.46098,-2.9197,0.19153,0.7072
653.406,70.53142,-2.91964,0.19764,0.70656
654.106,70.60197,-2.92095,0.20416,0.70592
654.806,70.6725,-2.92373,0.20835,0.70528
655.506,70.7431,-2.92493,0.21145,0.70464
656.206,70.81366,-2.92744,0.2179,0.704
656.906,70.884,-2.92886,0.22142,0.70336
657.606,70.9546,-2.93106,0.22571,0.70272
658.306,71.0253,-2.93413,0.23048,0.70208
659.006,71.09603,-2.93542,0.24003,0.70144
659.706,71.16659,-2.93596,0.24036,0.7008
660.406,71.237,-2.93674,0.24363,0.70016
661.106,71.30767,-2.93671,0.24827,0.69951
661.806,71.3784,-2.93937,0.25649,0.69887
662.506,71.44915,-2.94069,0.26121,0.69823
663.206,71.51969,-2.94274,0.26387,0.69759
663.906,71.59028,-2.94376,0.27086,0.69695
664.606,71.66029,-2.94507,0.27502,0.69631
665.306,71.73079,-2.94607,0.28209,0.69567
666.006,71.8011,-2.94603,0.2858,0.69503
666.706,71.872,-2.94883,0.29201,0.69439
667.406,71.94256,-2.95014,0.29973,0.69374
668.106,72.0132,-2.95141,0.3077,0.6931
668.806,72.08374,-2.95276,0.31082,0.69246
669.506,72.15429,-2.95413,0.31957,0.69182
670.206,72.22498,-2.9556,0.32411,0.69118
670.906,72.29553,-2.9584,0.33147,0.69054
671.606,72.36591,-2.96032,0.3401,0.68989
672.306,72.43637,-2.96233,0.34666,0.68925
673.006,72.50684,-2.9636,0.35531,0.68861
673.706,72.5778,-2.96488,0.36057,0.68797
674.406,72.64855,-2.96625,0.37002,0.68733
675.106,72.71942,-2.96889,0.37727,0.68669
675.806,72.7899,-2.97125,0.38276,0.68604
676.506,72.86038,-2.97425,0.38859,0.6854
677.206,72.93072,-2.97669,0.39426,0.68476
677.906,73.00106,-2.97833,0.39517,0.68412
678.606,73.07169,-2.97996,0.3967,0.68348
679.306,73.1424,-2.98151,0.40187,0.68283
680.006,73.2134,-2.98457,0.4027,0.68219
680.706,73.28398,-2.98602,0.40198,0.68155
681.406,73.3545,-2.98709,0.39746,0.68091
682.106,73.42496,-2.98842,0.39752,0.68026
682.806,73.4955,-2.98843,0.38926,0.67962
683.506,73.56604,-2.99121,0.3841,0.67898
684.206,73.6365,-2.99315,0.37498,0.67834
684.906,73.70703,-2.996,0.3627,0.6777
685.606,73.77765,-2.99782,0.3491,0.67705
686.306,73.84815,-2.99993,0.33434,0.67641
687.006,73.91879,-3.00154,0.3172,0.67577
687.706,73.9893,-3.00355,0.30155,0.67513
688.406,74.06011,-3.00493,0.27703,0.67448
689.106,74.13078,-3.00519,0.25826,0.67384
689.806,74.20161,-3.00646,0.23002,0.6732
690.506,74.27229,-3.00926,0.19783,0.67256
691.206,74.34304,-3.00924,0.16307,0.67191
691.906,74.41355,-3.01055,0.10684,0.67127
692.606,74.48415,-3.01058,0.05950669,0.67063
693.306,74.5547,-3.01191,0.02781163,0.66999
694.006,74.6254,-3.01319,0.00539353,0.66934
694.706,74.6961,-3.01454,-0.007910391,0.6687
695.406,74.76682,-3.01337,-0.01511132,0.66806
696.106,74.83763,-3.01319,-0.02622323,0.66742
696.806,74.90834,-3.0141,-0.02792444,0.66678
697.506,74.979,-3.0145,-0.03131207,0.66613
698.206,75.04941,-3.01582,-0.03740934,0.66549
698.906,75.12006,-3.01543,-0.03882031,0.66485
699.606,75.19066,-3.01484,-0.04439245,0.66421
700.306,75.26154,-3.01484,-0.04438327,0.66356
701.006,75.33224,-3.01484,-0.04652744,0.66292
701.706,75.4029,-3.01484,-0.04679516,0.66228
702.406,75.4734,-3.01583,-0.05001841,0.66164
703.106,75.54401,-3.01609,-0.04684349,0.66099
703.806,75.61461,-3.01484,-0.04666519,0.66035
704.506,75.68523,-3.01615,-0.04823208,0.65971
705.206,75.75572,-3.01615,-0.04970829,0.65907
705.906,75.82602,-3.01608,-0.0479971,0.65842
706.606,75.89667,-3.01824,-0.04556606,0.65778
707.306,75.96728,-3.02185,-0.04797257,0.65714
708.006,76.038,-3.01999,-0.04886577,0.6565
708.706,76.1084,-3.01684,-0.05154255,0.65586
709.406,76.17879,-3.0165,-0.05474173,0.65521
710.106,76.24922,-3.01517,-0.05682418,0.65457
710.806,76.31992,-3.01557,-0.05195331,0.65393
711.506,76.39076,-3.01649,-0.05879147,0.65329
712.206,76.46154,-3.01649,-0.06000115,0.65264
712.906,76.53194,-3.01649,-0.05966503,0.652
713.606,76.6024,-3.01652,-0.05924708,0.65136
714.306,76.67282,-3.01811,-0.05886257,0.65072
715.006,76.74344,-3.02041,-0.06167298,0.65008
715.706,76.81406,-3.02175,-0.06036586,0.64943
716.406,76.8848,-3.02175,-0.05787123,0.64879
717.106,76.9554,-3.02082,-0.06009435,0.64815
717.806,77.0261,-3.02041,-0.0630667,0.64751
718.506,77.09663,-3.01969,-0.06301428,0.64687
719.206,77.1673,-3.01775,-0.05979958,0.64623
719.906,77.23781,-3.01772,-0.0629641,0.64558
720.606,77.30849,-3.0201,-0.06274205,0.64494
721.306,77.3789,-3.02043,-0.06162578,0.6443
722.006,77.44949,-3.02042,-0.06488582,0.64366
722.706,77.52023,-3.0178,-0.06610617,0.64302
723.406,77.59115,-3.01912,-0.06887263,0.64238
724.106,77.66195,-3.01912,-0.06812935,0.64174
724.806,77.73254,-3.02043,-0.06500243,0.64109
725.506,77.80301,-3.02141,-0.06924401,0.64045
726.206,77.87351,-3.02141,-0.06892003,0.63981
726.906,77.94403,-3.0201,-0.06844289,0.63917
727.606,78.01469,-3.0201,-0.06932823,0.63853
728.306,78.08535,-3.02071,-0.07101511,0.63789
729.006,78.1562,-3.02208,-0.06917974,0.63725
729.706,78.227,-3.02256,-0.0722077,0.63661
730.406,78.2977,-3.02281,-0.07151969,0.63597
731.106,78.36828,-3.02142,-0.07325424,0.63532
731.806,78.4388,-3.02075,-0.07201205,0.63468
732.506,78.50962,-3.02141,-0.07239181,0.63404
733.206,78.5805,-3.02141,-0.07357545,0.6334
733.906,78.65162,-3.02278,-0.07502166,0.63276
734.606,78.7226,-3.02273,-0.07409547,0.63212
735.306,78.79361,-3.02274,-0.07521105,0.63148
736.006,78.86449,-3.02339,-0.07867611,0.63084
736.706,78.93567,-3.02407,-0.07558502,0.6302
737.406,79.0067,-3.02405,-0.07721443,0.62956
738.106,79.0779,-3.02404,-0.0754263,0.62892
738.806,79.14894,-3.02405,-0.07439676,0.62828
739.506,79.2199,-3.02498,-0.07696317,0.62764
740.206,79.29088,-3.02269,-0.07776849,0.627
740.906,79.36184,-3.02274,-0.07737316,0.62636
741.606,79.43289,-3.02405,-0.07920505,0.62572
742.306,79.50397,-3.02405,-0.0800296,0.62508
743.006,79.575,-3.02405,-0.08429918,0.62444
743.706,79.64605,-3.02273,-0.08697519,0.6238
744.406,79.71712,-3.02273,-0.08073986,0.62316
745.106,79.7883,-3.02273,-0.08334167,0.62252
745.806,79.85965,-3.02273,-0.08297004,0.62188
746.506,79.93074,-3.0228,-0.0803676,0.62124
747.206,80.00171,-3.02499,-0.08321071,0.6206
747.906,80.07253,-3.02515,-0.08152405,0.61997
748.606,80.1433,-3.02507,-0.08279767,0.61933
749.306,80.214,-3.02372,-0.08354146,0.61869
750.006,80.28471,-3.02372,-0.08596474,0.61805
750.706,80.35554,-3.02372,-0.08646074,0.61741
751.406,80.42634,-3.02372,-0.0839813,0.61677
752.106,80.49705,-3.02502,-0.08284614,0.61613
752.806,80.5676,-3.02503,-0.08327754,0.6155
753.506,80.63847,-3.02373,-0.08704666,0.61486
754.206,80.70936,-3.02471,-0.08747745,0.61422
754.906,80.78021,-3.02471,-0.09141021,0.61358
755.606,80.8506,-3.02471,-0.08659678,0.61294
756.306,80.92143,-3.02513,-0.08822992,0.6123
757.006,80.99245,-3.02636,-0.08664271,0.61167
757.706,81.06361,-3.02762,-0.08524887,0.61103
758.406,81.1344,-3.02931,-0.08797524,0.61039
759.106,81.20515,-3.02898,-0.08772645,0.60975
759.806,81.276,-3.028,-0.08993358,0.60912
760.506,81.34691,-3.02753,-0.08870015,0.60848
761.206,81.41795,-3.02537,-0.09001823,0.60784
761.906,81.48878,-3.02537,-0.09153556,0.60721
762.606,81.5598,-3.02537,-0.09672012,0.60657
763.306,81.63071,-3.02668,-0.09333698,0.60593
764.006,81.70192,-3.02802,-0.09378491,0.6053
764.706,81.7727,-3.028,-0.09517723,0.60466
765.406,81.84354,-3.02807,-0.09557014,0.60402
766.106,81.91425,-3.02527,-0.09143366,0.60339
766.806,81.98507,-3.02542,-0.09634134,0.60275
767.506,82.05596,-3.02406,-0.09336418,0.60211
768.206,82.12695,-3.02537,-0.09667033,0.60148
768.906,82.19802,-3.02405,-0.0967969,0.60084
769.606,82.26904,-3.02405,-0.09551082,0.60021
770.306,82.33989,-3.02405,-0.09410329,0.59957
771.006,82.41088,-3.02406,-0.0942029,0.59894
771.706,82.482,-3.02531,-0.08995278,0.5983
772.406,82.55306,-3.02668,-0.0928354,0.59767
773.106,82.6238,-3.02677,-0.09345358,0.59703
773.806,82.69461,-3.02528,-0.09352088,0.5964
774.506,82.76531,-3.02405,-0.09219885,0.59576
775.206,82.83627,-3.02535,-0.08977788,0.59513
775.906,82.90714,-3.02668,-0.08914565,0.59449
776.606,82.9782,-3.02513,-0.09091844,0.59386
777.306,83.04906,-3.02449,-0.0905224,0.59322
778.006,83.1198,-3.02449,-0.09116731,0.59259
778.706,83.1906,-3.02514,-0.09325203,0.59195
779.406,83.26155,-3.02673,-0.09312828,0.59132
780.106,83.33253,-3.02815,-0.09111085,0.59069
780.806,83.40347,-3.02811,-0.09332231,0.59005
781.506,83.4743,-3.02812,-0.09490074,0.58942
782.206,83.54494,-3.02942,-0.09167974,0.58879
782.906,83.61572,-3.02942,-0.095163,0.58815
783.606,83.68652,-3.02926,-0.09466272,0.58752
784.306,83.75763,-3.02811,-0.09140334,0.58689
785.006,83.82842,-3.02811,-0.09631854,0.58625
785.706,83.89915,-3.02811,-0.09398142,0.58562
786.406,83.9699,-3.02811,-0.09724202,0.58499
787.106,84.0405,-3.02811,-0.09700824,0.58436
787.806,84.1114,-3.02811,-0.09741705,0.58373
788.506,84.18209,-3.02947,-0.0964755,0.58309
789.206,84.2531,-3.0292,-0.09892091,0.58246
789.906,84.324,-3.02679,-0.09569806,0.58183
790.606,84.39487,-3.02752,-0.09977896,0.5812
791.306,84.46585,-3.02811,-0.09582075,0.58057
792.006,84.53679,-3.02943,-0.09768343,0.57994
792.706,84.6078,-3.02942,-0.09754219,0.57931
793.406,84.6789,-3.02844,-0.09378972,0.57867
794.106,84.7499,-3.02844,-0.09616284,0.57804
794.806,84.82086,-3.02844,-0.09677888,0.57741
795.506,84.89121,-3.02975,-0.09998784,0.57678
796.206,84.96141,-3.02975,-0.09531772,0.57615
796.506,84.993,-3.02975,-0.09457481,0.57588