File: 01_Data/Triexta_Carpet_High_Pile/STA/N2/10K_min/Triexta_Carpet_High_Pile_STA_N2_10KData_220110_R3.csv
##Temp./Â°C,Time/min,Mass loss(subtr.2)/mg,DSC(subtr.2)/(mW/mg),Sensit./(uV/mW)
49.433,10.01,-0.00614,-0.00597761,1.07446
50.133,10.76424,-0.004515782,0.02353692,1.07441
50.833,10.96593,-0.004796447,0.04697325,1.07436
51.533,11.11927,-0.005360689,0.06381842,1.07431
52.233,11.24714,-0.004643577,0.08203466,1.07426
52.933,11.36237,-0.003892585,0.09578457,1.07421
53.633,11.46893,-0.004394293,0.10658,1.07415
54.333,11.56829,-0.00522283,0.11637,1.0741
55.033,11.66276,-0.006338432,0.12502,1.07404
55.733,11.7537,-0.007015357,0.13422,1.07398
56.433,11.84184,-0.006062366,0.13999,1.07392
57.133,11.92728,-0.007318992,0.14652,1.07386
57.833,12.01083,-0.00632346,0.14824,1.0738
58.533,12.09345,-0.00660444,0.15502,1.07374
59.233,12.1746,-0.005899146,0.15653,1.07368
59.933,12.2548,-0.007175988,0.15849,1.07361
60.633,12.334,-0.0059086,0.16269,1.07355
61.333,12.41307,-0.00586728,0.16323,1.07348
62.033,12.49152,-0.005919336,0.16687,1.07341
62.733,12.56891,-0.006046767,0.16459,1.07334
63.433,12.64579,-0.006023955,0.16901,1.07327
64.133,12.72298,-0.006018258,0.16754,1.0732
64.833,12.7996,-0.007351606,0.17034,1.07313
65.533,12.87583,-0.00734836,0.17062,1.07306
66.233,12.951,-0.00601673,0.17142,1.07298
66.933,13.0262,-0.005945335,0.17242,1.0729
67.633,13.1015,-0.00602679,0.17076,1.07283
68.333,13.17746,-0.007347276,0.17155,1.07275
69.033,13.2526,-0.00602609,0.17254,1.07267
69.733,13.32755,-0.00596111,0.17295,1.07259
70.433,13.40196,-0.00661774,0.17427,1.07251
71.133,13.47623,-0.00745362,0.17645,1.07242
71.833,13.55025,-0.007447115,0.17592,1.07234
72.533,13.6244,-0.006140731,0.17781,1.07225
73.233,13.6983,-0.007097501,0.18044,1.07217
73.933,13.77225,-0.00745225,0.18069,1.07208
74.633,13.8456,-0.008759856,0.18436,1.07199
75.333,13.9188,-0.009142595,0.18386,1.0719
76.033,13.99145,-0.008770013,0.186,1.07181
76.733,14.0647,-0.00981022,0.18614,1.07172
77.433,14.1378,-0.009077589,0.18868,1.07163
78.133,14.2114,-0.010079,0.18916,1.07153
78.833,14.28403,-0.01140417,0.19087,1.07144
79.533,14.3567,-0.01008535,0.19169,1.07134
80.233,14.42884,-0.01009002,0.19356,1.07124
80.933,14.50116,-0.00878374,0.19654,1.07114
81.633,14.57329,-0.01004912,0.19491,1.07104
82.333,14.6452,-0.01033333,0.1972,1.07094
83.033,14.71657,-0.00944945,0.19763,1.07084
83.733,14.7881,-0.008686403,0.19683,1.07074
84.433,14.85943,-0.008438499,0.19838,1.07063
85.133,14.93077,-0.01011898,0.20045,1.07053
85.833,15.00155,-0.01007999,0.20046,1.07042
86.533,15.0723,-0.01006344,0.20225,1.07031
87.233,15.1429,-0.0087782,0.20402,1.0702
87.933,15.21335,-0.01008903,0.20661,1.07009
88.633,15.2837,-0.01007996,0.20585,1.06998
89.333,15.35389,-0.01008,0.20561,1.06987
90.033,15.424,-0.0101006,0.20724,1.06976
90.733,15.494,-0.01140027,0.20704,1.06964
91.433,15.56415,-0.01007281,0.20898,1.06953
92.133,15.6341,-0.01010109,0.20822,1.06941
92.833,15.70405,-0.01139983,0.20862,1.06929
93.533,15.77372,-0.01171622,0.21071,1.06917
94.233,15.84349,-0.01270918,0.20782,1.06905
94.933,15.9131,-0.0116421,0.21042,1.06893
95.633,15.9827,-0.01138982,0.21106,1.06881
96.333,16.05206,-0.01074046,0.21172,1.06869
97.033,16.12132,-0.01206227,0.21463,1.06856
97.733,16.19032,-0.01337983,0.21277,1.06843
98.433,16.25921,-0.01338284,0.21588,1.06831
99.133,16.3282,-0.01205988,0.21631,1.06818
99.833,16.3973,-0.01326103,0.21726,1.06805
100.533,16.46643,-0.01335473,0.21969,1.06792
101.233,16.5355,-0.01408232,0.2193,1.06779
101.933,16.60435,-0.01271998,0.22121,1.06766
102.633,16.6734,-0.01133026,0.22252,1.06752
103.333,16.74222,-0.00998776,0.22315,1.06739
104.033,16.81109,-0.01166751,0.224,1.06725
104.733,16.8793,-0.01453163,0.2238,1.06712
105.433,16.94816,-0.01589644,0.22664,1.06698
106.133,17.017,-0.0172156,0.22539,1.06684
106.833,17.08642,-0.01589632,0.22634,1.0667
107.533,17.15481,-0.01457965,0.22743,1.06656
108.233,17.22335,-0.01567528,0.22876,1.06641
108.933,17.29203,-0.01556964,0.22807,1.06627
109.633,17.36099,-0.01556918,0.23135,1.06613
110.333,17.42971,-0.01457931,0.23137,1.06598
111.033,17.4981,-0.01458885,0.23392,1.06583
111.733,17.56653,-0.01320142,0.23243,1.06568
112.433,17.63482,-0.01196565,0.23444,1.06554
113.133,17.70309,-0.01194146,0.23461,1.06538
113.833,17.7716,-0.01195,0.23344,1.06523
114.533,17.84015,-0.01194867,0.23372,1.06508
115.233,17.90877,-0.01320363,0.23621,1.06493
115.933,17.97718,-0.01458002,0.23674,1.06477
116.633,18.04586,-0.01458,0.23677,1.06462
117.333,18.11443,-0.01458,0.23814,1.06446
118.033,18.18284,-0.01458,0.24044,1.0643
118.733,18.25119,-0.01458041,0.24102,1.06414
119.433,18.3196,-0.01590047,0.24417,1.06398
120.133,18.38826,-0.0159,0.24448,1.06382
120.833,18.45662,-0.01589964,0.24541,1.06366
121.533,18.52492,-0.01846934,0.24722,1.0635
122.233,18.59292,-0.01852971,0.24773,1.06333
122.933,18.66113,-0.01985368,0.24816,1.06316
123.633,18.72942,-0.02115037,0.25053,1.063
124.333,18.79779,-0.02124954,0.24987,1.06283
125.033,18.86625,-0.01833195,0.25207,1.06266
125.733,18.93451,-0.0183942,0.2543,1.06249
126.433,19.0027,-0.01699999,0.25259,1.06232
127.133,19.07048,-0.01697,0.25577,1.06215
127.833,19.1384,-0.0156799,0.25453,1.06197
128.533,19.20619,-0.01832986,0.25318,1.0618
129.233,19.27429,-0.01831,0.25557,1.06162
129.933,19.3426,-0.01831,0.25686,1.06145
130.633,19.41103,-0.01829877,0.25869,1.06127
131.333,19.4789,-0.01962805,0.26086,1.06109
132.033,19.5466,-0.01950972,0.26086,1.06091
132.733,19.61436,-0.0182881,0.26,1.06073
133.433,19.68246,-0.01896763,0.26151,1.06055
134.133,19.7503,-0.01962974,0.26024,1.06036
134.833,19.8182,-0.01963188,0.26195,1.06018
135.533,19.88541,-0.01929695,0.26488,1.05999
136.233,19.95298,-0.02062359,0.26415,1.05981
136.933,20.0202,-0.02062,0.26855,1.05962
137.633,20.08844,-0.02061703,0.26748,1.05943
138.333,20.15639,-0.0216172,0.27094,1.05924
139.033,20.22426,-0.0225876,0.26989,1.05905
139.733,20.2919,-0.02291944,0.27327,1.05886
140.433,20.3594,-0.022311,0.2722,1.05867
141.133,20.4272,-0.02292284,0.27383,1.05847
141.833,20.49492,-0.02161301,0.27358,1.05828
142.533,20.56261,-0.0216,0.27534,1.05808
143.233,20.63016,-0.0216,0.27707,1.05788
143.933,20.69758,-0.02238484,0.27845,1.05769
144.633,20.76519,-0.022868,0.27983,1.05749
145.333,20.83277,-0.02424229,0.28163,1.05729
146.033,20.90029,-0.02355541,0.2826,1.05709
146.733,20.9679,-0.02291981,0.2823,1.05688
147.433,21.03527,-0.02427766,0.28424,1.05668
148.133,21.10272,-0.02422999,0.28583,1.05647
148.833,21.16988,-0.02423,0.28914,1.05627
149.533,21.23718,-0.02422986,0.29135,1.05606
150.233,21.30445,-0.02294517,0.29398,1.05585
150.933,21.372,-0.0228996,0.29563,1.05565
151.633,21.43952,-0.02423994,0.2972,1.05544
152.333,21.50681,-0.02540844,0.29813,1.05522
153.033,21.57404,-0.02488664,0.2998,1.05501
153.733,21.64118,-0.02358109,0.30442,1.0548
154.433,21.70877,-0.02492218,0.30586,1.05458
155.133,21.77613,-0.02489999,0.30704,1.05437
155.833,21.84361,-0.02490019,0.31017,1.05415
156.533,21.91089,-0.02724698,0.31204,1.05394
157.233,21.97852,-0.02699201,0.31292,1.05372
157.933,22.04585,-0.02621002,0.3168,1.0535
158.633,22.11315,-0.02647076,0.3206,1.05328
159.333,22.1802,-0.02753,0.32349,1.05305
160.033,22.24764,-0.02751305,0.32732,1.05283
160.733,22.315,-0.02686965,0.32951,1.05261
161.433,22.3825,-0.02688717,0.33467,1.05238
162.133,22.44979,-0.0268652,0.33574,1.05216
162.833,22.51707,-0.02555018,0.34014,1.05193
163.533,22.58434,-0.02706362,0.34868,1.0517
164.233,22.65139,-0.02753002,0.34975,1.05147
164.933,22.71869,-0.02752968,0.35328,1.05124
165.633,22.78595,-0.028848,0.35832,1.05101
166.333,22.85343,-0.03166145,0.36072,1.05078
167.033,22.92065,-0.03324076,0.36226,1.05055
167.733,22.9881,-0.03072596,0.36187,1.05031
168.433,23.05511,-0.03109229,0.36146,1.05008
169.133,23.1224,-0.03005339,0.36225,1.04984
169.833,23.18947,-0.0287302,0.35892,1.0496
170.533,23.2568,-0.02990285,0.35518,1.04936
171.233,23.3236,-0.03125853,0.35114,1.04913
171.933,23.39118,-0.03267396,0.35172,1.04888
172.633,23.45823,-0.03304062,0.34982,1.04864
173.333,23.52569,-0.03309573,0.34804,1.0484
174.033,23.59264,-0.03430256,0.34737,1.04816
174.733,23.6597,-0.03431306,0.34766,1.04791
175.433,23.72691,-0.03300959,0.34777,1.04767
176.133,23.7938,-0.03436498,0.3476,1.04742
176.833,23.86091,-0.0356401,0.35149,1.04717
177.533,23.92801,-0.03697993,0.35055,1.04692
178.233,23.99546,-0.03701071,0.35025,1.04667
178.933,24.06289,-0.03563975,0.3551,1.04642
179.633,24.13007,-0.03563963,0.35496,1.04617
180.333,24.19715,-0.03731991,0.35628,1.04592
181.033,24.26419,-0.03728999,0.35768,1.04566
181.733,24.33093,-0.03730054,0.36224,1.04541
182.433,24.39757,-0.03762476,0.36336,1.04515
183.133,24.4647,-0.03828496,0.36534,1.0449
183.833,24.53196,-0.03828,0.36777,1.04464
184.533,24.59959,-0.03828,0.37064,1.04438
185.233,24.66649,-0.03822777,0.37255,1.04412
185.933,24.73347,-0.03960026,0.37495,1.04386
186.633,24.8005,-0.0396,0.37751,1.0436
187.333,24.8675,-0.0396,0.38044,1.04333
188.033,24.93465,-0.03964595,0.38231,1.04307
188.733,25.0018,-0.03829125,0.38444,1.0428
189.433,25.06925,-0.03986963,0.38893,1.04254
190.133,25.13642,-0.04156016,0.39174,1.04227
190.833,25.20368,-0.04156004,0.39605,1.042
191.533,25.27094,-0.04190688,0.39839,1.04173
192.233,25.3381,-0.0438342,0.40209,1.04146
192.933,25.405,-0.04387001,0.40432,1.04119
193.633,25.4722,-0.04387,0.41095,1.04092
194.333,25.5391,-0.04387439,0.41385,1.04065
195.033,25.6064,-0.04420206,0.41743,1.04037
195.733,25.67328,-0.04550943,0.42107,1.0401
196.433,25.7405,-0.0468295,0.42381,1.03982
197.133,25.80721,-0.04678214,0.42919,1.03954
197.833,25.87448,-0.04958566,0.4322,1.03926
198.533,25.94158,-0.05089006,0.43531,1.03898
199.233,26.0089,-0.04958527,0.44355,1.0387
199.933,26.07589,-0.04958,0.44602,1.03842
200.633,26.14315,-0.04958076,0.4506,1.03814
201.333,26.21057,-0.05089953,0.45511,1.03786
202.033,26.27761,-0.05089002,0.4601,1.03757
202.733,26.3444,-0.05152782,0.46563,1.03729
203.433,26.41135,-0.0518719,0.46813,1.037
204.133,26.4786,-0.05056049,0.47845,1.03671
204.833,26.54593,-0.05052717,0.4836,1.03643
205.533,26.61314,-0.05286318,0.48933,1.03614
206.233,26.68,-0.05625992,0.4949,1.03585
206.933,26.7471,-0.05725451,0.50397,1.03556
207.633,26.8142,-0.05724451,0.51139,1.03526
208.333,26.8813,-0.05857031,0.51846,1.03497
209.033,26.94843,-0.05857,0.52851,1.03468
209.733,27.0156,-0.05865472,0.53769,1.03438
210.433,27.083,-0.06061188,0.55049,1.03408
211.133,27.1502,-0.06218981,0.56258,1.03379
211.833,27.2173,-0.06219,0.57885,1.03349
212.533,27.2842,-0.06219,0.59561,1.03319
213.233,27.35115,-0.06219001,0.6159,1.03289
213.933,27.41811,-0.06267633,0.63501,1.03259
214.633,27.48515,-0.06503614,0.64722,1.03229
215.333,27.5523,-0.06537107,0.65623,1.03198
216.033,27.6193,-0.06801287,0.66244,1.03168
216.733,27.6862,-0.06800049,0.66339,1.03137
217.433,27.753,-0.06668298,0.66343,1.03107
218.133,27.82003,-0.0673497,0.66407,1.03076
218.833,27.8869,-0.06850825,0.66522,1.03045
219.533,27.95406,-0.07204295,0.66975,1.03015
220.233,28.021,-0.07337059,0.67907,1.02984
220.933,28.08826,-0.07468937,0.68967,1.02952
221.633,28.15506,-0.07462244,0.70594,1.02921
222.333,28.22212,-0.07335213,0.73062,1.0289
223.033,28.289,-0.07778203,0.76383,1.02859
223.733,28.35632,-0.07910327,0.7969,1.02827
224.433,28.4236,-0.07909795,0.83253,1.02796
225.133,28.4909,-0.08138715,0.86042,1.02764
225.833,28.55831,-0.08137856,0.87256,1.02732
226.533,28.6253,-0.07899393,0.87547,1.027
227.233,28.6927,-0.0809202,0.86896,1.02668
227.933,28.75974,-0.08270416,0.85959,1.02636
228.633,28.82675,-0.085282,0.8512,1.02604
229.333,28.89355,-0.08661545,0.84164,1.02572
230.033,28.96051,-0.08866328,0.83739,1.0254
230.733,29.0276,-0.0891353,0.83492,1.02507
231.433,29.09457,-0.0902902,0.83476,1.02475
232.133,29.16145,-0.09311024,0.83691,1.02442
232.833,29.2285,-0.09440746,0.84203,1.02409
233.533,29.2957,-0.09718097,0.84973,1.02377
234.233,29.3626,-0.09918625,0.8589,1.02344
234.933,29.42942,-0.10123,0.868,1.02311
235.633,29.49643,-0.10391,0.8828,1.02278
236.333,29.5638,-0.10643,0.89701,1.02245
237.033,29.63102,-0.10836,0.91428,1.02211
237.733,29.69825,-0.1114,0.93324,1.02178
238.433,29.76537,-0.11487,0.95498,1.02144
239.133,29.8325,-0.11623,0.97446,1.02111
239.833,29.8995,-0.11648,0.99878,1.02077
240.533,29.9666,-0.11919,1.02014,1.02043
241.233,30.0337,-0.12058,1.04631,1.0201
241.933,30.10085,-0.12319,1.07144,1.01976
242.633,30.1679,-0.12313,1.09973,1.01942
243.333,30.23463,-0.12614,1.12578,1.01908
244.033,30.3019,-0.12909,1.15482,1.01873
244.733,30.3692,-0.13582,1.18086,1.01839
245.433,30.43709,-0.13943,1.21308,1.01805
246.133,30.5044,-0.14033,1.24362,1.0177
246.833,30.57181,-0.14252,1.27475,1.01736
247.533,30.63904,-0.14612,1.30911,1.01701
248.233,30.70638,-0.1506,1.3404,1.01666
248.933,30.7736,-0.15669,1.36503,1.01631
249.633,30.84085,-0.15982,1.3868,1.01596
250.333,30.90782,-0.1629,1.40081,1.01561
251.033,30.9752,-0.16567,1.40834,1.01526
251.733,31.04239,-0.16995,1.41462,1.01491
252.433,31.1096,-0.17502,1.41684,1.01456
253.133,31.1762,-0.17784,1.41742,1.0142
253.833,31.2432,-0.18132,1.42136,1.01385
254.533,31.31063,-0.18328,1.4198,1.01349
255.233,31.3782,-0.18834,1.41721,1.01314
255.933,31.44544,-0.19227,1.41409,1.01278
256.633,31.5123,-0.19647,1.4103,1.01242
257.333,31.5793,-0.20241,1.39974,1.01206
258.033,31.64617,-0.20519,1.39133,1.0117
258.733,31.71323,-0.20872,1.37995,1.01134
259.433,31.7803,-0.21289,1.36198,1.01098
260.133,31.8471,-0.21555,1.34127,1.01061
260.833,31.9139,-0.21979,1.31782,1.01025
261.533,31.98065,-0.22289,1.28597,1.00988
262.233,32.04738,-0.2263,1.25272,1.00952
262.933,32.11405,-0.23033,1.21077,1.00915
263.633,32.1807,-0.2326,1.16385,1.00878
264.333,32.24742,-0.23511,1.11474,1.00842
265.033,32.31398,-0.23732,1.06039,1.00805
265.733,32.3804,-0.2379,1.00481,1.00768
266.433,32.44683,-0.23934,0.94469,1.00731
267.133,32.51313,-0.24201,0.8864,1.00693
267.833,32.57959,-0.24501,0.83308,1.00656
268.533,32.64604,-0.24881,0.77649,1.00619
269.233,32.7121,-0.25085,0.72724,1.00581
269.933,32.77874,-0.2521,0.68337,1.00544
270.633,32.84505,-0.25375,0.64559,1.00506
271.333,32.91153,-0.2548,0.61382,1.00468
272.033,32.9777,-0.25481,0.58628,1.0043
272.733,33.04384,-0.25611,0.55908,1.00392
273.433,33.1105,-0.25742,0.5381,1.00355
274.133,33.17672,-0.25743,0.51998,1.00316
274.833,33.2436,-0.26016,0.50285,1.00278
275.533,33.3103,-0.26006,0.48867,1.0024
276.233,33.3772,-0.26005,0.47678,1.00202
276.933,33.4437,-0.26138,0.46536,1.00163
277.633,33.5102,-0.26138,0.45659,1.00125
278.333,33.57715,-0.26268,0.44805,1.00086
279.033,33.64394,-0.26271,0.44239,1.00047
279.733,33.7107,-0.264,0.43519,1.00009
280.433,33.77742,-0.26395,0.42945,0.9997
281.133,33.84408,-0.26532,0.42476,0.99931
281.833,33.91097,-0.26667,0.41965,0.99892
282.533,33.9777,-0.26664,0.41658,0.99853
283.233,34.0445,-0.26567,0.41086,0.99813
283.933,34.11139,-0.26575,0.40964,0.99774
284.633,34.17848,-0.26822,0.40554,0.99735
285.333,34.24535,-0.26954,0.39963,0.99695
286.033,34.31215,-0.26959,0.39871,0.99656
286.733,34.3789,-0.26861,0.39717,0.99616
287.433,34.4458,-0.26923,0.39328,0.99576
288.133,34.51305,-0.27092,0.39442,0.99537
288.833,34.5803,-0.27092,0.39375,0.99497
289.533,34.64723,-0.27224,0.38912,0.99457
290.233,34.71432,-0.27354,0.39043,0.99417
290.933,34.7815,-0.27487,0.38907,0.99376
291.633,34.84879,-0.27487,0.38739,0.99336
292.333,34.9158,-0.27388,0.38822,0.99296
293.033,34.98281,-0.27388,0.38352,0.99256
293.733,35.0499,-0.27388,0.38391,0.99215
294.433,35.1171,-0.27562,0.38482,0.99174
295.133,35.18432,-0.27651,0.38298,0.99134
295.833,35.2513,-0.27651,0.38226,0.99093
296.533,35.3184,-0.27651,0.38192,0.99052
297.233,35.38556,-0.27646,0.37973,0.99011
297.933,35.45279,-0.27783,0.37958,0.9897
298.633,35.51982,-0.27915,0.37874,0.98929
299.333,35.5869,-0.27981,0.37973,0.98888
300.033,35.6541,-0.27977,0.37691,0.98847
300.733,35.7211,-0.28112,0.37628,0.98806
301.433,35.7883,-0.28112,0.37575,0.98764
302.133,35.85535,-0.28112,0.37486,0.98723
302.833,35.9226,-0.28112,0.37481,0.98681
303.533,35.9897,-0.28112,0.3741,0.9864
304.233,36.05684,-0.28294,0.3744,0.98598
304.933,36.12421,-0.28449,0.37516,0.98556
305.633,36.19148,-0.28452,0.37725,0.98514
306.333,36.2586,-0.28452,0.37458,0.98472
307.033,36.3257,-0.28452,0.3751,0.9843
307.733,36.39284,-0.28452,0.37341,0.98388
308.433,36.46021,-0.28452,0.37524,0.98346
309.133,36.5276,-0.28521,0.37137,0.98304
309.833,36.59487,-0.28649,0.37322,0.98261
310.533,36.6621,-0.28785,0.3744,0.98219
311.233,36.72903,-0.28781,0.37279,0.98176
311.933,36.79635,-0.28803,0.37054,0.98134
312.633,36.8637,-0.28814,0.37457,0.98091
313.333,36.93125,-0.2901,0.3717,0.98048
314.033,36.9986,-0.29012,0.37117,0.98005
314.733,37.06588,-0.29012,0.37117,0.97962
315.433,37.13328,-0.29012,0.37135,0.97919
316.133,37.20066,-0.29011,0.37167,0.97876
316.833,37.26804,-0.29301,0.36922,0.97833
317.533,37.33552,-0.29429,0.37018,0.9779
318.233,37.40312,-0.29492,0.37002,0.97746
318.933,37.47052,-0.2956,0.37136,0.97703
319.633,37.53783,-0.29691,0.37334,0.97659
320.333,37.6051,-0.29726,0.37316,0.97616
321.033,37.6725,-0.29848,0.37185,0.97572
321.733,37.74005,-0.29954,0.37037,0.97529
322.433,37.80747,-0.29938,0.36964,0.97485
323.133,37.8748,-0.30054,0.37246,0.97441
323.833,37.9422,-0.30071,0.37097,0.97397
324.533,38.00996,-0.30185,0.36965,0.97353
325.233,38.07775,-0.30316,0.37046,0.97309
325.933,38.14543,-0.30317,0.36783,0.97265
326.633,38.21298,-0.30317,0.36728,0.9722
327.333,38.28052,-0.3042,0.37047,0.97176
328.033,38.34816,-0.30449,0.37066,0.97132
328.733,38.4157,-0.30449,0.37125,0.97087
329.433,38.48321,-0.30501,0.37079,0.97042
330.133,38.5505,-0.30649,0.36967,0.96998
330.833,38.61809,-0.30646,0.37066,0.96953
331.533,38.68553,-0.30755,0.37132,0.96908
332.233,38.75312,-0.30906,0.37256,0.96863
332.933,38.82051,-0.31172,0.37117,0.96818
333.633,38.88824,-0.3117,0.37469,0.96773
334.333,38.95601,-0.31171,0.37574,0.96728
335.033,39.0237,-0.31304,0.37355,0.96683
335.733,39.09138,-0.31435,0.3742,0.96638
336.433,39.15872,-0.31675,0.37599,0.96592
337.133,39.2263,-0.31993,0.37278,0.96547
337.833,39.29375,-0.32115,0.37396,0.96502
338.533,39.3615,-0.32115,0.37538,0.96456
339.233,39.4294,-0.32247,0.37562,0.9641
339.933,39.49718,-0.32247,0.37607,0.96365
340.633,39.56475,-0.32378,0.37382,0.96319
341.333,39.6325,-0.32436,0.3762,0.96273
342.033,39.7002,-0.3251,0.37521,0.96227
342.733,39.76777,-0.32642,0.381,0.96181
343.433,39.83529,-0.32771,0.38002,0.96135
344.133,39.90299,-0.32767,0.37899,0.96089
344.833,39.97102,-0.32873,0.38023,0.96043
345.533,40.0389,-0.33005,0.38045,0.95996
346.233,40.10654,-0.3319,0.37995,0.9595
346.933,40.17418,-0.33419,0.38007,0.95903
347.633,40.24188,-0.33579,0.37783,0.95857
348.333,40.30982,-0.33858,0.37944,0.9581
349.033,40.37762,-0.34047,0.38208,0.95764
349.733,40.4454,-0.34315,0.37967,0.95717
350.433,40.51303,-0.34562,0.3855,0.9567
351.133,40.5807,-0.34696,0.38676,0.95623
351.833,40.64841,-0.34838,0.38901,0.95576
352.533,40.7162,-0.35129,0.38923,0.95529
353.233,40.7842,-0.35418,0.39288,0.95482
353.933,40.85217,-0.35571,0.3924,0.95435
354.633,40.91984,-0.35702,0.394,0.95388
355.333,40.9873,-0.35934,0.3961,0.9534
356.033,41.055,-0.36254,0.39934,0.95293
356.733,41.12273,-0.36434,0.39974,0.95245
357.433,41.19061,-0.36731,0.40382,0.95198
358.133,41.25858,-0.37022,0.40491,0.9515
358.833,41.32685,-0.37323,0.4059,0.95103
359.533,41.39502,-0.37694,0.40936,0.95055
360.233,41.463,-0.38171,0.41165,0.95007
360.933,41.53102,-0.38466,0.41583,0.94959
361.633,41.5991,-0.38739,0.41841,0.94911
362.333,41.66714,-0.39028,0.42437,0.94863
363.033,41.735,-0.39304,0.42455,0.94815
363.733,41.8028,-0.39893,0.42715,0.94767
364.433,41.87066,-0.4044,0.43238,0.94719
365.133,41.9386,-0.40903,0.43486,0.9467
365.833,42.0065,-0.41242,0.4382,0.94622
366.533,42.07421,-0.41706,0.44274,0.94574
367.233,42.1421,-0.4206,0.4455,0.94525
367.933,42.21013,-0.42757,0.45092,0.94476
368.633,42.2782,-0.43455,0.45604,0.94428
369.333,42.34622,-0.44043,0.45958,0.94379
370.033,42.41408,-0.44448,0.46512,0.9433
370.733,42.48209,-0.45006,0.46779,0.94281
371.433,42.55008,-0.45685,0.47463,0.94233
372.133,42.61796,-0.46362,0.47868,0.94184
372.833,42.68578,-0.47078,0.48403,0.94134
373.533,42.7537,-0.47994,0.48996,0.94085
374.233,42.8217,-0.488,0.49534,0.94036
374.933,42.89011,-0.49677,0.49533,0.93987
375.633,42.95825,-0.50386,0.50598,0.93938
376.333,43.0265,-0.5138,0.51253,0.93888
377.033,43.0946,-0.52457,0.52019,0.93839
377.733,43.1628,-0.53225,0.52458,0.93789
378.433,43.23102,-0.54156,0.52917,0.9374
379.133,43.29935,-0.55225,0.53868,0.9369
379.833,43.3677,-0.56276,0.54525,0.9364
380.533,43.43605,-0.57336,0.55247,0.9359
381.233,43.50447,-0.58478,0.55855,0.9354
381.933,43.5727,-0.59854,0.56675,0.93491
382.633,43.64094,-0.61029,0.57403,0.93441
383.333,43.70926,-0.6244,0.58453,0.9339
384.033,43.7776,-0.63975,0.59026,0.9334
384.733,43.8459,-0.65164,0.59856,0.9329
385.433,43.91405,-0.66663,0.60782,0.9324
386.133,43.98231,-0.68291,0.61672,0.9319
386.833,44.05068,-0.69821,0.62614,0.93139
387.533,44.11915,-0.71487,0.63325,0.93089
388.233,44.18738,-0.73158,0.64261,0.93038
388.933,44.25586,-0.74971,0.65166,0.92988
389.633,44.32435,-0.76725,0.66408,0.92937
390.333,44.39298,-0.78555,0.67283,0.92886
391.033,44.4612,-0.80386,0.68326,0.92836
391.733,44.52943,-0.82235,0.69299,0.92785
392.433,44.59782,-0.84274,0.69927,0.92734
393.133,44.66655,-0.86425,0.71116,0.92683
393.833,44.73523,-0.88749,0.71861,0.92632
394.533,44.80379,-0.90763,0.73044,0.92581
395.233,44.87218,-0.932,0.74106,0.9253
395.933,44.94063,-0.95363,0.74849,0.92478
396.633,45.009,-0.97663,0.75637,0.92427
397.333,45.07748,-1.0005,0.76632,0.92376
398.033,45.146,-1.02481,0.77522,0.92324
398.733,45.21444,-1.04897,0.78253,0.92273
399.433,45.28286,-1.07315,0.78921,0.92221
400.133,45.35099,-1.09984,0.79324,0.9217
400.833,45.41938,-1.12598,0.80475,0.92118
401.533,45.48778,-1.1515,0.805,0.92066
402.233,45.55637,-1.17746,0.80947,0.92015
402.933,45.62471,-1.20391,0.81372,0.91963
403.633,45.69303,-1.22873,0.81744,0.91911
404.333,45.7612,-1.25628,0.81729,0.91859
405.033,45.82934,-1.28371,0.81562,0.91807
405.733,45.89743,-1.30972,0.81307,0.91755
406.433,45.9656,-1.3378,0.81055,0.91703
407.133,46.03372,-1.36652,0.80807,0.9165
407.833,46.10203,-1.3911,0.80281,0.91598
408.533,46.17044,-1.41787,0.7936,0.91546
409.233,46.23883,-1.44474,0.78454,0.91493
409.933,46.30707,-1.47229,0.77731,0.91441
410.633,46.37527,-1.49718,0.76498,0.91389
411.333,46.44376,-1.52412,0.75156,0.91336
412.033,46.51218,-1.55143,0.736,0.91283
412.733,46.58057,-1.57742,0.72213,0.91231
413.433,46.64867,-1.60248,0.70776,0.91178
414.133,46.7166,-1.6286,0.69147,0.91125
414.833,46.78504,-1.65252,0.67849,0.91072
415.533,46.85369,-1.67615,0.66334,0.91019
416.233,46.92261,-1.69917,0.6473,0.90966
416.933,46.991,-1.72165,0.63337,0.90913
417.633,47.05948,-1.74208,0.61959,0.9086
418.333,47.12781,-1.76265,0.60405,0.90807
419.033,47.19634,-1.78504,0.59532,0.90754
419.733,47.26468,-1.80549,0.57822,0.90701
420.433,47.33297,-1.82487,0.568,0.90647
421.133,47.40126,-1.8448,0.55766,0.90594
421.833,47.46958,-1.86324,0.54526,0.90541
422.533,47.53821,-1.87975,0.53802,0.90487
423.233,47.6068,-1.89813,0.52667,0.90434
423.933,47.67521,-1.91532,0.51986,0.9038
424.633,47.7436,-1.93168,0.51319,0.90326
425.333,47.81173,-1.94591,0.49941,0.90273
426.033,47.88027,-1.96167,0.49361,0.90219
426.733,47.94866,-1.97738,0.48562,0.90165
427.433,48.01717,-1.9932,0.47805,0.90111
428.133,48.08566,-2.00573,0.47075,0.90057
428.833,48.1543,-2.01853,0.46248,0.90003
429.533,48.22287,-2.03126,0.45939,0.89949
430.233,48.29137,-2.04402,0.45374,0.89895
430.933,48.3598,-2.05623,0.44651,0.89841
431.633,48.4285,-2.06894,0.44447,0.89787
432.333,48.4971,-2.08037,0.43845,0.89732
433.033,48.5657,-2.09125,0.43622,0.89678
433.733,48.63431,-2.10189,0.43102,0.89624
434.433,48.70247,-2.11233,0.42559,0.89569
435.133,48.77101,-2.12027,0.42284,0.89515
435.833,48.83935,-2.13088,0.42047,0.8946
436.533,48.9084,-2.13783,0.41036,0.89405
437.233,48.97717,-2.14711,0.40396,0.89351
437.933,49.04606,-2.15546,0.402,0.89296
438.633,49.1148,-2.16301,0.39575,0.89241
439.333,49.18347,-2.17052,0.3907,0.89187
440.033,49.25228,-2.17842,0.38383,0.89132
440.733,49.321,-2.18532,0.37899,0.89077
441.433,49.38984,-2.19073,0.37276,0.89022
442.133,49.45854,-2.19833,0.36976,0.88967
442.833,49.5272,-2.20485,0.36882,0.88912
443.533,49.59583,-2.21144,0.36312,0.88857
444.233,49.66475,-2.21771,0.3605,0.88801
444.933,49.7338,-2.22394,0.35421,0.88746
445.633,49.80272,-2.23095,0.35324,0.88691
446.333,49.87151,-2.2387,0.3502,0.88635
447.033,49.94025,-2.2432,0.34933,0.8858
447.733,50.00904,-2.24956,0.34397,0.88525
448.433,50.07781,-2.25676,0.34329,0.88469
449.133,50.14638,-2.26341,0.34107,0.88414
449.833,50.2151,-2.26898,0.34096,0.88358
450.533,50.28372,-2.27506,0.33796,0.88302
451.233,50.35243,-2.28208,0.33391,0.88247
451.933,50.42103,-2.28886,0.33354,0.88191
452.633,50.48988,-2.29527,0.33016,0.88135
453.333,50.55858,-2.30151,0.3317,0.88079
454.033,50.62733,-2.30728,0.32588,0.88023
454.733,50.69597,-2.3134,0.32445,0.87967
455.433,50.76487,-2.31948,0.32289,0.87911
456.133,50.83372,-2.32422,0.31784,0.87855
456.833,50.90255,-2.33082,0.3164,0.87799
457.533,50.97141,-2.33701,0.30773,0.87743
458.233,51.0403,-2.34213,0.30628,0.87687
458.933,51.10918,-2.34724,0.30663,0.87631
459.633,51.17791,-2.35384,0.30232,0.87574
460.333,51.24669,-2.35922,0.29616,0.87518
461.033,51.3157,-2.36226,0.2879,0.87462
461.733,51.38459,-2.36442,0.28489,0.87405
462.433,51.45341,-2.36995,0.27658,0.87349
463.133,51.5222,-2.37542,0.26842,0.87292
463.833,51.5912,-2.37719,0.2629,0.87236
464.533,51.66001,-2.38073,0.2554,0.87179
465.233,51.72888,-2.38517,0.24463,0.87122
465.933,51.7978,-2.38827,0.23828,0.87065
466.633,51.86695,-2.39121,0.22952,0.87009
467.333,51.93589,-2.39276,0.22355,0.86952
468.033,52.0051,-2.3958,0.21334,0.86895
468.733,52.0741,-2.39728,0.20581,0.86838
469.433,52.1432,-2.3998,0.19921,0.86781
470.133,52.21216,-2.40264,0.19265,0.86724
470.833,52.2812,-2.40533,0.18686,0.86667
471.533,52.35018,-2.40399,0.18088,0.8661
472.233,52.4191,-2.40621,0.17644,0.86553
472.933,52.48816,-2.40786,0.16614,0.86496
473.633,52.5574,-2.40794,0.16217,0.86438
474.333,52.62653,-2.41043,0.15838,0.86381
475.033,52.69546,-2.41197,0.15723,0.86324
475.733,52.7645,-2.41327,0.14986,0.86266
476.433,52.8336,-2.41337,0.14906,0.86209
477.133,52.9026,-2.41448,0.14353,0.86151
477.833,52.97136,-2.41583,0.14122,0.86094
478.533,53.0403,-2.41715,0.1389,0.86036
479.233,53.10941,-2.41847,0.13877,0.85979
479.933,53.1786,-2.41848,0.13483,0.85921
480.633,53.24776,-2.42101,0.13146,0.85863
481.333,53.3171,-2.41991,0.13136,0.85806
482.033,53.3864,-2.421,0.1296,0.85748
482.733,53.45565,-2.42252,0.13159,0.8569
483.433,53.5248,-2.42377,0.12611,0.85632
484.133,53.59406,-2.42482,0.1278,0.85574
484.833,53.66325,-2.42645,0.12546,0.85516
485.533,53.7325,-2.42836,0.12392,0.85458
486.233,53.80165,-2.4291,0.12383,0.854
486.933,53.87072,-2.42909,0.12091,0.85342
487.633,53.9398,-2.42811,0.1207,0.85284
488.333,54.009,-2.42811,0.11743,0.85226
489.033,54.0783,-2.42958,0.11741,0.85168
489.733,54.1476,-2.43085,0.11777,0.85109
490.433,54.2168,-2.43087,0.11661,0.85051
491.133,54.286,-2.43217,0.11526,0.84993
491.833,54.3552,-2.43216,0.11513,0.84934
492.533,54.4244,-2.43448,0.11466,0.84876
493.233,54.4937,-2.43441,0.11687,0.84818
493.933,54.56279,-2.43579,0.1157,0.84759
494.633,54.6319,-2.43645,0.11436,0.84701
495.333,54.70085,-2.43777,0.11178,0.84642
496.033,54.7699,-2.43875,0.11459,0.84583
496.733,54.839,-2.43875,0.10966,0.84525
497.433,54.90829,-2.43995,0.11214,0.84466
498.133,54.9777,-2.44007,0.1098,0.84407
498.833,55.0469,-2.43974,0.11044,0.84348
499.533,55.11606,-2.44044,0.10802,0.8429
500.233,55.1853,-2.441,0.10741,0.84231
500.933,55.2547,-2.44247,0.10829,0.84172
501.633,55.3243,-2.44369,0.10839,0.84113
502.333,55.39365,-2.44501,0.10703,0.84054
503.033,55.46303,-2.44632,0.10459,0.83995
503.733,55.5324,-2.44711,0.10215,0.83936
504.433,55.60196,-2.44633,0.10393,0.83877
505.133,55.6713,-2.44633,0.10421,0.83818
505.833,55.7407,-2.44672,0.10165,0.83758
506.533,55.80999,-2.44764,0.10161,0.83699
507.233,55.8791,-2.44892,0.1001,0.8364
507.933,55.9484,-2.44909,0.09972627,0.83581
508.633,56.0179,-2.45028,0.10054,0.83521
509.333,56.0875,-2.45159,0.09987183,0.83462
510.033,56.15681,-2.45226,0.10116,0.83402
510.733,56.2261,-2.45281,0.09932322,0.83343
511.433,56.29555,-2.45422,0.10069,0.83284
512.133,56.365,-2.45469,0.09959121,0.83224
512.833,56.4343,-2.45657,0.09945654,0.83164
513.533,56.50371,-2.45817,0.09817508,0.83105
514.233,56.57291,-2.45841,0.09722944,0.83045
514.933,56.6423,-2.46088,0.10033,0.82986
515.633,56.7114,-2.46091,0.10107,0.82926
516.333,56.7809,-2.46091,0.09595002,0.82866
517.033,56.85023,-2.45959,0.09637588,0.82806
517.733,56.91979,-2.46101,0.09452742,0.82746
518.433,56.98915,-2.46393,0.09349986,0.82687
519.133,57.05854,-2.46642,0.0949156,0.82627
519.833,57.12789,-2.4665,0.09427021,0.82567
520.533,57.19752,-2.4665,0.09320575,0.82507
521.233,57.26701,-2.4665,0.09240905,0.82447
521.933,57.3367,-2.4665,0.09126541,0.82387
522.633,57.40606,-2.46783,0.09216574,0.82327
523.333,57.4756,-2.46922,0.09376575,0.82267
524.033,57.5451,-2.47046,0.08971434,0.82207
524.733,57.6147,-2.46906,0.0889564,0.82146
525.433,57.6845,-2.47045,0.09100542,0.82086
526.133,57.75415,-2.47229,0.09028956,0.82026
526.833,57.8236,-2.47615,0.0896931,0.81966
527.533,57.89298,-2.47627,0.08478326,0.81905
528.233,57.9626,-2.47627,0.08661685,0.81845
528.933,58.03224,-2.47495,0.08711304,0.81785
529.633,58.1018,-2.47627,0.08813778,0.81724
530.333,58.1712,-2.47621,0.0867783,0.81664
531.033,58.24083,-2.47796,0.08514026,0.81603
531.733,58.3104,-2.47989,0.08494667,0.81543
532.433,58.37995,-2.47989,0.08241244,0.81482
533.133,58.4492,-2.48086,0.08258701,0.81422
533.833,58.51875,-2.48135,0.0871762,0.81361
534.533,58.5885,-2.48394,0.0838021,0.813
535.233,58.6583,-2.48538,0.08329092,0.8124
535.933,58.728,-2.48538,0.08210187,0.81179
536.633,58.79749,-2.48688,0.08360166,0.81118
537.333,58.8672,-2.48767,0.08287825,0.81058
538.033,58.9367,-2.48899,0.08349844,0.80997
538.733,59.00636,-2.49033,0.08216082,0.80936
539.433,59.07586,-2.49273,0.08328853,0.80875
540.133,59.1456,-2.49194,0.08128058,0.80814
540.833,59.21535,-2.49294,0.07700811,0.80753
541.533,59.2851,-2.49152,0.07684615,0.80692
542.233,59.35456,-2.49174,0.0761468,0.80631
542.933,59.42417,-2.4957,0.07961172,0.8057
543.633,59.4938,-2.49842,0.07888638,0.80509
544.333,59.56355,-2.49954,0.07661659,0.80448
545.033,59.6333,-2.49988,0.076882,0.80387
545.733,59.70312,-2.5012,0.07617639,0.80326
546.433,59.773,-2.50251,0.07732541,0.80265
547.133,59.8428,-2.50511,0.08019712,0.80204
547.833,59.9122,-2.50516,0.07569915,0.80142
548.533,59.98174,-2.50641,0.07630489,0.80081
549.233,60.05151,-2.50906,0.07717861,0.8002
549.933,60.1214,-2.50784,0.07580509,0.79959
550.633,60.19118,-2.50919,0.07462026,0.79897
551.333,60.2612,-2.51049,0.07604916,0.79836
552.033,60.331,-2.51181,0.07328245,0.79774
552.733,60.40105,-2.51312,0.07370268,0.79713
553.433,60.4709,-2.51318,0.07507928,0.79652
554.133,60.5408,-2.51561,0.07458877,0.7959
554.833,60.61062,-2.51525,0.07656701,0.79529
555.533,60.68023,-2.5182,0.07898751,0.79467
556.233,60.7501,-2.52158,0.08232076,0.79405
556.933,60.82,-2.5219,0.07800205,0.79344
557.633,60.8899,-2.52091,0.07756758,0.79282
558.333,60.9598,-2.52297,0.08103674,0.79221
559.033,61.02946,-2.52824,0.08223435,0.79159
559.733,61.09916,-2.52957,0.07937855,0.79097
560.433,61.16893,-2.53095,0.08241176,0.79035
561.133,61.2388,-2.53243,0.08263582,0.78974
561.833,61.3086,-2.53374,0.08204019,0.78912
562.533,61.3784,-2.53374,0.08207201,0.7885
563.233,61.4482,-2.53407,0.07969125,0.78788
563.933,61.518,-2.53406,0.08071892,0.78726
564.633,61.5877,-2.53283,0.08113913,0.78664
565.333,61.6575,-2.53144,0.08092652,0.78603
566.033,61.7274,-2.53539,0.08009118,0.78541
566.733,61.79739,-2.54077,0.0823059,0.78479
567.433,61.8675,-2.54285,0.0826797,0.78417
568.133,61.9374,-2.54545,0.08268961,0.78355
568.833,62.0076,-2.5469,0.08007429,0.78293
569.533,62.07761,-2.5469,0.08315504,0.78231
570.233,62.1476,-2.54692,0.08260082,0.78168
570.933,62.2173,-2.54963,0.08133301,0.78106
571.633,62.2872,-2.55256,0.08407582,0.78044
572.333,62.35722,-2.5525,0.08505562,0.77982
573.033,62.4275,-2.55381,0.08893727,0.7792
573.733,62.4976,-2.55512,0.08756633,0.77858
574.433,62.5679,-2.55514,0.09066529,0.77795
575.133,62.63811,-2.55789,0.09058649,0.77733
575.833,62.70825,-2.55948,0.09614293,0.77671
576.533,62.7783,-2.56382,0.09718871,0.77609
577.233,62.84825,-2.56713,0.10008,0.77546
577.933,62.91842,-2.56708,0.10249,0.77484
578.633,62.98856,-2.56762,0.10705,0.77421
579.333,63.05881,-2.56864,0.10964,0.77359
580.033,63.12888,-2.5706,0.11227,0.77297
580.733,63.1989,-2.57159,0.1213,0.77234
581.433,63.26886,-2.57269,0.12738,0.77172
582.133,63.33889,-2.57673,0.13212,0.77109
582.833,63.4089,-2.58225,0.14195,0.77047
583.533,63.47903,-2.58679,0.14864,0.76984
584.233,63.54874,-2.59208,0.15657,0.76922
584.933,63.6189,-2.59505,0.16287,0.76859
585.633,63.689,-2.59772,0.16888,0.76796
586.333,63.7595,-2.59907,0.17187,0.76734
587.033,63.82954,-2.60264,0.17681,0.76671
587.733,63.89963,-2.60537,0.17736,0.76609
588.433,63.96969,-2.60678,0.17808,0.76546
589.133,64.03958,-2.61005,0.1736,0.76483
589.833,64.10931,-2.61347,0.17696,0.7642
590.533,64.1793,-2.61907,0.17435,0.76358
591.233,64.24972,-2.62389,0.17194,0.76295
591.933,64.3201,-2.62687,0.17183,0.76232
592.633,64.3903,-2.62994,0.17099,0.76169
593.333,64.4602,-2.63126,0.16801,0.76106
594.033,64.53063,-2.63528,0.16959,0.76044
594.733,64.60083,-2.64827,0.16702,0.75981
595.433,64.67126,-2.64998,0.16344,0.75918
596.133,64.74135,-2.6521,0.15878,0.75855
596.833,64.81152,-2.65431,0.15798,0.75792
597.533,64.88181,-2.66198,0.15427,0.75729
598.233,64.95201,-2.67041,0.15334,0.75666
598.933,65.0224,-2.67408,0.14828,0.75603
599.633,65.09261,-2.67643,0.14501,0.7554
600.333,65.16296,-2.67947,0.14087,0.75477
601.033,65.233,-2.68272,0.13578,0.75414
601.733,65.303,-2.68661,0.12673,0.75351
602.433,65.37309,-2.69255,0.1252,0.75288
603.133,65.44336,-2.69773,0.11785,0.75225
603.833,65.51366,-2.7028,0.1141,0.75162
604.533,65.58391,-2.70574,0.10724,0.75099
605.233,65.6541,-2.7073,0.10824,0.75036
605.933,65.72423,-2.70859,0.09755676,0.74972
606.633,65.79456,-2.71013,0.09677534,0.74909
607.333,65.86487,-2.71212,0.09530585,0.74846
608.033,65.93531,-2.71636,0.09000531,0.74783
608.733,66.00565,-2.72124,0.08677611,0.7472
609.433,66.07606,-2.72249,0.08545275,0.74656
610.133,66.14627,-2.7235,0.07923935,0.74593
610.833,66.21642,-2.72355,0.07385569,0.7453
611.533,66.28647,-2.72078,0.07493506,0.74466
612.233,66.35647,-2.72138,0.08121831,0.74403
612.933,66.42653,-2.72339,0.0850385,0.7434
613.633,66.4966,-2.72339,0.08835301,0.74276
614.333,66.56687,-2.72339,0.08788052,0.74213
615.033,66.63705,-2.72338,0.08692573,0.7415
615.733,66.70725,-2.72552,0.08627424,0.74086
616.433,66.77716,-2.72913,0.09016709,0.74023
617.133,66.84733,-2.73062,0.08746318,0.7396
617.833,66.9174,-2.7314,0.09284604,0.73896
618.533,66.98781,-2.73055,0.09794583,0.73833
619.233,67.05787,-2.73274,0.10028,0.73769
619.933,67.12823,-2.73529,0.10361,0.73706
620.633,67.19832,-2.7363,0.10693,0.73642
621.333,67.26853,-2.73634,0.10763,0.73579
622.033,67.33844,-2.73667,0.10958,0.73515
622.733,67.40845,-2.73427,0.11281,0.73452
623.433,67.47843,-2.73293,0.11372,0.73388
624.133,67.54854,-2.7345,0.11715,0.73325
624.833,67.61869,-2.73736,0.11995,0.73261
625.533,67.68879,-2.74028,0.12448,0.73197
626.233,67.75912,-2.74028,0.12695,0.73134
626.933,67.82916,-2.73897,0.13114,0.7307
627.633,67.89935,-2.73898,0.13087,0.73007
628.333,67.96942,-2.74167,0.136,0.72943
629.033,68.0397,-2.74454,0.13941,0.72879
629.733,68.1101,-2.74709,0.14273,0.72816
630.433,68.18038,-2.74905,0.14718,0.72752
631.133,68.2507,-2.74619,0.14834,0.72688
631.833,68.32098,-2.74614,0.145,0.72624
632.533,68.39141,-2.74489,0.15258,0.72561
633.233,68.46173,-2.74489,0.15457,0.72497
633.933,68.53214,-2.74572,0.15918,0.72433
634.633,68.60235,-2.7463,0.16053,0.7237
635.333,68.67262,-2.74749,0.16459,0.72306
636.033,68.7428,-2.74883,0.16504,0.72242
636.733,68.81306,-2.7491,0.17306,0.72178
637.433,68.88329,-2.75183,0.17623,0.72114
638.133,68.9536,-2.75451,0.17666,0.72051
638.833,69.0239,-2.75584,0.1777,0.71987
639.533,69.09425,-2.75585,0.18522,0.71923
640.233,69.1647,-2.75586,0.18631,0.71859
640.933,69.23523,-2.75864,0.19143,0.71795
641.633,69.3056,-2.75736,0.1943,0.71731
642.333,69.37595,-2.75871,0.19828,0.71668
643.033,69.44625,-2.7587,0.2057,0.71604
643.733,69.51664,-2.75998,0.21008,0.7154
644.433,69.58704,-2.76135,0.21094,0.71476
645.133,69.6575,-2.76133,0.21657,0.71412
645.833,69.7282,-2.76257,0.22319,0.71348
646.533,69.7988,-2.76398,0.22664,0.71284
647.233,69.86938,-2.76526,0.23235,0.7122
647.933,69.9398,-2.76725,0.23413,0.71156
648.633,70.01031,-2.76869,0.239,0.71092
649.333,70.08097,-2.77053,0.24652,0.71028
650.033,70.15154,-2.77121,0.25169,0.70964
650.733,70.2222,-2.77206,0.25325,0.709
651.433,70.2927,-2.77275,0.25507,0.70836
652.133,70.36325,-2.77321,0.25863,0.70772
652.833,70.43384,-2.77478,0.26777,0.70708
653.533,70.5044,-2.777,0.27116,0.70644
654.233,70.5749,-2.77681,0.27332,0.7058
654.933,70.64526,-2.77683,0.28048,0.70516
655.633,70.71559,-2.77934,0.28612,0.70452
656.333,70.78605,-2.78118,0.29094,0.70388
657.033,70.85645,-2.78251,0.2954,0.70324
657.733,70.92674,-2.78394,0.30162,0.7026
658.433,70.99706,-2.7866,0.30522,0.70196
659.133,71.06749,-2.78787,0.31509,0.70132
659.833,71.13816,-2.79168,0.3223,0.70068
660.533,71.20859,-2.79249,0.32578,0.70004
661.233,71.27896,-2.79118,0.33191,0.6994
661.933,71.3493,-2.79262,0.3375,0.69876
662.633,71.4198,-2.79392,0.3413,0.69812
663.333,71.49043,-2.79392,0.34553,0.69748
664.033,71.56106,-2.79699,0.35321,0.69683
664.733,71.63157,-2.7986,0.35887,0.69619
665.433,71.70205,-2.79984,0.36436,0.69555
666.133,71.77258,-2.80103,0.36899,0.69491
666.833,71.84321,-2.80138,0.37526,0.69427
667.533,71.91394,-2.80245,0.38155,0.69363
668.233,71.9846,-2.80465,0.38914,0.69299
668.933,72.05537,-2.80655,0.39433,0.69234
669.633,72.1258,-2.80936,0.40011,0.6917
670.333,72.19632,-2.81422,0.40779,0.69106
671.033,72.26671,-2.81539,0.41191,0.69042
671.733,72.33708,-2.81599,0.41837,0.68978
672.433,72.40733,-2.81805,0.42148,0.68914
673.133,72.47753,-2.81929,0.42404,0.68849
673.833,72.5479,-2.82087,0.42874,0.68785
674.533,72.61848,-2.822,0.43406,0.68721
675.233,72.68879,-2.82334,0.43455,0.68657
675.933,72.7593,-2.82676,0.43866,0.68593
676.633,72.8296,-2.83176,0.44105,0.68529
677.333,72.90025,-2.83308,0.44062,0.68464
678.033,72.9708,-2.83308,0.43734,0.684
678.733,73.0415,-2.83573,0.44077,0.68336
679.433,73.11205,-2.84138,0.43747,0.68272
680.133,73.18268,-2.84702,0.43939,0.68207
680.833,73.25325,-2.84436,0.43152,0.68143
681.533,73.32398,-2.84246,0.42156,0.68079
682.233,73.39454,-2.84174,0.41845,0.68015
682.933,73.46518,-2.84243,0.40734,0.67951
683.633,73.5356,-2.84691,0.4003,0.67886
684.333,73.60625,-2.84957,0.38939,0.67822
685.033,73.67675,-2.85158,0.3728,0.67758
685.733,73.74739,-2.8532,0.35825,0.67694
686.433,73.81791,-2.85426,0.33843,0.67629
687.133,73.88842,-2.8564,0.31737,0.67565
687.833,73.95881,-2.85864,0.28958,0.67501
688.533,74.0292,-2.85863,0.25764,0.67437
689.233,74.0997,-2.85863,0.2189,0.67373
689.933,74.1701,-2.85863,0.17229,0.67308
690.633,74.24041,-2.85994,0.1289,0.67244
691.333,74.31075,-2.86125,0.09670958,0.6718
692.033,74.38124,-2.86345,0.08037768,0.67116
692.733,74.4516,-2.864,0.06667454,0.67051
693.433,74.522,-2.86401,0.05285748,0.66987
694.133,74.5924,-2.865,0.04904595,0.66923
694.833,74.66295,-2.86395,0.03779836,0.66859
695.533,74.73336,-2.86401,0.03397913,0.66794
696.233,74.80395,-2.86402,0.03123701,0.6673
696.933,74.8746,-2.86497,0.02777932,0.66666
697.633,74.94527,-2.86487,0.02337511,0.66602
698.333,75.01566,-2.8629,0.019902,0.66537
699.033,75.0862,-2.86206,0.01449547,0.66473
699.733,75.15658,-2.86312,0.01322315,0.66409
700.433,75.2272,-2.86303,0.01415911,0.66345
701.133,75.29781,-2.86455,0.01555407,0.6628
701.833,75.36851,-2.86486,0.009306125,0.66216
702.533,75.43904,-2.86454,0.009449336,0.66152
703.233,75.50963,-2.86489,0.003563777,0.66088
703.933,75.58031,-2.86555,0.001769994,0.66023
704.633,75.65097,-2.86423,0.001124368,0.65959
705.333,75.72157,-2.86138,0.00287055,0.65895
706.033,75.792,-2.86289,-0.00454565,0.65831
706.733,75.86238,-2.8673,-0.003075885,0.65767
707.433,75.9329,-2.86885,0.0009917232,0.65702
708.133,76.0037,-2.87218,-0.002463054,0.65638
708.833,76.07451,-2.87054,-0.00404172,0.65574
709.533,76.145,-2.86796,-0.000475234,0.6551
710.233,76.21545,-2.86796,0.002236615,0.65445
710.933,76.28595,-2.86796,-0.00302567,0.65381
711.633,76.35653,-2.86731,0.002428753,0.65317
712.333,76.42724,-2.8673,0.004474128,0.65253
713.033,76.49794,-2.8673,-0.006013251,0.65189
713.733,76.56881,-2.8673,-0.008014525,0.65124
714.433,76.6395,-2.86824,-0.008966301,0.6506
715.133,76.71001,-2.86993,-0.008682922,0.64996
715.833,76.78057,-2.86993,-0.00333293,0.64932
716.533,76.85135,-2.86993,-0.009768149,0.64868
717.233,76.92217,-2.86861,-0.008809737,0.64803
717.933,76.99299,-2.86852,-0.009652373,0.64739
718.633,77.06373,-2.86763,-0.01017079,0.64675
719.333,77.13463,-2.86772,-0.0146096,0.64611
720.033,77.2054,-2.86664,-0.01343893,0.64547
720.733,77.27641,-2.86828,-0.01609242,0.64483
721.433,77.34722,-2.8719,-0.01773497,0.64418
722.133,77.418,-2.87324,-0.01891318,0.64354
722.833,77.4889,-2.87457,-0.01292849,0.6429
723.533,77.56007,-2.86948,-0.01909952,0.64226
724.233,77.63139,-2.87026,-0.01415046,0.64162
724.933,77.70226,-2.87024,-0.01616912,0.64098
725.633,77.7732,-2.86929,-0.02079042,0.64034
726.333,77.84427,-2.8662,-0.0278496,0.63969
727.033,77.91539,-2.86599,-0.02120443,0.63905
727.733,77.98645,-2.86607,-0.02285885,0.63841
728.433,78.05721,-2.86983,-0.02066878,0.63777
729.133,78.12812,-2.87337,-0.01607556,0.63713
729.833,78.19888,-2.87735,-0.0173413,0.63649
730.533,78.26987,-2.87608,-0.02048212,0.63585
731.233,78.34079,-2.87613,-0.01925883,0.63521
731.933,78.41166,-2.87629,-0.02234845,0.63457
732.633,78.48212,-2.87438,-0.02499063,0.63393
733.333,78.55275,-2.87169,-0.0264782,0.63329
734.033,78.62339,-2.87104,-0.02726362,0.63265
734.733,78.69436,-2.87029,-0.03012068,0.632
735.433,78.76504,-2.87122,-0.02984016,0.63136
736.133,78.83576,-2.87046,-0.03135458,0.63072
736.833,78.90664,-2.87169,-0.03140431,0.63008
737.533,78.97751,-2.873,-0.03161694,0.62944
738.233,79.0484,-2.873,-0.03264367,0.6288
738.933,79.11907,-2.87432,-0.03327873,0.62816
739.633,79.18983,-2.87563,-0.02918255,0.62752
740.333,79.26044,-2.87528,-0.02988871,0.62688
741.033,79.33105,-2.87465,-0.03589871,0.62624
741.733,79.40187,-2.87464,-0.0373507,0.6256
742.433,79.4729,-2.87333,-0.03273222,0.62496
743.133,79.54382,-2.87296,-0.0340577,0.62432
743.833,79.6147,-2.87167,-0.04018657,0.62368
744.533,79.68531,-2.873,-0.03722246,0.62305
745.233,79.75617,-2.87356,-0.03912744,0.62241
745.933,79.82688,-2.87234,-0.0357836,0.62177
746.633,79.89766,-2.8736,-0.03439244,0.62113
747.333,79.9684,-2.87631,-0.03817354,0.62049
748.033,80.0393,-2.87625,-0.03575128,0.61985
748.733,80.11029,-2.87761,-0.03765263,0.61921
749.433,80.18115,-2.87695,-0.03661894,0.61857
750.133,80.25199,-2.87556,-0.03479378,0.61793
750.833,80.32275,-2.87432,-0.03692666,0.61729
751.533,80.39375,-2.87301,-0.04061124,0.61666
752.233,80.46475,-2.873,-0.04221554,0.61602
752.933,80.53585,-2.8744,-0.04212644,0.61538
753.633,80.60688,-2.87562,-0.04232396,0.61474
754.333,80.6781,-2.87697,-0.04364804,0.6141
755.033,80.74922,-2.87695,-0.04405557,0.61346
755.733,80.82039,-2.87626,-0.04703531,0.61283
756.433,80.89115,-2.87433,-0.04796521,0.61219
757.133,80.9619,-2.87396,-0.04459267,0.61155
757.833,81.03273,-2.87426,-0.04881409,0.61091
758.533,81.10379,-2.87721,-0.04957927,0.61028
759.233,81.17482,-2.87925,-0.05102351,0.60964
759.933,81.24566,-2.87924,-0.050942,0.609
760.633,81.31652,-2.87926,-0.04647734,0.60836
761.333,81.38747,-2.87613,-0.0508003,0.60773
762.033,81.45822,-2.87743,-0.05203683,0.60709
762.733,81.52932,-2.87882,-0.05270866,0.60645
763.433,81.60038,-2.87882,-0.04943096,0.60582
764.133,81.67164,-2.88156,-0.04912439,0.60518
764.833,81.74263,-2.88015,-0.05128222,0.60454
765.533,81.81354,-2.87872,-0.05744719,0.60391
766.233,81.8844,-2.87843,-0.05699998,0.60327
766.933,81.95531,-2.87537,-0.0538021,0.60263
767.633,82.0263,-2.87434,-0.05550408,0.602
768.333,82.09721,-2.87579,-0.05116525,0.60136
769.033,82.1681,-2.87606,-0.05022348,0.60073
769.733,82.23899,-2.87917,-0.04783844,0.60009
770.433,82.31,-2.88134,-0.0519517,0.59946
771.133,82.38091,-2.882,-0.04833246,0.59882
771.833,82.45176,-2.88068,-0.05155181,0.59819
772.533,82.52263,-2.88056,-0.05114851,0.59755
773.233,82.59347,-2.88068,-0.05424354,0.59691
773.933,82.6644,-2.88069,-0.05496384,0.59628
774.633,82.73514,-2.88063,-0.05422294,0.59565
775.333,82.80597,-2.88073,-0.0565263,0.59501
776.033,82.8767,-2.87937,-0.05468073,0.59438
776.733,82.94763,-2.87918,-0.0566138,0.59374
777.433,83.0185,-2.87739,-0.05685513,0.59311
778.133,83.0894,-2.87883,-0.05708771,0.59247
778.833,83.16027,-2.88156,-0.05585061,0.59184
779.533,83.2312,-2.88288,-0.05548486,0.59121
780.233,83.30239,-2.88156,-0.06183805,0.59057
780.933,83.37331,-2.88184,-0.06568782,0.58994
781.633,83.44439,-2.88146,-0.06449521,0.5893
782.333,83.51527,-2.88206,-0.06326667,0.58867
783.033,83.58649,-2.88277,-0.06792772,0.58804
783.733,83.65729,-2.88537,-0.0684586,0.58741
784.433,83.72798,-2.88292,-0.07021295,0.58677
785.133,83.79876,-2.88277,-0.07298285,0.58614
785.833,83.86966,-2.88277,-0.073209,0.58551
786.533,83.94059,-2.88673,-0.07755613,0.58488
787.233,84.0115,-2.886,-0.07559027,0.58424
787.933,84.0826,-2.88334,-0.0802675,0.58361
788.633,84.15344,-2.88207,-0.07874599,0.58298
789.333,84.22446,-2.8798,-0.07862839,0.58235
790.033,84.29541,-2.8798,-0.07912323,0.58172
790.733,84.36666,-2.88096,-0.08080841,0.58108
791.433,84.4378,-2.88342,-0.0813455,0.58045
792.133,84.5088,-2.88341,-0.08582558,0.57982
792.833,84.58001,-2.88211,-0.08434584,0.57919
793.533,84.65122,-2.8798,-0.08491219,0.57856
794.233,84.72246,-2.88253,-0.08475328,0.57793
794.933,84.7934,-2.88363,-0.08568211,0.5773
795.633,84.86435,-2.88468,-0.09199959,0.57667
796.333,84.93561,-2.88441,-0.09243212,0.57604
797.033,85.00681,-2.88441,-0.0953822,0.57541
797.733,85.0779,-2.88449,-0.09729098,0.57478
798.433,85.14887,-2.88158,-0.09985365,0.57415
799.133,85.21989,-2.88003,-0.10247,0.57352
799.833,85.29094,-2.87929,-0.10893,0.57289
800.533,85.36222,-2.87872,-0.10397,0.57226
801.233,85.43348,-2.88201,-0.10435,0.57163
801.933,85.5048,-2.88643,-0.10196,0.571
802.633,85.57611,-2.89132,-0.09912361,0.57037
803.333,85.64746,-2.89175,-0.09681192,0.56975
804.033,85.71866,-2.88756,-0.10173,0.56912
804.733,85.7897,-2.88298,-0.1037,0.56849
805.433,85.86065,-2.88129,-0.1033,0.56786
806.133,85.93176,-2.8837,-0.10474,0.56723
806.833,86.00299,-2.88309,-0.10529,0.56661
807.533,86.07427,-2.88748,-0.10394,0.56598
808.233,86.14537,-2.889,-0.10289,0.56535
808.933,86.21627,-2.89033,-0.10226,0.56472
809.633,86.2873,-2.888,-0.10616,0.5641
810.333,86.35845,-2.88594,-0.10313,0.56347
811.033,86.4297,-2.88595,-0.10374,0.56284
811.733,86.50075,-2.88463,-0.10367,0.56222
812.433,86.57177,-2.88595,-0.10636,0.56159
813.133,86.64295,-2.88763,-0.10701,0.56097
813.833,86.71426,-2.88768,-0.10458,0.56034
814.533,86.78559,-2.88656,-0.10526,0.55971
815.233,86.8567,-2.88372,-0.10923,0.55909
815.933,86.92777,-2.88228,-0.10779,0.55846
816.633,86.99875,-2.88492,-0.11321,0.55784
817.333,87.06993,-2.88518,-0.11144,0.55721
818.033,87.1412,-2.88649,-0.10888,0.55659
818.733,87.21245,-2.88794,-0.11045,0.55596
819.433,87.28366,-2.89055,-0.10997,0.55534
820.133,87.35494,-2.89187,-0.10834,0.55472
820.833,87.4263,-2.89058,-0.11265,0.55409
821.533,87.4974,-2.88923,-0.11438,0.55347
822.233,87.56832,-2.88918,-0.11077,0.55285
822.933,87.63928,-2.88794,-0.11428,0.55222
823.633,87.71036,-2.88525,-0.11136,0.5516
824.333,87.78163,-2.88608,-0.11451,0.55098
825.033,87.85284,-2.88685,-0.11076,0.55035
825.733,87.9241,-2.88763,-0.11322,0.54973
826.433,87.9954,-2.88974,-0.11152,0.54911
827.133,88.06666,-2.89055,-0.11255,0.54849
827.833,88.1378,-2.89055,-0.10811,0.54787
828.533,88.20907,-2.89055,-0.10973,0.54724
829.233,88.28033,-2.89352,-0.11172,0.54662
829.933,88.3516,-2.89354,-0.11306,0.546
830.633,88.42265,-2.88962,-0.11233,0.54538
831.333,88.49368,-2.88658,-0.11061,0.54476
832.033,88.56474,-2.88611,-0.10983,0.54414
832.733,88.63575,-2.88563,-0.11736,0.54352
833.433,88.7068,-2.88361,-0.1142,0.5429
834.133,88.77785,-2.88505,-0.11637,0.54228
834.833,88.84875,-2.88523,-0.11038,0.54166
835.533,88.91949,-2.88924,-0.11478,0.54104
836.233,88.99046,-2.8906,-0.11411,0.54042
836.933,89.06144,-2.89568,-0.11639,0.5398
837.633,89.13249,-2.89584,-0.11882,0.53918
838.333,89.20348,-2.89176,-0.11771,0.53856
839.033,89.27436,-2.89046,-0.11959,0.53795
839.733,89.34545,-2.88912,-0.11517,0.53733
840.433,89.4164,-2.8898,-0.1204,0.53671
841.133,89.4877,-2.89035,-0.12,0.53609
841.833,89.55861,-2.89133,-0.11202,0.53547
842.533,89.62984,-2.8935,-0.11642,0.53486
843.233,89.70113,-2.89385,-0.11403,0.53424
843.933,89.77271,-2.8954,-0.11869,0.53362
844.633,89.84407,-2.89693,-0.11251,0.53301
845.333,89.91552,-2.89429,-0.1155,0.53239
846.033,89.98699,-2.88901,-0.11604,0.53177
846.133,89.99753,-2.8886,-0.11631,0.53169