File: 01_Data/Pine_Lap_Siding_Paint/MCC/Pine_Lap_Siding_Paint_MCC_30K_min_211122_R3.txt
Sample ID:	C:\MCC\MCC Cal\Test\PineLap_SidingA_MCC_30K_min_211122_R3.txt
Sample Weight (mg):	4.83
Heating Rate (C/s):	0.5
Combustor Temp (C):	900
N2 Flow Rate (cc/min):	80
O2 Flow Rate (cc/min):	20
Calibration File:	C:\MCC\MCC Cal\Coeff1 JN10440_30_210304.txt.txt
T Correction Coefficients:	0	1.024463	0
Time Shift (s):	14
*
Time (s)	Temperature (C)	N2 flow rate (cc/min)	O2 flow rate (cc/min)	Flow Rate (cc/min)	Oxygen (%)	HRR (W/g)	Heating rate (C/s)
0.000	108.766	80.004	19.994	103.137	20.044	0.331	0.005
2.000	108.766	80.006	19.995	103.139	20.048	0.056	0.011
4.000	108.765	80.005	19.994	103.143	20.043	0.373	0.008
6.000	108.731	80.005	19.994	103.140	20.045	0.215	-0.011
8.000	108.768	80.005	19.994	103.140	20.045	0.242	-0.002
10.000	108.750	80.005	19.995	103.140	20.041	0.496	-0.004
12.001	108.719	80.003	19.995	103.131	20.039	0.618	0.006
14.000	108.730	80.005	19.996	103.122	20.045	0.225	-0.011
16.000	108.715	80.004	19.996	103.139	20.042	0.469	-0.023
18.000	108.726	80.005	19.995	103.138	20.039	0.647	0.002
20.000	108.728	80.003	19.996	103.142	20.040	0.577	0.004
22.000	108.774	80.004	19.995	103.147	20.039	0.615	0.014
24.000	108.759	80.006	19.994	103.170	20.041	0.526	-0.014
26.000	108.823	80.005	19.996	103.176	20.034	0.953	0.019
28.000	108.874	80.006	19.995	103.179	20.033	1.070	0.065
30.000	108.929	80.004	19.995	103.202	20.027	1.417	0.038
32.000	109.031	80.007	19.995	103.251	20.024	1.649	0.056
34.001	109.142	80.008	19.995	103.252	20.021	1.842	0.039
36.001	109.240	80.007	19.994	103.231	20.020	1.904	0.058
38.000	109.437	80.008	19.995	103.221	20.018	2.044	0.072
40.001	109.579	80.006	19.996	103.225	20.019	2.006	0.084
42.000	109.716	80.007	19.996	103.247	20.015	2.236	0.099
44.001	109.941	80.004	19.995	103.251	20.014	2.296	0.117
46.001	110.137	80.005	19.996	103.274	20.009	2.645	0.105
48.000	110.384	80.008	19.995	103.273	20.008	2.681	0.127
50.000	110.599	80.005	19.995	103.293	20.008	2.732	0.123
52.000	110.862	80.006	19.995	103.293	20.005	2.887	0.130
54.000	111.209	80.008	19.994	103.308	20.005	2.912	0.162
56.000	111.527	80.008	19.994	103.299	20.005	2.923	0.184
58.000	111.900	80.006	19.994	103.313	20.006	2.863	0.172
60.000	112.222	80.006	19.993	103.340	20.002	3.111	0.184
62.000	112.677	80.008	19.994	103.337	19.998	3.379	0.199
64.000	113.086	80.008	19.994	103.362	19.998	3.354	0.226
66.000	113.542	80.006	19.994	103.385	19.996	3.542	0.240
68.000	114.071	80.004	19.994	103.382	19.994	3.661	0.243
70.001	114.550	80.005	19.994	103.386	19.993	3.684	0.261
72.000	115.096	80.005	19.995	103.396	19.993	3.689	0.261
74.000	115.693	80.004	19.994	103.409	19.994	3.680	0.352
76.000	116.260	80.003	19.994	103.396	19.996	3.493	0.296
78.001	116.866	80.007	19.996	103.383	19.997	3.435	0.298
80.000	117.506	80.005	19.995	103.383	19.994	3.632	0.288
82.000	118.168	80.007	19.995	103.368	19.996	3.517	0.339
84.000	118.805	80.004	19.994	103.371	19.994	3.620	0.338
86.000	119.480	80.004	19.994	103.371	19.992	3.784	0.334
88.000	120.167	80.005	19.995	103.373	19.994	3.659	0.357
90.000	120.911	80.006	19.994	103.385	19.991	3.816	0.352
92.000	121.692	80.007	19.995	103.384	19.989	3.979	0.370
94.000	122.450	80.007	19.995	103.372	19.989	3.977	0.389
96.000	123.195	80.006	19.993	103.373	19.989	3.973	0.375
98.000	124.039	80.007	19.995	103.379	19.993	3.734	0.417
100.000	124.795	80.004	19.995	103.374	19.992	3.808	0.376
102.000	125.609	80.004	19.995	103.403	19.992	3.786	0.413
104.000	126.433	80.005	19.995	103.415	19.991	3.828	0.395
106.000	127.266	80.004	19.995	103.409	19.995	3.584	0.402
108.000	128.126	80.003	19.995	103.384	19.997	3.470	0.446
110.000	128.965	80.006	19.995	103.421	19.994	3.622	0.422
112.000	129.859	80.003	19.995	103.413	19.991	3.875	0.447
114.000	130.737	80.005	19.995	103.415	19.991	3.840	0.451
116.000	131.625	80.007	19.995	103.398	19.988	4.073	0.440
118.001	132.537	80.007	19.994	103.388	19.990	3.891	0.465
120.000	133.523	80.007	19.994	103.406	19.993	3.709	0.464
122.000	134.416	80.006	19.994	103.407	19.988	4.015	0.506
124.000	135.354	80.006	19.994	103.405	19.986	4.154	0.498
126.001	136.290	80.005	19.994	103.384	19.988	4.082	0.479
128.000	137.210	80.005	19.995	103.405	19.988	4.071	0.470
130.000	138.153	80.004	19.995	103.410	19.991	3.860	0.451
132.000	139.176	80.004	19.995	103.406	19.989	3.982	0.455
134.000	140.144	80.005	19.995	103.332	19.988	4.047	0.503
136.000	141.099	80.006	19.995	103.472	19.992	3.801	0.410
138.000	142.087	80.006	19.994	103.407	19.990	3.917	0.478
140.000	143.043	80.006	19.995	103.391	19.991	3.867	0.483
142.000	144.028	80.006	19.994	103.399	19.989	3.978	0.449
144.000	145.081	80.007	19.995	103.386	19.988	4.037	0.495
146.000	146.100	80.007	19.995	103.377	19.987	4.087	0.497
148.000	147.088	80.006	19.994	103.374	19.986	4.208	0.500
150.000	148.050	80.006	19.995	103.370	19.987	4.101	0.481
152.000	149.068	80.005	19.994	103.398	19.990	3.939	0.498
154.000	150.087	80.005	19.995	103.375	19.988	4.015	0.508
156.000	151.066	80.005	19.994	103.376	19.991	3.877	0.468
158.000	152.099	80.005	19.995	103.393	19.993	3.733	0.535
160.000	153.117	80.004	19.995	103.392	19.991	3.843	0.508
162.000	154.108	80.005	19.993	103.371	19.987	4.099	0.507
164.000	155.134	80.006	19.994	103.359	19.989	4.001	0.524
166.000	156.130	80.004	19.994	103.371	19.991	3.846	0.486
168.000	157.135	80.005	19.994	103.371	19.988	4.051	0.481
170.000	158.196	80.007	19.995	103.381	19.988	4.053	0.525
172.000	159.185	80.007	19.995	103.378	19.991	3.819	0.535
174.000	160.228	80.006	19.995	103.371	19.989	3.986	0.533
176.000	161.234	80.005	19.994	103.371	19.990	3.938	0.555
178.000	162.200	80.006	19.996	103.356	19.994	3.649	0.482
180.000	163.181	80.006	19.994	103.341	19.992	3.786	0.511
182.000	164.234	80.005	19.996	103.354	19.993	3.727	0.523
184.000	165.232	80.005	19.995	103.360	19.989	3.955	0.499
186.000	166.287	80.005	19.994	103.338	19.990	3.938	0.501
188.000	167.283	80.006	19.996	103.360	19.993	3.736	0.501
190.000	168.241	80.004	19.995	103.369	19.995	3.574	0.498
192.000	169.292	80.005	19.997	103.367	19.996	3.527	0.551
194.000	170.273	80.007	19.994	103.354	19.994	3.618	0.497
196.000	171.255	80.005	19.995	103.359	19.995	3.570	0.503
198.000	172.257	80.006	19.994	103.348	19.991	3.840	0.515
200.000	173.214	80.006	19.995	103.355	19.991	3.818	0.486
202.000	174.216	80.007	19.995	103.350	19.994	3.666	0.473
204.000	175.240	80.007	19.995	103.346	19.992	3.752	0.502
206.000	176.188	80.005	19.995	103.350	19.994	3.613	0.465
208.000	177.202	80.005	19.996	103.343	19.994	3.648	0.492
210.000	178.182	80.005	19.995	103.338	19.995	3.595	0.449
212.000	179.159	80.007	19.995	103.333	19.992	3.785	0.485
214.000	180.139	80.005	19.994	103.332	19.994	3.653	0.513
216.000	181.109	80.007	19.995	103.331	19.992	3.783	0.484
218.000	182.144	80.007	19.996	103.331	19.995	3.573	0.501
220.000	183.136	80.008	19.995	103.327	19.997	3.479	0.508
222.000	184.079	80.007	19.994	103.326	19.994	3.670	0.470
224.000	185.082	80.009	19.994	103.330	19.993	3.692	0.489
226.000	186.043	80.008	19.995	103.330	19.991	3.825	0.499
228.000	187.035	80.007	19.995	103.329	19.990	3.888	0.491
230.000	188.012	80.009	19.995	103.325	19.992	3.801	0.500
232.000	188.963	80.006	19.996	103.331	19.994	3.677	0.508
234.000	189.920	80.006	19.995	103.329	19.991	3.823	0.473
236.000	190.935	80.004	19.996	103.337	19.992	3.765	0.477
238.000	191.843	80.004	19.996	103.329	19.993	3.730	0.466
240.000	192.832	80.003	19.995	103.327	19.990	3.934	0.483
242.000	193.813	80.005	19.996	103.331	19.991	3.850	0.478
244.000	194.724	80.005	19.994	103.329	19.987	4.112	0.470
246.000	195.696	80.005	19.995	103.331	19.987	4.081	0.495
248.000	196.675	80.006	19.995	103.331	19.989	3.988	0.502
250.000	197.686	80.006	19.995	103.334	19.991	3.832	0.523
252.000	198.637	80.004	19.995	103.327	19.988	4.074	0.487
254.000	199.591	80.005	19.994	103.332	19.992	3.752	0.470
256.000	200.582	80.005	19.994	103.321	19.988	4.029	0.484
258.000	201.525	80.005	19.994	103.316	19.989	3.965	0.467
260.000	202.536	80.006	19.994	103.322	19.990	3.943	0.479
262.000	203.512	80.005	19.995	103.321	19.990	3.916	0.502
264.000	204.490	80.006	19.995	103.326	19.989	3.969	0.506
266.000	205.463	80.004	19.994	103.332	19.991	3.854	0.507
268.000	206.456	80.004	19.994	103.337	19.991	3.837	0.493
270.000	207.450	80.004	19.995	103.336	19.988	4.080	0.499
272.000	208.444	80.005	19.995	103.339	19.992	3.803	0.504
274.000	209.429	80.004	19.994	103.337	19.992	3.768	0.485
276.000	210.431	80.005	19.994	103.335	19.991	3.824	0.483
278.000	211.447	80.006	19.994	103.332	19.992	3.788	0.527
280.001	212.403	80.007	19.994	103.330	19.991	3.853	0.503
282.000	213.424	80.007	19.994	103.331	19.989	3.962	0.506
284.000	214.368	80.007	19.995	103.325	19.991	3.877	0.524
286.000	215.368	80.007	19.994	103.317	19.990	3.896	0.511
288.000	216.379	80.007	19.995	103.320	19.991	3.861	0.473
290.000	217.365	80.007	19.994	103.324	19.991	3.837	0.492
292.000	218.391	80.006	19.994	103.316	19.988	4.039	0.510
294.000	219.335	80.007	19.995	103.317	19.989	3.962	0.513
296.000	220.328	80.006	19.994	103.327	19.990	3.908	0.496
298.000	221.321	80.007	19.995	103.328	19.992	3.801	0.500
300.000	222.306	80.007	19.996	103.331	19.989	4.008	0.493
302.000	223.277	80.008	19.994	103.325	19.989	4.002	0.507
304.000	224.289	80.006	19.995	103.316	19.992	3.788	0.520
306.000	225.287	80.008	19.996	103.309	19.992	3.756	0.493
308.000	226.284	80.008	19.995	103.318	19.993	3.744	0.507
310.000	227.251	80.009	19.994	103.318	19.991	3.829	0.471
312.000	228.264	80.007	19.995	103.298	19.994	3.633	0.551
314.000	229.286	80.007	19.994	103.324	19.990	3.916	0.520
316.000	230.271	80.005	19.995	103.313	19.984	4.299	0.470
318.000	231.288	80.005	19.996	103.303	19.987	4.139	0.465
320.000	232.288	80.005	19.995	103.299	19.986	4.162	0.456
322.000	233.282	80.006	19.995	103.309	19.985	4.245	0.487
324.000	234.269	80.004	19.994	103.302	19.981	4.531	0.493
326.000	235.277	80.005	19.996	103.294	19.986	4.156	0.502
328.000	236.237	80.003	19.994	103.297	19.984	4.347	0.469
330.000	237.241	80.004	19.995	103.305	19.987	4.140	0.488
332.001	238.263	80.003	19.995	103.308	19.986	4.177	0.490
334.000	239.258	80.004	19.994	103.332	19.990	3.918	0.494
336.000	240.238	80.005	19.995	103.331	19.986	4.206	0.472
338.000	241.262	80.003	19.994	103.329	19.989	4.009	0.526
340.001	242.236	80.006	19.995	103.326	19.985	4.248	0.460
342.000	243.220	80.006	19.994	103.315	19.984	4.311	0.518
344.000	244.234	80.005	19.993	103.307	19.986	4.184	0.484
346.000	245.259	80.005	19.995	103.305	19.989	3.998	0.490
348.000	246.223	80.006	19.995	103.302	19.992	3.758	0.488
350.000	247.236	80.003	19.994	103.300	19.987	4.142	0.491
352.000	248.225	80.006	19.995	103.292	19.984	4.313	0.457
354.000	249.245	80.004	19.994	103.301	19.982	4.466	0.506
356.000	250.327	80.004	19.994	103.296	19.984	4.304	0.544
358.000	251.264	80.005	19.994	103.293	19.979	4.644	0.471
360.000	252.307	80.006	19.994	103.293	19.984	4.338	0.498
362.000	253.223	80.005	19.995	103.292	19.983	4.362	0.275
364.000	254.195	80.006	19.994	103.289	19.981	4.533	0.615
366.000	255.092	80.008	19.994	103.291	19.978	4.683	0.529
368.000	256.280	80.007	19.994	103.283	19.983	4.362	0.725
370.000	257.223	80.007	19.994	103.291	19.980	4.561	0.443
372.000	258.186	80.005	19.994	103.289	19.983	4.389	0.419
374.000	259.282	80.007	19.993	103.282	19.982	4.435	0.517
376.000	260.165	80.006	19.994	103.288	19.980	4.568	0.465
378.000	261.177	80.005	19.994	103.299	19.978	4.701	0.468
380.000	262.088	80.006	19.992	103.292	19.982	4.464	0.480
382.000	263.105	80.006	19.994	103.292	19.983	4.349	0.510
384.000	264.054	80.005	19.995	103.295	19.982	4.444	0.489
386.000	265.014	80.007	19.994	103.293	19.983	4.391	0.487
388.000	265.961	80.008	19.994	103.292	19.983	4.404	0.470
390.000	266.903	80.007	19.994	103.294	19.983	4.395	0.475
392.000	267.902	80.009	19.994	103.290	19.984	4.289	0.465
394.000	268.879	80.007	19.995	103.290	19.982	4.479	0.491
396.000	269.858	80.005	19.994	103.291	19.978	4.699	0.495
398.000	270.830	80.006	19.994	103.291	19.986	4.196	0.513
400.000	271.799	80.006	19.995	103.283	19.982	4.451	0.489
402.000	272.750	80.005	19.995	103.293	19.981	4.544	0.446
404.000	273.711	80.004	19.994	103.293	19.984	4.287	0.476
406.000	274.661	80.005	19.994	103.294	19.982	4.415	0.471
408.000	275.596	80.005	19.995	103.288	19.983	4.398	0.454
410.000	276.567	80.005	19.994	103.287	19.981	4.528	0.465
412.000	277.532	80.006	19.995	103.287	19.979	4.619	0.487
414.000	278.498	80.006	19.994	103.286	19.982	4.468	0.468
416.000	279.509	80.006	19.994	103.289	19.984	4.340	0.500
418.000	280.449	80.005	19.996	103.287	19.981	4.522	0.471
420.000	281.460	80.005	19.996	103.289	19.975	4.903	0.509
422.000	282.431	80.005	19.996	103.289	19.980	4.609	0.526
424.000	283.423	80.005	19.996	103.291	19.979	4.670	0.494
426.000	284.418	80.005	19.996	103.291	19.982	4.424	0.497
428.000	285.401	80.006	19.997	103.291	19.981	4.535	0.504
430.000	286.383	80.005	19.997	103.291	19.977	4.784	0.494
432.000	287.385	80.005	19.996	103.287	19.975	4.927	0.490
434.000	288.412	80.005	19.995	103.290	19.975	4.894	0.494
436.000	289.409	80.003	19.995	103.291	19.977	4.759	0.498
438.000	290.436	80.005	19.996	103.291	19.976	4.839	0.539
440.000	291.432	80.005	19.995	103.292	19.977	4.762	0.483
442.000	292.433	80.005	19.994	103.291	19.978	4.724	0.509
444.000	293.421	80.006	19.993	103.293	19.979	4.626	0.488
446.000	294.448	80.006	19.993	103.292	19.972	5.136	0.479
448.000	295.511	80.007	19.994	103.291	19.978	4.694	0.506
450.000	296.515	80.006	19.994	103.282	19.978	4.714	0.506
452.000	297.529	80.006	19.996	103.289	19.976	4.834	0.520
454.000	298.603	80.005	19.994	103.280	19.975	4.942	0.514
456.000	299.584	80.006	19.994	103.288	19.974	4.998	0.495
458.000	300.616	80.005	19.995	103.294	19.977	4.808	0.483
460.000	301.656	80.005	19.994	103.295	19.978	4.742	0.522
462.000	302.652	80.005	19.995	103.295	19.972	5.082	0.516
464.000	303.742	80.005	19.994	103.296	19.977	4.772	0.558
466.000	304.741	80.006	19.995	103.300	19.971	5.198	0.492
468.000	305.795	80.007	19.994	103.285	19.972	5.136	0.522
470.000	306.831	80.007	19.994	103.273	19.970	5.255	0.506
472.000	307.887	80.007	19.995	103.272	19.973	5.050	0.531
474.000	308.909	80.008	19.994	103.284	19.966	5.532	0.495
476.000	309.946	80.008	19.994	103.291	19.967	5.432	0.515
478.000	311.002	80.009	19.995	103.288	19.964	5.627	0.542
480.000	312.074	80.007	19.993	103.290	19.966	5.495	0.550
482.000	313.064	80.006	19.993	103.277	19.965	5.594	0.540
484.000	314.094	80.005	19.994	103.280	19.965	5.563	0.526
486.000	315.117	80.004	19.995	103.281	19.963	5.724	0.499
488.000	316.160	80.006	19.995	103.281	19.962	5.757	0.530
490.000	317.167	80.005	19.994	103.279	19.960	5.932	0.502
492.000	318.187	80.004	19.995	103.267	19.955	6.247	0.488
494.000	319.208	80.004	19.995	103.288	19.953	6.348	0.476
496.000	320.210	80.004	19.995	103.285	19.956	6.186	0.514
498.001	321.257	80.006	19.996	103.290	19.952	6.472	0.528
500.001	322.305	80.005	19.995	103.297	19.949	6.678	0.521
502.001	323.283	80.006	19.995	103.299	19.948	6.727	0.521
504.000	324.312	80.005	19.995	103.293	19.946	6.815	0.519
506.000	325.266	80.004	19.994	103.292	19.939	7.317	0.470
508.001	326.323	80.006	19.995	103.290	19.941	7.197	0.531
510.000	327.292	80.005	19.995	103.279	19.937	7.448	0.505
512.000	328.287	80.005	19.994	103.264	19.937	7.447	0.487
514.000	329.282	80.005	19.996	103.266	19.934	7.677	0.475
516.000	330.294	80.004	19.995	103.287	19.930	7.948	0.521
518.000	331.265	80.004	19.995	103.293	19.929	7.960	0.504
520.000	332.254	80.002	19.995	103.293	19.929	7.950	0.500
522.000	333.259	80.003	19.995	103.283	19.926	8.201	0.512
524.000	334.259	80.003	19.996	103.262	19.922	8.449	0.510
526.000	335.259	80.004	19.994	103.271	19.926	8.193	0.524
528.000	336.227	80.005	19.996	103.287	19.919	8.652	0.459
530.000	337.236	80.005	19.994	103.269	19.921	8.528	0.470
532.000	338.192	80.007	19.994	103.283	19.917	8.811	0.479
534.000	339.196	80.007	19.995	103.277	19.919	8.645	0.497
536.000	340.185	80.006	19.994	103.269	19.923	8.390	0.492
538.000	341.128	80.006	19.994	103.285	19.918	8.713	0.484
540.000	342.120	80.006	19.994	103.272	19.918	8.687	0.489
542.000	343.137	80.005	19.994	103.276	19.918	8.684	0.519
544.000	344.068	80.007	19.994	103.283	19.917	8.761	0.485
546.000	345.068	80.005	19.994	103.277	19.918	8.733	0.476
548.000	346.076	80.005	19.995	103.285	19.922	8.479	0.478
550.000	347.075	80.006	19.995	103.286	19.921	8.526	0.488
552.000	348.101	80.007	19.995	103.272	19.922	8.430	0.489
554.000	349.120	80.007	19.994	103.268	19.919	8.633	0.533
556.000	350.146	80.007	19.994	103.280	19.919	8.627	0.515
558.000	351.161	80.008	19.995	103.279	19.916	8.859	0.487
560.000	352.188	80.007	19.995	103.269	19.923	8.403	0.539
562.000	353.255	80.008	19.994	103.273	19.920	8.562	0.542
564.000	354.320	80.008	19.995	103.271	19.918	8.697	0.516
566.000	355.313	80.006	19.995	103.282	19.921	8.532	0.513
568.000	356.358	80.005	19.994	103.282	19.922	8.429	0.515
570.000	357.421	80.005	19.994	103.276	19.921	8.494	0.502
572.000	358.449	80.005	19.994	103.277	19.923	8.388	0.525
574.000	359.484	80.006	19.994	103.272	19.923	8.370	0.543
576.000	360.485	80.007	19.995	103.279	19.921	8.534	0.493
578.000	361.546	80.005	19.994	103.278	19.926	8.158	0.530
580.000	362.577	80.005	19.995	103.267	19.925	8.249	0.492
582.000	363.605	80.006	19.994	103.272	19.922	8.435	0.513
584.000	364.678	80.005	19.994	103.283	19.924	8.344	0.522
586.000	365.760	80.004	19.993	103.267	19.918	8.699	0.539
588.000	366.710	80.006	19.995	103.266	19.920	8.614	0.489
590.000	367.778	80.004	19.995	103.264	19.918	8.697	0.518
592.000	368.833	80.004	19.994	103.276	19.919	8.626	0.548
594.000	369.915	80.002	19.994	103.262	19.920	8.605	0.517
596.000	370.954	80.004	19.995	103.255	19.912	9.105	0.526
598.000	372.015	80.004	19.995	103.262	19.917	8.797	0.526
600.000	373.023	80.004	19.995	103.280	19.911	9.156	0.569
602.000	374.070	80.004	19.995	103.264	19.912	9.131	0.517
604.000	375.121	80.004	19.995	103.272	19.906	9.536	0.540
606.000	376.141	80.005	19.995	103.256	19.905	9.572	0.539
608.000	377.209	80.005	19.994	103.251	19.902	9.775	0.561
610.000	378.219	80.006	19.995	103.253	19.895	10.245	0.508
612.000	379.273	80.006	19.995	103.254	19.893	10.349	0.516
614.000	380.251	80.006	19.995	103.264	19.890	10.581	0.504
616.000	381.327	80.004	19.995	103.268	19.882	11.143	0.518
618.000	382.279	80.005	19.995	103.257	19.886	10.874	0.495
620.000	383.346	80.007	19.995	103.249	19.877	11.417	0.543
622.000	384.338	80.006	19.996	103.249	19.872	11.756	0.483
624.000	385.338	80.006	19.995	103.256	19.870	11.932	0.512
626.000	386.341	80.006	19.995	103.259	19.866	12.206	0.502
628.000	387.365	80.005	19.994	103.256	19.858	12.702	0.485
630.000	388.383	80.006	19.994	103.247	19.855	12.950	0.510
632.000	389.349	80.007	19.994	103.246	19.850	13.251	0.497
634.000	390.392	80.007	19.994	103.264	19.842	13.769	0.515
636.000	391.384	80.006	19.994	103.250	19.835	14.277	0.485
638.000	392.402	80.007	19.994	103.232	19.834	14.304	0.487
640.000	393.442	80.008	19.994	103.262	19.828	14.718	0.522
642.000	394.390	80.010	19.994	103.275	19.822	15.143	0.508
644.000	395.409	80.006	19.994	103.253	19.815	15.560	0.504
646.000	396.410	80.007	19.995	103.255	19.807	16.093	0.485
648.000	397.418	80.006	19.994	103.251	19.799	16.640	0.509
650.000	398.414	80.005	19.995	103.253	19.797	16.802	0.519
652.000	399.409	80.005	19.994	103.261	19.790	17.259	0.500
654.000	400.365	80.007	19.995	103.257	19.783	17.711	0.485
656.000	401.347	80.006	19.995	103.252	19.778	18.031	0.509
658.000	402.315	80.006	19.994	103.241	19.774	18.342	0.489
660.001	403.314	80.005	19.994	103.253	19.769	18.676	0.507
662.000	404.271	80.007	19.996	103.257	19.764	18.963	0.471
664.000	405.233	80.007	19.994	103.257	19.765	18.939	0.476
666.000	406.248	80.004	19.993	103.266	19.764	19.007	0.510
668.000	407.184	80.006	19.995	103.273	19.759	19.285	0.478
670.000	408.223	80.005	19.993	103.262	19.761	19.173	0.485
672.000	409.206	80.007	19.994	103.249	19.758	19.414	0.537
674.000	410.168	80.007	19.994	103.251	19.760	19.239	0.507
676.000	411.176	80.005	19.994	103.254	19.759	19.345	0.487
678.000	412.181	80.005	19.995	103.247	19.757	19.467	0.529
680.000	413.162	80.004	19.995	103.241	19.765	18.908	0.530
682.000	414.132	80.005	19.995	103.249	19.767	18.783	0.492
684.000	415.121	80.005	19.996	103.251	19.771	18.511	0.494
686.000	416.105	80.004	19.995	103.255	19.769	18.654	0.494
688.000	417.114	80.005	19.995	103.251	19.776	18.182	0.541
690.000	418.130	80.005	19.995	103.255	19.788	17.356	0.519
692.000	419.104	80.006	19.994	103.259	19.795	16.889	0.517
694.000	420.117	80.009	19.996	103.265	19.802	16.425	0.529
696.000	421.135	80.007	19.995	103.292	19.814	15.615	0.505
698.000	422.140	80.008	19.996	103.283	19.815	15.589	0.498
700.000	423.112	80.007	19.994	103.265	19.827	14.765	0.495
702.000	424.135	80.007	19.994	103.277	19.835	14.233	0.498
704.000	425.213	80.008	19.996	103.258	19.839	13.966	0.536
706.000	426.198	80.006	19.995	103.229	19.849	13.312	0.479
708.000	427.241	80.005	19.995	103.224	19.857	12.804	0.505
710.000	428.214	80.004	19.996	103.229	19.865	12.279	0.498
712.000	429.248	80.005	19.994	103.250	19.867	12.104	0.506
714.000	430.280	80.006	19.996	103.254	19.879	11.305	0.545
716.000	431.319	80.006	19.995	103.253	19.887	10.760	0.500
718.000	432.352	80.006	19.995	103.244	19.893	10.384	0.531
720.000	433.362	80.008	19.995	103.251	19.892	10.443	0.491
722.000	434.442	80.007	19.995	103.254	19.900	9.942	0.554
724.000	435.441	80.009	19.994	103.254	19.905	9.548	0.496
726.000	436.474	80.009	19.994	103.251	19.907	9.455	0.529
728.000	437.496	80.008	19.995	103.243	19.910	9.272	0.520
730.000	438.505	80.006	19.995	103.250	19.910	9.219	0.507
732.000	439.486	80.007	19.994	103.237	19.915	8.942	0.492
734.000	440.506	80.006	19.993	103.256	19.915	8.881	0.518
736.000	441.496	80.006	19.995	103.261	19.913	9.021	0.484
738.000	442.507	80.006	19.994	103.258	19.919	8.622	0.488
740.000	443.514	80.006	19.995	103.236	19.915	8.934	0.512
742.000	444.529	80.005	19.994	103.244	19.921	8.494	0.478
744.000	445.542	80.006	19.996	103.252	19.920	8.569	0.517
746.000	446.502	80.006	19.996	103.240	19.919	8.647	0.468
748.000	447.515	80.005	19.994	103.236	19.923	8.354	0.493
750.000	448.500	80.006	19.996	103.245	19.921	8.492	0.502
752.000	449.545	80.006	19.995	103.244	19.926	8.158	0.538
754.000	450.533	80.006	19.994	103.240	19.930	7.931	0.531
756.000	451.536	80.007	19.994	103.242	19.931	7.846	0.529
758.000	452.518	80.005	19.994	103.238	19.928	8.015	0.492
760.000	453.538	80.006	19.994	103.251	19.928	8.079	0.493
762.000	454.584	80.007	19.994	103.252	19.927	8.111	0.539
764.000	455.593	80.006	19.994	103.252	19.927	8.144	0.493
766.000	456.627	80.005	19.994	103.250	19.925	8.251	0.528
768.000	457.685	80.006	19.995	103.254	19.928	8.036	0.532
770.000	458.739	80.005	19.995	103.254	19.927	8.091	0.525
772.000	459.752	80.006	19.994	103.254	19.930	7.934	0.517
774.000	460.773	80.005	19.995	103.247	19.926	8.186	0.487
776.000	461.777	80.007	19.995	103.258	19.926	8.164	0.493
778.000	462.773	80.007	19.996	103.251	19.929	7.995	0.520
780.000	463.791	80.008	19.995	103.234	19.929	7.955	0.504
782.000	464.840	80.009	19.996	103.242	19.932	7.753	0.503
784.000	465.892	80.008	19.995	103.252	19.928	8.064	0.536
786.000	466.906	80.007	19.996	103.253	19.939	7.309	0.484
788.001	467.932	80.006	19.995	103.251	19.932	7.774	0.490
790.000	468.966	80.007	19.994	103.257	19.936	7.515	0.521
792.000	470.017	80.007	19.996	103.256	19.942	7.098	0.546
794.000	471.032	80.007	19.996	103.258	19.940	7.213	0.526
796.000	472.069	80.007	19.995	103.252	19.939	7.318	0.540
798.000	473.127	80.008	19.994	103.256	19.942	7.129	0.533
800.000	474.182	80.008	19.994	103.244	19.943	7.037	0.524
802.000	475.252	80.008	19.995	103.240	19.945	6.886	0.523
804.000	476.288	80.008	19.995	103.242	19.945	6.941	0.498
806.000	477.310	80.008	19.995	103.225	19.945	6.880	0.514
808.000	478.349	80.008	19.995	103.232	19.947	6.784	0.509
810.000	479.328	80.008	19.996	103.244	19.950	6.586	0.484
812.000	480.405	80.005	19.996	103.234	19.949	6.647	0.540
814.000	481.378	80.006	19.996	103.224	19.952	6.440	0.508
816.000	482.440	80.007	19.995	103.223	19.955	6.262	0.495
818.000	483.429	80.007	19.995	103.243	19.960	5.894	0.520
820.000	484.452	80.007	19.995	103.243	19.957	6.088	0.501
822.000	485.466	80.006	19.994	103.223	19.960	5.919	0.499
824.000	486.518	80.006	19.994	103.251	19.960	5.901	0.540
826.000	487.525	80.006	19.994	103.244	19.965	5.552	0.499
828.001	488.560	80.007	19.994	103.246	19.962	5.769	0.534
830.000	489.555	80.007	19.995	103.242	19.967	5.464	0.487
832.000	490.631	80.005	19.994	103.232	19.959	5.971	0.521
834.000	491.639	80.008	19.995	103.231	19.966	5.537	0.495
836.000	492.647	80.006	19.994	103.244	19.966	5.540	0.501
838.000	493.694	80.006	19.994	103.245	19.967	5.463	0.515
840.000	494.706	80.006	19.995	103.248	19.970	5.237	0.518
842.000	495.750	80.006	19.994	103.239	19.968	5.351	0.506
844.000	496.757	80.006	19.995	103.241	19.972	5.106	0.504
846.001	497.786	80.005	19.996	103.222	19.972	5.092	0.505
848.000	498.835	80.005	19.995	103.236	19.975	4.903	0.539
850.000	499.832	80.004	19.995	103.240	19.976	4.843	0.484
852.000	500.876	80.007	19.995	103.247	19.977	4.776	0.533
854.000	501.883	80.005	19.994	103.234	19.979	4.621	0.518
856.000	502.907	80.005	19.994	103.247	19.978	4.703	0.538
858.000	503.931	80.007	19.995	103.249	19.978	4.742	0.501
860.000	504.947	80.006	19.994	103.238	19.981	4.524	0.519
862.000	506.032	80.007	19.994	103.225	19.982	4.440	0.551
864.000	507.041	80.008	19.994	103.221	19.975	4.909	0.512
866.000	508.116	80.007	19.994	103.223	19.981	4.539	0.542
868.000	509.098	80.007	19.995	103.233	19.980	4.599	0.510
870.000	510.169	80.007	19.996	103.244	19.984	4.333	0.522
872.000	511.188	80.006	19.995	103.247	19.987	4.127	0.514
874.000	512.205	80.005	19.995	103.251	19.989	3.953	0.514
876.000	513.218	80.006	19.995	103.259	19.987	4.106	0.491
878.000	514.285	80.006	19.994	103.265	19.990	3.918	0.531
880.000	515.368	80.007	19.996	103.246	19.987	4.095	0.527
882.000	516.378	80.008	19.994	103.248	19.989	3.975	0.525
884.000	517.443	80.007	19.995	103.251	19.986	4.161	0.526
886.000	518.463	80.008	19.995	103.250	19.989	3.995	0.554
888.000	519.504	80.009	19.994	103.250	19.989	3.982	0.553
890.000	520.539	80.008	19.994	103.227	19.989	3.945	0.504
892.000	521.580	80.007	19.995	103.223	19.988	4.076	0.524
894.000	522.601	80.008	19.995	103.222	19.988	4.015	0.501
896.000	523.648	80.006	19.995	103.214	19.987	4.112	0.517
898.000	524.685	80.005	19.995	103.218	19.985	4.214	0.515
900.000	525.725	80.005	19.995	103.220	19.989	3.957	0.526
902.000	526.752	80.005	19.995	103.241	19.992	3.797	0.505
904.000	527.773	80.006	19.996	103.227	19.993	3.688	0.526
906.000	528.804	80.006	19.996	103.225	19.992	3.748	0.511
908.000	529.813	80.004	19.997	103.240	19.989	3.998	0.472
910.000	530.837	80.005	19.996	103.219	19.991	3.844	0.494
912.000	531.891	80.006	19.994	103.229	19.989	3.983	0.515
914.000	532.888	80.006	19.995	103.222	19.988	4.021	0.507
916.000	533.914	80.005	19.994	103.226	19.989	3.959	0.547
918.000	534.969	80.005	19.994	103.230	19.988	4.037	0.523
920.000	536.020	80.006	19.994	103.260	19.996	3.530	0.523
922.000	537.026	80.007	19.996	103.245	19.990	3.887	0.481
924.000	538.021	80.005	19.994	103.224	19.995	3.555	0.531
926.000	539.030	80.004	19.994	103.219	19.991	3.827	0.511
928.000	540.068	80.005	19.994	103.220	19.994	3.658	0.512
930.000	541.067	80.005	19.995	103.237	19.998	3.399	0.489
932.000	542.118	80.006	19.994	103.247	19.993	3.732	0.525
934.000	543.136	80.004	19.995	103.219	19.994	3.630	0.513
936.000	544.122	80.006	19.995	103.228	19.987	4.090	0.495
938.000	545.149	80.005	19.995	103.247	19.992	3.803	0.528
940.000	546.189	80.007	19.995	103.245	19.992	3.780	0.534
942.000	547.192	80.007	19.993	103.245	19.994	3.651	0.524
944.000	548.202	80.006	19.993	103.228	19.990	3.916	0.510
946.000	549.187	80.008	19.994	103.221	19.992	3.784	0.489
948.000	550.237	80.006	19.994	103.229	19.994	3.657	0.526
950.000	551.240	80.007	19.996	103.222	19.990	3.898	0.500
952.000	552.222	80.007	19.994	103.217	19.993	3.736	0.478
954.000	553.229	80.007	19.994	103.229	19.990	3.929	0.503
956.001	554.224	80.007	19.994	103.230	19.990	3.920	0.473
958.000	555.251	80.007	19.995	103.227	19.990	3.918	0.504
960.000	556.279	80.007	19.994	103.241	19.988	4.042	0.482
962.000	557.241	80.005	19.994	103.252	19.991	3.827	0.499
964.000	558.270	80.007	19.995	103.252	19.992	3.766	0.484
966.000	559.277	80.007	19.996	103.254	19.991	3.821	0.498
968.000	560.318	80.008	19.996	103.252	19.993	3.736	0.524
970.000	561.309	80.008	19.995	103.254	19.993	3.741	0.472
972.000	562.365	80.009	19.995	103.254	19.988	4.028	0.500
974.000	563.357	80.008	19.995	103.242	19.991	3.841	0.476
976.000	564.342	80.006	19.995	103.232	19.994	3.630	0.517
978.000	565.366	80.007	19.994	103.245	19.992	3.744	0.529
980.000	566.364	80.007	19.995	103.240	19.994	3.612	0.502
982.000	567.391	80.007	19.994	103.235	19.993	3.690	0.517
984.000	568.464	80.007	19.995	103.229	19.994	3.637	0.506
986.000	569.405	80.006	19.994	103.243	19.991	3.840	0.496
988.000	570.481	80.005	19.995	103.227	19.993	3.697	0.546
990.000	571.498	80.005	19.995	103.227	19.995	3.557	0.525
992.000	572.529	80.006	19.995	103.246	19.997	3.457	0.511
994.000	573.577	80.005	19.995	103.240	19.993	3.681	0.514
996.000	574.617	80.006	19.995	103.242	19.994	3.638	0.543
998.000	575.675	80.007	19.996	103.237	19.996	3.516	0.522
1000.000	576.707	80.006	19.996	103.230	19.996	3.538	0.481
1002.000	577.719	80.007	19.995	103.225	19.997	3.439	0.476
1004.000	578.719	80.007	19.996	103.241	19.997	3.413	0.491
1006.000	579.788	80.005	19.995	103.250	19.998	3.362	0.500
1008.000	580.826	80.006	19.994	103.242	19.997	3.417	0.492
1010.000	581.875	80.006	19.994	103.249	19.996	3.478	0.532
1012.000	582.859	80.007	19.994	103.247	19.995	3.553	0.495
1014.000	583.868	80.008	19.995	103.238	19.997	3.468	0.469
1016.000	584.903	80.007	19.995	103.219	19.992	3.779	0.509
1018.000	585.911	80.005	19.994	103.214	19.990	3.915	0.488
1020.000	586.887	80.006	19.994	103.217	19.995	3.606	0.483
1022.000	587.946	80.006	19.995	103.216	19.988	4.064	0.523
1024.000	588.943	80.007	19.995	103.218	19.992	3.751	0.505
1026.000	589.948	80.008	19.994	103.223	19.990	3.901	0.543
1028.000	590.980	80.006	19.995	103.223	19.991	3.865	0.518
1030.000	591.991	80.009	19.995	103.232	19.987	4.092	0.518
1032.000	592.964	80.009	19.994	103.219	19.989	3.990	0.481
1034.000	594.067	80.007	19.995	103.219	19.987	4.087	0.510
1036.000	595.047	80.008	19.994	103.228	19.993	3.721	0.500
1038.000	596.094	80.007	19.995	103.243	19.988	4.018	0.549
1040.001	597.129	80.006	19.993	103.259	19.990	3.918	0.492
1042.001	598.123	80.006	19.994	103.280	19.996	3.504	0.500
1044.000	599.119	80.006	19.993	103.242	19.990	3.892	0.482
1046.000	600.147	80.007	19.994	103.240	19.993	3.734	0.507
1048.000	601.157	80.007	19.994	103.246	19.993	3.741	0.493
1050.000	602.198	80.008	19.993	103.249	19.993	3.737	0.526
1052.000	603.175	80.008	19.994	103.232	19.993	3.743	0.468
1054.001	604.223	80.009	19.994	103.220	19.991	3.832	0.527
1056.000	605.252	80.009	19.993	103.236	19.994	3.646	0.542
1058.000	606.249	80.009	19.994	103.236	19.989	3.979	0.517
1060.000	607.298	80.008	19.994	103.239	19.991	3.870	0.508
1062.000	608.292	80.005	19.995	103.233	19.991	3.823	0.516
1064.000	609.283	80.007	19.995	103.251	19.990	3.930	0.484
1066.001	610.331	80.005	19.995	103.235	19.990	3.907	0.501
1068.000	611.322	80.005	19.996	103.234	19.993	3.739	0.509
1070.001	612.332	80.007	19.995	103.231	19.989	3.996	0.511
1072.001	613.323	80.006	19.995	103.233	19.995	3.559	0.496
1074.000	614.346	80.004	19.995	103.233	19.993	3.701	0.515
1076.001	615.343	80.006	19.995	103.230	19.993	3.689	0.484
1078.000	616.367	80.006	19.994	103.237	19.989	3.965	0.530
1080.000	617.369	80.006	19.995	103.226	19.989	3.961	0.497
1082.000	618.372	80.006	19.995	103.227	19.987	4.098	0.515
1084.000	619.347	80.007	19.995	103.223	19.992	3.765	0.494
1086.000	620.343	80.005	19.996	103.249	19.987	4.093	0.518
1088.001	621.370	80.006	19.995	103.248	19.990	3.920	0.496
1090.001	622.346	80.005	19.996	103.223	19.990	3.906	0.503
1092.000	623.309	80.004	19.996	103.232	19.986	4.204	0.466
1094.000	624.280	80.005	19.996	103.253	19.986	4.204	0.490
1096.001	625.290	80.003	19.995	103.251	19.985	4.268	0.482
1098.000	626.270	80.004	19.996	103.251	19.986	4.173	0.474
1100.001	627.306	80.005	19.995	103.253	19.987	4.078	0.499
1102.000	628.293	80.005	19.994	103.254	19.985	4.219	0.490
1104.000	629.296	80.006	19.994	103.248	19.989	3.947	0.509
1106.000	630.270	80.007	19.994	103.263	19.986	4.185	0.513
1108.000	631.274	80.008	19.995	103.277	19.993	3.734	0.514
1110.000	632.234	80.007	19.994	103.246	19.984	4.295	0.463
1112.000	633.275	80.008	19.993	103.241	19.985	4.231	0.509
1114.000	634.273	80.008	19.994	103.225	19.984	4.309	0.509
1116.000	635.249	80.008	19.994	103.242	19.985	4.226	0.491
1118.000	636.248	80.006	19.995	103.238	19.987	4.097	0.513
1120.000	637.286	80.006	19.994	103.233	19.989	3.993	0.527
1122.001	638.192	80.007	19.995	103.256	19.986	4.206	0.469
1124.000	639.184	80.006	19.994	103.248	19.985	4.239	0.462
1126.001	640.217	80.007	19.994	103.256	19.984	4.294	0.498
1128.000	641.195	80.006	19.995	103.253	19.984	4.323	0.494
1130.000	642.171	80.008	19.995	103.260	19.982	4.439	0.495
1132.000	643.191	80.008	19.994	103.269	19.987	4.082	0.500
1134.001	644.179	80.009	19.994	103.252	19.982	4.475	0.521
1136.000	645.163	80.009	19.994	103.262	19.985	4.230	0.498
1138.000	646.161	80.008	19.994	103.272	19.987	4.130	0.501
1140.000	647.151	80.009	19.994	103.273	19.986	4.148	0.482
1142.000	648.152	80.007	19.994	103.286	19.989	4.006	0.518
1144.000	649.127	80.008	19.994	103.295	19.984	4.295	0.488
1146.000	650.180	80.007	19.994	103.276	19.984	4.314	0.488
1148.001	651.192	80.008	19.995	103.271	19.989	4.003	0.500
1150.000	652.215	80.007	19.996	103.263	19.986	4.183	0.517
1152.000	653.246	80.006	19.994	103.265	19.984	4.313	0.518
1154.000	654.262	80.006	19.995	103.257	19.981	4.537	0.509
1156.000	655.322	80.006	19.995	103.257	19.980	4.567	0.510
1158.000	656.345	80.006	19.995	103.265	19.982	4.474	0.513
1160.000	657.398	80.005	19.995	103.266	19.986	4.202	0.531
1162.000	658.430	80.006	19.993	103.271	19.981	4.516	0.519
1164.000	659.442	80.006	19.996	103.289	19.979	4.632	0.516
1166.000	660.491	80.005	19.994	103.290	19.978	4.712	0.516
1168.000	661.521	80.006	19.995	103.271	19.982	4.475	0.511
1170.000	662.553	80.006	19.995	103.278	19.979	4.617	0.505
1172.001	663.609	80.006	19.994	103.282	19.980	4.592	0.517
1174.000	664.681	80.005	19.995	103.278	19.983	4.388	0.533
1176.000	665.669	80.006	19.995	103.302	19.977	4.761	0.508
1178.000	666.730	80.004	19.995	103.292	19.976	4.814	0.537
1180.001	667.727	80.005	19.996	103.299	19.975	4.901	0.516
1182.000	668.768	80.004	19.995	103.302	19.979	4.666	0.504
1184.000	669.838	80.004	19.995	103.306	19.979	4.655	0.551
1186.001	670.865	80.006	19.995	103.295	19.977	4.784	0.477
1188.000	671.864	80.006	19.995	103.296	19.972	5.100	0.502
1190.000	672.916	80.006	19.996	103.301	19.973	5.038	0.526
1192.000	673.927	80.007	19.996	103.297	19.975	4.946	0.531
1194.000	674.955	80.007	19.995	103.292	19.972	5.132	0.512
1196.001	675.960	80.008	19.995	103.290	19.971	5.148	0.528
1198.000	676.955	80.006	19.995	103.291	19.970	5.243	0.483
1200.000	677.975	80.006	19.995	103.305	19.973	5.074	0.507
1202.000	679.001	80.006	19.995	103.310	19.972	5.120	0.492
1204.000	679.982	80.006	19.995	103.320	19.971	5.161	0.491
1206.001	681.000	80.006	19.995	103.321	19.973	5.033	0.483
1208.001	682.019	80.005	19.995	103.326	19.969	5.338	0.488
1210.000	683.006	80.007	19.994	103.333	19.968	5.394	0.474
1212.001	683.999	80.006	19.995	103.333	19.971	5.180	0.479
1214.000	685.013	80.007	19.995	103.342	19.972	5.112	0.494
1216.000	686.031	80.009	19.996	103.363	19.969	5.338	0.493
1218.000	687.060	80.009	19.994	103.341	19.968	5.391	0.488
1220.001	688.076	80.008	19.994	103.331	19.970	5.260	0.518
1222.000	689.109	80.008	19.994	103.328	19.967	5.419	0.529
1224.000	690.094	80.006	19.994	103.328	19.966	5.533	0.482
1226.000	691.100	80.006	19.995	103.324	19.965	5.553	0.513
1228.000	692.132	80.005	19.994	103.330	19.965	5.591	0.505
1230.000	693.196	80.006	19.994	103.336	19.963	5.741	0.519
1232.000	694.165	80.006	19.994	103.338	19.965	5.566	0.518
1234.000	695.175	80.006	19.995	103.345	19.960	5.887	0.502
1236.001	696.241	80.005	19.994	103.367	19.960	5.887	0.495
1238.000	697.266	80.005	19.995	103.356	19.960	5.908	0.527
1240.000	698.305	80.006	19.994	103.374	19.960	5.935	0.541
1242.000	699.285	80.005	19.994	103.376	19.960	5.927	0.468
1244.001	700.295	80.006	19.995	103.365	19.960	5.915	0.535
1246.001	701.356	80.005	19.995	103.378	19.960	5.946	0.513
1248.000	702.357	80.005	19.994	103.376	19.961	5.883	0.539
1250.000	703.381	80.006	19.995	103.390	19.961	5.883	0.519
1252.000	704.410	80.004	19.995	103.390	19.958	6.057	0.528
1254.000	705.419	80.004	19.995	103.397	19.957	6.111	0.505
1256.000	706.407	80.005	19.995	103.374	19.957	6.129	0.499
1258.000	707.449	80.004	19.995	103.391	19.956	6.161	0.500
1260.000	708.482	80.006	19.996	103.401	19.958	6.028	0.502
1262.000	709.524	80.005	19.996	103.398	19.959	5.978	0.535
1264.000	710.555	80.007	19.995	103.430	19.957	6.133	0.524
1266.001	711.564	80.005	19.995	103.440	19.957	6.140	0.515
1268.001	712.597	80.006	19.996	103.422	19.956	6.177	0.512
1270.000	713.608	80.006	19.995	103.417	19.960	5.936	0.525
1272.000	714.627	80.008	19.995	103.432	19.952	6.445	0.506
1274.000	715.628	80.006	19.995	103.438	19.952	6.474	0.506
1276.000	716.683	80.007	19.995	103.436	19.950	6.595	0.495
1278.000	717.688	80.007	19.996	103.430	19.951	6.513	0.499
1280.000	718.671	80.006	19.996	103.445	19.951	6.541	0.485
1282.000	719.715	80.006	19.995	103.444	19.950	6.593	0.505
1284.000	720.650	80.005	19.996	103.442	19.947	6.779	0.484
1286.000	721.669	80.007	19.996	103.446	19.948	6.716	0.505
1288.000	722.666	80.006	19.994	103.446	19.946	6.833	0.490
1290.000	723.664	80.006	19.996	103.458	19.946	6.851	0.485
1292.001	724.641	80.007	19.994	103.472	19.946	6.889	0.508
1294.001	725.640	80.006	19.995	103.470	19.943	7.089	0.494
1296.000	726.619	80.006	19.994	103.487	19.942	7.104	0.477
1298.000	727.635	80.008	19.995	103.491	19.942	7.099	0.495
1300.000	728.683	80.009	19.994	103.489	19.942	7.136	0.516
1302.001	729.672	80.008	19.993	103.487	19.944	7.012	0.497
1304.000	730.716	80.009	19.994	103.488	19.941	7.167	0.494
1306.000	731.698	80.006	19.994	103.505	19.937	7.470	0.487
1308.000	732.681	80.007	19.994	103.496	19.938	7.401	0.522
1310.000	733.677	80.007	19.994	103.495	19.938	7.410	0.498
1312.000	734.663	80.005	19.994	103.506	19.940	7.286	0.472
1314.001	735.746	80.005	19.994	103.525	19.939	7.350	0.545
1316.001	736.694	80.006	19.994	103.517	19.937	7.461	0.531
1318.001	737.662	80.005	19.994	103.523	19.937	7.473	0.500
1320.000	738.693	80.005	19.994	103.530	19.936	7.509	0.492
1322.001	739.668	80.007	19.995	103.526	19.934	7.650	0.520
1324.000	740.709	80.005	19.994	103.524	19.932	7.808	0.508
1326.001	741.706	80.006	19.995	103.526	19.931	7.851	0.498
1328.001	742.712	80.006	19.994	103.515	19.933	7.702	0.518
1330.000	743.735	80.005	19.994	103.527	19.933	7.739	0.512