File: 01_Data/Pine_Lap_Siding_Paint/MCC/Pine_Lap_Siding_Paint_MCC_30K_min_211122_O2.txt
Sample ID:	C:\MCC\MCC Cal\Test\PineLap_SidingA_MCC_30K_min_211122_R2.txt
Sample Weight (mg):	4.84
Heating Rate (C/s):	0.5
Combustor Temp (C):	900
N2 Flow Rate (cc/min):	80
O2 Flow Rate (cc/min):	20
Calibration File:	C:\MCC\MCC Cal\Coeff1 JN10440_30_210304.txt.txt
T Correction Coefficients:	0	1.024463	0
Time Shift (s):	14
*
Time (s)	Temperature (C)	N2 flow rate (cc/min)	O2 flow rate (cc/min)	Flow Rate (cc/min)	Oxygen (%)	HRR (W/g)	Heating rate (C/s)
-0.001	106.661	80.009	19.994	103.129	20.009	-0.140	-0.024
2.000	106.676	80.005	19.996	103.141	20.013	-0.374	-0.029
4.000	106.679	80.005	19.993	103.139	20.013	-0.385	0.020
6.000	106.703	80.010	19.993	103.138	20.012	-0.308	0.002
8.000	106.683	80.006	19.995	103.125	20.014	-0.446	-0.023
10.000	106.685	80.007	19.995	103.132	20.011	-0.270	-0.014
12.000	106.685	80.009	19.987	103.135	20.008	-0.047	-0.004
14.001	106.697	80.004	19.991	103.137	20.009	-0.149	0.020
16.000	106.707	80.009	19.991	103.140	20.009	-0.154	0.005
18.000	106.707	80.005	19.994	103.148	20.002	0.305	-0.007
20.000	106.707	80.007	19.993	103.179	20.001	0.411	0.031
22.000	106.729	80.008	19.997	103.185	19.996	0.729	0.024
24.000	106.772	80.008	19.996	103.186	19.994	0.856	0.041
26.000	106.828	80.006	19.997	103.194	19.989	1.205	0.048
28.000	106.865	80.005	20.000	103.247	19.984	1.551	0.036
30.000	106.971	80.008	19.994	103.271	19.984	1.527	0.066
32.000	107.089	80.011	19.993	103.296	19.973	2.236	0.059
33.999	107.234	80.006	19.997	103.321	19.968	2.583	0.083
36.000	107.437	80.004	19.995	103.335	19.974	2.176	0.106
37.999	107.656	80.010	19.994	103.340	19.967	2.650	0.102
40.000	107.949	80.011	19.993	103.346	19.967	2.639	0.131
41.999	108.214	80.010	19.994	103.333	19.965	2.783	0.144
43.999	108.586	80.011	19.992	103.332	19.962	3.018	0.187
45.999	108.894	80.003	19.991	103.334	19.962	3.025	0.198
48.000	109.263	80.009	19.996	103.335	19.965	2.784	0.160
49.999	109.655	80.008	19.997	103.332	19.965	2.782	0.198
51.999	110.111	80.002	19.994	103.343	19.963	2.924	0.209
53.999	110.546	80.007	19.992	103.360	19.963	2.931	0.221
55.999	111.031	80.002	19.989	103.354	19.965	2.813	0.254
58.000	111.534	80.006	19.995	103.372	19.960	3.108	0.277
59.999	111.986	80.005	19.992	103.372	19.959	3.210	0.248
61.999	112.533	80.007	19.996	103.367	19.957	3.336	0.255
64.000	113.068	80.007	19.996	103.374	19.959	3.202	0.274
65.999	113.625	80.006	19.992	103.341	19.958	3.273	0.284
67.999	114.220	80.008	19.997	103.301	19.962	3.019	0.305
69.999	114.780	80.009	19.995	103.437	19.960	3.127	0.281
71.999	115.459	80.008	19.994	103.372	19.960	3.120	0.332
73.999	116.037	80.005	19.995	103.371	19.956	3.369	0.305
75.999	116.686	80.006	19.995	103.374	19.957	3.331	0.331
78.000	117.411	80.005	19.993	103.386	19.956	3.373	0.341
80.000	118.073	80.005	19.995	103.383	19.956	3.382	0.323
82.001	118.805	80.007	19.993	103.375	19.952	3.635	0.348
84.000	119.514	80.005	19.994	103.380	19.953	3.620	0.368
85.999	120.243	80.007	19.996	103.377	19.950	3.792	0.353
87.999	120.976	80.005	19.995	103.384	19.958	3.282	0.372
89.999	121.737	80.004	19.993	103.391	19.952	3.672	0.400
91.999	122.535	80.004	19.994	103.372	19.952	3.635	0.416
93.999	123.302	80.005	19.997	103.379	19.951	3.712	0.356
95.999	124.116	80.004	19.996	103.380	19.947	3.970	0.422
98.001	124.896	80.003	19.995	103.391	19.955	3.471	0.386
99.999	125.742	80.008	19.996	103.387	19.954	3.542	0.424
102.000	126.537	80.005	19.995	103.329	19.952	3.639	0.400
104.001	127.409	80.004	19.999	103.427	19.949	3.853	0.440
105.999	128.260	80.006	19.997	103.419	19.950	3.811	0.428
107.999	129.107	80.007	19.990	103.372	19.952	3.661	0.412
109.999	129.953	80.006	19.995	103.372	19.949	3.874	0.385
112.000	130.862	80.005	19.988	103.376	19.947	4.034	0.463
113.999	131.683	80.003	20.005	103.392	19.952	3.679	0.411
115.999	132.664	80.007	19.995	103.376	19.946	4.043	0.450
117.999	133.541	80.007	19.995	103.399	19.951	3.733	0.432
120.000	134.390	80.008	19.996	103.411	19.951	3.765	0.403
121.999	135.324	80.008	19.994	103.408	19.950	3.799	0.415
123.999	136.248	80.004	19.993	103.403	19.947	4.028	0.473
125.999	137.175	80.005	19.996	103.409	19.951	3.766	0.476
127.999	138.106	80.010	19.994	103.415	19.948	3.951	0.491
130.000	139.036	80.003	19.993	103.415	19.949	3.892	0.451
132.001	140.021	80.004	20.004	103.407	19.950	3.826	0.488
134.000	140.941	80.011	19.991	103.397	19.952	3.675	0.486
136.000	141.890	80.007	19.995	103.389	19.950	3.771	0.462
138.000	142.846	80.005	19.996	103.387	19.948	3.964	0.495
140.000	143.835	80.007	19.994	103.388	19.952	3.661	0.504
142.000	144.770	80.006	19.993	103.384	19.949	3.842	0.459
144.000	145.754	80.008	19.993	103.377	19.947	3.988	0.464
146.000	146.732	80.006	19.994	103.378	19.952	3.640	0.451
148.000	147.724	80.007	19.995	103.379	19.949	3.844	0.488
150.000	148.691	80.014	19.993	103.380	19.947	3.997	0.484
152.000	149.665	80.011	19.994	103.382	19.946	4.095	0.556
154.000	150.641	80.009	19.994	103.382	19.946	4.083	0.443
156.000	151.584	80.007	19.994	103.374	19.950	3.824	0.459
158.000	152.595	80.008	19.995	103.374	19.951	3.707	0.519
160.000	153.554	80.005	19.996	103.386	19.949	3.864	0.461
162.000	154.476	80.004	19.996	103.392	19.951	3.758	0.460
164.000	155.490	80.005	19.995	103.380	19.952	3.662	0.514
166.000	156.453	80.007	19.996	103.395	19.950	3.828	0.519
168.000	157.420	80.006	19.995	103.377	19.954	3.547	0.483
170.000	158.381	80.006	19.993	103.372	19.953	3.578	0.465
172.000	159.402	80.003	19.996	103.375	19.950	3.787	0.496
174.000	160.365	80.007	19.995	103.374	19.949	3.856	0.515
176.000	161.378	80.005	19.995	103.382	19.950	3.782	0.478
178.000	162.385	80.006	19.996	103.376	19.947	4.025	0.500
180.000	163.350	80.003	19.998	103.369	19.951	3.714	0.497
182.000	164.381	80.009	19.998	103.371	19.947	4.033	0.529
184.000	165.417	80.005	19.993	103.369	19.953	3.614	0.517
186.000	166.404	80.007	19.995	103.371	19.950	3.769	0.509
188.000	167.357	80.007	19.995	103.367	19.943	4.264	0.452
190.000	168.372	80.007	19.996	103.366	19.950	3.778	0.507
192.000	169.378	80.005	19.993	103.366	19.951	3.747	0.519
194.000	170.392	80.003	19.993	103.369	19.951	3.755	0.498
196.000	171.388	80.008	19.990	103.368	19.952	3.674	0.503
198.000	172.315	80.002	20.004	103.372	19.952	3.686	0.513
200.000	173.345	80.009	19.991	103.371	19.953	3.595	0.468
202.000	174.293	80.006	19.995	103.375	19.957	3.324	0.470
204.000	175.312	80.008	19.995	103.375	19.954	3.541	0.472
206.000	176.291	80.009	19.995	103.367	19.955	3.483	0.488
208.000	177.292	80.009	19.994	103.339	19.955	3.464	0.510
210.000	178.308	80.006	19.995	103.344	19.956	3.432	0.509
212.000	179.310	80.008	19.995	103.337	19.954	3.562	0.491
214.000	180.246	80.007	19.994	103.343	19.958	3.286	0.443
216.000	181.435	80.010	19.994	103.350	19.952	3.682	0.710
218.000	182.294	80.006	19.994	103.346	19.952	3.659	0.482
220.000	183.258	80.008	19.994	103.338	19.956	3.379	0.448
222.000	184.239	80.007	19.993	103.335	19.957	3.317	0.438
224.000	185.247	80.007	19.993	103.333	19.955	3.444	0.504
226.000	186.224	80.007	19.993	103.338	19.953	3.630	0.456
228.001	187.198	80.007	19.993	103.333	19.953	3.573	0.454
230.000	188.146	80.010	19.995	103.331	19.955	3.450	0.478
232.000	189.087	80.009	19.996	103.332	19.956	3.391	0.494
234.000	190.075	80.009	19.995	103.333	19.952	3.640	0.503
236.000	191.010	80.012	19.995	103.332	19.951	3.756	0.465
238.000	191.938	80.004	19.997	103.330	19.956	3.381	0.446
240.000	192.898	80.002	19.995	103.334	19.956	3.382	0.471
242.000	193.864	80.004	19.996	103.343	19.954	3.504	0.483
244.000	194.814	80.008	19.994	103.369	19.957	3.337	0.448
246.000	195.738	80.005	19.995	103.361	19.956	3.373	0.455
248.000	196.705	80.003	20.000	103.364	19.957	3.304	0.474
250.000	197.666	80.006	19.993	103.335	19.955	3.479	0.477
252.000	198.650	80.005	19.996	103.336	19.955	3.444	0.497
254.000	199.547	80.006	19.997	103.341	19.948	3.910	0.448
256.000	200.589	80.005	19.996	103.336	19.952	3.688	0.527
258.000	201.476	80.006	19.993	103.334	19.951	3.706	0.468
260.000	202.468	80.007	19.996	103.337	19.951	3.730	0.457
262.000	203.440	80.007	19.995	103.338	19.950	3.795	0.522
264.000	204.403	80.005	19.994	103.337	19.955	3.472	0.486
266.000	205.297	80.003	19.996	103.337	19.951	3.741	0.466
268.000	206.278	80.007	19.995	103.334	19.951	3.762	0.483
270.000	207.248	80.005	19.997	103.337	19.954	3.501	0.464
272.000	208.266	80.003	19.996	103.335	19.946	4.081	0.499
274.000	209.203	80.006	19.996	103.337	19.954	3.530	0.443
276.000	210.192	80.003	19.995	103.342	19.954	3.508	0.460
278.000	211.152	80.005	19.994	103.338	19.952	3.666	0.465
280.000	212.151	80.006	19.996	103.337	19.954	3.540	0.480
282.000	213.099	80.005	19.998	103.338	19.954	3.531	0.479
284.000	214.114	80.006	20.000	103.337	19.951	3.728	0.493
286.000	215.075	80.005	19.996	103.331	19.953	3.601	0.474
288.000	216.078	80.013	19.994	103.330	19.955	3.468	0.517
290.000	217.072	80.006	19.994	103.331	19.953	3.615	0.524
292.000	218.004	80.010	19.995	103.330	19.952	3.646	0.492
294.000	218.999	80.007	19.997	103.334	19.950	3.771	0.511
296.000	219.978	80.012	19.991	103.334	19.951	3.729	0.500
298.000	220.948	80.012	19.991	103.335	19.952	3.677	0.514
300.000	221.950	80.008	19.990	103.332	19.949	3.871	0.517
302.000	222.921	80.004	19.995	103.335	19.951	3.710	0.490
304.000	223.864	80.010	19.996	103.334	19.951	3.761	0.519
306.000	224.899	80.010	19.995	103.330	19.945	4.155	0.489
308.000	225.883	80.006	19.997	103.330	19.948	3.952	0.495
310.000	226.847	80.007	19.999	103.333	19.945	4.099	0.470
312.000	227.922	80.004	20.000	103.330	19.948	3.948	0.564
314.000	228.847	80.007	19.996	103.337	19.945	4.140	0.451
316.000	229.842	80.008	19.995	103.348	19.947	3.970	0.480
318.000	230.869	80.010	19.994	103.339	19.943	4.286	0.492
320.000	231.898	80.002	19.992	103.336	19.946	4.047	0.523
322.000	232.855	80.006	19.995	103.334	19.945	4.149	0.523
324.000	233.808	80.003	20.001	103.335	19.943	4.242	0.502
326.000	234.869	80.009	19.996	103.333	19.937	4.633	0.551
328.000	235.877	80.006	19.994	103.336	19.940	4.433	0.542
330.000	236.885	80.005	19.989	103.329	19.943	4.251	0.501
332.000	237.849	80.008	19.993	103.329	19.941	4.426	0.500
334.000	238.874	80.008	19.992	103.341	19.942	4.326	0.469
336.000	239.905	80.005	19.993	103.337	19.940	4.482	0.518
338.000	240.897	80.007	19.995	103.334	19.937	4.631	0.512
340.000	241.820	80.002	19.995	103.330	19.937	4.653	0.503
342.000	242.873	80.003	19.994	103.334	19.935	4.798	0.499
344.000	243.930	80.000	19.996	103.337	19.935	4.784	0.510
346.000	244.925	80.006	19.993	103.333	19.931	5.085	0.510
348.000	245.906	80.005	19.996	103.334	19.933	4.904	0.485
350.000	246.923	80.004	19.995	103.334	19.933	4.909	0.517
352.000	247.899	80.005	19.994	103.333	19.936	4.699	0.486
354.000	248.875	80.007	19.997	103.334	19.932	5.018	0.511
356.000	249.892	80.006	19.992	103.332	19.928	5.240	0.507
358.000	250.908	80.006	19.992	103.331	19.928	5.234	0.482
360.000	251.907	80.003	19.998	103.332	19.931	5.087	0.491
362.000	252.894	80.006	19.993	103.332	19.932	4.978	0.481
364.000	253.911	80.007	19.999	103.335	19.931	5.039	0.497
366.000	254.917	80.002	20.002	103.325	19.927	5.353	0.469
368.000	255.925	80.001	20.001	103.324	19.930	5.143	0.468
370.000	256.919	80.004	19.998	103.325	19.924	5.521	0.472
372.000	257.931	80.007	19.995	103.327	19.929	5.176	0.522
374.000	258.932	80.008	19.997	103.320	19.924	5.502	0.485
376.000	259.923	80.004	19.999	103.330	19.925	5.455	0.501
378.000	260.941	80.004	19.997	103.327	19.929	5.183	0.489
380.000	261.932	80.005	19.997	103.319	19.928	5.245	0.495
382.000	262.929	80.008	19.995	103.323	19.930	5.126	0.507
384.000	263.943	80.005	19.995	103.328	19.926	5.370	0.507
386.000	264.945	80.008	19.996	103.326	19.931	5.096	0.482
388.000	265.972	80.009	19.994	103.318	19.931	5.056	0.512
390.000	266.947	80.009	19.993	103.323	19.930	5.108	0.518
392.000	267.961	80.006	20.000	103.318	19.932	5.025	0.540
394.000	268.911	80.008	19.997	103.319	19.929	5.182	0.504
396.000	269.961	80.007	19.994	103.333	19.933	4.940	0.490
398.000	271.012	80.009	19.995	103.319	19.936	4.736	0.542
400.000	272.000	80.011	19.997	103.321	19.934	4.838	0.501
402.000	273.006	80.008	19.994	103.317	19.936	4.726	0.505
404.000	273.986	80.010	19.995	103.330	19.936	4.745	0.480
406.000	274.955	80.008	19.994	103.327	19.933	4.935	0.493
408.000	276.012	80.003	19.994	103.329	19.939	4.501	0.541
410.000	277.018	80.002	19.993	103.333	19.940	4.495	0.488
412.000	278.025	80.006	19.994	103.336	19.942	4.325	0.478
414.000	279.053	80.008	19.995	103.327	19.941	4.424	0.523
416.000	280.055	80.005	19.992	103.315	19.939	4.552	0.501
418.000	281.050	80.006	19.995	103.299	19.941	4.402	0.495
420.000	282.065	80.007	19.995	103.300	19.941	4.412	0.527
422.000	283.080	80.009	19.994	103.309	19.938	4.602	0.521
424.000	284.070	80.008	19.994	103.310	19.944	4.206	0.511
426.000	285.099	80.005	19.994	103.296	19.940	4.475	0.514
428.000	286.076	80.007	19.993	103.325	19.941	4.401	0.513
430.000	287.069	80.006	19.994	103.329	19.942	4.362	0.514
432.000	288.096	80.004	19.995	103.302	19.938	4.617	0.532
434.000	289.067	80.005	19.996	103.294	19.941	4.379	0.490
436.000	290.140	80.007	19.996	103.294	19.938	4.597	0.519
438.000	291.179	80.004	19.995	103.298	19.938	4.585	0.533
440.000	292.187	80.007	19.996	103.308	19.941	4.390	0.506
442.000	293.194	80.004	19.996	103.323	19.940	4.485	0.523
444.000	294.193	80.006	19.994	103.302	19.937	4.634	0.527
446.000	295.192	80.005	19.996	103.301	19.938	4.589	0.504
448.000	296.217	80.008	19.994	103.305	19.939	4.554	0.508
450.000	297.209	80.005	19.996	103.307	19.936	4.699	0.506
452.000	298.248	80.007	19.995	103.307	19.935	4.778	0.500
454.000	299.260	80.006	19.995	103.322	19.937	4.678	0.533
456.000	300.275	80.009	19.994	103.309	19.933	4.939	0.507
458.000	301.285	80.007	19.995	103.323	19.932	5.021	0.488
460.000	302.323	80.007	19.994	103.310	19.931	5.058	0.536
462.000	303.323	80.005	19.996	103.312	19.927	5.329	0.529
464.000	304.360	80.007	19.996	103.323	19.930	5.140	0.513
466.000	305.332	80.004	19.996	103.331	19.929	5.181	0.497
468.000	306.386	80.004	19.996	103.316	19.925	5.489	0.521
470.000	307.409	80.004	19.997	103.332	19.926	5.425	0.500
472.000	308.399	80.006	19.994	103.327	19.920	5.813	0.486
474.000	309.425	80.006	19.995	103.325	19.925	5.484	0.524
476.000	310.403	80.007	19.996	103.323	19.920	5.762	0.518
478.000	311.421	80.006	19.995	103.305	19.914	6.170	0.523
480.000	312.466	80.005	19.994	103.318	19.912	6.341	0.529
482.000	313.467	80.010	19.994	103.316	19.910	6.440	0.517
484.000	314.458	80.015	19.991	103.311	19.908	6.568	0.490
486.000	315.413	80.004	19.996	103.318	19.907	6.656	0.495
488.000	316.457	80.001	19.994	103.301	19.905	6.828	0.508
490.000	317.463	80.005	19.994	103.295	19.902	7.016	0.494
492.000	318.472	80.008	19.996	103.312	19.896	7.384	0.481
494.000	319.481	80.004	19.994	103.317	19.896	7.406	0.483
496.000	320.455	80.006	19.995	103.334	19.893	7.622	0.485
498.000	321.500	80.006	19.994	103.331	19.887	7.997	0.531
500.000	322.461	80.006	19.999	103.333	19.891	7.739	0.475
502.000	323.474	80.006	19.994	103.332	19.889	7.886	0.501
504.000	324.476	80.006	19.995	103.325	19.885	8.138	0.485
506.000	325.448	80.007	19.995	103.320	19.884	8.200	0.475
508.000	326.432	80.006	19.996	103.326	19.878	8.618	0.500
510.000	327.407	80.004	19.994	103.329	19.873	8.910	0.469
512.000	328.389	80.009	19.990	103.328	19.872	8.970	0.469
514.000	329.456	80.007	19.994	103.333	19.870	9.112	0.530
516.000	330.440	80.007	19.995	103.325	19.869	9.204	0.487
518.000	331.390	80.006	19.995	103.331	19.869	9.165	0.440
520.000	332.436	80.003	19.995	103.331	19.868	9.276	0.515
522.000	333.460	80.004	19.998	103.338	19.864	9.519	0.477
524.000	334.425	80.001	19.998	103.338	19.866	9.385	0.506
526.000	335.450	80.004	19.995	103.337	19.863	9.611	0.469
528.000	336.458	80.007	19.996	103.324	19.868	9.290	0.453
530.000	337.468	80.007	19.999	103.326	19.867	9.319	0.494
532.000	338.432	80.010	19.996	103.310	19.870	9.158	0.467
534.000	339.451	80.005	19.996	103.299	19.868	9.288	0.486
536.000	340.464	80.021	19.993	103.303	19.868	9.274	0.531
538.000	341.413	80.019	19.994	103.301	19.868	9.282	0.470
540.000	342.457	80.004	20.001	103.303	19.872	8.997	0.530
542.000	343.431	80.007	19.995	103.297	19.871	9.043	0.494
544.000	344.411	80.011	19.994	103.302	19.871	9.067	0.504
546.000	345.428	80.014	19.996	103.333	19.872	8.964	0.506
548.000	346.394	79.996	19.997	103.303	19.878	8.610	0.504
550.000	347.366	80.004	19.996	103.288	19.879	8.497	0.514
552.000	348.399	80.017	19.993	103.295	19.886	8.077	0.480
554.000	349.410	80.003	19.996	103.300	19.887	8.013	0.548
556.000	350.364	79.991	19.996	103.311	19.884	8.195	0.492
558.000	351.355	80.003	19.995	103.296	19.887	7.970	0.510
560.000	352.389	80.004	19.996	103.293	19.886	8.029	0.503
562.000	353.370	79.999	19.997	103.286	19.890	7.783	0.512
564.000	354.410	79.999	19.996	103.284	19.890	7.767	0.501
566.000	355.416	80.018	19.996	103.286	19.894	7.536	0.485
568.000	356.401	80.009	19.995	103.272	19.893	7.569	0.500
570.000	357.455	80.007	19.995	103.279	19.891	7.751	0.510
572.000	358.459	80.010	19.996	103.296	19.900	7.139	0.494
574.000	359.401	80.008	19.996	103.289	19.895	7.473	0.473
576.000	360.465	80.008	19.996	103.300	19.895	7.472	0.509
578.000	361.487	80.013	19.994	103.293	19.895	7.456	0.541
580.000	362.463	80.007	19.995	103.306	19.898	7.248	0.497
582.000	363.448	80.002	19.995	103.278	19.894	7.515	0.513
584.000	364.475	80.001	19.996	103.280	19.894	7.513	0.520
586.000	365.509	80.009	19.994	103.312	19.892	7.641	0.530
588.000	366.489	80.011	19.995	103.299	19.891	7.756	0.525
590.000	367.466	80.014	19.993	103.291	19.890	7.822	0.494
592.000	368.408	80.007	19.995	103.293	19.890	7.823	0.469
594.000	369.494	80.007	19.995	103.295	19.887	7.963	0.523
596.000	370.476	80.007	19.996	103.292	19.885	8.095	0.495
598.000	371.454	80.001	19.996	103.292	19.887	7.987	0.489
600.000	372.507	80.010	19.994	103.296	19.881	8.410	0.541
602.000	373.501	80.007	19.995	103.291	19.881	8.369	0.524
604.000	374.496	80.010	19.994	103.292	19.877	8.648	0.499
606.000	375.502	80.008	19.994	103.288	19.874	8.825	0.537
608.000	376.510	80.007	19.996	103.277	19.872	8.977	0.520
610.000	377.477	80.010	19.994	103.279	19.869	9.220	0.499
612.000	378.429	80.007	19.995	103.292	19.869	9.197	0.466
614.000	379.511	80.004	19.994	103.266	19.863	9.609	0.527
616.000	380.485	80.008	19.995	103.271	19.864	9.503	0.485
618.000	381.483	80.009	19.997	103.290	19.861	9.739	0.505
620.000	382.470	80.012	19.993	103.293	19.857	9.982	0.469
622.000	383.494	80.005	19.996	103.292	19.853	10.246	0.506
624.000	384.466	80.009	19.995	103.291	19.850	10.480	0.527
626.000	385.484	80.004	19.995	103.284	19.844	10.846	0.513
628.000	386.508	80.006	19.995	103.270	19.841	11.037	0.508
630.000	387.520	80.001	19.997	103.261	19.836	11.387	0.528
632.000	388.548	80.010	19.995	103.283	19.833	11.590	0.511
634.000	389.550	80.008	19.993	103.281	19.832	11.675	0.522
636.000	390.584	80.008	19.995	103.291	19.826	12.051	0.514
638.000	391.611	80.007	19.996	103.291	19.825	12.122	0.527
640.000	392.605	80.009	19.996	103.287	19.819	12.548	0.471
642.000	393.621	80.008	19.996	103.277	19.814	12.843	0.489
644.000	394.683	80.019	19.999	103.286	19.813	12.912	0.502
646.000	395.697	80.012	19.998	103.293	19.808	13.225	0.493
648.000	396.773	80.010	19.996	103.291	19.806	13.413	0.526
650.000	397.749	80.016	19.992	103.292	19.807	13.320	0.509
652.000	398.771	80.004	19.997	103.298	19.801	13.687	0.498
654.000	399.797	80.010	19.997	103.291	19.798	13.926	0.507
656.000	400.821	80.001	19.995	103.290	19.800	13.798	0.505
658.000	401.865	80.008	19.996	103.290	19.799	13.881	0.540
660.000	402.893	80.001	19.997	103.296	19.794	14.176	0.479
662.000	403.906	80.005	19.997	103.281	19.792	14.316	0.521
664.000	404.964	80.010	19.998	103.295	19.791	14.417	0.495
666.000	406.027	80.006	19.998	103.288	19.788	14.567	0.538
668.000	407.030	80.007	19.995	103.293	19.789	14.520	0.510
670.000	408.100	80.014	19.994	103.286	19.786	14.718	0.536
672.000	409.175	80.010	19.994	103.293	19.786	14.747	0.522
674.000	410.210	80.009	19.995	103.299	19.789	14.542	0.535
676.000	411.242	80.010	19.995	103.295	19.787	14.629	0.512
678.000	412.261	80.001	19.996	103.292	19.787	14.657	0.510
680.000	413.256	80.007	19.994	103.280	19.792	14.290	0.497
682.000	414.308	80.007	19.995	103.285	19.796	14.023	0.504
684.000	415.303	80.005	19.995	103.291	19.802	13.637	0.507
686.000	416.337	80.011	19.994	103.289	19.801	13.721	0.499
688.000	417.383	80.004	19.995	103.276	19.803	13.601	0.499
690.000	418.422	80.008	19.995	103.282	19.806	13.353	0.521
692.000	419.442	80.001	19.995	103.268	19.809	13.160	0.548
694.000	420.472	80.004	19.995	103.281	19.812	13.012	0.531
696.000	421.460	80.004	19.996	103.269	19.816	12.695	0.489
698.000	422.534	80.007	19.996	103.276	19.823	12.259	0.540
700.000	423.519	80.012	19.996	103.268	19.825	12.121	0.520
702.000	424.530	80.003	19.996	103.270	19.830	11.809	0.502
704.000	425.525	80.017	19.994	103.271	19.833	11.577	0.488
706.000	426.550	80.018	19.993	103.285	19.836	11.395	0.520
708.000	427.483	80.005	19.997	103.288	19.840	11.150	0.487
710.000	428.553	80.008	19.995	103.297	19.846	10.721	0.498
712.000	429.587	80.006	19.995	103.289	19.848	10.578	0.531
714.000	430.603	80.011	19.994	103.296	19.849	10.525	0.505
716.000	431.640	80.009	19.994	103.295	19.851	10.372	0.542
718.000	432.683	80.010	19.994	103.288	19.853	10.260	0.501
720.000	433.731	80.010	19.995	103.298	19.857	10.011	0.532
722.000	434.868	80.007	19.996	103.289	19.856	10.084	0.565
724.000	435.851	80.006	19.999	103.295	19.860	9.819	0.513
726.000	436.937	80.008	19.995	103.287	19.861	9.728	0.513
728.000	437.983	80.006	19.995	103.296	19.866	9.413	0.499
730.000	439.065	80.009	19.994	103.297	19.867	9.346	0.523
732.000	440.153	80.003	19.995	103.297	19.869	9.212	0.533
734.000	441.183	80.007	19.995	103.277	19.870	9.154	0.543
736.000	442.215	80.005	19.995	103.295	19.868	9.262	0.511
738.000	443.285	80.007	19.995	103.275	19.867	9.307	0.545
740.000	444.377	80.007	19.995	103.278	19.870	9.143	0.491
742.000	445.442	79.999	19.996	103.276	19.869	9.176	0.516
744.000	446.557	80.006	19.995	103.274	19.871	9.029	0.524
746.000	447.554	80.008	19.997	103.279	19.871	9.030	0.495
748.000	448.655	80.002	19.996	103.291	19.873	8.940	0.539
750.000	449.711	80.000	19.996	103.278	19.875	8.813	0.533
752.000	450.792	79.997	19.996	103.287	19.874	8.830	0.552
754.000	451.850	80.001	19.996	103.283	19.876	8.734	0.556
756.000	452.887	80.005	19.995	103.280	19.874	8.842	0.513
758.000	453.986	80.014	19.995	103.262	19.871	9.034	0.529
760.000	454.998	80.007	19.996	103.259	19.872	8.967	0.513
762.000	456.133	80.008	19.995	103.275	19.876	8.722	0.531
764.000	457.141	80.003	19.997	103.287	19.878	8.589	0.500
766.000	458.223	80.006	19.995	103.262	19.875	8.809	0.540
768.000	459.305	80.005	19.996	103.274	19.877	8.640	0.529
770.000	460.313	80.011	19.997	103.283	19.880	8.458	0.484
772.000	461.366	80.005	19.994	103.265	19.878	8.583	0.531
774.000	462.438	80.007	19.994	103.263	19.882	8.322	0.539
776.000	463.475	80.015	19.995	103.262	19.885	8.119	0.521
778.000	464.485	79.997	19.995	103.267	19.884	8.181	0.525
780.000	465.555	80.007	19.995	103.272	19.888	7.935	0.523
782.000	466.598	80.002	19.995	103.280	19.887	8.005	0.501
784.000	467.636	80.005	19.995	103.283	19.888	7.901	0.524
786.000	468.655	80.008	19.992	103.268	19.893	7.599	0.511
788.000	469.711	80.005	19.995	103.255	19.893	7.603	0.534
790.000	470.716	80.002	19.996	103.286	19.894	7.556	0.483
792.000	471.758	80.016	19.994	103.275	19.894	7.496	0.506
794.000	472.759	80.009	19.994	103.258	19.898	7.255	0.504
796.000	473.803	80.014	19.992	103.257	19.898	7.272	0.524
798.000	474.835	80.004	19.993	103.260	19.901	7.025	0.504
800.000	475.882	80.011	19.995	103.270	19.902	6.996	0.528
802.000	476.856	80.008	19.993	103.261	19.907	6.640	0.503
804.000	477.899	80.007	19.995	103.266	19.904	6.863	0.535
806.000	478.887	80.005	19.995	103.265	19.905	6.763	0.502
808.000	479.937	80.009	19.993	103.261	19.908	6.624	0.525
810.000	480.950	80.009	19.994	103.255	19.908	6.593	0.550
812.000	481.918	80.011	19.995	103.255	19.916	6.090	0.479
814.000	482.966	80.008	19.994	103.263	19.914	6.198	0.501
816.000	483.949	80.003	19.996	103.253	19.913	6.284	0.484
818.000	484.947	80.006	19.995	103.256	19.916	6.046	0.510
820.000	485.945	80.008	19.994	103.261	19.919	5.839	0.501
822.000	486.944	80.006	19.994	103.267	19.917	5.967	0.490
824.000	487.953	80.000	19.997	103.272	19.921	5.752	0.499
826.000	488.948	80.010	19.997	103.269	19.925	5.443	0.508
828.000	489.965	80.008	19.994	103.255	19.924	5.512	0.481
830.000	490.972	80.006	19.994	103.258	19.927	5.325	0.493
832.000	491.994	80.016	19.994	103.266	19.928	5.281	0.509
834.000	493.007	80.009	19.995	103.263	19.929	5.171	0.512
836.000	494.036	80.006	19.994	103.256	19.928	5.291	0.510
838.000	495.055	80.007	19.997	103.258	19.929	5.179	0.504
840.000	496.104	80.005	19.996	103.258	19.930	5.142	0.501
842.000	497.130	80.008	19.995	103.254	19.929	5.168	0.527
844.000	498.126	80.007	19.994	103.261	19.936	4.717	0.507
846.000	499.162	80.003	19.995	103.268	19.937	4.633	0.518
848.000	500.175	79.997	19.997	103.275	19.937	4.691	0.506
850.000	501.202	80.000	19.999	103.265	19.936	4.757	0.520
852.000	502.191	79.997	19.997	103.271	19.940	4.430	0.519
854.000	503.223	80.005	19.997	103.272	19.941	4.371	0.539
856.000	504.229	80.000	19.997	103.260	19.942	4.357	0.496
858.000	505.277	80.007	19.997	103.258	19.939	4.501	0.495
860.000	506.273	80.007	19.995	103.256	19.945	4.109	0.490
862.000	507.308	80.015	19.992	103.263	19.941	4.368	0.477
864.000	508.301	80.005	19.994	103.285	19.943	4.254	0.497
866.000	509.342	80.008	19.993	103.264	19.938	4.570	0.482
868.000	510.359	80.007	19.996	103.256	19.941	4.414	0.525
870.000	511.376	80.015	19.993	103.265	19.941	4.421	0.497
872.000	512.343	80.003	19.995	103.268	19.944	4.193	0.520
874.000	513.413	80.011	19.994	103.263	19.945	4.110	0.543
876.000	514.430	80.006	19.995	103.267	19.944	4.170	0.492
878.000	515.456	80.008	19.993	103.283	19.943	4.294	0.531
880.000	516.478	79.997	19.998	103.261	19.946	4.090	0.536
882.000	517.474	80.000	19.996	103.251	19.946	4.086	0.527
884.000	518.507	80.006	19.994	103.252	19.949	3.843	0.516
886.000	519.533	79.999	19.996	103.254	19.950	3.785	0.478
888.000	520.538	80.000	19.996	103.259	19.950	3.805	0.501
890.000	521.617	80.006	19.996	103.259	19.948	3.914	0.502
892.000	522.594	80.003	19.995	103.254	19.950	3.796	0.469
894.000	523.627	80.003	19.995	103.264	19.953	3.596	0.506
896.000	524.682	80.009	19.994	103.261	19.954	3.496	0.521
898.000	525.679	80.007	19.994	103.264	19.955	3.453	0.505
900.000	526.764	80.011	19.995	103.250	19.951	3.729	0.531
902.000	527.710	80.004	19.994	103.250	19.954	3.547	0.499
904.000	528.748	79.998	19.995	103.256	19.953	3.627	0.501
906.000	529.751	80.007	19.996	103.259	19.950	3.776	0.492
908.000	530.803	80.009	19.994	103.260	19.949	3.845	0.533
910.000	531.887	80.007	19.995	103.260	19.950	3.765	0.572
912.000	532.852	80.003	19.995	103.267	19.953	3.563	0.501
914.000	533.901	80.006	19.995	103.269	19.952	3.658	0.492
916.000	534.891	80.003	19.995	103.259	19.951	3.754	0.503
918.000	535.938	79.996	19.997	103.248	19.950	3.778	0.497
920.000	536.985	80.007	19.996	103.248	19.949	3.871	0.532
922.000	537.941	80.008	19.995	103.258	19.950	3.793	0.496
924.000	538.975	80.003	19.996	103.255	19.949	3.842	0.517
926.000	540.033	80.007	19.996	103.255	19.949	3.879	0.496
928.000	541.035	80.002	19.996	103.267	19.951	3.760	0.488
930.000	542.043	80.008	19.994	103.267	19.953	3.569	0.518
932.000	543.070	80.006	19.994	103.280	19.950	3.791	0.517
934.000	544.095	80.010	19.995	103.269	19.951	3.730	0.503
936.000	545.094	80.003	19.996	103.270	19.947	4.004	0.519
938.000	546.108	80.016	19.996	103.288	19.949	3.877	0.524
940.000	547.162	80.005	19.995	103.266	19.950	3.804	0.519
942.000	548.129	80.008	19.995	103.254	19.949	3.863	0.465
944.000	549.208	80.010	19.995	103.271	19.952	3.630	0.514
946.000	550.230	80.007	19.996	103.278	19.954	3.503	0.482
948.000	551.267	80.006	19.997	103.274	19.952	3.690	0.495
950.000	552.272	80.003	19.996	103.280	19.952	3.645	0.495
952.000	553.281	80.023	19.993	103.265	19.952	3.639	0.469
954.000	554.300	80.001	19.995	103.249	19.950	3.790	0.494
956.000	555.326	80.009	19.995	103.235	19.948	3.929	0.511
958.000	556.358	80.007	19.996	103.240	19.951	3.753	0.509
960.000	557.344	80.006	19.995	103.264	19.950	3.796	0.487
962.000	558.358	79.991	19.997	103.260	19.951	3.748	0.490
964.000	559.406	80.011	19.997	103.251	19.948	3.941	0.488
966.000	560.411	80.008	19.994	103.259	19.948	3.896	0.521
968.000	561.472	80.015	19.993	103.265	19.948	3.961	0.521
970.000	562.467	80.022	19.992	103.264	19.947	3.972	0.505
972.000	563.467	80.004	19.995	103.251	19.948	3.943	0.531
974.000	564.476	80.008	19.995	103.254	19.949	3.859	0.499
976.000	565.494	80.010	19.993	103.253	19.947	3.998	0.519
978.000	566.499	80.003	19.995	103.258	19.950	3.816	0.500
980.000	567.513	80.006	19.995	103.255	19.946	4.087	0.505
982.000	568.526	80.010	19.993	103.259	19.948	3.945	0.506
984.000	569.504	79.999	19.998	103.260	19.947	4.001	0.466
986.000	570.542	80.015	19.993	103.256	19.950	3.791	0.498
988.000	571.584	80.010	19.994	103.260	19.950	3.787	0.516
990.000	572.580	80.010	19.995	103.263	19.949	3.832	0.492
992.000	573.620	80.008	19.995	103.260	19.952	3.689	0.505
994.000	574.676	79.996	19.995	103.270	19.951	3.718	0.556
996.000	575.710	80.015	19.993	103.268	19.954	3.560	0.513
998.000	576.674	80.008	19.995	103.274	19.949	3.874	0.487
1000.000	577.777	80.005	19.994	103.269	19.951	3.747	0.546
1002.000	578.785	80.016	19.996	103.251	19.951	3.721	0.526
1004.000	579.801	80.015	19.994	103.261	19.950	3.785	0.523
1006.000	580.818	80.017	19.995	103.262	19.951	3.711	0.528
1008.000	581.768	80.010	19.996	103.260	19.951	3.761	0.511
1010.000	582.809	80.004	19.996	103.254	19.953	3.612	0.497
1012.000	583.821	80.000	19.996	103.257	19.950	3.780	0.503
1014.000	584.886	80.012	19.995	103.254	19.948	3.920	0.548
1016.000	585.891	80.006	19.996	103.260	19.951	3.736	0.526
1018.000	586.861	80.008	19.994	103.256	19.949	3.872	0.537
1020.000	587.876	80.018	19.994	103.253	19.949	3.874	0.520
1022.000	588.857	80.005	19.996	103.272	19.948	3.919	0.507
1024.000	589.900	80.007	19.996	103.283	19.947	3.992	0.521
1025.999	590.880	80.008	19.994	103.262	19.952	3.684	0.506
1027.999	591.927	80.006	19.996	103.260	19.948	3.896	0.529
1029.999	592.909	80.012	19.999	103.256	19.953	3.618	0.509
1031.999	593.928	80.005	19.997	103.265	19.948	3.916	0.508
1034.000	594.956	80.010	19.996	103.251	19.949	3.891	0.503
1035.999	596.016	80.009	19.995	103.264	19.952	3.674	0.519
1037.999	597.007	80.000	19.998	103.270	19.950	3.814	0.530
1039.999	598.013	80.020	19.995	103.255	19.947	4.020	0.515
1042.000	599.030	79.994	19.996	103.252	19.947	4.002	0.499
1043.999	600.048	80.021	19.996	103.263	19.948	3.901	0.517
1045.999	601.029	80.012	19.996	103.265	19.949	3.838	0.482
1047.999	602.009	80.004	19.996	103.258	19.950	3.777	0.457
1049.999	603.103	80.009	19.996	103.251	19.951	3.729	0.503
1051.999	604.120	80.006	19.996	103.277	19.949	3.856	0.532
1053.999	605.128	80.003	19.994	103.261	19.947	4.007	0.535
1055.999	606.153	79.991	19.996	103.268	19.951	3.755	0.534
1057.999	607.162	80.008	19.995	103.285	19.946	4.087	0.493
1059.999	608.210	80.008	19.994	103.264	19.947	3.963	0.505
1062.000	609.257	80.010	19.994	103.266	19.947	3.966	0.552
1063.999	610.181	80.006	19.995	103.265	19.949	3.867	0.478
1065.999	611.221	80.002	19.996	103.280	19.951	3.751	0.522
1068.000	612.257	80.006	19.997	103.280	19.948	3.955	0.514
1070.000	613.267	79.998	19.995	103.267	19.951	3.742	0.516
1071.999	614.288	79.998	19.995	103.263	19.950	3.795	0.529
1073.999	615.317	80.001	19.996	103.250	19.943	4.272	0.507
1075.999	616.339	80.008	19.996	103.264	19.946	4.077	0.520
1077.999	617.336	80.019	19.994	103.272	19.948	3.931	0.491
1079.999	618.365	80.016	19.994	103.272	19.952	3.647	0.484
1081.999	619.372	80.000	19.995	103.279	19.952	3.686	0.508
1083.999	620.353	80.005	19.995	103.260	19.948	3.901	0.506
1086.000	621.406	80.016	19.993	103.265	19.949	3.866	0.531
1087.999	622.368	80.009	19.994	103.286	19.947	3.978	0.496
1089.999	623.406	80.006	19.994	103.267	19.949	3.871	0.537
1091.999	624.395	80.010	19.994	103.279	19.949	3.855	0.511
1093.999	625.365	80.008	19.995	103.294	19.950	3.790	0.512
1096.000	626.397	80.006	19.994	103.288	19.949	3.862	0.494
1098.000	627.370	80.004	19.996	103.280	19.949	3.875	0.490
1100.000	628.397	80.012	19.995	103.275	19.944	4.186	0.533
1101.999	629.360	79.999	19.996	103.280	19.948	3.959	0.494
1103.999	630.352	80.008	19.996	103.280	19.947	4.017	0.487
1105.999	631.356	80.008	19.995	103.284	19.950	3.783	0.501
1107.999	632.354	80.004	19.996	103.296	19.946	4.039	0.499
1109.999	633.340	80.021	19.994	103.281	19.948	3.941	0.480
1112.000	634.344	80.005	19.994	103.297	19.946	4.040	0.487
1113.999	635.293	80.000	19.997	103.293	19.948	3.917	0.465
1115.999	636.311	80.006	19.994	103.290	19.946	4.048	0.538
1118.000	637.257	80.002	19.995	103.291	19.948	3.954	0.473
1119.999	638.251	80.013	19.995	103.289	19.947	3.995	0.458
1121.999	639.195	80.010	19.994	103.286	19.946	4.074	0.457
1124.000	640.180	80.008	19.996	103.292	19.948	3.912	0.491
1126.000	641.176	80.006	19.995	103.299	19.950	3.797	0.508
1128.000	642.136	80.003	19.997	103.300	19.943	4.243	0.495
1130.000	643.150	80.004	19.997	103.294	19.945	4.139	0.515
1131.999	644.135	80.015	19.995	103.298	19.942	4.345	0.494
1133.999	645.145	80.010	19.996	103.299	19.943	4.274	0.506
1136.000	646.164	80.005	19.996	103.293	19.944	4.176	0.522
1137.999	647.125	80.009	19.996	103.303	19.946	4.049	0.526
1139.999	648.156	80.009	19.995	103.306	19.940	4.487	0.493
1141.999	649.192	80.010	19.995	103.315	19.939	4.502	0.514
1143.999	650.186	80.005	19.995	103.318	19.937	4.633	0.534
1145.999	651.223	80.009	19.994	103.310	19.940	4.466	0.544
1147.999	652.233	80.008	19.995	103.320	19.938	4.624	0.539
1149.999	653.268	80.006	19.995	103.317	19.941	4.411	0.536
1152.001	654.286	80.005	19.996	103.323	19.939	4.509	0.501
1153.999	655.330	80.007	19.994	103.331	19.939	4.544	0.553
1155.999	656.339	80.006	19.995	103.331	19.941	4.406	0.502
1157.999	657.373	80.002	19.994	103.331	19.937	4.638	0.509
1159.999	658.391	80.002	19.995	103.332	19.935	4.775	0.538
1162.000	659.390	80.007	19.994	103.323	19.936	4.753	0.472
1163.999	660.466	80.015	19.994	103.327	19.934	4.878	0.525
1165.999	661.468	80.012	19.995	103.329	19.939	4.544	0.505
1167.999	662.511	80.004	19.995	103.329	19.936	4.716	0.548
1169.999	663.539	80.005	19.994	103.330	19.936	4.738	0.492
1171.999	664.551	80.002	19.995	103.330	19.934	4.859	0.506
1173.999	665.614	80.009	19.994	103.335	19.934	4.882	0.518
1175.999	666.628	80.009	19.994	103.337	19.932	5.004	0.533
1177.999	667.630	80.006	19.995	103.350	19.934	4.831	0.494
1179.999	668.665	80.005	19.995	103.367	19.934	4.874	0.523
1181.999	669.698	80.006	19.994	103.357	19.935	4.784	0.490
1183.999	670.712	80.008	19.995	103.340	19.936	4.763	0.556
1185.999	671.715	80.005	19.995	103.338	19.934	4.867	0.526
1188.000	672.699	80.010	19.995	103.340	19.934	4.889	0.489
1189.999	673.732	79.998	19.995	103.340	19.933	4.952	0.507
1192.000	674.748	79.991	19.996	103.353	19.930	5.113	0.503
1193.999	675.784	80.010	19.993	103.341	19.934	4.895	0.494
1195.999	676.820	80.004	19.994	103.360	19.930	5.110	0.479
1197.999	677.815	80.005	19.995	103.369	19.933	4.922	0.496
1200.000	678.800	80.008	19.996	103.367	19.931	5.074	0.494
1202.000	679.776	80.009	19.995	103.363	19.936	4.700	0.479
1204.000	680.770	80.012	19.994	103.370	19.930	5.164	0.474
1205.999	681.780	80.001	19.995	103.360	19.931	5.054	0.515
1208.000	682.788	80.016	19.994	103.359	19.931	5.077	0.513
1209.999	683.762	79.995	19.997	103.371	19.933	4.948	0.494
1211.999	684.752	80.003	19.996	103.367	19.929	5.204	0.497
1213.999	685.761	80.007	19.995	103.368	19.933	4.964	0.476
1215.999	686.744	79.995	19.998	103.372	19.932	4.977	0.499
1217.999	687.710	80.005	19.995	103.363	19.932	5.031	0.460
1220.000	688.673	80.011	19.995	103.382	19.929	5.209	0.483
1222.000	689.678	80.009	19.994	103.379	19.927	5.357	0.477
1223.999	690.632	80.007	19.996	103.378	19.928	5.253	0.468
1225.999	691.640	80.009	19.995	103.379	19.926	5.387	0.486
1228.000	692.627	80.006	19.996	103.379	19.926	5.430	0.542
1229.999	693.593	80.006	19.996	103.390	19.929	5.208	0.481
1231.999	694.543	80.009	19.995	103.402	19.927	5.337	0.510
1233.999	695.475	80.000	19.997	103.417	19.926	5.383	0.436
1235.999	696.430	80.002	19.994	103.408	19.925	5.491	0.503
1237.999	697.429	80.008	19.995	103.406	19.929	5.219	0.517
1239.999	698.350	80.007	19.994	103.418	19.928	5.261	0.469
1241.999	699.325	80.006	19.995	103.425	19.926	5.399	0.502
1243.999	700.316	80.011	19.994	103.424	19.922	5.647	0.478
1245.999	701.299	80.006	19.995	103.441	19.925	5.473	0.502
1247.999	702.274	80.013	19.993	103.438	19.922	5.645	0.504
1249.999	703.258	80.009	19.994	103.420	19.920	5.773	0.481
1252.000	704.282	80.013	19.994	103.422	19.919	5.901	0.510
1253.999	705.278	80.007	19.994	103.425	19.917	5.981	0.530
1255.999	706.281	80.003	19.994	103.433	19.915	6.127	0.507
1257.999	707.313	80.008	19.994	103.450	19.920	5.790	0.527
1259.999	708.354	80.013	19.993	103.465	19.915	6.168	0.530
1261.999	709.381	80.001	19.994	103.475	19.913	6.264	0.538
1263.999	710.401	79.998	19.996	103.451	19.915	6.143	0.532
1265.999	711.467	79.996	19.996	103.452	19.919	5.878	0.535
1267.999	712.495	79.995	19.997	103.454	19.912	6.369	0.520
1269.999	713.572	80.009	19.994	103.457	19.907	6.662	0.518
1271.999	714.703	80.010	19.995	103.469	19.911	6.433	0.560
1273.999	715.804	80.009	19.994	103.474	19.911	6.427	0.576
1275.999	716.892	80.016	19.995	103.482	19.911	6.410	0.539
1277.999	717.944	80.001	19.995	103.486	19.907	6.674	0.503
1280.000	719.086	80.008	19.995	103.484	19.907	6.653	0.556
1281.999	720.170	80.009	19.994	103.486	19.907	6.644	0.592
1283.999	721.247	80.026	19.992	103.503	19.904	6.876	0.528
1285.999	722.308	80.008	19.995	103.513	19.906	6.747	0.589
1288.000	723.421	80.012	19.995	103.506	19.902	6.981	0.572
1289.999	724.471	80.007	19.995	103.500	19.904	6.882	0.533
1291.999	725.497	80.009	19.995	103.516	19.905	6.809	0.513
1293.999	726.593	80.010	19.995	103.523	19.905	6.843	0.563
1295.999	727.678	80.008	19.995	103.527	19.901	7.061	0.546
1298.000	728.700	80.009	19.995	103.527	19.901	7.107	0.530
1300.000	729.765	80.015	19.993	103.525	19.900	7.130	0.560
1302.000	730.787	80.008	19.994	103.527	19.899	7.211	0.547
1303.999	731.882	80.007	19.995	103.538	19.902	6.992	0.540
1305.999	732.966	80.006	19.993	103.546	19.900	7.130	0.539
1307.999	734.001	80.014	19.994	103.555	19.895	7.500	0.534
1309.999	735.056	80.008	19.993	103.552	19.895	7.481	0.498
1312.000	736.099	80.005	19.994	103.544	19.898	7.270	0.530
1314.000	737.162	80.017	19.993	103.563	19.903	6.972	0.515
1315.999	738.166	80.003	19.995	103.563	19.900	7.175	0.514
1318.000	739.223	80.016	19.993	103.564	19.900	7.136	0.549
1320.000	740.212	80.007	19.995	103.569	19.895	7.507	0.469
1321.999	741.253	80.002	19.996	103.566	19.896	7.408	0.476
1323.999	742.294	79.996	19.996	103.568	19.895	7.470	0.510
1325.999	743.342	80.004	19.996	103.577	19.895	7.489	0.522