File: 01_Data/Cotton_Shirt/STA/N2/30K_min/Cotton_Shirt_STA_N2_30KData_21287_R1.csv
##Temp./Â°C,Time/min,DSC(subtr.2)/(mW/mg),Mass loss(subtr.2)/mg,Sensit./(uV/mW)
50.629,10.00917,0.01719973,-0.068,0.6235
51.229,10.9973,0.04095389,-0.07206061,0.62349
51.829,11.2136,0.06620699,-0.06954591,0.62349
52.429,11.35971,0.0830882,-0.07393043,0.62348
53.029,11.47222,0.10255,-0.07655723,0.62347
53.629,11.56985,0.12283,-0.07507307,0.62346
54.229,11.65402,0.13761,-0.07551357,0.62346
54.829,11.7296,0.15539,-0.07582794,0.62345
55.429,11.7986,0.17419,-0.07403507,0.62344
56.029,11.86196,0.18661,-0.07422574,0.62343
56.629,11.92163,0.19981,-0.07500769,0.62341
57.229,11.9778,0.21648,-0.0738359,0.6234
57.829,12.03118,0.23031,-0.07528967,0.62339
58.429,12.0818,0.24368,-0.07582402,0.62338
59.029,12.13091,0.25524,-0.07638368,0.62336
59.629,12.1781,0.27042,-0.07897179,0.62335
60.229,12.22369,0.28058,-0.07831953,0.62334
60.829,12.2676,0.29342,-0.07773354,0.62332
61.429,12.3103,0.30512,-0.0775148,0.62331
62.029,12.352,0.31704,-0.07698528,0.62329
62.629,12.39246,0.32907,-0.07949004,0.62327
63.229,12.43233,0.34036,-0.08019573,0.62326
63.829,12.47124,0.35171,-0.08035108,0.62324
64.429,12.5096,0.35851,-0.0817523,0.62322
65.029,12.54717,0.37298,-0.08086383,0.6232
65.629,12.584,0.38252,-0.08198159,0.62318
66.229,12.62037,0.39219,-0.08267983,0.62316
66.829,12.65635,0.40095,-0.08279382,0.62314
67.429,12.69156,0.4096,-0.08301411,0.62312
68.029,12.7262,0.4229,-0.08300333,0.6231
68.629,12.7607,0.42766,-0.08495692,0.62308
69.229,12.79459,0.43855,-0.08574709,0.62305
69.829,12.82809,0.44588,-0.08533468,0.62303
70.429,12.8612,0.45544,-0.08662441,0.62301
71.029,12.89392,0.46352,-0.08735217,0.62298
71.629,12.9264,0.47423,-0.08662799,0.62296
72.229,12.95843,0.47965,-0.08797678,0.62293
72.829,12.99059,0.49279,-0.08924854,0.62291
73.429,13.02234,0.50343,-0.08893221,0.62288
74.029,13.0538,0.5123,-0.08976883,0.62286
74.629,13.08502,0.51696,-0.09124636,0.62283
75.229,13.1164,0.52807,-0.09233895,0.6228
75.829,13.1474,0.53715,-0.0926152,0.62277
76.429,13.17831,0.5445,-0.09267779,0.62274
77.029,13.2088,0.5522,-0.09362905,0.62271
77.629,13.23916,0.56218,-0.09345927,0.62268
78.229,13.26917,0.57132,-0.09466056,0.62265
78.829,13.2989,0.57694,-0.09555054,0.62262
79.429,13.3286,0.58695,-0.09651099,0.62259
80.029,13.3581,0.59765,-0.0965273,0.62256
80.629,13.38747,0.60571,-0.09786824,0.62253
81.229,13.4165,0.61269,-0.09832767,0.62249
81.829,13.4456,0.62307,-0.09862498,0.62246
82.429,13.4743,0.63139,-0.10004,0.62243
83.029,13.5029,0.64315,-0.10005,0.62239
83.629,13.5313,0.65589,-0.10117,0.62236
84.229,13.5595,0.66198,-0.10136,0.62232
84.829,13.58751,0.67089,-0.10162,0.62228
85.429,13.61542,0.68085,-0.10219,0.62225
86.029,13.6434,0.68723,-0.1028,0.62221
86.629,13.6713,0.69806,-0.10392,0.62217
87.229,13.69885,0.70488,-0.1044,0.62213
87.829,13.7263,0.71328,-0.10551,0.62209
88.429,13.75356,0.72191,-0.10544,0.62206
89.029,13.7807,0.73001,-0.10685,0.62202
89.629,13.80754,0.73661,-0.10757,0.62197
90.229,13.83424,0.74431,-0.10943,0.62193
90.829,13.86074,0.75403,-0.10947,0.62189
91.429,13.8873,0.76129,-0.10966,0.62185
92.029,13.91371,0.76801,-0.11218,0.62181
92.629,13.93995,0.77256,-0.11283,0.62177
93.229,13.9659,0.77905,-0.11342,0.62172
93.829,13.9917,0.78306,-0.11508,0.62168
94.429,14.01764,0.79015,-0.11627,0.62163
95.029,14.0435,0.79711,-0.11631,0.62159
95.629,14.0694,0.80481,-0.11758,0.62154
96.229,14.09494,0.80959,-0.11761,0.6215
96.829,14.12021,0.81777,-0.12035,0.62145
97.429,14.1454,0.82323,-0.12092,0.6214
98.029,14.1705,0.82937,-0.12173,0.62136
98.629,14.19537,0.8329,-0.12335,0.62131
99.229,14.22021,0.84207,-0.12395,0.62126
99.829,14.245,0.84809,-0.12413,0.62121
100.429,14.26971,0.85153,-0.12435,0.62116
101.029,14.2942,0.8554,-0.12704,0.62111
101.629,14.3187,0.86083,-0.127,0.62106
102.229,14.34286,0.86671,-0.1293,0.62101
102.829,14.367,0.86952,-0.12964,0.62096
103.429,14.39114,0.87507,-0.12965,0.62091
104.029,14.41516,0.87773,-0.12965,0.62085
104.629,14.439,0.88248,-0.13118,0.6208
105.229,14.4627,0.88663,-0.13151,0.62075
105.829,14.4864,0.89045,-0.13294,0.62069
106.429,14.50995,0.89361,-0.13381,0.62064
107.029,14.5335,0.893,-0.13375,0.62058
107.629,14.557,0.89832,-0.13563,0.62053
108.229,14.58039,0.90438,-0.13647,0.62047
108.829,14.6036,0.90444,-0.13786,0.62042
109.429,14.62674,0.90552,-0.1389,0.62036
110.029,14.64984,0.9054,-0.13913,0.6203
110.629,14.67275,0.90722,-0.14052,0.62024
111.229,14.69565,0.90936,-0.14145,0.62018
111.829,14.7184,0.91151,-0.14248,0.62013
112.429,14.741,0.91144,-0.14317,0.62007
113.029,14.76361,0.90988,-0.14346,0.62001
113.629,14.78621,0.91098,-0.14576,0.61995
114.229,14.8087,0.91183,-0.14577,0.61988
114.829,14.8312,0.91105,-0.14713,0.61982
115.429,14.8536,0.91101,-0.14701,0.61976
116.029,14.8758,0.90972,-0.14837,0.6197
116.629,14.8981,0.90713,-0.14837,0.61964
117.229,14.92014,0.90705,-0.14975,0.61957
117.829,14.9421,0.90495,-0.14974,0.61951
118.429,14.96403,0.90134,-0.15016,0.61944
119.029,14.9859,0.90173,-0.15095,0.61938
119.629,15.0076,0.899,-0.15236,0.61931
120.229,15.02926,0.89484,-0.15303,0.61925
120.829,15.05088,0.89633,-0.15339,0.61918
121.429,15.0724,0.89386,-0.15387,0.61912
122.029,15.094,0.8924,-0.15628,0.61905
122.629,15.1153,0.89035,-0.15641,0.61898
123.229,15.13654,0.88817,-0.15641,0.61891
123.829,15.1579,0.88254,-0.15641,0.61884
124.429,15.1791,0.87844,-0.15641,0.61877
125.029,15.20041,0.87597,-0.15641,0.6187
125.629,15.2217,0.87438,-0.15643,0.61863
126.229,15.2428,0.86992,-0.15783,0.61856
126.829,15.26366,0.86775,-0.15773,0.61849
127.429,15.28459,0.86362,-0.15765,0.61842
128.029,15.30538,0.86237,-0.15939,0.61835
128.629,15.3262,0.85892,-0.16004,0.61828
129.229,15.3469,0.85559,-0.16003,0.6182
129.829,15.3675,0.85326,-0.16003,0.61813
130.429,15.38821,0.84835,-0.16003,0.61806
131.029,15.40867,0.84637,-0.16035,0.61798
131.629,15.4291,0.84423,-0.16036,0.61791
132.229,15.44941,0.84181,-0.16071,0.61783
132.829,15.46975,0.83905,-0.16167,0.61776
133.429,15.49005,0.83395,-0.16166,0.61768
134.029,15.5104,0.83006,-0.16276,0.6176
134.629,15.5307,0.82871,-0.163,0.61753
135.229,15.5509,0.82571,-0.16218,0.61745
135.829,15.57102,0.82683,-0.16208,0.61737
136.429,15.5911,0.82165,-0.16274,0.61729
137.029,15.61098,0.8226,-0.16299,0.61721
137.629,15.63086,0.82062,-0.16304,0.61713
138.229,15.65075,0.81849,-0.16336,0.61705
138.829,15.6706,0.81758,-0.16368,0.61697
139.429,15.6904,0.81843,-0.1657,0.61689
140.029,15.71011,0.81279,-0.16563,0.61681
140.629,15.72986,0.8128,-0.16563,0.61673
141.229,15.7495,0.8119,-0.16563,0.61665
141.829,15.7691,0.81077,-0.16563,0.61656
142.429,15.78873,0.81217,-0.1656,0.61648
143.029,15.8082,0.8111,-0.16562,0.6164
143.629,15.8277,0.80893,-0.16562,0.61631
144.229,15.84707,0.8062,-0.16562,0.61623
144.829,15.8665,0.80577,-0.16564,0.61614
145.429,15.88584,0.808,-0.16627,0.61606
146.029,15.90518,0.80792,-0.16695,0.61597
146.629,15.92443,0.80745,-0.16694,0.61589
147.229,15.9437,0.8065,-0.16694,0.6158
147.829,15.96284,0.80779,-0.16694,0.61571
148.429,15.98205,0.80778,-0.16692,0.61562
149.029,16.00124,0.81185,-0.16677,0.61554
149.629,16.02037,0.81226,-0.16597,0.61545
150.229,16.03945,0.81361,-0.16631,0.61536
150.829,16.0586,0.81224,-0.16729,0.61527
151.429,16.07762,0.81498,-0.16728,0.61518
152.029,16.0966,0.81798,-0.16728,0.61509
152.629,16.11562,0.81932,-0.16729,0.615
153.229,16.13459,0.82011,-0.16757,0.61491
153.829,16.15346,0.81699,-0.16864,0.61481
154.429,16.1723,0.81926,-0.16862,0.61472
155.029,16.1912,0.82432,-0.16823,0.61463
155.629,16.21004,0.82582,-0.16826,0.61454
156.229,16.22886,0.82973,-0.16826,0.61444
156.829,16.2476,0.83128,-0.16827,0.61435
157.429,16.2664,0.8335,-0.16869,0.61425
158.029,16.285,0.83359,-0.16963,0.61416
158.629,16.30371,0.83495,-0.16968,0.61406
159.229,16.32239,0.83848,-0.16856,0.61397
159.829,16.34113,0.84012,-0.16926,0.61387
160.429,16.35974,0.84299,-0.16925,0.61378
161.029,16.3783,0.84518,-0.16925,0.61368
161.629,16.39697,0.84732,-0.16925,0.61358
162.229,16.41534,0.85155,-0.16925,0.61348
162.829,16.43384,0.8543,-0.16925,0.61339
163.429,16.4524,0.85918,-0.16925,0.61329
164.029,16.47085,0.85848,-0.16925,0.61319
164.629,16.48933,0.86086,-0.16925,0.61309
165.229,16.50798,0.86424,-0.16925,0.61299
165.829,16.52635,0.86739,-0.16925,0.61289
166.429,16.54476,0.86853,-0.16925,0.61279
167.029,16.5631,0.87079,-0.16925,0.61269
167.629,16.58144,0.87384,-0.16925,0.61258
168.229,16.59977,0.87731,-0.16925,0.61248
168.829,16.61786,0.87884,-0.16925,0.61238
169.429,16.63609,0.88158,-0.16931,0.61228
170.029,16.65439,0.88475,-0.16836,0.61217
170.629,16.6726,0.88657,-0.16843,0.61207
171.229,16.6908,0.89093,-0.16962,0.61196
171.829,16.70925,0.89464,-0.16958,0.61186
172.429,16.72747,0.89633,-0.16958,0.61175
173.029,16.7456,0.89937,-0.16958,0.61165
173.629,16.76384,0.90055,-0.16958,0.61154
174.229,16.78199,0.90501,-0.16958,0.61144
174.829,16.80012,0.90598,-0.16958,0.61133
175.429,16.8182,0.90957,-0.16953,0.61122
176.029,16.83619,0.91257,-0.17088,0.61112
176.629,16.85418,0.91589,-0.1709,0.61101
177.229,16.8722,0.91831,-0.1709,0.6109
177.829,16.89019,0.92613,-0.1709,0.61079
178.429,16.9082,0.93148,-0.1709,0.61068
179.029,16.92613,0.93437,-0.1709,0.61057
179.629,16.94397,0.93492,-0.1709,0.61046
180.229,16.96181,0.93552,-0.1709,0.61035
180.829,16.97968,0.94089,-0.1709,0.61024
181.429,16.99755,0.94391,-0.1709,0.61013
182.029,17.0154,0.94464,-0.1709,0.61002
182.629,17.03322,0.94846,-0.1709,0.6099
183.229,17.05098,0.9526,-0.1709,0.60979
183.829,17.06875,0.95134,-0.1709,0.60968
184.429,17.08642,0.95179,-0.17092,0.60957
185.029,17.10414,0.95269,-0.17135,0.60945
185.629,17.12179,0.95372,-0.17222,0.60934
186.229,17.13946,0.95457,-0.17221,0.60922
186.829,17.15706,0.95577,-0.17221,0.60911
187.429,17.17466,0.95735,-0.17219,0.60899
188.029,17.19228,0.96128,-0.17203,0.60888
188.629,17.20994,0.962,-0.17158,0.60876
189.229,17.22759,0.96654,-0.17189,0.60864
189.829,17.24512,0.97141,-0.17187,0.60853
190.429,17.26267,0.97055,-0.17177,0.60841
191.029,17.28014,0.97513,-0.17155,0.60829
191.629,17.29751,0.97777,-0.17155,0.60817
192.229,17.31481,0.98071,-0.17155,0.60805
192.829,17.33211,0.98456,-0.17157,0.60794
193.429,17.34948,0.98864,-0.17121,0.60782
194.029,17.36682,0.99178,-0.17121,0.6077
194.629,17.38419,0.99471,-0.17192,0.60758
195.229,17.40166,0.99835,-0.1722,0.60746
195.829,17.41915,1.00295,-0.17221,0.60733
196.429,17.43657,1.00689,-0.17221,0.60721
197.029,17.45393,1.00766,-0.17221,0.60709
197.629,17.47133,1.01276,-0.17221,0.60697
198.229,17.48863,1.01322,-0.17222,0.60685
198.829,17.50591,1.0133,-0.17287,0.60672
199.429,17.52316,1.02043,-0.17354,0.6066
200.029,17.54041,1.02079,-0.17353,0.60648
200.629,17.5577,1.02304,-0.17375,0.60635
201.229,17.57497,1.02814,-0.17493,0.60623
201.829,17.59224,1.03058,-0.17486,0.6061
202.429,17.6095,1.03277,-0.17485,0.60598
203.029,17.6267,1.03405,-0.17485,0.60585
203.629,17.64386,1.03763,-0.17485,0.60573
204.229,17.66105,1.04008,-0.17485,0.6056
204.829,17.67817,1.04243,-0.17484,0.60547
205.429,17.69533,1.04335,-0.1745,0.60535
206.029,17.71246,1.05243,-0.17348,0.60522
206.629,17.72961,1.04902,-0.17353,0.60509
207.229,17.74673,1.05074,-0.17353,0.60496
207.829,17.7638,1.05287,-0.17353,0.60483
208.429,17.7809,1.0578,-0.17353,0.60471
209.029,17.79799,1.05648,-0.17353,0.60458
209.629,17.81505,1.05948,-0.17353,0.60445
210.229,17.83204,1.06121,-0.17354,0.60432
210.829,17.84911,1.0637,-0.17353,0.60419
211.429,17.8661,1.06062,-0.17387,0.60406
212.029,17.8831,1.06125,-0.17385,0.60392
212.629,17.9001,1.06776,-0.17385,0.60379
213.229,17.9171,1.06707,-0.17385,0.60366
213.829,17.9341,1.06544,-0.17385,0.60353
214.429,17.95103,1.06853,-0.17386,0.6034
215.029,17.968,1.07068,-0.17379,0.60326
215.629,17.98497,1.07133,-0.17493,0.60313
216.229,18.00196,1.07431,-0.17485,0.603
216.829,18.01889,1.07544,-0.17484,0.60286
217.429,18.0358,1.07522,-0.17474,0.60273
218.029,18.05268,1.07821,-0.17604,0.60259
218.629,18.0696,1.08105,-0.17616,0.60246
219.229,18.0865,1.08595,-0.17616,0.60232
219.829,18.1034,1.08499,-0.17615,0.60219
220.429,18.12029,1.08994,-0.17614,0.60205
221.029,18.13723,1.08883,-0.17696,0.60191
221.629,18.15413,1.08926,-0.17748,0.60178
222.229,18.171,1.09472,-0.17747,0.60164
222.829,18.1878,1.09175,-0.17747,0.6015
223.429,18.20469,1.09118,-0.17747,0.60136
224.029,18.22147,1.09535,-0.17745,0.60122
224.629,18.23827,1.09556,-0.17755,0.60108
225.229,18.25505,1.09699,-0.17513,0.60095
225.829,18.27188,1.09543,-0.17279,0.60081
226.429,18.2887,1.09369,-0.17018,0.60067
227.029,18.30549,1.09569,-0.17019,0.60053
227.629,18.32229,1.09805,-0.17106,0.60039
228.229,18.339,1.10001,-0.17535,0.60024
228.829,18.35579,1.10151,-0.18189,0.6001
229.429,18.37245,1.10004,-0.18942,0.59996
230.029,18.38915,1.10158,-0.19075,0.59982
230.629,18.40586,1.10614,-0.18665,0.59968
231.229,18.42257,1.10809,-0.18206,0.59953
231.829,18.43923,1.1016,-0.18043,0.59939
232.429,18.45595,1.10671,-0.17949,0.59925
233.029,18.47266,1.10442,-0.17945,0.5991
233.629,18.4893,1.1042,-0.17945,0.59896
234.229,18.50599,1.10453,-0.17945,0.59882
234.829,18.52264,1.10446,-0.17945,0.59867
235.429,18.53932,1.10526,-0.17945,0.59853
236.029,18.556,1.10614,-0.17945,0.59838
236.629,18.57265,1.10477,-0.17945,0.59824
237.229,18.58933,1.10351,-0.17945,0.59809
237.829,18.606,1.10578,-0.17936,0.59794
238.429,18.62266,1.10936,-0.18064,0.5978
239.029,18.63928,1.11121,-0.18076,0.59765
239.629,18.6559,1.11083,-0.18076,0.5975
240.229,18.67257,1.11186,-0.18076,0.59735
240.829,18.68913,1.11487,-0.18076,0.59721
241.429,18.70572,1.11301,-0.18076,0.59706
242.029,18.7224,1.11595,-0.18076,0.59691
242.629,18.73895,1.11644,-0.18107,0.59676
243.229,18.7555,1.11882,-0.18215,0.59661
243.829,18.7722,1.11555,-0.18205,0.59646
244.429,18.78872,1.11751,-0.183,0.59631
245.029,18.80528,1.11975,-0.18483,0.59616
245.629,18.82188,1.12169,-0.18473,0.59601
246.229,18.8384,1.12046,-0.18472,0.59586
246.829,18.85495,1.12238,-0.18472,0.59571
247.429,18.8715,1.12393,-0.18472,0.59556
248.029,18.88801,1.12172,-0.18472,0.5954
248.629,18.9045,1.12514,-0.18473,0.59525
249.229,18.921,1.12667,-0.18479,0.5951
249.829,18.9375,1.12872,-0.18597,0.59495
250.429,18.95407,1.12572,-0.18603,0.59479
251.029,18.97062,1.12396,-0.18609,0.59464
251.629,18.98718,1.12349,-0.18726,0.59449
252.229,19.00374,1.12778,-0.18725,0.59433
252.829,19.02028,1.12737,-0.18842,0.59418
253.429,19.03678,1.12533,-0.18878,0.59402
254.029,19.0533,1.13075,-0.18961,0.59387
254.629,19.06974,1.12966,-0.19029,0.59371
255.229,19.08623,1.13098,-0.19107,0.59356
255.829,19.10269,1.13185,-0.19178,0.5934
256.429,19.11916,1.12877,-0.19294,0.59324
257.029,19.13565,1.13014,-0.19341,0.59309
257.629,19.15213,1.12806,-0.19426,0.59293
258.229,19.16854,1.13014,-0.19624,0.59277
258.829,19.18502,1.13107,-0.19684,0.59261
259.429,19.2015,1.13311,-0.19775,0.59246
260.029,19.21795,1.1291,-0.19831,0.5923
260.629,19.2344,1.13096,-0.19927,0.59214
261.229,19.25086,1.13232,-0.19931,0.59198
261.829,19.2673,1.1279,-0.2006,0.59182
262.429,19.28378,1.13143,-0.20106,0.59166
263.029,19.3003,1.13638,-0.20215,0.5915
263.629,19.3167,1.13812,-0.20258,0.59134
264.229,19.33314,1.13937,-0.20365,0.59118
264.829,19.34962,1.14267,-0.20505,0.59102
265.429,19.36603,1.14238,-0.20599,0.59086
266.029,19.38244,1.1438,-0.20612,0.5907
266.629,19.39891,1.1456,-0.20774,0.59054
267.229,19.41536,1.14827,-0.20806,0.59038
267.829,19.43178,1.14927,-0.20936,0.59021
268.429,19.44821,1.1515,-0.20923,0.59005
269.029,19.4647,1.15075,-0.21064,0.58989
269.629,19.48098,1.15309,-0.21087,0.58973
270.229,19.49731,1.1549,-0.21254,0.58956
270.829,19.51354,1.15912,-0.21531,0.5894
271.429,19.52982,1.16015,-0.21717,0.58923
272.029,19.54615,1.16071,-0.22004,0.58907
272.629,19.56258,1.16171,-0.22162,0.58891
273.229,19.57901,1.16569,-0.22298,0.58874
273.829,19.59555,1.16912,-0.2244,0.58858
274.429,19.6121,1.16562,-0.22614,0.58841
275.029,19.62856,1.16992,-0.22775,0.58825
275.629,19.645,1.1734,-0.22918,0.58808
276.229,19.66142,1.17209,-0.22922,0.58791
276.829,19.67784,1.17033,-0.23147,0.58775
277.429,19.69429,1.17218,-0.23343,0.58758
278.029,19.71071,1.17205,-0.23547,0.58741
278.629,19.7271,1.17307,-0.23643,0.58725
279.229,19.7435,1.1754,-0.23776,0.58708
279.829,19.75988,1.17817,-0.23965,0.58691
280.429,19.7762,1.17976,-0.24183,0.58674
281.029,19.7926,1.18282,-0.24517,0.58657
281.629,19.809,1.18293,-0.24688,0.5864
282.229,19.82537,1.18557,-0.24877,0.58624
282.829,19.84179,1.18736,-0.25068,0.58607
283.429,19.85821,1.18926,-0.25194,0.5859
284.029,19.8746,1.18898,-0.25357,0.58573
284.629,19.891,1.19319,-0.25496,0.58556
285.229,19.90735,1.19747,-0.25738,0.58539
285.829,19.92373,1.20023,-0.26037,0.58522
286.429,19.94013,1.20228,-0.26337,0.58504
287.029,19.95651,1.20345,-0.26759,0.58487
287.629,19.97289,1.20659,-0.27028,0.5847
288.229,19.98926,1.20746,-0.2718,0.58453
288.829,20.0057,1.21165,-0.27258,0.58436
289.429,20.022,1.21699,-0.27393,0.58419
290.029,20.03836,1.21764,-0.27615,0.58401
290.629,20.05475,1.22318,-0.27993,0.58384
291.229,20.07115,1.22386,-0.28232,0.58367
291.829,20.08755,1.22737,-0.28698,0.58349
292.429,20.10391,1.23004,-0.28961,0.58332
293.029,20.12032,1.23326,-0.29338,0.58315
293.629,20.13673,1.23921,-0.29505,0.58297
294.229,20.15312,1.24261,-0.29784,0.5828
294.829,20.1695,1.24606,-0.3016,0.58262
295.429,20.18595,1.25354,-0.30378,0.58245
296.029,20.20231,1.25813,-0.30686,0.58227
296.629,20.21872,1.26296,-0.30989,0.5821
297.229,20.23511,1.2664,-0.31212,0.58192
297.829,20.25145,1.27007,-0.3162,0.58175
298.429,20.26771,1.27304,-0.32095,0.58157
299.029,20.28405,1.27583,-0.32496,0.5814
299.629,20.30044,1.27644,-0.32821,0.58122
300.229,20.31683,1.284,-0.33193,0.58104
300.829,20.33324,1.28883,-0.33529,0.58086
301.429,20.34965,1.29316,-0.33791,0.58069
302.029,20.3661,1.29589,-0.34263,0.58051
302.629,20.38249,1.30051,-0.34655,0.58033
303.229,20.3989,1.30286,-0.35133,0.58015
303.829,20.41531,1.30716,-0.35638,0.57997
304.429,20.4317,1.3099,-0.35989,0.5798
305.029,20.4482,1.31271,-0.36386,0.57962
305.629,20.46445,1.31512,-0.36652,0.57944
306.229,20.48086,1.31671,-0.37163,0.57926
306.829,20.49725,1.32348,-0.37591,0.57908
307.429,20.51361,1.32868,-0.3812,0.5789
308.029,20.52998,1.33447,-0.38592,0.57872
308.629,20.54646,1.33807,-0.39202,0.57854
309.229,20.5628,1.33952,-0.39662,0.57836
309.829,20.57923,1.34767,-0.4018,0.57818
310.429,20.59562,1.3541,-0.4075,0.578
311.029,20.612,1.35998,-0.41209,0.57782
311.629,20.62847,1.36589,-0.4177,0.57763
312.229,20.64487,1.37173,-0.4218,0.57745
312.829,20.6613,1.37588,-0.42752,0.57727
313.429,20.67769,1.38215,-0.4338,0.57709
314.029,20.6941,1.38912,-0.43959,0.57691
314.629,20.71039,1.39589,-0.44658,0.57672
315.229,20.72673,1.40141,-0.45055,0.57654
315.829,20.74312,1.40764,-0.45691,0.57636
316.429,20.7595,1.41472,-0.46288,0.57617
317.029,20.77584,1.42097,-0.46901,0.57599
317.629,20.79224,1.43028,-0.47618,0.57581
318.229,20.80872,1.43701,-0.48211,0.57562
318.829,20.82517,1.44714,-0.48969,0.57544
319.429,20.8415,1.46,-0.49583,0.57525
320.029,20.8579,1.46667,-0.50252,0.57507
320.629,20.87431,1.47421,-0.51014,0.57488
321.229,20.89076,1.4802,-0.5167,0.5747
321.829,20.90704,1.49096,-0.52569,0.57451
322.429,20.92333,1.5002,-0.53266,0.57433
323.029,20.93976,1.50882,-0.54076,0.57414
323.629,20.95624,1.52027,-0.54885,0.57396
324.229,20.97265,1.52999,-0.55568,0.57377
324.829,20.98907,1.54133,-0.56516,0.57358
325.429,21.00562,1.55532,-0.57274,0.5734
326.029,21.0221,1.56317,-0.58275,0.57321
326.629,21.0385,1.57685,-0.59201,0.57302
327.229,21.05491,1.58874,-0.60139,0.57283
327.829,21.0714,1.60316,-0.61312,0.57265
328.429,21.08778,1.62353,-0.62177,0.57246
329.029,21.10417,1.63534,-0.63211,0.57227
329.629,21.12045,1.65031,-0.641,0.57208
330.229,21.1368,1.66212,-0.65108,0.57189
330.829,21.1532,1.68058,-0.6631,0.57171
331.429,21.1696,1.69677,-0.67327,0.57152
332.029,21.18606,1.71574,-0.68638,0.57133
332.629,21.2026,1.73618,-0.6965,0.57114
333.229,21.21913,1.76019,-0.70833,0.57095
333.829,21.23556,1.77428,-0.72108,0.57076
334.429,21.25202,1.79606,-0.73172,0.57057
335.029,21.26846,1.81924,-0.74511,0.57038
335.629,21.28489,1.842,-0.75558,0.57019
336.229,21.30134,1.86619,-0.76925,0.57
336.829,21.31782,1.88867,-0.78323,0.56981
337.429,21.3342,1.91403,-0.79629,0.56962
338.029,21.3507,1.9364,-0.81204,0.56943
338.629,21.36719,1.96366,-0.82422,0.56923
339.229,21.3836,1.98792,-0.84039,0.56904
339.829,21.40007,2.0195,-0.85519,0.56885
340.429,21.4165,2.05313,-0.87061,0.56866
341.029,21.43296,2.08109,-0.88885,0.56847
341.629,21.4494,2.11784,-0.90373,0.56828
342.229,21.4659,2.15094,-0.92314,0.56808
342.829,21.48237,2.18862,-0.93868,0.56789
343.429,21.4988,2.22382,-0.95657,0.5677
344.029,21.5153,2.25705,-0.97587,0.5675
344.629,21.53175,2.30183,-0.99322,0.56731
345.229,21.5483,2.34458,-1.01586,0.56712
345.829,21.56469,2.38806,-1.03333,0.56692
346.429,21.58117,2.43195,-1.05484,0.56673
347.029,21.59769,2.47912,-1.07604,0.56654
347.629,21.61422,2.52707,-1.09647,0.56634
348.229,21.6307,2.57588,-1.12218,0.56615
348.829,21.64718,2.61996,-1.14233,0.56595
349.429,21.6637,2.67179,-1.16866,0.56576
350.029,21.6802,2.73059,-1.19271,0.56556
350.629,21.6967,2.79368,-1.21825,0.56537
351.229,21.71322,2.84916,-1.24748,0.56517
351.829,21.72974,2.90986,-1.27109,0.56498
352.429,21.7462,2.97771,-1.30134,0.56478
353.029,21.76268,3.04372,-1.32668,0.56459
353.629,21.77917,3.11566,-1.35682,0.56439
354.229,21.79562,3.18693,-1.38928,0.56419
354.829,21.81206,3.26222,-1.41808,0.564
355.429,21.82852,3.33842,-1.45542,0.5638
356.029,21.84495,3.4178,-1.48362,0.5636
356.629,21.86139,3.49954,-1.51947,0.56341
357.229,21.8778,3.57879,-1.55388,0.56321
357.829,21.8943,3.66291,-1.58727,0.56301
358.429,21.91072,3.7448,-1.62921,0.56282
359.029,21.92718,3.82597,-1.6621,0.56262
359.629,21.94365,3.90802,-1.70562,0.56242
360.229,21.96017,3.98681,-1.74357,0.56222
360.829,21.9767,4.06478,-1.78151,0.56202
361.429,21.99321,4.13973,-1.82532,0.56183
362.029,22.0098,4.2126,-1.88086,0.56163
362.629,22.0264,4.28546,-1.94808,0.56143
363.229,22.04301,4.35708,-1.9842,0.56123
363.829,22.05957,4.41756,-2.0245,0.56103
364.429,22.07621,4.48118,-2.07097,0.56083
365.029,22.09284,4.54295,-2.11501,0.56063
365.629,22.1095,4.59551,-2.16464,0.56043
366.229,22.1262,4.64864,-2.21457,0.56023
366.829,22.14282,4.69419,-2.26601,0.56003
367.429,22.1596,4.73432,-2.31766,0.55983
368.029,22.1763,4.77021,-2.368,0.55963
368.629,22.193,4.80197,-2.41795,0.55943
369.229,22.20973,4.83015,-2.46893,0.55923
369.829,22.2265,4.8523,-2.52192,0.55903
370.429,22.24326,4.86245,-2.57567,0.55883
371.029,22.26005,4.8738,-2.62893,0.55863
371.629,22.27685,4.87747,-2.68135,0.55843
372.229,22.29363,4.87564,-2.73305,0.55823
372.829,22.31042,4.86492,-2.78492,0.55803
373.429,22.3272,4.84475,-2.83773,0.55783
374.029,22.344,4.8189,-2.89148,0.55762
374.629,22.36085,4.78846,-2.94415,0.55742
375.229,22.37765,4.74675,-2.99541,0.55722
375.829,22.3945,4.69649,-3.04521,0.55702
376.429,22.41132,4.6376,-3.09518,0.55682
377.029,22.42811,4.57297,-3.14495,0.55661
377.629,22.44491,4.49904,-3.19499,0.55641
378.229,22.4618,4.41565,-3.24458,0.55621
378.829,22.47863,4.33319,-3.29322,0.556
379.429,22.4955,4.23962,-3.33861,0.5558
380.029,22.5124,4.14334,-3.382,0.5556
380.629,22.5293,4.03023,-3.42494,0.5554
381.229,22.54619,3.90865,-3.46758,0.55519
381.829,22.56306,3.78805,-3.50984,0.55499
382.429,22.5799,3.65954,-3.55105,0.55478
383.029,22.5967,3.52913,-3.58946,0.55458
383.629,22.61356,3.39593,-3.61862,0.55438
384.229,22.63043,3.25795,-3.6533,0.55417
384.829,22.6473,3.11953,-3.68236,0.55397
385.429,22.66416,2.97915,-3.71719,0.55376
386.029,22.68101,2.83961,-3.74559,0.55356
386.629,22.69785,2.69778,-3.774,0.55335
387.229,22.71474,2.55674,-3.80347,0.55315
387.829,22.73163,2.41531,-3.82813,0.55294
388.429,22.7485,2.27834,-3.85627,0.55274
389.029,22.76551,2.14384,-3.87611,0.55253
389.629,22.78236,2.00735,-3.89863,0.55233
390.229,22.79928,1.8718,-3.91854,0.55212
390.829,22.81618,1.73973,-3.93698,0.55192
391.429,22.83313,1.61927,-3.95639,0.55171
392.029,22.85003,1.49295,-3.97055,0.55151
392.629,22.8671,1.37044,-3.98763,0.5513
393.229,22.88405,1.25409,-4.00028,0.55109
393.829,22.90101,1.14339,-4.01235,0.55089
394.429,22.91797,1.03362,-4.02473,0.55068
395.029,22.93492,0.93274,-4.03531,0.55047
395.629,22.95184,0.83333,-4.04765,0.55027
396.229,22.96876,0.74177,-4.0574,0.55006
396.829,22.98566,0.65552,-4.06731,0.54985
397.429,23.0026,0.57057,-4.07413,0.54965
398.029,23.01951,0.49374,-4.08102,0.54944
398.629,23.0365,0.42517,-4.08752,0.54923
399.229,23.05345,0.36038,-4.0931,0.54903
399.829,23.07045,0.2953,-4.09887,0.54882
400.429,23.08744,0.23765,-4.1029,0.54861
401.029,23.1045,0.18076,-4.1075,0.5484
401.629,23.1215,0.12545,-4.11116,0.54819
402.229,23.13853,0.0751583,-4.1143,0.54799
402.829,23.15553,0.03129854,-4.1175,0.54778
403.429,23.1725,-0.00794555,-4.1207,0.54757
404.029,23.18959,-0.04252236,-4.12307,0.54736
404.629,23.20669,-0.07582536,-4.12547,0.54715
405.229,23.2238,-0.10433,-4.12826,0.54694
405.829,23.24086,-0.12916,-4.13005,0.54674
406.429,23.25797,-0.15282,-4.13155,0.54653
407.029,23.27502,-0.1743,-4.13335,0.54632
407.629,23.29201,-0.18778,-4.13519,0.54611
408.229,23.30902,-0.20278,-4.13821,0.5459
408.829,23.326,-0.21049,-4.14061,0.54569
409.429,23.34297,-0.20525,-4.1422,0.54548
410.029,23.36,-0.2246,-4.1438,0.54527
410.629,23.37714,-0.25381,-4.14566,0.54506
411.229,23.3943,-0.25443,-4.14786,0.54485
411.829,23.41139,-0.25917,-4.14941,0.54464
412.429,23.42855,-0.27031,-4.1496,0.54443
413.029,23.44575,-0.28901,-4.1507,0.54422
413.629,23.46291,-0.30144,-4.15067,0.54401
414.229,23.48005,-0.31585,-4.15211,0.5438
414.829,23.49728,-0.34692,-4.15221,0.54359
415.429,23.51451,-0.34534,-4.15394,0.54338
416.029,23.53162,-0.34814,-4.15595,0.54317
416.629,23.54875,-0.35558,-4.15794,0.54296
417.229,23.56599,-0.36238,-4.15862,0.54275
417.829,23.58319,-0.37124,-4.15929,0.54254
418.429,23.6004,-0.38089,-4.16016,0.54233
419.029,23.61767,-0.3907,-4.16211,0.54212
419.629,23.63498,-0.38982,-4.16358,0.54191
420.229,23.65223,-0.39101,-4.16458,0.5417
420.829,23.6695,-0.39242,-4.16543,0.54148
421.429,23.68664,-0.41064,-4.16507,0.54127
422.029,23.7039,-0.41472,-4.16548,0.54106
422.629,23.72119,-0.40923,-4.16551,0.54085
423.229,23.73846,-0.42724,-4.16696,0.54064
423.829,23.75574,-0.4271,-4.16774,0.54043
424.429,23.77315,-0.43148,-4.16896,0.54021
425.029,23.79049,-0.43674,-4.17052,0.54
425.629,23.80781,-0.44174,-4.17143,0.53979
426.229,23.82509,-0.44592,-4.17209,0.53958
426.829,23.84245,-0.44818,-4.17381,0.53937
427.429,23.85977,-0.45194,-4.17369,0.53915
428.029,23.87708,-0.45805,-4.17489,0.53894
428.629,23.89445,-0.45688,-4.17493,0.53873
429.229,23.91178,-0.46204,-4.17592,0.53852
429.829,23.92911,-0.46219,-4.17652,0.5383
430.429,23.9465,-0.47258,-4.17904,0.53809
431.029,23.96386,-0.47563,-4.17971,0.53788
431.629,23.9812,-0.47389,-4.18088,0.53767
432.229,23.9986,-0.476,-4.18232,0.53745
432.829,24.01606,-0.48051,-4.18272,0.53724
433.429,24.03343,-0.48154,-4.1837,0.53703
434.029,24.05079,-0.48401,-4.18365,0.53681
434.629,24.06823,-0.48791,-4.18366,0.5366
435.229,24.0856,-0.49159,-4.18434,0.53639
435.829,24.10299,-0.49352,-4.1852,0.53617
436.429,24.12041,-0.50001,-4.18701,0.53596
437.029,24.1378,-0.50348,-4.18632,0.53575
437.629,24.15523,-0.50239,-4.18736,0.53553
438.229,24.17272,-0.50517,-4.18875,0.53532
438.829,24.19013,-0.50683,-4.18936,0.53511
439.429,24.20755,-0.50657,-4.19073,0.53489
440.029,24.22502,-0.50682,-4.19123,0.53468
440.629,24.24246,-0.5136,-4.19211,0.53446
441.229,24.25991,-0.51383,-4.1925,0.53425
441.829,24.27729,-0.51359,-4.19481,0.53404
442.429,24.29476,-0.51834,-4.19628,0.53382
443.029,24.3123,-0.53266,-4.1966,0.53361
443.629,24.32977,-0.52551,-4.19664,0.53339
444.229,24.34725,-0.52424,-4.19789,0.53318
444.829,24.36486,-0.52628,-4.1978,0.53296
445.429,24.38242,-0.52823,-4.19926,0.53275
446.029,24.39996,-0.53143,-4.19945,0.53253
446.629,24.41747,-0.53267,-4.20064,0.53232
447.229,24.435,-0.53641,-4.20077,0.5321
447.829,24.4526,-0.54087,-4.20107,0.53189
448.429,24.4701,-0.53865,-4.20231,0.53168
449.029,24.48766,-0.5406,-4.20223,0.53146
449.629,24.50522,-0.54183,-4.20358,0.53125
450.229,24.5228,-0.54226,-4.20362,0.53103
450.829,24.54034,-0.54584,-4.20407,0.53082
451.429,24.55791,-0.54765,-4.20517,0.5306
452.029,24.57545,-0.55073,-4.20616,0.53038
452.629,24.593,-0.55191,-4.20644,0.53017
453.229,24.61064,-0.55792,-4.20695,0.52995
453.829,24.62826,-0.56151,-4.20791,0.52974
454.429,24.64585,-0.55991,-4.20924,0.52952
455.029,24.66347,-0.55892,-4.20961,0.52931
455.629,24.68111,-0.55896,-4.20965,0.52909
456.229,24.69872,-0.55785,-4.20994,0.52888
456.829,24.71636,-0.55909,-4.21101,0.52866
457.429,24.734,-0.56096,-4.211,0.52845
458.029,24.75168,-0.56202,-4.21316,0.52823
458.629,24.76935,-0.56787,-4.2146,0.52801
459.229,24.787,-0.57065,-4.21549,0.5278
459.829,24.8047,-0.5696,-4.21637,0.52758
460.429,24.82242,-0.57955,-4.21674,0.52737
461.029,24.84011,-0.57812,-4.21674,0.52715
461.629,24.85782,-0.57585,-4.21683,0.52693
462.229,24.87552,-0.57769,-4.21678,0.52672
462.829,24.89322,-0.57978,-4.2181,0.5265
463.429,24.91086,-0.58289,-4.21818,0.52628
464.029,24.92857,-0.5856,-4.2188,0.52607
464.629,24.94631,-0.58509,-4.21973,0.52585
465.229,24.96408,-0.58558,-4.22109,0.52564
465.829,24.98184,-0.58427,-4.22229,0.52542
466.429,24.99965,-0.58648,-4.22414,0.5252
467.029,25.0174,-0.59089,-4.22553,0.52499
467.629,25.0352,-0.5886,-4.22555,0.52477
468.229,25.053,-0.59403,-4.22555,0.52455
468.829,25.07081,-0.59558,-4.22555,0.52434
469.429,25.08863,-0.5957,-4.22582,0.52412
470.029,25.1065,-0.59631,-4.22743,0.5239
470.629,25.12428,-0.59753,-4.22798,0.52369
471.229,25.14208,-0.59931,-4.22902,0.52347
471.829,25.15983,-0.59845,-4.2301,0.52325
472.429,25.17762,-0.60006,-4.23048,0.52304
473.029,25.19539,-0.60193,-4.23043,0.52282
473.629,25.21321,-0.60296,-4.23147,0.5226
474.229,25.23111,-0.60556,-4.2318,0.52239
474.829,25.24895,-0.60207,-4.23179,0.52217
475.429,25.26676,-0.60434,-4.23332,0.52195
476.029,25.28452,-0.60452,-4.23388,0.52174
476.629,25.30229,-0.60666,-4.2349,0.52152
477.229,25.32004,-0.60682,-4.23493,0.5213
477.829,25.3379,-0.60514,-4.23618,0.52108
478.429,25.35574,-0.60632,-4.23619,0.52087
479.029,25.3736,-0.60892,-4.23621,0.52065
479.629,25.3916,-0.60819,-4.23637,0.52043
480.229,25.40953,-0.61028,-4.23761,0.52022
480.829,25.42746,-0.6114,-4.239,0.52
481.429,25.4453,-0.60994,-4.24042,0.51978
482.029,25.46331,-0.6099,-4.24039,0.51956
482.629,25.4813,-0.61317,-4.24199,0.51935
483.229,25.49934,-0.6159,-4.24224,0.51913
483.829,25.51738,-0.61859,-4.24347,0.51891
484.429,25.53545,-0.61782,-4.24355,0.51869
485.029,25.55351,-0.61852,-4.24485,0.51848
485.629,25.57143,-0.62209,-4.24476,0.51826
486.229,25.58932,-0.62192,-4.24629,0.51804
486.829,25.6073,-0.62178,-4.24627,0.51782
487.429,25.6253,-0.62422,-4.24628,0.51761
488.029,25.6433,-0.62868,-4.24627,0.51739
488.629,25.66143,-0.63055,-4.24683,0.51717
489.229,25.6795,-0.63007,-4.24759,0.51695
489.829,25.69754,-0.63363,-4.24759,0.51674
490.429,25.71555,-0.63464,-4.2477,0.51652
491.029,25.73357,-0.63723,-4.24901,0.5163
491.629,25.75156,-0.63962,-4.24892,0.51608
492.229,25.76961,-0.64068,-4.24892,0.51587
492.829,25.78765,-0.64462,-4.25017,0.51565
493.429,25.80571,-0.64364,-4.25023,0.51543
494.029,25.82378,-0.64572,-4.25042,0.51521
494.629,25.84187,-0.64521,-4.25249,0.515
495.229,25.8599,-0.64413,-4.25295,0.51478
495.829,25.878,-0.64699,-4.25384,0.51456
496.429,25.89607,-0.64777,-4.25436,0.51434
497.029,25.9142,-0.64871,-4.25551,0.51412
497.629,25.93225,-0.64711,-4.2558,0.51391
498.229,25.9504,-0.64659,-4.2558,0.51369
498.829,25.96856,-0.64598,-4.25676,0.51347
499.429,25.98667,-0.64901,-4.25715,0.51325
500.029,26.00465,-0.65066,-4.25722,0.51304
500.629,26.02264,-0.65088,-4.25852,0.51282
501.229,26.0407,-0.64683,-4.25708,0.5126
501.829,26.05874,-0.64648,-4.25744,0.51238
502.429,26.07687,-0.64665,-4.25849,0.51216
503.029,26.0951,-0.64717,-4.25845,0.51195
503.629,26.11336,-0.64381,-4.26109,0.51173
504.229,26.1315,-0.64488,-4.26107,0.51151
504.829,26.14967,-0.64559,-4.26179,0.51129
505.429,26.16785,-0.64849,-4.26241,0.51107
506.029,26.18604,-0.64602,-4.2624,0.51086
506.629,26.20419,-0.64574,-4.26239,0.51064
507.229,26.22239,-0.64249,-4.26306,0.51042
507.829,26.2406,-0.64105,-4.2637,0.5102
508.429,26.2588,-0.64347,-4.26372,0.50999
509.029,26.2771,-0.64434,-4.26368,0.50977
509.629,26.29532,-0.64574,-4.26485,0.50955
510.229,26.3136,-0.64572,-4.26503,0.50933
510.829,26.3318,-0.64502,-4.26505,0.50911
511.429,26.35006,-0.64431,-4.26507,0.5089
512.029,26.36826,-0.64498,-4.26643,0.50868
512.629,26.38653,-0.64183,-4.26688,0.50846
513.229,26.40475,-0.63927,-4.26794,0.50824
513.829,26.423,-0.63611,-4.26782,0.50803
514.429,26.4412,-0.63619,-4.26903,0.50781
515.029,26.4595,-0.63536,-4.26922,0.50759
515.629,26.4778,-0.63503,-4.27188,0.50737
516.229,26.4961,-0.63228,-4.27205,0.50715
516.829,26.51442,-0.63487,-4.27263,0.50694
517.429,26.5328,-0.63788,-4.27218,0.50672
518.029,26.55105,-0.63666,-4.27207,0.5065
518.629,26.56932,-0.63422,-4.27206,0.50628
519.229,26.5876,-0.63334,-4.27331,0.50607
519.829,26.6059,-0.63178,-4.27339,0.50585
520.429,26.62422,-0.63574,-4.27383,0.50563
521.029,26.64258,-0.63366,-4.27466,0.50541
521.629,26.6609,-0.63357,-4.27564,0.50519
522.229,26.6792,-0.63255,-4.27909,0.50498
522.829,26.69756,-0.63167,-4.28441,0.50476
523.429,26.7159,-0.6317,-4.28543,0.50454
524.029,26.7343,-0.63124,-4.2797,0.50432
524.629,26.75272,-0.6308,-4.27339,0.50411
525.229,26.77116,-0.63091,-4.27011,0.50389
525.829,26.7896,-0.63019,-4.27135,0.50367
526.429,26.8079,-0.62965,-4.27468,0.50345
527.029,26.8262,-0.63179,-4.27795,0.50324
527.629,26.8446,-0.63053,-4.27876,0.50302
528.229,26.86297,-0.6315,-4.27868,0.5028
528.829,26.8814,-0.63233,-4.27988,0.50258
529.429,26.89985,-0.6346,-4.28006,0.50237
530.029,26.91828,-0.63341,-4.28007,0.50215
530.629,26.93665,-0.63287,-4.28051,0.50193
531.229,26.95508,-0.62947,-4.28142,0.50171
531.829,26.97349,-0.63029,-4.28142,0.5015
532.429,26.99193,-0.63264,-4.28291,0.50128
533.029,27.01026,-0.63161,-4.28281,0.50106
533.629,27.0287,-0.63133,-4.2831,0.50085
534.229,27.0471,-0.63119,-4.28532,0.50063
534.829,27.06557,-0.63375,-4.28543,0.50041
535.429,27.084,-0.63229,-4.28544,0.50019
536.029,27.10261,-0.63314,-4.28546,0.49998
536.629,27.12112,-0.63398,-4.28559,0.49976
537.229,27.1396,-0.62969,-4.28676,0.49954
537.829,27.1581,-0.63448,-4.28676,0.49933
538.429,27.1766,-0.63448,-4.28667,0.49911
539.029,27.1951,-0.63261,-4.28803,0.49889
539.629,27.21363,-0.63258,-4.28807,0.49867
540.229,27.23218,-0.63198,-4.28809,0.49846
540.829,27.25072,-0.63079,-4.28946,0.49824
541.429,27.2692,-0.63185,-4.28939,0.49802
542.029,27.28775,-0.63319,-4.28993,0.49781
542.629,27.3063,-0.63315,-4.29074,0.49759
543.229,27.32487,-0.63194,-4.29074,0.49737
543.829,27.3434,-0.62952,-4.29108,0.49716
544.429,27.36197,-0.63196,-4.29203,0.49694
545.029,27.38049,-0.63163,-4.29202,0.49672
545.629,27.3991,-0.63287,-4.29202,0.49651
546.229,27.41759,-0.63456,-4.29202,0.49629
546.829,27.43618,-0.63079,-4.29201,0.49607
547.429,27.45475,-0.62952,-4.29294,0.49586
548.029,27.4734,-0.62574,-4.29331,0.49564
548.629,27.4919,-0.62486,-4.29333,0.49542
549.229,27.5105,-0.62877,-4.29379,0.49521
549.829,27.52911,-0.62736,-4.29466,0.49499
550.429,27.54767,-0.62328,-4.29466,0.49477
551.029,27.5662,-0.62088,-4.29468,0.49456
551.629,27.58486,-0.62124,-4.29611,0.49434
552.229,27.60347,-0.61996,-4.29738,0.49412
552.829,27.62208,-0.62013,-4.29739,0.49391
553.429,27.6407,-0.62213,-4.29739,0.49369
554.029,27.65938,-0.62238,-4.2974,0.49348
554.629,27.67805,-0.62325,-4.29937,0.49326
555.229,27.6967,-0.62257,-4.3032,0.49304
555.829,27.71545,-0.61909,-4.30824,0.49283
556.429,27.73415,-0.61997,-4.31035,0.49261
557.029,27.75282,-0.61937,-4.30417,0.4924
557.629,27.7715,-0.61746,-4.29595,0.49218
558.229,27.79015,-0.61876,-4.29208,0.49196
558.829,27.80878,-0.61897,-4.29511,0.49175
559.429,27.8274,-0.62002,-4.2986,0.49153
560.029,27.84613,-0.61886,-4.30152,0.49132
560.629,27.8648,-0.62011,-4.30139,0.4911
561.229,27.88338,-0.6215,-4.30173,0.49089
561.829,27.9021,-0.6243,-4.3028,0.49067
562.429,27.9208,-0.62477,-4.30401,0.49045
563.029,27.9395,-0.62412,-4.30433,0.49024
563.629,27.95825,-0.62228,-4.30531,0.49002
564.229,27.977,-0.62355,-4.3053,0.48981
564.829,27.9957,-0.62224,-4.30567,0.48959
565.429,28.01445,-0.62231,-4.30665,0.48938
566.029,28.0332,-0.62613,-4.30659,0.48916
566.629,28.0519,-0.6262,-4.31028,0.48895
567.229,28.07068,-0.62318,-4.31457,0.48873
567.829,28.0894,-0.62091,-4.3171,0.48852
568.429,28.10812,-0.61973,-4.31097,0.4883
569.029,28.1268,-0.61874,-4.30124,0.48809
569.629,28.1456,-0.62064,-4.2981,0.48787
570.229,28.16436,-0.62313,-4.30292,0.48766
570.829,28.18315,-0.61971,-4.30684,0.48744
571.429,28.2019,-0.61945,-4.30825,0.48723
572.029,28.22073,-0.62026,-4.30948,0.48701
572.629,28.2395,-0.61744,-4.30979,0.4868
573.229,28.2582,-0.61737,-4.31107,0.48658
573.829,28.277,-0.61204,-4.31109,0.48637
574.429,28.2958,-0.61275,-4.31109,0.48616
575.029,28.3146,-0.61725,-4.31101,0.48594
575.629,28.3334,-0.61936,-4.31232,0.48573
576.229,28.3522,-0.61947,-4.31305,0.48551
576.829,28.37104,-0.61616,-4.31368,0.4853
577.429,28.3899,-0.61563,-4.31478,0.48508
578.029,28.40865,-0.61685,-4.31505,0.48487
578.629,28.42758,-0.61618,-4.31505,0.48466
579.229,28.44639,-0.6182,-4.31505,0.48444
579.829,28.46525,-0.61393,-4.31505,0.48423
580.429,28.48408,-0.61501,-4.31505,0.48401
581.029,28.5029,-0.61626,-4.31509,0.4838
581.629,28.5218,-0.61334,-4.31646,0.48359
582.229,28.5406,-0.61637,-4.31635,0.48337
582.829,28.5594,-0.61477,-4.31738,0.48316
583.429,28.57825,-0.61498,-4.31779,0.48295
584.029,28.59715,-0.61645,-4.31779,0.48273
584.629,28.616,-0.61494,-4.3178,0.48252
585.229,28.6349,-0.61309,-4.31809,0.48231
585.829,28.6539,-0.614,-4.31924,0.48209
586.429,28.67281,-0.61395,-4.32022,0.48188
587.029,28.6917,-0.61308,-4.32063,0.48167
587.629,28.71053,-0.61472,-4.32065,0.48145
588.229,28.72942,-0.61508,-4.32065,0.48124
588.829,28.74829,-0.61565,-4.32126,0.48103
589.429,28.76724,-0.61521,-4.32135,0.48081
590.029,28.7862,-0.61454,-4.32061,0.4806
590.629,28.8052,-0.61716,-4.32104,0.48039
591.229,28.82405,-0.61764,-4.32128,0.48018
591.829,28.84297,-0.61898,-4.3213,0.47996
592.429,28.86187,-0.61735,-4.3213,0.47975
593.029,28.8808,-0.61617,-4.32131,0.47954
593.629,28.8997,-0.61625,-4.32265,0.47933
594.229,28.9188,-0.61489,-4.32262,0.47911
594.829,28.93774,-0.61648,-4.32357,0.4789
595.429,28.95673,-0.61656,-4.32415,0.47869
596.029,28.9757,-0.61446,-4.32525,0.47848
596.629,28.99473,-0.61393,-4.32556,0.47827
597.229,29.0137,-0.61399,-4.32558,0.47805
597.829,29.0327,-0.61337,-4.32561,0.47784
598.429,29.05166,-0.61631,-4.32699,0.47763
599.029,29.0707,-0.61423,-4.3269,0.47742
599.629,29.08962,-0.61514,-4.3269,0.47721
600.229,29.1086,-0.61692,-4.3269,0.47699
600.829,29.12762,-0.61934,-4.32683,0.47678
601.429,29.14654,-0.62039,-4.32819,0.47657
602.029,29.1654,-0.61917,-4.32823,0.47636
602.629,29.1844,-0.61765,-4.3287,0.47615
603.229,29.2035,-0.61956,-4.32954,0.47594
603.829,29.22255,-0.61727,-4.32953,0.47573
604.429,29.2417,-0.62005,-4.32953,0.47552
605.029,29.26083,-0.62186,-4.32953,0.47531
605.629,29.2799,-0.62104,-4.32953,0.47509
606.229,29.29887,-0.62072,-4.32953,0.47488
606.829,29.31798,-0.62114,-4.32953,0.47467
607.429,29.3371,-0.62206,-4.32945,0.47446
608.029,29.35618,-0.62207,-4.33082,0.47425
608.629,29.3753,-0.62132,-4.33075,0.47404
609.229,29.39433,-0.6214,-4.3321,0.47383
609.829,29.4134,-0.62092,-4.33216,0.47362
610.429,29.4324,-0.62109,-4.33216,0.47341
611.029,29.45154,-0.62283,-4.33216,0.4732
611.629,29.47063,-0.62337,-4.33217,0.47299
612.229,29.48975,-0.62263,-4.33351,0.47278
612.829,29.5088,-0.62602,-4.33348,0.47257
613.429,29.52798,-0.62295,-4.33348,0.47236
614.029,29.54706,-0.62205,-4.33347,0.47215
614.629,29.56614,-0.62415,-4.33338,0.47194
615.229,29.58523,-0.62232,-4.33494,0.47173
615.829,29.60432,-0.62279,-4.3352,0.47152
616.429,29.6235,-0.62384,-4.33723,0.47131
617.029,29.64266,-0.62616,-4.33711,0.4711
617.629,29.6618,-0.62528,-4.33711,0.47089
618.229,29.681,-0.62409,-4.33723,0.47069
618.829,29.70011,-0.62188,-4.33842,0.47048
619.429,29.7192,-0.62354,-4.33842,0.47027
620.029,29.73835,-0.62691,-4.33751,0.47006
620.629,29.75753,-0.62439,-4.33761,0.46985
621.229,29.77668,-0.62229,-4.33843,0.46964
621.829,29.7958,-0.62282,-4.33945,0.46943
622.429,29.81503,-0.6231,-4.33971,0.46922
623.029,29.8342,-0.62572,-4.33968,0.46902
623.629,29.8534,-0.62578,-4.34073,0.46881
624.229,29.87257,-0.62542,-4.34103,0.4686
624.829,29.89177,-0.62232,-4.34163,0.46839
625.429,29.91093,-0.62341,-4.34234,0.46818
626.029,29.9301,-0.62748,-4.34236,0.46798
626.629,29.9493,-0.62426,-4.34236,0.46777
627.229,29.9685,-0.62717,-4.34236,0.46756
627.829,29.9877,-0.62461,-4.3423,0.46735
628.429,30.00693,-0.62342,-4.34367,0.46714
629.029,30.0262,-0.62647,-4.34369,0.46694
629.629,30.0453,-0.62345,-4.34403,0.46673
630.229,30.0645,-0.62322,-4.34505,0.46652
630.829,30.08372,-0.62552,-4.345,0.46631
631.429,30.1029,-0.62736,-4.34499,0.46611
632.029,30.122,-0.62488,-4.34561,0.4659
632.629,30.14126,-0.62581,-4.34629,0.46569
633.229,30.16051,-0.62628,-4.34631,0.46549
633.829,30.1798,-0.62366,-4.3463,0.46528
634.429,30.19918,-0.62292,-4.3473,0.46507
635.029,30.2184,-0.62536,-4.34703,0.46487
635.629,30.23763,-0.62237,-4.34595,0.46466
636.229,30.2569,-0.6236,-4.34598,0.46445
636.829,30.27613,-0.62453,-4.34598,0.46425
637.429,30.29545,-0.62684,-4.34598,0.46404
638.029,30.3148,-0.62896,-4.34598,0.46384
638.629,30.33407,-0.62596,-4.34598,0.46363
639.229,30.35332,-0.62649,-4.34599,0.46342
639.829,30.3726,-0.63052,-4.34608,0.46322
640.429,30.3919,-0.62633,-4.34625,0.46301
641.029,30.4112,-0.62701,-4.34744,0.46281
641.629,30.43055,-0.62725,-4.34763,0.4626
642.229,30.4498,-0.62699,-4.34765,0.4624
642.829,30.46913,-0.62747,-4.34905,0.46219
643.429,30.48838,-0.62695,-4.34963,0.46199
644.029,30.50763,-0.63004,-4.35061,0.46178
644.629,30.52695,-0.63052,-4.35059,0.46158
645.229,30.5463,-0.6309,-4.35049,0.46137
645.829,30.5656,-0.63316,-4.35288,0.46117
646.429,30.5849,-0.63081,-4.3532,0.46096
647.029,30.6042,-0.62989,-4.35324,0.46076
647.629,30.6235,-0.63175,-4.35361,0.46055
648.229,30.64283,-0.63313,-4.35455,0.46035
648.829,30.6622,-0.63539,-4.35454,0.46014
649.429,30.6816,-0.63733,-4.35454,0.45994
650.029,30.70089,-0.63745,-4.35454,0.45974
650.629,30.7202,-0.63653,-4.35454,0.45953
651.229,30.73961,-0.63593,-4.35454,0.45933
651.829,30.75895,-0.63499,-4.35454,0.45912
652.429,30.77833,-0.63514,-4.35454,0.45892
653.029,30.79772,-0.63702,-4.35455,0.45872
653.629,30.81713,-0.63859,-4.35502,0.45851
654.229,30.83652,-0.63649,-4.35588,0.45831
654.829,30.8559,-0.63715,-4.35585,0.45811
655.429,30.87538,-0.63476,-4.35585,0.4579
656.029,30.8948,-0.63523,-4.35585,0.4577
656.629,30.91422,-0.63663,-4.35585,0.4575
657.229,30.9336,-0.63491,-4.35581,0.4573
657.829,30.95305,-0.63572,-4.35683,0.45709
658.429,30.9725,-0.63761,-4.35716,0.45689
659.029,30.9919,-0.63423,-4.35717,0.45669
659.629,31.01134,-0.63721,-4.35717,0.45649
660.229,31.03078,-0.63771,-4.35765,0.45628
660.829,31.05019,-0.64041,-4.35847,0.45608
661.429,31.0696,-0.63723,-4.35848,0.45588
662.029,31.0891,-0.64213,-4.35848,0.45568
662.629,31.1086,-0.64354,-4.35979,0.45548
663.229,31.1281,-0.63894,-4.36105,0.45527
663.829,31.1475,-0.63957,-4.36111,0.45507
664.429,31.1671,-0.63785,-4.36108,0.45487
665.029,31.1865,-0.6404,-4.36232,0.45467
665.629,31.2059,-0.63558,-4.36243,0.45447
666.229,31.22536,-0.63828,-4.36244,0.45427
666.829,31.24486,-0.6406,-4.36244,0.45407
667.429,31.26434,-0.63874,-4.36246,0.45387
668.029,31.2839,-0.63894,-4.36287,0.45367
668.629,31.3034,-0.63996,-4.36375,0.45346
669.229,31.3229,-0.64123,-4.36371,0.45326
669.829,31.3424,-0.64287,-4.36467,0.45306
670.429,31.3619,-0.63903,-4.36507,0.45286
671.029,31.3814,-0.64168,-4.36459,0.45266
671.629,31.4009,-0.64007,-4.36409,0.45246
672.229,31.42039,-0.63849,-4.36408,0.45226
672.829,31.4399,-0.64121,-4.36408,0.45206
673.429,31.45932,-0.64016,-4.36408,0.45186
674.029,31.47875,-0.64187,-4.36438,0.45166
674.629,31.49822,-0.6439,-4.36542,0.45146
675.229,31.51768,-0.64442,-4.3654,0.45126
675.829,31.53717,-0.64289,-4.3654,0.45107
676.429,31.55667,-0.64379,-4.3654,0.45087
677.029,31.5762,-0.64636,-4.3654,0.45067
677.629,31.59576,-0.646,-4.3654,0.45047
678.229,31.6153,-0.64429,-4.36539,0.45027
678.829,31.6349,-0.64728,-4.36633,0.45007
679.429,31.6545,-0.65139,-4.36671,0.44987
680.029,31.674,-0.65225,-4.36715,0.44967
680.629,31.6936,-0.64962,-4.36804,0.44948
681.229,31.7131,-0.65213,-4.36803,0.44928
681.829,31.73262,-0.65705,-4.36803,0.44908
682.429,31.7522,-0.65706,-4.36797,0.44888
683.029,31.77168,-0.65143,-4.36919,0.44868
683.629,31.79123,-0.65261,-4.36934,0.44849
684.229,31.81075,-0.65203,-4.3694,0.44829
684.829,31.83028,-0.65319,-4.37069,0.44809
685.429,31.84978,-0.65956,-4.37066,0.44789
686.029,31.86937,-0.66172,-4.37066,0.4477
686.629,31.88891,-0.6566,-4.37066,0.4475
687.229,31.9085,-0.65391,-4.37066,0.4473
687.829,31.92813,-0.65165,-4.37066,0.4471
688.429,31.94769,-0.65277,-4.37066,0.44691
689.029,31.9673,-0.65204,-4.37061,0.44671
689.629,31.9868,-0.65193,-4.37162,0.44651
690.229,32.0064,-0.65351,-4.37165,0.44632
690.829,32.02596,-0.65309,-4.37167,0.44612
691.429,32.04552,-0.65675,-4.37213,0.44593
692.029,32.0651,-0.65458,-4.37559,0.44573
692.629,32.08465,-0.65196,-4.37781,0.44553
693.229,32.10427,-0.65506,-4.37721,0.44534
693.829,32.12386,-0.65196,-4.37219,0.44514
694.429,32.14351,-0.65163,-4.36966,0.44495
695.029,32.1632,-0.65287,-4.3703,0.44475
695.629,32.1828,-0.65333,-4.3711,0.44456
696.229,32.2023,-0.65312,-4.37177,0.44436
696.829,32.22203,-0.65097,-4.37335,0.44416
697.429,32.2417,-0.65444,-4.3743,0.44397
698.029,32.26125,-0.65728,-4.37628,0.44377
698.629,32.28092,-0.65581,-4.37626,0.44358
699.229,32.3005,-0.66229,-4.37626,0.44339
699.829,32.32015,-0.65291,-4.37667,0.44319
700.429,32.33985,-0.65589,-4.37754,0.443
701.029,32.35952,-0.65506,-4.37625,0.4428
701.629,32.37924,-0.65418,-4.37626,0.44261
702.229,32.39897,-0.65346,-4.37626,0.44241
702.829,32.41859,-0.6514,-4.37626,0.44222
703.429,32.43824,-0.64519,-4.37626,0.44203
704.029,32.4579,-0.64732,-4.37748,0.44183
704.629,32.47756,-0.65591,-4.37756,0.44164
705.229,32.49726,-0.65497,-4.37756,0.44145
705.829,32.51692,-0.65457,-4.37869,0.44125
706.429,32.5366,-0.64674,-4.37813,0.44106
707.029,32.55627,-0.64831,-4.37835,0.44087
707.629,32.57595,-0.64559,-4.37925,0.44067
708.229,32.59568,-0.64001,-4.37923,0.44048
708.829,32.61531,-0.64597,-4.37926,0.44029
709.429,32.63499,-0.642,-4.37886,0.4401
710.029,32.65468,-0.64002,-4.37889,0.4399
710.629,32.67435,-0.64321,-4.37892,0.43971
711.229,32.694,-0.6425,-4.37951,0.43952
711.829,32.71374,-0.6439,-4.38332,0.43933
712.429,32.73341,-0.63195,-4.38794,0.43913
713.029,32.7531,-0.64183,-4.38649,0.43894
713.629,32.77278,-0.65,-4.37656,0.43875
714.229,32.7926,-0.6526,-4.36901,0.43856
714.829,32.81228,-0.65405,-4.37042,0.43837
715.429,32.83201,-0.65356,-4.3756,0.43818
716.029,32.85176,-0.64729,-4.37804,0.43799
716.629,32.87128,-0.64979,-4.37799,0.4378
717.229,32.89108,-0.65605,-4.37977,0.4376
717.829,32.91057,-0.65901,-4.38053,0.43741
718.429,32.9303,-0.6659,-4.38054,0.43722
719.029,32.9501,-0.66309,-4.38053,0.43703
719.629,32.96995,-0.66597,-4.38125,0.43684
720.229,32.98979,-0.66042,-4.38184,0.43665
720.829,33.00963,-0.65707,-4.3822,0.43646
721.429,33.02936,-0.6503,-4.38251,0.43627
722.029,33.04906,-0.64753,-4.38382,0.43608
722.629,33.06872,-0.6344,-4.38449,0.43589
723.229,33.08838,-0.61912,-4.38449,0.4357
723.829,33.10807,-0.61746,-4.38449,0.43551
724.429,33.12782,-0.60705,-4.38449,0.43532
725.029,33.14754,-0.60277,-4.38449,0.43513
725.629,33.16731,-0.60068,-4.38449,0.43495
726.229,33.18707,-0.59853,-4.38449,0.43476
726.829,33.20685,-0.60065,-4.38444,0.43457
727.429,33.22665,-0.5998,-4.38569,0.43438
728.029,33.24647,-0.59545,-4.38579,0.43419
728.629,33.26627,-0.59414,-4.3858,0.434
729.229,33.28602,-0.5899,-4.3858,0.43381
729.829,33.30682,-0.59076,-4.38596,0.43363
730.429,33.32801,-0.59075,-4.38714,0.43344
730.629,33.33231,-0.59038,-4.38712,0.43338