File: 01_Data/Cotton_Shirt/STA/N2/30K_min/Cotton_Shirt_STA_N2_30KData_21287_R2.csv
##Temp./Â°C,Time/min,DSC(subtr.2)/(mW/mg),Mass loss(subtr.2)/mg,Sensit./(uV/mW)
50.629,10.01,0.04382444,-0.0747,0.6235
51.229,11.0017,0.06429814,-0.07594991,0.62349
51.829,11.20856,0.08364178,-0.07824432,0.62349
52.429,11.36385,0.10598,-0.07748213,0.62348
53.029,11.47695,0.12202,-0.07904401,0.62347
53.629,11.57283,0.13993,-0.07971827,0.62346
54.229,11.65837,0.15368,-0.07890882,0.62346
54.829,11.73422,0.16947,-0.08159029,0.62345
55.429,11.80273,0.18138,-0.07914136,0.62344
56.029,11.86675,0.19448,-0.08178522,0.62343
56.629,11.92629,0.20614,-0.08161441,0.62341
57.229,11.98321,0.21886,-0.08227395,0.6234
57.829,12.03652,0.23096,-0.08342073,0.62339
58.429,12.08739,0.23965,-0.08267164,0.62338
59.029,12.1363,0.25042,-0.0819551,0.62336
59.629,12.18362,0.26114,-0.08235445,0.62335
60.229,12.22915,0.27101,-0.08237077,0.62334
60.829,12.2735,0.28119,-0.08147445,0.62332
61.429,12.31658,0.29034,-0.08236927,0.62331
62.029,12.3583,0.29751,-0.08320587,0.62329
62.629,12.39911,0.30844,-0.08261628,0.62327
63.229,12.43881,0.31504,-0.08183371,0.62326
63.829,12.47766,0.33022,-0.08317557,0.62324
64.429,12.51591,0.3353,-0.08488871,0.62322
65.029,12.55372,0.34437,-0.08564508,0.6232
65.629,12.5907,0.35519,-0.08310581,0.62318
66.229,12.62686,0.36068,-0.08339608,0.62316
66.829,12.6625,0.36887,-0.08544246,0.62314
67.429,12.69764,0.37631,-0.08771176,0.62312
68.029,12.73258,0.38624,-0.08732667,0.6231
68.629,12.76684,0.39351,-0.08690563,0.62308
69.229,12.80078,0.40072,-0.08766294,0.62305
69.829,12.8344,0.4092,-0.0876595,0.62303
70.429,12.86773,0.41607,-0.08778594,0.62301
71.029,12.90072,0.42815,-0.08918315,0.62298
71.629,12.93324,0.43339,-0.08950385,0.62296
72.229,12.9655,0.44212,-0.08960633,0.62293
72.829,12.9972,0.45045,-0.09001524,0.62291
73.429,13.02859,0.45791,-0.09177488,0.62288
74.029,13.05976,0.46399,-0.09181905,0.62286
74.629,13.09111,0.47094,-0.09196204,0.62283
75.229,13.12214,0.47982,-0.0927935,0.6228
75.829,13.15301,0.49053,-0.09409162,0.62277
76.429,13.18356,0.49943,-0.0954931,0.62274
77.029,13.21366,0.50834,-0.09413503,0.62271
77.629,13.24355,0.51626,-0.09522669,0.62268
78.229,13.27353,0.52507,-0.09440756,0.62265
78.829,13.30378,0.53006,-0.09552866,0.62262
79.429,13.3337,0.5412,-0.09695349,0.62259
80.029,13.36323,0.54671,-0.09700788,0.62256
80.629,13.3925,0.55528,-0.09816416,0.62253
81.229,13.42175,0.56066,-0.09955908,0.62249
81.829,13.45062,0.5677,-0.09953871,0.62246
82.429,13.47935,0.57447,-0.09949865,0.62243
83.029,13.50791,0.57966,-0.10072,0.62239
83.629,13.5366,0.58792,-0.1008,0.62236
84.229,13.56535,0.59315,-0.1017,0.62232
84.829,13.5938,0.60368,-0.10212,0.62228
85.429,13.6219,0.61103,-0.10364,0.62225
86.029,13.6496,0.61842,-0.10418,0.62221
86.629,13.67736,0.62338,-0.10485,0.62217
87.229,13.70485,0.63289,-0.10486,0.62213
87.829,13.7321,0.63886,-0.10487,0.62209
88.429,13.7593,0.64348,-0.1063,0.62206
89.029,13.7862,0.65331,-0.1078,0.62202
89.629,13.81316,0.66041,-0.10786,0.62197
90.229,13.8397,0.66753,-0.10904,0.62193
90.829,13.86631,0.67515,-0.10904,0.62189
91.429,13.8929,0.6817,-0.10902,0.62185
92.029,13.9195,0.68595,-0.11094,0.62181
92.629,13.94565,0.69098,-0.11277,0.62177
93.229,13.97163,0.69605,-0.11331,0.62172
93.829,13.9975,0.70116,-0.11322,0.62168
94.429,14.0233,0.70521,-0.11464,0.62163
95.029,14.04905,0.70807,-0.1152,0.62159
95.629,14.07451,0.71392,-0.11588,0.62154
96.229,14.10007,0.71927,-0.11726,0.6215
96.829,14.1254,0.72333,-0.11731,0.62145
97.429,14.15059,0.72762,-0.11932,0.6214
98.029,14.1757,0.73144,-0.1199,0.62136
98.629,14.2004,0.73355,-0.12059,0.62131
99.229,14.22531,0.73938,-0.1226,0.62126
99.829,14.25,0.74233,-0.12253,0.62121
100.429,14.27459,0.74458,-0.12375,0.62116
101.029,14.29916,0.74832,-0.12515,0.62111
101.629,14.32359,0.75358,-0.12641,0.62106
102.229,14.34779,0.75577,-0.12778,0.62101
102.829,14.3719,0.75738,-0.12918,0.62096
103.429,14.39608,0.75784,-0.12911,0.62091
104.029,14.42,0.76129,-0.1291,0.62085
104.629,14.444,0.76385,-0.12902,0.6208
105.229,14.46775,0.76303,-0.13061,0.62075
105.829,14.49131,0.76362,-0.13065,0.62069
106.429,14.51475,0.76719,-0.13204,0.62064
107.029,14.53824,0.76945,-0.13314,0.62058
107.629,14.5616,0.76928,-0.13466,0.62053
108.229,14.585,0.77099,-0.13461,0.62047
108.829,14.60829,0.76906,-0.13513,0.62042
109.429,14.6315,0.77161,-0.13699,0.62036
110.029,14.65463,0.76928,-0.13722,0.6203
110.629,14.6776,0.77053,-0.13722,0.62024
111.229,14.70059,0.76975,-0.13722,0.62018
111.829,14.7233,0.77005,-0.13754,0.62013
112.429,14.746,0.76608,-0.13827,0.62007
113.029,14.7687,0.76641,-0.1385,0.62001
113.629,14.7912,0.76653,-0.13858,0.61995
114.229,14.81374,0.76604,-0.1399,0.61988
114.829,14.8361,0.7627,-0.14091,0.61982
115.429,14.85842,0.76153,-0.14274,0.61976
116.029,14.8807,0.76124,-0.14271,0.6197
116.629,14.9028,0.75894,-0.14294,0.61964
117.229,14.9249,0.75354,-0.14403,0.61957
117.829,14.94687,0.75253,-0.14402,0.61951
118.429,14.96884,0.74995,-0.14403,0.61944
119.029,14.99073,0.74904,-0.14507,0.61938
119.629,15.01256,0.74506,-0.14554,0.61931
120.229,15.0343,0.74019,-0.14667,0.61925
120.829,15.0559,0.73803,-0.14666,0.61918
121.429,15.07741,0.73622,-0.14665,0.61912
122.029,15.09891,0.7329,-0.14661,0.61905
122.629,15.12033,0.72958,-0.14798,0.61898
123.229,15.1417,0.72996,-0.14799,0.61891
123.829,15.163,0.72417,-0.14814,0.61884
124.429,15.1842,0.72378,-0.14918,0.61877
125.029,15.2054,0.72018,-0.15032,0.6187
125.629,15.22655,0.71597,-0.15027,0.61863
126.229,15.24748,0.71175,-0.15026,0.61856
126.829,15.26844,0.70985,-0.15148,0.61849
127.429,15.28946,0.70672,-0.15159,0.61842
128.029,15.3103,0.7055,-0.15159,0.61835
128.629,15.33116,0.70337,-0.15159,0.61828
129.229,15.3519,0.69752,-0.15159,0.6182
129.829,15.3725,0.69497,-0.15159,0.61813
130.429,15.393,0.69189,-0.15159,0.61806
131.029,15.4136,0.69175,-0.15159,0.61798
131.629,15.43401,0.68735,-0.15155,0.61791
132.229,15.45455,0.68301,-0.15261,0.61783
132.829,15.47495,0.68169,-0.15289,0.61776
133.429,15.49531,0.67928,-0.1529,0.61768
134.029,15.51555,0.6771,-0.1529,0.6176
134.629,15.5357,0.67511,-0.15293,0.61753
135.229,15.55584,0.67002,-0.15346,0.61745
135.829,15.57586,0.66606,-0.15421,0.61737
136.429,15.5958,0.66377,-0.15388,0.61729
137.029,15.61575,0.66149,-0.15378,0.61721
137.629,15.6356,0.66081,-0.15456,0.61713
138.229,15.6555,0.65864,-0.15455,0.61705
138.829,15.6754,0.65834,-0.15438,0.61697
139.429,15.6952,0.65483,-0.15424,0.61689
140.029,15.715,0.6543,-0.15422,0.61681
140.629,15.7347,0.65451,-0.15414,0.61673
141.229,15.75436,0.65326,-0.15545,0.61665
141.829,15.77404,0.65199,-0.15554,0.61656
142.429,15.79364,0.65133,-0.15554,0.61648
143.029,15.81318,0.6504,-0.15554,0.6164
143.629,15.8327,0.65199,-0.15554,0.61631
144.229,15.8522,0.64972,-0.15554,0.61623
144.829,15.87169,0.64959,-0.15554,0.61614
145.429,15.8912,0.65039,-0.1555,0.61606
146.029,15.91053,0.64921,-0.15421,0.61597
146.629,15.92985,0.65227,-0.15422,0.61589
147.229,15.94909,0.65263,-0.15548,0.6158
147.829,15.9682,0.65155,-0.15553,0.61571
148.429,15.9873,0.65254,-0.15554,0.61562
149.029,16.0064,0.65504,-0.15554,0.61554
149.629,16.0255,0.6537,-0.15554,0.61545
150.229,16.0445,0.65717,-0.15555,0.61536
150.829,16.0636,0.65758,-0.15565,0.61527
151.429,16.0826,0.65916,-0.15587,0.61518
152.029,16.10166,0.66056,-0.1555,0.61509
152.629,16.12073,0.6613,-0.15553,0.615
153.229,16.13973,0.66179,-0.15553,0.61491
153.829,16.15867,0.66284,-0.15553,0.61481
154.429,16.17761,0.66632,-0.15552,0.61472
155.029,16.19647,0.66461,-0.15655,0.61463
155.629,16.2153,0.66629,-0.15683,0.61454
156.229,16.23415,0.66821,-0.15685,0.61444
156.829,16.2529,0.66926,-0.15685,0.61435
157.429,16.2716,0.67181,-0.15637,0.61425
158.029,16.2903,0.67283,-0.15554,0.61416
158.629,16.30894,0.67228,-0.15554,0.61406
159.229,16.32764,0.67555,-0.15554,0.61397
159.829,16.34633,0.67667,-0.15554,0.61387
160.429,16.3649,0.67821,-0.15554,0.61378
161.029,16.38355,0.6783,-0.15554,0.61368
161.629,16.40222,0.68213,-0.15554,0.61358
162.229,16.4207,0.6846,-0.15554,0.61348
162.829,16.43923,0.68538,-0.1555,0.61339
163.429,16.4577,0.68888,-0.15684,0.61329
164.029,16.47618,0.69164,-0.15686,0.61319
164.629,16.49461,0.6916,-0.15686,0.61309
165.229,16.51305,0.69191,-0.15686,0.61299
165.829,16.5315,0.69624,-0.15686,0.61289
166.429,16.54991,0.69641,-0.15686,0.61279
167.029,16.5683,0.69833,-0.15686,0.61269
167.629,16.58659,0.7003,-0.15683,0.61258
168.229,16.605,0.70407,-0.15639,0.61248
168.829,16.6233,0.70549,-0.15619,0.61238
169.429,16.64154,0.70823,-0.15683,0.61228
170.029,16.65982,0.71237,-0.15685,0.61217
170.629,16.6781,0.71491,-0.15685,0.61207
171.229,16.69629,0.71776,-0.1568,0.61196
171.829,16.7145,0.72047,-0.15787,0.61186
172.429,16.73268,0.72534,-0.15816,0.61175
173.029,16.7508,0.7288,-0.15817,0.61165
173.629,16.76891,0.72773,-0.15817,0.61154
174.229,16.787,0.7313,-0.15817,0.61144
174.829,16.80507,0.72908,-0.15817,0.61133
175.429,16.82312,0.73385,-0.15817,0.61122
176.029,16.84122,0.73767,-0.15817,0.61112
176.629,16.85925,0.73579,-0.15817,0.61101
177.229,16.8772,0.74157,-0.15832,0.6109
177.829,16.89515,0.74211,-0.15958,0.61079
178.429,16.9131,0.7451,-0.1595,0.61068
179.029,16.93096,0.74548,-0.15949,0.61057
179.629,16.94869,0.74586,-0.15955,0.61046
180.229,16.9665,0.74719,-0.1582,0.61035
180.829,16.98434,0.74939,-0.15817,0.61024
181.429,17.00221,0.75432,-0.15817,0.61013
182.029,17.0199,0.75492,-0.15817,0.61002
182.629,17.03785,0.75926,-0.15816,0.6099
183.229,17.05568,0.76325,-0.15807,0.60979
183.829,17.0734,0.76659,-0.15937,0.60968
184.429,17.09117,0.7694,-0.15994,0.60957
185.029,17.109,0.77059,-0.16025,0.60945
185.629,17.12676,0.77463,-0.15946,0.60934
186.229,17.1445,0.77572,-0.15949,0.60922
186.829,17.16222,0.77696,-0.15949,0.60911
187.429,17.1798,0.77634,-0.15949,0.60899
188.029,17.19735,0.78281,-0.15955,0.60888
188.629,17.2149,0.78238,-0.15859,0.60876
189.229,17.2325,0.78622,-0.15843,0.60864
189.829,17.24996,0.78958,-0.15817,0.60853
190.429,17.26749,0.78981,-0.15817,0.60841
191.029,17.28497,0.79034,-0.15824,0.60829
191.629,17.30248,0.79386,-0.15746,0.60817
192.229,17.31994,0.79601,-0.15751,0.60805
192.829,17.3374,0.79702,-0.15881,0.60794
193.429,17.35482,0.79974,-0.15883,0.60782
194.029,17.3722,0.80348,-0.15883,0.6077
194.629,17.38958,0.80748,-0.15882,0.60758
195.229,17.40695,0.80446,-0.15942,0.60746
195.829,17.42429,0.8078,-0.15948,0.60733
196.429,17.44165,0.81548,-0.15949,0.60721
197.029,17.459,0.81143,-0.15949,0.60709
197.629,17.47635,0.81462,-0.15949,0.60697
198.229,17.4937,0.82113,-0.15949,0.60685
198.829,17.511,0.81926,-0.15948,0.60672
199.429,17.52828,0.81781,-0.15996,0.6066
200.029,17.54561,0.82101,-0.16156,0.60648
200.629,17.5629,0.81974,-0.16147,0.60635
201.229,17.58013,0.81969,-0.16146,0.60623
201.829,17.59737,0.82501,-0.16146,0.6061
202.429,17.6146,0.82578,-0.16146,0.60598
203.029,17.63182,0.82962,-0.16146,0.60585
203.629,17.649,0.82817,-0.16146,0.60573
204.229,17.66614,0.83224,-0.16146,0.6056
204.829,17.6833,0.83029,-0.16146,0.60547
205.429,17.70046,0.83443,-0.16147,0.60535
206.029,17.71754,0.83911,-0.16071,0.60522
206.629,17.73462,0.84092,-0.16002,0.60509
207.229,17.75178,0.83688,-0.15947,0.60496
207.829,17.76885,0.83602,-0.15974,0.60483
208.429,17.78596,0.84045,-0.16088,0.60471
209.029,17.80303,0.84263,-0.16081,0.60458
209.629,17.82009,0.8429,-0.1608,0.60445
210.229,17.83716,0.84129,-0.16082,0.60432
210.829,17.85424,0.84369,-0.16118,0.60419
211.429,17.87126,0.84043,-0.16212,0.60406
212.029,17.8883,0.8422,-0.16212,0.60392
212.629,17.90531,0.84437,-0.16212,0.60379
213.229,17.9223,0.84419,-0.16212,0.60366
213.829,17.93927,0.84686,-0.16213,0.60353
214.429,17.9562,0.84704,-0.16247,0.6034
215.029,17.97322,0.84782,-0.16349,0.60326
215.629,17.99018,0.84858,-0.16344,0.60313
216.229,18.00713,0.84957,-0.16353,0.603
216.829,18.0241,0.85093,-0.16221,0.60286
217.429,18.04106,0.853,-0.16212,0.60273
218.029,18.05797,0.8543,-0.16212,0.60259
218.629,18.07491,0.85799,-0.16212,0.60246
219.229,18.09185,0.85494,-0.1621,0.60232
219.829,18.10874,0.85422,-0.16267,0.60219
220.429,18.1256,0.85327,-0.16348,0.60205
221.029,18.14249,0.85425,-0.16344,0.60191
221.629,18.1594,0.85564,-0.16344,0.60178
222.229,18.17623,0.85856,-0.16344,0.60164
222.829,18.19308,0.86097,-0.16344,0.6015
223.429,18.20992,0.85796,-0.16344,0.60136
224.029,18.22681,0.85747,-0.16344,0.60122
224.629,18.24363,0.8594,-0.1634,0.60108
225.229,18.2605,0.86388,-0.16414,0.60095
225.829,18.27722,0.86448,-0.16478,0.60081
226.429,18.294,0.86501,-0.16475,0.60067
227.029,18.31072,0.86585,-0.16475,0.60053
227.629,18.3275,0.86547,-0.16475,0.60039
228.229,18.34427,0.86458,-0.16476,0.60024
228.829,18.36105,0.86589,-0.16477,0.6001
229.429,18.3779,0.86854,-0.16394,0.59996
230.029,18.39467,0.86858,-0.16379,0.59982
230.629,18.41143,0.87031,-0.16376,0.59968
231.229,18.42815,0.86983,-0.16376,0.59953
231.829,18.44489,0.87155,-0.16376,0.59939
232.429,18.46164,0.87301,-0.16376,0.59925
233.029,18.4784,0.87507,-0.16377,0.5991
233.629,18.4951,0.87564,-0.1641,0.59896
234.229,18.51181,0.87503,-0.1644,0.59882
234.829,18.5285,0.87429,-0.16443,0.59867
235.429,18.54513,0.87583,-0.16467,0.59853
236.029,18.56182,0.87771,-0.16619,0.59838
236.629,18.57844,0.87466,-0.1664,0.59824
237.229,18.5951,0.87587,-0.16639,0.59809
237.829,18.6117,0.87828,-0.16689,0.59794
238.429,18.62836,0.88087,-0.16775,0.5978
239.029,18.64501,0.88105,-0.16773,0.59765
239.629,18.66165,0.88053,-0.16772,0.5975
240.229,18.67833,0.8805,-0.16751,0.59735
240.829,18.695,0.87977,-0.1663,0.59721
241.429,18.71162,0.8795,-0.16688,0.59706
242.029,18.72823,0.88078,-0.16774,0.59691
242.629,18.74483,0.88179,-0.16773,0.59676
243.229,18.76145,0.88151,-0.16777,0.59661
243.829,18.778,0.87986,-0.16895,0.59646
244.429,18.79458,0.88218,-0.16902,0.59631
245.029,18.81117,0.88347,-0.16903,0.59616
245.629,18.82775,0.88258,-0.16903,0.59601
246.229,18.84434,0.87945,-0.16903,0.59586
246.829,18.86091,0.88206,-0.16903,0.59571
247.429,18.87753,0.88036,-0.16919,0.59556
248.029,18.89412,0.88208,-0.17058,0.5954
248.629,18.9107,0.88411,-0.1705,0.59525
249.229,18.92725,0.88507,-0.17187,0.5951
249.829,18.94378,0.88587,-0.17338,0.59495
250.429,18.96031,0.88751,-0.17464,0.59479
251.029,18.9768,0.88672,-0.17462,0.59464
251.629,18.99334,0.88622,-0.17463,0.59449
252.229,19.00981,0.88669,-0.17463,0.59433
252.829,19.02634,0.88418,-0.17458,0.59418
253.429,19.04283,0.8893,-0.17556,0.59402
254.029,19.05931,0.89102,-0.17618,0.59387
254.629,19.07576,0.89299,-0.17686,0.59371
255.229,19.09226,0.89389,-0.17655,0.59356
255.829,19.10865,0.89747,-0.17693,0.5934
256.429,19.12506,0.89898,-0.17774,0.59324
257.029,19.1415,0.89947,-0.1777,0.59309
257.629,19.1579,0.89893,-0.17761,0.59293
258.229,19.1743,0.89793,-0.17899,0.59277
258.829,19.19076,0.89697,-0.17917,0.59261
259.429,19.20717,0.9003,-0.18063,0.59246
260.029,19.2236,0.9028,-0.1815,0.5923
260.629,19.24015,0.9032,-0.18241,0.59214
261.229,19.25668,0.90167,-0.18414,0.59198
261.829,19.2732,0.90727,-0.18543,0.59182
262.429,19.2898,0.90962,-0.18679,0.59166
263.029,19.3064,0.90976,-0.18674,0.5915
263.629,19.32284,0.9088,-0.18775,0.59134
264.229,19.3393,0.91347,-0.18861,0.59118
264.829,19.35576,0.91762,-0.18997,0.59102
265.429,19.37217,0.91902,-0.19151,0.59086
266.029,19.3886,0.92017,-0.19245,0.5907
266.629,19.40502,0.92204,-0.19381,0.59054
267.229,19.42142,0.92604,-0.19567,0.59038
267.829,19.4378,0.92259,-0.19602,0.59021
268.429,19.45427,0.91979,-0.19707,0.59005
269.029,19.4707,0.92206,-0.19702,0.58989
269.629,19.48706,0.92504,-0.19828,0.58973
270.229,19.50348,0.92568,-0.19932,0.58956
270.829,19.51991,0.92875,-0.20072,0.5894
271.429,19.53632,0.93097,-0.20255,0.58923
272.029,19.55272,0.93475,-0.20448,0.58907
272.629,19.56916,0.93416,-0.20496,0.58891
273.229,19.58556,0.93656,-0.2061,0.58874
273.829,19.60195,0.9423,-0.20671,0.58858
274.429,19.61836,0.94417,-0.2082,0.58841
275.029,19.63479,0.94765,-0.20976,0.58825
275.629,19.65125,0.94951,-0.2114,0.58808
276.229,19.66764,0.95239,-0.2136,0.58791
276.829,19.68404,0.9575,-0.2159,0.58775
277.429,19.70044,0.96046,-0.2178,0.58758
278.029,19.71686,0.96073,-0.21961,0.58741
278.629,19.73325,0.96103,-0.22219,0.58725
279.229,19.7496,0.96399,-0.22427,0.58708
279.829,19.76602,0.96984,-0.2252,0.58691
280.429,19.78248,0.97518,-0.22666,0.58674
281.029,19.7988,0.98172,-0.22853,0.58657
281.629,19.8152,0.98592,-0.2312,0.5864
282.229,19.83163,0.9883,-0.23323,0.58624
282.829,19.84805,0.99185,-0.23502,0.58607
283.429,19.86447,0.99655,-0.23759,0.5859
284.029,19.88085,1.00102,-0.23983,0.58573
284.629,19.8973,1.00218,-0.2419,0.58556
285.229,19.91367,1.00333,-0.24414,0.58539
285.829,19.93,1.00938,-0.24581,0.58522
286.429,19.94642,1.01495,-0.24801,0.58504
287.029,19.96282,1.01528,-0.25021,0.58487
287.629,19.97922,1.02167,-0.25359,0.5847
288.229,19.99563,1.02692,-0.25625,0.58453
288.829,20.01205,1.03417,-0.25823,0.58436
289.429,20.0285,1.03667,-0.26127,0.58419
290.029,20.04488,1.03793,-0.26426,0.58401
290.629,20.0613,1.0458,-0.26657,0.58384
291.229,20.07775,1.04942,-0.26861,0.58367
291.829,20.09419,1.05209,-0.27071,0.58349
292.429,20.11059,1.05787,-0.27279,0.58332
293.029,20.12697,1.06263,-0.27515,0.58315
293.629,20.14336,1.06659,-0.27953,0.58297
294.229,20.15973,1.06771,-0.28249,0.5828
294.829,20.17615,1.0737,-0.2858,0.58262
295.429,20.19255,1.08032,-0.28943,0.58245
296.029,20.20898,1.08277,-0.29196,0.58227
296.629,20.2254,1.09073,-0.29526,0.5821
297.229,20.2418,1.09869,-0.2991,0.58192
297.829,20.2582,1.10113,-0.3013,0.58175
298.429,20.27461,1.10857,-0.30363,0.58157
299.029,20.291,1.11324,-0.3071,0.5814
299.629,20.30736,1.11662,-0.31,0.58122
300.229,20.32377,1.1225,-0.31402,0.58104
300.829,20.3401,1.12691,-0.31856,0.58086
301.429,20.35652,1.13004,-0.3214,0.58069
302.029,20.37295,1.13527,-0.32585,0.58051
302.629,20.38937,1.14114,-0.32955,0.58033
303.229,20.4058,1.14661,-0.33372,0.58015
303.829,20.42219,1.15166,-0.33702,0.57997
304.429,20.4386,1.15956,-0.34182,0.5798
305.029,20.45504,1.16715,-0.34595,0.57962
305.629,20.47145,1.17166,-0.35121,0.57944
306.229,20.48787,1.17671,-0.35631,0.57926
306.829,20.50432,1.18346,-0.36066,0.57908
307.429,20.5208,1.19101,-0.36604,0.5789
308.029,20.53717,1.20358,-0.37033,0.57872
308.629,20.55359,1.21065,-0.37546,0.57854
309.229,20.57002,1.21512,-0.37963,0.57836
309.829,20.58642,1.22492,-0.38354,0.57818
310.429,20.60281,1.23039,-0.38865,0.578
311.029,20.6192,1.23845,-0.39331,0.57782
311.629,20.63564,1.24616,-0.39962,0.57763
312.229,20.65205,1.25417,-0.40479,0.57745
312.829,20.66841,1.26308,-0.41044,0.57727
313.429,20.68475,1.27312,-0.41713,0.57709
314.029,20.70115,1.28104,-0.42226,0.57691
314.629,20.7176,1.28958,-0.42855,0.57672
315.229,20.73399,1.2964,-0.43332,0.57654
315.829,20.75045,1.3048,-0.43917,0.57636
316.429,20.76691,1.31348,-0.44597,0.57617
317.029,20.78333,1.32087,-0.45216,0.57599
317.629,20.79972,1.32756,-0.45992,0.57581
318.229,20.81616,1.3366,-0.46541,0.57562
318.829,20.83259,1.33715,-0.47269,0.57544
319.429,20.84901,1.3372,-0.47975,0.57525
320.029,20.8655,1.35148,-0.48654,0.57507
320.629,20.88194,1.36142,-0.49432,0.57488
321.229,20.89834,1.36867,-0.49984,0.5747
321.829,20.9147,1.37815,-0.5075,0.57451
322.429,20.9311,1.39363,-0.51512,0.57433
323.029,20.94749,1.40278,-0.52336,0.57414
323.629,20.96388,1.41466,-0.53259,0.57396
324.229,20.98033,1.42734,-0.53937,0.57377
324.829,20.99684,1.4413,-0.54861,0.57358
325.429,21.0133,1.45329,-0.55604,0.5734
326.029,21.02976,1.46499,-0.5642,0.57321
326.629,21.0462,1.47736,-0.57288,0.57302
327.229,21.06258,1.49637,-0.58061,0.57283
327.829,21.079,1.51222,-0.59132,0.57265
328.429,21.09536,1.52614,-0.60026,0.57246
329.029,21.11174,1.53969,-0.6108,0.57227
329.629,21.12809,1.55972,-0.6207,0.57208
330.229,21.1445,1.57783,-0.63,0.57189
330.829,21.16091,1.59517,-0.64226,0.57171
331.429,21.17738,1.60977,-0.65224,0.57152
332.029,21.19387,1.63055,-0.66487,0.57133
332.629,21.21036,1.64963,-0.67499,0.57114
333.229,21.2269,1.66816,-0.68564,0.57095
333.829,21.2434,1.69035,-0.69735,0.57076
334.429,21.25989,1.70988,-0.70806,0.57057
335.029,21.27637,1.73062,-0.72185,0.57038
335.629,21.29285,1.75101,-0.73318,0.57019
336.229,21.30936,1.77051,-0.7457,0.57
336.829,21.32581,1.7934,-0.76055,0.56981
337.429,21.34228,1.82082,-0.7728,0.56962
338.029,21.35865,1.84916,-0.78745,0.56943
338.629,21.37521,1.87391,-0.79895,0.56923
339.229,21.39165,1.90525,-0.81397,0.56904
339.829,21.4082,1.93167,-0.82933,0.56885
340.429,21.42469,1.95908,-0.84431,0.56866
341.029,21.44129,1.99014,-0.86271,0.56847
341.629,21.4578,2.02529,-0.87671,0.56828
342.229,21.47439,2.06091,-0.89507,0.56808
342.829,21.49094,2.09363,-0.9118,0.56789
343.429,21.5075,2.13459,-0.92909,0.5677
344.029,21.524,2.16884,-0.94813,0.5675
344.629,21.54052,2.20685,-0.96382,0.56731
345.229,21.55707,2.24749,-0.98496,0.56712
345.829,21.5736,2.29244,-1.00321,0.56692
346.429,21.5902,2.3365,-1.02434,0.56673
347.029,21.60678,2.38333,-1.04632,0.56654
347.629,21.62334,2.43618,-1.066,0.56634
348.229,21.63991,2.48506,-1.09136,0.56615
348.829,21.65638,2.54023,-1.11038,0.56595
349.429,21.67282,2.59521,-1.13436,0.56576
350.029,21.6893,2.64896,-1.15728,0.56556
350.629,21.7059,2.71106,-1.18029,0.56537
351.229,21.72242,2.77396,-1.20946,0.56517
351.829,21.73907,2.83422,-1.23302,0.56498
352.429,21.7557,2.89777,-1.26347,0.56478
353.029,21.7724,2.96292,-1.28909,0.56459
353.629,21.78898,3.03208,-1.31766,0.56439
354.229,21.80559,3.10359,-1.34998,0.56419
354.829,21.8222,3.17456,-1.37753,0.564
355.429,21.8388,3.24902,-1.41248,0.5638
356.029,21.85537,3.3199,-1.43981,0.5636
356.629,21.87199,3.39871,-1.47362,0.56341
357.229,21.8886,3.47155,-1.50793,0.56321
357.829,21.90522,3.54843,-1.54246,0.56301
358.429,21.92183,3.62243,-1.58381,0.56282
359.029,21.9385,3.6973,-1.61604,0.56262
359.629,21.95515,3.77277,-1.65803,0.56242
360.229,21.97185,3.8446,-1.69466,0.56222
360.829,21.98851,3.92369,-1.73395,0.56202
361.429,22.00525,3.99691,-1.77784,0.56183
362.029,22.02196,4.06756,-1.8179,0.56163
362.629,22.03869,4.14128,-1.86099,0.56143
363.229,22.05536,4.20923,-1.92675,0.56123
363.829,22.0721,4.27358,-1.98004,0.56103
364.429,22.0889,4.33327,-2.01806,0.56083
365.029,22.1057,4.39268,-2.06025,0.56063
365.629,22.12252,4.45005,-2.10426,0.56043
366.229,22.13936,4.50732,-2.15464,0.56023
366.829,22.15621,4.55042,-2.20391,0.56003
367.429,22.17301,4.59658,-2.25371,0.55983
368.029,22.18982,4.6378,-2.30417,0.55963
368.629,22.20664,4.67164,-2.35485,0.55943
369.229,22.22342,4.70409,-2.40567,0.55923
369.829,22.24025,4.72975,-2.4571,0.55903
370.429,22.25714,4.74481,-2.51011,0.55883
371.029,22.274,4.75611,-2.56382,0.55863
371.629,22.29087,4.76447,-2.61711,0.55843
372.229,22.3078,4.76694,-2.66883,0.55823
372.829,22.32469,4.75863,-2.7194,0.55803
373.429,22.34161,4.74766,-2.77053,0.55783
374.029,22.3585,4.72661,-2.82273,0.55762
374.629,22.37546,4.69982,-2.87556,0.55742
375.229,22.39237,4.65999,-2.92802,0.55722
375.829,22.40928,4.61642,-2.97832,0.55702
376.429,22.42621,4.57004,-3.02829,0.55682
377.029,22.4432,4.51139,-3.07742,0.55661
377.629,22.4601,4.44751,-3.12525,0.55641
378.229,22.47705,4.37702,-3.17251,0.55621
378.829,22.494,4.29707,-3.21892,0.556
379.429,22.51087,4.20917,-3.26489,0.5558
380.029,22.52779,4.11253,-3.30999,0.5556
380.629,22.54468,4.01446,-3.35255,0.5554
381.229,22.5616,3.90989,-3.39306,0.55519
381.829,22.5785,3.80162,-3.43618,0.55499
382.429,22.59541,3.67935,-3.47549,0.55478
383.029,22.61233,3.56411,-3.51377,0.55458
383.629,22.62925,3.44168,-3.54379,0.55438
384.229,22.6462,3.31044,-3.5722,0.55417
384.829,22.6631,3.18139,-3.60784,0.55397
385.429,22.68,3.05054,-3.63613,0.55376
386.029,22.6969,2.91893,-3.67025,0.55356
386.629,22.71375,2.78676,-3.69624,0.55335
387.229,22.7306,2.6562,-3.72356,0.55315
387.829,22.7475,2.52791,-3.74968,0.55294
388.429,22.7644,2.39903,-3.77159,0.55274
389.029,22.78128,2.27495,-3.79591,0.55253
389.629,22.79822,2.15062,-3.81334,0.55233
390.229,22.81508,2.0351,-3.83359,0.55212
390.829,22.83202,1.92273,-3.8505,0.55192
391.429,22.84892,1.80192,-3.86765,0.55171
392.029,22.86585,1.69222,-3.88459,0.55151
392.629,22.88279,1.58608,-3.89724,0.5513
393.229,22.89968,1.48078,-3.91234,0.55109
393.829,22.91657,1.37872,-3.92397,0.55089
394.429,22.9334,1.28312,-3.93675,0.55068
395.029,22.95029,1.19231,-3.94653,0.55047
395.629,22.96712,1.10712,-3.95505,0.55027
396.229,22.98395,1.02587,-3.96473,0.55006
396.829,23.00085,0.94606,-3.97236,0.54985
397.429,23.01768,0.87236,-3.98096,0.54965
398.029,23.03458,0.80628,-3.98715,0.54944
398.629,23.05143,0.73996,-3.99391,0.54923
399.229,23.06831,0.68031,-4.00062,0.54903
399.829,23.08511,0.62068,-4.00621,0.54882
400.429,23.10195,0.56884,-4.01074,0.54861
401.029,23.11883,0.5187,-4.01315,0.5484
401.629,23.13575,0.47195,-4.01711,0.54819
402.229,23.15265,0.42919,-4.02039,0.54799
402.829,23.16958,0.39033,-4.02374,0.54778
403.429,23.18654,0.36211,-4.02701,0.54757
404.029,23.2035,0.3314,-4.02929,0.54736
404.629,23.2204,0.30009,-4.0317,0.54715
405.229,23.23732,0.27022,-4.03508,0.54694
405.829,23.25432,0.24736,-4.0374,0.54674
406.429,23.2713,0.22745,-4.03869,0.54653
407.029,23.28831,0.20766,-4.0388,0.54632
407.629,23.3053,0.19002,-4.04053,0.54611
408.229,23.3223,0.17746,-4.04249,0.5459
408.829,23.33935,0.16862,-4.04512,0.54569
409.429,23.35633,0.15498,-4.04592,0.54548
410.029,23.37336,0.14414,-4.04716,0.54527
410.629,23.39033,0.13588,-4.04898,0.54506
411.229,23.40735,0.13,-4.05059,0.54485
411.829,23.42432,0.12809,-4.05166,0.54464
412.429,23.44126,0.14107,-4.05233,0.54443
413.029,23.45816,0.16057,-4.05236,0.54422
413.629,23.4751,0.17644,-4.05348,0.54401
414.229,23.4921,0.18342,-4.05432,0.5438
414.829,23.50906,0.18524,-4.05626,0.54359
415.429,23.5261,0.18856,-4.05783,0.54338
416.029,23.5432,0.18662,-4.05895,0.54317
416.629,23.56038,0.18392,-4.05994,0.54296
417.229,23.57751,0.1738,-4.06174,0.54275
417.829,23.59469,0.16564,-4.06174,0.54254
418.429,23.6119,0.1561,-4.06261,0.54233
419.029,23.62908,0.14505,-4.06311,0.54212
419.629,23.64631,0.13758,-4.06316,0.54191
420.229,23.6635,0.12598,-4.06493,0.5417
420.829,23.68075,0.11954,-4.06603,0.54148
421.429,23.69794,0.10805,-4.06706,0.54127
422.029,23.71517,0.09883973,-4.06839,0.54106
422.629,23.73246,0.0994071,-4.0699,0.54085
423.229,23.74972,0.09799088,-4.06979,0.54064
423.829,23.76701,0.08869002,-4.0697,0.54043
424.429,23.78432,0.06898137,-4.07103,0.54021
425.029,23.80165,0.05715043,-4.07117,0.54
425.629,23.81895,0.05013821,-4.07291,0.53979
426.229,23.8363,0.04445226,-4.07424,0.53958
426.829,23.85364,0.04023988,-4.0747,0.53937
427.429,23.87099,0.03137239,-4.07632,0.53915
428.029,23.88833,0.02590703,-4.07675,0.53894
428.629,23.90566,0.01900518,-4.07776,0.53873
429.229,23.92295,0.01296829,-4.07914,0.53852
429.829,23.94025,0.00673145,-4.07934,0.5383
430.429,23.95758,-0.0003856058,-4.07926,0.53809
431.029,23.97496,-0.001225085,-4.08066,0.53788
431.629,23.99227,-0.00840188,-4.08094,0.53767
432.229,24.0096,-0.0151213,-4.0823,0.53745
432.829,24.02693,-0.008709988,-4.08314,0.53724
433.429,24.04433,-0.00612064,-4.08415,0.53703
434.029,24.06171,-0.01747361,-4.08554,0.53681
434.629,24.07914,-0.03745264,-4.08545,0.5366
435.229,24.09659,-0.05388309,-4.08664,0.53639
435.829,24.11401,-0.06179572,-4.08679,0.53617
436.429,24.1314,-0.05923173,-4.0868,0.53596
437.029,24.14874,-0.06303687,-4.08824,0.53575
437.629,24.16605,-0.06579745,-4.08894,0.53553
438.229,24.18344,-0.06775991,-4.0899,0.53532
438.829,24.20092,-0.07007026,-4.09145,0.53511
439.429,24.21838,-0.07085574,-4.09199,0.53489
440.029,24.23595,-0.07170271,-4.0931,0.53468
440.629,24.2535,-0.07288927,-4.09299,0.53446
441.229,24.27101,-0.07471448,-4.09412,0.53425
441.829,24.2885,-0.0769136,-4.09428,0.53404
442.429,24.30603,-0.07793569,-4.09596,0.53382
443.029,24.32349,-0.07822175,-4.0973,0.53361
443.629,24.34098,-0.07867349,-4.09793,0.53339
444.229,24.35851,-0.07977098,-4.09939,0.53318
444.829,24.376,-0.08363515,-4.0995,0.53296
445.429,24.39345,-0.0844089,-4.10083,0.53275
446.029,24.41093,-0.08697805,-4.10073,0.53253
446.629,24.4284,-0.08692993,-4.10074,0.53232
447.229,24.44591,-0.07761872,-4.10102,0.5321
447.829,24.46343,-0.09373942,-4.10225,0.53189
448.429,24.48098,-0.10961,-4.10327,0.53168
449.029,24.49859,-0.13013,-4.10266,0.53146
449.629,24.51618,-0.15394,-4.10401,0.53125
450.229,24.53376,-0.1641,-4.10464,0.53103
450.829,24.55135,-0.17007,-4.1054,0.53082
451.429,24.56896,-0.17078,-4.10635,0.5306
452.029,24.58652,-0.16772,-4.10676,0.53038
452.629,24.6041,-0.16672,-4.10676,0.53017
453.229,24.62174,-0.16564,-4.10676,0.52995
453.829,24.63935,-0.16486,-4.10825,0.52974
454.429,24.65697,-0.16075,-4.10866,0.52952
455.029,24.67461,-0.15972,-4.10981,0.52931
455.629,24.69226,-0.158,-4.11126,0.52909
456.229,24.70993,-0.15849,-4.11191,0.52888
456.829,24.72757,-0.15402,-4.11319,0.52866
457.429,24.74519,-0.15067,-4.11314,0.52845
458.029,24.76287,-0.14881,-4.11315,0.52823
458.629,24.78047,-0.14736,-4.11447,0.52801
459.229,24.79798,-0.14875,-4.11439,0.5278
459.829,24.8156,-0.14845,-4.11566,0.52758
460.429,24.8332,-0.13837,-4.11597,0.52737
461.029,24.8507,-0.15068,-4.11755,0.52715
461.629,24.86831,-0.17175,-4.11767,0.52693
462.229,24.88605,-0.18445,-4.11938,0.52672
462.829,24.90383,-0.1933,-4.12008,0.5265
463.429,24.92165,-0.19094,-4.12078,0.52628
464.029,24.9395,-0.19279,-4.12079,0.52607
464.629,24.95733,-0.1906,-4.12209,0.52585
465.229,24.9752,-0.18326,-4.12226,0.52564
465.829,24.99298,-0.18082,-4.1239,0.52542
466.429,25.0108,-0.17727,-4.12383,0.5252
467.029,25.02862,-0.17594,-4.12528,0.52499
467.629,25.0465,-0.17439,-4.12647,0.52477
468.229,25.06417,-0.17384,-4.12685,0.52455
468.829,25.08183,-0.17638,-4.12822,0.52434
469.429,25.0995,-0.17904,-4.12815,0.52412
470.029,25.1172,-0.18499,-4.12816,0.5239
470.629,25.1349,-0.20581,-4.12844,0.52369
471.229,25.15275,-0.21523,-4.13118,0.52347
471.829,25.17069,-0.2168,-4.13105,0.52325
472.429,25.18864,-0.20718,-4.13252,0.52304
473.029,25.20659,-0.19994,-4.13289,0.52282
473.629,25.22446,-0.19542,-4.13414,0.5226
474.229,25.24231,-0.19485,-4.13407,0.52239
474.829,25.2602,-0.1946,-4.13407,0.52217
475.429,25.27795,-0.19298,-4.13426,0.52195
476.029,25.2957,-0.19289,-4.13556,0.52174
476.629,25.31342,-0.20373,-4.13495,0.52152
477.229,25.33118,-0.18804,-4.13557,0.5213
477.829,25.34901,-0.18133,-4.13653,0.52108
478.429,25.36692,-0.18796,-4.13598,0.52087
479.029,25.3849,-0.20942,-4.13738,0.52065
479.629,25.4028,-0.21545,-4.13726,0.52043
480.229,25.42079,-0.21235,-4.13724,0.52022
480.829,25.4388,-0.20982,-4.13812,0.52
481.429,25.4567,-0.21058,-4.13964,0.51978
482.029,25.47456,-0.20969,-4.14027,0.51956
482.629,25.49258,-0.20496,-4.14131,0.51935
483.229,25.51055,-0.23641,-4.14203,0.51913
483.829,25.52848,-0.26495,-4.1428,0.51891
484.429,25.5465,-0.26155,-4.14455,0.51869
485.029,25.56452,-0.23502,-4.14502,0.51848
485.629,25.5826,-0.21928,-4.14604,0.51826
486.229,25.60063,-0.21802,-4.14725,0.51804
486.829,25.61861,-0.21759,-4.14723,0.51782
487.429,25.6366,-0.22832,-4.14725,0.51761
488.029,25.65465,-0.2417,-4.14763,0.51739
488.629,25.6726,-0.23675,-4.14862,0.51717
489.229,25.6906,-0.22888,-4.14982,0.51695
489.829,25.70869,-0.21843,-4.15042,0.51674
490.429,25.72673,-0.22152,-4.15169,0.51652
491.029,25.74475,-0.223,-4.15163,0.5163
491.629,25.76275,-0.22546,-4.15162,0.51608
492.229,25.78086,-0.2349,-4.15162,0.51587
492.829,25.79893,-0.23633,-4.15308,0.51565
493.429,25.81699,-0.23519,-4.15374,0.51543
494.029,25.83509,-0.22952,-4.15578,0.51521
494.629,25.8532,-0.22969,-4.15586,0.515
495.229,25.87128,-0.23075,-4.15667,0.51478
495.829,25.88934,-0.24147,-4.15723,0.51456
496.429,25.90745,-0.24712,-4.15771,0.51434
497.029,25.92558,-0.24882,-4.15825,0.51412
497.629,25.9437,-0.2488,-4.15853,0.51391
498.229,25.96182,-0.24737,-4.15953,0.51369
498.829,25.97992,-0.24665,-4.15952,0.51347
499.429,25.99804,-0.24729,-4.16086,0.51325
500.029,26.01613,-0.24635,-4.16127,0.51304
500.629,26.03421,-0.24685,-4.16244,0.51282
501.229,26.05235,-0.2475,-4.16238,0.5126
501.829,26.0705,-0.24949,-4.16238,0.51238
502.429,26.08866,-0.24668,-4.1629,0.51216
503.029,26.10685,-0.24553,-4.16305,0.51195
503.629,26.12507,-0.24723,-4.16243,0.51173
504.229,26.14324,-0.24857,-4.16378,0.51151
504.829,26.16145,-0.25107,-4.16369,0.51129
505.429,26.17964,-0.25285,-4.16401,0.51107
506.029,26.19785,-0.25232,-4.16516,0.51086
506.629,26.21603,-0.25248,-4.16531,0.51064
507.229,26.23426,-0.25733,-4.16535,0.51042
507.829,26.25248,-0.25806,-4.16552,0.5102
508.429,26.2707,-0.25926,-4.16665,0.50999
509.029,26.28885,-0.26116,-4.16665,0.50977
509.629,26.3071,-0.25926,-4.16781,0.50955
510.229,26.32532,-0.26209,-4.16796,0.50933
510.829,26.34357,-0.26266,-4.16927,0.50911
511.429,26.3618,-0.2643,-4.16939,0.5089
512.029,26.38015,-0.26406,-4.16939,0.50868
512.629,26.39841,-0.26604,-4.16992,0.50846
513.229,26.41671,-0.26788,-4.1708,0.50824
513.829,26.435,-0.26977,-4.16967,0.50803
514.429,26.45331,-0.27043,-4.16956,0.50781
515.029,26.4716,-0.27334,-4.17075,0.50759
515.629,26.48985,-0.27354,-4.1707,0.50737
516.229,26.50818,-0.27163,-4.1721,0.50715
516.829,26.52638,-0.2733,-4.17213,0.50694
517.429,26.5446,-0.27187,-4.17212,0.50672
518.029,26.56302,-0.27522,-4.17207,0.5065
518.629,26.5814,-0.27636,-4.17323,0.50628
519.229,26.59975,-0.27755,-4.17486,0.50607
519.829,26.6182,-0.27835,-4.17487,0.50585
520.429,26.6366,-0.27647,-4.175,0.50563
521.029,26.655,-0.27908,-4.17628,0.50541
521.629,26.6734,-0.27863,-4.17621,0.50519
522.229,26.6918,-0.27892,-4.17626,0.50498
522.829,26.71019,-0.28069,-4.17752,0.50476
523.429,26.7286,-0.28072,-4.17751,0.50454
524.029,26.747,-0.28071,-4.17752,0.50432
524.629,26.76533,-0.28269,-4.1778,0.50411
525.229,26.7837,-0.28342,-4.17888,0.50389
525.829,26.80211,-0.28403,-4.17883,0.50367
526.429,26.8205,-0.28474,-4.17883,0.50345
527.029,26.83897,-0.28654,-4.18007,0.50324
527.629,26.8574,-0.28845,-4.18013,0.50302
528.229,26.8758,-0.28871,-4.18014,0.5028
528.829,26.89413,-0.29037,-4.18012,0.50258
529.429,26.9125,-0.29031,-4.17994,0.50237
530.029,26.9309,-0.29144,-4.17882,0.50215
530.629,26.94939,-0.29202,-4.17882,0.50193
531.229,26.9678,-0.29246,-4.17874,0.50171
531.829,26.9864,-0.29169,-4.18011,0.5015
532.429,27.00484,-0.28999,-4.18016,0.50128
533.029,27.0233,-0.28816,-4.18042,0.50106
533.629,27.0418,-0.28453,-4.18145,0.50085
534.229,27.0603,-0.28705,-4.18145,0.50063
534.829,27.07878,-0.28874,-4.18145,0.50041
535.429,27.09729,-0.28697,-4.1814,0.50019
536.029,27.1158,-0.28454,-4.18263,0.49998
536.629,27.13428,-0.28403,-4.18286,0.49976
537.229,27.15277,-0.28361,-4.18348,0.49954
537.829,27.17132,-0.28367,-4.18418,0.49933
538.429,27.18978,-0.28454,-4.1842,0.49911
539.029,27.2083,-0.28146,-4.18441,0.49889
539.629,27.22676,-0.28245,-4.18557,0.49867
540.229,27.24529,-0.28076,-4.18552,0.49846
540.829,27.26375,-0.27929,-4.18551,0.49824
541.429,27.2824,-0.27782,-4.18553,0.49802
542.029,27.301,-0.27803,-4.18688,0.49781
542.629,27.3196,-0.2749,-4.18683,0.49759
543.229,27.33809,-0.27666,-4.18675,0.49737
543.829,27.3567,-0.2771,-4.18812,0.49716
544.429,27.37521,-0.27877,-4.18818,0.49694
545.029,27.39377,-0.27685,-4.1885,0.49672
545.629,27.41238,-0.27456,-4.18912,0.49651
546.229,27.431,-0.27306,-4.18914,0.49629
546.829,27.4496,-0.27353,-4.19042,0.49607
547.429,27.4682,-0.27544,-4.19045,0.49586
548.029,27.48678,-0.27487,-4.19084,0.49564
548.629,27.5053,-0.27585,-4.19196,0.49542
549.229,27.52396,-0.2744,-4.19223,0.49521
549.829,27.54255,-0.2717,-4.1932,0.49499
550.429,27.56113,-0.27424,-4.19319,0.49477
551.029,27.57974,-0.27408,-4.19319,0.49456
551.629,27.5983,-0.2775,-4.19319,0.49434
552.229,27.61695,-0.27739,-4.1932,0.49412
552.829,27.6356,-0.2763,-4.1935,0.49391
553.429,27.65423,-0.27462,-4.19456,0.49369
554.029,27.67281,-0.27407,-4.19515,0.49348
554.629,27.6913,-0.27558,-4.19592,0.49326
555.229,27.70995,-0.27554,-4.19594,0.49304
555.829,27.7286,-0.27512,-4.19595,0.49283
556.429,27.74727,-0.27798,-4.19637,0.49261
557.029,27.766,-0.27748,-4.19729,0.4924
557.629,27.78475,-0.27539,-4.19727,0.49218
558.229,27.80343,-0.27462,-4.19741,0.49196
558.829,27.82214,-0.27576,-4.19861,0.49175
559.429,27.8408,-0.27796,-4.19857,0.49153
560.029,27.85947,-0.27842,-4.19857,0.49132
560.629,27.8781,-0.27596,-4.19806,0.4911
561.229,27.89685,-0.27507,-4.19717,0.49089
561.829,27.91552,-0.27603,-4.19833,0.49067
562.429,27.93415,-0.27581,-4.19848,0.49045
563.029,27.95288,-0.27158,-4.19977,0.49024
563.629,27.9716,-0.27262,-4.19998,0.49002
564.229,27.99029,-0.27143,-4.20067,0.48981
564.829,28.0089,-0.27117,-4.20132,0.48959
565.429,28.0277,-0.27326,-4.20131,0.48938
566.029,28.0464,-0.27139,-4.20131,0.48916
566.629,28.06515,-0.26975,-4.2013,0.48895
567.229,28.08393,-0.2713,-4.20124,0.48873
567.829,28.10271,-0.27186,-4.20188,0.48852
568.429,28.12148,-0.27329,-4.20133,0.4883
569.029,28.1402,-0.2708,-4.20131,0.48809
569.629,28.15895,-0.26896,-4.20252,0.48787
570.229,28.1777,-0.27034,-4.20383,0.48766
570.829,28.19647,-0.27038,-4.20393,0.48744
571.429,28.21525,-0.26929,-4.20396,0.48723
572.029,28.2341,-0.26662,-4.2043,0.48701
572.629,28.25286,-0.26726,-4.20527,0.4868
573.229,28.2717,-0.26758,-4.20526,0.48658
573.829,28.29048,-0.26389,-4.20526,0.48637
574.429,28.30927,-0.26626,-4.20653,0.48616
575.029,28.3281,-0.26693,-4.20657,0.48594
575.629,28.3469,-0.26521,-4.20657,0.48573
576.229,28.36565,-0.26199,-4.20649,0.48551
576.829,28.38448,-0.26151,-4.20781,0.4853
577.429,28.40328,-0.26458,-4.20789,0.48508
578.029,28.42209,-0.26265,-4.20789,0.48487
578.629,28.4409,-0.25899,-4.20789,0.48466
579.229,28.4598,-0.2598,-4.20789,0.48444
579.829,28.4786,-0.26051,-4.20789,0.48423
580.429,28.4975,-0.25663,-4.2078,0.48401
581.029,28.5163,-0.25956,-4.20917,0.4838
581.629,28.53513,-0.25829,-4.20921,0.48359
582.229,28.55397,-0.25747,-4.20924,0.48337
582.829,28.5728,-0.25681,-4.20884,0.48316
583.429,28.59161,-0.25595,-4.20886,0.48295
584.029,28.6105,-0.25586,-4.20958,0.48273
584.629,28.62935,-0.25328,-4.2102,0.48252
585.229,28.6483,-0.25027,-4.21019,0.48231
585.829,28.66718,-0.24836,-4.21019,0.48209
586.429,28.68618,-0.24708,-4.21029,0.48188
587.029,28.7051,-0.24972,-4.2116,0.48167
587.629,28.72403,-0.24796,-4.21152,0.48145
588.229,28.7429,-0.24724,-4.21151,0.48124
588.829,28.76179,-0.24439,-4.21148,0.48103
589.429,28.7806,-0.24286,-4.21255,0.48081
590.029,28.7996,-0.24177,-4.21283,0.4806
590.629,28.81849,-0.24164,-4.21283,0.48039
591.229,28.83742,-0.23985,-4.21283,0.48018
591.829,28.85636,-0.24169,-4.21283,0.47996
592.429,28.8753,-0.23825,-4.21277,0.47975
593.029,28.89426,-0.23908,-4.2137,0.47954
593.629,28.91321,-0.23638,-4.21395,0.47933
594.229,28.9322,-0.23595,-4.21529,0.47911
594.829,28.9511,-0.23429,-4.21524,0.4789
595.429,28.97002,-0.22929,-4.21557,0.47869
596.029,28.98899,-0.231,-4.21657,0.47848
596.629,29.00791,-0.23102,-4.21652,0.47827
597.229,29.0269,-0.22527,-4.21693,0.47805
597.829,29.0459,-0.22298,-4.21745,0.47784
598.429,29.06492,-0.22314,-4.21821,0.47763
599.029,29.0839,-0.22192,-4.2182,0.47742
599.629,29.1029,-0.21713,-4.2182,0.47721
600.229,29.1219,-0.21883,-4.21824,0.47699
600.829,29.1408,-0.21985,-4.21716,0.47678
601.429,29.1597,-0.21933,-4.21689,0.47657
602.029,29.17865,-0.21835,-4.21681,0.47636
602.629,29.19765,-0.21278,-4.21743,0.47615
603.229,29.21678,-0.21244,-4.21688,0.47594
603.829,29.236,-0.21163,-4.2168,0.47573
604.429,29.2551,-0.21017,-4.21822,0.47552
605.029,29.2743,-0.21031,-4.21961,0.47531
605.629,29.29335,-0.21026,-4.21953,0.47509
606.229,29.31239,-0.21238,-4.21953,0.47488
606.829,29.3314,-0.20707,-4.21962,0.47467
607.429,29.35042,-0.20547,-4.22084,0.47446
608.029,29.36945,-0.20491,-4.22084,0.47425
608.629,29.38839,-0.20319,-4.22137,0.47404
609.229,29.4074,-0.20118,-4.22217,0.47383
609.829,29.42642,-0.19919,-4.22204,0.47362
610.429,29.4454,-0.19923,-4.22075,0.47341
611.029,29.46448,-0.19863,-4.22082,0.4732
611.629,29.4836,-0.20008,-4.22083,0.47299
612.229,29.5027,-0.19742,-4.22083,0.47278
612.829,29.5218,-0.19835,-4.22081,0.47257
613.429,29.5409,-0.19786,-4.22157,0.47236
614.029,29.56001,-0.19865,-4.22215,0.47215
614.629,29.5792,-0.19617,-4.22215,0.47194
615.229,29.5983,-0.19093,-4.22215,0.47173
615.829,29.61735,-0.18838,-4.22214,0.47152
616.429,29.6365,-0.18521,-4.22205,0.47131
617.029,29.65561,-0.18674,-4.22342,0.4711
617.629,29.67468,-0.18698,-4.2235,0.47089
618.229,29.69381,-0.18269,-4.22311,0.47069
618.829,29.7129,-0.18576,-4.22316,0.47048
619.429,29.7321,-0.18253,-4.22453,0.47027
620.029,29.75119,-0.18024,-4.22445,0.47006
620.629,29.77034,-0.17925,-4.22445,0.46985
621.229,29.78946,-0.1709,-4.22445,0.46964
621.829,29.80858,-0.16503,-4.22445,0.46943
622.429,29.8277,-0.17263,-4.22441,0.46922
623.029,29.8468,-0.17164,-4.22562,0.46902
623.629,29.8658,-0.16817,-4.22576,0.46881
624.229,29.8849,-0.16576,-4.22577,0.4686
624.829,29.904,-0.16848,-4.22577,0.46839
625.429,29.92313,-0.16713,-4.22577,0.46818
626.029,29.9423,-0.16765,-4.22577,0.46798
626.629,29.9615,-0.16452,-4.22574,0.46777
627.229,29.98065,-0.16251,-4.2268,0.46756
627.829,29.99985,-0.16096,-4.22676,0.46735
628.429,30.019,-0.15676,-4.22676,0.46714
629.029,30.0382,-0.15115,-4.22704,0.46694
629.629,30.0574,-0.15051,-4.22708,0.46673
630.229,30.0765,-0.15416,-4.22709,0.46652
630.829,30.0957,-0.15178,-4.22709,0.46631
631.429,30.11487,-0.14614,-4.22709,0.46611
632.029,30.1341,-0.14823,-4.2271,0.4659
632.629,30.15325,-0.14964,-4.22724,0.46569
633.229,30.17248,-0.14401,-4.22845,0.46549
633.829,30.1917,-0.13969,-4.2284,0.46528
634.429,30.2109,-0.13774,-4.22881,0.46507
635.029,30.2301,-0.13903,-4.22972,0.46487
635.629,30.24932,-0.1385,-4.22972,0.46466
636.229,30.2685,-0.13777,-4.22972,0.46445
636.829,30.2877,-0.13582,-4.22972,0.46425
637.429,30.3069,-0.13281,-4.22972,0.46404
638.029,30.3262,-0.13231,-4.22972,0.46384
638.629,30.34538,-0.13059,-4.22972,0.46363
639.229,30.3647,-0.13119,-4.22967,0.46342
639.829,30.384,-0.12605,-4.23069,0.46322
640.429,30.4033,-0.12168,-4.23084,0.46301
641.029,30.42255,-0.12504,-4.23002,0.46281
641.629,30.44182,-0.1236,-4.23004,0.4626
642.229,30.4611,-0.12195,-4.23004,0.4624
642.829,30.48034,-0.12195,-4.23004,0.46219
643.429,30.4996,-0.12465,-4.23004,0.46199
644.029,30.5189,-0.11877,-4.23004,0.46178
644.629,30.5382,-0.12063,-4.23004,0.46158
645.229,30.55749,-0.11688,-4.23005,0.46137
645.829,30.5769,-0.11848,-4.23044,0.46117
646.429,30.59617,-0.12019,-4.23139,0.46096
647.029,30.6155,-0.11988,-4.23127,0.46076
647.629,30.63485,-0.11303,-4.2326,0.46055
648.229,30.65417,-0.11597,-4.23344,0.46035
648.829,30.67355,-0.11428,-4.23397,0.46014
649.429,30.6929,-0.10942,-4.23401,0.45994
650.029,30.71217,-0.10772,-4.23409,0.45974
650.629,30.73149,-0.10632,-4.23534,0.45953
651.229,30.7508,-0.10429,-4.23531,0.45933
651.829,30.7702,-0.10097,-4.23531,0.45912
652.429,30.78967,-0.10037,-4.23531,0.45892
653.029,30.80923,-0.10047,-4.23531,0.45872
653.629,30.82875,-0.09425641,-4.23531,0.45851
654.229,30.84825,-0.0935979,-4.23532,0.45831
654.829,30.86774,-0.09163431,-4.2354,0.45811
655.429,30.8871,-0.09143802,-4.23421,0.4579
656.029,30.90656,-0.08731093,-4.23547,0.4577
656.629,30.9259,-0.08844812,-4.23563,0.4575
657.229,30.9453,-0.08920163,-4.23564,0.4573
657.829,30.96465,-0.08648142,-4.23566,0.45709
658.429,30.9841,-0.08385336,-4.23601,0.45689
659.029,31.00348,-0.0806277,-4.23713,0.45669
659.629,31.0229,-0.07864539,-4.23833,0.45649
660.229,31.04232,-0.07883736,-4.23828,0.45628
660.829,31.0617,-0.0731197,-4.23828,0.45608
661.429,31.08115,-0.07332522,-4.23785,0.45588
662.029,31.1006,-0.07269392,-4.23697,0.45568
662.629,31.12012,-0.07449443,-4.23696,0.45548
663.229,31.13955,-0.07314925,-4.23696,0.45527
663.829,31.159,-0.06818054,-4.23696,0.45507
664.429,31.1784,-0.06571222,-4.23692,0.45487
665.029,31.1979,-0.06262448,-4.23818,0.45467
665.629,31.2173,-0.06182141,-4.23826,0.45447
666.229,31.23675,-0.05950855,-4.23827,0.45427
666.829,31.25621,-0.06038911,-4.23827,0.45407
667.429,31.27566,-0.05767973,-4.23827,0.45387
668.029,31.29516,-0.05302099,-4.23827,0.45367
668.629,31.3147,-0.05468653,-4.23822,0.45346
669.229,31.33425,-0.05205865,-4.23928,0.45326
669.829,31.3537,-0.05173024,-4.23961,0.45306
670.429,31.3732,-0.04709824,-4.23867,0.45286
671.029,31.3927,-0.04692441,-4.23824,0.45266
671.629,31.41214,-0.0455464,-4.23936,0.45246
672.229,31.43165,-0.03941714,-4.23928,0.45226
672.829,31.45117,-0.04245458,-4.23927,0.45206
673.429,31.4707,-0.04381374,-4.23927,0.45186
674.029,31.49018,-0.03837724,-4.23927,0.45166
674.629,31.5097,-0.03769558,-4.23959,0.45146
675.229,31.5292,-0.03392697,-4.23959,0.45126
675.829,31.5487,-0.0379344,-4.23982,0.45107
676.429,31.56823,-0.03599637,-4.24094,0.45087
677.029,31.5878,-0.0349573,-4.24083,0.45067
677.629,31.6074,-0.02843498,-4.2422,0.45047
678.229,31.6269,-0.02662872,-4.24222,0.45027
678.829,31.64643,-0.02731805,-4.24221,0.45007
679.429,31.66596,-0.02863638,-4.24188,0.44987
680.029,31.68542,-0.02498641,-4.24081,0.44967
680.629,31.7048,-0.02199368,-4.24195,0.44948
681.229,31.72438,-0.02553048,-4.24222,0.44928
681.829,31.7439,-0.02044291,-4.24223,0.44908
682.429,31.7634,-0.01725399,-4.24223,0.44888
683.029,31.7832,-0.01487593,-4.24223,0.44868
683.629,31.8028,-0.01120457,-4.24223,0.44849
684.229,31.8224,-0.007550699,-4.24223,0.44829
684.829,31.8419,-0.008016334,-4.24223,0.44809
685.429,31.86151,-0.0042801,-4.24223,0.44789
686.029,31.88105,-0.002537111,-4.24223,0.4477
686.629,31.90065,-0.0009255014,-4.24223,0.4475
687.229,31.92032,0.003571804,-4.24223,0.4473
687.829,31.9399,0.00344451,-4.24255,0.4471
688.429,31.9595,0.008385506,-4.24225,0.44691
689.029,31.97905,0.01388496,-4.24222,0.44671
689.629,31.99865,0.01815378,-4.24222,0.44651
690.229,32.0182,0.01520898,-4.24222,0.44632
690.829,32.0379,0.0155746,-4.24222,0.44612
691.429,32.05746,0.01816443,-4.24222,0.44593
692.029,32.07705,0.01828134,-4.2422,0.44573
692.629,32.09661,0.01654114,-4.24176,0.44553
693.229,32.11619,0.01550442,-4.24256,0.44534
693.829,32.13576,0.01390419,-4.24286,0.44514
694.429,32.15533,0.01890442,-4.24288,0.44495
695.029,32.17485,0.01908569,-4.24288,0.44475
695.629,32.19443,0.01783058,-4.24288,0.44456
696.229,32.21407,0.02000755,-4.24288,0.44436
696.829,32.2337,0.01511828,-4.24288,0.44416
697.429,32.25346,0.01564979,-4.24288,0.44397
698.029,32.27315,0.01461451,-4.24288,0.44377
698.629,32.2928,0.01667953,-4.24288,0.44358
699.229,32.3125,0.0193002,-4.2429,0.44339
699.829,32.33218,0.02333553,-4.24428,0.44319
700.429,32.35178,0.02203645,-4.24419,0.443
701.029,32.37147,0.02463384,-4.24495,0.4428
701.629,32.39116,0.02993241,-4.24448,0.44261
702.229,32.4108,0.02343052,-4.24452,0.44241
702.829,32.43047,0.01654314,-4.24452,0.44222
703.429,32.45022,0.01422612,-4.24452,0.44203
704.029,32.46983,0.0111392,-4.24485,0.44183
704.629,32.48952,0.00947448,-4.24485,0.44164
705.229,32.5092,0.006100301,-4.24485,0.44145
705.829,32.52883,0.00810956,-4.24485,0.44125
706.429,32.54849,0.003472718,-4.24485,0.44106
707.029,32.56814,-0.00159776,-4.24478,0.44087
707.629,32.58782,-0.003696617,-4.24616,0.44067
708.229,32.60751,-0.00654412,-4.24617,0.44048
708.829,32.6272,-0.008762268,-4.24617,0.44029
709.429,32.6469,-0.009254103,-4.24631,0.4401
710.029,32.66659,-0.01614014,-4.24755,0.4399
710.629,32.6862,-0.0118339,-4.24749,0.43971
711.229,32.70595,-0.02169936,-4.24748,0.43952
711.829,32.7256,-0.02002834,-4.24748,0.43933
712.429,32.74535,-0.01835456,-4.24748,0.43913
713.029,32.76506,-0.01935017,-4.24748,0.43894
713.629,32.78485,-0.01631944,-4.24748,0.43875
714.229,32.80457,-0.01860828,-4.24748,0.43856
714.829,32.82428,-0.02048553,-4.24748,0.43837
715.429,32.84405,-0.02069167,-4.24748,0.43818
716.029,32.86379,-0.01705092,-4.24748,0.43799
716.629,32.88348,-0.0254171,-4.24748,0.4378
717.229,32.90317,-0.02406628,-4.24749,0.4376
717.829,32.92288,-0.02357139,-4.24769,0.43741
718.429,32.94258,-0.02322187,-4.24872,0.43722
719.029,32.9623,-0.03069667,-4.24757,0.43703
719.629,32.982,-0.03341818,-4.24843,0.43684
720.229,33.00178,-0.03322131,-4.24891,0.43665
720.829,33.02153,-0.03242468,-4.24892,0.43646
721.429,33.04128,-0.03256266,-4.24892,0.43627
722.029,33.061,-0.03042633,-4.24892,0.43608
722.629,33.0807,-0.0276355,-4.24892,0.43589
723.229,33.10046,-0.0313818,-4.24892,0.4357
723.829,33.1202,-0.03064453,-4.24893,0.43551
724.429,33.1399,-0.02961671,-4.25023,0.43532
725.029,33.1597,-0.02754815,-4.25023,0.43513
725.629,33.17946,-0.02962231,-4.25023,0.43495
726.229,33.19919,-0.02968915,-4.25023,0.43476
726.829,33.21895,-0.02906146,-4.25023,0.43457
727.429,33.23871,-0.02870387,-4.25023,0.43438
728.029,33.2585,-0.02590256,-4.25025,0.43419
728.629,33.27828,-0.02647259,-4.25085,0.434
729.229,33.29865,-0.02323667,-4.25021,0.43381
729.829,33.31899,-0.02113866,-4.25023,0.43363
730.229,33.33204,-0.01967311,-4.25023,0.4335